File: 01_Data/MDF/Cone/MDF_HRRPUA_25.csv
Time after Ignition,MDF_R1,MDF_R2,MDF_R3,Mean,Std. Dev.
0.0,2.9,21.4,31.5,18.6,14.5
1.0,10.3,37.2,51.5,33.0,20.9
2.0,23.6,55.6,74.6,51.3,25.8
3.0,43.1,78.0,93.6,71.6,25.9
4.0,65.7,101.6,111.5,93.0,24.1
5.0,84.8,121.5,124.4,110.2,22.1
6.0,104.6,141.5,141.7,129.3,21.4
7.0,126.7,160.3,163.5,150.2,20.4
8.0,143.2,179.2,176.6,166.3,20.1
9.0,159.7,192.8,196.1,182.9,20.1
10.0,173.9,196.8,203.7,191.5,15.6
11.0,189.8,209.5,216.0,205.1,13.7
12.0,197.6,219.9,224.6,214.0,14.4
13.0,204.9,223.0,230.7,219.5,13.2
14.0,213.6,231.6,236.6,227.3,12.1
15.0,217.3,237.7,236.3,230.4,11.4
16.0,224.0,241.7,233.4,233.0,8.9
17.0,226.4,240.8,234.7,234.0,7.2
18.0,236.1,240.3,239.5,238.6,2.2
19.0,238.0,247.4,236.1,240.5,6.1
20.0,238.9,241.1,246.0,242.0,3.6
21.0,241.3,240.8,241.8,241.3,0.5
22.0,240.8,239.3,236.3,238.8,2.3
23.0,245.2,239.5,239.7,241.5,3.3
24.0,243.1,236.3,240.5,240.0,3.4
25.0,240.4,233.8,234.0,236.1,3.7
26.0,236.1,241.6,231.7,236.4,4.9
27.0,241.6,238.1,236.7,238.8,2.5
28.0,239.1,237.3,230.7,235.7,4.4
29.0,239.7,234.0,232.9,235.5,3.7
30.0,241.3,234.3,230.7,235.4,5.4
31.0,236.5,232.5,231.0,233.3,2.9
32.0,239.2,236.4,224.4,233.3,7.9
33.0,237.6,232.6,227.5,232.6,5.1
34.0,232.2,232.4,225.3,230.0,4.1
35.0,230.0,228.8,218.8,225.9,6.1
36.0,231.1,226.6,221.1,226.3,5.0
37.0,234.2,227.2,213.5,224.9,10.5
38.0,227.2,225.5,215.5,222.7,6.3
39.0,225.3,225.3,215.3,222.0,5.8
40.0,219.3,221.8,208.4,216.5,7.1
41.0,219.5,221.4,208.5,216.5,7.0
42.0,216.8,216.6,205.0,212.8,6.8
43.0,221.1,214.1,202.0,212.4,9.7
44.0,213.6,208.8,201.0,207.8,6.3
45.0,213.2,209.0,201.2,207.8,6.1
46.0,214.5,208.4,197.3,206.7,8.7
47.0,214.2,202.9,200.6,205.9,7.3
48.0,210.5,204.3,197.9,204.2,6.3
49.0,206.9,204.7,197.3,203.0,5.0
50.0,201.2,205.0,197.9,201.4,3.5
51.0,205.5,202.8,192.5,200.3,6.9
52.0,198.4,199.0,189.6,195.6,5.3
53.0,202.0,193.1,191.7,195.6,5.6
54.0,197.7,194.3,188.5,193.5,4.6
55.0,194.4,189.4,185.5,189.8,4.4
56.0,193.4,188.6,183.2,188.4,5.1
57.0,190.8,187.4,178.8,185.7,6.2
58.0,190.2,185.9,180.1,185.4,5.1
59.0,187.1,181.7,181.0,183.3,3.3
60.0,186.2,183.4,180.2,183.2,3.0
61.0,185.7,181.0,178.4,181.7,3.7
62.0,182.5,179.1,173.4,178.4,4.6
63.0,189.5,179.8,176.4,181.9,6.8
64.0,181.3,176.5,172.5,176.8,4.4
65.0,182.0,176.1,174.2,177.4,4.0
66.0,177.7,174.6,172.1,174.8,2.8
67.0,175.2,175.7,171.3,174.1,2.4
68.0,176.9,171.1,168.7,172.2,4.2
69.0,172.3,169.7,168.3,170.1,2.0
70.0,169.1,167.9,165.4,167.5,1.9
71.0,169.7,166.5,166.5,167.6,1.9
72.0,166.0,165.1,163.6,164.9,1.2
73.0,169.4,164.7,162.1,165.4,3.7
74.0,165.1,163.0,159.0,162.4,3.1
75.0,162.9,164.5,156.9,161.5,4.0
76.0,159.8,163.9,158.0,160.6,3.0
77.0,162.4,159.6,158.5,160.2,2.0
78.0,160.9,157.1,154.8,157.6,3.0
79.0,161.1,158.5,154.5,158.1,3.3
80.0,160.1,157.1,153.6,157.0,3.2
81.0,155.5,153.9,153.0,154.1,1.3
82.0,158.0,154.4,153.1,155.1,2.5
83.0,155.5,153.6,150.8,153.3,2.3
84.0,158.0,151.2,150.3,153.2,4.2
85.0,154.9,148.1,152.0,151.7,3.4
86.0,154.9,152.6,149.2,152.2,2.9
87.0,152.5,148.2,148.2,149.6,2.5
88.0,148.1,147.0,145.0,146.7,1.6
89.0,150.7,147.5,143.9,147.4,3.4
90.0,149.5,149.2,143.9,147.6,3.2
91.0,148.3,147.1,143.0,146.1,2.8
92.0,148.8,147.5,140.7,145.7,4.3
93.0,149.3,145.1,142.7,145.7,3.3
94.0,146.3,143.8,139.5,143.2,3.5
95.0,145.3,142.7,140.9,143.0,2.2
96.0,147.9,144.0,140.9,144.2,3.5
97.0,146.4,142.1,139.4,142.6,3.5
98.0,145.6,141.7,138.9,142.1,3.4
99.0,144.8,140.9,136.5,140.7,4.2
100.0,142.6,140.6,136.4,139.9,3.2
101.0,140.6,140.6,137.2,139.5,1.9
102.0,140.7,139.9,136.1,138.9,2.5
103.0,140.4,139.1,135.6,138.3,2.5
104.0,140.9,135.2,134.3,136.8,3.6
105.0,141.5,135.2,131.8,136.1,4.9
106.0,138.9,135.6,132.9,135.8,3.0
107.0,139.3,137.7,131.0,136.0,4.4
108.0,137.8,134.9,129.7,134.1,4.1
109.0,136.4,131.6,129.5,132.5,3.5
110.0,135.0,133.5,131.1,133.2,2.0
111.0,134.6,132.1,129.3,132.0,2.6
112.0,131.8,132.8,130.3,131.6,1.2
113.0,131.9,130.9,128.1,130.3,1.9
114.0,132.5,129.8,129.4,130.6,1.7
115.0,133.2,128.0,128.6,130.0,2.9
116.0,128.7,128.9,127.4,128.3,0.8
117.0,131.7,127.4,126.9,128.7,2.6
118.0,132.5,128.7,125.8,129.0,3.3
119.0,128.6,129.0,126.2,127.9,1.5
120.0,127.4,128.7,124.3,126.8,2.2
121.0,131.0,125.5,123.1,126.5,4.1
122.0,127.9,125.4,123.1,125.5,2.4
123.0,128.0,125.9,124.1,126.0,2.0
124.0,128.3,125.5,122.0,125.2,3.2
125.0,126.2,126.2,121.4,124.6,2.8
126.0,126.9,124.4,123.4,124.9,1.8
127.0,126.3,125.1,122.0,124.5,2.2
128.0,126.0,124.9,121.8,124.2,2.2
129.0,126.3,125.6,120.7,124.2,3.1
130.0,126.5,122.5,120.1,123.0,3.3
131.0,124.5,121.3,121.5,122.4,1.8
132.0,125.8,121.7,120.1,122.5,2.9
133.0,126.7,122.3,117.5,122.2,4.6
134.0,127.0,123.9,119.1,123.3,4.0
135.0,124.7,123.2,118.8,122.2,3.0
136.0,124.2,123.2,119.4,122.2,2.5
137.0,124.7,123.0,118.3,122.0,3.3
138.0,121.3,120.9,118.2,120.1,1.7
139.0,123.0,122.2,118.3,121.1,2.5
140.0,121.1,119.6,118.2,119.6,1.5
141.0,121.9,120.7,118.4,120.3,1.8
142.0,120.6,120.2,116.7,119.2,2.2
143.0,119.2,119.4,116.6,118.4,1.6
144.0,118.8,119.6,115.5,118.0,2.2
145.0,118.4,119.3,118.4,118.7,0.6
146.0,119.6,121.8,118.2,119.9,1.8
147.0,118.1,121.3,116.6,118.6,2.4
148.0,119.2,118.8,118.2,118.7,0.5
149.0,117.6,119.0,116.2,117.6,1.4
150.0,117.4,120.0,115.9,117.7,2.1
151.0,118.4,120.2,116.3,118.3,2.0
152.0,114.6,121.1,116.0,117.2,3.4
153.0,117.5,119.4,115.3,117.4,2.1
154.0,115.2,119.6,116.5,117.1,2.3
155.0,115.4,117.7,116.4,116.5,1.2
156.0,114.9,119.4,115.1,116.5,2.5
157.0,116.1,116.6,116.8,116.5,0.3
158.0,114.7,116.0,113.5,114.8,1.2
159.0,113.4,116.2,115.1,114.9,1.4
160.0,114.4,117.7,112.7,114.9,2.6
161.0,114.1,115.6,112.7,114.1,1.5
162.0,113.1,115.9,113.3,114.1,1.6
163.0,112.2,114.4,112.8,113.1,1.1
164.0,111.6,114.0,110.2,112.0,1.9
165.0,111.7,114.6,112.7,113.0,1.4
166.0,114.3,114.5,111.0,113.3,2.0
167.0,114.5,111.9,113.1,113.1,1.3
168.0,111.6,112.4,112.5,112.2,0.5
169.0,112.2,109.9,111.4,111.2,1.1
170.0,113.0,112.1,112.0,112.4,0.5
171.0,111.8,111.4,111.4,111.5,0.3
172.0,110.7,110.6,111.7,111.0,0.6
173.0,110.3,112.2,110.9,111.1,1.0
174.0,111.2,110.4,110.7,110.8,0.4
175.0,109.7,112.1,108.3,110.1,1.9
176.0,108.2,110.3,111.0,109.8,1.4
177.0,107.9,110.8,110.7,109.8,1.6
178.0,108.0,109.2,110.1,109.1,1.1
179.0,105.8,110.4,110.5,108.9,2.7
180.0,106.5,110.1,111.0,109.2,2.4
181.0,107.3,109.8,109.9,109.0,1.5
182.0,105.6,108.8,109.1,107.8,2.0
183.0,106.0,111.0,110.3,109.1,2.7
184.0,105.2,109.5,110.9,108.5,2.9
185.0,105.6,109.6,109.4,108.2,2.3
186.0,105.6,110.3,108.4,108.1,2.4
187.0,104.6,110.7,108.3,107.8,3.1
188.0,103.4,110.0,108.8,107.4,3.5
189.0,103.5,110.2,108.6,107.4,3.5
190.0,103.8,109.3,107.8,107.0,2.9
191.0,103.2,108.7,107.9,106.6,3.0
192.0,104.1,108.2,107.7,106.7,2.2
193.0,103.2,106.7,107.3,105.7,2.2
194.0,102.6,106.0,106.5,105.1,2.1
195.0,102.0,106.0,107.1,105.0,2.7
196.0,101.6,105.5,105.1,104.1,2.1
197.0,101.7,103.0,104.4,103.0,1.3
198.0,102.1,103.8,104.6,103.5,1.3
199.0,102.8,104.8,104.5,104.0,1.1
200.0,102.4,104.4,103.9,103.6,1.0
201.0,102.7,102.4,103.0,102.7,0.3
202.0,102.2,101.5,103.4,102.4,1.0
203.0,101.4,103.1,103.4,102.7,1.1
204.0,102.1,102.7,102.6,102.5,0.3
205.0,101.1,101.1,101.4,101.2,0.2
206.0,101.9,101.6,102.0,101.8,0.2
207.0,102.7,101.7,101.8,102.1,0.6
208.0,101.6,101.1,100.8,101.1,0.4
209.0,102.2,102.6,101.0,101.9,0.8
210.0,100.9,102.1,99.6,100.9,1.2
211.0,101.9,102.7,101.9,102.2,0.4
212.0,102.1,102.3,99.5,101.3,1.6
213.0,100.2,103.3,102.1,101.9,1.6
214.0,101.1,103.9,100.5,101.8,1.8
215.0,99.1,105.3,98.2,100.9,3.8
216.0,99.2,105.6,100.7,101.8,3.4
217.0,99.2,102.7,99.2,100.4,2.0
218.0,98.8,102.9,99.0,100.2,2.3
219.0,100.0,103.2,99.7,101.0,1.9
220.0,99.3,102.9,98.2,100.1,2.5
221.0,100.1,103.9,99.2,101.1,2.5
222.0,97.3,101.5,97.7,98.8,2.3
223.0,97.3,102.1,100.2,99.9,2.4
224.0,97.9,101.7,99.0,99.5,2.0
225.0,99.4,101.1,97.7,99.4,1.7
226.0,99.3,102.5,96.2,99.3,3.1
227.0,99.8,102.1,96.6,99.5,2.8
228.0,98.8,100.4,96.4,98.5,2.0
229.0,97.8,102.1,95.9,98.6,3.1
230.0,97.6,100.6,95.6,97.9,2.5
231.0,96.3,99.4,97.9,97.8,1.6
232.0,96.3,100.6,97.5,98.1,2.2
233.0,97.1,99.4,97.6,98.0,1.2
234.0,97.6,101.9,97.8,99.1,2.4
235.0,96.6,100.7,97.3,98.2,2.2
236.0,98.5,100.0,98.0,98.8,1.0
237.0,99.8,101.5,96.5,99.3,2.5
238.0,97.9,101.2,98.0,99.0,1.9
239.0,97.0,98.4,98.3,97.9,0.8
240.0,96.5,98.9,96.7,97.3,1.4
241.0,97.2,99.1,97.1,97.8,1.1
242.0,95.0,98.8,98.1,97.3,2.0
243.0,96.4,99.3,98.4,98.0,1.5
244.0,95.8,99.0,97.1,97.3,1.6
245.0,96.4,98.7,96.8,97.3,1.2
246.0,95.5,99.7,97.1,97.4,2.1
247.0,94.9,99.4,97.7,97.3,2.3
248.0,94.5,100.0,97.6,97.4,2.7
249.0,93.3,99.7,94.2,95.7,3.5
250.0,94.9,99.2,95.2,96.4,2.4
251.0,95.8,95.7,95.5,95.7,0.2
252.0,97.6,97.3,96.3,97.1,0.7
253.0,95.5,96.8,97.0,96.4,0.8
254.0,93.2,97.1,94.6,95.0,2.0
255.0,95.0,95.4,94.6,95.0,0.4
256.0,93.7,95.8,94.3,94.6,1.0
257.0,94.1,96.4,94.6,95.0,1.2
258.0,94.2,96.8,95.9,95.6,1.3
259.0,94.8,95.9,93.6,94.8,1.1
260.0,94.3,95.9,95.6,95.3,0.9
261.0,93.0,95.6,94.6,94.4,1.3
262.0,92.5,95.9,94.7,94.4,1.7
263.0,92.8,94.6,95.1,94.2,1.2
264.0,93.7,93.3,94.1,93.7,0.4
265.0,93.8,94.8,93.6,94.1,0.6
266.0,93.8,94.7,93.5,94.0,0.6
267.0,93.2,96.0,94.6,94.6,1.4
268.0,92.2,95.2,93.1,93.5,1.5
269.0,92.5,94.9,92.4,93.3,1.4
270.0,92.7,94.6,93.9,93.7,1.0
271.0,92.9,94.3,91.1,92.8,1.6
272.0,92.3,94.8,92.1,93.1,1.5
273.0,91.2,95.3,90.6,92.4,2.5
274.0,92.2,96.2,93.7,94.0,2.0
275.0,91.5,94.2,93.8,93.1,1.5
276.0,93.6,95.4,92.1,93.7,1.6
277.0,91.2,94.9,92.7,92.9,1.9
278.0,93.0,94.7,92.5,93.4,1.2
279.0,90.5,94.7,92.7,92.6,2.1
280.0,92.3,93.5,93.0,92.9,0.6
281.0,92.4,94.5,92.7,93.2,1.1
282.0,92.5,95.6,92.6,93.5,1.8
283.0,94.2,94.3,93.6,94.0,0.4
284.0,92.2,93.0,91.9,92.4,0.5
285.0,91.7,93.7,93.2,92.9,1.0
286.0,92.5,94.3,91.7,92.8,1.3
287.0,92.4,94.4,92.2,93.0,1.2
288.0,92.0,92.2,91.4,91.9,0.4
289.0,91.3,95.1,91.4,92.6,2.2
290.0,92.3,95.1,92.2,93.2,1.7
291.0,92.5,95.8,91.7,93.3,2.1
292.0,90.3,94.7,92.7,92.5,2.2
293.0,91.1,93.3,88.9,91.1,2.2
294.0,92.3,92.4,91.4,92.0,0.5
295.0,92.6,94.4,89.6,92.2,2.4
296.0,91.5,92.2,90.1,91.3,1.1
297.0,90.1,93.3,91.3,91.6,1.6
298.0,92.2,93.0,89.9,91.7,1.6
299.0,92.6,92.4,90.5,91.9,1.1
300.0,92.8,91.1,90.3,91.4,1.3
301.0,95.1,89.8,89.0,91.3,3.3
302.0,93.6,90.5,90.2,91.4,1.9
303.0,92.2,89.6,89.5,90.4,1.5
304.0,94.0,90.8,89.4,91.4,2.3
305.0,92.3,92.6,89.4,91.4,1.8
306.0,92.1,92.4,88.4,91.0,2.2
307.0,90.5,91.2,89.7,90.5,0.8
308.0,90.9,92.0,90.3,91.1,0.9
309.0,91.9,91.1,90.7,91.2,0.6
310.0,92.1,91.6,88.7,90.8,1.9
311.0,89.7,92.4,89.3,90.4,1.7
312.0,91.0,93.7,87.9,90.9,2.9
313.0,90.9,92.3,89.3,90.8,1.5
314.0,90.6,91.4,88.0,90.0,1.8
315.0,89.4,91.7,88.1,89.7,1.8
316.0,90.7,93.3,86.9,90.3,3.2
317.0,89.6,91.7,88.1,89.8,1.8
318.0,88.4,92.1,89.7,90.1,1.9
319.0,90.5,92.1,87.9,90.2,2.1
320.0,89.7,93.9,88.9,90.8,2.7
321.0,90.7,92.5,88.3,90.5,2.1
322.0,90.3,90.9,87.9,89.7,1.6
323.0,90.3,93.7,88.2,90.7,2.8
324.0,89.9,93.0,87.2,90.1,2.9
325.0,90.0,92.7,87.6,90.1,2.5
326.0,89.8,93.0,87.3,90.0,2.9
327.0,89.5,92.5,88.5,90.2,2.1
328.0,89.5,92.3,86.2,89.3,3.0
329.0,89.3,94.5,85.4,89.7,4.5
330.0,89.8,92.5,88.9,90.4,1.9
331.0,88.9,92.1,86.5,89.2,2.8
332.0,89.4,91.6,88.2,89.7,1.7
333.0,87.6,93.9,86.6,89.4,4.0
334.0,87.4,92.7,87.7,89.3,2.9
335.0,88.4,92.8,85.6,88.9,3.6
336.0,89.1,90.8,87.9,89.2,1.5
337.0,88.1,90.8,88.4,89.1,1.5
338.0,87.6,92.2,85.4,88.4,3.5
339.0,86.5,92.0,87.3,88.6,3.0
340.0,88.7,92.6,86.6,89.3,3.0
341.0,88.9,91.7,86.7,89.1,2.5
342.0,89.7,92.2,87.9,89.9,2.2
343.0,89.5,91.5,86.9,89.3,2.3
344.0,90.2,90.9,87.0,89.3,2.1
345.0,89.5,89.9,86.6,88.7,1.8
346.0,89.5,90.9,85.3,88.6,2.9
347.0,89.9,90.2,86.2,88.7,2.2
348.0,89.4,91.8,85.6,88.9,3.1
349.0,90.2,90.8,85.2,88.7,3.1
350.0,88.3,89.1,86.0,87.8,1.6
351.0,88.5,90.0,85.3,87.9,2.4
352.0,88.8,90.4,86.7,88.6,1.9
353.0,87.6,91.3,85.3,88.1,3.0
354.0,87.8,91.7,85.5,88.3,3.1
355.0,86.7,90.3,85.8,87.6,2.4
356.0,85.7,90.7,84.1,86.8,3.4
357.0,85.9,90.1,86.7,87.6,2.2
358.0,87.5,89.5,85.4,87.4,2.1
359.0,85.5,90.6,86.2,87.4,2.7
360.0,86.9,89.7,85.2,87.3,2.2
361.0,86.2,91.0,86.4,87.9,2.7
362.0,86.8,89.9,86.7,87.8,1.8
363.0,87.6,88.6,84.2,86.8,2.3
364.0,85.9,88.0,84.2,86.0,1.9
365.0,86.2,88.4,85.5,86.7,1.5
366.0,88.1,88.6,85.5,87.4,1.7
367.0,86.9,87.6,84.7,86.4,1.5
368.0,87.1,90.2,83.5,87.0,3.3
369.0,86.3,88.0,84.8,86.4,1.6
370.0,87.4,88.0,84.1,86.5,2.1
371.0,85.7,87.2,85.4,86.1,0.9
372.0,86.6,87.6,83.6,85.9,2.1
373.0,86.7,86.8,83.3,85.6,2.0
374.0,87.9,88.3,82.9,86.3,3.0
375.0,87.7,87.1,84.3,86.4,1.8
376.0,88.7,88.1,83.8,86.9,2.7
377.0,88.6,88.0,84.0,86.9,2.5
378.0,87.6,87.5,83.8,86.3,2.2
379.0,87.4,87.5,84.3,86.4,1.8
380.0,87.1,87.0,83.3,85.8,2.2
381.0,86.9,86.7,83.8,85.8,1.8
382.0,87.0,87.0,82.2,85.4,2.8
383.0,87.0,88.3,84.7,86.7,1.8
384.0,86.0,89.4,84.7,86.7,2.4
385.0,88.1,87.6,83.5,86.4,2.5
386.0,87.9,89.2,84.6,87.2,2.4
387.0,87.0,87.7,84.5,86.4,1.7
388.0,86.6,87.6,84.0,86.1,1.9
389.0,85.1,88.4,84.6,86.0,2.1
390.0,84.5,87.6,84.5,85.5,1.8
391.0,84.5,88.0,84.5,85.7,2.0
392.0,84.3,87.0,84.7,85.3,1.5
393.0,84.9,88.6,85.5,86.3,2.0
394.0,84.2,88.2,84.3,85.6,2.3
395.0,85.0,88.6,86.1,86.6,1.8
396.0,84.3,87.7,86.1,86.0,1.7
397.0,83.6,88.0,85.3,85.7,2.2
398.0,85.2,86.6,85.0,85.6,0.9
399.0,84.4,87.0,84.6,85.3,1.5
400.0,84.4,87.8,86.7,86.3,1.8
401.0,84.5,86.3,84.0,85.0,1.2
402.0,86.1,87.9,85.4,86.5,1.3
403.0,85.4,88.0,84.9,86.1,1.7
404.0,85.0,87.6,84.0,85.5,1.8
405.0,84.3,87.2,83.0,84.8,2.1
406.0,84.7,87.2,84.2,85.4,1.6
407.0,84.6,87.2,84.7,85.5,1.5
408.0,84.3,86.6,82.7,84.5,2.0
409.0,84.9,87.0,82.5,84.8,2.3
410.0,85.3,87.4,85.4,86.0,1.2
411.0,85.3,87.6,83.1,85.3,2.2
412.0,83.6,86.4,82.9,84.3,1.8
413.0,85.3,86.1,83.3,84.9,1.5
414.0,84.1,86.6,83.7,84.8,1.6
415.0,83.9,87.7,83.4,85.0,2.3
416.0,82.3,87.2,84.1,84.5,2.5
417.0,83.7,85.4,83.7,84.3,1.0
418.0,84.1,86.9,82.8,84.6,2.1
419.0,83.5,86.1,83.7,84.4,1.5
420.0,86.3,85.9,83.1,85.1,1.7
421.0,84.6,86.2,83.6,84.8,1.3
422.0,82.8,87.4,83.1,84.4,2.6
423.0,82.9,85.3,83.2,83.8,1.3
424.0,82.4,86.5,83.6,84.2,2.1
425.0,83.9,85.3,83.3,84.2,1.0
426.0,82.2,85.6,83.9,83.9,1.7
427.0,82.1,84.2,84.0,83.4,1.1
428.0,83.4,86.2,84.5,84.7,1.4
429.0,82.4,85.1,83.0,83.5,1.4
430.0,82.3,84.6,83.5,83.4,1.2
431.0,82.5,84.3,83.1,83.3,0.9
432.0,82.2,84.5,82.8,83.2,1.2
433.0,81.0,84.0,83.3,82.8,1.6
434.0,81.1,83.8,83.2,82.7,1.4
435.0,80.7,83.5,82.8,82.3,1.5
436.0,81.2,85.9,82.8,83.3,2.4
437.0,80.6,84.0,80.9,81.9,1.9
438.0,80.0,83.4,81.8,81.7,1.7
439.0,81.0,85.2,82.1,82.8,2.2
440.0,82.2,84.3,83.5,83.3,1.1
441.0,79.8,83.2,82.0,81.7,1.7
442.0,81.3,83.3,82.2,82.2,1.0
443.0,80.9,83.0,83.5,82.5,1.4
444.0,79.6,82.0,82.4,81.3,1.5
445.0,79.7,82.5,82.6,81.6,1.7
446.0,79.7,83.5,83.2,82.2,2.1
447.0,80.0,83.2,82.5,81.9,1.7
448.0,79.5,82.1,82.6,81.4,1.7
449.0,79.5,83.2,82.5,81.7,2.0
450.0,79.6,82.3,83.2,81.7,1.9
451.0,79.3,82.5,82.5,81.4,1.9
452.0,78.6,83.2,82.2,81.3,2.4
453.0,78.7,82.4,81.6,80.9,1.9
454.0,79.1,82.0,82.7,81.3,1.9
455.0,77.8,81.8,83.1,80.9,2.8
456.0,76.9,83.4,83.0,81.1,3.7
457.0,78.5,81.6,82.5,80.9,2.1
458.0,79.1,81.5,82.5,81.0,1.7
459.0,78.4,81.3,82.4,80.7,2.1
460.0,78.5,80.8,84.0,81.1,2.8
461.0,77.1,82.3,82.4,80.6,3.0
462.0,76.7,80.6,82.7,80.0,3.0
463.0,77.4,80.8,82.7,80.3,2.7
464.0,78.9,82.9,82.5,81.4,2.2
465.0,76.4,82.4,81.2,80.0,3.2
466.0,77.6,82.5,81.3,80.5,2.5
467.0,79.1,81.7,82.9,81.2,2.0
468.0,78.4,81.7,81.6,80.5,1.9
469.0,77.1,81.7,81.8,80.2,2.7
470.0,77.1,81.7,81.8,80.2,2.7
471.0,78.5,80.6,82.1,80.4,1.8
472.0,77.2,80.4,82.2,79.9,2.5
473.0,76.1,81.3,79.2,78.8,2.6
474.0,77.3,81.2,79.8,79.4,1.9
475.0,77.0,80.1,80.2,79.1,1.8
476.0,77.6,79.2,79.9,78.9,1.2
477.0,77.2,80.2,81.5,79.6,2.2
478.0,77.1,80.4,81.4,79.6,2.3
479.0,77.4,79.8,80.2,79.1,1.5
480.0,77.3,79.0,81.2,79.2,1.9
481.0,76.3,78.5,81.0,78.6,2.3
482.0,75.6,79.3,81.5,78.8,3.0
483.0,77.9,78.3,80.2,78.8,1.2
484.0,76.3,78.3,81.3,78.6,2.5
485.0,76.5,77.3,82.0,78.6,3.0
486.0,77.9,77.4,80.4,78.6,1.6
487.0,77.5,78.2,81.0,78.9,1.8
488.0,77.3,77.5,81.9,78.9,2.6
489.0,77.5,77.5,80.9,78.6,1.9
490.0,78.2,78.2,80.8,79.1,1.5
491.0,77.9,77.1,79.7,78.2,1.3
492.0,77.8,76.6,80.0,78.2,1.7
493.0,77.8,77.7,80.1,78.5,1.3
494.0,75.4,78.6,81.0,78.3,2.8
495.0,75.1,77.7,80.7,77.8,2.8
496.0,75.6,77.7,80.6,77.9,2.5
497.0,76.8,77.7,79.7,78.1,1.5
498.0,74.6,78.5,81.1,78.1,3.3
499.0,74.7,77.5,79.9,77.4,2.6
500.0,75.5,77.0,80.4,77.6,2.5
501.0,75.0,78.0,79.6,77.6,2.3
502.0,73.8,78.0,80.3,77.4,3.3
503.0,75.0,78.4,79.9,77.7,2.5
504.0,75.5,78.3,81.0,78.2,2.7
505.0,74.7,77.5,80.6,77.6,2.9
506.0,77.2,78.2,80.0,78.5,1.4
507.0,76.9,79.6,78.8,78.4,1.4
508.0,77.6,78.8,80.5,79.0,1.4
509.0,77.6,78.3,79.7,78.5,1.1
510.0,77.9,77.5,79.9,78.4,1.3
511.0,77.9,77.0,80.4,78.4,1.8
512.0,77.9,77.2,79.2,78.1,1.0
513.0,77.2,76.0,80.5,77.9,2.4
514.0,76.0,76.8,80.8,77.9,2.6
515.0,76.1,76.4,80.6,77.7,2.5
516.0,75.6,77.1,81.4,78.1,3.0
517.0,76.5,75.8,80.0,77.5,2.2
518.0,76.5,76.9,79.0,77.5,1.3
519.0,75.9,76.4,80.1,77.5,2.3
520.0,74.6,77.2,80.0,77.3,2.7
521.0,74.0,77.3,79.6,77.0,2.8
522.0,75.6,76.8,78.2,76.9,1.3
523.0,75.7,76.9,78.8,77.1,1.5
524.0,75.4,77.4,79.0,77.3,1.8
525.0,75.7,77.8,78.9,77.5,1.6
526.0,76.1,78.1,79.9,78.1,1.9
527.0,76.8,77.9,78.6,77.8,0.9
528.0,75.7,76.9,77.9,76.8,1.1
529.0,75.8,77.2,78.4,77.1,1.3
530.0,75.4,77.1,77.9,76.8,1.3
531.0,75.9,76.5,78.7,77.0,1.5
532.0,75.5,77.2,77.7,76.8,1.2
533.0,74.7,75.3,77.3,75.8,1.3
534.0,75.0,77.4,77.7,76.7,1.5
535.0,74.5,76.2,77.1,75.9,1.3
536.0,76.0,75.5,77.7,76.4,1.2
537.0,74.4,75.2,78.0,75.9,1.9
538.0,74.1,74.5,77.3,75.3,1.7
539.0,75.0,76.0,77.8,76.3,1.4
540.0,74.6,73.7,75.6,74.7,1.0
541.0,74.0,74.5,76.3,75.0,1.2
542.0,73.9,76.0,78.1,76.0,2.1
543.0,74.5,74.9,75.8,75.1,0.7
544.0,72.7,75.6,77.3,75.2,2.3
545.0,73.6,75.7,78.5,75.9,2.5
546.0,75.9,75.5,77.2,76.2,0.9
547.0,73.8,76.1,79.3,76.4,2.8
548.0,74.8,76.6,78.3,76.6,1.7
549.0,74.1,75.2,77.7,75.7,1.8
550.0,74.3,75.9,76.8,75.7,1.3
551.0,74.0,74.7,78.7,75.8,2.5
552.0,73.8,76.1,78.4,76.1,2.3
553.0,74.6,76.1,76.4,75.7,0.9
554.0,74.3,75.4,77.5,75.7,1.6
555.0,75.0,76.0,77.3,76.1,1.1
556.0,75.0,75.8,77.4,76.1,1.2
557.0,74.5,77.1,76.6,76.1,1.4
558.0,72.9,76.4,76.7,75.3,2.1
559.0,73.4,77.4,77.5,76.1,2.3
560.0,73.5,76.6,77.0,75.7,1.9
561.0,73.0,77.0,77.5,75.8,2.4
562.0,73.3,76.0,78.2,75.8,2.5
563.0,74.1,75.9,76.0,75.3,1.1
564.0,72.8,75.5,77.7,75.3,2.4
565.0,73.1,75.8,77.2,75.4,2.1
566.0,73.4,75.8,77.9,75.7,2.3
567.0,71.7,77.3,75.3,74.8,2.8
568.0,71.7,75.0,77.3,74.7,2.8
569.0,72.4,74.3,75.3,74.0,1.5
570.0,72.8,74.6,78.4,75.3,2.8
571.0,72.3,75.1,76.4,74.6,2.1
572.0,71.4,75.1,77.0,74.5,2.8
573.0,70.9,74.6,76.5,74.0,2.9
574.0,72.9,73.3,75.7,74.0,1.5
575.0,71.5,73.3,75.3,73.4,1.9
576.0,71.2,73.5,75.8,73.5,2.3
577.0,72.9,73.9,75.5,74.1,1.3
578.0,71.3,73.1,74.9,73.1,1.8
579.0,72.0,74.0,76.2,74.0,2.1
580.0,72.3,73.4,74.8,73.5,1.2
581.0,71.4,73.3,76.8,73.8,2.8
582.0,70.7,72.4,76.8,73.3,3.1
583.0,71.7,73.1,75.4,73.4,1.9
584.0,70.8,72.3,75.9,73.0,2.6
585.0,72.4,73.7,76.0,74.0,1.8
586.0,70.5,74.0,75.4,73.3,2.5
587.0,71.7,75.3,75.3,74.1,2.1
588.0,70.2,73.0,74.4,72.5,2.1
589.0,70.9,72.9,75.3,73.0,2.2
590.0,70.2,73.8,76.0,73.3,2.9
591.0,69.4,72.9,75.2,72.5,2.9
592.0,69.6,72.9,75.3,72.6,2.9
593.0,69.5,72.6,75.1,72.4,2.8
594.0,69.4,71.6,76.1,72.4,3.4
595.0,69.5,71.4,75.7,72.2,3.2
596.0,70.0,72.0,75.6,72.5,2.8
597.0,69.4,71.3,76.1,72.3,3.4
598.0,70.0,70.0,78.3,72.7,4.8
599.0,69.5,71.9,77.1,72.8,3.9
600.0,69.7,71.3,76.1,72.4,3.4
601.0,70.1,72.6,78.2,73.7,4.2
602.0,70.5,70.7,77.7,73.0,4.1
603.0,70.6,70.6,75.9,72.4,3.0
604.0,70.6,70.7,76.8,72.7,3.6
605.0,71.2,71.1,76.3,72.9,3.0
606.0,71.0,70.9,76.2,72.7,3.0
607.0,70.4,71.1,75.9,72.5,3.0
608.0,71.5,70.6,76.7,72.9,3.3
609.0,70.3,72.8,75.3,72.8,2.5
610.0,69.9,71.0,76.1,72.3,3.3
611.0,69.6,70.9,75.6,72.0,3.2
612.0,69.3,71.0,76.5,72.3,3.8
613.0,68.4,70.3,76.0,71.6,4.0
614.0,69.1,71.7,76.4,72.4,3.7
615.0,70.0,70.2,76.9,72.4,3.9
616.0,70.0,71.4,76.4,72.6,3.4
617.0,68.4,70.9,77.1,72.2,4.5
618.0,69.5,70.6,76.2,72.1,3.6
619.0,69.0,70.1,76.0,71.7,3.8
620.0,69.9,70.2,76.0,72.1,3.4
621.0,69.0,70.3,75.0,71.5,3.2
622.0,69.0,71.2,76.0,72.1,3.6
623.0,68.9,70.3,75.6,71.6,3.5
624.0,68.9,69.9,75.1,71.3,3.3
625.0,69.4,71.0,74.9,71.8,2.8
626.0,69.7,70.0,75.8,71.8,3.5
627.0,69.4,70.7,76.3,72.1,3.6
628.0,69.7,70.0,75.5,71.8,3.3
629.0,70.3,69.9,76.4,72.2,3.7
630.0,69.4,70.4,75.5,71.8,3.3
631.0,70.7,69.3,75.4,71.8,3.2
632.0,71.2,70.2,76.5,72.7,3.4
633.0,72.5,70.0,75.7,72.7,2.9
634.0,72.2,68.4,74.5,71.7,3.1
635.0,72.8,69.6,74.3,72.3,2.4
636.0,73.4,71.0,74.9,73.1,2.0
637.0,73.0,70.1,74.5,72.5,2.2
638.0,72.7,70.5,74.0,72.4,1.7
639.0,73.7,70.4,74.5,72.9,2.2
640.0,70.6,69.4,74.8,71.6,2.8
641.0,71.1,69.9,73.8,71.6,2.0
642.0,72.7,69.9,74.6,72.4,2.4
643.0,71.9,69.1,76.4,72.5,3.7
644.0,72.0,69.5,75.3,72.3,2.9
645.0,71.8,68.6,75.5,72.0,3.4
646.0,69.7,70.8,74.8,71.8,2.7
647.0,71.4,70.3,75.4,72.4,2.7
648.0,71.6,69.6,75.0,72.0,2.7
649.0,69.8,69.5,75.3,71.5,3.3
650.0,68.9,70.4,75.3,71.5,3.4
651.0,69.3,71.0,76.2,72.2,3.6
652.0,69.3,71.3,75.6,72.1,3.2
653.0,70.1,71.0,75.2,72.1,2.7
654.0,69.7,71.8,75.1,72.2,2.7
655.0,69.6,70.8,75.3,71.9,3.0
656.0,69.1,69.8,76.3,71.7,4.0
657.0,68.8,71.0,76.5,72.1,4.0
658.0,69.9,71.2,78.3,73.1,4.6
659.0,69.5,70.4,77.1,72.3,4.1
660.0,69.0,72.2,75.6,72.3,3.3
661.0,68.8,71.1,76.2,72.0,3.8
662.0,69.8,69.3,75.8,71.6,3.6
663.0,70.1,72.1,77.1,73.1,3.6
664.0,68.7,70.9,77.3,72.3,4.4
665.0,69.3,71.9,76.6,72.6,3.7
666.0,69.7,70.8,76.6,72.4,3.7
667.0,69.8,71.1,75.6,72.2,3.1
668.0,70.2,71.7,76.2,72.7,3.1
669.0,70.7,71.3,76.2,72.8,3.0
670.0,69.6,70.5,75.2,71.8,3.0
671.0,70.6,71.1,77.7,73.1,4.0
672.0,70.4,70.9,77.9,73.1,4.2
673.0,70.7,71.6,77.2,73.1,3.5
674.0,70.1,71.8,78.7,73.5,4.6
675.0,69.1,70.3,78.2,72.5,4.9
676.0,69.3,71.7,78.8,73.2,4.9
677.0,69.1,71.1,77.4,72.6,4.3
678.0,69.2,70.3,78.6,72.7,5.2
679.0,68.2,69.7,77.2,71.7,4.8
680.0,68.7,69.4,78.7,72.2,5.6
681.0,67.2,70.5,79.3,72.3,6.2
682.0,68.6,70.4,77.2,72.1,4.6
683.0,69.3,70.3,78.5,72.7,5.0
684.0,68.9,69.8,79.3,72.7,5.7
685.0,69.8,70.8,79.8,73.5,5.5
686.0,70.1,70.7,78.8,73.2,4.9
687.0,70.8,70.4,78.1,73.1,4.3
688.0,70.3,70.2,77.7,72.7,4.3
689.0,69.8,71.3,79.0,73.4,4.9
690.0,69.7,72.2,79.6,73.9,5.1
691.0,71.2,71.6,79.1,74.0,4.4
692.0,71.5,71.1,77.7,73.5,3.7
693.0,71.9,72.8,79.5,74.7,4.2
694.0,71.4,71.6,79.2,74.1,4.5
695.0,70.5,72.3,79.7,74.2,4.9
696.0,70.9,72.0,80.0,74.3,5.0
697.0,70.3,72.1,80.6,74.3,5.5
698.0,70.0,72.6,79.8,74.1,5.1
699.0,70.1,72.7,80.3,74.4,5.3
700.0,70.2,73.3,80.1,74.5,5.1
701.0,68.8,73.6,79.6,74.0,5.4
702.0,69.5,73.9,81.3,74.9,6.0
703.0,70.4,73.3,80.4,74.7,5.2
704.0,70.1,72.9,79.3,74.1,4.8
705.0,69.6,73.2,80.0,74.3,5.3
706.0,71.6,73.2,80.3,75.0,4.6
707.0,71.3,73.7,79.5,74.8,4.2
708.0,71.4,73.0,80.5,75.0,4.8
709.0,71.6,72.5,78.7,74.2,3.9
710.0,71.9,72.7,80.5,75.1,4.8
711.0,73.4,72.3,80.8,75.5,4.6
712.0,72.3,72.9,80.1,75.1,4.3
713.0,71.8,72.5,81.0,75.1,5.1
714.0,71.9,73.8,80.2,75.3,4.3
715.0,72.8,73.0,80.5,75.4,4.4
716.0,72.8,74.7,80.9,76.1,4.2
717.0,74.1,72.4,81.0,75.8,4.6
718.0,72.6,73.7,82.1,76.1,5.2
719.0,73.5,73.1,82.5,76.3,5.3
720.0,74.3,73.8,81.9,76.7,4.6
721.0,74.1,72.9,82.8,76.6,5.4
722.0,73.5,73.1,81.3,76.0,4.6
723.0,74.3,71.4,81.7,75.8,5.3
724.0,75.4,72.5,82.7,76.9,5.2
725.0,75.2,72.9,82.6,76.9,5.0
726.0,74.8,73.7,82.5,77.0,4.8
727.0,73.8,71.9,82.1,75.9,5.4
728.0,75.9,73.1,85.2,78.0,6.3
729.0,74.8,72.7,82.8,76.8,5.3
730.0,74.6,73.1,82.8,76.8,5.2
731.0,75.5,73.6,82.3,77.2,4.6
732.0,74.3,73.3,81.9,76.5,4.7
733.0,76.1,72.7,82.3,77.1,4.8
734.0,75.5,73.2,84.8,77.9,6.1
735.0,75.2,73.2,82.3,76.9,4.8
736.0,75.7,73.7,83.2,77.5,5.0
737.0,75.1,73.6,82.7,77.1,4.8
738.0,74.7,75.1,82.8,77.5,4.5
739.0,75.0,77.2,83.6,78.6,4.5
740.0,75.4,77.2,83.8,78.8,4.4
741.0,75.1,76.9,84.4,78.8,4.9
742.0,75.4,76.8,82.8,78.3,3.9
743.0,75.5,76.8,84.0,78.8,4.6
744.0,75.2,76.3,84.9,78.8,5.3
745.0,74.8,76.7,84.6,78.7,5.2
746.0,75.6,77.0,86.0,79.5,5.6
747.0,74.2,78.5,84.3,79.0,5.0
748.0,75.4,77.6,85.0,79.4,5.0
749.0,77.1,76.6,85.0,79.6,4.7
750.0,77.7,78.6,85.6,80.6,4.3
751.0,77.9,77.9,84.8,80.2,4.0
752.0,78.6,78.7,84.1,80.5,3.1
753.0,78.1,78.9,84.9,80.7,3.7
754.0,79.2,79.3,85.7,81.4,3.7
755.0,79.1,77.8,85.0,80.6,3.8
756.0,79.2,79.1,85.6,81.3,3.7
757.0,79.3,78.7,85.9,81.3,4.0
758.0,79.4,78.9,86.9,81.7,4.5
759.0,79.6,79.2,85.8,81.5,3.7
760.0,80.3,79.7,85.5,81.8,3.2
761.0,80.6,77.8,86.0,81.5,4.2
762.0,79.7,79.0,85.0,81.2,3.3
763.0,80.6,78.9,86.6,82.1,4.0
764.0,80.5,80.6,85.6,82.2,2.9
765.0,78.5,78.6,86.8,81.3,4.8
766.0,79.2,79.5,87.3,82.0,4.6
767.0,80.1,79.5,88.3,82.7,4.9
768.0,78.7,78.1,87.1,81.3,5.0
769.0,78.3,78.6,86.9,81.3,4.9
770.0,77.6,78.2,87.3,81.0,5.4
771.0,78.2,78.5,88.8,81.9,6.0
772.0,78.6,78.5,86.0,81.0,4.3
773.0,78.0,79.3,88.2,81.8,5.5
774.0,78.7,78.5,87.3,81.5,5.0
775.0,79.0,78.5,87.7,81.8,5.2
776.0,78.6,79.3,88.2,82.1,5.4
777.0,79.3,79.0,89.3,82.6,5.9
778.0,78.6,78.9,87.1,81.5,4.8
779.0,78.8,78.7,88.9,82.1,5.9
780.0,80.0,79.9,89.1,83.0,5.2
781.0,80.8,79.5,90.7,83.7,6.1
782.0,81.0,80.7,90.6,84.1,5.7
783.0,80.3,79.4,91.5,83.7,6.8
784.0,81.3,81.0,92.3,84.9,6.4
785.0,81.0,81.4,92.7,85.0,6.6
786.0,81.2,83.2,92.0,85.4,5.7
787.0,82.7,81.3,90.9,85.0,5.2
788.0,81.9,82.6,91.8,85.4,5.5
789.0,82.8,83.3,90.8,85.6,4.5
790.0,80.2,84.2,91.4,85.3,5.7
791.0,81.3,84.0,90.0,85.1,4.4
792.0,81.2,85.4,89.1,85.2,3.9
793.0,83.5,84.4,89.4,85.8,3.2
794.0,82.6,87.6,91.3,87.2,4.4
795.0,82.2,85.0,90.6,85.9,4.3
796.0,82.7,84.7,92.4,86.6,5.1
797.0,83.8,85.0,90.0,86.2,3.3
798.0,82.3,84.5,93.1,86.6,5.7
799.0,82.7,84.3,93.1,86.7,5.6
800.0,82.2,84.3,92.1,86.2,5.2
801.0,85.3,85.1,94.2,88.2,5.2
802.0,84.6,84.5,92.7,87.2,4.7
803.0,85.2,85.5,92.5,87.7,4.1
804.0,85.3,85.7,94.0,88.3,4.9
805.0,84.1,84.8,94.3,87.7,5.7
806.0,85.3,85.6,92.6,87.8,4.1
807.0,86.6,85.0,93.8,88.5,4.7
808.0,84.9,85.6,93.1,87.9,4.5
809.0,85.9,85.7,93.7,88.5,4.5
810.0,86.6,86.0,92.6,88.4,3.6
811.0,85.8,86.7,93.2,88.6,4.1
812.0,86.3,85.2,94.0,88.5,4.8
813.0,85.9,85.2,96.3,89.1,6.2
814.0,88.2,88.2,95.6,90.7,4.3
815.0,88.0,85.1,94.8,89.3,5.0
816.0,89.4,86.3,94.8,90.2,4.3
817.0,86.7,87.6,94.3,89.5,4.1
818.0,88.1,86.2,94.1,89.5,4.1
819.0,88.9,86.5,95.9,90.4,4.9
820.0,88.7,87.6,96.3,90.9,4.8
821.0,90.4,86.9,94.5,90.6,3.8
822.0,89.0,86.3,97.1,90.8,5.6
823.0,89.2,88.7,96.0,91.3,4.1
824.0,89.8,87.1,95.1,90.7,4.1
825.0,89.6,86.5,96.5,90.9,5.1
826.0,89.0,87.9,95.7,90.9,4.2
827.0,90.3,87.7,95.8,91.3,4.1
828.0,89.5,88.2,95.8,91.1,4.1
829.0,90.0,88.3,96.7,91.7,4.5
830.0,90.3,87.8,98.4,92.2,5.5
831.0,89.3,88.7,95.7,91.2,3.9
832.0,91.0,87.3,97.4,91.9,5.1
833.0,89.9,89.7,97.7,92.5,4.6
834.0,91.0,88.9,98.4,92.7,5.0
835.0,91.6,90.4,97.3,93.1,3.7
836.0,91.5,90.6,97.8,93.3,3.9
837.0,91.9,91.1,99.7,94.2,4.7
838.0,91.0,91.1,99.2,93.8,4.7
839.0,91.4,92.5,101.8,95.2,5.7
840.0,90.4,92.0,100.0,94.1,5.1
841.0,90.5,93.2,99.3,94.3,4.5
842.0,92.5,93.9,101.4,95.9,4.8
843.0,91.2,93.2,101.5,95.3,5.5
844.0,91.9,96.1,100.4,96.1,4.2
845.0,92.7,98.0,99.5,96.7,3.6
846.0,93.6,95.5,99.9,96.3,3.2
847.0,92.8,94.8,100.5,96.0,4.0
848.0,94.5,96.2,99.8,96.8,2.7
849.0,93.5,95.1,101.3,96.7,4.1
850.0,94.1,96.4,102.2,97.6,4.2
851.0,95.6,94.2,103.7,97.8,5.1
852.0,94.4,94.3,103.8,97.5,5.4
853.0,95.4,95.4,104.0,98.3,5.0
854.0,98.1,94.3,103.4,98.6,4.6
855.0,94.7,95.0,104.2,98.0,5.4
856.0,95.8,97.0,103.4,98.7,4.1
857.0,96.2,94.5,104.2,98.3,5.2
858.0,95.9,94.3,103.3,97.8,4.8
859.0,95.5,94.1,103.3,97.6,5.0
860.0,96.2,93.4,103.0,97.5,4.9
861.0,96.7,95.8,105.7,99.4,5.5
862.0,96.8,95.7,105.6,99.4,5.4
863.0,97.3,95.7,103.8,98.9,4.3
864.0,97.8,95.3,106.5,99.9,5.9
865.0,97.7,95.6,104.3,99.2,4.6
866.0,98.4,96.4,105.3,100.0,4.7
867.0,99.4,98.2,104.8,100.8,3.5
868.0,97.7,96.4,106.6,100.2,5.6
869.0,100.4,98.3,107.2,102.0,4.7
870.0,99.9,97.5,106.1,101.1,4.4
871.0,99.3,98.3,106.9,101.5,4.7
872.0,100.9,98.3,106.6,102.0,4.3
873.0,100.7,99.7,107.9,102.8,4.5
874.0,98.7,99.8,107.5,102.0,4.8
875.0,102.5,100.7,108.8,104.0,4.3
876.0,101.9,99.4,108.6,103.3,4.8
877.0,103.4,97.9,110.0,103.8,6.1
878.0,101.7,99.7,109.1,103.5,5.0
879.0,102.8,99.3,110.3,104.2,5.6
880.0,103.7,98.9,110.0,104.2,5.6
881.0,103.1,100.0,110.2,104.5,5.2
882.0,104.2,97.6,110.7,104.2,6.5
883.0,103.7,99.0,112.6,105.1,6.9
884.0,104.4,99.8,111.9,105.4,6.1
885.0,104.7,101.3,112.9,106.3,5.9
886.0,106.0,100.9,113.7,106.9,6.4
887.0,105.6,103.1,116.1,108.3,6.9
888.0,105.9,102.5,113.5,107.3,5.7
889.0,106.8,102.9,113.8,107.8,5.5
890.0,107.7,103.4,114.2,108.4,5.4
891.0,107.2,103.5,116.3,109.0,6.6
892.0,105.5,104.5,115.7,108.6,6.2
893.0,108.0,106.8,115.5,110.1,4.7
894.0,107.9,106.2,115.7,109.9,5.1
895.0,107.0,103.4,115.4,108.6,6.1
896.0,107.3,105.9,116.5,109.9,5.8
897.0,109.3,104.5,116.3,110.0,6.0
898.0,110.0,104.0,117.4,110.5,6.7
899.0,110.0,106.0,116.5,110.8,5.3
900.0,113.5,107.7,116.3,112.5,4.4
901.0,111.1,106.7,117.6,111.8,5.5
902.0,112.1,108.0,118.9,113.0,5.5
903.0,113.2,108.1,119.2,113.5,5.6
904.0,111.7,108.2,119.6,113.2,5.8
905.0,112.8,107.8,120.0,113.5,6.2
906.0,114.0,109.8,120.4,114.8,5.4
907.0,113.2,110.0,121.5,114.9,5.9
908.0,113.0,111.1,121.3,115.1,5.4
909.0,115.3,111.9,122.7,116.6,5.5
910.0,113.0,113.3,121.2,115.8,4.7
911.0,115.3,113.8,123.4,117.5,5.2
912.0,115.1,115.2,122.2,117.5,4.1
913.0,116.1,113.7,125.6,118.5,6.3
914.0,116.6,114.5,125.5,118.9,5.8
915.0,118.8,113.8,124.2,118.9,5.2
916.0,120.2,113.3,126.8,120.1,6.8
917.0,117.7,112.7,125.7,118.7,6.6
918.0,118.0,114.6,123.9,118.9,4.7
919.0,119.8,115.7,122.7,119.4,3.5
920.0,118.7,116.4,125.2,120.1,4.5
921.0,120.4,116.2,128.1,121.6,6.1
922.0,121.8,117.5,128.2,122.5,5.4
923.0,119.8,116.7,129.3,121.9,6.6
924.0,120.0,118.7,130.8,123.2,6.6
925.0,121.3,117.8,130.3,123.1,6.5
926.0,122.0,121.0,131.0,124.7,5.5
927.0,120.3,119.9,133.0,124.4,7.4
928.0,122.4,122.0,135.3,126.6,7.6
929.0,123.0,120.5,134.0,125.8,7.2
930.0,122.3,123.2,135.3,126.9,7.3
931.0,123.2,122.8,134.3,126.7,6.5
932.0,122.9,122.4,135.6,126.9,7.5
933.0,124.5,124.7,136.5,128.6,6.9
934.0,126.0,126.2,136.5,129.6,6.0
935.0,128.6,125.3,137.7,130.5,6.4
936.0,127.3,126.3,140.7,131.4,8.1
937.0,127.7,127.1,137.1,130.6,5.6
938.0,130.1,129.7,139.9,133.2,5.8
939.0,129.4,129.2,138.1,132.2,5.1
940.0,129.8,129.1,140.6,133.2,6.5
941.0,132.2,128.4,140.6,133.7,6.3
942.0,132.2,131.8,142.2,135.4,5.9
943.0,131.8,127.8,141.4,133.7,7.0
944.0,132.3,129.0,145.3,135.5,8.6
945.0,130.6,131.8,142.7,135.1,6.7
946.0,132.3,133.3,147.2,137.6,8.3
947.0,132.1,132.2,144.6,136.3,7.2
948.0,134.5,134.0,147.0,138.5,7.4
949.0,132.9,134.8,149.5,139.1,9.1
950.0,134.4,136.5,148.2,139.7,7.4
951.0,137.9,134.1,151.7,141.2,9.3
952.0,136.1,136.8,149.2,140.7,7.4
953.0,139.8,139.4,151.9,143.7,7.1
954.0,140.0,141.0,151.7,144.2,6.5
955.0,137.6,142.9,154.5,145.0,8.7
956.0,138.8,142.1,156.0,145.6,9.1
957.0,139.8,143.5,154.6,146.0,7.7
958.0,141.2,145.8,160.8,149.3,10.2
959.0,138.6,146.1,158.6,147.7,10.1
960.0,143.1,145.8,157.2,148.7,7.5
961.0,142.6,148.8,155.6,149.0,6.5
962.0,144.9,144.0,158.0,148.9,7.8
963.0,144.8,145.0,158.1,149.3,7.6
964.0,143.7,146.2,158.1,149.3,7.7
965.0,145.1,149.6,157.4,150.7,6.3
966.0,146.5,151.0,159.2,152.3,6.5
967.0,149.6,148.7,165.0,154.4,9.1
968.0,148.8,152.0,160.0,153.6,5.8
969.0,147.0,148.9,162.3,152.7,8.3
970.0,148.6,150.1,163.8,154.2,8.4
971.0,149.7,148.0,161.7,153.1,7.5
972.0,150.3,151.5,166.5,156.1,9.0
973.0,152.3,151.3,164.3,156.0,7.2
974.0,152.6,153.5,166.5,157.6,7.8
975.0,151.5,154.8,169.6,158.6,9.6
976.0,152.7,156.4,166.5,158.5,7.1
977.0,154.7,155.1,168.4,159.4,7.8
978.0,154.8,155.8,170.1,160.2,8.6
979.0,154.5,157.2,172.6,161.4,9.8
980.0,154.1,155.9,171.7,160.6,9.7
981.0,155.2,158.7,172.5,162.1,9.1
982.0,155.5,162.1,171.9,163.2,8.2
983.0,158.1,159.8,176.1,164.7,10.0
984.0,158.8,161.2,177.0,165.7,9.9
985.0,163.1,160.6,176.1,166.6,8.3
986.0,159.0,162.8,178.9,166.9,10.6
987.0,159.4,165.3,178.5,167.7,9.8
988.0,160.7,166.1,178.0,168.3,8.8
989.0,160.9,165.5,176.9,167.8,8.3
990.0,161.7,165.9,179.7,169.1,9.4
991.0,163.7,165.9,183.1,170.9,10.6
992.0,163.3,170.1,181.9,171.7,9.4
993.0,166.3,173.3,186.5,175.3,10.3
994.0,165.2,169.5,187.7,174.1,11.9
995.0,164.6,169.7,186.1,173.5,11.2
996.0,166.8,173.1,184.1,174.7,8.8
997.0,165.0,174.7,188.4,176.0,11.8
998.0,167.6,177.0,189.4,178.0,10.9
999.0,166.2,175.3,189.6,177.0,11.8
1000.0,167.3,177.6,189.3,178.1,11.0
1001.0,168.7,179.1,191.9,179.9,11.6
1002.0,167.0,179.1,192.3,179.5,12.7
1003.0,173.4,181.4,192.6,182.5,9.7
1004.0,170.8,180.9,194.6,182.1,12.0
1005.0,172.3,184.8,196.4,184.5,12.1
1006.0,173.0,185.4,197.7,185.4,12.4
1007.0,174.7,186.5,197.2,186.1,11.2
1008.0,172.3,185.5,199.8,185.9,13.7
1009.0,172.9,187.1,198.1,186.0,12.6
1010.0,176.3,190.5,201.4,189.4,12.6
1011.0,175.9,185.6,200.0,187.2,12.1
1012.0,175.4,189.5,200.8,188.6,12.7
1013.0,179.3,187.4,199.2,188.7,10.0
1014.0,176.1,193.7,202.0,190.6,13.2
1015.0,177.7,188.8,199.5,188.7,10.9
1016.0,180.6,188.2,201.3,190.0,10.5
1017.0,180.9,188.5,204.4,191.3,12.0
1018.0,181.7,192.8,209.4,194.6,13.9
1019.0,180.0,189.4,206.0,191.8,13.2
1020.0,181.0,189.9,210.5,193.8,15.1
1021.0,185.3,191.1,206.1,194.2,10.7
1022.0,183.0,192.7,207.4,194.4,12.3
1023.0,183.8,194.7,208.2,195.6,12.2
1024.0,187.0,200.8,212.4,200.1,12.7
1025.0,186.5,195.2,212.5,198.1,13.3
1026.0,184.2,202.2,210.7,199.0,13.5
1027.0,185.1,198.2,207.8,197.0,11.4
1028.0,186.3,201.2,213.6,200.4,13.6
1029.0,189.1,199.2,213.9,200.7,12.5
1030.0,187.6,200.8,213.3,200.6,12.9
1031.0,188.5,201.3,220.5,203.4,16.1
1032.0,186.3,203.5,213.3,201.0,13.6
1033.0,191.5,203.5,219.7,204.9,14.2
1034.0,189.6,207.5,217.8,205.0,14.3
1035.0,192.2,208.0,217.3,205.8,12.7
1036.0,194.5,206.7,216.9,206.0,11.2
1037.0,196.7,207.5,218.7,207.6,11.0
1038.0,195.0,210.3,218.8,208.1,12.1
1039.0,199.9,211.4,217.9,209.8,9.1
1040.0,195.5,209.1,219.9,208.2,12.3
1041.0,195.7,204.8,223.7,208.1,14.3
1042.0,200.6,210.5,223.9,211.7,11.7
1043.0,197.9,209.7,223.7,210.4,12.9
1044.0,205.2,212.0,218.7,212.0,6.7
1045.0,202.6,217.3,223.0,214.3,10.6
1046.0,200.7,212.8,228.0,213.8,13.7
1047.0,203.5,216.6,224.4,214.8,10.6
1048.0,207.1,213.5,226.7,215.8,10.0
1049.0,205.0,217.1,224.2,215.4,9.7
1050.0,207.1,215.3,226.7,216.3,9.8
1051.0,208.0,217.9,230.9,218.9,11.5
1052.0,207.0,219.1,231.9,219.3,12.5
1053.0,212.0,214.8,231.0,219.3,10.3
1054.0,211.5,217.0,234.0,220.8,11.7
1055.0,216.6,221.3,232.7,223.5,8.3
1056.0,210.9,225.1,231.2,222.4,10.4
1057.0,213.7,226.3,231.9,224.0,9.3
1058.0,218.3,223.3,230.3,223.9,6.0
1059.0,219.0,222.1,234.2,225.1,8.0
1060.0,216.9,224.1,236.5,225.8,9.9
1061.0,223.1,223.1,234.7,227.0,6.7
1062.0,212.8,225.8,238.9,225.8,13.0
1063.0,220.3,227.3,236.5,228.0,8.1
1064.0,218.8,230.9,234.7,228.1,8.3
1065.0,223.3,226.1,240.2,229.9,9.1
1066.0,220.3,231.9,239.2,230.5,9.5
1067.0,224.8,225.3,246.3,232.1,12.3
1068.0,220.1,229.3,245.3,231.5,12.8
1069.0,232.1,223.0,243.0,232.7,10.0
1070.0,227.2,227.1,246.5,233.6,11.2
1071.0,224.3,228.6,245.4,232.8,11.2
1072.0,231.1,220.7,243.6,231.8,11.5
1073.0,225.7,224.4,241.6,230.6,9.6
1074.0,230.3,221.0,249.1,233.5,14.3
1075.0,234.2,225.1,251.1,236.8,13.2
1076.0,234.3,225.1,247.4,235.6,11.2
1077.0,231.1,226.6,248.7,235.5,11.7
1078.0,235.1,227.2,250.7,237.7,11.9
1079.0,234.7,229.0,262.0,241.9,17.7
1080.0,236.8,224.4,251.9,237.7,13.8
1081.0,237.0,227.9,247.3,237.4,9.7
1082.0,234.8,229.9,253.7,239.4,12.5
1083.0,241.2,226.4,254.8,240.8,14.2
1084.0,242.2,228.9,256.4,242.5,13.7
1085.0,246.8,231.3,253.6,243.9,11.4
1086.0,245.8,232.3,250.5,242.9,9.4
1087.0,244.9,229.6,259.3,244.6,14.9
1088.0,241.9,234.1,251.0,242.3,8.5
1089.0,247.9,235.9,258.3,247.4,11.3
1090.0,246.7,236.4,258.1,247.1,10.9
1091.0,251.7,239.1,257.8,249.6,9.6
1092.0,252.9,238.9,254.9,248.9,8.7
1093.0,246.8,238.0,259.7,248.2,10.9
1094.0,245.9,239.4,256.3,247.2,8.5
1095.0,250.6,242.2,256.0,249.6,6.9
1096.0,244.8,242.5,256.3,247.9,7.4
1097.0,250.4,244.1,259.2,251.3,7.6
1098.0,249.3,241.6,256.4,249.1,7.4
1099.0,249.1,249.5,255.9,251.5,3.8
1100.0,254.0,245.1,252.6,250.6,4.7
1101.0,251.3,252.1,254.9,252.8,1.9
1102.0,252.7,247.1,251.7,250.5,3.0
1103.0,257.2,250.4,251.5,253.0,3.6
1104.0,253.0,244.0,247.5,248.2,4.5
1105.0,249.0,247.9,246.3,247.7,1.3
1106.0,251.0,245.7,246.3,247.7,2.9
1107.0,261.3,248.0,245.6,251.6,8.4
1108.0,258.1,252.2,245.0,251.8,6.6
1109.0,253.5,248.2,241.6,247.8,6.0
1110.0,259.2,250.1,245.3,251.6,7.0
1111.0,257.3,249.2,236.8,247.8,10.3
1112.0,258.2,252.6,234.1,248.3,12.6
1113.0,253.6,250.7,234.2,246.2,10.5
1114.0,258.0,248.4,233.7,246.7,12.2
1115.0,253.8,245.7,230.0,243.2,12.1
1116.0,254.6,247.5,226.6,242.9,14.6
1117.0,252.9,248.9,223.6,241.8,15.9
1118.0,254.7,244.1,218.3,239.0,18.7
1119.0,256.2,245.4,221.4,241.0,17.8
1120.0,257.7,241.7,215.6,238.3,21.2
1121.0,254.4,242.7,215.1,237.4,20.2
1122.0,257.1,242.9,208.5,236.2,25.0
1123.0,251.8,245.9,206.2,234.6,24.8
1124.0,253.7,240.3,204.6,232.8,25.4
1125.0,253.2,238.2,198.2,229.9,28.4
1126.0,248.2,234.8,195.1,226.0,27.7
1127.0,247.2,238.7,196.3,227.4,27.3
1128.0,243.9,228.8,189.6,220.7,28.0
1129.0,243.9,230.4,185.3,219.9,30.7
1130.0,242.7,226.4,180.4,216.5,32.3
1131.0,240.0,225.2,178.9,214.7,31.9
1132.0,236.6,222.3,172.2,210.4,33.8
1133.0,237.2,217.4,174.8,209.8,31.9
1134.0,236.1,209.7,168.6,204.8,34.0
1135.0,229.3,206.9,164.5,200.2,32.9
1136.0,235.0,202.2,158.6,198.6,38.4
1137.0,231.2,201.5,157.9,196.9,36.9
1138.0,229.9,196.5,156.2,194.2,36.9
1139.0,227.5,189.0,151.2,189.2,38.2
1140.0,221.5,182.9,149.8,184.7,35.9
1141.0,217.9,181.3,148.7,182.6,34.6
1142.0,208.6,174.7,145.7,176.3,31.5
1143.0,206.2,173.6,141.6,173.8,32.3
1144.0,201.9,169.4,138.7,170.0,31.6
1145.0,198.6,162.3,137.3,166.1,30.8
1146.0,194.1,159.1,134.2,162.4,30.1
1147.0,189.2,156.2,131.9,159.1,28.8
1148.0,185.2,153.5,128.9,155.9,28.2
1149.0,184.5,148.6,128.8,154.0,28.2
1150.0,176.6,146.0,127.1,149.9,25.0
1151.0,171.8,143.0,125.1,146.6,23.5
1152.0,172.0,141.2,122.0,145.1,25.2
1153.0,166.4,136.0,122.5,141.6,22.5
1154.0,161.2,133.1,120.4,138.2,20.8
1155.0,159.7,132.2,121.5,137.8,19.7
1156.0,156.1,129.6,120.2,135.3,18.6
1157.0,151.1,127.7,119.4,132.8,16.5
1158.0,144.6,127.0,118.6,130.1,13.3
1159.0,143.4,125.0,117.6,128.7,13.2
1160.0,139.9,122.1,113.8,125.3,13.3
1161.0,138.9,121.5,113.7,124.7,12.9
1162.0,133.8,121.9,111.2,122.3,11.3
1163.0,127.2,121.6,108.9,119.2,9.4
1164.0,127.1,120.2,109.9,119.1,8.7
1165.0,123.7,118.4,106.3,116.1,8.9
1166.0,119.9,116.6,105.5,114.0,7.6
1167.0,119.2,118.2,103.9,113.8,8.6
1168.0,120.4,115.5,105.1,113.7,7.8
1169.0,120.3,113.8,103.3,112.5,8.6
1170.0,120.4,112.3,102.0,111.6,9.2
1171.0,116.6,112.1,101.9,110.2,7.5
1172.0,117.8,110.9,102.0,110.2,7.9
1173.0,116.2,110.8,99.0,108.7,8.8
1174.0,115.0,109.6,98.8,107.8,8.3
1175.0,112.8,111.8,96.6,107.1,9.1
1176.0,109.1,108.0,94.7,103.9,8.0
1177.0,108.0,108.1,93.0,103.0,8.7
1178.0,106.0,106.6,91.8,101.5,8.4
1179.0,104.1,104.2,91.3,99.9,7.4
1180.0,104.2,103.4,91.4,99.7,7.2
1181.0,101.5,103.1,89.7,98.1,7.3
1182.0,99.0,101.5,89.9,96.8,6.1
1183.0,99.0,100.0,90.3,96.4,5.3
1184.0,97.0,99.5,89.5,95.3,5.2
1185.0,95.2,100.0,90.0,95.1,5.0
1186.0,93.9,98.3,89.7,94.0,4.3
1187.0,93.8,96.8,87.7,92.8,4.6
1188.0,90.7,97.4,83.4,90.5,7.0
1189.0,89.8,95.8,83.4,89.7,6.2
1190.0,86.6,95.2,81.4,87.7,6.9
1191.0,86.3,93.2,80.5,86.7,6.4
1192.0,86.0,94.7,81.6,87.4,6.7
1193.0,83.6,93.1,80.4,85.7,6.6
1194.0,84.4,92.7,80.6,85.9,6.2
1195.0,83.3,89.8,79.8,84.3,5.1
1196.0,81.4,89.4,81.4,84.1,4.6
1197.0,82.1,91.8,81.1,85.0,5.9
1198.0,80.8,88.1,79.5,82.8,4.6
1199.0,77.9,88.1,79.2,81.7,5.5
1200.0,77.1,89.0,77.8,81.3,6.7
1201.0,76.9,88.3,76.7,80.6,6.6
1202.0,74.7,86.0,76.1,79.0,6.2
1203.0,75.2,85.4,76.5,79.0,5.5
1204.0,74.5,84.5,73.9,77.6,6.0
1205.0,73.1,83.9,74.2,77.1,6.0
1206.0,73.6,82.2,74.6,76.8,4.7
1207.0,71.7,80.8,74.9,75.8,4.6
1208.0,71.9,81.1,74.8,75.9,4.7
1209.0,71.1,81.9,75.9,76.3,5.4
1210.0,70.8,80.3,77.8,76.3,4.9
1211.0,69.9,80.3,78.4,76.2,5.6
1212.0,69.8,80.3,77.9,76.0,5.5
1213.0,69.2,80.4,79.2,76.3,6.2
1214.0,68.6,79.7,79.2,75.8,6.2
1215.0,67.9,79.6,77.3,74.9,6.2
1216.0,68.0,80.0,78.2,75.4,6.5
1217.0,67.1,78.0,77.6,74.2,6.2
1218.0,67.1,78.6,78.0,74.6,6.5
1219.0,67.0,78.8,76.4,74.1,6.2
1220.0,67.0,78.0,76.6,73.9,6.0
1221.0,67.6,77.8,75.3,73.6,5.3
1222.0,67.4,76.9,73.9,72.8,4.8
1223.0,67.1,77.1,74.0,72.7,5.1
1224.0,67.0,77.2,72.7,72.3,5.1
1225.0,67.0,76.3,71.3,71.5,4.7
1226.0,66.1,74.5,71.3,70.7,4.2
1227.0,66.8,74.5,71.2,70.9,3.9
1228.0,65.3,74.9,73.0,71.1,5.1
1229.0,65.1,74.6,71.3,70.3,4.9
1230.0,64.3,76.1,71.4,70.6,6.0
1231.0,64.0,76.7,70.5,70.4,6.4
1232.0,63.5,76.3,71.8,70.5,6.5
1233.0,62.7,77.6,72.9,71.1,7.7
1234.0,62.5,78.5,71.7,70.9,8.0
1235.0,63.0,76.2,72.7,70.7,6.9
1236.0,61.6,77.8,72.1,70.5,8.2
1237.0,63.2,76.0,71.0,70.1,6.5
1238.0,62.1,76.9,70.9,70.0,7.4
1239.0,62.5,76.5,70.8,69.9,7.0
1240.0,62.7,76.2,70.4,69.8,6.8
1241.0,62.6,75.9,70.3,69.6,6.7
1242.0,62.7,75.4,70.2,69.5,6.4
1243.0,63.2,75.9,71.4,70.1,6.4
1244.0,62.1,75.1,71.4,69.6,6.7
1245.0,62.7,74.4,72.2,69.8,6.2
1246.0,62.4,74.4,74.4,70.4,6.9
1247.0,63.3,74.3,75.7,71.1,6.8
1248.0,64.4,73.1,77.2,71.6,6.5
1249.0,65.6,73.6,75.1,71.4,5.1
1250.0,64.7,73.7,74.8,71.1,5.5
1251.0,65.1,72.9,73.8,70.6,4.8
1252.0,65.9,73.0,74.5,71.1,4.6
1253.0,65.8,73.7,73.4,71.0,4.5
1254.0,65.1,73.1,73.3,70.5,4.7
1255.0,63.3,72.4,72.8,69.5,5.4
1256.0,63.6,72.5,72.9,69.7,5.3
1257.0,63.2,72.5,70.3,68.7,4.9
1258.0,62.7,72.4,69.7,68.3,5.0
1259.0,63.5,73.7,69.7,69.0,5.1
1260.0,63.2,74.5,69.2,69.0,5.6
1261.0,61.5,75.5,69.3,68.8,7.0
1262.0,59.7,75.6,70.1,68.5,8.0
1263.0,59.3,74.6,69.5,67.8,7.8
1264.0,59.6,74.3,68.6,67.5,7.4
1265.0,58.6,74.5,68.8,67.3,8.1
1266.0,57.7,75.7,68.1,67.2,9.0
1267.0,58.5,74.0,67.6,66.7,7.8
1268.0,60.2,74.0,67.9,67.4,6.9
1269.0,60.5,73.6,67.2,67.1,6.6
1270.0,60.1,73.2,68.4,67.2,6.6
1271.0,60.8,74.3,67.2,67.5,6.8
1272.0,62.1,74.1,65.9,67.4,6.2
1273.0,62.5,73.8,65.3,67.2,5.9
1274.0,62.4,73.1,64.0,66.5,5.8
1275.0,62.0,72.9,61.6,65.5,6.4
1276.0,61.7,73.4,60.1,65.0,7.3
1277.0,62.0,73.2,59.5,64.9,7.3
1278.0,61.8,73.3,58.6,64.6,7.7
1279.0,62.1,73.1,57.4,64.2,8.0
1280.0,62.1,71.5,,66.8,6.7
1281.0,61.9,70.5,,66.2,6.1
1282.0,62.1,71.1,,66.6,6.4
1283.0,60.9,72.5,,66.7,8.2
1284.0,61.8,70.7,,66.3,6.3
1285.0,60.3,71.6,,66.0,8.0
1286.0,61.5,71.5,,66.5,7.1
1287.0,61.2,72.1,,66.6,7.7
1288.0,60.5,72.2,,66.4,8.2
1289.0,60.9,71.2,,66.1,7.3
1290.0,60.6,71.4,,66.0,7.6
1291.0,59.5,71.5,,65.5,8.5
1292.0,58.7,72.0,,65.4,9.4
1293.0,57.9,70.9,,64.4,9.2
1294.0,57.6,70.8,,64.2,9.4
1295.0,57.3,69.4,,63.4,8.5
1296.0,57.5,68.5,,63.0,7.8
1297.0,57.6,68.5,,63.0,7.8
1298.0,57.4,67.4,,62.4,7.1
1299.0,57.3,68.2,,62.8,7.7
1300.0,58.0,65.9,,62.0,5.6
1301.0,57.1,65.5,,61.3,5.9
1302.0,56.8,66.1,,61.4,6.6
1303.0,55.8,65.4,,60.6,6.8
1304.0,56.5,64.6,,60.6,5.7
1305.0,56.2,64.2,,60.2,5.7
1306.0,56.8,63.8,,60.3,4.9
1307.0,57.0,62.7,,59.8,4.0
1308.0,57.1,61.5,,59.3,3.1
1309.0,57.0,59.8,,58.4,2.0
1310.0,57.3,58.7,,58.0,1.0
1311.0,55.8,57.4,,56.6,1.2
1312.0,56.3,56.7,,56.5,0.3
1313.0,57.2,56.9,,57.0,0.2
1314.0,57.4,56.4,,56.9,0.7
1315.0,57.2,57.0,,57.1,0.1
1316.0,57.2,57.0,,57.1,0.1
1317.0,57.6,57.1,,57.3,0.4
1318.0,57.8,,,57.8,
1319.0,57.4,,,57.4,
1320.0,57.3,,,57.3,
1321.0,56.7,,,56.7,
1322.0,56.9,,,56.9,
1323.0,57.0,,,57.0,
1324.0,56.5,,,56.5,
1325.0,56.6,,,56.6,
1326.0,55.1,,,55.1,
1327.0,56.1,,,56.1,
1328.0,56.1,,,56.1,
1329.0,56.0,,,56.0,
1330.0,54.3,,,54.3,
1331.0,54.9,,,54.9,
1332.0,53.4,,,53.4,
1333.0,53.3,,,53.3,
1334.0,53.0,,,53.0,
1335.0,52.0,,,52.0,
1336.0,52.2,,,52.2,
1337.0,53.1,,,53.1,
1338.0,52.6,,,52.6,
1339.0,52.6,,,52.6,
1340.0,52.2,,,52.2,
1341.0,53.2,,,53.2,
1342.0,52.6,,,52.6,
1343.0,51.3,,,51.3,
1344.0,50.1,,,50.1,
1345.0,49.4,,,49.4,
1345.75,49.2,,,49.2,