File: 01_Data/MDF/Cone/MDF_HRRPUA_50.csv
Time after Ignition,MDF_R1,MDF_R2,MDF_R3,Mean,Std. Dev.
0.0,45.7,34.8,15.7,32.1,15.2
0.75,60.1,53.5,27.8,47.1,17.1
1.5,82.0,74.1,44.3,66.8,19.9
2.25,98.9,103.4,61.6,88.0,23.0
3.0,123.7,131.2,84.2,113.0,25.2
3.75,142.1,158.3,113.9,138.1,22.5
4.5,160.8,181.5,136.0,159.4,22.8
5.25,183.2,199.4,160.2,180.9,19.7
6.0,203.7,212.5,183.0,199.7,15.1
6.75,224.2,230.1,199.3,217.9,16.4
7.5,240.1,241.1,225.4,235.6,8.8
8.25,267.8,250.9,241.7,253.5,13.2
9.0,270.5,264.0,259.6,264.7,5.5
9.75,282.2,273.1,281.6,279.0,5.1
10.5,298.0,286.4,288.5,290.9,6.2
11.25,291.5,297.0,291.6,293.4,3.1
12.0,305.9,300.9,308.0,304.9,3.7
12.75,309.9,302.1,311.8,308.0,5.2
13.5,315.5,307.1,309.6,310.7,4.3
14.25,319.4,303.3,314.5,312.4,8.3
15.0,322.4,315.1,331.3,322.9,8.1
15.75,329.9,319.3,324.7,324.6,5.3
16.5,318.4,318.7,331.6,322.9,7.5
17.25,327.6,317.6,335.7,327.0,9.0
18.0,345.9,323.3,329.1,332.8,11.7
18.75,334.4,322.2,332.2,329.6,6.5
19.5,333.5,321.3,333.4,329.4,7.0
20.25,329.4,324.9,331.3,328.5,3.3
21.0,331.4,316.6,339.2,329.1,11.5
21.75,325.9,321.7,331.0,326.2,4.7
22.5,332.3,315.8,330.1,326.1,9.0
23.25,331.6,318.8,329.8,326.7,6.9
24.0,330.8,325.3,325.0,327.0,3.2
24.75,329.3,318.6,330.6,326.1,6.6
25.5,327.6,314.0,331.2,324.3,9.1
26.25,331.2,315.8,326.1,324.4,7.9
27.0,323.8,308.1,332.3,321.4,12.3
27.75,329.4,312.1,319.8,320.4,8.7
28.5,319.2,314.1,332.8,322.0,9.7
29.25,327.0,308.0,320.8,318.6,9.7
30.0,316.2,307.6,325.3,316.4,8.9
30.75,316.4,301.3,325.8,314.5,12.4
31.5,313.4,304.6,321.0,313.0,8.2
32.25,315.5,300.4,316.9,310.9,9.1
33.0,312.5,302.9,314.0,309.8,6.0
33.75,308.8,304.2,306.3,306.5,2.3
34.5,308.6,297.2,309.2,305.0,6.7
35.25,302.1,298.9,304.6,301.9,2.9
36.0,301.6,294.7,300.3,298.9,3.7
36.75,304.9,296.9,299.2,300.4,4.1
37.5,292.8,290.7,301.1,294.9,5.5
38.25,288.5,288.5,295.0,290.7,3.8
39.0,291.4,287.9,299.6,292.9,6.0
39.75,292.1,292.9,294.7,293.2,1.3
40.5,285.0,285.5,294.1,288.2,5.1
41.25,286.2,283.2,288.8,286.1,2.8
42.0,282.9,280.4,293.2,285.5,6.8
42.75,285.9,284.5,288.3,286.2,1.9
43.5,282.0,278.4,285.5,282.0,3.6
44.25,282.3,273.4,283.5,279.7,5.5
45.0,278.0,264.6,281.7,274.8,9.0
45.75,272.0,265.3,273.9,270.4,4.5
46.5,275.7,270.5,270.3,272.2,3.1
47.25,266.3,268.4,273.4,269.3,3.6
48.0,264.8,259.8,275.0,266.5,7.8
48.75,273.1,266.4,272.1,270.5,3.6
49.5,262.7,260.7,264.7,262.7,2.0
50.25,266.7,255.8,263.2,261.9,5.6
51.0,263.5,256.8,266.6,262.3,5.0
51.75,257.5,250.7,260.7,256.3,5.1
52.5,255.0,248.9,259.4,254.4,5.3
53.25,256.8,253.1,260.2,256.7,3.6
54.0,257.4,252.4,258.4,256.1,3.2
54.75,257.6,243.9,256.5,252.7,7.6
55.5,254.9,247.8,246.7,249.8,4.4
56.25,259.6,243.6,245.5,249.6,8.8
57.0,246.7,245.2,244.2,245.4,1.2
57.75,254.2,242.5,246.6,247.8,5.9
58.5,249.2,234.1,243.0,242.1,7.6
59.25,248.6,240.5,246.6,245.2,4.2
60.0,246.0,235.3,245.7,242.3,6.1
60.75,247.8,232.6,241.5,240.6,7.7
61.5,246.6,230.4,238.4,238.5,8.1
62.25,239.7,236.1,238.2,238.0,1.8
63.0,242.5,232.8,239.0,238.1,4.9
63.75,234.6,229.8,237.3,233.9,3.8
64.5,239.7,230.2,237.5,235.8,5.0
65.25,236.3,231.6,234.1,234.0,2.3
66.0,234.0,225.8,233.0,230.9,4.5
66.75,227.3,220.3,234.8,227.5,7.3
67.5,230.5,226.4,232.5,229.8,3.1
68.25,224.5,223.5,231.5,226.5,4.4
69.0,225.0,217.9,228.2,223.7,5.3
69.75,226.2,215.5,225.1,222.3,5.9
70.5,224.7,217.1,225.6,222.5,4.7
71.25,225.0,216.8,227.1,223.0,5.5
72.0,227.1,213.4,225.4,222.0,7.5
72.75,224.1,211.9,220.5,218.8,6.2
73.5,220.9,217.5,224.3,220.9,3.4
74.25,219.6,212.3,222.5,218.2,5.3
75.0,212.5,210.5,219.0,214.0,4.4
75.75,215.9,215.2,218.0,216.4,1.5
76.5,215.7,209.8,218.1,214.5,4.2
77.25,214.3,206.1,212.3,210.9,4.3
78.0,211.2,210.5,213.4,211.7,1.5
78.75,212.5,205.5,210.9,209.6,3.6
79.5,208.9,207.9,211.1,209.3,1.6
80.25,206.5,205.2,211.0,207.6,3.1
81.0,208.3,206.2,211.2,208.6,2.5
81.75,210.9,208.2,208.7,209.2,1.4
82.5,208.4,206.5,205.6,206.8,1.4
83.25,208.7,199.8,201.7,203.4,4.7
84.0,204.1,202.0,205.8,203.9,1.9
84.75,201.8,202.1,203.2,202.4,0.7
85.5,207.3,199.2,206.8,204.4,4.6
86.25,205.9,200.2,205.6,203.9,3.2
87.0,206.9,201.9,203.9,204.2,2.5
87.75,206.1,201.0,208.4,205.2,3.8
88.5,203.8,199.3,200.9,201.3,2.3
89.25,201.9,199.7,200.2,200.6,1.2
90.0,204.2,200.4,199.6,201.4,2.5
90.75,200.5,195.9,200.5,198.9,2.7
91.5,202.5,196.0,199.7,199.4,3.3
92.25,200.5,193.8,199.3,197.9,3.6
93.0,196.6,196.0,195.2,195.9,0.7
93.75,197.8,194.8,195.2,196.0,1.6
94.5,199.1,193.7,195.9,196.2,2.7
95.25,198.7,196.3,195.2,196.7,1.8
96.0,196.6,193.4,198.4,196.1,2.5
96.75,200.1,196.6,192.8,196.5,3.6
97.5,196.6,190.1,193.4,193.4,3.3
98.25,196.1,191.3,193.1,193.5,2.4
99.0,198.0,188.2,196.7,194.3,5.4
99.75,202.0,190.4,198.9,197.1,6.0
100.5,193.9,189.6,192.4,191.9,2.2
101.25,196.9,188.1,194.2,193.1,4.5
102.0,198.1,190.7,188.5,192.4,5.0
102.75,195.6,189.3,191.0,192.0,3.3
103.5,197.0,186.8,189.3,191.0,5.4
104.25,196.5,188.0,190.6,191.7,4.4
105.0,190.3,182.7,188.5,187.2,4.0
105.75,193.1,183.9,188.1,188.4,4.6
106.5,196.2,180.1,188.7,188.4,8.1
107.25,196.9,184.8,188.0,189.9,6.3
108.0,195.2,184.9,188.3,189.5,5.3
108.75,192.4,182.8,189.1,188.1,4.9
109.5,191.1,181.8,186.3,186.4,4.6
110.25,191.1,180.6,186.2,186.0,5.3
111.0,191.7,179.9,185.0,185.5,5.9
111.75,192.6,180.5,179.0,184.0,7.5
112.5,193.6,180.0,186.3,186.7,6.8
113.25,189.0,181.8,181.5,184.1,4.3
114.0,191.7,183.7,183.2,186.2,4.7
114.75,191.0,180.5,182.8,184.8,5.5
115.5,187.4,179.8,185.4,184.2,3.9
116.25,189.9,178.7,180.4,183.0,6.0
117.0,190.9,180.8,181.1,184.3,5.7
117.75,188.2,177.3,182.4,182.6,5.5
118.5,192.1,178.4,176.2,182.2,8.6
119.25,189.3,177.7,180.5,182.5,6.1
120.0,186.8,177.7,179.6,181.4,4.8
120.75,188.3,178.4,177.8,181.5,5.9
121.5,187.5,180.5,179.0,182.3,4.5
122.25,183.5,180.2,180.3,181.3,1.9
123.0,189.1,176.2,179.3,181.5,6.7
123.75,186.6,177.9,180.2,181.6,4.5
124.5,185.9,177.5,176.8,180.0,5.0
125.25,184.5,177.1,181.3,181.0,3.7
126.0,188.3,177.7,177.1,181.0,6.3
126.75,184.7,180.2,180.7,181.9,2.5
127.5,184.5,174.3,177.0,178.6,5.3
128.25,187.0,177.8,176.0,180.3,5.9
129.0,185.0,178.9,178.9,180.9,3.5
129.75,184.3,179.7,176.5,180.2,3.9
130.5,186.8,176.5,177.2,180.2,5.8
131.25,184.2,175.6,172.9,177.6,5.9
132.0,187.1,176.4,172.9,178.8,7.4
132.75,184.6,177.3,175.4,179.1,4.9
133.5,183.5,178.8,174.0,178.8,4.8
134.25,183.3,177.0,175.6,178.6,4.1
135.0,181.5,179.8,176.9,179.4,2.3
135.75,183.9,176.0,173.5,177.8,5.5
136.5,182.0,173.3,176.0,177.1,4.4
137.25,186.8,179.3,173.9,180.0,6.5
138.0,184.0,177.8,172.3,178.0,5.9
138.75,182.6,176.6,174.4,177.9,4.3
139.5,187.6,175.5,172.0,178.4,8.2
140.25,183.8,176.8,175.2,178.6,4.6
141.0,182.9,177.3,174.2,178.2,4.4
141.75,184.9,178.3,173.8,179.0,5.6
142.5,182.9,177.9,176.6,179.1,3.3
143.25,182.6,178.1,171.3,177.3,5.7
144.0,181.6,178.2,173.8,177.8,3.9
144.75,180.5,177.1,173.7,177.1,3.4
145.5,181.2,176.4,171.0,176.2,5.1
146.25,181.6,177.7,171.3,176.9,5.2
147.0,181.5,181.2,174.2,179.0,4.1
147.75,180.7,174.7,174.4,176.6,3.6
148.5,178.6,177.4,172.9,176.3,3.0
149.25,178.9,182.3,172.5,177.9,5.0
150.0,179.1,179.4,171.6,176.7,4.4
150.75,183.6,176.9,174.3,178.3,4.8
151.5,179.5,176.4,172.4,176.1,3.5
152.25,178.4,179.6,174.1,177.4,2.9
153.0,179.2,180.6,173.9,177.9,3.5
153.75,181.3,178.9,172.5,177.6,4.5
154.5,180.9,178.3,171.2,176.8,5.0
155.25,178.3,175.2,168.8,174.1,4.9
156.0,179.3,177.6,171.5,176.1,4.1
156.75,175.1,177.1,172.0,174.7,2.6
157.5,179.4,179.2,170.6,176.4,5.0
158.25,178.6,177.4,173.6,176.5,2.6
159.0,176.2,175.4,172.5,174.7,1.9
159.75,176.7,178.0,173.1,175.9,2.5
160.5,176.4,174.4,171.6,174.1,2.4
161.25,175.8,173.5,170.7,173.3,2.6
162.0,174.7,173.0,170.1,172.6,2.3
162.75,174.3,172.9,171.6,172.9,1.4
163.5,177.9,173.9,170.8,174.2,3.5
164.25,176.7,171.2,167.3,171.8,4.7
165.0,176.5,170.0,170.8,172.4,3.6
165.75,175.6,169.6,171.0,172.1,3.1
166.5,174.8,170.9,173.9,173.2,2.0
167.25,176.5,170.3,171.4,172.8,3.3
168.0,176.0,170.0,174.0,173.3,3.1
168.75,175.6,170.3,172.1,172.7,2.7
169.5,172.3,168.2,171.8,170.7,2.2
170.25,172.8,168.3,173.2,171.4,2.7
171.0,174.7,165.4,171.3,170.4,4.7
171.75,170.2,168.7,174.5,171.1,3.0
172.5,171.1,165.5,171.8,169.5,3.4
173.25,172.7,169.3,174.6,172.2,2.7
174.0,170.5,167.4,172.4,170.1,2.5
174.75,169.0,168.9,169.5,169.1,0.3
175.5,172.8,166.0,170.4,169.7,3.4
176.25,171.4,164.8,169.2,168.4,3.3
177.0,168.1,165.5,170.3,167.9,2.4
177.75,171.9,163.2,169.2,168.1,4.5
178.5,172.2,169.2,167.1,169.5,2.6
179.25,169.8,164.2,166.8,166.9,2.8
180.0,172.9,166.1,166.6,168.5,3.8
180.75,169.8,163.8,167.4,167.0,3.0
181.5,170.7,163.1,164.9,166.2,3.9
182.25,170.5,163.4,165.2,166.3,3.7
183.0,169.8,166.2,165.8,167.3,2.2
183.75,171.1,165.6,167.1,167.9,2.8
184.5,168.6,161.6,164.5,164.9,3.5
185.25,167.1,163.3,160.4,163.6,3.3
186.0,168.7,161.7,165.9,165.4,3.5
186.75,167.7,164.3,163.4,165.1,2.3
187.5,166.5,162.2,165.0,164.6,2.2
188.25,167.5,164.4,164.9,165.6,1.7
189.0,167.0,160.9,162.9,163.6,3.1
189.75,166.0,163.1,160.4,163.2,2.8
190.5,167.8,162.8,164.8,165.1,2.5
191.25,166.8,163.8,162.3,164.3,2.3
192.0,164.9,164.0,160.1,163.0,2.6
192.75,166.0,162.3,159.3,162.6,3.3
193.5,164.6,161.7,158.6,161.7,3.0
194.25,164.9,158.9,157.0,160.3,4.1
195.0,163.6,160.9,159.5,161.3,2.0
195.75,165.7,161.0,160.0,162.2,3.0
196.5,163.4,161.3,157.5,160.8,3.0
197.25,163.6,162.1,155.9,160.5,4.1
198.0,167.2,160.7,157.5,161.8,4.9
198.75,165.3,162.0,156.8,161.4,4.3
199.5,165.3,160.4,155.3,160.3,5.0
200.25,166.1,160.3,154.7,160.4,5.7
201.0,165.4,163.6,156.5,161.8,4.7
201.75,164.5,160.9,157.7,161.0,3.4
202.5,162.2,159.9,154.9,159.0,3.8
203.25,161.5,157.8,155.3,158.2,3.1
204.0,163.7,160.0,153.8,159.2,5.0
204.75,162.0,162.0,155.3,159.8,3.9
205.5,159.8,160.7,156.8,159.1,2.0
206.25,163.3,160.4,155.5,159.7,3.9
207.0,161.1,159.3,157.8,159.4,1.6
207.75,164.7,159.3,155.6,159.9,4.6
208.5,164.2,159.6,158.0,160.6,3.2
209.25,164.2,157.0,157.1,159.4,4.1
210.0,163.4,159.0,154.0,158.8,4.7
210.75,162.6,157.3,156.6,158.8,3.3
211.5,161.8,157.0,153.4,157.4,4.2
212.25,166.1,157.6,155.0,159.6,5.8
213.0,166.3,157.8,155.1,159.8,5.8
213.75,163.2,156.6,152.7,157.5,5.3
214.5,165.7,157.9,151.4,158.4,7.2
215.25,164.9,159.5,149.6,158.0,7.8
216.0,161.9,156.1,151.7,156.6,5.1
216.75,160.9,157.0,152.8,156.9,4.1
217.5,163.0,159.6,152.9,158.5,5.1
218.25,159.5,157.3,152.2,156.3,3.7
219.0,163.4,157.6,151.0,157.3,6.2
219.75,160.2,157.3,149.0,155.5,5.8
220.5,160.2,156.1,152.0,156.1,4.1
221.25,163.7,156.4,149.9,156.7,6.9
222.0,162.2,153.4,151.9,155.8,5.6
222.75,163.8,152.4,152.3,156.1,6.6
223.5,162.3,158.2,149.4,156.6,6.6
224.25,161.6,154.9,147.8,154.8,6.9
225.0,163.1,153.2,147.6,154.6,7.8
225.75,159.8,155.1,147.6,154.2,6.2
226.5,163.4,155.4,145.3,154.7,9.1
227.25,161.1,154.5,149.2,154.9,6.0
228.0,160.5,154.6,148.4,154.5,6.1
228.75,161.2,152.6,145.5,153.1,7.8
229.5,163.3,154.8,145.1,154.4,9.1
230.25,161.7,152.4,148.9,154.3,6.6
231.0,158.7,154.5,145.7,152.9,6.7
231.75,163.5,155.6,145.3,154.8,9.1
232.5,159.9,153.4,145.9,153.0,7.0
233.25,160.0,154.0,145.1,153.0,7.5
234.0,160.5,154.0,147.1,153.9,6.7
234.75,157.4,153.1,146.8,152.4,5.3
235.5,160.2,154.5,145.1,153.3,7.6
236.25,156.6,153.5,145.3,151.8,5.8
237.0,153.5,152.3,146.8,150.8,3.6
237.75,154.7,154.7,145.5,151.6,5.3
238.5,152.9,154.7,146.0,151.2,4.6
239.25,156.8,154.5,148.5,153.3,4.3
240.0,156.3,152.1,147.5,152.0,4.4
240.75,158.0,156.1,146.4,153.5,6.2
241.5,156.9,153.5,148.4,152.9,4.2
242.25,156.3,152.2,147.1,151.9,4.6
243.0,154.5,153.3,144.2,150.6,5.6
243.75,155.1,151.7,143.7,150.2,5.9
244.5,152.9,152.8,146.9,150.9,3.4
245.25,155.0,151.7,142.5,149.7,6.5
246.0,154.7,153.2,144.9,150.9,5.3
246.75,156.0,153.4,146.7,152.0,4.8
247.5,156.2,150.0,144.5,150.2,5.8
248.25,155.0,150.7,144.4,150.0,5.3
249.0,152.5,152.2,147.6,150.8,2.7
249.75,155.8,152.3,144.2,150.7,5.9
250.5,156.0,152.0,141.0,149.7,7.8
251.25,152.6,150.6,142.9,148.7,5.1
252.0,152.5,152.3,142.8,149.2,5.5
252.75,153.5,152.7,142.0,149.4,6.4
253.5,152.4,151.1,143.5,149.0,4.8
254.25,150.6,148.8,144.2,147.9,3.3
255.0,154.5,153.7,144.3,150.9,5.7
255.75,153.6,148.8,142.8,148.4,5.4
256.5,154.5,146.9,143.8,148.4,5.5
257.25,152.6,149.2,144.9,148.9,3.9
258.0,155.4,149.0,143.4,149.3,6.0
258.75,153.7,149.7,144.2,149.2,4.7
259.5,151.8,148.5,145.7,148.7,3.1
260.25,153.9,147.6,143.5,148.3,5.3
261.0,151.6,149.0,141.9,147.5,5.0
261.75,154.6,147.6,144.6,148.9,5.1
262.5,154.8,148.1,141.4,148.1,6.7
263.25,150.6,148.7,142.8,147.4,4.1
264.0,152.5,150.9,142.0,148.5,5.7
264.75,151.5,148.9,144.2,148.2,3.7
265.5,150.4,150.4,143.8,148.2,3.8
266.25,153.0,147.4,144.3,148.2,4.4
267.0,147.5,146.0,143.5,145.7,2.1
267.75,150.6,147.0,142.8,146.8,3.9
268.5,151.9,148.5,142.4,147.6,4.8
269.25,149.5,145.7,145.2,146.8,2.3
270.0,151.2,145.2,140.8,145.7,5.2
270.75,151.0,145.2,144.2,146.8,3.7
271.5,148.4,145.1,141.3,144.9,3.6
272.25,148.6,145.1,140.6,144.8,4.0
273.0,146.7,143.7,142.7,144.4,2.1
273.75,146.9,145.5,142.8,145.1,2.1
274.5,147.5,142.6,140.1,143.4,3.7
275.25,146.3,144.9,143.0,144.7,1.6
276.0,147.8,141.5,139.0,142.8,4.6
276.75,143.6,144.3,138.8,142.3,3.0
277.5,146.8,144.9,139.6,143.8,3.7
278.25,145.0,145.6,138.1,142.9,4.1
279.0,143.0,144.1,140.4,142.5,1.9
279.75,143.7,143.0,137.3,141.4,3.5
280.5,145.5,147.2,137.1,143.3,5.4
281.25,144.9,145.1,138.9,142.9,3.5
282.0,145.4,145.6,139.5,143.5,3.5
282.75,145.2,140.6,138.4,141.4,3.5
283.5,147.0,142.8,136.9,142.2,5.1
284.25,148.1,143.3,139.2,143.6,4.4
285.0,144.9,142.0,135.6,140.8,4.8
285.75,149.2,143.6,135.4,142.7,6.9
286.5,146.1,142.8,132.5,140.5,7.1
287.25,149.2,143.2,136.1,142.9,6.6
288.0,145.6,143.8,131.6,140.3,7.6
288.75,148.0,141.0,134.1,141.0,7.0
289.5,144.4,144.0,134.5,141.0,5.6
290.25,146.2,141.8,132.8,140.3,6.9
291.0,146.2,140.6,133.0,139.9,6.7
291.75,144.9,140.3,132.1,139.1,6.4
292.5,146.7,141.8,134.0,140.8,6.4
293.25,146.2,137.7,134.4,139.5,6.1
294.0,143.6,142.0,132.4,139.3,6.1
294.75,142.7,142.1,134.4,139.7,4.7
295.5,144.9,141.4,133.0,139.8,6.1
296.25,144.6,139.6,134.5,139.6,5.0
297.0,145.5,137.9,131.5,138.3,7.0
297.75,145.5,136.8,133.0,138.4,6.4
298.5,144.0,140.4,135.4,139.9,4.3
299.25,142.7,138.9,132.2,138.0,5.3
300.0,142.8,137.2,132.5,137.5,5.1
300.75,143.4,138.9,135.2,139.2,4.1
301.5,143.0,136.6,133.3,137.6,4.9
302.25,141.0,135.9,131.0,135.9,5.0
303.0,144.6,137.5,132.1,138.1,6.3
303.75,141.0,139.5,133.4,138.0,4.0
304.5,142.6,137.7,133.1,137.8,4.8
305.25,141.3,136.5,131.9,136.6,4.7
306.0,144.1,136.5,131.9,137.5,6.2
306.75,143.8,137.7,131.5,137.7,6.1
307.5,142.2,137.9,130.6,136.9,5.9
308.25,143.6,135.8,129.5,136.3,7.1
309.0,140.2,135.2,130.3,135.2,4.9
309.75,141.3,137.7,129.5,136.2,6.1
310.5,140.3,134.0,130.1,134.8,5.1
311.25,141.9,136.8,128.8,135.9,6.6
312.0,142.0,133.8,130.5,135.4,5.9
312.75,141.7,132.7,128.9,134.4,6.6
313.5,142.4,132.9,131.2,135.5,6.0
314.25,141.4,136.2,127.3,135.0,7.1
315.0,142.3,132.3,127.9,134.2,7.4
315.75,139.9,135.2,129.0,134.7,5.5
316.5,138.8,135.0,129.0,134.2,5.0
317.25,138.8,133.8,131.1,134.6,3.9
318.0,136.6,133.5,129.2,133.1,3.7
318.75,139.7,132.5,126.0,132.7,6.8
319.5,138.6,131.0,128.5,132.7,5.2
320.25,138.6,131.8,127.4,132.6,5.6
321.0,137.8,134.1,128.9,133.6,4.5
321.75,138.5,135.0,127.2,133.6,5.8
322.5,138.8,132.5,127.2,132.8,5.8
323.25,140.1,133.3,127.8,133.7,6.2
324.0,139.3,133.0,127.7,133.3,5.8
324.75,138.0,133.9,126.7,132.9,5.7
325.5,137.4,130.7,126.3,131.5,5.6
326.25,139.7,132.9,126.3,133.0,6.7
327.0,137.6,131.8,128.3,132.6,4.7
327.75,137.4,130.8,125.6,131.3,5.9
328.5,135.3,132.4,128.1,131.9,3.6
329.25,136.4,130.1,127.6,131.4,4.5
330.0,137.6,129.4,126.4,131.2,5.8
330.75,136.9,130.7,125.7,131.1,5.6
331.5,137.2,128.0,126.5,130.6,5.8
332.25,134.4,129.6,124.2,129.4,5.1
333.0,137.0,131.8,126.5,131.8,5.3
333.75,138.1,130.2,127.2,131.9,5.6
334.5,135.3,128.9,123.5,129.2,5.9
335.25,135.9,126.8,124.0,128.9,6.2
336.0,135.0,127.3,123.9,128.7,5.7
336.75,135.6,127.9,123.6,129.1,6.1
337.5,134.1,128.6,124.5,129.1,4.8
338.25,134.4,126.3,124.1,128.3,5.4
339.0,133.5,126.6,122.4,127.5,5.6
339.75,134.4,127.7,124.0,128.7,5.3
340.5,131.1,128.6,123.9,127.9,3.7
341.25,132.2,127.8,121.3,127.1,5.5
342.0,133.3,128.9,122.9,128.4,5.2
342.75,132.6,127.7,120.7,127.0,6.0
343.5,131.5,127.7,123.9,127.7,3.8
344.25,134.1,126.1,123.9,128.0,5.4
345.0,133.1,129.7,121.3,128.0,6.1
345.75,132.8,127.4,119.9,126.7,6.5
346.5,129.3,129.3,123.5,127.4,3.4
347.25,127.6,126.8,121.9,125.5,3.1
348.0,130.7,128.6,122.2,127.2,4.4
348.75,130.7,126.9,122.4,126.7,4.1
349.5,128.1,128.6,122.7,126.5,3.3
350.25,130.0,127.8,120.4,126.1,5.0
351.0,131.4,126.4,121.4,126.4,5.0
351.75,130.3,128.1,123.1,127.2,3.7
352.5,128.3,127.2,123.2,126.2,2.7
353.25,131.2,125.8,122.5,126.5,4.4
354.0,129.4,124.1,120.7,124.8,4.4
354.75,128.2,124.1,122.0,124.8,3.2
355.5,130.0,125.1,122.1,125.7,4.0
356.25,128.7,123.4,121.4,124.5,3.8
357.0,128.4,125.6,119.0,124.4,4.9
357.75,131.3,123.3,121.7,125.4,5.1
358.5,127.1,123.6,118.5,123.1,4.4
359.25,128.9,124.0,119.7,124.2,4.6
360.0,127.6,124.6,119.2,123.8,4.2
360.75,128.0,124.0,121.2,124.4,3.4
361.5,127.1,124.6,119.5,123.7,3.9
362.25,129.0,125.1,120.7,124.9,4.2
363.0,128.1,125.3,120.7,124.7,3.7
363.75,126.9,125.4,120.6,124.3,3.3
364.5,126.9,123.7,118.8,123.2,4.1
365.25,124.8,125.1,121.5,123.8,2.0
366.0,126.5,122.7,120.7,123.3,2.9
366.75,125.7,123.4,119.0,122.7,3.4
367.5,127.2,122.5,119.6,123.1,3.8
368.25,126.1,122.2,120.2,122.8,3.0
369.0,126.9,121.7,119.3,122.6,3.9
369.75,125.1,123.2,119.3,122.5,3.0
370.5,127.0,122.4,120.0,123.1,3.6
371.25,125.9,123.4,117.8,122.4,4.1
372.0,127.7,121.0,119.9,122.8,4.2
372.75,126.6,121.7,118.6,122.3,4.0
373.5,127.6,122.0,117.1,122.2,5.3
374.25,125.9,120.4,117.9,121.4,4.1
375.0,124.6,121.7,117.3,121.2,3.7
375.75,125.6,123.8,117.7,122.4,4.2
376.5,125.9,120.8,116.8,121.2,4.6
377.25,126.1,121.2,116.9,121.4,4.6
378.0,126.2,119.9,116.7,120.9,4.8
378.75,126.3,121.9,117.2,121.8,4.6
379.5,125.1,121.9,116.3,121.1,4.4
380.25,125.5,119.3,118.4,121.1,3.9
381.0,125.6,119.8,115.1,120.2,5.3
381.75,124.6,119.6,116.8,120.3,4.0
382.5,124.1,119.6,115.5,119.7,4.3
383.25,123.8,119.6,115.7,119.7,4.1
384.0,123.4,119.4,117.6,120.1,3.0
384.75,123.7,118.8,116.0,119.5,3.9
385.5,124.5,117.5,116.1,119.4,4.5
386.25,122.9,118.6,115.7,119.1,3.6
387.0,123.3,119.5,114.9,119.3,4.2
387.75,122.6,119.7,113.4,118.6,4.7
388.5,124.6,118.8,114.6,119.4,5.0
389.25,123.6,117.5,116.3,119.1,3.9
390.0,123.3,118.2,114.6,118.7,4.4
390.75,125.5,116.9,114.1,118.8,5.9
391.5,122.8,118.4,113.6,118.3,4.6
392.25,122.4,118.3,113.8,118.2,4.3
393.0,123.7,117.1,114.8,118.6,4.6
393.75,125.3,116.3,114.4,118.6,5.8
394.5,124.3,119.1,112.8,118.7,5.8
395.25,123.3,118.7,112.0,118.0,5.7
396.0,125.8,116.7,114.1,118.9,6.2
396.75,123.6,116.4,112.7,117.6,5.5
397.5,125.2,117.6,116.0,119.6,4.9
398.25,124.6,116.0,114.8,118.4,5.3
399.0,124.1,115.8,114.8,118.2,5.1
399.75,125.8,116.3,114.3,118.8,6.1
400.5,125.2,118.2,112.4,118.6,6.4
401.25,125.2,118.9,112.9,119.0,6.2
402.0,124.2,115.6,113.6,117.8,5.6
402.75,124.3,116.7,114.3,118.4,5.2
403.5,124.4,117.2,112.1,117.9,6.2
404.25,123.4,116.6,115.4,118.5,4.3
405.0,124.9,118.6,114.7,119.4,5.1
405.75,125.1,117.2,113.2,118.5,6.1
406.5,124.9,117.4,113.4,118.5,5.9
407.25,123.4,117.5,113.5,118.1,5.0
408.0,126.4,117.8,113.4,119.2,6.6
408.75,125.9,116.1,114.4,118.8,6.2
409.5,126.5,117.6,113.6,119.2,6.6
410.25,125.7,119.0,111.4,118.7,7.2
411.0,124.9,116.5,110.7,117.4,7.1
411.75,124.2,116.7,110.0,116.9,7.1
412.5,124.5,119.8,112.3,118.8,6.1
413.25,124.9,119.3,110.1,118.1,7.5
414.0,126.3,116.9,111.2,118.1,7.6
414.75,125.8,117.4,111.5,118.3,7.2
415.5,125.1,116.2,111.7,117.7,6.8
416.25,125.0,117.3,111.8,118.0,6.6
417.0,128.9,118.5,110.9,119.4,9.0
417.75,124.4,116.6,112.4,117.8,6.1
418.5,125.2,119.4,114.4,119.7,5.4
419.25,125.0,116.9,110.5,117.5,7.2
420.0,124.9,119.4,112.1,118.8,6.4
420.75,125.8,119.0,111.3,118.7,7.2
421.5,124.0,118.1,112.0,118.0,6.0
422.25,124.2,117.7,110.2,117.4,7.0
423.0,126.1,120.2,110.4,118.9,7.9
423.75,125.2,116.1,109.9,117.0,7.7
424.5,122.8,119.7,111.3,117.9,5.9
425.25,123.1,117.9,110.5,117.1,6.3
426.0,123.9,117.3,111.0,117.4,6.5
426.75,124.8,119.5,110.8,118.4,7.1
427.5,123.2,117.8,110.8,117.3,6.2
428.25,122.5,117.8,108.1,116.1,7.4
429.0,121.7,117.1,108.2,115.6,6.9
429.75,121.5,118.2,109.7,116.5,6.1
430.5,123.0,117.4,110.1,116.8,6.5
431.25,122.6,116.9,110.2,116.5,6.2
432.0,123.4,115.1,110.2,116.3,6.7
432.75,120.8,116.3,108.2,115.1,6.4
433.5,123.1,115.3,108.0,115.5,7.5
434.25,123.5,113.2,108.3,115.0,7.8
435.0,123.0,114.7,106.2,114.6,8.4
435.75,121.9,113.9,107.7,114.5,7.1
436.5,121.4,113.0,110.2,114.9,5.8
437.25,123.4,112.8,107.5,114.5,8.1
438.0,123.4,116.1,109.7,116.4,6.9
438.75,122.9,114.4,106.8,114.7,8.0
439.5,121.2,113.6,108.6,114.5,6.3
440.25,121.7,113.4,109.0,114.7,6.5
441.0,121.8,112.4,110.0,114.7,6.2
441.75,120.4,113.5,108.5,114.1,6.0
442.5,120.8,113.1,110.2,114.7,5.5
443.25,122.1,113.9,106.9,114.3,7.6
444.0,120.9,113.2,107.8,114.0,6.6
444.75,121.9,112.0,109.3,114.4,6.6
445.5,122.4,112.8,108.2,114.4,7.3
446.25,122.5,112.6,108.1,114.4,7.4
447.0,121.6,114.8,108.3,114.9,6.6
447.75,123.5,113.8,109.0,115.4,7.4
448.5,122.0,114.5,109.5,115.3,6.3
449.25,121.1,114.9,109.7,115.2,5.7
450.0,123.7,114.9,107.8,115.5,8.0
450.75,121.4,116.4,107.5,115.1,7.1
451.5,121.1,114.5,109.8,115.2,5.7
452.25,122.1,116.4,110.5,116.3,5.8
453.0,122.9,113.6,109.1,115.2,7.1
453.75,124.2,114.2,106.9,115.1,8.7
454.5,124.6,116.1,109.4,116.7,7.6
455.25,124.1,118.0,110.2,117.4,7.0
456.0,123.2,115.0,108.9,115.7,7.2
456.75,123.8,115.6,108.7,116.0,7.6
457.5,123.9,115.6,109.4,116.3,7.3
458.25,125.7,116.8,108.1,116.8,8.8
459.0,122.5,114.5,109.6,115.5,6.5
459.75,123.6,112.9,109.3,115.3,7.5
460.5,122.1,115.2,107.9,115.1,7.1
461.25,126.0,113.4,108.2,115.9,9.1
462.0,124.9,113.4,110.1,116.2,7.8
462.75,126.2,113.6,109.4,116.4,8.8
463.5,123.4,115.1,108.6,115.7,7.4
464.25,123.6,116.2,107.8,115.9,7.9
465.0,122.5,115.4,110.7,116.2,5.9
465.75,122.3,114.6,111.2,116.0,5.7
466.5,125.5,114.7,106.6,115.6,9.5
467.25,123.0,114.6,108.7,115.4,7.2
468.0,123.5,113.7,107.1,114.7,8.3
468.75,122.8,113.3,107.6,114.6,7.7
469.5,124.8,110.5,108.0,114.4,9.1
470.25,124.5,114.2,107.0,115.3,8.8
471.0,127.5,111.7,107.7,115.6,10.5
471.75,121.5,112.0,108.3,113.9,6.8
472.5,124.6,111.5,105.9,114.0,9.6
473.25,122.1,111.8,107.1,113.6,7.7
474.0,123.8,111.2,107.3,114.1,8.6
474.75,126.1,112.1,107.1,115.1,9.8
475.5,124.1,111.2,108.2,114.5,8.4
476.25,123.9,112.6,109.2,115.2,7.7
477.0,124.6,112.7,107.1,114.8,8.9
477.75,123.3,112.4,108.6,114.7,7.6
478.5,124.9,112.5,106.6,114.7,9.3
479.25,123.9,114.0,108.7,115.5,7.7
480.0,123.4,115.1,105.9,114.8,8.8
480.75,125.6,115.5,108.8,116.6,8.5
481.5,125.4,115.3,107.8,116.2,8.8
482.25,122.5,113.5,108.5,114.8,7.1
483.0,124.4,113.8,106.6,114.9,9.0
483.75,125.8,115.1,107.9,116.3,9.0
484.5,125.5,115.4,107.3,116.1,9.1
485.25,126.6,113.4,107.5,115.8,9.8
486.0,125.5,114.3,107.0,115.6,9.3
486.75,126.6,113.0,106.5,115.4,10.3
487.5,126.4,112.7,109.9,116.3,8.9
488.25,124.1,113.9,110.0,116.0,7.3
489.0,127.1,111.8,108.2,115.7,10.0
489.75,126.6,112.6,107.8,115.7,9.8
490.5,130.2,112.7,110.3,117.7,10.9
491.25,127.0,112.9,110.6,116.8,8.9
492.0,127.9,112.8,109.2,116.6,9.9
492.75,130.2,112.2,108.4,116.9,11.7
493.5,127.8,113.8,109.8,117.2,9.4
494.25,128.5,111.7,109.4,116.5,10.4
495.0,129.6,115.1,110.8,118.5,9.9
495.75,127.2,116.0,109.1,117.4,9.1
496.5,129.3,113.8,111.8,118.3,9.6
497.25,127.8,115.2,111.3,118.1,8.6
498.0,128.7,115.1,109.9,117.9,9.7
498.75,128.0,113.9,111.2,117.7,9.0
499.5,126.1,112.8,111.1,116.7,8.2
500.25,126.5,114.8,112.1,117.8,7.6
501.0,128.0,116.6,109.1,117.9,9.5
501.75,127.9,115.2,111.2,118.1,8.7
502.5,125.2,116.6,109.8,117.2,7.7
503.25,128.8,115.0,111.5,118.4,9.2
504.0,128.6,116.7,111.6,119.0,8.7
504.75,127.6,119.5,112.3,119.8,7.7
505.5,128.2,116.5,110.2,118.3,9.1
506.25,126.8,118.7,111.2,118.9,7.8
507.0,126.9,120.2,111.2,119.4,7.8
507.75,127.6,121.6,109.9,119.7,9.0
508.5,130.0,119.6,109.4,119.6,10.3
509.25,131.6,120.8,112.1,121.5,9.7
510.0,129.0,121.9,110.4,120.4,9.4
510.75,130.7,121.9,110.3,121.0,10.3
511.5,131.9,121.5,111.4,121.6,10.3
512.25,129.9,122.8,111.6,121.4,9.3
513.0,133.4,120.3,112.5,122.0,10.5
513.75,129.8,120.7,111.0,120.5,9.4
514.5,131.4,121.5,111.3,121.4,10.1
515.25,130.9,120.3,110.8,120.7,10.1
516.0,131.1,122.1,111.3,121.5,9.9
516.75,130.1,122.0,113.6,121.9,8.2
517.5,130.7,121.8,111.3,121.3,9.7
518.25,134.3,122.0,112.8,123.1,10.8
519.0,131.0,122.8,111.2,121.6,10.0
519.75,133.5,122.9,111.1,122.5,11.2
520.5,132.8,122.7,114.4,123.3,9.2
521.25,133.3,123.9,112.1,123.1,10.6
522.0,136.4,123.1,112.5,124.0,12.0
522.75,132.6,123.9,114.1,123.5,9.3
523.5,133.7,122.0,114.1,123.3,9.8
524.25,133.0,123.8,113.4,123.4,9.8
525.0,131.6,121.9,113.3,122.2,9.1
525.75,133.1,123.1,113.2,123.2,10.0
526.5,134.5,123.7,113.4,123.9,10.6
527.25,133.6,122.7,113.6,123.3,10.1
528.0,132.4,123.7,113.9,123.3,9.3
528.75,135.6,123.4,113.9,124.3,10.9
529.5,136.0,124.2,113.0,124.4,11.5
530.25,132.0,122.0,112.2,122.1,9.9
531.0,133.4,123.5,115.0,124.0,9.2
531.75,134.3,122.5,113.3,123.3,10.5
532.5,134.7,124.4,114.7,124.6,10.0
533.25,133.5,124.1,116.6,124.8,8.4
534.0,134.3,122.7,115.8,124.3,9.4
534.75,136.0,125.8,114.9,125.6,10.5
535.5,134.7,124.4,115.6,124.9,9.6
536.25,134.3,122.5,117.2,124.6,8.8
537.0,134.9,125.9,115.5,125.4,9.7
537.75,137.4,124.2,115.7,125.8,11.0
538.5,137.3,126.0,116.7,126.7,10.3
539.25,135.6,125.0,114.8,125.1,10.4
540.0,136.8,126.5,115.6,126.3,10.6
540.75,137.8,127.2,114.3,126.4,11.8
541.5,138.6,125.9,115.5,126.7,11.6
542.25,138.2,129.0,115.1,127.4,11.6
543.0,136.9,127.4,116.4,126.9,10.3
543.75,137.8,128.8,115.8,127.5,11.1
544.5,139.7,126.9,114.3,127.0,12.7
545.25,139.7,127.9,115.0,127.5,12.3
546.0,141.5,126.9,113.8,127.4,13.9
546.75,141.2,129.2,114.7,128.4,13.3
547.5,141.4,128.6,114.6,128.2,13.4
548.25,140.5,129.0,114.5,128.0,13.0
549.0,142.8,130.7,115.4,129.6,13.7
549.75,141.7,130.2,115.3,129.1,13.2
550.5,140.2,130.5,117.4,129.4,11.4
551.25,141.7,131.9,115.8,129.8,13.0
552.0,141.1,134.1,117.7,131.0,12.0
552.75,145.5,131.6,113.8,130.3,15.9
553.5,143.2,130.2,115.4,129.6,13.9
554.25,141.9,132.8,116.1,130.3,13.0
555.0,144.1,132.3,116.3,130.9,13.9
555.75,143.4,134.1,116.7,131.4,13.6
556.5,144.2,134.2,115.8,131.4,14.4
557.25,143.9,133.4,116.0,131.1,14.1
558.0,142.5,135.2,116.2,131.3,13.5
558.75,143.8,136.3,117.7,132.6,13.4
559.5,145.1,135.7,118.3,133.0,13.6
560.25,143.4,135.3,116.9,131.9,13.6
561.0,143.7,136.4,117.0,132.3,13.8
561.75,144.4,134.5,117.3,132.1,13.7
562.5,145.4,135.4,116.2,132.3,14.9
563.25,146.2,137.0,118.4,133.8,14.2
564.0,146.1,136.9,117.5,133.5,14.6
564.75,147.1,139.6,117.0,134.6,15.7
565.5,146.9,135.5,119.1,133.8,14.0
566.25,148.5,135.6,119.5,134.5,14.5
567.0,147.2,135.6,119.7,134.2,13.8
567.75,147.7,137.7,121.1,135.5,13.5
568.5,147.9,137.6,121.2,135.6,13.5
569.25,147.1,139.0,121.9,136.0,12.8
570.0,148.3,138.2,121.2,135.9,13.7
570.75,147.1,139.2,122.3,136.2,12.7
571.5,150.1,141.7,120.4,137.4,15.3
572.25,147.5,142.0,122.0,137.2,13.4
573.0,148.7,143.9,121.6,138.1,14.5
573.75,148.1,142.2,124.6,138.3,12.2
574.5,149.0,139.5,123.8,137.4,12.7
575.25,150.0,141.3,123.7,138.3,13.4
576.0,150.5,141.3,123.6,138.5,13.7
576.75,150.4,142.2,122.9,138.5,14.1
577.5,149.3,142.4,124.0,138.6,13.1
578.25,152.1,141.8,122.5,138.8,15.0
579.0,150.2,144.3,124.9,139.8,13.2
579.75,152.1,144.5,124.6,140.4,14.2
580.5,151.0,142.9,124.0,139.3,13.9
581.25,151.6,144.5,123.8,139.9,14.4
582.0,151.8,142.6,123.9,139.5,14.2
582.75,152.0,145.9,124.3,140.7,14.6
583.5,151.9,147.7,125.4,141.7,14.2
584.25,153.9,144.9,127.1,141.9,13.6
585.0,149.6,147.1,127.3,141.3,12.2
585.75,151.9,146.3,127.4,141.9,12.8
586.5,151.4,145.9,125.8,141.0,13.5
587.25,152.8,149.9,127.6,143.4,13.8
588.0,158.8,148.7,128.5,145.4,15.4
588.75,151.2,147.8,130.2,143.1,11.3
589.5,153.4,150.4,129.1,144.3,13.3
590.25,151.3,149.7,129.1,143.4,12.4
591.0,153.2,148.1,130.0,143.8,12.2
591.75,151.4,151.1,127.8,143.4,13.5
592.5,153.9,149.6,129.0,144.2,13.3
593.25,151.9,150.6,128.2,143.6,13.3
594.0,154.3,150.0,130.2,144.8,12.9
594.75,149.9,149.8,132.3,144.0,10.1
595.5,152.4,153.5,130.8,145.6,12.8
596.25,153.1,150.4,130.0,144.5,12.6
597.0,152.9,152.2,131.0,145.4,12.5
597.75,154.0,150.9,129.2,144.7,13.5
598.5,154.2,154.1,131.7,146.7,13.0
599.25,153.3,151.5,132.7,145.8,11.4
600.0,152.5,156.5,133.0,147.3,12.6
600.75,155.7,153.8,133.9,147.8,12.1
601.5,155.3,157.1,134.7,149.0,12.4
602.25,156.5,157.8,132.0,148.8,14.5
603.0,154.3,154.6,135.6,148.2,10.9
603.75,155.8,155.8,133.9,148.5,12.7
604.5,153.7,156.1,136.3,148.7,10.8
605.25,155.8,158.9,133.9,149.5,13.6
606.0,156.1,158.2,133.9,149.4,13.5
606.75,157.6,157.6,137.7,151.0,11.5
607.5,157.9,157.8,135.4,150.3,13.0
608.25,156.2,158.0,137.6,150.6,11.3
609.0,154.4,158.7,136.9,150.0,11.6
609.75,154.5,160.3,136.0,150.3,12.7
610.5,158.5,157.2,135.9,150.5,12.7
611.25,155.9,160.4,135.2,150.5,13.4
612.0,156.0,161.0,136.5,151.1,12.9
612.75,158.2,157.3,134.5,150.0,13.4
613.5,158.5,162.6,133.2,151.5,15.9
614.25,159.8,163.2,138.4,153.8,13.5
615.0,158.7,164.5,137.1,153.4,14.4
615.75,157.6,164.5,137.6,153.3,13.9
616.5,158.5,163.2,137.1,152.9,13.9
617.25,160.8,162.5,137.4,153.6,14.0
618.0,159.8,166.8,137.8,154.8,15.1
618.75,159.9,164.0,138.7,154.2,13.6
619.5,158.7,165.1,137.7,153.8,14.3
620.25,159.4,164.8,140.8,155.0,12.6
621.0,159.7,167.6,141.2,156.2,13.6
621.75,156.8,165.8,138.3,153.6,14.0
622.5,156.4,165.7,140.1,154.1,12.9
623.25,159.0,168.0,141.3,156.1,13.6
624.0,157.7,167.2,142.3,155.7,12.6
624.75,159.3,172.3,139.8,157.1,16.4
625.5,157.9,171.7,145.3,158.3,13.2
626.25,162.2,170.8,142.0,158.3,14.7
627.0,162.5,172.8,143.4,159.6,14.9
627.75,161.4,173.4,143.2,159.3,15.2
628.5,162.4,171.3,143.9,159.2,14.0
629.25,160.5,181.2,145.1,162.3,18.1
630.0,163.3,175.4,145.1,161.3,15.3
630.75,163.0,175.4,147.6,162.0,14.0
631.5,164.7,173.1,148.9,162.3,12.3
632.25,163.0,176.3,145.1,161.4,15.6
633.0,165.6,173.5,148.0,162.4,13.1
633.75,163.8,179.6,147.5,163.6,16.1
634.5,164.9,179.3,149.1,164.4,15.1
635.25,163.0,177.6,146.6,162.4,15.5
636.0,163.5,183.1,150.6,165.7,16.4
636.75,163.9,178.7,148.9,163.8,14.9
637.5,163.7,177.4,147.9,163.0,14.7
638.25,163.0,179.3,146.4,162.9,16.4
639.0,165.2,178.9,148.9,164.3,15.0
639.75,165.0,178.6,148.9,164.2,14.8
640.5,168.4,180.2,150.1,166.2,15.2
641.25,164.4,178.6,147.5,163.5,15.5
642.0,164.4,179.1,152.6,165.4,13.3
642.75,163.0,179.8,150.5,164.5,14.7
643.5,166.1,179.7,151.2,165.6,14.3
644.25,167.1,181.9,151.5,166.8,15.2
645.0,166.3,179.8,151.8,165.9,14.0
645.75,165.6,183.7,152.1,167.1,15.8
646.5,168.1,180.5,151.1,166.6,14.8
647.25,170.6,182.6,152.6,168.6,15.1
648.0,167.6,180.9,151.2,166.5,14.9
648.75,172.3,180.7,154.7,169.2,13.3
649.5,169.5,182.2,152.0,167.9,15.2
650.25,170.4,181.8,152.4,168.2,14.8
651.0,171.4,183.4,153.3,169.4,15.2
651.75,169.2,180.2,152.5,167.3,13.9
652.5,170.5,183.1,153.5,169.0,14.8
653.25,170.7,185.7,156.0,170.8,14.9
654.0,174.1,185.8,154.7,171.5,15.7
654.75,171.5,187.1,154.3,171.0,16.4
655.5,171.3,183.1,155.7,170.0,13.7
656.25,169.5,182.3,158.3,170.1,12.0
657.0,171.6,186.9,155.4,171.3,15.7
657.75,174.6,187.3,154.0,172.0,16.8
658.5,171.0,185.0,154.2,170.1,15.4
659.25,176.1,187.2,157.7,173.7,14.9
660.0,171.2,189.9,157.7,172.9,16.2
660.75,172.3,187.0,156.9,172.0,15.1
661.5,171.6,185.1,156.9,171.2,14.1
662.25,174.1,187.8,161.1,174.3,13.3
663.0,177.0,186.3,158.2,173.8,14.3
663.75,177.2,187.9,159.8,175.0,14.2
664.5,177.7,189.5,158.3,175.2,15.8
665.25,177.3,187.0,160.6,175.0,13.3
666.0,178.5,186.1,160.6,175.1,13.1
666.75,180.2,189.9,161.1,177.1,14.7
667.5,179.8,189.3,160.7,176.6,14.6
668.25,182.2,189.5,163.1,178.3,13.7
669.0,180.1,191.3,159.8,177.1,15.9
669.75,181.9,188.7,163.2,177.9,13.2
670.5,184.1,194.1,160.4,179.5,17.3
671.25,181.2,190.0,159.2,176.8,15.9
672.0,178.2,191.5,161.0,176.9,15.3
672.75,180.6,190.7,157.3,176.2,17.1
673.5,182.5,192.5,161.9,179.0,15.6
674.25,183.2,190.1,161.7,178.3,14.8
675.0,181.9,194.3,161.3,179.2,16.7
675.75,184.2,190.1,161.9,178.7,14.9
676.5,185.2,193.5,167.5,182.0,13.3
677.25,184.0,188.9,166.3,179.8,11.9
678.0,182.8,193.0,167.2,181.0,13.0
678.75,180.8,191.1,168.5,180.1,11.3
679.5,186.5,194.1,169.2,183.3,12.8
680.25,182.9,192.9,168.5,181.5,12.3
681.0,187.8,190.4,169.9,182.7,11.1
681.75,188.0,190.8,170.5,183.1,11.0
682.5,188.5,193.4,173.5,185.1,10.3
683.25,190.7,192.1,171.3,184.7,11.6
684.0,186.3,193.8,170.4,183.5,12.0
684.75,188.4,191.9,174.8,185.0,9.0
685.5,188.5,192.7,172.3,184.5,10.8
686.25,188.2,191.5,173.0,184.2,9.9
687.0,190.3,190.7,171.5,184.2,11.0
687.75,193.6,194.6,172.8,187.0,12.3
688.5,196.7,194.0,173.6,188.1,12.6
689.25,193.1,191.9,171.8,185.6,12.0
690.0,191.7,195.6,171.2,186.2,13.1
690.75,193.0,198.1,171.1,187.4,14.4
691.5,189.9,193.9,173.5,185.8,10.8
692.25,192.1,203.6,169.7,188.5,17.2
693.0,191.7,193.9,170.0,185.2,13.2
693.75,194.3,196.0,172.7,187.6,13.0
694.5,194.4,195.3,174.7,188.1,11.6
695.25,195.0,193.3,173.8,187.4,11.8
696.0,196.6,195.2,173.9,188.6,12.7
696.75,195.6,195.2,173.8,188.2,12.5
697.5,202.3,194.3,173.7,190.1,14.8
698.25,196.9,196.7,176.6,190.0,11.7
699.0,202.1,198.1,174.0,191.4,15.2
699.75,199.5,198.3,172.0,190.0,15.6
700.5,202.9,200.1,175.1,192.7,15.3
701.25,201.9,197.8,174.4,191.4,14.8
702.0,198.8,201.2,176.4,192.1,13.7
702.75,201.8,201.0,176.0,192.9,14.7
703.5,201.0,201.6,173.7,192.1,15.9
704.25,200.1,199.4,173.3,190.9,15.2
705.0,202.7,202.2,175.9,193.6,15.3
705.75,205.0,202.1,172.5,193.2,18.0
706.5,203.6,201.6,178.6,194.6,13.9
707.25,208.9,201.8,177.3,196.0,16.6
708.0,205.3,204.9,176.1,195.5,16.8
708.75,207.2,202.4,174.5,194.7,17.7
709.5,205.0,202.1,176.3,194.5,15.8
710.25,209.1,199.4,176.4,195.0,16.8
711.0,206.4,206.0,178.9,197.1,15.8
711.75,210.2,205.9,178.1,198.1,17.4
712.5,208.1,203.7,179.0,196.9,15.7
713.25,206.6,206.8,178.3,197.2,16.4
714.0,209.1,205.6,179.3,198.0,16.3
714.75,212.3,204.1,177.4,197.9,18.2
715.5,207.0,207.5,178.0,197.5,16.9
716.25,210.0,206.1,177.7,197.9,17.7
717.0,211.5,206.1,177.9,198.5,18.0
717.75,209.5,205.3,179.8,198.2,16.1
718.5,213.3,205.5,181.2,200.0,16.7
719.25,214.4,207.5,179.6,200.5,18.5
720.0,212.9,209.3,178.7,200.3,18.8
720.75,211.2,211.3,178.9,200.5,18.7
721.5,215.1,208.5,179.6,201.1,18.9
722.25,214.8,209.9,181.8,202.2,17.8
723.0,212.9,212.3,181.6,202.2,17.9
723.75,213.3,213.5,181.6,202.8,18.4
724.5,218.2,212.6,187.1,206.0,16.6
725.25,218.7,215.2,184.0,206.0,19.1
726.0,216.5,213.0,183.3,204.2,18.3
726.75,215.4,211.4,181.4,202.7,18.6
727.5,217.8,213.3,183.9,205.0,18.4
728.25,220.2,211.8,185.0,205.7,18.4
729.0,221.8,215.9,190.4,209.4,16.7
729.75,218.4,214.2,183.4,205.3,19.1
730.5,218.5,220.0,190.0,209.5,16.9
731.25,223.7,218.6,187.5,210.0,19.6
732.0,217.8,217.6,184.3,206.6,19.3
732.75,220.2,216.4,185.3,207.3,19.1
733.5,224.2,218.8,184.5,209.2,21.5
734.25,221.9,217.8,186.3,208.6,19.5
735.0,223.5,215.5,185.2,208.1,20.2
735.75,226.1,218.1,188.0,210.7,20.1
736.5,221.2,218.7,189.9,209.9,17.4
737.25,224.4,225.1,189.6,213.0,20.3
738.0,223.6,219.4,186.4,209.8,20.4
738.75,225.5,220.4,190.5,212.1,18.9
739.5,227.6,230.7,187.4,215.3,24.1
740.25,230.2,221.9,189.5,213.9,21.5
741.0,229.0,218.9,192.6,213.5,18.8
741.75,223.4,223.9,189.7,212.3,19.6
742.5,228.0,218.2,191.0,212.4,19.2
743.25,226.9,221.2,192.1,213.4,18.6
744.0,230.8,222.4,193.3,215.5,19.7
744.75,228.0,220.1,190.7,212.9,19.7
745.5,227.3,225.9,194.8,216.0,18.4
746.25,225.3,228.2,195.2,216.2,18.3
747.0,226.0,223.5,194.0,214.5,17.8
747.75,229.8,227.3,194.4,217.2,19.8
748.5,228.4,228.2,196.7,217.8,18.2
749.25,228.4,227.4,196.0,217.3,18.4
750.0,227.9,232.2,199.4,219.8,17.9
750.75,229.5,231.4,197.7,219.5,18.9
751.5,227.5,230.1,197.0,218.2,18.4
752.25,233.9,227.8,199.0,220.2,18.7
753.0,234.0,229.6,200.0,221.2,18.5
753.75,229.1,230.1,197.6,218.9,18.5
754.5,232.5,229.2,199.7,220.5,18.1
755.25,232.0,232.9,200.0,221.6,18.7
756.0,233.1,232.5,198.7,221.5,19.7
756.75,234.6,234.8,203.5,224.3,18.0
757.5,231.6,234.8,197.7,221.3,20.6
758.25,233.2,235.1,196.8,221.7,21.6
759.0,234.5,230.5,198.1,221.0,20.0
759.75,237.7,238.2,199.1,225.0,22.5
760.5,237.2,232.1,197.4,222.2,21.6
761.25,236.0,232.9,197.5,222.1,21.4
762.0,234.8,239.0,200.7,224.8,21.0
762.75,234.4,234.0,201.6,223.3,18.8
763.5,237.3,237.9,201.7,225.6,20.7
764.25,241.5,238.3,202.9,227.6,21.4
765.0,236.2,235.1,196.7,222.6,22.5
765.75,237.5,235.4,195.9,223.0,23.4
766.5,235.7,240.6,197.0,224.5,23.9
767.25,237.4,235.6,200.7,224.6,20.7
768.0,237.0,241.5,200.9,226.5,22.2
768.75,241.2,239.6,203.9,228.2,21.1
769.5,237.6,241.3,200.3,226.4,22.7
770.25,241.7,246.5,203.8,230.7,23.4
771.0,244.6,243.0,206.2,231.2,21.7
771.75,243.9,245.5,206.9,232.1,21.9
772.5,238.3,244.6,204.6,229.2,21.5
773.25,242.2,241.9,206.7,230.3,20.4
774.0,239.9,245.0,206.8,230.6,20.8
774.75,243.2,245.6,206.7,231.8,21.8
775.5,241.3,243.9,208.7,231.3,19.6
776.25,245.1,250.6,205.9,233.9,24.4
777.0,241.6,247.9,210.6,233.4,20.0
777.75,245.9,241.8,209.8,232.5,19.8
778.5,244.7,247.0,210.7,234.1,20.3
779.25,251.6,247.6,208.3,235.8,23.9
780.0,245.4,251.8,208.1,235.1,23.6
780.75,249.1,249.3,210.1,236.2,22.6
781.5,243.1,247.5,211.5,234.0,19.6
782.25,249.2,251.4,210.1,236.9,23.2
783.0,250.7,249.7,212.1,237.5,22.0
783.75,248.1,243.2,208.1,233.1,21.8
784.5,249.0,246.9,206.9,234.3,23.8
785.25,247.7,244.1,215.2,235.7,17.8
786.0,244.2,245.9,212.6,234.2,18.8
786.75,249.5,247.5,209.4,235.5,22.6
787.5,249.6,248.3,209.2,235.7,22.9
788.25,251.2,244.3,212.6,236.0,20.6
789.0,251.0,251.0,210.8,237.6,23.2
789.75,254.2,246.4,212.3,237.6,22.3
790.5,252.3,249.2,208.6,236.7,24.4
791.25,251.7,251.5,211.0,238.1,23.4
792.0,247.3,243.1,215.0,235.1,17.5
792.75,251.6,247.2,214.9,237.9,20.0
793.5,249.3,251.2,213.3,237.9,21.4
794.25,247.6,246.1,214.9,236.2,18.4
795.0,251.7,245.9,219.5,239.0,17.1
795.75,248.8,249.1,215.1,237.7,19.6
796.5,252.1,242.2,217.6,237.3,17.8
797.25,247.8,246.9,218.6,237.8,16.6
798.0,249.2,248.2,214.1,237.2,20.0
798.75,243.5,247.6,219.7,237.0,15.1
799.5,248.1,247.4,216.1,237.2,18.3
800.25,245.8,248.4,218.7,237.6,16.5
801.0,243.2,245.6,219.3,236.0,14.5
801.75,241.1,241.9,218.0,233.7,13.5
802.5,243.4,242.0,217.2,234.2,14.7
803.25,240.6,243.2,220.8,234.9,12.2
804.0,242.1,237.9,221.4,233.8,10.9
804.75,241.1,243.5,218.6,234.4,13.8
805.5,242.9,239.1,220.0,234.0,12.2
806.25,243.4,241.2,220.2,234.9,12.8
807.0,240.5,237.9,222.2,233.5,9.9
807.75,236.9,233.1,222.1,230.7,7.7
808.5,235.1,231.7,223.0,229.9,6.2
809.25,234.9,230.7,222.8,229.5,6.1
810.0,233.4,230.5,222.2,228.7,5.8
810.75,229.8,232.1,223.9,228.6,4.2
811.5,231.0,232.2,222.1,228.5,5.5
812.25,230.1,235.4,221.8,229.1,6.9
813.0,223.3,227.4,222.5,224.4,2.6
813.75,227.5,228.3,219.3,225.0,5.0
814.5,222.0,229.1,220.2,223.8,4.7
815.25,227.5,226.8,225.5,226.6,1.0
816.0,220.6,222.6,222.7,222.0,1.2
816.75,220.3,223.9,223.9,222.7,2.1
817.5,219.6,219.5,227.0,222.0,4.3
818.25,213.6,218.2,223.8,218.5,5.2
819.0,212.7,218.1,221.9,217.6,4.6
819.75,210.5,211.2,219.7,213.8,5.1
820.5,210.4,216.5,224.9,217.3,7.3
821.25,202.4,212.9,226.9,214.1,12.3
822.0,203.6,215.5,230.4,216.5,13.4
822.75,198.7,214.0,222.1,211.6,11.9
823.5,192.4,207.2,223.7,207.8,15.7
824.25,188.9,210.5,225.4,208.3,18.4
825.0,184.4,205.0,228.6,206.0,22.1
825.75,183.7,205.1,228.8,205.9,22.6
826.5,181.3,201.3,231.5,204.7,25.2
827.25,176.5,198.2,232.1,202.2,28.0
828.0,172.6,194.9,231.1,199.5,29.5
828.75,167.7,193.2,230.0,197.0,31.3
829.5,164.2,190.3,231.8,195.4,34.1
830.25,165.1,184.2,235.3,194.9,36.3
831.0,160.0,182.9,233.7,192.2,37.7
831.75,157.2,182.1,232.4,190.6,38.3
832.5,153.6,178.4,232.3,188.1,40.2
833.25,149.5,176.2,231.0,185.6,41.5
834.0,149.6,175.7,230.8,185.4,41.4
834.75,142.3,166.7,233.8,180.9,47.4
835.5,138.8,166.5,233.3,179.5,48.6
836.25,136.4,160.2,230.0,175.5,48.7
837.0,130.4,157.8,233.0,173.8,53.1
837.75,130.9,153.1,229.0,171.0,51.5
838.5,126.5,149.0,237.0,170.8,58.4
839.25,123.6,146.3,235.9,168.6,59.4
840.0,122.9,140.7,233.4,165.7,59.4
840.75,119.1,139.7,239.3,166.1,64.3
841.5,118.2,137.0,239.4,164.9,65.2
842.25,116.6,135.6,234.9,162.4,63.5
843.0,114.1,132.8,238.4,161.8,67.0
843.75,110.0,126.8,234.8,157.2,67.7
844.5,107.2,122.6,241.2,157.0,73.3
845.25,108.2,120.8,234.5,154.5,69.6
846.0,104.8,117.3,238.8,153.6,74.0
846.75,103.0,116.0,233.9,150.9,72.1
847.5,99.5,112.0,238.5,150.0,76.9
848.25,99.0,113.6,235.2,149.3,74.8
849.0,96.2,108.6,233.6,146.2,76.0
849.75,94.3,107.7,230.4,144.2,75.0
850.5,92.3,107.0,230.6,143.3,76.0
851.25,94.2,105.0,234.2,144.5,77.9
852.0,90.5,104.2,235.5,143.4,80.0
852.75,89.9,103.4,238.2,143.9,82.0
853.5,88.7,101.0,239.9,143.2,83.9
854.25,86.8,101.5,234.5,140.9,81.4
855.0,86.2,98.4,235.3,140.0,82.8
855.75,85.8,96.9,231.2,138.0,81.0
856.5,85.3,96.8,232.0,138.0,81.6
857.25,82.4,95.6,230.5,136.1,82.0
858.0,82.4,93.3,228.6,134.8,81.4
858.75,81.9,91.4,229.0,134.1,82.3
859.5,80.6,89.9,229.4,133.3,83.4
860.25,80.5,87.3,223.8,130.5,80.8
861.0,78.2,87.0,227.5,130.9,83.8
861.75,78.0,84.2,225.2,129.1,83.3
862.5,77.8,84.9,227.8,130.2,84.7
863.25,78.1,81.9,229.1,129.7,86.1
864.0,77.3,82.8,223.0,127.7,82.5
864.75,76.5,79.8,224.4,126.9,84.4
865.5,77.2,79.1,219.4,125.2,81.5
866.25,76.8,77.6,221.3,125.2,83.2
867.0,77.2,76.9,221.4,125.1,83.4
867.75,77.9,74.5,213.4,122.0,79.2
868.5,76.5,75.4,214.6,122.2,80.1
869.25,76.8,73.7,211.5,120.6,78.7
870.0,76.2,72.4,209.1,119.3,77.9
870.75,74.2,73.8,211.7,119.9,79.5
871.5,74.7,72.4,207.2,118.1,77.2
872.25,73.2,71.8,208.7,117.9,78.6
873.0,73.1,70.4,203.2,115.6,75.9
873.75,71.5,70.6,203.4,115.1,76.4
874.5,71.0,70.4,202.0,114.5,75.8
875.25,70.5,70.2,202.6,114.4,76.4
876.0,71.4,70.4,194.5,112.1,71.4
876.75,71.0,69.0,195.1,111.7,72.2
877.5,70.2,68.1,193.6,110.6,71.8
878.25,70.7,66.8,192.9,110.1,71.7
879.0,70.5,68.1,187.6,108.8,68.3
879.75,71.5,67.1,181.6,106.7,64.9
880.5,72.3,67.2,185.1,108.2,66.7
881.25,71.3,65.8,183.4,106.9,66.3
882.0,70.2,66.1,179.3,105.2,64.2
882.75,70.6,65.7,177.1,104.5,62.9
883.5,69.8,66.2,174.6,103.5,61.5
884.25,69.6,65.3,171.0,102.0,59.9
885.0,70.8,64.8,166.0,100.5,56.8
885.75,69.2,65.1,164.5,99.6,56.3
886.5,68.7,64.7,160.0,97.8,53.9
887.25,68.1,64.3,156.3,96.3,52.0
888.0,69.0,63.0,154.0,95.3,50.9
888.75,69.0,63.0,149.7,93.9,48.4
889.5,68.2,62.5,148.3,93.0,48.0
890.25,67.8,62.6,144.7,91.7,46.0
891.0,66.9,62.0,139.2,89.4,43.2
891.75,65.8,62.1,137.2,88.4,42.3
892.5,67.3,61.2,134.9,87.8,40.9
893.25,66.0,61.3,130.7,86.0,38.8
894.0,65.7,60.4,128.1,84.7,37.6
894.75,66.2,59.3,125.5,83.6,36.4
895.5,65.7,60.4,121.7,82.6,34.0
896.25,66.2,59.7,119.4,81.7,32.7
897.0,66.5,59.5,117.5,81.1,31.6
897.75,65.3,59.4,113.7,79.4,29.8
898.5,66.1,58.7,112.9,79.2,29.4
899.25,66.0,58.6,111.6,78.7,28.7
900.0,66.8,59.0,107.7,77.8,26.2
900.75,66.5,58.2,105.9,76.9,25.5
901.5,66.3,58.2,105.0,76.5,25.0
902.25,67.0,57.4,103.0,75.8,24.0
903.0,65.2,56.8,100.3,74.1,23.1
903.75,66.4,57.0,100.5,74.6,22.9
904.5,65.4,56.6,97.5,73.2,21.5
905.25,65.4,56.4,95.5,72.4,20.5
906.0,65.6,56.4,96.1,72.7,20.8
906.75,65.2,56.5,94.0,71.9,19.6
907.5,65.8,56.0,91.0,70.9,18.1
908.25,66.2,57.7,90.6,71.5,17.1
909.0,65.6,56.8,88.6,70.3,16.4
909.75,66.1,57.2,88.6,70.6,16.2
910.5,65.3,58.0,87.7,70.3,15.5
911.25,64.5,57.1,85.5,69.0,14.8
912.0,64.4,56.7,85.6,68.9,15.0
912.75,64.8,57.0,84.6,68.8,14.2
913.5,62.6,57.5,83.4,67.8,13.7
914.25,63.3,57.7,82.8,67.9,13.2
915.0,63.6,57.2,81.4,67.4,12.5
915.75,62.4,59.1,78.5,66.6,10.4
916.5,62.8,58.8,78.7,66.7,10.5
917.25,63.5,58.9,77.8,66.8,9.9
918.0,63.3,59.6,77.8,66.9,9.6
918.75,62.4,60.7,77.7,66.9,9.4
919.5,62.7,61.1,76.6,66.8,8.5
920.25,64.0,61.2,75.9,67.0,7.8
921.0,62.3,61.1,75.6,66.3,8.1
921.75,64.7,61.1,76.2,67.3,7.9
922.5,62.7,61.9,73.6,66.0,6.5
923.25,63.5,62.9,73.3,66.6,5.9
924.0,63.9,61.1,72.9,66.0,6.2
924.75,64.1,60.3,72.8,65.7,6.4
925.5,63.5,61.0,71.8,65.4,5.7
926.25,65.0,60.7,71.1,65.6,5.2
927.0,64.6,60.8,70.0,65.1,4.7
927.75,64.5,61.2,69.4,65.0,4.1
928.5,63.6,59.3,70.8,64.5,5.8
929.25,66.0,58.8,69.3,64.7,5.4
930.0,65.2,58.3,69.7,64.4,5.7
930.75,65.2,58.0,68.6,63.9,5.4
931.5,65.8,57.9,68.7,64.1,5.6
932.25,64.9,57.1,68.6,63.5,5.9
933.0,63.1,56.6,69.6,63.1,6.5
933.75,64.0,56.3,69.3,63.2,6.5
934.5,63.7,55.6,69.4,62.9,6.9
935.25,63.8,55.3,67.6,62.3,6.3
936.0,63.7,55.5,67.5,62.2,6.1
936.75,63.5,55.1,66.9,61.8,6.1
937.5,62.8,54.9,66.3,61.3,5.8
938.25,63.2,55.2,65.6,61.3,5.4
939.0,62.6,54.7,65.1,60.8,5.5
939.75,63.4,53.9,64.3,60.6,5.8
940.5,62.2,54.2,64.7,60.4,5.5
941.25,62.5,52.7,63.7,59.6,6.0
942.0,62.5,52.5,63.7,59.6,6.1
942.75,63.1,52.7,63.2,59.7,6.0
943.5,62.3,52.6,63.8,59.6,6.1
944.25,62.9,51.8,63.8,59.5,6.7
945.0,62.9,51.6,64.3,59.6,7.0
945.75,62.1,52.4,63.5,59.3,6.1
946.5,62.5,52.2,64.7,59.8,6.7
947.25,61.2,51.3,63.8,58.7,6.6
948.0,60.9,51.6,63.4,58.6,6.2
948.75,61.3,51.2,63.9,58.8,6.7
949.5,60.2,51.9,62.8,58.3,5.7
950.25,59.9,50.8,62.8,57.9,6.3
951.0,60.2,52.1,61.2,57.8,5.0
951.75,60.0,50.4,61.0,57.1,5.9
952.5,61.1,51.0,60.6,57.6,5.7
953.25,60.3,50.1,60.9,57.1,6.1
954.0,58.9,50.5,59.8,56.4,5.1
954.75,59.6,50.1,59.6,56.4,5.5
955.5,60.5,49.8,59.8,56.7,6.0
956.25,60.0,50.2,59.4,56.6,5.5
957.0,60.7,49.9,58.9,56.5,5.8
957.75,61.0,49.1,58.9,56.3,6.4
958.5,60.7,49.3,59.9,56.6,6.4
959.25,60.3,50.6,59.1,56.7,5.3
960.0,60.3,50.3,58.8,56.5,5.4
960.75,60.7,50.1,58.3,56.4,5.6
961.5,59.5,51.5,57.9,56.3,4.2
962.25,60.7,51.7,57.9,56.7,4.6
963.0,58.4,51.8,57.4,55.9,3.6
963.75,58.3,52.8,57.5,56.2,3.0
964.5,57.4,53.3,57.0,55.9,2.3
965.25,57.2,54.4,56.2,56.0,1.4
966.0,56.6,54.9,56.1,55.9,0.9
966.75,57.9,54.4,55.3,55.9,1.8
967.5,57.6,54.4,55.5,55.8,1.6
968.25,56.8,54.7,55.2,55.5,1.1
969.0,56.5,55.2,55.3,55.7,0.7
969.75,56.8,55.0,55.8,55.9,0.9
970.5,56.4,55.6,54.8,55.6,0.8
971.25,56.3,55.5,56.1,56.0,0.4
972.0,56.3,56.1,55.4,56.0,0.5
972.75,56.5,55.8,54.5,55.6,1.0
973.5,56.6,56.6,54.9,56.0,1.0
974.25,57.8,56.2,54.6,56.2,1.6
975.0,56.5,56.0,54.6,55.7,1.0
975.75,57.1,56.7,54.0,55.9,1.6
976.5,57.5,55.9,54.3,55.9,1.6
977.25,57.1,55.8,54.1,55.7,1.5
978.0,56.8,55.7,53.7,55.4,1.6
978.75,56.8,55.7,53.7,55.4,1.6
979.5,56.6,55.4,52.7,54.9,2.0
980.25,56.7,55.2,52.9,54.9,1.9
981.0,56.9,54.9,53.8,55.2,1.6
981.75,56.7,54.4,51.9,54.3,2.4
982.5,57.3,55.0,52.2,54.8,2.6
983.25,56.5,54.7,51.4,54.2,2.6
984.0,55.8,54.1,51.2,53.7,2.3
984.75,56.0,53.5,51.0,53.5,2.5
985.5,56.7,53.5,50.8,53.7,2.9
986.25,56.6,52.8,50.6,53.3,3.0
987.0,56.8,52.8,51.3,53.6,2.9
987.75,56.2,52.8,50.5,53.2,2.8
988.5,55.8,51.5,50.8,52.7,2.8
989.25,56.1,52.2,50.7,53.0,2.8
990.0,56.1,51.1,50.9,52.7,2.9
990.75,55.8,51.3,51.4,52.8,2.6
991.5,55.8,51.4,51.0,52.8,2.7
992.25,56.3,50.4,51.3,52.7,3.2
993.0,56.2,50.6,51.9,52.9,2.9
993.75,55.7,51.6,52.1,53.1,2.2
994.5,57.2,50.4,52.2,53.3,3.6
995.25,57.2,50.8,52.5,53.5,3.3
996.0,58.2,51.0,51.9,53.7,3.9
996.75,58.5,50.7,51.9,53.7,4.2
997.5,59.3,51.8,53.2,54.8,4.0
998.25,59.3,52.7,52.9,55.0,3.8
999.0,60.3,52.7,53.3,55.4,4.3
999.75,60.6,52.9,53.0,55.5,4.4
1000.5,61.3,53.3,53.1,55.9,4.6
1001.25,62.8,54.6,55.2,57.6,4.6
1002.0,62.8,54.0,54.0,56.9,5.0
1002.75,63.5,53.9,53.3,56.9,5.7