File: 01_Data/MDF/Cone/MDF_HRRPUA_75.csv
Time after Ignition,MDF_R1,MDF_R2,MDF_R3,Mean,Std. Dev.
0.0,23.3,24.4,-0.2,15.8,13.9
1.0,47.1,40.7,9.7,32.5,20.0
2.0,80.0,68.1,30.2,59.4,26.0
3.0,110.3,93.0,64.2,89.2,23.3
4.0,139.4,124.6,104.9,123.0,17.3
5.0,173.6,173.6,141.2,162.8,18.7
6.0,210.9,215.4,170.0,198.8,25.0
7.0,247.2,254.1,199.7,233.7,29.6
8.0,281.9,282.1,233.4,265.8,28.1
9.0,310.5,293.6,265.8,290.0,22.6
10.0,340.8,335.0,294.4,323.4,25.3
11.0,360.7,347.9,322.0,343.5,19.7
12.0,363.4,354.0,342.7,353.4,10.4
13.0,373.5,381.8,357.5,370.9,12.4
14.0,394.7,378.9,363.3,379.0,15.7
15.0,403.6,393.6,378.4,391.9,12.7
16.0,401.3,403.4,385.0,396.6,10.1
17.0,403.6,409.2,404.4,405.7,3.0
18.0,409.6,418.6,407.3,411.8,6.0
19.0,418.0,416.2,402.8,412.4,8.3
20.0,413.9,423.3,401.1,412.8,11.1
21.0,404.8,421.8,399.7,408.8,11.6
22.0,411.7,414.5,402.0,409.4,6.5
23.0,407.8,421.7,417.8,415.8,7.2
24.0,403.1,418.0,418.2,413.1,8.6
25.0,410.9,420.5,408.3,413.2,6.4
26.0,414.0,416.5,410.9,413.8,2.8
27.0,412.1,409.0,401.1,407.4,5.7
28.0,386.5,419.1,393.5,399.7,17.2
29.0,400.7,415.5,389.4,401.9,13.1
30.0,398.8,402.2,392.8,397.9,4.8
31.0,385.4,396.3,395.4,392.4,6.0
32.0,384.4,386.7,392.2,387.8,4.0
33.0,387.1,386.2,369.8,381.0,9.8
34.0,380.5,387.1,379.6,382.4,4.1
35.0,378.1,382.6,386.9,382.5,4.4
36.0,379.7,374.1,369.8,374.6,5.0
37.0,368.4,366.8,368.7,367.9,1.0
38.0,363.8,361.1,370.9,365.3,5.1
39.0,360.5,361.4,357.0,359.6,2.3
40.0,351.9,353.6,361.1,355.5,4.9
41.0,347.1,349.9,358.9,352.0,6.2
42.0,338.8,339.0,355.7,344.5,9.7
43.0,339.7,336.3,360.7,345.6,13.2
44.0,336.5,327.3,344.4,336.1,8.6
45.0,329.9,326.6,338.4,331.6,6.1
46.0,329.6,318.0,340.8,329.5,11.4
47.0,329.4,318.2,329.1,325.6,6.4
48.0,322.6,321.3,330.5,324.8,4.9
49.0,320.0,304.0,327.9,317.3,12.2
50.0,318.1,310.6,315.8,314.8,3.9
51.0,318.6,299.0,311.7,309.8,9.9
52.0,302.6,307.2,312.9,307.5,5.2
53.0,306.9,291.0,307.6,301.9,9.4
54.0,299.4,298.6,304.9,301.0,3.4
55.0,298.8,296.1,304.7,299.9,4.4
56.0,294.5,291.1,306.3,297.3,8.0
57.0,294.8,287.4,302.8,295.0,7.7
58.0,288.4,280.3,294.9,287.8,7.3
59.0,285.5,286.2,296.1,289.3,5.9
60.0,281.0,276.2,292.1,283.1,8.2
61.0,285.7,275.2,294.1,285.0,9.5
62.0,279.6,273.0,289.2,280.6,8.2
63.0,278.7,269.8,280.2,276.3,5.6
64.0,276.1,266.0,284.5,275.5,9.3
65.0,267.9,273.8,283.4,275.0,7.8
66.0,270.0,260.0,283.6,271.2,11.8
67.0,263.1,262.9,272.1,266.0,5.2
68.0,271.4,263.6,275.7,270.2,6.1
69.0,263.4,257.5,273.8,264.9,8.2
70.0,269.4,255.5,268.2,264.4,7.7
71.0,260.9,255.0,268.8,261.6,6.9
72.0,265.6,255.9,264.4,262.0,5.3
73.0,265.5,255.3,268.8,263.2,7.0
74.0,260.4,252.0,258.6,257.0,4.4
75.0,266.5,246.2,264.9,259.2,11.3
76.0,260.8,248.8,260.7,256.8,6.9
77.0,258.2,246.8,257.2,254.1,6.3
78.0,258.1,243.2,262.1,254.5,10.0
79.0,258.4,244.4,259.6,254.1,8.4
80.0,254.1,244.1,256.7,251.6,6.7
81.0,255.2,238.1,257.0,250.1,10.4
82.0,253.0,242.0,253.3,249.5,6.5
83.0,250.7,242.2,251.1,248.0,5.0
84.0,248.3,236.1,247.9,244.1,7.0
85.0,244.6,241.0,246.0,243.9,2.6
86.0,244.4,237.0,243.4,241.6,4.0
87.0,243.2,235.1,243.1,240.5,4.6
88.0,240.3,240.5,247.6,242.8,4.2
89.0,238.1,241.5,241.6,240.4,2.0
90.0,238.4,237.0,239.3,238.3,1.2
91.0,235.8,233.8,241.2,236.9,3.8
92.0,232.4,229.2,237.2,232.9,4.1
93.0,235.9,234.2,239.4,236.5,2.7
94.0,230.8,230.8,234.2,231.9,2.0
95.0,234.6,232.7,238.2,235.2,2.8
96.0,234.7,228.3,235.1,232.7,3.8
97.0,237.0,233.7,235.5,235.4,1.7
98.0,237.2,233.1,237.9,236.1,2.6
99.0,234.3,229.6,236.0,233.3,3.3
100.0,233.3,226.5,243.6,234.5,8.6
101.0,231.9,232.5,234.3,232.9,1.2
102.0,230.9,226.3,236.6,231.3,5.2
103.0,229.5,227.6,233.8,230.3,3.2
104.0,230.8,228.1,233.5,230.8,2.7
105.0,229.2,229.3,233.2,230.6,2.3
106.0,227.5,225.2,231.9,228.2,3.4
107.0,232.6,221.2,231.1,228.3,6.2
108.0,223.0,224.4,234.1,227.2,6.0
109.0,229.1,224.9,230.6,228.2,3.0
110.0,232.7,223.2,230.9,228.9,5.0
111.0,225.2,220.2,227.9,224.4,3.9
112.0,230.4,226.4,230.3,229.0,2.3
113.0,229.5,222.0,229.5,227.0,4.3
114.0,227.0,225.9,230.0,227.6,2.1
115.0,228.7,221.8,232.3,227.6,5.4
116.0,228.7,221.6,225.6,225.3,3.6
117.0,232.1,222.1,223.5,225.9,5.4
118.0,228.6,222.8,223.1,224.8,3.3
119.0,232.3,225.5,228.2,228.7,3.5
120.0,229.5,226.2,226.3,227.3,1.9
121.0,228.6,218.0,222.8,223.1,5.3
122.0,224.1,224.3,221.0,223.1,1.8
123.0,228.5,221.3,226.1,225.3,3.7
124.0,223.2,220.6,225.8,223.2,2.6
125.0,224.6,220.2,229.5,224.8,4.6
126.0,227.7,218.9,223.2,223.3,4.4
127.0,228.0,220.9,227.5,225.5,4.0
128.0,232.3,217.6,221.5,223.8,7.6
129.0,230.1,217.0,219.6,222.2,6.9
130.0,225.8,217.4,222.6,221.9,4.2
131.0,223.3,219.7,228.3,223.8,4.3
132.0,224.8,218.9,222.3,222.0,2.9
133.0,225.6,219.7,224.8,223.4,3.2
134.0,228.8,222.9,220.8,224.2,4.1
135.0,228.8,223.6,227.7,226.7,2.7
136.0,227.6,222.1,222.4,224.0,3.1
137.0,226.6,220.7,221.1,222.8,3.3
138.0,227.0,215.8,222.4,221.8,5.6
139.0,228.8,219.5,225.2,224.5,4.7
140.0,226.3,217.6,221.7,221.9,4.3
141.0,227.3,218.1,224.6,223.3,4.7
142.0,225.1,220.4,224.3,223.3,2.5
143.0,228.6,216.8,222.8,222.7,5.9
144.0,227.5,219.0,225.4,224.0,4.4
145.0,224.3,218.4,225.4,222.7,3.8
146.0,227.3,219.9,221.2,222.8,3.9
147.0,225.3,216.0,223.2,221.5,4.9
148.0,223.6,219.0,225.2,222.6,3.2
149.0,224.6,216.6,226.9,222.7,5.4
150.0,216.4,221.2,224.4,220.7,4.1
151.0,218.4,219.3,229.1,222.3,6.0
152.0,219.8,221.1,222.4,221.1,1.3
153.0,220.1,215.3,225.5,220.3,5.1
154.0,215.6,216.5,222.4,218.2,3.7
155.0,212.5,213.5,223.1,216.4,5.8
156.0,212.7,211.3,225.8,216.6,8.0
157.0,216.1,211.4,218.9,215.5,3.8
158.0,212.1,207.4,222.0,213.8,7.4
159.0,215.4,211.1,221.3,215.9,5.1
160.0,217.5,213.2,219.4,216.7,3.2
161.0,212.1,209.5,218.4,213.3,4.6
162.0,217.4,205.8,218.6,213.9,7.1
163.0,217.4,207.6,219.5,214.8,6.4
164.0,214.9,206.8,219.9,213.8,6.6
165.0,217.2,203.6,219.9,213.6,8.7
166.0,213.7,203.7,213.6,210.3,5.7
167.0,210.9,204.6,216.5,210.7,5.9
168.0,212.1,201.4,215.9,209.8,7.5
169.0,215.0,203.3,213.4,210.6,6.3
170.0,216.5,202.1,211.2,209.9,7.3
171.0,213.6,202.7,212.5,209.6,6.0
172.0,214.1,203.0,212.7,209.9,6.0
173.0,212.0,197.6,214.7,208.1,9.2
174.0,214.2,199.9,214.8,209.6,8.5
175.0,209.8,204.5,210.5,208.3,3.3
176.0,210.9,195.9,209.4,205.4,8.2
177.0,216.9,198.4,206.2,207.2,9.3
178.0,212.8,198.7,204.7,205.4,7.1
179.0,216.6,196.1,205.5,206.0,10.3
180.0,211.7,194.8,209.1,205.2,9.1
181.0,214.2,198.2,203.3,205.3,8.2
182.0,210.7,196.9,204.3,204.0,6.9
183.0,210.1,194.3,209.1,204.5,8.8
184.0,206.3,193.9,202.6,200.9,6.4
185.0,203.5,197.0,203.7,201.4,3.8
186.0,208.2,196.9,204.7,203.3,5.8
187.0,208.6,192.7,205.8,202.4,8.5
188.0,207.5,197.0,204.6,203.1,5.4
189.0,205.8,196.3,204.3,202.2,5.1
190.0,205.2,194.9,203.3,201.1,5.5
191.0,200.6,194.0,208.7,201.1,7.3
192.0,200.0,195.0,205.4,200.1,5.2
193.0,202.2,194.9,208.8,202.0,6.9
194.0,203.5,196.0,204.3,201.3,4.6
195.0,207.6,192.0,200.6,200.1,7.8
196.0,205.3,193.8,207.5,202.2,7.3
197.0,205.0,196.6,200.0,200.5,4.2
198.0,204.6,194.6,203.1,200.8,5.4
199.0,203.9,191.9,200.5,198.8,6.2
200.0,203.1,192.1,200.2,198.5,5.7
201.0,206.6,188.8,202.4,199.3,9.3
202.0,204.0,191.6,202.3,199.3,6.8
203.0,201.6,189.2,201.8,197.5,7.2
204.0,204.1,190.0,204.1,199.4,8.2
205.0,201.7,192.0,207.1,200.3,7.7
206.0,200.5,193.8,200.2,198.1,3.8
207.0,200.2,188.9,201.7,196.9,7.0
208.0,199.7,192.2,199.3,197.1,4.2
209.0,199.0,187.8,197.8,194.9,6.1
210.0,202.2,186.0,195.1,194.4,8.2
211.0,197.2,183.5,200.7,193.8,9.1
212.0,198.8,185.8,197.2,193.9,7.1
213.0,198.8,185.1,201.4,195.1,8.8
214.0,197.7,185.1,193.8,192.2,6.4
215.0,194.3,187.0,195.0,192.1,4.4
216.0,198.4,185.4,193.8,192.5,6.6
217.0,197.5,188.0,194.9,193.5,4.9
218.0,198.6,186.6,194.0,193.0,6.1
219.0,195.3,184.8,192.2,190.8,5.4
220.0,191.7,187.5,191.7,190.3,2.4
221.0,195.7,185.9,195.5,192.4,5.6
222.0,193.8,181.8,195.9,190.5,7.6
223.0,192.9,183.4,195.4,190.6,6.3
224.0,191.6,183.0,192.5,189.1,5.2
225.0,192.3,185.6,189.4,189.1,3.4
226.0,191.4,182.7,188.6,187.6,4.4
227.0,193.7,183.2,191.3,189.4,5.5
228.0,191.9,182.2,195.2,189.8,6.8
229.0,192.3,182.0,191.2,188.5,5.7
230.0,187.6,181.2,192.9,187.2,5.8
231.0,188.2,180.6,195.2,188.0,7.3
232.0,192.7,181.8,189.2,187.9,5.6
233.0,185.7,182.2,192.0,186.6,5.0
234.0,188.7,182.9,188.2,186.6,3.2
235.0,186.7,180.4,190.9,186.0,5.3
236.0,186.7,185.4,187.3,186.5,1.0
237.0,187.0,180.6,185.9,184.5,3.4
238.0,185.0,181.6,184.0,183.5,1.7
239.0,186.3,180.9,187.9,185.0,3.7
240.0,185.6,180.1,184.2,183.3,2.9
241.0,185.6,182.5,183.3,183.8,1.6
242.0,185.8,178.6,185.5,183.3,4.1
243.0,188.4,180.3,188.3,185.7,4.6
244.0,190.1,175.0,185.0,183.4,7.7
245.0,190.0,178.7,183.9,184.2,5.7
246.0,190.3,178.1,184.1,184.2,6.1
247.0,185.5,175.9,182.7,181.4,5.0
248.0,184.6,177.4,177.5,179.9,4.1
249.0,187.1,179.2,180.6,182.3,4.2
250.0,184.8,173.7,183.5,180.7,6.0
251.0,182.4,178.6,180.6,180.6,1.9
252.0,181.4,175.3,179.5,178.7,3.1
253.0,180.3,172.3,179.1,177.2,4.3
254.0,179.0,175.2,183.2,179.1,4.0
255.0,179.3,170.3,182.0,177.2,6.1
256.0,176.4,172.6,180.5,176.5,3.9
257.0,180.1,173.0,179.5,177.5,4.0
258.0,176.2,172.3,181.6,176.7,4.6
259.0,181.4,175.0,176.4,177.6,3.4
260.0,182.0,176.1,177.4,178.5,3.1
261.0,177.4,175.0,180.0,177.4,2.5
262.0,174.7,171.9,179.3,175.3,3.7
263.0,180.0,174.7,180.2,178.3,3.1
264.0,174.0,173.2,181.2,176.2,4.4
265.0,178.3,175.6,174.7,176.2,1.9
266.0,172.7,171.5,177.7,174.0,3.3
267.0,172.9,171.9,177.4,174.1,2.9
268.0,179.6,169.8,177.0,175.4,5.1
269.0,172.7,171.0,178.0,173.9,3.6
270.0,173.2,170.8,174.9,172.9,2.1
271.0,169.8,169.9,176.4,172.0,3.8
272.0,172.9,170.8,170.1,171.3,1.5
273.0,172.3,172.6,172.6,172.5,0.2
274.0,174.0,173.2,172.2,173.1,0.9
275.0,171.9,171.9,173.1,172.3,0.7
276.0,168.9,168.9,176.5,171.4,4.3
277.0,173.0,169.6,172.8,171.8,1.9
278.0,172.3,168.1,169.6,170.0,2.2
279.0,169.5,171.5,174.8,171.9,2.6
280.0,170.0,167.4,170.8,169.4,1.8
281.0,168.8,166.8,171.4,169.0,2.3
282.0,167.9,168.2,171.5,169.2,2.0
283.0,168.3,165.1,172.7,168.7,3.8
284.0,168.2,167.2,169.6,168.3,1.2
285.0,169.4,169.3,168.4,169.0,0.5
286.0,169.2,169.4,167.7,168.8,0.9
287.0,166.0,170.2,164.7,167.0,2.8
288.0,164.3,166.0,168.5,166.2,2.1
289.0,166.4,164.0,167.8,166.1,1.9
290.0,165.7,165.3,167.0,166.0,0.9
291.0,163.5,165.1,163.8,164.1,0.9
292.0,165.7,162.5,165.6,164.6,1.8
293.0,166.2,163.2,166.3,165.2,1.8
294.0,165.0,165.2,165.6,165.2,0.3
295.0,163.8,163.2,165.2,164.1,1.0
296.0,165.7,163.0,164.2,164.3,1.3
297.0,166.8,163.8,162.6,164.4,2.2
298.0,160.9,165.3,164.7,163.6,2.4
299.0,163.7,164.7,165.8,164.8,1.0
300.0,166.2,163.9,164.1,164.7,1.3
301.0,164.0,164.8,163.1,164.0,0.9
302.0,164.5,160.6,162.5,162.5,2.0
303.0,161.3,162.3,159.1,160.9,1.6
304.0,163.6,162.3,159.3,161.7,2.2
305.0,163.5,162.3,160.2,162.0,1.7
306.0,160.8,163.9,160.5,161.7,1.9
307.0,165.1,162.5,156.6,161.4,4.4
308.0,163.6,163.1,158.3,161.7,2.9
309.0,161.9,161.3,158.0,160.4,2.1
310.0,163.1,164.0,162.1,163.0,1.0
311.0,161.3,167.3,159.2,162.6,4.2
312.0,163.7,160.5,159.2,161.1,2.3
313.0,159.7,164.0,160.3,161.3,2.3
314.0,163.5,161.7,157.2,160.8,3.3
315.0,161.5,158.9,155.4,158.6,3.0
316.0,159.0,163.1,156.4,159.5,3.4
317.0,157.8,159.6,158.7,158.7,0.9
318.0,161.9,163.2,157.2,160.8,3.1
319.0,161.1,162.2,156.9,160.1,2.8
320.0,158.8,162.1,153.6,158.2,4.3
321.0,161.4,162.6,156.0,160.0,3.5
322.0,160.5,162.3,156.0,159.6,3.3
323.0,161.7,159.3,152.7,157.9,4.7
324.0,159.4,159.7,152.6,157.2,4.0
325.0,160.6,160.5,151.7,157.6,5.1
326.0,160.9,158.6,153.3,157.6,3.9
327.0,157.9,159.3,152.9,156.7,3.4
328.0,158.0,158.8,153.4,156.7,2.9
329.0,156.7,158.1,151.9,155.5,3.2
330.0,158.4,157.9,150.1,155.5,4.7
331.0,158.0,157.6,150.5,155.4,4.2
332.0,160.2,159.1,150.1,156.5,5.5
333.0,156.8,157.7,152.9,155.8,2.5
334.0,159.5,159.3,151.3,156.7,4.7
335.0,156.3,157.3,151.0,154.9,3.4
336.0,158.7,157.4,152.1,156.1,3.5
337.0,157.8,158.3,154.1,156.7,2.3
338.0,158.7,157.3,150.3,155.4,4.5
339.0,155.0,155.8,148.6,153.1,4.0
340.0,156.1,157.0,148.7,153.9,4.5
341.0,156.5,155.4,148.0,153.3,4.6
342.0,155.8,156.1,151.0,154.3,2.9
343.0,154.6,156.5,149.5,153.5,3.6
344.0,155.3,159.1,147.2,153.8,6.1
345.0,156.1,156.7,147.8,153.5,5.0
346.0,153.3,158.8,151.0,154.4,4.0
347.0,152.7,157.1,146.9,152.3,5.1
348.0,152.6,158.8,149.1,153.5,4.9
349.0,153.8,156.4,148.8,153.0,3.9
350.0,149.9,157.4,149.1,152.2,4.5
351.0,151.6,155.4,150.0,152.3,2.8
352.0,150.8,157.4,147.6,151.9,5.0
353.0,151.3,159.4,147.4,152.7,6.1
354.0,152.7,156.6,147.7,152.3,4.5
355.0,155.9,156.8,148.7,153.8,4.4
356.0,151.4,156.9,149.2,152.5,4.0
357.0,149.4,155.0,147.2,150.6,4.0
358.0,149.8,156.7,147.7,151.4,4.7
359.0,149.2,153.3,147.0,149.8,3.2
360.0,148.5,156.5,147.7,150.9,4.9
361.0,149.7,155.4,144.9,150.0,5.2
362.0,150.7,155.9,147.8,151.5,4.1
363.0,148.3,155.1,145.6,149.6,4.9
364.0,152.3,157.5,151.1,153.6,3.4
365.0,148.2,156.1,146.2,150.2,5.3
366.0,149.3,156.9,148.5,151.5,4.6
367.0,149.4,157.6,146.9,151.3,5.6
368.0,147.8,153.7,147.1,149.5,3.6
369.0,148.0,154.3,146.0,149.4,4.4
370.0,148.0,155.6,145.5,149.7,5.3
371.0,148.1,157.4,146.9,150.8,5.7
372.0,149.9,156.8,142.4,149.7,7.2
373.0,147.2,155.6,145.9,149.6,5.3
374.0,146.8,154.8,143.7,148.4,5.7
375.0,146.8,155.2,146.0,149.3,5.1
376.0,148.6,154.6,148.2,150.5,3.5
377.0,147.8,155.7,147.3,150.3,4.7
378.0,148.1,154.9,149.0,150.7,3.7
379.0,150.8,153.4,148.7,151.0,2.3
380.0,149.4,154.6,147.8,150.6,3.6
381.0,146.0,155.4,146.9,149.5,5.2
382.0,149.4,155.0,144.7,149.7,5.1
383.0,150.5,159.0,149.7,153.1,5.2
384.0,147.9,154.6,146.1,149.6,4.5
385.0,150.3,155.7,148.4,151.4,3.8
386.0,148.6,154.4,144.9,149.3,4.8
387.0,149.1,156.5,146.0,150.5,5.4
388.0,151.5,157.1,145.8,151.5,5.7
389.0,148.5,156.0,146.3,150.3,5.1
390.0,145.3,155.7,145.7,148.9,5.9
391.0,150.6,154.7,146.0,150.4,4.3
392.0,147.5,155.6,144.4,149.2,5.8
393.0,148.3,155.0,145.6,149.7,4.8
394.0,150.5,159.0,145.4,151.6,6.8
395.0,147.7,156.8,142.8,149.1,7.1
396.0,145.5,154.1,141.0,146.9,6.7
397.0,147.7,155.2,144.1,149.0,5.7
398.0,147.8,158.3,144.7,150.3,7.1
399.0,146.3,154.6,142.6,147.8,6.1
400.0,148.5,157.3,142.8,149.6,7.3
401.0,151.6,157.0,143.1,150.6,7.0
402.0,148.0,155.3,142.9,148.7,6.2
403.0,145.9,156.9,146.5,149.8,6.2
404.0,148.1,155.4,142.4,148.6,6.5
405.0,147.1,156.6,143.9,149.2,6.6
406.0,152.5,159.3,145.2,152.4,7.0
407.0,149.9,155.1,143.7,149.6,5.7
408.0,149.4,157.2,144.7,150.4,6.4
409.0,150.4,156.1,142.6,149.7,6.7
410.0,150.6,158.1,145.7,151.5,6.2
411.0,150.4,159.1,144.1,151.2,7.5
412.0,149.8,161.3,144.4,151.8,8.6
413.0,149.7,159.9,145.3,151.6,7.5
414.0,149.0,161.3,145.1,151.8,8.4
415.0,150.5,164.4,145.2,153.3,10.0
416.0,151.8,160.1,144.7,152.2,7.7
417.0,149.6,159.0,146.2,151.6,6.6
418.0,152.0,164.0,147.4,154.5,8.6
419.0,152.8,161.0,147.1,153.6,7.0
420.0,151.0,163.8,147.1,154.0,8.8
421.0,156.6,162.0,146.2,154.9,8.0
422.0,152.3,162.2,146.1,153.5,8.2
423.0,150.9,161.4,145.8,152.7,7.9
424.0,151.3,161.8,144.3,152.5,8.8
425.0,152.6,159.0,146.4,152.7,6.3
426.0,151.8,160.1,146.7,152.9,6.8
427.0,154.5,159.0,150.3,154.6,4.4
428.0,151.9,161.8,148.1,153.9,7.1
429.0,152.2,160.3,145.5,152.7,7.4
430.0,152.5,159.5,151.9,154.7,4.2
431.0,155.8,161.1,148.2,155.0,6.5
432.0,153.7,159.0,146.7,153.1,6.2
433.0,153.0,158.0,148.9,153.3,4.5
434.0,154.3,160.6,145.9,153.6,7.4
435.0,154.9,158.1,147.3,153.4,5.6
436.0,153.3,162.8,149.1,155.0,7.0
437.0,152.3,158.9,147.9,153.0,5.5
438.0,152.0,160.8,148.5,153.8,6.3
439.0,156.6,160.8,145.9,154.4,7.7
440.0,157.6,159.0,148.7,155.1,5.6
441.0,155.3,160.1,149.8,155.1,5.1
442.0,156.8,159.0,147.9,154.5,5.9
443.0,154.9,159.0,148.8,154.2,5.1
444.0,157.8,160.4,152.6,156.9,3.9
445.0,157.7,160.7,151.3,156.6,4.8
446.0,160.5,162.2,150.7,157.8,6.2
447.0,155.6,163.9,150.5,156.7,6.8
448.0,159.0,163.8,151.5,158.1,6.2
449.0,158.4,160.3,153.2,157.3,3.7
450.0,157.3,162.6,152.6,157.5,5.0
451.0,155.3,164.4,153.0,157.6,6.0
452.0,156.7,161.8,155.5,158.0,3.4
453.0,160.5,161.5,152.1,158.1,5.2
454.0,158.6,165.0,151.3,158.3,6.9
455.0,159.5,164.0,150.8,158.1,6.7
456.0,158.7,164.5,151.7,158.3,6.4
457.0,160.0,166.4,152.6,159.7,6.9
458.0,161.9,167.1,154.8,161.3,6.2
459.0,159.3,165.1,152.6,159.0,6.3
460.0,160.2,165.5,154.2,160.0,5.6
461.0,159.6,164.7,155.6,160.0,4.6
462.0,160.5,168.9,155.9,161.8,6.6
463.0,164.4,164.6,152.6,160.6,6.9
464.0,162.1,164.3,154.2,160.2,5.4
465.0,162.1,165.1,154.9,160.7,5.2
466.0,161.1,165.8,155.5,160.8,5.2
467.0,161.7,166.8,152.2,160.2,7.4
468.0,165.4,164.8,156.3,162.2,5.1
469.0,166.5,168.2,155.1,163.2,7.1
470.0,163.9,167.8,157.7,163.1,5.1
471.0,160.4,165.8,158.1,161.4,3.9
472.0,164.8,168.6,156.1,163.2,6.4
473.0,163.8,165.4,155.9,161.7,5.1
474.0,163.1,172.2,156.2,163.8,8.0
475.0,163.8,166.0,156.2,162.0,5.2
476.0,164.6,167.5,157.6,163.2,5.1
477.0,163.8,168.8,155.0,162.5,7.0
478.0,162.1,169.8,158.1,163.3,5.9
479.0,163.1,167.1,158.8,163.0,4.1
480.0,165.6,167.5,156.4,163.2,5.9
481.0,164.9,168.4,159.1,164.1,4.7
482.0,162.5,170.2,156.2,163.0,7.0
483.0,165.8,171.9,158.4,165.4,6.7
484.0,168.9,169.9,159.8,166.2,5.5
485.0,166.4,170.0,159.7,165.4,5.2
486.0,164.7,171.7,161.5,166.0,5.2
487.0,167.1,173.3,160.8,167.1,6.3
488.0,166.4,169.8,165.6,167.3,2.3
489.0,164.5,170.4,162.4,165.8,4.2
490.0,167.0,168.8,160.8,165.5,4.2
491.0,168.2,169.1,160.4,165.9,4.8
492.0,165.9,170.8,160.3,165.7,5.2
493.0,164.3,170.3,161.3,165.3,4.6
494.0,167.2,171.6,159.2,166.0,6.3
495.0,166.9,169.9,160.6,165.8,4.8
496.0,168.6,170.3,160.2,166.4,5.4
497.0,167.6,171.1,163.1,167.3,4.0
498.0,173.4,174.5,160.8,169.6,7.6
499.0,165.1,173.3,164.0,167.5,5.1
500.0,166.6,173.1,162.8,167.5,5.2
501.0,171.2,170.3,165.3,168.9,3.2
502.0,170.6,173.4,164.0,169.3,4.8
503.0,168.1,170.1,167.0,168.4,1.6
504.0,170.3,171.9,164.0,168.7,4.2
505.0,166.1,173.4,167.2,168.9,3.9
506.0,167.2,171.9,167.3,168.8,2.7
507.0,169.6,168.7,170.2,169.5,0.7
508.0,170.2,172.1,173.5,171.9,1.6
509.0,172.4,170.8,168.4,170.5,2.0
510.0,172.5,171.4,169.0,171.0,1.8
511.0,169.6,172.4,169.7,170.5,1.6
512.0,170.6,171.4,168.4,170.2,1.6
513.0,173.6,173.7,171.2,172.8,1.4
514.0,168.1,174.6,167.7,170.1,3.9
515.0,170.7,171.6,165.9,169.4,3.0
516.0,174.1,173.7,168.3,172.0,3.2
517.0,171.3,174.5,168.3,171.4,3.1
518.0,167.8,174.3,170.6,170.9,3.3
519.0,170.9,173.0,165.6,169.8,3.8
520.0,170.7,175.8,166.5,171.0,4.6
521.0,170.5,173.2,167.7,170.4,2.8
522.0,172.1,174.0,169.7,172.0,2.2
523.0,174.6,173.3,168.6,172.2,3.1
524.0,171.2,175.4,167.9,171.5,3.8
525.0,174.8,173.5,169.8,172.7,2.6
526.0,169.9,171.6,171.3,170.9,0.9
527.0,172.5,172.6,173.8,173.0,0.7
528.0,176.8,171.9,173.0,173.9,2.6
529.0,171.0,171.7,172.7,171.8,0.8
530.0,173.3,173.3,167.6,171.4,3.3
531.0,175.9,172.2,171.3,173.1,2.4
532.0,172.8,174.7,173.0,173.5,1.0
533.0,175.2,176.2,171.7,174.4,2.4
534.0,174.1,175.4,171.4,173.6,2.0
535.0,172.7,176.8,168.5,172.7,4.1
536.0,174.2,176.3,172.7,174.4,1.8
537.0,175.3,174.3,175.4,175.0,0.6
538.0,172.2,177.4,174.8,174.8,2.6
539.0,171.4,172.2,174.9,172.9,1.8
540.0,171.2,172.9,174.5,172.9,1.7
541.0,174.4,178.2,173.9,175.5,2.4
542.0,173.2,173.8,173.2,173.4,0.3
543.0,173.8,171.4,174.2,173.2,1.5
544.0,176.7,175.9,171.0,174.5,3.1
545.0,171.3,175.3,174.0,173.6,2.0
546.0,174.6,172.9,174.0,173.8,0.9
547.0,173.5,177.0,177.9,176.2,2.3
548.0,173.4,175.4,179.6,176.1,3.1
549.0,171.4,173.8,177.1,174.1,2.9
550.0,176.4,178.4,180.7,178.5,2.1
551.0,173.1,176.0,179.9,176.3,3.4
552.0,173.7,174.0,178.2,175.3,2.5
553.0,173.8,178.0,179.8,177.2,3.0
554.0,175.5,174.8,176.2,175.5,0.7
555.0,175.4,175.8,180.0,177.1,2.6
556.0,173.1,176.4,178.8,176.1,2.9
557.0,173.9,175.9,181.8,177.2,4.1
558.0,177.6,177.5,180.6,178.5,1.8
559.0,175.0,174.3,184.0,177.7,5.4
560.0,172.4,172.8,182.9,176.0,5.9
561.0,176.9,177.2,182.2,178.7,3.0
562.0,176.3,176.1,180.2,177.5,2.3
563.0,177.6,175.3,180.6,177.8,2.6
564.0,175.6,174.6,180.6,176.9,3.2
565.0,173.2,176.9,181.0,177.1,3.9
566.0,175.1,177.4,180.8,177.7,2.9
567.0,175.0,178.5,181.4,178.3,3.2
568.0,174.2,177.2,186.5,179.3,6.4
569.0,176.0,177.3,183.8,179.0,4.2
570.0,175.8,180.0,184.0,180.0,4.1
571.0,172.0,174.9,183.5,176.8,6.0
572.0,177.4,177.1,180.9,178.5,2.1
573.0,176.4,178.8,180.4,178.5,2.0
574.0,175.0,177.6,179.9,177.5,2.4
575.0,176.2,177.0,183.5,178.9,4.0
576.0,171.2,179.2,180.9,177.1,5.1
577.0,175.5,177.2,182.1,178.3,3.4
578.0,172.8,178.9,183.6,178.4,5.4
579.0,173.8,178.7,180.6,177.7,3.5
580.0,177.6,177.1,180.1,178.3,1.6
581.0,173.8,177.8,183.5,178.4,4.9
582.0,173.4,178.7,182.7,178.3,4.7
583.0,175.6,180.2,179.6,178.5,2.5
584.0,173.8,180.2,183.0,179.0,4.7
585.0,171.7,182.1,184.8,179.6,6.9
586.0,173.0,186.2,180.9,180.0,6.6
587.0,175.1,182.2,185.0,180.8,5.1
588.0,175.5,177.4,180.9,178.0,2.8
589.0,174.1,180.8,179.3,178.1,3.5
590.0,171.6,180.1,179.2,176.9,4.7
591.0,169.6,180.8,182.1,177.5,6.8
592.0,174.4,179.7,180.4,178.2,3.3
593.0,172.7,179.3,174.9,175.6,3.4
594.0,173.3,181.9,181.4,178.9,4.8
595.0,176.8,180.1,180.1,179.0,1.9
596.0,175.0,180.2,176.8,177.3,2.7
597.0,176.5,183.6,178.4,179.5,3.7
598.0,173.7,182.2,178.5,178.2,4.3
599.0,175.6,181.1,179.5,178.8,2.8
600.0,175.0,184.2,180.9,180.1,4.7
601.0,174.2,180.5,177.7,177.4,3.2
602.0,175.6,184.4,180.3,180.1,4.4
603.0,175.8,184.5,182.3,180.9,4.5
604.0,175.5,181.5,175.9,177.6,3.4
605.0,176.8,188.5,178.9,181.4,6.2
606.0,177.6,187.8,179.2,181.5,5.5
607.0,177.8,182.9,180.3,180.3,2.6
608.0,178.5,185.0,177.8,180.5,4.0
609.0,178.0,185.7,183.7,182.5,4.0
610.0,177.3,185.4,178.6,180.4,4.3
611.0,174.6,187.1,182.1,181.3,6.3
612.0,179.0,187.8,181.5,182.7,4.6
613.0,177.0,188.2,180.8,182.0,5.7
614.0,176.3,186.2,180.7,181.1,5.0
615.0,175.7,185.1,180.8,180.5,4.7
616.0,179.3,188.4,183.0,183.6,4.6
617.0,177.8,188.7,183.8,183.4,5.5
618.0,178.9,187.4,180.8,182.3,4.5
619.0,179.6,188.4,182.4,183.5,4.5
620.0,178.4,190.6,179.8,182.9,6.7
621.0,182.5,189.8,183.8,185.4,3.9
622.0,177.6,190.7,183.0,183.8,6.6
623.0,177.0,191.8,183.2,184.0,7.4
624.0,176.5,191.4,183.2,183.7,7.4
625.0,179.6,189.2,185.9,184.9,4.9
626.0,179.5,193.7,181.2,184.8,7.8
627.0,178.6,189.7,183.5,183.9,5.6
628.0,180.6,186.4,184.5,183.8,3.0
629.0,180.9,191.6,180.3,184.3,6.4
630.0,182.9,194.0,180.9,185.9,7.1
631.0,182.4,195.3,181.4,186.4,7.7
632.0,182.7,191.5,184.8,186.3,4.6
633.0,179.1,195.3,180.5,185.0,9.0
634.0,181.1,199.4,186.5,189.0,9.4
635.0,181.7,195.7,182.9,186.8,7.7
636.0,179.6,197.0,189.8,188.8,8.7
637.0,182.1,196.1,189.2,189.1,7.0
638.0,186.4,194.3,186.8,189.2,4.4
639.0,181.1,196.7,184.5,187.5,8.2
640.0,186.8,192.4,189.2,189.5,2.8
641.0,185.1,197.8,183.4,188.8,7.8
642.0,186.2,197.2,187.4,190.2,6.0
643.0,184.7,197.8,185.2,189.2,7.5
644.0,187.0,198.9,188.1,191.3,6.6
645.0,183.4,197.6,189.8,190.3,7.1
646.0,183.7,197.0,185.0,188.6,7.4
647.0,190.3,197.1,189.1,192.2,4.3
648.0,185.7,197.6,186.3,189.9,6.7
649.0,189.1,198.0,187.4,191.5,5.7
650.0,188.5,199.7,187.4,191.9,6.8
651.0,189.0,199.5,186.5,191.7,6.9
652.0,186.4,199.8,191.8,192.7,6.8
653.0,186.3,198.9,189.1,191.5,6.6
654.0,189.5,202.7,188.8,193.6,7.9
655.0,191.7,200.7,190.7,194.3,5.5
656.0,189.4,200.5,189.8,193.2,6.3
657.0,194.7,200.1,193.1,196.0,3.7
658.0,189.9,199.3,189.6,192.9,5.5
659.0,190.6,201.5,190.7,194.3,6.3
660.0,194.9,196.8,189.0,193.6,4.1
661.0,191.8,199.3,192.2,194.4,4.2
662.0,195.4,199.1,194.1,196.2,2.6
663.0,190.5,201.4,195.2,195.7,5.5
664.0,192.6,198.0,192.7,194.4,3.1
665.0,192.6,201.7,193.7,196.0,5.0
666.0,193.3,198.4,194.8,195.5,2.6
667.0,196.4,200.1,198.6,198.3,1.8
668.0,195.0,201.2,193.0,196.4,4.3
669.0,196.8,197.4,193.6,195.9,2.0
670.0,195.1,202.4,193.7,197.1,4.7
671.0,194.5,203.7,194.2,197.5,5.4
672.0,197.4,200.2,193.3,197.0,3.5
673.0,195.3,205.4,192.2,197.6,6.9
674.0,196.2,200.8,195.1,197.4,3.0
675.0,201.0,205.0,191.0,199.0,7.2
676.0,196.1,201.6,189.4,195.7,6.1
677.0,199.3,203.7,193.9,199.0,4.9
678.0,199.9,207.3,192.2,199.8,7.6
679.0,196.5,202.7,192.7,197.3,5.1
680.0,196.7,205.8,195.9,199.5,5.5
681.0,199.2,206.0,194.7,200.0,5.7
682.0,197.4,199.9,192.4,196.6,3.8
683.0,199.9,203.4,192.9,198.7,5.3
684.0,198.1,209.0,196.0,201.0,7.0
685.0,200.9,209.1,194.3,201.4,7.4
686.0,205.4,206.0,196.3,202.6,5.4
687.0,201.5,207.0,197.4,202.0,4.8
688.0,203.9,210.1,197.0,203.7,6.5
689.0,202.7,206.7,196.8,202.1,5.0
690.0,204.9,207.1,195.9,202.6,5.9
691.0,205.4,211.1,197.6,204.7,6.8
692.0,201.8,214.3,197.7,204.6,8.7
693.0,203.5,213.7,199.2,205.4,7.4
694.0,201.0,210.6,194.9,202.2,7.9
695.0,204.7,211.5,196.2,204.1,7.7
696.0,205.0,212.3,197.1,204.8,7.6
697.0,204.3,212.1,196.5,204.3,7.8
698.0,203.8,212.2,198.5,204.8,6.9
699.0,204.2,210.5,198.6,204.4,6.0
700.0,203.2,211.5,195.9,203.6,7.8
701.0,199.3,211.9,199.9,203.7,7.1
702.0,200.2,209.3,196.5,202.0,6.6
703.0,206.4,211.7,202.1,206.7,4.8
704.0,206.8,210.5,205.3,207.6,2.7
705.0,208.8,209.4,199.5,205.9,5.5
706.0,209.9,212.0,204.9,208.9,3.7
707.0,205.5,208.5,197.6,203.9,5.7
708.0,212.5,205.2,198.1,205.3,7.2
709.0,215.4,204.6,198.1,206.0,8.8
710.0,214.0,207.3,202.0,207.8,6.0
711.0,214.4,206.6,202.4,207.8,6.1
712.0,215.1,214.9,200.1,210.1,8.6
713.0,217.0,209.4,198.8,208.4,9.1
714.0,215.9,216.2,201.2,211.1,8.5
715.0,215.7,215.6,206.6,212.6,5.2
716.0,212.3,210.7,204.1,209.0,4.4
717.0,216.0,214.7,203.9,211.6,6.6
718.0,218.8,212.1,203.0,211.3,7.9
719.0,216.5,212.3,200.6,209.8,8.2
720.0,212.1,215.7,204.5,210.8,5.7
721.0,217.5,212.0,202.7,210.7,7.5
722.0,218.7,214.3,205.9,213.0,6.5
723.0,218.3,214.3,205.3,212.6,6.7
724.0,219.0,216.3,204.8,213.4,7.6
725.0,222.4,214.4,204.5,213.7,9.0
726.0,220.1,214.6,207.2,213.9,6.5
727.0,214.7,214.0,205.5,211.4,5.1
728.0,216.7,213.7,204.8,211.7,6.2
729.0,213.8,210.6,205.9,210.1,4.0
730.0,216.1,211.0,208.6,211.9,3.8
731.0,209.7,208.1,208.2,208.7,0.9
732.0,216.6,208.2,208.0,210.9,4.9
733.0,215.8,205.6,204.8,208.7,6.1
734.0,218.7,207.8,204.5,210.3,7.4
735.0,216.8,206.5,206.3,209.9,6.0
736.0,216.7,204.0,203.9,208.2,7.4
737.0,213.2,207.9,207.2,209.5,3.3
738.0,219.1,208.3,204.4,210.6,7.6
739.0,214.6,204.8,202.2,207.2,6.5
740.0,214.6,202.5,206.9,208.0,6.1
741.0,217.7,204.0,205.4,209.0,7.6
742.0,217.9,201.1,201.9,207.0,9.5
743.0,211.1,202.8,201.8,205.2,5.1
744.0,216.8,199.1,204.4,206.8,9.1
745.0,211.4,194.9,201.5,202.6,8.3
746.0,210.0,194.5,198.2,200.9,8.1
747.0,212.5,193.3,197.3,201.0,10.1
748.0,207.2,189.8,198.4,198.5,8.7
749.0,205.4,191.9,193.7,197.0,7.3
750.0,205.8,190.1,189.6,195.2,9.2
751.0,208.4,185.4,194.2,196.0,11.6
752.0,201.8,185.9,191.2,192.9,8.1
753.0,200.3,184.7,190.8,192.0,7.9
754.0,199.8,182.4,190.8,191.0,8.7
755.0,199.3,176.1,186.4,187.2,11.6
756.0,195.6,174.5,183.9,184.7,10.6
757.0,198.2,172.6,181.8,184.2,13.0
758.0,195.4,171.2,178.7,181.8,12.3
759.0,193.8,169.7,178.0,180.5,12.2
760.0,189.4,163.1,173.5,175.3,13.2
761.0,190.4,160.6,171.7,174.3,15.1
762.0,187.5,157.4,168.8,171.2,15.2
763.0,179.7,154.3,165.0,166.3,12.7
764.0,178.0,150.0,163.8,164.0,14.0
765.0,177.2,147.0,162.7,162.3,15.1
766.0,173.5,144.4,158.8,158.9,14.5
767.0,170.4,142.4,155.0,155.9,14.0
768.0,168.0,143.0,154.5,155.2,12.5
769.0,166.7,139.5,150.7,152.3,13.7
770.0,163.3,136.7,145.5,148.5,13.5
771.0,160.9,132.3,144.6,145.9,14.4
772.0,160.5,133.1,140.4,144.7,14.2
773.0,156.3,130.9,139.5,142.3,12.9
774.0,153.4,125.9,134.2,137.9,14.1
775.0,151.1,123.8,132.6,135.8,13.9
776.0,145.7,123.3,128.9,132.6,11.6
777.0,144.6,121.9,126.2,130.9,12.0
778.0,139.4,122.0,123.9,128.4,9.5
779.0,135.6,117.8,120.7,124.7,9.5
780.0,130.1,119.1,117.6,122.3,6.9
781.0,130.1,115.3,116.8,120.7,8.1
782.0,124.1,113.1,113.9,117.0,6.2
783.0,122.1,109.8,109.7,113.9,7.1
784.0,124.4,106.9,107.2,112.8,10.0
785.0,115.7,104.9,103.9,108.2,6.5
786.0,109.5,104.6,99.8,104.6,4.9
787.0,105.9,102.6,100.1,102.9,2.9
788.0,102.4,100.4,98.9,100.6,1.7
789.0,99.8,97.8,96.0,97.9,1.9
790.0,97.1,95.4,92.7,95.1,2.2
791.0,93.7,94.2,90.5,92.8,2.0
792.0,92.8,93.8,87.4,91.3,3.4
793.0,89.7,93.4,86.8,90.0,3.3
794.0,86.8,91.2,86.1,88.1,2.8
795.0,84.3,91.4,86.0,87.2,3.7
796.0,81.3,89.4,84.6,85.1,4.1
797.0,80.0,88.7,83.9,84.2,4.4
798.0,76.8,87.8,83.0,82.5,5.5
799.0,75.0,88.2,80.6,81.3,6.6
800.0,73.5,85.8,80.5,79.9,6.2
801.0,72.4,84.7,78.3,78.5,6.2
802.0,72.8,82.4,77.1,77.4,4.8
803.0,70.0,82.1,75.2,75.8,6.1
804.0,69.5,82.6,74.5,75.5,6.6
805.0,70.3,80.3,72.0,74.2,5.3
806.0,68.1,79.3,72.1,73.2,5.7
807.0,68.6,79.1,70.5,72.7,5.6
808.0,65.3,78.8,69.7,71.3,6.9
809.0,66.2,77.9,68.0,70.7,6.3
810.0,65.3,77.8,67.3,70.2,6.7
811.0,63.1,77.5,66.5,69.0,7.5
812.0,62.8,77.5,65.4,68.6,7.9
813.0,61.8,77.5,65.4,68.2,8.2
814.0,61.1,76.8,65.1,67.6,8.2
815.0,61.6,76.2,64.0,67.2,7.8
816.0,61.5,75.5,63.2,66.7,7.7
817.0,61.5,77.1,63.8,67.5,8.4
818.0,60.7,76.1,62.0,66.3,8.5
819.0,60.2,76.2,61.1,65.8,9.0
820.0,61.0,76.1,59.0,65.4,9.4
821.0,60.5,75.5,59.8,65.3,8.9
822.0,59.4,75.4,59.6,64.8,9.2
823.0,60.4,74.3,59.3,64.6,8.3
824.0,59.2,73.7,59.2,64.1,8.4
825.0,59.1,73.0,57.6,63.2,8.4
826.0,59.9,71.7,58.5,63.4,7.3
827.0,58.8,72.4,58.2,63.1,8.0
828.0,58.5,72.6,56.6,62.6,8.7
829.0,58.3,74.1,57.5,63.3,9.4
830.0,57.8,74.4,57.1,63.1,9.8
831.0,56.4,74.8,56.7,62.6,10.6
832.0,57.0,76.8,57.7,63.8,11.2
833.0,56.1,77.4,56.4,63.3,12.2
834.0,55.8,76.5,56.3,62.9,11.8
835.0,55.5,76.1,56.2,62.6,11.7
836.0,54.6,76.3,54.9,61.9,12.4
837.0,54.1,78.3,56.2,62.9,13.4
838.0,54.8,78.9,55.5,63.1,13.7
839.0,54.3,78.8,56.3,63.1,13.6
840.0,54.3,79.6,54.5,62.8,14.6
841.0,54.4,80.8,55.6,63.6,14.9
842.0,54.7,81.3,54.3,63.4,15.5
843.0,54.1,81.2,54.5,63.3,15.5
844.0,54.6,78.2,54.1,62.3,13.8
845.0,54.6,78.9,54.0,62.5,14.2
846.0,54.7,78.5,53.9,62.4,14.0
847.0,54.1,77.6,53.0,61.6,13.9
848.0,54.3,76.1,52.3,60.9,13.2
849.0,54.1,75.0,53.2,60.8,12.3
850.0,53.4,77.1,52.1,60.9,14.1
851.0,53.5,76.8,52.4,60.9,13.8
852.0,53.7,75.3,52.6,60.6,12.8
853.0,54.5,77.4,51.8,61.2,14.1
854.0,54.4,76.4,51.8,60.8,13.5
855.0,55.3,75.8,52.4,61.2,12.7
856.0,55.8,77.4,52.0,61.7,13.7
857.0,57.4,75.2,53.3,62.0,11.6
858.0,57.9,74.6,53.7,62.0,11.0
859.0,58.3,75.0,54.2,62.5,11.0
860.0,59.3,75.0,53.5,62.6,11.1
861.0,59.3,74.0,54.9,62.7,10.0
862.0,59.3,73.9,54.2,62.5,10.2
863.0,59.6,74.5,53.8,62.6,10.6
864.0,59.6,74.9,54.2,62.9,10.7
865.0,59.1,73.3,53.7,62.0,10.1
866.0,59.2,74.3,55.0,62.8,10.2
867.0,59.1,74.2,53.3,62.2,10.8
868.0,58.9,72.8,53.2,61.6,10.1
869.0,59.4,72.0,52.8,61.4,9.7
870.0,58.2,73.6,53.2,61.7,10.6
871.0,58.0,73.4,51.8,61.0,11.1
872.0,57.2,72.6,52.1,60.6,10.7
873.0,58.0,73.3,52.2,61.2,10.9
874.0,56.2,73.6,52.1,60.7,11.4
875.0,56.5,71.6,51.7,59.9,10.4
876.0,56.7,71.3,51.8,59.9,10.2
877.0,54.3,70.8,50.8,58.6,10.6
878.0,54.9,70.3,51.3,58.8,10.1
879.0,53.3,72.3,51.7,59.1,11.4
880.0,53.4,70.9,50.8,58.4,11.0
881.0,52.7,70.9,50.9,58.2,11.1
882.0,54.1,69.3,51.1,58.2,9.8
883.0,54.0,71.1,50.4,58.5,11.1
884.0,54.3,71.9,50.8,59.0,11.3
885.0,53.4,70.9,51.4,58.6,10.7
886.0,55.3,70.9,51.3,59.1,10.3
887.0,55.0,71.6,50.7,59.1,11.0
888.0,55.6,72.1,50.7,59.5,11.2
889.0,55.0,71.9,50.7,59.2,11.2
890.0,56.3,72.7,51.5,60.1,11.1
891.0,56.8,70.8,49.8,59.1,10.7
892.0,57.1,72.3,49.4,59.6,11.6
893.0,57.0,71.7,49.8,59.5,11.2
894.0,56.6,71.3,49.8,59.2,11.0
895.0,58.0,72.3,49.5,59.9,11.5
896.0,58.2,71.4,49.4,59.6,11.1
897.0,56.8,72.3,49.7,59.6,11.6
898.0,58.1,70.8,49.4,59.4,10.8
899.0,58.1,70.0,49.4,59.2,10.4
900.0,58.2,70.2,49.6,59.3,10.4
901.0,57.9,70.4,49.8,59.4,10.3
902.0,57.8,70.0,50.5,59.4,9.8
903.0,57.3,70.9,50.5,59.6,10.4
904.0,56.7,71.8,50.5,59.7,11.0
905.0,57.0,69.6,50.1,58.9,9.9
906.0,56.8,70.5,50.4,59.2,10.2
907.0,57.9,72.3,50.4,60.2,11.1
908.0,56.5,72.2,49.9,59.5,11.5
909.0,55.7,71.9,49.8,59.1,11.4
910.0,56.1,71.5,50.2,59.2,11.0
911.0,55.0,71.7,49.5,58.7,11.6
912.0,54.8,72.2,49.4,58.8,11.9
913.0,54.8,71.3,49.1,58.4,11.5
914.0,54.1,71.0,49.7,58.3,11.3
915.0,53.6,71.3,49.1,58.0,11.7
916.0,54.3,71.2,48.7,58.1,11.7
917.0,55.3,71.4,49.6,58.8,11.3
918.0,55.3,70.4,49.2,58.3,10.9
919.0,55.4,70.3,50.0,58.6,10.5
920.0,54.8,70.2,49.6,58.2,10.7
921.0,54.1,69.8,49.0,57.6,10.9
922.0,54.1,69.6,48.8,57.5,10.8
923.0,53.9,69.3,49.2,57.5,10.5
924.0,52.3,69.6,49.2,57.0,11.0
925.0,53.0,68.8,49.8,57.2,10.2
926.0,53.1,68.6,49.6,57.1,10.1
927.0,52.7,68.8,49.5,57.0,10.4
928.0,52.5,68.1,49.7,56.8,9.9
929.0,52.8,68.9,50.1,57.2,10.2
930.0,52.1,68.8,49.7,56.9,10.4
931.0,53.1,67.7,50.0,56.9,9.5
932.0,51.6,69.4,50.9,57.3,10.5
933.0,52.0,68.6,50.4,57.0,10.1
934.0,52.5,68.1,50.3,56.9,9.7
935.0,52.4,67.2,49.6,56.4,9.4
936.0,51.9,66.6,,59.3,10.4
937.0,52.0,67.1,,59.5,10.7
938.0,52.5,66.5,,59.5,9.9
939.0,52.8,68.0,,60.4,10.7
940.0,52.1,67.3,,59.7,10.7
941.0,51.6,67.0,,59.3,10.8
942.0,52.6,66.9,,59.7,10.1
943.0,52.7,67.1,,59.9,10.2
944.0,52.8,67.0,,59.9,10.1
945.0,53.4,67.1,,60.3,9.7
946.0,52.7,66.6,,59.7,9.8
947.0,52.5,66.2,,59.3,9.7
948.0,52.6,65.6,,59.1,9.2
949.0,52.4,65.9,,59.2,9.5
950.0,51.6,66.3,,59.0,10.4
951.0,51.2,65.0,,58.1,9.7
952.0,51.5,65.3,,58.4,9.7
953.0,50.3,65.3,,57.8,10.6
954.0,50.8,65.4,,58.1,10.3
955.0,50.9,65.1,,58.0,10.0
956.0,51.3,66.3,,58.8,10.5
957.0,50.5,64.5,,57.5,9.9
958.0,50.8,65.4,,58.1,10.3
959.0,51.4,65.3,,58.3,9.8
960.0,51.5,65.0,,58.3,9.6
961.0,51.4,64.3,,57.9,9.1
962.0,52.8,64.9,,58.8,8.5
963.0,52.2,64.1,,58.1,8.4
964.0,51.3,65.1,,58.2,9.7
965.0,52.2,64.9,,58.6,9.0
966.0,51.6,65.3,,58.5,9.7
967.0,51.2,63.8,,57.5,8.9
968.0,51.2,64.6,,57.9,9.5
969.0,51.3,65.2,,58.2,9.9
970.0,51.0,64.1,,57.6,9.3
971.0,50.8,63.3,,57.1,8.8
972.0,51.2,64.1,,57.7,9.1
973.0,51.1,63.9,,57.5,9.1
974.0,51.4,64.9,,58.1,9.6
975.0,51.7,64.1,,57.9,8.7
976.0,51.6,63.7,,57.7,8.5
977.0,51.9,63.8,,57.8,8.4
978.0,51.7,63.7,,57.7,8.5
979.0,51.6,63.5,,57.6,8.4
980.0,52.6,63.1,,57.9,7.4
981.0,52.7,62.9,,57.8,7.2
982.0,53.4,63.5,,58.5,7.1
983.0,52.7,63.7,,58.2,7.8
984.0,53.4,62.4,,57.9,6.3
985.0,53.2,62.6,,57.9,6.7
986.0,52.0,62.6,,57.3,7.5
987.0,52.4,62.3,,57.4,7.0
988.0,53.3,62.8,,58.1,6.7
989.0,53.5,63.1,,58.3,6.8
990.0,54.6,62.1,,58.4,5.3
991.0,54.8,62.4,,58.6,5.4
992.0,54.5,61.4,,58.0,4.9
993.0,54.9,62.6,,58.7,5.5
994.0,55.2,64.2,,59.7,6.3
995.0,54.3,62.6,,58.5,5.9
996.0,54.5,62.3,,58.4,5.5
997.0,54.8,63.0,,58.9,5.7
998.0,53.1,62.4,,57.8,6.6
999.0,52.7,62.9,,57.8,7.2
1000.0,52.2,63.3,,57.7,7.8
1001.0,51.8,63.7,,57.8,8.4
1002.0,51.9,64.2,,58.1,8.7
1003.0,52.3,62.9,,57.6,7.5
1004.0,52.3,61.8,,57.0,6.8
1005.0,53.7,62.4,,58.1,6.2
1006.0,55.2,62.3,,58.7,5.0
1007.0,55.9,62.4,,59.1,4.6
1008.0,55.7,63.2,,59.4,5.3
1009.0,55.3,62.2,,58.7,4.9
1010.0,54.9,63.3,,59.1,6.0
1011.0,54.8,62.8,,58.8,5.7
1012.0,54.2,63.2,,58.7,6.3
1013.0,54.5,63.2,,58.9,6.2
1014.0,55.7,63.3,,59.5,5.4
1015.0,54.0,63.1,,58.5,6.4
1016.0,54.0,62.6,,58.3,6.1
1017.0,53.8,62.7,,58.3,6.3
1018.0,54.0,62.4,,58.2,6.0
1019.0,55.1,63.0,,59.0,5.6
1020.0,54.7,62.8,,58.7,5.7
1021.0,55.2,61.6,,58.4,4.6
1022.0,54.6,63.2,,58.9,6.1
1023.0,54.9,62.3,,58.6,5.2
1024.0,55.3,62.8,,59.0,5.3
1025.0,53.9,62.3,,58.1,6.0
1026.0,52.2,62.9,,57.6,7.5
1027.0,52.3,61.9,,57.1,6.8
1028.0,52.4,62.7,,57.5,7.2
1029.0,52.6,62.3,,57.4,6.9
1030.0,52.5,62.2,,57.4,6.9
1031.0,52.3,61.9,,57.1,6.8
1032.0,53.1,61.1,,57.1,5.6
1033.0,51.9,61.8,,56.8,7.0
1034.0,53.7,62.5,,58.1,6.3
1035.0,52.7,61.0,,56.8,5.9
1036.0,53.8,60.8,,57.3,5.0
1037.0,53.4,62.0,,57.7,6.1
1038.0,53.4,61.7,,57.5,5.9
1039.0,53.2,61.9,,57.5,6.1
1040.0,54.5,62.1,,58.3,5.3
1041.0,53.4,62.3,,57.8,6.3
1042.0,52.1,62.0,,57.0,7.0
1043.0,53.4,60.9,,57.2,5.3
1044.0,53.7,61.1,,57.4,5.3
1045.0,54.3,60.9,,57.6,4.6
1046.0,54.1,60.7,,57.4,4.7
1047.0,53.9,60.6,,57.3,4.8
1048.0,53.8,61.1,,57.5,5.2
1049.0,53.5,61.7,,57.6,5.8
1050.0,53.0,61.3,,57.1,5.8
1051.0,52.9,61.5,,57.2,6.1
1052.0,51.6,61.5,,56.6,7.0
1053.0,51.4,61.6,,56.5,7.2
1054.0,50.7,61.9,,56.3,8.0
1055.0,50.5,61.7,,56.1,7.9
1056.0,51.6,61.1,,56.4,6.7
1057.0,50.9,61.7,,56.3,7.6
1058.0,50.0,61.2,,55.6,7.9
1059.0,49.4,61.1,,55.3,8.3
1060.0,50.7,62.2,,56.4,8.1
1061.0,50.4,60.4,,55.4,7.0
1062.0,50.5,60.5,,55.5,7.0
1063.0,50.4,60.1,,55.3,6.8
1064.0,50.9,61.5,,56.2,7.5
1065.0,50.6,60.8,,55.7,7.2
1066.0,52.3,61.4,,56.8,6.4
1067.0,52.3,61.7,,57.0,6.6
1068.0,53.2,61.0,,57.1,5.5
1069.0,52.9,61.3,,57.1,6.0
1070.0,53.4,60.7,,57.0,5.2
1071.0,53.5,61.0,,57.3,5.3
1072.0,52.9,60.5,,56.7,5.4
1073.0,52.8,61.5,,57.1,6.1
1074.0,52.3,60.6,,56.5,5.9
1075.0,51.7,61.0,,56.3,6.5
1076.0,51.9,59.8,,55.9,5.5
1077.0,51.2,60.5,,55.8,6.5
1078.0,50.5,60.4,,55.5,7.0
1079.0,50.5,60.2,,55.4,6.8
1080.0,50.1,61.5,,55.8,8.1
1081.0,49.8,60.9,,55.4,7.9
1082.0,49.8,60.7,,55.2,7.7
1083.0,49.5,61.7,,55.6,8.6
1084.0,49.0,62.2,,55.6,9.3
1085.0,48.4,62.1,,55.3,9.7
1086.0,49.1,62.3,,55.7,9.4
1087.0,48.5,62.7,,55.6,10.0
1088.0,49.4,62.5,,56.0,9.3
1089.0,47.6,61.7,,54.6,9.9
1090.0,48.7,62.2,,55.4,9.6
1091.0,48.6,61.9,,55.3,9.4
1092.0,48.8,61.7,,55.3,9.1
1093.0,47.8,61.2,,54.5,9.5
1094.0,48.8,60.4,,54.6,8.2
1095.0,48.5,61.3,,54.9,9.0
1096.0,48.4,60.2,,54.3,8.4
1097.0,49.0,60.1,,54.5,7.9
1098.0,48.4,59.7,,54.0,8.0
1099.0,47.7,59.7,,53.7,8.5
1100.0,48.5,59.7,,54.1,7.9
1101.0,48.5,58.8,,53.6,7.3
1102.0,47.6,58.9,,53.2,8.0
1103.0,48.3,59.7,,54.0,8.0
1104.0,48.0,60.2,,54.1,8.6
1105.0,47.1,60.7,,53.9,9.6
1106.0,47.1,60.0,,53.6,9.1
1107.0,47.6,,,47.6,
1108.0,46.8,,,46.8,
1109.0,48.0,,,48.0,
1110.0,47.5,,,47.5,
1111.0,47.4,,,47.4,
1112.0,47.1,,,47.1,
1113.0,46.8,,,46.8,
1114.0,46.4,,,46.4,
1115.0,46.8,,,46.8,
1116.0,47.1,,,47.1,
1117.0,46.4,,,46.4,
1118.0,47.6,,,47.6,
1119.0,46.3,,,46.3,
1120.0,46.5,,,46.5,
1121.0,47.3,,,47.3,
1122.0,46.0,,,46.0,
1123.0,46.6,,,46.6,
1124.0,46.3,,,46.3,
1125.0,46.6,,,46.6,
1126.0,46.3,,,46.3,
1127.0,46.4,,,46.4,
1128.0,45.4,,,45.4,
1129.0,46.7,,,46.7,
1130.0,46.4,,,46.4,
1131.0,46.4,,,46.4,
1132.0,45.5,,,45.5,
1133.0,45.8,,,45.8,
1134.0,45.5,,,45.5,
1135.0,45.8,,,45.8,
1136.0,46.4,,,46.4,
1137.0,46.9,,,46.9,
1138.0,47.2,,,47.2,
1139.0,46.7,,,46.7,
1140.0,46.4,,,46.4,
1141.0,46.5,,,46.5,
1142.0,47.1,,,47.1,
1143.0,46.5,,,46.5,
1144.0,47.3,,,47.3,
1145.0,46.3,,,46.3,
1146.0,46.2,,,46.2,
1147.0,46.1,,,46.1,
1148.0,46.1,,,46.1,
1149.0,45.8,,,45.8,
1150.0,45.9,,,45.9,
1151.0,46.0,,,46.0,
1152.0,46.0,,,46.0,
1153.0,46.0,,,46.0,
1154.0,45.6,,,45.6,
1155.0,46.0,,,46.0,
1156.0,45.9,,,45.9,
1157.0,46.1,,,46.1,
1158.0,46.6,,,46.6,
1159.0,46.5,,,46.5,
1160.0,47.0,,,47.0,
1161.0,47.4,,,47.4,
1162.0,46.7,,,46.7,
1163.0,46.9,,,46.9,
1164.0,45.8,,,45.8,
1165.0,46.8,,,46.8,
1166.0,46.0,,,46.0,
1167.0,46.7,,,46.7,
1168.0,46.6,,,46.6,
1169.0,46.2,,,46.2,
1170.0,46.0,,,46.0,
1171.0,46.3,,,46.3,
1172.0,46.0,,,46.0,
1173.0,46.5,,,46.5,
1174.0,45.4,,,45.4,
1175.0,46.3,,,46.3,
1176.0,46.3,,,46.3,
1177.0,46.0,,,46.0,
1178.0,45.8,,,45.8,
1179.0,45.9,,,45.9,
1180.0,46.1,,,46.1,
1181.0,46.3,,,46.3,
1182.0,45.5,,,45.5,
1183.0,44.5,,,44.5,
1184.0,45.4,,,45.4,
1185.0,45.5,,,45.5,
1186.0,45.4,,,45.4,
1187.0,45.3,,,45.3,
1188.0,45.7,,,45.7,
1189.0,45.7,,,45.7,
1190.0,45.6,,,45.6,
1191.0,45.4,,,45.4,
1192.0,45.0,,,45.0,
1193.0,45.8,,,45.8,
1194.0,45.4,,,45.4,
1195.0,46.0,,,46.0,
1196.0,45.9,,,45.9,
1197.0,45.1,,,45.1,
1198.0,46.4,,,46.4,
1199.0,46.3,,,46.3,
1200.0,46.0,,,46.0,
1201.0,45.5,,,45.5,
1202.0,46.0,,,46.0,
1203.0,46.8,,,46.8,
1204.0,46.1,,,46.1,
1205.0,46.7,,,46.7,
1206.0,45.9,,,45.9,
1207.0,46.9,,,46.9,
1208.0,47.4,,,47.4,
1209.0,47.8,,,47.8,
1210.0,47.1,,,47.1,
1211.0,46.9,,,46.9,
1212.0,48.1,,,48.1,
1213.0,47.4,,,47.4,
1214.0,47.1,,,47.1,
1215.0,48.8,,,48.8,
1216.0,49.7,,,49.7,
1217.0,49.8,,,49.8,
1218.0,51.1,,,51.1,
1219.0,52.0,,,52.0,
1220.0,52.6,,,52.6,
1221.0,53.1,,,53.1,
1222.0,53.1,,,53.1,
1223.0,53.0,,,53.0,
1224.0,53.2,,,53.2,
1225.0,52.1,,,52.1,
1226.0,52.5,,,52.5,
1227.0,52.0,,,52.0,
1228.0,51.8,,,51.8,
1229.0,51.3,,,51.3,
1230.0,51.8,,,51.8,
1231.0,52.0,,,52.0,
1232.0,51.7,,,51.7,
1233.0,52.2,,,52.2,
1234.0,52.8,,,52.8,
1235.0,52.6,,,52.6,
1236.0,53.3,,,53.3,
1237.0,51.9,,,51.9,
1238.0,51.7,,,51.7,
1239.0,51.4,,,51.4,
1240.0,50.3,,,50.3,
1241.0,49.5,,,49.5,
1242.0,49.6,,,49.6,
1243.0,49.2,,,49.2,
1244.0,48.8,,,48.8,
1245.0,48.3,,,48.3,
1246.0,47.2,,,47.2,
1247.0,47.1,,,47.1,
1248.0,46.7,,,46.7,
1249.0,46.7,,,46.7,
1250.0,45.9,,,45.9,
1251.0,45.6,,,45.6,
1252.0,45.2,,,45.2,
1253.0,45.4,,,45.4,
1254.0,45.5,,,45.5,
1255.0,46.0,,,46.0,
1256.0,46.0,,,46.0,
1257.0,46.4,,,46.4,
1258.0,46.4,,,46.4,
1259.0,47.3,,,47.3,
1260.0,47.4,,,47.4,
1261.0,47.1,,,47.1,
1262.0,47.9,,,47.9,
1263.0,47.6,,,47.6,
1264.0,47.5,,,47.5,
1265.0,46.8,,,46.8,
1266.0,46.5,,,46.5,
1267.0,46.3,,,46.3,
1268.0,45.9,,,45.9,
1269.0,46.2,,,46.2,
1270.0,46.3,,,46.3,
1271.0,45.3,,,45.3,
1272.0,46.1,,,46.1,
1273.0,45.6,,,45.6,
1274.0,45.7,,,45.7,
1275.0,45.8,,,45.8,
1276.0,45.1,,,45.1,
1277.0,44.5,,,44.5,
1278.0,44.2,,,44.2,
1279.0,44.7,,,44.7,
1280.0,44.5,,,44.5,
1281.0,45.5,,,45.5,
1282.0,44.8,,,44.8,
1283.0,44.7,,,44.7,
1284.0,44.5,,,44.5,
1285.0,43.7,,,43.7,
1286.0,44.1,,,44.1,
1287.0,43.7,,,43.7,
1288.0,43.5,,,43.5,
1289.0,43.3,,,43.3,
1290.0,43.2,,,43.2,
1291.0,43.5,,,43.5,
1292.0,44.2,,,44.2,
1293.0,42.7,,,42.7,
1294.0,43.8,,,43.8,
1295.0,43.4,,,43.4,
1296.0,42.3,,,42.3,
1297.0,42.0,,,42.0,
1298.0,41.6,,,41.6,
1299.0,41.7,,,41.7,
1300.0,42.5,,,42.5,
1301.0,41.8,,,41.8,
1302.0,41.8,,,41.8,
1303.0,41.8,,,41.8,
1304.0,42.0,,,42.0,
1305.0,42.2,,,42.2,
1306.0,42.6,,,42.6,
1307.0,41.8,,,41.8,
1308.0,42.5,,,42.5,
1309.0,42.9,,,42.9,
1310.0,43.0,,,43.0,
1311.0,42.8,,,42.8,
1312.0,43.2,,,43.2,
1313.0,43.5,,,43.5,
1314.0,42.6,,,42.6,
1315.0,41.9,,,41.9,
1316.0,42.1,,,42.1,
1317.0,43.0,,,43.0,
1318.0,42.3,,,42.3,
1319.0,42.0,,,42.0,
1320.0,41.7,,,41.7,
1321.0,42.5,,,42.5,
1322.0,42.5,,,42.5,
1323.0,42.7,,,42.7,
1324.0,41.9,,,41.9,
1325.0,42.0,,,42.0,
1326.0,42.5,,,42.5,
1327.0,42.3,,,42.3,
1328.0,42.4,,,42.4,
1329.0,42.7,,,42.7,
1330.0,42.5,,,42.5,
1331.0,42.1,,,42.1,
1332.0,42.1,,,42.1,
1333.0,42.2,,,42.2,
1334.0,42.3,,,42.3,
1335.0,42.0,,,42.0,
1336.0,42.1,,,42.1,
1337.0,42.5,,,42.5,
1338.0,42.8,,,42.8,
1339.0,42.0,,,42.0,
1340.0,42.2,,,42.2,
1341.0,43.2,,,43.2,
1342.0,43.1,,,43.1,
1343.0,42.8,,,42.8,
1344.0,43.9,,,43.9,
1345.0,44.6,,,44.6,
1346.0,44.4,,,44.4,
1347.0,44.3,,,44.3,
1348.0,44.7,,,44.7,
1349.0,44.3,,,44.3,
1350.0,44.0,,,44.0,
1351.0,44.5,,,44.5,
1352.0,45.0,,,45.0,
1353.0,44.8,,,44.8,
1354.0,44.1,,,44.1,
1355.0,44.6,,,44.6,
1356.0,43.8,,,43.8,
1357.0,44.1,,,44.1,
1358.0,44.2,,,44.2,
1359.0,44.4,,,44.4,
1360.0,44.3,,,44.3,
1361.0,44.1,,,44.1,
1362.0,44.3,,,44.3,
1363.0,45.1,,,45.1,
1364.0,45.7,,,45.7,
1365.0,44.5,,,44.5,
1366.0,44.1,,,44.1,
1367.0,44.4,,,44.4,
1368.0,43.9,,,43.9,
1369.0,44.8,,,44.8,
1370.0,44.5,,,44.5,
1370.25,45.0,,,45.0,