File: 01_Data/PVC/Cone/PVC_HRRPUA_75.csv
Time after Ignition,PVC_R1,PVC_R2,PVC_R3,Mean,Std. Dev.
0.0,221.5,199.8,183.4,201.6,19.1
0.25,233.9,205.0,191.9,210.2,21.5
0.5,235.5,213.4,202.5,217.1,16.8
0.75,245.1,220.3,207.4,224.3,19.2
1.0,247.3,226.7,215.2,229.7,16.3
1.25,250.8,236.1,228.1,238.3,11.5
1.5,256.1,240.9,234.1,243.7,11.3
1.75,268.4,249.3,238.0,251.9,15.4
2.0,266.4,252.4,245.7,254.8,10.5
2.25,267.8,263.8,259.1,263.6,4.4
2.5,275.1,262.5,255.5,264.4,10.0
2.75,278.8,270.2,265.8,271.6,6.6
3.0,283.1,275.9,276.0,278.4,4.1
3.25,283.0,276.4,277.4,278.9,3.5
3.5,287.6,284.2,283.7,285.2,2.1
3.75,289.9,290.0,282.0,287.3,4.6
4.0,288.4,290.1,288.8,289.1,0.9
4.25,289.8,294.4,291.3,291.8,2.3
4.5,292.2,299.4,293.1,294.9,3.9
4.75,293.1,302.3,299.2,298.2,4.7
5.0,296.2,301.5,295.3,297.7,3.4
5.25,293.6,301.7,299.7,298.3,4.2
5.5,300.2,302.2,299.7,300.7,1.3
5.75,290.3,307.0,302.0,299.8,8.6
6.0,297.7,311.3,306.0,305.0,6.9
6.25,301.8,305.7,306.9,304.8,2.7
6.5,291.4,309.0,307.9,302.8,9.9
6.75,281.1,314.1,305.2,300.1,17.1
7.0,295.8,319.0,308.6,307.8,11.6
7.25,287.4,310.3,298.3,298.6,11.5
7.5,282.6,306.5,310.2,299.8,15.0
7.75,280.9,310.4,312.4,301.2,17.6
8.0,267.6,315.2,312.2,298.3,26.7
8.25,268.5,310.3,298.8,292.6,21.6
8.5,266.8,315.9,309.7,297.5,26.8
8.75,245.8,312.3,303.9,287.3,36.2
9.0,249.3,305.5,302.1,285.6,31.5
9.25,246.7,308.4,314.8,290.0,37.6
9.5,235.3,311.0,313.1,286.5,44.3
9.75,236.7,310.0,310.6,285.8,42.5
10.0,233.1,316.6,305.3,285.0,45.3
10.25,221.7,310.9,299.4,277.4,48.5
10.5,220.7,310.0,303.0,277.9,49.7
10.75,218.6,316.0,303.3,279.3,53.0
11.0,215.8,307.8,307.5,277.0,53.0
11.25,204.7,311.4,312.0,276.0,61.8
11.5,203.4,305.9,308.3,272.5,59.9
11.75,204.7,318.7,305.0,276.1,62.2
12.0,199.0,308.8,304.2,270.6,62.1
12.25,191.9,313.9,301.1,269.0,67.1
12.5,203.4,318.3,309.0,276.9,63.8
12.75,193.9,315.1,301.8,270.3,66.5
13.0,189.5,311.6,302.4,267.8,68.0
13.25,191.6,316.5,302.1,270.1,68.3
13.5,184.7,315.0,300.1,266.6,71.3
13.75,189.3,318.7,295.7,267.9,69.1
14.0,197.1,314.6,305.0,272.2,65.2
14.25,196.3,314.5,311.1,274.0,67.3
14.5,186.8,316.1,306.1,269.7,71.9
14.75,189.2,316.5,304.9,270.2,70.4
15.0,188.6,314.4,307.5,270.1,70.7
15.25,197.5,321.1,307.7,275.4,67.8
15.5,194.9,318.5,311.7,275.0,69.5
15.75,195.9,325.8,307.4,276.4,70.3
16.0,199.4,321.7,307.3,276.1,66.8
16.25,203.0,317.7,311.9,277.5,64.6
16.5,199.1,314.5,307.8,273.8,64.8
16.75,207.7,321.2,301.4,276.8,60.6
17.0,207.8,323.2,313.7,281.6,64.1
17.25,213.9,316.9,307.1,279.3,56.8
17.5,219.9,313.2,309.1,280.7,52.8
17.75,220.0,317.1,314.4,283.9,55.3
18.0,225.4,313.4,311.6,283.5,50.3
18.25,234.8,310.4,306.6,283.9,42.6
18.5,242.4,309.8,315.8,289.3,40.8
18.75,250.0,315.6,308.4,291.3,36.0
19.0,253.9,300.7,310.4,288.3,30.2
19.25,247.8,300.7,307.5,285.3,32.7
19.5,252.3,299.4,313.9,288.6,32.2
19.75,255.4,294.7,308.5,286.2,27.5
20.0,256.8,297.6,304.1,286.2,25.6
20.25,260.7,295.0,312.4,289.4,26.3
20.5,266.3,294.4,308.4,289.7,21.4
20.75,272.3,288.8,301.8,287.6,14.8
21.0,268.1,289.8,307.8,288.5,19.9
21.25,267.0,287.0,303.2,285.7,18.1
21.5,267.8,285.1,300.9,284.6,16.5
21.75,272.3,281.1,300.3,284.5,14.3
22.0,268.2,280.3,299.7,282.7,15.9
22.25,272.6,276.4,294.4,281.1,11.6
22.5,272.6,274.3,294.3,280.4,12.0
22.75,269.3,272.5,294.0,278.6,13.4
23.0,269.6,270.1,289.2,276.3,11.2
23.25,265.9,272.2,281.7,273.2,8.0
23.5,268.3,269.3,283.2,273.6,8.4
23.75,264.5,262.5,271.6,266.2,4.8
24.0,265.6,263.9,274.6,268.1,5.7
24.25,264.4,264.5,275.4,268.1,6.3
24.5,261.8,263.4,273.3,266.2,6.2
24.75,260.9,259.0,272.9,264.3,7.5
25.0,266.3,255.0,267.2,262.8,6.8
25.25,259.9,256.4,262.5,259.6,3.1
25.5,259.9,258.2,267.2,261.7,4.8
25.75,252.9,256.5,261.2,256.9,4.2
26.0,254.4,253.4,259.7,255.8,3.4
26.25,255.3,254.1,256.9,255.4,1.4
26.5,253.9,251.2,260.0,255.0,4.5
26.75,254.6,246.0,251.9,250.8,4.4
27.0,251.6,251.3,252.7,251.9,0.7
27.25,249.0,247.0,252.0,249.3,2.5
27.5,249.2,249.0,250.9,249.7,1.0
27.75,248.6,247.6,248.3,248.1,0.5
28.0,248.7,244.0,245.7,246.1,2.4
28.25,245.3,243.7,247.8,245.6,2.0
28.5,241.5,248.9,244.3,244.9,3.7
28.75,235.5,242.9,242.6,240.3,4.2
29.0,240.0,242.5,237.2,239.9,2.7
29.25,239.7,239.6,238.9,239.4,0.4
29.5,234.8,240.7,235.4,237.0,3.2
29.75,232.6,235.6,236.6,235.0,2.1
30.0,236.3,238.9,235.9,237.0,1.6
30.25,230.0,234.8,239.1,234.6,4.5
30.5,229.3,240.8,234.2,234.8,5.8
30.75,228.1,234.7,230.9,231.2,3.3
31.0,227.7,234.9,234.1,232.2,4.0
31.25,229.4,233.8,230.3,231.2,2.3
31.5,222.3,233.5,229.8,228.6,5.7
31.75,219.8,229.9,225.9,225.2,5.1
32.0,221.1,231.5,229.0,227.2,5.4
32.25,219.1,232.1,231.3,227.5,7.3
32.5,216.2,229.0,223.6,222.9,6.4
32.75,216.6,230.1,224.0,223.6,6.8
33.0,212.3,229.5,225.8,222.5,9.0
33.25,210.1,228.5,225.9,221.5,10.0
33.5,210.0,227.0,224.1,220.4,9.1
33.75,218.9,225.0,220.7,221.5,3.2
34.0,212.4,227.6,217.3,219.1,7.7
34.25,210.5,226.6,227.4,221.5,9.6
34.5,209.0,228.5,224.7,220.7,10.3
34.75,204.9,227.1,219.1,217.0,11.2
35.0,203.2,227.2,220.1,216.8,12.4
35.25,203.8,221.8,219.7,215.1,9.8
35.5,205.3,224.1,216.2,215.2,9.5
35.75,201.2,223.6,217.9,214.2,11.7
36.0,203.4,222.9,217.3,214.6,10.0
36.25,201.0,226.4,219.7,215.7,13.2
36.5,203.9,221.8,219.3,215.0,9.7
36.75,199.7,219.4,214.0,211.0,10.1
37.0,200.8,218.6,215.0,211.5,9.4
37.25,200.5,217.1,215.4,211.0,9.1
37.5,199.2,217.1,216.4,210.9,10.2
37.75,197.6,215.6,215.7,209.6,10.4
38.0,197.2,217.9,214.8,210.0,11.2
38.25,198.8,217.8,212.0,209.5,9.8
38.5,198.1,213.4,210.4,207.3,8.1
38.75,196.4,218.6,211.2,208.7,11.3
39.0,192.2,214.5,215.0,207.2,13.0
39.25,196.0,212.3,215.4,207.9,10.4
39.5,196.5,212.2,209.9,206.2,8.5
39.75,195.4,209.9,208.0,204.4,7.9
40.0,195.3,211.3,207.6,204.7,8.4
40.25,193.8,212.4,209.1,205.1,9.9
40.5,192.6,206.9,209.6,203.0,9.1
40.75,196.3,211.5,206.4,204.7,7.7
41.0,194.3,212.3,206.9,204.5,9.3
41.25,191.2,212.1,207.7,203.7,11.0
41.5,190.1,210.0,206.2,202.1,10.6
41.75,187.3,204.8,209.0,200.3,11.5
42.0,187.6,207.1,204.0,199.6,10.5
42.25,191.0,204.6,204.9,200.2,7.9
42.5,189.0,206.0,206.9,200.6,10.1
42.75,190.2,205.5,206.5,200.7,9.2
43.0,187.8,206.7,202.6,199.0,9.9
43.25,186.6,202.9,204.6,198.0,10.0
43.5,185.8,200.7,204.7,197.0,9.9
43.75,187.5,201.8,202.8,197.4,8.6
44.0,185.9,203.5,200.8,196.7,9.5
44.25,184.5,203.5,202.2,196.7,10.6
44.5,185.9,202.1,202.6,196.9,9.5
44.75,182.2,200.5,203.6,195.4,11.6
45.0,180.9,198.1,200.5,193.2,10.7
45.25,184.1,201.2,200.5,195.3,9.7
45.5,181.1,198.0,198.8,192.6,10.0
45.75,181.4,197.8,204.0,194.4,11.7
46.0,183.0,195.7,199.5,192.7,8.7
46.25,178.6,196.9,199.9,191.8,11.5
46.5,183.4,197.5,198.0,193.0,8.3
46.75,182.0,195.4,198.9,192.1,8.9
47.0,178.9,192.2,196.1,189.1,9.0
47.25,178.6,194.0,197.7,190.1,10.1
47.5,179.8,190.6,197.1,189.2,8.8
47.75,178.3,192.3,197.2,189.3,9.8
48.0,182.3,189.7,196.7,189.6,7.2
48.25,180.4,189.5,195.9,188.6,7.8
48.5,181.1,189.2,192.9,187.7,6.0
48.75,182.1,190.4,194.7,189.1,6.4
49.0,181.9,184.9,196.0,187.6,7.5
49.25,177.6,185.6,193.4,185.6,7.9
49.5,179.0,187.8,194.2,187.0,7.6
49.75,180.2,185.5,194.8,186.8,7.4
50.0,177.6,181.7,192.9,184.1,7.9
50.25,177.5,185.9,190.5,184.7,6.6
50.5,179.0,190.1,191.7,186.9,6.9
50.75,178.6,187.2,190.8,185.6,6.3
51.0,177.6,184.3,187.9,183.3,5.2
51.25,177.5,184.4,190.3,184.1,6.4
51.5,176.8,183.8,189.1,183.2,6.2
51.75,179.4,184.3,190.4,184.7,5.5
52.0,178.3,183.0,189.6,183.6,5.7
52.25,178.4,181.7,188.2,182.8,5.0
52.5,177.3,182.7,190.3,183.5,6.6
52.75,176.3,184.4,187.5,182.7,5.8
53.0,175.4,184.8,189.7,183.3,7.3
53.25,175.7,181.1,188.7,181.8,6.5
53.5,177.5,183.2,184.6,181.8,3.8
53.75,175.5,185.5,187.5,182.8,6.4
54.0,176.8,179.9,187.9,181.5,5.7
54.25,175.0,181.9,187.4,181.4,6.2
54.5,174.7,184.2,185.6,181.5,6.0
54.75,174.0,181.9,185.5,180.5,5.9
55.0,171.5,179.9,189.3,180.2,8.9
55.25,172.7,181.2,182.1,178.7,5.2
55.5,172.8,179.7,187.4,180.0,7.3
55.75,173.0,179.5,186.5,179.7,6.7
56.0,171.8,183.2,184.9,180.0,7.2
56.25,171.7,180.3,187.7,179.9,8.0
56.5,171.5,178.4,182.7,177.6,5.7
56.75,173.4,182.0,180.5,178.6,4.6
57.0,170.4,181.9,182.3,178.2,6.7
57.25,174.4,181.1,185.2,180.2,5.5
57.5,170.0,179.6,183.2,177.6,6.8
57.75,171.6,177.2,181.7,176.8,5.1
58.0,167.9,178.9,184.8,177.2,8.6
58.25,169.9,180.0,179.7,176.5,5.8
58.5,170.3,179.5,181.2,177.0,5.9
58.75,169.6,179.6,180.1,176.5,5.9
59.0,167.6,181.2,179.1,176.0,7.4
59.25,169.4,177.2,181.0,175.9,5.9
59.5,165.2,177.6,179.2,174.0,7.7
59.75,168.9,176.9,178.2,174.7,5.1
60.0,166.5,177.9,180.3,174.9,7.4
60.25,166.7,173.1,179.7,173.2,6.5
60.5,166.6,175.4,176.9,172.9,5.5
60.75,166.4,174.7,178.0,173.0,6.0
61.0,169.9,177.5,180.6,176.0,5.5
61.25,167.9,173.4,177.0,172.8,4.6
61.5,169.0,175.8,179.0,174.6,5.1
61.75,166.7,175.7,175.5,172.6,5.1
62.0,167.6,174.0,175.8,172.4,4.3
62.25,163.1,173.2,174.5,170.3,6.2
62.5,169.0,174.6,178.4,174.0,4.7
62.75,168.6,175.5,172.3,172.2,3.5
63.0,166.0,173.8,175.1,171.6,5.0
63.25,164.1,174.3,171.3,169.9,5.2
63.5,166.2,174.0,176.6,172.3,5.4
63.75,165.1,176.1,174.5,171.9,5.9
64.0,165.5,174.4,178.2,172.7,6.5
64.25,165.3,174.3,173.0,170.9,4.9
64.5,166.4,170.3,174.4,170.4,4.0
64.75,164.3,172.4,176.6,171.1,6.2
65.0,165.1,173.7,174.8,171.2,5.3
65.25,164.1,173.4,170.8,169.4,4.8
65.5,166.9,173.1,172.9,171.0,3.5
65.75,165.4,171.6,174.9,170.6,4.8
66.0,165.4,171.7,174.5,170.5,4.7
66.25,163.3,171.4,172.0,168.9,4.9
66.5,163.3,172.0,171.9,169.1,5.0
66.75,164.4,171.8,169.0,168.4,3.7
67.0,165.9,171.3,171.8,169.7,3.3
67.25,166.8,170.4,174.4,170.6,3.8
67.5,163.4,170.3,173.7,169.1,5.3
67.75,162.1,172.5,171.4,168.7,5.7
68.0,161.9,167.8,172.4,167.4,5.3
68.25,166.1,170.1,170.9,169.0,2.6
68.5,165.4,167.5,171.9,168.2,3.3
68.75,164.0,168.9,175.0,169.3,5.5
69.0,161.1,167.3,168.9,165.8,4.1
69.25,165.5,167.0,171.8,168.1,3.3
69.5,159.8,166.7,171.7,166.0,6.0
69.75,165.2,166.3,172.3,168.0,3.8
70.0,162.5,166.7,172.1,167.1,4.8
70.25,162.5,167.3,172.9,167.6,5.2
70.5,161.8,164.2,172.2,166.0,5.4
70.75,162.2,163.9,172.6,166.2,5.6
71.0,158.1,164.6,171.5,164.8,6.7
71.25,162.4,165.2,169.7,165.8,3.6
71.5,158.3,165.3,169.4,164.3,5.6
71.75,158.4,163.0,171.2,164.2,6.5
72.0,160.0,165.5,168.7,164.7,4.4
72.25,160.8,164.8,165.9,163.8,2.7
72.5,158.7,163.1,166.1,162.6,3.7
72.75,160.5,161.5,162.8,161.6,1.2
73.0,160.2,159.4,165.8,161.8,3.5
73.25,157.4,160.9,165.4,161.2,4.0
73.5,156.9,159.0,165.8,160.6,4.6
73.75,156.9,162.1,163.7,160.9,3.6
74.0,156.3,160.0,169.0,161.8,6.5
74.25,156.6,158.0,166.5,160.4,5.3
74.5,156.8,160.0,164.5,160.4,3.9
74.75,157.9,160.9,165.3,161.4,3.7
75.0,155.0,160.9,161.3,159.0,3.5
75.25,155.5,161.2,163.8,160.1,4.3
75.5,158.8,158.7,163.5,160.3,2.8
75.75,153.4,159.9,163.5,158.9,5.1
76.0,154.8,157.1,163.6,158.5,4.6
76.25,153.1,159.3,162.4,158.3,4.7
76.5,157.3,159.1,161.8,159.4,2.3
76.75,151.5,158.4,162.5,157.5,5.6
77.0,151.6,156.5,159.9,156.0,4.1
77.25,154.4,159.8,163.1,159.1,4.4
77.5,152.0,158.2,163.3,157.8,5.7
77.75,152.5,155.1,159.5,155.7,3.5
78.0,150.8,155.6,164.0,156.8,6.7
78.25,151.5,156.6,163.2,157.1,5.9
78.5,152.1,158.8,164.7,158.5,6.3
78.75,152.0,158.7,162.6,157.8,5.4
79.0,148.2,155.4,163.5,155.7,7.7
79.25,148.6,155.8,158.7,154.4,5.2
79.5,146.5,154.5,163.4,154.8,8.4
79.75,150.5,154.4,162.1,155.7,5.9
80.0,147.0,156.6,162.3,155.3,7.7
80.25,146.5,156.3,162.2,155.0,7.9
80.5,146.3,155.8,164.3,155.5,9.0
80.75,146.1,154.6,163.5,154.8,8.7
81.0,146.0,153.4,163.4,154.3,8.7
81.25,145.7,153.7,166.2,155.2,10.3
81.5,145.9,154.9,161.9,154.2,8.1
81.75,143.0,154.0,162.7,153.3,9.9
82.0,145.4,154.0,164.3,154.5,9.5
82.25,141.3,151.8,163.9,152.3,11.3
82.5,143.6,154.0,161.6,153.1,9.0
82.75,142.9,153.8,163.5,153.4,10.3
83.0,141.2,150.9,162.5,151.5,10.7
83.25,141.8,153.1,163.9,152.9,11.1
83.5,139.6,150.4,161.6,150.5,11.0
83.75,140.0,151.9,162.9,151.6,11.4
84.0,138.8,151.8,162.0,150.9,11.6
84.25,139.0,153.4,161.6,151.4,11.4
84.5,139.1,150.3,162.0,150.5,11.5
84.75,137.2,149.0,162.5,149.6,12.7
85.0,136.8,146.7,165.9,149.8,14.8
85.25,136.2,149.1,165.7,150.4,14.8
85.5,136.1,149.2,162.7,149.3,13.3
85.75,135.7,149.0,161.1,148.6,12.7
86.0,136.9,148.4,163.0,149.4,13.1
86.25,134.8,147.1,161.0,147.6,13.1
86.5,136.5,148.8,164.4,149.9,14.0
86.75,132.7,145.8,163.7,147.4,15.6
87.0,132.5,147.9,160.0,146.8,13.8
87.25,133.5,146.5,160.5,146.8,13.5
87.5,134.0,147.1,157.8,146.3,11.9
87.75,130.8,146.4,160.6,145.9,14.9
88.0,129.6,146.8,160.1,145.5,15.3
88.25,133.3,145.6,158.9,145.9,12.8
88.5,131.4,145.1,159.1,145.2,13.9
88.75,129.3,143.8,159.6,144.2,15.1
89.0,128.7,146.4,159.9,145.0,15.6
89.25,130.1,146.0,158.8,145.0,14.4
89.5,128.4,144.2,156.8,143.1,14.2
89.75,129.5,145.1,159.2,144.6,14.9
90.0,130.0,145.0,160.2,145.1,15.1
90.25,129.0,144.4,157.2,143.6,14.1
90.5,128.6,142.2,154.5,141.8,12.9
90.75,128.2,141.8,154.2,141.4,13.0
91.0,129.1,142.4,158.1,143.2,14.5
91.25,129.6,142.7,157.4,143.2,13.9
91.5,128.6,142.6,157.0,142.7,14.2
91.75,127.2,142.0,157.9,142.4,15.3
92.0,125.2,141.6,157.0,141.3,15.9
92.25,125.9,141.8,157.2,141.7,15.7
92.5,128.6,141.7,155.2,141.8,13.3
92.75,126.3,139.2,155.1,140.2,14.4
93.0,126.5,140.2,157.0,141.3,15.2
93.25,127.4,140.7,160.0,142.7,16.4
93.5,127.1,137.7,156.3,140.4,14.8
93.75,128.2,138.4,158.0,141.6,15.1
94.0,125.9,141.1,157.1,141.4,15.6
94.25,126.7,139.4,156.5,140.8,15.0
94.5,126.1,141.0,158.3,141.8,16.1
94.75,125.7,137.5,158.2,140.5,16.5
95.0,128.3,140.2,158.2,142.2,15.1
95.25,124.3,139.9,156.0,140.1,15.9
95.5,126.1,139.2,156.8,140.7,15.4
95.75,125.5,136.5,156.9,139.7,15.9
96.0,127.4,139.7,157.1,141.4,14.9
96.25,127.1,137.3,156.0,140.1,14.6
96.5,126.0,138.5,156.1,140.2,15.1
96.75,125.5,137.1,157.8,140.1,16.3
97.0,125.0,137.5,155.4,139.3,15.3
97.25,126.0,137.9,155.6,139.8,14.9
97.5,126.3,139.2,155.9,140.5,14.8
97.75,125.0,138.9,159.0,141.0,17.1
98.0,127.1,135.4,154.6,139.0,14.1
98.25,126.8,137.2,154.7,139.6,14.1
98.5,127.2,137.4,154.5,139.7,13.8
98.75,124.8,139.0,153.6,139.1,14.4
99.0,123.4,137.4,153.5,138.1,15.0
99.25,125.4,138.7,152.8,139.0,13.7
99.5,122.7,135.8,153.3,137.3,15.3
99.75,125.2,138.5,151.4,138.4,13.1
100.0,124.8,136.2,152.1,137.7,13.7
100.25,122.6,137.2,154.7,138.2,16.1
100.5,123.9,135.1,154.0,137.7,15.2
100.75,122.4,135.9,152.0,136.8,14.8
101.0,120.4,135.1,150.8,135.4,15.2
101.25,122.7,135.9,151.2,136.6,14.3
101.5,122.6,135.3,151.5,136.5,14.5
101.75,124.3,137.2,150.4,137.3,13.1
102.0,123.3,134.7,152.8,136.9,14.9
102.25,122.3,136.7,149.4,136.1,13.6
102.5,123.5,138.0,150.9,137.5,13.7
102.75,122.1,136.6,150.6,136.5,14.3
103.0,124.1,137.0,150.9,137.3,13.4
103.25,122.6,136.2,148.9,135.9,13.2
103.5,123.2,139.3,149.7,137.4,13.3
103.75,119.4,137.7,150.8,136.0,15.8
104.0,122.8,134.4,150.0,135.7,13.7
104.25,122.3,137.6,148.2,136.0,13.0
104.5,121.7,136.6,148.6,135.6,13.5
104.75,123.3,137.7,147.8,136.3,12.3
105.0,121.0,139.5,148.2,136.2,13.9
105.25,122.4,135.9,145.3,134.5,11.5
105.5,121.5,137.0,148.2,135.5,13.4
105.75,121.4,136.7,147.1,135.1,12.9
106.0,121.4,138.0,146.3,135.2,12.6
106.25,120.8,135.2,142.6,132.9,11.1
106.5,121.8,135.3,147.4,134.8,12.8
106.75,122.8,135.3,146.7,134.9,12.0
107.0,122.2,138.4,146.6,135.7,12.4
107.25,120.9,138.3,144.8,134.7,12.3
107.5,124.5,138.2,143.7,135.5,9.9
107.75,121.9,135.1,143.8,133.6,11.1
108.0,120.7,139.9,144.7,135.1,12.7
108.25,121.2,137.9,142.5,133.9,11.2
108.5,120.7,138.2,143.4,134.1,11.9
108.75,122.5,139.1,143.8,135.1,11.2
109.0,121.2,139.6,141.5,134.1,11.2
109.25,121.5,138.3,142.9,134.2,11.3
109.5,121.0,138.7,142.4,134.0,11.5
109.75,120.7,138.5,142.8,134.0,11.7
110.0,120.5,140.3,142.7,134.5,12.2
110.25,119.8,137.6,140.8,132.7,11.3
110.5,120.0,138.3,141.2,133.1,11.5
110.75,121.2,140.3,143.2,134.9,12.0
111.0,120.3,140.3,143.5,134.7,12.6
111.25,121.1,141.0,144.1,135.4,12.5
111.5,122.0,139.6,143.7,135.1,11.6
111.75,121.4,141.0,140.6,134.3,11.2
112.0,119.2,140.9,144.2,134.8,13.6
112.25,119.8,142.8,141.7,134.8,13.0
112.5,118.4,139.2,142.3,133.3,13.0
112.75,122.3,141.6,139.7,134.5,10.6
113.0,120.8,143.1,141.5,135.1,12.4
113.25,119.8,143.2,141.7,134.9,13.1
113.5,120.6,142.3,142.8,135.3,12.7
113.75,121.4,141.3,141.7,134.8,11.6
114.0,121.1,142.4,141.9,135.1,12.1
114.25,118.5,142.8,139.2,133.5,13.1
114.5,120.1,141.7,140.1,134.0,12.0
114.75,121.0,143.5,140.1,134.9,12.1
115.0,120.1,142.8,144.0,135.6,13.5
115.25,120.9,143.8,141.9,135.5,12.7
115.5,121.6,144.7,138.6,134.9,11.9
115.75,119.4,145.6,138.8,134.6,13.6
116.0,121.6,146.2,140.5,136.1,12.9
116.25,122.0,145.4,138.4,135.3,12.0
116.5,121.9,147.8,141.5,137.0,13.5
116.75,121.5,149.4,142.0,137.6,14.5
117.0,123.1,146.4,141.8,137.1,12.3
117.25,123.8,148.1,139.8,137.2,12.4
117.5,122.9,152.1,140.2,138.4,14.7
117.75,121.8,149.7,141.0,137.5,14.3
118.0,122.6,149.6,140.3,137.5,13.7
118.25,122.0,152.0,142.9,139.0,15.4
118.5,123.3,151.7,141.2,138.7,14.4
118.75,121.5,151.4,141.1,138.0,15.2
119.0,124.3,152.4,143.1,139.9,14.3
119.25,124.1,152.1,140.8,139.0,14.1
119.5,124.1,153.2,140.1,139.1,14.6
119.75,122.8,155.8,141.5,140.0,16.6
120.0,125.5,155.4,141.4,140.8,15.0
120.25,122.0,152.8,142.6,139.1,15.7
120.5,123.0,154.8,139.7,139.2,15.9
120.75,125.1,156.5,140.0,140.5,15.7
121.0,122.9,157.7,140.0,140.2,17.4
121.25,123.9,158.5,141.2,141.2,17.3
121.5,123.9,157.1,140.1,140.4,16.6
121.75,124.5,157.8,141.2,141.1,16.6
122.0,125.5,159.1,140.2,141.6,16.8
122.25,125.7,160.7,139.7,142.0,17.6
122.5,125.2,159.7,141.3,142.1,17.2
122.75,124.9,160.9,140.4,142.1,18.1
123.0,124.8,160.1,140.5,141.8,17.7
123.25,128.1,161.8,140.8,143.6,17.0
123.5,125.3,161.5,140.5,142.4,18.2
123.75,124.4,165.3,141.1,143.6,20.6
124.0,124.9,162.9,142.4,143.4,19.1
124.25,124.3,162.8,141.6,142.9,19.3
124.5,124.5,164.8,142.9,144.1,20.2
124.75,126.0,165.0,143.5,144.8,19.5
125.0,126.3,166.8,142.8,145.3,20.4
125.25,125.6,166.9,142.0,144.8,20.8
125.5,126.1,167.3,144.0,145.8,20.7
125.75,125.3,164.5,146.0,145.2,19.6
126.0,127.7,168.7,140.9,145.7,20.9
126.25,127.6,170.5,144.4,147.5,21.6
126.5,128.0,169.9,146.5,148.1,21.0
126.75,125.0,167.7,146.8,146.5,21.3
127.0,125.4,169.1,146.3,146.9,21.8
127.25,127.8,172.2,143.5,147.8,22.5
127.5,127.0,169.7,145.8,147.5,21.4
127.75,129.3,169.9,144.7,148.0,20.5
128.0,127.9,174.3,145.9,149.3,23.4
128.25,127.2,172.3,148.4,149.3,22.6
128.5,128.5,170.4,147.4,148.8,21.0
128.75,126.8,174.2,149.6,150.2,23.7
129.0,126.4,170.9,146.2,147.9,22.3
129.25,128.6,172.7,147.2,149.5,22.1
129.5,129.4,168.6,147.5,148.5,19.6
129.75,131.1,170.8,146.3,149.4,20.1
130.0,129.9,171.4,146.5,149.3,20.9
130.25,129.3,175.1,147.7,150.7,23.1
130.5,129.9,168.9,146.7,148.5,19.5
130.75,130.7,174.1,146.8,150.5,21.9
131.0,127.7,173.1,148.7,149.8,22.7
131.25,129.4,174.1,148.4,150.6,22.4
131.5,131.7,173.0,146.9,150.5,20.9
131.75,130.4,170.5,146.4,149.1,20.2
132.0,128.0,170.9,146.4,148.4,21.6
132.25,129.7,171.1,147.5,149.5,20.8
132.5,130.5,170.2,150.0,150.3,19.9
132.75,131.4,170.2,146.1,149.2,19.6
133.0,131.8,166.2,149.1,149.1,17.2
133.25,130.9,168.6,148.0,149.2,18.9
133.5,130.7,172.1,149.6,150.8,20.7
133.75,131.6,168.6,149.0,149.7,18.5
134.0,130.4,168.2,147.4,148.7,18.9
134.25,133.5,168.9,148.5,150.3,17.8
134.5,132.2,166.9,148.8,149.3,17.4
134.75,131.0,163.4,151.1,148.5,16.3
135.0,128.7,165.6,150.4,148.2,18.5
135.25,133.2,166.2,148.5,149.3,16.5
135.5,132.6,165.7,148.1,148.8,16.6
135.75,132.9,164.8,146.9,148.2,16.0
136.0,133.3,164.4,148.1,148.6,15.6
136.25,132.5,160.5,150.4,147.8,14.2
136.5,134.4,164.6,149.4,149.4,15.1
136.75,132.5,159.1,147.7,146.4,13.3
137.0,133.9,161.7,147.5,147.7,13.9
137.25,133.0,161.7,151.7,148.8,14.6
137.5,133.7,163.4,148.8,148.7,14.8
137.75,132.3,159.7,153.4,148.5,14.4
138.0,135.6,161.9,150.5,149.3,13.2
138.25,132.1,157.6,149.1,146.3,13.0
138.5,135.2,160.7,148.8,148.2,12.8
138.75,137.0,160.0,148.4,148.5,11.5
139.0,134.2,161.6,152.5,149.4,13.9
139.25,132.9,156.6,151.4,147.0,12.5
139.5,135.5,158.0,151.4,148.3,11.6
139.75,135.9,159.8,148.7,148.1,12.0
140.0,135.5,157.7,150.7,147.9,11.4
140.25,133.6,157.7,149.2,146.8,12.2
140.5,134.2,156.0,149.5,146.6,11.2
140.75,137.8,155.7,150.6,148.0,9.2
141.0,132.9,156.7,147.9,145.8,12.0
141.25,136.7,156.3,151.4,148.1,10.2
141.5,136.8,160.9,152.4,150.0,12.2
141.75,134.9,156.1,149.7,146.9,10.9
142.0,134.9,158.1,149.6,147.5,11.8
142.25,136.4,159.7,153.3,149.8,12.0
142.5,138.0,155.7,152.0,148.6,9.3
142.75,135.6,156.6,149.8,147.3,10.7
143.0,137.3,159.0,151.0,149.1,11.0
143.25,135.2,157.1,152.9,148.4,11.6
143.5,137.3,158.5,151.1,149.0,10.7
143.75,135.4,159.2,151.2,148.6,12.1
144.0,139.0,156.3,150.6,148.7,8.8
144.25,136.7,160.1,151.9,149.6,11.9
144.5,138.2,160.2,152.8,150.4,11.2
144.75,134.5,157.2,152.1,147.9,12.0
145.0,137.4,159.1,151.5,149.4,11.0
145.25,136.8,159.2,151.4,149.1,11.3
145.5,136.6,160.2,153.8,150.2,12.2
145.75,136.8,161.6,153.6,150.7,12.6
146.0,137.9,160.2,155.1,151.1,11.7
146.25,137.4,158.9,154.4,150.2,11.3
146.5,139.2,159.8,153.3,150.8,10.5
146.75,136.6,157.7,150.7,148.3,10.8
147.0,136.7,160.3,152.7,149.9,12.0
147.25,136.1,160.4,151.0,149.2,12.3
147.5,138.0,156.8,151.7,148.8,9.8
147.75,137.4,156.2,151.1,148.2,9.7
148.0,139.4,157.4,150.8,149.2,9.1
148.25,136.1,157.2,149.9,147.8,10.7
148.5,137.7,158.3,148.7,148.3,10.3
148.75,137.2,157.7,147.3,147.4,10.3
149.0,138.0,156.4,147.2,147.2,9.2
149.25,140.0,156.6,149.1,148.6,8.3
149.5,133.7,157.9,147.6,146.4,12.1
149.75,135.5,153.0,146.3,144.9,8.8
150.0,139.0,155.6,147.4,147.3,8.3
150.25,134.5,154.8,145.6,145.0,10.2
150.5,134.7,155.0,142.9,144.2,10.2
150.75,137.4,156.3,145.6,146.4,9.5
151.0,134.2,154.7,142.3,143.7,10.3
151.25,135.4,153.5,144.5,144.5,9.1
151.5,133.5,152.2,144.0,143.2,9.3
151.75,137.9,151.9,142.6,144.1,7.1
152.0,134.0,153.4,141.1,142.8,9.8
152.25,134.4,152.7,140.1,142.4,9.4
152.5,135.5,153.5,143.4,144.2,9.0
152.75,135.4,152.9,144.0,144.1,8.8
153.0,135.4,150.2,140.3,142.0,7.6
153.25,135.0,151.5,139.5,142.0,8.5
153.5,135.0,149.3,142.0,142.1,7.1
153.75,132.3,147.5,140.3,140.0,7.6
154.0,135.3,148.4,142.0,141.9,6.6
154.25,134.2,150.5,141.9,142.2,8.2
154.5,132.4,149.6,140.3,140.7,8.6
154.75,134.5,147.8,138.8,140.3,6.8
155.0,131.8,148.1,139.2,139.7,8.2
155.25,133.9,143.6,137.7,138.4,4.9
155.5,133.4,145.9,139.7,139.7,6.2
155.75,135.7,146.6,137.6,140.0,5.8
156.0,135.9,144.9,136.1,139.0,5.1
156.25,135.8,142.4,139.3,139.1,3.3
156.5,134.4,144.5,136.4,138.4,5.3
156.75,133.7,143.4,136.7,137.9,4.9
157.0,134.1,141.4,137.1,137.5,3.6
157.25,135.3,141.6,136.5,137.8,3.4
157.5,134.8,141.8,137.0,137.9,3.5
157.75,130.4,140.6,137.2,136.0,5.2
158.0,135.4,142.8,135.9,138.0,4.1
158.25,134.5,141.3,133.6,136.5,4.2
158.5,132.1,142.4,133.8,136.1,5.5
158.75,134.5,139.6,134.9,136.3,2.8
159.0,134.2,139.2,131.2,134.9,4.0
159.25,131.1,138.3,133.4,134.3,3.7
159.5,133.7,140.2,130.8,134.9,4.8
159.75,132.5,140.6,134.6,135.9,4.2
160.0,131.2,138.6,131.0,133.6,4.3
160.25,133.5,136.3,128.7,132.8,3.8
160.5,130.6,137.3,132.1,133.3,3.5
160.75,132.1,137.0,131.5,133.5,3.0
161.0,133.2,135.9,129.9,133.0,3.0
161.25,131.0,138.2,129.8,133.0,4.5
161.5,132.5,135.6,130.8,133.0,2.4
161.75,133.7,136.8,129.6,133.4,3.7
162.0,134.0,138.1,129.8,133.9,4.1
162.25,132.8,134.3,129.2,132.1,2.7
162.5,133.0,132.4,131.0,132.1,1.0
162.75,132.0,133.6,126.4,130.7,3.8
163.0,135.1,132.9,130.9,133.0,2.1
163.25,132.5,130.0,129.6,130.7,1.6
163.5,131.9,132.6,129.0,131.2,1.9
163.75,134.8,130.7,129.8,131.8,2.7
164.0,132.0,130.7,128.0,130.2,2.1
164.25,131.9,130.1,128.4,130.1,1.8
164.5,133.3,130.1,129.0,130.8,2.2
164.75,133.4,131.4,128.0,130.9,2.7
165.0,133.0,130.5,127.0,130.2,3.0
165.25,131.6,129.6,128.4,129.9,1.6
165.5,134.7,127.7,129.1,130.5,3.7
165.75,135.4,128.6,127.8,130.6,4.1
166.0,133.7,128.0,128.2,130.0,3.2
166.25,133.9,129.0,128.2,130.4,3.1
166.5,135.3,126.7,128.0,130.0,4.7
166.75,134.7,127.9,127.3,130.0,4.1
167.0,133.8,128.3,129.2,130.4,2.9
167.25,134.1,126.5,127.8,129.5,4.1
167.5,133.0,125.8,127.6,128.8,3.7
167.75,133.0,125.3,126.6,128.3,4.2
168.0,133.8,123.8,127.1,128.2,5.1
168.25,133.1,123.9,129.6,128.9,4.6
168.5,135.6,125.3,130.1,130.3,5.1
168.75,132.2,124.3,126.5,127.7,4.1
169.0,134.6,125.5,128.1,129.4,4.7
169.25,133.2,124.5,127.7,128.4,4.4
169.5,135.3,123.5,127.5,128.8,6.0
169.75,133.0,122.1,127.5,127.6,5.5
170.0,134.6,124.4,125.3,128.1,5.6
170.25,130.7,122.2,127.1,126.7,4.3
170.5,133.5,122.9,127.8,128.1,5.3
170.75,133.0,123.2,127.1,127.8,4.9
171.0,130.6,122.1,126.8,126.5,4.3
171.25,132.7,120.8,127.4,127.0,5.9
171.5,132.3,123.1,126.8,127.4,4.6
171.75,133.9,123.0,127.1,128.0,5.5
172.0,132.9,118.3,130.1,127.1,7.7
172.25,132.8,120.6,127.7,127.1,6.1
172.5,130.1,122.2,126.7,126.3,4.0
172.75,133.9,118.7,129.9,127.5,7.9
173.0,132.4,119.5,129.6,127.2,6.8
173.25,132.9,120.1,128.6,127.2,6.5
173.5,133.0,120.5,129.1,127.6,6.4
173.75,131.4,120.9,127.3,126.5,5.3
174.0,132.9,121.0,126.6,126.8,6.0
174.25,133.1,120.3,129.8,127.7,6.6
174.5,131.8,119.0,128.3,126.3,6.6
174.75,132.4,119.0,127.4,126.3,6.8
175.0,133.0,119.8,127.5,126.8,6.7
175.25,130.3,121.1,128.9,126.8,5.0
175.5,130.7,120.1,126.4,125.7,5.3
175.75,134.6,119.6,126.8,127.0,7.5
176.0,132.3,118.9,129.2,126.8,7.0
176.25,130.9,118.4,128.0,125.8,6.5
176.5,132.6,117.8,127.2,125.9,7.5
176.75,132.4,120.0,128.4,126.9,6.3
177.0,132.9,116.1,128.7,125.9,8.7
177.25,132.2,116.3,129.2,125.9,8.4
177.5,130.5,115.0,126.7,124.1,8.1
177.75,132.4,115.5,128.2,125.4,8.8
178.0,131.2,114.5,126.6,124.1,8.6
178.25,130.6,113.6,127.3,123.8,9.0
178.5,131.2,113.4,126.5,123.7,9.2
178.75,132.0,113.6,129.0,124.9,9.8
179.0,129.9,113.9,126.2,123.4,8.4
179.25,129.3,112.5,126.6,122.8,9.0
179.5,130.1,113.1,128.5,123.9,9.4
179.75,133.8,110.8,127.1,123.9,11.8
180.0,131.0,112.7,125.7,123.2,9.4
180.25,134.1,112.6,124.5,123.8,10.8
180.5,131.5,111.3,127.6,123.4,10.7
180.75,128.8,112.7,125.3,122.3,8.5
181.0,131.6,112.0,126.9,123.5,10.2
181.25,131.2,110.9,126.2,122.8,10.6
181.5,131.2,109.8,124.7,121.9,11.0
181.75,131.7,110.5,125.2,122.4,10.9
182.0,130.1,111.6,124.8,122.2,9.5
182.25,131.3,110.1,123.9,121.8,10.8
182.5,131.0,110.0,126.4,122.5,11.0
182.75,130.9,111.6,123.7,122.1,9.8
183.0,131.5,109.5,125.4,122.1,11.4
183.25,130.2,112.4,123.7,122.1,9.0
183.5,128.9,109.6,123.3,120.6,9.9
183.75,127.2,111.2,123.3,120.6,8.4
184.0,129.7,107.7,123.1,120.2,11.3
184.25,129.6,110.6,121.8,120.7,9.6
184.5,127.4,108.5,123.3,119.7,9.9
184.75,127.1,109.2,124.7,120.3,9.7
185.0,124.4,109.6,123.6,119.2,8.3
185.25,125.6,110.4,120.2,118.7,7.7
185.5,128.3,108.8,120.4,119.2,9.8
185.75,125.5,109.2,121.9,118.9,8.5
186.0,126.5,107.6,120.5,118.2,9.6
186.25,127.4,107.5,123.1,119.3,10.5
186.5,125.7,107.9,120.1,117.9,9.1
186.75,123.1,108.9,119.0,117.0,7.3
187.0,125.7,107.7,120.9,118.1,9.4
187.25,125.2,108.1,118.7,117.3,8.6
187.5,125.0,107.5,119.9,117.5,9.0
187.75,124.0,107.6,120.1,117.3,8.6
188.0,124.8,106.5,119.3,116.9,9.4
188.25,124.1,107.8,120.0,117.3,8.5
188.5,126.4,106.3,120.4,117.7,10.3
188.75,126.1,108.2,120.2,118.2,9.1
189.0,123.9,107.0,118.3,116.4,8.6
189.25,123.2,106.8,118.8,116.2,8.5
189.5,123.7,105.6,118.8,116.0,9.3
189.75,124.1,106.5,118.6,116.4,9.0
190.0,123.1,107.7,117.5,116.1,7.8
190.25,122.4,104.9,115.6,114.3,8.8
190.5,123.6,106.4,116.2,115.4,8.6
190.75,123.0,105.8,115.7,114.8,8.6
191.0,122.8,106.2,116.8,115.3,8.4
191.25,120.4,104.9,114.5,113.3,7.8
191.5,120.6,104.3,115.3,113.4,8.4
191.75,120.2,105.7,114.2,113.3,7.3
192.0,120.9,105.9,113.8,113.5,7.5
192.25,117.9,103.4,114.2,111.9,7.5
192.5,120.2,103.4,113.4,112.3,8.4
192.75,118.2,103.9,111.0,111.0,7.1
193.0,118.0,103.1,113.3,111.5,7.6
193.25,118.0,104.4,112.4,111.6,6.9
193.5,119.5,104.4,111.6,111.9,7.6
193.75,117.9,104.1,111.6,111.2,6.9
194.0,116.5,103.3,113.1,110.9,6.9
194.25,115.7,103.0,111.9,110.2,6.5
194.5,116.4,104.0,111.2,110.6,6.2
194.75,115.7,102.5,109.0,109.1,6.6
195.0,115.8,101.6,110.0,109.2,7.1
195.25,115.4,100.9,111.3,109.2,7.4
195.5,113.7,100.6,110.3,108.2,6.8
195.75,112.9,101.5,108.7,107.7,5.7
196.0,115.1,100.6,109.5,108.4,7.3
196.25,115.2,100.5,109.6,108.4,7.4
196.5,113.1,101.6,108.7,107.8,5.8
196.75,111.0,100.8,107.0,106.3,5.2
197.0,111.5,99.7,107.8,106.4,6.0
197.25,112.5,100.7,106.1,106.5,5.9
197.5,111.1,98.3,106.9,105.5,6.5
197.75,110.4,100.4,107.5,106.1,5.2
198.0,110.1,99.5,107.7,105.8,5.5
198.25,109.1,98.4,108.1,105.2,5.9
198.5,110.7,97.7,106.3,104.9,6.6
198.75,106.9,98.0,105.8,103.6,4.8
199.0,110.4,97.9,105.1,104.5,6.2
199.25,110.2,97.8,102.7,103.6,6.2
199.5,108.7,97.7,106.1,104.2,5.7
199.75,107.8,96.8,104.8,103.1,5.7
200.0,108.3,97.4,104.7,103.5,5.5
200.25,107.0,97.0,104.9,103.0,5.3
200.5,107.5,96.4,105.4,103.1,5.9
200.75,105.5,96.8,104.4,102.2,4.7
201.0,105.3,96.9,105.9,102.7,5.0
201.25,106.9,96.7,104.3,102.6,5.3
201.5,106.9,95.0,104.2,102.0,6.2
201.75,104.7,96.0,103.3,101.3,4.6
202.0,105.4,94.5,102.2,100.7,5.6
202.25,104.2,94.9,103.2,100.8,5.1
202.5,105.9,95.7,103.1,101.6,5.3
202.75,103.0,95.3,102.7,100.4,4.3
203.0,102.3,95.7,103.0,100.3,4.0
203.25,103.4,96.8,103.2,101.2,3.7
203.5,102.1,96.9,103.0,100.6,3.3
203.75,102.0,94.4,101.9,99.4,4.3
204.0,101.3,94.9,102.5,99.6,4.1
204.25,101.2,95.6,102.2,99.6,3.6
204.5,99.7,95.5,102.3,99.2,3.4
204.75,100.4,95.7,100.9,99.0,2.9
205.0,99.2,94.2,100.7,98.0,3.4
205.25,99.8,95.1,99.9,98.3,2.8
205.5,99.1,95.7,99.4,98.1,2.0
205.75,99.6,94.3,100.6,98.2,3.4
206.0,98.1,94.1,99.9,97.4,3.0
206.25,98.4,93.9,100.3,97.5,3.3
206.5,98.2,93.3,98.9,96.8,3.1
206.75,98.2,92.5,99.4,96.7,3.6
207.0,98.4,94.0,98.6,97.0,2.6
207.25,97.5,91.9,99.3,96.2,3.8
207.5,97.4,93.4,98.3,96.4,2.6
207.75,95.2,92.9,98.4,95.5,2.8
208.0,96.8,92.8,98.8,96.1,3.1
208.25,97.1,91.4,98.4,95.6,3.7
208.5,95.6,93.1,97.1,95.3,2.0
208.75,97.1,92.9,98.8,96.2,3.1
209.0,96.1,93.2,97.9,95.7,2.4
209.25,95.1,92.6,99.0,95.6,3.3
209.5,95.3,91.6,97.7,94.9,3.1
209.75,95.2,91.1,97.8,94.7,3.4
210.0,95.5,91.8,97.9,95.1,3.1
210.25,93.4,92.3,96.9,94.2,2.4
210.5,95.7,91.5,98.5,95.2,3.5
210.75,93.1,93.5,97.1,94.5,2.2
211.0,93.7,91.4,98.7,94.6,3.7
211.25,94.5,92.2,98.7,95.1,3.3
211.5,94.5,92.7,96.5,94.6,1.9
211.75,94.3,92.2,97.3,94.6,2.6
212.0,93.4,92.2,96.7,94.1,2.4
212.25,93.0,90.1,98.5,93.9,4.3
212.5,94.1,91.6,97.3,94.3,2.9
212.75,92.7,92.5,96.4,93.9,2.2
213.0,92.1,91.3,99.1,94.2,4.3
213.25,94.1,91.4,96.6,94.0,2.6
213.5,92.7,90.9,97.5,93.7,3.4
213.75,93.2,91.7,97.7,94.2,3.1
214.0,94.6,92.1,98.5,95.1,3.3
214.25,93.4,90.3,96.3,93.3,3.0
214.5,92.0,92.1,98.1,94.0,3.5
214.75,93.7,89.8,98.2,93.9,4.2
215.0,94.3,91.6,96.7,94.2,2.5
215.25,93.4,91.0,96.5,93.6,2.7
215.5,92.0,90.5,96.2,92.9,2.9
215.75,92.3,90.6,97.8,93.6,3.8
216.0,93.1,89.8,95.7,92.8,2.9
216.25,92.5,90.3,96.4,93.1,3.1
216.5,93.8,90.4,98.5,94.2,4.1
216.75,92.5,89.4,96.9,92.9,3.8
217.0,91.2,90.4,97.0,92.9,3.6
217.25,91.3,92.6,95.4,93.1,2.1
217.5,92.5,91.1,95.5,93.0,2.3
217.75,91.1,89.9,95.8,92.3,3.2
218.0,92.0,90.4,94.3,92.3,2.0
218.25,91.7,90.1,95.3,92.4,2.7
218.5,91.6,88.6,95.4,91.9,3.4
218.75,91.8,90.1,94.6,92.2,2.3
219.0,90.9,89.9,94.9,91.9,2.7
219.25,91.2,89.2,94.1,91.5,2.5
219.5,90.7,90.3,95.0,92.0,2.6
219.75,90.9,91.3,94.6,92.3,2.1
220.0,91.2,90.2,95.0,92.1,2.5
220.25,91.6,90.8,93.7,92.0,1.5
220.5,90.2,89.2,93.2,90.8,2.1
220.75,91.0,91.1,93.8,92.0,1.6
221.0,89.9,90.2,93.4,91.2,1.9
221.25,90.6,89.7,93.3,91.2,1.9
221.5,90.9,88.4,94.0,91.1,2.8
221.75,90.2,89.3,94.2,91.2,2.6
222.0,89.0,89.8,94.4,91.1,2.9
222.25,89.3,89.2,93.6,90.7,2.5
222.5,91.0,88.6,93.6,91.1,2.5
222.75,88.1,87.8,93.3,89.7,3.1
223.0,88.1,87.4,92.7,89.4,2.9
223.25,88.6,87.2,92.5,89.5,2.7
223.5,88.4,88.2,92.5,89.7,2.4
223.75,87.9,87.4,92.3,89.2,2.7
224.0,88.0,88.8,91.6,89.5,1.9
224.25,88.0,86.9,92.3,89.1,2.8
224.5,87.3,88.0,92.1,89.1,2.6
224.75,86.9,88.4,91.4,88.9,2.3
225.0,87.4,87.4,92.4,89.1,2.9
225.25,86.6,87.6,92.2,88.8,3.0
225.5,87.0,85.5,92.4,88.3,3.7
225.75,86.7,84.9,91.7,87.8,3.5
226.0,86.0,85.7,90.6,87.4,2.7
226.25,87.2,84.9,92.0,88.0,3.7
226.5,86.8,86.1,91.8,88.2,3.1
226.75,87.5,84.8,91.5,88.0,3.3
227.0,87.9,82.4,92.9,87.8,5.2
227.25,86.1,84.2,91.4,87.3,3.7
227.5,86.1,83.0,92.1,87.1,4.6
227.75,88.0,82.6,92.4,87.7,4.9
228.0,87.3,81.7,92.0,87.0,5.2
228.25,87.1,82.4,91.4,87.0,4.5
228.5,87.2,80.3,89.9,85.8,5.0
228.75,86.7,81.2,91.9,86.6,5.4
229.0,86.9,81.1,92.7,86.9,5.8
229.25,86.3,80.4,90.7,85.8,5.2
229.5,86.8,80.7,91.2,86.2,5.3
229.75,87.4,80.1,90.2,85.9,5.2
230.0,87.9,79.7,89.4,85.7,5.2
230.25,86.6,79.7,89.8,85.3,5.2
230.5,86.2,80.2,88.7,85.0,4.4
230.75,86.9,80.8,90.5,86.1,4.9
231.0,85.1,79.5,89.0,84.5,4.8
231.25,86.5,78.3,90.6,85.1,6.3
231.5,87.1,78.8,89.3,85.1,5.5
231.75,86.6,78.8,91.0,85.5,6.2
232.0,85.8,78.6,89.0,84.5,5.3
232.25,83.7,76.6,89.9,83.4,6.6
232.5,84.6,77.3,90.3,84.1,6.5
232.75,83.5,77.1,90.3,83.6,6.6
233.0,84.2,78.0,89.5,83.9,5.8
233.25,86.1,77.8,90.1,84.7,6.3
233.5,83.7,78.2,90.1,84.0,6.0
233.75,84.4,77.3,90.0,83.9,6.3
234.0,84.3,76.8,89.4,83.5,6.3
234.25,84.8,76.9,89.2,83.6,6.3
234.5,83.3,76.5,89.0,82.9,6.3
234.75,84.7,76.5,90.2,83.8,6.9
235.0,84.7,76.4,89.3,83.4,6.5
235.25,84.0,77.8,88.4,83.4,5.3
235.5,83.0,78.0,88.8,83.3,5.4
235.75,84.8,77.1,89.4,83.8,6.2
236.0,83.3,76.6,88.5,82.8,6.0
236.25,85.0,76.5,89.0,83.5,6.4
236.5,82.8,76.8,89.3,83.0,6.3
236.75,83.4,76.1,88.1,82.6,6.1
237.0,84.2,76.8,89.5,83.5,6.4
237.25,83.6,76.5,90.5,83.5,7.0
237.5,84.2,76.4,89.6,83.4,6.6
237.75,84.1,74.9,88.1,82.4,6.8
238.0,83.0,75.7,88.2,82.3,6.3
238.25,82.7,76.2,88.4,82.4,6.1
238.5,82.2,75.8,87.4,81.8,5.8
238.75,83.6,74.7,88.7,82.3,7.1
239.0,83.0,75.8,88.0,82.3,6.1
239.25,82.9,77.0,87.2,82.4,5.1
239.5,81.4,75.0,88.2,81.6,6.6
239.75,83.1,74.7,88.1,82.0,6.8
240.0,82.4,74.8,88.7,82.0,7.0
240.25,82.8,75.4,88.6,82.3,6.6
240.5,82.9,73.1,86.5,80.8,6.9
240.75,81.8,75.0,86.1,81.0,5.6
241.0,82.6,73.7,87.3,81.2,6.9
241.25,79.7,73.7,88.4,80.6,7.4
241.5,80.6,73.9,88.4,81.0,7.3
241.75,81.6,73.6,87.2,80.8,6.9
242.0,81.9,74.8,86.9,81.2,6.1
242.25,81.5,74.1,87.4,81.0,6.7
242.5,80.7,74.5,88.6,81.3,7.1
242.75,81.0,73.7,88.2,81.0,7.3
243.0,80.2,74.1,86.1,80.1,6.0
243.25,81.1,74.5,87.6,81.1,6.6
243.5,79.9,74.0,86.6,80.2,6.3
243.75,80.3,73.6,86.5,80.1,6.4
244.0,79.6,73.3,87.8,80.3,7.3
244.25,78.6,74.3,86.5,79.8,6.2
244.5,79.6,73.7,85.8,79.7,6.1
244.75,78.5,73.8,85.1,79.1,5.7
245.0,80.2,73.6,85.9,79.9,6.1
245.25,78.2,75.2,84.5,79.3,4.7
245.5,79.4,74.4,85.7,79.8,5.7
245.75,78.6,73.5,86.4,79.5,6.5
246.0,79.6,74.0,84.9,79.5,5.4
246.25,78.6,74.5,85.9,79.7,5.8
246.5,79.6,73.9,85.4,79.6,5.7
246.75,79.0,73.8,85.0,79.3,5.6
247.0,78.7,73.1,84.9,78.9,5.9
247.25,78.7,73.8,83.6,78.7,4.9
247.5,78.2,72.5,84.4,78.4,5.9
247.75,77.6,73.7,84.6,78.6,5.5
248.0,78.4,73.4,84.8,78.9,5.7
248.25,78.4,74.2,83.1,78.6,4.4
248.5,76.6,74.2,83.0,77.9,4.5
248.75,78.2,72.8,83.0,78.0,5.1
249.0,77.0,74.7,83.5,78.4,4.6
249.25,77.4,73.9,84.3,78.5,5.3
249.5,78.1,73.5,83.2,78.3,4.8
249.75,76.9,73.3,82.8,77.7,4.8
250.0,76.7,73.5,83.4,77.9,5.0
250.25,77.9,73.5,82.4,78.0,4.5
250.5,77.0,73.0,82.2,77.4,4.6
250.75,77.3,73.0,82.3,77.5,4.6
251.0,77.5,73.6,82.9,78.0,4.7
251.25,76.6,73.6,82.9,77.7,4.7
251.5,76.8,73.5,81.9,77.4,4.2
251.75,76.5,74.9,82.3,77.9,3.9
252.0,76.9,72.7,83.0,77.5,5.2
252.25,76.9,73.5,81.2,77.2,3.8
252.5,75.6,74.1,82.1,77.3,4.3
252.75,76.4,73.0,82.2,77.2,4.7
253.0,76.1,73.5,81.8,77.1,4.3
253.25,76.2,73.1,81.5,76.9,4.3
253.5,76.7,73.5,83.7,78.0,5.2
253.75,76.1,74.0,81.9,77.3,4.1
254.0,75.7,73.5,83.0,77.4,5.0
254.25,75.0,72.6,81.9,76.5,4.8
254.5,76.0,73.4,81.9,77.1,4.3
254.75,75.1,73.5,81.4,76.7,4.2
255.0,76.1,73.4,82.2,77.2,4.5
255.25,75.2,73.1,81.9,76.7,4.6
255.5,74.8,73.3,80.7,76.2,3.9
255.75,75.8,73.2,80.3,76.4,3.6
256.0,75.9,73.6,80.7,76.7,3.7
256.25,74.9,73.0,79.5,75.8,3.4
256.5,74.8,72.3,80.7,75.9,4.3
256.75,74.9,72.6,80.0,75.8,3.8
257.0,74.6,71.2,80.0,75.3,4.5
257.25,74.5,70.1,80.8,75.1,5.4
257.5,75.6,71.5,79.9,75.7,4.2
257.75,74.5,73.2,80.6,76.1,4.0
258.0,73.9,70.9,80.0,74.9,4.6
258.25,75.4,71.3,79.8,75.5,4.3
258.5,74.2,70.8,80.2,75.1,4.8
258.75,75.1,71.2,79.5,75.3,4.1
259.0,74.6,70.5,79.7,74.9,4.6
259.25,74.2,70.8,79.6,74.9,4.4
259.5,72.8,71.1,78.8,74.2,4.0
259.75,73.9,70.2,78.9,74.3,4.4
260.0,73.2,69.9,79.7,74.2,5.0
260.25,74.4,69.0,78.4,73.9,4.8
260.5,73.4,69.4,78.3,73.7,4.5
260.75,72.2,70.2,78.0,73.5,4.1
261.0,73.0,69.1,78.7,73.6,4.8
261.25,72.4,69.0,77.9,73.1,4.4
261.5,73.6,68.9,77.3,73.3,4.2
261.75,73.4,68.3,78.1,73.3,4.9
262.0,72.0,67.7,79.8,73.1,6.1
262.25,73.1,68.4,77.5,73.0,4.5
262.5,73.1,68.9,79.4,73.8,5.2
262.75,73.7,68.2,78.1,73.3,4.9
263.0,71.8,67.7,77.8,72.4,5.1
263.25,72.1,67.7,77.4,72.4,4.9
263.5,73.6,66.6,77.6,72.6,5.5
263.75,73.4,67.5,78.0,73.0,5.3
264.0,73.3,68.1,78.2,73.2,5.0
264.25,73.2,67.2,77.9,72.8,5.4
264.5,72.2,67.1,78.1,72.5,5.5
264.75,73.0,66.2,77.6,72.3,5.7
265.0,72.0,66.0,78.1,72.1,6.0
265.25,72.5,65.4,75.6,71.2,5.2
265.5,72.0,65.4,76.8,71.4,5.7
265.75,73.1,65.5,76.4,71.6,5.6
266.0,72.2,65.9,76.0,71.4,5.1
266.25,71.8,65.2,75.8,70.9,5.4
266.5,72.6,66.0,78.2,72.2,6.1
266.75,73.2,63.7,76.5,71.1,6.7
267.0,71.9,65.4,75.1,70.8,4.9
267.25,71.8,65.2,75.2,70.8,5.1
267.5,71.7,64.0,76.7,70.8,6.4
267.75,72.5,63.2,75.2,70.3,6.3
268.0,72.9,63.4,75.7,70.7,6.4
268.25,70.8,64.3,74.9,70.0,5.4
268.5,72.0,62.7,75.8,70.1,6.8
268.75,71.7,63.0,74.8,69.8,6.1
269.0,72.2,62.5,75.4,70.0,6.7
269.25,72.0,62.6,74.4,69.7,6.2
269.5,71.5,62.1,74.8,69.5,6.6
269.75,70.2,61.9,74.6,68.9,6.4
270.0,71.5,61.7,73.9,69.0,6.4
270.25,70.2,61.8,74.5,68.8,6.4
270.5,69.9,61.5,73.5,68.3,6.1
270.75,71.2,61.6,74.3,69.1,6.6
271.0,69.9,60.9,74.6,68.5,7.0
271.25,69.8,62.0,73.9,68.6,6.0
271.5,71.1,60.2,73.6,68.3,7.1
271.75,70.9,60.6,74.6,68.7,7.3
272.0,70.8,60.1,73.8,68.2,7.2
272.25,71.1,60.2,75.3,68.9,7.8
272.5,69.2,59.1,73.0,67.1,7.2
272.75,68.9,59.8,75.0,67.9,7.6
273.0,69.8,59.9,74.2,68.0,7.3
273.25,69.3,59.1,73.1,67.2,7.3
273.5,69.5,59.1,74.5,67.7,7.8
273.75,69.8,60.2,74.6,68.2,7.3
274.0,69.4,58.5,73.6,67.2,7.8
274.25,68.6,59.4,72.6,66.8,6.7
274.5,69.4,58.6,72.8,67.0,7.4
274.75,68.7,59.1,73.4,67.1,7.3
275.0,69.1,57.8,73.0,66.6,7.9
275.25,69.1,58.0,73.1,66.7,7.8
275.5,69.6,58.7,73.0,67.1,7.4
275.75,68.9,57.8,73.1,66.6,7.9
276.0,68.3,57.4,73.2,66.3,8.1
276.25,69.4,58.2,72.2,66.6,7.4
276.5,68.4,58.1,74.0,66.8,8.1
276.75,68.9,57.6,73.1,66.5,8.0
277.0,69.6,58.3,71.6,66.5,7.2
277.25,67.3,58.6,71.8,65.9,6.7
277.5,68.0,58.2,71.7,66.0,7.0
277.75,68.1,57.9,72.3,66.1,7.4
278.0,67.9,57.9,72.3,66.0,7.4
278.25,69.3,58.4,72.4,66.7,7.4
278.5,67.8,57.7,71.1,65.5,7.0
278.75,67.3,57.4,71.9,65.5,7.4
279.0,68.1,56.7,71.6,65.5,7.8
279.25,68.0,57.4,70.8,65.4,7.1
279.5,67.0,56.5,70.8,64.8,7.4
279.75,68.5,57.1,71.3,65.6,7.5
280.0,67.7,56.4,71.2,65.1,7.8
280.25,68.4,56.5,70.7,65.2,7.6
280.5,68.2,55.9,70.2,64.7,7.7
280.75,68.7,57.2,69.7,65.2,7.0
281.0,68.4,55.8,69.1,64.4,7.5
281.25,67.4,56.0,70.0,64.5,7.5
281.5,68.3,56.4,69.9,64.9,7.4
281.75,67.7,56.1,69.8,64.6,7.4
282.0,68.5,56.4,67.9,64.3,6.8
282.25,67.7,55.8,69.4,64.3,7.4
282.5,67.8,55.8,69.9,64.5,7.6
282.75,66.8,55.5,67.9,63.4,6.9
283.0,67.1,55.1,68.1,63.4,7.2
283.25,67.6,54.7,68.0,63.4,7.6
283.5,66.8,54.4,68.0,63.0,7.5
283.75,67.5,54.2,66.9,62.9,7.5
284.0,66.9,54.7,67.1,62.9,7.1
284.25,67.2,54.4,67.2,62.9,7.4
284.5,66.6,53.5,67.7,62.6,7.9
284.75,66.0,52.9,66.8,61.9,7.8
285.0,67.4,54.0,67.6,63.0,7.8
285.25,66.2,53.1,66.3,61.9,7.6
285.5,66.4,52.7,67.4,62.2,8.2
285.75,65.9,52.4,66.7,61.7,8.0
286.0,66.0,52.6,66.7,61.8,7.9
286.25,66.5,52.7,66.1,61.8,7.9
286.5,64.7,52.3,66.3,61.1,7.6
286.75,65.8,52.4,66.3,61.5,7.9
287.0,66.2,52.7,65.0,61.3,7.5
287.25,64.6,51.8,66.3,60.9,7.9
287.5,64.8,52.8,66.3,61.3,7.4
287.75,65.9,51.5,65.9,61.1,8.3
288.0,64.0,51.3,65.7,60.3,7.9
288.25,64.8,52.1,65.4,60.8,7.6
288.5,64.2,51.4,64.6,60.1,7.5
288.75,63.9,51.0,64.0,59.6,7.5
289.0,62.9,52.1,65.1,60.0,7.0
289.25,62.7,50.9,64.3,59.3,7.3
289.5,63.6,50.8,64.3,59.6,7.6
289.75,63.2,50.9,64.0,59.4,7.4
290.0,63.4,50.1,64.6,59.4,8.1
290.25,63.9,50.9,64.3,59.7,7.6
290.5,62.8,50.2,63.5,58.8,7.5
290.75,62.5,50.5,63.8,58.9,7.3
291.0,63.1,49.9,64.0,59.0,7.9
291.25,63.4,50.2,62.7,58.8,7.5
291.5,63.4,49.8,62.9,58.7,7.7
291.75,61.5,49.1,62.6,57.7,7.5
292.0,62.4,50.8,63.4,58.9,7.0
292.25,62.5,50.9,62.7,58.7,6.8
292.5,63.0,50.7,62.7,58.8,7.0
292.75,61.8,50.1,62.5,58.1,6.9
293.0,62.1,49.9,61.5,57.8,6.8
293.25,61.2,49.3,63.0,57.9,7.5
293.5,62.4,49.2,61.8,57.8,7.5
293.75,61.5,49.9,60.8,57.4,6.5
294.0,61.5,49.4,62.1,57.7,7.2
294.25,61.9,49.5,62.4,57.9,7.3
294.5,61.0,49.0,61.1,57.0,7.0
294.75,61.3,49.2,60.0,56.8,6.6
295.0,60.1,49.1,61.5,56.9,6.8
295.25,60.5,48.9,60.1,56.5,6.6
295.5,60.0,48.4,61.2,56.5,7.1
295.75,60.2,48.3,60.6,56.4,7.0
296.0,59.8,47.9,59.9,55.9,6.9
296.25,60.5,47.9,60.0,56.1,7.1
296.5,59.3,47.7,59.6,55.5,6.8
296.75,58.4,48.2,59.6,55.4,6.3
297.0,57.2,47.0,59.3,54.5,6.6
297.25,58.9,47.3,59.5,55.2,6.9
297.5,57.6,46.7,59.5,54.6,6.9
297.75,57.7,47.2,59.4,54.8,6.6
298.0,57.0,46.4,59.5,54.3,7.0
298.25,57.1,46.4,58.2,53.9,6.5
298.5,57.5,45.5,59.1,54.0,7.4
298.75,56.1,45.1,58.4,53.2,7.1
299.0,57.2,45.1,59.3,53.9,7.7
299.25,56.4,44.8,58.3,53.2,7.3
299.5,55.7,45.5,59.0,53.4,7.0
299.75,56.2,45.2,58.3,53.2,7.0
300.0,56.1,44.6,58.1,52.9,7.3
300.25,55.6,44.1,58.4,52.7,7.6
300.5,55.2,44.1,58.6,52.7,7.6
300.75,54.7,43.9,58.1,52.2,7.4
301.0,54.6,43.8,57.2,51.9,7.1
301.25,54.9,43.4,58.4,52.2,7.9
301.5,55.7,42.5,57.3,51.8,8.1
301.75,54.3,,57.7,56.0,2.3
302.0,54.3,,57.9,56.1,2.6
302.25,54.0,,56.9,55.5,2.1
302.5,52.9,,56.2,54.6,2.4
302.75,53.6,,56.3,55.0,2.0
303.0,53.4,,55.9,54.6,1.7
303.25,52.9,,56.0,54.5,2.1
303.5,52.0,,55.3,53.6,2.3
303.75,52.0,,55.5,53.8,2.5
304.0,52.0,,54.9,53.4,2.0
304.25,52.1,,55.3,53.7,2.2
304.5,52.5,,55.5,54.0,2.1
304.75,51.8,,55.4,53.6,2.5
305.0,52.4,,54.9,53.7,1.7
305.25,52.1,,55.8,53.9,2.6
305.5,51.7,,54.8,53.3,2.2
305.75,51.4,,54.4,52.9,2.1
306.0,51.7,,55.0,53.3,2.4
306.25,50.5,,53.7,52.1,2.2
306.5,51.0,,55.1,53.0,2.9
306.75,50.6,,55.1,52.8,3.2
307.0,49.9,,54.3,52.1,3.2
307.25,50.1,,53.9,52.0,2.7
307.5,50.5,,55.1,52.8,3.3
307.75,50.1,,53.6,51.9,2.4
308.0,49.6,,53.8,51.7,3.0
308.25,49.9,,53.2,51.6,2.3
308.5,49.9,,53.3,51.6,2.4
308.75,49.1,,52.8,51.0,2.6
309.0,48.6,,52.8,50.7,3.0
309.25,48.4,,52.8,50.6,3.2
309.5,47.8,,52.8,50.3,3.5
309.75,46.9,,51.8,49.4,3.4
310.0,47.7,,52.4,50.1,3.3
310.25,47.9,,51.8,49.8,2.7
310.5,47.5,,52.2,49.8,3.3
310.75,46.2,,51.5,48.8,3.8
311.0,47.2,,51.3,49.2,2.9
311.25,46.7,,52.8,49.8,4.3
311.5,46.7,,51.4,49.1,3.3
311.75,46.5,,51.8,49.1,3.7
312.0,45.4,,51.7,48.6,4.5
312.25,46.1,,51.6,48.8,3.9
312.5,45.0,,51.0,48.0,4.2
312.75,45.0,,51.2,48.1,4.4
313.0,44.8,,50.9,47.8,4.3
313.25,44.8,,50.3,47.5,3.9
313.5,44.5,,51.2,47.8,4.7
313.75,43.9,,50.4,47.1,4.6
314.0,43.3,,50.7,47.0,5.2
314.25,42.9,,50.6,46.7,5.5
314.5,42.9,,49.9,46.4,5.0
314.75,42.5,,50.2,46.3,5.5
315.0,42.3,,49.8,46.0,5.3
315.25,41.5,,50.3,45.9,6.2
315.5,40.6,,49.4,45.0,6.2
315.75,41.0,,49.0,45.0,5.7
316.0,40.4,,49.0,44.7,6.0
316.25,39.8,,49.6,44.7,6.9
316.5,39.9,,48.7,44.3,6.2
316.75,39.7,,49.2,44.5,6.8
317.0,39.7,,48.3,44.0,6.1
317.25,38.8,,48.4,43.6,6.8
317.5,38.7,,48.7,43.7,7.1
317.75,38.8,,48.7,43.8,7.0
318.0,38.3,,48.1,43.2,6.9
318.25,38.1,,48.2,43.2,7.1
318.5,37.9,,48.3,43.1,7.4
318.75,38.0,,47.7,42.9,6.9
319.0,36.5,,48.0,42.2,8.1
319.25,36.7,,47.8,42.3,7.9
319.5,36.9,,47.4,42.2,7.4
319.75,36.0,,47.5,41.7,8.2
320.0,35.9,,47.7,41.8,8.3
320.25,35.9,,46.4,41.1,7.4
320.5,36.0,,46.8,41.4,7.6
320.75,36.2,,47.0,41.6,7.7
321.0,35.7,,46.5,41.1,7.7
321.25,35.5,,46.1,40.8,7.5
321.5,35.8,,46.1,41.0,7.3
321.75,35.3,,46.5,40.9,7.9
322.0,34.9,,45.8,40.3,7.7
322.25,34.6,,46.2,40.4,8.2
322.5,34.9,,45.5,40.2,7.5
322.75,34.5,,45.4,39.9,7.7
323.0,34.5,,46.2,40.4,8.3
323.25,33.6,,46.1,39.9,8.8
323.5,34.3,,46.0,40.2,8.3
323.75,33.5,,45.6,39.6,8.5
324.0,32.5,,45.7,39.1,9.4
324.25,33.1,,45.6,39.4,8.9
324.5,32.5,,45.6,39.1,9.3
324.75,31.8,,45.2,38.5,9.5
325.0,31.6,,45.4,38.5,9.8
325.25,30.9,,45.5,38.2,10.3
325.5,30.6,,44.3,37.4,9.7
325.75,30.2,,45.1,37.7,10.5
326.0,30.4,,45.8,38.1,10.9
326.25,29.6,,45.6,37.6,11.3
326.5,29.3,,45.1,37.2,11.1
326.75,29.4,,44.7,37.0,10.9
327.0,28.6,,44.6,36.6,11.3
327.25,28.8,,44.2,36.5,10.9
327.5,27.9,,44.4,36.2,11.6
327.75,27.8,,44.8,36.3,12.0
328.0,27.3,,44.5,35.9,12.2
328.25,26.8,,43.8,35.3,12.0
328.5,26.6,,43.9,35.2,12.2