File: 01_Data/PVC/Cone/PVC_HRRPUA_50.csv
Time after Ignition,PVC_R2,PVC_R3,PVC_R1,Mean,Std. Dev.
0.0,116.2,153.5,159.7,143.1,23.6
0.5,128.0,164.8,173.7,155.5,24.3
1.0,139.6,174.4,181.5,165.2,22.4
1.5,150.6,183.1,194.0,175.9,22.6
2.0,160.8,188.5,201.9,183.7,21.0
2.5,172.0,197.4,213.4,194.3,20.9
3.0,173.5,203.9,220.9,199.4,24.0
3.5,183.2,207.3,228.8,206.4,22.8
4.0,185.8,214.5,231.8,210.7,23.3
4.5,197.0,215.1,237.9,216.7,20.5
5.0,198.6,214.9,239.6,217.7,20.6
5.5,198.8,216.8,244.7,220.1,23.1
6.0,204.7,214.4,247.1,222.0,22.2
6.5,204.3,212.2,246.6,221.1,22.5
7.0,205.0,218.1,249.7,224.3,23.0
7.5,209.9,212.6,243.6,222.0,18.7
8.0,206.2,211.6,240.8,219.5,18.6
8.5,204.6,206.3,236.1,215.7,17.7
9.0,201.3,203.6,230.9,211.9,16.5
9.5,205.0,202.8,229.4,212.4,14.8
10.0,199.9,197.9,228.2,208.7,16.9
10.5,195.5,194.3,224.3,204.7,17.0
11.0,195.8,191.0,226.5,204.5,19.3
11.5,190.8,184.8,215.1,196.9,16.0
12.0,186.3,180.1,218.2,194.9,20.4
12.5,182.7,180.4,211.2,191.4,17.2
13.0,178.1,173.8,209.2,187.0,19.3
13.5,175.4,170.6,206.4,184.1,19.4
14.0,173.4,167.7,204.0,181.7,19.5
14.5,169.3,163.4,199.8,177.5,19.5
15.0,168.9,161.9,197.4,176.1,18.8
15.5,163.3,159.3,195.3,172.6,19.7
16.0,160.3,160.2,193.1,171.2,19.0
16.5,158.5,154.8,193.3,168.9,21.3
17.0,154.0,153.5,191.4,166.3,21.8
17.5,152.2,153.2,188.2,164.5,20.5
18.0,156.4,152.2,191.6,166.7,21.6
18.5,150.7,149.7,188.9,163.1,22.3
19.0,148.7,148.6,188.5,161.9,23.0
19.5,147.9,146.0,188.6,160.8,24.1
20.0,144.6,143.2,188.7,158.9,25.9
20.5,141.6,144.9,187.1,157.9,25.4
21.0,139.8,142.9,187.9,156.9,26.9
21.5,140.7,139.8,187.7,156.1,27.4
22.0,140.8,141.1,189.1,157.0,27.8
22.5,134.8,138.0,188.5,153.8,30.1
23.0,139.6,139.1,184.7,154.5,26.2
23.5,137.5,136.7,187.9,154.1,29.3
24.0,136.7,138.0,186.5,153.7,28.4
24.5,139.9,134.6,187.3,153.9,29.0
25.0,138.3,140.3,187.2,155.3,27.7
25.5,140.7,136.4,185.2,154.1,27.0
26.0,143.3,134.8,188.7,155.6,29.0
26.5,145.3,135.7,183.7,154.9,25.4
27.0,143.9,139.2,184.2,155.8,24.7
27.5,145.7,133.7,189.9,156.4,29.6
28.0,144.6,136.5,185.8,155.6,26.4
28.5,150.3,134.6,182.9,155.9,24.6
29.0,148.3,136.1,182.7,155.7,24.2
29.5,146.8,138.1,182.7,155.9,23.6
30.0,148.6,137.4,182.0,156.0,23.2
30.5,147.8,137.5,180.8,155.4,22.7
31.0,147.9,141.4,184.6,158.0,23.2
31.5,150.7,143.0,185.6,159.8,22.7
32.0,149.1,141.8,187.1,159.3,24.3
32.5,148.2,145.4,181.3,158.3,19.9
33.0,149.8,146.4,180.9,159.0,19.0
33.5,147.9,149.9,183.3,160.4,19.9
34.0,151.2,150.3,179.9,160.5,16.8
34.5,149.3,154.5,178.6,160.8,15.6
35.0,148.9,152.4,181.9,161.1,18.1
35.5,148.3,152.6,181.9,160.9,18.3
36.0,148.2,151.1,181.3,160.2,18.3
36.5,148.3,153.3,179.0,160.2,16.5
37.0,152.1,153.2,178.4,161.2,14.9
37.5,147.5,151.0,180.5,159.6,18.1
38.0,147.5,155.6,175.1,159.4,14.2
38.5,146.8,153.6,176.3,158.9,15.4
39.0,148.4,153.4,175.6,159.1,14.5
39.5,148.6,157.2,176.6,160.8,14.4
40.0,148.5,157.4,179.7,161.9,16.1
40.5,148.3,156.8,176.3,160.5,14.4
41.0,147.9,158.3,175.8,160.7,14.1
41.5,149.8,159.1,177.3,162.1,14.0
42.0,148.6,158.7,174.8,160.7,13.2
42.5,147.5,158.1,176.0,160.5,14.4
43.0,148.2,158.2,175.7,160.7,13.9
43.5,150.3,156.1,175.7,160.7,13.3
44.0,149.7,157.9,174.2,160.6,12.5
44.5,148.1,157.9,173.5,159.8,12.8
45.0,149.5,157.2,172.8,159.8,11.9
45.5,149.7,155.4,174.7,159.9,13.1
46.0,155.3,158.3,173.6,162.4,9.8
46.5,148.8,153.6,172.7,158.4,12.6
47.0,150.6,156.3,173.5,160.1,11.9
47.5,152.2,157.0,170.8,160.0,9.6
48.0,151.0,156.1,173.5,160.2,11.8
48.5,149.6,153.4,170.5,157.8,11.2
49.0,150.9,152.5,171.4,158.3,11.4
49.5,150.9,151.6,168.5,157.0,10.0
50.0,147.5,152.5,165.3,155.1,9.2
50.5,148.9,150.7,164.4,154.7,8.5
51.0,148.6,150.3,164.7,154.5,8.9
51.5,148.7,148.7,163.6,153.7,8.6
52.0,147.6,148.4,163.7,153.2,9.1
52.5,150.9,147.3,161.6,153.3,7.4
53.0,149.3,147.6,161.2,152.7,7.4
53.5,149.6,149.0,162.0,153.5,7.3
54.0,152.1,147.8,156.9,152.3,4.5
54.5,147.7,144.7,158.0,150.1,7.0
55.0,147.3,146.6,156.4,150.1,5.5
55.5,147.0,143.1,158.6,149.6,8.0
56.0,149.1,145.5,155.8,150.1,5.2
56.5,147.3,144.8,156.1,149.4,5.9
57.0,149.7,142.5,157.5,149.9,7.5
57.5,148.2,142.5,153.4,148.0,5.5
58.0,149.2,143.0,153.4,148.5,5.2
58.5,147.6,143.1,154.7,148.5,5.9
59.0,149.5,142.8,151.9,148.0,4.7
59.5,144.6,141.3,152.9,146.2,6.0
60.0,143.8,138.6,150.9,144.5,6.2
60.5,146.1,140.8,151.8,146.3,5.5
61.0,143.1,140.6,151.0,144.9,5.4
61.5,143.4,140.1,147.1,143.5,3.5
62.0,141.8,139.0,148.3,143.0,4.8
62.5,143.2,137.9,147.8,143.0,5.0
63.0,142.3,137.2,146.7,142.0,4.8
63.5,140.7,138.6,146.4,141.9,4.0
64.0,140.9,133.4,143.5,139.3,5.2
64.5,138.6,133.6,142.7,138.3,4.5
65.0,138.3,134.9,140.7,137.9,2.9
65.5,137.1,133.8,142.4,137.8,4.3
66.0,137.7,133.1,139.5,136.7,3.3
66.5,137.5,134.1,141.3,137.6,3.6
67.0,135.7,132.1,141.6,136.5,4.8
67.5,140.1,131.1,139.0,136.8,4.9
68.0,136.8,133.1,139.0,136.3,3.0
68.5,136.6,133.0,137.8,135.8,2.5
69.0,135.4,132.3,136.7,134.8,2.2
69.5,134.4,132.9,137.2,134.9,2.2
70.0,135.4,132.1,135.7,134.4,2.0
70.5,135.6,133.1,136.7,135.1,1.9
71.0,134.2,131.6,132.2,132.7,1.4
71.5,133.6,129.7,133.8,132.4,2.3
72.0,133.9,129.8,131.5,131.8,2.1
72.5,132.2,130.0,130.0,130.7,1.3
73.0,129.5,128.3,131.8,129.9,1.7
73.5,129.2,127.0,129.6,128.6,1.4
74.0,128.2,125.9,129.2,127.8,1.7
74.5,130.0,126.0,128.2,128.1,2.0
75.0,129.5,125.2,128.3,127.7,2.2
75.5,127.8,124.5,128.8,127.0,2.3
76.0,126.2,124.0,128.5,126.2,2.3
76.5,127.4,121.4,126.3,125.1,3.2
77.0,126.0,119.8,127.6,124.5,4.1
77.5,125.2,122.7,128.0,125.3,2.6
78.0,124.5,121.4,126.7,124.2,2.7
78.5,124.2,120.4,125.4,123.3,2.6
79.0,123.0,117.9,126.2,122.4,4.2
79.5,125.2,118.4,126.6,123.4,4.4
80.0,123.1,116.6,125.0,121.6,4.4
80.5,124.3,117.5,124.5,122.1,4.0
81.0,122.1,115.4,124.1,120.5,4.6
81.5,123.6,116.8,123.6,121.3,3.9
82.0,121.8,116.4,122.7,120.3,3.4
82.5,122.1,114.7,123.1,120.0,4.6
83.0,120.2,114.8,121.0,118.7,3.4
83.5,120.2,114.2,119.2,117.9,3.2
84.0,117.7,114.0,120.4,117.4,3.2
84.5,117.9,115.3,117.8,117.0,1.5
85.0,116.0,114.2,117.4,115.9,1.6
85.5,116.0,114.7,117.4,116.1,1.3
86.0,116.7,112.2,113.6,114.2,2.3
86.5,114.8,112.6,115.4,114.3,1.5
87.0,114.9,111.7,113.3,113.3,1.6
87.5,114.8,110.6,112.5,112.6,2.1
88.0,114.2,111.1,113.1,112.8,1.5
88.5,113.1,112.6,112.3,112.6,0.4
89.0,113.5,110.2,112.5,112.1,1.7
89.5,111.6,110.5,111.0,111.0,0.5
90.0,111.7,108.8,110.8,110.4,1.5
90.5,110.3,110.7,110.3,110.4,0.2
91.0,111.4,107.3,108.0,108.9,2.2
91.5,109.7,108.2,109.9,109.3,1.0
92.0,110.7,109.3,107.0,109.0,1.8
92.5,108.7,107.7,108.7,108.4,0.6
93.0,108.6,108.7,107.7,108.3,0.5
93.5,107.9,106.7,107.8,107.5,0.7
94.0,109.4,107.5,107.8,108.2,1.0
94.5,106.6,107.0,106.7,106.8,0.2
95.0,107.0,105.6,107.1,106.6,0.9
95.5,107.4,105.6,106.5,106.5,0.9
96.0,105.2,103.8,106.6,105.2,1.4
96.5,105.2,104.7,107.1,105.7,1.3
97.0,102.6,104.2,107.8,104.9,2.6
97.5,102.9,105.1,106.8,104.9,1.9
98.0,101.2,104.3,106.9,104.1,2.9
98.5,100.2,103.2,105.1,102.9,2.5
99.0,101.5,104.1,105.2,103.6,1.9
99.5,100.5,102.2,104.0,102.2,1.8
100.0,98.9,101.9,107.0,102.6,4.1
100.5,98.2,102.6,103.8,101.5,3.0
101.0,98.2,99.5,105.0,100.9,3.6
101.5,96.3,100.8,103.7,100.3,3.7
102.0,96.5,100.4,105.7,100.9,4.6
102.5,97.9,100.7,105.1,101.2,3.6
103.0,94.6,99.4,105.5,99.9,5.5
103.5,93.4,98.2,106.1,99.2,6.4
104.0,94.6,98.7,105.1,99.5,5.3
104.5,93.3,98.5,106.7,99.5,6.8
105.0,91.6,98.1,105.3,98.3,6.9
105.5,91.3,96.2,104.8,97.4,6.8
106.0,91.7,95.9,105.9,97.8,7.3
106.5,92.1,95.1,105.5,97.6,7.1
107.0,91.3,95.0,106.1,97.5,7.7
107.5,90.2,93.0,106.0,96.4,8.4
108.0,90.3,93.2,103.3,95.6,6.8
108.5,91.3,93.4,105.0,96.5,7.4
109.0,90.2,91.2,103.1,94.8,7.2
109.5,90.1,91.0,103.7,94.9,7.7
110.0,88.8,92.3,103.6,94.9,7.7
110.5,90.4,90.5,103.5,94.8,7.5
111.0,89.9,88.3,102.9,93.7,8.0
111.5,88.7,89.1,103.8,93.9,8.6
112.0,88.0,88.7,102.0,92.9,7.9
112.5,88.1,87.5,104.6,93.4,9.7
113.0,88.4,88.7,104.2,93.7,9.0
113.5,86.4,86.1,103.1,91.8,9.7
114.0,86.3,87.1,104.4,92.6,10.2
114.5,87.0,84.0,103.2,91.4,10.3
115.0,85.4,87.0,104.5,92.3,10.6
115.5,86.0,85.4,103.6,91.7,10.4
116.0,85.2,84.4,104.1,91.2,11.1
116.5,85.4,84.4,104.3,91.4,11.2
117.0,84.4,83.4,102.3,90.0,10.6
117.5,83.9,83.4,103.6,90.3,11.5
118.0,83.9,82.9,102.7,89.8,11.1
118.5,83.5,82.3,101.9,89.2,11.0
119.0,85.2,82.1,100.2,89.2,9.7
119.5,82.3,81.9,100.9,88.4,10.8
120.0,83.7,80.6,101.2,88.5,11.1
120.5,82.7,83.3,101.9,89.3,10.9
121.0,84.1,81.5,98.5,88.1,9.1
121.5,83.5,81.3,99.2,88.0,9.7
122.0,83.0,80.9,98.2,87.4,9.5
122.5,81.6,80.9,99.1,87.2,10.4
123.0,82.6,81.1,98.9,87.5,9.9
123.5,82.3,79.5,98.1,86.6,10.1
124.0,81.9,80.0,97.5,86.5,9.6
124.5,82.4,81.1,97.9,87.1,9.3
125.0,82.6,81.3,97.0,87.0,8.7
125.5,82.5,79.9,97.7,86.7,9.6
126.0,81.1,81.3,97.1,86.5,9.2
126.5,81.3,78.8,96.9,85.7,9.8
127.0,80.8,78.8,95.8,85.2,9.3
127.5,82.5,79.2,95.7,85.8,8.7
128.0,79.7,79.4,96.8,85.3,9.9
128.5,79.4,78.7,96.2,84.7,9.9
129.0,79.5,78.4,96.3,84.7,10.0
129.5,78.4,77.9,97.0,84.4,10.9
130.0,79.2,76.9,97.0,84.3,11.0
130.5,78.5,77.9,94.7,83.7,9.5
131.0,78.5,76.7,95.9,83.7,10.6
131.5,76.8,77.7,96.2,83.6,11.0
132.0,77.2,76.4,94.5,82.7,10.2
132.5,78.8,77.0,96.5,84.1,10.8
133.0,77.1,76.0,96.3,83.1,11.4
133.5,77.7,76.1,95.8,83.2,11.0
134.0,78.7,75.1,95.9,83.2,11.1
134.5,78.4,75.2,96.5,83.4,11.5
135.0,78.2,75.2,95.2,82.9,10.8
135.5,79.0,75.6,96.7,83.8,11.3
136.0,77.8,73.5,97.5,82.9,12.8
136.5,77.9,73.9,97.3,83.0,12.5
137.0,78.1,73.9,97.5,83.2,12.6
137.5,76.7,73.9,97.2,82.6,12.7
138.0,77.9,74.4,97.5,83.2,12.5
138.5,76.9,73.9,98.3,83.0,13.4
139.0,78.0,73.0,98.2,83.1,13.4
139.5,76.6,72.9,98.2,82.5,13.7
140.0,74.9,72.9,98.4,82.1,14.2
140.5,75.1,72.1,97.7,81.6,14.0
141.0,73.8,72.6,98.7,81.7,14.7
141.5,74.8,72.9,98.6,82.1,14.3
142.0,73.4,71.4,97.6,80.8,14.6
142.5,72.3,70.7,99.0,80.6,15.9
143.0,73.2,71.7,99.6,81.5,15.7
143.5,73.0,69.8,100.0,81.0,16.6
144.0,72.1,69.6,98.4,80.0,15.9
144.5,71.8,69.8,99.2,80.2,16.4
145.0,70.7,70.0,99.0,79.9,16.5
145.5,71.2,68.5,99.2,79.6,17.0
146.0,72.2,69.0,99.2,80.1,16.6
146.5,69.1,69.4,99.2,79.2,17.3
147.0,69.4,69.8,100.2,79.8,17.7
147.5,68.9,69.3,100.0,79.4,17.9
148.0,68.2,68.6,101.1,79.3,18.9
148.5,65.8,68.8,102.3,79.0,20.3
149.0,66.6,67.1,101.5,78.4,20.0
149.5,65.7,68.1,103.0,78.9,20.9
150.0,65.0,67.6,102.2,78.3,20.8
150.5,65.2,66.2,104.6,78.7,22.5
151.0,64.8,66.5,103.0,78.1,21.6
151.5,65.2,65.9,102.9,78.0,21.6
152.0,65.7,65.4,101.9,77.7,21.0
152.5,65.0,64.9,101.7,77.2,21.3
153.0,65.2,65.0,102.7,77.7,21.7
153.5,64.8,64.5,102.7,77.3,22.0
154.0,64.3,65.0,102.9,77.4,22.1
154.5,64.6,65.1,101.9,77.2,21.4
155.0,64.2,63.9,103.7,77.3,22.9
155.5,64.8,65.4,102.2,77.5,21.4
156.0,64.6,64.1,101.9,76.9,21.7
156.5,64.4,64.2,100.9,76.5,21.1
157.0,63.8,63.5,102.1,76.4,22.2
157.5,64.2,64.6,101.2,76.7,21.3
158.0,64.0,64.1,100.2,76.1,20.9
158.5,64.5,64.1,102.2,76.9,21.9
159.0,64.0,63.3,100.0,75.8,21.0
159.5,64.9,64.1,99.9,76.3,20.4
160.0,64.6,62.9,100.2,75.9,21.1
160.5,63.8,62.4,99.2,75.1,20.9
161.0,64.4,62.7,98.5,75.2,20.2
161.5,64.5,64.3,99.8,76.2,20.4
162.0,64.0,62.7,99.2,75.3,20.7
162.5,65.1,61.4,99.3,75.3,20.9
163.0,63.6,62.1,98.9,74.9,20.8
163.5,63.6,61.1,97.8,74.2,20.5
164.0,63.8,61.2,100.7,75.2,22.1
164.5,63.9,61.5,98.9,74.8,20.9
165.0,64.4,61.2,99.2,75.0,21.1
165.5,65.1,60.5,99.7,75.1,21.4
166.0,65.1,60.5,99.7,75.1,21.4
166.5,63.7,61.1,100.4,75.1,22.0
167.0,64.3,61.0,98.8,74.7,20.9
167.5,63.3,61.1,99.2,74.5,21.4
168.0,63.7,60.7,98.1,74.2,20.7
168.5,62.6,61.7,99.4,74.6,21.5
169.0,62.8,59.9,98.4,73.7,21.4
169.5,63.9,60.0,97.6,73.8,20.7
170.0,62.8,60.2,97.4,73.5,20.7
170.5,61.5,59.8,97.3,72.9,21.2
171.0,61.5,60.1,98.4,73.3,21.7
171.5,62.6,60.1,98.0,73.6,21.2
172.0,61.6,58.9,98.5,73.0,22.1
172.5,62.0,60.0,98.6,73.5,21.7
173.0,61.3,58.8,98.2,72.7,22.1
173.5,61.4,59.1,98.7,73.1,22.3
174.0,60.5,58.2,100.5,73.1,23.8
174.5,62.0,58.7,97.3,72.7,21.4
175.0,61.2,58.4,98.9,72.9,22.6
175.5,61.5,57.2,101.0,73.2,24.1
176.0,61.1,58.8,101.8,73.9,24.2
176.5,60.4,57.7,103.5,73.9,25.7
177.0,61.8,57.1,103.9,74.2,25.8
177.5,61.1,56.9,103.7,73.9,25.9
178.0,60.7,57.1,106.3,74.7,27.4
178.5,61.3,57.8,109.1,76.1,28.6
179.0,61.4,56.6,109.6,75.9,29.3
179.5,61.3,56.5,112.8,76.9,31.2
180.0,59.5,56.7,113.7,76.6,32.1
180.5,60.0,56.2,115.4,77.2,33.1
181.0,60.0,56.8,118.8,78.5,34.9
181.5,59.4,55.6,119.3,78.1,35.7
182.0,59.4,55.5,120.9,78.6,36.7
182.5,58.5,54.5,122.5,78.5,38.2
183.0,58.6,55.2,124.1,79.3,38.8
183.5,58.5,54.6,125.9,79.7,40.1
184.0,57.9,54.3,125.1,79.1,39.9
184.5,58.0,55.0,125.7,79.5,40.0
185.0,56.3,55.3,127.2,79.6,41.2
185.5,57.0,54.6,127.3,79.7,41.3
186.0,57.0,55.1,125.8,79.3,40.3
186.5,55.7,54.9,127.7,79.4,41.8
187.0,55.8,55.9,127.5,79.7,41.3
187.5,55.9,54.7,126.7,79.1,41.3
188.0,55.6,55.2,125.5,78.7,40.5
188.5,55.8,53.9,126.7,78.8,41.5
189.0,55.9,55.2,125.5,78.9,40.4
189.5,54.0,55.8,126.8,78.9,41.5
190.0,54.9,55.3,124.0,78.1,39.8
190.5,54.0,54.2,125.8,78.0,41.4
191.0,54.8,54.5,128.6,79.3,42.7
191.5,53.4,54.9,125.9,78.1,41.4
192.0,53.3,55.7,126.4,78.5,41.6
192.5,52.9,55.0,125.3,77.8,41.2
193.0,53.1,55.1,126.9,78.3,42.0
193.5,53.0,54.7,123.5,77.1,40.2
194.0,53.1,55.0,124.6,77.6,40.8
194.5,52.0,54.8,123.2,76.7,40.3
195.0,52.1,54.8,121.2,76.1,39.1
195.5,52.4,55.2,122.2,76.6,39.5
196.0,51.9,54.7,121.9,76.2,39.7
196.5,52.2,55.1,123.0,76.8,40.0
197.0,51.2,54.5,121.0,75.6,39.4
197.5,51.6,54.6,119.4,75.2,38.3
198.0,50.7,55.3,118.1,74.7,37.7
198.5,50.7,55.2,119.1,75.0,38.3
199.0,49.7,53.8,116.9,73.5,37.7
199.5,50.3,55.1,116.4,73.9,36.9
200.0,50.0,54.6,114.2,72.9,35.8
200.5,50.2,54.6,113.0,72.6,35.1
201.0,49.9,54.7,113.9,72.8,35.6
201.5,49.6,54.2,110.3,71.4,33.8
202.0,49.5,55.2,110.0,71.6,33.4
202.5,49.8,55.2,109.7,71.6,33.1
203.0,49.5,55.4,108.6,71.2,32.5
203.5,49.4,55.3,108.8,71.2,32.7
204.0,49.0,55.3,106.4,70.2,31.5
204.5,48.6,55.3,106.0,70.0,31.4
205.0,49.0,54.4,105.9,69.8,31.4
205.5,48.9,54.8,103.2,69.0,29.8
206.0,48.5,55.0,103.0,68.8,29.7
206.5,48.9,55.1,103.1,69.0,29.6
207.0,47.2,55.2,101.2,67.9,29.1
207.5,48.4,56.4,99.4,68.1,27.4
208.0,48.4,56.0,97.9,67.4,26.6
208.5,48.7,55.4,97.4,67.2,26.4
209.0,48.4,55.9,96.4,66.9,25.8
209.5,49.2,55.0,94.6,66.2,24.7
210.0,48.2,55.7,94.2,66.0,24.7
210.5,48.7,56.6,94.0,66.5,24.2
211.0,48.7,54.8,92.4,65.3,23.7
211.5,48.7,55.8,92.7,65.7,23.7
212.0,48.5,55.3,90.0,64.6,22.2
212.5,49.1,54.8,89.5,64.5,21.9
213.0,48.3,54.8,89.5,64.2,22.1
213.5,48.0,53.9,88.4,63.4,21.8
214.0,48.8,54.7,87.4,63.6,20.8
214.5,48.4,53.8,86.1,62.8,20.4
215.0,48.2,53.9,86.0,62.7,20.4
215.5,47.6,52.7,86.3,62.2,21.0
216.0,49.2,54.0,84.0,62.4,18.9
216.5,48.8,52.5,84.5,61.9,19.6
217.0,47.9,54.2,82.5,61.6,18.4
217.5,48.5,53.8,83.8,62.0,19.0
218.0,49.4,53.1,82.6,61.7,18.2
218.5,49.5,53.9,82.3,61.9,17.8
219.0,50.1,52.5,83.1,61.9,18.4
219.5,50.9,52.5,81.6,61.7,17.3
220.0,51.1,52.8,83.3,62.4,18.1
220.5,51.4,52.9,83.3,62.5,18.0
221.0,51.6,52.4,80.7,61.6,16.6
221.5,52.4,53.0,81.6,62.3,16.7
222.0,53.0,52.7,80.2,62.0,15.8
222.5,52.8,52.5,79.8,61.7,15.7
223.0,52.9,52.6,80.9,62.2,16.3
223.5,53.4,51.5,78.8,61.2,15.3
224.0,53.8,51.7,80.2,61.9,15.9
224.5,53.9,51.8,77.8,61.2,14.4
225.0,52.9,51.7,77.3,60.6,14.4
225.5,54.5,51.8,77.5,61.3,14.1
226.0,53.0,52.7,77.0,60.9,13.9
226.5,52.8,51.6,76.5,60.3,14.0
227.0,53.7,51.4,77.3,60.8,14.3
227.5,52.7,51.8,76.0,60.2,13.7
228.0,53.6,51.2,76.8,60.5,14.1
228.5,53.4,51.7,74.9,60.0,12.9
229.0,53.9,51.7,72.7,59.5,11.5
229.5,54.1,51.4,73.2,59.6,11.9
230.0,53.9,51.5,73.5,59.6,12.1
230.5,53.9,52.4,73.6,60.0,11.8
231.0,54.9,51.1,73.1,59.7,11.8
231.5,54.7,51.0,72.5,59.4,11.5
232.0,55.1,51.5,71.8,59.5,10.9
232.5,55.5,51.8,73.0,60.1,11.4
233.0,54.7,51.6,71.6,59.3,10.8
233.5,56.1,52.4,71.9,60.2,10.4
234.0,57.1,51.3,72.6,60.3,11.0
234.5,55.9,51.7,71.8,59.8,10.6
235.0,56.2,51.9,72.6,60.2,10.9
235.5,56.3,50.7,72.4,59.8,11.3
236.0,56.8,51.9,71.5,60.1,10.2
236.5,56.9,52.8,73.5,61.1,11.0
237.0,57.1,52.7,73.7,61.2,11.1
237.5,57.9,52.4,73.9,61.4,11.2
238.0,56.0,52.6,73.1,60.6,11.0
238.5,57.6,52.6,73.8,61.4,11.1
239.0,57.7,53.6,74.6,62.0,11.1
239.5,58.6,53.2,75.0,62.3,11.4
240.0,58.0,53.5,75.5,62.3,11.6
240.5,58.8,53.7,76.4,63.0,11.9
241.0,58.6,54.9,76.4,63.3,11.5
241.5,58.3,54.4,75.9,62.9,11.4
242.0,58.6,54.9,76.8,63.4,11.7
242.5,60.0,55.5,76.6,64.0,11.1
243.0,60.6,55.4,76.7,64.2,11.1
243.5,60.5,56.5,76.1,64.3,10.4
244.0,61.0,57.7,74.5,64.4,8.9
244.5,60.3,58.8,76.6,65.3,9.9
245.0,61.0,59.1,75.8,65.3,9.1
245.5,62.1,61.1,75.8,66.3,8.2
246.0,62.7,62.5,74.9,66.7,7.1
246.5,62.1,64.0,75.5,67.2,7.2
247.0,61.4,64.0,75.0,66.8,7.3
247.5,62.6,65.2,74.7,67.5,6.4
248.0,62.0,65.4,74.6,67.4,6.5
248.5,62.9,66.5,74.7,68.0,6.1
249.0,63.3,67.3,74.1,68.2,5.5
249.5,61.9,67.1,74.7,67.9,6.4
250.0,63.7,68.0,73.0,68.2,4.7
250.5,64.3,67.8,74.1,68.7,5.0
251.0,63.9,68.9,73.5,68.7,4.8
251.5,63.4,69.1,71.7,68.1,4.2
252.0,64.6,70.9,72.2,69.2,4.1
252.5,64.6,69.2,71.1,68.3,3.3
253.0,65.3,71.4,70.6,69.1,3.3
253.5,64.9,71.4,70.6,69.0,3.5
254.0,64.7,71.9,69.5,68.7,3.6
254.5,64.3,72.0,69.6,68.6,4.0
255.0,64.6,73.0,68.3,68.6,4.2
255.5,65.3,73.3,68.7,69.1,4.0
256.0,65.9,73.6,67.2,68.9,4.1
256.5,65.8,73.2,67.8,68.9,3.8
257.0,65.5,74.6,66.2,68.7,5.0
257.5,67.2,73.9,65.5,68.9,4.5
258.0,68.4,75.1,66.0,69.8,4.7
258.5,67.8,75.8,64.9,69.5,5.7
259.0,68.8,76.9,65.3,70.4,6.0
259.5,67.9,76.3,64.6,69.6,6.0
260.0,68.3,78.4,63.6,70.1,7.6
260.5,69.0,76.2,64.0,69.7,6.1
261.0,67.8,77.3,64.0,69.7,6.8
261.5,70.7,80.5,64.8,72.0,7.9
262.0,69.3,78.8,63.8,70.6,7.6
262.5,69.6,81.1,63.6,71.4,8.9
263.0,70.7,81.9,64.2,72.3,8.9
263.5,70.8,81.2,64.1,72.1,8.6
264.0,68.6,81.3,63.2,71.1,9.3
264.5,70.9,80.5,63.4,71.6,8.6
265.0,70.2,80.3,62.9,71.1,8.7
265.5,70.9,81.2,62.9,71.7,9.2
266.0,71.2,81.2,62.8,71.7,9.2
266.5,70.5,80.5,62.4,71.1,9.1
267.0,70.1,82.2,62.4,71.5,10.0
267.5,70.0,81.5,62.6,71.3,9.5
268.0,70.1,83.0,61.7,71.6,10.8
268.5,71.3,82.6,63.6,72.5,9.6
269.0,70.8,84.8,62.7,72.8,11.2
269.5,71.8,85.5,62.2,73.2,11.7
270.0,72.5,85.0,63.0,73.5,11.1
270.5,71.9,85.7,62.4,73.4,11.7
271.0,72.4,86.4,61.4,73.4,12.5
271.5,72.6,86.8,63.1,74.2,11.9
272.0,73.6,88.8,61.9,74.8,13.5
272.5,72.4,89.8,62.3,74.8,13.9
273.0,73.3,89.9,62.0,75.1,14.0
273.5,73.8,92.5,61.8,76.0,15.5
274.0,73.4,91.5,62.5,75.8,14.6
274.5,72.5,92.6,62.0,75.7,15.5
275.0,73.8,92.9,62.5,76.4,15.4
275.5,73.6,93.1,61.8,76.2,15.8
276.0,74.7,94.2,62.8,77.3,15.8
276.5,74.0,95.2,62.4,77.2,16.6
277.0,74.0,94.9,63.0,77.3,16.2
277.5,73.2,95.0,64.1,77.4,15.9
278.0,73.2,94.6,62.8,76.9,16.2
278.5,73.5,93.4,63.8,76.9,15.1
279.0,73.1,93.6,63.8,76.8,15.3
279.5,73.5,93.7,63.4,76.9,15.4
280.0,72.3,92.9,63.4,76.2,15.2
280.5,74.1,93.1,63.8,77.0,14.9
281.0,73.3,94.1,64.0,77.1,15.4
281.5,73.4,92.8,64.1,76.7,14.7
282.0,74.2,93.8,64.2,77.4,15.1
282.5,72.9,94.5,64.4,77.3,15.5
283.0,74.2,93.8,64.2,77.4,15.1
283.5,73.4,94.3,63.8,77.2,15.6
284.0,74.2,94.0,64.3,77.5,15.1
284.5,74.9,94.1,64.3,77.8,15.1
285.0,74.7,92.9,64.9,77.5,14.2
285.5,75.3,93.0,65.0,77.7,14.2
286.0,74.7,92.6,64.6,77.3,14.2
286.5,74.4,92.6,64.4,77.1,14.3
287.0,74.6,93.6,63.9,77.3,15.1
287.5,74.5,92.9,64.0,77.1,14.6
288.0,72.4,92.1,65.2,76.6,13.9
288.5,72.6,94.7,65.2,77.5,15.3
289.0,71.3,92.0,63.9,75.8,14.6
289.5,71.7,91.7,64.9,76.1,14.0
290.0,70.9,92.8,64.2,76.0,15.0
290.5,70.0,91.4,64.0,75.2,14.4
291.0,69.5,92.5,64.4,75.5,15.0
291.5,69.6,93.2,63.9,75.6,15.5
292.0,68.4,90.4,63.9,74.2,14.2
292.5,67.2,92.9,64.1,74.7,15.8
293.0,68.5,91.7,63.1,74.4,15.2
293.5,66.8,92.1,63.4,74.1,15.7
294.0,65.9,90.5,63.9,73.4,14.8
294.5,66.6,90.4,63.2,73.4,14.8
295.0,66.1,90.7,63.3,73.4,15.1
295.5,65.9,90.7,64.1,73.6,14.9
296.0,65.6,89.6,63.4,72.9,14.5
296.5,64.6,90.0,64.4,73.0,14.7
297.0,64.6,88.6,63.4,72.2,14.2
297.5,64.0,90.2,62.8,72.3,15.5
298.0,64.1,88.8,62.8,71.9,14.6
298.5,64.0,89.7,63.0,72.3,15.1
299.0,63.7,89.3,63.4,72.1,14.9
299.5,63.9,90.8,63.3,72.7,15.7
300.0,62.5,89.7,63.6,72.0,15.4
300.5,62.5,90.7,65.0,72.7,15.6
301.0,62.2,90.4,63.9,72.2,15.8
301.5,61.8,90.2,63.7,71.9,15.9
302.0,61.6,91.9,63.8,72.4,16.9
302.5,61.1,92.0,63.4,72.2,17.2
303.0,61.8,89.3,63.6,71.6,15.4
303.5,61.1,91.1,63.8,72.0,16.6
304.0,60.9,89.1,63.8,71.3,15.5
304.5,61.3,92.6,63.3,72.4,17.5
305.0,60.3,91.8,64.1,72.1,17.2
305.5,60.5,91.4,64.8,72.2,16.7
306.0,60.3,92.7,64.5,72.5,17.6
306.5,60.1,91.1,65.4,72.2,16.6
307.0,59.5,90.7,65.3,71.8,16.6
307.5,60.3,92.0,64.8,72.4,17.2
308.0,59.5,91.9,66.3,72.6,17.0
308.5,58.7,93.2,65.1,72.3,18.3
309.0,58.1,91.4,65.1,71.5,17.6
309.5,58.3,91.7,65.9,71.9,17.5
310.0,57.9,91.4,66.1,71.8,17.4
310.5,58.1,92.9,64.7,71.9,18.5
311.0,57.0,91.0,66.5,71.5,17.5
311.5,56.1,91.6,64.2,70.6,18.6
312.0,56.2,90.9,64.7,70.6,18.0
312.5,57.3,91.1,63.7,70.7,18.0
313.0,56.8,91.8,62.4,70.3,18.8
313.5,55.5,92.6,63.5,70.5,19.5
314.0,55.1,92.8,63.7,70.5,19.8
314.5,55.1,94.4,63.1,70.9,20.8
315.0,55.8,93.8,63.2,70.9,20.2
315.5,55.8,96.1,63.8,71.9,21.3
316.0,56.5,95.4,64.5,72.1,20.5
316.5,56.7,96.6,64.1,72.5,21.2
317.0,56.6,96.4,65.6,72.9,20.9
317.5,57.2,97.1,65.5,73.3,21.0
318.0,58.2,98.6,66.1,74.3,21.4
318.5,58.3,99.1,66.0,74.5,21.7
319.0,58.8,98.9,66.7,74.8,21.2
319.5,59.5,99.0,66.8,75.1,21.0
320.0,59.8,99.8,68.7,76.1,21.0
320.5,61.1,100.0,68.1,76.4,20.8
321.0,61.5,102.0,69.9,77.8,21.4
321.5,62.0,101.0,69.0,77.3,20.8
322.0,63.6,102.5,70.1,78.7,20.9
322.5,64.8,104.9,70.5,80.1,21.7
323.0,65.0,104.4,71.6,80.3,21.1
323.5,66.8,107.0,71.9,81.9,21.9
324.0,66.9,106.8,72.9,82.2,21.5
324.5,67.7,107.2,74.5,83.1,21.1
325.0,67.8,107.1,74.8,83.2,21.0
325.5,68.5,108.6,75.5,84.2,21.4
326.0,69.6,108.6,77.7,85.3,20.6
326.5,71.3,110.0,78.8,86.7,20.6
327.0,73.1,109.3,79.3,87.2,19.4
327.5,72.6,111.1,79.3,87.6,20.6
328.0,75.8,109.5,80.7,88.7,18.2
328.5,77.6,111.3,81.0,90.0,18.5
329.0,79.0,111.3,82.1,90.8,17.8
329.5,80.0,110.3,82.1,90.8,16.9
330.0,82.3,112.4,83.5,92.8,17.1
330.5,83.9,112.0,84.6,93.5,16.0
331.0,84.9,111.2,85.4,93.8,15.1
331.5,86.3,111.0,83.4,93.6,15.2
332.0,88.1,109.6,84.6,94.1,13.6
332.5,89.3,108.9,85.8,94.7,12.4
333.0,91.6,110.3,85.9,95.9,12.8
333.5,91.9,109.5,85.1,95.5,12.6
334.0,94.4,110.2,85.8,96.8,12.4
334.5,95.3,109.9,85.3,96.8,12.4
335.0,99.1,109.4,85.6,98.1,11.9
335.5,101.5,106.8,85.4,97.9,11.2
336.0,102.9,107.9,86.2,99.0,11.4
336.5,102.8,107.4,85.8,98.7,11.4
337.0,105.8,107.1,86.0,99.6,11.9
337.5,107.1,108.7,85.7,100.5,12.8
338.0,107.3,105.2,84.8,99.1,12.4
338.5,107.7,107.5,83.9,99.7,13.7
339.0,108.3,104.9,83.4,98.9,13.5
339.5,110.1,106.3,83.8,100.1,14.2
340.0,111.0,106.3,83.0,100.1,15.0
340.5,110.9,106.6,81.8,99.8,15.7
341.0,110.0,108.4,82.7,100.4,15.3
341.5,110.6,106.4,82.5,99.8,15.2
342.0,112.6,104.6,82.1,99.8,15.8
342.5,111.2,105.6,81.8,99.5,15.6
343.0,111.1,104.8,82.0,99.3,15.3
343.5,109.4,104.3,80.8,98.2,15.2
344.0,110.5,102.7,81.3,98.1,15.1
344.5,111.3,102.8,81.3,98.5,15.5
345.0,110.8,100.8,80.5,97.3,15.4
345.5,109.4,99.8,80.0,96.4,15.0
346.0,109.8,99.3,79.7,96.3,15.3
346.5,110.3,97.2,80.3,95.9,15.1
347.0,110.1,95.8,78.2,94.7,16.0
347.5,108.5,94.5,78.9,94.0,14.8
348.0,107.8,94.3,78.9,93.7,14.5
348.5,107.7,91.6,78.7,92.7,14.5
349.0,106.3,91.3,77.9,91.8,14.2
349.5,105.9,89.1,78.4,91.1,13.9
350.0,105.9,87.8,79.0,90.9,13.7
350.5,104.9,86.5,77.2,89.5,14.1
351.0,101.3,84.7,78.0,88.0,12.0
351.5,100.8,85.5,76.4,87.6,12.3
352.0,101.5,84.1,75.6,87.1,13.2
352.5,99.8,84.5,75.4,86.6,12.3
353.0,100.2,82.4,74.4,85.7,13.2
353.5,97.9,82.3,75.1,85.1,11.6
354.0,95.8,81.0,74.6,83.8,10.9
354.5,96.0,80.7,73.8,83.5,11.4
355.0,95.1,79.0,72.9,82.3,11.5
355.5,95.8,80.4,72.1,82.8,12.1
356.0,94.7,78.0,72.5,81.7,11.6
356.5,94.7,78.2,71.5,81.4,11.9
357.0,94.2,76.6,71.8,80.9,11.8
357.5,94.6,76.4,70.5,80.5,12.6
358.0,92.0,73.9,70.9,78.9,11.4
358.5,93.0,74.0,70.6,79.2,12.1
359.0,92.2,73.6,70.8,78.9,11.7
359.5,91.9,72.8,69.7,78.1,12.1
360.0,92.4,71.3,69.0,77.6,12.9
360.5,93.1,70.7,69.0,77.6,13.5
361.0,90.8,70.7,67.2,76.2,12.8
361.5,93.2,68.5,67.6,76.5,14.5
362.0,94.3,69.6,67.7,77.2,14.8
362.5,94.4,67.6,66.8,76.3,15.7
363.0,94.9,67.4,66.7,76.3,16.1
363.5,94.6,66.5,66.2,75.7,16.3
364.0,96.2,66.1,66.3,76.2,17.3
364.5,97.6,64.6,65.2,75.8,18.9
365.0,98.7,65.8,64.5,76.3,19.4
365.5,99.4,64.3,64.8,76.2,20.1
366.0,102.5,63.7,64.2,76.8,22.2
366.5,101.3,62.7,63.9,76.0,22.0
367.0,103.4,62.8,64.4,76.9,23.0
367.5,104.6,61.6,63.6,76.6,24.3
368.0,104.5,62.2,64.0,76.9,23.9
368.5,103.8,60.4,63.2,75.8,24.3
369.0,105.4,61.1,62.8,76.4,25.1
369.5,106.0,60.7,63.0,76.6,25.5
370.0,107.2,61.4,63.1,77.2,26.0
370.5,107.6,59.7,62.6,76.6,26.9
371.0,107.9,60.0,63.8,77.2,26.6
371.5,108.0,58.2,62.4,76.2,27.6
372.0,106.7,58.5,62.2,75.8,26.8
372.5,108.5,58.1,63.0,76.5,27.8
373.0,107.9,58.2,63.2,76.4,27.4
373.5,108.5,57.1,62.9,76.2,28.2
374.0,107.6,55.8,61.8,75.1,28.4
374.5,107.4,56.6,62.4,75.5,27.8
375.0,108.9,56.7,60.9,75.5,29.0
375.5,104.7,56.5,60.9,74.1,26.7
376.0,106.9,55.6,61.7,74.7,28.1
376.5,106.7,54.2,62.3,74.4,28.3
377.0,105.9,54.4,61.9,74.0,27.8
377.5,108.1,54.3,60.3,74.3,29.5
378.0,106.3,53.4,60.8,73.5,28.6
378.5,107.3,52.5,60.5,73.4,29.6
379.0,107.3,52.7,60.9,73.6,29.5
379.5,105.1,51.8,60.5,72.5,28.6
380.0,104.5,51.7,59.4,71.9,28.6
380.5,104.6,50.9,59.9,71.8,28.8
381.0,104.9,50.1,59.3,71.4,29.4
381.5,104.8,49.7,59.9,71.5,29.3
382.0,103.5,49.7,60.0,71.1,28.6
382.5,102.6,48.1,59.6,70.1,28.7
383.0,103.9,48.5,60.3,70.9,29.2
383.5,101.9,48.0,59.1,69.7,28.5
384.0,101.5,48.0,59.4,69.6,28.2
384.5,101.1,46.9,60.6,69.5,28.2
385.0,98.4,46.6,60.1,68.4,26.8
385.5,98.6,46.8,60.8,68.7,26.8
386.0,98.8,46.5,60.4,68.6,27.1
386.5,98.1,45.9,59.9,68.0,27.0
387.0,94.8,45.4,60.9,67.0,25.3
387.5,97.1,44.9,60.8,67.6,26.8
388.0,95.8,44.5,60.7,67.0,26.3
388.5,94.6,44.2,60.2,66.4,25.7
389.0,94.2,43.9,60.9,66.3,25.6
389.5,93.9,43.1,59.4,65.5,25.9
390.0,93.0,42.9,60.7,65.5,25.4
390.5,93.7,41.8,59.9,65.1,26.3
391.0,90.6,42.5,60.5,64.5,24.3
391.5,90.0,42.0,60.5,64.1,24.2
392.0,89.2,41.8,59.9,63.6,23.9
392.5,86.9,40.5,58.8,62.1,23.4
393.0,85.5,40.8,59.0,61.8,22.5
393.5,84.2,40.7,59.4,61.4,21.8
394.0,83.6,40.1,59.6,61.1,21.8
394.5,83.2,39.3,58.7,60.4,22.0
395.0,81.9,38.7,58.5,59.7,21.6
395.5,80.3,38.7,58.2,59.1,20.8
396.0,79.6,38.5,58.2,58.8,20.5
396.5,77.9,38.5,58.8,58.4,19.7
397.0,76.9,38.0,57.1,57.3,19.5
397.5,75.8,38.2,58.0,57.3,18.8
398.0,75.3,38.8,57.2,57.1,18.2
398.5,75.1,38.4,58.1,57.2,18.4
399.0,74.6,39.7,58.1,57.5,17.5
399.5,73.5,39.9,57.6,57.0,16.8
400.0,72.3,40.2,57.2,56.6,16.1
400.5,72.6,41.7,56.4,56.9,15.5
401.0,71.8,42.3,56.4,56.8,14.8
401.5,71.5,43.2,57.6,57.4,14.2
402.0,71.4,44.4,57.6,57.8,13.5
402.5,70.6,45.0,57.6,57.8,12.8
403.0,70.5,46.5,57.6,58.2,12.0
403.5,68.8,46.1,57.1,57.3,11.3
404.0,69.8,48.0,56.7,58.2,11.0
404.5,67.8,48.3,57.2,57.8,9.8
405.0,66.5,49.3,57.5,57.8,8.6
405.5,66.1,50.8,57.2,58.0,7.7
406.0,65.3,50.7,57.3,57.8,7.3
406.5,64.5,53.2,58.3,58.7,5.7
407.0,63.1,53.6,57.9,58.2,4.7
407.5,63.9,54.4,58.2,58.9,4.8
408.0,63.3,54.3,58.2,58.6,4.5
408.5,62.9,55.6,57.6,58.7,3.8
409.0,61.6,56.6,57.1,58.4,2.8
409.5,62.8,56.0,56.9,58.6,3.7
410.0,61.8,56.2,58.2,58.8,2.8
410.5,60.8,55.6,56.6,57.7,2.8
411.0,61.4,56.1,57.3,58.3,2.8
411.5,60.2,57.2,57.0,58.2,1.8
412.0,59.2,56.5,56.8,57.5,1.5
412.5,59.2,56.6,56.1,57.3,1.7
413.0,58.4,56.7,57.7,57.6,0.8
413.5,58.8,57.4,56.4,57.5,1.2
414.0,58.0,56.8,55.8,56.9,1.1
414.5,57.2,57.0,54.9,56.4,1.3
415.0,57.7,57.5,55.2,56.8,1.4
415.5,56.6,56.6,54.3,55.8,1.3
416.0,56.7,57.4,53.5,55.9,2.1
416.5,56.3,56.9,53.3,55.5,2.0
417.0,56.8,57.3,52.4,55.5,2.7
417.5,56.3,56.3,52.7,55.1,2.1
418.0,56.2,57.5,51.8,55.2,3.0
418.5,55.6,55.9,51.5,54.3,2.5
419.0,54.9,56.7,51.0,54.2,2.9
419.5,53.6,56.3,50.8,53.6,2.8
420.0,54.1,55.7,50.0,53.3,2.9
420.5,53.6,55.1,50.1,52.9,2.5
421.0,53.7,55.0,50.4,53.0,2.4
421.5,53.7,54.5,49.9,52.7,2.4
422.0,52.3,55.0,50.5,52.6,2.3
422.5,52.2,54.5,50.7,52.5,1.9
423.0,52.2,54.4,49.5,52.1,2.4
423.5,51.4,54.5,49.8,51.9,2.4
424.0,50.6,53.3,49.5,51.1,1.9
424.5,50.9,54.5,50.2,51.9,2.3
425.0,51.0,53.3,48.7,51.0,2.3
425.5,50.6,53.3,48.4,50.8,2.5
426.0,50.9,52.8,49.3,51.0,1.7
426.5,49.9,52.9,49.1,50.7,2.0
427.0,50.0,53.0,48.4,50.5,2.3
427.5,50.0,52.5,49.0,50.5,1.8
428.0,49.7,53.1,48.3,50.4,2.5
428.5,49.2,52.8,48.6,50.2,2.3
429.0,49.5,52.1,48.3,50.0,1.9
429.5,49.5,51.5,47.6,49.5,1.9
430.0,48.7,51.1,47.9,49.2,1.7
430.5,48.0,51.5,48.3,49.3,1.9
431.0,47.9,51.6,47.9,49.1,2.1
431.5,48.1,50.8,47.7,48.9,1.7
432.0,48.2,50.2,47.5,48.6,1.4
432.5,47.9,50.6,47.0,48.5,1.9
433.0,47.6,50.5,47.4,48.5,1.8
433.5,46.7,51.1,47.0,48.3,2.5
434.0,47.0,50.1,47.4,48.2,1.7
434.5,46.2,50.0,46.7,47.6,2.1
435.0,46.2,49.6,45.5,47.1,2.2
435.5,45.6,49.2,45.8,46.9,2.0
436.0,46.1,49.9,45.9,47.3,2.2
436.5,45.4,49.0,45.7,46.7,2.0
437.0,45.7,48.1,45.3,46.4,1.5
437.5,45.8,48.3,44.7,46.3,1.9
438.0,44.9,47.9,45.5,46.1,1.6
438.5,45.4,48.7,44.9,46.3,2.1
439.0,45.6,47.6,44.3,45.8,1.6
439.5,44.8,47.0,44.6,45.5,1.4
440.0,44.1,46.9,44.3,45.1,1.6
440.5,44.6,46.2,43.6,44.8,1.3
441.0,43.6,46.9,42.9,44.5,2.1
441.5,43.6,46.8,42.9,44.5,2.1
442.0,44.5,45.8,42.1,44.2,1.9
442.5,43.6,46.2,42.6,44.1,1.8
443.0,43.6,46.0,42.1,43.9,1.9
443.5,43.1,45.1,42.5,43.6,1.4
444.0,43.5,46.0,41.4,43.6,2.3
444.5,44.1,45.5,42.0,43.9,1.8
445.0,43.5,44.8,41.3,43.2,1.8
445.5,43.2,44.3,41.0,42.8,1.7
446.0,43.0,44.4,40.9,42.8,1.8
446.5,42.8,44.1,40.8,42.6,1.7
447.0,43.1,44.2,40.4,42.5,1.9
447.5,42.8,43.4,39.6,42.0,2.0
448.0,42.6,43.2,39.6,41.8,1.9
448.5,42.3,43.5,39.3,41.7,2.1
449.0,42.0,43.5,38.9,41.5,2.4
449.5,41.9,42.9,38.6,41.1,2.3
450.0,41.9,42.9,37.8,40.9,2.7
450.5,40.9,42.5,38.2,40.5,2.1
451.0,41.2,42.4,38.5,40.7,2.0
451.5,41.3,42.5,37.7,40.5,2.5
452.0,40.9,42.3,38.1,40.4,2.1
452.5,40.6,42.3,37.5,40.1,2.4
453.0,40.3,42.0,37.3,39.9,2.3
453.5,40.4,41.8,37.6,40.0,2.1
454.0,39.8,41.0,37.6,39.4,1.7
454.5,40.0,41.4,37.2,39.5,2.1
455.0,39.1,41.9,36.8,39.2,2.6
455.5,39.8,41.7,36.6,39.4,2.6
456.0,39.2,42.4,36.7,39.4,2.8
456.5,39.1,41.2,35.8,38.7,2.7
457.0,39.8,41.3,35.9,39.0,2.8
457.5,39.4,41.4,35.4,38.8,3.1
458.0,38.4,41.3,35.2,38.3,3.1
458.5,39.1,41.4,34.9,38.5,3.3
459.0,38.9,42.1,34.7,38.6,3.7
459.5,39.9,41.5,34.4,38.6,3.7
460.0,39.5,41.6,33.9,38.3,4.0
460.5,39.4,41.8,33.3,38.2,4.4
461.0,39.3,42.4,33.1,38.3,4.7
461.5,40.5,41.6,33.0,38.3,4.7
462.0,40.8,41.8,33.2,38.6,4.7
462.5,40.1,42.0,32.4,38.2,5.1
463.0,40.2,41.8,32.5,38.2,5.0
463.5,40.5,41.8,31.6,38.0,5.6
464.0,40.7,41.9,31.6,38.1,5.6
464.5,40.6,41.2,31.2,37.7,5.6
465.0,40.1,42.0,31.1,37.7,5.8
465.5,39.9,41.8,30.9,37.5,5.8
466.0,40.9,42.0,31.1,38.0,6.0
466.5,40.6,41.9,30.6,37.7,6.2
467.0,40.2,41.5,30.9,37.5,5.8
467.5,40.1,41.5,30.2,37.3,6.2
468.0,40.6,41.6,30.2,37.5,6.3
468.5,40.0,41.6,30.2,37.3,6.2
469.0,40.6,41.5,30.1,37.4,6.3
469.5,40.7,41.5,29.4,37.2,6.8
470.0,40.9,41.6,29.0,37.2,7.1
470.5,40.2,42.3,29.0,37.2,7.1
471.0,41.1,41.5,28.3,37.0,7.5
471.5,41.1,41.3,28.0,36.8,7.7
472.0,40.4,42.0,28.4,36.9,7.4
472.5,40.0,41.4,27.9,36.4,7.4
473.0,40.5,41.8,27.7,36.7,7.8
473.5,41.3,41.8,27.1,36.7,8.3
474.0,41.4,41.7,27.0,36.7,8.4
474.5,41.8,41.2,26.5,36.5,8.7
475.0,41.6,42.0,25.9,36.5,9.2
475.5,41.8,41.5,25.5,36.3,9.3
476.0,42.2,41.6,25.3,36.4,9.6
476.5,42.0,42.5,25.3,36.6,9.8
477.0,42.3,41.7,24.5,36.2,10.1
477.5,42.8,42.1,24.5,36.5,10.4
478.0,42.0,41.4,24.1,35.8,10.1
478.5,43.0,41.4,23.9,36.1,10.6
479.0,42.6,41.4,23.5,35.8,10.7
479.5,43.3,41.6,23.6,36.2,10.9
480.0,43.5,40.6,23.2,35.8,11.0
480.5,43.8,40.2,23.4,35.8,10.9
481.0,43.8,40.8,23.1,35.9,11.2
481.5,43.7,40.8,22.9,35.8,11.3
482.0,43.9,41.0,22.6,35.8,11.6
482.5,45.2,40.7,22.6,36.2,12.0
483.0,45.2,40.9,22.3,36.1,12.2
483.5,45.9,40.8,22.4,36.4,12.4
484.0,45.0,40.7,21.8,35.9,12.3
484.5,46.2,40.5,21.7,36.1,12.8
485.0,45.8,40.5,21.6,36.0,12.7
485.5,45.8,40.4,21.4,35.8,12.8
486.0,45.8,40.2,21.4,35.8,12.8
486.5,46.3,39.9,,43.1,4.5
487.0,45.6,39.6,,42.6,4.2
487.5,45.8,40.1,,43.0,4.0
488.0,47.0,39.3,,43.2,5.4
488.5,46.7,40.2,,43.4,4.6
489.0,46.5,39.1,,42.8,5.2
489.5,47.9,39.2,,43.5,6.1
490.0,47.5,39.1,,43.3,6.0
490.5,47.7,38.4,,43.0,6.6
491.0,47.4,38.3,,42.8,6.4
491.5,47.1,39.0,,43.1,5.7
492.0,47.7,38.1,,42.9,6.8
492.5,47.5,39.2,,43.3,5.9
493.0,48.6,38.3,,43.4,7.3
493.5,49.2,38.3,,43.8,7.7
494.0,49.5,38.4,,44.0,7.8
494.5,49.2,38.2,,43.7,7.8
495.0,49.2,38.7,,44.0,7.4
495.5,49.1,38.3,,43.7,7.6
496.0,50.2,38.6,,44.4,8.2
496.5,50.0,38.1,,44.1,8.4
497.0,50.0,38.6,,44.3,8.0
497.5,50.3,38.3,,44.3,8.5
498.0,50.7,38.4,,44.5,8.7
498.5,51.4,38.6,,45.0,9.1
499.0,50.9,38.0,,44.5,9.2
499.5,52.5,39.0,,45.8,9.6
500.0,51.3,38.2,,44.8,9.3
500.5,51.7,38.8,,45.2,9.1
501.0,52.0,39.2,,45.6,9.0
501.5,52.8,38.7,,45.8,10.0
502.0,51.7,38.6,,45.2,9.3
502.5,51.6,38.1,,44.8,9.5
503.0,52.3,38.8,,45.6,9.6
503.5,52.4,38.5,,45.5,9.8
504.0,52.7,38.2,,45.4,10.3
504.5,52.0,38.5,,45.3,9.5
505.0,52.9,38.0,,45.5,10.6
505.5,52.6,37.4,,45.0,10.7
506.0,52.8,38.0,,45.4,10.5
506.5,52.4,37.7,,45.0,10.4
507.0,52.0,37.7,,44.8,10.1
507.5,52.1,37.4,,44.8,10.4
508.0,53.2,37.6,,45.4,11.0
508.5,52.8,37.2,,45.0,11.0
509.0,53.4,36.4,,44.9,12.0
509.5,53.8,36.3,,45.1,12.4
510.0,53.3,36.2,,44.8,12.1
510.5,53.2,36.3,,44.8,11.9
511.0,53.5,36.4,,44.9,12.1
511.5,54.3,36.5,,45.4,12.5
512.0,54.7,35.9,,45.3,13.3
512.5,54.4,36.2,,45.3,12.9
513.0,54.7,35.5,,45.1,13.6
513.5,54.9,34.9,,44.9,14.2
514.0,55.6,35.2,,45.4,14.5
514.5,56.5,34.4,,45.5,15.6
515.0,56.2,33.6,,44.9,16.0
515.5,56.5,33.8,,45.2,16.0
516.0,56.2,33.9,,45.1,15.8
516.5,56.6,33.1,,44.9,16.6
517.0,56.6,32.9,,44.7,16.7
517.5,56.5,32.9,,44.7,16.7
518.0,56.9,33.3,,45.1,16.7
518.5,56.6,32.5,,44.5,17.1
519.0,57.5,32.4,,44.9,17.7
519.5,57.6,32.1,,44.9,18.0
520.0,57.2,32.0,,44.6,17.8
520.5,57.7,32.0,,44.8,18.2
521.0,57.8,32.0,,44.9,18.2
521.5,57.8,32.1,,44.9,18.1
522.0,57.9,31.9,,44.9,18.4
522.5,57.9,31.4,,44.7,18.8
523.0,58.2,31.6,,44.9,18.8
523.5,58.3,31.4,,44.9,19.0
524.0,58.5,31.4,,44.9,19.2
524.5,58.9,30.6,,44.7,20.0
525.0,57.8,30.6,,44.2,19.3
525.5,58.4,30.2,,44.3,19.9
526.0,58.7,29.6,,44.2,20.6
526.5,57.2,30.1,,43.7,19.2
527.0,60.0,29.8,,44.9,21.4
527.5,58.0,30.5,,44.3,19.5
528.0,58.7,30.0,,44.4,20.3
528.5,58.8,29.5,,44.1,20.7
529.0,58.2,30.0,,44.1,19.9
529.5,58.6,29.1,,43.8,20.8
530.0,58.0,29.1,,43.5,20.4
530.5,58.2,28.8,,43.5,20.8
531.0,57.6,28.1,,42.8,20.9
531.5,58.1,28.1,,43.1,21.2
532.0,57.6,28.0,,42.8,20.9
532.5,57.1,27.5,,42.3,21.0
533.0,57.0,27.3,,42.2,21.0
533.5,56.7,26.9,,41.8,21.1
534.0,56.7,26.7,,41.7,21.2
534.5,56.2,26.5,,41.3,21.0
535.0,56.1,25.9,,41.0,21.3
535.5,55.4,25.7,,40.6,20.9
536.0,55.9,25.8,,40.8,21.3
536.5,54.8,25.4,,40.1,20.8
537.0,54.1,25.4,,39.8,20.3
537.5,53.5,24.5,,39.0,20.5
538.0,52.9,24.5,,38.7,20.1
538.5,51.3,24.3,,37.8,19.0
539.0,51.7,24.0,,37.8,19.5
539.5,50.4,23.7,,37.0,18.9
540.0,50.1,23.3,,36.7,19.0
540.5,49.3,23.2,,36.2,18.4
541.0,49.9,22.7,,36.3,19.2
541.5,48.9,22.6,,35.8,18.6
542.0,48.4,22.8,,35.6,18.1
542.5,47.6,22.4,,35.0,17.7
543.0,47.0,21.9,,34.5,17.7
543.5,46.7,21.9,,34.3,17.5
544.0,45.3,21.8,,33.5,16.6
544.5,45.1,21.6,,33.4,16.6
545.0,44.5,21.4,,33.0,16.3
545.5,44.1,21.1,,32.6,16.3
546.0,42.5,21.0,,31.8,15.2
546.5,41.8,21.1,,31.4,14.7
547.0,41.3,20.3,,30.8,14.8
547.5,40.0,20.7,,30.4,13.6
548.0,40.0,20.1,,30.1,14.0
548.5,39.0,20.1,,29.5,13.4
549.0,37.8,19.8,,28.8,12.7
549.5,37.3,19.6,,28.4,12.5
550.0,35.5,19.4,,27.5,11.4
550.5,35.0,19.1,,27.1,11.2
551.0,34.3,19.0,,26.6,10.8
551.5,32.7,19.1,,25.9,9.6
552.0,31.4,19.0,,25.2,8.8
552.5,30.7,18.3,,24.5,8.8
553.0,30.3,18.0,,24.1,8.7
553.5,29.4,17.7,,23.6,8.3
554.0,29.0,17.5,,23.3,8.1
554.5,27.7,17.4,,22.5,7.3
555.0,26.9,16.9,,21.9,7.0
555.5,26.1,16.8,,21.4,6.6
556.0,25.6,16.1,,20.9,6.7
556.5,25.0,16.5,,20.7,6.0
557.0,24.6,16.0,,20.3,6.1
557.5,23.6,15.6,,19.6,5.7
558.0,23.0,15.3,,19.2,5.4
558.5,22.4,15.1,,18.7,5.1
559.0,21.7,15.0,,18.4,4.7
559.5,20.9,14.8,,17.9,4.4
560.0,20.7,14.3,,17.5,4.6
560.5,20.3,14.2,,17.3,4.3
561.0,19.9,13.9,,16.9,4.3
561.5,19.6,,,19.6,
562.0,19.7,,,19.7,
562.5,19.2,,,19.2,
563.0,19.0,,,19.0,
563.5,18.8,,,18.8,