File: 01_Data/Black_PMMA/FTIR/IS/Black_PMMA_IS_T_221012_R1.dpt
7497.03,0.02499
7491.25,0.01809
7485.46,0.01474
7479.67,0.01913
7473.89,0.01882
7468.1,0.03096
7462.32,0.01336
7456.53,0.02182
7450.74,0.02691
7444.96,0.02795
7439.17,0.02054
7433.38,0.02158
7427.6,0.02096
7421.81,0.02113
7416.03,0.02001
7410.24,0.02612
7404.45,0.02167
7398.67,0.02297
7392.88,0.02015
7387.09,0.02547
7381.31,0.03003
7375.52,0.02047
7369.74,0.02404
7363.95,0.02786
7358.16,0.01832
7352.38,0.02757
7346.59,0.02870
7340.8,0.02777
7335.02,0.02780
7329.23,0.01359
7323.45,0.02097
7317.66,0.02211
7311.87,0.02427
7306.09,0.02284
7300.3,0.01816
7294.51,0.01989
7288.73,0.02756
7282.94,0.02606
7277.16,0.02053
7271.37,0.02440
7265.58,0.02435
7259.8,0.02583
7254.01,0.01734
7248.22,0.02775
7242.44,0.03014
7236.65,0.02073
7230.87,0.01745
7225.08,0.02912
7219.29,0.02256
7213.51,0.02747
7207.72,0.03351
7201.93,0.02256
7196.15,0.02019
7190.36,0.02213
7184.58,0.01878
7178.79,0.02434
7173,0.02462
7167.22,0.02298
7161.43,0.02152
7155.65,0.02528
7149.86,0.02178
7144.07,0.02126
7138.29,0.02782
7132.5,0.02687
7126.71,0.02094
7120.93,0.02220
7115.14,0.01766
7109.36,0.02567
7103.57,0.02446
7097.78,0.01914
7092,0.02337
7086.21,0.02840
7080.42,0.02073
7074.64,0.02780
7068.85,0.01864
7063.07,0.01761
7057.28,0.02577
7051.49,0.02240
7045.71,0.02514
7039.92,0.02238
7034.13,0.02071
7028.35,0.02539
7022.56,0.02366
7016.78,0.02477
7010.99,0.02641
7005.2,0.02373
6999.42,0.02258
6993.63,0.01773
6987.84,0.02545
6982.06,0.02529
6976.27,0.02351
6970.49,0.02306
6964.7,0.02323
6958.91,0.02735
6953.13,0.02301
6947.34,0.02340
6941.55,0.02351
6935.77,0.02333
6929.98,0.01888
6924.2,0.01837
6918.41,0.02540
6912.62,0.02076
6906.84,0.02032
6901.05,0.01731
6895.26,0.02781
6889.48,0.02436
6883.69,0.02761
6877.91,0.02242
6872.12,0.02295
6866.33,0.02350
6860.55,0.02160
6854.76,0.02141
6848.97,0.02357
6843.19,0.02021
6837.4,0.02377
6831.62,0.02406
6825.83,0.01995
6820.04,0.02387
6814.26,0.02346
6808.47,0.02325
6802.68,0.02468
6796.9,0.02357
6791.11,0.02247
6785.33,0.02211
6779.54,0.01956
6773.75,0.01993
6767.97,0.01939
6762.18,0.01877
6756.39,0.01798
6750.61,0.02204
6744.82,0.02849
6739.04,0.01787
6733.25,0.02543
6727.46,0.02856
6721.68,0.02589
6715.89,0.02490
6710.1,0.02627
6704.32,0.01958
6698.53,0.02050
6692.75,0.01864
6686.96,0.02252
6681.17,0.02036
6675.39,0.02355
6669.6,0.02641
6663.82,0.01986
6658.03,0.01669
6652.24,0.02283
6646.46,0.02365
6640.67,0.02763
6634.88,0.01721
6629.1,0.01892
6623.31,0.02446
6617.53,0.01845
6611.74,0.01569
6605.95,0.01997
6600.17,0.02016
6594.38,0.02240
6588.59,0.01821
6582.81,0.02590
6577.02,0.02437
6571.24,0.02299
6565.45,0.02131
6559.66,0.02491
6553.88,0.02131
6548.09,0.01711
6542.3,0.01683
6536.52,0.01551
6530.73,0.02168
6524.95,0.02037
6519.16,0.02142
6513.37,0.02454
6507.59,0.02111
6501.8,0.02221
6496.01,0.02267
6490.23,0.02091
6484.44,0.02122
6478.66,0.02240
6472.87,0.02359
6467.08,0.02224
6461.3,0.01853
6455.51,0.02347
6449.72,0.02525
6443.94,0.02064
6438.15,0.02319
6432.37,0.02501
6426.58,0.02072
6420.79,0.01994
6415.01,0.01738
6409.22,0.02072
6403.43,0.02173
6397.65,0.02358
6391.86,0.02412
6386.08,0.02421
6380.29,0.02100
6374.5,0.02160
6368.72,0.02007
6362.93,0.02460
6357.14,0.02227
6351.36,0.01783
6345.57,0.01959
6339.79,0.01951
6334,0.02018
6328.21,0.02080
6322.43,0.01828
6316.64,0.02181
6310.85,0.02725
6305.07,0.02316
6299.28,0.02275
6293.5,0.01932
6287.71,0.02470
6281.92,0.02366
6276.14,0.02220
6270.35,0.02259
6264.56,0.02520
6258.78,0.02079
6252.99,0.01972
6247.21,0.02152
6241.42,0.02245
6235.63,0.02293
6229.85,0.02108
6224.06,0.01884
6218.27,0.01986
6212.49,0.02411
6206.7,0.02603
6200.92,0.02281
6195.13,0.02067
6189.34,0.02293
6183.56,0.01847
6177.77,0.01858
6171.98,0.02177
6166.2,0.01813
6160.41,0.02276
6154.63,0.01934
6148.84,0.02043
6143.05,0.02306
6137.27,0.01743
6131.48,0.01927
6125.7,0.01761
6119.91,0.01816
6114.12,0.02342
6108.34,0.02182
6102.55,0.02340
6096.76,0.02105
6090.98,0.02173
6085.19,0.01925
6079.41,0.02226
6073.62,0.02327
6067.83,0.02112
6062.05,0.02123
6056.26,0.02321
6050.47,0.01698
6044.69,0.01943
6038.9,0.02284
6033.12,0.02130
6027.33,0.02026
6021.54,0.02026
6015.76,0.02161
6009.97,0.02048
6004.18,0.02369
5998.4,0.02052
5992.61,0.01910
5986.83,0.02044
5981.04,0.02312
5975.25,0.02649
5969.47,0.01937
5963.68,0.02344
5957.89,0.01966
5952.11,0.01873
5946.32,0.02283
5940.54,0.02246
5934.75,0.02214
5928.96,0.01985
5923.18,0.02190
5917.39,0.02010
5911.6,0.02233
5905.82,0.02360
5900.03,0.02031
5894.25,0.02026
5888.46,0.02145
5882.67,0.02068
5876.89,0.01987
5871.1,0.02172
5865.31,0.02108
5859.53,0.01912
5853.74,0.01654
5847.96,0.01990
5842.17,0.02052
5836.38,0.01774
5830.6,0.01998
5824.81,0.02351
5819.02,0.02134
5813.24,0.02229
5807.45,0.02105
5801.67,0.01889
5795.88,0.02184
5790.09,0.02119
5784.31,0.01929
5778.52,0.01914
5772.73,0.02205
5766.95,0.02166
5761.16,0.01974
5755.38,0.02090
5749.59,0.02103
5743.8,0.02115
5738.02,0.01765
5732.23,0.02293
5726.44,0.02175
5720.66,0.02073
5714.87,0.02047
5709.09,0.02048
5703.3,0.02106
5697.51,0.02094
5691.73,0.02077
5685.94,0.02236
5680.15,0.01928
5674.37,0.02032
5668.58,0.02026
5662.8,0.02234
5657.01,0.02113
5651.22,0.02035
5645.44,0.02216
5639.65,0.01970
5633.87,0.02119
5628.08,0.02311
5622.29,0.02041
5616.51,0.02112
5610.72,0.02225
5604.93,0.02036
5599.15,0.02042
5593.36,0.02055
5587.58,0.02138
5581.79,0.02140
5576,0.02131
5570.22,0.02101
5564.43,0.02071
5558.64,0.02121
5552.86,0.02180
5547.07,0.02125
5541.29,0.02053
5535.5,0.02200
5529.71,0.02134
5523.93,0.02195
5518.14,0.02114
5512.35,0.02001
5506.57,0.02140
5500.78,0.02173
5495,0.02109
5489.21,0.02338
5483.42,0.02112
5477.64,0.02296
5471.85,0.02086
5466.06,0.02077
5460.28,0.02202
5454.49,0.02160
5448.71,0.02392
5442.92,0.02053
5437.13,0.02172
5431.35,0.02075
5425.56,0.02022
5419.77,0.02377
5413.99,0.02402
5408.2,0.02074
5402.42,0.02330
5396.63,0.02155
5390.84,0.02046
5385.06,0.02098
5379.27,0.02011
5373.48,0.02123
5367.7,0.02044
5361.91,0.02217
5356.13,0.02168
5350.34,0.02138
5344.55,0.02049
5338.77,0.02166
5332.98,0.02168
5327.19,0.02184
5321.41,0.02049
5315.62,0.02049
5309.84,0.02057
5304.05,0.02126
5298.26,0.02141
5292.48,0.02109
5286.69,0.02162
5280.9,0.02224
5275.12,0.02130
5269.33,0.01906
5263.55,0.02095
5257.76,0.01950
5251.97,0.02056
5246.19,0.02158
5240.4,0.02050
5234.61,0.02094
5228.83,0.02047
5223.04,0.02104
5217.26,0.02141
5211.47,0.02138
5205.68,0.02258
5199.9,0.02149
5194.11,0.02037
5188.32,0.02094
5182.54,0.02087
5176.75,0.02096
5170.97,0.01987
5165.18,0.02196
5159.39,0.02282
5153.61,0.02130
5147.82,0.02159
5142.03,0.02179
5136.25,0.02135
5130.46,0.02093
5124.68,0.02038
5118.89,0.02187
5113.1,0.01971
5107.32,0.02000
5101.53,0.02032
5095.75,0.02206
5089.96,0.02226
5084.17,0.02151
5078.39,0.02190
5072.6,0.02227
5066.81,0.02255
5061.03,0.02079
5055.24,0.02054
5049.46,0.02190
5043.67,0.02211
5037.88,0.02156
5032.1,0.02046
5026.31,0.02180
5020.52,0.02187
5014.74,0.02062
5008.95,0.02200
5003.17,0.02164
4997.38,0.02107
4991.59,0.02142
4985.81,0.02221
4980.02,0.02345
4974.23,0.02151
4968.45,0.02164
4962.66,0.02046
4956.88,0.01993
4951.09,0.02253
4945.3,0.02123
4939.52,0.02220
4933.73,0.02167
4927.94,0.02188
4922.16,0.02146
4916.37,0.02105
4910.59,0.02091
4904.8,0.02234
4899.01,0.02124
4893.23,0.02170
4887.44,0.02235
4881.65,0.02175
4875.87,0.02156
4870.08,0.02050
4864.3,0.02126
4858.51,0.02133
4852.72,0.02068
4846.94,0.02092
4841.15,0.02150
4835.36,0.02098
4829.58,0.02249
4823.79,0.02164
4818.01,0.02199
4812.22,0.02143
4806.43,0.02176
4800.65,0.02223
4794.86,0.02154
4789.07,0.02104
4783.29,0.02183
4777.5,0.02282
4771.72,0.02065
4765.93,0.02139
4760.14,0.02103
4754.36,0.02068
4748.57,0.02148
4742.78,0.02262
4737,0.02233
4731.21,0.02125
4725.43,0.02066
4719.64,0.02087
4713.85,0.02205
4708.07,0.02237
4702.28,0.02170
4696.49,0.02275
4690.71,0.02066
4684.92,0.02156
4679.14,0.02234
4673.35,0.02239
4667.56,0.02133
4661.78,0.02178
4655.99,0.02122
4650.2,0.02196
4644.42,0.02134
4638.63,0.02174
4632.85,0.02250
4627.06,0.02168
4621.27,0.02107
4615.49,0.02133
4609.7,0.02192
4603.92,0.02172
4598.13,0.02210
4592.34,0.02214
4586.56,0.02165
4580.77,0.02155
4574.98,0.02284
4569.2,0.02141
4563.41,0.02204
4557.63,0.02218
4551.84,0.02249
4546.05,0.02241
4540.27,0.02236
4534.48,0.02217
4528.69,0.02118
4522.91,0.02160
4517.12,0.02189
4511.34,0.02169
4505.55,0.02044
4499.76,0.02169
4493.98,0.02243
4488.19,0.02121
4482.4,0.02100
4476.62,0.02070
4470.83,0.02173
4465.05,0.02161
4459.26,0.02129
4453.47,0.02190
4447.69,0.02097
4441.9,0.02102
4436.11,0.02169
4430.33,0.02183
4424.54,0.02175
4418.76,0.02103
4412.97,0.02201
4407.18,0.02139
4401.4,0.02142
4395.61,0.02106
4389.82,0.02162
4384.04,0.02217
4378.25,0.02081
4372.47,0.02167
4366.68,0.02177
4360.89,0.02259
4355.11,0.02199
4349.32,0.02122
4343.53,0.02137
4337.75,0.02288
4331.96,0.02178
4326.18,0.02138
4320.39,0.02157
4314.6,0.02276
4308.82,0.02147
4303.03,0.02214
4297.24,0.02167
4291.46,0.02163
4285.67,0.02131
4279.89,0.02187
4274.1,0.02143
4268.31,0.02167
4262.53,0.02114
4256.74,0.02242
4250.95,0.02190
4245.17,0.02209
4239.38,0.02210
4233.6,0.02215
4227.81,0.02137
4222.02,0.02189
4216.24,0.02228
4210.45,0.02133
4204.66,0.02181
4198.88,0.02258
4193.09,0.02134
4187.31,0.02192
4181.52,0.02135
4175.73,0.02325
4169.95,0.02153
4164.16,0.02227
4158.37,0.02121
4152.59,0.02170
4146.8,0.02198
4141.02,0.02144
4135.23,0.02107
4129.44,0.02187
4123.66,0.02192
4117.87,0.02181
4112.09,0.02194
4106.3,0.02082
4100.51,0.02234
4094.73,0.02133
4088.94,0.02213
4083.15,0.02228
4077.37,0.02248
4071.58,0.02224
4065.8,0.02221
4060.01,0.02210
4054.22,0.02209
4048.44,0.02203
4042.65,0.02205
4036.86,0.02255
4031.08,0.02191
4025.29,0.02220
4019.51,0.02177
4013.72,0.02202
4007.93,0.02229
4002.15,0.02199
3996.36,0.02205
3990.57,0.02161
3984.79,0.02189
3979,0.02168
3973.22,0.02198
3967.43,0.02228
3961.64,0.02233
3955.86,0.02261
3950.07,0.02269
3944.28,0.02167
3938.5,0.02197
3932.71,0.02259
3926.93,0.02176
3921.14,0.02235
3915.35,0.02162
3909.57,0.02180
3903.78,0.02121
3897.99,0.02260
3892.21,0.02216
3886.42,0.02241
3880.64,0.02186
3874.85,0.02169
3869.06,0.02224
3863.28,0.02184
3857.49,0.02162
3851.7,0.02166
3845.92,0.02234
3840.13,0.02285
3834.35,0.02213
3828.56,0.02225
3822.77,0.02290
3816.99,0.02343
3811.2,0.02245
3805.41,0.02289
3799.63,0.02201
3793.84,0.02240
3788.06,0.02230
3782.27,0.02194
3776.48,0.02184
3770.7,0.02231
3764.91,0.02276
3759.12,0.02290
3753.34,0.02312
3747.55,0.02225
3741.77,0.02265
3735.98,0.02238
3730.19,0.02255
3724.41,0.02345
3718.62,0.02232
3712.83,0.02290
3707.05,0.02207
3701.26,0.02211
3695.48,0.02223
3689.69,0.02125
3683.9,0.02161
3678.12,0.02244
3672.33,0.02173
3666.54,0.02210
3660.76,0.02235
3654.97,0.02169
3649.19,0.02158
3643.4,0.02150
3637.61,0.02140
3631.83,0.02147
3626.04,0.02151
3620.25,0.02167
3614.47,0.02151
3608.68,0.02139
3602.9,0.02061
3597.11,0.02102
3591.32,0.02126
3585.54,0.02200
3579.75,0.02061
3573.97,0.02087
3568.18,0.02120
3562.39,0.02063
3556.61,0.02133
3550.82,0.02151
3545.03,0.02100
3539.25,0.02051
3533.46,0.02030
3527.68,0.02101
3521.89,0.02046
3516.1,0.02093
3510.32,0.02060
3504.53,0.02086
3498.74,0.02071
3492.96,0.02060
3487.17,0.02016
3481.39,0.02023
3475.6,0.02083
3469.81,0.02011
3464.03,0.02022
3458.24,0.01974
3452.45,0.02025
3446.67,0.02073
3440.88,0.02097
3435.1,0.01944
3429.31,0.02095
3423.52,0.02027
3417.74,0.01979
3411.95,0.01966
3406.16,0.02073
3400.38,0.02096
3394.59,0.02020
3388.81,0.01996
3383.02,0.02062
3377.23,0.02054
3371.45,0.02030
3365.66,0.02047
3359.87,0.02020
3354.09,0.02012
3348.3,0.01920
3342.52,0.01917
3336.73,0.02030
3330.94,0.01966
3325.16,0.02003
3319.37,0.01909
3313.58,0.02019
3307.8,0.01983
3302.01,0.01973
3296.23,0.02013
3290.44,0.01954
3284.65,0.01991
3278.87,0.02064
3273.08,0.02016
3267.29,0.01894
3261.51,0.01979
3255.72,0.02014
3249.94,0.01968
3244.15,0.02066
3238.36,0.02066
3232.58,0.01933
3226.79,0.02079
3221,0.02075
3215.22,0.02044
3209.43,0.02003
3203.65,0.02038
3197.86,0.02053
3192.07,0.02023
3186.29,0.02052
3180.5,0.02001
3174.71,0.02040
3168.93,0.02100
3163.14,0.02081
3157.36,0.02081
3151.57,0.02059
3145.78,0.02078
3140,0.02037
3134.21,0.02037
3128.42,0.02070
3122.64,0.02052
3116.85,0.02042
3111.07,0.02088
3105.28,0.02127
3099.49,0.02081
3093.71,0.01988
3087.92,0.02041
3082.14,0.02099
3076.35,0.01980
3070.56,0.02028
3064.78,0.02036
3058.99,0.02039
3053.2,0.02089
3047.42,0.01992
3041.63,0.02034
3035.85,0.02001
3030.06,0.01986
3024.27,0.02060
3018.49,0.02008
3012.7,0.02035
3006.91,0.02005
3001.13,0.01989
2995.34,0.02042
2989.56,0.01984
2983.77,0.01963
2977.98,0.01982
2972.2,0.01971
2966.41,0.01941
2960.62,0.01925
2954.84,0.01959
2949.05,0.01879
2943.27,0.01930
2937.48,0.01956
2931.69,0.02014
2925.91,0.01980
2920.12,0.01978
2914.33,0.01992
2908.55,0.01996
2902.76,0.02054
2896.98,0.01988
2891.19,0.02009
2885.4,0.02032
2879.62,0.01996
2873.83,0.02065
2868.04,0.02029
2862.26,0.01997
2856.47,0.02048
2850.69,0.02054
2844.9,0.02045
2839.11,0.02106
2833.33,0.02106
2827.54,0.02111
2821.75,0.02118
2815.97,0.02138
2810.18,0.02112
2804.4,0.02120
2798.61,0.02108
2792.82,0.02098
2787.04,0.02096
2781.25,0.02091
2775.46,0.02128
2769.68,0.02092
2763.89,0.02136
2758.11,0.02093
2752.32,0.02113
2746.53,0.02097
2740.75,0.02098
2734.96,0.02131
2729.17,0.02089
2723.39,0.02118
2717.6,0.02123
2711.82,0.02128
2706.03,0.02159
2700.24,0.02109
2694.46,0.02098
2688.67,0.02086
2682.88,0.02127
2677.1,0.02050
2671.31,0.02087
2665.53,0.02100
2659.74,0.02115
2653.95,0.02110
2648.17,0.02086
2642.38,0.02118
2636.59,0.02120
2630.81,0.02114
2625.02,0.02116
2619.24,0.02128
2613.45,0.02103
2607.66,0.02103
2601.88,0.02093
2596.09,0.02137
2590.3,0.02096
2584.52,0.02116
2578.73,0.02093
2572.95,0.02136
2567.16,0.02132
2561.37,0.02119
2555.59,0.02110
2549.8,0.02111
2544.02,0.02096
2538.23,0.02114
2532.44,0.02113
2526.66,0.02142
2520.87,0.02090
2515.08,0.02104
2509.3,0.02089
2503.51,0.02108
2497.73,0.02133
2491.94,0.02105
2486.15,0.02066
2480.37,0.02124
2474.58,0.02085
2468.79,0.02131
2463.01,0.02087
2457.22,0.02119
2451.44,0.02114
2445.65,0.02046
2439.86,0.02107
2434.08,0.02153
2428.29,0.02161
2422.5,0.02132
2416.72,0.02114
2410.93,0.02060
2405.15,0.02100
2399.36,0.02078
2393.57,0.02140
2387.79,0.02080
2382,0.02126
2376.21,0.02147
2370.43,0.02191
2364.64,0.02280
2358.86,0.02239
2353.07,0.02205
2347.28,0.02219
2341.5,0.02265
2335.71,0.02262
2329.92,0.02244
2324.14,0.02226
2318.35,0.02171
2312.57,0.02134
2306.78,0.02133
2300.99,0.02118
2295.21,0.02096
2289.42,0.02083
2283.63,0.02081
2277.85,0.02088
2272.06,0.02106
2266.28,0.02108
2260.49,0.02118
2254.7,0.02095
2248.92,0.02109
2243.13,0.02106
2237.34,0.02133
2231.56,0.02114
2225.77,0.02126
2219.99,0.02089
2214.2,0.02043
2208.41,0.02106
2202.63,0.02119
2196.84,0.02091
2191.05,0.02119
2185.27,0.02098
2179.48,0.02096
2173.7,0.02089
2167.91,0.02096
2162.12,0.02097
2156.34,0.02067
2150.55,0.02117
2144.76,0.02098
2138.98,0.02064
2133.19,0.02101
2127.41,0.02085
2121.62,0.02094
2115.83,0.02107
2110.05,0.02073
2104.26,0.02101
2098.47,0.02087
2092.69,0.02117
2086.9,0.02059
2081.12,0.02054
2075.33,0.02062
2069.54,0.02052
2063.76,0.02099
2057.97,0.02078
2052.19,0.02080
2046.4,0.02068
2040.61,0.02079
2034.83,0.02065
2029.04,0.02104
2023.25,0.02103
2017.47,0.02098
2011.68,0.02101
2005.9,0.02068
2000.11,0.02089
1994.32,0.02047
1988.54,0.02038
1982.75,0.02059
1976.96,0.02076
1971.18,0.02077
1965.39,0.02037
1959.61,0.02087
1953.82,0.02082
1948.03,0.02073
1942.25,0.02069
1936.46,0.02064
1930.67,0.02060
1924.89,0.02054
1919.1,0.02057
1913.32,0.02063
1907.53,0.02044
1901.74,0.02050
1895.96,0.02079
1890.17,0.02076
1884.38,0.02023
1878.6,0.02040
1872.81,0.02003
1867.03,0.02035
1861.24,0.02046
1855.45,0.02019
1849.67,0.02029
1843.88,0.02050
1838.09,0.02040
1832.31,0.02023
1826.52,0.02022
1820.74,0.01994
1814.95,0.02001
1809.16,0.01981
1803.38,0.01966
1797.59,0.01945
1791.8,0.01997
1786.02,0.01921
1780.23,0.01918
1774.45,0.01893
1768.66,0.01879
1762.87,0.01822
1757.09,0.01790
1751.3,0.01751
1745.51,0.01792
1739.73,0.01868
1733.94,0.01985
1728.16,0.02067
1722.37,0.02070
1716.58,0.02146
1710.8,0.02110
1705.01,0.02018
1699.22,0.02023
1693.44,0.01954
1687.65,0.01950
1681.87,0.01861
1676.08,0.01869
1670.29,0.01887
1664.51,0.01890
1658.72,0.01845
1652.93,0.01795
1647.15,0.01860
1641.36,0.01855
1635.58,0.01893
1629.79,0.01877
1624,0.01905
1618.22,0.01935
1612.43,0.01900
1606.64,0.01847
1600.86,0.01889
1595.07,0.01877
1589.29,0.01878
1583.5,0.01807
1577.71,0.01857
1571.93,0.01847
1566.14,0.01806
1560.35,0.01838
1554.57,0.01796
1548.78,0.01852
1543,0.01870
1537.21,0.01828
1531.42,0.01853
1525.64,0.01872
1519.85,0.01886
1514.07,0.01876
1508.28,0.01884
1502.49,0.01851
1496.71,0.01888
1490.92,0.01916
1485.13,0.01881
1479.35,0.01850
1473.56,0.01874
1467.78,0.01844
1461.99,0.01839
1456.2,0.01876
1450.42,0.01861
1444.63,0.01892
1438.84,0.01896
1433.06,0.01898
1427.27,0.01904
1421.49,0.01904
1415.7,0.01890
1409.91,0.01867
1404.13,0.01843
1398.34,0.01820
1392.55,0.01856
1386.77,0.01806
1380.98,0.01852
1375.2,0.01879
1369.41,0.01866
1363.62,0.01831
1357.84,0.01832
1352.05,0.01796
1346.26,0.01773
1340.48,0.01820
1334.69,0.01773
1328.91,0.01753
1323.12,0.01756
1317.33,0.01717
1311.55,0.01689
1305.76,0.01725
1299.97,0.01744
1294.19,0.01784
1288.4,0.01824
1282.62,0.01892
1276.83,0.01929
1271.04,0.01987
1265.26,0.01949
1259.47,0.02000
1253.68,0.02060
1247.9,0.02036
1242.11,0.02011
1236.33,0.02013
1230.54,0.01991
1224.75,0.01955
1218.97,0.01973
1213.18,0.01966
1207.39,0.01866
1201.61,0.01841
1195.82,0.01853
1190.04,0.01833
1184.25,0.01829
1178.46,0.01797
1172.68,0.01767
1166.89,0.01780
1161.1,0.01765
1155.32,0.01770
1149.53,0.01749
1143.75,0.01794
1137.96,0.01784
1132.17,0.01825
1126.39,0.01836
1120.6,0.01822
1114.81,0.01934
1109.03,0.01924
1103.24,0.01826
1097.46,0.01817
1091.67,0.01787
1085.88,0.01849
1080.1,0.01886
1074.31,0.01907
1068.52,0.01892
1062.74,0.01987
1056.95,0.01984
1051.17,0.01976
1045.38,0.01908
1039.59,0.01898
1033.81,0.01910
1028.02,0.01927
1022.24,0.01947
1016.45,0.01997
1010.66,0.01953
1004.88,0.01987
999.09,0.02126
993.304,0.02064
987.518,0.02081
981.731,0.02031
975.945,0.02074
970.159,0.02051
964.373,0.01971
958.586,0.02041
952.8,0.01984
947.014,0.01961
941.228,0.01952
935.441,0.01973
929.655,0.01950
923.869,0.01926
918.083,0.01936
912.297,0.01874
906.51,0.01910
900.724,0.01883
894.938,0.01893
889.152,0.01863
883.365,0.01907
877.579,0.01868
871.793,0.01849
866.007,0.01878
860.22,0.01885
854.434,0.01969
848.648,0.01951
842.862,0.01860
837.075,0.01806
831.289,0.01788
825.503,0.01854
819.717,0.01880
813.931,0.01829
808.144,0.01879
802.358,0.01873
796.572,0.01806
790.786,0.01836
784.999,0.01863
779.213,0.01876
773.427,0.01810
767.641,0.01742
761.854,0.01815
756.068,0.01757
750.282,0.01707
744.496,0.01842
738.709,0.01887
732.923,0.01823
727.137,0.01834
721.351,0.01743
715.565,0.01734
709.778,0.01714
703.992,0.01723
698.206,0.01810
692.42,0.01785
686.633,0.01727
680.847,0.01793
675.061,0.01728
669.275,0.01720
663.488,0.01757
657.702,0.01649
651.916,0.01678
646.13,0.01604
640.343,0.01478
634.557,0.01706
628.771,0.01486
622.985,0.01510
617.198,0.01711
611.412,0.01770
605.626,0.01637
599.84,0.01662