File: 01_Data/Black_PMMA/FTIR/IS/Black_PMMA_IS_S_221012_R5.dpt
7497.03,0.05336
7491.25,0.05203
7485.46,0.06136
7479.67,0.05353
7473.89,0.05891
7468.1,0.05208
7462.32,0.04366
7456.53,0.05114
7450.74,0.05011
7444.96,0.05837
7439.17,0.06082
7433.38,0.04982
7427.6,0.04658
7421.81,0.05557
7416.03,0.04993
7410.24,0.04880
7404.45,0.05440
7398.67,0.04402
7392.88,0.05474
7387.09,0.05734
7381.31,0.05969
7375.52,0.05869
7369.74,0.06137
7363.95,0.05142
7358.16,0.05406
7352.38,0.05249
7346.59,0.05524
7340.8,0.04455
7335.02,0.04561
7329.23,0.05000
7323.45,0.05636
7317.66,0.05556
7311.87,0.05298
7306.09,0.04754
7300.3,0.05495
7294.51,0.05528
7288.73,0.05572
7282.94,0.05982
7277.16,0.04850
7271.37,0.04893
7265.58,0.04743
7259.8,0.04983
7254.01,0.06106
7248.22,0.05515
7242.44,0.04751
7236.65,0.05346
7230.87,0.05034
7225.08,0.05025
7219.29,0.04524
7213.51,0.04782
7207.72,0.05116
7201.93,0.04950
7196.15,0.05141
7190.36,0.05368
7184.58,0.05534
7178.79,0.05332
7173,0.05631
7167.22,0.05284
7161.43,0.05260
7155.65,0.04599
7149.86,0.04994
7144.07,0.05406
7138.29,0.05291
7132.5,0.04980
7126.71,0.05211
7120.93,0.05368
7115.14,0.05117
7109.36,0.05276
7103.57,0.04559
7097.78,0.05228
7092,0.04779
7086.21,0.04974
7080.42,0.05240
7074.64,0.05224
7068.85,0.05566
7063.07,0.05738
7057.28,0.05897
7051.49,0.05584
7045.71,0.05196
7039.92,0.05269
7034.13,0.05859
7028.35,0.05148
7022.56,0.05349
7016.78,0.05666
7010.99,0.05658
7005.2,0.04897
6999.42,0.05595
6993.63,0.05740
6987.84,0.05832
6982.06,0.05844
6976.27,0.05402
6970.49,0.05365
6964.7,0.05164
6958.91,0.05303
6953.13,0.05368
6947.34,0.05301
6941.55,0.04829
6935.77,0.05349
6929.98,0.05237
6924.2,0.04865
6918.41,0.05088
6912.62,0.05067
6906.84,0.04761
6901.05,0.05514
6895.26,0.05164
6889.48,0.05621
6883.69,0.05346
6877.91,0.04739
6872.12,0.04645
6866.33,0.04907
6860.55,0.05666
6854.76,0.05312
6848.97,0.04950
6843.19,0.05361
6837.4,0.05237
6831.62,0.05035
6825.83,0.05502
6820.04,0.05448
6814.26,0.05436
6808.47,0.05227
6802.68,0.05768
6796.9,0.05075
6791.11,0.05555
6785.33,0.04805
6779.54,0.05169
6773.75,0.05116
6767.97,0.04860
6762.18,0.05024
6756.39,0.05144
6750.61,0.05472
6744.82,0.05348
6739.04,0.05598
6733.25,0.05221
6727.46,0.05361
6721.68,0.05188
6715.89,0.05150
6710.1,0.05432
6704.32,0.05790
6698.53,0.05570
6692.75,0.05117
6686.96,0.05161
6681.17,0.05057
6675.39,0.05183
6669.6,0.05391
6663.82,0.04857
6658.03,0.05059
6652.24,0.05528
6646.46,0.05396
6640.67,0.05220
6634.88,0.05372
6629.1,0.05681
6623.31,0.05138
6617.53,0.05029
6611.74,0.05699
6605.95,0.05445
6600.17,0.05113
6594.38,0.05210
6588.59,0.05209
6582.81,0.05335
6577.02,0.04916
6571.24,0.05540
6565.45,0.05383
6559.66,0.05068
6553.88,0.05371
6548.09,0.05272
6542.3,0.05502
6536.52,0.05332
6530.73,0.05481
6524.95,0.05362
6519.16,0.04979
6513.37,0.05230
6507.59,0.04958
6501.8,0.05071
6496.01,0.05094
6490.23,0.05482
6484.44,0.05476
6478.66,0.05238
6472.87,0.05385
6467.08,0.04957
6461.3,0.04997
6455.51,0.05093
6449.72,0.05538
6443.94,0.04948
6438.15,0.05305
6432.37,0.05354
6426.58,0.05221
6420.79,0.05420
6415.01,0.05527
6409.22,0.04976
6403.43,0.04846
6397.65,0.05124
6391.86,0.05432
6386.08,0.05184
6380.29,0.05399
6374.5,0.05512
6368.72,0.05090
6362.93,0.05624
6357.14,0.05139
6351.36,0.05153
6345.57,0.05229
6339.79,0.05165
6334,0.05044
6328.21,0.05185
6322.43,0.05091
6316.64,0.04964
6310.85,0.05296
6305.07,0.05081
6299.28,0.05012
6293.5,0.05014
6287.71,0.05272
6281.92,0.05077
6276.14,0.05036
6270.35,0.05074
6264.56,0.05021
6258.78,0.05384
6252.99,0.05018
6247.21,0.04885
6241.42,0.05251
6235.63,0.05323
6229.85,0.05132
6224.06,0.05043
6218.27,0.05358
6212.49,0.05350
6206.7,0.05234
6200.92,0.05601
6195.13,0.05433
6189.34,0.04881
6183.56,0.05254
6177.77,0.05405
6171.98,0.05349
6166.2,0.05348
6160.41,0.05459
6154.63,0.05466
6148.84,0.05463
6143.05,0.05360
6137.27,0.05037
6131.48,0.05196
6125.7,0.05577
6119.91,0.05373
6114.12,0.05184
6108.34,0.04921
6102.55,0.05408
6096.76,0.05096
6090.98,0.05142
6085.19,0.05215
6079.41,0.05210
6073.62,0.05220
6067.83,0.05349
6062.05,0.05149
6056.26,0.05165
6050.47,0.05417
6044.69,0.05178
6038.9,0.05223
6033.12,0.05239
6027.33,0.05309
6021.54,0.05186
6015.76,0.05025
6009.97,0.05047
6004.18,0.05201
5998.4,0.05493
5992.61,0.05237
5986.83,0.05259
5981.04,0.04983
5975.25,0.05101
5969.47,0.05134
5963.68,0.05099
5957.89,0.04813
5952.11,0.05126
5946.32,0.05194
5940.54,0.05423
5934.75,0.05222
5928.96,0.05237
5923.18,0.05123
5917.39,0.05342
5911.6,0.05153
5905.82,0.05188
5900.03,0.05239
5894.25,0.05126
5888.46,0.04958
5882.67,0.05286
5876.89,0.05040
5871.1,0.05472
5865.31,0.05168
5859.53,0.05295
5853.74,0.05104
5847.96,0.05322
5842.17,0.05123
5836.38,0.05123
5830.6,0.05315
5824.81,0.05284
5819.02,0.05234
5813.24,0.05136
5807.45,0.05075
5801.67,0.05248
5795.88,0.05280
5790.09,0.05178
5784.31,0.05157
5778.52,0.05228
5772.73,0.05403
5766.95,0.05248
5761.16,0.05189
5755.38,0.05297
5749.59,0.05369
5743.8,0.05321
5738.02,0.05244
5732.23,0.05290
5726.44,0.05271
5720.66,0.05624
5714.87,0.05568
5709.09,0.05352
5703.3,0.05253
5697.51,0.05211
5691.73,0.05188
5685.94,0.05327
5680.15,0.05452
5674.37,0.05321
5668.58,0.05356
5662.8,0.05283
5657.01,0.05192
5651.22,0.05212
5645.44,0.05325
5639.65,0.05246
5633.87,0.05411
5628.08,0.05180
5622.29,0.05463
5616.51,0.05525
5610.72,0.05305
5604.93,0.05313
5599.15,0.05478
5593.36,0.05449
5587.58,0.05386
5581.79,0.05489
5576,0.05182
5570.22,0.05406
5564.43,0.05337
5558.64,0.05281
5552.86,0.05549
5547.07,0.05367
5541.29,0.05318
5535.5,0.05391
5529.71,0.05372
5523.93,0.05496
5518.14,0.05504
5512.35,0.05366
5506.57,0.05331
5500.78,0.05236
5495,0.05349
5489.21,0.05493
5483.42,0.05521
5477.64,0.05392
5471.85,0.05308
5466.06,0.05435
5460.28,0.05734
5454.49,0.05509
5448.71,0.05294
5442.92,0.05469
5437.13,0.05542
5431.35,0.05459
5425.56,0.05563
5419.77,0.05346
5413.99,0.05640
5408.2,0.05698
5402.42,0.05745
5396.63,0.05561
5390.84,0.05188
5385.06,0.05263
5379.27,0.05467
5373.48,0.05492
5367.7,0.05495
5361.91,0.05441
5356.13,0.05477
5350.34,0.05486
5344.55,0.05216
5338.77,0.05312
5332.98,0.05703
5327.19,0.05449
5321.41,0.05449
5315.62,0.05390
5309.84,0.05512
5304.05,0.05420
5298.26,0.05413
5292.48,0.05432
5286.69,0.05514
5280.9,0.05385
5275.12,0.05228
5269.33,0.05334
5263.55,0.05382
5257.76,0.05485
5251.97,0.05471
5246.19,0.05309
5240.4,0.05502
5234.61,0.05578
5228.83,0.05382
5223.04,0.05387
5217.26,0.05318
5211.47,0.05411
5205.68,0.05423
5199.9,0.05507
5194.11,0.05507
5188.32,0.05537
5182.54,0.05385
5176.75,0.05411
5170.97,0.05481
5165.18,0.05567
5159.39,0.05594
5153.61,0.05506
5147.82,0.05389
5142.03,0.05491
5136.25,0.05542
5130.46,0.05588
5124.68,0.05416
5118.89,0.05494
5113.1,0.05408
5107.32,0.05427
5101.53,0.05485
5095.75,0.05485
5089.96,0.05590
5084.17,0.05613
5078.39,0.05530
5072.6,0.05496
5066.81,0.05588
5061.03,0.05622
5055.24,0.05436
5049.46,0.05627
5043.67,0.05502
5037.88,0.05417
5032.1,0.05475
5026.31,0.05634
5020.52,0.05547
5014.74,0.05458
5008.95,0.05467
5003.17,0.05509
4997.38,0.05505
4991.59,0.05616
4985.81,0.05564
4980.02,0.05458
4974.23,0.05562
4968.45,0.05476
4962.66,0.05531
4956.88,0.05625
4951.09,0.05487
4945.3,0.05416
4939.52,0.05451
4933.73,0.05499
4927.94,0.05492
4922.16,0.05535
4916.37,0.05639
4910.59,0.05555
4904.8,0.05641
4899.01,0.05721
4893.23,0.05601
4887.44,0.05470
4881.65,0.05528
4875.87,0.05557
4870.08,0.05621
4864.3,0.05433
4858.51,0.05396
4852.72,0.05557
4846.94,0.05453
4841.15,0.05593
4835.36,0.05570
4829.58,0.05589
4823.79,0.05607
4818.01,0.05520
4812.22,0.05647
4806.43,0.05515
4800.65,0.05514
4794.86,0.05580
4789.07,0.05509
4783.29,0.05637
4777.5,0.05559
4771.72,0.05491
4765.93,0.05479
4760.14,0.05526
4754.36,0.05532
4748.57,0.05457
4742.78,0.05494
4737,0.05459
4731.21,0.05535
4725.43,0.05349
4719.64,0.05457
4713.85,0.05451
4708.07,0.05471
4702.28,0.05557
4696.49,0.05482
4690.71,0.05411
4684.92,0.05433
4679.14,0.05462
4673.35,0.05521
4667.56,0.05445
4661.78,0.05483
4655.99,0.05521
4650.2,0.05511
4644.42,0.05499
4638.63,0.05444
4632.85,0.05519
4627.06,0.05509
4621.27,0.05568
4615.49,0.05533
4609.7,0.05478
4603.92,0.05583
4598.13,0.05453
4592.34,0.05497
4586.56,0.05433
4580.77,0.05437
4574.98,0.05534
4569.2,0.05530
4563.41,0.05505
4557.63,0.05542
4551.84,0.05490
4546.05,0.05474
4540.27,0.05498
4534.48,0.05476
4528.69,0.05395
4522.91,0.05343
4517.12,0.05343
4511.34,0.05368
4505.55,0.05346
4499.76,0.05311
4493.98,0.05241
4488.19,0.05329
4482.4,0.05240
4476.62,0.05211
4470.83,0.05193
4465.05,0.05211
4459.26,0.05208
4453.47,0.05161
4447.69,0.05145
4441.9,0.05184
4436.11,0.05266
4430.33,0.05220
4424.54,0.05147
4418.76,0.05257
4412.97,0.05220
4407.18,0.05227
4401.4,0.05153
4395.61,0.05157
4389.82,0.05236
4384.04,0.05199
4378.25,0.05234
4372.47,0.05180
4366.68,0.05299
4360.89,0.05220
4355.11,0.05286
4349.32,0.05274
4343.53,0.05290
4337.75,0.05252
4331.96,0.05290
4326.18,0.05296
4320.39,0.05298
4314.6,0.05320
4308.82,0.05302
4303.03,0.05329
4297.24,0.05409
4291.46,0.05361
4285.67,0.05316
4279.89,0.05362
4274.1,0.05338
4268.31,0.05394
4262.53,0.05305
4256.74,0.05340
4250.95,0.05368
4245.17,0.05338
4239.38,0.05350
4233.6,0.05302
4227.81,0.05281
4222.02,0.05273
4216.24,0.05310
4210.45,0.05355
4204.66,0.05296
4198.88,0.05328
4193.09,0.05297
4187.31,0.05306
4181.52,0.05270
4175.73,0.05352
4169.95,0.05355
4164.16,0.05263
4158.37,0.05323
4152.59,0.05277
4146.8,0.05253
4141.02,0.05221
4135.23,0.05334
4129.44,0.05243
4123.66,0.05251
4117.87,0.05317
4112.09,0.05367
4106.3,0.05299
4100.51,0.05373
4094.73,0.05306
4088.94,0.05331
4083.15,0.05405
4077.37,0.05416
4071.58,0.05395
4065.8,0.05440
4060.01,0.05344
4054.22,0.05380
4048.44,0.05370
4042.65,0.05411
4036.86,0.05371
4031.08,0.05398
4025.29,0.05459
4019.51,0.05361
4013.72,0.05431
4007.93,0.05434
4002.15,0.05431
3996.36,0.05405
3990.57,0.05384
3984.79,0.05402
3979,0.05401
3973.22,0.05414
3967.43,0.05456
3961.64,0.05422
3955.86,0.05379
3950.07,0.05440
3944.28,0.05401
3938.5,0.05365
3932.71,0.05419
3926.93,0.05492
3921.14,0.05410
3915.35,0.05422
3909.57,0.05515
3903.78,0.05540
3897.99,0.05480
3892.21,0.05431
3886.42,0.05519
3880.64,0.05482
3874.85,0.05468
3869.06,0.05432
3863.28,0.05454
3857.49,0.05491
3851.7,0.05503
3845.92,0.05434
3840.13,0.05547
3834.35,0.05519
3828.56,0.05467
3822.77,0.05526
3816.99,0.05500
3811.2,0.05440
3805.41,0.05554
3799.63,0.05525
3793.84,0.05478
3788.06,0.05477
3782.27,0.05483
3776.48,0.05501
3770.7,0.05512
3764.91,0.05460
3759.12,0.05500
3753.34,0.05457
3747.55,0.05551
3741.77,0.05554
3735.98,0.05500
3730.19,0.05458
3724.41,0.05490
3718.62,0.05436
3712.83,0.05461
3707.05,0.05478
3701.26,0.05413
3695.48,0.05385
3689.69,0.05373
3683.9,0.05323
3678.12,0.05249
3672.33,0.05250
3666.54,0.05298
3660.76,0.05296
3654.97,0.05244
3649.19,0.05170
3643.4,0.05280
3637.61,0.05251
3631.83,0.05237
3626.04,0.05221
3620.25,0.05260
3614.47,0.05198
3608.68,0.05172
3602.9,0.05132
3597.11,0.05235
3591.32,0.05223
3585.54,0.05212
3579.75,0.05238
3573.97,0.05146
3568.18,0.05155
3562.39,0.05191
3556.61,0.05207
3550.82,0.05133
3545.03,0.05138
3539.25,0.05185
3533.46,0.05223
3527.68,0.05140
3521.89,0.05120
3516.1,0.05154
3510.32,0.05184
3504.53,0.05167
3498.74,0.05140
3492.96,0.05224
3487.17,0.05157
3481.39,0.05187
3475.6,0.05133
3469.81,0.05176
3464.03,0.05158
3458.24,0.05095
3452.45,0.05099
3446.67,0.05128
3440.88,0.05103
3435.1,0.05106
3429.31,0.05136
3423.52,0.05055
3417.74,0.05188
3411.95,0.05144
3406.16,0.05238
3400.38,0.05240
3394.59,0.05207
3388.81,0.05210
3383.02,0.05191
3377.23,0.05176
3371.45,0.05262
3365.66,0.05204
3359.87,0.05108
3354.09,0.05219
3348.3,0.05255
3342.52,0.05211
3336.73,0.05225
3330.94,0.05220
3325.16,0.05185
3319.37,0.05209
3313.58,0.05202
3307.8,0.05241
3302.01,0.05177
3296.23,0.05204
3290.44,0.05231
3284.65,0.05181
3278.87,0.05267
3273.08,0.05181
3267.29,0.05237
3261.51,0.05181
3255.72,0.05180
3249.94,0.05129
3244.15,0.05220
3238.36,0.05241
3232.58,0.05235
3226.79,0.05170
3221,0.05223
3215.22,0.05208
3209.43,0.05123
3203.65,0.05158
3197.86,0.05178
3192.07,0.05204
3186.29,0.05121
3180.5,0.05123
3174.71,0.05114
3168.93,0.05183
3163.14,0.05126
3157.36,0.05106
3151.57,0.05094
3145.78,0.05146
3140,0.05153
3134.21,0.05081
3128.42,0.05119
3122.64,0.05115
3116.85,0.05063
3111.07,0.05094
3105.28,0.05047
3099.49,0.05051
3093.71,0.05041
3087.92,0.05065
3082.14,0.05037
3076.35,0.05045
3070.56,0.04994
3064.78,0.05002
3058.99,0.04966
3053.2,0.04954
3047.42,0.04873
3041.63,0.04868
3035.85,0.04839
3030.06,0.04785
3024.27,0.04792
3018.49,0.04797
3012.7,0.04817
3006.91,0.04770
3001.13,0.04869
2995.34,0.04888
2989.56,0.04987
2983.77,0.05058
2977.98,0.05003
2972.2,0.04916
2966.41,0.04912
2960.62,0.04888
2954.84,0.04953
2949.05,0.05152
2943.27,0.05316
2937.48,0.05423
2931.69,0.05501
2925.91,0.05675
2920.12,0.05678
2914.33,0.05621
2908.55,0.05536
2902.76,0.05481
2896.98,0.05425
2891.19,0.05430
2885.4,0.05369
2879.62,0.05352
2873.83,0.05408
2868.04,0.05382
2862.26,0.05429
2856.47,0.05512
2850.69,0.05480
2844.9,0.05413
2839.11,0.05365
2833.33,0.05329
2827.54,0.05346
2821.75,0.05376
2815.97,0.05338
2810.18,0.05326
2804.4,0.05324
2798.61,0.05324
2792.82,0.05328
2787.04,0.05303
2781.25,0.05346
2775.46,0.05257
2769.68,0.05307
2763.89,0.05305
2758.11,0.05288
2752.32,0.05290
2746.53,0.05294
2740.75,0.05330
2734.96,0.05330
2729.17,0.05293
2723.39,0.05346
2717.6,0.05352
2711.82,0.05318
2706.03,0.05322
2700.24,0.05345
2694.46,0.05341
2688.67,0.05330
2682.88,0.05312
2677.1,0.05268
2671.31,0.05307
2665.53,0.05292
2659.74,0.05322
2653.95,0.05258
2648.17,0.05260
2642.38,0.05264
2636.59,0.05289
2630.81,0.05315
2625.02,0.05247
2619.24,0.05292
2613.45,0.05263
2607.66,0.05233
2601.88,0.05210
2596.09,0.05206
2590.3,0.05253
2584.52,0.05247
2578.73,0.05269
2572.95,0.05222
2567.16,0.05278
2561.37,0.05288
2555.59,0.05242
2549.8,0.05211
2544.02,0.05277
2538.23,0.05252
2532.44,0.05258
2526.66,0.05275
2520.87,0.05268
2515.08,0.05279
2509.3,0.05297
2503.51,0.05247
2497.73,0.05269
2491.94,0.05292
2486.15,0.05283
2480.37,0.05256
2474.58,0.05245
2468.79,0.05231
2463.01,0.05252
2457.22,0.05246
2451.44,0.05238
2445.65,0.05224
2439.86,0.05203
2434.08,0.05216
2428.29,0.05192
2422.5,0.05220
2416.72,0.05189
2410.93,0.05187
2405.15,0.05215
2399.36,0.05222
2393.57,0.05249
2387.79,0.05213
2382,0.05194
2376.21,0.05222
2370.43,0.05265
2364.64,0.05202
2358.86,0.05196
2353.07,0.05178
2347.28,0.05185
2341.5,0.05174
2335.71,0.05176
2329.92,0.05225
2324.14,0.05197
2318.35,0.05207
2312.57,0.05202
2306.78,0.05146
2300.99,0.05183
2295.21,0.05222
2289.42,0.05218
2283.63,0.05218
2277.85,0.05205
2272.06,0.05194
2266.28,0.05222
2260.49,0.05208
2254.7,0.05203
2248.92,0.05171
2243.13,0.05177
2237.34,0.05172
2231.56,0.05180
2225.77,0.05172
2219.99,0.05130
2214.2,0.05163
2208.41,0.05187
2202.63,0.05177
2196.84,0.05156
2191.05,0.05148
2185.27,0.05145
2179.48,0.05114
2173.7,0.05120
2167.91,0.05125
2162.12,0.05127
2156.34,0.05107
2150.55,0.05088
2144.76,0.05086
2138.98,0.05100
2133.19,0.05104
2127.41,0.05065
2121.62,0.05112
2115.83,0.05071
2110.05,0.05104
2104.26,0.05082
2098.47,0.05050
2092.69,0.05073
2086.9,0.05059
2081.12,0.05073
2075.33,0.05077
2069.54,0.05027
2063.76,0.05054
2057.97,0.05022
2052.19,0.05016
2046.4,0.05018
2040.61,0.05016
2034.83,0.05031
2029.04,0.04997
2023.25,0.05019
2017.47,0.05030
2011.68,0.04997
2005.9,0.05009
2000.11,0.04998
1994.32,0.04992
1988.54,0.04978
1982.75,0.04977
1976.96,0.05000
1971.18,0.04973
1965.39,0.04956
1959.61,0.04975
1953.82,0.04967
1948.03,0.04961
1942.25,0.04966
1936.46,0.04956
1930.67,0.04938
1924.89,0.04925
1919.1,0.04931
1913.32,0.04896
1907.53,0.04880
1901.74,0.04886
1895.96,0.04860
1890.17,0.04835
1884.38,0.04850
1878.6,0.04813
1872.81,0.04785
1867.03,0.04800
1861.24,0.04769
1855.45,0.04729
1849.67,0.04710
1843.88,0.04656
1838.09,0.04643
1832.31,0.04614
1826.52,0.04610
1820.74,0.04526
1814.95,0.04504
1809.16,0.04483
1803.38,0.04402
1797.59,0.04335
1791.8,0.04283
1786.02,0.04216
1780.23,0.04113
1774.45,0.03946
1768.66,0.03737
1762.87,0.03494
1757.09,0.03170
1751.3,0.02653
1745.51,0.02510
1739.73,0.03874
1733.94,0.05987
1728.16,0.08102
1722.37,0.08989
1716.58,0.08439
1710.8,0.07521
1705.01,0.06777
1699.22,0.06359
1693.44,0.06060
1687.65,0.05968
1681.87,0.05810
1676.08,0.05740
1670.29,0.05609
1664.51,0.05562
1658.72,0.05492
1652.93,0.05521
1647.15,0.05430
1641.36,0.05380
1635.58,0.05386
1629.79,0.05330
1624,0.05287
1618.22,0.05241
1612.43,0.05185
1606.64,0.05205
1600.86,0.05168
1595.07,0.05121
1589.29,0.05096
1583.5,0.05062
1577.71,0.05066
1571.93,0.05034
1566.14,0.04960
1560.35,0.05066
1554.57,0.04901
1548.78,0.04876
1543,0.04899
1537.21,0.04828
1531.42,0.04787
1525.64,0.04740
1519.85,0.04651
1514.07,0.04619
1508.28,0.04542
1502.49,0.04404
1496.71,0.04285
1490.92,0.04177
1485.13,0.04419
1479.35,0.04583
1473.56,0.04733
1467.78,0.04654
1461.99,0.04591
1456.2,0.04596
1450.42,0.04836
1444.63,0.05150
1438.84,0.05216
1433.06,0.05638
1427.27,0.05767
1421.49,0.05563
1415.7,0.05313
1409.91,0.05157
1404.13,0.04963
1398.34,0.04907
1392.55,0.04871
1386.77,0.05011
1380.98,0.05189
1375.2,0.05131
1369.41,0.05026
1363.62,0.04997
1357.84,0.04965
1352.05,0.04915
1346.26,0.04844
1340.48,0.04783
1334.69,0.04704
1328.91,0.04619
1323.12,0.04517
1317.33,0.04497
1311.55,0.04384
1305.76,0.04282
1299.97,0.04145
1294.19,0.04019
1288.4,0.03865
1282.62,0.03745
1276.83,0.03800
1271.04,0.04214
1265.26,0.04497
1259.47,0.04405
1253.68,0.04295
1247.9,0.04449
1242.11,0.04909
1236.33,0.05328
1230.54,0.05381
1224.75,0.05112
1218.97,0.04749
1213.18,0.04211
1207.39,0.03762
1201.61,0.03885
1195.82,0.04659
1190.04,0.05482
1184.25,0.05518
1178.46,0.05417
1172.68,0.05401
1166.89,0.05421
1161.1,0.05521
1155.32,0.06255
1149.53,0.08077
1143.75,0.09331
1137.96,0.09275
1132.17,0.08797
1126.39,0.08375
1120.6,0.08100
1114.81,0.07797
1109.03,0.07553
1103.24,0.07302
1097.46,0.07151
1091.67,0.06935
1085.88,0.06796
1080.1,0.06721
1074.31,0.06629
1068.52,0.06549
1062.74,0.06629
1056.95,0.06773
1051.17,0.06717
1045.38,0.06567
1039.59,0.06365
1033.81,0.06224
1028.02,0.06192
1022.24,0.06033
1016.45,0.05917
1010.66,0.05785
1004.88,0.05481
999.09,0.05525
993.304,0.05669
987.518,0.05990
981.731,0.06196
975.945,0.06144
970.159,0.06188
964.373,0.06348
958.586,0.06421
952.8,0.06403
947.014,0.06396
941.228,0.06349
935.441,0.06210
929.655,0.06187
923.869,0.06086
918.083,0.06079
912.297,0.06141
906.51,0.06122
900.724,0.06126
894.938,0.06085
889.152,0.05976
883.365,0.05969
877.579,0.05899
871.793,0.05931
866.007,0.05836
860.22,0.05817
854.434,0.05738
848.648,0.05820
842.862,0.05905
837.075,0.06115
831.289,0.06011
825.503,0.06024
819.717,0.05990
813.931,0.05957
808.144,0.06068
802.358,0.06051
796.572,0.06015
790.786,0.06035
784.999,0.05947
779.213,0.05794
773.427,0.05749
767.641,0.05658
761.854,0.05607
756.068,0.05702
750.282,0.06042
744.496,0.06539
738.709,0.06322
732.923,0.06219
727.137,0.06061
721.351,0.05994
715.565,0.06021
709.778,0.05930
703.992,0.05982
698.206,0.06017
692.42,0.05951
686.633,0.05875
680.847,0.05769
675.061,0.05812
669.275,0.05647
663.488,0.05788
657.702,0.05892
651.916,0.05765
646.13,0.05657
640.343,0.05837
634.557,0.05657
628.771,0.05515
622.985,0.05382
617.198,0.05337
611.412,0.05438
605.626,0.05673
599.84,0.05313