File: 01_Data/Black_PMMA/FTIR/IS/Black_PMMA_IS_S_221012_R2.dpt
7497.03,0.04775
7491.25,0.04089
7485.46,0.04871
7479.67,0.04718
7473.89,0.05528
7468.1,0.04874
7462.32,0.04664
7456.53,0.06414
7450.74,0.05376
7444.96,0.05497
7439.17,0.05579
7433.38,0.05324
7427.6,0.04371
7421.81,0.05396
7416.03,0.04262
7410.24,0.05310
7404.45,0.04803
7398.67,0.05465
7392.88,0.05479
7387.09,0.05423
7381.31,0.05727
7375.52,0.05123
7369.74,0.05526
7363.95,0.04476
7358.16,0.04611
7352.38,0.04978
7346.59,0.03998
7340.8,0.04808
7335.02,0.04675
7329.23,0.04928
7323.45,0.04562
7317.66,0.05679
7311.87,0.05593
7306.09,0.05372
7300.3,0.05947
7294.51,0.06402
7288.73,0.05063
7282.94,0.05446
7277.16,0.06018
7271.37,0.06137
7265.58,0.04996
7259.8,0.04515
7254.01,0.04993
7248.22,0.05376
7242.44,0.05764
7236.65,0.04830
7230.87,0.06319
7225.08,0.05572
7219.29,0.06232
7213.51,0.05026
7207.72,0.05399
7201.93,0.05078
7196.15,0.05824
7190.36,0.05492
7184.58,0.05217
7178.79,0.04720
7173,0.05576
7167.22,0.05420
7161.43,0.05164
7155.65,0.05305
7149.86,0.05200
7144.07,0.05245
7138.29,0.05277
7132.5,0.05361
7126.71,0.05287
7120.93,0.05235
7115.14,0.05882
7109.36,0.04954
7103.57,0.04926
7097.78,0.04650
7092,0.05411
7086.21,0.04668
7080.42,0.05602
7074.64,0.05528
7068.85,0.05336
7063.07,0.05415
7057.28,0.05355
7051.49,0.05492
7045.71,0.05209
7039.92,0.04659
7034.13,0.04824
7028.35,0.05398
7022.56,0.05559
7016.78,0.05345
7010.99,0.04940
7005.2,0.05746
6999.42,0.05914
6993.63,0.05074
6987.84,0.05036
6982.06,0.05388
6976.27,0.05444
6970.49,0.05134
6964.7,0.05370
6958.91,0.05310
6953.13,0.05023
6947.34,0.05230
6941.55,0.05377
6935.77,0.04914
6929.98,0.05582
6924.2,0.05548
6918.41,0.05459
6912.62,0.04493
6906.84,0.05070
6901.05,0.05460
6895.26,0.05546
6889.48,0.04849
6883.69,0.05645
6877.91,0.05422
6872.12,0.05743
6866.33,0.05417
6860.55,0.05499
6854.76,0.05636
6848.97,0.05483
6843.19,0.04706
6837.4,0.05619
6831.62,0.05397
6825.83,0.04749
6820.04,0.05104
6814.26,0.05411
6808.47,0.05230
6802.68,0.05331
6796.9,0.04925
6791.11,0.05412
6785.33,0.05035
6779.54,0.05595
6773.75,0.05189
6767.97,0.05104
6762.18,0.05082
6756.39,0.05412
6750.61,0.04978
6744.82,0.05378
6739.04,0.05522
6733.25,0.05174
6727.46,0.04935
6721.68,0.05250
6715.89,0.05255
6710.1,0.05991
6704.32,0.04816
6698.53,0.05141
6692.75,0.05472
6686.96,0.04812
6681.17,0.05524
6675.39,0.04993
6669.6,0.05427
6663.82,0.04966
6658.03,0.05166
6652.24,0.05032
6646.46,0.05392
6640.67,0.05101
6634.88,0.05426
6629.1,0.05478
6623.31,0.04825
6617.53,0.04792
6611.74,0.05173
6605.95,0.04993
6600.17,0.05545
6594.38,0.05149
6588.59,0.04770
6582.81,0.05242
6577.02,0.05406
6571.24,0.05064
6565.45,0.05682
6559.66,0.05348
6553.88,0.05032
6548.09,0.05026
6542.3,0.05216
6536.52,0.05172
6530.73,0.05234
6524.95,0.05014
6519.16,0.05066
6513.37,0.04877
6507.59,0.04953
6501.8,0.05036
6496.01,0.05456
6490.23,0.05221
6484.44,0.04960
6478.66,0.05288
6472.87,0.05302
6467.08,0.04983
6461.3,0.04803
6455.51,0.05414
6449.72,0.04814
6443.94,0.05455
6438.15,0.05203
6432.37,0.04843
6426.58,0.05271
6420.79,0.05325
6415.01,0.05523
6409.22,0.04985
6403.43,0.04692
6397.65,0.04991
6391.86,0.05211
6386.08,0.05023
6380.29,0.04861
6374.5,0.04772
6368.72,0.05283
6362.93,0.05457
6357.14,0.05310
6351.36,0.05739
6345.57,0.05263
6339.79,0.05222
6334,0.05451
6328.21,0.05097
6322.43,0.04992
6316.64,0.05135
6310.85,0.05310
6305.07,0.04932
6299.28,0.05142
6293.5,0.05243
6287.71,0.05355
6281.92,0.05636
6276.14,0.05373
6270.35,0.05081
6264.56,0.05513
6258.78,0.05322
6252.99,0.05322
6247.21,0.05307
6241.42,0.05014
6235.63,0.05396
6229.85,0.05239
6224.06,0.05439
6218.27,0.05315
6212.49,0.05118
6206.7,0.05406
6200.92,0.04973
6195.13,0.05474
6189.34,0.05420
6183.56,0.05274
6177.77,0.05375
6171.98,0.05361
6166.2,0.05291
6160.41,0.05137
6154.63,0.05469
6148.84,0.04835
6143.05,0.04899
6137.27,0.05552
6131.48,0.05452
6125.7,0.05049
6119.91,0.04991
6114.12,0.05328
6108.34,0.05452
6102.55,0.05572
6096.76,0.05286
6090.98,0.05124
6085.19,0.05208
6079.41,0.05249
6073.62,0.05032
6067.83,0.05516
6062.05,0.05351
6056.26,0.05459
6050.47,0.04951
6044.69,0.05224
6038.9,0.05254
6033.12,0.05358
6027.33,0.05189
6021.54,0.05355
6015.76,0.05119
6009.97,0.04968
6004.18,0.05150
5998.4,0.05169
5992.61,0.04898
5986.83,0.05122
5981.04,0.05291
5975.25,0.04947
5969.47,0.04903
5963.68,0.05215
5957.89,0.05297
5952.11,0.05124
5946.32,0.05441
5940.54,0.05065
5934.75,0.05148
5928.96,0.05256
5923.18,0.05231
5917.39,0.05218
5911.6,0.05250
5905.82,0.05179
5900.03,0.05181
5894.25,0.05305
5888.46,0.05351
5882.67,0.05137
5876.89,0.05195
5871.1,0.05553
5865.31,0.05260
5859.53,0.05222
5853.74,0.04915
5847.96,0.05241
5842.17,0.05235
5836.38,0.05111
5830.6,0.05205
5824.81,0.05180
5819.02,0.05090
5813.24,0.05265
5807.45,0.05088
5801.67,0.05546
5795.88,0.05241
5790.09,0.05333
5784.31,0.05098
5778.52,0.04951
5772.73,0.05303
5766.95,0.05363
5761.16,0.05166
5755.38,0.05140
5749.59,0.05289
5743.8,0.05439
5738.02,0.05323
5732.23,0.05068
5726.44,0.05162
5720.66,0.05125
5714.87,0.05526
5709.09,0.05104
5703.3,0.05483
5697.51,0.05486
5691.73,0.05447
5685.94,0.05431
5680.15,0.05386
5674.37,0.05211
5668.58,0.05344
5662.8,0.05396
5657.01,0.05362
5651.22,0.05299
5645.44,0.05390
5639.65,0.05149
5633.87,0.05324
5628.08,0.05424
5622.29,0.05348
5616.51,0.05494
5610.72,0.05442
5604.93,0.05370
5599.15,0.05212
5593.36,0.05310
5587.58,0.05348
5581.79,0.05492
5576,0.05419
5570.22,0.05274
5564.43,0.05262
5558.64,0.05408
5552.86,0.05383
5547.07,0.05437
5541.29,0.05398
5535.5,0.05487
5529.71,0.05473
5523.93,0.05434
5518.14,0.05504
5512.35,0.05536
5506.57,0.05448
5500.78,0.05370
5495,0.05543
5489.21,0.05214
5483.42,0.05557
5477.64,0.05250
5471.85,0.05258
5466.06,0.05416
5460.28,0.05308
5454.49,0.05447
5448.71,0.05457
5442.92,0.05377
5437.13,0.05475
5431.35,0.05357
5425.56,0.05462
5419.77,0.05507
5413.99,0.05414
5408.2,0.05557
5402.42,0.05632
5396.63,0.05246
5390.84,0.05550
5385.06,0.05472
5379.27,0.05424
5373.48,0.05449
5367.7,0.05525
5361.91,0.05403
5356.13,0.05518
5350.34,0.05300
5344.55,0.05417
5338.77,0.05582
5332.98,0.05408
5327.19,0.05369
5321.41,0.05485
5315.62,0.05542
5309.84,0.05457
5304.05,0.05508
5298.26,0.05498
5292.48,0.05412
5286.69,0.05376
5280.9,0.05531
5275.12,0.05413
5269.33,0.05514
5263.55,0.05398
5257.76,0.05423
5251.97,0.05540
5246.19,0.05274
5240.4,0.05340
5234.61,0.05263
5228.83,0.05357
5223.04,0.05404
5217.26,0.05398
5211.47,0.05415
5205.68,0.05457
5199.9,0.05459
5194.11,0.05428
5188.32,0.05529
5182.54,0.05459
5176.75,0.05410
5170.97,0.05450
5165.18,0.05530
5159.39,0.05415
5153.61,0.05368
5147.82,0.05427
5142.03,0.05296
5136.25,0.05454
5130.46,0.05435
5124.68,0.05487
5118.89,0.05478
5113.1,0.05408
5107.32,0.05500
5101.53,0.05349
5095.75,0.05443
5089.96,0.05358
5084.17,0.05495
5078.39,0.05512
5072.6,0.05415
5066.81,0.05465
5061.03,0.05504
5055.24,0.05520
5049.46,0.05558
5043.67,0.05575
5037.88,0.05556
5032.1,0.05449
5026.31,0.05487
5020.52,0.05393
5014.74,0.05465
5008.95,0.05421
5003.17,0.05483
4997.38,0.05602
4991.59,0.05508
4985.81,0.05619
4980.02,0.05488
4974.23,0.05596
4968.45,0.05634
4962.66,0.05463
4956.88,0.05548
4951.09,0.05583
4945.3,0.05557
4939.52,0.05519
4933.73,0.05687
4927.94,0.05552
4922.16,0.05613
4916.37,0.05464
4910.59,0.05377
4904.8,0.05435
4899.01,0.05474
4893.23,0.05497
4887.44,0.05378
4881.65,0.05501
4875.87,0.05610
4870.08,0.05604
4864.3,0.05549
4858.51,0.05565
4852.72,0.05531
4846.94,0.05562
4841.15,0.05577
4835.36,0.05489
4829.58,0.05469
4823.79,0.05523
4818.01,0.05525
4812.22,0.05507
4806.43,0.05540
4800.65,0.05534
4794.86,0.05558
4789.07,0.05503
4783.29,0.05527
4777.5,0.05592
4771.72,0.05581
4765.93,0.05437
4760.14,0.05490
4754.36,0.05509
4748.57,0.05388
4742.78,0.05439
4737,0.05438
4731.21,0.05496
4725.43,0.05523
4719.64,0.05367
4713.85,0.05547
4708.07,0.05434
4702.28,0.05444
4696.49,0.05361
4690.71,0.05399
4684.92,0.05381
4679.14,0.05353
4673.35,0.05481
4667.56,0.05566
4661.78,0.05501
4655.99,0.05470
4650.2,0.05528
4644.42,0.05496
4638.63,0.05538
4632.85,0.05528
4627.06,0.05462
4621.27,0.05449
4615.49,0.05475
4609.7,0.05387
4603.92,0.05537
4598.13,0.05493
4592.34,0.05434
4586.56,0.05502
4580.77,0.05461
4574.98,0.05471
4569.2,0.05514
4563.41,0.05406
4557.63,0.05392
4551.84,0.05402
4546.05,0.05455
4540.27,0.05485
4534.48,0.05398
4528.69,0.05340
4522.91,0.05425
4517.12,0.05416
4511.34,0.05397
4505.55,0.05372
4499.76,0.05340
4493.98,0.05298
4488.19,0.05278
4482.4,0.05174
4476.62,0.05194
4470.83,0.05264
4465.05,0.05222
4459.26,0.05154
4453.47,0.05186
4447.69,0.05148
4441.9,0.05192
4436.11,0.05172
4430.33,0.05174
4424.54,0.05208
4418.76,0.05155
4412.97,0.05141
4407.18,0.05157
4401.4,0.05218
4395.61,0.05152
4389.82,0.05239
4384.04,0.05247
4378.25,0.05190
4372.47,0.05250
4366.68,0.05248
4360.89,0.05211
4355.11,0.05262
4349.32,0.05207
4343.53,0.05275
4337.75,0.05302
4331.96,0.05369
4326.18,0.05326
4320.39,0.05180
4314.6,0.05257
4308.82,0.05325
4303.03,0.05399
4297.24,0.05301
4291.46,0.05311
4285.67,0.05309
4279.89,0.05281
4274.1,0.05265
4268.31,0.05242
4262.53,0.05353
4256.74,0.05413
4250.95,0.05326
4245.17,0.05373
4239.38,0.05320
4233.6,0.05341
4227.81,0.05184
4222.02,0.05319
4216.24,0.05320
4210.45,0.05223
4204.66,0.05277
4198.88,0.05237
4193.09,0.05233
4187.31,0.05316
4181.52,0.05288
4175.73,0.05235
4169.95,0.05222
4164.16,0.05225
4158.37,0.05235
4152.59,0.05282
4146.8,0.05290
4141.02,0.05330
4135.23,0.05292
4129.44,0.05340
4123.66,0.05340
4117.87,0.05289
4112.09,0.05311
4106.3,0.05324
4100.51,0.05340
4094.73,0.05323
4088.94,0.05340
4083.15,0.05291
4077.37,0.05329
4071.58,0.05383
4065.8,0.05335
4060.01,0.05377
4054.22,0.05357
4048.44,0.05338
4042.65,0.05400
4036.86,0.05360
4031.08,0.05422
4025.29,0.05373
4019.51,0.05267
4013.72,0.05330
4007.93,0.05336
4002.15,0.05406
3996.36,0.05408
3990.57,0.05405
3984.79,0.05377
3979,0.05413
3973.22,0.05430
3967.43,0.05373
3961.64,0.05376
3955.86,0.05427
3950.07,0.05387
3944.28,0.05379
3938.5,0.05387
3932.71,0.05437
3926.93,0.05346
3921.14,0.05413
3915.35,0.05423
3909.57,0.05418
3903.78,0.05514
3897.99,0.05472
3892.21,0.05462
3886.42,0.05463
3880.64,0.05465
3874.85,0.05442
3869.06,0.05491
3863.28,0.05459
3857.49,0.05471
3851.7,0.05432
3845.92,0.05494
3840.13,0.05483
3834.35,0.05536
3828.56,0.05469
3822.77,0.05496
3816.99,0.05422
3811.2,0.05458
3805.41,0.05504
3799.63,0.05534
3793.84,0.05495
3788.06,0.05479
3782.27,0.05498
3776.48,0.05506
3770.7,0.05513
3764.91,0.05441
3759.12,0.05497
3753.34,0.05384
3747.55,0.05579
3741.77,0.05467
3735.98,0.05414
3730.19,0.05397
3724.41,0.05429
3718.62,0.05470
3712.83,0.05446
3707.05,0.05406
3701.26,0.05457
3695.48,0.05379
3689.69,0.05333
3683.9,0.05356
3678.12,0.05350
3672.33,0.05287
3666.54,0.05195
3660.76,0.05194
3654.97,0.05181
3649.19,0.05241
3643.4,0.05205
3637.61,0.05176
3631.83,0.05210
3626.04,0.05166
3620.25,0.05148
3614.47,0.05130
3608.68,0.05106
3602.9,0.05170
3597.11,0.05181
3591.32,0.05214
3585.54,0.05165
3579.75,0.05138
3573.97,0.05119
3568.18,0.05152
3562.39,0.05175
3556.61,0.05170
3550.82,0.05069
3545.03,0.05145
3539.25,0.05116
3533.46,0.05126
3527.68,0.05145
3521.89,0.05121
3516.1,0.05084
3510.32,0.05099
3504.53,0.05167
3498.74,0.05126
3492.96,0.05146
3487.17,0.05108
3481.39,0.05132
3475.6,0.05150
3469.81,0.05081
3464.03,0.05129
3458.24,0.05127
3452.45,0.05131
3446.67,0.05113
3440.88,0.05097
3435.1,0.05139
3429.31,0.05101
3423.52,0.05116
3417.74,0.05129
3411.95,0.05156
3406.16,0.05184
3400.38,0.05153
3394.59,0.05219
3388.81,0.05205
3383.02,0.05164
3377.23,0.05163
3371.45,0.05122
3365.66,0.05205
3359.87,0.05157
3354.09,0.05221
3348.3,0.05290
3342.52,0.05194
3336.73,0.05275
3330.94,0.05135
3325.16,0.05209
3319.37,0.05171
3313.58,0.05169
3307.8,0.05175
3302.01,0.05264
3296.23,0.05155
3290.44,0.05133
3284.65,0.05142
3278.87,0.05193
3273.08,0.05184
3267.29,0.05167
3261.51,0.05191
3255.72,0.05081
3249.94,0.05112
3244.15,0.05158
3238.36,0.05195
3232.58,0.05137
3226.79,0.05144
3221,0.05106
3215.22,0.05049
3209.43,0.05107
3203.65,0.05073
3197.86,0.05182
3192.07,0.05164
3186.29,0.05112
3180.5,0.05174
3174.71,0.05105
3168.93,0.05068
3163.14,0.05061
3157.36,0.05110
3151.57,0.05160
3145.78,0.05126
3140,0.05110
3134.21,0.05085
3128.42,0.05030
3122.64,0.05101
3116.85,0.05062
3111.07,0.05075
3105.28,0.05024
3099.49,0.04976
3093.71,0.05014
3087.92,0.05009
3082.14,0.04967
3076.35,0.04980
3070.56,0.04990
3064.78,0.04944
3058.99,0.04931
3053.2,0.04862
3047.42,0.04887
3041.63,0.04822
3035.85,0.04833
3030.06,0.04760
3024.27,0.04775
3018.49,0.04810
3012.7,0.04796
3006.91,0.04785
3001.13,0.04846
2995.34,0.04828
2989.56,0.04910
2983.77,0.04996
2977.98,0.05004
2972.2,0.04984
2966.41,0.04926
2960.62,0.04886
2954.84,0.04964
2949.05,0.05165
2943.27,0.05332
2937.48,0.05397
2931.69,0.05497
2925.91,0.05661
2920.12,0.05683
2914.33,0.05584
2908.55,0.05507
2902.76,0.05436
2896.98,0.05430
2891.19,0.05389
2885.4,0.05380
2879.62,0.05330
2873.83,0.05266
2868.04,0.05403
2862.26,0.05383
2856.47,0.05478
2850.69,0.05508
2844.9,0.05421
2839.11,0.05322
2833.33,0.05322
2827.54,0.05293
2821.75,0.05285
2815.97,0.05314
2810.18,0.05316
2804.4,0.05298
2798.61,0.05262
2792.82,0.05292
2787.04,0.05345
2781.25,0.05292
2775.46,0.05281
2769.68,0.05269
2763.89,0.05326
2758.11,0.05244
2752.32,0.05250
2746.53,0.05257
2740.75,0.05281
2734.96,0.05253
2729.17,0.05320
2723.39,0.05327
2717.6,0.05294
2711.82,0.05245
2706.03,0.05261
2700.24,0.05296
2694.46,0.05318
2688.67,0.05329
2682.88,0.05308
2677.1,0.05244
2671.31,0.05261
2665.53,0.05252
2659.74,0.05231
2653.95,0.05225
2648.17,0.05263
2642.38,0.05280
2636.59,0.05293
2630.81,0.05221
2625.02,0.05227
2619.24,0.05232
2613.45,0.05242
2607.66,0.05270
2601.88,0.05240
2596.09,0.05196
2590.3,0.05165
2584.52,0.05190
2578.73,0.05241
2572.95,0.05235
2567.16,0.05221
2561.37,0.05200
2555.59,0.05226
2549.8,0.05214
2544.02,0.05250
2538.23,0.05208
2532.44,0.05237
2526.66,0.05208
2520.87,0.05224
2515.08,0.05219
2509.3,0.05231
2503.51,0.05222
2497.73,0.05243
2491.94,0.05210
2486.15,0.05252
2480.37,0.05261
2474.58,0.05227
2468.79,0.05207
2463.01,0.05216
2457.22,0.05228
2451.44,0.05202
2445.65,0.05205
2439.86,0.05239
2434.08,0.05221
2428.29,0.05172
2422.5,0.05173
2416.72,0.05202
2410.93,0.05180
2405.15,0.05197
2399.36,0.05174
2393.57,0.05179
2387.79,0.05155
2382,0.05161
2376.21,0.05141
2370.43,0.05161
2364.64,0.05182
2358.86,0.05148
2353.07,0.05157
2347.28,0.05155
2341.5,0.05186
2335.71,0.05127
2329.92,0.05168
2324.14,0.05183
2318.35,0.05141
2312.57,0.05229
2306.78,0.05158
2300.99,0.05136
2295.21,0.05153
2289.42,0.05162
2283.63,0.05154
2277.85,0.05163
2272.06,0.05140
2266.28,0.05175
2260.49,0.05145
2254.7,0.05173
2248.92,0.05184
2243.13,0.05130
2237.34,0.05152
2231.56,0.05120
2225.77,0.05120
2219.99,0.05165
2214.2,0.05161
2208.41,0.05129
2202.63,0.05104
2196.84,0.05132
2191.05,0.05102
2185.27,0.05097
2179.48,0.05105
2173.7,0.05110
2167.91,0.05087
2162.12,0.05131
2156.34,0.05062
2150.55,0.05096
2144.76,0.05100
2138.98,0.05067
2133.19,0.05120
2127.41,0.05051
2121.62,0.05057
2115.83,0.05044
2110.05,0.05060
2104.26,0.05043
2098.47,0.05083
2092.69,0.04981
2086.9,0.05018
2081.12,0.05053
2075.33,0.05036
2069.54,0.05024
2063.76,0.05026
2057.97,0.05030
2052.19,0.05051
2046.4,0.04990
2040.61,0.05001
2034.83,0.04991
2029.04,0.04999
2023.25,0.05000
2017.47,0.04990
2011.68,0.04968
2005.9,0.04972
2000.11,0.04984
1994.32,0.04976
1988.54,0.04941
1982.75,0.04968
1976.96,0.04949
1971.18,0.04933
1965.39,0.04932
1959.61,0.04914
1953.82,0.04909
1948.03,0.04950
1942.25,0.04922
1936.46,0.04908
1930.67,0.04898
1924.89,0.04902
1919.1,0.04854
1913.32,0.04869
1907.53,0.04829
1901.74,0.04856
1895.96,0.04869
1890.17,0.04846
1884.38,0.04791
1878.6,0.04802
1872.81,0.04802
1867.03,0.04774
1861.24,0.04736
1855.45,0.04710
1849.67,0.04663
1843.88,0.04656
1838.09,0.04616
1832.31,0.04606
1826.52,0.04566
1820.74,0.04578
1814.95,0.04485
1809.16,0.04422
1803.38,0.04391
1797.59,0.04317
1791.8,0.04268
1786.02,0.04166
1780.23,0.04068
1774.45,0.03932
1768.66,0.03734
1762.87,0.03487
1757.09,0.03139
1751.3,0.02637
1745.51,0.02463
1739.73,0.03834
1733.94,0.05967
1728.16,0.08082
1722.37,0.08904
1716.58,0.08375
1710.8,0.07457
1705.01,0.06782
1699.22,0.06377
1693.44,0.06085
1687.65,0.05904
1681.87,0.05802
1676.08,0.05701
1670.29,0.05619
1664.51,0.05539
1658.72,0.05450
1652.93,0.05453
1647.15,0.05436
1641.36,0.05370
1635.58,0.05304
1629.79,0.05327
1624,0.05230
1618.22,0.05171
1612.43,0.05216
1606.64,0.05171
1600.86,0.05102
1595.07,0.05086
1589.29,0.05077
1583.5,0.05051
1577.71,0.05030
1571.93,0.04994
1566.14,0.04955
1560.35,0.04969
1554.57,0.04871
1548.78,0.04872
1543,0.04813
1537.21,0.04767
1531.42,0.04775
1525.64,0.04724
1519.85,0.04660
1514.07,0.04550
1508.28,0.04516
1502.49,0.04391
1496.71,0.04228
1490.92,0.04178
1485.13,0.04401
1479.35,0.04595
1473.56,0.04669
1467.78,0.04641
1461.99,0.04546
1456.2,0.04565
1450.42,0.04807
1444.63,0.05085
1438.84,0.05233
1433.06,0.05603
1427.27,0.05773
1421.49,0.05559
1415.7,0.05298
1409.91,0.05137
1404.13,0.04989
1398.34,0.04896
1392.55,0.04891
1386.77,0.05011
1380.98,0.05148
1375.2,0.05088
1369.41,0.04979
1363.62,0.04966
1357.84,0.04952
1352.05,0.04891
1346.26,0.04840
1340.48,0.04780
1334.69,0.04691
1328.91,0.04580
1323.12,0.04523
1317.33,0.04478
1311.55,0.04348
1305.76,0.04262
1299.97,0.04138
1294.19,0.04005
1288.4,0.03849
1282.62,0.03692
1276.83,0.03735
1271.04,0.04188
1265.26,0.04472
1259.47,0.04402
1253.68,0.04302
1247.9,0.04412
1242.11,0.04874
1236.33,0.05284
1230.54,0.05351
1224.75,0.05127
1218.97,0.04679
1213.18,0.04179
1207.39,0.03810
1201.61,0.03829
1195.82,0.04655
1190.04,0.05476
1184.25,0.05538
1178.46,0.05353
1172.68,0.05380
1166.89,0.05389
1161.1,0.05545
1155.32,0.06245
1149.53,0.08130
1143.75,0.09324
1137.96,0.09253
1132.17,0.08826
1126.39,0.08308
1120.6,0.08033
1114.81,0.07737
1109.03,0.07531
1103.24,0.07329
1097.46,0.07084
1091.67,0.06963
1085.88,0.06818
1080.1,0.06633
1074.31,0.06546
1068.52,0.06550
1062.74,0.06575
1056.95,0.06753
1051.17,0.06709
1045.38,0.06487
1039.59,0.06386
1033.81,0.06230
1028.02,0.06180
1022.24,0.06037
1016.45,0.05938
1010.66,0.05709
1004.88,0.05560
999.09,0.05508
993.304,0.05710
987.518,0.05995
981.731,0.06129
975.945,0.06114
970.159,0.06093
964.373,0.06307
958.586,0.06331
952.8,0.06352
947.014,0.06342
941.228,0.06307
935.441,0.06242
929.655,0.06147
923.869,0.06068
918.083,0.06092
912.297,0.06070
906.51,0.06146
900.724,0.06115
894.938,0.06038
889.152,0.06045
883.365,0.05951
877.579,0.05910
871.793,0.05840
866.007,0.05735
860.22,0.05725
854.434,0.05777
848.648,0.05650
842.862,0.05853
837.075,0.06091
831.289,0.06069
825.503,0.06093
819.717,0.06027
813.931,0.05944
808.144,0.05942
802.358,0.06093
796.572,0.05980
790.786,0.05954
784.999,0.05911
779.213,0.05829
773.427,0.05758
767.641,0.05687
761.854,0.05669
756.068,0.05671
750.282,0.06026
744.496,0.06385
738.709,0.06287
732.923,0.06183
727.137,0.06051
721.351,0.06082
715.565,0.06047
709.778,0.05828
703.992,0.05886
698.206,0.05940
692.42,0.05920
686.633,0.05819
680.847,0.05763
675.061,0.05744
669.275,0.05722
663.488,0.05656
657.702,0.05671
651.916,0.05608
646.13,0.05647
640.343,0.05672
634.557,0.05609
628.771,0.05546
622.985,0.05528
617.198,0.05536
611.412,0.05310
605.626,0.05219
599.84,0.05245