File: 01_Data/Black_PMMA/FTIR/IS/Black_PMMA_IS_S_221012_R4.dpt
7497.03,0.04375
7491.25,0.06211
7485.46,0.05440
7479.67,0.04477
7473.89,0.04617
7468.1,0.04970
7462.32,0.04385
7456.53,0.05235
7450.74,0.05564
7444.96,0.04869
7439.17,0.05316
7433.38,0.04194
7427.6,0.04749
7421.81,0.05423
7416.03,0.05102
7410.24,0.04544
7404.45,0.04354
7398.67,0.06066
7392.88,0.05895
7387.09,0.05664
7381.31,0.05615
7375.52,0.05455
7369.74,0.05298
7363.95,0.05444
7358.16,0.05173
7352.38,0.05100
7346.59,0.05305
7340.8,0.05733
7335.02,0.05459
7329.23,0.05417
7323.45,0.05052
7317.66,0.05021
7311.87,0.05692
7306.09,0.05319
7300.3,0.05039
7294.51,0.05351
7288.73,0.05007
7282.94,0.05883
7277.16,0.05670
7271.37,0.05966
7265.58,0.05574
7259.8,0.04756
7254.01,0.04818
7248.22,0.05338
7242.44,0.04922
7236.65,0.05065
7230.87,0.05165
7225.08,0.04815
7219.29,0.05484
7213.51,0.05790
7207.72,0.04856
7201.93,0.04575
7196.15,0.05827
7190.36,0.06118
7184.58,0.05323
7178.79,0.05268
7173,0.05561
7167.22,0.05395
7161.43,0.05264
7155.65,0.06038
7149.86,0.05257
7144.07,0.04819
7138.29,0.05027
7132.5,0.05302
7126.71,0.04835
7120.93,0.04755
7115.14,0.04960
7109.36,0.04466
7103.57,0.04694
7097.78,0.05164
7092,0.05359
7086.21,0.05414
7080.42,0.05088
7074.64,0.04940
7068.85,0.04621
7063.07,0.04694
7057.28,0.05678
7051.49,0.05160
7045.71,0.04999
7039.92,0.05132
7034.13,0.05865
7028.35,0.04817
7022.56,0.04964
7016.78,0.05624
7010.99,0.05290
7005.2,0.05232
6999.42,0.05612
6993.63,0.05212
6987.84,0.04856
6982.06,0.05490
6976.27,0.05523
6970.49,0.05148
6964.7,0.04752
6958.91,0.05899
6953.13,0.05094
6947.34,0.05398
6941.55,0.04883
6935.77,0.05745
6929.98,0.04643
6924.2,0.05112
6918.41,0.05949
6912.62,0.05322
6906.84,0.04698
6901.05,0.05252
6895.26,0.05469
6889.48,0.05387
6883.69,0.05585
6877.91,0.05633
6872.12,0.05053
6866.33,0.04958
6860.55,0.05158
6854.76,0.05113
6848.97,0.05779
6843.19,0.05318
6837.4,0.05511
6831.62,0.04700
6825.83,0.05601
6820.04,0.05699
6814.26,0.05199
6808.47,0.05371
6802.68,0.05230
6796.9,0.05308
6791.11,0.05354
6785.33,0.05211
6779.54,0.04756
6773.75,0.05547
6767.97,0.05595
6762.18,0.05472
6756.39,0.05254
6750.61,0.05362
6744.82,0.05256
6739.04,0.05397
6733.25,0.05348
6727.46,0.05426
6721.68,0.05442
6715.89,0.05343
6710.1,0.05185
6704.32,0.05079
6698.53,0.04612
6692.75,0.05200
6686.96,0.05488
6681.17,0.05381
6675.39,0.05432
6669.6,0.05039
6663.82,0.05549
6658.03,0.05125
6652.24,0.05117
6646.46,0.05318
6640.67,0.05487
6634.88,0.05629
6629.1,0.05252
6623.31,0.05447
6617.53,0.05317
6611.74,0.04567
6605.95,0.05022
6600.17,0.05167
6594.38,0.05057
6588.59,0.05303
6582.81,0.05629
6577.02,0.05381
6571.24,0.05352
6565.45,0.05082
6559.66,0.05083
6553.88,0.05392
6548.09,0.05571
6542.3,0.05353
6536.52,0.04933
6530.73,0.05150
6524.95,0.04943
6519.16,0.05077
6513.37,0.05453
6507.59,0.04998
6501.8,0.04661
6496.01,0.05063
6490.23,0.05625
6484.44,0.05713
6478.66,0.05613
6472.87,0.05297
6467.08,0.05655
6461.3,0.05449
6455.51,0.05275
6449.72,0.05538
6443.94,0.05285
6438.15,0.05586
6432.37,0.05426
6426.58,0.05422
6420.79,0.05636
6415.01,0.04926
6409.22,0.05123
6403.43,0.05397
6397.65,0.05346
6391.86,0.05508
6386.08,0.05283
6380.29,0.05586
6374.5,0.05116
6368.72,0.05700
6362.93,0.05209
6357.14,0.05234
6351.36,0.05057
6345.57,0.05181
6339.79,0.05319
6334,0.04907
6328.21,0.05367
6322.43,0.05272
6316.64,0.05134
6310.85,0.05107
6305.07,0.04818
6299.28,0.05328
6293.5,0.05372
6287.71,0.05500
6281.92,0.05579
6276.14,0.05236
6270.35,0.05165
6264.56,0.05412
6258.78,0.05201
6252.99,0.05557
6247.21,0.05354
6241.42,0.05533
6235.63,0.05344
6229.85,0.05013
6224.06,0.05091
6218.27,0.05388
6212.49,0.05362
6206.7,0.04963
6200.92,0.05261
6195.13,0.05552
6189.34,0.05276
6183.56,0.05066
6177.77,0.05314
6171.98,0.05113
6166.2,0.05336
6160.41,0.05493
6154.63,0.05319
6148.84,0.05182
6143.05,0.05428
6137.27,0.05361
6131.48,0.05342
6125.7,0.05385
6119.91,0.05039
6114.12,0.05096
6108.34,0.05348
6102.55,0.05172
6096.76,0.05341
6090.98,0.05483
6085.19,0.05397
6079.41,0.05263
6073.62,0.05147
6067.83,0.05097
6062.05,0.05403
6056.26,0.05622
6050.47,0.05147
6044.69,0.05288
6038.9,0.05433
6033.12,0.05136
6027.33,0.05567
6021.54,0.05372
6015.76,0.05323
6009.97,0.05181
6004.18,0.05125
5998.4,0.05273
5992.61,0.05214
5986.83,0.05156
5981.04,0.05237
5975.25,0.05066
5969.47,0.05010
5963.68,0.04980
5957.89,0.05344
5952.11,0.05030
5946.32,0.05150
5940.54,0.05154
5934.75,0.05058
5928.96,0.05045
5923.18,0.05261
5917.39,0.05361
5911.6,0.05300
5905.82,0.05176
5900.03,0.05369
5894.25,0.05233
5888.46,0.04882
5882.67,0.05253
5876.89,0.05260
5871.1,0.05544
5865.31,0.05165
5859.53,0.05066
5853.74,0.05007
5847.96,0.05244
5842.17,0.05023
5836.38,0.04948
5830.6,0.05553
5824.81,0.05600
5819.02,0.05370
5813.24,0.05264
5807.45,0.05354
5801.67,0.05478
5795.88,0.05256
5790.09,0.05306
5784.31,0.05232
5778.52,0.05096
5772.73,0.04940
5766.95,0.05306
5761.16,0.05418
5755.38,0.05107
5749.59,0.04985
5743.8,0.04858
5738.02,0.05302
5732.23,0.05187
5726.44,0.05337
5720.66,0.05192
5714.87,0.05310
5709.09,0.05479
5703.3,0.05345
5697.51,0.05153
5691.73,0.05151
5685.94,0.05295
5680.15,0.05408
5674.37,0.05379
5668.58,0.05278
5662.8,0.05456
5657.01,0.05539
5651.22,0.05300
5645.44,0.05367
5639.65,0.05217
5633.87,0.05409
5628.08,0.05410
5622.29,0.05274
5616.51,0.05472
5610.72,0.05409
5604.93,0.05393
5599.15,0.05410
5593.36,0.05463
5587.58,0.05373
5581.79,0.05377
5576,0.05351
5570.22,0.05440
5564.43,0.05530
5558.64,0.05490
5552.86,0.05353
5547.07,0.05243
5541.29,0.05332
5535.5,0.05623
5529.71,0.05449
5523.93,0.05296
5518.14,0.05282
5512.35,0.05345
5506.57,0.05428
5500.78,0.05284
5495,0.05405
5489.21,0.05367
5483.42,0.05318
5477.64,0.05545
5471.85,0.05534
5466.06,0.05434
5460.28,0.05269
5454.49,0.05273
5448.71,0.05415
5442.92,0.05475
5437.13,0.05441
5431.35,0.05410
5425.56,0.05291
5419.77,0.05472
5413.99,0.05475
5408.2,0.05316
5402.42,0.05430
5396.63,0.05448
5390.84,0.05182
5385.06,0.05340
5379.27,0.05405
5373.48,0.05548
5367.7,0.05236
5361.91,0.05298
5356.13,0.05409
5350.34,0.05394
5344.55,0.05482
5338.77,0.05446
5332.98,0.05565
5327.19,0.05671
5321.41,0.05432
5315.62,0.05362
5309.84,0.05450
5304.05,0.05448
5298.26,0.05505
5292.48,0.05496
5286.69,0.05464
5280.9,0.05455
5275.12,0.05431
5269.33,0.05413
5263.55,0.05314
5257.76,0.05416
5251.97,0.05417
5246.19,0.05301
5240.4,0.05425
5234.61,0.05430
5228.83,0.05307
5223.04,0.05533
5217.26,0.05487
5211.47,0.05460
5205.68,0.05386
5199.9,0.05419
5194.11,0.05332
5188.32,0.05406
5182.54,0.05392
5176.75,0.05237
5170.97,0.05493
5165.18,0.05448
5159.39,0.05540
5153.61,0.05441
5147.82,0.05464
5142.03,0.05475
5136.25,0.05564
5130.46,0.05518
5124.68,0.05481
5118.89,0.05456
5113.1,0.05432
5107.32,0.05426
5101.53,0.05472
5095.75,0.05391
5089.96,0.05495
5084.17,0.05544
5078.39,0.05464
5072.6,0.05531
5066.81,0.05452
5061.03,0.05609
5055.24,0.05550
5049.46,0.05527
5043.67,0.05412
5037.88,0.05423
5032.1,0.05493
5026.31,0.05536
5020.52,0.05511
5014.74,0.05444
5008.95,0.05471
5003.17,0.05385
4997.38,0.05492
4991.59,0.05443
4985.81,0.05586
4980.02,0.05508
4974.23,0.05443
4968.45,0.05454
4962.66,0.05493
4956.88,0.05513
4951.09,0.05409
4945.3,0.05449
4939.52,0.05404
4933.73,0.05474
4927.94,0.05509
4922.16,0.05487
4916.37,0.05457
4910.59,0.05476
4904.8,0.05557
4899.01,0.05605
4893.23,0.05606
4887.44,0.05446
4881.65,0.05412
4875.87,0.05569
4870.08,0.05476
4864.3,0.05666
4858.51,0.05566
4852.72,0.05571
4846.94,0.05510
4841.15,0.05496
4835.36,0.05467
4829.58,0.05577
4823.79,0.05466
4818.01,0.05477
4812.22,0.05622
4806.43,0.05514
4800.65,0.05479
4794.86,0.05562
4789.07,0.05546
4783.29,0.05467
4777.5,0.05447
4771.72,0.05428
4765.93,0.05544
4760.14,0.05460
4754.36,0.05325
4748.57,0.05392
4742.78,0.05408
4737,0.05357
4731.21,0.05506
4725.43,0.05464
4719.64,0.05469
4713.85,0.05421
4708.07,0.05403
4702.28,0.05529
4696.49,0.05480
4690.71,0.05490
4684.92,0.05472
4679.14,0.05416
4673.35,0.05372
4667.56,0.05410
4661.78,0.05395
4655.99,0.05489
4650.2,0.05447
4644.42,0.05483
4638.63,0.05400
4632.85,0.05426
4627.06,0.05400
4621.27,0.05555
4615.49,0.05466
4609.7,0.05430
4603.92,0.05464
4598.13,0.05431
4592.34,0.05415
4586.56,0.05436
4580.77,0.05389
4574.98,0.05411
4569.2,0.05419
4563.41,0.05490
4557.63,0.05420
4551.84,0.05467
4546.05,0.05336
4540.27,0.05360
4534.48,0.05395
4528.69,0.05369
4522.91,0.05359
4517.12,0.05407
4511.34,0.05297
4505.55,0.05365
4499.76,0.05327
4493.98,0.05218
4488.19,0.05301
4482.4,0.05266
4476.62,0.05207
4470.83,0.05102
4465.05,0.05183
4459.26,0.05152
4453.47,0.05103
4447.69,0.05029
4441.9,0.05086
4436.11,0.05100
4430.33,0.05128
4424.54,0.05193
4418.76,0.05221
4412.97,0.05252
4407.18,0.05140
4401.4,0.05069
4395.61,0.05113
4389.82,0.05208
4384.04,0.05161
4378.25,0.05219
4372.47,0.05156
4366.68,0.05183
4360.89,0.05243
4355.11,0.05299
4349.32,0.05223
4343.53,0.05241
4337.75,0.05167
4331.96,0.05218
4326.18,0.05325
4320.39,0.05357
4314.6,0.05335
4308.82,0.05314
4303.03,0.05321
4297.24,0.05292
4291.46,0.05312
4285.67,0.05309
4279.89,0.05286
4274.1,0.05239
4268.31,0.05266
4262.53,0.05262
4256.74,0.05286
4250.95,0.05219
4245.17,0.05274
4239.38,0.05242
4233.6,0.05292
4227.81,0.05231
4222.02,0.05203
4216.24,0.05259
4210.45,0.05248
4204.66,0.05283
4198.88,0.05294
4193.09,0.05242
4187.31,0.05266
4181.52,0.05266
4175.73,0.05247
4169.95,0.05250
4164.16,0.05149
4158.37,0.05272
4152.59,0.05301
4146.8,0.05224
4141.02,0.05257
4135.23,0.05278
4129.44,0.05247
4123.66,0.05291
4117.87,0.05280
4112.09,0.05252
4106.3,0.05328
4100.51,0.05284
4094.73,0.05296
4088.94,0.05335
4083.15,0.05303
4077.37,0.05317
4071.58,0.05314
4065.8,0.05368
4060.01,0.05354
4054.22,0.05299
4048.44,0.05297
4042.65,0.05255
4036.86,0.05283
4031.08,0.05351
4025.29,0.05356
4019.51,0.05432
4013.72,0.05362
4007.93,0.05359
4002.15,0.05414
3996.36,0.05391
3990.57,0.05299
3984.79,0.05386
3979,0.05414
3973.22,0.05342
3967.43,0.05356
3961.64,0.05406
3955.86,0.05484
3950.07,0.05393
3944.28,0.05342
3938.5,0.05384
3932.71,0.05371
3926.93,0.05441
3921.14,0.05442
3915.35,0.05363
3909.57,0.05449
3903.78,0.05503
3897.99,0.05434
3892.21,0.05473
3886.42,0.05427
3880.64,0.05432
3874.85,0.05457
3869.06,0.05357
3863.28,0.05380
3857.49,0.05396
3851.7,0.05422
3845.92,0.05450
3840.13,0.05423
3834.35,0.05461
3828.56,0.05458
3822.77,0.05459
3816.99,0.05494
3811.2,0.05454
3805.41,0.05404
3799.63,0.05421
3793.84,0.05455
3788.06,0.05482
3782.27,0.05417
3776.48,0.05402
3770.7,0.05435
3764.91,0.05474
3759.12,0.05439
3753.34,0.05433
3747.55,0.05474
3741.77,0.05430
3735.98,0.05460
3730.19,0.05437
3724.41,0.05481
3718.62,0.05383
3712.83,0.05483
3707.05,0.05420
3701.26,0.05407
3695.48,0.05296
3689.69,0.05256
3683.9,0.05157
3678.12,0.05246
3672.33,0.05271
3666.54,0.05207
3660.76,0.05199
3654.97,0.05137
3649.19,0.05181
3643.4,0.05208
3637.61,0.05070
3631.83,0.05146
3626.04,0.05132
3620.25,0.05183
3614.47,0.05155
3608.68,0.05161
3602.9,0.05147
3597.11,0.05214
3591.32,0.05149
3585.54,0.05164
3579.75,0.05131
3573.97,0.05177
3568.18,0.05091
3562.39,0.05138
3556.61,0.05146
3550.82,0.05125
3545.03,0.05150
3539.25,0.05166
3533.46,0.05079
3527.68,0.05113
3521.89,0.05209
3516.1,0.05161
3510.32,0.05118
3504.53,0.05098
3498.74,0.05129
3492.96,0.05216
3487.17,0.05153
3481.39,0.05108
3475.6,0.05104
3469.81,0.05182
3464.03,0.05116
3458.24,0.05086
3452.45,0.05056
3446.67,0.05089
3440.88,0.05053
3435.1,0.05081
3429.31,0.05107
3423.52,0.05030
3417.74,0.05125
3411.95,0.05126
3406.16,0.05135
3400.38,0.05104
3394.59,0.05140
3388.81,0.05166
3383.02,0.05190
3377.23,0.05161
3371.45,0.05188
3365.66,0.05187
3359.87,0.05180
3354.09,0.05149
3348.3,0.05087
3342.52,0.05151
3336.73,0.05119
3330.94,0.05140
3325.16,0.05174
3319.37,0.05204
3313.58,0.05153
3307.8,0.05210
3302.01,0.05105
3296.23,0.05141
3290.44,0.05126
3284.65,0.05127
3278.87,0.05182
3273.08,0.05135
3267.29,0.05131
3261.51,0.05160
3255.72,0.05151
3249.94,0.05087
3244.15,0.05135
3238.36,0.05159
3232.58,0.05130
3226.79,0.05152
3221,0.05191
3215.22,0.05116
3209.43,0.05109
3203.65,0.05125
3197.86,0.05097
3192.07,0.05090
3186.29,0.05040
3180.5,0.05098
3174.71,0.05078
3168.93,0.05048
3163.14,0.05098
3157.36,0.05059
3151.57,0.05057
3145.78,0.05081
3140,0.05062
3134.21,0.05059
3128.42,0.05050
3122.64,0.05113
3116.85,0.05064
3111.07,0.05032
3105.28,0.05039
3099.49,0.05026
3093.71,0.04985
3087.92,0.05077
3082.14,0.05017
3076.35,0.04994
3070.56,0.04959
3064.78,0.04930
3058.99,0.04908
3053.2,0.04849
3047.42,0.04862
3041.63,0.04825
3035.85,0.04797
3030.06,0.04770
3024.27,0.04774
3018.49,0.04753
3012.7,0.04764
3006.91,0.04780
3001.13,0.04745
2995.34,0.04777
2989.56,0.04896
2983.77,0.05026
2977.98,0.05004
2972.2,0.04913
2966.41,0.04866
2960.62,0.04852
2954.84,0.04901
2949.05,0.05119
2943.27,0.05289
2937.48,0.05376
2931.69,0.05484
2925.91,0.05621
2920.12,0.05656
2914.33,0.05592
2908.55,0.05528
2902.76,0.05376
2896.98,0.05383
2891.19,0.05377
2885.4,0.05344
2879.62,0.05352
2873.83,0.05297
2868.04,0.05375
2862.26,0.05323
2856.47,0.05427
2850.69,0.05509
2844.9,0.05402
2839.11,0.05363
2833.33,0.05324
2827.54,0.05318
2821.75,0.05291
2815.97,0.05273
2810.18,0.05286
2804.4,0.05266
2798.61,0.05301
2792.82,0.05284
2787.04,0.05275
2781.25,0.05277
2775.46,0.05245
2769.68,0.05237
2763.89,0.05262
2758.11,0.05252
2752.32,0.05270
2746.53,0.05264
2740.75,0.05296
2734.96,0.05278
2729.17,0.05227
2723.39,0.05247
2717.6,0.05249
2711.82,0.05257
2706.03,0.05240
2700.24,0.05215
2694.46,0.05271
2688.67,0.05267
2682.88,0.05246
2677.1,0.05227
2671.31,0.05238
2665.53,0.05221
2659.74,0.05203
2653.95,0.05217
2648.17,0.05272
2642.38,0.05217
2636.59,0.05254
2630.81,0.05212
2625.02,0.05240
2619.24,0.05190
2613.45,0.05174
2607.66,0.05188
2601.88,0.05200
2596.09,0.05180
2590.3,0.05216
2584.52,0.05217
2578.73,0.05188
2572.95,0.05198
2567.16,0.05181
2561.37,0.05191
2555.59,0.05185
2549.8,0.05211
2544.02,0.05197
2538.23,0.05201
2532.44,0.05186
2526.66,0.05223
2520.87,0.05192
2515.08,0.05210
2509.3,0.05174
2503.51,0.05195
2497.73,0.05163
2491.94,0.05244
2486.15,0.05239
2480.37,0.05242
2474.58,0.05193
2468.79,0.05197
2463.01,0.05231
2457.22,0.05208
2451.44,0.05191
2445.65,0.05160
2439.86,0.05152
2434.08,0.05141
2428.29,0.05134
2422.5,0.05145
2416.72,0.05156
2410.93,0.05156
2405.15,0.05161
2399.36,0.05124
2393.57,0.05149
2387.79,0.05174
2382,0.05165
2376.21,0.05168
2370.43,0.05169
2364.64,0.05150
2358.86,0.05164
2353.07,0.05143
2347.28,0.05170
2341.5,0.05158
2335.71,0.05141
2329.92,0.05088
2324.14,0.05139
2318.35,0.05124
2312.57,0.05163
2306.78,0.05119
2300.99,0.05141
2295.21,0.05162
2289.42,0.05119
2283.63,0.05136
2277.85,0.05113
2272.06,0.05127
2266.28,0.05111
2260.49,0.05156
2254.7,0.05144
2248.92,0.05097
2243.13,0.05098
2237.34,0.05146
2231.56,0.05152
2225.77,0.05140
2219.99,0.05111
2214.2,0.05106
2208.41,0.05090
2202.63,0.05104
2196.84,0.05090
2191.05,0.05095
2185.27,0.05070
2179.48,0.05098
2173.7,0.05114
2167.91,0.05090
2162.12,0.05067
2156.34,0.05073
2150.55,0.05068
2144.76,0.05042
2138.98,0.05048
2133.19,0.05058
2127.41,0.05033
2121.62,0.05049
2115.83,0.05024
2110.05,0.05034
2104.26,0.05005
2098.47,0.05011
2092.69,0.04978
2086.9,0.05004
2081.12,0.04987
2075.33,0.05016
2069.54,0.04970
2063.76,0.05008
2057.97,0.04990
2052.19,0.05003
2046.4,0.04957
2040.61,0.04998
2034.83,0.04977
2029.04,0.04985
2023.25,0.04949
2017.47,0.04950
2011.68,0.04958
2005.9,0.04945
2000.11,0.04960
1994.32,0.04924
1988.54,0.04946
1982.75,0.04931
1976.96,0.04927
1971.18,0.04889
1965.39,0.04883
1959.61,0.04916
1953.82,0.04898
1948.03,0.04898
1942.25,0.04884
1936.46,0.04847
1930.67,0.04882
1924.89,0.04866
1919.1,0.04863
1913.32,0.04833
1907.53,0.04853
1901.74,0.04870
1895.96,0.04824
1890.17,0.04787
1884.38,0.04789
1878.6,0.04767
1872.81,0.04730
1867.03,0.04714
1861.24,0.04709
1855.45,0.04686
1849.67,0.04670
1843.88,0.04637
1838.09,0.04593
1832.31,0.04575
1826.52,0.04545
1820.74,0.04499
1814.95,0.04464
1809.16,0.04395
1803.38,0.04375
1797.59,0.04324
1791.8,0.04189
1786.02,0.04129
1780.23,0.04048
1774.45,0.03907
1768.66,0.03728
1762.87,0.03488
1757.09,0.03119
1751.3,0.02692
1745.51,0.02483
1739.73,0.03835
1733.94,0.05950
1728.16,0.08027
1722.37,0.08911
1716.58,0.08355
1710.8,0.07427
1705.01,0.06761
1699.22,0.06318
1693.44,0.06044
1687.65,0.05880
1681.87,0.05770
1676.08,0.05713
1670.29,0.05570
1664.51,0.05491
1658.72,0.05421
1652.93,0.05435
1647.15,0.05393
1641.36,0.05345
1635.58,0.05278
1629.79,0.05256
1624,0.05250
1618.22,0.05236
1612.43,0.05204
1606.64,0.05132
1600.86,0.05121
1595.07,0.05083
1589.29,0.05063
1583.5,0.05011
1577.71,0.04951
1571.93,0.04960
1566.14,0.04900
1560.35,0.04902
1554.57,0.04842
1548.78,0.04838
1543,0.04812
1537.21,0.04800
1531.42,0.04774
1525.64,0.04707
1519.85,0.04628
1514.07,0.04591
1508.28,0.04550
1502.49,0.04380
1496.71,0.04195
1490.92,0.04128
1485.13,0.04356
1479.35,0.04566
1473.56,0.04615
1467.78,0.04597
1461.99,0.04585
1456.2,0.04562
1450.42,0.04782
1444.63,0.05068
1438.84,0.05158
1433.06,0.05598
1427.27,0.05708
1421.49,0.05516
1415.7,0.05280
1409.91,0.05147
1404.13,0.04925
1398.34,0.04837
1392.55,0.04825
1386.77,0.04968
1380.98,0.05102
1375.2,0.05042
1369.41,0.04948
1363.62,0.04947
1357.84,0.04908
1352.05,0.04864
1346.26,0.04803
1340.48,0.04741
1334.69,0.04681
1328.91,0.04597
1323.12,0.04505
1317.33,0.04448
1311.55,0.04351
1305.76,0.04217
1299.97,0.04097
1294.19,0.04002
1288.4,0.03807
1282.62,0.03690
1276.83,0.03754
1271.04,0.04163
1265.26,0.04494
1259.47,0.04374
1253.68,0.04300
1247.9,0.04408
1242.11,0.04884
1236.33,0.05287
1230.54,0.05349
1224.75,0.05076
1218.97,0.04679
1213.18,0.04217
1207.39,0.03802
1201.61,0.03929
1195.82,0.04638
1190.04,0.05459
1184.25,0.05507
1178.46,0.05364
1172.68,0.05361
1166.89,0.05356
1161.1,0.05433
1155.32,0.06146
1149.53,0.08070
1143.75,0.09228
1137.96,0.09203
1132.17,0.08708
1126.39,0.08297
1120.6,0.08041
1114.81,0.07744
1109.03,0.07491
1103.24,0.07285
1097.46,0.07093
1091.67,0.06894
1085.88,0.06738
1080.1,0.06581
1074.31,0.06553
1068.52,0.06509
1062.74,0.06620
1056.95,0.06707
1051.17,0.06677
1045.38,0.06475
1039.59,0.06339
1033.81,0.06224
1028.02,0.06142
1022.24,0.06060
1016.45,0.05925
1010.66,0.05740
1004.88,0.05575
999.09,0.05473
993.304,0.05643
987.518,0.05930
981.731,0.06122
975.945,0.06146
970.159,0.06103
964.373,0.06248
958.586,0.06349
952.8,0.06379
947.014,0.06294
941.228,0.06261
935.441,0.06211
929.655,0.06112
923.869,0.06045
918.083,0.06057
912.297,0.06085
906.51,0.06118
900.724,0.06105
894.938,0.06070
889.152,0.05968
883.365,0.05874
877.579,0.05872
871.793,0.05961
866.007,0.05788
860.22,0.05805
854.434,0.05758
848.648,0.05764
842.862,0.05902
837.075,0.06104
831.289,0.06048
825.503,0.06062
819.717,0.05986
813.931,0.05913
808.144,0.05931
802.358,0.06085
796.572,0.05957
790.786,0.05956
784.999,0.05878
779.213,0.05794
773.427,0.05663
767.641,0.05594
761.854,0.05589
756.068,0.05668
750.282,0.06048
744.496,0.06480
738.709,0.06285
732.923,0.06118
727.137,0.06093
721.351,0.06067
715.565,0.05975
709.778,0.05905
703.992,0.05906
698.206,0.05927
692.42,0.05905
686.633,0.05830
680.847,0.05809
675.061,0.05767
669.275,0.05715
663.488,0.05654
657.702,0.05637
651.916,0.05673
646.13,0.05642
640.343,0.05640
634.557,0.05677
628.771,0.05445
622.985,0.05718
617.198,0.05591
611.412,0.05601
605.626,0.05489
599.84,0.05418