File: 01_Data/Black_PMMA/FTIR/IS/Black_PMMA_IS_S_221012_R8.dpt
7497.03,0.05208
7491.25,0.05645
7485.46,0.05855
7479.67,0.05220
7473.89,0.04469
7468.1,0.05368
7462.32,0.05168
7456.53,0.05127
7450.74,0.04486
7444.96,0.05355
7439.17,0.05144
7433.38,0.04725
7427.6,0.05619
7421.81,0.05186
7416.03,0.04744
7410.24,0.04678
7404.45,0.05203
7398.67,0.04836
7392.88,0.05048
7387.09,0.06173
7381.31,0.04706
7375.52,0.05037
7369.74,0.05529
7363.95,0.05221
7358.16,0.05245
7352.38,0.05766
7346.59,0.04998
7340.8,0.05392
7335.02,0.05282
7329.23,0.05081
7323.45,0.05291
7317.66,0.05028
7311.87,0.05275
7306.09,0.05630
7300.3,0.05407
7294.51,0.05921
7288.73,0.05717
7282.94,0.06198
7277.16,0.05754
7271.37,0.04719
7265.58,0.05724
7259.8,0.05338
7254.01,0.04363
7248.22,0.04625
7242.44,0.04667
7236.65,0.04397
7230.87,0.04415
7225.08,0.04925
7219.29,0.05947
7213.51,0.04679
7207.72,0.05233
7201.93,0.04855
7196.15,0.05577
7190.36,0.05547
7184.58,0.04844
7178.79,0.04546
7173,0.05723
7167.22,0.04825
7161.43,0.05046
7155.65,0.05251
7149.86,0.05215
7144.07,0.05412
7138.29,0.06039
7132.5,0.05476
7126.71,0.05546
7120.93,0.05169
7115.14,0.05688
7109.36,0.05876
7103.57,0.05173
7097.78,0.05776
7092,0.04891
7086.21,0.05367
7080.42,0.05478
7074.64,0.05251
7068.85,0.05756
7063.07,0.05483
7057.28,0.05132
7051.49,0.05927
7045.71,0.04931
7039.92,0.04906
7034.13,0.05217
7028.35,0.05485
7022.56,0.05259
7016.78,0.04891
7010.99,0.05382
7005.2,0.05757
6999.42,0.05799
6993.63,0.04699
6987.84,0.05332
6982.06,0.04835
6976.27,0.05525
6970.49,0.04717
6964.7,0.05391
6958.91,0.05501
6953.13,0.05768
6947.34,0.05575
6941.55,0.05643
6935.77,0.04772
6929.98,0.05688
6924.2,0.05184
6918.41,0.04594
6912.62,0.04995
6906.84,0.04814
6901.05,0.05249
6895.26,0.05499
6889.48,0.05443
6883.69,0.05507
6877.91,0.05177
6872.12,0.05405
6866.33,0.05699
6860.55,0.05146
6854.76,0.05368
6848.97,0.05355
6843.19,0.05272
6837.4,0.05308
6831.62,0.05391
6825.83,0.05177
6820.04,0.04956
6814.26,0.05698
6808.47,0.04959
6802.68,0.04908
6796.9,0.05537
6791.11,0.05157
6785.33,0.05138
6779.54,0.05735
6773.75,0.05448
6767.97,0.05297
6762.18,0.04699
6756.39,0.05353
6750.61,0.05681
6744.82,0.05549
6739.04,0.04813
6733.25,0.04621
6727.46,0.05304
6721.68,0.04929
6715.89,0.05452
6710.1,0.05331
6704.32,0.05348
6698.53,0.04835
6692.75,0.05506
6686.96,0.05325
6681.17,0.05451
6675.39,0.05163
6669.6,0.05130
6663.82,0.05577
6658.03,0.04965
6652.24,0.05557
6646.46,0.05100
6640.67,0.05618
6634.88,0.05323
6629.1,0.05245
6623.31,0.05704
6617.53,0.05260
6611.74,0.05124
6605.95,0.05032
6600.17,0.05356
6594.38,0.05319
6588.59,0.05202
6582.81,0.05095
6577.02,0.05011
6571.24,0.05118
6565.45,0.05455
6559.66,0.05461
6553.88,0.05297
6548.09,0.05233
6542.3,0.05517
6536.52,0.05310
6530.73,0.05225
6524.95,0.05078
6519.16,0.05296
6513.37,0.05527
6507.59,0.05372
6501.8,0.05299
6496.01,0.05775
6490.23,0.05358
6484.44,0.05437
6478.66,0.05525
6472.87,0.05530
6467.08,0.05194
6461.3,0.05259
6455.51,0.05611
6449.72,0.05579
6443.94,0.04690
6438.15,0.05104
6432.37,0.05179
6426.58,0.05537
6420.79,0.05419
6415.01,0.05064
6409.22,0.05168
6403.43,0.05439
6397.65,0.05336
6391.86,0.05329
6386.08,0.05056
6380.29,0.05443
6374.5,0.05164
6368.72,0.05441
6362.93,0.05105
6357.14,0.05036
6351.36,0.05216
6345.57,0.05400
6339.79,0.05316
6334,0.05376
6328.21,0.05294
6322.43,0.05548
6316.64,0.05175
6310.85,0.05087
6305.07,0.05221
6299.28,0.05698
6293.5,0.05437
6287.71,0.05710
6281.92,0.05241
6276.14,0.05449
6270.35,0.05566
6264.56,0.05433
6258.78,0.05515
6252.99,0.05272
6247.21,0.05194
6241.42,0.05274
6235.63,0.05263
6229.85,0.05235
6224.06,0.05347
6218.27,0.05429
6212.49,0.05159
6206.7,0.05181
6200.92,0.05232
6195.13,0.05505
6189.34,0.05509
6183.56,0.05415
6177.77,0.05566
6171.98,0.04857
6166.2,0.05381
6160.41,0.05330
6154.63,0.05496
6148.84,0.05610
6143.05,0.05379
6137.27,0.05260
6131.48,0.05488
6125.7,0.05122
6119.91,0.05482
6114.12,0.05245
6108.34,0.05313
6102.55,0.05268
6096.76,0.05363
6090.98,0.05130
6085.19,0.05289
6079.41,0.05348
6073.62,0.05282
6067.83,0.05378
6062.05,0.05371
6056.26,0.05312
6050.47,0.05261
6044.69,0.05251
6038.9,0.05271
6033.12,0.05100
6027.33,0.05443
6021.54,0.05036
6015.76,0.05306
6009.97,0.05477
6004.18,0.04987
5998.4,0.05203
5992.61,0.05296
5986.83,0.05228
5981.04,0.05159
5975.25,0.05057
5969.47,0.05237
5963.68,0.05065
5957.89,0.04861
5952.11,0.05070
5946.32,0.05228
5940.54,0.05132
5934.75,0.05144
5928.96,0.05026
5923.18,0.04921
5917.39,0.05036
5911.6,0.05222
5905.82,0.05204
5900.03,0.05203
5894.25,0.05142
5888.46,0.05175
5882.67,0.05310
5876.89,0.05033
5871.1,0.05018
5865.31,0.05259
5859.53,0.05166
5853.74,0.05156
5847.96,0.05325
5842.17,0.05248
5836.38,0.05307
5830.6,0.05216
5824.81,0.05303
5819.02,0.05451
5813.24,0.05076
5807.45,0.05059
5801.67,0.05153
5795.88,0.05012
5790.09,0.05245
5784.31,0.05236
5778.52,0.05359
5772.73,0.05372
5766.95,0.05163
5761.16,0.05436
5755.38,0.05504
5749.59,0.05346
5743.8,0.05221
5738.02,0.05214
5732.23,0.05165
5726.44,0.05043
5720.66,0.05299
5714.87,0.05332
5709.09,0.05331
5703.3,0.05262
5697.51,0.05262
5691.73,0.05543
5685.94,0.05533
5680.15,0.05348
5674.37,0.05440
5668.58,0.05406
5662.8,0.05357
5657.01,0.05243
5651.22,0.05212
5645.44,0.05358
5639.65,0.05437
5633.87,0.05355
5628.08,0.05221
5622.29,0.05153
5616.51,0.05409
5610.72,0.05455
5604.93,0.05383
5599.15,0.05378
5593.36,0.05419
5587.58,0.05495
5581.79,0.05294
5576,0.05423
5570.22,0.05366
5564.43,0.05490
5558.64,0.05424
5552.86,0.05419
5547.07,0.05356
5541.29,0.05390
5535.5,0.05276
5529.71,0.05349
5523.93,0.05461
5518.14,0.05331
5512.35,0.05428
5506.57,0.05449
5500.78,0.05495
5495,0.05508
5489.21,0.05493
5483.42,0.05409
5477.64,0.05474
5471.85,0.05297
5466.06,0.05396
5460.28,0.05566
5454.49,0.05389
5448.71,0.05342
5442.92,0.05440
5437.13,0.05589
5431.35,0.05574
5425.56,0.05491
5419.77,0.05349
5413.99,0.05434
5408.2,0.05363
5402.42,0.05354
5396.63,0.05363
5390.84,0.05656
5385.06,0.05291
5379.27,0.05495
5373.48,0.05386
5367.7,0.05377
5361.91,0.05565
5356.13,0.05482
5350.34,0.05411
5344.55,0.05433
5338.77,0.05647
5332.98,0.05450
5327.19,0.05388
5321.41,0.05366
5315.62,0.05547
5309.84,0.05325
5304.05,0.05487
5298.26,0.05489
5292.48,0.05501
5286.69,0.05475
5280.9,0.05474
5275.12,0.05315
5269.33,0.05466
5263.55,0.05312
5257.76,0.05505
5251.97,0.05408
5246.19,0.05627
5240.4,0.05489
5234.61,0.05486
5228.83,0.05597
5223.04,0.05576
5217.26,0.05482
5211.47,0.05302
5205.68,0.05376
5199.9,0.05496
5194.11,0.05485
5188.32,0.05560
5182.54,0.05492
5176.75,0.05594
5170.97,0.05500
5165.18,0.05435
5159.39,0.05448
5153.61,0.05479
5147.82,0.05477
5142.03,0.05377
5136.25,0.05354
5130.46,0.05363
5124.68,0.05488
5118.89,0.05409
5113.1,0.05449
5107.32,0.05394
5101.53,0.05474
5095.75,0.05479
5089.96,0.05461
5084.17,0.05524
5078.39,0.05504
5072.6,0.05389
5066.81,0.05515
5061.03,0.05437
5055.24,0.05583
5049.46,0.05509
5043.67,0.05670
5037.88,0.05511
5032.1,0.05522
5026.31,0.05527
5020.52,0.05531
5014.74,0.05518
5008.95,0.05539
5003.17,0.05507
4997.38,0.05477
4991.59,0.05441
4985.81,0.05680
4980.02,0.05496
4974.23,0.05504
4968.45,0.05509
4962.66,0.05557
4956.88,0.05669
4951.09,0.05563
4945.3,0.05466
4939.52,0.05492
4933.73,0.05454
4927.94,0.05553
4922.16,0.05605
4916.37,0.05633
4910.59,0.05542
4904.8,0.05722
4899.01,0.05552
4893.23,0.05505
4887.44,0.05587
4881.65,0.05584
4875.87,0.05394
4870.08,0.05465
4864.3,0.05534
4858.51,0.05560
4852.72,0.05480
4846.94,0.05551
4841.15,0.05556
4835.36,0.05501
4829.58,0.05552
4823.79,0.05501
4818.01,0.05507
4812.22,0.05626
4806.43,0.05539
4800.65,0.05475
4794.86,0.05633
4789.07,0.05557
4783.29,0.05512
4777.5,0.05447
4771.72,0.05491
4765.93,0.05503
4760.14,0.05419
4754.36,0.05467
4748.57,0.05454
4742.78,0.05424
4737,0.05503
4731.21,0.05506
4725.43,0.05501
4719.64,0.05494
4713.85,0.05556
4708.07,0.05512
4702.28,0.05437
4696.49,0.05466
4690.71,0.05483
4684.92,0.05402
4679.14,0.05399
4673.35,0.05407
4667.56,0.05377
4661.78,0.05404
4655.99,0.05535
4650.2,0.05549
4644.42,0.05467
4638.63,0.05560
4632.85,0.05449
4627.06,0.05578
4621.27,0.05545
4615.49,0.05452
4609.7,0.05434
4603.92,0.05412
4598.13,0.05461
4592.34,0.05411
4586.56,0.05596
4580.77,0.05466
4574.98,0.05442
4569.2,0.05312
4563.41,0.05476
4557.63,0.05471
4551.84,0.05399
4546.05,0.05381
4540.27,0.05379
4534.48,0.05428
4528.69,0.05397
4522.91,0.05417
4517.12,0.05429
4511.34,0.05377
4505.55,0.05300
4499.76,0.05324
4493.98,0.05232
4488.19,0.05240
4482.4,0.05207
4476.62,0.05204
4470.83,0.05190
4465.05,0.05199
4459.26,0.05206
4453.47,0.05168
4447.69,0.05065
4441.9,0.05166
4436.11,0.05095
4430.33,0.05132
4424.54,0.05153
4418.76,0.05092
4412.97,0.05163
4407.18,0.05251
4401.4,0.05162
4395.61,0.05105
4389.82,0.05095
4384.04,0.05190
4378.25,0.05279
4372.47,0.05183
4366.68,0.05190
4360.89,0.05232
4355.11,0.05333
4349.32,0.05315
4343.53,0.05209
4337.75,0.05227
4331.96,0.05256
4326.18,0.05284
4320.39,0.05310
4314.6,0.05303
4308.82,0.05285
4303.03,0.05324
4297.24,0.05249
4291.46,0.05199
4285.67,0.05367
4279.89,0.05293
4274.1,0.05311
4268.31,0.05363
4262.53,0.05261
4256.74,0.05304
4250.95,0.05316
4245.17,0.05284
4239.38,0.05280
4233.6,0.05256
4227.81,0.05309
4222.02,0.05353
4216.24,0.05306
4210.45,0.05214
4204.66,0.05261
4198.88,0.05263
4193.09,0.05307
4187.31,0.05253
4181.52,0.05267
4175.73,0.05291
4169.95,0.05314
4164.16,0.05274
4158.37,0.05320
4152.59,0.05301
4146.8,0.05269
4141.02,0.05289
4135.23,0.05387
4129.44,0.05345
4123.66,0.05322
4117.87,0.05289
4112.09,0.05327
4106.3,0.05293
4100.51,0.05300
4094.73,0.05283
4088.94,0.05319
4083.15,0.05275
4077.37,0.05332
4071.58,0.05320
4065.8,0.05323
4060.01,0.05379
4054.22,0.05297
4048.44,0.05383
4042.65,0.05409
4036.86,0.05400
4031.08,0.05357
4025.29,0.05349
4019.51,0.05394
4013.72,0.05381
4007.93,0.05362
4002.15,0.05425
3996.36,0.05338
3990.57,0.05329
3984.79,0.05345
3979,0.05446
3973.22,0.05392
3967.43,0.05394
3961.64,0.05379
3955.86,0.05392
3950.07,0.05394
3944.28,0.05383
3938.5,0.05366
3932.71,0.05353
3926.93,0.05366
3921.14,0.05475
3915.35,0.05408
3909.57,0.05435
3903.78,0.05405
3897.99,0.05409
3892.21,0.05397
3886.42,0.05389
3880.64,0.05433
3874.85,0.05420
3869.06,0.05425
3863.28,0.05461
3857.49,0.05538
3851.7,0.05485
3845.92,0.05403
3840.13,0.05448
3834.35,0.05476
3828.56,0.05419
3822.77,0.05429
3816.99,0.05449
3811.2,0.05455
3805.41,0.05488
3799.63,0.05447
3793.84,0.05447
3788.06,0.05534
3782.27,0.05507
3776.48,0.05475
3770.7,0.05441
3764.91,0.05404
3759.12,0.05472
3753.34,0.05463
3747.55,0.05400
3741.77,0.05469
3735.98,0.05459
3730.19,0.05449
3724.41,0.05443
3718.62,0.05438
3712.83,0.05421
3707.05,0.05449
3701.26,0.05380
3695.48,0.05366
3689.69,0.05379
3683.9,0.05288
3678.12,0.05297
3672.33,0.05248
3666.54,0.05233
3660.76,0.05208
3654.97,0.05237
3649.19,0.05157
3643.4,0.05154
3637.61,0.05157
3631.83,0.05221
3626.04,0.05090
3620.25,0.05175
3614.47,0.05083
3608.68,0.05130
3602.9,0.05220
3597.11,0.05198
3591.32,0.05220
3585.54,0.05217
3579.75,0.05191
3573.97,0.05162
3568.18,0.05108
3562.39,0.05131
3556.61,0.05169
3550.82,0.05185
3545.03,0.05159
3539.25,0.05204
3533.46,0.05173
3527.68,0.05122
3521.89,0.05143
3516.1,0.05128
3510.32,0.05171
3504.53,0.05157
3498.74,0.05158
3492.96,0.05185
3487.17,0.05176
3481.39,0.05169
3475.6,0.05122
3469.81,0.05122
3464.03,0.05181
3458.24,0.05178
3452.45,0.05130
3446.67,0.05111
3440.88,0.05110
3435.1,0.05054
3429.31,0.05053
3423.52,0.05084
3417.74,0.05120
3411.95,0.05184
3406.16,0.05209
3400.38,0.05174
3394.59,0.05183
3388.81,0.05196
3383.02,0.05143
3377.23,0.05236
3371.45,0.05170
3365.66,0.05233
3359.87,0.05219
3354.09,0.05169
3348.3,0.05180
3342.52,0.05156
3336.73,0.05152
3330.94,0.05239
3325.16,0.05198
3319.37,0.05147
3313.58,0.05199
3307.8,0.05183
3302.01,0.05129
3296.23,0.05222
3290.44,0.05141
3284.65,0.05152
3278.87,0.05137
3273.08,0.05130
3267.29,0.05180
3261.51,0.05126
3255.72,0.05185
3249.94,0.05192
3244.15,0.05171
3238.36,0.05126
3232.58,0.05128
3226.79,0.05099
3221,0.05073
3215.22,0.05116
3209.43,0.05105
3203.65,0.05136
3197.86,0.05184
3192.07,0.05115
3186.29,0.05134
3180.5,0.05044
3174.71,0.05072
3168.93,0.05144
3163.14,0.05094
3157.36,0.05101
3151.57,0.05066
3145.78,0.05082
3140,0.05118
3134.21,0.05138
3128.42,0.05082
3122.64,0.05056
3116.85,0.05088
3111.07,0.05028
3105.28,0.05074
3099.49,0.04993
3093.71,0.04989
3087.92,0.05040
3082.14,0.05014
3076.35,0.05003
3070.56,0.04950
3064.78,0.05011
3058.99,0.04910
3053.2,0.04879
3047.42,0.04887
3041.63,0.04861
3035.85,0.04827
3030.06,0.04795
3024.27,0.04796
3018.49,0.04747
3012.7,0.04716
3006.91,0.04782
3001.13,0.04805
2995.34,0.04868
2989.56,0.04996
2983.77,0.05022
2977.98,0.05023
2972.2,0.04925
2966.41,0.04899
2960.62,0.04896
2954.84,0.04942
2949.05,0.05124
2943.27,0.05334
2937.48,0.05427
2931.69,0.05536
2925.91,0.05624
2920.12,0.05591
2914.33,0.05608
2908.55,0.05507
2902.76,0.05435
2896.98,0.05434
2891.19,0.05354
2885.4,0.05356
2879.62,0.05368
2873.83,0.05322
2868.04,0.05357
2862.26,0.05375
2856.47,0.05464
2850.69,0.05468
2844.9,0.05358
2839.11,0.05318
2833.33,0.05301
2827.54,0.05311
2821.75,0.05295
2815.97,0.05256
2810.18,0.05306
2804.4,0.05301
2798.61,0.05327
2792.82,0.05294
2787.04,0.05284
2781.25,0.05271
2775.46,0.05303
2769.68,0.05268
2763.89,0.05284
2758.11,0.05225
2752.32,0.05299
2746.53,0.05272
2740.75,0.05257
2734.96,0.05249
2729.17,0.05265
2723.39,0.05297
2717.6,0.05270
2711.82,0.05272
2706.03,0.05255
2700.24,0.05299
2694.46,0.05308
2688.67,0.05325
2682.88,0.05279
2677.1,0.05309
2671.31,0.05286
2665.53,0.05270
2659.74,0.05266
2653.95,0.05273
2648.17,0.05221
2642.38,0.05200
2636.59,0.05249
2630.81,0.05241
2625.02,0.05262
2619.24,0.05206
2613.45,0.05225
2607.66,0.05223
2601.88,0.05205
2596.09,0.05181
2590.3,0.05202
2584.52,0.05223
2578.73,0.05219
2572.95,0.05244
2567.16,0.05223
2561.37,0.05231
2555.59,0.05211
2549.8,0.05255
2544.02,0.05236
2538.23,0.05229
2532.44,0.05219
2526.66,0.05219
2520.87,0.05198
2515.08,0.05220
2509.3,0.05236
2503.51,0.05217
2497.73,0.05221
2491.94,0.05237
2486.15,0.05204
2480.37,0.05211
2474.58,0.05207
2468.79,0.05217
2463.01,0.05197
2457.22,0.05230
2451.44,0.05190
2445.65,0.05195
2439.86,0.05251
2434.08,0.05201
2428.29,0.05212
2422.5,0.05155
2416.72,0.05195
2410.93,0.05146
2405.15,0.05195
2399.36,0.05197
2393.57,0.05171
2387.79,0.05171
2382,0.05186
2376.21,0.05151
2370.43,0.05167
2364.64,0.05158
2358.86,0.05168
2353.07,0.05174
2347.28,0.05154
2341.5,0.05143
2335.71,0.05137
2329.92,0.05155
2324.14,0.05148
2318.35,0.05183
2312.57,0.05152
2306.78,0.05157
2300.99,0.05192
2295.21,0.05171
2289.42,0.05181
2283.63,0.05149
2277.85,0.05140
2272.06,0.05151
2266.28,0.05116
2260.49,0.05154
2254.7,0.05155
2248.92,0.05176
2243.13,0.05091
2237.34,0.05102
2231.56,0.05122
2225.77,0.05137
2219.99,0.05104
2214.2,0.05160
2208.41,0.05137
2202.63,0.05143
2196.84,0.05109
2191.05,0.05132
2185.27,0.05130
2179.48,0.05103
2173.7,0.05082
2167.91,0.05097
2162.12,0.05098
2156.34,0.05105
2150.55,0.05092
2144.76,0.05072
2138.98,0.05018
2133.19,0.05070
2127.41,0.05064
2121.62,0.05025
2115.83,0.05062
2110.05,0.05035
2104.26,0.05061
2098.47,0.05078
2092.69,0.05008
2086.9,0.05031
2081.12,0.05007
2075.33,0.05032
2069.54,0.05038
2063.76,0.04998
2057.97,0.05007
2052.19,0.05003
2046.4,0.04988
2040.61,0.04990
2034.83,0.04976
2029.04,0.04985
2023.25,0.05023
2017.47,0.04994
2011.68,0.04983
2005.9,0.04985
2000.11,0.04958
1994.32,0.04952
1988.54,0.04936
1982.75,0.04923
1976.96,0.04943
1971.18,0.04937
1965.39,0.04918
1959.61,0.04931
1953.82,0.04951
1948.03,0.04915
1942.25,0.04920
1936.46,0.04936
1930.67,0.04880
1924.89,0.04868
1919.1,0.04869
1913.32,0.04873
1907.53,0.04881
1901.74,0.04859
1895.96,0.04830
1890.17,0.04829
1884.38,0.04794
1878.6,0.04789
1872.81,0.04775
1867.03,0.04755
1861.24,0.04710
1855.45,0.04682
1849.67,0.04704
1843.88,0.04637
1838.09,0.04607
1832.31,0.04569
1826.52,0.04562
1820.74,0.04522
1814.95,0.04478
1809.16,0.04442
1803.38,0.04374
1797.59,0.04290
1791.8,0.04243
1786.02,0.04206
1780.23,0.04065
1774.45,0.03932
1768.66,0.03747
1762.87,0.03508
1757.09,0.03117
1751.3,0.02639
1745.51,0.02519
1739.73,0.03848
1733.94,0.05975
1728.16,0.08102
1722.37,0.08947
1716.58,0.08360
1710.8,0.07453
1705.01,0.06793
1699.22,0.06305
1693.44,0.06036
1687.65,0.05943
1681.87,0.05755
1676.08,0.05704
1670.29,0.05559
1664.51,0.05530
1658.72,0.05499
1652.93,0.05457
1647.15,0.05372
1641.36,0.05330
1635.58,0.05290
1629.79,0.05262
1624,0.05230
1618.22,0.05240
1612.43,0.05192
1606.64,0.05155
1600.86,0.05139
1595.07,0.05126
1589.29,0.05104
1583.5,0.05062
1577.71,0.05048
1571.93,0.04960
1566.14,0.04919
1560.35,0.04921
1554.57,0.04836
1548.78,0.04843
1543,0.04890
1537.21,0.04771
1531.42,0.04793
1525.64,0.04722
1519.85,0.04679
1514.07,0.04626
1508.28,0.04514
1502.49,0.04418
1496.71,0.04229
1490.92,0.04162
1485.13,0.04401
1479.35,0.04592
1473.56,0.04650
1467.78,0.04631
1461.99,0.04606
1456.2,0.04653
1450.42,0.04801
1444.63,0.05094
1438.84,0.05182
1433.06,0.05619
1427.27,0.05710
1421.49,0.05526
1415.7,0.05301
1409.91,0.05089
1404.13,0.04965
1398.34,0.04873
1392.55,0.04865
1386.77,0.04978
1380.98,0.05114
1375.2,0.05083
1369.41,0.04973
1363.62,0.05005
1357.84,0.04908
1352.05,0.04883
1346.26,0.04844
1340.48,0.04742
1334.69,0.04656
1328.91,0.04600
1323.12,0.04522
1317.33,0.04441
1311.55,0.04365
1305.76,0.04244
1299.97,0.04123
1294.19,0.03972
1288.4,0.03847
1282.62,0.03728
1276.83,0.03771
1271.04,0.04174
1265.26,0.04488
1259.47,0.04402
1253.68,0.04288
1247.9,0.04423
1242.11,0.04856
1236.33,0.05302
1230.54,0.05326
1224.75,0.05129
1218.97,0.04718
1213.18,0.04196
1207.39,0.03732
1201.61,0.03881
1195.82,0.04644
1190.04,0.05457
1184.25,0.05545
1178.46,0.05374
1172.68,0.05403
1166.89,0.05397
1161.1,0.05543
1155.32,0.06200
1149.53,0.08082
1143.75,0.09334
1137.96,0.09239
1132.17,0.08848
1126.39,0.08379
1120.6,0.08040
1114.81,0.07802
1109.03,0.07517
1103.24,0.07343
1097.46,0.07108
1091.67,0.06888
1085.88,0.06663
1080.1,0.06636
1074.31,0.06502
1068.52,0.06500
1062.74,0.06564
1056.95,0.06693
1051.17,0.06684
1045.38,0.06505
1039.59,0.06315
1033.81,0.06211
1028.02,0.06150
1022.24,0.06079
1016.45,0.05927
1010.66,0.05694
1004.88,0.05540
999.09,0.05508
993.304,0.05710
987.518,0.06036
981.731,0.06163
975.945,0.06162
970.159,0.06139
964.373,0.06279
958.586,0.06437
952.8,0.06391
947.014,0.06319
941.228,0.06285
935.441,0.06188
929.655,0.06117
923.869,0.06126
918.083,0.06050
912.297,0.06130
906.51,0.06125
900.724,0.06143
894.938,0.06129
889.152,0.06023
883.365,0.05995
877.579,0.05911
871.793,0.05866
866.007,0.05811
860.22,0.05792
854.434,0.05767
848.648,0.05685
842.862,0.05917
837.075,0.06085
831.289,0.05979
825.503,0.06102
819.717,0.06061
813.931,0.05919
808.144,0.05977
802.358,0.06003
796.572,0.05962
790.786,0.05927
784.999,0.05841
779.213,0.05844
773.427,0.05747
767.641,0.05687
761.854,0.05627
756.068,0.05709
750.282,0.06131
744.496,0.06396
738.709,0.06220
732.923,0.06099
727.137,0.06021
721.351,0.06020
715.565,0.05983
709.778,0.05943
703.992,0.05920
698.206,0.05871
692.42,0.05888
686.633,0.05811
680.847,0.05834
675.061,0.05791
669.275,0.05756
663.488,0.05626
657.702,0.05714
651.916,0.05710
646.13,0.05670
640.343,0.05534
634.557,0.05555
628.771,0.05611
622.985,0.05673
617.198,0.05361
611.412,0.05560
605.626,0.05436
599.84,0.05236