File: 01_Data/Black_PMMA/FTIR/IS/Black_PMMA_IS_S_221012_R6.dpt
7497.03,0.05952
7491.25,0.04721
7485.46,0.05087
7479.67,0.05867
7473.89,0.04738
7468.1,0.06016
7462.32,0.04589
7456.53,0.04703
7450.74,0.04630
7444.96,0.04800
7439.17,0.05111
7433.38,0.04742
7427.6,0.04897
7421.81,0.05146
7416.03,0.05629
7410.24,0.05664
7404.45,0.04735
7398.67,0.05439
7392.88,0.05229
7387.09,0.05620
7381.31,0.04683
7375.52,0.05374
7369.74,0.05936
7363.95,0.05729
7358.16,0.05177
7352.38,0.05620
7346.59,0.05227
7340.8,0.05220
7335.02,0.05734
7329.23,0.05790
7323.45,0.05247
7317.66,0.05249
7311.87,0.04433
7306.09,0.05431
7300.3,0.04596
7294.51,0.05248
7288.73,0.04722
7282.94,0.04735
7277.16,0.05003
7271.37,0.05335
7265.58,0.05445
7259.8,0.05411
7254.01,0.04674
7248.22,0.04799
7242.44,0.05668
7236.65,0.05736
7230.87,0.05239
7225.08,0.04158
7219.29,0.04725
7213.51,0.05957
7207.72,0.05118
7201.93,0.05019
7196.15,0.05610
7190.36,0.04538
7184.58,0.05100
7178.79,0.05297
7173,0.04511
7167.22,0.05861
7161.43,0.05320
7155.65,0.05076
7149.86,0.05009
7144.07,0.05389
7138.29,0.05726
7132.5,0.05391
7126.71,0.05003
7120.93,0.06157
7115.14,0.04786
7109.36,0.05347
7103.57,0.05314
7097.78,0.05169
7092,0.05745
7086.21,0.05008
7080.42,0.04739
7074.64,0.05026
7068.85,0.05263
7063.07,0.05168
7057.28,0.04909
7051.49,0.05484
7045.71,0.05207
7039.92,0.04964
7034.13,0.05150
7028.35,0.05416
7022.56,0.04947
7016.78,0.05185
7010.99,0.05241
7005.2,0.05652
6999.42,0.05046
6993.63,0.05790
6987.84,0.05269
6982.06,0.05023
6976.27,0.05350
6970.49,0.05293
6964.7,0.05343
6958.91,0.05294
6953.13,0.05098
6947.34,0.05655
6941.55,0.05447
6935.77,0.05040
6929.98,0.04821
6924.2,0.05250
6918.41,0.05434
6912.62,0.05078
6906.84,0.04930
6901.05,0.05051
6895.26,0.04906
6889.48,0.06350
6883.69,0.05583
6877.91,0.05096
6872.12,0.05354
6866.33,0.04984
6860.55,0.04957
6854.76,0.05229
6848.97,0.05041
6843.19,0.05057
6837.4,0.05531
6831.62,0.05066
6825.83,0.05190
6820.04,0.04879
6814.26,0.04990
6808.47,0.04934
6802.68,0.05549
6796.9,0.05721
6791.11,0.05539
6785.33,0.05611
6779.54,0.05628
6773.75,0.04990
6767.97,0.05081
6762.18,0.05209
6756.39,0.05634
6750.61,0.05422
6744.82,0.04799
6739.04,0.05213
6733.25,0.05010
6727.46,0.04973
6721.68,0.05392
6715.89,0.05093
6710.1,0.05235
6704.32,0.04861
6698.53,0.05473
6692.75,0.05215
6686.96,0.05044
6681.17,0.05302
6675.39,0.05522
6669.6,0.05009
6663.82,0.04975
6658.03,0.05113
6652.24,0.05526
6646.46,0.05103
6640.67,0.05335
6634.88,0.05139
6629.1,0.05169
6623.31,0.05184
6617.53,0.05199
6611.74,0.05116
6605.95,0.05245
6600.17,0.04887
6594.38,0.05117
6588.59,0.04760
6582.81,0.05407
6577.02,0.05141
6571.24,0.05227
6565.45,0.04877
6559.66,0.05569
6553.88,0.05094
6548.09,0.04793
6542.3,0.05401
6536.52,0.05252
6530.73,0.05426
6524.95,0.05017
6519.16,0.05403
6513.37,0.04992
6507.59,0.05311
6501.8,0.05076
6496.01,0.05615
6490.23,0.05113
6484.44,0.05040
6478.66,0.05084
6472.87,0.05457
6467.08,0.05102
6461.3,0.05310
6455.51,0.05624
6449.72,0.05184
6443.94,0.05192
6438.15,0.05080
6432.37,0.05256
6426.58,0.05478
6420.79,0.04860
6415.01,0.05206
6409.22,0.05092
6403.43,0.04858
6397.65,0.05164
6391.86,0.05144
6386.08,0.05271
6380.29,0.05512
6374.5,0.05370
6368.72,0.05275
6362.93,0.05207
6357.14,0.04917
6351.36,0.05069
6345.57,0.05049
6339.79,0.04966
6334,0.05266
6328.21,0.05262
6322.43,0.05467
6316.64,0.05315
6310.85,0.05409
6305.07,0.05340
6299.28,0.05454
6293.5,0.05252
6287.71,0.05054
6281.92,0.05130
6276.14,0.05435
6270.35,0.05192
6264.56,0.05284
6258.78,0.04894
6252.99,0.05054
6247.21,0.05425
6241.42,0.05215
6235.63,0.05094
6229.85,0.04927
6224.06,0.05417
6218.27,0.05356
6212.49,0.05238
6206.7,0.05376
6200.92,0.05345
6195.13,0.05215
6189.34,0.05164
6183.56,0.05093
6177.77,0.05225
6171.98,0.05407
6166.2,0.05410
6160.41,0.05035
6154.63,0.05172
6148.84,0.05028
6143.05,0.05369
6137.27,0.05313
6131.48,0.05032
6125.7,0.05391
6119.91,0.05237
6114.12,0.05595
6108.34,0.05094
6102.55,0.05234
6096.76,0.04995
6090.98,0.05412
6085.19,0.05472
6079.41,0.05158
6073.62,0.05122
6067.83,0.05211
6062.05,0.05309
6056.26,0.05141
6050.47,0.05150
6044.69,0.04777
6038.9,0.05343
6033.12,0.05324
6027.33,0.05329
6021.54,0.05079
6015.76,0.05179
6009.97,0.05154
6004.18,0.05090
5998.4,0.05158
5992.61,0.05093
5986.83,0.05118
5981.04,0.05075
5975.25,0.04958
5969.47,0.05110
5963.68,0.05202
5957.89,0.05220
5952.11,0.05054
5946.32,0.05351
5940.54,0.05218
5934.75,0.04895
5928.96,0.05212
5923.18,0.05294
5917.39,0.05228
5911.6,0.05253
5905.82,0.05256
5900.03,0.05386
5894.25,0.05479
5888.46,0.05342
5882.67,0.05054
5876.89,0.05167
5871.1,0.05358
5865.31,0.05273
5859.53,0.05499
5853.74,0.05245
5847.96,0.05097
5842.17,0.05008
5836.38,0.05261
5830.6,0.05486
5824.81,0.05390
5819.02,0.05316
5813.24,0.05415
5807.45,0.05156
5801.67,0.05210
5795.88,0.05230
5790.09,0.05294
5784.31,0.05505
5778.52,0.05188
5772.73,0.05192
5766.95,0.05229
5761.16,0.05188
5755.38,0.05297
5749.59,0.05266
5743.8,0.05262
5738.02,0.05467
5732.23,0.05347
5726.44,0.05340
5720.66,0.05201
5714.87,0.05247
5709.09,0.05469
5703.3,0.05160
5697.51,0.05250
5691.73,0.05241
5685.94,0.05318
5680.15,0.05538
5674.37,0.05364
5668.58,0.05323
5662.8,0.05354
5657.01,0.05439
5651.22,0.05268
5645.44,0.05415
5639.65,0.05461
5633.87,0.05302
5628.08,0.05450
5622.29,0.05427
5616.51,0.05338
5610.72,0.05416
5604.93,0.05337
5599.15,0.05328
5593.36,0.05323
5587.58,0.05395
5581.79,0.05405
5576,0.05236
5570.22,0.05399
5564.43,0.05288
5558.64,0.05349
5552.86,0.05111
5547.07,0.05294
5541.29,0.05459
5535.5,0.05283
5529.71,0.05366
5523.93,0.05485
5518.14,0.05573
5512.35,0.05401
5506.57,0.05381
5500.78,0.05358
5495,0.05378
5489.21,0.05376
5483.42,0.05366
5477.64,0.05406
5471.85,0.05395
5466.06,0.05416
5460.28,0.05389
5454.49,0.05320
5448.71,0.05548
5442.92,0.05249
5437.13,0.05536
5431.35,0.05323
5425.56,0.05334
5419.77,0.05333
5413.99,0.05468
5408.2,0.05347
5402.42,0.05324
5396.63,0.05493
5390.84,0.05370
5385.06,0.05213
5379.27,0.05329
5373.48,0.05352
5367.7,0.05457
5361.91,0.05459
5356.13,0.05515
5350.34,0.05401
5344.55,0.05590
5338.77,0.05403
5332.98,0.05537
5327.19,0.05448
5321.41,0.05351
5315.62,0.05309
5309.84,0.05468
5304.05,0.05393
5298.26,0.05315
5292.48,0.05609
5286.69,0.05391
5280.9,0.05354
5275.12,0.05383
5269.33,0.05414
5263.55,0.05320
5257.76,0.05190
5251.97,0.05362
5246.19,0.05213
5240.4,0.05260
5234.61,0.05333
5228.83,0.05244
5223.04,0.05345
5217.26,0.05425
5211.47,0.05477
5205.68,0.05561
5199.9,0.05521
5194.11,0.05503
5188.32,0.05440
5182.54,0.05420
5176.75,0.05571
5170.97,0.05538
5165.18,0.05584
5159.39,0.05468
5153.61,0.05494
5147.82,0.05407
5142.03,0.05546
5136.25,0.05404
5130.46,0.05364
5124.68,0.05528
5118.89,0.05406
5113.1,0.05420
5107.32,0.05518
5101.53,0.05507
5095.75,0.05531
5089.96,0.05394
5084.17,0.05487
5078.39,0.05599
5072.6,0.05415
5066.81,0.05506
5061.03,0.05455
5055.24,0.05409
5049.46,0.05457
5043.67,0.05497
5037.88,0.05434
5032.1,0.05438
5026.31,0.05527
5020.52,0.05448
5014.74,0.05487
5008.95,0.05528
5003.17,0.05488
4997.38,0.05398
4991.59,0.05531
4985.81,0.05483
4980.02,0.05543
4974.23,0.05531
4968.45,0.05544
4962.66,0.05530
4956.88,0.05566
4951.09,0.05506
4945.3,0.05468
4939.52,0.05482
4933.73,0.05479
4927.94,0.05465
4922.16,0.05572
4916.37,0.05523
4910.59,0.05443
4904.8,0.05515
4899.01,0.05520
4893.23,0.05486
4887.44,0.05497
4881.65,0.05481
4875.87,0.05543
4870.08,0.05340
4864.3,0.05455
4858.51,0.05532
4852.72,0.05511
4846.94,0.05424
4841.15,0.05425
4835.36,0.05458
4829.58,0.05497
4823.79,0.05570
4818.01,0.05502
4812.22,0.05494
4806.43,0.05605
4800.65,0.05461
4794.86,0.05561
4789.07,0.05536
4783.29,0.05534
4777.5,0.05448
4771.72,0.05471
4765.93,0.05494
4760.14,0.05550
4754.36,0.05520
4748.57,0.05405
4742.78,0.05492
4737,0.05521
4731.21,0.05353
4725.43,0.05467
4719.64,0.05568
4713.85,0.05428
4708.07,0.05478
4702.28,0.05472
4696.49,0.05383
4690.71,0.05327
4684.92,0.05373
4679.14,0.05422
4673.35,0.05421
4667.56,0.05475
4661.78,0.05482
4655.99,0.05477
4650.2,0.05539
4644.42,0.05367
4638.63,0.05452
4632.85,0.05407
4627.06,0.05521
4621.27,0.05475
4615.49,0.05490
4609.7,0.05356
4603.92,0.05466
4598.13,0.05543
4592.34,0.05438
4586.56,0.05415
4580.77,0.05457
4574.98,0.05389
4569.2,0.05522
4563.41,0.05352
4557.63,0.05395
4551.84,0.05426
4546.05,0.05438
4540.27,0.05526
4534.48,0.05362
4528.69,0.05314
4522.91,0.05347
4517.12,0.05320
4511.34,0.05353
4505.55,0.05387
4499.76,0.05297
4493.98,0.05227
4488.19,0.05240
4482.4,0.05292
4476.62,0.05256
4470.83,0.05157
4465.05,0.05222
4459.26,0.05164
4453.47,0.05138
4447.69,0.05188
4441.9,0.05127
4436.11,0.05140
4430.33,0.05074
4424.54,0.05106
4418.76,0.05214
4412.97,0.05204
4407.18,0.05232
4401.4,0.05143
4395.61,0.05195
4389.82,0.05192
4384.04,0.05163
4378.25,0.05286
4372.47,0.05191
4366.68,0.05106
4360.89,0.05223
4355.11,0.05282
4349.32,0.05233
4343.53,0.05204
4337.75,0.05279
4331.96,0.05288
4326.18,0.05281
4320.39,0.05266
4314.6,0.05407
4308.82,0.05238
4303.03,0.05345
4297.24,0.05361
4291.46,0.05296
4285.67,0.05292
4279.89,0.05288
4274.1,0.05291
4268.31,0.05267
4262.53,0.05308
4256.74,0.05291
4250.95,0.05265
4245.17,0.05326
4239.38,0.05313
4233.6,0.05268
4227.81,0.05319
4222.02,0.05284
4216.24,0.05257
4210.45,0.05241
4204.66,0.05222
4198.88,0.05277
4193.09,0.05244
4187.31,0.05219
4181.52,0.05233
4175.73,0.05227
4169.95,0.05270
4164.16,0.05212
4158.37,0.05293
4152.59,0.05269
4146.8,0.05197
4141.02,0.05318
4135.23,0.05326
4129.44,0.05334
4123.66,0.05309
4117.87,0.05352
4112.09,0.05343
4106.3,0.05314
4100.51,0.05313
4094.73,0.05292
4088.94,0.05310
4083.15,0.05287
4077.37,0.05325
4071.58,0.05355
4065.8,0.05415
4060.01,0.05406
4054.22,0.05338
4048.44,0.05386
4042.65,0.05456
4036.86,0.05360
4031.08,0.05408
4025.29,0.05336
4019.51,0.05374
4013.72,0.05365
4007.93,0.05422
4002.15,0.05401
3996.36,0.05371
3990.57,0.05404
3984.79,0.05378
3979,0.05368
3973.22,0.05419
3967.43,0.05468
3961.64,0.05462
3955.86,0.05375
3950.07,0.05360
3944.28,0.05369
3938.5,0.05361
3932.71,0.05345
3926.93,0.05367
3921.14,0.05416
3915.35,0.05423
3909.57,0.05477
3903.78,0.05452
3897.99,0.05454
3892.21,0.05461
3886.42,0.05471
3880.64,0.05481
3874.85,0.05431
3869.06,0.05366
3863.28,0.05393
3857.49,0.05503
3851.7,0.05405
3845.92,0.05450
3840.13,0.05432
3834.35,0.05396
3828.56,0.05406
3822.77,0.05435
3816.99,0.05480
3811.2,0.05520
3805.41,0.05457
3799.63,0.05429
3793.84,0.05459
3788.06,0.05471
3782.27,0.05448
3776.48,0.05408
3770.7,0.05413
3764.91,0.05378
3759.12,0.05456
3753.34,0.05416
3747.55,0.05469
3741.77,0.05460
3735.98,0.05541
3730.19,0.05427
3724.41,0.05490
3718.62,0.05496
3712.83,0.05451
3707.05,0.05369
3701.26,0.05403
3695.48,0.05320
3689.69,0.05363
3683.9,0.05301
3678.12,0.05217
3672.33,0.05298
3666.54,0.05270
3660.76,0.05193
3654.97,0.05194
3649.19,0.05202
3643.4,0.05160
3637.61,0.05231
3631.83,0.05196
3626.04,0.05114
3620.25,0.05157
3614.47,0.05212
3608.68,0.05170
3602.9,0.05156
3597.11,0.05217
3591.32,0.05195
3585.54,0.05269
3579.75,0.05195
3573.97,0.05146
3568.18,0.05146
3562.39,0.05111
3556.61,0.05196
3550.82,0.05106
3545.03,0.05100
3539.25,0.05151
3533.46,0.05111
3527.68,0.05174
3521.89,0.05116
3516.1,0.05170
3510.32,0.05103
3504.53,0.05129
3498.74,0.05169
3492.96,0.05192
3487.17,0.05124
3481.39,0.05131
3475.6,0.05105
3469.81,0.05191
3464.03,0.05073
3458.24,0.05102
3452.45,0.05046
3446.67,0.05129
3440.88,0.05061
3435.1,0.05024
3429.31,0.05041
3423.52,0.05163
3417.74,0.05159
3411.95,0.05149
3406.16,0.05121
3400.38,0.05116
3394.59,0.05192
3388.81,0.05178
3383.02,0.05190
3377.23,0.05113
3371.45,0.05172
3365.66,0.05151
3359.87,0.05198
3354.09,0.05138
3348.3,0.05139
3342.52,0.05197
3336.73,0.05164
3330.94,0.05147
3325.16,0.05171
3319.37,0.05094
3313.58,0.05052
3307.8,0.05155
3302.01,0.05171
3296.23,0.05121
3290.44,0.05148
3284.65,0.05156
3278.87,0.05130
3273.08,0.05170
3267.29,0.05101
3261.51,0.05105
3255.72,0.05153
3249.94,0.05141
3244.15,0.05171
3238.36,0.05157
3232.58,0.05133
3226.79,0.05142
3221,0.05109
3215.22,0.05105
3209.43,0.05075
3203.65,0.05151
3197.86,0.05120
3192.07,0.05065
3186.29,0.05117
3180.5,0.05109
3174.71,0.05103
3168.93,0.05073
3163.14,0.05151
3157.36,0.05122
3151.57,0.05061
3145.78,0.05095
3140,0.05080
3134.21,0.05115
3128.42,0.05089
3122.64,0.05045
3116.85,0.05124
3111.07,0.05018
3105.28,0.05028
3099.49,0.04947
3093.71,0.05041
3087.92,0.04990
3082.14,0.04964
3076.35,0.04977
3070.56,0.04910
3064.78,0.04944
3058.99,0.04934
3053.2,0.04813
3047.42,0.04895
3041.63,0.04862
3035.85,0.04802
3030.06,0.04801
3024.27,0.04778
3018.49,0.04716
3012.7,0.04744
3006.91,0.04719
3001.13,0.04804
2995.34,0.04859
2989.56,0.04901
2983.77,0.04979
2977.98,0.04973
2972.2,0.04885
2966.41,0.04863
2960.62,0.04850
2954.84,0.04930
2949.05,0.05101
2943.27,0.05304
2937.48,0.05440
2931.69,0.05529
2925.91,0.05624
2920.12,0.05609
2914.33,0.05555
2908.55,0.05525
2902.76,0.05482
2896.98,0.05367
2891.19,0.05339
2885.4,0.05336
2879.62,0.05301
2873.83,0.05362
2868.04,0.05341
2862.26,0.05346
2856.47,0.05442
2850.69,0.05496
2844.9,0.05372
2839.11,0.05333
2833.33,0.05326
2827.54,0.05257
2821.75,0.05288
2815.97,0.05305
2810.18,0.05343
2804.4,0.05259
2798.61,0.05321
2792.82,0.05290
2787.04,0.05314
2781.25,0.05252
2775.46,0.05273
2769.68,0.05255
2763.89,0.05279
2758.11,0.05272
2752.32,0.05255
2746.53,0.05246
2740.75,0.05255
2734.96,0.05263
2729.17,0.05292
2723.39,0.05280
2717.6,0.05269
2711.82,0.05267
2706.03,0.05279
2700.24,0.05247
2694.46,0.05281
2688.67,0.05242
2682.88,0.05271
2677.1,0.05270
2671.31,0.05266
2665.53,0.05245
2659.74,0.05243
2653.95,0.05200
2648.17,0.05250
2642.38,0.05230
2636.59,0.05217
2630.81,0.05217
2625.02,0.05214
2619.24,0.05193
2613.45,0.05231
2607.66,0.05197
2601.88,0.05207
2596.09,0.05223
2590.3,0.05176
2584.52,0.05212
2578.73,0.05198
2572.95,0.05212
2567.16,0.05211
2561.37,0.05244
2555.59,0.05177
2549.8,0.05179
2544.02,0.05199
2538.23,0.05189
2532.44,0.05212
2526.66,0.05213
2520.87,0.05190
2515.08,0.05215
2509.3,0.05255
2503.51,0.05188
2497.73,0.05203
2491.94,0.05226
2486.15,0.05227
2480.37,0.05217
2474.58,0.05251
2468.79,0.05237
2463.01,0.05167
2457.22,0.05177
2451.44,0.05171
2445.65,0.05202
2439.86,0.05214
2434.08,0.05159
2428.29,0.05212
2422.5,0.05171
2416.72,0.05152
2410.93,0.05169
2405.15,0.05145
2399.36,0.05180
2393.57,0.05165
2387.79,0.05111
2382,0.05172
2376.21,0.05175
2370.43,0.05156
2364.64,0.05207
2358.86,0.05189
2353.07,0.05170
2347.28,0.05114
2341.5,0.05125
2335.71,0.05141
2329.92,0.05162
2324.14,0.05162
2318.35,0.05155
2312.57,0.05177
2306.78,0.05128
2300.99,0.05139
2295.21,0.05174
2289.42,0.05136
2283.63,0.05128
2277.85,0.05151
2272.06,0.05175
2266.28,0.05163
2260.49,0.05143
2254.7,0.05139
2248.92,0.05170
2243.13,0.05158
2237.34,0.05168
2231.56,0.05140
2225.77,0.05102
2219.99,0.05131
2214.2,0.05105
2208.41,0.05119
2202.63,0.05125
2196.84,0.05092
2191.05,0.05089
2185.27,0.05086
2179.48,0.05072
2173.7,0.05067
2167.91,0.05074
2162.12,0.05073
2156.34,0.05061
2150.55,0.05046
2144.76,0.05056
2138.98,0.05055
2133.19,0.05031
2127.41,0.05062
2121.62,0.05034
2115.83,0.05067
2110.05,0.05053
2104.26,0.05082
2098.47,0.05014
2092.69,0.05024
2086.9,0.04982
2081.12,0.05023
2075.33,0.05002
2069.54,0.05014
2063.76,0.04964
2057.97,0.05001
2052.19,0.04998
2046.4,0.04993
2040.61,0.05008
2034.83,0.04974
2029.04,0.04964
2023.25,0.05004
2017.47,0.04964
2011.68,0.04993
2005.9,0.04970
2000.11,0.04939
1994.32,0.04932
1988.54,0.04964
1982.75,0.04924
1976.96,0.04945
1971.18,0.04928
1965.39,0.04905
1959.61,0.04944
1953.82,0.04911
1948.03,0.04902
1942.25,0.04921
1936.46,0.04918
1930.67,0.04881
1924.89,0.04862
1919.1,0.04908
1913.32,0.04848
1907.53,0.04885
1901.74,0.04880
1895.96,0.04815
1890.17,0.04820
1884.38,0.04821
1878.6,0.04789
1872.81,0.04778
1867.03,0.04748
1861.24,0.04718
1855.45,0.04684
1849.67,0.04656
1843.88,0.04674
1838.09,0.04628
1832.31,0.04585
1826.52,0.04573
1820.74,0.04545
1814.95,0.04491
1809.16,0.04407
1803.38,0.04384
1797.59,0.04342
1791.8,0.04277
1786.02,0.04191
1780.23,0.04059
1774.45,0.03912
1768.66,0.03707
1762.87,0.03501
1757.09,0.03144
1751.3,0.02640
1745.51,0.02511
1739.73,0.03829
1733.94,0.05987
1728.16,0.08037
1722.37,0.08903
1716.58,0.08312
1710.8,0.07421
1705.01,0.06777
1699.22,0.06362
1693.44,0.05995
1687.65,0.05871
1681.87,0.05781
1676.08,0.05716
1670.29,0.05603
1664.51,0.05494
1658.72,0.05520
1652.93,0.05495
1647.15,0.05371
1641.36,0.05369
1635.58,0.05298
1629.79,0.05267
1624,0.05243
1618.22,0.05246
1612.43,0.05177
1606.64,0.05139
1600.86,0.05125
1595.07,0.05083
1589.29,0.05066
1583.5,0.05053
1577.71,0.04981
1571.93,0.05002
1566.14,0.04939
1560.35,0.04952
1554.57,0.04830
1548.78,0.04823
1543,0.04825
1537.21,0.04792
1531.42,0.04759
1525.64,0.04716
1519.85,0.04678
1514.07,0.04571
1508.28,0.04528
1502.49,0.04362
1496.71,0.04202
1490.92,0.04177
1485.13,0.04388
1479.35,0.04579
1473.56,0.04653
1467.78,0.04644
1461.99,0.04554
1456.2,0.04608
1450.42,0.04808
1444.63,0.05088
1438.84,0.05193
1433.06,0.05631
1427.27,0.05727
1421.49,0.05514
1415.7,0.05259
1409.91,0.05107
1404.13,0.04938
1398.34,0.04871
1392.55,0.04804
1386.77,0.04921
1380.98,0.05128
1375.2,0.05077
1369.41,0.04936
1363.62,0.04974
1357.84,0.04941
1352.05,0.04874
1346.26,0.04823
1340.48,0.04747
1334.69,0.04710
1328.91,0.04584
1323.12,0.04535
1317.33,0.04447
1311.55,0.04320
1305.76,0.04206
1299.97,0.04101
1294.19,0.03995
1288.4,0.03815
1282.62,0.03709
1276.83,0.03762
1271.04,0.04160
1265.26,0.04478
1259.47,0.04424
1253.68,0.04306
1247.9,0.04433
1242.11,0.04897
1236.33,0.05254
1230.54,0.05325
1224.75,0.05068
1218.97,0.04667
1213.18,0.04184
1207.39,0.03795
1201.61,0.03881
1195.82,0.04658
1190.04,0.05413
1184.25,0.05549
1178.46,0.05336
1172.68,0.05319
1166.89,0.05382
1161.1,0.05522
1155.32,0.06209
1149.53,0.08072
1143.75,0.09207
1137.96,0.09211
1132.17,0.08784
1126.39,0.08320
1120.6,0.08045
1114.81,0.07747
1109.03,0.07564
1103.24,0.07262
1097.46,0.07128
1091.67,0.06958
1085.88,0.06724
1080.1,0.06593
1074.31,0.06601
1068.52,0.06497
1062.74,0.06566
1056.95,0.06748
1051.17,0.06635
1045.38,0.06504
1039.59,0.06377
1033.81,0.06254
1028.02,0.06156
1022.24,0.06033
1016.45,0.05943
1010.66,0.05738
1004.88,0.05506
999.09,0.05464
993.304,0.05639
987.518,0.05936
981.731,0.06151
975.945,0.06153
970.159,0.06102
964.373,0.06261
958.586,0.06306
952.8,0.06350
947.014,0.06337
941.228,0.06283
935.441,0.06218
929.655,0.06162
923.869,0.06099
918.083,0.06046
912.297,0.06096
906.51,0.06055
900.724,0.06080
894.938,0.06055
889.152,0.06006
883.365,0.05943
877.579,0.05906
871.793,0.05826
866.007,0.05858
860.22,0.05857
854.434,0.05749
848.648,0.05700
842.862,0.05828
837.075,0.06103
831.289,0.06012
825.503,0.06045
819.717,0.06007
813.931,0.05902
808.144,0.06040
802.358,0.06064
796.572,0.06001
790.786,0.05973
784.999,0.05844
779.213,0.05769
773.427,0.05767
767.641,0.05706
761.854,0.05628
756.068,0.05646
750.282,0.06032
744.496,0.06424
738.709,0.06246
732.923,0.06080
727.137,0.06108
721.351,0.06035
715.565,0.05948
709.778,0.05823
703.992,0.05887
698.206,0.05894
692.42,0.05981
686.633,0.05877
680.847,0.05755
675.061,0.05833
669.275,0.05794
663.488,0.05693
657.702,0.05546
651.916,0.05741
646.13,0.05613
640.343,0.05588
634.557,0.05518
628.771,0.05547
622.985,0.05425
617.198,0.05374
611.412,0.05439
605.626,0.05322
599.84,0.05648