File: 01_Data/Black_PMMA/FTIR/IS/Black_PMMA_IS_S_221012_R3.dpt
7497.03,0.04780
7491.25,0.05288
7485.46,0.05642
7479.67,0.04845
7473.89,0.05264
7468.1,0.05433
7462.32,0.04888
7456.53,0.05455
7450.74,0.05035
7444.96,0.05325
7439.17,0.05218
7433.38,0.04868
7427.6,0.04895
7421.81,0.05474
7416.03,0.05562
7410.24,0.05378
7404.45,0.05370
7398.67,0.05166
7392.88,0.05728
7387.09,0.05889
7381.31,0.05362
7375.52,0.05044
7369.74,0.05005
7363.95,0.05386
7358.16,0.05936
7352.38,0.05585
7346.59,0.05050
7340.8,0.05297
7335.02,0.05248
7329.23,0.05558
7323.45,0.04543
7317.66,0.05322
7311.87,0.05385
7306.09,0.04615
7300.3,0.04898
7294.51,0.05742
7288.73,0.05198
7282.94,0.05141
7277.16,0.05031
7271.37,0.04822
7265.58,0.05834
7259.8,0.05212
7254.01,0.05090
7248.22,0.05240
7242.44,0.04956
7236.65,0.04730
7230.87,0.05366
7225.08,0.04838
7219.29,0.05435
7213.51,0.05265
7207.72,0.05512
7201.93,0.05798
7196.15,0.05898
7190.36,0.05975
7184.58,0.05773
7178.79,0.05222
7173,0.05329
7167.22,0.05065
7161.43,0.05012
7155.65,0.05154
7149.86,0.04858
7144.07,0.05468
7138.29,0.06405
7132.5,0.04856
7126.71,0.04888
7120.93,0.05044
7115.14,0.04826
7109.36,0.05105
7103.57,0.05555
7097.78,0.04587
7092,0.05117
7086.21,0.04554
7080.42,0.05775
7074.64,0.05540
7068.85,0.04499
7063.07,0.05240
7057.28,0.05564
7051.49,0.04843
7045.71,0.05008
7039.92,0.05114
7034.13,0.05087
7028.35,0.05394
7022.56,0.05213
7016.78,0.04942
7010.99,0.05475
7005.2,0.04838
6999.42,0.05542
6993.63,0.05296
6987.84,0.05465
6982.06,0.05396
6976.27,0.04848
6970.49,0.05267
6964.7,0.05282
6958.91,0.05511
6953.13,0.05774
6947.34,0.05596
6941.55,0.05153
6935.77,0.05040
6929.98,0.05579
6924.2,0.05496
6918.41,0.05046
6912.62,0.05139
6906.84,0.05956
6901.05,0.05044
6895.26,0.05363
6889.48,0.05394
6883.69,0.05636
6877.91,0.05826
6872.12,0.05601
6866.33,0.05414
6860.55,0.04926
6854.76,0.04957
6848.97,0.05328
6843.19,0.05088
6837.4,0.05097
6831.62,0.05203
6825.83,0.05734
6820.04,0.04916
6814.26,0.05135
6808.47,0.05381
6802.68,0.05276
6796.9,0.05541
6791.11,0.05102
6785.33,0.05166
6779.54,0.05279
6773.75,0.04938
6767.97,0.05544
6762.18,0.05350
6756.39,0.05191
6750.61,0.04877
6744.82,0.05231
6739.04,0.05381
6733.25,0.04934
6727.46,0.05169
6721.68,0.05420
6715.89,0.05455
6710.1,0.05562
6704.32,0.05472
6698.53,0.05455
6692.75,0.05526
6686.96,0.05457
6681.17,0.05001
6675.39,0.05185
6669.6,0.05197
6663.82,0.05047
6658.03,0.05400
6652.24,0.05166
6646.46,0.05268
6640.67,0.05406
6634.88,0.05459
6629.1,0.05377
6623.31,0.04910
6617.53,0.05404
6611.74,0.05205
6605.95,0.05358
6600.17,0.05139
6594.38,0.05317
6588.59,0.05301
6582.81,0.05505
6577.02,0.05514
6571.24,0.05394
6565.45,0.05381
6559.66,0.05220
6553.88,0.05090
6548.09,0.05242
6542.3,0.05243
6536.52,0.05166
6530.73,0.05410
6524.95,0.05210
6519.16,0.04842
6513.37,0.04888
6507.59,0.05016
6501.8,0.05484
6496.01,0.05330
6490.23,0.04982
6484.44,0.05224
6478.66,0.05551
6472.87,0.05068
6467.08,0.04950
6461.3,0.05225
6455.51,0.05398
6449.72,0.05508
6443.94,0.05773
6438.15,0.05269
6432.37,0.05213
6426.58,0.05090
6420.79,0.05315
6415.01,0.05504
6409.22,0.05206
6403.43,0.05478
6397.65,0.05218
6391.86,0.05246
6386.08,0.05260
6380.29,0.05046
6374.5,0.05209
6368.72,0.04894
6362.93,0.05587
6357.14,0.05260
6351.36,0.05416
6345.57,0.04956
6339.79,0.05677
6334,0.05152
6328.21,0.05188
6322.43,0.05036
6316.64,0.05783
6310.85,0.05355
6305.07,0.05269
6299.28,0.05034
6293.5,0.05066
6287.71,0.05319
6281.92,0.05358
6276.14,0.04966
6270.35,0.05238
6264.56,0.05315
6258.78,0.05040
6252.99,0.05544
6247.21,0.04955
6241.42,0.05351
6235.63,0.05300
6229.85,0.05487
6224.06,0.05012
6218.27,0.05161
6212.49,0.05549
6206.7,0.05265
6200.92,0.05283
6195.13,0.05057
6189.34,0.05385
6183.56,0.05442
6177.77,0.05113
6171.98,0.05346
6166.2,0.05480
6160.41,0.05148
6154.63,0.05233
6148.84,0.05270
6143.05,0.05497
6137.27,0.05102
6131.48,0.05020
6125.7,0.05309
6119.91,0.05410
6114.12,0.05546
6108.34,0.05147
6102.55,0.05323
6096.76,0.05319
6090.98,0.05310
6085.19,0.05804
6079.41,0.05449
6073.62,0.05115
6067.83,0.05468
6062.05,0.05162
6056.26,0.05374
6050.47,0.05218
6044.69,0.05222
6038.9,0.05382
6033.12,0.05071
6027.33,0.05435
6021.54,0.05186
6015.76,0.05242
6009.97,0.05379
6004.18,0.05301
5998.4,0.05399
5992.61,0.05242
5986.83,0.05375
5981.04,0.05210
5975.25,0.05298
5969.47,0.04878
5963.68,0.05101
5957.89,0.05227
5952.11,0.05155
5946.32,0.05125
5940.54,0.04924
5934.75,0.05157
5928.96,0.04994
5923.18,0.05004
5917.39,0.05068
5911.6,0.05126
5905.82,0.05427
5900.03,0.05227
5894.25,0.05181
5888.46,0.05314
5882.67,0.05163
5876.89,0.05241
5871.1,0.05149
5865.31,0.05239
5859.53,0.05135
5853.74,0.05247
5847.96,0.05367
5842.17,0.05280
5836.38,0.05408
5830.6,0.05356
5824.81,0.05148
5819.02,0.05361
5813.24,0.05159
5807.45,0.05272
5801.67,0.05132
5795.88,0.05102
5790.09,0.05092
5784.31,0.05288
5778.52,0.05175
5772.73,0.05196
5766.95,0.05198
5761.16,0.05205
5755.38,0.05139
5749.59,0.05334
5743.8,0.05336
5738.02,0.05364
5732.23,0.05305
5726.44,0.05328
5720.66,0.05130
5714.87,0.05515
5709.09,0.05071
5703.3,0.05208
5697.51,0.05257
5691.73,0.05107
5685.94,0.05295
5680.15,0.05353
5674.37,0.05202
5668.58,0.05219
5662.8,0.05141
5657.01,0.05082
5651.22,0.05190
5645.44,0.05235
5639.65,0.05514
5633.87,0.05226
5628.08,0.05269
5622.29,0.05251
5616.51,0.05401
5610.72,0.05265
5604.93,0.05391
5599.15,0.05330
5593.36,0.05442
5587.58,0.05385
5581.79,0.05252
5576,0.05306
5570.22,0.05349
5564.43,0.05352
5558.64,0.05222
5552.86,0.05236
5547.07,0.05103
5541.29,0.05320
5535.5,0.05367
5529.71,0.05413
5523.93,0.05369
5518.14,0.05402
5512.35,0.05529
5506.57,0.05544
5500.78,0.05205
5495,0.05506
5489.21,0.05421
5483.42,0.05361
5477.64,0.05325
5471.85,0.05434
5466.06,0.05295
5460.28,0.05527
5454.49,0.05466
5448.71,0.05594
5442.92,0.05544
5437.13,0.05402
5431.35,0.05409
5425.56,0.05485
5419.77,0.05417
5413.99,0.05458
5408.2,0.05410
5402.42,0.05244
5396.63,0.05399
5390.84,0.05617
5385.06,0.05561
5379.27,0.05356
5373.48,0.05355
5367.7,0.05398
5361.91,0.05433
5356.13,0.05477
5350.34,0.05433
5344.55,0.05485
5338.77,0.05508
5332.98,0.05543
5327.19,0.05537
5321.41,0.05428
5315.62,0.05489
5309.84,0.05421
5304.05,0.05307
5298.26,0.05523
5292.48,0.05405
5286.69,0.05358
5280.9,0.05445
5275.12,0.05391
5269.33,0.05466
5263.55,0.05311
5257.76,0.05334
5251.97,0.05368
5246.19,0.05397
5240.4,0.05358
5234.61,0.05265
5228.83,0.05317
5223.04,0.05245
5217.26,0.05386
5211.47,0.05485
5205.68,0.05532
5199.9,0.05486
5194.11,0.05322
5188.32,0.05432
5182.54,0.05444
5176.75,0.05517
5170.97,0.05417
5165.18,0.05491
5159.39,0.05442
5153.61,0.05477
5147.82,0.05380
5142.03,0.05415
5136.25,0.05551
5130.46,0.05380
5124.68,0.05387
5118.89,0.05437
5113.1,0.05494
5107.32,0.05552
5101.53,0.05445
5095.75,0.05524
5089.96,0.05592
5084.17,0.05471
5078.39,0.05638
5072.6,0.05640
5066.81,0.05540
5061.03,0.05470
5055.24,0.05462
5049.46,0.05555
5043.67,0.05408
5037.88,0.05571
5032.1,0.05589
5026.31,0.05488
5020.52,0.05536
5014.74,0.05437
5008.95,0.05496
5003.17,0.05615
4997.38,0.05440
4991.59,0.05444
4985.81,0.05596
4980.02,0.05557
4974.23,0.05579
4968.45,0.05569
4962.66,0.05516
4956.88,0.05469
4951.09,0.05401
4945.3,0.05650
4939.52,0.05530
4933.73,0.05529
4927.94,0.05485
4922.16,0.05413
4916.37,0.05469
4910.59,0.05451
4904.8,0.05443
4899.01,0.05539
4893.23,0.05513
4887.44,0.05505
4881.65,0.05426
4875.87,0.05566
4870.08,0.05529
4864.3,0.05494
4858.51,0.05530
4852.72,0.05495
4846.94,0.05372
4841.15,0.05473
4835.36,0.05442
4829.58,0.05474
4823.79,0.05437
4818.01,0.05414
4812.22,0.05478
4806.43,0.05486
4800.65,0.05531
4794.86,0.05553
4789.07,0.05439
4783.29,0.05365
4777.5,0.05555
4771.72,0.05590
4765.93,0.05538
4760.14,0.05523
4754.36,0.05377
4748.57,0.05466
4742.78,0.05460
4737,0.05420
4731.21,0.05449
4725.43,0.05434
4719.64,0.05498
4713.85,0.05455
4708.07,0.05421
4702.28,0.05334
4696.49,0.05441
4690.71,0.05444
4684.92,0.05365
4679.14,0.05498
4673.35,0.05549
4667.56,0.05497
4661.78,0.05358
4655.99,0.05391
4650.2,0.05450
4644.42,0.05520
4638.63,0.05422
4632.85,0.05334
4627.06,0.05468
4621.27,0.05436
4615.49,0.05366
4609.7,0.05502
4603.92,0.05411
4598.13,0.05495
4592.34,0.05469
4586.56,0.05471
4580.77,0.05455
4574.98,0.05426
4569.2,0.05500
4563.41,0.05438
4557.63,0.05397
4551.84,0.05411
4546.05,0.05465
4540.27,0.05333
4534.48,0.05506
4528.69,0.05394
4522.91,0.05332
4517.12,0.05388
4511.34,0.05414
4505.55,0.05221
4499.76,0.05289
4493.98,0.05257
4488.19,0.05206
4482.4,0.05213
4476.62,0.05120
4470.83,0.05198
4465.05,0.05210
4459.26,0.05083
4453.47,0.05077
4447.69,0.05079
4441.9,0.05189
4436.11,0.05156
4430.33,0.05131
4424.54,0.05203
4418.76,0.05187
4412.97,0.05164
4407.18,0.05113
4401.4,0.05201
4395.61,0.05209
4389.82,0.05150
4384.04,0.05134
4378.25,0.05179
4372.47,0.05174
4366.68,0.05231
4360.89,0.05144
4355.11,0.05328
4349.32,0.05210
4343.53,0.05238
4337.75,0.05241
4331.96,0.05249
4326.18,0.05225
4320.39,0.05248
4314.6,0.05293
4308.82,0.05316
4303.03,0.05304
4297.24,0.05377
4291.46,0.05326
4285.67,0.05273
4279.89,0.05275
4274.1,0.05232
4268.31,0.05315
4262.53,0.05243
4256.74,0.05275
4250.95,0.05283
4245.17,0.05303
4239.38,0.05383
4233.6,0.05241
4227.81,0.05184
4222.02,0.05235
4216.24,0.05230
4210.45,0.05301
4204.66,0.05261
4198.88,0.05297
4193.09,0.05308
4187.31,0.05235
4181.52,0.05328
4175.73,0.05310
4169.95,0.05220
4164.16,0.05244
4158.37,0.05268
4152.59,0.05223
4146.8,0.05245
4141.02,0.05284
4135.23,0.05285
4129.44,0.05256
4123.66,0.05324
4117.87,0.05303
4112.09,0.05269
4106.3,0.05344
4100.51,0.05297
4094.73,0.05291
4088.94,0.05317
4083.15,0.05355
4077.37,0.05242
4071.58,0.05237
4065.8,0.05281
4060.01,0.05329
4054.22,0.05365
4048.44,0.05323
4042.65,0.05376
4036.86,0.05386
4031.08,0.05339
4025.29,0.05347
4019.51,0.05374
4013.72,0.05285
4007.93,0.05382
4002.15,0.05327
3996.36,0.05358
3990.57,0.05323
3984.79,0.05327
3979,0.05415
3973.22,0.05289
3967.43,0.05383
3961.64,0.05387
3955.86,0.05399
3950.07,0.05368
3944.28,0.05360
3938.5,0.05353
3932.71,0.05384
3926.93,0.05382
3921.14,0.05402
3915.35,0.05397
3909.57,0.05403
3903.78,0.05434
3897.99,0.05463
3892.21,0.05423
3886.42,0.05401
3880.64,0.05421
3874.85,0.05420
3869.06,0.05414
3863.28,0.05462
3857.49,0.05462
3851.7,0.05409
3845.92,0.05459
3840.13,0.05423
3834.35,0.05508
3828.56,0.05460
3822.77,0.05404
3816.99,0.05453
3811.2,0.05431
3805.41,0.05453
3799.63,0.05431
3793.84,0.05489
3788.06,0.05454
3782.27,0.05504
3776.48,0.05433
3770.7,0.05467
3764.91,0.05418
3759.12,0.05439
3753.34,0.05488
3747.55,0.05518
3741.77,0.05461
3735.98,0.05492
3730.19,0.05444
3724.41,0.05498
3718.62,0.05437
3712.83,0.05368
3707.05,0.05399
3701.26,0.05370
3695.48,0.05315
3689.69,0.05261
3683.9,0.05264
3678.12,0.05220
3672.33,0.05265
3666.54,0.05212
3660.76,0.05208
3654.97,0.05215
3649.19,0.05174
3643.4,0.05197
3637.61,0.05181
3631.83,0.05170
3626.04,0.05099
3620.25,0.05112
3614.47,0.05160
3608.68,0.05106
3602.9,0.05184
3597.11,0.05103
3591.32,0.05183
3585.54,0.05213
3579.75,0.05162
3573.97,0.05175
3568.18,0.05185
3562.39,0.05133
3556.61,0.05152
3550.82,0.05163
3545.03,0.05098
3539.25,0.05126
3533.46,0.05187
3527.68,0.05218
3521.89,0.05085
3516.1,0.05100
3510.32,0.05147
3504.53,0.05158
3498.74,0.05142
3492.96,0.05151
3487.17,0.05118
3481.39,0.05137
3475.6,0.05147
3469.81,0.05128
3464.03,0.05132
3458.24,0.05095
3452.45,0.05047
3446.67,0.05011
3440.88,0.05038
3435.1,0.05038
3429.31,0.05057
3423.52,0.05110
3417.74,0.05139
3411.95,0.05117
3406.16,0.05202
3400.38,0.05160
3394.59,0.05177
3388.81,0.05218
3383.02,0.05195
3377.23,0.05118
3371.45,0.05211
3365.66,0.05191
3359.87,0.05235
3354.09,0.05148
3348.3,0.05123
3342.52,0.05158
3336.73,0.05157
3330.94,0.05179
3325.16,0.05223
3319.37,0.05195
3313.58,0.05162
3307.8,0.05201
3302.01,0.05102
3296.23,0.05101
3290.44,0.05127
3284.65,0.05163
3278.87,0.05129
3273.08,0.05224
3267.29,0.05175
3261.51,0.05197
3255.72,0.05128
3249.94,0.05174
3244.15,0.05182
3238.36,0.05184
3232.58,0.05160
3226.79,0.05113
3221,0.05105
3215.22,0.05069
3209.43,0.05090
3203.65,0.05121
3197.86,0.05136
3192.07,0.05111
3186.29,0.05108
3180.5,0.05153
3174.71,0.05088
3168.93,0.05105
3163.14,0.05093
3157.36,0.05101
3151.57,0.05077
3145.78,0.05047
3140,0.05082
3134.21,0.05126
3128.42,0.05082
3122.64,0.05047
3116.85,0.05034
3111.07,0.05032
3105.28,0.05030
3099.49,0.05008
3093.71,0.05007
3087.92,0.04990
3082.14,0.04960
3076.35,0.04946
3070.56,0.04950
3064.78,0.04952
3058.99,0.04911
3053.2,0.04869
3047.42,0.04832
3041.63,0.04805
3035.85,0.04772
3030.06,0.04724
3024.27,0.04776
3018.49,0.04761
3012.7,0.04722
3006.91,0.04724
3001.13,0.04791
2995.34,0.04841
2989.56,0.04888
2983.77,0.04960
2977.98,0.04972
2972.2,0.04940
2966.41,0.04864
2960.62,0.04876
2954.84,0.04903
2949.05,0.05133
2943.27,0.05314
2937.48,0.05445
2931.69,0.05507
2925.91,0.05584
2920.12,0.05617
2914.33,0.05613
2908.55,0.05452
2902.76,0.05426
2896.98,0.05396
2891.19,0.05362
2885.4,0.05335
2879.62,0.05320
2873.83,0.05351
2868.04,0.05370
2862.26,0.05376
2856.47,0.05426
2850.69,0.05451
2844.9,0.05394
2839.11,0.05330
2833.33,0.05339
2827.54,0.05323
2821.75,0.05260
2815.97,0.05297
2810.18,0.05272
2804.4,0.05268
2798.61,0.05281
2792.82,0.05283
2787.04,0.05296
2781.25,0.05290
2775.46,0.05282
2769.68,0.05281
2763.89,0.05249
2758.11,0.05253
2752.32,0.05263
2746.53,0.05277
2740.75,0.05274
2734.96,0.05315
2729.17,0.05288
2723.39,0.05283
2717.6,0.05255
2711.82,0.05267
2706.03,0.05290
2700.24,0.05230
2694.46,0.05290
2688.67,0.05228
2682.88,0.05225
2677.1,0.05253
2671.31,0.05272
2665.53,0.05264
2659.74,0.05237
2653.95,0.05233
2648.17,0.05229
2642.38,0.05249
2636.59,0.05208
2630.81,0.05267
2625.02,0.05246
2619.24,0.05236
2613.45,0.05185
2607.66,0.05236
2601.88,0.05198
2596.09,0.05193
2590.3,0.05142
2584.52,0.05232
2578.73,0.05166
2572.95,0.05217
2567.16,0.05182
2561.37,0.05170
2555.59,0.05199
2549.8,0.05207
2544.02,0.05200
2538.23,0.05224
2532.44,0.05211
2526.66,0.05206
2520.87,0.05178
2515.08,0.05204
2509.3,0.05256
2503.51,0.05190
2497.73,0.05170
2491.94,0.05193
2486.15,0.05200
2480.37,0.05226
2474.58,0.05234
2468.79,0.05196
2463.01,0.05161
2457.22,0.05202
2451.44,0.05176
2445.65,0.05185
2439.86,0.05145
2434.08,0.05187
2428.29,0.05186
2422.5,0.05153
2416.72,0.05164
2410.93,0.05159
2405.15,0.05162
2399.36,0.05159
2393.57,0.05158
2387.79,0.05142
2382,0.05128
2376.21,0.05152
2370.43,0.05173
2364.64,0.05190
2358.86,0.05166
2353.07,0.05168
2347.28,0.05129
2341.5,0.05157
2335.71,0.05206
2329.92,0.05162
2324.14,0.05154
2318.35,0.05129
2312.57,0.05114
2306.78,0.05103
2300.99,0.05120
2295.21,0.05153
2289.42,0.05182
2283.63,0.05189
2277.85,0.05151
2272.06,0.05137
2266.28,0.05165
2260.49,0.05176
2254.7,0.05134
2248.92,0.05169
2243.13,0.05131
2237.34,0.05139
2231.56,0.05124
2225.77,0.05082
2219.99,0.05120
2214.2,0.05085
2208.41,0.05116
2202.63,0.05093
2196.84,0.05101
2191.05,0.05087
2185.27,0.05121
2179.48,0.05125
2173.7,0.05083
2167.91,0.05091
2162.12,0.05098
2156.34,0.05051
2150.55,0.05066
2144.76,0.05039
2138.98,0.05083
2133.19,0.05071
2127.41,0.05085
2121.62,0.05031
2115.83,0.05028
2110.05,0.05031
2104.26,0.05014
2098.47,0.04979
2092.69,0.05002
2086.9,0.04998
2081.12,0.04984
2075.33,0.05002
2069.54,0.04998
2063.76,0.04973
2057.97,0.04980
2052.19,0.04987
2046.4,0.05002
2040.61,0.04968
2034.83,0.05006
2029.04,0.04986
2023.25,0.04994
2017.47,0.04988
2011.68,0.04952
2005.9,0.04957
2000.11,0.04958
1994.32,0.04954
1988.54,0.04933
1982.75,0.04918
1976.96,0.04906
1971.18,0.04938
1965.39,0.04932
1959.61,0.04915
1953.82,0.04924
1948.03,0.04941
1942.25,0.04882
1936.46,0.04909
1930.67,0.04894
1924.89,0.04863
1919.1,0.04885
1913.32,0.04856
1907.53,0.04864
1901.74,0.04863
1895.96,0.04839
1890.17,0.04838
1884.38,0.04816
1878.6,0.04763
1872.81,0.04740
1867.03,0.04705
1861.24,0.04738
1855.45,0.04665
1849.67,0.04674
1843.88,0.04640
1838.09,0.04583
1832.31,0.04586
1826.52,0.04544
1820.74,0.04506
1814.95,0.04474
1809.16,0.04408
1803.38,0.04366
1797.59,0.04277
1791.8,0.04217
1786.02,0.04161
1780.23,0.04019
1774.45,0.03896
1768.66,0.03722
1762.87,0.03505
1757.09,0.03120
1751.3,0.02649
1745.51,0.02521
1739.73,0.03836
1733.94,0.05987
1728.16,0.08009
1722.37,0.08900
1716.58,0.08328
1710.8,0.07402
1705.01,0.06752
1699.22,0.06319
1693.44,0.06024
1687.65,0.05869
1681.87,0.05749
1676.08,0.05658
1670.29,0.05580
1664.51,0.05507
1658.72,0.05496
1652.93,0.05391
1647.15,0.05405
1641.36,0.05321
1635.58,0.05275
1629.79,0.05280
1624,0.05243
1618.22,0.05262
1612.43,0.05199
1606.64,0.05123
1600.86,0.05130
1595.07,0.05103
1589.29,0.05058
1583.5,0.05051
1577.71,0.04986
1571.93,0.04965
1566.14,0.04884
1560.35,0.04908
1554.57,0.04884
1548.78,0.04816
1543,0.04810
1537.21,0.04749
1531.42,0.04751
1525.64,0.04692
1519.85,0.04646
1514.07,0.04546
1508.28,0.04535
1502.49,0.04365
1496.71,0.04228
1490.92,0.04160
1485.13,0.04375
1479.35,0.04576
1473.56,0.04650
1467.78,0.04639
1461.99,0.04598
1456.2,0.04609
1450.42,0.04752
1444.63,0.05049
1438.84,0.05161
1433.06,0.05592
1427.27,0.05716
1421.49,0.05501
1415.7,0.05265
1409.91,0.05132
1404.13,0.04978
1398.34,0.04879
1392.55,0.04827
1386.77,0.04956
1380.98,0.05117
1375.2,0.05058
1369.41,0.04921
1363.62,0.04963
1357.84,0.04925
1352.05,0.04850
1346.26,0.04778
1340.48,0.04710
1334.69,0.04690
1328.91,0.04597
1323.12,0.04550
1317.33,0.04420
1311.55,0.04360
1305.76,0.04236
1299.97,0.04082
1294.19,0.03984
1288.4,0.03833
1282.62,0.03689
1276.83,0.03742
1271.04,0.04162
1265.26,0.04449
1259.47,0.04410
1253.68,0.04314
1247.9,0.04413
1242.11,0.04884
1236.33,0.05290
1230.54,0.05352
1224.75,0.05095
1218.97,0.04641
1213.18,0.04234
1207.39,0.03766
1201.61,0.03828
1195.82,0.04621
1190.04,0.05471
1184.25,0.05464
1178.46,0.05362
1172.68,0.05380
1166.89,0.05368
1161.1,0.05472
1155.32,0.06175
1149.53,0.08063
1143.75,0.09303
1137.96,0.09195
1132.17,0.08703
1126.39,0.08325
1120.6,0.08054
1114.81,0.07843
1109.03,0.07467
1103.24,0.07295
1097.46,0.07016
1091.67,0.06876
1085.88,0.06764
1080.1,0.06630
1074.31,0.06491
1068.52,0.06524
1062.74,0.06599
1056.95,0.06800
1051.17,0.06637
1045.38,0.06475
1039.59,0.06327
1033.81,0.06173
1028.02,0.06165
1022.24,0.05982
1016.45,0.05915
1010.66,0.05775
1004.88,0.05547
999.09,0.05447
993.304,0.05684
987.518,0.05895
981.731,0.06121
975.945,0.06081
970.159,0.06047
964.373,0.06261
958.586,0.06402
952.8,0.06310
947.014,0.06342
941.228,0.06290
935.441,0.06196
929.655,0.06125
923.869,0.06100
918.083,0.06047
912.297,0.06070
906.51,0.06133
900.724,0.06105
894.938,0.06071
889.152,0.05989
883.365,0.05945
877.579,0.05887
871.793,0.05887
866.007,0.05825
860.22,0.05762
854.434,0.05783
848.648,0.05774
842.862,0.05854
837.075,0.06135
831.289,0.06078
825.503,0.06059
819.717,0.06048
813.931,0.06000
808.144,0.06028
802.358,0.06014
796.572,0.05959
790.786,0.05914
784.999,0.05880
779.213,0.05826
773.427,0.05768
767.641,0.05653
761.854,0.05570
756.068,0.05677
750.282,0.05992
744.496,0.06432
738.709,0.06177
732.923,0.06105
727.137,0.05999
721.351,0.06014
715.565,0.05991
709.778,0.05966
703.992,0.05858
698.206,0.05868
692.42,0.05848
686.633,0.05832
680.847,0.05768
675.061,0.05693
669.275,0.05749
663.488,0.05772
657.702,0.05696
651.916,0.05685
646.13,0.05628
640.343,0.05537
634.557,0.05566
628.771,0.05546
622.985,0.05478
617.198,0.05433
611.412,0.05382
605.626,0.05311
599.84,0.05278