File: 01_Data/Black_PMMA/FTIR/IS/Black_PMMA_IS_S_221012_R1.dpt
7497.03,0.05452
7491.25,0.04708
7485.46,0.05931
7479.67,0.05135
7473.89,0.06095
7468.1,0.05625
7462.32,0.04509
7456.53,0.04623
7450.74,0.04932
7444.96,0.05212
7439.17,0.05237
7433.38,0.05323
7427.6,0.05529
7421.81,0.05283
7416.03,0.04416
7410.24,0.03890
7404.45,0.05242
7398.67,0.06292
7392.88,0.05618
7387.09,0.04951
7381.31,0.05135
7375.52,0.05806
7369.74,0.05446
7363.95,0.05239
7358.16,0.05708
7352.38,0.05370
7346.59,0.05476
7340.8,0.05716
7335.02,0.04836
7329.23,0.04117
7323.45,0.05607
7317.66,0.05124
7311.87,0.05003
7306.09,0.05629
7300.3,0.04160
7294.51,0.04548
7288.73,0.05376
7282.94,0.04681
7277.16,0.05427
7271.37,0.04622
7265.58,0.04303
7259.8,0.04855
7254.01,0.04744
7248.22,0.04882
7242.44,0.06020
7236.65,0.05770
7230.87,0.04985
7225.08,0.05489
7219.29,0.05010
7213.51,0.05628
7207.72,0.05473
7201.93,0.05868
7196.15,0.05349
7190.36,0.04830
7184.58,0.05114
7178.79,0.05061
7173,0.05088
7167.22,0.05173
7161.43,0.04937
7155.65,0.04960
7149.86,0.05866
7144.07,0.05056
7138.29,0.05639
7132.5,0.04888
7126.71,0.05106
7120.93,0.05768
7115.14,0.05027
7109.36,0.05274
7103.57,0.05152
7097.78,0.05115
7092,0.05268
7086.21,0.05221
7080.42,0.04932
7074.64,0.05187
7068.85,0.05425
7063.07,0.04270
7057.28,0.05591
7051.49,0.05051
7045.71,0.05049
7039.92,0.05183
7034.13,0.05230
7028.35,0.05205
7022.56,0.05261
7016.78,0.05617
7010.99,0.04725
7005.2,0.05456
6999.42,0.05891
6993.63,0.05086
6987.84,0.05078
6982.06,0.05279
6976.27,0.05680
6970.49,0.05362
6964.7,0.05553
6958.91,0.05253
6953.13,0.04911
6947.34,0.05337
6941.55,0.05045
6935.77,0.05495
6929.98,0.05113
6924.2,0.05350
6918.41,0.04675
6912.62,0.05137
6906.84,0.05210
6901.05,0.05744
6895.26,0.05528
6889.48,0.04938
6883.69,0.05188
6877.91,0.05129
6872.12,0.05589
6866.33,0.05135
6860.55,0.05146
6854.76,0.05543
6848.97,0.05589
6843.19,0.05605
6837.4,0.04949
6831.62,0.04965
6825.83,0.05225
6820.04,0.05312
6814.26,0.05277
6808.47,0.05131
6802.68,0.05765
6796.9,0.05878
6791.11,0.04862
6785.33,0.04852
6779.54,0.05521
6773.75,0.05223
6767.97,0.04791
6762.18,0.04745
6756.39,0.05701
6750.61,0.04984
6744.82,0.05269
6739.04,0.05577
6733.25,0.05068
6727.46,0.05473
6721.68,0.05308
6715.89,0.05259
6710.1,0.05026
6704.32,0.04920
6698.53,0.05276
6692.75,0.05383
6686.96,0.05260
6681.17,0.05165
6675.39,0.04968
6669.6,0.05235
6663.82,0.05139
6658.03,0.05528
6652.24,0.05132
6646.46,0.05109
6640.67,0.05129
6634.88,0.05554
6629.1,0.05363
6623.31,0.05334
6617.53,0.06150
6611.74,0.04757
6605.95,0.05202
6600.17,0.05324
6594.38,0.05198
6588.59,0.05361
6582.81,0.05458
6577.02,0.05118
6571.24,0.05226
6565.45,0.05388
6559.66,0.04810
6553.88,0.05522
6548.09,0.05201
6542.3,0.05076
6536.52,0.04824
6530.73,0.05290
6524.95,0.05751
6519.16,0.05217
6513.37,0.05095
6507.59,0.05128
6501.8,0.05243
6496.01,0.05412
6490.23,0.05145
6484.44,0.05517
6478.66,0.05189
6472.87,0.05007
6467.08,0.05401
6461.3,0.05448
6455.51,0.05407
6449.72,0.04975
6443.94,0.05499
6438.15,0.04774
6432.37,0.04943
6426.58,0.05106
6420.79,0.05027
6415.01,0.04961
6409.22,0.05285
6403.43,0.04851
6397.65,0.04929
6391.86,0.05496
6386.08,0.05833
6380.29,0.05406
6374.5,0.05099
6368.72,0.05380
6362.93,0.05232
6357.14,0.05203
6351.36,0.05177
6345.57,0.05098
6339.79,0.04870
6334,0.04919
6328.21,0.05147
6322.43,0.05620
6316.64,0.05385
6310.85,0.05450
6305.07,0.05478
6299.28,0.04990
6293.5,0.05195
6287.71,0.05435
6281.92,0.05406
6276.14,0.04835
6270.35,0.05034
6264.56,0.05143
6258.78,0.05160
6252.99,0.05081
6247.21,0.05401
6241.42,0.05529
6235.63,0.05196
6229.85,0.05089
6224.06,0.05367
6218.27,0.05207
6212.49,0.05263
6206.7,0.05136
6200.92,0.05318
6195.13,0.05275
6189.34,0.05192
6183.56,0.05141
6177.77,0.05297
6171.98,0.05459
6166.2,0.05359
6160.41,0.05422
6154.63,0.05241
6148.84,0.05555
6143.05,0.05317
6137.27,0.05265
6131.48,0.05310
6125.7,0.05178
6119.91,0.05167
6114.12,0.05275
6108.34,0.05161
6102.55,0.05287
6096.76,0.05080
6090.98,0.04888
6085.19,0.05388
6079.41,0.05403
6073.62,0.05341
6067.83,0.05201
6062.05,0.05337
6056.26,0.05367
6050.47,0.05181
6044.69,0.04947
6038.9,0.05146
6033.12,0.05226
6027.33,0.05010
6021.54,0.05071
6015.76,0.04955
6009.97,0.05148
6004.18,0.05259
5998.4,0.05392
5992.61,0.05352
5986.83,0.05133
5981.04,0.05282
5975.25,0.05360
5969.47,0.05235
5963.68,0.05131
5957.89,0.05230
5952.11,0.05235
5946.32,0.04948
5940.54,0.05255
5934.75,0.05204
5928.96,0.05307
5923.18,0.05105
5917.39,0.05066
5911.6,0.05031
5905.82,0.05204
5900.03,0.05017
5894.25,0.05114
5888.46,0.05168
5882.67,0.05131
5876.89,0.05176
5871.1,0.05088
5865.31,0.05215
5859.53,0.05047
5853.74,0.05283
5847.96,0.05177
5842.17,0.05496
5836.38,0.05118
5830.6,0.05222
5824.81,0.05281
5819.02,0.05165
5813.24,0.04907
5807.45,0.05018
5801.67,0.05353
5795.88,0.05103
5790.09,0.05154
5784.31,0.05220
5778.52,0.05403
5772.73,0.05208
5766.95,0.05324
5761.16,0.05301
5755.38,0.05154
5749.59,0.05265
5743.8,0.05431
5738.02,0.05200
5732.23,0.05238
5726.44,0.05492
5720.66,0.05417
5714.87,0.05428
5709.09,0.05295
5703.3,0.05270
5697.51,0.05393
5691.73,0.05379
5685.94,0.05243
5680.15,0.05346
5674.37,0.05149
5668.58,0.05295
5662.8,0.05408
5657.01,0.05346
5651.22,0.05352
5645.44,0.05129
5639.65,0.05421
5633.87,0.05136
5628.08,0.05353
5622.29,0.05214
5616.51,0.05555
5610.72,0.05411
5604.93,0.05390
5599.15,0.05391
5593.36,0.05244
5587.58,0.05522
5581.79,0.05443
5576,0.05487
5570.22,0.05055
5564.43,0.05097
5558.64,0.05284
5552.86,0.05413
5547.07,0.05468
5541.29,0.05216
5535.5,0.05143
5529.71,0.05365
5523.93,0.05326
5518.14,0.05467
5512.35,0.05350
5506.57,0.05461
5500.78,0.05407
5495,0.05205
5489.21,0.05414
5483.42,0.05305
5477.64,0.05386
5471.85,0.05379
5466.06,0.05435
5460.28,0.05445
5454.49,0.05430
5448.71,0.05418
5442.92,0.05235
5437.13,0.05438
5431.35,0.05382
5425.56,0.05275
5419.77,0.05325
5413.99,0.05672
5408.2,0.05322
5402.42,0.05495
5396.63,0.05438
5390.84,0.05477
5385.06,0.05297
5379.27,0.05368
5373.48,0.05394
5367.7,0.05552
5361.91,0.05350
5356.13,0.05519
5350.34,0.05404
5344.55,0.05546
5338.77,0.05459
5332.98,0.05475
5327.19,0.05527
5321.41,0.05454
5315.62,0.05454
5309.84,0.05427
5304.05,0.05302
5298.26,0.05220
5292.48,0.05513
5286.69,0.05523
5280.9,0.05403
5275.12,0.05320
5269.33,0.05441
5263.55,0.05354
5257.76,0.05439
5251.97,0.05333
5246.19,0.05230
5240.4,0.05413
5234.61,0.05403
5228.83,0.05258
5223.04,0.05382
5217.26,0.05452
5211.47,0.05292
5205.68,0.05343
5199.9,0.05428
5194.11,0.05447
5188.32,0.05419
5182.54,0.05425
5176.75,0.05404
5170.97,0.05418
5165.18,0.05305
5159.39,0.05383
5153.61,0.05488
5147.82,0.05447
5142.03,0.05336
5136.25,0.05350
5130.46,0.05476
5124.68,0.05432
5118.89,0.05418
5113.1,0.05412
5107.32,0.05330
5101.53,0.05429
5095.75,0.05442
5089.96,0.05395
5084.17,0.05456
5078.39,0.05624
5072.6,0.05418
5066.81,0.05486
5061.03,0.05547
5055.24,0.05594
5049.46,0.05443
5043.67,0.05418
5037.88,0.05531
5032.1,0.05493
5026.31,0.05514
5020.52,0.05473
5014.74,0.05536
5008.95,0.05365
5003.17,0.05398
4997.38,0.05635
4991.59,0.05574
4985.81,0.05393
4980.02,0.05466
4974.23,0.05492
4968.45,0.05588
4962.66,0.05477
4956.88,0.05501
4951.09,0.05537
4945.3,0.05553
4939.52,0.05533
4933.73,0.05474
4927.94,0.05548
4922.16,0.05492
4916.37,0.05504
4910.59,0.05530
4904.8,0.05426
4899.01,0.05498
4893.23,0.05585
4887.44,0.05434
4881.65,0.05546
4875.87,0.05525
4870.08,0.05488
4864.3,0.05393
4858.51,0.05517
4852.72,0.05537
4846.94,0.05570
4841.15,0.05575
4835.36,0.05524
4829.58,0.05570
4823.79,0.05683
4818.01,0.05471
4812.22,0.05530
4806.43,0.05455
4800.65,0.05437
4794.86,0.05456
4789.07,0.05506
4783.29,0.05435
4777.5,0.05342
4771.72,0.05454
4765.93,0.05436
4760.14,0.05472
4754.36,0.05374
4748.57,0.05510
4742.78,0.05442
4737,0.05363
4731.21,0.05453
4725.43,0.05423
4719.64,0.05431
4713.85,0.05514
4708.07,0.05447
4702.28,0.05444
4696.49,0.05550
4690.71,0.05494
4684.92,0.05374
4679.14,0.05342
4673.35,0.05542
4667.56,0.05383
4661.78,0.05370
4655.99,0.05578
4650.2,0.05483
4644.42,0.05565
4638.63,0.05530
4632.85,0.05495
4627.06,0.05409
4621.27,0.05419
4615.49,0.05395
4609.7,0.05489
4603.92,0.05403
4598.13,0.05450
4592.34,0.05480
4586.56,0.05373
4580.77,0.05446
4574.98,0.05413
4569.2,0.05368
4563.41,0.05488
4557.63,0.05384
4551.84,0.05455
4546.05,0.05503
4540.27,0.05434
4534.48,0.05413
4528.69,0.05404
4522.91,0.05363
4517.12,0.05295
4511.34,0.05251
4505.55,0.05280
4499.76,0.05275
4493.98,0.05244
4488.19,0.05242
4482.4,0.05245
4476.62,0.05216
4470.83,0.05172
4465.05,0.05177
4459.26,0.05167
4453.47,0.05206
4447.69,0.05112
4441.9,0.05111
4436.11,0.05077
4430.33,0.05159
4424.54,0.05138
4418.76,0.05200
4412.97,0.05176
4407.18,0.05214
4401.4,0.05161
4395.61,0.05219
4389.82,0.05214
4384.04,0.05176
4378.25,0.05194
4372.47,0.05145
4366.68,0.05260
4360.89,0.05228
4355.11,0.05167
4349.32,0.05246
4343.53,0.05204
4337.75,0.05213
4331.96,0.05276
4326.18,0.05301
4320.39,0.05311
4314.6,0.05242
4308.82,0.05317
4303.03,0.05326
4297.24,0.05372
4291.46,0.05311
4285.67,0.05292
4279.89,0.05285
4274.1,0.05378
4268.31,0.05331
4262.53,0.05223
4256.74,0.05324
4250.95,0.05302
4245.17,0.05335
4239.38,0.05283
4233.6,0.05256
4227.81,0.05193
4222.02,0.05210
4216.24,0.05298
4210.45,0.05201
4204.66,0.05216
4198.88,0.05247
4193.09,0.05238
4187.31,0.05177
4181.52,0.05222
4175.73,0.05243
4169.95,0.05300
4164.16,0.05317
4158.37,0.05252
4152.59,0.05276
4146.8,0.05247
4141.02,0.05315
4135.23,0.05347
4129.44,0.05288
4123.66,0.05276
4117.87,0.05320
4112.09,0.05280
4106.3,0.05272
4100.51,0.05322
4094.73,0.05314
4088.94,0.05284
4083.15,0.05284
4077.37,0.05262
4071.58,0.05314
4065.8,0.05373
4060.01,0.05308
4054.22,0.05398
4048.44,0.05325
4042.65,0.05354
4036.86,0.05319
4031.08,0.05369
4025.29,0.05308
4019.51,0.05357
4013.72,0.05358
4007.93,0.05286
4002.15,0.05307
3996.36,0.05348
3990.57,0.05325
3984.79,0.05392
3979,0.05400
3973.22,0.05334
3967.43,0.05386
3961.64,0.05416
3955.86,0.05412
3950.07,0.05381
3944.28,0.05377
3938.5,0.05437
3932.71,0.05434
3926.93,0.05400
3921.14,0.05475
3915.35,0.05490
3909.57,0.05465
3903.78,0.05427
3897.99,0.05450
3892.21,0.05401
3886.42,0.05408
3880.64,0.05452
3874.85,0.05397
3869.06,0.05424
3863.28,0.05408
3857.49,0.05424
3851.7,0.05465
3845.92,0.05424
3840.13,0.05383
3834.35,0.05397
3828.56,0.05430
3822.77,0.05481
3816.99,0.05418
3811.2,0.05481
3805.41,0.05399
3799.63,0.05448
3793.84,0.05457
3788.06,0.05421
3782.27,0.05519
3776.48,0.05476
3770.7,0.05519
3764.91,0.05434
3759.12,0.05449
3753.34,0.05479
3747.55,0.05391
3741.77,0.05446
3735.98,0.05355
3730.19,0.05471
3724.41,0.05450
3718.62,0.05515
3712.83,0.05418
3707.05,0.05300
3701.26,0.05346
3695.48,0.05381
3689.69,0.05316
3683.9,0.05231
3678.12,0.05212
3672.33,0.05242
3666.54,0.05146
3660.76,0.05135
3654.97,0.05166
3649.19,0.05091
3643.4,0.05133
3637.61,0.05167
3631.83,0.05121
3626.04,0.05162
3620.25,0.05139
3614.47,0.05151
3608.68,0.05081
3602.9,0.05128
3597.11,0.05149
3591.32,0.05243
3585.54,0.05146
3579.75,0.05087
3573.97,0.05053
3568.18,0.05152
3562.39,0.05064
3556.61,0.05143
3550.82,0.05122
3545.03,0.05060
3539.25,0.05117
3533.46,0.05144
3527.68,0.05154
3521.89,0.05120
3516.1,0.05163
3510.32,0.05169
3504.53,0.05111
3498.74,0.05220
3492.96,0.05102
3487.17,0.05062
3481.39,0.05145
3475.6,0.05126
3469.81,0.05076
3464.03,0.05078
3458.24,0.05099
3452.45,0.05131
3446.67,0.05126
3440.88,0.05038
3435.1,0.05043
3429.31,0.05040
3423.52,0.05049
3417.74,0.05097
3411.95,0.05130
3406.16,0.05160
3400.38,0.05131
3394.59,0.05189
3388.81,0.05186
3383.02,0.05140
3377.23,0.05101
3371.45,0.05117
3365.66,0.05113
3359.87,0.05116
3354.09,0.05131
3348.3,0.05089
3342.52,0.05218
3336.73,0.05162
3330.94,0.05148
3325.16,0.05178
3319.37,0.05089
3313.58,0.05187
3307.8,0.05158
3302.01,0.05159
3296.23,0.05133
3290.44,0.05168
3284.65,0.05148
3278.87,0.05136
3273.08,0.05031
3267.29,0.05085
3261.51,0.05132
3255.72,0.05151
3249.94,0.05186
3244.15,0.05096
3238.36,0.05184
3232.58,0.05141
3226.79,0.05174
3221,0.05151
3215.22,0.05142
3209.43,0.05153
3203.65,0.05155
3197.86,0.05169
3192.07,0.05150
3186.29,0.05119
3180.5,0.05115
3174.71,0.05156
3168.93,0.05109
3163.14,0.05031
3157.36,0.05114
3151.57,0.05122
3145.78,0.05090
3140,0.05040
3134.21,0.05118
3128.42,0.05086
3122.64,0.05032
3116.85,0.05061
3111.07,0.05017
3105.28,0.05051
3099.49,0.04986
3093.71,0.05060
3087.92,0.04985
3082.14,0.05017
3076.35,0.05054
3070.56,0.04963
3064.78,0.04914
3058.99,0.04897
3053.2,0.04908
3047.42,0.04851
3041.63,0.04798
3035.85,0.04781
3030.06,0.04779
3024.27,0.04740
3018.49,0.04768
3012.7,0.04731
3006.91,0.04790
3001.13,0.04737
2995.34,0.04842
2989.56,0.04880
2983.77,0.04982
2977.98,0.04941
2972.2,0.04900
2966.41,0.04868
2960.62,0.04861
2954.84,0.04881
2949.05,0.05178
2943.27,0.05325
2937.48,0.05378
2931.69,0.05502
2925.91,0.05662
2920.12,0.05658
2914.33,0.05541
2908.55,0.05512
2902.76,0.05450
2896.98,0.05388
2891.19,0.05353
2885.4,0.05351
2879.62,0.05317
2873.83,0.05335
2868.04,0.05395
2862.26,0.05352
2856.47,0.05433
2850.69,0.05473
2844.9,0.05356
2839.11,0.05366
2833.33,0.05354
2827.54,0.05313
2821.75,0.05290
2815.97,0.05280
2810.18,0.05268
2804.4,0.05317
2798.61,0.05303
2792.82,0.05243
2787.04,0.05257
2781.25,0.05310
2775.46,0.05247
2769.68,0.05255
2763.89,0.05261
2758.11,0.05232
2752.32,0.05281
2746.53,0.05288
2740.75,0.05232
2734.96,0.05218
2729.17,0.05273
2723.39,0.05276
2717.6,0.05253
2711.82,0.05298
2706.03,0.05330
2700.24,0.05266
2694.46,0.05256
2688.67,0.05269
2682.88,0.05244
2677.1,0.05247
2671.31,0.05255
2665.53,0.05226
2659.74,0.05238
2653.95,0.05224
2648.17,0.05195
2642.38,0.05204
2636.59,0.05250
2630.81,0.05245
2625.02,0.05199
2619.24,0.05235
2613.45,0.05187
2607.66,0.05191
2601.88,0.05156
2596.09,0.05166
2590.3,0.05193
2584.52,0.05213
2578.73,0.05209
2572.95,0.05207
2567.16,0.05176
2561.37,0.05262
2555.59,0.05184
2549.8,0.05221
2544.02,0.05210
2538.23,0.05177
2532.44,0.05195
2526.66,0.05237
2520.87,0.05225
2515.08,0.05257
2509.3,0.05170
2503.51,0.05194
2497.73,0.05220
2491.94,0.05222
2486.15,0.05212
2480.37,0.05243
2474.58,0.05204
2468.79,0.05186
2463.01,0.05200
2457.22,0.05226
2451.44,0.05201
2445.65,0.05186
2439.86,0.05153
2434.08,0.05149
2428.29,0.05194
2422.5,0.05145
2416.72,0.05147
2410.93,0.05147
2405.15,0.05123
2399.36,0.05144
2393.57,0.05127
2387.79,0.05157
2382,0.05156
2376.21,0.05113
2370.43,0.05137
2364.64,0.05154
2358.86,0.05142
2353.07,0.05122
2347.28,0.05151
2341.5,0.05117
2335.71,0.05162
2329.92,0.05121
2324.14,0.05135
2318.35,0.05127
2312.57,0.05175
2306.78,0.05148
2300.99,0.05176
2295.21,0.05128
2289.42,0.05128
2283.63,0.05134
2277.85,0.05121
2272.06,0.05159
2266.28,0.05133
2260.49,0.05133
2254.7,0.05150
2248.92,0.05135
2243.13,0.05127
2237.34,0.05128
2231.56,0.05106
2225.77,0.05144
2219.99,0.05113
2214.2,0.05134
2208.41,0.05081
2202.63,0.05141
2196.84,0.05099
2191.05,0.05086
2185.27,0.05124
2179.48,0.05110
2173.7,0.05115
2167.91,0.05099
2162.12,0.05064
2156.34,0.05072
2150.55,0.05039
2144.76,0.05036
2138.98,0.05039
2133.19,0.05055
2127.41,0.05024
2121.62,0.05040
2115.83,0.05024
2110.05,0.05025
2104.26,0.05035
2098.47,0.05019
2092.69,0.05025
2086.9,0.05016
2081.12,0.05002
2075.33,0.04984
2069.54,0.05059
2063.76,0.05010
2057.97,0.04968
2052.19,0.05000
2046.4,0.04991
2040.61,0.05030
2034.83,0.04991
2029.04,0.04971
2023.25,0.04964
2017.47,0.04975
2011.68,0.04962
2005.9,0.04938
2000.11,0.04972
1994.32,0.04931
1988.54,0.04942
1982.75,0.04967
1976.96,0.04908
1971.18,0.04918
1965.39,0.04911
1959.61,0.04919
1953.82,0.04916
1948.03,0.04927
1942.25,0.04911
1936.46,0.04889
1930.67,0.04861
1924.89,0.04904
1919.1,0.04876
1913.32,0.04847
1907.53,0.04831
1901.74,0.04857
1895.96,0.04836
1890.17,0.04820
1884.38,0.04778
1878.6,0.04807
1872.81,0.04763
1867.03,0.04743
1861.24,0.04709
1855.45,0.04693
1849.67,0.04664
1843.88,0.04646
1838.09,0.04617
1832.31,0.04567
1826.52,0.04543
1820.74,0.04511
1814.95,0.04456
1809.16,0.04436
1803.38,0.04357
1797.59,0.04274
1791.8,0.04240
1786.02,0.04151
1780.23,0.04048
1774.45,0.03964
1768.66,0.03708
1762.87,0.03508
1757.09,0.03155
1751.3,0.02676
1745.51,0.02464
1739.73,0.03783
1733.94,0.05938
1728.16,0.07981
1722.37,0.08846
1716.58,0.08301
1710.8,0.07445
1705.01,0.06786
1699.22,0.06327
1693.44,0.06045
1687.65,0.05946
1681.87,0.05771
1676.08,0.05670
1670.29,0.05584
1664.51,0.05527
1658.72,0.05500
1652.93,0.05382
1647.15,0.05379
1641.36,0.05359
1635.58,0.05309
1629.79,0.05285
1624,0.05239
1618.22,0.05209
1612.43,0.05167
1606.64,0.05123
1600.86,0.05115
1595.07,0.05113
1589.29,0.05051
1583.5,0.05003
1577.71,0.05003
1571.93,0.04956
1566.14,0.04896
1560.35,0.04894
1554.57,0.04844
1548.78,0.04854
1543,0.04831
1537.21,0.04809
1531.42,0.04706
1525.64,0.04719
1519.85,0.04677
1514.07,0.04572
1508.28,0.04517
1502.49,0.04326
1496.71,0.04201
1490.92,0.04143
1485.13,0.04408
1479.35,0.04597
1473.56,0.04637
1467.78,0.04625
1461.99,0.04606
1456.2,0.04598
1450.42,0.04789
1444.63,0.05083
1438.84,0.05182
1433.06,0.05554
1427.27,0.05740
1421.49,0.05514
1415.7,0.05284
1409.91,0.05119
1404.13,0.04959
1398.34,0.04857
1392.55,0.04839
1386.77,0.04996
1380.98,0.05095
1375.2,0.05077
1369.41,0.04935
1363.62,0.04943
1357.84,0.04883
1352.05,0.04855
1346.26,0.04793
1340.48,0.04723
1334.69,0.04689
1328.91,0.04628
1323.12,0.04510
1317.33,0.04446
1311.55,0.04348
1305.76,0.04222
1299.97,0.04077
1294.19,0.03966
1288.4,0.03813
1282.62,0.03713
1276.83,0.03729
1271.04,0.04178
1265.26,0.04463
1259.47,0.04398
1253.68,0.04262
1247.9,0.04412
1242.11,0.04853
1236.33,0.05285
1230.54,0.05343
1224.75,0.05101
1218.97,0.04688
1213.18,0.04180
1207.39,0.03755
1201.61,0.03823
1195.82,0.04627
1190.04,0.05484
1184.25,0.05506
1178.46,0.05374
1172.68,0.05381
1166.89,0.05375
1161.1,0.05507
1155.32,0.06210
1149.53,0.08071
1143.75,0.09230
1137.96,0.09200
1132.17,0.08734
1126.39,0.08308
1120.6,0.08030
1114.81,0.07792
1109.03,0.07495
1103.24,0.07315
1097.46,0.07084
1091.67,0.06873
1085.88,0.06724
1080.1,0.06676
1074.31,0.06567
1068.52,0.06536
1062.74,0.06661
1056.95,0.06694
1051.17,0.06652
1045.38,0.06508
1039.59,0.06315
1033.81,0.06247
1028.02,0.06161
1022.24,0.06094
1016.45,0.05916
1010.66,0.05753
1004.88,0.05549
999.09,0.05436
993.304,0.05706
987.518,0.05956
981.731,0.06182
975.945,0.06151
970.159,0.06121
964.373,0.06283
958.586,0.06410
952.8,0.06315
947.014,0.06312
941.228,0.06252
935.441,0.06191
929.655,0.06118
923.869,0.06084
918.083,0.06056
912.297,0.06056
906.51,0.06130
900.724,0.06035
894.938,0.06043
889.152,0.05962
883.365,0.05912
877.579,0.05879
871.793,0.05813
866.007,0.05810
860.22,0.05750
854.434,0.05719
848.648,0.05845
842.862,0.05917
837.075,0.06186
831.289,0.06025
825.503,0.05992
819.717,0.06044
813.931,0.05953
808.144,0.06026
802.358,0.06052
796.572,0.06021
790.786,0.05982
784.999,0.05872
779.213,0.05783
773.427,0.05635
767.641,0.05618
761.854,0.05584
756.068,0.05619
750.282,0.06067
744.496,0.06412
738.709,0.06142
732.923,0.06131
727.137,0.06140
721.351,0.06001
715.565,0.05941
709.778,0.05934
703.992,0.05808
698.206,0.05852
692.42,0.05880
686.633,0.05928
680.847,0.05922
675.061,0.05758
669.275,0.05761
663.488,0.05744
657.702,0.05702
651.916,0.05659
646.13,0.05652
640.343,0.05453
634.557,0.05525
628.771,0.05531
622.985,0.05489
617.198,0.05503
611.412,0.05483
605.626,0.05516
599.84,0.05479