File: 01_Data/Black_PMMA/FTIR/IS/Black_PMMA_IS_S_221012_R7.dpt
7497.03,0.04390
7491.25,0.04487
7485.46,0.05165
7479.67,0.05002
7473.89,0.04879
7468.1,0.06030
7462.32,0.05574
7456.53,0.05294
7450.74,0.04779
7444.96,0.05816
7439.17,0.04689
7433.38,0.05619
7427.6,0.05470
7421.81,0.04737
7416.03,0.05099
7410.24,0.05895
7404.45,0.05586
7398.67,0.05038
7392.88,0.05250
7387.09,0.05927
7381.31,0.05998
7375.52,0.05448
7369.74,0.05334
7363.95,0.05672
7358.16,0.04434
7352.38,0.05553
7346.59,0.05485
7340.8,0.05281
7335.02,0.05327
7329.23,0.05500
7323.45,0.06079
7317.66,0.06127
7311.87,0.05268
7306.09,0.05815
7300.3,0.05036
7294.51,0.04203
7288.73,0.05114
7282.94,0.05565
7277.16,0.05340
7271.37,0.04940
7265.58,0.06161
7259.8,0.05414
7254.01,0.05465
7248.22,0.04803
7242.44,0.05014
7236.65,0.04810
7230.87,0.05780
7225.08,0.05204
7219.29,0.05378
7213.51,0.05754
7207.72,0.05602
7201.93,0.05522
7196.15,0.04683
7190.36,0.05333
7184.58,0.04273
7178.79,0.05318
7173,0.05801
7167.22,0.06007
7161.43,0.04530
7155.65,0.05497
7149.86,0.05057
7144.07,0.05496
7138.29,0.05355
7132.5,0.05665
7126.71,0.06036
7120.93,0.04778
7115.14,0.05208
7109.36,0.05743
7103.57,0.05489
7097.78,0.05142
7092,0.05464
7086.21,0.05183
7080.42,0.05080
7074.64,0.06018
7068.85,0.06231
7063.07,0.05279
7057.28,0.05251
7051.49,0.05938
7045.71,0.05784
7039.92,0.05855
7034.13,0.05692
7028.35,0.05131
7022.56,0.05540
7016.78,0.05087
7010.99,0.05283
7005.2,0.05802
6999.42,0.05595
6993.63,0.05411
6987.84,0.05499
6982.06,0.05065
6976.27,0.05176
6970.49,0.05856
6964.7,0.05892
6958.91,0.04950
6953.13,0.05617
6947.34,0.05661
6941.55,0.05274
6935.77,0.04429
6929.98,0.05053
6924.2,0.05640
6918.41,0.05250
6912.62,0.04984
6906.84,0.05429
6901.05,0.05441
6895.26,0.04875
6889.48,0.05024
6883.69,0.05555
6877.91,0.05466
6872.12,0.05127
6866.33,0.05413
6860.55,0.05151
6854.76,0.05155
6848.97,0.05272
6843.19,0.05029
6837.4,0.05633
6831.62,0.05533
6825.83,0.05899
6820.04,0.04887
6814.26,0.05228
6808.47,0.05547
6802.68,0.05165
6796.9,0.05707
6791.11,0.05721
6785.33,0.05729
6779.54,0.05585
6773.75,0.05014
6767.97,0.05128
6762.18,0.05678
6756.39,0.05698
6750.61,0.05282
6744.82,0.05684
6739.04,0.05401
6733.25,0.05038
6727.46,0.05221
6721.68,0.05118
6715.89,0.05488
6710.1,0.05234
6704.32,0.04851
6698.53,0.04643
6692.75,0.05224
6686.96,0.04910
6681.17,0.05447
6675.39,0.05276
6669.6,0.05543
6663.82,0.05508
6658.03,0.05403
6652.24,0.05091
6646.46,0.05442
6640.67,0.05317
6634.88,0.04952
6629.1,0.05061
6623.31,0.04869
6617.53,0.05362
6611.74,0.05775
6605.95,0.05239
6600.17,0.05395
6594.38,0.05677
6588.59,0.05526
6582.81,0.05548
6577.02,0.05255
6571.24,0.05241
6565.45,0.05589
6559.66,0.05480
6553.88,0.05202
6548.09,0.05110
6542.3,0.05160
6536.52,0.04924
6530.73,0.04968
6524.95,0.05495
6519.16,0.05159
6513.37,0.05008
6507.59,0.05280
6501.8,0.05591
6496.01,0.05366
6490.23,0.05217
6484.44,0.05440
6478.66,0.05492
6472.87,0.05561
6467.08,0.05493
6461.3,0.05564
6455.51,0.05292
6449.72,0.05372
6443.94,0.05340
6438.15,0.04882
6432.37,0.05277
6426.58,0.05630
6420.79,0.05461
6415.01,0.05523
6409.22,0.05076
6403.43,0.05097
6397.65,0.05293
6391.86,0.05315
6386.08,0.05256
6380.29,0.05067
6374.5,0.04755
6368.72,0.05415
6362.93,0.05396
6357.14,0.05403
6351.36,0.05317
6345.57,0.05274
6339.79,0.05338
6334,0.05100
6328.21,0.05054
6322.43,0.05176
6316.64,0.05230
6310.85,0.05484
6305.07,0.05157
6299.28,0.05542
6293.5,0.05507
6287.71,0.05429
6281.92,0.05133
6276.14,0.05232
6270.35,0.05278
6264.56,0.05081
6258.78,0.05341
6252.99,0.05597
6247.21,0.05052
6241.42,0.05258
6235.63,0.05432
6229.85,0.05170
6224.06,0.05120
6218.27,0.05130
6212.49,0.05268
6206.7,0.05311
6200.92,0.05444
6195.13,0.05469
6189.34,0.05262
6183.56,0.05095
6177.77,0.05298
6171.98,0.05492
6166.2,0.05314
6160.41,0.05454
6154.63,0.05289
6148.84,0.05410
6143.05,0.05467
6137.27,0.05389
6131.48,0.05260
6125.7,0.05396
6119.91,0.05356
6114.12,0.05472
6108.34,0.05296
6102.55,0.05282
6096.76,0.05044
6090.98,0.05068
6085.19,0.05159
6079.41,0.05247
6073.62,0.05138
6067.83,0.05245
6062.05,0.05476
6056.26,0.05203
6050.47,0.05197
6044.69,0.05318
6038.9,0.05437
6033.12,0.05305
6027.33,0.05254
6021.54,0.05006
6015.76,0.05139
6009.97,0.04967
6004.18,0.05259
5998.4,0.05528
5992.61,0.05298
5986.83,0.05127
5981.04,0.05011
5975.25,0.04993
5969.47,0.05081
5963.68,0.04923
5957.89,0.05235
5952.11,0.05130
5946.32,0.04893
5940.54,0.05298
5934.75,0.04989
5928.96,0.05345
5923.18,0.05409
5917.39,0.05446
5911.6,0.05172
5905.82,0.05129
5900.03,0.05141
5894.25,0.04855
5888.46,0.05408
5882.67,0.05270
5876.89,0.05270
5871.1,0.05099
5865.31,0.05298
5859.53,0.05102
5853.74,0.05051
5847.96,0.05028
5842.17,0.05142
5836.38,0.05120
5830.6,0.05351
5824.81,0.05178
5819.02,0.05157
5813.24,0.05227
5807.45,0.05053
5801.67,0.05107
5795.88,0.05307
5790.09,0.05168
5784.31,0.05186
5778.52,0.05137
5772.73,0.05231
5766.95,0.05187
5761.16,0.05032
5755.38,0.05189
5749.59,0.05458
5743.8,0.05328
5738.02,0.05042
5732.23,0.05107
5726.44,0.05419
5720.66,0.05292
5714.87,0.05113
5709.09,0.05489
5703.3,0.05367
5697.51,0.05377
5691.73,0.05322
5685.94,0.05163
5680.15,0.05429
5674.37,0.05413
5668.58,0.05291
5662.8,0.05469
5657.01,0.05408
5651.22,0.05207
5645.44,0.05314
5639.65,0.05300
5633.87,0.05259
5628.08,0.05357
5622.29,0.05372
5616.51,0.05372
5610.72,0.05348
5604.93,0.05253
5599.15,0.05392
5593.36,0.05229
5587.58,0.05375
5581.79,0.05282
5576,0.05315
5570.22,0.05293
5564.43,0.05511
5558.64,0.05485
5552.86,0.05218
5547.07,0.05318
5541.29,0.05552
5535.5,0.05415
5529.71,0.05576
5523.93,0.05366
5518.14,0.05383
5512.35,0.05405
5506.57,0.05454
5500.78,0.05483
5495,0.05300
5489.21,0.05357
5483.42,0.05440
5477.64,0.05379
5471.85,0.05408
5466.06,0.05546
5460.28,0.05436
5454.49,0.05333
5448.71,0.05295
5442.92,0.05433
5437.13,0.05360
5431.35,0.05396
5425.56,0.05395
5419.77,0.05397
5413.99,0.05325
5408.2,0.05374
5402.42,0.05433
5396.63,0.05264
5390.84,0.05342
5385.06,0.05366
5379.27,0.05330
5373.48,0.05394
5367.7,0.05254
5361.91,0.05416
5356.13,0.05461
5350.34,0.05344
5344.55,0.05279
5338.77,0.05356
5332.98,0.05385
5327.19,0.05430
5321.41,0.05408
5315.62,0.05492
5309.84,0.05429
5304.05,0.05351
5298.26,0.05310
5292.48,0.05526
5286.69,0.05388
5280.9,0.05301
5275.12,0.05381
5269.33,0.05462
5263.55,0.05325
5257.76,0.05426
5251.97,0.05290
5246.19,0.05294
5240.4,0.05363
5234.61,0.05458
5228.83,0.05421
5223.04,0.05406
5217.26,0.05355
5211.47,0.05512
5205.68,0.05654
5199.9,0.05567
5194.11,0.05454
5188.32,0.05397
5182.54,0.05467
5176.75,0.05448
5170.97,0.05384
5165.18,0.05427
5159.39,0.05298
5153.61,0.05553
5147.82,0.05542
5142.03,0.05395
5136.25,0.05277
5130.46,0.05458
5124.68,0.05447
5118.89,0.05574
5113.1,0.05448
5107.32,0.05449
5101.53,0.05336
5095.75,0.05468
5089.96,0.05322
5084.17,0.05383
5078.39,0.05407
5072.6,0.05497
5066.81,0.05445
5061.03,0.05510
5055.24,0.05561
5049.46,0.05458
5043.67,0.05517
5037.88,0.05562
5032.1,0.05641
5026.31,0.05603
5020.52,0.05556
5014.74,0.05501
5008.95,0.05572
5003.17,0.05338
4997.38,0.05467
4991.59,0.05600
4985.81,0.05548
4980.02,0.05510
4974.23,0.05413
4968.45,0.05489
4962.66,0.05551
4956.88,0.05551
4951.09,0.05443
4945.3,0.05476
4939.52,0.05468
4933.73,0.05452
4927.94,0.05498
4922.16,0.05485
4916.37,0.05439
4910.59,0.05512
4904.8,0.05504
4899.01,0.05562
4893.23,0.05548
4887.44,0.05540
4881.65,0.05622
4875.87,0.05465
4870.08,0.05468
4864.3,0.05490
4858.51,0.05518
4852.72,0.05438
4846.94,0.05385
4841.15,0.05495
4835.36,0.05568
4829.58,0.05413
4823.79,0.05493
4818.01,0.05577
4812.22,0.05434
4806.43,0.05391
4800.65,0.05491
4794.86,0.05511
4789.07,0.05443
4783.29,0.05393
4777.5,0.05480
4771.72,0.05453
4765.93,0.05455
4760.14,0.05479
4754.36,0.05451
4748.57,0.05406
4742.78,0.05305
4737,0.05397
4731.21,0.05437
4725.43,0.05359
4719.64,0.05361
4713.85,0.05436
4708.07,0.05380
4702.28,0.05461
4696.49,0.05467
4690.71,0.05392
4684.92,0.05283
4679.14,0.05415
4673.35,0.05336
4667.56,0.05343
4661.78,0.05465
4655.99,0.05455
4650.2,0.05465
4644.42,0.05424
4638.63,0.05473
4632.85,0.05444
4627.06,0.05465
4621.27,0.05452
4615.49,0.05450
4609.7,0.05529
4603.92,0.05375
4598.13,0.05434
4592.34,0.05494
4586.56,0.05426
4580.77,0.05481
4574.98,0.05440
4569.2,0.05414
4563.41,0.05447
4557.63,0.05430
4551.84,0.05457
4546.05,0.05389
4540.27,0.05509
4534.48,0.05350
4528.69,0.05313
4522.91,0.05338
4517.12,0.05416
4511.34,0.05353
4505.55,0.05252
4499.76,0.05276
4493.98,0.05191
4488.19,0.05301
4482.4,0.05212
4476.62,0.05159
4470.83,0.05148
4465.05,0.05111
4459.26,0.05102
4453.47,0.05209
4447.69,0.05112
4441.9,0.05142
4436.11,0.05088
4430.33,0.05108
4424.54,0.05179
4418.76,0.05120
4412.97,0.05120
4407.18,0.05158
4401.4,0.05215
4395.61,0.05182
4389.82,0.05199
4384.04,0.05216
4378.25,0.05243
4372.47,0.05227
4366.68,0.05224
4360.89,0.05167
4355.11,0.05201
4349.32,0.05183
4343.53,0.05233
4337.75,0.05193
4331.96,0.05247
4326.18,0.05305
4320.39,0.05376
4314.6,0.05256
4308.82,0.05296
4303.03,0.05330
4297.24,0.05296
4291.46,0.05310
4285.67,0.05241
4279.89,0.05268
4274.1,0.05259
4268.31,0.05299
4262.53,0.05352
4256.74,0.05243
4250.95,0.05274
4245.17,0.05297
4239.38,0.05318
4233.6,0.05264
4227.81,0.05266
4222.02,0.05251
4216.24,0.05270
4210.45,0.05156
4204.66,0.05270
4198.88,0.05177
4193.09,0.05233
4187.31,0.05238
4181.52,0.05279
4175.73,0.05245
4169.95,0.05202
4164.16,0.05306
4158.37,0.05272
4152.59,0.05242
4146.8,0.05278
4141.02,0.05273
4135.23,0.05269
4129.44,0.05323
4123.66,0.05321
4117.87,0.05354
4112.09,0.05271
4106.3,0.05285
4100.51,0.05233
4094.73,0.05313
4088.94,0.05303
4083.15,0.05314
4077.37,0.05354
4071.58,0.05267
4065.8,0.05323
4060.01,0.05353
4054.22,0.05296
4048.44,0.05307
4042.65,0.05326
4036.86,0.05389
4031.08,0.05328
4025.29,0.05314
4019.51,0.05327
4013.72,0.05316
4007.93,0.05370
4002.15,0.05336
3996.36,0.05275
3990.57,0.05386
3984.79,0.05329
3979,0.05377
3973.22,0.05358
3967.43,0.05435
3961.64,0.05434
3955.86,0.05411
3950.07,0.05362
3944.28,0.05405
3938.5,0.05417
3932.71,0.05369
3926.93,0.05363
3921.14,0.05342
3915.35,0.05357
3909.57,0.05372
3903.78,0.05384
3897.99,0.05409
3892.21,0.05414
3886.42,0.05362
3880.64,0.05373
3874.85,0.05334
3869.06,0.05457
3863.28,0.05369
3857.49,0.05375
3851.7,0.05482
3845.92,0.05378
3840.13,0.05393
3834.35,0.05448
3828.56,0.05408
3822.77,0.05436
3816.99,0.05400
3811.2,0.05408
3805.41,0.05428
3799.63,0.05469
3793.84,0.05417
3788.06,0.05385
3782.27,0.05407
3776.48,0.05411
3770.7,0.05368
3764.91,0.05450
3759.12,0.05483
3753.34,0.05423
3747.55,0.05395
3741.77,0.05450
3735.98,0.05401
3730.19,0.05459
3724.41,0.05448
3718.62,0.05438
3712.83,0.05417
3707.05,0.05376
3701.26,0.05365
3695.48,0.05360
3689.69,0.05351
3683.9,0.05216
3678.12,0.05269
3672.33,0.05215
3666.54,0.05173
3660.76,0.05203
3654.97,0.05176
3649.19,0.05107
3643.4,0.05111
3637.61,0.05151
3631.83,0.05147
3626.04,0.05193
3620.25,0.05213
3614.47,0.05212
3608.68,0.05216
3602.9,0.05140
3597.11,0.05130
3591.32,0.05105
3585.54,0.05132
3579.75,0.05179
3573.97,0.05231
3568.18,0.05145
3562.39,0.05104
3556.61,0.05058
3550.82,0.05105
3545.03,0.05095
3539.25,0.05133
3533.46,0.05123
3527.68,0.05108
3521.89,0.05148
3516.1,0.05204
3510.32,0.05100
3504.53,0.05168
3498.74,0.05135
3492.96,0.05084
3487.17,0.05164
3481.39,0.05093
3475.6,0.05075
3469.81,0.05152
3464.03,0.05091
3458.24,0.05082
3452.45,0.05048
3446.67,0.05042
3440.88,0.05077
3435.1,0.05086
3429.31,0.05068
3423.52,0.05084
3417.74,0.05131
3411.95,0.05087
3406.16,0.05113
3400.38,0.05138
3394.59,0.05167
3388.81,0.05166
3383.02,0.05224
3377.23,0.05117
3371.45,0.05135
3365.66,0.05180
3359.87,0.05145
3354.09,0.05190
3348.3,0.05148
3342.52,0.05124
3336.73,0.05111
3330.94,0.05149
3325.16,0.05116
3319.37,0.05140
3313.58,0.05148
3307.8,0.05149
3302.01,0.05106
3296.23,0.05065
3290.44,0.05169
3284.65,0.05152
3278.87,0.05106
3273.08,0.05130
3267.29,0.05128
3261.51,0.05048
3255.72,0.05152
3249.94,0.05125
3244.15,0.05087
3238.36,0.05086
3232.58,0.05132
3226.79,0.05109
3221,0.05129
3215.22,0.05082
3209.43,0.05080
3203.65,0.05116
3197.86,0.05074
3192.07,0.05078
3186.29,0.05069
3180.5,0.05074
3174.71,0.05064
3168.93,0.05021
3163.14,0.05043
3157.36,0.05100
3151.57,0.05007
3145.78,0.05090
3140,0.05072
3134.21,0.04978
3128.42,0.05024
3122.64,0.05050
3116.85,0.04955
3111.07,0.05009
3105.28,0.04976
3099.49,0.04970
3093.71,0.04956
3087.92,0.04945
3082.14,0.04908
3076.35,0.05002
3070.56,0.04948
3064.78,0.04956
3058.99,0.04937
3053.2,0.04929
3047.42,0.04908
3041.63,0.04772
3035.85,0.04791
3030.06,0.04790
3024.27,0.04701
3018.49,0.04730
3012.7,0.04728
3006.91,0.04685
3001.13,0.04782
2995.34,0.04798
2989.56,0.04886
2983.77,0.04921
2977.98,0.04935
2972.2,0.04904
2966.41,0.04874
2960.62,0.04809
2954.84,0.04889
2949.05,0.05135
2943.27,0.05263
2937.48,0.05345
2931.69,0.05447
2925.91,0.05608
2920.12,0.05611
2914.33,0.05557
2908.55,0.05477
2902.76,0.05381
2896.98,0.05336
2891.19,0.05323
2885.4,0.05310
2879.62,0.05305
2873.83,0.05296
2868.04,0.05327
2862.26,0.05311
2856.47,0.05413
2850.69,0.05385
2844.9,0.05342
2839.11,0.05325
2833.33,0.05306
2827.54,0.05256
2821.75,0.05310
2815.97,0.05273
2810.18,0.05294
2804.4,0.05219
2798.61,0.05210
2792.82,0.05236
2787.04,0.05250
2781.25,0.05256
2775.46,0.05237
2769.68,0.05256
2763.89,0.05251
2758.11,0.05219
2752.32,0.05242
2746.53,0.05226
2740.75,0.05248
2734.96,0.05250
2729.17,0.05225
2723.39,0.05244
2717.6,0.05269
2711.82,0.05287
2706.03,0.05256
2700.24,0.05225
2694.46,0.05239
2688.67,0.05218
2682.88,0.05214
2677.1,0.05196
2671.31,0.05174
2665.53,0.05245
2659.74,0.05231
2653.95,0.05180
2648.17,0.05228
2642.38,0.05202
2636.59,0.05181
2630.81,0.05173
2625.02,0.05212
2619.24,0.05171
2613.45,0.05182
2607.66,0.05136
2601.88,0.05162
2596.09,0.05185
2590.3,0.05160
2584.52,0.05187
2578.73,0.05175
2572.95,0.05163
2567.16,0.05164
2561.37,0.05191
2555.59,0.05234
2549.8,0.05190
2544.02,0.05144
2538.23,0.05163
2532.44,0.05155
2526.66,0.05170
2520.87,0.05147
2515.08,0.05212
2509.3,0.05213
2503.51,0.05200
2497.73,0.05162
2491.94,0.05220
2486.15,0.05192
2480.37,0.05202
2474.58,0.05201
2468.79,0.05179
2463.01,0.05174
2457.22,0.05129
2451.44,0.05161
2445.65,0.05135
2439.86,0.05135
2434.08,0.05127
2428.29,0.05166
2422.5,0.05135
2416.72,0.05132
2410.93,0.05120
2405.15,0.05116
2399.36,0.05108
2393.57,0.05122
2387.79,0.05134
2382,0.05136
2376.21,0.05143
2370.43,0.05126
2364.64,0.05208
2358.86,0.05178
2353.07,0.05124
2347.28,0.05137
2341.5,0.05116
2335.71,0.05096
2329.92,0.05127
2324.14,0.05103
2318.35,0.05100
2312.57,0.05125
2306.78,0.05118
2300.99,0.05146
2295.21,0.05132
2289.42,0.05089
2283.63,0.05130
2277.85,0.05137
2272.06,0.05125
2266.28,0.05113
2260.49,0.05129
2254.7,0.05115
2248.92,0.05102
2243.13,0.05067
2237.34,0.05119
2231.56,0.05105
2225.77,0.05073
2219.99,0.05114
2214.2,0.05110
2208.41,0.05076
2202.63,0.05070
2196.84,0.05092
2191.05,0.05066
2185.27,0.05049
2179.48,0.05051
2173.7,0.05084
2167.91,0.05090
2162.12,0.05078
2156.34,0.05084
2150.55,0.05046
2144.76,0.05026
2138.98,0.05031
2133.19,0.05029
2127.41,0.05002
2121.62,0.05010
2115.83,0.05023
2110.05,0.04980
2104.26,0.05016
2098.47,0.04985
2092.69,0.04981
2086.9,0.04968
2081.12,0.04991
2075.33,0.05001
2069.54,0.04971
2063.76,0.04974
2057.97,0.04944
2052.19,0.04977
2046.4,0.04950
2040.61,0.04974
2034.83,0.04949
2029.04,0.04974
2023.25,0.04946
2017.47,0.04934
2011.68,0.04946
2005.9,0.04948
2000.11,0.04939
1994.32,0.04923
1988.54,0.04908
1982.75,0.04908
1976.96,0.04931
1971.18,0.04918
1965.39,0.04875
1959.61,0.04866
1953.82,0.04867
1948.03,0.04881
1942.25,0.04862
1936.46,0.04892
1930.67,0.04873
1924.89,0.04877
1919.1,0.04861
1913.32,0.04832
1907.53,0.04822
1901.74,0.04828
1895.96,0.04815
1890.17,0.04787
1884.38,0.04813
1878.6,0.04790
1872.81,0.04729
1867.03,0.04683
1861.24,0.04689
1855.45,0.04665
1849.67,0.04620
1843.88,0.04610
1838.09,0.04582
1832.31,0.04579
1826.52,0.04543
1820.74,0.04489
1814.95,0.04460
1809.16,0.04409
1803.38,0.04364
1797.59,0.04324
1791.8,0.04204
1786.02,0.04168
1780.23,0.04024
1774.45,0.03944
1768.66,0.03677
1762.87,0.03466
1757.09,0.03072
1751.3,0.02627
1745.51,0.02491
1739.73,0.03828
1733.94,0.05967
1728.16,0.08021
1722.37,0.08868
1716.58,0.08305
1710.8,0.07374
1705.01,0.06688
1699.22,0.06312
1693.44,0.05975
1687.65,0.05843
1681.87,0.05735
1676.08,0.05665
1670.29,0.05554
1664.51,0.05488
1658.72,0.05456
1652.93,0.05414
1647.15,0.05356
1641.36,0.05308
1635.58,0.05255
1629.79,0.05255
1624,0.05253
1618.22,0.05211
1612.43,0.05150
1606.64,0.05146
1600.86,0.05119
1595.07,0.05075
1589.29,0.05033
1583.5,0.04989
1577.71,0.04997
1571.93,0.04920
1566.14,0.04902
1560.35,0.04854
1554.57,0.04827
1548.78,0.04817
1543,0.04826
1537.21,0.04749
1531.42,0.04717
1525.64,0.04715
1519.85,0.04605
1514.07,0.04568
1508.28,0.04494
1502.49,0.04350
1496.71,0.04199
1490.92,0.04137
1485.13,0.04373
1479.35,0.04552
1473.56,0.04629
1467.78,0.04602
1461.99,0.04577
1456.2,0.04578
1450.42,0.04785
1444.63,0.05023
1438.84,0.05132
1433.06,0.05598
1427.27,0.05682
1421.49,0.05464
1415.7,0.05230
1409.91,0.05089
1404.13,0.04925
1398.34,0.04863
1392.55,0.04849
1386.77,0.04916
1380.98,0.05068
1375.2,0.05019
1369.41,0.04990
1363.62,0.04936
1357.84,0.04893
1352.05,0.04847
1346.26,0.04778
1340.48,0.04701
1334.69,0.04651
1328.91,0.04587
1323.12,0.04495
1317.33,0.04441
1311.55,0.04345
1305.76,0.04234
1299.97,0.04123
1294.19,0.03977
1288.4,0.03812
1282.62,0.03658
1276.83,0.03738
1271.04,0.04144
1265.26,0.04427
1259.47,0.04398
1253.68,0.04254
1247.9,0.04403
1242.11,0.04874
1236.33,0.05295
1230.54,0.05308
1224.75,0.05043
1218.97,0.04632
1213.18,0.04201
1207.39,0.03787
1201.61,0.03821
1195.82,0.04608
1190.04,0.05430
1184.25,0.05496
1178.46,0.05421
1172.68,0.05370
1166.89,0.05366
1161.1,0.05476
1155.32,0.06159
1149.53,0.08098
1143.75,0.09183
1137.96,0.09182
1132.17,0.08758
1126.39,0.08229
1120.6,0.07956
1114.81,0.07696
1109.03,0.07448
1103.24,0.07205
1097.46,0.07024
1091.67,0.06871
1085.88,0.06726
1080.1,0.06607
1074.31,0.06529
1068.52,0.06524
1062.74,0.06501
1056.95,0.06682
1051.17,0.06605
1045.38,0.06434
1039.59,0.06352
1033.81,0.06235
1028.02,0.06114
1022.24,0.06046
1016.45,0.05992
1010.66,0.05698
1004.88,0.05462
999.09,0.05434
993.304,0.05669
987.518,0.05927
981.731,0.06109
975.945,0.06100
970.159,0.06105
964.373,0.06253
958.586,0.06344
952.8,0.06352
947.014,0.06308
941.228,0.06218
935.441,0.06179
929.655,0.06127
923.869,0.06068
918.083,0.06074
912.297,0.06083
906.51,0.06100
900.724,0.06105
894.938,0.06055
889.152,0.05984
883.365,0.05868
877.579,0.05849
871.793,0.05868
866.007,0.05787
860.22,0.05717
854.434,0.05737
848.648,0.05689
842.862,0.05870
837.075,0.06030
831.289,0.06060
825.503,0.06000
819.717,0.06021
813.931,0.05887
808.144,0.05985
802.358,0.06035
796.572,0.05963
790.786,0.05851
784.999,0.05872
779.213,0.05772
773.427,0.05716
767.641,0.05575
761.854,0.05569
756.068,0.05607
750.282,0.06029
744.496,0.06380
738.709,0.06218
732.923,0.06059
727.137,0.06095
721.351,0.05969
715.565,0.05918
709.778,0.05851
703.992,0.05839
698.206,0.05790
692.42,0.05843
686.633,0.05657
680.847,0.05800
675.061,0.05678
669.275,0.05664
663.488,0.05698
657.702,0.05629
651.916,0.05561
646.13,0.05415
640.343,0.05548
634.557,0.05442
628.771,0.05557
622.985,0.05680
617.198,0.05646
611.412,0.05278
605.626,0.05603
599.84,0.05306