File: 01_Data/Polyolefin_Carpet_Low_Pile/FTIR/IS/Polyolefin_Carpet_Low_Pile_IS_T_220819_R1.dpt
7497.03,0.02199
7491.25,0.02352
7485.46,0.02582
7479.67,0.00498
7473.89,0.01128
7468.1,0.02193
7462.32,0.02422
7456.53,0.02487
7450.74,0.02094
7444.96,0.02358
7439.17,0.02700
7433.38,0.01874
7427.6,0.01997
7421.81,0.01907
7416.03,0.02422
7410.24,0.01688
7404.45,0.02193
7398.67,0.02282
7392.88,0.02988
7387.09,0.02534
7381.31,0.02479
7375.52,0.02369
7369.74,0.02139
7363.95,0.02620
7358.16,0.01642
7352.38,0.02358
7346.59,0.02447
7340.8,0.01606
7335.02,0.01672
7329.23,0.01908
7323.45,0.02339
7317.66,0.02070
7311.87,0.02429
7306.09,0.02306
7300.3,0.01663
7294.51,0.02787
7288.73,0.01785
7282.94,0.02836
7277.16,0.02092
7271.37,0.01772
7265.58,0.01536
7259.8,0.01561
7254.01,0.02675
7248.22,0.02224
7242.44,0.01925
7236.65,0.02933
7230.87,0.03207
7225.08,0.02661
7219.29,0.01429
7213.51,0.02395
7207.72,0.02501
7201.93,0.02035
7196.15,0.02121
7190.36,0.02054
7184.58,0.01974
7178.79,0.02401
7173,0.01514
7167.22,0.01953
7161.43,0.01637
7155.65,0.02145
7149.86,0.02289
7144.07,0.02098
7138.29,0.02170
7132.5,0.02265
7126.71,0.02122
7120.93,0.01739
7115.14,0.01954
7109.36,0.02333
7103.57,0.02671
7097.78,0.02069
7092,0.01979
7086.21,0.02148
7080.42,0.02422
7074.64,0.02113
7068.85,0.01924
7063.07,0.02275
7057.28,0.02125
7051.49,0.01669
7045.71,0.02203
7039.92,0.02304
7034.13,0.02100
7028.35,0.02106
7022.56,0.01505
7016.78,0.02282
7010.99,0.02476
7005.2,0.02062
6999.42,0.02110
6993.63,0.01269
6987.84,0.01714
6982.06,0.02129
6976.27,0.02021
6970.49,0.02564
6964.7,0.02198
6958.91,0.02317
6953.13,0.02260
6947.34,0.02481
6941.55,0.01664
6935.77,0.02272
6929.98,0.01850
6924.2,0.02030
6918.41,0.02019
6912.62,0.01724
6906.84,0.02114
6901.05,0.02153
6895.26,0.01897
6889.48,0.01595
6883.69,0.02026
6877.91,0.01665
6872.12,0.02352
6866.33,0.02015
6860.55,0.01881
6854.76,0.02308
6848.97,0.02143
6843.19,0.03005
6837.4,0.02891
6831.62,0.01910
6825.83,0.02168
6820.04,0.02316
6814.26,0.01631
6808.47,0.01619
6802.68,0.01581
6796.9,0.02069
6791.11,0.02246
6785.33,0.02072
6779.54,0.02374
6773.75,0.01832
6767.97,0.01522
6762.18,0.02062
6756.39,0.01978
6750.61,0.01853
6744.82,0.01889
6739.04,0.02240
6733.25,0.01683
6727.46,0.02089
6721.68,0.02050
6715.89,0.01828
6710.1,0.01231
6704.32,0.02319
6698.53,0.01835
6692.75,0.01861
6686.96,0.01845
6681.17,0.02088
6675.39,0.01999
6669.6,0.02006
6663.82,0.01675
6658.03,0.01958
6652.24,0.02080
6646.46,0.01994
6640.67,0.02143
6634.88,0.02194
6629.1,0.02113
6623.31,0.01965
6617.53,0.02014
6611.74,0.02460
6605.95,0.02012
6600.17,0.02122
6594.38,0.02031
6588.59,0.01850
6582.81,0.02034
6577.02,0.02745
6571.24,0.01994
6565.45,0.02099
6559.66,0.02114
6553.88,0.02010
6548.09,0.02087
6542.3,0.02093
6536.52,0.02496
6530.73,0.02046
6524.95,0.02216
6519.16,0.02040
6513.37,0.02244
6507.59,0.01734
6501.8,0.02647
6496.01,0.02071
6490.23,0.02032
6484.44,0.02224
6478.66,0.02266
6472.87,0.01942
6467.08,0.01596
6461.3,0.01873
6455.51,0.01995
6449.72,0.01640
6443.94,0.02244
6438.15,0.01545
6432.37,0.01626
6426.58,0.02005
6420.79,0.02074
6415.01,0.01889
6409.22,0.02135
6403.43,0.02170
6397.65,0.01995
6391.86,0.02189
6386.08,0.02212
6380.29,0.01749
6374.5,0.01737
6368.72,0.01940
6362.93,0.01693
6357.14,0.02160
6351.36,0.01678
6345.57,0.01868
6339.79,0.01817
6334,0.02062
6328.21,0.01883
6322.43,0.01712
6316.64,0.02057
6310.85,0.01926
6305.07,0.02069
6299.28,0.01857
6293.5,0.01899
6287.71,0.01628
6281.92,0.01709
6276.14,0.01877
6270.35,0.01718
6264.56,0.01847
6258.78,0.02049
6252.99,0.02208
6247.21,0.02244
6241.42,0.02073
6235.63,0.02054
6229.85,0.01911
6224.06,0.01871
6218.27,0.01643
6212.49,0.01694
6206.7,0.02086
6200.92,0.02033
6195.13,0.01666
6189.34,0.02423
6183.56,0.02101
6177.77,0.01817
6171.98,0.02072
6166.2,0.02080
6160.41,0.01943
6154.63,0.01909
6148.84,0.01919
6143.05,0.01965
6137.27,0.01813
6131.48,0.01921
6125.7,0.02018
6119.91,0.01962
6114.12,0.01752
6108.34,0.01735
6102.55,0.01753
6096.76,0.02017
6090.98,0.02112
6085.19,0.02324
6079.41,0.02082
6073.62,0.02050
6067.83,0.01966
6062.05,0.01990
6056.26,0.01716
6050.47,0.01792
6044.69,0.01976
6038.9,0.01796
6033.12,0.01856
6027.33,0.02057
6021.54,0.01941
6015.76,0.02153
6009.97,0.01818
6004.18,0.02028
5998.4,0.01847
5992.61,0.02002
5986.83,0.01980
5981.04,0.01565
5975.25,0.01746
5969.47,0.02065
5963.68,0.02023
5957.89,0.01872
5952.11,0.02105
5946.32,0.01612
5940.54,0.01677
5934.75,0.02032
5928.96,0.01928
5923.18,0.01928
5917.39,0.02044
5911.6,0.02084
5905.82,0.01986
5900.03,0.01943
5894.25,0.01966
5888.46,0.01930
5882.67,0.01927
5876.89,0.01987
5871.1,0.01908
5865.31,0.01817
5859.53,0.01766
5853.74,0.01773
5847.96,0.01986
5842.17,0.01898
5836.38,0.01804
5830.6,0.01665
5824.81,0.01963
5819.02,0.01780
5813.24,0.02154
5807.45,0.01940
5801.67,0.01966
5795.88,0.01919
5790.09,0.01775
5784.31,0.01976
5778.52,0.01875
5772.73,0.01950
5766.95,0.01865
5761.16,0.01983
5755.38,0.02013
5749.59,0.02114
5743.8,0.01927
5738.02,0.01889
5732.23,0.01888
5726.44,0.01916
5720.66,0.01927
5714.87,0.01834
5709.09,0.01767
5703.3,0.01945
5697.51,0.02083
5691.73,0.01964
5685.94,0.01971
5680.15,0.01917
5674.37,0.01835
5668.58,0.02078
5662.8,0.02208
5657.01,0.02179
5651.22,0.01938
5645.44,0.01888
5639.65,0.01995
5633.87,0.01950
5628.08,0.01836
5622.29,0.01726
5616.51,0.02041
5610.72,0.01953
5604.93,0.01700
5599.15,0.01992
5593.36,0.02125
5587.58,0.02075
5581.79,0.01955
5576,0.01959
5570.22,0.01878
5564.43,0.01953
5558.64,0.01852
5552.86,0.01910
5547.07,0.01822
5541.29,0.01949
5535.5,0.02013
5529.71,0.01865
5523.93,0.02052
5518.14,0.02080
5512.35,0.02205
5506.57,0.01889
5500.78,0.01938
5495,0.01936
5489.21,0.01952
5483.42,0.01927
5477.64,0.01933
5471.85,0.02010
5466.06,0.01841
5460.28,0.01893
5454.49,0.01900
5448.71,0.01940
5442.92,0.01891
5437.13,0.01831
5431.35,0.01930
5425.56,0.01975
5419.77,0.01957
5413.99,0.02071
5408.2,0.02224
5402.42,0.02055
5396.63,0.01864
5390.84,0.01836
5385.06,0.01945
5379.27,0.01980
5373.48,0.01870
5367.7,0.01965
5361.91,0.02068
5356.13,0.01944
5350.34,0.01741
5344.55,0.01968
5338.77,0.02071
5332.98,0.02039
5327.19,0.01967
5321.41,0.01863
5315.62,0.01824
5309.84,0.01958
5304.05,0.01857
5298.26,0.01975
5292.48,0.01989
5286.69,0.02078
5280.9,0.01947
5275.12,0.01899
5269.33,0.01929
5263.55,0.01876
5257.76,0.01890
5251.97,0.02037
5246.19,0.02022
5240.4,0.02006
5234.61,0.02057
5228.83,0.01967
5223.04,0.01968
5217.26,0.01881
5211.47,0.01885
5205.68,0.02003
5199.9,0.02010
5194.11,0.01956
5188.32,0.01733
5182.54,0.02014
5176.75,0.01917
5170.97,0.02014
5165.18,0.01898
5159.39,0.02107
5153.61,0.02039
5147.82,0.01961
5142.03,0.01864
5136.25,0.01987
5130.46,0.02046
5124.68,0.02098
5118.89,0.01944
5113.1,0.02048
5107.32,0.01982
5101.53,0.02041
5095.75,0.01958
5089.96,0.02099
5084.17,0.02032
5078.39,0.02002
5072.6,0.01889
5066.81,0.02002
5061.03,0.02025
5055.24,0.01921
5049.46,0.02030
5043.67,0.02111
5037.88,0.02100
5032.1,0.01953
5026.31,0.02062
5020.52,0.01964
5014.74,0.01877
5008.95,0.02036
5003.17,0.02124
4997.38,0.02005
4991.59,0.01897
4985.81,0.01855
4980.02,0.02022
4974.23,0.01880
4968.45,0.01900
4962.66,0.01955
4956.88,0.02065
4951.09,0.01991
4945.3,0.01878
4939.52,0.01842
4933.73,0.02020
4927.94,0.01968
4922.16,0.01985
4916.37,0.02007
4910.59,0.01956
4904.8,0.02011
4899.01,0.01915
4893.23,0.01976
4887.44,0.02064
4881.65,0.01914
4875.87,0.01920
4870.08,0.02013
4864.3,0.01997
4858.51,0.01893
4852.72,0.01958
4846.94,0.02016
4841.15,0.01991
4835.36,0.02011
4829.58,0.01980
4823.79,0.02005
4818.01,0.02070
4812.22,0.01854
4806.43,0.02028
4800.65,0.02080
4794.86,0.02008
4789.07,0.01994
4783.29,0.02028
4777.5,0.02037
4771.72,0.02047
4765.93,0.01991
4760.14,0.01983
4754.36,0.01994
4748.57,0.01981
4742.78,0.01941
4737,0.01957
4731.21,0.02000
4725.43,0.01915
4719.64,0.02011
4713.85,0.01890
4708.07,0.01989
4702.28,0.01994
4696.49,0.02018
4690.71,0.01989
4684.92,0.02012
4679.14,0.02039
4673.35,0.01988
4667.56,0.01965
4661.78,0.01950
4655.99,0.01883
4650.2,0.01936
4644.42,0.01999
4638.63,0.01967
4632.85,0.01922
4627.06,0.02053
4621.27,0.02037
4615.49,0.02014
4609.7,0.02043
4603.92,0.02021
4598.13,0.01904
4592.34,0.01950
4586.56,0.01954
4580.77,0.01977
4574.98,0.02036
4569.2,0.02021
4563.41,0.02066
4557.63,0.01839
4551.84,0.01978
4546.05,0.02024
4540.27,0.01985
4534.48,0.01970
4528.69,0.01935
4522.91,0.02011
4517.12,0.01916
4511.34,0.01978
4505.55,0.02004
4499.76,0.02083
4493.98,0.01887
4488.19,0.01898
4482.4,0.02019
4476.62,0.02015
4470.83,0.02049
4465.05,0.02009
4459.26,0.01961
4453.47,0.01962
4447.69,0.01953
4441.9,0.01906
4436.11,0.01916
4430.33,0.02040
4424.54,0.02002
4418.76,0.02024
4412.97,0.01964
4407.18,0.01998
4401.4,0.02029
4395.61,0.01935
4389.82,0.02041
4384.04,0.02026
4378.25,0.01968
4372.47,0.02015
4366.68,0.01988
4360.89,0.02054
4355.11,0.02117
4349.32,0.02019
4343.53,0.02007
4337.75,0.01975
4331.96,0.01966
4326.18,0.02065
4320.39,0.02029
4314.6,0.02006
4308.82,0.01932
4303.03,0.02036
4297.24,0.02013
4291.46,0.02024
4285.67,0.01983
4279.89,0.01990
4274.1,0.02016
4268.31,0.01959
4262.53,0.01980
4256.74,0.01940
4250.95,0.01998
4245.17,0.02022
4239.38,0.01953
4233.6,0.02057
4227.81,0.02050
4222.02,0.01990
4216.24,0.02049
4210.45,0.02044
4204.66,0.01923
4198.88,0.02004
4193.09,0.01942
4187.31,0.01967
4181.52,0.01961
4175.73,0.02037
4169.95,0.02013
4164.16,0.01990
4158.37,0.01998
4152.59,0.02040
4146.8,0.02020
4141.02,0.02008
4135.23,0.01979
4129.44,0.02037
4123.66,0.02074
4117.87,0.02024
4112.09,0.02019
4106.3,0.01978
4100.51,0.02012
4094.73,0.02049
4088.94,0.02007
4083.15,0.02002
4077.37,0.02010
4071.58,0.01997
4065.8,0.01975
4060.01,0.01968
4054.22,0.01991
4048.44,0.01973
4042.65,0.02031
4036.86,0.02018
4031.08,0.02009
4025.29,0.01997
4019.51,0.02007
4013.72,0.02014
4007.93,0.01987
4002.15,0.01971
3996.36,0.01971
3990.57,0.01971
3984.79,0.01992
3979,0.01992
3973.22,0.02027
3967.43,0.02032
3961.64,0.02004
3955.86,0.01996
3950.07,0.01945
3944.28,0.01985
3938.5,0.01969
3932.71,0.01984
3926.93,0.02032
3921.14,0.02037
3915.35,0.02016
3909.57,0.02001
3903.78,0.02017
3897.99,0.02016
3892.21,0.01965
3886.42,0.02004
3880.64,0.02021
3874.85,0.01944
3869.06,0.01998
3863.28,0.02057
3857.49,0.01961
3851.7,0.01987
3845.92,0.02016
3840.13,0.02035
3834.35,0.01989
3828.56,0.01931
3822.77,0.01976
3816.99,0.02030
3811.2,0.01997
3805.41,0.01975
3799.63,0.02020
3793.84,0.02028
3788.06,0.02005
3782.27,0.02048
3776.48,0.01983
3770.7,0.02007
3764.91,0.01981
3759.12,0.02057
3753.34,0.02056
3747.55,0.02056
3741.77,0.02032
3735.98,0.01923
3730.19,0.01944
3724.41,0.01964
3718.62,0.01969
3712.83,0.01941
3707.05,0.01955
3701.26,0.01912
3695.48,0.01893
3689.69,0.01929
3683.9,0.01972
3678.12,0.01986
3672.33,0.01961
3666.54,0.01908
3660.76,0.01942
3654.97,0.01975
3649.19,0.01960
3643.4,0.01918
3637.61,0.01924
3631.83,0.01871
3626.04,0.01965
3620.25,0.01928
3614.47,0.01958
3608.68,0.01932
3602.9,0.01885
3597.11,0.01878
3591.32,0.01938
3585.54,0.01888
3579.75,0.01872
3573.97,0.01866
3568.18,0.01895
3562.39,0.01789
3556.61,0.01934
3550.82,0.01833
3545.03,0.01810
3539.25,0.01810
3533.46,0.01794
3527.68,0.01875
3521.89,0.01846
3516.1,0.01843
3510.32,0.01857
3504.53,0.01822
3498.74,0.01779
3492.96,0.01822
3487.17,0.01818
3481.39,0.01802
3475.6,0.01832
3469.81,0.01872
3464.03,0.01801
3458.24,0.01727
3452.45,0.01860
3446.67,0.01811
3440.88,0.01790
3435.1,0.01813
3429.31,0.01832
3423.52,0.01757
3417.74,0.01719
3411.95,0.01808
3406.16,0.01842
3400.38,0.01715
3394.59,0.01731
3388.81,0.01723
3383.02,0.01716
3377.23,0.01770
3371.45,0.01745
3365.66,0.01731
3359.87,0.01793
3354.09,0.01733
3348.3,0.01728
3342.52,0.01652
3336.73,0.01757
3330.94,0.01755
3325.16,0.01719
3319.37,0.01765
3313.58,0.01768
3307.8,0.01716
3302.01,0.01778
3296.23,0.01647
3290.44,0.01730
3284.65,0.01756
3278.87,0.01718
3273.08,0.01783
3267.29,0.01759
3261.51,0.01664
3255.72,0.01831
3249.94,0.01805
3244.15,0.01863
3238.36,0.01783
3232.58,0.01701
3226.79,0.01781
3221,0.01768
3215.22,0.01778
3209.43,0.01804
3203.65,0.01850
3197.86,0.01781
3192.07,0.01842
3186.29,0.01817
3180.5,0.01792
3174.71,0.01885
3168.93,0.01823
3163.14,0.01793
3157.36,0.01799
3151.57,0.01848
3145.78,0.01901
3140,0.01766
3134.21,0.01789
3128.42,0.01859
3122.64,0.01853
3116.85,0.01764
3111.07,0.01810
3105.28,0.01838
3099.49,0.01775
3093.71,0.01782
3087.92,0.01806
3082.14,0.01792
3076.35,0.01808
3070.56,0.01780
3064.78,0.01771
3058.99,0.01772
3053.2,0.01777
3047.42,0.01815
3041.63,0.01791
3035.85,0.01755
3030.06,0.01817
3024.27,0.01787
3018.49,0.01781
3012.7,0.01761
3006.91,0.01832
3001.13,0.01759
2995.34,0.01736
2989.56,0.01746
2983.77,0.01695
2977.98,0.01718
2972.2,0.01663
2966.41,0.01708
2960.62,0.01712
2954.84,0.01709
2949.05,0.01694
2943.27,0.01672
2937.48,0.01661
2931.69,0.01694
2925.91,0.01668
2920.12,0.01756
2914.33,0.01752
2908.55,0.01751
2902.76,0.01743
2896.98,0.01820
2891.19,0.01785
2885.4,0.01749
2879.62,0.01789
2873.83,0.01765
2868.04,0.01797
2862.26,0.01751
2856.47,0.01799
2850.69,0.01807
2844.9,0.01834
2839.11,0.01836
2833.33,0.01865
2827.54,0.01828
2821.75,0.01875
2815.97,0.01872
2810.18,0.01851
2804.4,0.01852
2798.61,0.01866
2792.82,0.01907
2787.04,0.01849
2781.25,0.01855
2775.46,0.01897
2769.68,0.01863
2763.89,0.01885
2758.11,0.01880
2752.32,0.01842
2746.53,0.01830
2740.75,0.01846
2734.96,0.01810
2729.17,0.01840
2723.39,0.01838
2717.6,0.01836
2711.82,0.01824
2706.03,0.01904
2700.24,0.01882
2694.46,0.01878
2688.67,0.01875
2682.88,0.01844
2677.1,0.01850
2671.31,0.01851
2665.53,0.01849
2659.74,0.01856
2653.95,0.01871
2648.17,0.01864
2642.38,0.01880
2636.59,0.01828
2630.81,0.01906
2625.02,0.01882
2619.24,0.01856
2613.45,0.01898
2607.66,0.01851
2601.88,0.01847
2596.09,0.01855
2590.3,0.01848
2584.52,0.01863
2578.73,0.01876
2572.95,0.01896
2567.16,0.01874
2561.37,0.01888
2555.59,0.01851
2549.8,0.01857
2544.02,0.01841
2538.23,0.01873
2532.44,0.01850
2526.66,0.01864
2520.87,0.01798
2515.08,0.01829
2509.3,0.01821
2503.51,0.01841
2497.73,0.01853
2491.94,0.01835
2486.15,0.01847
2480.37,0.01858
2474.58,0.01909
2468.79,0.01828
2463.01,0.01883
2457.22,0.01861
2451.44,0.01837
2445.65,0.01847
2439.86,0.01857
2434.08,0.01858
2428.29,0.01831
2422.5,0.01859
2416.72,0.01891
2410.93,0.01881
2405.15,0.01849
2399.36,0.01849
2393.57,0.01847
2387.79,0.01866
2382,0.01870
2376.21,0.01887
2370.43,0.01852
2364.64,0.01856
2358.86,0.01874
2353.07,0.01866
2347.28,0.01837
2341.5,0.01834
2335.71,0.01864
2329.92,0.01867
2324.14,0.01861
2318.35,0.01834
2312.57,0.01866
2306.78,0.01860
2300.99,0.01864
2295.21,0.01837
2289.42,0.01836
2283.63,0.01841
2277.85,0.01839
2272.06,0.01840
2266.28,0.01856
2260.49,0.01829
2254.7,0.01829
2248.92,0.01851
2243.13,0.01845
2237.34,0.01827
2231.56,0.01789
2225.77,0.01816
2219.99,0.01834
2214.2,0.01882
2208.41,0.01811
2202.63,0.01829
2196.84,0.01828
2191.05,0.01843
2185.27,0.01853
2179.48,0.01851
2173.7,0.01833
2167.91,0.01834
2162.12,0.01846
2156.34,0.01806
2150.55,0.01815
2144.76,0.01829
2138.98,0.01842
2133.19,0.01799
2127.41,0.01828
2121.62,0.01863
2115.83,0.01824
2110.05,0.01818
2104.26,0.01832
2098.47,0.01812
2092.69,0.01825
2086.9,0.01832
2081.12,0.01875
2075.33,0.01852
2069.54,0.01814
2063.76,0.01846
2057.97,0.01838
2052.19,0.01813
2046.4,0.01810
2040.61,0.01790
2034.83,0.01808
2029.04,0.01776
2023.25,0.01820
2017.47,0.01836
2011.68,0.01802
2005.9,0.01795
2000.11,0.01803
1994.32,0.01803
1988.54,0.01832
1982.75,0.01847
1976.96,0.01837
1971.18,0.01849
1965.39,0.01823
1959.61,0.01825
1953.82,0.01799
1948.03,0.01793
1942.25,0.01801
1936.46,0.01771
1930.67,0.01809
1924.89,0.01822
1919.1,0.01805
1913.32,0.01792
1907.53,0.01743
1901.74,0.01771
1895.96,0.01790
1890.17,0.01769
1884.38,0.01786
1878.6,0.01793
1872.81,0.01778
1867.03,0.01776
1861.24,0.01759
1855.45,0.01757
1849.67,0.01764
1843.88,0.01778
1838.09,0.01748
1832.31,0.01736
1826.52,0.01725
1820.74,0.01751
1814.95,0.01715
1809.16,0.01709
1803.38,0.01708
1797.59,0.01683
1791.8,0.01632
1786.02,0.01668
1780.23,0.01611
1774.45,0.01647
1768.66,0.01580
1762.87,0.01556
1757.09,0.01481
1751.3,0.01456
1745.51,0.01496
1739.73,0.01603
1733.94,0.01682
1728.16,0.01789
1722.37,0.01824
1716.58,0.01835
1710.8,0.01820
1705.01,0.01794
1699.22,0.01713
1693.44,0.01671
1687.65,0.01648
1681.87,0.01639
1676.08,0.01608
1670.29,0.01607
1664.51,0.01575
1658.72,0.01590
1652.93,0.01572
1647.15,0.01582
1641.36,0.01608
1635.58,0.01615
1629.79,0.01614
1624,0.01612
1618.22,0.01605
1612.43,0.01601
1606.64,0.01661
1600.86,0.01613
1595.07,0.01615
1589.29,0.01584
1583.5,0.01607
1577.71,0.01563
1571.93,0.01563
1566.14,0.01535
1560.35,0.01555
1554.57,0.01544
1548.78,0.01537
1543,0.01567
1537.21,0.01552
1531.42,0.01540
1525.64,0.01544
1519.85,0.01550
1514.07,0.01577
1508.28,0.01619
1502.49,0.01623
1496.71,0.01593
1490.92,0.01587
1485.13,0.01609
1479.35,0.01539
1473.56,0.01566
1467.78,0.01573
1461.99,0.01579
1456.2,0.01611
1450.42,0.01568
1444.63,0.01579
1438.84,0.01587
1433.06,0.01568
1427.27,0.01574
1421.49,0.01587
1415.7,0.01574
1409.91,0.01564
1404.13,0.01542
1398.34,0.01518
1392.55,0.01530
1386.77,0.01519
1380.98,0.01556
1375.2,0.01558
1369.41,0.01508
1363.62,0.01563
1357.84,0.01539
1352.05,0.01513
1346.26,0.01516
1340.48,0.01513
1334.69,0.01459
1328.91,0.01490
1323.12,0.01460
1317.33,0.01432
1311.55,0.01372
1305.76,0.01396
1299.97,0.01466
1294.19,0.01530
1288.4,0.01543
1282.62,0.01560
1276.83,0.01616
1271.04,0.01662
1265.26,0.01719
1259.47,0.01709
1253.68,0.01725
1247.9,0.01743
1242.11,0.01730
1236.33,0.01662
1230.54,0.01655
1224.75,0.01675
1218.97,0.01642
1213.18,0.01611
1207.39,0.01569
1201.61,0.01560
1195.82,0.01529
1190.04,0.01537
1184.25,0.01549
1178.46,0.01548
1172.68,0.01495
1166.89,0.01522
1161.1,0.01465
1155.32,0.01473
1149.53,0.01446
1143.75,0.01462
1137.96,0.01497
1132.17,0.01522
1126.39,0.01574
1120.6,0.01630
1114.81,0.01612
1109.03,0.01659
1103.24,0.01595
1097.46,0.01550
1091.67,0.01488
1085.88,0.01522
1080.1,0.01604
1074.31,0.01614
1068.52,0.01693
1062.74,0.01709
1056.95,0.01685
1051.17,0.01718
1045.38,0.01739
1039.59,0.01649
1033.81,0.01609
1028.02,0.01610
1022.24,0.01672
1016.45,0.01666
1010.66,0.01735
1004.88,0.01834
999.09,0.01847
993.304,0.01840
987.518,0.01838
981.731,0.01759
975.945,0.01730
970.159,0.01727
964.373,0.01785
958.586,0.01709
952.8,0.01726
947.014,0.01680
941.228,0.01676
935.441,0.01598
929.655,0.01637
923.869,0.01599
918.083,0.01652
912.297,0.01667
906.51,0.01617
900.724,0.01616
894.938,0.01690
889.152,0.01624
883.365,0.01677
877.579,0.01609
871.793,0.01607
866.007,0.01609
860.22,0.01618
854.434,0.01588
848.648,0.01608
842.862,0.01600
837.075,0.01610
831.289,0.01580
825.503,0.01681
819.717,0.01584
813.931,0.01625
808.144,0.01584
802.358,0.01580
796.572,0.01584
790.786,0.01584
784.999,0.01567
779.213,0.01667
773.427,0.01593
767.641,0.01589
761.854,0.01522
756.068,0.01484
750.282,0.01555
744.496,0.01520
738.709,0.01582
732.923,0.01630
727.137,0.01552
721.351,0.01499
715.565,0.01515
709.778,0.01519
703.992,0.01535
698.206,0.01418
692.42,0.01621
686.633,0.01558
680.847,0.01475
675.061,0.01417
669.275,0.01402
663.488,0.01312
657.702,0.01435
651.916,0.01346
646.13,0.01242
640.343,0.01355
634.557,0.01315
628.771,0.01500
622.985,0.01254
617.198,0.01297
611.412,0.01424
605.626,0.01310
599.84,0.01458