File: 01_Data/Polyolefin_Carpet_Low_Pile/FTIR/IS/Polyolefin_Carpet_Low_Pile_IS_S_220819_R6.dpt
7497.03,0.11084
7491.25,0.11846
7485.46,0.11582
7479.67,0.12377
7473.89,0.12339
7468.1,0.11530
7462.32,0.11936
7456.53,0.11947
7450.74,0.11661
7444.96,0.11948
7439.17,0.12870
7433.38,0.11459
7427.6,0.11801
7421.81,0.11788
7416.03,0.11858
7410.24,0.12244
7404.45,0.11827
7398.67,0.11401
7392.88,0.11910
7387.09,0.11676
7381.31,0.11460
7375.52,0.11891
7369.74,0.11571
7363.95,0.11735
7358.16,0.11456
7352.38,0.11895
7346.59,0.11759
7340.8,0.11919
7335.02,0.11558
7329.23,0.11623
7323.45,0.11733
7317.66,0.11304
7311.87,0.11532
7306.09,0.12140
7300.3,0.11389
7294.51,0.11732
7288.73,0.11541
7282.94,0.11991
7277.16,0.11894
7271.37,0.11202
7265.58,0.12355
7259.8,0.11439
7254.01,0.11843
7248.22,0.11761
7242.44,0.11860
7236.65,0.11866
7230.87,0.11460
7225.08,0.10981
7219.29,0.11265
7213.51,0.11643
7207.72,0.11572
7201.93,0.11450
7196.15,0.11969
7190.36,0.11725
7184.58,0.11618
7178.79,0.11695
7173,0.11704
7167.22,0.11286
7161.43,0.11674
7155.65,0.11824
7149.86,0.11927
7144.07,0.12407
7138.29,0.11322
7132.5,0.11429
7126.71,0.11345
7120.93,0.11826
7115.14,0.11523
7109.36,0.11723
7103.57,0.11891
7097.78,0.12071
7092,0.11786
7086.21,0.11988
7080.42,0.11673
7074.64,0.11342
7068.85,0.11410
7063.07,0.11569
7057.28,0.11513
7051.49,0.11284
7045.71,0.11424
7039.92,0.11769
7034.13,0.11332
7028.35,0.11738
7022.56,0.11930
7016.78,0.11624
7010.99,0.11903
7005.2,0.11078
6999.42,0.11511
6993.63,0.11638
6987.84,0.11636
6982.06,0.11389
6976.27,0.11996
6970.49,0.11942
6964.7,0.12143
6958.91,0.11118
6953.13,0.11100
6947.34,0.11456
6941.55,0.12107
6935.77,0.12059
6929.98,0.11404
6924.2,0.11481
6918.41,0.11490
6912.62,0.11777
6906.84,0.11852
6901.05,0.11612
6895.26,0.11740
6889.48,0.12033
6883.69,0.11727
6877.91,0.12013
6872.12,0.11786
6866.33,0.11961
6860.55,0.11364
6854.76,0.11736
6848.97,0.11769
6843.19,0.11721
6837.4,0.11541
6831.62,0.11814
6825.83,0.11891
6820.04,0.11510
6814.26,0.11885
6808.47,0.12216
6802.68,0.11997
6796.9,0.11683
6791.11,0.11673
6785.33,0.11829
6779.54,0.12123
6773.75,0.11967
6767.97,0.11961
6762.18,0.11570
6756.39,0.11639
6750.61,0.11613
6744.82,0.11580
6739.04,0.11689
6733.25,0.12040
6727.46,0.11822
6721.68,0.11625
6715.89,0.11726
6710.1,0.11525
6704.32,0.12098
6698.53,0.11505
6692.75,0.12255
6686.96,0.11819
6681.17,0.12110
6675.39,0.11973
6669.6,0.12143
6663.82,0.12205
6658.03,0.12240
6652.24,0.11803
6646.46,0.11878
6640.67,0.11768
6634.88,0.11734
6629.1,0.11684
6623.31,0.11237
6617.53,0.11696
6611.74,0.11714
6605.95,0.11735
6600.17,0.12149
6594.38,0.12079
6588.59,0.11416
6582.81,0.11625
6577.02,0.12029
6571.24,0.11527
6565.45,0.11828
6559.66,0.12012
6553.88,0.11609
6548.09,0.11996
6542.3,0.11713
6536.52,0.11812
6530.73,0.12112
6524.95,0.11782
6519.16,0.11775
6513.37,0.12203
6507.59,0.12425
6501.8,0.11750
6496.01,0.11826
6490.23,0.12230
6484.44,0.12101
6478.66,0.11731
6472.87,0.11723
6467.08,0.11377
6461.3,0.12022
6455.51,0.12150
6449.72,0.12263
6443.94,0.11781
6438.15,0.11980
6432.37,0.11791
6426.58,0.12147
6420.79,0.11730
6415.01,0.11864
6409.22,0.11795
6403.43,0.12076
6397.65,0.11752
6391.86,0.11710
6386.08,0.11761
6380.29,0.12210
6374.5,0.12143
6368.72,0.11892
6362.93,0.11592
6357.14,0.11705
6351.36,0.11794
6345.57,0.11833
6339.79,0.11845
6334,0.11673
6328.21,0.11820
6322.43,0.12033
6316.64,0.11890
6310.85,0.12098
6305.07,0.11874
6299.28,0.12243
6293.5,0.12126
6287.71,0.11932
6281.92,0.11946
6276.14,0.11686
6270.35,0.11648
6264.56,0.11839
6258.78,0.11770
6252.99,0.11862
6247.21,0.12073
6241.42,0.11751
6235.63,0.11685
6229.85,0.11644
6224.06,0.12004
6218.27,0.11896
6212.49,0.11915
6206.7,0.11886
6200.92,0.11948
6195.13,0.11877
6189.34,0.11957
6183.56,0.11849
6177.77,0.11937
6171.98,0.11788
6166.2,0.11906
6160.41,0.11994
6154.63,0.12155
6148.84,0.12012
6143.05,0.12003
6137.27,0.11774
6131.48,0.11749
6125.7,0.11554
6119.91,0.11826
6114.12,0.11796
6108.34,0.11849
6102.55,0.11948
6096.76,0.11705
6090.98,0.11905
6085.19,0.11857
6079.41,0.11806
6073.62,0.11889
6067.83,0.11852
6062.05,0.11572
6056.26,0.11648
6050.47,0.11889
6044.69,0.11784
6038.9,0.11693
6033.12,0.11695
6027.33,0.11883
6021.54,0.11879
6015.76,0.11819
6009.97,0.11775
6004.18,0.12080
5998.4,0.11770
5992.61,0.11669
5986.83,0.11895
5981.04,0.11490
5975.25,0.11739
5969.47,0.11874
5963.68,0.11885
5957.89,0.11577
5952.11,0.11676
5946.32,0.11781
5940.54,0.11598
5934.75,0.11426
5928.96,0.11204
5923.18,0.11176
5917.39,0.10942
5911.6,0.10839
5905.82,0.10469
5900.03,0.10542
5894.25,0.10670
5888.46,0.10543
5882.67,0.10344
5876.89,0.10384
5871.1,0.10104
5865.31,0.09917
5859.53,0.09940
5853.74,0.09966
5847.96,0.10178
5842.17,0.10333
5836.38,0.10214
5830.6,0.10385
5824.81,0.10437
5819.02,0.10240
5813.24,0.10112
5807.45,0.10123
5801.67,0.09997
5795.88,0.09802
5790.09,0.09938
5784.31,0.09950
5778.52,0.10184
5772.73,0.10091
5766.95,0.10262
5761.16,0.09901
5755.38,0.10077
5749.59,0.10253
5743.8,0.10474
5738.02,0.10534
5732.23,0.10724
5726.44,0.10722
5720.66,0.10777
5714.87,0.10888
5709.09,0.10979
5703.3,0.10802
5697.51,0.10933
5691.73,0.10937
5685.94,0.10935
5680.15,0.11038
5674.37,0.11020
5668.58,0.10930
5662.8,0.10776
5657.01,0.10969
5651.22,0.10821
5645.44,0.10784
5639.65,0.10993
5633.87,0.10985
5628.08,0.11202
5622.29,0.10929
5616.51,0.11074
5610.72,0.11136
5604.93,0.11147
5599.15,0.11273
5593.36,0.11141
5587.58,0.11272
5581.79,0.11190
5576,0.11223
5570.22,0.11390
5564.43,0.11254
5558.64,0.11222
5552.86,0.11072
5547.07,0.11376
5541.29,0.11296
5535.5,0.11312
5529.71,0.11283
5523.93,0.11347
5518.14,0.11325
5512.35,0.11246
5506.57,0.11258
5500.78,0.11254
5495,0.11015
5489.21,0.11185
5483.42,0.11207
5477.64,0.11293
5471.85,0.11273
5466.06,0.11250
5460.28,0.11337
5454.49,0.11311
5448.71,0.11309
5442.92,0.11336
5437.13,0.11289
5431.35,0.11427
5425.56,0.11356
5419.77,0.11422
5413.99,0.11394
5408.2,0.11570
5402.42,0.11672
5396.63,0.11591
5390.84,0.11582
5385.06,0.11550
5379.27,0.11626
5373.48,0.11716
5367.7,0.11825
5361.91,0.11654
5356.13,0.11620
5350.34,0.11635
5344.55,0.11625
5338.77,0.11630
5332.98,0.11558
5327.19,0.11722
5321.41,0.11728
5315.62,0.11624
5309.84,0.11780
5304.05,0.11653
5298.26,0.11622
5292.48,0.11753
5286.69,0.11614
5280.9,0.11628
5275.12,0.11769
5269.33,0.11720
5263.55,0.11788
5257.76,0.11778
5251.97,0.11747
5246.19,0.11601
5240.4,0.11661
5234.61,0.11624
5228.83,0.11641
5223.04,0.11597
5217.26,0.11631
5211.47,0.11582
5205.68,0.11682
5199.9,0.11726
5194.11,0.11830
5188.32,0.11719
5182.54,0.11850
5176.75,0.11755
5170.97,0.11963
5165.18,0.11793
5159.39,0.11798
5153.61,0.11699
5147.82,0.11845
5142.03,0.11774
5136.25,0.11842
5130.46,0.11830
5124.68,0.11813
5118.89,0.11907
5113.1,0.11943
5107.32,0.11866
5101.53,0.11690
5095.75,0.11766
5089.96,0.11777
5084.17,0.11778
5078.39,0.11928
5072.6,0.11872
5066.81,0.11897
5061.03,0.11935
5055.24,0.11888
5049.46,0.11851
5043.67,0.11843
5037.88,0.11928
5032.1,0.11808
5026.31,0.11855
5020.52,0.11829
5014.74,0.11886
5008.95,0.11960
5003.17,0.11986
4997.38,0.11860
4991.59,0.12028
4985.81,0.11899
4980.02,0.11949
4974.23,0.11927
4968.45,0.11985
4962.66,0.11929
4956.88,0.12025
4951.09,0.12087
4945.3,0.12035
4939.52,0.12060
4933.73,0.12070
4927.94,0.12142
4922.16,0.12020
4916.37,0.12141
4910.59,0.12085
4904.8,0.12039
4899.01,0.12139
4893.23,0.12047
4887.44,0.12132
4881.65,0.12084
4875.87,0.12089
4870.08,0.12100
4864.3,0.11987
4858.51,0.12089
4852.72,0.12110
4846.94,0.12118
4841.15,0.12014
4835.36,0.12052
4829.58,0.11999
4823.79,0.12026
4818.01,0.12151
4812.22,0.12110
4806.43,0.12193
4800.65,0.12173
4794.86,0.12046
4789.07,0.12121
4783.29,0.12087
4777.5,0.12094
4771.72,0.12061
4765.93,0.12094
4760.14,0.12154
4754.36,0.12109
4748.57,0.12140
4742.78,0.12127
4737,0.12234
4731.21,0.12165
4725.43,0.12106
4719.64,0.12139
4713.85,0.12170
4708.07,0.12143
4702.28,0.12129
4696.49,0.12228
4690.71,0.12169
4684.92,0.12149
4679.14,0.12240
4673.35,0.12121
4667.56,0.12057
4661.78,0.12096
4655.99,0.12159
4650.2,0.12070
4644.42,0.12131
4638.63,0.12123
4632.85,0.12062
4627.06,0.12025
4621.27,0.12037
4615.49,0.12054
4609.7,0.12051
4603.92,0.12141
4598.13,0.12075
4592.34,0.12029
4586.56,0.12000
4580.77,0.11907
4574.98,0.11851
4569.2,0.11882
4563.41,0.11872
4557.63,0.11951
4551.84,0.11952
4546.05,0.11895
4540.27,0.11981
4534.48,0.11927
4528.69,0.11877
4522.91,0.11891
4517.12,0.11904
4511.34,0.11890
4505.55,0.11925
4499.76,0.11909
4493.98,0.11828
4488.19,0.11797
4482.4,0.11887
4476.62,0.11853
4470.83,0.11830
4465.05,0.11768
4459.26,0.11731
4453.47,0.11553
4447.69,0.11372
4441.9,0.11193
4436.11,0.11004
4430.33,0.10559
4424.54,0.10144
4418.76,0.09634
4412.97,0.09033
4407.18,0.08605
4401.4,0.08191
4395.61,0.07667
4389.82,0.07422
4384.04,0.07778
4378.25,0.08076
4372.47,0.08380
4366.68,0.08577
4360.89,0.08724
4355.11,0.08637
4349.32,0.08259
4343.53,0.07694
4337.75,0.06803
4331.96,0.06168
4326.18,0.05795
4320.39,0.05888
4314.6,0.06111
4308.82,0.06460
4303.03,0.06796
4297.24,0.07140
4291.46,0.07355
4285.67,0.07413
4279.89,0.07425
4274.1,0.07391
4268.31,0.07464
4262.53,0.07262
4256.74,0.06985
4250.95,0.06608
4245.17,0.06337
4239.38,0.06225
4233.6,0.06509
4227.81,0.06898
4222.02,0.06931
4216.24,0.07006
4210.45,0.07131
4204.66,0.07281
4198.88,0.07479
4193.09,0.07769
4187.31,0.07950
4181.52,0.07779
4175.73,0.07639
4169.95,0.07406
4164.16,0.07418
4158.37,0.07637
4152.59,0.07863
4146.8,0.07959
4141.02,0.08072
4135.23,0.08146
4129.44,0.08092
4123.66,0.07862
4117.87,0.07790
4112.09,0.07892
4106.3,0.08150
4100.51,0.08395
4094.73,0.08536
4088.94,0.08334
4083.15,0.08121
4077.37,0.07737
4071.58,0.07471
4065.8,0.07147
4060.01,0.06896
4054.22,0.07170
4048.44,0.07762
4042.65,0.08288
4036.86,0.08607
4031.08,0.08683
4025.29,0.08721
4019.51,0.08821
4013.72,0.09024
4007.93,0.09113
4002.15,0.09206
3996.36,0.09114
3990.57,0.09144
3984.79,0.09285
3979,0.09425
3973.22,0.09577
3967.43,0.09597
3961.64,0.09717
3955.86,0.09870
3950.07,0.09885
3944.28,0.09879
3938.5,0.09815
3932.71,0.09799
3926.93,0.09829
3921.14,0.09835
3915.35,0.09865
3909.57,0.09989
3903.78,0.09992
3897.99,0.09991
3892.21,0.09990
3886.42,0.10020
3880.64,0.10072
3874.85,0.10067
3869.06,0.10175
3863.28,0.10165
3857.49,0.10268
3851.7,0.10276
3845.92,0.10331
3840.13,0.10326
3834.35,0.10270
3828.56,0.10296
3822.77,0.10309
3816.99,0.10247
3811.2,0.10274
3805.41,0.10323
3799.63,0.10339
3793.84,0.10378
3788.06,0.10494
3782.27,0.10534
3776.48,0.10455
3770.7,0.10245
3764.91,0.10146
3759.12,0.10271
3753.34,0.10367
3747.55,0.10520
3741.77,0.10615
3735.98,0.10685
3730.19,0.10767
3724.41,0.10787
3718.62,0.10774
3712.83,0.10710
3707.05,0.10782
3701.26,0.10764
3695.48,0.10717
3689.69,0.10731
3683.9,0.10793
3678.12,0.10821
3672.33,0.10984
3666.54,0.11198
3660.76,0.11304
3654.97,0.11361
3649.19,0.11330
3643.4,0.11224
3637.61,0.11126
3631.83,0.11064
3626.04,0.11199
3620.25,0.11335
3614.47,0.11359
3608.68,0.11407
3602.9,0.11425
3597.11,0.11433
3591.32,0.11368
3585.54,0.11320
3579.75,0.11332
3573.97,0.11294
3568.18,0.11251
3562.39,0.11198
3556.61,0.11127
3550.82,0.11064
3545.03,0.10990
3539.25,0.10928
3533.46,0.10838
3527.68,0.10836
3521.89,0.10717
3516.1,0.10748
3510.32,0.10693
3504.53,0.10702
3498.74,0.10644
3492.96,0.10608
3487.17,0.10506
3481.39,0.10421
3475.6,0.10321
3469.81,0.10272
3464.03,0.10144
3458.24,0.10026
3452.45,0.09996
3446.67,0.09767
3440.88,0.09640
3435.1,0.09583
3429.31,0.09470
3423.52,0.09374
3417.74,0.09232
3411.95,0.09186
3406.16,0.09148
3400.38,0.09361
3394.59,0.09383
3388.81,0.09331
3383.02,0.09287
3377.23,0.09080
3371.45,0.09077
3365.66,0.09034
3359.87,0.08960
3354.09,0.08845
3348.3,0.08685
3342.52,0.08741
3336.73,0.09002
3330.94,0.09113
3325.16,0.09280
3319.37,0.09337
3313.58,0.09363
3307.8,0.09267
3302.01,0.09231
3296.23,0.09043
3290.44,0.09050
3284.65,0.09124
3278.87,0.09097
3273.08,0.09145
3267.29,0.09127
3261.51,0.09128
3255.72,0.09158
3249.94,0.09175
3244.15,0.09150
3238.36,0.08853
3232.58,0.08606
3226.79,0.08271
3221,0.07820
3215.22,0.07334
3209.43,0.07008
3203.65,0.06739
3197.86,0.06509
3192.07,0.06496
3186.29,0.06557
3180.5,0.06618
3174.71,0.06715
3168.93,0.06856
3163.14,0.06864
3157.36,0.06779
3151.57,0.06668
3145.78,0.06504
3140,0.06516
3134.21,0.06591
3128.42,0.06750
3122.64,0.06860
3116.85,0.07108
3111.07,0.07144
3105.28,0.07211
3099.49,0.07192
3093.71,0.07213
3087.92,0.07201
3082.14,0.07210
3076.35,0.07138
3070.56,0.06967
3064.78,0.06824
3058.99,0.06604
3053.2,0.06465
3047.42,0.06297
3041.63,0.06121
3035.85,0.05899
3030.06,0.05547
3024.27,0.05126
3018.49,0.04567
3012.7,0.04063
3006.91,0.03523
3001.13,0.02934
2995.34,0.02456
2989.56,0.02008
2983.77,0.01706
2977.98,0.01593
2972.2,0.01535
2966.41,0.01502
2960.62,0.01678
2954.84,0.01750
2949.05,0.01782
2943.27,0.01787
2937.48,0.01685
2931.69,0.01731
2925.91,0.01700
2920.12,0.01794
2914.33,0.01921
2908.55,0.01863
2902.76,0.01879
2896.98,0.01863
2891.19,0.01898
2885.4,0.01863
2879.62,0.01899
2873.83,0.01869
2868.04,0.01877
2862.26,0.01898
2856.47,0.01891
2850.69,0.01857
2844.9,0.01860
2839.11,0.01918
2833.33,0.01932
2827.54,0.01995
2821.75,0.02105
2815.97,0.02307
2810.18,0.02434
2804.4,0.02682
2798.61,0.02992
2792.82,0.03214
2787.04,0.03778
2781.25,0.04472
2775.46,0.04952
2769.68,0.05198
2763.89,0.05307
2758.11,0.05507
2752.32,0.05644
2746.53,0.05552
2740.75,0.05135
2734.96,0.04649
2729.17,0.04231
2723.39,0.03766
2717.6,0.04109
2711.82,0.04789
2706.03,0.05276
2700.24,0.05685
2694.46,0.05786
2688.67,0.05737
2682.88,0.05699
2677.1,0.05746
2671.31,0.05914
2665.53,0.05942
2659.74,0.05867
2653.95,0.06141
2648.17,0.06451
2642.38,0.06666
2636.59,0.06932
2630.81,0.06824
2625.02,0.06563
2619.24,0.06299
2613.45,0.06365
2607.66,0.06809
2601.88,0.07279
2596.09,0.07391
2590.3,0.07031
2584.52,0.06438
2578.73,0.06448
2572.95,0.06996
2567.16,0.07550
2561.37,0.07837
2555.59,0.07966
2549.8,0.08181
2544.02,0.08539
2538.23,0.08683
2532.44,0.08919
2526.66,0.09179
2520.87,0.09519
2515.08,0.09805
2509.3,0.09961
2503.51,0.10057
2497.73,0.10034
2491.94,0.09981
2486.15,0.10120
2480.37,0.10292
2474.58,0.10411
2468.79,0.10570
2463.01,0.10575
2457.22,0.10434
2451.44,0.10378
2445.65,0.10279
2439.86,0.10015
2434.08,0.09651
2428.29,0.09492
2422.5,0.09703
2416.72,0.09977
2410.93,0.10055
2405.15,0.09946
2399.36,0.09871
2393.57,0.09987
2387.79,0.10189
2382,0.10237
2376.21,0.10224
2370.43,0.10185
2364.64,0.10069
2358.86,0.10026
2353.07,0.10238
2347.28,0.10514
2341.5,0.10741
2335.71,0.10788
2329.92,0.10947
2324.14,0.11159
2318.35,0.11460
2312.57,0.11591
2306.78,0.11670
2300.99,0.11628
2295.21,0.11628
2289.42,0.11765
2283.63,0.11791
2277.85,0.11683
2272.06,0.11414
2266.28,0.11241
2260.49,0.11072
2254.7,0.10930
2248.92,0.11257
2243.13,0.11615
2237.34,0.11712
2231.56,0.11601
2225.77,0.11659
2219.99,0.11818
2214.2,0.11836
2208.41,0.11787
2202.63,0.11630
2196.84,0.11530
2191.05,0.11483
2185.27,0.11462
2179.48,0.11422
2173.7,0.11334
2167.91,0.11394
2162.12,0.11702
2156.34,0.11896
2150.55,0.12110
2144.76,0.12245
2138.98,0.11988
2133.19,0.11646
2127.41,0.11775
2121.62,0.12452
2115.83,0.12947
2110.05,0.13106
2104.26,0.13185
2098.47,0.13180
2092.69,0.13178
2086.9,0.13244
2081.12,0.13525
2075.33,0.13844
2069.54,0.14023
2063.76,0.14055
2057.97,0.14054
2052.19,0.14005
2046.4,0.13962
2040.61,0.14008
2034.83,0.13952
2029.04,0.13895
2023.25,0.13995
2017.47,0.14075
2011.68,0.14078
2005.9,0.14110
2000.11,0.14050
1994.32,0.13972
1988.54,0.13975
1982.75,0.14053
1976.96,0.14106
1971.18,0.14082
1965.39,0.13968
1959.61,0.13881
1953.82,0.13847
1948.03,0.13880
1942.25,0.13874
1936.46,0.13846
1930.67,0.13866
1924.89,0.13730
1919.1,0.13645
1913.32,0.13582
1907.53,0.13535
1901.74,0.13422
1895.96,0.13221
1890.17,0.13182
1884.38,0.13497
1878.6,0.13640
1872.81,0.13685
1867.03,0.13663
1861.24,0.13583
1855.45,0.13472
1849.67,0.13387
1843.88,0.13325
1838.09,0.13114
1832.31,0.12961
1826.52,0.13066
1820.74,0.13286
1814.95,0.13355
1809.16,0.13417
1803.38,0.13329
1797.59,0.13160
1791.8,0.13050
1786.02,0.12936
1780.23,0.12847
1774.45,0.12691
1768.66,0.12439
1762.87,0.12102
1757.09,0.11649
1751.3,0.10988
1745.51,0.10107
1739.73,0.09800
1733.94,0.10070
1728.16,0.10309
1722.37,0.10513
1716.58,0.10569
1710.8,0.10443
1705.01,0.10340
1699.22,0.10233
1693.44,0.10091
1687.65,0.10077
1681.87,0.10143
1676.08,0.10181
1670.29,0.10230
1664.51,0.10169
1658.72,0.10044
1652.93,0.09691
1647.15,0.09074
1641.36,0.09197
1635.58,0.09485
1629.79,0.09549
1624,0.09581
1618.22,0.09697
1612.43,0.09658
1606.64,0.09625
1600.86,0.09992
1595.07,0.10265
1589.29,0.10376
1583.5,0.10455
1577.71,0.10421
1571.93,0.10316
1566.14,0.10126
1560.35,0.09874
1554.57,0.09623
1548.78,0.09461
1543,0.09206
1537.21,0.08974
1531.42,0.08860
1525.64,0.08908
1519.85,0.08925
1514.07,0.08603
1508.28,0.08114
1502.49,0.07488
1496.71,0.06671
1490.92,0.05811
1485.13,0.04662
1479.35,0.03377
1473.56,0.02179
1467.78,0.01701
1461.99,0.01656
1456.2,0.01702
1450.42,0.01769
1444.63,0.01900
1438.84,0.02117
1433.06,0.02764
1427.27,0.04228
1421.49,0.04962
1415.7,0.05396
1409.91,0.05544
1404.13,0.05441
1398.34,0.05046
1392.55,0.04208
1386.77,0.02710
1380.98,0.01690
1375.2,0.01821
1369.41,0.02255
1363.62,0.02601
1357.84,0.02476
1352.05,0.03520
1346.26,0.04914
1340.48,0.05915
1334.69,0.05803
1328.91,0.05188
1323.12,0.06109
1317.33,0.07006
1311.55,0.06848
1305.76,0.04591
1299.97,0.04817
1294.19,0.05581
1288.4,0.06835
1282.62,0.07578
1276.83,0.07957
1271.04,0.07925
1265.26,0.07317
1259.47,0.05642
1253.68,0.04924
1247.9,0.07088
1242.11,0.08021
1236.33,0.08443
1230.54,0.08401
1224.75,0.07857
1218.97,0.07093
1213.18,0.07906
1207.39,0.08331
1201.61,0.08378
1195.82,0.08383
1190.04,0.08305
1184.25,0.07684
1178.46,0.05983
1172.68,0.03665
1166.89,0.02759
1161.1,0.03060
1155.32,0.03436
1149.53,0.04123
1143.75,0.05537
1137.96,0.07080
1132.17,0.08047
1126.39,0.08323
1120.6,0.08295
1114.81,0.08043
1109.03,0.07305
1103.24,0.06007
1097.46,0.07102
1091.67,0.08422
1085.88,0.09224
1080.1,0.09608
1074.31,0.09879
1068.52,0.10020
1062.74,0.09976
1056.95,0.09575
1051.17,0.08800
1045.38,0.07260
1039.59,0.08145
1033.81,0.08996
1028.02,0.09448
1022.24,0.09160
1016.45,0.08472
1010.66,0.07127
1004.88,0.05044
999.09,0.03294
993.304,0.04221
987.518,0.06030
981.731,0.05348
975.945,0.02915
970.159,0.03219
964.373,0.06314
958.586,0.08830
952.8,0.10263
947.014,0.10514
941.228,0.09370
935.441,0.11068
929.655,0.12555
923.869,0.12806
918.083,0.12606
912.297,0.12013
906.51,0.10237
900.724,0.06408
894.938,0.08140
889.152,0.10963
883.365,0.11624
877.579,0.11565
871.793,0.11330
866.007,0.10976
860.22,0.10217
854.434,0.09034
848.648,0.07024
842.862,0.04171
837.075,0.05276
831.289,0.08178
825.503,0.09624
819.717,0.09918
813.931,0.07883
808.144,0.05973
802.358,0.08732
796.572,0.10713
790.786,0.12211
784.999,0.13684
779.213,0.14718
773.427,0.14908
767.641,0.14994
761.854,0.15059
756.068,0.15084
750.282,0.15250
744.496,0.15235
738.709,0.14968
732.923,0.14587
727.137,0.13973
721.351,0.13297
715.565,0.14353
709.778,0.14769
703.992,0.14922
698.206,0.14987
692.42,0.15115
686.633,0.15163
680.847,0.15250
675.061,0.15200
669.275,0.15132
663.488,0.15214
657.702,0.15283
651.916,0.15322
646.13,0.15303
640.343,0.15431
634.557,0.15547
628.771,0.15421
622.985,0.15465
617.198,0.15347
611.412,0.15213
605.626,0.15342
599.84,0.15471