File: 01_Data/Polyolefin_Carpet_Low_Pile/FTIR/IS/Polyolefin_Carpet_Low_Pile_IS_T_220819_R7.dpt
7497.03,0.02443
7491.25,0.02376
7485.46,0.02335
7479.67,0.01635
7473.89,0.01834
7468.1,0.02145
7462.32,0.02285
7456.53,0.02616
7450.74,0.02765
7444.96,0.01983
7439.17,0.02280
7433.38,0.02104
7427.6,0.02482
7421.81,0.02321
7416.03,0.02074
7410.24,0.02745
7404.45,0.01627
7398.67,0.02536
7392.88,0.02068
7387.09,0.01792
7381.31,0.02634
7375.52,0.02542
7369.74,0.03149
7363.95,0.02347
7358.16,0.02114
7352.38,0.03171
7346.59,0.03014
7340.8,0.02418
7335.02,0.01853
7329.23,0.01622
7323.45,0.02270
7317.66,0.02650
7311.87,0.01915
7306.09,0.02113
7300.3,0.01730
7294.51,0.02734
7288.73,0.02424
7282.94,0.02796
7277.16,0.02545
7271.37,0.01989
7265.58,0.01304
7259.8,0.02188
7254.01,0.02281
7248.22,0.02193
7242.44,0.02326
7236.65,0.01623
7230.87,0.02236
7225.08,0.01736
7219.29,0.02230
7213.51,0.02659
7207.72,0.01618
7201.93,0.02500
7196.15,0.02244
7190.36,0.02442
7184.58,0.01883
7178.79,0.02188
7173,0.02150
7167.22,0.01950
7161.43,0.01598
7155.65,0.01909
7149.86,0.02487
7144.07,0.02093
7138.29,0.01529
7132.5,0.02371
7126.71,0.02502
7120.93,0.02356
7115.14,0.02406
7109.36,0.02465
7103.57,0.02564
7097.78,0.01957
7092,0.02407
7086.21,0.02418
7080.42,0.01924
7074.64,0.02418
7068.85,0.01459
7063.07,0.02076
7057.28,0.02513
7051.49,0.02284
7045.71,0.02101
7039.92,0.01802
7034.13,0.02223
7028.35,0.01726
7022.56,0.01577
7016.78,0.02072
7010.99,0.02488
7005.2,0.01985
6999.42,0.01981
6993.63,0.02679
6987.84,0.02428
6982.06,0.02449
6976.27,0.02805
6970.49,0.02212
6964.7,0.02800
6958.91,0.02588
6953.13,0.02021
6947.34,0.02508
6941.55,0.02089
6935.77,0.01749
6929.98,0.02282
6924.2,0.01841
6918.41,0.01906
6912.62,0.02293
6906.84,0.01930
6901.05,0.02561
6895.26,0.02015
6889.48,0.02233
6883.69,0.02197
6877.91,0.02352
6872.12,0.02885
6866.33,0.02493
6860.55,0.02197
6854.76,0.01928
6848.97,0.02145
6843.19,0.01909
6837.4,0.01961
6831.62,0.01704
6825.83,0.02022
6820.04,0.02354
6814.26,0.01352
6808.47,0.01930
6802.68,0.02443
6796.9,0.02118
6791.11,0.02636
6785.33,0.01832
6779.54,0.01881
6773.75,0.01977
6767.97,0.02045
6762.18,0.01514
6756.39,0.01703
6750.61,0.01807
6744.82,0.01887
6739.04,0.01669
6733.25,0.01854
6727.46,0.02382
6721.68,0.02290
6715.89,0.01999
6710.1,0.01894
6704.32,0.01996
6698.53,0.02079
6692.75,0.02500
6686.96,0.02339
6681.17,0.02328
6675.39,0.02075
6669.6,0.02038
6663.82,0.01876
6658.03,0.01681
6652.24,0.02152
6646.46,0.02209
6640.67,0.02251
6634.88,0.02026
6629.1,0.02047
6623.31,0.01816
6617.53,0.02177
6611.74,0.01601
6605.95,0.01790
6600.17,0.01488
6594.38,0.01669
6588.59,0.01879
6582.81,0.01449
6577.02,0.02151
6571.24,0.01800
6565.45,0.02162
6559.66,0.01915
6553.88,0.02018
6548.09,0.02193
6542.3,0.02103
6536.52,0.02077
6530.73,0.02014
6524.95,0.01947
6519.16,0.01938
6513.37,0.01947
6507.59,0.01642
6501.8,0.01975
6496.01,0.02306
6490.23,0.02095
6484.44,0.01484
6478.66,0.02306
6472.87,0.01848
6467.08,0.01993
6461.3,0.02065
6455.51,0.01996
6449.72,0.01923
6443.94,0.02359
6438.15,0.01694
6432.37,0.01904
6426.58,0.01925
6420.79,0.02049
6415.01,0.01758
6409.22,0.01612
6403.43,0.01542
6397.65,0.01852
6391.86,0.01885
6386.08,0.01690
6380.29,0.01804
6374.5,0.02153
6368.72,0.01720
6362.93,0.01814
6357.14,0.01976
6351.36,0.01793
6345.57,0.01641
6339.79,0.01940
6334,0.02017
6328.21,0.02034
6322.43,0.02050
6316.64,0.01985
6310.85,0.01946
6305.07,0.01728
6299.28,0.01948
6293.5,0.02126
6287.71,0.01874
6281.92,0.02209
6276.14,0.02141
6270.35,0.02117
6264.56,0.02217
6258.78,0.01781
6252.99,0.02089
6247.21,0.02283
6241.42,0.02097
6235.63,0.02227
6229.85,0.02126
6224.06,0.01975
6218.27,0.01811
6212.49,0.01976
6206.7,0.01856
6200.92,0.02122
6195.13,0.02033
6189.34,0.02104
6183.56,0.01791
6177.77,0.01888
6171.98,0.01874
6166.2,0.01956
6160.41,0.02070
6154.63,0.01883
6148.84,0.02174
6143.05,0.02098
6137.27,0.01662
6131.48,0.01888
6125.7,0.02025
6119.91,0.01706
6114.12,0.01891
6108.34,0.01810
6102.55,0.01784
6096.76,0.01841
6090.98,0.01917
6085.19,0.02021
6079.41,0.01694
6073.62,0.01929
6067.83,0.01815
6062.05,0.01924
6056.26,0.01881
6050.47,0.01892
6044.69,0.01852
6038.9,0.01911
6033.12,0.02050
6027.33,0.01846
6021.54,0.02037
6015.76,0.02024
6009.97,0.01911
6004.18,0.01909
5998.4,0.01756
5992.61,0.01636
5986.83,0.02101
5981.04,0.01892
5975.25,0.01731
5969.47,0.01968
5963.68,0.01942
5957.89,0.01958
5952.11,0.02106
5946.32,0.02099
5940.54,0.02011
5934.75,0.01948
5928.96,0.01994
5923.18,0.02023
5917.39,0.01963
5911.6,0.01896
5905.82,0.01870
5900.03,0.01799
5894.25,0.01790
5888.46,0.01708
5882.67,0.01847
5876.89,0.02061
5871.1,0.01821
5865.31,0.01731
5859.53,0.01794
5853.74,0.01891
5847.96,0.01779
5842.17,0.01721
5836.38,0.02055
5830.6,0.01913
5824.81,0.01883
5819.02,0.01814
5813.24,0.01694
5807.45,0.01845
5801.67,0.02044
5795.88,0.01828
5790.09,0.01732
5784.31,0.01834
5778.52,0.01826
5772.73,0.02016
5766.95,0.02093
5761.16,0.02105
5755.38,0.02233
5749.59,0.01939
5743.8,0.02001
5738.02,0.01859
5732.23,0.01726
5726.44,0.01921
5720.66,0.01912
5714.87,0.01871
5709.09,0.01790
5703.3,0.01918
5697.51,0.02003
5691.73,0.01940
5685.94,0.01982
5680.15,0.01878
5674.37,0.01815
5668.58,0.01881
5662.8,0.01785
5657.01,0.02024
5651.22,0.01853
5645.44,0.01988
5639.65,0.01987
5633.87,0.01930
5628.08,0.01787
5622.29,0.01986
5616.51,0.01861
5610.72,0.01830
5604.93,0.01832
5599.15,0.02041
5593.36,0.02021
5587.58,0.01970
5581.79,0.01943
5576,0.01809
5570.22,0.01936
5564.43,0.01918
5558.64,0.02095
5552.86,0.01961
5547.07,0.02017
5541.29,0.01897
5535.5,0.02137
5529.71,0.01964
5523.93,0.01988
5518.14,0.01814
5512.35,0.01976
5506.57,0.01834
5500.78,0.01993
5495,0.01985
5489.21,0.01843
5483.42,0.01913
5477.64,0.01937
5471.85,0.01861
5466.06,0.02021
5460.28,0.02001
5454.49,0.01831
5448.71,0.01849
5442.92,0.01922
5437.13,0.02130
5431.35,0.01806
5425.56,0.01966
5419.77,0.01876
5413.99,0.01988
5408.2,0.01833
5402.42,0.01852
5396.63,0.01929
5390.84,0.02107
5385.06,0.01890
5379.27,0.01872
5373.48,0.01904
5367.7,0.02180
5361.91,0.01879
5356.13,0.01985
5350.34,0.01966
5344.55,0.01952
5338.77,0.01806
5332.98,0.01911
5327.19,0.01877
5321.41,0.01837
5315.62,0.01942
5309.84,0.01963
5304.05,0.01935
5298.26,0.01908
5292.48,0.01927
5286.69,0.01831
5280.9,0.01937
5275.12,0.02038
5269.33,0.01814
5263.55,0.01867
5257.76,0.01860
5251.97,0.01852
5246.19,0.01980
5240.4,0.01890
5234.61,0.01856
5228.83,0.01984
5223.04,0.01933
5217.26,0.02075
5211.47,0.01874
5205.68,0.01890
5199.9,0.01928
5194.11,0.01862
5188.32,0.01980
5182.54,0.01929
5176.75,0.01999
5170.97,0.02005
5165.18,0.01797
5159.39,0.01894
5153.61,0.02078
5147.82,0.01929
5142.03,0.01886
5136.25,0.01951
5130.46,0.01968
5124.68,0.01920
5118.89,0.01899
5113.1,0.01993
5107.32,0.02013
5101.53,0.01910
5095.75,0.01952
5089.96,0.01916
5084.17,0.01905
5078.39,0.01912
5072.6,0.01933
5066.81,0.01970
5061.03,0.01903
5055.24,0.01935
5049.46,0.02041
5043.67,0.01986
5037.88,0.01971
5032.1,0.01931
5026.31,0.01949
5020.52,0.01990
5014.74,0.02003
5008.95,0.01969
5003.17,0.01962
4997.38,0.01836
4991.59,0.01940
4985.81,0.01969
4980.02,0.01999
4974.23,0.02068
4968.45,0.02010
4962.66,0.01950
4956.88,0.01930
4951.09,0.01945
4945.3,0.02018
4939.52,0.01955
4933.73,0.01936
4927.94,0.02063
4922.16,0.02001
4916.37,0.01908
4910.59,0.01998
4904.8,0.01920
4899.01,0.01908
4893.23,0.01821
4887.44,0.01984
4881.65,0.01893
4875.87,0.01934
4870.08,0.01967
4864.3,0.01956
4858.51,0.01976
4852.72,0.01963
4846.94,0.02040
4841.15,0.01983
4835.36,0.01931
4829.58,0.01991
4823.79,0.01955
4818.01,0.02051
4812.22,0.01939
4806.43,0.01844
4800.65,0.01937
4794.86,0.02050
4789.07,0.02047
4783.29,0.01930
4777.5,0.01898
4771.72,0.01845
4765.93,0.01909
4760.14,0.01974
4754.36,0.01965
4748.57,0.01960
4742.78,0.01825
4737,0.02041
4731.21,0.01977
4725.43,0.01936
4719.64,0.01962
4713.85,0.01911
4708.07,0.01932
4702.28,0.02022
4696.49,0.01983
4690.71,0.01965
4684.92,0.01960
4679.14,0.01927
4673.35,0.01945
4667.56,0.01966
4661.78,0.01884
4655.99,0.02042
4650.2,0.01967
4644.42,0.01876
4638.63,0.01974
4632.85,0.01912
4627.06,0.02022
4621.27,0.01970
4615.49,0.01931
4609.7,0.02037
4603.92,0.01957
4598.13,0.01969
4592.34,0.01952
4586.56,0.01946
4580.77,0.02032
4574.98,0.02024
4569.2,0.01962
4563.41,0.02009
4557.63,0.02002
4551.84,0.02008
4546.05,0.01930
4540.27,0.02001
4534.48,0.02004
4528.69,0.01954
4522.91,0.01944
4517.12,0.01922
4511.34,0.02039
4505.55,0.01984
4499.76,0.02032
4493.98,0.02034
4488.19,0.01884
4482.4,0.01926
4476.62,0.01938
4470.83,0.01865
4465.05,0.01994
4459.26,0.02035
4453.47,0.01972
4447.69,0.01929
4441.9,0.01920
4436.11,0.01966
4430.33,0.02031
4424.54,0.01940
4418.76,0.01937
4412.97,0.01918
4407.18,0.01900
4401.4,0.01942
4395.61,0.01955
4389.82,0.01995
4384.04,0.01958
4378.25,0.01966
4372.47,0.02011
4366.68,0.01977
4360.89,0.01989
4355.11,0.01996
4349.32,0.01955
4343.53,0.02007
4337.75,0.02019
4331.96,0.01960
4326.18,0.01992
4320.39,0.01956
4314.6,0.02009
4308.82,0.02004
4303.03,0.01986
4297.24,0.01915
4291.46,0.01929
4285.67,0.01929
4279.89,0.01957
4274.1,0.01965
4268.31,0.01942
4262.53,0.02034
4256.74,0.01979
4250.95,0.01977
4245.17,0.01957
4239.38,0.01910
4233.6,0.01918
4227.81,0.01974
4222.02,0.01891
4216.24,0.01929
4210.45,0.02013
4204.66,0.01948
4198.88,0.01952
4193.09,0.01889
4187.31,0.01994
4181.52,0.01996
4175.73,0.01967
4169.95,0.01991
4164.16,0.01927
4158.37,0.01953
4152.59,0.01960
4146.8,0.02023
4141.02,0.01979
4135.23,0.01957
4129.44,0.01917
4123.66,0.01919
4117.87,0.01914
4112.09,0.01935
4106.3,0.01972
4100.51,0.02006
4094.73,0.01937
4088.94,0.01988
4083.15,0.02037
4077.37,0.01977
4071.58,0.01981
4065.8,0.02032
4060.01,0.01933
4054.22,0.01943
4048.44,0.02014
4042.65,0.01945
4036.86,0.02010
4031.08,0.02016
4025.29,0.01966
4019.51,0.01985
4013.72,0.01975
4007.93,0.02016
4002.15,0.01993
3996.36,0.01979
3990.57,0.02003
3984.79,0.02020
3979,0.01988
3973.22,0.02000
3967.43,0.01942
3961.64,0.01997
3955.86,0.01928
3950.07,0.01991
3944.28,0.01998
3938.5,0.01993
3932.71,0.01993
3926.93,0.02000
3921.14,0.01952
3915.35,0.01990
3909.57,0.01979
3903.78,0.01961
3897.99,0.01982
3892.21,0.01953
3886.42,0.01970
3880.64,0.01951
3874.85,0.01988
3869.06,0.02007
3863.28,0.01960
3857.49,0.01941
3851.7,0.01951
3845.92,0.02010
3840.13,0.01882
3834.35,0.02037
3828.56,0.01948
3822.77,0.02060
3816.99,0.02062
3811.2,0.02028
3805.41,0.02019
3799.63,0.01975
3793.84,0.01994
3788.06,0.01960
3782.27,0.01966
3776.48,0.01922
3770.7,0.02026
3764.91,0.02005
3759.12,0.02023
3753.34,0.02002
3747.55,0.02023
3741.77,0.01987
3735.98,0.01901
3730.19,0.01945
3724.41,0.01986
3718.62,0.01937
3712.83,0.02025
3707.05,0.01942
3701.26,0.01890
3695.48,0.01948
3689.69,0.01919
3683.9,0.01993
3678.12,0.01926
3672.33,0.01872
3666.54,0.01919
3660.76,0.01913
3654.97,0.01895
3649.19,0.01887
3643.4,0.01910
3637.61,0.01946
3631.83,0.01926
3626.04,0.01879
3620.25,0.01949
3614.47,0.01906
3608.68,0.01886
3602.9,0.01876
3597.11,0.01845
3591.32,0.01872
3585.54,0.01936
3579.75,0.01803
3573.97,0.01850
3568.18,0.01880
3562.39,0.01807
3556.61,0.01822
3550.82,0.01848
3545.03,0.01840
3539.25,0.01764
3533.46,0.01896
3527.68,0.01891
3521.89,0.01840
3516.1,0.01781
3510.32,0.01691
3504.53,0.01867
3498.74,0.01852
3492.96,0.01833
3487.17,0.01789
3481.39,0.01794
3475.6,0.01796
3469.81,0.01780
3464.03,0.01752
3458.24,0.01767
3452.45,0.01815
3446.67,0.01778
3440.88,0.01814
3435.1,0.01812
3429.31,0.01754
3423.52,0.01769
3417.74,0.01816
3411.95,0.01753
3406.16,0.01748
3400.38,0.01702
3394.59,0.01799
3388.81,0.01691
3383.02,0.01682
3377.23,0.01741
3371.45,0.01744
3365.66,0.01704
3359.87,0.01742
3354.09,0.01689
3348.3,0.01715
3342.52,0.01689
3336.73,0.01697
3330.94,0.01715
3325.16,0.01745
3319.37,0.01716
3313.58,0.01773
3307.8,0.01657
3302.01,0.01714
3296.23,0.01768
3290.44,0.01689
3284.65,0.01720
3278.87,0.01792
3273.08,0.01751
3267.29,0.01701
3261.51,0.01723
3255.72,0.01726
3249.94,0.01762
3244.15,0.01713
3238.36,0.01743
3232.58,0.01742
3226.79,0.01705
3221,0.01840
3215.22,0.01747
3209.43,0.01796
3203.65,0.01771
3197.86,0.01736
3192.07,0.01846
3186.29,0.01792
3180.5,0.01744
3174.71,0.01790
3168.93,0.01840
3163.14,0.01743
3157.36,0.01806
3151.57,0.01815
3145.78,0.01784
3140,0.01789
3134.21,0.01756
3128.42,0.01814
3122.64,0.01806
3116.85,0.01831
3111.07,0.01808
3105.28,0.01770
3099.49,0.01817
3093.71,0.01731
3087.92,0.01798
3082.14,0.01747
3076.35,0.01799
3070.56,0.01741
3064.78,0.01745
3058.99,0.01757
3053.2,0.01746
3047.42,0.01745
3041.63,0.01814
3035.85,0.01787
3030.06,0.01778
3024.27,0.01745
3018.49,0.01770
3012.7,0.01740
3006.91,0.01772
3001.13,0.01757
2995.34,0.01727
2989.56,0.01722
2983.77,0.01686
2977.98,0.01723
2972.2,0.01682
2966.41,0.01629
2960.62,0.01631
2954.84,0.01671
2949.05,0.01641
2943.27,0.01638
2937.48,0.01649
2931.69,0.01686
2925.91,0.01713
2920.12,0.01739
2914.33,0.01678
2908.55,0.01702
2902.76,0.01777
2896.98,0.01794
2891.19,0.01754
2885.4,0.01759
2879.62,0.01736
2873.83,0.01738
2868.04,0.01764
2862.26,0.01744
2856.47,0.01773
2850.69,0.01831
2844.9,0.01801
2839.11,0.01827
2833.33,0.01835
2827.54,0.01800
2821.75,0.01835
2815.97,0.01822
2810.18,0.01815
2804.4,0.01806
2798.61,0.01779
2792.82,0.01838
2787.04,0.01847
2781.25,0.01841
2775.46,0.01809
2769.68,0.01847
2763.89,0.01805
2758.11,0.01818
2752.32,0.01794
2746.53,0.01807
2740.75,0.01821
2734.96,0.01850
2729.17,0.01857
2723.39,0.01840
2717.6,0.01842
2711.82,0.01842
2706.03,0.01842
2700.24,0.01849
2694.46,0.01840
2688.67,0.01838
2682.88,0.01845
2677.1,0.01808
2671.31,0.01836
2665.53,0.01803
2659.74,0.01863
2653.95,0.01839
2648.17,0.01837
2642.38,0.01840
2636.59,0.01820
2630.81,0.01820
2625.02,0.01816
2619.24,0.01795
2613.45,0.01815
2607.66,0.01793
2601.88,0.01774
2596.09,0.01792
2590.3,0.01791
2584.52,0.01817
2578.73,0.01817
2572.95,0.01855
2567.16,0.01845
2561.37,0.01817
2555.59,0.01838
2549.8,0.01788
2544.02,0.01836
2538.23,0.01791
2532.44,0.01822
2526.66,0.01794
2520.87,0.01798
2515.08,0.01819
2509.3,0.01808
2503.51,0.01769
2497.73,0.01864
2491.94,0.01839
2486.15,0.01856
2480.37,0.01846
2474.58,0.01819
2468.79,0.01812
2463.01,0.01837
2457.22,0.01811
2451.44,0.01876
2445.65,0.01837
2439.86,0.01844
2434.08,0.01830
2428.29,0.01834
2422.5,0.01825
2416.72,0.01799
2410.93,0.01810
2405.15,0.01792
2399.36,0.01793
2393.57,0.01799
2387.79,0.01791
2382,0.01808
2376.21,0.01845
2370.43,0.01828
2364.64,0.01895
2358.86,0.01855
2353.07,0.01831
2347.28,0.01856
2341.5,0.01827
2335.71,0.01832
2329.92,0.01786
2324.14,0.01785
2318.35,0.01814
2312.57,0.01827
2306.78,0.01845
2300.99,0.01813
2295.21,0.01799
2289.42,0.01804
2283.63,0.01844
2277.85,0.01825
2272.06,0.01838
2266.28,0.01816
2260.49,0.01837
2254.7,0.01822
2248.92,0.01832
2243.13,0.01797
2237.34,0.01803
2231.56,0.01818
2225.77,0.01843
2219.99,0.01825
2214.2,0.01808
2208.41,0.01800
2202.63,0.01801
2196.84,0.01791
2191.05,0.01814
2185.27,0.01798
2179.48,0.01830
2173.7,0.01807
2167.91,0.01806
2162.12,0.01818
2156.34,0.01809
2150.55,0.01811
2144.76,0.01814
2138.98,0.01847
2133.19,0.01822
2127.41,0.01793
2121.62,0.01792
2115.83,0.01808
2110.05,0.01805
2104.26,0.01783
2098.47,0.01804
2092.69,0.01798
2086.9,0.01833
2081.12,0.01823
2075.33,0.01854
2069.54,0.01806
2063.76,0.01773
2057.97,0.01807
2052.19,0.01798
2046.4,0.01787
2040.61,0.01758
2034.83,0.01809
2029.04,0.01801
2023.25,0.01780
2017.47,0.01787
2011.68,0.01790
2005.9,0.01790
2000.11,0.01787
1994.32,0.01781
1988.54,0.01801
1982.75,0.01778
1976.96,0.01765
1971.18,0.01764
1965.39,0.01768
1959.61,0.01802
1953.82,0.01801
1948.03,0.01793
1942.25,0.01773
1936.46,0.01742
1930.67,0.01766
1924.89,0.01790
1919.1,0.01782
1913.32,0.01770
1907.53,0.01774
1901.74,0.01784
1895.96,0.01774
1890.17,0.01779
1884.38,0.01770
1878.6,0.01776
1872.81,0.01757
1867.03,0.01745
1861.24,0.01757
1855.45,0.01767
1849.67,0.01717
1843.88,0.01747
1838.09,0.01710
1832.31,0.01721
1826.52,0.01726
1820.74,0.01688
1814.95,0.01688
1809.16,0.01711
1803.38,0.01691
1797.59,0.01647
1791.8,0.01629
1786.02,0.01628
1780.23,0.01607
1774.45,0.01603
1768.66,0.01531
1762.87,0.01537
1757.09,0.01441
1751.3,0.01456
1745.51,0.01438
1739.73,0.01567
1733.94,0.01715
1728.16,0.01763
1722.37,0.01775
1716.58,0.01783
1710.8,0.01759
1705.01,0.01713
1699.22,0.01677
1693.44,0.01635
1687.65,0.01656
1681.87,0.01616
1676.08,0.01554
1670.29,0.01550
1664.51,0.01517
1658.72,0.01538
1652.93,0.01551
1647.15,0.01543
1641.36,0.01537
1635.58,0.01553
1629.79,0.01545
1624,0.01551
1618.22,0.01602
1612.43,0.01573
1606.64,0.01582
1600.86,0.01575
1595.07,0.01606
1589.29,0.01567
1583.5,0.01555
1577.71,0.01552
1571.93,0.01557
1566.14,0.01512
1560.35,0.01502
1554.57,0.01499
1548.78,0.01546
1543,0.01577
1537.21,0.01519
1531.42,0.01530
1525.64,0.01557
1519.85,0.01535
1514.07,0.01587
1508.28,0.01560
1502.49,0.01575
1496.71,0.01574
1490.92,0.01558
1485.13,0.01601
1479.35,0.01549
1473.56,0.01509
1467.78,0.01563
1461.99,0.01573
1456.2,0.01585
1450.42,0.01571
1444.63,0.01569
1438.84,0.01574
1433.06,0.01525
1427.27,0.01594
1421.49,0.01568
1415.7,0.01551
1409.91,0.01553
1404.13,0.01542
1398.34,0.01501
1392.55,0.01462
1386.77,0.01524
1380.98,0.01562
1375.2,0.01552
1369.41,0.01517
1363.62,0.01462
1357.84,0.01495
1352.05,0.01491
1346.26,0.01487
1340.48,0.01508
1334.69,0.01463
1328.91,0.01462
1323.12,0.01438
1317.33,0.01427
1311.55,0.01396
1305.76,0.01452
1299.97,0.01473
1294.19,0.01465
1288.4,0.01471
1282.62,0.01543
1276.83,0.01600
1271.04,0.01630
1265.26,0.01666
1259.47,0.01689
1253.68,0.01658
1247.9,0.01757
1242.11,0.01700
1236.33,0.01699
1230.54,0.01650
1224.75,0.01663
1218.97,0.01605
1213.18,0.01585
1207.39,0.01592
1201.61,0.01569
1195.82,0.01536
1190.04,0.01517
1184.25,0.01510
1178.46,0.01524
1172.68,0.01485
1166.89,0.01479
1161.1,0.01449
1155.32,0.01415
1149.53,0.01488
1143.75,0.01473
1137.96,0.01546
1132.17,0.01536
1126.39,0.01526
1120.6,0.01596
1114.81,0.01577
1109.03,0.01612
1103.24,0.01579
1097.46,0.01592
1091.67,0.01551
1085.88,0.01572
1080.1,0.01513
1074.31,0.01680
1068.52,0.01695
1062.74,0.01741
1056.95,0.01717
1051.17,0.01658
1045.38,0.01659
1039.59,0.01679
1033.81,0.01655
1028.02,0.01659
1022.24,0.01633
1016.45,0.01690
1010.66,0.01670
1004.88,0.01797
999.09,0.01823
993.304,0.01747
987.518,0.01821
981.731,0.01797
975.945,0.01778
970.159,0.01757
964.373,0.01738
958.586,0.01760
952.8,0.01752
947.014,0.01667
941.228,0.01728
935.441,0.01675
929.655,0.01665
923.869,0.01633
918.083,0.01622
912.297,0.01614
906.51,0.01619
900.724,0.01555
894.938,0.01630
889.152,0.01669
883.365,0.01638
877.579,0.01710
871.793,0.01614
866.007,0.01606
860.22,0.01613
854.434,0.01595
848.648,0.01602
842.862,0.01576
837.075,0.01613
831.289,0.01681
825.503,0.01606
819.717,0.01565
813.931,0.01649
808.144,0.01619
802.358,0.01670
796.572,0.01635
790.786,0.01642
784.999,0.01688
779.213,0.01579
773.427,0.01575
767.641,0.01575
761.854,0.01560
756.068,0.01484
750.282,0.01526
744.496,0.01526
738.709,0.01462
732.923,0.01481
727.137,0.01527
721.351,0.01553
715.565,0.01468
709.778,0.01514
703.992,0.01410
698.206,0.01533
692.42,0.01466
686.633,0.01487
680.847,0.01402
675.061,0.01363
669.275,0.01328
663.488,0.01482
657.702,0.01336
651.916,0.01286
646.13,0.01446
640.343,0.01500
634.557,0.01354
628.771,0.01271
622.985,0.01369
617.198,0.01250
611.412,0.01558
605.626,0.01343
599.84,0.01311