File: 01_Data/Polyolefin_Carpet_Low_Pile/FTIR/IS/Polyolefin_Carpet_Low_Pile_IS_T_220819_R5.dpt
7497.03,0.02006
7491.25,0.02804
7485.46,0.02242
7479.67,0.02335
7473.89,0.03040
7468.1,0.03003
7462.32,0.02009
7456.53,0.01864
7450.74,0.01852
7444.96,0.02464
7439.17,0.02399
7433.38,0.02349
7427.6,0.02609
7421.81,0.02066
7416.03,0.02545
7410.24,0.02976
7404.45,0.02187
7398.67,0.02251
7392.88,0.02664
7387.09,0.01664
7381.31,0.01899
7375.52,0.01919
7369.74,0.02263
7363.95,0.02158
7358.16,0.02258
7352.38,0.02200
7346.59,0.02010
7340.8,0.01794
7335.02,0.02173
7329.23,0.02431
7323.45,0.02211
7317.66,0.01891
7311.87,0.02434
7306.09,0.02038
7300.3,0.01910
7294.51,0.02617
7288.73,0.02005
7282.94,0.01842
7277.16,0.02142
7271.37,0.02077
7265.58,0.02391
7259.8,0.02457
7254.01,0.02203
7248.22,0.02337
7242.44,0.01681
7236.65,0.02162
7230.87,0.02206
7225.08,0.02113
7219.29,0.02292
7213.51,0.02340
7207.72,0.02378
7201.93,0.02612
7196.15,0.02325
7190.36,0.02695
7184.58,0.02082
7178.79,0.02254
7173,0.01806
7167.22,0.02150
7161.43,0.02259
7155.65,0.02416
7149.86,0.02167
7144.07,0.01812
7138.29,0.02216
7132.5,0.01683
7126.71,0.02332
7120.93,0.01704
7115.14,0.01623
7109.36,0.02731
7103.57,0.02073
7097.78,0.02357
7092,0.01961
7086.21,0.02608
7080.42,0.02036
7074.64,0.01963
7068.85,0.02451
7063.07,0.02394
7057.28,0.02466
7051.49,0.02563
7045.71,0.02210
7039.92,0.01729
7034.13,0.02085
7028.35,0.02021
7022.56,0.02508
7016.78,0.01879
7010.99,0.01886
7005.2,0.01995
6999.42,0.02471
6993.63,0.02350
6987.84,0.02195
6982.06,0.02005
6976.27,0.02277
6970.49,0.02614
6964.7,0.02223
6958.91,0.02688
6953.13,0.02254
6947.34,0.02170
6941.55,0.02271
6935.77,0.02406
6929.98,0.02080
6924.2,0.02148
6918.41,0.01888
6912.62,0.02661
6906.84,0.02235
6901.05,0.01795
6895.26,0.01958
6889.48,0.02546
6883.69,0.02279
6877.91,0.02174
6872.12,0.02117
6866.33,0.02158
6860.55,0.01695
6854.76,0.01836
6848.97,0.02228
6843.19,0.02131
6837.4,0.01806
6831.62,0.02799
6825.83,0.01873
6820.04,0.02349
6814.26,0.01707
6808.47,0.01828
6802.68,0.01848
6796.9,0.02663
6791.11,0.02268
6785.33,0.01948
6779.54,0.01989
6773.75,0.01848
6767.97,0.01555
6762.18,0.01837
6756.39,0.01937
6750.61,0.01531
6744.82,0.02095
6739.04,0.02304
6733.25,0.01866
6727.46,0.01787
6721.68,0.01946
6715.89,0.02325
6710.1,0.01632
6704.32,0.02005
6698.53,0.02062
6692.75,0.01924
6686.96,0.02482
6681.17,0.02300
6675.39,0.02213
6669.6,0.02359
6663.82,0.02359
6658.03,0.01860
6652.24,0.01771
6646.46,0.02102
6640.67,0.02219
6634.88,0.01559
6629.1,0.01755
6623.31,0.01893
6617.53,0.01784
6611.74,0.01864
6605.95,0.02166
6600.17,0.02138
6594.38,0.02270
6588.59,0.02133
6582.81,0.02157
6577.02,0.02056
6571.24,0.02327
6565.45,0.02242
6559.66,0.01962
6553.88,0.01863
6548.09,0.02048
6542.3,0.02431
6536.52,0.01821
6530.73,0.01948
6524.95,0.02222
6519.16,0.02045
6513.37,0.02092
6507.59,0.01843
6501.8,0.01913
6496.01,0.01962
6490.23,0.02042
6484.44,0.01649
6478.66,0.01789
6472.87,0.01611
6467.08,0.02049
6461.3,0.01872
6455.51,0.02183
6449.72,0.01812
6443.94,0.01884
6438.15,0.02235
6432.37,0.02496
6426.58,0.02013
6420.79,0.01946
6415.01,0.02306
6409.22,0.02022
6403.43,0.02050
6397.65,0.01949
6391.86,0.02039
6386.08,0.02117
6380.29,0.01723
6374.5,0.01962
6368.72,0.02093
6362.93,0.02194
6357.14,0.01863
6351.36,0.01988
6345.57,0.02245
6339.79,0.02242
6334,0.01876
6328.21,0.01685
6322.43,0.02236
6316.64,0.01734
6310.85,0.01923
6305.07,0.01861
6299.28,0.02005
6293.5,0.01959
6287.71,0.01792
6281.92,0.01892
6276.14,0.02206
6270.35,0.01716
6264.56,0.02141
6258.78,0.02071
6252.99,0.01993
6247.21,0.01842
6241.42,0.01714
6235.63,0.02124
6229.85,0.01645
6224.06,0.01920
6218.27,0.01816
6212.49,0.01997
6206.7,0.02023
6200.92,0.01981
6195.13,0.01964
6189.34,0.01968
6183.56,0.01916
6177.77,0.01783
6171.98,0.01778
6166.2,0.02075
6160.41,0.01849
6154.63,0.02211
6148.84,0.02033
6143.05,0.01698
6137.27,0.01715
6131.48,0.01860
6125.7,0.01892
6119.91,0.01807
6114.12,0.01901
6108.34,0.01801
6102.55,0.01889
6096.76,0.02073
6090.98,0.02025
6085.19,0.01819
6079.41,0.01738
6073.62,0.01753
6067.83,0.01816
6062.05,0.01976
6056.26,0.02053
6050.47,0.01869
6044.69,0.02047
6038.9,0.01818
6033.12,0.02055
6027.33,0.01636
6021.54,0.01941
6015.76,0.01931
6009.97,0.02068
6004.18,0.01737
5998.4,0.01878
5992.61,0.02000
5986.83,0.01863
5981.04,0.02159
5975.25,0.02017
5969.47,0.01922
5963.68,0.01679
5957.89,0.02011
5952.11,0.01909
5946.32,0.01918
5940.54,0.01867
5934.75,0.01811
5928.96,0.01796
5923.18,0.01841
5917.39,0.02023
5911.6,0.01888
5905.82,0.01852
5900.03,0.01846
5894.25,0.01839
5888.46,0.01915
5882.67,0.01873
5876.89,0.02148
5871.1,0.01895
5865.31,0.01779
5859.53,0.01904
5853.74,0.02004
5847.96,0.02073
5842.17,0.01953
5836.38,0.01784
5830.6,0.01933
5824.81,0.01791
5819.02,0.01785
5813.24,0.01900
5807.45,0.01922
5801.67,0.01659
5795.88,0.01873
5790.09,0.01658
5784.31,0.01719
5778.52,0.01881
5772.73,0.01766
5766.95,0.02027
5761.16,0.01854
5755.38,0.01749
5749.59,0.01950
5743.8,0.01947
5738.02,0.01810
5732.23,0.02093
5726.44,0.01891
5720.66,0.01849
5714.87,0.02014
5709.09,0.02054
5703.3,0.01970
5697.51,0.01983
5691.73,0.01993
5685.94,0.02064
5680.15,0.02022
5674.37,0.01824
5668.58,0.02105
5662.8,0.02143
5657.01,0.01914
5651.22,0.01761
5645.44,0.01821
5639.65,0.01728
5633.87,0.01858
5628.08,0.01755
5622.29,0.01819
5616.51,0.02051
5610.72,0.01926
5604.93,0.01840
5599.15,0.01887
5593.36,0.01903
5587.58,0.01991
5581.79,0.02086
5576,0.01931
5570.22,0.01862
5564.43,0.01926
5558.64,0.01849
5552.86,0.02046
5547.07,0.01956
5541.29,0.01812
5535.5,0.01940
5529.71,0.01785
5523.93,0.01831
5518.14,0.02057
5512.35,0.01919
5506.57,0.01833
5500.78,0.01918
5495,0.01897
5489.21,0.01929
5483.42,0.01881
5477.64,0.02002
5471.85,0.01943
5466.06,0.01889
5460.28,0.01965
5454.49,0.01853
5448.71,0.01793
5442.92,0.01812
5437.13,0.01850
5431.35,0.01888
5425.56,0.01877
5419.77,0.02035
5413.99,0.01986
5408.2,0.02135
5402.42,0.01814
5396.63,0.02016
5390.84,0.01915
5385.06,0.01971
5379.27,0.02068
5373.48,0.01874
5367.7,0.02010
5361.91,0.01880
5356.13,0.02004
5350.34,0.01935
5344.55,0.01994
5338.77,0.01956
5332.98,0.01822
5327.19,0.01914
5321.41,0.01905
5315.62,0.01990
5309.84,0.01926
5304.05,0.01982
5298.26,0.01847
5292.48,0.01993
5286.69,0.02026
5280.9,0.01973
5275.12,0.01953
5269.33,0.01877
5263.55,0.01918
5257.76,0.01987
5251.97,0.01889
5246.19,0.01915
5240.4,0.01960
5234.61,0.02067
5228.83,0.02095
5223.04,0.01930
5217.26,0.01998
5211.47,0.01871
5205.68,0.01972
5199.9,0.01966
5194.11,0.01925
5188.32,0.01869
5182.54,0.01906
5176.75,0.01927
5170.97,0.02004
5165.18,0.01896
5159.39,0.01919
5153.61,0.02072
5147.82,0.01987
5142.03,0.01894
5136.25,0.01973
5130.46,0.01783
5124.68,0.01999
5118.89,0.01941
5113.1,0.01976
5107.32,0.01940
5101.53,0.02066
5095.75,0.02098
5089.96,0.01940
5084.17,0.01863
5078.39,0.01890
5072.6,0.01925
5066.81,0.01942
5061.03,0.01997
5055.24,0.02007
5049.46,0.01929
5043.67,0.01829
5037.88,0.01914
5032.1,0.01924
5026.31,0.01943
5020.52,0.01923
5014.74,0.01986
5008.95,0.01978
5003.17,0.01921
4997.38,0.01876
4991.59,0.01905
4985.81,0.01982
4980.02,0.01994
4974.23,0.01982
4968.45,0.01978
4962.66,0.01959
4956.88,0.01938
4951.09,0.01885
4945.3,0.01966
4939.52,0.01861
4933.73,0.01869
4927.94,0.01984
4922.16,0.02004
4916.37,0.01949
4910.59,0.01988
4904.8,0.02015
4899.01,0.01910
4893.23,0.01986
4887.44,0.01977
4881.65,0.01914
4875.87,0.01880
4870.08,0.01966
4864.3,0.01872
4858.51,0.01861
4852.72,0.01932
4846.94,0.01967
4841.15,0.01989
4835.36,0.01958
4829.58,0.01981
4823.79,0.01990
4818.01,0.01975
4812.22,0.01997
4806.43,0.01972
4800.65,0.01977
4794.86,0.01923
4789.07,0.01957
4783.29,0.01973
4777.5,0.01853
4771.72,0.01990
4765.93,0.01966
4760.14,0.01907
4754.36,0.01946
4748.57,0.01948
4742.78,0.01903
4737,0.01999
4731.21,0.02071
4725.43,0.02002
4719.64,0.02004
4713.85,0.01942
4708.07,0.01913
4702.28,0.01889
4696.49,0.01942
4690.71,0.01995
4684.92,0.01944
4679.14,0.01960
4673.35,0.01942
4667.56,0.01991
4661.78,0.02052
4655.99,0.01970
4650.2,0.02015
4644.42,0.01931
4638.63,0.01925
4632.85,0.01981
4627.06,0.01825
4621.27,0.02058
4615.49,0.01991
4609.7,0.01931
4603.92,0.01967
4598.13,0.01973
4592.34,0.01992
4586.56,0.01917
4580.77,0.01990
4574.98,0.01954
4569.2,0.02008
4563.41,0.01946
4557.63,0.01890
4551.84,0.01981
4546.05,0.01911
4540.27,0.02003
4534.48,0.01942
4528.69,0.01979
4522.91,0.01944
4517.12,0.01981
4511.34,0.01985
4505.55,0.01977
4499.76,0.02012
4493.98,0.01971
4488.19,0.02026
4482.4,0.01966
4476.62,0.01861
4470.83,0.01911
4465.05,0.01944
4459.26,0.01956
4453.47,0.01927
4447.69,0.01974
4441.9,0.01979
4436.11,0.01953
4430.33,0.02006
4424.54,0.01964
4418.76,0.01944
4412.97,0.01959
4407.18,0.01919
4401.4,0.01949
4395.61,0.01934
4389.82,0.01919
4384.04,0.02050
4378.25,0.02011
4372.47,0.01895
4366.68,0.01975
4360.89,0.01992
4355.11,0.02032
4349.32,0.01998
4343.53,0.01990
4337.75,0.01925
4331.96,0.01908
4326.18,0.01961
4320.39,0.02007
4314.6,0.01983
4308.82,0.01966
4303.03,0.01991
4297.24,0.02001
4291.46,0.01961
4285.67,0.02014
4279.89,0.01964
4274.1,0.01976
4268.31,0.01982
4262.53,0.01916
4256.74,0.01927
4250.95,0.01960
4245.17,0.01959
4239.38,0.01943
4233.6,0.01977
4227.81,0.01905
4222.02,0.01959
4216.24,0.01929
4210.45,0.01942
4204.66,0.01927
4198.88,0.02043
4193.09,0.01997
4187.31,0.01892
4181.52,0.01939
4175.73,0.01873
4169.95,0.01942
4164.16,0.01975
4158.37,0.01984
4152.59,0.01979
4146.8,0.01897
4141.02,0.02006
4135.23,0.02047
4129.44,0.02052
4123.66,0.01935
4117.87,0.01939
4112.09,0.01931
4106.3,0.01969
4100.51,0.01935
4094.73,0.01942
4088.94,0.01969
4083.15,0.01946
4077.37,0.02002
4071.58,0.01963
4065.8,0.01941
4060.01,0.01941
4054.22,0.01955
4048.44,0.01930
4042.65,0.01959
4036.86,0.01955
4031.08,0.01922
4025.29,0.01916
4019.51,0.01935
4013.72,0.01961
4007.93,0.02029
4002.15,0.01925
3996.36,0.01943
3990.57,0.01986
3984.79,0.01983
3979,0.01993
3973.22,0.01982
3967.43,0.01978
3961.64,0.01945
3955.86,0.01959
3950.07,0.01973
3944.28,0.01954
3938.5,0.02023
3932.71,0.01993
3926.93,0.02046
3921.14,0.01979
3915.35,0.01963
3909.57,0.01980
3903.78,0.01985
3897.99,0.01974
3892.21,0.02019
3886.42,0.01952
3880.64,0.01950
3874.85,0.01956
3869.06,0.01958
3863.28,0.01959
3857.49,0.02019
3851.7,0.02004
3845.92,0.02006
3840.13,0.02016
3834.35,0.01993
3828.56,0.01970
3822.77,0.01947
3816.99,0.02016
3811.2,0.02016
3805.41,0.01990
3799.63,0.01991
3793.84,0.01945
3788.06,0.01976
3782.27,0.02024
3776.48,0.01958
3770.7,0.01967
3764.91,0.01976
3759.12,0.01949
3753.34,0.01989
3747.55,0.02005
3741.77,0.01963
3735.98,0.01945
3730.19,0.01948
3724.41,0.01943
3718.62,0.01917
3712.83,0.01997
3707.05,0.01964
3701.26,0.01952
3695.48,0.01950
3689.69,0.01964
3683.9,0.01949
3678.12,0.01900
3672.33,0.01978
3666.54,0.01893
3660.76,0.01884
3654.97,0.01848
3649.19,0.01915
3643.4,0.01896
3637.61,0.01871
3631.83,0.01865
3626.04,0.01965
3620.25,0.01830
3614.47,0.01872
3608.68,0.01852
3602.9,0.01884
3597.11,0.01880
3591.32,0.01925
3585.54,0.01791
3579.75,0.01900
3573.97,0.01891
3568.18,0.01810
3562.39,0.01855
3556.61,0.01843
3550.82,0.01822
3545.03,0.01829
3539.25,0.01815
3533.46,0.01837
3527.68,0.01847
3521.89,0.01807
3516.1,0.01846
3510.32,0.01842
3504.53,0.01790
3498.74,0.01752
3492.96,0.01758
3487.17,0.01779
3481.39,0.01761
3475.6,0.01831
3469.81,0.01774
3464.03,0.01800
3458.24,0.01785
3452.45,0.01752
3446.67,0.01762
3440.88,0.01847
3435.1,0.01779
3429.31,0.01795
3423.52,0.01811
3417.74,0.01769
3411.95,0.01762
3406.16,0.01710
3400.38,0.01732
3394.59,0.01765
3388.81,0.01679
3383.02,0.01766
3377.23,0.01767
3371.45,0.01811
3365.66,0.01804
3359.87,0.01828
3354.09,0.01667
3348.3,0.01735
3342.52,0.01799
3336.73,0.01763
3330.94,0.01798
3325.16,0.01710
3319.37,0.01762
3313.58,0.01724
3307.8,0.01686
3302.01,0.01799
3296.23,0.01725
3290.44,0.01711
3284.65,0.01731
3278.87,0.01694
3273.08,0.01809
3267.29,0.01702
3261.51,0.01708
3255.72,0.01718
3249.94,0.01781
3244.15,0.01720
3238.36,0.01770
3232.58,0.01708
3226.79,0.01777
3221,0.01686
3215.22,0.01743
3209.43,0.01727
3203.65,0.01791
3197.86,0.01726
3192.07,0.01789
3186.29,0.01823
3180.5,0.01761
3174.71,0.01843
3168.93,0.01744
3163.14,0.01791
3157.36,0.01792
3151.57,0.01717
3145.78,0.01824
3140,0.01831
3134.21,0.01766
3128.42,0.01832
3122.64,0.01813
3116.85,0.01742
3111.07,0.01782
3105.28,0.01749
3099.49,0.01802
3093.71,0.01776
3087.92,0.01790
3082.14,0.01820
3076.35,0.01768
3070.56,0.01784
3064.78,0.01774
3058.99,0.01795
3053.2,0.01778
3047.42,0.01743
3041.63,0.01734
3035.85,0.01772
3030.06,0.01765
3024.27,0.01784
3018.49,0.01757
3012.7,0.01749
3006.91,0.01731
3001.13,0.01788
2995.34,0.01682
2989.56,0.01673
2983.77,0.01664
2977.98,0.01699
2972.2,0.01660
2966.41,0.01717
2960.62,0.01617
2954.84,0.01673
2949.05,0.01714
2943.27,0.01647
2937.48,0.01664
2931.69,0.01668
2925.91,0.01644
2920.12,0.01701
2914.33,0.01781
2908.55,0.01745
2902.76,0.01763
2896.98,0.01754
2891.19,0.01763
2885.4,0.01770
2879.62,0.01726
2873.83,0.01688
2868.04,0.01747
2862.26,0.01728
2856.47,0.01765
2850.69,0.01839
2844.9,0.01793
2839.11,0.01807
2833.33,0.01818
2827.54,0.01837
2821.75,0.01814
2815.97,0.01839
2810.18,0.01844
2804.4,0.01859
2798.61,0.01871
2792.82,0.01833
2787.04,0.01820
2781.25,0.01819
2775.46,0.01824
2769.68,0.01848
2763.89,0.01841
2758.11,0.01832
2752.32,0.01837
2746.53,0.01839
2740.75,0.01792
2734.96,0.01860
2729.17,0.01780
2723.39,0.01827
2717.6,0.01798
2711.82,0.01841
2706.03,0.01818
2700.24,0.01853
2694.46,0.01818
2688.67,0.01817
2682.88,0.01838
2677.1,0.01823
2671.31,0.01840
2665.53,0.01817
2659.74,0.01836
2653.95,0.01816
2648.17,0.01835
2642.38,0.01834
2636.59,0.01864
2630.81,0.01902
2625.02,0.01842
2619.24,0.01807
2613.45,0.01827
2607.66,0.01847
2601.88,0.01804
2596.09,0.01815
2590.3,0.01828
2584.52,0.01850
2578.73,0.01830
2572.95,0.01818
2567.16,0.01833
2561.37,0.01818
2555.59,0.01866
2549.8,0.01863
2544.02,0.01834
2538.23,0.01827
2532.44,0.01835
2526.66,0.01817
2520.87,0.01849
2515.08,0.01851
2509.3,0.01838
2503.51,0.01824
2497.73,0.01845
2491.94,0.01831
2486.15,0.01816
2480.37,0.01819
2474.58,0.01880
2468.79,0.01834
2463.01,0.01821
2457.22,0.01835
2451.44,0.01857
2445.65,0.01826
2439.86,0.01823
2434.08,0.01849
2428.29,0.01846
2422.5,0.01848
2416.72,0.01802
2410.93,0.01850
2405.15,0.01815
2399.36,0.01818
2393.57,0.01850
2387.79,0.01837
2382,0.01836
2376.21,0.01816
2370.43,0.01814
2364.64,0.01838
2358.86,0.01820
2353.07,0.01825
2347.28,0.01824
2341.5,0.01812
2335.71,0.01809
2329.92,0.01799
2324.14,0.01810
2318.35,0.01805
2312.57,0.01770
2306.78,0.01846
2300.99,0.01817
2295.21,0.01765
2289.42,0.01828
2283.63,0.01801
2277.85,0.01848
2272.06,0.01823
2266.28,0.01798
2260.49,0.01865
2254.7,0.01822
2248.92,0.01817
2243.13,0.01812
2237.34,0.01829
2231.56,0.01819
2225.77,0.01790
2219.99,0.01817
2214.2,0.01788
2208.41,0.01795
2202.63,0.01841
2196.84,0.01814
2191.05,0.01836
2185.27,0.01838
2179.48,0.01841
2173.7,0.01817
2167.91,0.01817
2162.12,0.01824
2156.34,0.01836
2150.55,0.01806
2144.76,0.01806
2138.98,0.01766
2133.19,0.01826
2127.41,0.01812
2121.62,0.01840
2115.83,0.01793
2110.05,0.01823
2104.26,0.01809
2098.47,0.01816
2092.69,0.01781
2086.9,0.01829
2081.12,0.01793
2075.33,0.01811
2069.54,0.01798
2063.76,0.01805
2057.97,0.01792
2052.19,0.01824
2046.4,0.01823
2040.61,0.01817
2034.83,0.01790
2029.04,0.01781
2023.25,0.01795
2017.47,0.01779
2011.68,0.01788
2005.9,0.01786
2000.11,0.01795
1994.32,0.01812
1988.54,0.01785
1982.75,0.01764
1976.96,0.01778
1971.18,0.01813
1965.39,0.01790
1959.61,0.01749
1953.82,0.01766
1948.03,0.01782
1942.25,0.01743
1936.46,0.01774
1930.67,0.01794
1924.89,0.01773
1919.1,0.01788
1913.32,0.01779
1907.53,0.01755
1901.74,0.01762
1895.96,0.01788
1890.17,0.01764
1884.38,0.01755
1878.6,0.01728
1872.81,0.01763
1867.03,0.01757
1861.24,0.01733
1855.45,0.01741
1849.67,0.01736
1843.88,0.01731
1838.09,0.01716
1832.31,0.01709
1826.52,0.01703
1820.74,0.01722
1814.95,0.01715
1809.16,0.01674
1803.38,0.01685
1797.59,0.01654
1791.8,0.01649
1786.02,0.01624
1780.23,0.01626
1774.45,0.01628
1768.66,0.01580
1762.87,0.01490
1757.09,0.01447
1751.3,0.01467
1745.51,0.01489
1739.73,0.01598
1733.94,0.01700
1728.16,0.01708
1722.37,0.01794
1716.58,0.01802
1710.8,0.01804
1705.01,0.01746
1699.22,0.01761
1693.44,0.01675
1687.65,0.01624
1681.87,0.01593
1676.08,0.01599
1670.29,0.01558
1664.51,0.01593
1658.72,0.01565
1652.93,0.01568
1647.15,0.01555
1641.36,0.01579
1635.58,0.01568
1629.79,0.01565
1624,0.01571
1618.22,0.01603
1612.43,0.01601
1606.64,0.01579
1600.86,0.01553
1595.07,0.01586
1589.29,0.01571
1583.5,0.01535
1577.71,0.01566
1571.93,0.01533
1566.14,0.01513
1560.35,0.01535
1554.57,0.01499
1548.78,0.01531
1543,0.01574
1537.21,0.01527
1531.42,0.01543
1525.64,0.01526
1519.85,0.01608
1514.07,0.01550
1508.28,0.01574
1502.49,0.01579
1496.71,0.01612
1490.92,0.01594
1485.13,0.01557
1479.35,0.01587
1473.56,0.01530
1467.78,0.01536
1461.99,0.01580
1456.2,0.01575
1450.42,0.01562
1444.63,0.01581
1438.84,0.01598
1433.06,0.01549
1427.27,0.01554
1421.49,0.01515
1415.7,0.01525
1409.91,0.01544
1404.13,0.01541
1398.34,0.01555
1392.55,0.01506
1386.77,0.01504
1380.98,0.01532
1375.2,0.01520
1369.41,0.01521
1363.62,0.01513
1357.84,0.01529
1352.05,0.01494
1346.26,0.01491
1340.48,0.01504
1334.69,0.01472
1328.91,0.01465
1323.12,0.01424
1317.33,0.01408
1311.55,0.01400
1305.76,0.01441
1299.97,0.01489
1294.19,0.01500
1288.4,0.01531
1282.62,0.01592
1276.83,0.01633
1271.04,0.01650
1265.26,0.01637
1259.47,0.01706
1253.68,0.01707
1247.9,0.01695
1242.11,0.01688
1236.33,0.01658
1230.54,0.01633
1224.75,0.01668
1218.97,0.01663
1213.18,0.01624
1207.39,0.01576
1201.61,0.01595
1195.82,0.01522
1190.04,0.01556
1184.25,0.01572
1178.46,0.01496
1172.68,0.01525
1166.89,0.01468
1161.1,0.01444
1155.32,0.01478
1149.53,0.01428
1143.75,0.01501
1137.96,0.01514
1132.17,0.01514
1126.39,0.01581
1120.6,0.01587
1114.81,0.01602
1109.03,0.01580
1103.24,0.01537
1097.46,0.01432
1091.67,0.01569
1085.88,0.01531
1080.1,0.01573
1074.31,0.01550
1068.52,0.01700
1062.74,0.01715
1056.95,0.01712
1051.17,0.01616
1045.38,0.01672
1039.59,0.01657
1033.81,0.01642
1028.02,0.01626
1022.24,0.01587
1016.45,0.01640
1010.66,0.01676
1004.88,0.01759
999.09,0.01823
993.304,0.01823
987.518,0.01785
981.731,0.01811
975.945,0.01734
970.159,0.01725
964.373,0.01765
958.586,0.01708
952.8,0.01642
947.014,0.01640
941.228,0.01675
935.441,0.01580
929.655,0.01670
923.869,0.01602
918.083,0.01607
912.297,0.01634
906.51,0.01618
900.724,0.01626
894.938,0.01660
889.152,0.01628
883.365,0.01634
877.579,0.01617
871.793,0.01621
866.007,0.01585
860.22,0.01533
854.434,0.01518
848.648,0.01564
842.862,0.01599
837.075,0.01620
831.289,0.01561
825.503,0.01615
819.717,0.01669
813.931,0.01634
808.144,0.01551
802.358,0.01543
796.572,0.01600
790.786,0.01551
784.999,0.01512
779.213,0.01583
773.427,0.01607
767.641,0.01609
761.854,0.01522
756.068,0.01483
750.282,0.01506
744.496,0.01562
738.709,0.01574
732.923,0.01586
727.137,0.01546
721.351,0.01550
715.565,0.01468
709.778,0.01544
703.992,0.01496
698.206,0.01444
692.42,0.01523
686.633,0.01474
680.847,0.01469
675.061,0.01505
669.275,0.01511
663.488,0.01325
657.702,0.01333
651.916,0.01355
646.13,0.01369
640.343,0.01229
634.557,0.01232
628.771,0.01370
622.985,0.01468
617.198,0.01090
611.412,0.01130
605.626,0.01282
599.84,0.01155