File: 01_Data/Polyolefin_Carpet_Low_Pile/FTIR/IS/Polyolefin_Carpet_Low_Pile_IS_S_220819_R3.dpt
7497.03,0.11507
7491.25,0.11441
7485.46,0.11724
7479.67,0.12368
7473.89,0.12213
7468.1,0.11905
7462.32,0.12805
7456.53,0.12454
7450.74,0.11719
7444.96,0.12259
7439.17,0.11694
7433.38,0.12377
7427.6,0.11778
7421.81,0.12259
7416.03,0.11372
7410.24,0.11784
7404.45,0.11607
7398.67,0.11883
7392.88,0.11546
7387.09,0.11721
7381.31,0.10803
7375.52,0.11254
7369.74,0.11678
7363.95,0.11610
7358.16,0.12471
7352.38,0.11469
7346.59,0.11257
7340.8,0.11924
7335.02,0.11593
7329.23,0.11903
7323.45,0.11575
7317.66,0.12243
7311.87,0.11267
7306.09,0.10867
7300.3,0.12397
7294.51,0.12825
7288.73,0.12303
7282.94,0.12509
7277.16,0.11949
7271.37,0.11854
7265.58,0.11535
7259.8,0.11803
7254.01,0.11591
7248.22,0.11685
7242.44,0.11483
7236.65,0.11383
7230.87,0.11173
7225.08,0.11355
7219.29,0.11682
7213.51,0.12010
7207.72,0.12065
7201.93,0.11128
7196.15,0.11703
7190.36,0.11331
7184.58,0.11728
7178.79,0.11156
7173,0.11400
7167.22,0.11350
7161.43,0.11252
7155.65,0.11623
7149.86,0.11788
7144.07,0.11612
7138.29,0.11174
7132.5,0.11814
7126.71,0.11318
7120.93,0.10986
7115.14,0.11802
7109.36,0.12246
7103.57,0.11532
7097.78,0.11311
7092,0.11275
7086.21,0.11361
7080.42,0.11694
7074.64,0.11715
7068.85,0.11749
7063.07,0.11536
7057.28,0.11382
7051.49,0.11189
7045.71,0.11462
7039.92,0.11441
7034.13,0.11075
7028.35,0.11336
7022.56,0.12040
7016.78,0.11621
7010.99,0.11747
7005.2,0.10818
6999.42,0.11389
6993.63,0.11614
6987.84,0.11337
6982.06,0.11830
6976.27,0.11504
6970.49,0.11384
6964.7,0.11408
6958.91,0.11572
6953.13,0.11286
6947.34,0.12237
6941.55,0.11468
6935.77,0.11580
6929.98,0.11310
6924.2,0.11771
6918.41,0.12475
6912.62,0.12105
6906.84,0.11753
6901.05,0.11486
6895.26,0.11745
6889.48,0.11624
6883.69,0.11238
6877.91,0.11483
6872.12,0.11589
6866.33,0.11979
6860.55,0.12246
6854.76,0.11510
6848.97,0.11638
6843.19,0.11653
6837.4,0.11409
6831.62,0.11814
6825.83,0.11414
6820.04,0.11779
6814.26,0.11780
6808.47,0.11832
6802.68,0.11764
6796.9,0.11988
6791.11,0.11855
6785.33,0.12112
6779.54,0.11960
6773.75,0.11699
6767.97,0.12322
6762.18,0.11524
6756.39,0.11704
6750.61,0.11745
6744.82,0.11827
6739.04,0.11744
6733.25,0.11279
6727.46,0.11673
6721.68,0.11627
6715.89,0.11836
6710.1,0.11499
6704.32,0.11510
6698.53,0.11938
6692.75,0.11511
6686.96,0.12098
6681.17,0.11910
6675.39,0.11891
6669.6,0.11614
6663.82,0.11460
6658.03,0.11793
6652.24,0.11660
6646.46,0.11765
6640.67,0.11672
6634.88,0.11927
6629.1,0.11832
6623.31,0.12106
6617.53,0.11615
6611.74,0.11981
6605.95,0.11920
6600.17,0.11869
6594.38,0.11718
6588.59,0.11756
6582.81,0.11735
6577.02,0.11556
6571.24,0.12081
6565.45,0.11689
6559.66,0.11920
6553.88,0.11890
6548.09,0.11773
6542.3,0.12162
6536.52,0.12138
6530.73,0.12003
6524.95,0.11867
6519.16,0.12048
6513.37,0.12109
6507.59,0.11759
6501.8,0.12001
6496.01,0.11598
6490.23,0.11664
6484.44,0.11779
6478.66,0.12170
6472.87,0.11841
6467.08,0.11664
6461.3,0.11772
6455.51,0.11903
6449.72,0.11984
6443.94,0.12046
6438.15,0.11447
6432.37,0.11490
6426.58,0.12051
6420.79,0.11795
6415.01,0.11912
6409.22,0.12042
6403.43,0.12067
6397.65,0.11940
6391.86,0.12019
6386.08,0.11908
6380.29,0.11923
6374.5,0.11573
6368.72,0.11852
6362.93,0.11949
6357.14,0.11658
6351.36,0.11945
6345.57,0.12177
6339.79,0.11826
6334,0.11761
6328.21,0.11791
6322.43,0.11964
6316.64,0.11688
6310.85,0.12008
6305.07,0.11795
6299.28,0.12124
6293.5,0.12000
6287.71,0.11804
6281.92,0.11792
6276.14,0.11620
6270.35,0.11920
6264.56,0.11918
6258.78,0.12021
6252.99,0.12129
6247.21,0.11836
6241.42,0.12231
6235.63,0.11878
6229.85,0.11981
6224.06,0.11801
6218.27,0.12163
6212.49,0.11865
6206.7,0.11807
6200.92,0.11842
6195.13,0.12073
6189.34,0.12068
6183.56,0.11820
6177.77,0.11850
6171.98,0.11689
6166.2,0.11465
6160.41,0.11581
6154.63,0.11877
6148.84,0.11783
6143.05,0.11696
6137.27,0.11953
6131.48,0.11661
6125.7,0.11924
6119.91,0.11900
6114.12,0.11982
6108.34,0.11917
6102.55,0.11816
6096.76,0.11674
6090.98,0.11882
6085.19,0.11894
6079.41,0.11884
6073.62,0.11790
6067.83,0.11843
6062.05,0.11801
6056.26,0.11790
6050.47,0.11861
6044.69,0.11659
6038.9,0.11756
6033.12,0.11663
6027.33,0.11738
6021.54,0.11738
6015.76,0.12030
6009.97,0.11816
6004.18,0.11763
5998.4,0.11805
5992.61,0.11768
5986.83,0.11727
5981.04,0.11665
5975.25,0.11854
5969.47,0.11704
5963.68,0.11683
5957.89,0.11711
5952.11,0.11459
5946.32,0.11501
5940.54,0.11582
5934.75,0.11230
5928.96,0.11352
5923.18,0.11025
5917.39,0.10934
5911.6,0.10629
5905.82,0.10644
5900.03,0.10326
5894.25,0.10361
5888.46,0.10429
5882.67,0.10432
5876.89,0.10342
5871.1,0.09963
5865.31,0.10032
5859.53,0.09915
5853.74,0.09980
5847.96,0.10049
5842.17,0.10353
5836.38,0.10375
5830.6,0.10509
5824.81,0.10274
5819.02,0.10521
5813.24,0.10260
5807.45,0.10158
5801.67,0.10118
5795.88,0.10079
5790.09,0.10069
5784.31,0.10241
5778.52,0.10152
5772.73,0.10116
5766.95,0.09945
5761.16,0.09983
5755.38,0.10150
5749.59,0.10181
5743.8,0.10501
5738.02,0.10606
5732.23,0.10713
5726.44,0.10809
5720.66,0.10757
5714.87,0.10894
5709.09,0.10938
5703.3,0.10984
5697.51,0.11028
5691.73,0.11001
5685.94,0.10920
5680.15,0.10902
5674.37,0.11007
5668.58,0.10707
5662.8,0.10797
5657.01,0.10916
5651.22,0.10894
5645.44,0.11045
5639.65,0.10958
5633.87,0.11096
5628.08,0.11060
5622.29,0.11000
5616.51,0.11264
5610.72,0.11109
5604.93,0.11207
5599.15,0.11260
5593.36,0.11187
5587.58,0.11169
5581.79,0.11259
5576,0.11177
5570.22,0.11340
5564.43,0.11140
5558.64,0.11239
5552.86,0.11247
5547.07,0.11003
5541.29,0.11237
5535.5,0.11259
5529.71,0.11501
5523.93,0.11340
5518.14,0.11479
5512.35,0.11175
5506.57,0.11140
5500.78,0.11225
5495,0.11355
5489.21,0.11338
5483.42,0.11174
5477.64,0.11406
5471.85,0.11395
5466.06,0.11217
5460.28,0.11244
5454.49,0.11339
5448.71,0.11480
5442.92,0.11314
5437.13,0.11317
5431.35,0.11454
5425.56,0.11485
5419.77,0.11410
5413.99,0.11443
5408.2,0.11577
5402.42,0.11519
5396.63,0.11493
5390.84,0.11602
5385.06,0.11544
5379.27,0.11515
5373.48,0.11766
5367.7,0.11700
5361.91,0.11542
5356.13,0.11583
5350.34,0.11695
5344.55,0.11582
5338.77,0.11736
5332.98,0.11625
5327.19,0.11681
5321.41,0.11807
5315.62,0.11729
5309.84,0.11616
5304.05,0.11525
5298.26,0.11644
5292.48,0.11707
5286.69,0.11704
5280.9,0.11698
5275.12,0.11587
5269.33,0.11570
5263.55,0.11611
5257.76,0.11695
5251.97,0.11671
5246.19,0.11693
5240.4,0.11770
5234.61,0.11663
5228.83,0.11648
5223.04,0.11664
5217.26,0.11728
5211.47,0.11675
5205.68,0.11703
5199.9,0.11751
5194.11,0.11654
5188.32,0.11726
5182.54,0.11766
5176.75,0.11637
5170.97,0.11716
5165.18,0.11676
5159.39,0.11732
5153.61,0.11782
5147.82,0.11768
5142.03,0.11785
5136.25,0.11752
5130.46,0.11871
5124.68,0.11910
5118.89,0.11808
5113.1,0.11888
5107.32,0.11851
5101.53,0.11811
5095.75,0.11762
5089.96,0.11883
5084.17,0.11833
5078.39,0.11741
5072.6,0.11882
5066.81,0.11764
5061.03,0.11721
5055.24,0.11803
5049.46,0.11855
5043.67,0.11787
5037.88,0.11855
5032.1,0.11880
5026.31,0.11841
5020.52,0.11901
5014.74,0.11827
5008.95,0.11936
5003.17,0.11912
4997.38,0.11893
4991.59,0.11851
4985.81,0.11983
4980.02,0.11947
4974.23,0.11953
4968.45,0.12083
4962.66,0.12012
4956.88,0.12026
4951.09,0.12050
4945.3,0.12070
4939.52,0.12125
4933.73,0.12113
4927.94,0.12059
4922.16,0.12065
4916.37,0.12114
4910.59,0.12035
4904.8,0.12070
4899.01,0.12092
4893.23,0.11941
4887.44,0.12109
4881.65,0.11978
4875.87,0.12148
4870.08,0.12093
4864.3,0.12032
4858.51,0.12089
4852.72,0.12026
4846.94,0.12038
4841.15,0.12080
4835.36,0.12165
4829.58,0.12158
4823.79,0.12064
4818.01,0.12050
4812.22,0.12062
4806.43,0.12090
4800.65,0.12087
4794.86,0.12050
4789.07,0.12090
4783.29,0.12112
4777.5,0.12198
4771.72,0.12234
4765.93,0.12195
4760.14,0.12231
4754.36,0.12153
4748.57,0.12171
4742.78,0.12247
4737,0.12059
4731.21,0.12133
4725.43,0.12134
4719.64,0.12231
4713.85,0.12127
4708.07,0.12147
4702.28,0.12120
4696.49,0.12166
4690.71,0.12244
4684.92,0.12202
4679.14,0.12198
4673.35,0.12156
4667.56,0.12048
4661.78,0.12083
4655.99,0.12073
4650.2,0.12008
4644.42,0.12101
4638.63,0.12155
4632.85,0.12032
4627.06,0.12034
4621.27,0.12061
4615.49,0.12011
4609.7,0.12048
4603.92,0.11977
4598.13,0.12109
4592.34,0.12033
4586.56,0.11916
4580.77,0.11880
4574.98,0.11879
4569.2,0.11929
4563.41,0.11895
4557.63,0.11872
4551.84,0.11896
4546.05,0.11878
4540.27,0.11906
4534.48,0.11894
4528.69,0.11893
4522.91,0.11833
4517.12,0.11851
4511.34,0.11870
4505.55,0.11817
4499.76,0.11883
4493.98,0.11911
4488.19,0.11841
4482.4,0.11774
4476.62,0.11739
4470.83,0.11727
4465.05,0.11735
4459.26,0.11716
4453.47,0.11592
4447.69,0.11400
4441.9,0.11201
4436.11,0.10923
4430.33,0.10593
4424.54,0.10121
4418.76,0.09587
4412.97,0.09053
4407.18,0.08594
4401.4,0.08181
4395.61,0.07635
4389.82,0.07498
4384.04,0.07821
4378.25,0.08149
4372.47,0.08331
4366.68,0.08626
4360.89,0.08603
4355.11,0.08621
4349.32,0.08335
4343.53,0.07665
4337.75,0.06874
4331.96,0.06161
4326.18,0.05799
4320.39,0.05910
4314.6,0.06124
4308.82,0.06386
4303.03,0.06754
4297.24,0.07209
4291.46,0.07399
4285.67,0.07319
4279.89,0.07298
4274.1,0.07483
4268.31,0.07390
4262.53,0.07184
4256.74,0.06960
4250.95,0.06535
4245.17,0.06198
4239.38,0.06264
4233.6,0.06606
4227.81,0.07007
4222.02,0.06969
4216.24,0.07005
4210.45,0.07108
4204.66,0.07231
4198.88,0.07457
4193.09,0.07766
4187.31,0.07869
4181.52,0.07785
4175.73,0.07537
4169.95,0.07352
4164.16,0.07500
4158.37,0.07628
4152.59,0.07785
4146.8,0.07975
4141.02,0.08019
4135.23,0.08125
4129.44,0.07993
4123.66,0.07935
4117.87,0.07753
4112.09,0.07986
4106.3,0.08127
4100.51,0.08324
4094.73,0.08436
4088.94,0.08371
4083.15,0.08079
4077.37,0.07699
4071.58,0.07380
4065.8,0.07131
4060.01,0.06858
4054.22,0.07137
4048.44,0.07790
4042.65,0.08308
4036.86,0.08552
4031.08,0.08692
4025.29,0.08746
4019.51,0.08832
4013.72,0.09012
4007.93,0.09139
4002.15,0.09196
3996.36,0.09120
3990.57,0.09186
3984.79,0.09251
3979,0.09467
3973.22,0.09594
3967.43,0.09646
3961.64,0.09719
3955.86,0.09839
3950.07,0.09879
3944.28,0.09901
3938.5,0.09866
3932.71,0.09694
3926.93,0.09702
3921.14,0.09743
3915.35,0.09872
3909.57,0.09901
3903.78,0.09933
3897.99,0.10024
3892.21,0.10005
3886.42,0.10038
3880.64,0.10029
3874.85,0.10038
3869.06,0.10128
3863.28,0.10160
3857.49,0.10282
3851.7,0.10324
3845.92,0.10328
3840.13,0.10289
3834.35,0.10264
3828.56,0.10322
3822.77,0.10273
3816.99,0.10214
3811.2,0.10183
3805.41,0.10295
3799.63,0.10363
3793.84,0.10421
3788.06,0.10465
3782.27,0.10507
3776.48,0.10493
3770.7,0.10320
3764.91,0.10156
3759.12,0.10205
3753.34,0.10383
3747.55,0.10531
3741.77,0.10554
3735.98,0.10676
3730.19,0.10740
3724.41,0.10728
3718.62,0.10737
3712.83,0.10796
3707.05,0.10718
3701.26,0.10684
3695.48,0.10660
3689.69,0.10768
3683.9,0.10842
3678.12,0.10924
3672.33,0.11005
3666.54,0.11199
3660.76,0.11358
3654.97,0.11302
3649.19,0.11279
3643.4,0.11207
3637.61,0.11090
3631.83,0.11112
3626.04,0.11199
3620.25,0.11346
3614.47,0.11363
3608.68,0.11352
3602.9,0.11348
3597.11,0.11395
3591.32,0.11321
3585.54,0.11307
3579.75,0.11290
3573.97,0.11195
3568.18,0.11125
3562.39,0.11186
3556.61,0.11142
3550.82,0.11122
3545.03,0.10963
3539.25,0.10919
3533.46,0.10878
3527.68,0.10828
3521.89,0.10745
3516.1,0.10739
3510.32,0.10657
3504.53,0.10676
3498.74,0.10588
3492.96,0.10493
3487.17,0.10475
3481.39,0.10441
3475.6,0.10301
3469.81,0.10270
3464.03,0.10113
3458.24,0.10065
3452.45,0.09914
3446.67,0.09731
3440.88,0.09648
3435.1,0.09615
3429.31,0.09382
3423.52,0.09228
3417.74,0.09139
3411.95,0.09179
3406.16,0.09145
3400.38,0.09248
3394.59,0.09335
3388.81,0.09392
3383.02,0.09250
3377.23,0.09134
3371.45,0.08997
3365.66,0.08889
3359.87,0.08890
3354.09,0.08890
3348.3,0.08806
3342.52,0.08835
3336.73,0.08962
3330.94,0.09128
3325.16,0.09205
3319.37,0.09341
3313.58,0.09352
3307.8,0.09275
3302.01,0.09067
3296.23,0.09044
3290.44,0.09081
3284.65,0.09121
3278.87,0.09118
3273.08,0.09096
3267.29,0.09069
3261.51,0.09093
3255.72,0.09159
3249.94,0.09138
3244.15,0.09017
3238.36,0.08807
3232.58,0.08636
3226.79,0.08235
3221,0.07746
3215.22,0.07346
3209.43,0.07020
3203.65,0.06812
3197.86,0.06522
3192.07,0.06442
3186.29,0.06452
3180.5,0.06693
3174.71,0.06764
3168.93,0.06841
3163.14,0.06784
3157.36,0.06694
3151.57,0.06713
3145.78,0.06501
3140,0.06478
3134.21,0.06613
3128.42,0.06704
3122.64,0.06865
3116.85,0.07063
3111.07,0.07145
3105.28,0.07188
3099.49,0.07153
3093.71,0.07259
3087.92,0.07180
3082.14,0.07158
3076.35,0.07127
3070.56,0.06966
3064.78,0.06788
3058.99,0.06611
3053.2,0.06375
3047.42,0.06218
3041.63,0.06068
3035.85,0.05881
3030.06,0.05561
3024.27,0.05134
3018.49,0.04615
3012.7,0.04057
3006.91,0.03525
3001.13,0.02979
2995.34,0.02502
2989.56,0.02038
2983.77,0.01766
2977.98,0.01597
2972.2,0.01456
2966.41,0.01494
2960.62,0.01654
2954.84,0.01727
2949.05,0.01778
2943.27,0.01801
2937.48,0.01701
2931.69,0.01664
2925.91,0.01765
2920.12,0.01823
2914.33,0.01879
2908.55,0.01920
2902.76,0.01894
2896.98,0.01909
2891.19,0.01828
2885.4,0.01841
2879.62,0.01811
2873.83,0.01866
2868.04,0.01859
2862.26,0.01901
2856.47,0.01884
2850.69,0.01874
2844.9,0.01801
2839.11,0.01878
2833.33,0.01943
2827.54,0.01981
2821.75,0.02130
2815.97,0.02264
2810.18,0.02417
2804.4,0.02660
2798.61,0.03001
2792.82,0.03198
2787.04,0.03774
2781.25,0.04442
2775.46,0.04929
2769.68,0.05206
2763.89,0.05348
2758.11,0.05569
2752.32,0.05718
2746.53,0.05529
2740.75,0.05146
2734.96,0.04644
2729.17,0.04191
2723.39,0.03720
2717.6,0.04086
2711.82,0.04778
2706.03,0.05198
2700.24,0.05665
2694.46,0.05788
2688.67,0.05748
2682.88,0.05788
2677.1,0.05773
2671.31,0.05874
2665.53,0.05962
2659.74,0.05940
2653.95,0.06201
2648.17,0.06514
2642.38,0.06661
2636.59,0.06866
2630.81,0.06826
2625.02,0.06485
2619.24,0.06296
2613.45,0.06335
2607.66,0.06768
2601.88,0.07258
2596.09,0.07328
2590.3,0.07005
2584.52,0.06447
2578.73,0.06396
2572.95,0.06982
2567.16,0.07536
2561.37,0.07797
2555.59,0.07909
2549.8,0.08132
2544.02,0.08525
2538.23,0.08739
2532.44,0.08901
2526.66,0.09166
2520.87,0.09523
2515.08,0.09767
2509.3,0.09932
2503.51,0.10024
2497.73,0.10006
2491.94,0.09961
2486.15,0.10099
2480.37,0.10286
2474.58,0.10468
2468.79,0.10567
2463.01,0.10554
2457.22,0.10432
2451.44,0.10383
2445.65,0.10196
2439.86,0.10021
2434.08,0.09639
2428.29,0.09433
2422.5,0.09684
2416.72,0.10054
2410.93,0.10063
2405.15,0.09968
2399.36,0.09859
2393.57,0.09956
2387.79,0.10111
2382,0.10215
2376.21,0.10153
2370.43,0.10117
2364.64,0.10043
2358.86,0.10050
2353.07,0.10244
2347.28,0.10529
2341.5,0.10701
2335.71,0.10760
2329.92,0.10928
2324.14,0.11147
2318.35,0.11481
2312.57,0.11588
2306.78,0.11627
2300.99,0.11591
2295.21,0.11610
2289.42,0.11701
2283.63,0.11773
2277.85,0.11621
2272.06,0.11399
2266.28,0.11223
2260.49,0.11073
2254.7,0.10912
2248.92,0.11233
2243.13,0.11614
2237.34,0.11650
2231.56,0.11525
2225.77,0.11625
2219.99,0.11777
2214.2,0.11798
2208.41,0.11729
2202.63,0.11600
2196.84,0.11522
2191.05,0.11522
2185.27,0.11397
2179.48,0.11369
2173.7,0.11302
2167.91,0.11363
2162.12,0.11667
2156.34,0.11855
2150.55,0.12046
2144.76,0.12185
2138.98,0.12004
2133.19,0.11666
2127.41,0.11804
2121.62,0.12427
2115.83,0.12894
2110.05,0.13089
2104.26,0.13172
2098.47,0.13161
2092.69,0.13171
2086.9,0.13220
2081.12,0.13520
2075.33,0.13810
2069.54,0.13962
2063.76,0.14052
2057.97,0.14011
2052.19,0.13961
2046.4,0.13970
2040.61,0.13986
2034.83,0.13959
2029.04,0.13871
2023.25,0.13982
2017.47,0.14050
2011.68,0.14086
2005.9,0.14043
2000.11,0.13981
1994.32,0.13959
1988.54,0.13969
1982.75,0.14055
1976.96,0.14074
1971.18,0.14042
1965.39,0.13942
1959.61,0.13803
1953.82,0.13762
1948.03,0.13814
1942.25,0.13840
1936.46,0.13874
1930.67,0.13831
1924.89,0.13718
1919.1,0.13617
1913.32,0.13530
1907.53,0.13486
1901.74,0.13405
1895.96,0.13203
1890.17,0.13172
1884.38,0.13451
1878.6,0.13616
1872.81,0.13656
1867.03,0.13617
1861.24,0.13532
1855.45,0.13445
1849.67,0.13371
1843.88,0.13267
1838.09,0.13088
1832.31,0.12963
1826.52,0.13071
1820.74,0.13259
1814.95,0.13348
1809.16,0.13387
1803.38,0.13291
1797.59,0.13156
1791.8,0.12996
1786.02,0.12906
1780.23,0.12816
1774.45,0.12709
1768.66,0.12437
1762.87,0.12085
1757.09,0.11659
1751.3,0.10978
1745.51,0.10136
1739.73,0.09775
1733.94,0.10034
1728.16,0.10292
1722.37,0.10477
1716.58,0.10587
1710.8,0.10439
1705.01,0.10359
1699.22,0.10222
1693.44,0.10081
1687.65,0.10056
1681.87,0.10088
1676.08,0.10186
1670.29,0.10178
1664.51,0.10166
1658.72,0.09999
1652.93,0.09612
1647.15,0.09104
1641.36,0.09219
1635.58,0.09466
1629.79,0.09492
1624,0.09587
1618.22,0.09720
1612.43,0.09613
1606.64,0.09611
1600.86,0.09966
1595.07,0.10203
1589.29,0.10342
1583.5,0.10419
1577.71,0.10362
1571.93,0.10280
1566.14,0.10142
1560.35,0.09898
1554.57,0.09592
1548.78,0.09453
1543,0.09205
1537.21,0.08917
1531.42,0.08837
1525.64,0.08871
1519.85,0.08875
1514.07,0.08572
1508.28,0.08095
1502.49,0.07451
1496.71,0.06664
1490.92,0.05784
1485.13,0.04636
1479.35,0.03390
1473.56,0.02230
1467.78,0.01720
1461.99,0.01654
1456.2,0.01686
1450.42,0.01787
1444.63,0.01946
1438.84,0.02142
1433.06,0.02737
1427.27,0.04254
1421.49,0.04965
1415.7,0.05341
1409.91,0.05523
1404.13,0.05426
1398.34,0.05062
1392.55,0.04293
1386.77,0.02782
1380.98,0.01684
1375.2,0.01834
1369.41,0.02211
1363.62,0.02540
1357.84,0.02462
1352.05,0.03517
1346.26,0.04925
1340.48,0.05878
1334.69,0.05810
1328.91,0.05171
1323.12,0.06091
1317.33,0.07021
1311.55,0.06814
1305.76,0.04553
1299.97,0.04755
1294.19,0.05603
1288.4,0.06834
1282.62,0.07582
1276.83,0.07943
1271.04,0.07870
1265.26,0.07299
1259.47,0.05633
1253.68,0.04940
1247.9,0.07078
1242.11,0.08011
1236.33,0.08366
1230.54,0.08365
1224.75,0.07819
1218.97,0.07091
1213.18,0.07855
1207.39,0.08382
1201.61,0.08412
1195.82,0.08362
1190.04,0.08287
1184.25,0.07661
1178.46,0.05919
1172.68,0.03674
1166.89,0.02706
1161.1,0.03021
1155.32,0.03431
1149.53,0.04062
1143.75,0.05599
1137.96,0.07093
1132.17,0.08005
1126.39,0.08340
1120.6,0.08253
1114.81,0.07985
1109.03,0.07288
1103.24,0.06103
1097.46,0.07098
1091.67,0.08441
1085.88,0.09266
1080.1,0.09652
1074.31,0.09887
1068.52,0.09969
1062.74,0.09870
1056.95,0.09531
1051.17,0.08798
1045.38,0.07282
1039.59,0.08186
1033.81,0.09003
1028.02,0.09427
1022.24,0.09173
1016.45,0.08420
1010.66,0.07151
1004.88,0.04986
999.09,0.03316
993.304,0.04287
987.518,0.06042
981.731,0.05363
975.945,0.02955
970.159,0.03203
964.373,0.06298
958.586,0.08841
952.8,0.10198
947.014,0.10526
941.228,0.09325
935.441,0.11093
929.655,0.12588
923.869,0.12688
918.083,0.12546
912.297,0.11972
906.51,0.10242
900.724,0.06376
894.938,0.08140
889.152,0.10934
883.365,0.11618
877.579,0.11440
871.793,0.11264
866.007,0.11013
860.22,0.10204
854.434,0.09109
848.648,0.06994
842.862,0.04170
837.075,0.05292
831.289,0.08100
825.503,0.09583
819.717,0.09916
813.931,0.07847
808.144,0.05919
802.358,0.08723
796.572,0.10687
790.786,0.12160
784.999,0.13633
779.213,0.14663
773.427,0.14874
767.641,0.14955
761.854,0.15041
756.068,0.15028
750.282,0.15171
744.496,0.15166
738.709,0.15036
732.923,0.14570
727.137,0.13982
721.351,0.13417
715.565,0.14282
709.778,0.14735
703.992,0.14835
698.206,0.14954
692.42,0.15088
686.633,0.15163
680.847,0.15179
675.061,0.15146
669.275,0.15177
663.488,0.15131
657.702,0.15216
651.916,0.15297
646.13,0.15280
640.343,0.15379
634.557,0.15358
628.771,0.15381
622.985,0.15327
617.198,0.15362
611.412,0.15380
605.626,0.15392
599.84,0.15591