File: 01_Data/Polyolefin_Carpet_Low_Pile/FTIR/IS/Polyolefin_Carpet_Low_Pile_IS_S_220819_R5.dpt
7497.03,0.11210
7491.25,0.11365
7485.46,0.12228
7479.67,0.12116
7473.89,0.11808
7468.1,0.11782
7462.32,0.11890
7456.53,0.11887
7450.74,0.11351
7444.96,0.11814
7439.17,0.11659
7433.38,0.12494
7427.6,0.12120
7421.81,0.11603
7416.03,0.11704
7410.24,0.11705
7404.45,0.11303
7398.67,0.11546
7392.88,0.11177
7387.09,0.12112
7381.31,0.12100
7375.52,0.12408
7369.74,0.11998
7363.95,0.11913
7358.16,0.10981
7352.38,0.11205
7346.59,0.11407
7340.8,0.11828
7335.02,0.11643
7329.23,0.11599
7323.45,0.11985
7317.66,0.12212
7311.87,0.12203
7306.09,0.12226
7300.3,0.11856
7294.51,0.12378
7288.73,0.11867
7282.94,0.11130
7277.16,0.11357
7271.37,0.11490
7265.58,0.11951
7259.8,0.11523
7254.01,0.11318
7248.22,0.12044
7242.44,0.11949
7236.65,0.11841
7230.87,0.11687
7225.08,0.11769
7219.29,0.11442
7213.51,0.11463
7207.72,0.12004
7201.93,0.11938
7196.15,0.12162
7190.36,0.11364
7184.58,0.11629
7178.79,0.11525
7173,0.11416
7167.22,0.11709
7161.43,0.11401
7155.65,0.11811
7149.86,0.11516
7144.07,0.11527
7138.29,0.10745
7132.5,0.10824
7126.71,0.12367
7120.93,0.11963
7115.14,0.11036
7109.36,0.11509
7103.57,0.11685
7097.78,0.12129
7092,0.11118
7086.21,0.11519
7080.42,0.11387
7074.64,0.11772
7068.85,0.11881
7063.07,0.12108
7057.28,0.12033
7051.49,0.11795
7045.71,0.11363
7039.92,0.11933
7034.13,0.12151
7028.35,0.12003
7022.56,0.11719
7016.78,0.12063
7010.99,0.12168
7005.2,0.11778
6999.42,0.11578
6993.63,0.11868
6987.84,0.11660
6982.06,0.11686
6976.27,0.11475
6970.49,0.11326
6964.7,0.12057
6958.91,0.11686
6953.13,0.12227
6947.34,0.11900
6941.55,0.11382
6935.77,0.11382
6929.98,0.11695
6924.2,0.11732
6918.41,0.11848
6912.62,0.11716
6906.84,0.11666
6901.05,0.11567
6895.26,0.11465
6889.48,0.11636
6883.69,0.11591
6877.91,0.11761
6872.12,0.11468
6866.33,0.12028
6860.55,0.11629
6854.76,0.11700
6848.97,0.11699
6843.19,0.11705
6837.4,0.12004
6831.62,0.11771
6825.83,0.11735
6820.04,0.11679
6814.26,0.12090
6808.47,0.11971
6802.68,0.11490
6796.9,0.11498
6791.11,0.12008
6785.33,0.12044
6779.54,0.11636
6773.75,0.11892
6767.97,0.12255
6762.18,0.12216
6756.39,0.12594
6750.61,0.12130
6744.82,0.11507
6739.04,0.12136
6733.25,0.12029
6727.46,0.11977
6721.68,0.12175
6715.89,0.11714
6710.1,0.11459
6704.32,0.11887
6698.53,0.11903
6692.75,0.11751
6686.96,0.11742
6681.17,0.11659
6675.39,0.11974
6669.6,0.11814
6663.82,0.11715
6658.03,0.11943
6652.24,0.11771
6646.46,0.11982
6640.67,0.11739
6634.88,0.12043
6629.1,0.11954
6623.31,0.11816
6617.53,0.11750
6611.74,0.11790
6605.95,0.11845
6600.17,0.11723
6594.38,0.11787
6588.59,0.12299
6582.81,0.12037
6577.02,0.11610
6571.24,0.11832
6565.45,0.12095
6559.66,0.11750
6553.88,0.12124
6548.09,0.11691
6542.3,0.12119
6536.52,0.11979
6530.73,0.11565
6524.95,0.12158
6519.16,0.12098
6513.37,0.11940
6507.59,0.11814
6501.8,0.11815
6496.01,0.11577
6490.23,0.12173
6484.44,0.12134
6478.66,0.11593
6472.87,0.11739
6467.08,0.11964
6461.3,0.11836
6455.51,0.11866
6449.72,0.12209
6443.94,0.12116
6438.15,0.11884
6432.37,0.11625
6426.58,0.12042
6420.79,0.12151
6415.01,0.11987
6409.22,0.12083
6403.43,0.12228
6397.65,0.11715
6391.86,0.12055
6386.08,0.11918
6380.29,0.11768
6374.5,0.11628
6368.72,0.11799
6362.93,0.11960
6357.14,0.12318
6351.36,0.11659
6345.57,0.11972
6339.79,0.11868
6334,0.11915
6328.21,0.11689
6322.43,0.11915
6316.64,0.11828
6310.85,0.11984
6305.07,0.11873
6299.28,0.11930
6293.5,0.11929
6287.71,0.11759
6281.92,0.11794
6276.14,0.11595
6270.35,0.11899
6264.56,0.11627
6258.78,0.12160
6252.99,0.11837
6247.21,0.11827
6241.42,0.11912
6235.63,0.11975
6229.85,0.11953
6224.06,0.11904
6218.27,0.11761
6212.49,0.11808
6206.7,0.11801
6200.92,0.11892
6195.13,0.11757
6189.34,0.11776
6183.56,0.11827
6177.77,0.12080
6171.98,0.11639
6166.2,0.11825
6160.41,0.11723
6154.63,0.11901
6148.84,0.11917
6143.05,0.11883
6137.27,0.11641
6131.48,0.11957
6125.7,0.11816
6119.91,0.11805
6114.12,0.11990
6108.34,0.11871
6102.55,0.11809
6096.76,0.11819
6090.98,0.11810
6085.19,0.11979
6079.41,0.11904
6073.62,0.12072
6067.83,0.11818
6062.05,0.11749
6056.26,0.11799
6050.47,0.11901
6044.69,0.11663
6038.9,0.11642
6033.12,0.11696
6027.33,0.11906
6021.54,0.11802
6015.76,0.12122
6009.97,0.11697
6004.18,0.11751
5998.4,0.11849
5992.61,0.11647
5986.83,0.11694
5981.04,0.11838
5975.25,0.11816
5969.47,0.11679
5963.68,0.11567
5957.89,0.11511
5952.11,0.11510
5946.32,0.11698
5940.54,0.11503
5934.75,0.11338
5928.96,0.11312
5923.18,0.11111
5917.39,0.10749
5911.6,0.10766
5905.82,0.10395
5900.03,0.10509
5894.25,0.10484
5888.46,0.10479
5882.67,0.10504
5876.89,0.10242
5871.1,0.10196
5865.31,0.10090
5859.53,0.10089
5853.74,0.10184
5847.96,0.10132
5842.17,0.10434
5836.38,0.10282
5830.6,0.10307
5824.81,0.10396
5819.02,0.10227
5813.24,0.10046
5807.45,0.09957
5801.67,0.09858
5795.88,0.09862
5790.09,0.10135
5784.31,0.10019
5778.52,0.10297
5772.73,0.10180
5766.95,0.10136
5761.16,0.09989
5755.38,0.10066
5749.59,0.10136
5743.8,0.10372
5738.02,0.10656
5732.23,0.10622
5726.44,0.10687
5720.66,0.10789
5714.87,0.10964
5709.09,0.10909
5703.3,0.10808
5697.51,0.10594
5691.73,0.10856
5685.94,0.10847
5680.15,0.10838
5674.37,0.10808
5668.58,0.10873
5662.8,0.10849
5657.01,0.10834
5651.22,0.11036
5645.44,0.10778
5639.65,0.11001
5633.87,0.11106
5628.08,0.11200
5622.29,0.11070
5616.51,0.11147
5610.72,0.11132
5604.93,0.11230
5599.15,0.11244
5593.36,0.11310
5587.58,0.11170
5581.79,0.11257
5576,0.11222
5570.22,0.11086
5564.43,0.11206
5558.64,0.11183
5552.86,0.11170
5547.07,0.11262
5541.29,0.11310
5535.5,0.11389
5529.71,0.11266
5523.93,0.11177
5518.14,0.11029
5512.35,0.11148
5506.57,0.11123
5500.78,0.11173
5495,0.11093
5489.21,0.11288
5483.42,0.11346
5477.64,0.11251
5471.85,0.11309
5466.06,0.11290
5460.28,0.11199
5454.49,0.11320
5448.71,0.11290
5442.92,0.11316
5437.13,0.11442
5431.35,0.11415
5425.56,0.11279
5419.77,0.11441
5413.99,0.11435
5408.2,0.11574
5402.42,0.11584
5396.63,0.11512
5390.84,0.11541
5385.06,0.11639
5379.27,0.11628
5373.48,0.11642
5367.7,0.11549
5361.91,0.11566
5356.13,0.11717
5350.34,0.11807
5344.55,0.11545
5338.77,0.11642
5332.98,0.11570
5327.19,0.11649
5321.41,0.11749
5315.62,0.11612
5309.84,0.11674
5304.05,0.11684
5298.26,0.11543
5292.48,0.11531
5286.69,0.11780
5280.9,0.11633
5275.12,0.11665
5269.33,0.11589
5263.55,0.11612
5257.76,0.11594
5251.97,0.11802
5246.19,0.11783
5240.4,0.11799
5234.61,0.11557
5228.83,0.11490
5223.04,0.11618
5217.26,0.11746
5211.47,0.11609
5205.68,0.11547
5199.9,0.11772
5194.11,0.11664
5188.32,0.11810
5182.54,0.11717
5176.75,0.11835
5170.97,0.11688
5165.18,0.11716
5159.39,0.11638
5153.61,0.11582
5147.82,0.11664
5142.03,0.11682
5136.25,0.11708
5130.46,0.11748
5124.68,0.11813
5118.89,0.11824
5113.1,0.11733
5107.32,0.11788
5101.53,0.11827
5095.75,0.11890
5089.96,0.11697
5084.17,0.11705
5078.39,0.11758
5072.6,0.11792
5066.81,0.11883
5061.03,0.11816
5055.24,0.11712
5049.46,0.11759
5043.67,0.11831
5037.88,0.11877
5032.1,0.11704
5026.31,0.11933
5020.52,0.11935
5014.74,0.11905
5008.95,0.11969
5003.17,0.11904
4997.38,0.12006
4991.59,0.11967
4985.81,0.11995
4980.02,0.11980
4974.23,0.11906
4968.45,0.11904
4962.66,0.11991
4956.88,0.12032
4951.09,0.12067
4945.3,0.11977
4939.52,0.11970
4933.73,0.12030
4927.94,0.11941
4922.16,0.12085
4916.37,0.12055
4910.59,0.12096
4904.8,0.12085
4899.01,0.11984
4893.23,0.12069
4887.44,0.12003
4881.65,0.12047
4875.87,0.12060
4870.08,0.12050
4864.3,0.11915
4858.51,0.12048
4852.72,0.12114
4846.94,0.12048
4841.15,0.11980
4835.36,0.11977
4829.58,0.12061
4823.79,0.12102
4818.01,0.12068
4812.22,0.12008
4806.43,0.12101
4800.65,0.11948
4794.86,0.12004
4789.07,0.11904
4783.29,0.12095
4777.5,0.12116
4771.72,0.12057
4765.93,0.11990
4760.14,0.12012
4754.36,0.12187
4748.57,0.12154
4742.78,0.12064
4737,0.12101
4731.21,0.12051
4725.43,0.12176
4719.64,0.12125
4713.85,0.12082
4708.07,0.12195
4702.28,0.12098
4696.49,0.12086
4690.71,0.12206
4684.92,0.12084
4679.14,0.12045
4673.35,0.12045
4667.56,0.12057
4661.78,0.12046
4655.99,0.12050
4650.2,0.11974
4644.42,0.12013
4638.63,0.12049
4632.85,0.11973
4627.06,0.11952
4621.27,0.12054
4615.49,0.11999
4609.7,0.12054
4603.92,0.12041
4598.13,0.12050
4592.34,0.11929
4586.56,0.11944
4580.77,0.11896
4574.98,0.11824
4569.2,0.11843
4563.41,0.11885
4557.63,0.11943
4551.84,0.11861
4546.05,0.11823
4540.27,0.11915
4534.48,0.11898
4528.69,0.11940
4522.91,0.11855
4517.12,0.11918
4511.34,0.11862
4505.55,0.11818
4499.76,0.11811
4493.98,0.11788
4488.19,0.11846
4482.4,0.11850
4476.62,0.11788
4470.83,0.11811
4465.05,0.11718
4459.26,0.11575
4453.47,0.11524
4447.69,0.11387
4441.9,0.11172
4436.11,0.10924
4430.33,0.10606
4424.54,0.10028
4418.76,0.09530
4412.97,0.09005
4407.18,0.08661
4401.4,0.08301
4395.61,0.07647
4389.82,0.07428
4384.04,0.07741
4378.25,0.08083
4372.47,0.08345
4366.68,0.08432
4360.89,0.08661
4355.11,0.08678
4349.32,0.08292
4343.53,0.07635
4337.75,0.06810
4331.96,0.06170
4326.18,0.05833
4320.39,0.05826
4314.6,0.06155
4308.82,0.06346
4303.03,0.06839
4297.24,0.07196
4291.46,0.07407
4285.67,0.07344
4279.89,0.07369
4274.1,0.07438
4268.31,0.07430
4262.53,0.07211
4256.74,0.06980
4250.95,0.06583
4245.17,0.06159
4239.38,0.06233
4233.6,0.06662
4227.81,0.06892
4222.02,0.06964
4216.24,0.06944
4210.45,0.07133
4204.66,0.07272
4198.88,0.07435
4193.09,0.07758
4187.31,0.07902
4181.52,0.07755
4175.73,0.07557
4169.95,0.07363
4164.16,0.07483
4158.37,0.07622
4152.59,0.07738
4146.8,0.07951
4141.02,0.08033
4135.23,0.08047
4129.44,0.07949
4123.66,0.07834
4117.87,0.07746
4112.09,0.07855
4106.3,0.08098
4100.51,0.08294
4094.73,0.08394
4088.94,0.08371
4083.15,0.08109
4077.37,0.07717
4071.58,0.07452
4065.8,0.07085
4060.01,0.06874
4054.22,0.07180
4048.44,0.07829
4042.65,0.08251
4036.86,0.08521
4031.08,0.08640
4025.29,0.08719
4019.51,0.08849
4013.72,0.08995
4007.93,0.09124
4002.15,0.09222
3996.36,0.09068
3990.57,0.09078
3984.79,0.09302
3979,0.09478
3973.22,0.09553
3967.43,0.09633
3961.64,0.09671
3955.86,0.09820
3950.07,0.09917
3944.28,0.09829
3938.5,0.09824
3932.71,0.09781
3926.93,0.09771
3921.14,0.09761
3915.35,0.09898
3909.57,0.09851
3903.78,0.09957
3897.99,0.09965
3892.21,0.09981
3886.42,0.10035
3880.64,0.09983
3874.85,0.10030
3869.06,0.10172
3863.28,0.10216
3857.49,0.10240
3851.7,0.10272
3845.92,0.10322
3840.13,0.10319
3834.35,0.10232
3828.56,0.10246
3822.77,0.10271
3816.99,0.10192
3811.2,0.10191
3805.41,0.10256
3799.63,0.10337
3793.84,0.10402
3788.06,0.10428
3782.27,0.10541
3776.48,0.10403
3770.7,0.10326
3764.91,0.10157
3759.12,0.10236
3753.34,0.10301
3747.55,0.10438
3741.77,0.10491
3735.98,0.10680
3730.19,0.10703
3724.41,0.10725
3718.62,0.10699
3712.83,0.10748
3707.05,0.10726
3701.26,0.10756
3695.48,0.10694
3689.69,0.10738
3683.9,0.10810
3678.12,0.10887
3672.33,0.11031
3666.54,0.11192
3660.76,0.11274
3654.97,0.11239
3649.19,0.11333
3643.4,0.11176
3637.61,0.11102
3631.83,0.11025
3626.04,0.11213
3620.25,0.11325
3614.47,0.11362
3608.68,0.11371
3602.9,0.11317
3597.11,0.11384
3591.32,0.11351
3585.54,0.11365
3579.75,0.11263
3573.97,0.11236
3568.18,0.11191
3562.39,0.11111
3556.61,0.11069
3550.82,0.11023
3545.03,0.10962
3539.25,0.10873
3533.46,0.10862
3527.68,0.10814
3521.89,0.10769
3516.1,0.10737
3510.32,0.10629
3504.53,0.10602
3498.74,0.10578
3492.96,0.10494
3487.17,0.10480
3481.39,0.10423
3475.6,0.10319
3469.81,0.10189
3464.03,0.10141
3458.24,0.10025
3452.45,0.09905
3446.67,0.09784
3440.88,0.09662
3435.1,0.09539
3429.31,0.09398
3423.52,0.09299
3417.74,0.09171
3411.95,0.09098
3406.16,0.09177
3400.38,0.09324
3394.59,0.09402
3388.81,0.09315
3383.02,0.09258
3377.23,0.09123
3371.45,0.09036
3365.66,0.09067
3359.87,0.08878
3354.09,0.08840
3348.3,0.08781
3342.52,0.08825
3336.73,0.08920
3330.94,0.09125
3325.16,0.09241
3319.37,0.09379
3313.58,0.09261
3307.8,0.09281
3302.01,0.09118
3296.23,0.09040
3290.44,0.09064
3284.65,0.09042
3278.87,0.09112
3273.08,0.09054
3267.29,0.09086
3261.51,0.09192
3255.72,0.09201
3249.94,0.09157
3244.15,0.09052
3238.36,0.08887
3232.58,0.08736
3226.79,0.08210
3221,0.07743
3215.22,0.07369
3209.43,0.06997
3203.65,0.06730
3197.86,0.06460
3192.07,0.06396
3186.29,0.06475
3180.5,0.06508
3174.71,0.06713
3168.93,0.06804
3163.14,0.06844
3157.36,0.06732
3151.57,0.06611
3145.78,0.06540
3140,0.06534
3134.21,0.06528
3128.42,0.06716
3122.64,0.06979
3116.85,0.07018
3111.07,0.07113
3105.28,0.07199
3099.49,0.07188
3093.71,0.07244
3087.92,0.07221
3082.14,0.07122
3076.35,0.07080
3070.56,0.06963
3064.78,0.06731
3058.99,0.06563
3053.2,0.06361
3047.42,0.06273
3041.63,0.06080
3035.85,0.05873
3030.06,0.05537
3024.27,0.05097
3018.49,0.04576
3012.7,0.04033
3006.91,0.03507
3001.13,0.02968
2995.34,0.02415
2989.56,0.02058
2983.77,0.01764
2977.98,0.01651
2972.2,0.01494
2966.41,0.01519
2960.62,0.01680
2954.84,0.01731
2949.05,0.01738
2943.27,0.01800
2937.48,0.01669
2931.69,0.01620
2925.91,0.01718
2920.12,0.01800
2914.33,0.01888
2908.55,0.01900
2902.76,0.01867
2896.98,0.01858
2891.19,0.01855
2885.4,0.01864
2879.62,0.01833
2873.83,0.01860
2868.04,0.01833
2862.26,0.01883
2856.47,0.01930
2850.69,0.01865
2844.9,0.01841
2839.11,0.01864
2833.33,0.01926
2827.54,0.01965
2821.75,0.02129
2815.97,0.02299
2810.18,0.02415
2804.4,0.02653
2798.61,0.02999
2792.82,0.03213
2787.04,0.03732
2781.25,0.04413
2775.46,0.04963
2769.68,0.05194
2763.89,0.05319
2758.11,0.05552
2752.32,0.05658
2746.53,0.05525
2740.75,0.05163
2734.96,0.04646
2729.17,0.04217
2723.39,0.03702
2717.6,0.04109
2711.82,0.04780
2706.03,0.05249
2700.24,0.05637
2694.46,0.05809
2688.67,0.05763
2682.88,0.05744
2677.1,0.05723
2671.31,0.05874
2665.53,0.05947
2659.74,0.05906
2653.95,0.06163
2648.17,0.06432
2642.38,0.06623
2636.59,0.06869
2630.81,0.06785
2625.02,0.06475
2619.24,0.06310
2613.45,0.06339
2607.66,0.06781
2601.88,0.07247
2596.09,0.07354
2590.3,0.06966
2584.52,0.06450
2578.73,0.06416
2572.95,0.07010
2567.16,0.07543
2561.37,0.07834
2555.59,0.07915
2549.8,0.08180
2544.02,0.08527
2538.23,0.08652
2532.44,0.08825
2526.66,0.09138
2520.87,0.09463
2515.08,0.09745
2509.3,0.09910
2503.51,0.10025
2497.73,0.10001
2491.94,0.09929
2486.15,0.10081
2480.37,0.10249
2474.58,0.10423
2468.79,0.10553
2463.01,0.10521
2457.22,0.10420
2451.44,0.10378
2445.65,0.10212
2439.86,0.10021
2434.08,0.09592
2428.29,0.09459
2422.5,0.09676
2416.72,0.09963
2410.93,0.10007
2405.15,0.09932
2399.36,0.09802
2393.57,0.09908
2387.79,0.10157
2382,0.10217
2376.21,0.10157
2370.43,0.10141
2364.64,0.10012
2358.86,0.10012
2353.07,0.10184
2347.28,0.10472
2341.5,0.10643
2335.71,0.10738
2329.92,0.10933
2324.14,0.11125
2318.35,0.11426
2312.57,0.11591
2306.78,0.11604
2300.99,0.11576
2295.21,0.11589
2289.42,0.11647
2283.63,0.11753
2277.85,0.11582
2272.06,0.11376
2266.28,0.11193
2260.49,0.11072
2254.7,0.10940
2248.92,0.11262
2243.13,0.11588
2237.34,0.11610
2231.56,0.11541
2225.77,0.11615
2219.99,0.11762
2214.2,0.11770
2208.41,0.11691
2202.63,0.11594
2196.84,0.11506
2191.05,0.11494
2185.27,0.11407
2179.48,0.11388
2173.7,0.11276
2167.91,0.11356
2162.12,0.11631
2156.34,0.11818
2150.55,0.12054
2144.76,0.12209
2138.98,0.11967
2133.19,0.11589
2127.41,0.11754
2121.62,0.12435
2115.83,0.12871
2110.05,0.13058
2104.26,0.13114
2098.47,0.13133
2092.69,0.13139
2086.9,0.13193
2081.12,0.13489
2075.33,0.13793
2069.54,0.13941
2063.76,0.14036
2057.97,0.13995
2052.19,0.13929
2046.4,0.13934
2040.61,0.13960
2034.83,0.13910
2029.04,0.13858
2023.25,0.13958
2017.47,0.14025
2011.68,0.14055
2005.9,0.14063
2000.11,0.13992
1994.32,0.13910
1988.54,0.13927
1982.75,0.13995
1976.96,0.14037
1971.18,0.14003
1965.39,0.13912
1959.61,0.13804
1953.82,0.13789
1948.03,0.13808
1942.25,0.13788
1936.46,0.13807
1930.67,0.13793
1924.89,0.13726
1919.1,0.13592
1913.32,0.13521
1907.53,0.13508
1901.74,0.13384
1895.96,0.13144
1890.17,0.13131
1884.38,0.13424
1878.6,0.13565
1872.81,0.13607
1867.03,0.13589
1861.24,0.13534
1855.45,0.13377
1849.67,0.13339
1843.88,0.13228
1838.09,0.13085
1832.31,0.12928
1826.52,0.13028
1820.74,0.13236
1814.95,0.13329
1809.16,0.13364
1803.38,0.13271
1797.59,0.13081
1791.8,0.12996
1786.02,0.12902
1780.23,0.12800
1774.45,0.12655
1768.66,0.12362
1762.87,0.12036
1757.09,0.11630
1751.3,0.10959
1745.51,0.10094
1739.73,0.09758
1733.94,0.09996
1728.16,0.10275
1722.37,0.10507
1716.58,0.10554
1710.8,0.10469
1705.01,0.10312
1699.22,0.10204
1693.44,0.10096
1687.65,0.10042
1681.87,0.10087
1676.08,0.10144
1670.29,0.10162
1664.51,0.10123
1658.72,0.09996
1652.93,0.09624
1647.15,0.09033
1641.36,0.09153
1635.58,0.09407
1629.79,0.09515
1624,0.09582
1618.22,0.09684
1612.43,0.09603
1606.64,0.09605
1600.86,0.09971
1595.07,0.10208
1589.29,0.10307
1583.5,0.10373
1577.71,0.10357
1571.93,0.10260
1566.14,0.10118
1560.35,0.09861
1554.57,0.09569
1548.78,0.09415
1543,0.09229
1537.21,0.08900
1531.42,0.08841
1525.64,0.08852
1519.85,0.08798
1514.07,0.08584
1508.28,0.08077
1502.49,0.07431
1496.71,0.06675
1490.92,0.05788
1485.13,0.04640
1479.35,0.03354
1473.56,0.02209
1467.78,0.01720
1461.99,0.01713
1456.2,0.01747
1450.42,0.01770
1444.63,0.01912
1438.84,0.02114
1433.06,0.02729
1427.27,0.04241
1421.49,0.04988
1415.7,0.05395
1409.91,0.05555
1404.13,0.05451
1398.34,0.05035
1392.55,0.04231
1386.77,0.02698
1380.98,0.01739
1375.2,0.01824
1369.41,0.02226
1363.62,0.02541
1357.84,0.02472
1352.05,0.03487
1346.26,0.04909
1340.48,0.05867
1334.69,0.05778
1328.91,0.05175
1323.12,0.06089
1317.33,0.06991
1311.55,0.06821
1305.76,0.04557
1299.97,0.04793
1294.19,0.05570
1288.4,0.06785
1282.62,0.07558
1276.83,0.07951
1271.04,0.07890
1265.26,0.07273
1259.47,0.05622
1253.68,0.04960
1247.9,0.07065
1242.11,0.08036
1236.33,0.08348
1230.54,0.08347
1224.75,0.07858
1218.97,0.07123
1213.18,0.07837
1207.39,0.08342
1201.61,0.08397
1195.82,0.08357
1190.04,0.08252
1184.25,0.07582
1178.46,0.05995
1172.68,0.03692
1166.89,0.02726
1161.1,0.03060
1155.32,0.03434
1149.53,0.04038
1143.75,0.05584
1137.96,0.07087
1132.17,0.07984
1126.39,0.08360
1120.6,0.08256
1114.81,0.08055
1109.03,0.07292
1103.24,0.06042
1097.46,0.07136
1091.67,0.08473
1085.88,0.09164
1080.1,0.09671
1074.31,0.09875
1068.52,0.09900
1062.74,0.09928
1056.95,0.09607
1051.17,0.08787
1045.38,0.07300
1039.59,0.08091
1033.81,0.08980
1028.02,0.09412
1022.24,0.09129
1016.45,0.08447
1010.66,0.07248
1004.88,0.05000
999.09,0.03369
993.304,0.04170
987.518,0.06051
981.731,0.05285
975.945,0.02888
970.159,0.03266
964.373,0.06265
958.586,0.08843
952.8,0.10214
947.014,0.10458
941.228,0.09362
935.441,0.11039
929.655,0.12552
923.869,0.12737
918.083,0.12578
912.297,0.11971
906.51,0.10248
900.724,0.06455
894.938,0.08126
889.152,0.10902
883.365,0.11545
877.579,0.11440
871.793,0.11237
866.007,0.10934
860.22,0.10214
854.434,0.09065
848.648,0.07089
842.862,0.04217
837.075,0.05289
831.289,0.08084
825.503,0.09585
819.717,0.09826
813.931,0.07912
808.144,0.05979
802.358,0.08791
796.572,0.10742
790.786,0.12204
784.999,0.13632
779.213,0.14655
773.427,0.14918
767.641,0.14923
761.854,0.15050
756.068,0.15064
750.282,0.15149
744.496,0.15179
738.709,0.14995
732.923,0.14645
727.137,0.13925
721.351,0.13300
715.565,0.14302
709.778,0.14856
703.992,0.14860
698.206,0.14885
692.42,0.14984
686.633,0.15226
680.847,0.15255
675.061,0.15116
669.275,0.15193
663.488,0.15320
657.702,0.15124
651.916,0.15369
646.13,0.15380
640.343,0.15405
634.557,0.15634
628.771,0.15506
622.985,0.15311
617.198,0.15344
611.412,0.15319
605.626,0.15375
599.84,0.15401