File: 01_Data/Polyolefin_Carpet_Low_Pile/FTIR/IS/Polyolefin_Carpet_Low_Pile_IS_S_220819_R1.dpt
7497.03,0.12729
7491.25,0.12322
7485.46,0.11482
7479.67,0.11940
7473.89,0.11761
7468.1,0.12090
7462.32,0.12168
7456.53,0.12224
7450.74,0.12310
7444.96,0.11668
7439.17,0.11285
7433.38,0.12027
7427.6,0.11929
7421.81,0.11938
7416.03,0.11807
7410.24,0.12687
7404.45,0.11789
7398.67,0.11610
7392.88,0.11819
7387.09,0.11822
7381.31,0.12139
7375.52,0.12402
7369.74,0.11894
7363.95,0.11920
7358.16,0.11568
7352.38,0.12065
7346.59,0.11969
7340.8,0.10962
7335.02,0.11136
7329.23,0.11114
7323.45,0.11600
7317.66,0.11763
7311.87,0.12164
7306.09,0.11560
7300.3,0.11708
7294.51,0.11436
7288.73,0.11484
7282.94,0.11667
7277.16,0.11730
7271.37,0.11829
7265.58,0.11345
7259.8,0.11522
7254.01,0.11443
7248.22,0.11092
7242.44,0.12369
7236.65,0.11559
7230.87,0.11782
7225.08,0.11651
7219.29,0.11376
7213.51,0.11948
7207.72,0.12032
7201.93,0.11987
7196.15,0.11917
7190.36,0.11823
7184.58,0.12129
7178.79,0.12022
7173,0.11867
7167.22,0.11702
7161.43,0.11495
7155.65,0.11659
7149.86,0.11911
7144.07,0.11147
7138.29,0.11486
7132.5,0.11772
7126.71,0.12455
7120.93,0.11672
7115.14,0.11634
7109.36,0.12529
7103.57,0.11593
7097.78,0.11218
7092,0.11507
7086.21,0.11439
7080.42,0.11030
7074.64,0.11204
7068.85,0.12054
7063.07,0.11582
7057.28,0.11941
7051.49,0.12006
7045.71,0.11545
7039.92,0.11973
7034.13,0.11252
7028.35,0.11367
7022.56,0.11396
7016.78,0.12092
7010.99,0.12150
7005.2,0.11486
6999.42,0.12204
6993.63,0.11673
6987.84,0.11288
6982.06,0.11977
6976.27,0.11787
6970.49,0.11623
6964.7,0.11849
6958.91,0.11526
6953.13,0.11725
6947.34,0.11933
6941.55,0.11393
6935.77,0.11593
6929.98,0.11942
6924.2,0.11509
6918.41,0.11902
6912.62,0.11697
6906.84,0.11528
6901.05,0.12116
6895.26,0.11548
6889.48,0.12095
6883.69,0.12324
6877.91,0.11786
6872.12,0.12311
6866.33,0.11816
6860.55,0.11436
6854.76,0.11542
6848.97,0.11783
6843.19,0.11510
6837.4,0.11298
6831.62,0.11820
6825.83,0.11495
6820.04,0.12207
6814.26,0.11979
6808.47,0.11875
6802.68,0.12287
6796.9,0.11652
6791.11,0.12111
6785.33,0.11727
6779.54,0.11737
6773.75,0.11816
6767.97,0.11772
6762.18,0.11539
6756.39,0.11145
6750.61,0.11550
6744.82,0.12150
6739.04,0.11696
6733.25,0.12139
6727.46,0.11842
6721.68,0.12108
6715.89,0.11617
6710.1,0.11801
6704.32,0.11827
6698.53,0.11884
6692.75,0.11953
6686.96,0.11971
6681.17,0.11991
6675.39,0.11518
6669.6,0.11918
6663.82,0.11501
6658.03,0.12090
6652.24,0.11872
6646.46,0.11843
6640.67,0.11876
6634.88,0.12043
6629.1,0.12053
6623.31,0.11886
6617.53,0.11579
6611.74,0.11604
6605.95,0.12173
6600.17,0.11908
6594.38,0.12016
6588.59,0.12344
6582.81,0.12332
6577.02,0.12224
6571.24,0.12173
6565.45,0.11679
6559.66,0.12058
6553.88,0.12175
6548.09,0.11616
6542.3,0.12081
6536.52,0.11983
6530.73,0.11660
6524.95,0.12008
6519.16,0.12038
6513.37,0.12089
6507.59,0.12483
6501.8,0.12018
6496.01,0.11747
6490.23,0.12085
6484.44,0.11991
6478.66,0.12343
6472.87,0.12086
6467.08,0.11838
6461.3,0.12156
6455.51,0.11740
6449.72,0.11720
6443.94,0.12034
6438.15,0.12261
6432.37,0.11918
6426.58,0.11800
6420.79,0.11945
6415.01,0.11897
6409.22,0.12041
6403.43,0.11960
6397.65,0.11958
6391.86,0.11723
6386.08,0.12025
6380.29,0.11781
6374.5,0.11764
6368.72,0.11896
6362.93,0.11716
6357.14,0.11785
6351.36,0.12059
6345.57,0.11762
6339.79,0.11925
6334,0.11798
6328.21,0.11722
6322.43,0.11912
6316.64,0.11953
6310.85,0.12045
6305.07,0.11847
6299.28,0.11662
6293.5,0.11982
6287.71,0.11785
6281.92,0.11739
6276.14,0.11860
6270.35,0.12129
6264.56,0.11653
6258.78,0.11896
6252.99,0.12103
6247.21,0.11871
6241.42,0.11998
6235.63,0.12101
6229.85,0.11747
6224.06,0.11809
6218.27,0.12155
6212.49,0.11914
6206.7,0.11859
6200.92,0.11817
6195.13,0.12043
6189.34,0.11626
6183.56,0.11890
6177.77,0.12140
6171.98,0.11986
6166.2,0.11947
6160.41,0.11953
6154.63,0.11952
6148.84,0.11932
6143.05,0.11843
6137.27,0.11970
6131.48,0.11823
6125.7,0.11895
6119.91,0.11716
6114.12,0.11883
6108.34,0.11777
6102.55,0.11933
6096.76,0.11902
6090.98,0.11789
6085.19,0.11868
6079.41,0.11854
6073.62,0.11879
6067.83,0.11840
6062.05,0.12056
6056.26,0.11820
6050.47,0.11820
6044.69,0.11812
6038.9,0.11880
6033.12,0.11821
6027.33,0.11695
6021.54,0.11808
6015.76,0.11643
6009.97,0.11815
6004.18,0.11929
5998.4,0.11791
5992.61,0.11852
5986.83,0.11795
5981.04,0.11721
5975.25,0.11614
5969.47,0.11708
5963.68,0.11878
5957.89,0.11676
5952.11,0.11669
5946.32,0.11657
5940.54,0.11583
5934.75,0.11507
5928.96,0.11417
5923.18,0.11088
5917.39,0.11074
5911.6,0.10868
5905.82,0.10676
5900.03,0.10617
5894.25,0.10504
5888.46,0.10780
5882.67,0.10675
5876.89,0.10556
5871.1,0.10134
5865.31,0.10121
5859.53,0.10067
5853.74,0.09858
5847.96,0.10150
5842.17,0.10208
5836.38,0.10309
5830.6,0.10426
5824.81,0.10469
5819.02,0.10262
5813.24,0.10226
5807.45,0.10004
5801.67,0.10070
5795.88,0.10154
5790.09,0.10375
5784.31,0.10444
5778.52,0.10442
5772.73,0.10059
5766.95,0.10269
5761.16,0.10151
5755.38,0.10232
5749.59,0.10292
5743.8,0.10614
5738.02,0.10673
5732.23,0.10640
5726.44,0.10551
5720.66,0.10844
5714.87,0.10774
5709.09,0.10972
5703.3,0.10953
5697.51,0.10858
5691.73,0.10931
5685.94,0.10891
5680.15,0.11079
5674.37,0.10898
5668.58,0.11058
5662.8,0.10975
5657.01,0.10939
5651.22,0.10903
5645.44,0.10989
5639.65,0.11200
5633.87,0.10995
5628.08,0.11100
5622.29,0.11202
5616.51,0.11033
5610.72,0.11179
5604.93,0.11206
5599.15,0.11195
5593.36,0.11309
5587.58,0.11403
5581.79,0.11507
5576,0.11263
5570.22,0.11168
5564.43,0.11080
5558.64,0.11347
5552.86,0.11267
5547.07,0.11335
5541.29,0.11253
5535.5,0.11180
5529.71,0.11230
5523.93,0.11344
5518.14,0.11211
5512.35,0.11255
5506.57,0.11300
5500.78,0.11348
5495,0.11336
5489.21,0.11218
5483.42,0.11098
5477.64,0.11280
5471.85,0.11264
5466.06,0.11247
5460.28,0.11291
5454.49,0.11379
5448.71,0.11332
5442.92,0.11406
5437.13,0.11290
5431.35,0.11439
5425.56,0.11672
5419.77,0.11520
5413.99,0.11625
5408.2,0.11638
5402.42,0.11618
5396.63,0.11569
5390.84,0.11576
5385.06,0.11583
5379.27,0.11706
5373.48,0.11637
5367.7,0.11827
5361.91,0.11707
5356.13,0.11808
5350.34,0.11661
5344.55,0.11699
5338.77,0.11722
5332.98,0.11841
5327.19,0.11787
5321.41,0.11540
5315.62,0.11576
5309.84,0.11765
5304.05,0.11704
5298.26,0.11841
5292.48,0.11600
5286.69,0.11661
5280.9,0.11705
5275.12,0.11764
5269.33,0.11655
5263.55,0.11664
5257.76,0.11728
5251.97,0.11851
5246.19,0.11817
5240.4,0.11587
5234.61,0.11730
5228.83,0.11763
5223.04,0.11826
5217.26,0.11737
5211.47,0.11703
5205.68,0.11859
5199.9,0.11860
5194.11,0.11700
5188.32,0.11666
5182.54,0.11834
5176.75,0.11749
5170.97,0.11847
5165.18,0.11836
5159.39,0.11872
5153.61,0.11817
5147.82,0.11839
5142.03,0.11804
5136.25,0.11798
5130.46,0.11816
5124.68,0.11790
5118.89,0.11796
5113.1,0.11867
5107.32,0.11851
5101.53,0.11849
5095.75,0.11880
5089.96,0.11825
5084.17,0.11847
5078.39,0.11795
5072.6,0.11698
5066.81,0.11735
5061.03,0.11918
5055.24,0.11748
5049.46,0.11787
5043.67,0.11817
5037.88,0.11919
5032.1,0.11920
5026.31,0.11819
5020.52,0.11870
5014.74,0.11949
5008.95,0.11913
5003.17,0.11992
4997.38,0.12038
4991.59,0.11974
4985.81,0.12061
4980.02,0.11953
4974.23,0.11996
4968.45,0.12028
4962.66,0.12010
4956.88,0.11990
4951.09,0.11977
4945.3,0.12144
4939.52,0.12042
4933.73,0.12052
4927.94,0.12066
4922.16,0.12078
4916.37,0.12072
4910.59,0.12111
4904.8,0.12154
4899.01,0.12159
4893.23,0.12209
4887.44,0.12060
4881.65,0.12036
4875.87,0.12151
4870.08,0.12112
4864.3,0.12178
4858.51,0.12225
4852.72,0.12093
4846.94,0.12144
4841.15,0.12104
4835.36,0.12105
4829.58,0.12181
4823.79,0.12118
4818.01,0.12109
4812.22,0.12091
4806.43,0.12113
4800.65,0.12101
4794.86,0.12214
4789.07,0.12173
4783.29,0.12204
4777.5,0.12211
4771.72,0.12236
4765.93,0.12185
4760.14,0.12172
4754.36,0.12214
4748.57,0.12216
4742.78,0.12155
4737,0.12204
4731.21,0.12224
4725.43,0.12185
4719.64,0.12222
4713.85,0.12142
4708.07,0.12235
4702.28,0.12217
4696.49,0.12220
4690.71,0.12251
4684.92,0.12257
4679.14,0.12206
4673.35,0.12194
4667.56,0.12129
4661.78,0.12158
4655.99,0.12035
4650.2,0.12018
4644.42,0.12082
4638.63,0.12047
4632.85,0.12154
4627.06,0.12012
4621.27,0.11987
4615.49,0.12107
4609.7,0.12101
4603.92,0.12119
4598.13,0.12068
4592.34,0.12030
4586.56,0.11946
4580.77,0.11930
4574.98,0.11940
4569.2,0.11905
4563.41,0.11924
4557.63,0.11910
4551.84,0.11914
4546.05,0.12065
4540.27,0.11980
4534.48,0.12048
4528.69,0.12025
4522.91,0.11997
4517.12,0.11970
4511.34,0.11955
4505.55,0.11925
4499.76,0.11967
4493.98,0.11810
4488.19,0.11889
4482.4,0.11833
4476.62,0.11932
4470.83,0.11895
4465.05,0.11796
4459.26,0.11669
4453.47,0.11575
4447.69,0.11460
4441.9,0.11329
4436.11,0.10964
4430.33,0.10611
4424.54,0.10154
4418.76,0.09594
4412.97,0.09155
4407.18,0.08677
4401.4,0.08202
4395.61,0.07632
4389.82,0.07519
4384.04,0.07893
4378.25,0.08169
4372.47,0.08467
4366.68,0.08649
4360.89,0.08747
4355.11,0.08660
4349.32,0.08350
4343.53,0.07732
4337.75,0.06918
4331.96,0.06161
4326.18,0.05859
4320.39,0.05961
4314.6,0.06227
4308.82,0.06410
4303.03,0.06843
4297.24,0.07250
4291.46,0.07443
4285.67,0.07508
4279.89,0.07398
4274.1,0.07503
4268.31,0.07438
4262.53,0.07326
4256.74,0.06995
4250.95,0.06641
4245.17,0.06308
4239.38,0.06291
4233.6,0.06599
4227.81,0.06981
4222.02,0.07008
4216.24,0.06998
4210.45,0.07139
4204.66,0.07187
4198.88,0.07493
4193.09,0.07852
4187.31,0.07979
4181.52,0.07841
4175.73,0.07644
4169.95,0.07496
4164.16,0.07504
4158.37,0.07752
4152.59,0.07821
4146.8,0.08030
4141.02,0.08151
4135.23,0.08159
4129.44,0.08070
4123.66,0.07883
4117.87,0.07821
4112.09,0.07930
4106.3,0.08188
4100.51,0.08415
4094.73,0.08516
4088.94,0.08414
4083.15,0.08176
4077.37,0.07818
4071.58,0.07448
4065.8,0.07131
4060.01,0.06887
4054.22,0.07243
4048.44,0.07876
4042.65,0.08361
4036.86,0.08600
4031.08,0.08683
4025.29,0.08750
4019.51,0.08895
4013.72,0.09092
4007.93,0.09219
4002.15,0.09222
3996.36,0.09103
3990.57,0.09149
3984.79,0.09352
3979,0.09517
3973.22,0.09632
3967.43,0.09664
3961.64,0.09758
3955.86,0.09845
3950.07,0.10001
3944.28,0.09934
3938.5,0.09881
3932.71,0.09837
3926.93,0.09832
3921.14,0.09808
3915.35,0.09980
3909.57,0.10046
3903.78,0.10090
3897.99,0.09969
3892.21,0.10049
3886.42,0.10078
3880.64,0.10089
3874.85,0.10116
3869.06,0.10134
3863.28,0.10195
3857.49,0.10392
3851.7,0.10390
3845.92,0.10398
3840.13,0.10342
3834.35,0.10319
3828.56,0.10324
3822.77,0.10342
3816.99,0.10257
3811.2,0.10308
3805.41,0.10370
3799.63,0.10423
3793.84,0.10477
3788.06,0.10529
3782.27,0.10522
3776.48,0.10431
3770.7,0.10335
3764.91,0.10212
3759.12,0.10260
3753.34,0.10391
3747.55,0.10576
3741.77,0.10606
3735.98,0.10648
3730.19,0.10745
3724.41,0.10815
3718.62,0.10832
3712.83,0.10820
3707.05,0.10850
3701.26,0.10816
3695.48,0.10745
3689.69,0.10803
3683.9,0.10802
3678.12,0.10960
3672.33,0.11075
3666.54,0.11260
3660.76,0.11348
3654.97,0.11362
3649.19,0.11332
3643.4,0.11299
3637.61,0.11100
3631.83,0.11053
3626.04,0.11250
3620.25,0.11402
3614.47,0.11409
3608.68,0.11400
3602.9,0.11380
3597.11,0.11419
3591.32,0.11390
3585.54,0.11376
3579.75,0.11339
3573.97,0.11261
3568.18,0.11269
3562.39,0.11185
3556.61,0.11134
3550.82,0.11109
3545.03,0.11060
3539.25,0.11013
3533.46,0.10870
3527.68,0.10855
3521.89,0.10793
3516.1,0.10754
3510.32,0.10648
3504.53,0.10692
3498.74,0.10643
3492.96,0.10623
3487.17,0.10514
3481.39,0.10419
3475.6,0.10382
3469.81,0.10352
3464.03,0.10197
3458.24,0.10079
3452.45,0.10009
3446.67,0.09764
3440.88,0.09737
3435.1,0.09561
3429.31,0.09494
3423.52,0.09428
3417.74,0.09190
3411.95,0.09207
3406.16,0.09195
3400.38,0.09385
3394.59,0.09410
3388.81,0.09394
3383.02,0.09323
3377.23,0.09213
3371.45,0.09063
3365.66,0.09036
3359.87,0.08938
3354.09,0.08885
3348.3,0.08859
3342.52,0.08878
3336.73,0.08955
3330.94,0.09227
3325.16,0.09317
3319.37,0.09376
3313.58,0.09402
3307.8,0.09320
3302.01,0.09226
3296.23,0.09185
3290.44,0.09050
3284.65,0.09094
3278.87,0.09168
3273.08,0.09141
3267.29,0.09089
3261.51,0.09146
3255.72,0.09184
3249.94,0.09201
3244.15,0.09139
3238.36,0.09011
3232.58,0.08695
3226.79,0.08288
3221,0.07860
3215.22,0.07462
3209.43,0.07009
3203.65,0.06758
3197.86,0.06594
3192.07,0.06542
3186.29,0.06526
3180.5,0.06645
3174.71,0.06737
3168.93,0.06933
3163.14,0.06823
3157.36,0.06756
3151.57,0.06634
3145.78,0.06573
3140,0.06567
3134.21,0.06637
3128.42,0.06909
3122.64,0.07034
3116.85,0.07160
3111.07,0.07219
3105.28,0.07256
3099.49,0.07236
3093.71,0.07294
3087.92,0.07302
3082.14,0.07267
3076.35,0.07119
3070.56,0.07011
3064.78,0.06851
3058.99,0.06657
3053.2,0.06491
3047.42,0.06313
3041.63,0.06140
3035.85,0.05939
3030.06,0.05627
3024.27,0.05178
3018.49,0.04640
3012.7,0.04096
3006.91,0.03550
3001.13,0.02985
2995.34,0.02505
2989.56,0.02114
2983.77,0.01781
2977.98,0.01599
2972.2,0.01497
2966.41,0.01502
2960.62,0.01705
2954.84,0.01761
2949.05,0.01776
2943.27,0.01792
2937.48,0.01734
2931.69,0.01704
2925.91,0.01725
2920.12,0.01836
2914.33,0.01930
2908.55,0.01913
2902.76,0.01930
2896.98,0.01927
2891.19,0.01869
2885.4,0.01894
2879.62,0.01874
2873.83,0.01884
2868.04,0.01924
2862.26,0.01974
2856.47,0.02000
2850.69,0.01880
2844.9,0.01875
2839.11,0.01943
2833.33,0.01986
2827.54,0.02072
2821.75,0.02177
2815.97,0.02351
2810.18,0.02468
2804.4,0.02728
2798.61,0.03046
2792.82,0.03245
2787.04,0.03818
2781.25,0.04491
2775.46,0.04990
2769.68,0.05245
2763.89,0.05425
2758.11,0.05599
2752.32,0.05719
2746.53,0.05543
2740.75,0.05198
2734.96,0.04678
2729.17,0.04315
2723.39,0.03771
2717.6,0.04143
2711.82,0.04869
2706.03,0.05321
2700.24,0.05706
2694.46,0.05880
2688.67,0.05764
2682.88,0.05820
2677.1,0.05806
2671.31,0.05971
2665.53,0.06031
2659.74,0.05966
2653.95,0.06254
2648.17,0.06550
2642.38,0.06664
2636.59,0.06889
2630.81,0.06821
2625.02,0.06571
2619.24,0.06349
2613.45,0.06432
2607.66,0.06861
2601.88,0.07325
2596.09,0.07433
2590.3,0.07073
2584.52,0.06484
2578.73,0.06481
2572.95,0.07062
2567.16,0.07624
2561.37,0.07907
2555.59,0.07974
2549.8,0.08192
2544.02,0.08567
2538.23,0.08762
2532.44,0.08941
2526.66,0.09234
2520.87,0.09575
2515.08,0.09857
2509.3,0.09971
2503.51,0.10078
2497.73,0.10069
2491.94,0.10075
2486.15,0.10169
2480.37,0.10332
2474.58,0.10486
2468.79,0.10639
2463.01,0.10624
2457.22,0.10493
2451.44,0.10432
2445.65,0.10298
2439.86,0.10048
2434.08,0.09659
2428.29,0.09564
2422.5,0.09751
2416.72,0.10063
2410.93,0.10084
2405.15,0.09979
2399.36,0.09897
2393.57,0.10012
2387.79,0.10200
2382,0.10281
2376.21,0.10235
2370.43,0.10190
2364.64,0.10102
2358.86,0.10121
2353.07,0.10279
2347.28,0.10529
2341.5,0.10759
2335.71,0.10861
2329.92,0.11052
2324.14,0.11246
2318.35,0.11493
2312.57,0.11669
2306.78,0.11741
2300.99,0.11685
2295.21,0.11673
2289.42,0.11782
2283.63,0.11827
2277.85,0.11683
2272.06,0.11428
2266.28,0.11314
2260.49,0.11115
2254.7,0.10988
2248.92,0.11318
2243.13,0.11646
2237.34,0.11715
2231.56,0.11586
2225.77,0.11698
2219.99,0.11849
2214.2,0.11856
2208.41,0.11806
2202.63,0.11630
2196.84,0.11590
2191.05,0.11504
2185.27,0.11465
2179.48,0.11466
2173.7,0.11348
2167.91,0.11405
2162.12,0.11754
2156.34,0.11957
2150.55,0.12135
2144.76,0.12307
2138.98,0.12071
2133.19,0.11698
2127.41,0.11844
2121.62,0.12518
2115.83,0.12964
2110.05,0.13188
2104.26,0.13213
2098.47,0.13206
2092.69,0.13224
2086.9,0.13284
2081.12,0.13601
2075.33,0.13910
2069.54,0.14081
2063.76,0.14134
2057.97,0.14081
2052.19,0.14016
2046.4,0.14002
2040.61,0.14039
2034.83,0.13957
2029.04,0.13929
2023.25,0.14067
2017.47,0.14143
2011.68,0.14171
2005.9,0.14112
2000.11,0.14100
1994.32,0.14024
1988.54,0.14029
1982.75,0.14109
1976.96,0.14128
1971.18,0.14125
1965.39,0.14017
1959.61,0.13877
1953.82,0.13850
1948.03,0.13858
1942.25,0.13860
1936.46,0.13882
1930.67,0.13889
1924.89,0.13783
1919.1,0.13705
1913.32,0.13644
1907.53,0.13584
1901.74,0.13503
1895.96,0.13246
1890.17,0.13223
1884.38,0.13533
1878.6,0.13673
1872.81,0.13728
1867.03,0.13676
1861.24,0.13591
1855.45,0.13492
1849.67,0.13457
1843.88,0.13350
1838.09,0.13178
1832.31,0.13007
1826.52,0.13157
1820.74,0.13327
1814.95,0.13418
1809.16,0.13466
1803.38,0.13397
1797.59,0.13232
1791.8,0.13087
1786.02,0.12964
1780.23,0.12896
1774.45,0.12746
1768.66,0.12499
1762.87,0.12140
1757.09,0.11729
1751.3,0.11047
1745.51,0.10177
1739.73,0.09846
1733.94,0.10114
1728.16,0.10329
1722.37,0.10600
1716.58,0.10672
1710.8,0.10515
1705.01,0.10429
1699.22,0.10283
1693.44,0.10117
1687.65,0.10135
1681.87,0.10180
1676.08,0.10231
1670.29,0.10266
1664.51,0.10204
1658.72,0.10070
1652.93,0.09712
1647.15,0.09103
1641.36,0.09216
1635.58,0.09475
1629.79,0.09591
1624,0.09611
1618.22,0.09743
1612.43,0.09717
1606.64,0.09658
1600.86,0.10051
1595.07,0.10313
1589.29,0.10429
1583.5,0.10483
1577.71,0.10448
1571.93,0.10348
1566.14,0.10181
1560.35,0.09959
1554.57,0.09641
1548.78,0.09482
1543,0.09242
1537.21,0.08986
1531.42,0.08947
1525.64,0.08921
1519.85,0.08903
1514.07,0.08644
1508.28,0.08143
1502.49,0.07520
1496.71,0.06707
1490.92,0.05858
1485.13,0.04736
1479.35,0.03430
1473.56,0.02256
1467.78,0.01760
1461.99,0.01714
1456.2,0.01782
1450.42,0.01805
1444.63,0.02001
1438.84,0.02125
1433.06,0.02760
1427.27,0.04297
1421.49,0.05047
1415.7,0.05438
1409.91,0.05573
1404.13,0.05474
1398.34,0.05119
1392.55,0.04272
1386.77,0.02767
1380.98,0.01764
1375.2,0.01847
1369.41,0.02290
1363.62,0.02649
1357.84,0.02510
1352.05,0.03592
1346.26,0.04987
1340.48,0.05925
1334.69,0.05853
1328.91,0.05237
1323.12,0.06188
1317.33,0.07067
1311.55,0.06900
1305.76,0.04606
1299.97,0.04855
1294.19,0.05659
1288.4,0.06884
1282.62,0.07640
1276.83,0.08007
1271.04,0.07967
1265.26,0.07398
1259.47,0.05722
1253.68,0.04991
1247.9,0.07096
1242.11,0.08062
1236.33,0.08421
1230.54,0.08481
1224.75,0.07936
1218.97,0.07168
1213.18,0.07893
1207.39,0.08421
1201.61,0.08433
1195.82,0.08449
1190.04,0.08317
1184.25,0.07679
1178.46,0.06045
1172.68,0.03736
1166.89,0.02815
1161.1,0.03058
1155.32,0.03530
1149.53,0.04175
1143.75,0.05670
1137.96,0.07150
1132.17,0.08068
1126.39,0.08421
1120.6,0.08318
1114.81,0.08120
1109.03,0.07423
1103.24,0.06163
1097.46,0.07192
1091.67,0.08463
1085.88,0.09326
1080.1,0.09721
1074.31,0.09936
1068.52,0.10026
1062.74,0.09904
1056.95,0.09652
1051.17,0.08869
1045.38,0.07329
1039.59,0.08181
1033.81,0.09117
1028.02,0.09510
1022.24,0.09214
1016.45,0.08483
1010.66,0.07243
1004.88,0.05083
999.09,0.03392
993.304,0.04300
987.518,0.06075
981.731,0.05295
975.945,0.02916
970.159,0.03300
964.373,0.06303
958.586,0.08909
952.8,0.10321
947.014,0.10561
941.228,0.09441
935.441,0.11141
929.655,0.12646
923.869,0.12745
918.083,0.12612
912.297,0.12038
906.51,0.10366
900.724,0.06478
894.938,0.08250
889.152,0.11129
883.365,0.11664
877.579,0.11551
871.793,0.11286
866.007,0.11003
860.22,0.10274
854.434,0.09115
848.648,0.07135
842.862,0.04250
837.075,0.05337
831.289,0.08211
825.503,0.09669
819.717,0.09912
813.931,0.07838
808.144,0.06033
802.358,0.08808
796.572,0.10712
790.786,0.12195
784.999,0.13724
779.213,0.14698
773.427,0.15004
767.641,0.14989
761.854,0.15116
756.068,0.15157
750.282,0.15335
744.496,0.15149
738.709,0.15138
732.923,0.14803
727.137,0.14097
721.351,0.13369
715.565,0.14314
709.778,0.14733
703.992,0.14971
698.206,0.14963
692.42,0.15131
686.633,0.15242
680.847,0.15326
675.061,0.15205
669.275,0.15077
663.488,0.15213
657.702,0.15197
651.916,0.15308
646.13,0.15432
640.343,0.15468
634.557,0.15560
628.771,0.15559
622.985,0.15470
617.198,0.15554
611.412,0.15396
605.626,0.15672
599.84,0.15478