File: 01_Data/Polyolefin_Carpet_Low_Pile/FTIR/IS/Polyolefin_Carpet_Low_Pile_IS_T_220819_R2.dpt
7497.03,0.02266
7491.25,0.02427
7485.46,0.02580
7479.67,0.03079
7473.89,0.02846
7468.1,0.02543
7462.32,0.01781
7456.53,0.02263
7450.74,0.01870
7444.96,0.02140
7439.17,0.02019
7433.38,0.02092
7427.6,0.02500
7421.81,0.02124
7416.03,0.02034
7410.24,0.02142
7404.45,0.01539
7398.67,0.01914
7392.88,0.02390
7387.09,0.02114
7381.31,0.02418
7375.52,0.02538
7369.74,0.02705
7363.95,0.02534
7358.16,0.02833
7352.38,0.02025
7346.59,0.02176
7340.8,0.01776
7335.02,0.01872
7329.23,0.02255
7323.45,0.02311
7317.66,0.02445
7311.87,0.02164
7306.09,0.02631
7300.3,0.02560
7294.51,0.02303
7288.73,0.01770
7282.94,0.02551
7277.16,0.02722
7271.37,0.01810
7265.58,0.02137
7259.8,0.02266
7254.01,0.01828
7248.22,0.01849
7242.44,0.02351
7236.65,0.02465
7230.87,0.02938
7225.08,0.02368
7219.29,0.01994
7213.51,0.01755
7207.72,0.02197
7201.93,0.01995
7196.15,0.02561
7190.36,0.02080
7184.58,0.02139
7178.79,0.01528
7173,0.02575
7167.22,0.02037
7161.43,0.02439
7155.65,0.01588
7149.86,0.01754
7144.07,0.02214
7138.29,0.02273
7132.5,0.02703
7126.71,0.02256
7120.93,0.02309
7115.14,0.01723
7109.36,0.01643
7103.57,0.01462
7097.78,0.02222
7092,0.02643
7086.21,0.02632
7080.42,0.01904
7074.64,0.01938
7068.85,0.02235
7063.07,0.02004
7057.28,0.02362
7051.49,0.02437
7045.71,0.01794
7039.92,0.02112
7034.13,0.02222
7028.35,0.02625
7022.56,0.02031
7016.78,0.01761
7010.99,0.02271
7005.2,0.02203
6999.42,0.02093
6993.63,0.02166
6987.84,0.01794
6982.06,0.02273
6976.27,0.01784
6970.49,0.02158
6964.7,0.01872
6958.91,0.02242
6953.13,0.01900
6947.34,0.01800
6941.55,0.02054
6935.77,0.02393
6929.98,0.02285
6924.2,0.02815
6918.41,0.02366
6912.62,0.02189
6906.84,0.01954
6901.05,0.02314
6895.26,0.02265
6889.48,0.02081
6883.69,0.02512
6877.91,0.01875
6872.12,0.01952
6866.33,0.01652
6860.55,0.02060
6854.76,0.02162
6848.97,0.01937
6843.19,0.01999
6837.4,0.01929
6831.62,0.01878
6825.83,0.01905
6820.04,0.02283
6814.26,0.02126
6808.47,0.02483
6802.68,0.02253
6796.9,0.01722
6791.11,0.01978
6785.33,0.02182
6779.54,0.02066
6773.75,0.01906
6767.97,0.01870
6762.18,0.01897
6756.39,0.01889
6750.61,0.01846
6744.82,0.01940
6739.04,0.01936
6733.25,0.02089
6727.46,0.02004
6721.68,0.01630
6715.89,0.02402
6710.1,0.01982
6704.32,0.02478
6698.53,0.02507
6692.75,0.02277
6686.96,0.01990
6681.17,0.02096
6675.39,0.02187
6669.6,0.02380
6663.82,0.01696
6658.03,0.02316
6652.24,0.02293
6646.46,0.02270
6640.67,0.02315
6634.88,0.01927
6629.1,0.01786
6623.31,0.02153
6617.53,0.02430
6611.74,0.01680
6605.95,0.01632
6600.17,0.01973
6594.38,0.02086
6588.59,0.02211
6582.81,0.02385
6577.02,0.02004
6571.24,0.01933
6565.45,0.01613
6559.66,0.02117
6553.88,0.01710
6548.09,0.02022
6542.3,0.01966
6536.52,0.01822
6530.73,0.02114
6524.95,0.01852
6519.16,0.02140
6513.37,0.02471
6507.59,0.01986
6501.8,0.01882
6496.01,0.01880
6490.23,0.02322
6484.44,0.01598
6478.66,0.01858
6472.87,0.02129
6467.08,0.02137
6461.3,0.01786
6455.51,0.02018
6449.72,0.01944
6443.94,0.01691
6438.15,0.02113
6432.37,0.02075
6426.58,0.02243
6420.79,0.02036
6415.01,0.01860
6409.22,0.01959
6403.43,0.02243
6397.65,0.02088
6391.86,0.01895
6386.08,0.02084
6380.29,0.02034
6374.5,0.02465
6368.72,0.02032
6362.93,0.02124
6357.14,0.02177
6351.36,0.01984
6345.57,0.02025
6339.79,0.01993
6334,0.01780
6328.21,0.02065
6322.43,0.02115
6316.64,0.02020
6310.85,0.02184
6305.07,0.02086
6299.28,0.01840
6293.5,0.02047
6287.71,0.01805
6281.92,0.01768
6276.14,0.01859
6270.35,0.01987
6264.56,0.02026
6258.78,0.01721
6252.99,0.01853
6247.21,0.01709
6241.42,0.01563
6235.63,0.02123
6229.85,0.01975
6224.06,0.01669
6218.27,0.01645
6212.49,0.02013
6206.7,0.01819
6200.92,0.02003
6195.13,0.01949
6189.34,0.02099
6183.56,0.01987
6177.77,0.01748
6171.98,0.01794
6166.2,0.01863
6160.41,0.01839
6154.63,0.02057
6148.84,0.02209
6143.05,0.01928
6137.27,0.01941
6131.48,0.02127
6125.7,0.01784
6119.91,0.02002
6114.12,0.02000
6108.34,0.01913
6102.55,0.02115
6096.76,0.01769
6090.98,0.01984
6085.19,0.01762
6079.41,0.01917
6073.62,0.02202
6067.83,0.01586
6062.05,0.01710
6056.26,0.01752
6050.47,0.01871
6044.69,0.02107
6038.9,0.01967
6033.12,0.02002
6027.33,0.02014
6021.54,0.02030
6015.76,0.01833
6009.97,0.02184
6004.18,0.01887
5998.4,0.02041
5992.61,0.01988
5986.83,0.01729
5981.04,0.01830
5975.25,0.01790
5969.47,0.01752
5963.68,0.01705
5957.89,0.01921
5952.11,0.02136
5946.32,0.01974
5940.54,0.01988
5934.75,0.01833
5928.96,0.01942
5923.18,0.01877
5917.39,0.01978
5911.6,0.01741
5905.82,0.02004
5900.03,0.01820
5894.25,0.01945
5888.46,0.01786
5882.67,0.01837
5876.89,0.02049
5871.1,0.02028
5865.31,0.01976
5859.53,0.01912
5853.74,0.01844
5847.96,0.01880
5842.17,0.02121
5836.38,0.01930
5830.6,0.02184
5824.81,0.01968
5819.02,0.01925
5813.24,0.01945
5807.45,0.01892
5801.67,0.01644
5795.88,0.01916
5790.09,0.01996
5784.31,0.01898
5778.52,0.01913
5772.73,0.01995
5766.95,0.01915
5761.16,0.01747
5755.38,0.01873
5749.59,0.01874
5743.8,0.01993
5738.02,0.01944
5732.23,0.02103
5726.44,0.01959
5720.66,0.01718
5714.87,0.01848
5709.09,0.01951
5703.3,0.01947
5697.51,0.01659
5691.73,0.01878
5685.94,0.01855
5680.15,0.01869
5674.37,0.01819
5668.58,0.01923
5662.8,0.01928
5657.01,0.01869
5651.22,0.01901
5645.44,0.01960
5639.65,0.01914
5633.87,0.01818
5628.08,0.01901
5622.29,0.01755
5616.51,0.01830
5610.72,0.01783
5604.93,0.01953
5599.15,0.01988
5593.36,0.01982
5587.58,0.01933
5581.79,0.01783
5576,0.01889
5570.22,0.01860
5564.43,0.01873
5558.64,0.02020
5552.86,0.01993
5547.07,0.01903
5541.29,0.01957
5535.5,0.01917
5529.71,0.01973
5523.93,0.01699
5518.14,0.01877
5512.35,0.01842
5506.57,0.01928
5500.78,0.01850
5495,0.01934
5489.21,0.01904
5483.42,0.01999
5477.64,0.01913
5471.85,0.01806
5466.06,0.01827
5460.28,0.01852
5454.49,0.01874
5448.71,0.01930
5442.92,0.01804
5437.13,0.02143
5431.35,0.01984
5425.56,0.01800
5419.77,0.01902
5413.99,0.01934
5408.2,0.01857
5402.42,0.01894
5396.63,0.01876
5390.84,0.01777
5385.06,0.01781
5379.27,0.01959
5373.48,0.01995
5367.7,0.02038
5361.91,0.01969
5356.13,0.02044
5350.34,0.01810
5344.55,0.01945
5338.77,0.02101
5332.98,0.01949
5327.19,0.01917
5321.41,0.02181
5315.62,0.02008
5309.84,0.02062
5304.05,0.01932
5298.26,0.01836
5292.48,0.01884
5286.69,0.01960
5280.9,0.01771
5275.12,0.01848
5269.33,0.01955
5263.55,0.02068
5257.76,0.01896
5251.97,0.01967
5246.19,0.01897
5240.4,0.01826
5234.61,0.01811
5228.83,0.01864
5223.04,0.01976
5217.26,0.01953
5211.47,0.01970
5205.68,0.01934
5199.9,0.01918
5194.11,0.01875
5188.32,0.02044
5182.54,0.01911
5176.75,0.01939
5170.97,0.01950
5165.18,0.01952
5159.39,0.01851
5153.61,0.01965
5147.82,0.02060
5142.03,0.01962
5136.25,0.01956
5130.46,0.01881
5124.68,0.01983
5118.89,0.01929
5113.1,0.01807
5107.32,0.01929
5101.53,0.01959
5095.75,0.01831
5089.96,0.01874
5084.17,0.01901
5078.39,0.01976
5072.6,0.02058
5066.81,0.01985
5061.03,0.01984
5055.24,0.01956
5049.46,0.01906
5043.67,0.01933
5037.88,0.01954
5032.1,0.01845
5026.31,0.01879
5020.52,0.01845
5014.74,0.01878
5008.95,0.01955
5003.17,0.01921
4997.38,0.01913
4991.59,0.01869
4985.81,0.01912
4980.02,0.01930
4974.23,0.01958
4968.45,0.01939
4962.66,0.01849
4956.88,0.01858
4951.09,0.01900
4945.3,0.01945
4939.52,0.01898
4933.73,0.01803
4927.94,0.01925
4922.16,0.01818
4916.37,0.02028
4910.59,0.01939
4904.8,0.01866
4899.01,0.01950
4893.23,0.01973
4887.44,0.01980
4881.65,0.01945
4875.87,0.01884
4870.08,0.02007
4864.3,0.01903
4858.51,0.01920
4852.72,0.01906
4846.94,0.01881
4841.15,0.02032
4835.36,0.01887
4829.58,0.01930
4823.79,0.01912
4818.01,0.01955
4812.22,0.01941
4806.43,0.01925
4800.65,0.01942
4794.86,0.01881
4789.07,0.01897
4783.29,0.01983
4777.5,0.01944
4771.72,0.01933
4765.93,0.01819
4760.14,0.01883
4754.36,0.01928
4748.57,0.01897
4742.78,0.02055
4737,0.01901
4731.21,0.01962
4725.43,0.01895
4719.64,0.01932
4713.85,0.01948
4708.07,0.01952
4702.28,0.01948
4696.49,0.01929
4690.71,0.02027
4684.92,0.01965
4679.14,0.01920
4673.35,0.01911
4667.56,0.01911
4661.78,0.01907
4655.99,0.01888
4650.2,0.01986
4644.42,0.01837
4638.63,0.01904
4632.85,0.01965
4627.06,0.01916
4621.27,0.01920
4615.49,0.01906
4609.7,0.01957
4603.92,0.01949
4598.13,0.01958
4592.34,0.01994
4586.56,0.01902
4580.77,0.01872
4574.98,0.01885
4569.2,0.01882
4563.41,0.01965
4557.63,0.01897
4551.84,0.01823
4546.05,0.01924
4540.27,0.01958
4534.48,0.01861
4528.69,0.01936
4522.91,0.01966
4517.12,0.02000
4511.34,0.01934
4505.55,0.01915
4499.76,0.01983
4493.98,0.01930
4488.19,0.01928
4482.4,0.01905
4476.62,0.01917
4470.83,0.01924
4465.05,0.01937
4459.26,0.01910
4453.47,0.01876
4447.69,0.01889
4441.9,0.01909
4436.11,0.01922
4430.33,0.01864
4424.54,0.01909
4418.76,0.01943
4412.97,0.01989
4407.18,0.01990
4401.4,0.01944
4395.61,0.02001
4389.82,0.01921
4384.04,0.01915
4378.25,0.01947
4372.47,0.02013
4366.68,0.02001
4360.89,0.01879
4355.11,0.01850
4349.32,0.01970
4343.53,0.01937
4337.75,0.01913
4331.96,0.01905
4326.18,0.01958
4320.39,0.01951
4314.6,0.01954
4308.82,0.01997
4303.03,0.01958
4297.24,0.01969
4291.46,0.01960
4285.67,0.01956
4279.89,0.01915
4274.1,0.01935
4268.31,0.01918
4262.53,0.01907
4256.74,0.01837
4250.95,0.01870
4245.17,0.01977
4239.38,0.01961
4233.6,0.01932
4227.81,0.01953
4222.02,0.01945
4216.24,0.01932
4210.45,0.01982
4204.66,0.01963
4198.88,0.01958
4193.09,0.01959
4187.31,0.01905
4181.52,0.01996
4175.73,0.02014
4169.95,0.01891
4164.16,0.01898
4158.37,0.01911
4152.59,0.01909
4146.8,0.01923
4141.02,0.01913
4135.23,0.01980
4129.44,0.01860
4123.66,0.01921
4117.87,0.01955
4112.09,0.01996
4106.3,0.01956
4100.51,0.01989
4094.73,0.01920
4088.94,0.01964
4083.15,0.01982
4077.37,0.01967
4071.58,0.01950
4065.8,0.01934
4060.01,0.01912
4054.22,0.02008
4048.44,0.01952
4042.65,0.01955
4036.86,0.01944
4031.08,0.01932
4025.29,0.01928
4019.51,0.01956
4013.72,0.01955
4007.93,0.01994
4002.15,0.01956
3996.36,0.01973
3990.57,0.01962
3984.79,0.01951
3979,0.01907
3973.22,0.01869
3967.43,0.01894
3961.64,0.01928
3955.86,0.01979
3950.07,0.01938
3944.28,0.01962
3938.5,0.01999
3932.71,0.01978
3926.93,0.01945
3921.14,0.01885
3915.35,0.01937
3909.57,0.01969
3903.78,0.01877
3897.99,0.01970
3892.21,0.01877
3886.42,0.01905
3880.64,0.01924
3874.85,0.01980
3869.06,0.01880
3863.28,0.01915
3857.49,0.02026
3851.7,0.01876
3845.92,0.01918
3840.13,0.01983
3834.35,0.01958
3828.56,0.01903
3822.77,0.01878
3816.99,0.01950
3811.2,0.01887
3805.41,0.01994
3799.63,0.01937
3793.84,0.01933
3788.06,0.01969
3782.27,0.01969
3776.48,0.01962
3770.7,0.01903
3764.91,0.01974
3759.12,0.01971
3753.34,0.01958
3747.55,0.01973
3741.77,0.01954
3735.98,0.01867
3730.19,0.01929
3724.41,0.01960
3718.62,0.01960
3712.83,0.01957
3707.05,0.01903
3701.26,0.01922
3695.48,0.01951
3689.69,0.01929
3683.9,0.01857
3678.12,0.01926
3672.33,0.01930
3666.54,0.01978
3660.76,0.01888
3654.97,0.01885
3649.19,0.01949
3643.4,0.01894
3637.61,0.01863
3631.83,0.01911
3626.04,0.01875
3620.25,0.01866
3614.47,0.01834
3608.68,0.01936
3602.9,0.01920
3597.11,0.01867
3591.32,0.01798
3585.54,0.01861
3579.75,0.01835
3573.97,0.01812
3568.18,0.01790
3562.39,0.01741
3556.61,0.01760
3550.82,0.01821
3545.03,0.01772
3539.25,0.01803
3533.46,0.01817
3527.68,0.01788
3521.89,0.01802
3516.1,0.01844
3510.32,0.01785
3504.53,0.01853
3498.74,0.01826
3492.96,0.01778
3487.17,0.01769
3481.39,0.01814
3475.6,0.01753
3469.81,0.01826
3464.03,0.01771
3458.24,0.01750
3452.45,0.01753
3446.67,0.01741
3440.88,0.01751
3435.1,0.01755
3429.31,0.01786
3423.52,0.01696
3417.74,0.01771
3411.95,0.01779
3406.16,0.01744
3400.38,0.01750
3394.59,0.01783
3388.81,0.01740
3383.02,0.01743
3377.23,0.01719
3371.45,0.01746
3365.66,0.01704
3359.87,0.01732
3354.09,0.01677
3348.3,0.01641
3342.52,0.01710
3336.73,0.01722
3330.94,0.01683
3325.16,0.01735
3319.37,0.01736
3313.58,0.01694
3307.8,0.01654
3302.01,0.01675
3296.23,0.01679
3290.44,0.01674
3284.65,0.01718
3278.87,0.01658
3273.08,0.01636
3267.29,0.01700
3261.51,0.01708
3255.72,0.01728
3249.94,0.01766
3244.15,0.01711
3238.36,0.01753
3232.58,0.01760
3226.79,0.01879
3221,0.01778
3215.22,0.01720
3209.43,0.01716
3203.65,0.01774
3197.86,0.01827
3192.07,0.01726
3186.29,0.01710
3180.5,0.01766
3174.71,0.01804
3168.93,0.01749
3163.14,0.01742
3157.36,0.01770
3151.57,0.01799
3145.78,0.01764
3140,0.01758
3134.21,0.01766
3128.42,0.01689
3122.64,0.01728
3116.85,0.01724
3111.07,0.01791
3105.28,0.01736
3099.49,0.01775
3093.71,0.01719
3087.92,0.01786
3082.14,0.01744
3076.35,0.01718
3070.56,0.01747
3064.78,0.01740
3058.99,0.01750
3053.2,0.01744
3047.42,0.01724
3041.63,0.01698
3035.85,0.01715
3030.06,0.01771
3024.27,0.01720
3018.49,0.01756
3012.7,0.01753
3006.91,0.01757
3001.13,0.01730
2995.34,0.01688
2989.56,0.01692
2983.77,0.01693
2977.98,0.01650
2972.2,0.01658
2966.41,0.01616
2960.62,0.01598
2954.84,0.01610
2949.05,0.01602
2943.27,0.01621
2937.48,0.01635
2931.69,0.01643
2925.91,0.01688
2920.12,0.01706
2914.33,0.01724
2908.55,0.01746
2902.76,0.01735
2896.98,0.01725
2891.19,0.01712
2885.4,0.01755
2879.62,0.01750
2873.83,0.01776
2868.04,0.01721
2862.26,0.01702
2856.47,0.01734
2850.69,0.01765
2844.9,0.01771
2839.11,0.01825
2833.33,0.01765
2827.54,0.01793
2821.75,0.01797
2815.97,0.01825
2810.18,0.01846
2804.4,0.01829
2798.61,0.01794
2792.82,0.01781
2787.04,0.01783
2781.25,0.01785
2775.46,0.01802
2769.68,0.01784
2763.89,0.01777
2758.11,0.01785
2752.32,0.01805
2746.53,0.01784
2740.75,0.01817
2734.96,0.01819
2729.17,0.01842
2723.39,0.01777
2717.6,0.01806
2711.82,0.01815
2706.03,0.01827
2700.24,0.01803
2694.46,0.01849
2688.67,0.01806
2682.88,0.01809
2677.1,0.01794
2671.31,0.01794
2665.53,0.01772
2659.74,0.01808
2653.95,0.01838
2648.17,0.01772
2642.38,0.01836
2636.59,0.01805
2630.81,0.01801
2625.02,0.01820
2619.24,0.01779
2613.45,0.01809
2607.66,0.01780
2601.88,0.01795
2596.09,0.01786
2590.3,0.01806
2584.52,0.01792
2578.73,0.01820
2572.95,0.01785
2567.16,0.01827
2561.37,0.01802
2555.59,0.01793
2549.8,0.01782
2544.02,0.01807
2538.23,0.01805
2532.44,0.01821
2526.66,0.01789
2520.87,0.01806
2515.08,0.01795
2509.3,0.01790
2503.51,0.01811
2497.73,0.01807
2491.94,0.01778
2486.15,0.01829
2480.37,0.01792
2474.58,0.01804
2468.79,0.01817
2463.01,0.01796
2457.22,0.01795
2451.44,0.01790
2445.65,0.01766
2439.86,0.01839
2434.08,0.01788
2428.29,0.01820
2422.5,0.01792
2416.72,0.01788
2410.93,0.01783
2405.15,0.01823
2399.36,0.01812
2393.57,0.01788
2387.79,0.01763
2382,0.01800
2376.21,0.01816
2370.43,0.01771
2364.64,0.01803
2358.86,0.01790
2353.07,0.01819
2347.28,0.01801
2341.5,0.01775
2335.71,0.01776
2329.92,0.01804
2324.14,0.01808
2318.35,0.01796
2312.57,0.01803
2306.78,0.01798
2300.99,0.01791
2295.21,0.01827
2289.42,0.01817
2283.63,0.01793
2277.85,0.01767
2272.06,0.01774
2266.28,0.01780
2260.49,0.01809
2254.7,0.01817
2248.92,0.01821
2243.13,0.01782
2237.34,0.01764
2231.56,0.01802
2225.77,0.01786
2219.99,0.01820
2214.2,0.01814
2208.41,0.01782
2202.63,0.01762
2196.84,0.01763
2191.05,0.01758
2185.27,0.01804
2179.48,0.01763
2173.7,0.01777
2167.91,0.01778
2162.12,0.01769
2156.34,0.01790
2150.55,0.01790
2144.76,0.01773
2138.98,0.01766
2133.19,0.01788
2127.41,0.01761
2121.62,0.01750
2115.83,0.01793
2110.05,0.01788
2104.26,0.01771
2098.47,0.01806
2092.69,0.01796
2086.9,0.01801
2081.12,0.01765
2075.33,0.01761
2069.54,0.01766
2063.76,0.01782
2057.97,0.01758
2052.19,0.01717
2046.4,0.01730
2040.61,0.01772
2034.83,0.01783
2029.04,0.01818
2023.25,0.01799
2017.47,0.01784
2011.68,0.01786
2005.9,0.01787
2000.11,0.01767
1994.32,0.01771
1988.54,0.01733
1982.75,0.01758
1976.96,0.01785
1971.18,0.01747
1965.39,0.01764
1959.61,0.01779
1953.82,0.01784
1948.03,0.01761
1942.25,0.01762
1936.46,0.01775
1930.67,0.01767
1924.89,0.01729
1919.1,0.01740
1913.32,0.01752
1907.53,0.01743
1901.74,0.01748
1895.96,0.01781
1890.17,0.01753
1884.38,0.01717
1878.6,0.01743
1872.81,0.01729
1867.03,0.01724
1861.24,0.01731
1855.45,0.01705
1849.67,0.01718
1843.88,0.01713
1838.09,0.01706
1832.31,0.01690
1826.52,0.01701
1820.74,0.01702
1814.95,0.01672
1809.16,0.01674
1803.38,0.01665
1797.59,0.01656
1791.8,0.01678
1786.02,0.01602
1780.23,0.01614
1774.45,0.01576
1768.66,0.01556
1762.87,0.01496
1757.09,0.01438
1751.3,0.01428
1745.51,0.01466
1739.73,0.01544
1733.94,0.01655
1728.16,0.01739
1722.37,0.01807
1716.58,0.01742
1710.8,0.01728
1705.01,0.01732
1699.22,0.01657
1693.44,0.01590
1687.65,0.01633
1681.87,0.01548
1676.08,0.01546
1670.29,0.01523
1664.51,0.01531
1658.72,0.01569
1652.93,0.01521
1647.15,0.01562
1641.36,0.01560
1635.58,0.01554
1629.79,0.01558
1624,0.01554
1618.22,0.01600
1612.43,0.01602
1606.64,0.01598
1600.86,0.01556
1595.07,0.01568
1589.29,0.01550
1583.5,0.01520
1577.71,0.01518
1571.93,0.01511
1566.14,0.01496
1560.35,0.01537
1554.57,0.01453
1548.78,0.01484
1543,0.01501
1537.21,0.01499
1531.42,0.01545
1525.64,0.01527
1519.85,0.01548
1514.07,0.01548
1508.28,0.01523
1502.49,0.01537
1496.71,0.01571
1490.92,0.01596
1485.13,0.01554
1479.35,0.01520
1473.56,0.01549
1467.78,0.01518
1461.99,0.01553
1456.2,0.01562
1450.42,0.01551
1444.63,0.01599
1438.84,0.01570
1433.06,0.01566
1427.27,0.01577
1421.49,0.01507
1415.7,0.01508
1409.91,0.01528
1404.13,0.01512
1398.34,0.01510
1392.55,0.01479
1386.77,0.01470
1380.98,0.01496
1375.2,0.01513
1369.41,0.01483
1363.62,0.01521
1357.84,0.01495
1352.05,0.01491
1346.26,0.01444
1340.48,0.01474
1334.69,0.01488
1328.91,0.01423
1323.12,0.01387
1317.33,0.01401
1311.55,0.01385
1305.76,0.01428
1299.97,0.01422
1294.19,0.01457
1288.4,0.01531
1282.62,0.01537
1276.83,0.01588
1271.04,0.01573
1265.26,0.01645
1259.47,0.01698
1253.68,0.01719
1247.9,0.01661
1242.11,0.01724
1236.33,0.01697
1230.54,0.01639
1224.75,0.01628
1218.97,0.01584
1213.18,0.01583
1207.39,0.01542
1201.61,0.01543
1195.82,0.01520
1190.04,0.01514
1184.25,0.01518
1178.46,0.01479
1172.68,0.01468
1166.89,0.01510
1161.1,0.01474
1155.32,0.01475
1149.53,0.01421
1143.75,0.01446
1137.96,0.01492
1132.17,0.01495
1126.39,0.01514
1120.6,0.01577
1114.81,0.01585
1109.03,0.01626
1103.24,0.01537
1097.46,0.01547
1091.67,0.01480
1085.88,0.01538
1080.1,0.01598
1074.31,0.01613
1068.52,0.01651
1062.74,0.01663
1056.95,0.01610
1051.17,0.01652
1045.38,0.01674
1039.59,0.01659
1033.81,0.01671
1028.02,0.01626
1022.24,0.01637
1016.45,0.01636
1010.66,0.01661
1004.88,0.01698
999.09,0.01783
993.304,0.01789
987.518,0.01796
981.731,0.01787
975.945,0.01727
970.159,0.01680
964.373,0.01732
958.586,0.01710
952.8,0.01731
947.014,0.01692
941.228,0.01686
935.441,0.01645
929.655,0.01676
923.869,0.01587
918.083,0.01616
912.297,0.01658
906.51,0.01649
900.724,0.01616
894.938,0.01655
889.152,0.01574
883.365,0.01559
877.579,0.01574
871.793,0.01615
866.007,0.01597
860.22,0.01600
854.434,0.01525
848.648,0.01535
842.862,0.01550
837.075,0.01670
831.289,0.01608
825.503,0.01628
819.717,0.01663
813.931,0.01581
808.144,0.01647
802.358,0.01536
796.572,0.01624
790.786,0.01473
784.999,0.01540
779.213,0.01609
773.427,0.01531
767.641,0.01495
761.854,0.01480
756.068,0.01587
750.282,0.01442
744.496,0.01416
738.709,0.01578
732.923,0.01576
727.137,0.01574
721.351,0.01531
715.565,0.01490
709.778,0.01448
703.992,0.01363
698.206,0.01342
692.42,0.01466
686.633,0.01483
680.847,0.01472
675.061,0.01467
669.275,0.01596
663.488,0.01416
657.702,0.01403
651.916,0.01270
646.13,0.01428
640.343,0.01299
634.557,0.01411
628.771,0.01459
622.985,0.01392
617.198,0.01205
611.412,0.01274
605.626,0.01299
599.84,0.01376