File: 01_Data/Polyolefin_Carpet_Low_Pile/FTIR/IS/Polyolefin_Carpet_Low_Pile_IS_T_220819_R3.dpt
7497.03,0.01969
7491.25,0.01686
7485.46,0.02285
7479.67,0.01126
7473.89,0.01718
7468.1,0.02480
7462.32,0.01842
7456.53,0.01753
7450.74,0.02213
7444.96,0.01510
7439.17,0.02029
7433.38,0.02226
7427.6,0.01359
7421.81,0.02122
7416.03,0.02397
7410.24,0.01905
7404.45,0.01900
7398.67,0.01814
7392.88,0.02157
7387.09,0.01755
7381.31,0.03023
7375.52,0.01543
7369.74,0.01901
7363.95,0.02034
7358.16,0.02686
7352.38,0.02992
7346.59,0.01798
7340.8,0.01801
7335.02,0.02631
7329.23,0.01601
7323.45,0.02260
7317.66,0.02592
7311.87,0.02240
7306.09,0.01533
7300.3,0.02599
7294.51,0.01500
7288.73,0.01773
7282.94,0.02254
7277.16,0.02477
7271.37,0.01691
7265.58,0.01893
7259.8,0.02249
7254.01,0.02269
7248.22,0.02338
7242.44,0.02094
7236.65,0.01516
7230.87,0.01756
7225.08,0.01517
7219.29,0.02354
7213.51,0.02342
7207.72,0.01862
7201.93,0.02745
7196.15,0.01883
7190.36,0.02131
7184.58,0.01629
7178.79,0.02422
7173,0.01888
7167.22,0.02133
7161.43,0.02417
7155.65,0.01604
7149.86,0.01988
7144.07,0.02422
7138.29,0.02423
7132.5,0.02662
7126.71,0.02386
7120.93,0.02088
7115.14,0.02336
7109.36,0.01571
7103.57,0.02068
7097.78,0.01805
7092,0.01737
7086.21,0.02198
7080.42,0.02041
7074.64,0.01917
7068.85,0.02079
7063.07,0.02439
7057.28,0.02349
7051.49,0.02252
7045.71,0.01642
7039.92,0.02045
7034.13,0.01831
7028.35,0.02584
7022.56,0.01850
7016.78,0.02006
7010.99,0.02443
7005.2,0.02367
6999.42,0.02191
6993.63,0.01829
6987.84,0.01410
6982.06,0.02373
6976.27,0.02582
6970.49,0.01845
6964.7,0.02213
6958.91,0.02089
6953.13,0.02244
6947.34,0.02068
6941.55,0.02619
6935.77,0.01930
6929.98,0.02141
6924.2,0.01887
6918.41,0.02427
6912.62,0.02205
6906.84,0.02127
6901.05,0.02135
6895.26,0.02432
6889.48,0.02416
6883.69,0.01783
6877.91,0.01991
6872.12,0.02071
6866.33,0.01444
6860.55,0.02311
6854.76,0.02353
6848.97,0.01790
6843.19,0.02412
6837.4,0.02004
6831.62,0.02001
6825.83,0.01796
6820.04,0.02189
6814.26,0.02433
6808.47,0.02025
6802.68,0.02052
6796.9,0.02285
6791.11,0.02082
6785.33,0.01686
6779.54,0.01591
6773.75,0.02346
6767.97,0.01826
6762.18,0.01846
6756.39,0.02102
6750.61,0.02482
6744.82,0.02204
6739.04,0.01995
6733.25,0.02030
6727.46,0.02172
6721.68,0.01794
6715.89,0.02101
6710.1,0.01922
6704.32,0.01707
6698.53,0.02447
6692.75,0.02244
6686.96,0.01643
6681.17,0.02314
6675.39,0.02220
6669.6,0.02368
6663.82,0.02284
6658.03,0.02251
6652.24,0.02165
6646.46,0.01832
6640.67,0.01857
6634.88,0.01755
6629.1,0.01468
6623.31,0.01390
6617.53,0.01941
6611.74,0.02223
6605.95,0.01805
6600.17,0.01758
6594.38,0.02035
6588.59,0.01939
6582.81,0.02225
6577.02,0.02787
6571.24,0.02040
6565.45,0.02060
6559.66,0.01730
6553.88,0.02002
6548.09,0.01548
6542.3,0.01927
6536.52,0.01883
6530.73,0.02297
6524.95,0.01952
6519.16,0.02074
6513.37,0.01998
6507.59,0.01787
6501.8,0.02319
6496.01,0.01778
6490.23,0.01985
6484.44,0.01637
6478.66,0.01819
6472.87,0.02025
6467.08,0.02094
6461.3,0.01843
6455.51,0.01732
6449.72,0.01900
6443.94,0.01931
6438.15,0.01991
6432.37,0.01979
6426.58,0.01911
6420.79,0.01989
6415.01,0.02005
6409.22,0.01810
6403.43,0.02024
6397.65,0.02097
6391.86,0.02171
6386.08,0.01986
6380.29,0.01996
6374.5,0.02067
6368.72,0.01815
6362.93,0.02022
6357.14,0.02054
6351.36,0.01729
6345.57,0.01975
6339.79,0.02370
6334,0.01862
6328.21,0.01978
6322.43,0.01889
6316.64,0.01708
6310.85,0.01739
6305.07,0.02111
6299.28,0.02032
6293.5,0.02012
6287.71,0.01886
6281.92,0.01919
6276.14,0.02022
6270.35,0.01949
6264.56,0.01951
6258.78,0.01958
6252.99,0.02103
6247.21,0.01872
6241.42,0.01750
6235.63,0.01713
6229.85,0.02103
6224.06,0.01648
6218.27,0.01722
6212.49,0.01660
6206.7,0.01847
6200.92,0.01800
6195.13,0.02295
6189.34,0.01837
6183.56,0.02024
6177.77,0.01983
6171.98,0.01846
6166.2,0.01746
6160.41,0.01756
6154.63,0.01921
6148.84,0.01717
6143.05,0.01881
6137.27,0.02010
6131.48,0.01832
6125.7,0.01811
6119.91,0.02004
6114.12,0.01597
6108.34,0.01999
6102.55,0.01936
6096.76,0.01892
6090.98,0.02006
6085.19,0.01772
6079.41,0.01925
6073.62,0.01892
6067.83,0.01811
6062.05,0.02154
6056.26,0.02322
6050.47,0.01892
6044.69,0.01924
6038.9,0.02015
6033.12,0.01977
6027.33,0.01760
6021.54,0.01787
6015.76,0.01681
6009.97,0.01611
6004.18,0.02067
5998.4,0.02088
5992.61,0.02125
5986.83,0.01943
5981.04,0.02078
5975.25,0.01883
5969.47,0.01883
5963.68,0.01979
5957.89,0.01943
5952.11,0.01728
5946.32,0.01928
5940.54,0.01867
5934.75,0.01806
5928.96,0.02064
5923.18,0.01754
5917.39,0.01724
5911.6,0.01787
5905.82,0.01790
5900.03,0.01674
5894.25,0.01901
5888.46,0.01955
5882.67,0.01874
5876.89,0.01911
5871.1,0.02006
5865.31,0.02057
5859.53,0.01818
5853.74,0.01814
5847.96,0.02010
5842.17,0.01755
5836.38,0.01918
5830.6,0.01909
5824.81,0.02071
5819.02,0.01948
5813.24,0.01824
5807.45,0.02116
5801.67,0.01968
5795.88,0.01942
5790.09,0.01922
5784.31,0.01868
5778.52,0.01922
5772.73,0.01717
5766.95,0.01819
5761.16,0.01987
5755.38,0.01674
5749.59,0.02121
5743.8,0.01935
5738.02,0.01874
5732.23,0.01991
5726.44,0.02077
5720.66,0.01912
5714.87,0.02111
5709.09,0.01972
5703.3,0.01986
5697.51,0.01988
5691.73,0.01996
5685.94,0.02225
5680.15,0.01996
5674.37,0.01925
5668.58,0.01890
5662.8,0.02005
5657.01,0.02053
5651.22,0.01906
5645.44,0.01829
5639.65,0.01727
5633.87,0.01929
5628.08,0.01635
5622.29,0.02070
5616.51,0.01920
5610.72,0.01872
5604.93,0.01948
5599.15,0.01859
5593.36,0.01813
5587.58,0.01854
5581.79,0.01832
5576,0.01938
5570.22,0.01898
5564.43,0.01887
5558.64,0.01948
5552.86,0.01942
5547.07,0.01786
5541.29,0.02022
5535.5,0.01997
5529.71,0.01902
5523.93,0.02083
5518.14,0.01824
5512.35,0.01839
5506.57,0.01803
5500.78,0.01849
5495,0.01915
5489.21,0.01878
5483.42,0.01887
5477.64,0.01951
5471.85,0.02053
5466.06,0.01756
5460.28,0.01926
5454.49,0.01984
5448.71,0.01934
5442.92,0.01847
5437.13,0.02022
5431.35,0.02108
5425.56,0.01851
5419.77,0.02139
5413.99,0.01872
5408.2,0.02033
5402.42,0.01885
5396.63,0.02209
5390.84,0.02186
5385.06,0.01995
5379.27,0.01859
5373.48,0.01778
5367.7,0.01889
5361.91,0.01989
5356.13,0.01891
5350.34,0.01837
5344.55,0.02159
5338.77,0.01861
5332.98,0.01968
5327.19,0.01813
5321.41,0.01857
5315.62,0.01986
5309.84,0.01936
5304.05,0.02073
5298.26,0.01928
5292.48,0.01868
5286.69,0.01853
5280.9,0.02034
5275.12,0.01987
5269.33,0.01785
5263.55,0.01884
5257.76,0.01903
5251.97,0.01970
5246.19,0.01936
5240.4,0.01982
5234.61,0.01864
5228.83,0.01986
5223.04,0.01935
5217.26,0.01881
5211.47,0.01956
5205.68,0.02048
5199.9,0.01933
5194.11,0.01964
5188.32,0.01955
5182.54,0.02004
5176.75,0.02049
5170.97,0.02004
5165.18,0.01914
5159.39,0.02116
5153.61,0.01865
5147.82,0.01809
5142.03,0.01936
5136.25,0.01901
5130.46,0.01813
5124.68,0.01853
5118.89,0.01973
5113.1,0.01880
5107.32,0.01780
5101.53,0.01898
5095.75,0.02049
5089.96,0.01967
5084.17,0.02018
5078.39,0.02066
5072.6,0.01974
5066.81,0.02024
5061.03,0.01883
5055.24,0.01949
5049.46,0.01952
5043.67,0.01953
5037.88,0.01996
5032.1,0.02014
5026.31,0.01985
5020.52,0.01860
5014.74,0.02002
5008.95,0.01936
5003.17,0.02010
4997.38,0.02008
4991.59,0.01936
4985.81,0.01900
4980.02,0.02072
4974.23,0.01978
4968.45,0.01948
4962.66,0.01918
4956.88,0.01851
4951.09,0.01969
4945.3,0.02018
4939.52,0.01962
4933.73,0.01959
4927.94,0.01894
4922.16,0.01968
4916.37,0.01986
4910.59,0.01923
4904.8,0.01963
4899.01,0.02085
4893.23,0.02051
4887.44,0.01886
4881.65,0.01981
4875.87,0.01929
4870.08,0.01954
4864.3,0.01928
4858.51,0.01975
4852.72,0.01940
4846.94,0.01990
4841.15,0.01989
4835.36,0.01917
4829.58,0.01940
4823.79,0.01974
4818.01,0.01838
4812.22,0.02016
4806.43,0.02017
4800.65,0.01927
4794.86,0.01983
4789.07,0.01908
4783.29,0.01888
4777.5,0.01926
4771.72,0.02033
4765.93,0.01985
4760.14,0.01859
4754.36,0.01976
4748.57,0.01973
4742.78,0.01899
4737,0.02051
4731.21,0.01947
4725.43,0.01996
4719.64,0.02094
4713.85,0.01899
4708.07,0.01958
4702.28,0.02008
4696.49,0.01947
4690.71,0.01988
4684.92,0.01982
4679.14,0.01873
4673.35,0.01866
4667.56,0.01972
4661.78,0.02021
4655.99,0.01949
4650.2,0.01957
4644.42,0.01958
4638.63,0.01998
4632.85,0.01954
4627.06,0.01934
4621.27,0.01934
4615.49,0.01909
4609.7,0.01950
4603.92,0.01917
4598.13,0.02021
4592.34,0.01973
4586.56,0.02037
4580.77,0.02022
4574.98,0.01918
4569.2,0.02036
4563.41,0.01960
4557.63,0.01989
4551.84,0.01995
4546.05,0.01989
4540.27,0.01949
4534.48,0.01895
4528.69,0.02033
4522.91,0.02024
4517.12,0.01974
4511.34,0.01992
4505.55,0.01977
4499.76,0.01996
4493.98,0.02051
4488.19,0.02024
4482.4,0.02014
4476.62,0.02004
4470.83,0.01975
4465.05,0.02023
4459.26,0.01886
4453.47,0.01986
4447.69,0.01962
4441.9,0.01992
4436.11,0.01894
4430.33,0.01948
4424.54,0.01923
4418.76,0.01947
4412.97,0.01917
4407.18,0.02000
4401.4,0.02042
4395.61,0.01980
4389.82,0.02013
4384.04,0.02008
4378.25,0.01949
4372.47,0.01984
4366.68,0.01942
4360.89,0.01969
4355.11,0.01999
4349.32,0.01990
4343.53,0.02042
4337.75,0.01912
4331.96,0.01985
4326.18,0.02047
4320.39,0.01975
4314.6,0.01992
4308.82,0.01982
4303.03,0.02010
4297.24,0.01951
4291.46,0.01980
4285.67,0.01952
4279.89,0.01882
4274.1,0.01987
4268.31,0.01914
4262.53,0.01945
4256.74,0.01985
4250.95,0.02020
4245.17,0.01986
4239.38,0.02061
4233.6,0.01978
4227.81,0.02019
4222.02,0.01991
4216.24,0.02050
4210.45,0.02029
4204.66,0.02057
4198.88,0.02033
4193.09,0.01924
4187.31,0.02024
4181.52,0.02022
4175.73,0.02056
4169.95,0.01994
4164.16,0.01987
4158.37,0.01983
4152.59,0.02019
4146.8,0.02013
4141.02,0.01935
4135.23,0.01901
4129.44,0.02037
4123.66,0.01991
4117.87,0.01969
4112.09,0.02035
4106.3,0.02008
4100.51,0.02043
4094.73,0.02070
4088.94,0.01996
4083.15,0.02047
4077.37,0.01993
4071.58,0.02055
4065.8,0.02071
4060.01,0.02055
4054.22,0.02020
4048.44,0.02009
4042.65,0.02011
4036.86,0.01983
4031.08,0.01966
4025.29,0.02002
4019.51,0.01979
4013.72,0.02014
4007.93,0.02009
4002.15,0.02010
3996.36,0.02005
3990.57,0.01967
3984.79,0.01995
3979,0.02040
3973.22,0.01968
3967.43,0.01996
3961.64,0.02015
3955.86,0.02028
3950.07,0.02041
3944.28,0.01966
3938.5,0.01968
3932.71,0.01948
3926.93,0.01981
3921.14,0.02038
3915.35,0.01987
3909.57,0.02025
3903.78,0.02000
3897.99,0.01911
3892.21,0.02009
3886.42,0.01942
3880.64,0.02021
3874.85,0.01987
3869.06,0.02048
3863.28,0.01987
3857.49,0.02035
3851.7,0.02013
3845.92,0.01998
3840.13,0.02011
3834.35,0.01981
3828.56,0.02042
3822.77,0.01995
3816.99,0.02041
3811.2,0.02012
3805.41,0.02021
3799.63,0.01986
3793.84,0.01999
3788.06,0.01977
3782.27,0.01991
3776.48,0.01979
3770.7,0.01981
3764.91,0.02020
3759.12,0.02016
3753.34,0.02003
3747.55,0.01967
3741.77,0.02002
3735.98,0.01943
3730.19,0.01975
3724.41,0.01971
3718.62,0.01985
3712.83,0.02001
3707.05,0.01973
3701.26,0.01992
3695.48,0.01974
3689.69,0.02009
3683.9,0.01974
3678.12,0.01992
3672.33,0.02006
3666.54,0.01960
3660.76,0.01959
3654.97,0.01910
3649.19,0.01909
3643.4,0.01966
3637.61,0.01974
3631.83,0.01881
3626.04,0.01889
3620.25,0.01889
3614.47,0.01936
3608.68,0.01931
3602.9,0.01878
3597.11,0.01940
3591.32,0.01894
3585.54,0.01907
3579.75,0.01896
3573.97,0.01878
3568.18,0.01875
3562.39,0.01888
3556.61,0.01804
3550.82,0.01881
3545.03,0.01842
3539.25,0.01820
3533.46,0.01838
3527.68,0.01899
3521.89,0.01850
3516.1,0.01798
3510.32,0.01870
3504.53,0.01844
3498.74,0.01818
3492.96,0.01858
3487.17,0.01786
3481.39,0.01832
3475.6,0.01866
3469.81,0.01809
3464.03,0.01722
3458.24,0.01787
3452.45,0.01789
3446.67,0.01756
3440.88,0.01818
3435.1,0.01739
3429.31,0.01827
3423.52,0.01780
3417.74,0.01726
3411.95,0.01760
3406.16,0.01780
3400.38,0.01766
3394.59,0.01748
3388.81,0.01784
3383.02,0.01771
3377.23,0.01752
3371.45,0.01772
3365.66,0.01791
3359.87,0.01706
3354.09,0.01727
3348.3,0.01758
3342.52,0.01767
3336.73,0.01736
3330.94,0.01707
3325.16,0.01713
3319.37,0.01776
3313.58,0.01823
3307.8,0.01762
3302.01,0.01733
3296.23,0.01745
3290.44,0.01784
3284.65,0.01769
3278.87,0.01774
3273.08,0.01733
3267.29,0.01774
3261.51,0.01809
3255.72,0.01809
3249.94,0.01645
3244.15,0.01816
3238.36,0.01816
3232.58,0.01784
3226.79,0.01788
3221,0.01864
3215.22,0.01779
3209.43,0.01841
3203.65,0.01772
3197.86,0.01767
3192.07,0.01797
3186.29,0.01749
3180.5,0.01731
3174.71,0.01793
3168.93,0.01759
3163.14,0.01777
3157.36,0.01847
3151.57,0.01873
3145.78,0.01836
3140,0.01912
3134.21,0.01849
3128.42,0.01841
3122.64,0.01847
3116.85,0.01821
3111.07,0.01782
3105.28,0.01797
3099.49,0.01776
3093.71,0.01801
3087.92,0.01764
3082.14,0.01848
3076.35,0.01811
3070.56,0.01807
3064.78,0.01808
3058.99,0.01772
3053.2,0.01751
3047.42,0.01807
3041.63,0.01805
3035.85,0.01841
3030.06,0.01853
3024.27,0.01772
3018.49,0.01699
3012.7,0.01739
3006.91,0.01769
3001.13,0.01758
2995.34,0.01776
2989.56,0.01718
2983.77,0.01730
2977.98,0.01695
2972.2,0.01670
2966.41,0.01738
2960.62,0.01656
2954.84,0.01691
2949.05,0.01628
2943.27,0.01655
2937.48,0.01653
2931.69,0.01748
2925.91,0.01732
2920.12,0.01712
2914.33,0.01755
2908.55,0.01837
2902.76,0.01786
2896.98,0.01823
2891.19,0.01780
2885.4,0.01723
2879.62,0.01780
2873.83,0.01787
2868.04,0.01776
2862.26,0.01761
2856.47,0.01789
2850.69,0.01785
2844.9,0.01859
2839.11,0.01891
2833.33,0.01885
2827.54,0.01868
2821.75,0.01854
2815.97,0.01851
2810.18,0.01804
2804.4,0.01868
2798.61,0.01801
2792.82,0.01848
2787.04,0.01853
2781.25,0.01878
2775.46,0.01843
2769.68,0.01837
2763.89,0.01799
2758.11,0.01862
2752.32,0.01827
2746.53,0.01792
2740.75,0.01852
2734.96,0.01836
2729.17,0.01806
2723.39,0.01827
2717.6,0.01882
2711.82,0.01893
2706.03,0.01858
2700.24,0.01881
2694.46,0.01861
2688.67,0.01850
2682.88,0.01848
2677.1,0.01838
2671.31,0.01859
2665.53,0.01854
2659.74,0.01882
2653.95,0.01860
2648.17,0.01840
2642.38,0.01831
2636.59,0.01891
2630.81,0.01887
2625.02,0.01858
2619.24,0.01862
2613.45,0.01825
2607.66,0.01838
2601.88,0.01846
2596.09,0.01833
2590.3,0.01848
2584.52,0.01836
2578.73,0.01863
2572.95,0.01837
2567.16,0.01841
2561.37,0.01843
2555.59,0.01878
2549.8,0.01883
2544.02,0.01863
2538.23,0.01849
2532.44,0.01855
2526.66,0.01829
2520.87,0.01861
2515.08,0.01896
2509.3,0.01878
2503.51,0.01870
2497.73,0.01885
2491.94,0.01875
2486.15,0.01862
2480.37,0.01834
2474.58,0.01882
2468.79,0.01886
2463.01,0.01824
2457.22,0.01848
2451.44,0.01862
2445.65,0.01868
2439.86,0.01863
2434.08,0.01827
2428.29,0.01825
2422.5,0.01839
2416.72,0.01841
2410.93,0.01868
2405.15,0.01870
2399.36,0.01837
2393.57,0.01880
2387.79,0.01847
2382,0.01848
2376.21,0.01901
2370.43,0.01887
2364.64,0.01855
2358.86,0.01861
2353.07,0.01865
2347.28,0.01878
2341.5,0.01850
2335.71,0.01879
2329.92,0.01864
2324.14,0.01862
2318.35,0.01854
2312.57,0.01828
2306.78,0.01856
2300.99,0.01844
2295.21,0.01848
2289.42,0.01859
2283.63,0.01848
2277.85,0.01832
2272.06,0.01839
2266.28,0.01804
2260.49,0.01825
2254.7,0.01835
2248.92,0.01848
2243.13,0.01839
2237.34,0.01832
2231.56,0.01870
2225.77,0.01833
2219.99,0.01827
2214.2,0.01852
2208.41,0.01840
2202.63,0.01859
2196.84,0.01819
2191.05,0.01829
2185.27,0.01850
2179.48,0.01850
2173.7,0.01843
2167.91,0.01820
2162.12,0.01847
2156.34,0.01832
2150.55,0.01836
2144.76,0.01809
2138.98,0.01812
2133.19,0.01808
2127.41,0.01798
2121.62,0.01824
2115.83,0.01825
2110.05,0.01851
2104.26,0.01864
2098.47,0.01852
2092.69,0.01836
2086.9,0.01808
2081.12,0.01816
2075.33,0.01830
2069.54,0.01847
2063.76,0.01831
2057.97,0.01842
2052.19,0.01836
2046.4,0.01845
2040.61,0.01782
2034.83,0.01792
2029.04,0.01807
2023.25,0.01846
2017.47,0.01842
2011.68,0.01808
2005.9,0.01835
2000.11,0.01803
1994.32,0.01783
1988.54,0.01813
1982.75,0.01809
1976.96,0.01834
1971.18,0.01780
1965.39,0.01782
1959.61,0.01798
1953.82,0.01847
1948.03,0.01826
1942.25,0.01820
1936.46,0.01798
1930.67,0.01803
1924.89,0.01820
1919.1,0.01800
1913.32,0.01806
1907.53,0.01799
1901.74,0.01797
1895.96,0.01772
1890.17,0.01804
1884.38,0.01764
1878.6,0.01817
1872.81,0.01778
1867.03,0.01776
1861.24,0.01800
1855.45,0.01772
1849.67,0.01771
1843.88,0.01776
1838.09,0.01756
1832.31,0.01770
1826.52,0.01766
1820.74,0.01736
1814.95,0.01719
1809.16,0.01723
1803.38,0.01648
1797.59,0.01690
1791.8,0.01674
1786.02,0.01655
1780.23,0.01620
1774.45,0.01624
1768.66,0.01541
1762.87,0.01552
1757.09,0.01490
1751.3,0.01462
1745.51,0.01486
1739.73,0.01593
1733.94,0.01691
1728.16,0.01723
1722.37,0.01780
1716.58,0.01800
1710.8,0.01782
1705.01,0.01742
1699.22,0.01729
1693.44,0.01652
1687.65,0.01637
1681.87,0.01593
1676.08,0.01617
1670.29,0.01596
1664.51,0.01562
1658.72,0.01577
1652.93,0.01578
1647.15,0.01528
1641.36,0.01578
1635.58,0.01592
1629.79,0.01593
1624,0.01571
1618.22,0.01593
1612.43,0.01601
1606.64,0.01614
1600.86,0.01614
1595.07,0.01612
1589.29,0.01584
1583.5,0.01571
1577.71,0.01505
1571.93,0.01545
1566.14,0.01532
1560.35,0.01580
1554.57,0.01556
1548.78,0.01565
1543,0.01570
1537.21,0.01533
1531.42,0.01602
1525.64,0.01538
1519.85,0.01606
1514.07,0.01573
1508.28,0.01606
1502.49,0.01607
1496.71,0.01598
1490.92,0.01587
1485.13,0.01588
1479.35,0.01577
1473.56,0.01559
1467.78,0.01560
1461.99,0.01578
1456.2,0.01588
1450.42,0.01615
1444.63,0.01603
1438.84,0.01596
1433.06,0.01608
1427.27,0.01580
1421.49,0.01616
1415.7,0.01541
1409.91,0.01562
1404.13,0.01566
1398.34,0.01529
1392.55,0.01505
1386.77,0.01554
1380.98,0.01548
1375.2,0.01547
1369.41,0.01587
1363.62,0.01528
1357.84,0.01541
1352.05,0.01536
1346.26,0.01499
1340.48,0.01536
1334.69,0.01471
1328.91,0.01447
1323.12,0.01466
1317.33,0.01444
1311.55,0.01421
1305.76,0.01436
1299.97,0.01495
1294.19,0.01516
1288.4,0.01553
1282.62,0.01631
1276.83,0.01622
1271.04,0.01622
1265.26,0.01677
1259.47,0.01696
1253.68,0.01724
1247.9,0.01747
1242.11,0.01702
1236.33,0.01664
1230.54,0.01661
1224.75,0.01645
1218.97,0.01647
1213.18,0.01634
1207.39,0.01608
1201.61,0.01564
1195.82,0.01591
1190.04,0.01569
1184.25,0.01542
1178.46,0.01508
1172.68,0.01500
1166.89,0.01482
1161.1,0.01440
1155.32,0.01457
1149.53,0.01428
1143.75,0.01424
1137.96,0.01491
1132.17,0.01543
1126.39,0.01577
1120.6,0.01591
1114.81,0.01618
1109.03,0.01580
1103.24,0.01522
1097.46,0.01539
1091.67,0.01626
1085.88,0.01500
1080.1,0.01587
1074.31,0.01645
1068.52,0.01706
1062.74,0.01762
1056.95,0.01715
1051.17,0.01766
1045.38,0.01675
1039.59,0.01633
1033.81,0.01692
1028.02,0.01616
1022.24,0.01639
1016.45,0.01644
1010.66,0.01727
1004.88,0.01751
999.09,0.01849
993.304,0.01868
987.518,0.01827
981.731,0.01760
975.945,0.01742
970.159,0.01727
964.373,0.01785
958.586,0.01699
952.8,0.01674
947.014,0.01720
941.228,0.01660
935.441,0.01686
929.655,0.01623
923.869,0.01678
918.083,0.01675
912.297,0.01681
906.51,0.01603
900.724,0.01661
894.938,0.01685
889.152,0.01657
883.365,0.01682
877.579,0.01648
871.793,0.01619
866.007,0.01638
860.22,0.01717
854.434,0.01707
848.648,0.01617
842.862,0.01642
837.075,0.01578
831.289,0.01594
825.503,0.01601
819.717,0.01681
813.931,0.01643
808.144,0.01672
802.358,0.01590
796.572,0.01610
790.786,0.01527
784.999,0.01540
779.213,0.01557
773.427,0.01675
767.641,0.01525
761.854,0.01483
756.068,0.01527
750.282,0.01467
744.496,0.01539
738.709,0.01592
732.923,0.01567
727.137,0.01558
721.351,0.01436
715.565,0.01570
709.778,0.01490
703.992,0.01439
698.206,0.01430
692.42,0.01537
686.633,0.01397
680.847,0.01401
675.061,0.01427
669.275,0.01427
663.488,0.01416
657.702,0.01433
651.916,0.01300
646.13,0.01569
640.343,0.01391
634.557,0.01336
628.771,0.01237
622.985,0.01254
617.198,0.01122
611.412,0.01202
605.626,0.01330
599.84,0.01243