File: 01_Data/Polyolefin_Carpet_Low_Pile/FTIR/IS/Polyolefin_Carpet_Low_Pile_IS_S_220819_R8.dpt
7497.03,0.11431
7491.25,0.11422
7485.46,0.11686
7479.67,0.12343
7473.89,0.11597
7468.1,0.11761
7462.32,0.12097
7456.53,0.11387
7450.74,0.11756
7444.96,0.11547
7439.17,0.11838
7433.38,0.11486
7427.6,0.11448
7421.81,0.11717
7416.03,0.11761
7410.24,0.12022
7404.45,0.11634
7398.67,0.11776
7392.88,0.11616
7387.09,0.10608
7381.31,0.11272
7375.52,0.11860
7369.74,0.11752
7363.95,0.11954
7358.16,0.12817
7352.38,0.11401
7346.59,0.11577
7340.8,0.11227
7335.02,0.11760
7329.23,0.11663
7323.45,0.11557
7317.66,0.11982
7311.87,0.11693
7306.09,0.11418
7300.3,0.11212
7294.51,0.12381
7288.73,0.11322
7282.94,0.11872
7277.16,0.11808
7271.37,0.11697
7265.58,0.12263
7259.8,0.11645
7254.01,0.11338
7248.22,0.11158
7242.44,0.11442
7236.65,0.11398
7230.87,0.11856
7225.08,0.11816
7219.29,0.12532
7213.51,0.11845
7207.72,0.11278
7201.93,0.10993
7196.15,0.11584
7190.36,0.11396
7184.58,0.11794
7178.79,0.11303
7173,0.11002
7167.22,0.12208
7161.43,0.11355
7155.65,0.11931
7149.86,0.10958
7144.07,0.11464
7138.29,0.11751
7132.5,0.11105
7126.71,0.11544
7120.93,0.12115
7115.14,0.11636
7109.36,0.11516
7103.57,0.11445
7097.78,0.11936
7092,0.11396
7086.21,0.11624
7080.42,0.11870
7074.64,0.11360
7068.85,0.11136
7063.07,0.11374
7057.28,0.11838
7051.49,0.11478
7045.71,0.12085
7039.92,0.11849
7034.13,0.11599
7028.35,0.11978
7022.56,0.12202
7016.78,0.11974
7010.99,0.11103
7005.2,0.11558
6999.42,0.11349
6993.63,0.11105
6987.84,0.11414
6982.06,0.11159
6976.27,0.11279
6970.49,0.11530
6964.7,0.11662
6958.91,0.11421
6953.13,0.11829
6947.34,0.11914
6941.55,0.11862
6935.77,0.11733
6929.98,0.11858
6924.2,0.11489
6918.41,0.12452
6912.62,0.11943
6906.84,0.11731
6901.05,0.11518
6895.26,0.11389
6889.48,0.11673
6883.69,0.11746
6877.91,0.11544
6872.12,0.11693
6866.33,0.11668
6860.55,0.12070
6854.76,0.11761
6848.97,0.11441
6843.19,0.12307
6837.4,0.12099
6831.62,0.11723
6825.83,0.11687
6820.04,0.11912
6814.26,0.11779
6808.47,0.11396
6802.68,0.11785
6796.9,0.11506
6791.11,0.11801
6785.33,0.12037
6779.54,0.11905
6773.75,0.12211
6767.97,0.11798
6762.18,0.11755
6756.39,0.12161
6750.61,0.11807
6744.82,0.11550
6739.04,0.11773
6733.25,0.11875
6727.46,0.11697
6721.68,0.11941
6715.89,0.12080
6710.1,0.11867
6704.32,0.12024
6698.53,0.11765
6692.75,0.11932
6686.96,0.12344
6681.17,0.11532
6675.39,0.11678
6669.6,0.11811
6663.82,0.11989
6658.03,0.11972
6652.24,0.11799
6646.46,0.11619
6640.67,0.12311
6634.88,0.11960
6629.1,0.11949
6623.31,0.12146
6617.53,0.11803
6611.74,0.11834
6605.95,0.11744
6600.17,0.11590
6594.38,0.11655
6588.59,0.11734
6582.81,0.11604
6577.02,0.12342
6571.24,0.12179
6565.45,0.11822
6559.66,0.11509
6553.88,0.11898
6548.09,0.11639
6542.3,0.11838
6536.52,0.11679
6530.73,0.11765
6524.95,0.11956
6519.16,0.12009
6513.37,0.12052
6507.59,0.12006
6501.8,0.11795
6496.01,0.12126
6490.23,0.12124
6484.44,0.11951
6478.66,0.11913
6472.87,0.11604
6467.08,0.11966
6461.3,0.11628
6455.51,0.12012
6449.72,0.12030
6443.94,0.11891
6438.15,0.12030
6432.37,0.11495
6426.58,0.12069
6420.79,0.11798
6415.01,0.12051
6409.22,0.11823
6403.43,0.12157
6397.65,0.11631
6391.86,0.11845
6386.08,0.11771
6380.29,0.12055
6374.5,0.11720
6368.72,0.11994
6362.93,0.11825
6357.14,0.12046
6351.36,0.11768
6345.57,0.11922
6339.79,0.11851
6334,0.11947
6328.21,0.12034
6322.43,0.11950
6316.64,0.11947
6310.85,0.12125
6305.07,0.11741
6299.28,0.11804
6293.5,0.12071
6287.71,0.11916
6281.92,0.11978
6276.14,0.11994
6270.35,0.11912
6264.56,0.11917
6258.78,0.11618
6252.99,0.12136
6247.21,0.11737
6241.42,0.12170
6235.63,0.12160
6229.85,0.12023
6224.06,0.11826
6218.27,0.11817
6212.49,0.11737
6206.7,0.11696
6200.92,0.11859
6195.13,0.11789
6189.34,0.12010
6183.56,0.11758
6177.77,0.11845
6171.98,0.12062
6166.2,0.11415
6160.41,0.11785
6154.63,0.12015
6148.84,0.11559
6143.05,0.11694
6137.27,0.11834
6131.48,0.11808
6125.7,0.11815
6119.91,0.11854
6114.12,0.11825
6108.34,0.11973
6102.55,0.11916
6096.76,0.11905
6090.98,0.11790
6085.19,0.11631
6079.41,0.11838
6073.62,0.11750
6067.83,0.12157
6062.05,0.11939
6056.26,0.11759
6050.47,0.11897
6044.69,0.11833
6038.9,0.11870
6033.12,0.11927
6027.33,0.11808
6021.54,0.12073
6015.76,0.11918
6009.97,0.11771
6004.18,0.11736
5998.4,0.11951
5992.61,0.11845
5986.83,0.11366
5981.04,0.11548
5975.25,0.11593
5969.47,0.11886
5963.68,0.11841
5957.89,0.11620
5952.11,0.11763
5946.32,0.11586
5940.54,0.11526
5934.75,0.11560
5928.96,0.11379
5923.18,0.11287
5917.39,0.10965
5911.6,0.10915
5905.82,0.10312
5900.03,0.10642
5894.25,0.10287
5888.46,0.10685
5882.67,0.10422
5876.89,0.10101
5871.1,0.10187
5865.31,0.10062
5859.53,0.09807
5853.74,0.10010
5847.96,0.10244
5842.17,0.10247
5836.38,0.10295
5830.6,0.10429
5824.81,0.10285
5819.02,0.10345
5813.24,0.10207
5807.45,0.09915
5801.67,0.10216
5795.88,0.09995
5790.09,0.10071
5784.31,0.10219
5778.52,0.10045
5772.73,0.10309
5766.95,0.10005
5761.16,0.10124
5755.38,0.10012
5749.59,0.09897
5743.8,0.10248
5738.02,0.10523
5732.23,0.10444
5726.44,0.10730
5720.66,0.10857
5714.87,0.10810
5709.09,0.10875
5703.3,0.10922
5697.51,0.10993
5691.73,0.10825
5685.94,0.10689
5680.15,0.11068
5674.37,0.11049
5668.58,0.10977
5662.8,0.10964
5657.01,0.10898
5651.22,0.11018
5645.44,0.11017
5639.65,0.11046
5633.87,0.10997
5628.08,0.10879
5622.29,0.11052
5616.51,0.11203
5610.72,0.11124
5604.93,0.11272
5599.15,0.11104
5593.36,0.11345
5587.58,0.11326
5581.79,0.11208
5576,0.11325
5570.22,0.11378
5564.43,0.11271
5558.64,0.11160
5552.86,0.11186
5547.07,0.11329
5541.29,0.11419
5535.5,0.11347
5529.71,0.11260
5523.93,0.11103
5518.14,0.11123
5512.35,0.11142
5506.57,0.11233
5500.78,0.11180
5495,0.11223
5489.21,0.11207
5483.42,0.11159
5477.64,0.11191
5471.85,0.11175
5466.06,0.11214
5460.28,0.11309
5454.49,0.11362
5448.71,0.11398
5442.92,0.11340
5437.13,0.11260
5431.35,0.11401
5425.56,0.11424
5419.77,0.11374
5413.99,0.11664
5408.2,0.11600
5402.42,0.11544
5396.63,0.11547
5390.84,0.11561
5385.06,0.11511
5379.27,0.11742
5373.48,0.11732
5367.7,0.11703
5361.91,0.11528
5356.13,0.11580
5350.34,0.11703
5344.55,0.11760
5338.77,0.11805
5332.98,0.11714
5327.19,0.11769
5321.41,0.11703
5315.62,0.11810
5309.84,0.11741
5304.05,0.11662
5298.26,0.11591
5292.48,0.11637
5286.69,0.11791
5280.9,0.11699
5275.12,0.11645
5269.33,0.11740
5263.55,0.11650
5257.76,0.11740
5251.97,0.11725
5246.19,0.11496
5240.4,0.11707
5234.61,0.11743
5228.83,0.11754
5223.04,0.11738
5217.26,0.11763
5211.47,0.11653
5205.68,0.11686
5199.9,0.11779
5194.11,0.11764
5188.32,0.11865
5182.54,0.11653
5176.75,0.11758
5170.97,0.11759
5165.18,0.11707
5159.39,0.11880
5153.61,0.11711
5147.82,0.11827
5142.03,0.11814
5136.25,0.11821
5130.46,0.11800
5124.68,0.11834
5118.89,0.11789
5113.1,0.11882
5107.32,0.11787
5101.53,0.11778
5095.75,0.11803
5089.96,0.11785
5084.17,0.11872
5078.39,0.11871
5072.6,0.11770
5066.81,0.11864
5061.03,0.11783
5055.24,0.11814
5049.46,0.11881
5043.67,0.11837
5037.88,0.11773
5032.1,0.11881
5026.31,0.11909
5020.52,0.11811
5014.74,0.11852
5008.95,0.11862
5003.17,0.11990
4997.38,0.12018
4991.59,0.11920
4985.81,0.11900
4980.02,0.12011
4974.23,0.12182
4968.45,0.12146
4962.66,0.12054
4956.88,0.12014
4951.09,0.11931
4945.3,0.11979
4939.52,0.12087
4933.73,0.11991
4927.94,0.12111
4922.16,0.12117
4916.37,0.12046
4910.59,0.12129
4904.8,0.12016
4899.01,0.12029
4893.23,0.12186
4887.44,0.12026
4881.65,0.11932
4875.87,0.12124
4870.08,0.12053
4864.3,0.12069
4858.51,0.12085
4852.72,0.12044
4846.94,0.12111
4841.15,0.12183
4835.36,0.12111
4829.58,0.12075
4823.79,0.12042
4818.01,0.12042
4812.22,0.12156
4806.43,0.11998
4800.65,0.12128
4794.86,0.12070
4789.07,0.12050
4783.29,0.12060
4777.5,0.12189
4771.72,0.12083
4765.93,0.12193
4760.14,0.12198
4754.36,0.12122
4748.57,0.12132
4742.78,0.12093
4737,0.12067
4731.21,0.12119
4725.43,0.12085
4719.64,0.12228
4713.85,0.12127
4708.07,0.12182
4702.28,0.12132
4696.49,0.12090
4690.71,0.12148
4684.92,0.12187
4679.14,0.12163
4673.35,0.12045
4667.56,0.12057
4661.78,0.12154
4655.99,0.12068
4650.2,0.12141
4644.42,0.12134
4638.63,0.12075
4632.85,0.12029
4627.06,0.12040
4621.27,0.12032
4615.49,0.11982
4609.7,0.12020
4603.92,0.11952
4598.13,0.11951
4592.34,0.12032
4586.56,0.11922
4580.77,0.12008
4574.98,0.11866
4569.2,0.11946
4563.41,0.11871
4557.63,0.11937
4551.84,0.11942
4546.05,0.11951
4540.27,0.11912
4534.48,0.11887
4528.69,0.11934
4522.91,0.11985
4517.12,0.11950
4511.34,0.11927
4505.55,0.11887
4499.76,0.11873
4493.98,0.11828
4488.19,0.11849
4482.4,0.11889
4476.62,0.11783
4470.83,0.11772
4465.05,0.11666
4459.26,0.11664
4453.47,0.11541
4447.69,0.11421
4441.9,0.11266
4436.11,0.10943
4430.33,0.10571
4424.54,0.10090
4418.76,0.09621
4412.97,0.09116
4407.18,0.08650
4401.4,0.08204
4395.61,0.07579
4389.82,0.07450
4384.04,0.07760
4378.25,0.08123
4372.47,0.08329
4366.68,0.08538
4360.89,0.08733
4355.11,0.08555
4349.32,0.08308
4343.53,0.07581
4337.75,0.06826
4331.96,0.06145
4326.18,0.05801
4320.39,0.05817
4314.6,0.06094
4308.82,0.06429
4303.03,0.06822
4297.24,0.07218
4291.46,0.07402
4285.67,0.07348
4279.89,0.07453
4274.1,0.07441
4268.31,0.07418
4262.53,0.07230
4256.74,0.06948
4250.95,0.06575
4245.17,0.06184
4239.38,0.06220
4233.6,0.06575
4227.81,0.06982
4222.02,0.06985
4216.24,0.07024
4210.45,0.07111
4204.66,0.07282
4198.88,0.07473
4193.09,0.07759
4187.31,0.07904
4181.52,0.07776
4175.73,0.07626
4169.95,0.07385
4164.16,0.07459
4158.37,0.07645
4152.59,0.07749
4146.8,0.07902
4141.02,0.08055
4135.23,0.08097
4129.44,0.08023
4123.66,0.07832
4117.87,0.07852
4112.09,0.07888
4106.3,0.08160
4100.51,0.08430
4094.73,0.08477
4088.94,0.08401
4083.15,0.08037
4077.37,0.07688
4071.58,0.07434
4065.8,0.07102
4060.01,0.06809
4054.22,0.07142
4048.44,0.07762
4042.65,0.08327
4036.86,0.08478
4031.08,0.08647
4025.29,0.08770
4019.51,0.08873
4013.72,0.09004
4007.93,0.09154
4002.15,0.09147
3996.36,0.09091
3990.57,0.09189
3984.79,0.09289
3979,0.09538
3973.22,0.09568
3967.43,0.09659
3961.64,0.09716
3955.86,0.09867
3950.07,0.09955
3944.28,0.09926
3938.5,0.09858
3932.71,0.09771
3926.93,0.09784
3921.14,0.09800
3915.35,0.09819
3909.57,0.09906
3903.78,0.10020
3897.99,0.09977
3892.21,0.10019
3886.42,0.10047
3880.64,0.10004
3874.85,0.10039
3869.06,0.10118
3863.28,0.10186
3857.49,0.10304
3851.7,0.10306
3845.92,0.10331
3840.13,0.10314
3834.35,0.10318
3828.56,0.10291
3822.77,0.10306
3816.99,0.10288
3811.2,0.10248
3805.41,0.10366
3799.63,0.10363
3793.84,0.10438
3788.06,0.10476
3782.27,0.10535
3776.48,0.10482
3770.7,0.10306
3764.91,0.10174
3759.12,0.10249
3753.34,0.10403
3747.55,0.10477
3741.77,0.10541
3735.98,0.10662
3730.19,0.10685
3724.41,0.10763
3718.62,0.10793
3712.83,0.10716
3707.05,0.10759
3701.26,0.10680
3695.48,0.10739
3689.69,0.10789
3683.9,0.10771
3678.12,0.10866
3672.33,0.11027
3666.54,0.11225
3660.76,0.11254
3654.97,0.11318
3649.19,0.11321
3643.4,0.11194
3637.61,0.11119
3631.83,0.11183
3626.04,0.11244
3620.25,0.11368
3614.47,0.11355
3608.68,0.11433
3602.9,0.11425
3597.11,0.11449
3591.32,0.11427
3585.54,0.11318
3579.75,0.11291
3573.97,0.11267
3568.18,0.11281
3562.39,0.11152
3556.61,0.11132
3550.82,0.11109
3545.03,0.10961
3539.25,0.10930
3533.46,0.10846
3527.68,0.10811
3521.89,0.10738
3516.1,0.10765
3510.32,0.10734
3504.53,0.10689
3498.74,0.10631
3492.96,0.10582
3487.17,0.10465
3481.39,0.10447
3475.6,0.10379
3469.81,0.10242
3464.03,0.10153
3458.24,0.10029
3452.45,0.09943
3446.67,0.09810
3440.88,0.09705
3435.1,0.09569
3429.31,0.09431
3423.52,0.09278
3417.74,0.09131
3411.95,0.09186
3406.16,0.09246
3400.38,0.09288
3394.59,0.09392
3388.81,0.09442
3383.02,0.09340
3377.23,0.09165
3371.45,0.09138
3365.66,0.09046
3359.87,0.08928
3354.09,0.08905
3348.3,0.08788
3342.52,0.08838
3336.73,0.08902
3330.94,0.09132
3325.16,0.09261
3319.37,0.09391
3313.58,0.09335
3307.8,0.09227
3302.01,0.09130
3296.23,0.09098
3290.44,0.09105
3284.65,0.09136
3278.87,0.09029
3273.08,0.09101
3267.29,0.09069
3261.51,0.09146
3255.72,0.09104
3249.94,0.09117
3244.15,0.09081
3238.36,0.08866
3232.58,0.08601
3226.79,0.08306
3221,0.07910
3215.22,0.07437
3209.43,0.07071
3203.65,0.06763
3197.86,0.06493
3192.07,0.06528
3186.29,0.06479
3180.5,0.06602
3174.71,0.06742
3168.93,0.06822
3163.14,0.06848
3157.36,0.06782
3151.57,0.06711
3145.78,0.06509
3140,0.06478
3134.21,0.06528
3128.42,0.06726
3122.64,0.06919
3116.85,0.07123
3111.07,0.07214
3105.28,0.07197
3099.49,0.07181
3093.71,0.07191
3087.92,0.07177
3082.14,0.07126
3076.35,0.07061
3070.56,0.06963
3064.78,0.06817
3058.99,0.06602
3053.2,0.06435
3047.42,0.06238
3041.63,0.06101
3035.85,0.05834
3030.06,0.05544
3024.27,0.05121
3018.49,0.04634
3012.7,0.04094
3006.91,0.03491
3001.13,0.02953
2995.34,0.02477
2989.56,0.02048
2983.77,0.01737
2977.98,0.01598
2972.2,0.01495
2966.41,0.01473
2960.62,0.01618
2954.84,0.01711
2949.05,0.01792
2943.27,0.01784
2937.48,0.01645
2931.69,0.01625
2925.91,0.01667
2920.12,0.01804
2914.33,0.01892
2908.55,0.01901
2902.76,0.01948
2896.98,0.01893
2891.19,0.01862
2885.4,0.01815
2879.62,0.01821
2873.83,0.01846
2868.04,0.01867
2862.26,0.01889
2856.47,0.01889
2850.69,0.01923
2844.9,0.01860
2839.11,0.01896
2833.33,0.01975
2827.54,0.01999
2821.75,0.02115
2815.97,0.02252
2810.18,0.02405
2804.4,0.02676
2798.61,0.02953
2792.82,0.03207
2787.04,0.03758
2781.25,0.04428
2775.46,0.04951
2769.68,0.05207
2763.89,0.05371
2758.11,0.05575
2752.32,0.05644
2746.53,0.05558
2740.75,0.05178
2734.96,0.04659
2729.17,0.04210
2723.39,0.03705
2717.6,0.04090
2711.82,0.04792
2706.03,0.05267
2700.24,0.05645
2694.46,0.05807
2688.67,0.05788
2682.88,0.05796
2677.1,0.05758
2671.31,0.05906
2665.53,0.05970
2659.74,0.05920
2653.95,0.06184
2648.17,0.06465
2642.38,0.06622
2636.59,0.06879
2630.81,0.06820
2625.02,0.06519
2619.24,0.06326
2613.45,0.06373
2607.66,0.06806
2601.88,0.07257
2596.09,0.07352
2590.3,0.07006
2584.52,0.06434
2578.73,0.06418
2572.95,0.06998
2567.16,0.07566
2561.37,0.07845
2555.59,0.07954
2549.8,0.08170
2544.02,0.08513
2538.23,0.08686
2532.44,0.08910
2526.66,0.09194
2520.87,0.09499
2515.08,0.09780
2509.3,0.09936
2503.51,0.10031
2497.73,0.10025
2491.94,0.09957
2486.15,0.10120
2480.37,0.10275
2474.58,0.10450
2468.79,0.10599
2463.01,0.10548
2457.22,0.10458
2451.44,0.10361
2445.65,0.10263
2439.86,0.10014
2434.08,0.09599
2428.29,0.09500
2422.5,0.09716
2416.72,0.10003
2410.93,0.10035
2405.15,0.09941
2399.36,0.09820
2393.57,0.09953
2387.79,0.10143
2382,0.10210
2376.21,0.10187
2370.43,0.10157
2364.64,0.10054
2358.86,0.10064
2353.07,0.10231
2347.28,0.10505
2341.5,0.10698
2335.71,0.10776
2329.92,0.10971
2324.14,0.11200
2318.35,0.11434
2312.57,0.11617
2306.78,0.11651
2300.99,0.11602
2295.21,0.11617
2289.42,0.11719
2283.63,0.11776
2277.85,0.11658
2272.06,0.11414
2266.28,0.11234
2260.49,0.11065
2254.7,0.10964
2248.92,0.11280
2243.13,0.11610
2237.34,0.11684
2231.56,0.11588
2225.77,0.11670
2219.99,0.11844
2214.2,0.11828
2208.41,0.11779
2202.63,0.11637
2196.84,0.11533
2191.05,0.11496
2185.27,0.11438
2179.48,0.11405
2173.7,0.11317
2167.91,0.11373
2162.12,0.11676
2156.34,0.11888
2150.55,0.12077
2144.76,0.12235
2138.98,0.12027
2133.19,0.11683
2127.41,0.11814
2121.62,0.12471
2115.83,0.12944
2110.05,0.13106
2104.26,0.13165
2098.47,0.13159
2092.69,0.13183
2086.9,0.13263
2081.12,0.13545
2075.33,0.13853
2069.54,0.14030
2063.76,0.14112
2057.97,0.14048
2052.19,0.13981
2046.4,0.13991
2040.61,0.14022
2034.83,0.13959
2029.04,0.13919
2023.25,0.14004
2017.47,0.14090
2011.68,0.14106
2005.9,0.14116
2000.11,0.14060
1994.32,0.13952
1988.54,0.14006
1982.75,0.14022
1976.96,0.14116
1971.18,0.14044
1965.39,0.13961
1959.61,0.13841
1953.82,0.13813
1948.03,0.13821
1942.25,0.13855
1936.46,0.13833
1930.67,0.13837
1924.89,0.13775
1919.1,0.13632
1913.32,0.13571
1907.53,0.13525
1901.74,0.13460
1895.96,0.13218
1890.17,0.13201
1884.38,0.13484
1878.6,0.13619
1872.81,0.13658
1867.03,0.13685
1861.24,0.13532
1855.45,0.13423
1849.67,0.13402
1843.88,0.13291
1838.09,0.13098
1832.31,0.12976
1826.52,0.13056
1820.74,0.13294
1814.95,0.13346
1809.16,0.13419
1803.38,0.13322
1797.59,0.13175
1791.8,0.13008
1786.02,0.12908
1780.23,0.12850
1774.45,0.12699
1768.66,0.12446
1762.87,0.12079
1757.09,0.11658
1751.3,0.10998
1745.51,0.10120
1739.73,0.09795
1733.94,0.10042
1728.16,0.10282
1722.37,0.10535
1716.58,0.10602
1710.8,0.10500
1705.01,0.10404
1699.22,0.10211
1693.44,0.10107
1687.65,0.10075
1681.87,0.10115
1676.08,0.10196
1670.29,0.10195
1664.51,0.10167
1658.72,0.10068
1652.93,0.09669
1647.15,0.09082
1641.36,0.09212
1635.58,0.09457
1629.79,0.09538
1624,0.09574
1618.22,0.09684
1612.43,0.09652
1606.64,0.09648
1600.86,0.09997
1595.07,0.10261
1589.29,0.10363
1583.5,0.10402
1577.71,0.10394
1571.93,0.10285
1566.14,0.10131
1560.35,0.09902
1554.57,0.09655
1548.78,0.09437
1543,0.09215
1537.21,0.08913
1531.42,0.08850
1525.64,0.08910
1519.85,0.08903
1514.07,0.08602
1508.28,0.08086
1502.49,0.07428
1496.71,0.06697
1490.92,0.05821
1485.13,0.04648
1479.35,0.03386
1473.56,0.02224
1467.78,0.01727
1461.99,0.01652
1456.2,0.01659
1450.42,0.01802
1444.63,0.01898
1438.84,0.02092
1433.06,0.02761
1427.27,0.04275
1421.49,0.04984
1415.7,0.05384
1409.91,0.05533
1404.13,0.05429
1398.34,0.05058
1392.55,0.04206
1386.77,0.02699
1380.98,0.01698
1375.2,0.01828
1369.41,0.02231
1363.62,0.02548
1357.84,0.02486
1352.05,0.03506
1346.26,0.04947
1340.48,0.05886
1334.69,0.05800
1328.91,0.05197
1323.12,0.06112
1317.33,0.07036
1311.55,0.06819
1305.76,0.04579
1299.97,0.04793
1294.19,0.05602
1288.4,0.06859
1282.62,0.07593
1276.83,0.07981
1271.04,0.07924
1265.26,0.07306
1259.47,0.05611
1253.68,0.04952
1247.9,0.07071
1242.11,0.08019
1236.33,0.08388
1230.54,0.08402
1224.75,0.07883
1218.97,0.07118
1213.18,0.07913
1207.39,0.08349
1201.61,0.08396
1195.82,0.08421
1190.04,0.08256
1184.25,0.07700
1178.46,0.06000
1172.68,0.03641
1166.89,0.02785
1161.1,0.03048
1155.32,0.03399
1149.53,0.04085
1143.75,0.05598
1137.96,0.07081
1132.17,0.08001
1126.39,0.08368
1120.6,0.08291
1114.81,0.08033
1109.03,0.07377
1103.24,0.06106
1097.46,0.07108
1091.67,0.08400
1085.88,0.09230
1080.1,0.09608
1074.31,0.09882
1068.52,0.10001
1062.74,0.09888
1056.95,0.09578
1051.17,0.08805
1045.38,0.07261
1039.59,0.08113
1033.81,0.09017
1028.02,0.09453
1022.24,0.09168
1016.45,0.08453
1010.66,0.07160
1004.88,0.05034
999.09,0.03330
993.304,0.04178
987.518,0.06054
981.731,0.05262
975.945,0.02902
970.159,0.03254
964.373,0.06222
958.586,0.08798
952.8,0.10215
947.014,0.10453
941.228,0.09388
935.441,0.11124
929.655,0.12505
923.869,0.12779
918.083,0.12623
912.297,0.11930
906.51,0.10334
900.724,0.06429
894.938,0.08052
889.152,0.10891
883.365,0.11583
877.579,0.11525
871.793,0.11312
866.007,0.10979
860.22,0.10246
854.434,0.09080
848.648,0.07106
842.862,0.04154
837.075,0.05213
831.289,0.08069
825.503,0.09608
819.717,0.09854
813.931,0.07871
808.144,0.06000
802.358,0.08784
796.572,0.10779
790.786,0.12281
784.999,0.13705
779.213,0.14671
773.427,0.14945
767.641,0.14955
761.854,0.15068
756.068,0.15020
750.282,0.15231
744.496,0.15200
738.709,0.14954
732.923,0.14673
727.137,0.13961
721.351,0.13309
715.565,0.14244
709.778,0.14797
703.992,0.14809
698.206,0.14969
692.42,0.15071
686.633,0.15175
680.847,0.15153
675.061,0.15235
669.275,0.15194
663.488,0.15303
657.702,0.15248
651.916,0.15387
646.13,0.15189
640.343,0.15448
634.557,0.15476
628.771,0.15521
622.985,0.15280
617.198,0.15255
611.412,0.15231
605.626,0.15153
599.84,0.15313