File: 01_Data/Polyolefin_Carpet_Low_Pile/FTIR/IS/Polyolefin_Carpet_Low_Pile_IS_S_220819_R7.dpt
7497.03,0.11985
7491.25,0.11865
7485.46,0.12102
7479.67,0.12696
7473.89,0.12034
7468.1,0.10808
7462.32,0.10601
7456.53,0.10884
7450.74,0.12043
7444.96,0.12197
7439.17,0.11541
7433.38,0.11662
7427.6,0.11628
7421.81,0.11414
7416.03,0.12986
7410.24,0.12095
7404.45,0.11358
7398.67,0.11398
7392.88,0.11493
7387.09,0.11649
7381.31,0.12630
7375.52,0.11652
7369.74,0.12306
7363.95,0.12312
7358.16,0.12451
7352.38,0.11496
7346.59,0.11295
7340.8,0.10881
7335.02,0.11480
7329.23,0.11386
7323.45,0.11381
7317.66,0.11144
7311.87,0.11679
7306.09,0.11842
7300.3,0.11793
7294.51,0.11341
7288.73,0.11364
7282.94,0.11449
7277.16,0.11203
7271.37,0.11141
7265.58,0.11436
7259.8,0.11645
7254.01,0.11961
7248.22,0.11609
7242.44,0.11231
7236.65,0.11451
7230.87,0.11660
7225.08,0.11515
7219.29,0.11437
7213.51,0.10779
7207.72,0.11421
7201.93,0.11529
7196.15,0.11712
7190.36,0.11449
7184.58,0.11407
7178.79,0.11690
7173,0.11526
7167.22,0.11739
7161.43,0.11307
7155.65,0.11442
7149.86,0.11556
7144.07,0.11614
7138.29,0.11368
7132.5,0.12293
7126.71,0.11723
7120.93,0.11829
7115.14,0.11759
7109.36,0.11211
7103.57,0.11902
7097.78,0.11778
7092,0.11405
7086.21,0.11521
7080.42,0.11876
7074.64,0.11823
7068.85,0.12126
7063.07,0.11606
7057.28,0.11482
7051.49,0.11880
7045.71,0.11619
7039.92,0.11574
7034.13,0.11154
7028.35,0.11415
7022.56,0.11145
7016.78,0.11326
7010.99,0.11834
7005.2,0.11759
6999.42,0.11721
6993.63,0.12008
6987.84,0.11431
6982.06,0.11836
6976.27,0.11755
6970.49,0.11096
6964.7,0.11540
6958.91,0.11667
6953.13,0.11660
6947.34,0.11880
6941.55,0.11542
6935.77,0.11241
6929.98,0.11729
6924.2,0.11709
6918.41,0.11799
6912.62,0.11219
6906.84,0.11425
6901.05,0.12093
6895.26,0.11655
6889.48,0.11763
6883.69,0.11395
6877.91,0.11718
6872.12,0.11483
6866.33,0.11283
6860.55,0.11584
6854.76,0.11615
6848.97,0.11873
6843.19,0.11600
6837.4,0.11489
6831.62,0.11921
6825.83,0.12108
6820.04,0.11648
6814.26,0.11545
6808.47,0.11427
6802.68,0.11941
6796.9,0.12067
6791.11,0.11863
6785.33,0.12225
6779.54,0.11766
6773.75,0.12077
6767.97,0.12201
6762.18,0.12281
6756.39,0.11966
6750.61,0.12215
6744.82,0.11758
6739.04,0.11786
6733.25,0.11611
6727.46,0.11664
6721.68,0.11470
6715.89,0.11885
6710.1,0.11700
6704.32,0.11980
6698.53,0.11688
6692.75,0.11549
6686.96,0.11263
6681.17,0.11778
6675.39,0.11519
6669.6,0.11719
6663.82,0.12145
6658.03,0.12297
6652.24,0.12117
6646.46,0.11802
6640.67,0.11640
6634.88,0.11930
6629.1,0.12060
6623.31,0.11969
6617.53,0.11431
6611.74,0.12116
6605.95,0.11604
6600.17,0.11924
6594.38,0.11776
6588.59,0.11972
6582.81,0.11774
6577.02,0.12111
6571.24,0.11800
6565.45,0.11924
6559.66,0.12041
6553.88,0.11603
6548.09,0.11749
6542.3,0.12090
6536.52,0.11934
6530.73,0.11897
6524.95,0.12461
6519.16,0.11670
6513.37,0.11878
6507.59,0.12033
6501.8,0.11867
6496.01,0.12002
6490.23,0.12037
6484.44,0.11661
6478.66,0.12207
6472.87,0.11476
6467.08,0.11790
6461.3,0.12023
6455.51,0.11906
6449.72,0.12044
6443.94,0.12085
6438.15,0.12224
6432.37,0.11921
6426.58,0.11649
6420.79,0.11388
6415.01,0.12128
6409.22,0.12053
6403.43,0.12135
6397.65,0.11518
6391.86,0.11856
6386.08,0.12054
6380.29,0.11885
6374.5,0.12007
6368.72,0.11881
6362.93,0.11971
6357.14,0.11826
6351.36,0.11522
6345.57,0.11984
6339.79,0.11866
6334,0.12044
6328.21,0.12005
6322.43,0.11755
6316.64,0.11839
6310.85,0.12095
6305.07,0.11913
6299.28,0.11607
6293.5,0.11705
6287.71,0.11802
6281.92,0.11796
6276.14,0.11750
6270.35,0.12116
6264.56,0.11697
6258.78,0.11746
6252.99,0.12287
6247.21,0.11838
6241.42,0.11742
6235.63,0.11800
6229.85,0.11782
6224.06,0.11883
6218.27,0.11772
6212.49,0.12002
6206.7,0.11815
6200.92,0.11929
6195.13,0.12044
6189.34,0.12115
6183.56,0.11726
6177.77,0.11778
6171.98,0.11924
6166.2,0.11919
6160.41,0.11504
6154.63,0.11937
6148.84,0.11834
6143.05,0.11941
6137.27,0.11748
6131.48,0.11939
6125.7,0.11498
6119.91,0.11734
6114.12,0.11836
6108.34,0.12063
6102.55,0.11654
6096.76,0.11992
6090.98,0.11826
6085.19,0.11800
6079.41,0.11957
6073.62,0.11627
6067.83,0.11904
6062.05,0.11918
6056.26,0.11959
6050.47,0.11798
6044.69,0.12001
6038.9,0.11649
6033.12,0.11785
6027.33,0.11847
6021.54,0.11893
6015.76,0.12025
6009.97,0.11770
6004.18,0.11793
5998.4,0.11971
5992.61,0.11814
5986.83,0.11766
5981.04,0.11717
5975.25,0.11613
5969.47,0.11962
5963.68,0.11769
5957.89,0.11785
5952.11,0.11705
5946.32,0.11851
5940.54,0.11699
5934.75,0.11568
5928.96,0.11553
5923.18,0.11244
5917.39,0.10859
5911.6,0.10681
5905.82,0.10509
5900.03,0.10634
5894.25,0.10579
5888.46,0.10619
5882.67,0.10393
5876.89,0.10367
5871.1,0.09963
5865.31,0.09937
5859.53,0.10013
5853.74,0.09956
5847.96,0.10215
5842.17,0.10453
5836.38,0.10146
5830.6,0.10482
5824.81,0.10461
5819.02,0.10380
5813.24,0.10284
5807.45,0.10244
5801.67,0.10009
5795.88,0.10049
5790.09,0.09961
5784.31,0.10165
5778.52,0.10048
5772.73,0.10040
5766.95,0.10087
5761.16,0.10094
5755.38,0.10149
5749.59,0.10053
5743.8,0.10316
5738.02,0.10531
5732.23,0.10576
5726.44,0.10600
5720.66,0.10730
5714.87,0.10705
5709.09,0.10629
5703.3,0.10670
5697.51,0.10683
5691.73,0.11005
5685.94,0.10935
5680.15,0.10974
5674.37,0.11012
5668.58,0.10910
5662.8,0.10895
5657.01,0.10847
5651.22,0.10830
5645.44,0.10979
5639.65,0.11003
5633.87,0.11200
5628.08,0.10919
5622.29,0.11142
5616.51,0.11031
5610.72,0.11135
5604.93,0.11302
5599.15,0.11182
5593.36,0.11206
5587.58,0.11249
5581.79,0.11141
5576,0.11136
5570.22,0.11335
5564.43,0.11275
5558.64,0.11337
5552.86,0.11148
5547.07,0.11146
5541.29,0.11209
5535.5,0.11183
5529.71,0.11172
5523.93,0.11238
5518.14,0.11315
5512.35,0.11272
5506.57,0.11243
5500.78,0.11328
5495,0.11199
5489.21,0.11150
5483.42,0.11138
5477.64,0.11217
5471.85,0.11025
5466.06,0.11315
5460.28,0.11476
5454.49,0.11464
5448.71,0.11393
5442.92,0.11434
5437.13,0.11380
5431.35,0.11368
5425.56,0.11347
5419.77,0.11387
5413.99,0.11507
5408.2,0.11414
5402.42,0.11510
5396.63,0.11525
5390.84,0.11620
5385.06,0.11500
5379.27,0.11727
5373.48,0.11597
5367.7,0.11604
5361.91,0.11545
5356.13,0.11550
5350.34,0.11530
5344.55,0.11689
5338.77,0.11756
5332.98,0.11809
5327.19,0.11701
5321.41,0.11645
5315.62,0.11773
5309.84,0.11748
5304.05,0.11655
5298.26,0.11619
5292.48,0.11598
5286.69,0.11592
5280.9,0.11578
5275.12,0.11728
5269.33,0.11949
5263.55,0.11618
5257.76,0.11773
5251.97,0.11630
5246.19,0.11732
5240.4,0.11638
5234.61,0.11818
5228.83,0.11754
5223.04,0.11778
5217.26,0.11795
5211.47,0.11661
5205.68,0.11677
5199.9,0.11781
5194.11,0.11817
5188.32,0.11848
5182.54,0.11653
5176.75,0.11802
5170.97,0.11826
5165.18,0.11809
5159.39,0.11696
5153.61,0.11816
5147.82,0.11833
5142.03,0.11894
5136.25,0.11721
5130.46,0.11717
5124.68,0.11742
5118.89,0.11767
5113.1,0.11716
5107.32,0.11896
5101.53,0.11788
5095.75,0.11810
5089.96,0.11788
5084.17,0.11769
5078.39,0.11814
5072.6,0.11810
5066.81,0.11888
5061.03,0.11819
5055.24,0.11811
5049.46,0.11819
5043.67,0.11859
5037.88,0.11818
5032.1,0.11820
5026.31,0.11976
5020.52,0.11940
5014.74,0.11929
5008.95,0.11871
5003.17,0.12015
4997.38,0.11967
4991.59,0.12077
4985.81,0.11962
4980.02,0.12017
4974.23,0.11967
4968.45,0.12011
4962.66,0.11902
4956.88,0.11928
4951.09,0.12056
4945.3,0.12094
4939.52,0.12164
4933.73,0.12005
4927.94,0.12033
4922.16,0.12040
4916.37,0.12121
4910.59,0.12072
4904.8,0.12012
4899.01,0.11994
4893.23,0.12082
4887.44,0.12100
4881.65,0.12097
4875.87,0.12140
4870.08,0.12084
4864.3,0.12167
4858.51,0.12030
4852.72,0.12019
4846.94,0.12157
4841.15,0.12098
4835.36,0.12009
4829.58,0.12129
4823.79,0.12067
4818.01,0.12166
4812.22,0.12145
4806.43,0.12180
4800.65,0.12204
4794.86,0.12133
4789.07,0.12232
4783.29,0.12162
4777.5,0.12163
4771.72,0.12164
4765.93,0.12147
4760.14,0.12097
4754.36,0.12148
4748.57,0.12189
4742.78,0.12094
4737,0.12184
4731.21,0.12145
4725.43,0.12058
4719.64,0.12221
4713.85,0.12159
4708.07,0.12181
4702.28,0.12209
4696.49,0.12234
4690.71,0.12228
4684.92,0.12250
4679.14,0.12077
4673.35,0.12081
4667.56,0.12022
4661.78,0.12038
4655.99,0.11962
4650.2,0.12069
4644.42,0.12182
4638.63,0.12117
4632.85,0.12137
4627.06,0.12078
4621.27,0.12105
4615.49,0.12065
4609.7,0.12119
4603.92,0.12019
4598.13,0.12016
4592.34,0.12024
4586.56,0.11985
4580.77,0.11987
4574.98,0.11928
4569.2,0.11857
4563.41,0.11876
4557.63,0.11925
4551.84,0.11944
4546.05,0.11944
4540.27,0.11909
4534.48,0.11956
4528.69,0.11960
4522.91,0.11904
4517.12,0.11930
4511.34,0.12011
4505.55,0.11935
4499.76,0.11931
4493.98,0.11879
4488.19,0.11868
4482.4,0.11827
4476.62,0.11811
4470.83,0.11802
4465.05,0.11751
4459.26,0.11683
4453.47,0.11651
4447.69,0.11446
4441.9,0.11172
4436.11,0.10996
4430.33,0.10582
4424.54,0.10193
4418.76,0.09636
4412.97,0.09196
4407.18,0.08654
4401.4,0.08201
4395.61,0.07630
4389.82,0.07446
4384.04,0.07771
4378.25,0.08101
4372.47,0.08382
4366.68,0.08633
4360.89,0.08621
4355.11,0.08634
4349.32,0.08398
4343.53,0.07657
4337.75,0.06895
4331.96,0.06123
4326.18,0.05806
4320.39,0.05903
4314.6,0.06068
4308.82,0.06388
4303.03,0.06890
4297.24,0.07188
4291.46,0.07398
4285.67,0.07365
4279.89,0.07442
4274.1,0.07440
4268.31,0.07428
4262.53,0.07180
4256.74,0.06887
4250.95,0.06562
4245.17,0.06268
4239.38,0.06264
4233.6,0.06592
4227.81,0.06953
4222.02,0.06984
4216.24,0.07063
4210.45,0.07157
4204.66,0.07268
4198.88,0.07483
4193.09,0.07781
4187.31,0.07921
4181.52,0.07843
4175.73,0.07603
4169.95,0.07418
4164.16,0.07452
4158.37,0.07621
4152.59,0.07776
4146.8,0.08027
4141.02,0.08096
4135.23,0.08060
4129.44,0.07966
4123.66,0.07849
4117.87,0.07789
4112.09,0.07872
4106.3,0.08075
4100.51,0.08416
4094.73,0.08482
4088.94,0.08374
4083.15,0.08157
4077.37,0.07735
4071.58,0.07430
4065.8,0.07129
4060.01,0.06888
4054.22,0.07208
4048.44,0.07810
4042.65,0.08304
4036.86,0.08527
4031.08,0.08721
4025.29,0.08744
4019.51,0.08890
4013.72,0.09019
4007.93,0.09186
4002.15,0.09163
3996.36,0.09119
3990.57,0.09101
3984.79,0.09307
3979,0.09504
3973.22,0.09623
3967.43,0.09682
3961.64,0.09731
3955.86,0.09814
3950.07,0.09915
3944.28,0.09942
3938.5,0.09852
3932.71,0.09755
3926.93,0.09766
3921.14,0.09774
3915.35,0.09896
3909.57,0.09921
3903.78,0.10017
3897.99,0.09944
3892.21,0.10018
3886.42,0.10028
3880.64,0.10065
3874.85,0.10065
3869.06,0.10121
3863.28,0.10147
3857.49,0.10290
3851.7,0.10296
3845.92,0.10362
3840.13,0.10314
3834.35,0.10289
3828.56,0.10286
3822.77,0.10295
3816.99,0.10223
3811.2,0.10219
3805.41,0.10276
3799.63,0.10341
3793.84,0.10406
3788.06,0.10507
3782.27,0.10568
3776.48,0.10502
3770.7,0.10316
3764.91,0.10223
3759.12,0.10270
3753.34,0.10383
3747.55,0.10467
3741.77,0.10528
3735.98,0.10674
3730.19,0.10757
3724.41,0.10770
3718.62,0.10703
3712.83,0.10796
3707.05,0.10767
3701.26,0.10775
3695.48,0.10704
3689.69,0.10732
3683.9,0.10783
3678.12,0.10919
3672.33,0.11073
3666.54,0.11183
3660.76,0.11323
3654.97,0.11374
3649.19,0.11313
3643.4,0.11256
3637.61,0.11174
3631.83,0.11138
3626.04,0.11232
3620.25,0.11348
3614.47,0.11358
3608.68,0.11361
3602.9,0.11382
3597.11,0.11409
3591.32,0.11397
3585.54,0.11421
3579.75,0.11309
3573.97,0.11308
3568.18,0.11231
3562.39,0.11230
3556.61,0.11110
3550.82,0.11024
3545.03,0.11066
3539.25,0.10936
3533.46,0.10938
3527.68,0.10851
3521.89,0.10798
3516.1,0.10747
3510.32,0.10677
3504.53,0.10648
3498.74,0.10641
3492.96,0.10583
3487.17,0.10498
3481.39,0.10456
3475.6,0.10334
3469.81,0.10273
3464.03,0.10175
3458.24,0.10045
3452.45,0.09967
3446.67,0.09799
3440.88,0.09661
3435.1,0.09554
3429.31,0.09449
3423.52,0.09308
3417.74,0.09279
3411.95,0.09123
3406.16,0.09229
3400.38,0.09355
3394.59,0.09365
3388.81,0.09303
3383.02,0.09320
3377.23,0.09211
3371.45,0.09039
3365.66,0.09021
3359.87,0.08905
3354.09,0.08749
3348.3,0.08818
3342.52,0.08832
3336.73,0.08978
3330.94,0.09127
3325.16,0.09277
3319.37,0.09358
3313.58,0.09330
3307.8,0.09258
3302.01,0.09140
3296.23,0.09121
3290.44,0.09054
3284.65,0.09100
3278.87,0.09081
3273.08,0.09078
3267.29,0.09122
3261.51,0.09111
3255.72,0.09204
3249.94,0.09153
3244.15,0.09139
3238.36,0.08993
3232.58,0.08594
3226.79,0.08213
3221,0.07910
3215.22,0.07493
3209.43,0.07060
3203.65,0.06763
3197.86,0.06563
3192.07,0.06447
3186.29,0.06407
3180.5,0.06625
3174.71,0.06743
3168.93,0.06802
3163.14,0.06782
3157.36,0.06772
3151.57,0.06643
3145.78,0.06534
3140,0.06533
3134.21,0.06596
3128.42,0.06768
3122.64,0.06945
3116.85,0.07079
3111.07,0.07233
3105.28,0.07212
3099.49,0.07229
3093.71,0.07253
3087.92,0.07226
3082.14,0.07181
3076.35,0.07083
3070.56,0.06977
3064.78,0.06809
3058.99,0.06601
3053.2,0.06435
3047.42,0.06223
3041.63,0.06093
3035.85,0.05888
3030.06,0.05502
3024.27,0.05108
3018.49,0.04639
3012.7,0.04052
3006.91,0.03515
3001.13,0.02976
2995.34,0.02431
2989.56,0.02053
2983.77,0.01744
2977.98,0.01587
2972.2,0.01475
2966.41,0.01499
2960.62,0.01665
2954.84,0.01754
2949.05,0.01769
2943.27,0.01750
2937.48,0.01699
2931.69,0.01649
2925.91,0.01637
2920.12,0.01809
2914.33,0.01903
2908.55,0.01861
2902.76,0.01874
2896.98,0.01875
2891.19,0.01834
2885.4,0.01832
2879.62,0.01878
2873.83,0.01806
2868.04,0.01850
2862.26,0.01915
2856.47,0.01910
2850.69,0.01859
2844.9,0.01815
2839.11,0.01887
2833.33,0.01984
2827.54,0.01999
2821.75,0.02132
2815.97,0.02264
2810.18,0.02394
2804.4,0.02668
2798.61,0.02989
2792.82,0.03180
2787.04,0.03722
2781.25,0.04405
2775.46,0.04924
2769.68,0.05173
2763.89,0.05364
2758.11,0.05555
2752.32,0.05644
2746.53,0.05552
2740.75,0.05154
2734.96,0.04676
2729.17,0.04249
2723.39,0.03711
2717.6,0.04116
2711.82,0.04801
2706.03,0.05235
2700.24,0.05667
2694.46,0.05816
2688.67,0.05788
2682.88,0.05797
2677.1,0.05774
2671.31,0.05923
2665.53,0.05906
2659.74,0.05915
2653.95,0.06178
2648.17,0.06517
2642.38,0.06657
2636.59,0.06948
2630.81,0.06829
2625.02,0.06525
2619.24,0.06312
2613.45,0.06431
2607.66,0.06855
2601.88,0.07294
2596.09,0.07363
2590.3,0.07049
2584.52,0.06486
2578.73,0.06414
2572.95,0.07014
2567.16,0.07608
2561.37,0.07883
2555.59,0.07924
2549.8,0.08219
2544.02,0.08526
2538.23,0.08713
2532.44,0.08942
2526.66,0.09186
2520.87,0.09510
2515.08,0.09777
2509.3,0.09975
2503.51,0.10104
2497.73,0.10092
2491.94,0.09982
2486.15,0.10139
2480.37,0.10302
2474.58,0.10492
2468.79,0.10609
2463.01,0.10571
2457.22,0.10465
2451.44,0.10363
2445.65,0.10272
2439.86,0.10058
2434.08,0.09675
2428.29,0.09504
2422.5,0.09713
2416.72,0.09983
2410.93,0.10077
2405.15,0.09991
2399.36,0.09858
2393.57,0.09986
2387.79,0.10159
2382,0.10225
2376.21,0.10169
2370.43,0.10188
2364.64,0.10084
2358.86,0.10100
2353.07,0.10228
2347.28,0.10547
2341.5,0.10727
2335.71,0.10800
2329.92,0.10956
2324.14,0.11176
2318.35,0.11463
2312.57,0.11621
2306.78,0.11681
2300.99,0.11679
2295.21,0.11686
2289.42,0.11741
2283.63,0.11819
2277.85,0.11665
2272.06,0.11409
2266.28,0.11290
2260.49,0.11131
2254.7,0.10984
2248.92,0.11312
2243.13,0.11681
2237.34,0.11719
2231.56,0.11572
2225.77,0.11659
2219.99,0.11834
2214.2,0.11809
2208.41,0.11777
2202.63,0.11638
2196.84,0.11534
2191.05,0.11479
2185.27,0.11431
2179.48,0.11435
2173.7,0.11320
2167.91,0.11381
2162.12,0.11687
2156.34,0.11892
2150.55,0.12144
2144.76,0.12266
2138.98,0.12007
2133.19,0.11700
2127.41,0.11818
2121.62,0.12487
2115.83,0.12959
2110.05,0.13140
2104.26,0.13226
2098.47,0.13200
2092.69,0.13225
2086.9,0.13242
2081.12,0.13570
2075.33,0.13882
2069.54,0.14033
2063.76,0.14123
2057.97,0.14070
2052.19,0.14000
2046.4,0.14008
2040.61,0.14029
2034.83,0.14001
2029.04,0.13930
2023.25,0.14038
2017.47,0.14130
2011.68,0.14133
2005.9,0.14096
2000.11,0.14055
1994.32,0.13985
1988.54,0.14003
1982.75,0.14074
1976.96,0.14127
1971.18,0.14088
1965.39,0.13977
1959.61,0.13856
1953.82,0.13849
1948.03,0.13849
1942.25,0.13874
1936.46,0.13880
1930.67,0.13869
1924.89,0.13773
1919.1,0.13702
1913.32,0.13603
1907.53,0.13562
1901.74,0.13477
1895.96,0.13212
1890.17,0.13206
1884.38,0.13482
1878.6,0.13643
1872.81,0.13682
1867.03,0.13639
1861.24,0.13591
1855.45,0.13443
1849.67,0.13417
1843.88,0.13343
1838.09,0.13137
1832.31,0.12984
1826.52,0.13100
1820.74,0.13336
1814.95,0.13389
1809.16,0.13449
1803.38,0.13393
1797.59,0.13183
1791.8,0.13045
1786.02,0.12965
1780.23,0.12834
1774.45,0.12741
1768.66,0.12455
1762.87,0.12133
1757.09,0.11689
1751.3,0.11033
1745.51,0.10150
1739.73,0.09798
1733.94,0.10091
1728.16,0.10324
1722.37,0.10509
1716.58,0.10614
1710.8,0.10507
1705.01,0.10343
1699.22,0.10225
1693.44,0.10107
1687.65,0.10059
1681.87,0.10155
1676.08,0.10206
1670.29,0.10237
1664.51,0.10186
1658.72,0.10067
1652.93,0.09686
1647.15,0.09092
1641.36,0.09227
1635.58,0.09467
1629.79,0.09548
1624,0.09607
1618.22,0.09771
1612.43,0.09677
1606.64,0.09657
1600.86,0.09978
1595.07,0.10204
1589.29,0.10364
1583.5,0.10439
1577.71,0.10442
1571.93,0.10356
1566.14,0.10157
1560.35,0.09919
1554.57,0.09596
1548.78,0.09470
1543,0.09205
1537.21,0.08961
1531.42,0.08884
1525.64,0.08894
1519.85,0.08913
1514.07,0.08582
1508.28,0.08095
1502.49,0.07481
1496.71,0.06678
1490.92,0.05824
1485.13,0.04687
1479.35,0.03384
1473.56,0.02223
1467.78,0.01733
1461.99,0.01699
1456.2,0.01731
1450.42,0.01760
1444.63,0.01945
1438.84,0.02109
1433.06,0.02736
1427.27,0.04274
1421.49,0.05010
1415.7,0.05391
1409.91,0.05564
1404.13,0.05465
1398.34,0.05030
1392.55,0.04216
1386.77,0.02752
1380.98,0.01733
1375.2,0.01815
1369.41,0.02226
1363.62,0.02595
1357.84,0.02461
1352.05,0.03479
1346.26,0.04943
1340.48,0.05915
1334.69,0.05812
1328.91,0.05200
1323.12,0.06129
1317.33,0.07034
1311.55,0.06883
1305.76,0.04599
1299.97,0.04816
1294.19,0.05596
1288.4,0.06861
1282.62,0.07615
1276.83,0.07989
1271.04,0.07900
1265.26,0.07318
1259.47,0.05634
1253.68,0.04979
1247.9,0.07123
1242.11,0.08045
1236.33,0.08431
1230.54,0.08436
1224.75,0.07885
1218.97,0.07151
1213.18,0.07868
1207.39,0.08372
1201.61,0.08420
1195.82,0.08421
1190.04,0.08287
1184.25,0.07699
1178.46,0.06038
1172.68,0.03649
1166.89,0.02790
1161.1,0.03013
1155.32,0.03402
1149.53,0.04101
1143.75,0.05640
1137.96,0.07133
1132.17,0.08045
1126.39,0.08334
1120.6,0.08216
1114.81,0.08070
1109.03,0.07350
1103.24,0.06095
1097.46,0.07136
1091.67,0.08495
1085.88,0.09270
1080.1,0.09636
1074.31,0.09923
1068.52,0.09984
1062.74,0.09912
1056.95,0.09578
1051.17,0.08897
1045.38,0.07298
1039.59,0.08163
1033.81,0.09061
1028.02,0.09441
1022.24,0.09156
1016.45,0.08474
1010.66,0.07237
1004.88,0.05019
999.09,0.03341
993.304,0.04258
987.518,0.06075
981.731,0.05311
975.945,0.02944
970.159,0.03280
964.373,0.06257
958.586,0.08918
952.8,0.10229
947.014,0.10463
941.228,0.09331
935.441,0.11114
929.655,0.12553
923.869,0.12766
918.083,0.12577
912.297,0.11969
906.51,0.10272
900.724,0.06474
894.938,0.08150
889.152,0.10989
883.365,0.11628
877.579,0.11482
871.793,0.11315
866.007,0.10907
860.22,0.10228
854.434,0.09049
848.648,0.07128
842.862,0.04101
837.075,0.05292
831.289,0.08049
825.503,0.09667
819.717,0.09964
813.931,0.07908
808.144,0.05924
802.358,0.08750
796.572,0.10729
790.786,0.12185
784.999,0.13665
779.213,0.14714
773.427,0.14954
767.641,0.14987
761.854,0.15007
756.068,0.15067
750.282,0.15249
744.496,0.15219
738.709,0.15109
732.923,0.14720
727.137,0.14003
721.351,0.13290
715.565,0.14306
709.778,0.14860
703.992,0.14880
698.206,0.15022
692.42,0.15177
686.633,0.15224
680.847,0.15249
675.061,0.15122
669.275,0.15160
663.488,0.15236
657.702,0.15270
651.916,0.15383
646.13,0.15368
640.343,0.15566
634.557,0.15205
628.771,0.15398
622.985,0.15300
617.198,0.15401
611.412,0.15302
605.626,0.15357
599.84,0.15354