File: 01_Data/Polyolefin_Carpet_Low_Pile/FTIR/IS/Polyolefin_Carpet_Low_Pile_IS_S_220819_R4.dpt
7497.03,0.12205
7491.25,0.12160
7485.46,0.11885
7479.67,0.11500
7473.89,0.12356
7468.1,0.12357
7462.32,0.11392
7456.53,0.12383
7450.74,0.12144
7444.96,0.11882
7439.17,0.12242
7433.38,0.11763
7427.6,0.12096
7421.81,0.12407
7416.03,0.12557
7410.24,0.11574
7404.45,0.11478
7398.67,0.11394
7392.88,0.11764
7387.09,0.11632
7381.31,0.11373
7375.52,0.12458
7369.74,0.12437
7363.95,0.11400
7358.16,0.11196
7352.38,0.11655
7346.59,0.12401
7340.8,0.12179
7335.02,0.11958
7329.23,0.11714
7323.45,0.12489
7317.66,0.11888
7311.87,0.11854
7306.09,0.11976
7300.3,0.12056
7294.51,0.12386
7288.73,0.12143
7282.94,0.11730
7277.16,0.11820
7271.37,0.11405
7265.58,0.11994
7259.8,0.11047
7254.01,0.11862
7248.22,0.12134
7242.44,0.12180
7236.65,0.11938
7230.87,0.12201
7225.08,0.12259
7219.29,0.11209
7213.51,0.12246
7207.72,0.11504
7201.93,0.11415
7196.15,0.11462
7190.36,0.11457
7184.58,0.11770
7178.79,0.11453
7173,0.11522
7167.22,0.12069
7161.43,0.11810
7155.65,0.11661
7149.86,0.11688
7144.07,0.11074
7138.29,0.11429
7132.5,0.11646
7126.71,0.10975
7120.93,0.10927
7115.14,0.11993
7109.36,0.11812
7103.57,0.11881
7097.78,0.11285
7092,0.11190
7086.21,0.11541
7080.42,0.11773
7074.64,0.11717
7068.85,0.12321
7063.07,0.11978
7057.28,0.12102
7051.49,0.12065
7045.71,0.11797
7039.92,0.11627
7034.13,0.11541
7028.35,0.11344
7022.56,0.11792
7016.78,0.11502
7010.99,0.12216
7005.2,0.11946
6999.42,0.11706
6993.63,0.12054
6987.84,0.12106
6982.06,0.11995
6976.27,0.11668
6970.49,0.11746
6964.7,0.11921
6958.91,0.11715
6953.13,0.11673
6947.34,0.11773
6941.55,0.11312
6935.77,0.11629
6929.98,0.11846
6924.2,0.11928
6918.41,0.11976
6912.62,0.11399
6906.84,0.11939
6901.05,0.11593
6895.26,0.11852
6889.48,0.11740
6883.69,0.11766
6877.91,0.10973
6872.12,0.12012
6866.33,0.12537
6860.55,0.11484
6854.76,0.11588
6848.97,0.12162
6843.19,0.11946
6837.4,0.11915
6831.62,0.11527
6825.83,0.11703
6820.04,0.11811
6814.26,0.11785
6808.47,0.12052
6802.68,0.11742
6796.9,0.11455
6791.11,0.11390
6785.33,0.11818
6779.54,0.11872
6773.75,0.12060
6767.97,0.12037
6762.18,0.11628
6756.39,0.11844
6750.61,0.11637
6744.82,0.12119
6739.04,0.12193
6733.25,0.12037
6727.46,0.11780
6721.68,0.11812
6715.89,0.11835
6710.1,0.11555
6704.32,0.11527
6698.53,0.12110
6692.75,0.12269
6686.96,0.11600
6681.17,0.11497
6675.39,0.11692
6669.6,0.11675
6663.82,0.11553
6658.03,0.11971
6652.24,0.11802
6646.46,0.11727
6640.67,0.11503
6634.88,0.11800
6629.1,0.11723
6623.31,0.12057
6617.53,0.11929
6611.74,0.11563
6605.95,0.11604
6600.17,0.11996
6594.38,0.11884
6588.59,0.12136
6582.81,0.12495
6577.02,0.12131
6571.24,0.12078
6565.45,0.11710
6559.66,0.11404
6553.88,0.11793
6548.09,0.11723
6542.3,0.12269
6536.52,0.11967
6530.73,0.12072
6524.95,0.12192
6519.16,0.12153
6513.37,0.11876
6507.59,0.12073
6501.8,0.11987
6496.01,0.11679
6490.23,0.11696
6484.44,0.11597
6478.66,0.11781
6472.87,0.11919
6467.08,0.11876
6461.3,0.12124
6455.51,0.12171
6449.72,0.11830
6443.94,0.11813
6438.15,0.11601
6432.37,0.11724
6426.58,0.11666
6420.79,0.11954
6415.01,0.11917
6409.22,0.11737
6403.43,0.11892
6397.65,0.12510
6391.86,0.12055
6386.08,0.11694
6380.29,0.11951
6374.5,0.11927
6368.72,0.12114
6362.93,0.11997
6357.14,0.11591
6351.36,0.12077
6345.57,0.11982
6339.79,0.12142
6334,0.12206
6328.21,0.11983
6322.43,0.11727
6316.64,0.11896
6310.85,0.12124
6305.07,0.11690
6299.28,0.11938
6293.5,0.11665
6287.71,0.11907
6281.92,0.12074
6276.14,0.11968
6270.35,0.11787
6264.56,0.11629
6258.78,0.12087
6252.99,0.12117
6247.21,0.11964
6241.42,0.11992
6235.63,0.12033
6229.85,0.11907
6224.06,0.11780
6218.27,0.11793
6212.49,0.11804
6206.7,0.11723
6200.92,0.11722
6195.13,0.11799
6189.34,0.12154
6183.56,0.11820
6177.77,0.11597
6171.98,0.11823
6166.2,0.11928
6160.41,0.11829
6154.63,0.11926
6148.84,0.11903
6143.05,0.11743
6137.27,0.11921
6131.48,0.11799
6125.7,0.11598
6119.91,0.11765
6114.12,0.11884
6108.34,0.11486
6102.55,0.11693
6096.76,0.11749
6090.98,0.11881
6085.19,0.12021
6079.41,0.11924
6073.62,0.11759
6067.83,0.11904
6062.05,0.12201
6056.26,0.11810
6050.47,0.11846
6044.69,0.11926
6038.9,0.11672
6033.12,0.11970
6027.33,0.11706
6021.54,0.11903
6015.76,0.11780
6009.97,0.11542
6004.18,0.11851
5998.4,0.11681
5992.61,0.11629
5986.83,0.11842
5981.04,0.11488
5975.25,0.11751
5969.47,0.11529
5963.68,0.11682
5957.89,0.11564
5952.11,0.11713
5946.32,0.11711
5940.54,0.11509
5934.75,0.11445
5928.96,0.11220
5923.18,0.11460
5917.39,0.10813
5911.6,0.10640
5905.82,0.10479
5900.03,0.10542
5894.25,0.10424
5888.46,0.10475
5882.67,0.10504
5876.89,0.10303
5871.1,0.10081
5865.31,0.10109
5859.53,0.09811
5853.74,0.09971
5847.96,0.10119
5842.17,0.10183
5836.38,0.10192
5830.6,0.10329
5824.81,0.10254
5819.02,0.10290
5813.24,0.10252
5807.45,0.10325
5801.67,0.09946
5795.88,0.09899
5790.09,0.10195
5784.31,0.10108
5778.52,0.10242
5772.73,0.10341
5766.95,0.10259
5761.16,0.10033
5755.38,0.10011
5749.59,0.10124
5743.8,0.10444
5738.02,0.10543
5732.23,0.10763
5726.44,0.10667
5720.66,0.10756
5714.87,0.10892
5709.09,0.10767
5703.3,0.10941
5697.51,0.10970
5691.73,0.11109
5685.94,0.10824
5680.15,0.10861
5674.37,0.10837
5668.58,0.10898
5662.8,0.10942
5657.01,0.10816
5651.22,0.10953
5645.44,0.11083
5639.65,0.11092
5633.87,0.11094
5628.08,0.10967
5622.29,0.10834
5616.51,0.10999
5610.72,0.11105
5604.93,0.11102
5599.15,0.11314
5593.36,0.11356
5587.58,0.11372
5581.79,0.11280
5576,0.11167
5570.22,0.11122
5564.43,0.11148
5558.64,0.11308
5552.86,0.11333
5547.07,0.11338
5541.29,0.11354
5535.5,0.11205
5529.71,0.11170
5523.93,0.11248
5518.14,0.11148
5512.35,0.11128
5506.57,0.11349
5500.78,0.11241
5495,0.11192
5489.21,0.11216
5483.42,0.11373
5477.64,0.11225
5471.85,0.11126
5466.06,0.11347
5460.28,0.11129
5454.49,0.11243
5448.71,0.11267
5442.92,0.11394
5437.13,0.11283
5431.35,0.11406
5425.56,0.11434
5419.77,0.11450
5413.99,0.11381
5408.2,0.11498
5402.42,0.11557
5396.63,0.11499
5390.84,0.11577
5385.06,0.11521
5379.27,0.11495
5373.48,0.11508
5367.7,0.11659
5361.91,0.11612
5356.13,0.11574
5350.34,0.11638
5344.55,0.11793
5338.77,0.11632
5332.98,0.11649
5327.19,0.11655
5321.41,0.11687
5315.62,0.11648
5309.84,0.11751
5304.05,0.11619
5298.26,0.11562
5292.48,0.11631
5286.69,0.11664
5280.9,0.11732
5275.12,0.11729
5269.33,0.11645
5263.55,0.11559
5257.76,0.11695
5251.97,0.11542
5246.19,0.11647
5240.4,0.11772
5234.61,0.11842
5228.83,0.11752
5223.04,0.11655
5217.26,0.11756
5211.47,0.11767
5205.68,0.11684
5199.9,0.11708
5194.11,0.11681
5188.32,0.11700
5182.54,0.11627
5176.75,0.11797
5170.97,0.11780
5165.18,0.11826
5159.39,0.11838
5153.61,0.11751
5147.82,0.11803
5142.03,0.11665
5136.25,0.11759
5130.46,0.11892
5124.68,0.11726
5118.89,0.11738
5113.1,0.11726
5107.32,0.11790
5101.53,0.11733
5095.75,0.11841
5089.96,0.11744
5084.17,0.11762
5078.39,0.11834
5072.6,0.11774
5066.81,0.11862
5061.03,0.11809
5055.24,0.11778
5049.46,0.11776
5043.67,0.11758
5037.88,0.11826
5032.1,0.12010
5026.31,0.11919
5020.52,0.11925
5014.74,0.11829
5008.95,0.11906
5003.17,0.11971
4997.38,0.12011
4991.59,0.12021
4985.81,0.11952
4980.02,0.11935
4974.23,0.11888
4968.45,0.12042
4962.66,0.12014
4956.88,0.12114
4951.09,0.12025
4945.3,0.12052
4939.52,0.12053
4933.73,0.12018
4927.94,0.12029
4922.16,0.12072
4916.37,0.12066
4910.59,0.12090
4904.8,0.12100
4899.01,0.12096
4893.23,0.12036
4887.44,0.12114
4881.65,0.12134
4875.87,0.12021
4870.08,0.11957
4864.3,0.12080
4858.51,0.12090
4852.72,0.12078
4846.94,0.12092
4841.15,0.12046
4835.36,0.12030
4829.58,0.12058
4823.79,0.12079
4818.01,0.12096
4812.22,0.12120
4806.43,0.12170
4800.65,0.12049
4794.86,0.12182
4789.07,0.12160
4783.29,0.12113
4777.5,0.12005
4771.72,0.12044
4765.93,0.12165
4760.14,0.12112
4754.36,0.12177
4748.57,0.12171
4742.78,0.12201
4737,0.12167
4731.21,0.12075
4725.43,0.12133
4719.64,0.12186
4713.85,0.12136
4708.07,0.12087
4702.28,0.12136
4696.49,0.12131
4690.71,0.12096
4684.92,0.12181
4679.14,0.12081
4673.35,0.12080
4667.56,0.12087
4661.78,0.12032
4655.99,0.12058
4650.2,0.12089
4644.42,0.12048
4638.63,0.12129
4632.85,0.12056
4627.06,0.12049
4621.27,0.12010
4615.49,0.12082
4609.7,0.12087
4603.92,0.11983
4598.13,0.11996
4592.34,0.11962
4586.56,0.11942
4580.77,0.11889
4574.98,0.11891
4569.2,0.11853
4563.41,0.11878
4557.63,0.11880
4551.84,0.11915
4546.05,0.11906
4540.27,0.11829
4534.48,0.11909
4528.69,0.11999
4522.91,0.11892
4517.12,0.11893
4511.34,0.11949
4505.55,0.11868
4499.76,0.11911
4493.98,0.11870
4488.19,0.11880
4482.4,0.11739
4476.62,0.11874
4470.83,0.11745
4465.05,0.11732
4459.26,0.11607
4453.47,0.11565
4447.69,0.11392
4441.9,0.11247
4436.11,0.10850
4430.33,0.10581
4424.54,0.10117
4418.76,0.09556
4412.97,0.09138
4407.18,0.08572
4401.4,0.08174
4395.61,0.07633
4389.82,0.07482
4384.04,0.07747
4378.25,0.08095
4372.47,0.08382
4366.68,0.08568
4360.89,0.08643
4355.11,0.08575
4349.32,0.08307
4343.53,0.07685
4337.75,0.06873
4331.96,0.06100
4326.18,0.05741
4320.39,0.05929
4314.6,0.06211
4308.82,0.06314
4303.03,0.06867
4297.24,0.07181
4291.46,0.07356
4285.67,0.07287
4279.89,0.07372
4274.1,0.07457
4268.31,0.07380
4262.53,0.07179
4256.74,0.06959
4250.95,0.06586
4245.17,0.06332
4239.38,0.06236
4233.6,0.06656
4227.81,0.06964
4222.02,0.06949
4216.24,0.07000
4210.45,0.07077
4204.66,0.07315
4198.88,0.07478
4193.09,0.07735
4187.31,0.07906
4181.52,0.07750
4175.73,0.07566
4169.95,0.07402
4164.16,0.07464
4158.37,0.07657
4152.59,0.07763
4146.8,0.07964
4141.02,0.08065
4135.23,0.08047
4129.44,0.07977
4123.66,0.07898
4117.87,0.07763
4112.09,0.07912
4106.3,0.08123
4100.51,0.08337
4094.73,0.08496
4088.94,0.08396
4083.15,0.08038
4077.37,0.07682
4071.58,0.07422
4065.8,0.07067
4060.01,0.06925
4054.22,0.07107
4048.44,0.07804
4042.65,0.08254
4036.86,0.08492
4031.08,0.08641
4025.29,0.08765
4019.51,0.08871
4013.72,0.08977
4007.93,0.09168
4002.15,0.09144
3996.36,0.09138
3990.57,0.09163
3984.79,0.09325
3979,0.09441
3973.22,0.09532
3967.43,0.09622
3961.64,0.09705
3955.86,0.09805
3950.07,0.09825
3944.28,0.09952
3938.5,0.09861
3932.71,0.09805
3926.93,0.09796
3921.14,0.09730
3915.35,0.09843
3909.57,0.09912
3903.78,0.09994
3897.99,0.09948
3892.21,0.09964
3886.42,0.10023
3880.64,0.10045
3874.85,0.10100
3869.06,0.10064
3863.28,0.10140
3857.49,0.10271
3851.7,0.10308
3845.92,0.10335
3840.13,0.10308
3834.35,0.10321
3828.56,0.10306
3822.77,0.10259
3816.99,0.10204
3811.2,0.10261
3805.41,0.10356
3799.63,0.10363
3793.84,0.10306
3788.06,0.10475
3782.27,0.10486
3776.48,0.10465
3770.7,0.10344
3764.91,0.10217
3759.12,0.10263
3753.34,0.10361
3747.55,0.10432
3741.77,0.10539
3735.98,0.10611
3730.19,0.10666
3724.41,0.10698
3718.62,0.10713
3712.83,0.10730
3707.05,0.10745
3701.26,0.10750
3695.48,0.10738
3689.69,0.10782
3683.9,0.10796
3678.12,0.10891
3672.33,0.10998
3666.54,0.11156
3660.76,0.11255
3654.97,0.11369
3649.19,0.11350
3643.4,0.11189
3637.61,0.11139
3631.83,0.11089
3626.04,0.11197
3620.25,0.11310
3614.47,0.11333
3608.68,0.11410
3602.9,0.11371
3597.11,0.11359
3591.32,0.11376
3585.54,0.11300
3579.75,0.11326
3573.97,0.11194
3568.18,0.11183
3562.39,0.11145
3556.61,0.11057
3550.82,0.10995
3545.03,0.10977
3539.25,0.10915
3533.46,0.10826
3527.68,0.10767
3521.89,0.10792
3516.1,0.10731
3510.32,0.10696
3504.53,0.10686
3498.74,0.10577
3492.96,0.10545
3487.17,0.10479
3481.39,0.10486
3475.6,0.10305
3469.81,0.10189
3464.03,0.10035
3458.24,0.09985
3452.45,0.09891
3446.67,0.09795
3440.88,0.09686
3435.1,0.09610
3429.31,0.09389
3423.52,0.09287
3417.74,0.09222
3411.95,0.09124
3406.16,0.09190
3400.38,0.09230
3394.59,0.09390
3388.81,0.09313
3383.02,0.09229
3377.23,0.09168
3371.45,0.09070
3365.66,0.08975
3359.87,0.08909
3354.09,0.08823
3348.3,0.08763
3342.52,0.08809
3336.73,0.08978
3330.94,0.09133
3325.16,0.09287
3319.37,0.09313
3313.58,0.09212
3307.8,0.09216
3302.01,0.09121
3296.23,0.08979
3290.44,0.09038
3284.65,0.09110
3278.87,0.09152
3273.08,0.09046
3267.29,0.09019
3261.51,0.09119
3255.72,0.09187
3249.94,0.09173
3244.15,0.09010
3238.36,0.08917
3232.58,0.08599
3226.79,0.08221
3221,0.07839
3215.22,0.07342
3209.43,0.07048
3203.65,0.06698
3197.86,0.06564
3192.07,0.06403
3186.29,0.06492
3180.5,0.06576
3174.71,0.06755
3168.93,0.06799
3163.14,0.06826
3157.36,0.06710
3151.57,0.06582
3145.78,0.06498
3140,0.06502
3134.21,0.06596
3128.42,0.06757
3122.64,0.06925
3116.85,0.07129
3111.07,0.07163
3105.28,0.07143
3099.49,0.07239
3093.71,0.07272
3087.92,0.07141
3082.14,0.07176
3076.35,0.07078
3070.56,0.06983
3064.78,0.06788
3058.99,0.06569
3053.2,0.06424
3047.42,0.06233
3041.63,0.06100
3035.85,0.05827
3030.06,0.05524
3024.27,0.05095
3018.49,0.04600
3012.7,0.04040
3006.91,0.03498
3001.13,0.02968
2995.34,0.02435
2989.56,0.02038
2983.77,0.01733
2977.98,0.01561
2972.2,0.01480
2966.41,0.01449
2960.62,0.01655
2954.84,0.01705
2949.05,0.01747
2943.27,0.01760
2937.48,0.01672
2931.69,0.01680
2925.91,0.01735
2920.12,0.01827
2914.33,0.01879
2908.55,0.01847
2902.76,0.01913
2896.98,0.01883
2891.19,0.01855
2885.4,0.01929
2879.62,0.01863
2873.83,0.01872
2868.04,0.01859
2862.26,0.01887
2856.47,0.01870
2850.69,0.01854
2844.9,0.01833
2839.11,0.01883
2833.33,0.01963
2827.54,0.02014
2821.75,0.02137
2815.97,0.02286
2810.18,0.02451
2804.4,0.02679
2798.61,0.02981
2792.82,0.03183
2787.04,0.03725
2781.25,0.04379
2775.46,0.04929
2769.68,0.05158
2763.89,0.05349
2758.11,0.05536
2752.32,0.05625
2746.53,0.05549
2740.75,0.05161
2734.96,0.04684
2729.17,0.04226
2723.39,0.03709
2717.6,0.04098
2711.82,0.04792
2706.03,0.05222
2700.24,0.05637
2694.46,0.05791
2688.67,0.05763
2682.88,0.05774
2677.1,0.05728
2671.31,0.05898
2665.53,0.05947
2659.74,0.05915
2653.95,0.06146
2648.17,0.06460
2642.38,0.06627
2636.59,0.06851
2630.81,0.06789
2625.02,0.06502
2619.24,0.06254
2613.45,0.06355
2607.66,0.06820
2601.88,0.07263
2596.09,0.07321
2590.3,0.07005
2584.52,0.06427
2578.73,0.06392
2572.95,0.07031
2567.16,0.07556
2561.37,0.07819
2555.59,0.07910
2549.8,0.08142
2544.02,0.08510
2538.23,0.08667
2532.44,0.08882
2526.66,0.09182
2520.87,0.09486
2515.08,0.09772
2509.3,0.09911
2503.51,0.10002
2497.73,0.09981
2491.94,0.09978
2486.15,0.10096
2480.37,0.10253
2474.58,0.10456
2468.79,0.10634
2463.01,0.10527
2457.22,0.10441
2451.44,0.10363
2445.65,0.10192
2439.86,0.10021
2434.08,0.09602
2428.29,0.09474
2422.5,0.09702
2416.72,0.09963
2410.93,0.10060
2405.15,0.09931
2399.36,0.09809
2393.57,0.09942
2387.79,0.10118
2382,0.10207
2376.21,0.10155
2370.43,0.10139
2364.64,0.10005
2358.86,0.10018
2353.07,0.10226
2347.28,0.10469
2341.5,0.10679
2335.71,0.10775
2329.92,0.10939
2324.14,0.11172
2318.35,0.11418
2312.57,0.11574
2306.78,0.11598
2300.99,0.11622
2295.21,0.11613
2289.42,0.11689
2283.63,0.11753
2277.85,0.11651
2272.06,0.11394
2266.28,0.11216
2260.49,0.11029
2254.7,0.10923
2248.92,0.11236
2243.13,0.11600
2237.34,0.11651
2231.56,0.11547
2225.77,0.11641
2219.99,0.11768
2214.2,0.11780
2208.41,0.11733
2202.63,0.11552
2196.84,0.11495
2191.05,0.11468
2185.27,0.11409
2179.48,0.11353
2173.7,0.11307
2167.91,0.11362
2162.12,0.11677
2156.34,0.11849
2150.55,0.12074
2144.76,0.12193
2138.98,0.11976
2133.19,0.11614
2127.41,0.11755
2121.62,0.12441
2115.83,0.12869
2110.05,0.13060
2104.26,0.13113
2098.47,0.13149
2092.69,0.13115
2086.9,0.13196
2081.12,0.13485
2075.33,0.13802
2069.54,0.13984
2063.76,0.14046
2057.97,0.14019
2052.19,0.13973
2046.4,0.13935
2040.61,0.13993
2034.83,0.13935
2029.04,0.13855
2023.25,0.13965
2017.47,0.14065
2011.68,0.14073
2005.9,0.14095
2000.11,0.14015
1994.32,0.13904
1988.54,0.13942
1982.75,0.14034
1976.96,0.14045
1971.18,0.14015
1965.39,0.13929
1959.61,0.13782
1953.82,0.13790
1948.03,0.13840
1942.25,0.13816
1936.46,0.13807
1930.67,0.13829
1924.89,0.13702
1919.1,0.13592
1913.32,0.13555
1907.53,0.13510
1901.74,0.13405
1895.96,0.13191
1890.17,0.13141
1884.38,0.13442
1878.6,0.13610
1872.81,0.13648
1867.03,0.13601
1861.24,0.13544
1855.45,0.13401
1849.67,0.13380
1843.88,0.13293
1838.09,0.13095
1832.31,0.12928
1826.52,0.13052
1820.74,0.13241
1814.95,0.13350
1809.16,0.13406
1803.38,0.13273
1797.59,0.13096
1791.8,0.12983
1786.02,0.12887
1780.23,0.12813
1774.45,0.12667
1768.66,0.12380
1762.87,0.12072
1757.09,0.11596
1751.3,0.10979
1745.51,0.10112
1739.73,0.09747
1733.94,0.10004
1728.16,0.10313
1722.37,0.10528
1716.58,0.10600
1710.8,0.10463
1705.01,0.10305
1699.22,0.10174
1693.44,0.10071
1687.65,0.10047
1681.87,0.10084
1676.08,0.10142
1670.29,0.10202
1664.51,0.10143
1658.72,0.10008
1652.93,0.09684
1647.15,0.09054
1641.36,0.09204
1635.58,0.09446
1629.79,0.09556
1624,0.09598
1618.22,0.09698
1612.43,0.09646
1606.64,0.09626
1600.86,0.09970
1595.07,0.10219
1589.29,0.10322
1583.5,0.10428
1577.71,0.10386
1571.93,0.10279
1566.14,0.10119
1560.35,0.09880
1554.57,0.09559
1548.78,0.09416
1543,0.09250
1537.21,0.08903
1531.42,0.08873
1525.64,0.08903
1519.85,0.08840
1514.07,0.08596
1508.28,0.08061
1502.49,0.07483
1496.71,0.06687
1490.92,0.05811
1485.13,0.04694
1479.35,0.03365
1473.56,0.02209
1467.78,0.01723
1461.99,0.01688
1456.2,0.01757
1450.42,0.01772
1444.63,0.01883
1438.84,0.02124
1433.06,0.02777
1427.27,0.04242
1421.49,0.04989
1415.7,0.05393
1409.91,0.05542
1404.13,0.05407
1398.34,0.05038
1392.55,0.04235
1386.77,0.02741
1380.98,0.01689
1375.2,0.01834
1369.41,0.02255
1363.62,0.02541
1357.84,0.02465
1352.05,0.03507
1346.26,0.04925
1340.48,0.05860
1334.69,0.05785
1328.91,0.05166
1323.12,0.06086
1317.33,0.07007
1311.55,0.06851
1305.76,0.04583
1299.97,0.04820
1294.19,0.05580
1288.4,0.06806
1282.62,0.07554
1276.83,0.07946
1271.04,0.07928
1265.26,0.07271
1259.47,0.05604
1253.68,0.04926
1247.9,0.07073
1242.11,0.08029
1236.33,0.08384
1230.54,0.08368
1224.75,0.07858
1218.97,0.07077
1213.18,0.07866
1207.39,0.08330
1201.61,0.08380
1195.82,0.08419
1190.04,0.08218
1184.25,0.07638
1178.46,0.05969
1172.68,0.03643
1166.89,0.02768
1161.1,0.03025
1155.32,0.03415
1149.53,0.04055
1143.75,0.05609
1137.96,0.07111
1132.17,0.07963
1126.39,0.08333
1120.6,0.08234
1114.81,0.08016
1109.03,0.07332
1103.24,0.06092
1097.46,0.07095
1091.67,0.08410
1085.88,0.09210
1080.1,0.09604
1074.31,0.09874
1068.52,0.09981
1062.74,0.09909
1056.95,0.09595
1051.17,0.08736
1045.38,0.07274
1039.59,0.08175
1033.81,0.08969
1028.02,0.09449
1022.24,0.09111
1016.45,0.08413
1010.66,0.07148
1004.88,0.05009
999.09,0.03341
993.304,0.04193
987.518,0.06037
981.731,0.05272
975.945,0.02949
970.159,0.03289
964.373,0.06250
958.586,0.08807
952.8,0.10176
947.014,0.10474
941.228,0.09299
935.441,0.11084
929.655,0.12552
923.869,0.12814
918.083,0.12626
912.297,0.11974
906.51,0.10228
900.724,0.06397
894.938,0.08204
889.152,0.10969
883.365,0.11618
877.579,0.11474
871.793,0.11282
866.007,0.10930
860.22,0.10171
854.434,0.08982
848.648,0.07133
842.862,0.04194
837.075,0.05347
831.289,0.08132
825.503,0.09681
819.717,0.09937
813.931,0.07858
808.144,0.05993
802.358,0.08729
796.572,0.10748
790.786,0.12170
784.999,0.13641
779.213,0.14585
773.427,0.14861
767.641,0.14958
761.854,0.15001
756.068,0.15022
750.282,0.15162
744.496,0.15258
738.709,0.14995
732.923,0.14656
727.137,0.13968
721.351,0.13274
715.565,0.14166
709.778,0.14733
703.992,0.14995
698.206,0.14995
692.42,0.15175
686.633,0.15264
680.847,0.15207
675.061,0.15130
669.275,0.15149
663.488,0.15276
657.702,0.15229
651.916,0.15017
646.13,0.15376
640.343,0.15224
634.557,0.15402
628.771,0.15448
622.985,0.15219
617.198,0.15273
611.412,0.15225
605.626,0.15427
599.84,0.15205