File: 01_Data/Wool_Rug/FTIR/IS/Wool_Rug_IS_S_220826_R3.dpt
7497.03,0.55096
7491.25,0.55885
7485.46,0.56035
7479.67,0.56393
7473.89,0.57674
7468.1,0.56688
7462.32,0.56125
7456.53,0.55714
7450.74,0.55217
7444.96,0.55749
7439.17,0.55569
7433.38,0.54986
7427.6,0.55886
7421.81,0.55414
7416.03,0.54898
7410.24,0.54945
7404.45,0.54974
7398.67,0.55670
7392.88,0.54681
7387.09,0.54648
7381.31,0.54218
7375.52,0.54308
7369.74,0.54858
7363.95,0.55058
7358.16,0.54249
7352.38,0.55116
7346.59,0.54319
7340.8,0.54201
7335.02,0.53897
7329.23,0.53994
7323.45,0.54287
7317.66,0.54727
7311.87,0.54363
7306.09,0.53243
7300.3,0.53883
7294.51,0.53753
7288.73,0.53333
7282.94,0.53156
7277.16,0.53200
7271.37,0.53040
7265.58,0.53764
7259.8,0.54334
7254.01,0.53415
7248.22,0.52832
7242.44,0.52402
7236.65,0.52950
7230.87,0.52313
7225.08,0.52742
7219.29,0.52525
7213.51,0.51549
7207.72,0.51566
7201.93,0.51554
7196.15,0.51076
7190.36,0.51527
7184.58,0.51030
7178.79,0.51078
7173,0.49963
7167.22,0.50543
7161.43,0.50563
7155.65,0.50352
7149.86,0.49875
7144.07,0.49307
7138.29,0.49793
7132.5,0.49188
7126.71,0.48348
7120.93,0.48413
7115.14,0.48203
7109.36,0.47929
7103.57,0.47734
7097.78,0.47451
7092,0.47187
7086.21,0.47447
7080.42,0.46888
7074.64,0.46545
7068.85,0.46117
7063.07,0.45909
7057.28,0.46089
7051.49,0.45391
7045.71,0.45683
7039.92,0.46503
7034.13,0.45307
7028.35,0.44725
7022.56,0.44779
7016.78,0.44638
7010.99,0.44035
7005.2,0.44593
6999.42,0.44408
6993.63,0.44693
6987.84,0.43689
6982.06,0.44333
6976.27,0.43895
6970.49,0.43516
6964.7,0.43676
6958.91,0.44101
6953.13,0.43317
6947.34,0.43310
6941.55,0.43982
6935.77,0.43805
6929.98,0.43376
6924.2,0.43353
6918.41,0.42460
6912.62,0.43237
6906.84,0.42976
6901.05,0.42746
6895.26,0.43084
6889.48,0.42348
6883.69,0.41542
6877.91,0.41971
6872.12,0.41796
6866.33,0.41897
6860.55,0.41916
6854.76,0.41498
6848.97,0.41700
6843.19,0.41531
6837.4,0.41421
6831.62,0.41775
6825.83,0.41165
6820.04,0.41019
6814.26,0.41268
6808.47,0.40702
6802.68,0.40843
6796.9,0.40814
6791.11,0.40521
6785.33,0.39967
6779.54,0.39936
6773.75,0.39746
6767.97,0.39761
6762.18,0.39469
6756.39,0.39352
6750.61,0.39311
6744.82,0.39111
6739.04,0.38058
6733.25,0.38139
6727.46,0.38073
6721.68,0.37614
6715.89,0.37117
6710.1,0.37041
6704.32,0.36508
6698.53,0.36760
6692.75,0.36363
6686.96,0.36261
6681.17,0.35714
6675.39,0.36107
6669.6,0.35899
6663.82,0.36310
6658.03,0.36167
6652.24,0.35829
6646.46,0.36057
6640.67,0.36432
6634.88,0.36016
6629.1,0.35989
6623.31,0.36311
6617.53,0.36274
6611.74,0.36058
6605.95,0.36531
6600.17,0.36252
6594.38,0.36294
6588.59,0.36219
6582.81,0.36207
6577.02,0.36779
6571.24,0.37481
6565.45,0.36938
6559.66,0.37269
6553.88,0.37202
6548.09,0.37365
6542.3,0.37318
6536.52,0.37682
6530.73,0.37820
6524.95,0.38324
6519.16,0.38432
6513.37,0.38488
6507.59,0.38898
6501.8,0.38532
6496.01,0.38819
6490.23,0.39253
6484.44,0.39237
6478.66,0.39582
6472.87,0.39432
6467.08,0.39758
6461.3,0.39855
6455.51,0.40292
6449.72,0.40522
6443.94,0.40884
6438.15,0.41040
6432.37,0.40972
6426.58,0.41396
6420.79,0.41062
6415.01,0.41391
6409.22,0.41657
6403.43,0.41627
6397.65,0.41793
6391.86,0.41653
6386.08,0.41612
6380.29,0.41665
6374.5,0.41818
6368.72,0.41521
6362.93,0.41568
6357.14,0.42011
6351.36,0.42060
6345.57,0.41972
6339.79,0.42343
6334,0.42102
6328.21,0.42311
6322.43,0.42358
6316.64,0.42451
6310.85,0.42518
6305.07,0.42869
6299.28,0.42739
6293.5,0.42562
6287.71,0.42994
6281.92,0.43032
6276.14,0.43603
6270.35,0.43475
6264.56,0.43733
6258.78,0.43787
6252.99,0.43621
6247.21,0.43752
6241.42,0.43788
6235.63,0.44215
6229.85,0.44306
6224.06,0.44726
6218.27,0.44553
6212.49,0.44924
6206.7,0.45038
6200.92,0.45005
6195.13,0.45128
6189.34,0.45175
6183.56,0.45327
6177.77,0.45451
6171.98,0.45918
6166.2,0.45989
6160.41,0.45980
6154.63,0.46033
6148.84,0.45963
6143.05,0.45770
6137.27,0.45906
6131.48,0.46208
6125.7,0.46368
6119.91,0.46503
6114.12,0.46243
6108.34,0.46351
6102.55,0.46603
6096.76,0.46989
6090.98,0.46518
6085.19,0.46747
6079.41,0.46608
6073.62,0.46746
6067.83,0.46641
6062.05,0.46691
6056.26,0.46949
6050.47,0.46653
6044.69,0.46799
6038.9,0.46249
6033.12,0.46198
6027.33,0.45974
6021.54,0.45600
6015.76,0.45919
6009.97,0.45496
6004.18,0.45274
5998.4,0.45036
5992.61,0.44859
5986.83,0.44208
5981.04,0.43897
5975.25,0.43380
5969.47,0.42607
5963.68,0.42151
5957.89,0.41514
5952.11,0.40936
5946.32,0.40507
5940.54,0.40048
5934.75,0.39524
5928.96,0.38923
5923.18,0.38219
5917.39,0.37793
5911.6,0.37433
5905.82,0.37227
5900.03,0.37141
5894.25,0.37191
5888.46,0.37249
5882.67,0.37179
5876.89,0.37125
5871.1,0.37535
5865.31,0.37550
5859.53,0.37588
5853.74,0.37481
5847.96,0.37646
5842.17,0.37614
5836.38,0.37385
5830.6,0.37227
5824.81,0.36689
5819.02,0.36726
5813.24,0.36565
5807.45,0.36259
5801.67,0.35640
5795.88,0.35442
5790.09,0.35193
5784.31,0.34963
5778.52,0.34624
5772.73,0.34291
5766.95,0.34313
5761.16,0.34141
5755.38,0.34248
5749.59,0.34384
5743.8,0.34367
5738.02,0.34641
5732.23,0.34776
5726.44,0.35130
5720.66,0.35338
5714.87,0.35656
5709.09,0.35982
5703.3,0.36776
5697.51,0.37101
5691.73,0.37339
5685.94,0.37724
5680.15,0.38154
5674.37,0.38420
5668.58,0.38746
5662.8,0.39155
5657.01,0.39347
5651.22,0.39443
5645.44,0.39821
5639.65,0.40219
5633.87,0.40308
5628.08,0.40403
5622.29,0.40602
5616.51,0.40829
5610.72,0.41068
5604.93,0.40841
5599.15,0.40850
5593.36,0.40940
5587.58,0.40824
5581.79,0.40914
5576,0.40721
5570.22,0.40838
5564.43,0.40833
5558.64,0.40905
5552.86,0.41027
5547.07,0.40946
5541.29,0.41099
5535.5,0.41120
5529.71,0.41100
5523.93,0.41366
5518.14,0.41177
5512.35,0.41230
5506.57,0.41354
5500.78,0.41411
5495,0.41424
5489.21,0.41520
5483.42,0.41666
5477.64,0.41755
5471.85,0.41967
5466.06,0.41973
5460.28,0.41964
5454.49,0.42217
5448.71,0.42300
5442.92,0.42231
5437.13,0.42626
5431.35,0.42655
5425.56,0.42827
5419.77,0.42986
5413.99,0.42871
5408.2,0.42844
5402.42,0.43074
5396.63,0.42932
5390.84,0.43144
5385.06,0.42828
5379.27,0.42754
5373.48,0.42658
5367.7,0.42643
5361.91,0.42544
5356.13,0.42212
5350.34,0.42155
5344.55,0.41734
5338.77,0.41600
5332.98,0.41114
5327.19,0.40546
5321.41,0.39960
5315.62,0.39249
5309.84,0.38389
5304.05,0.37434
5298.26,0.36380
5292.48,0.35242
5286.69,0.34069
5280.9,0.32852
5275.12,0.31509
5269.33,0.30437
5263.55,0.29497
5257.76,0.28259
5251.97,0.27373
5246.19,0.26431
5240.4,0.25723
5234.61,0.24945
5228.83,0.24375
5223.04,0.23758
5217.26,0.23171
5211.47,0.22876
5205.68,0.22398
5199.9,0.21982
5194.11,0.21623
5188.32,0.21337
5182.54,0.21059
5176.75,0.20978
5170.97,0.20824
5165.18,0.20648
5159.39,0.20578
5153.61,0.20583
5147.82,0.20472
5142.03,0.20517
5136.25,0.20594
5130.46,0.20608
5124.68,0.20761
5118.89,0.20675
5113.1,0.20780
5107.32,0.20903
5101.53,0.20959
5095.75,0.20863
5089.96,0.20788
5084.17,0.20721
5078.39,0.20714
5072.6,0.20514
5066.81,0.20463
5061.03,0.20492
5055.24,0.20629
5049.46,0.20576
5043.67,0.20555
5037.88,0.20673
5032.1,0.20841
5026.31,0.21001
5020.52,0.21079
5014.74,0.21314
5008.95,0.21317
5003.17,0.21461
4997.38,0.21569
4991.59,0.21639
4985.81,0.21673
4980.02,0.21621
4974.23,0.21706
4968.45,0.21670
4962.66,0.21690
4956.88,0.21423
4951.09,0.21264
4945.3,0.21217
4939.52,0.20938
4933.73,0.20597
4927.94,0.20296
4922.16,0.20054
4916.37,0.19647
4910.59,0.19330
4904.8,0.18899
4899.01,0.18580
4893.23,0.18275
4887.44,0.18016
4881.65,0.17643
4875.87,0.17310
4870.08,0.17147
4864.3,0.17025
4858.51,0.17154
4852.72,0.17270
4846.94,0.17505
4841.15,0.17868
4835.36,0.18221
4829.58,0.18768
4823.79,0.19191
4818.01,0.19601
4812.22,0.20014
4806.43,0.20500
4800.65,0.20776
4794.86,0.21024
4789.07,0.21309
4783.29,0.21401
4777.5,0.21546
4771.72,0.21646
4765.93,0.21829
4760.14,0.21856
4754.36,0.21750
4748.57,0.21719
4742.78,0.21763
4737,0.21543
4731.21,0.21434
4725.43,0.21373
4719.64,0.21129
4713.85,0.20964
4708.07,0.20699
4702.28,0.20448
4696.49,0.20195
4690.71,0.19743
4684.92,0.19296
4679.14,0.18915
4673.35,0.18418
4667.56,0.18089
4661.78,0.17674
4655.99,0.17249
4650.2,0.16891
4644.42,0.16448
4638.63,0.16017
4632.85,0.15604
4627.06,0.15294
4621.27,0.15008
4615.49,0.14874
4609.7,0.14711
4603.92,0.14645
4598.13,0.14550
4592.34,0.14483
4586.56,0.14578
4580.77,0.14673
4574.98,0.14698
4569.2,0.14849
4563.41,0.15037
4557.63,0.15170
4551.84,0.15318
4546.05,0.15466
4540.27,0.15725
4534.48,0.15878
4528.69,0.16117
4522.91,0.16241
4517.12,0.16439
4511.34,0.16666
4505.55,0.16872
4499.76,0.17061
4493.98,0.17257
4488.19,0.17426
4482.4,0.17524
4476.62,0.17537
4470.83,0.17657
4465.05,0.17502
4459.26,0.17303
4453.47,0.17143
4447.69,0.16850
4441.9,0.16359
4436.11,0.15948
4430.33,0.15546
4424.54,0.15058
4418.76,0.14714
4412.97,0.14471
4407.18,0.14235
4401.4,0.14000
4395.61,0.13856
4389.82,0.13719
4384.04,0.13559
4378.25,0.13420
4372.47,0.13322
4366.68,0.13266
4360.89,0.13226
4355.11,0.13246
4349.32,0.13354
4343.53,0.13477
4337.75,0.13637
4331.96,0.13784
4326.18,0.13725
4320.39,0.13878
4314.6,0.14049
4308.82,0.14232
4303.03,0.14180
4297.24,0.14272
4291.46,0.14223
4285.67,0.14186
4279.89,0.14107
4274.1,0.14101
4268.31,0.14028
4262.53,0.13762
4256.74,0.13903
4250.95,0.14006
4245.17,0.14115
4239.38,0.14261
4233.6,0.14341
4227.81,0.14344
4222.02,0.14515
4216.24,0.14655
4210.45,0.14765
4204.66,0.14804
4198.88,0.14956
4193.09,0.14916
4187.31,0.15042
4181.52,0.15017
4175.73,0.15032
4169.95,0.15086
4164.16,0.15178
4158.37,0.15118
4152.59,0.15114
4146.8,0.14968
4141.02,0.14915
4135.23,0.14887
4129.44,0.14788
4123.66,0.14700
4117.87,0.14666
4112.09,0.14576
4106.3,0.14325
4100.51,0.14068
4094.73,0.13816
4088.94,0.13529
4083.15,0.13266
4077.37,0.13059
4071.58,0.12862
4065.8,0.12605
4060.01,0.12517
4054.22,0.12406
4048.44,0.12410
4042.65,0.12365
4036.86,0.12438
4031.08,0.12491
4025.29,0.12563
4019.51,0.12578
4013.72,0.12675
4007.93,0.12588
4002.15,0.12509
3996.36,0.12513
3990.57,0.12459
3984.79,0.12439
3979,0.12380
3973.22,0.12338
3967.43,0.12226
3961.64,0.12167
3955.86,0.12111
3950.07,0.12056
3944.28,0.12078
3938.5,0.12034
3932.71,0.12096
3926.93,0.12085
3921.14,0.12191
3915.35,0.12358
3909.57,0.12611
3903.78,0.12809
3897.99,0.13070
3892.21,0.13307
3886.42,0.13549
3880.64,0.13803
3874.85,0.13974
3869.06,0.14113
3863.28,0.14306
3857.49,0.14435
3851.7,0.14487
3845.92,0.14656
3840.13,0.14791
3834.35,0.14859
3828.56,0.14923
3822.77,0.14991
3816.99,0.14981
3811.2,0.15025
3805.41,0.14995
3799.63,0.14987
3793.84,0.14915
3788.06,0.14926
3782.27,0.14905
3776.48,0.14756
3770.7,0.14630
3764.91,0.14498
3759.12,0.14212
3753.34,0.13988
3747.55,0.13757
3741.77,0.13483
3735.98,0.13219
3730.19,0.12884
3724.41,0.12513
3718.62,0.12122
3712.83,0.11576
3707.05,0.10980
3701.26,0.10221
3695.48,0.09475
3689.69,0.08655
3683.9,0.07671
3678.12,0.06741
3672.33,0.05927
3666.54,0.05257
3660.76,0.04723
3654.97,0.04252
3649.19,0.03858
3643.4,0.03610
3637.61,0.03426
3631.83,0.03178
3626.04,0.02966
3620.25,0.02799
3614.47,0.02667
3608.68,0.02545
3602.9,0.02509
3597.11,0.02443
3591.32,0.02361
3585.54,0.02267
3579.75,0.02198
3573.97,0.02191
3568.18,0.02095
3562.39,0.02025
3556.61,0.02051
3550.82,0.02069
3545.03,0.02054
3539.25,0.02038
3533.46,0.02018
3527.68,0.01968
3521.89,0.01975
3516.1,0.01995
3510.32,0.01958
3504.53,0.01895
3498.74,0.01911
3492.96,0.01871
3487.17,0.01785
3481.39,0.01826
3475.6,0.01820
3469.81,0.01844
3464.03,0.01903
3458.24,0.01789
3452.45,0.01812
3446.67,0.01760
3440.88,0.01836
3435.1,0.01728
3429.31,0.01774
3423.52,0.01802
3417.74,0.01739
3411.95,0.01712
3406.16,0.01725
3400.38,0.01754
3394.59,0.01729
3388.81,0.01695
3383.02,0.01791
3377.23,0.01734
3371.45,0.01715
3365.66,0.01764
3359.87,0.01691
3354.09,0.01719
3348.3,0.01733
3342.52,0.01618
3336.73,0.01669
3330.94,0.01732
3325.16,0.01673
3319.37,0.01787
3313.58,0.01733
3307.8,0.01640
3302.01,0.01713
3296.23,0.01758
3290.44,0.01768
3284.65,0.01696
3278.87,0.01716
3273.08,0.01767
3267.29,0.01740
3261.51,0.01858
3255.72,0.01869
3249.94,0.01787
3244.15,0.01797
3238.36,0.01813
3232.58,0.01827
3226.79,0.01856
3221,0.01812
3215.22,0.01840
3209.43,0.01800
3203.65,0.01810
3197.86,0.01803
3192.07,0.01860
3186.29,0.01845
3180.5,0.01808
3174.71,0.01895
3168.93,0.01836
3163.14,0.01898
3157.36,0.01918
3151.57,0.01916
3145.78,0.01849
3140,0.01848
3134.21,0.01971
3128.42,0.01938
3122.64,0.01855
3116.85,0.01869
3111.07,0.01857
3105.28,0.01926
3099.49,0.01888
3093.71,0.01871
3087.92,0.01851
3082.14,0.01858
3076.35,0.01884
3070.56,0.01875
3064.78,0.01909
3058.99,0.01866
3053.2,0.01906
3047.42,0.01939
3041.63,0.01891
3035.85,0.01896
3030.06,0.01950
3024.27,0.01949
3018.49,0.01906
3012.7,0.01914
3006.91,0.01904
3001.13,0.01905
2995.34,0.01958
2989.56,0.01943
2983.77,0.01860
2977.98,0.01878
2972.2,0.01819
2966.41,0.01804
2960.62,0.01786
2954.84,0.01786
2949.05,0.01792
2943.27,0.01788
2937.48,0.01768
2931.69,0.01736
2925.91,0.01762
2920.12,0.01841
2914.33,0.01874
2908.55,0.01872
2902.76,0.01904
2896.98,0.01942
2891.19,0.01954
2885.4,0.01965
2879.62,0.01927
2873.83,0.01940
2868.04,0.01936
2862.26,0.01952
2856.47,0.01975
2850.69,0.01995
2844.9,0.02116
2839.11,0.02167
2833.33,0.02237
2827.54,0.02251
2821.75,0.02319
2815.97,0.02243
2810.18,0.02329
2804.4,0.02323
2798.61,0.02317
2792.82,0.02401
2787.04,0.02393
2781.25,0.02417
2775.46,0.02465
2769.68,0.02468
2763.89,0.02499
2758.11,0.02524
2752.32,0.02591
2746.53,0.02629
2740.75,0.02673
2734.96,0.02685
2729.17,0.02743
2723.39,0.02805
2717.6,0.02845
2711.82,0.02906
2706.03,0.02935
2700.24,0.02946
2694.46,0.03004
2688.67,0.03009
2682.88,0.03058
2677.1,0.03078
2671.31,0.03110
2665.53,0.03147
2659.74,0.03211
2653.95,0.03240
2648.17,0.03255
2642.38,0.03305
2636.59,0.03283
2630.81,0.03324
2625.02,0.03358
2619.24,0.03404
2613.45,0.03447
2607.66,0.03466
2601.88,0.03517
2596.09,0.03548
2590.3,0.03627
2584.52,0.03646
2578.73,0.03682
2572.95,0.03723
2567.16,0.03789
2561.37,0.03860
2555.59,0.03864
2549.8,0.03861
2544.02,0.03958
2538.23,0.04009
2532.44,0.04048
2526.66,0.04080
2520.87,0.04127
2515.08,0.04135
2509.3,0.04175
2503.51,0.04261
2497.73,0.04261
2491.94,0.04323
2486.15,0.04370
2480.37,0.04478
2474.58,0.04471
2468.79,0.04545
2463.01,0.04670
2457.22,0.04657
2451.44,0.04730
2445.65,0.04773
2439.86,0.04852
2434.08,0.04921
2428.29,0.04992
2422.5,0.05027
2416.72,0.05126
2410.93,0.05155
2405.15,0.05236
2399.36,0.05303
2393.57,0.05373
2387.79,0.05447
2382,0.05505
2376.21,0.05541
2370.43,0.05617
2364.64,0.05613
2358.86,0.05684
2353.07,0.05728
2347.28,0.05738
2341.5,0.05750
2335.71,0.05763
2329.92,0.05777
2324.14,0.05828
2318.35,0.05791
2312.57,0.05873
2306.78,0.05886
2300.99,0.05860
2295.21,0.05878
2289.42,0.05939
2283.63,0.05915
2277.85,0.05927
2272.06,0.05984
2266.28,0.05923
2260.49,0.05940
2254.7,0.05930
2248.92,0.05885
2243.13,0.05918
2237.34,0.05873
2231.56,0.05877
2225.77,0.05896
2219.99,0.05900
2214.2,0.05874
2208.41,0.05878
2202.63,0.05905
2196.84,0.05880
2191.05,0.05864
2185.27,0.05868
2179.48,0.05855
2173.7,0.05837
2167.91,0.05858
2162.12,0.05849
2156.34,0.05843
2150.55,0.05841
2144.76,0.05810
2138.98,0.05831
2133.19,0.05792
2127.41,0.05777
2121.62,0.05789
2115.83,0.05793
2110.05,0.05814
2104.26,0.05810
2098.47,0.05813
2092.69,0.05874
2086.9,0.05833
2081.12,0.05876
2075.33,0.05902
2069.54,0.05959
2063.76,0.06002
2057.97,0.06022
2052.19,0.06097
2046.4,0.06099
2040.61,0.06129
2034.83,0.06157
2029.04,0.06205
2023.25,0.06242
2017.47,0.06264
2011.68,0.06311
2005.9,0.06356
2000.11,0.06397
1994.32,0.06362
1988.54,0.06384
1982.75,0.06405
1976.96,0.06371
1971.18,0.06379
1965.39,0.06396
1959.61,0.06374
1953.82,0.06366
1948.03,0.06345
1942.25,0.06402
1936.46,0.06401
1930.67,0.06389
1924.89,0.06369
1919.1,0.06335
1913.32,0.06315
1907.53,0.06240
1901.74,0.06179
1895.96,0.06092
1890.17,0.05993
1884.38,0.05964
1878.6,0.05930
1872.81,0.05868
1867.03,0.05796
1861.24,0.05741
1855.45,0.05652
1849.67,0.05535
1843.88,0.05422
1838.09,0.05290
1832.31,0.05144
1826.52,0.05002
1820.74,0.04865
1814.95,0.04676
1809.16,0.04512
1803.38,0.04363
1797.59,0.04186
1791.8,0.04013
1786.02,0.03760
1780.23,0.03608
1774.45,0.03465
1768.66,0.03222
1762.87,0.02996
1757.09,0.02791
1751.3,0.02498
1745.51,0.02295
1739.73,0.02139
1733.94,0.02016
1728.16,0.01830
1722.37,0.01746
1716.58,0.01622
1710.8,0.01504
1705.01,0.01402
1699.22,0.01361
1693.44,0.01333
1687.65,0.01363
1681.87,0.01376
1676.08,0.01412
1670.29,0.01442
1664.51,0.01456
1658.72,0.01564
1652.93,0.01619
1647.15,0.01712
1641.36,0.01725
1635.58,0.01796
1629.79,0.01820
1624,0.01824
1618.22,0.01807
1612.43,0.01766
1606.64,0.01771
1600.86,0.01714
1595.07,0.01678
1589.29,0.01669
1583.5,0.01677
1577.71,0.01629
1571.93,0.01608
1566.14,0.01576
1560.35,0.01555
1554.57,0.01552
1548.78,0.01597
1543,0.01679
1537.21,0.01696
1531.42,0.01742
1525.64,0.01746
1519.85,0.01782
1514.07,0.01823
1508.28,0.01807
1502.49,0.01848
1496.71,0.01860
1490.92,0.01881
1485.13,0.01852
1479.35,0.01833
1473.56,0.01776
1467.78,0.01746
1461.99,0.01770
1456.2,0.01716
1450.42,0.01748
1444.63,0.01738
1438.84,0.01771
1433.06,0.01771
1427.27,0.01781
1421.49,0.01739
1415.7,0.01709
1409.91,0.01713
1404.13,0.01707
1398.34,0.01749
1392.55,0.01737
1386.77,0.01698
1380.98,0.01733
1375.2,0.01761
1369.41,0.01759
1363.62,0.01751
1357.84,0.01759
1352.05,0.01774
1346.26,0.01760
1340.48,0.01746
1334.69,0.01721
1328.91,0.01744
1323.12,0.01731
1317.33,0.01729
1311.55,0.01718
1305.76,0.01685
1299.97,0.01696
1294.19,0.01747
1288.4,0.01730
1282.62,0.01693
1276.83,0.01716
1271.04,0.01722
1265.26,0.01771
1259.47,0.01770
1253.68,0.01733
1247.9,0.01700
1242.11,0.01747
1236.33,0.01728
1230.54,0.01754
1224.75,0.01769
1218.97,0.01801
1213.18,0.01804
1207.39,0.01833
1201.61,0.01829
1195.82,0.01836
1190.04,0.01859
1184.25,0.01850
1178.46,0.01854
1172.68,0.01850
1166.89,0.01843
1161.1,0.01821
1155.32,0.01867
1149.53,0.01911
1143.75,0.01891
1137.96,0.01900
1132.17,0.01845
1126.39,0.01844
1120.6,0.01883
1114.81,0.01841
1109.03,0.01838
1103.24,0.01899
1097.46,0.01870
1091.67,0.01907
1085.88,0.01830
1080.1,0.01823
1074.31,0.01905
1068.52,0.01923
1062.74,0.01956
1056.95,0.01990
1051.17,0.01953
1045.38,0.01930
1039.59,0.02028
1033.81,0.02033
1028.02,0.02191
1022.24,0.02314
1016.45,0.02283
1010.66,0.02445
1004.88,0.02474
999.09,0.02589
993.304,0.02629
987.518,0.02557
981.731,0.02656
975.945,0.02735
970.159,0.02711
964.373,0.02710
958.586,0.02762
952.8,0.02796
947.014,0.02785
941.228,0.02664
935.441,0.02586
929.655,0.02639
923.869,0.02564
918.083,0.02599
912.297,0.02573
906.51,0.02624
900.724,0.02630
894.938,0.02467
889.152,0.02487
883.365,0.02540
877.579,0.02492
871.793,0.02428
866.007,0.02460
860.22,0.02415
854.434,0.02372
848.648,0.02302
842.862,0.02286
837.075,0.02289
831.289,0.02125
825.503,0.02199
819.717,0.02193
813.931,0.02082
808.144,0.02134
802.358,0.02121
796.572,0.01900
790.786,0.01996
784.999,0.02001
779.213,0.01941
773.427,0.01856
767.641,0.01852
761.854,0.01915
756.068,0.01758
750.282,0.01739
744.496,0.01706
738.709,0.01809
732.923,0.01782
727.137,0.01738
721.351,0.01715
715.565,0.01691
709.778,0.01699
703.992,0.01685
698.206,0.01694
692.42,0.01620
686.633,0.01686
680.847,0.01579
675.061,0.01567
669.275,0.01632
663.488,0.01602
657.702,0.01600
651.916,0.01560
646.13,0.01525
640.343,0.01515
634.557,0.01481
628.771,0.01599
622.985,0.01442
617.198,0.01367
611.412,0.01597
605.626,0.01576
599.84,0.01505