File: 01_Data/Wool_Rug/FTIR/IS/Wool_Rug_IS_S_220826_R8.dpt
7497.03,0.56221
7491.25,0.56322
7485.46,0.56521
7479.67,0.56376
7473.89,0.56841
7468.1,0.56039
7462.32,0.55957
7456.53,0.56445
7450.74,0.56288
7444.96,0.55730
7439.17,0.55750
7433.38,0.55414
7427.6,0.56281
7421.81,0.55782
7416.03,0.55959
7410.24,0.55330
7404.45,0.55326
7398.67,0.54853
7392.88,0.55819
7387.09,0.55514
7381.31,0.54173
7375.52,0.55230
7369.74,0.55096
7363.95,0.55462
7358.16,0.54578
7352.38,0.54318
7346.59,0.54981
7340.8,0.53648
7335.02,0.53711
7329.23,0.54675
7323.45,0.53968
7317.66,0.53740
7311.87,0.54384
7306.09,0.53668
7300.3,0.53842
7294.51,0.53897
7288.73,0.54008
7282.94,0.54020
7277.16,0.54534
7271.37,0.53144
7265.58,0.53936
7259.8,0.53484
7254.01,0.53209
7248.22,0.52739
7242.44,0.52943
7236.65,0.53278
7230.87,0.53695
7225.08,0.52427
7219.29,0.52528
7213.51,0.52474
7207.72,0.51994
7201.93,0.52132
7196.15,0.51312
7190.36,0.52666
7184.58,0.51863
7178.79,0.51464
7173,0.51461
7167.22,0.51626
7161.43,0.50439
7155.65,0.51038
7149.86,0.51606
7144.07,0.50943
7138.29,0.51259
7132.5,0.50267
7126.71,0.50226
7120.93,0.49640
7115.14,0.49942
7109.36,0.50317
7103.57,0.49794
7097.78,0.48894
7092,0.49327
7086.21,0.48965
7080.42,0.48728
7074.64,0.48326
7068.85,0.48449
7063.07,0.48497
7057.28,0.48267
7051.49,0.47461
7045.71,0.47492
7039.92,0.47418
7034.13,0.48327
7028.35,0.47347
7022.56,0.47206
7016.78,0.47162
7010.99,0.46574
7005.2,0.46755
6999.42,0.47110
6993.63,0.46642
6987.84,0.46709
6982.06,0.46657
6976.27,0.46038
6970.49,0.46338
6964.7,0.46390
6958.91,0.46044
6953.13,0.45809
6947.34,0.46051
6941.55,0.46225
6935.77,0.45643
6929.98,0.45328
6924.2,0.45190
6918.41,0.45217
6912.62,0.45238
6906.84,0.45333
6901.05,0.45140
6895.26,0.44852
6889.48,0.44662
6883.69,0.44569
6877.91,0.44342
6872.12,0.44341
6866.33,0.44326
6860.55,0.43967
6854.76,0.43461
6848.97,0.43321
6843.19,0.43988
6837.4,0.43737
6831.62,0.43781
6825.83,0.43657
6820.04,0.43282
6814.26,0.42731
6808.47,0.42367
6802.68,0.42777
6796.9,0.42324
6791.11,0.42529
6785.33,0.42373
6779.54,0.42537
6773.75,0.41846
6767.97,0.41377
6762.18,0.40753
6756.39,0.40473
6750.61,0.40194
6744.82,0.39879
6739.04,0.39033
6733.25,0.38844
6727.46,0.38394
6721.68,0.38200
6715.89,0.37951
6710.1,0.37564
6704.32,0.37120
6698.53,0.36653
6692.75,0.36445
6686.96,0.36559
6681.17,0.36293
6675.39,0.35952
6669.6,0.35942
6663.82,0.36321
6658.03,0.36773
6652.24,0.36790
6646.46,0.36659
6640.67,0.36625
6634.88,0.36676
6629.1,0.36446
6623.31,0.36536
6617.53,0.36822
6611.74,0.36412
6605.95,0.37174
6600.17,0.36860
6594.38,0.36760
6588.59,0.37066
6582.81,0.36980
6577.02,0.37522
6571.24,0.37228
6565.45,0.37404
6559.66,0.37953
6553.88,0.37987
6548.09,0.38410
6542.3,0.38021
6536.52,0.38647
6530.73,0.38612
6524.95,0.39055
6519.16,0.39012
6513.37,0.38978
6507.59,0.39573
6501.8,0.39263
6496.01,0.39719
6490.23,0.39937
6484.44,0.39673
6478.66,0.40574
6472.87,0.40367
6467.08,0.40373
6461.3,0.40662
6455.51,0.41431
6449.72,0.41310
6443.94,0.41612
6438.15,0.41341
6432.37,0.41479
6426.58,0.41646
6420.79,0.42072
6415.01,0.42076
6409.22,0.42249
6403.43,0.42137
6397.65,0.42251
6391.86,0.42289
6386.08,0.42363
6380.29,0.42533
6374.5,0.42490
6368.72,0.42388
6362.93,0.42233
6357.14,0.42465
6351.36,0.42417
6345.57,0.42497
6339.79,0.42555
6334,0.42692
6328.21,0.42694
6322.43,0.42728
6316.64,0.42979
6310.85,0.43021
6305.07,0.43269
6299.28,0.43137
6293.5,0.43705
6287.71,0.43757
6281.92,0.43642
6276.14,0.43706
6270.35,0.44065
6264.56,0.43754
6258.78,0.44053
6252.99,0.44374
6247.21,0.44554
6241.42,0.44702
6235.63,0.44898
6229.85,0.44788
6224.06,0.44936
6218.27,0.44964
6212.49,0.45198
6206.7,0.45613
6200.92,0.45419
6195.13,0.45952
6189.34,0.45756
6183.56,0.45881
6177.77,0.45779
6171.98,0.46124
6166.2,0.46344
6160.41,0.46405
6154.63,0.46364
6148.84,0.46511
6143.05,0.46506
6137.27,0.46253
6131.48,0.46765
6125.7,0.46695
6119.91,0.46971
6114.12,0.46883
6108.34,0.47062
6102.55,0.47045
6096.76,0.46844
6090.98,0.47128
6085.19,0.47181
6079.41,0.47095
6073.62,0.47030
6067.83,0.47140
6062.05,0.47179
6056.26,0.47032
6050.47,0.47210
6044.69,0.47116
6038.9,0.47004
6033.12,0.46991
6027.33,0.46414
6021.54,0.46184
6015.76,0.46292
6009.97,0.46006
6004.18,0.45694
5998.4,0.45230
5992.61,0.44919
5986.83,0.44320
5981.04,0.43889
5975.25,0.43312
5969.47,0.42832
5963.68,0.42224
5957.89,0.41226
5952.11,0.40989
5946.32,0.40541
5940.54,0.40080
5934.75,0.39219
5928.96,0.38685
5923.18,0.38189
5917.39,0.37579
5911.6,0.37161
5905.82,0.36996
5900.03,0.36830
5894.25,0.37023
5888.46,0.37244
5882.67,0.37048
5876.89,0.37043
5871.1,0.37080
5865.31,0.37202
5859.53,0.37286
5853.74,0.37522
5847.96,0.37436
5842.17,0.37379
5836.38,0.37056
5830.6,0.36884
5824.81,0.36556
5819.02,0.36259
5813.24,0.36063
5807.45,0.35709
5801.67,0.35579
5795.88,0.35357
5790.09,0.34968
5784.31,0.34850
5778.52,0.34545
5772.73,0.34222
5766.95,0.34248
5761.16,0.34173
5755.38,0.33808
5749.59,0.34032
5743.8,0.33955
5738.02,0.34257
5732.23,0.34413
5726.44,0.34733
5720.66,0.35329
5714.87,0.35663
5709.09,0.36099
5703.3,0.36503
5697.51,0.37176
5691.73,0.37465
5685.94,0.37713
5680.15,0.38167
5674.37,0.38418
5668.58,0.38665
5662.8,0.38959
5657.01,0.39603
5651.22,0.39890
5645.44,0.40148
5639.65,0.40441
5633.87,0.40675
5628.08,0.41018
5622.29,0.41023
5616.51,0.40912
5610.72,0.41327
5604.93,0.41441
5599.15,0.41594
5593.36,0.41500
5587.58,0.41247
5581.79,0.41406
5576,0.41497
5570.22,0.41485
5564.43,0.41375
5558.64,0.41459
5552.86,0.41526
5547.07,0.41500
5541.29,0.41589
5535.5,0.41554
5529.71,0.41554
5523.93,0.41764
5518.14,0.41564
5512.35,0.41528
5506.57,0.41575
5500.78,0.41541
5495,0.41771
5489.21,0.41833
5483.42,0.41834
5477.64,0.41801
5471.85,0.42235
5466.06,0.42354
5460.28,0.42448
5454.49,0.42514
5448.71,0.42642
5442.92,0.42766
5437.13,0.42842
5431.35,0.42949
5425.56,0.43167
5419.77,0.43197
5413.99,0.43256
5408.2,0.43389
5402.42,0.43355
5396.63,0.43420
5390.84,0.43360
5385.06,0.43363
5379.27,0.43412
5373.48,0.43326
5367.7,0.43333
5361.91,0.43281
5356.13,0.43134
5350.34,0.43045
5344.55,0.42808
5338.77,0.42640
5332.98,0.42392
5327.19,0.42015
5321.41,0.41522
5315.62,0.40982
5309.84,0.40362
5304.05,0.39843
5298.26,0.38853
5292.48,0.37705
5286.69,0.36737
5280.9,0.35690
5275.12,0.34711
5269.33,0.33687
5263.55,0.32771
5257.76,0.31964
5251.97,0.30991
5246.19,0.30242
5240.4,0.29515
5234.61,0.28826
5228.83,0.28176
5223.04,0.27431
5217.26,0.26873
5211.47,0.26504
5205.68,0.26070
5199.9,0.25819
5194.11,0.25486
5188.32,0.25121
5182.54,0.24904
5176.75,0.24530
5170.97,0.24439
5165.18,0.24291
5159.39,0.24140
5153.61,0.24086
5147.82,0.23935
5142.03,0.23996
5136.25,0.23889
5130.46,0.23862
5124.68,0.23856
5118.89,0.23944
5113.1,0.23862
5107.32,0.23773
5101.53,0.23694
5095.75,0.23440
5089.96,0.23288
5084.17,0.22983
5078.39,0.22740
5072.6,0.22474
5066.81,0.22313
5061.03,0.22308
5055.24,0.22284
5049.46,0.22255
5043.67,0.22214
5037.88,0.22287
5032.1,0.22290
5026.31,0.22379
5020.52,0.22563
5014.74,0.22627
5008.95,0.22681
5003.17,0.22743
4997.38,0.22678
4991.59,0.22879
4985.81,0.22678
4980.02,0.22709
4974.23,0.22646
4968.45,0.22498
4962.66,0.22336
4956.88,0.22114
4951.09,0.21918
4945.3,0.21587
4939.52,0.21369
4933.73,0.20985
4927.94,0.20690
4922.16,0.20212
4916.37,0.19908
4910.59,0.19436
4904.8,0.19044
4899.01,0.18654
4893.23,0.18327
4887.44,0.17848
4881.65,0.17551
4875.87,0.17354
4870.08,0.17061
4864.3,0.17063
4858.51,0.17040
4852.72,0.17307
4846.94,0.17529
4841.15,0.17914
4835.36,0.18285
4829.58,0.18715
4823.79,0.19228
4818.01,0.19688
4812.22,0.20057
4806.43,0.20492
4800.65,0.20767
4794.86,0.21158
4789.07,0.21299
4783.29,0.21491
4777.5,0.21668
4771.72,0.21804
4765.93,0.21936
4760.14,0.21851
4754.36,0.21852
4748.57,0.21754
4742.78,0.21750
4737,0.21598
4731.21,0.21526
4725.43,0.21273
4719.64,0.21179
4713.85,0.20856
4708.07,0.20689
4702.28,0.20379
4696.49,0.20014
4690.71,0.19675
4684.92,0.19204
4679.14,0.18837
4673.35,0.18288
4667.56,0.17991
4661.78,0.17601
4655.99,0.17065
4650.2,0.16651
4644.42,0.16217
4638.63,0.15735
4632.85,0.15389
4627.06,0.15043
4621.27,0.14783
4615.49,0.14527
4609.7,0.14324
4603.92,0.14322
4598.13,0.14327
4592.34,0.14319
4586.56,0.14301
4580.77,0.14386
4574.98,0.14558
4569.2,0.14661
4563.41,0.14747
4557.63,0.14932
4551.84,0.15010
4546.05,0.15350
4540.27,0.15491
4534.48,0.15645
4528.69,0.15816
4522.91,0.15964
4517.12,0.16224
4511.34,0.16470
4505.55,0.16728
4499.76,0.16857
4493.98,0.17058
4488.19,0.17229
4482.4,0.17274
4476.62,0.17183
4470.83,0.17251
4465.05,0.17229
4459.26,0.17056
4453.47,0.16800
4447.69,0.16539
4441.9,0.16212
4436.11,0.15624
4430.33,0.15219
4424.54,0.14815
4418.76,0.14370
4412.97,0.14145
4407.18,0.13944
4401.4,0.13765
4395.61,0.13628
4389.82,0.13468
4384.04,0.13260
4378.25,0.13170
4372.47,0.13044
4366.68,0.13073
4360.89,0.12946
4355.11,0.12900
4349.32,0.13084
4343.53,0.13170
4337.75,0.13372
4331.96,0.13380
4326.18,0.13495
4320.39,0.13664
4314.6,0.13797
4308.82,0.13861
4303.03,0.13958
4297.24,0.13978
4291.46,0.13923
4285.67,0.13906
4279.89,0.13808
4274.1,0.13792
4268.31,0.13714
4262.53,0.13689
4256.74,0.13678
4250.95,0.13804
4245.17,0.13892
4239.38,0.14025
4233.6,0.14139
4227.81,0.14267
4222.02,0.14398
4216.24,0.14556
4210.45,0.14644
4204.66,0.14689
4198.88,0.14817
4193.09,0.14872
4187.31,0.14927
4181.52,0.14989
4175.73,0.15064
4169.95,0.15117
4164.16,0.15113
4158.37,0.15115
4152.59,0.15121
4146.8,0.15067
4141.02,0.15027
4135.23,0.14971
4129.44,0.14999
4123.66,0.14906
4117.87,0.14911
4112.09,0.14749
4106.3,0.14556
4100.51,0.14315
4094.73,0.13999
4088.94,0.13673
4083.15,0.13509
4077.37,0.13271
4071.58,0.13031
4065.8,0.12826
4060.01,0.12735
4054.22,0.12651
4048.44,0.12568
4042.65,0.12614
4036.86,0.12688
4031.08,0.12772
4025.29,0.12882
4019.51,0.12859
4013.72,0.12900
4007.93,0.12834
4002.15,0.12850
3996.36,0.12796
3990.57,0.12709
3984.79,0.12702
3979,0.12663
3973.22,0.12548
3967.43,0.12454
3961.64,0.12468
3955.86,0.12432
3950.07,0.12366
3944.28,0.12241
3938.5,0.12206
3932.71,0.12221
3926.93,0.12278
3921.14,0.12367
3915.35,0.12505
3909.57,0.12767
3903.78,0.12998
3897.99,0.13281
3892.21,0.13542
3886.42,0.13842
3880.64,0.14007
3874.85,0.14269
3869.06,0.14536
3863.28,0.14693
3857.49,0.14839
3851.7,0.15028
3845.92,0.15100
3840.13,0.15275
3834.35,0.15402
3828.56,0.15468
3822.77,0.15543
3816.99,0.15698
3811.2,0.15735
3805.41,0.15776
3799.63,0.15832
3793.84,0.15799
3788.06,0.15768
3782.27,0.15848
3776.48,0.15830
3770.7,0.15724
3764.91,0.15609
3759.12,0.15376
3753.34,0.15216
3747.55,0.15037
3741.77,0.14815
3735.98,0.14523
3730.19,0.14220
3724.41,0.13902
3718.62,0.13508
3712.83,0.13038
3707.05,0.12415
3701.26,0.11712
3695.48,0.10937
3689.69,0.10104
3683.9,0.09164
3678.12,0.08166
3672.33,0.07241
3666.54,0.06431
3660.76,0.05865
3654.97,0.05336
3649.19,0.04831
3643.4,0.04502
3637.61,0.04131
3631.83,0.03835
3626.04,0.03524
3620.25,0.03399
3614.47,0.03307
3608.68,0.03026
3602.9,0.02914
3597.11,0.02870
3591.32,0.02699
3585.54,0.02638
3579.75,0.02569
3573.97,0.02471
3568.18,0.02415
3562.39,0.02327
3556.61,0.02217
3550.82,0.02230
3545.03,0.02213
3539.25,0.02152
3533.46,0.02088
3527.68,0.02080
3521.89,0.02059
3516.1,0.02026
3510.32,0.01958
3504.53,0.02006
3498.74,0.02002
3492.96,0.01895
3487.17,0.01903
3481.39,0.01895
3475.6,0.01881
3469.81,0.01854
3464.03,0.01821
3458.24,0.01894
3452.45,0.01825
3446.67,0.01796
3440.88,0.01843
3435.1,0.01816
3429.31,0.01838
3423.52,0.01774
3417.74,0.01772
3411.95,0.01778
3406.16,0.01744
3400.38,0.01770
3394.59,0.01800
3388.81,0.01754
3383.02,0.01788
3377.23,0.01657
3371.45,0.01665
3365.66,0.01661
3359.87,0.01648
3354.09,0.01667
3348.3,0.01761
3342.52,0.01746
3336.73,0.01719
3330.94,0.01715
3325.16,0.01696
3319.37,0.01705
3313.58,0.01661
3307.8,0.01719
3302.01,0.01734
3296.23,0.01716
3290.44,0.01649
3284.65,0.01789
3278.87,0.01751
3273.08,0.01855
3267.29,0.01751
3261.51,0.01753
3255.72,0.01760
3249.94,0.01787
3244.15,0.01805
3238.36,0.01724
3232.58,0.01790
3226.79,0.01804
3221,0.01799
3215.22,0.01775
3209.43,0.01813
3203.65,0.01811
3197.86,0.01806
3192.07,0.01825
3186.29,0.01880
3180.5,0.01859
3174.71,0.01887
3168.93,0.01903
3163.14,0.01875
3157.36,0.01873
3151.57,0.01882
3145.78,0.01868
3140,0.01832
3134.21,0.01895
3128.42,0.01940
3122.64,0.01912
3116.85,0.01906
3111.07,0.01923
3105.28,0.01897
3099.49,0.01887
3093.71,0.01918
3087.92,0.01798
3082.14,0.01808
3076.35,0.01869
3070.56,0.01872
3064.78,0.01857
3058.99,0.01857
3053.2,0.01901
3047.42,0.01879
3041.63,0.01927
3035.85,0.01905
3030.06,0.01884
3024.27,0.01898
3018.49,0.01901
3012.7,0.01906
3006.91,0.01921
3001.13,0.01904
2995.34,0.01815
2989.56,0.01816
2983.77,0.01839
2977.98,0.01827
2972.2,0.01828
2966.41,0.01730
2960.62,0.01752
2954.84,0.01802
2949.05,0.01774
2943.27,0.01739
2937.48,0.01780
2931.69,0.01729
2925.91,0.01755
2920.12,0.01831
2914.33,0.01810
2908.55,0.01856
2902.76,0.01892
2896.98,0.01928
2891.19,0.01922
2885.4,0.01949
2879.62,0.01928
2873.83,0.01901
2868.04,0.01957
2862.26,0.01983
2856.47,0.01993
2850.69,0.02014
2844.9,0.02070
2839.11,0.02173
2833.33,0.02207
2827.54,0.02217
2821.75,0.02283
2815.97,0.02253
2810.18,0.02279
2804.4,0.02294
2798.61,0.02367
2792.82,0.02393
2787.04,0.02402
2781.25,0.02419
2775.46,0.02424
2769.68,0.02430
2763.89,0.02453
2758.11,0.02499
2752.32,0.02581
2746.53,0.02589
2740.75,0.02615
2734.96,0.02611
2729.17,0.02670
2723.39,0.02701
2717.6,0.02752
2711.82,0.02816
2706.03,0.02886
2700.24,0.02903
2694.46,0.02930
2688.67,0.02936
2682.88,0.02955
2677.1,0.03040
2671.31,0.02996
2665.53,0.03058
2659.74,0.03096
2653.95,0.03129
2648.17,0.03173
2642.38,0.03195
2636.59,0.03195
2630.81,0.03258
2625.02,0.03338
2619.24,0.03327
2613.45,0.03344
2607.66,0.03378
2601.88,0.03403
2596.09,0.03453
2590.3,0.03533
2584.52,0.03520
2578.73,0.03547
2572.95,0.03635
2567.16,0.03671
2561.37,0.03707
2555.59,0.03804
2549.8,0.03799
2544.02,0.03858
2538.23,0.03896
2532.44,0.03959
2526.66,0.03981
2520.87,0.04023
2515.08,0.04031
2509.3,0.04058
2503.51,0.04140
2497.73,0.04145
2491.94,0.04174
2486.15,0.04228
2480.37,0.04285
2474.58,0.04353
2468.79,0.04410
2463.01,0.04503
2457.22,0.04567
2451.44,0.04649
2445.65,0.04673
2439.86,0.04719
2434.08,0.04812
2428.29,0.04846
2422.5,0.04933
2416.72,0.04992
2410.93,0.05102
2405.15,0.05101
2399.36,0.05177
2393.57,0.05266
2387.79,0.05304
2382,0.05335
2376.21,0.05424
2370.43,0.05497
2364.64,0.05538
2358.86,0.05596
2353.07,0.05601
2347.28,0.05651
2341.5,0.05656
2335.71,0.05695
2329.92,0.05723
2324.14,0.05764
2318.35,0.05795
2312.57,0.05817
2306.78,0.05813
2300.99,0.05845
2295.21,0.05915
2289.42,0.05888
2283.63,0.05916
2277.85,0.05939
2272.06,0.06004
2266.28,0.06017
2260.49,0.06025
2254.7,0.06024
2248.92,0.06017
2243.13,0.06020
2237.34,0.05990
2231.56,0.06048
2225.77,0.06046
2219.99,0.06069
2214.2,0.06021
2208.41,0.06052
2202.63,0.06068
2196.84,0.06070
2191.05,0.06125
2185.27,0.06130
2179.48,0.06097
2173.7,0.06125
2167.91,0.06171
2162.12,0.06143
2156.34,0.06175
2150.55,0.06138
2144.76,0.06092
2138.98,0.06121
2133.19,0.06144
2127.41,0.06102
2121.62,0.06096
2115.83,0.06071
2110.05,0.06105
2104.26,0.06106
2098.47,0.06099
2092.69,0.06142
2086.9,0.06134
2081.12,0.06186
2075.33,0.06184
2069.54,0.06227
2063.76,0.06259
2057.97,0.06264
2052.19,0.06334
2046.4,0.06383
2040.61,0.06337
2034.83,0.06389
2029.04,0.06395
2023.25,0.06444
2017.47,0.06473
2011.68,0.06481
2005.9,0.06499
2000.11,0.06505
1994.32,0.06495
1988.54,0.06494
1982.75,0.06497
1976.96,0.06478
1971.18,0.06498
1965.39,0.06457
1959.61,0.06403
1953.82,0.06395
1948.03,0.06410
1942.25,0.06443
1936.46,0.06415
1930.67,0.06405
1924.89,0.06402
1919.1,0.06359
1913.32,0.06330
1907.53,0.06250
1901.74,0.06146
1895.96,0.06073
1890.17,0.06006
1884.38,0.05904
1878.6,0.05872
1872.81,0.05813
1867.03,0.05776
1861.24,0.05691
1855.45,0.05610
1849.67,0.05498
1843.88,0.05368
1838.09,0.05226
1832.31,0.05131
1826.52,0.04961
1820.74,0.04826
1814.95,0.04663
1809.16,0.04475
1803.38,0.04300
1797.59,0.04118
1791.8,0.03961
1786.02,0.03767
1780.23,0.03540
1774.45,0.03334
1768.66,0.03163
1762.87,0.02939
1757.09,0.02729
1751.3,0.02491
1745.51,0.02278
1739.73,0.02108
1733.94,0.01962
1728.16,0.01822
1722.37,0.01673
1716.58,0.01573
1710.8,0.01498
1705.01,0.01429
1699.22,0.01367
1693.44,0.01360
1687.65,0.01365
1681.87,0.01379
1676.08,0.01421
1670.29,0.01448
1664.51,0.01517
1658.72,0.01568
1652.93,0.01661
1647.15,0.01716
1641.36,0.01722
1635.58,0.01763
1629.79,0.01787
1624,0.01790
1618.22,0.01732
1612.43,0.01757
1606.64,0.01725
1600.86,0.01718
1595.07,0.01686
1589.29,0.01704
1583.5,0.01659
1577.71,0.01611
1571.93,0.01633
1566.14,0.01565
1560.35,0.01551
1554.57,0.01528
1548.78,0.01556
1543,0.01599
1537.21,0.01670
1531.42,0.01702
1525.64,0.01740
1519.85,0.01741
1514.07,0.01761
1508.28,0.01806
1502.49,0.01796
1496.71,0.01839
1490.92,0.01820
1485.13,0.01831
1479.35,0.01789
1473.56,0.01761
1467.78,0.01708
1461.99,0.01725
1456.2,0.01747
1450.42,0.01721
1444.63,0.01701
1438.84,0.01762
1433.06,0.01758
1427.27,0.01750
1421.49,0.01712
1415.7,0.01734
1409.91,0.01706
1404.13,0.01758
1398.34,0.01735
1392.55,0.01729
1386.77,0.01685
1380.98,0.01694
1375.2,0.01724
1369.41,0.01728
1363.62,0.01718
1357.84,0.01764
1352.05,0.01714
1346.26,0.01750
1340.48,0.01707
1334.69,0.01702
1328.91,0.01740
1323.12,0.01698
1317.33,0.01677
1311.55,0.01720
1305.76,0.01705
1299.97,0.01675
1294.19,0.01689
1288.4,0.01706
1282.62,0.01681
1276.83,0.01684
1271.04,0.01738
1265.26,0.01741
1259.47,0.01706
1253.68,0.01696
1247.9,0.01688
1242.11,0.01707
1236.33,0.01735
1230.54,0.01738
1224.75,0.01789
1218.97,0.01779
1213.18,0.01797
1207.39,0.01820
1201.61,0.01870
1195.82,0.01768
1190.04,0.01816
1184.25,0.01772
1178.46,0.01780
1172.68,0.01761
1166.89,0.01814
1161.1,0.01842
1155.32,0.01844
1149.53,0.01871
1143.75,0.01894
1137.96,0.01886
1132.17,0.01867
1126.39,0.01858
1120.6,0.01824
1114.81,0.01860
1109.03,0.01824
1103.24,0.01854
1097.46,0.01876
1091.67,0.01890
1085.88,0.01899
1080.1,0.01837
1074.31,0.01864
1068.52,0.01925
1062.74,0.01953
1056.95,0.01977
1051.17,0.01947
1045.38,0.01929
1039.59,0.01915
1033.81,0.02032
1028.02,0.02113
1022.24,0.02322
1016.45,0.02268
1010.66,0.02423
1004.88,0.02541
999.09,0.02537
993.304,0.02592
987.518,0.02667
981.731,0.02637
975.945,0.02722
970.159,0.02761
964.373,0.02782
958.586,0.02811
952.8,0.02757
947.014,0.02729
941.228,0.02689
935.441,0.02584
929.655,0.02602
923.869,0.02620
918.083,0.02659
912.297,0.02680
906.51,0.02636
900.724,0.02637
894.938,0.02576
889.152,0.02527
883.365,0.02440
877.579,0.02473
871.793,0.02517
866.007,0.02456
860.22,0.02463
854.434,0.02390
848.648,0.02384
842.862,0.02295
837.075,0.02300
831.289,0.02253
825.503,0.02184
819.717,0.02144
813.931,0.02215
808.144,0.02107
802.358,0.02086
796.572,0.02104
790.786,0.01952
784.999,0.01976
779.213,0.01972
773.427,0.01973
767.641,0.01950
761.854,0.01890
756.068,0.01853
750.282,0.01838
744.496,0.01763
738.709,0.01825
732.923,0.01845
727.137,0.01763
721.351,0.01826
715.565,0.01679
709.778,0.01669
703.992,0.01617
698.206,0.01576
692.42,0.01548
686.633,0.01641
680.847,0.01680
675.061,0.01594
669.275,0.01571
663.488,0.01567
657.702,0.01677
651.916,0.01631
646.13,0.01378
640.343,0.01557
634.557,0.01669
628.771,0.01575
622.985,0.01737
617.198,0.01362
611.412,0.01368
605.626,0.01558
599.84,0.01788