File: 01_Data/Wool_Rug/FTIR/IS/Wool_Rug_IS_S_220826_R2.dpt
7497.03,0.55505
7491.25,0.55731
7485.46,0.55693
7479.67,0.55617
7473.89,0.56676
7468.1,0.55196
7462.32,0.56092
7456.53,0.55136
7450.74,0.55284
7444.96,0.55839
7439.17,0.56445
7433.38,0.55599
7427.6,0.56161
7421.81,0.55901
7416.03,0.54834
7410.24,0.54896
7404.45,0.54629
7398.67,0.54328
7392.88,0.54673
7387.09,0.53805
7381.31,0.53575
7375.52,0.54473
7369.74,0.54512
7363.95,0.54180
7358.16,0.54491
7352.38,0.53659
7346.59,0.54050
7340.8,0.53069
7335.02,0.53188
7329.23,0.54014
7323.45,0.53901
7317.66,0.53687
7311.87,0.53625
7306.09,0.53030
7300.3,0.53973
7294.51,0.53440
7288.73,0.53527
7282.94,0.53814
7277.16,0.53881
7271.37,0.52500
7265.58,0.53129
7259.8,0.52859
7254.01,0.52624
7248.22,0.52194
7242.44,0.52143
7236.65,0.53139
7230.87,0.52569
7225.08,0.51501
7219.29,0.52499
7213.51,0.51863
7207.72,0.51507
7201.93,0.50909
7196.15,0.51443
7190.36,0.50936
7184.58,0.51063
7178.79,0.50385
7173,0.50040
7167.22,0.49205
7161.43,0.49465
7155.65,0.48738
7149.86,0.49279
7144.07,0.48863
7138.29,0.48902
7132.5,0.49061
7126.71,0.48541
7120.93,0.48447
7115.14,0.47734
7109.36,0.47162
7103.57,0.47018
7097.78,0.47391
7092,0.46565
7086.21,0.45843
7080.42,0.46139
7074.64,0.45449
7068.85,0.45560
7063.07,0.45522
7057.28,0.44873
7051.49,0.45402
7045.71,0.44814
7039.92,0.44125
7034.13,0.44508
7028.35,0.44368
7022.56,0.43801
7016.78,0.43478
7010.99,0.43480
7005.2,0.43231
6999.42,0.43517
6993.63,0.42979
6987.84,0.42940
6982.06,0.43116
6976.27,0.43097
6970.49,0.43182
6964.7,0.42789
6958.91,0.42645
6953.13,0.42788
6947.34,0.42802
6941.55,0.42274
6935.77,0.42022
6929.98,0.42114
6924.2,0.41815
6918.41,0.42001
6912.62,0.41996
6906.84,0.41701
6901.05,0.41866
6895.26,0.41759
6889.48,0.41295
6883.69,0.41530
6877.91,0.41690
6872.12,0.41271
6866.33,0.40978
6860.55,0.41117
6854.76,0.40973
6848.97,0.41073
6843.19,0.40775
6837.4,0.40429
6831.62,0.40373
6825.83,0.40018
6820.04,0.40411
6814.26,0.39817
6808.47,0.40092
6802.68,0.39805
6796.9,0.39663
6791.11,0.39589
6785.33,0.39469
6779.54,0.39406
6773.75,0.39744
6767.97,0.38820
6762.18,0.38962
6756.39,0.38581
6750.61,0.38351
6744.82,0.38248
6739.04,0.38135
6733.25,0.37103
6727.46,0.37099
6721.68,0.36793
6715.89,0.36733
6710.1,0.36430
6704.32,0.36428
6698.53,0.36002
6692.75,0.36082
6686.96,0.35671
6681.17,0.35645
6675.39,0.35926
6669.6,0.35716
6663.82,0.35465
6658.03,0.35776
6652.24,0.35370
6646.46,0.35360
6640.67,0.35857
6634.88,0.35620
6629.1,0.35653
6623.31,0.35920
6617.53,0.35763
6611.74,0.36014
6605.95,0.36405
6600.17,0.35638
6594.38,0.36305
6588.59,0.36314
6582.81,0.36346
6577.02,0.36233
6571.24,0.36637
6565.45,0.36412
6559.66,0.36822
6553.88,0.37066
6548.09,0.37108
6542.3,0.37297
6536.52,0.37441
6530.73,0.37679
6524.95,0.37643
6519.16,0.37515
6513.37,0.38056
6507.59,0.38310
6501.8,0.38329
6496.01,0.38751
6490.23,0.38716
6484.44,0.38839
6478.66,0.39188
6472.87,0.39624
6467.08,0.39680
6461.3,0.39765
6455.51,0.39682
6449.72,0.40230
6443.94,0.40560
6438.15,0.40500
6432.37,0.40497
6426.58,0.40791
6420.79,0.40587
6415.01,0.40976
6409.22,0.40611
6403.43,0.41176
6397.65,0.41037
6391.86,0.41096
6386.08,0.41142
6380.29,0.41451
6374.5,0.41154
6368.72,0.41479
6362.93,0.41046
6357.14,0.41460
6351.36,0.41583
6345.57,0.41334
6339.79,0.41580
6334,0.41447
6328.21,0.41565
6322.43,0.42014
6316.64,0.41671
6310.85,0.41811
6305.07,0.42423
6299.28,0.42059
6293.5,0.42157
6287.71,0.42432
6281.92,0.42455
6276.14,0.43160
6270.35,0.43172
6264.56,0.43076
6258.78,0.43290
6252.99,0.43407
6247.21,0.43474
6241.42,0.43440
6235.63,0.43519
6229.85,0.43840
6224.06,0.44073
6218.27,0.43973
6212.49,0.44719
6206.7,0.44673
6200.92,0.44378
6195.13,0.44571
6189.34,0.44721
6183.56,0.45023
6177.77,0.45268
6171.98,0.45004
6166.2,0.45355
6160.41,0.45437
6154.63,0.45353
6148.84,0.45402
6143.05,0.45708
6137.27,0.45747
6131.48,0.45604
6125.7,0.46029
6119.91,0.45870
6114.12,0.46287
6108.34,0.46211
6102.55,0.46264
6096.76,0.46172
6090.98,0.46351
6085.19,0.46277
6079.41,0.46185
6073.62,0.46314
6067.83,0.46458
6062.05,0.46324
6056.26,0.46242
6050.47,0.46213
6044.69,0.46346
6038.9,0.46024
6033.12,0.46206
6027.33,0.45854
6021.54,0.45518
6015.76,0.45334
6009.97,0.45535
6004.18,0.45084
5998.4,0.44729
5992.61,0.44645
5986.83,0.44007
5981.04,0.43620
5975.25,0.43047
5969.47,0.42472
5963.68,0.41971
5957.89,0.41245
5952.11,0.40868
5946.32,0.40310
5940.54,0.39869
5934.75,0.39138
5928.96,0.38626
5923.18,0.38123
5917.39,0.37807
5911.6,0.37373
5905.82,0.37201
5900.03,0.37036
5894.25,0.37277
5888.46,0.36913
5882.67,0.36995
5876.89,0.37028
5871.1,0.37267
5865.31,0.37401
5859.53,0.37529
5853.74,0.37537
5847.96,0.37623
5842.17,0.37533
5836.38,0.37365
5830.6,0.37012
5824.81,0.36538
5819.02,0.36513
5813.24,0.36080
5807.45,0.36099
5801.67,0.35678
5795.88,0.35252
5790.09,0.35179
5784.31,0.34864
5778.52,0.34947
5772.73,0.34529
5766.95,0.34482
5761.16,0.34420
5755.38,0.34550
5749.59,0.34077
5743.8,0.34386
5738.02,0.34496
5732.23,0.34867
5726.44,0.35196
5720.66,0.35118
5714.87,0.35555
5709.09,0.35921
5703.3,0.36668
5697.51,0.36873
5691.73,0.37271
5685.94,0.37713
5680.15,0.37822
5674.37,0.38122
5668.58,0.38471
5662.8,0.38699
5657.01,0.38982
5651.22,0.39255
5645.44,0.39479
5639.65,0.39774
5633.87,0.39918
5628.08,0.40140
5622.29,0.40363
5616.51,0.40273
5610.72,0.40434
5604.93,0.40453
5599.15,0.40404
5593.36,0.40370
5587.58,0.40372
5581.79,0.40705
5576,0.40650
5570.22,0.40577
5564.43,0.40549
5558.64,0.40648
5552.86,0.40454
5547.07,0.40574
5541.29,0.40799
5535.5,0.40869
5529.71,0.40723
5523.93,0.40893
5518.14,0.40743
5512.35,0.41170
5506.57,0.41161
5500.78,0.41024
5495,0.41204
5489.21,0.41243
5483.42,0.41183
5477.64,0.41347
5471.85,0.41369
5466.06,0.41491
5460.28,0.41636
5454.49,0.41777
5448.71,0.41835
5442.92,0.41957
5437.13,0.42126
5431.35,0.42287
5425.56,0.42379
5419.77,0.42442
5413.99,0.42386
5408.2,0.42383
5402.42,0.42548
5396.63,0.42504
5390.84,0.42627
5385.06,0.42432
5379.27,0.42418
5373.48,0.42351
5367.7,0.42269
5361.91,0.42026
5356.13,0.41826
5350.34,0.41489
5344.55,0.41192
5338.77,0.40871
5332.98,0.40486
5327.19,0.40010
5321.41,0.39440
5315.62,0.38631
5309.84,0.37661
5304.05,0.36631
5298.26,0.35418
5292.48,0.34354
5286.69,0.33089
5280.9,0.31656
5275.12,0.30466
5269.33,0.29288
5263.55,0.28133
5257.76,0.26938
5251.97,0.26151
5246.19,0.25151
5240.4,0.24252
5234.61,0.23594
5228.83,0.23045
5223.04,0.22359
5217.26,0.21885
5211.47,0.21410
5205.68,0.21034
5199.9,0.20833
5194.11,0.20278
5188.32,0.20124
5182.54,0.19861
5176.75,0.19606
5170.97,0.19526
5165.18,0.19303
5159.39,0.19261
5153.61,0.19227
5147.82,0.19389
5142.03,0.19328
5136.25,0.19321
5130.46,0.19353
5124.68,0.19582
5118.89,0.19697
5113.1,0.19759
5107.32,0.19893
5101.53,0.19846
5095.75,0.19773
5089.96,0.19815
5084.17,0.19801
5078.39,0.19774
5072.6,0.19531
5066.81,0.19603
5061.03,0.19714
5055.24,0.19915
5049.46,0.19853
5043.67,0.19963
5037.88,0.20062
5032.1,0.20200
5026.31,0.20249
5020.52,0.20348
5014.74,0.20551
5008.95,0.20730
5003.17,0.20840
4997.38,0.20967
4991.59,0.21187
4985.81,0.21156
4980.02,0.21216
4974.23,0.21149
4968.45,0.21144
4962.66,0.21090
4956.88,0.21027
4951.09,0.20858
4945.3,0.20739
4939.52,0.20539
4933.73,0.20309
4927.94,0.19971
4922.16,0.19832
4916.37,0.19502
4910.59,0.19065
4904.8,0.18622
4899.01,0.18372
4893.23,0.18072
4887.44,0.17781
4881.65,0.17384
4875.87,0.17031
4870.08,0.16969
4864.3,0.16872
4858.51,0.16874
4852.72,0.17082
4846.94,0.17373
4841.15,0.17803
4835.36,0.18051
4829.58,0.18551
4823.79,0.18957
4818.01,0.19382
4812.22,0.19768
4806.43,0.20177
4800.65,0.20602
4794.86,0.20830
4789.07,0.21066
4783.29,0.21160
4777.5,0.21292
4771.72,0.21407
4765.93,0.21480
4760.14,0.21635
4754.36,0.21521
4748.57,0.21526
4742.78,0.21425
4737,0.21362
4731.21,0.21316
4725.43,0.21167
4719.64,0.20956
4713.85,0.20752
4708.07,0.20521
4702.28,0.20355
4696.49,0.19994
4690.71,0.19544
4684.92,0.19105
4679.14,0.18824
4673.35,0.18404
4667.56,0.18052
4661.78,0.17625
4655.99,0.17254
4650.2,0.16754
4644.42,0.16359
4638.63,0.15907
4632.85,0.15562
4627.06,0.15227
4621.27,0.14986
4615.49,0.14703
4609.7,0.14615
4603.92,0.14552
4598.13,0.14499
4592.34,0.14526
4586.56,0.14482
4580.77,0.14606
4574.98,0.14790
4569.2,0.14806
4563.41,0.14999
4557.63,0.15118
4551.84,0.15298
4546.05,0.15467
4540.27,0.15705
4534.48,0.15855
4528.69,0.15946
4522.91,0.16220
4517.12,0.16328
4511.34,0.16587
4505.55,0.16766
4499.76,0.17008
4493.98,0.17208
4488.19,0.17287
4482.4,0.17484
4476.62,0.17535
4470.83,0.17489
4465.05,0.17432
4459.26,0.17198
4453.47,0.16911
4447.69,0.16699
4441.9,0.16324
4436.11,0.15836
4430.33,0.15490
4424.54,0.15060
4418.76,0.14670
4412.97,0.14429
4407.18,0.14195
4401.4,0.14018
4395.61,0.13745
4389.82,0.13679
4384.04,0.13579
4378.25,0.13342
4372.47,0.13311
4366.68,0.13313
4360.89,0.13166
4355.11,0.13225
4349.32,0.13347
4343.53,0.13486
4337.75,0.13586
4331.96,0.13673
4326.18,0.13754
4320.39,0.13845
4314.6,0.14038
4308.82,0.14118
4303.03,0.14230
4297.24,0.14229
4291.46,0.14155
4285.67,0.14115
4279.89,0.14060
4274.1,0.13993
4268.31,0.13831
4262.53,0.13828
4256.74,0.13851
4250.95,0.13844
4245.17,0.14052
4239.38,0.14113
4233.6,0.14242
4227.81,0.14346
4222.02,0.14474
4216.24,0.14572
4210.45,0.14690
4204.66,0.14749
4198.88,0.14763
4193.09,0.14792
4187.31,0.14878
4181.52,0.14934
4175.73,0.14922
4169.95,0.14888
4164.16,0.14920
4158.37,0.14982
4152.59,0.14957
4146.8,0.14874
4141.02,0.14756
4135.23,0.14678
4129.44,0.14621
4123.66,0.14569
4117.87,0.14461
4112.09,0.14285
4106.3,0.14165
4100.51,0.13905
4094.73,0.13615
4088.94,0.13366
4083.15,0.13085
4077.37,0.12778
4071.58,0.12614
4065.8,0.12478
4060.01,0.12320
4054.22,0.12183
4048.44,0.12148
4042.65,0.12130
4036.86,0.12211
4031.08,0.12241
4025.29,0.12291
4019.51,0.12334
4013.72,0.12423
4007.93,0.12379
4002.15,0.12319
3996.36,0.12199
3990.57,0.12174
3984.79,0.12204
3979,0.12164
3973.22,0.12063
3967.43,0.12151
3961.64,0.12052
3955.86,0.11916
3950.07,0.11920
3944.28,0.11841
3938.5,0.11842
3932.71,0.11817
3926.93,0.11947
3921.14,0.12031
3915.35,0.12138
3909.57,0.12405
3903.78,0.12608
3897.99,0.12870
3892.21,0.13124
3886.42,0.13369
3880.64,0.13502
3874.85,0.13736
3869.06,0.13867
3863.28,0.13975
3857.49,0.14153
3851.7,0.14196
3845.92,0.14387
3840.13,0.14417
3834.35,0.14445
3828.56,0.14509
3822.77,0.14555
3816.99,0.14573
3811.2,0.14575
3805.41,0.14576
3799.63,0.14590
3793.84,0.14535
3788.06,0.14364
3782.27,0.14356
3776.48,0.14219
3770.7,0.14067
3764.91,0.13891
3759.12,0.13711
3753.34,0.13510
3747.55,0.13214
3741.77,0.12916
3735.98,0.12600
3730.19,0.12263
3724.41,0.11949
3718.62,0.11561
3712.83,0.10964
3707.05,0.10366
3701.26,0.09632
3695.48,0.08888
3689.69,0.08072
3683.9,0.07112
3678.12,0.06249
3672.33,0.05505
3666.54,0.04862
3660.76,0.04375
3654.97,0.03987
3649.19,0.03638
3643.4,0.03357
3637.61,0.03137
3631.83,0.02922
3626.04,0.02760
3620.25,0.02628
3614.47,0.02555
3608.68,0.02481
3602.9,0.02425
3597.11,0.02347
3591.32,0.02273
3585.54,0.02245
3579.75,0.02167
3573.97,0.02070
3568.18,0.02069
3562.39,0.02026
3556.61,0.02060
3550.82,0.02037
3545.03,0.02002
3539.25,0.02031
3533.46,0.01935
3527.68,0.01919
3521.89,0.01923
3516.1,0.01941
3510.32,0.01905
3504.53,0.01895
3498.74,0.01855
3492.96,0.01812
3487.17,0.01785
3481.39,0.01863
3475.6,0.01875
3469.81,0.01906
3464.03,0.01816
3458.24,0.01794
3452.45,0.01820
3446.67,0.01928
3440.88,0.01778
3435.1,0.01740
3429.31,0.01752
3423.52,0.01687
3417.74,0.01738
3411.95,0.01754
3406.16,0.01749
3400.38,0.01725
3394.59,0.01737
3388.81,0.01818
3383.02,0.01726
3377.23,0.01783
3371.45,0.01710
3365.66,0.01682
3359.87,0.01713
3354.09,0.01714
3348.3,0.01802
3342.52,0.01805
3336.73,0.01801
3330.94,0.01741
3325.16,0.01734
3319.37,0.01767
3313.58,0.01684
3307.8,0.01700
3302.01,0.01744
3296.23,0.01709
3290.44,0.01756
3284.65,0.01720
3278.87,0.01792
3273.08,0.01760
3267.29,0.01708
3261.51,0.01687
3255.72,0.01783
3249.94,0.01727
3244.15,0.01730
3238.36,0.01792
3232.58,0.01837
3226.79,0.01689
3221,0.01804
3215.22,0.01789
3209.43,0.01852
3203.65,0.01790
3197.86,0.01826
3192.07,0.01879
3186.29,0.01848
3180.5,0.01823
3174.71,0.01830
3168.93,0.01858
3163.14,0.01822
3157.36,0.01844
3151.57,0.01885
3145.78,0.01833
3140,0.01864
3134.21,0.01822
3128.42,0.01896
3122.64,0.01970
3116.85,0.01921
3111.07,0.01877
3105.28,0.01912
3099.49,0.01825
3093.71,0.01834
3087.92,0.01862
3082.14,0.01864
3076.35,0.01879
3070.56,0.01928
3064.78,0.01903
3058.99,0.01890
3053.2,0.01948
3047.42,0.01934
3041.63,0.01920
3035.85,0.01878
3030.06,0.01882
3024.27,0.01907
3018.49,0.01963
3012.7,0.01938
3006.91,0.01945
3001.13,0.01951
2995.34,0.01889
2989.56,0.01888
2983.77,0.01880
2977.98,0.01826
2972.2,0.01811
2966.41,0.01781
2960.62,0.01794
2954.84,0.01732
2949.05,0.01813
2943.27,0.01778
2937.48,0.01780
2931.69,0.01791
2925.91,0.01821
2920.12,0.01826
2914.33,0.01825
2908.55,0.01846
2902.76,0.01891
2896.98,0.01978
2891.19,0.01965
2885.4,0.01888
2879.62,0.01893
2873.83,0.01893
2868.04,0.01929
2862.26,0.02008
2856.47,0.01995
2850.69,0.02023
2844.9,0.02088
2839.11,0.02194
2833.33,0.02182
2827.54,0.02250
2821.75,0.02296
2815.97,0.02267
2810.18,0.02319
2804.4,0.02305
2798.61,0.02363
2792.82,0.02335
2787.04,0.02434
2781.25,0.02442
2775.46,0.02456
2769.68,0.02517
2763.89,0.02522
2758.11,0.02543
2752.32,0.02579
2746.53,0.02596
2740.75,0.02688
2734.96,0.02726
2729.17,0.02762
2723.39,0.02774
2717.6,0.02853
2711.82,0.02872
2706.03,0.02923
2700.24,0.02992
2694.46,0.03033
2688.67,0.03021
2682.88,0.03076
2677.1,0.03086
2671.31,0.03090
2665.53,0.03107
2659.74,0.03194
2653.95,0.03197
2648.17,0.03199
2642.38,0.03248
2636.59,0.03249
2630.81,0.03287
2625.02,0.03366
2619.24,0.03426
2613.45,0.03425
2607.66,0.03447
2601.88,0.03486
2596.09,0.03576
2590.3,0.03604
2584.52,0.03651
2578.73,0.03695
2572.95,0.03767
2567.16,0.03791
2561.37,0.03835
2555.59,0.03887
2549.8,0.03936
2544.02,0.03954
2538.23,0.04014
2532.44,0.04022
2526.66,0.04083
2520.87,0.04120
2515.08,0.04186
2509.3,0.04241
2503.51,0.04258
2497.73,0.04274
2491.94,0.04324
2486.15,0.04350
2480.37,0.04456
2474.58,0.04498
2468.79,0.04578
2463.01,0.04650
2457.22,0.04692
2451.44,0.04798
2445.65,0.04815
2439.86,0.04911
2434.08,0.04913
2428.29,0.04997
2422.5,0.05100
2416.72,0.05119
2410.93,0.05181
2405.15,0.05243
2399.36,0.05318
2393.57,0.05392
2387.79,0.05397
2382,0.05469
2376.21,0.05513
2370.43,0.05594
2364.64,0.05615
2358.86,0.05650
2353.07,0.05670
2347.28,0.05666
2341.5,0.05661
2335.71,0.05741
2329.92,0.05746
2324.14,0.05762
2318.35,0.05727
2312.57,0.05772
2306.78,0.05803
2300.99,0.05803
2295.21,0.05809
2289.42,0.05796
2283.63,0.05838
2277.85,0.05844
2272.06,0.05844
2266.28,0.05836
2260.49,0.05852
2254.7,0.05836
2248.92,0.05807
2243.13,0.05788
2237.34,0.05764
2231.56,0.05751
2225.77,0.05732
2219.99,0.05740
2214.2,0.05711
2208.41,0.05701
2202.63,0.05701
2196.84,0.05735
2191.05,0.05694
2185.27,0.05704
2179.48,0.05683
2173.7,0.05683
2167.91,0.05657
2162.12,0.05686
2156.34,0.05664
2150.55,0.05670
2144.76,0.05636
2138.98,0.05628
2133.19,0.05604
2127.41,0.05614
2121.62,0.05580
2115.83,0.05593
2110.05,0.05624
2104.26,0.05606
2098.47,0.05609
2092.69,0.05646
2086.9,0.05659
2081.12,0.05669
2075.33,0.05716
2069.54,0.05778
2063.76,0.05847
2057.97,0.05825
2052.19,0.05898
2046.4,0.05938
2040.61,0.06011
2034.83,0.06009
2029.04,0.06078
2023.25,0.06079
2017.47,0.06102
2011.68,0.06143
2005.9,0.06195
2000.11,0.06208
1994.32,0.06227
1988.54,0.06265
1982.75,0.06248
1976.96,0.06274
1971.18,0.06263
1965.39,0.06253
1959.61,0.06273
1953.82,0.06278
1948.03,0.06269
1942.25,0.06329
1936.46,0.06291
1930.67,0.06296
1924.89,0.06319
1919.1,0.06253
1913.32,0.06219
1907.53,0.06168
1901.74,0.06090
1895.96,0.06033
1890.17,0.05932
1884.38,0.05895
1878.6,0.05869
1872.81,0.05794
1867.03,0.05757
1861.24,0.05683
1855.45,0.05598
1849.67,0.05478
1843.88,0.05381
1838.09,0.05253
1832.31,0.05102
1826.52,0.04935
1820.74,0.04827
1814.95,0.04657
1809.16,0.04494
1803.38,0.04313
1797.59,0.04096
1791.8,0.03959
1786.02,0.03815
1780.23,0.03625
1774.45,0.03407
1768.66,0.03232
1762.87,0.03036
1757.09,0.02779
1751.3,0.02510
1745.51,0.02301
1739.73,0.02131
1733.94,0.01978
1728.16,0.01860
1722.37,0.01734
1716.58,0.01590
1710.8,0.01507
1705.01,0.01422
1699.22,0.01382
1693.44,0.01361
1687.65,0.01336
1681.87,0.01354
1676.08,0.01383
1670.29,0.01411
1664.51,0.01511
1658.72,0.01569
1652.93,0.01628
1647.15,0.01706
1641.36,0.01742
1635.58,0.01771
1629.79,0.01789
1624,0.01804
1618.22,0.01792
1612.43,0.01768
1606.64,0.01735
1600.86,0.01738
1595.07,0.01703
1589.29,0.01689
1583.5,0.01643
1577.71,0.01626
1571.93,0.01597
1566.14,0.01587
1560.35,0.01604
1554.57,0.01529
1548.78,0.01580
1543,0.01670
1537.21,0.01687
1531.42,0.01715
1525.64,0.01728
1519.85,0.01764
1514.07,0.01800
1508.28,0.01840
1502.49,0.01825
1496.71,0.01848
1490.92,0.01871
1485.13,0.01848
1479.35,0.01832
1473.56,0.01767
1467.78,0.01779
1461.99,0.01727
1456.2,0.01767
1450.42,0.01763
1444.63,0.01756
1438.84,0.01761
1433.06,0.01758
1427.27,0.01752
1421.49,0.01783
1415.7,0.01730
1409.91,0.01722
1404.13,0.01727
1398.34,0.01711
1392.55,0.01705
1386.77,0.01692
1380.98,0.01744
1375.2,0.01710
1369.41,0.01727
1363.62,0.01782
1357.84,0.01725
1352.05,0.01738
1346.26,0.01749
1340.48,0.01766
1334.69,0.01753
1328.91,0.01735
1323.12,0.01724
1317.33,0.01706
1311.55,0.01693
1305.76,0.01733
1299.97,0.01734
1294.19,0.01741
1288.4,0.01711
1282.62,0.01689
1276.83,0.01737
1271.04,0.01732
1265.26,0.01739
1259.47,0.01778
1253.68,0.01747
1247.9,0.01725
1242.11,0.01703
1236.33,0.01739
1230.54,0.01734
1224.75,0.01766
1218.97,0.01792
1213.18,0.01766
1207.39,0.01810
1201.61,0.01798
1195.82,0.01821
1190.04,0.01887
1184.25,0.01843
1178.46,0.01828
1172.68,0.01819
1166.89,0.01838
1161.1,0.01884
1155.32,0.01877
1149.53,0.01856
1143.75,0.01884
1137.96,0.01945
1132.17,0.01923
1126.39,0.01879
1120.6,0.01808
1114.81,0.01881
1109.03,0.01899
1103.24,0.01841
1097.46,0.01890
1091.67,0.01906
1085.88,0.01890
1080.1,0.01923
1074.31,0.01863
1068.52,0.01898
1062.74,0.01936
1056.95,0.01961
1051.17,0.01940
1045.38,0.01891
1039.59,0.01972
1033.81,0.02079
1028.02,0.02128
1022.24,0.02170
1016.45,0.02330
1010.66,0.02458
1004.88,0.02482
999.09,0.02535
993.304,0.02538
987.518,0.02587
981.731,0.02604
975.945,0.02715
970.159,0.02687
964.373,0.02709
958.586,0.02711
952.8,0.02700
947.014,0.02668
941.228,0.02583
935.441,0.02474
929.655,0.02550
923.869,0.02554
918.083,0.02563
912.297,0.02557
906.51,0.02600
900.724,0.02505
894.938,0.02501
889.152,0.02482
883.365,0.02434
877.579,0.02424
871.793,0.02404
866.007,0.02397
860.22,0.02337
854.434,0.02321
848.648,0.02229
842.862,0.02127
837.075,0.02130
831.289,0.02068
825.503,0.02130
819.717,0.02085
813.931,0.02106
808.144,0.02014
802.358,0.01976
796.572,0.01992
790.786,0.01993
784.999,0.01892
779.213,0.01914
773.427,0.01865
767.641,0.01819
761.854,0.01722
756.068,0.01743
750.282,0.01747
744.496,0.01721
738.709,0.01714
732.923,0.01704
727.137,0.01702
721.351,0.01717
715.565,0.01758
709.778,0.01669
703.992,0.01670
698.206,0.01609
692.42,0.01591
686.633,0.01603
680.847,0.01582
675.061,0.01572
669.275,0.01591
663.488,0.01688
657.702,0.01567
651.916,0.01653
646.13,0.01521
640.343,0.01454
634.557,0.01411
628.771,0.01456
622.985,0.01535
617.198,0.01425
611.412,0.01350
605.626,0.01482
599.84,0.01465