File: 01_Data/Wool_Rug/FTIR/IS/Wool_Rug_IS_S_220826_R1.dpt
7497.03,0.54541
7491.25,0.55473
7485.46,0.55749
7479.67,0.54868
7473.89,0.55327
7468.1,0.55706
7462.32,0.56265
7456.53,0.55537
7450.74,0.55436
7444.96,0.55405
7439.17,0.55472
7433.38,0.54917
7427.6,0.54652
7421.81,0.55035
7416.03,0.55335
7410.24,0.55154
7404.45,0.53983
7398.67,0.54752
7392.88,0.54573
7387.09,0.54317
7381.31,0.54657
7375.52,0.55206
7369.74,0.54545
7363.95,0.53893
7358.16,0.54063
7352.38,0.54353
7346.59,0.53170
7340.8,0.53531
7335.02,0.54004
7329.23,0.53430
7323.45,0.53317
7317.66,0.53760
7311.87,0.53551
7306.09,0.52949
7300.3,0.53838
7294.51,0.53004
7288.73,0.52996
7282.94,0.52735
7277.16,0.52501
7271.37,0.51539
7265.58,0.52502
7259.8,0.52788
7254.01,0.51814
7248.22,0.52233
7242.44,0.51646
7236.65,0.52301
7230.87,0.51936
7225.08,0.51723
7219.29,0.51645
7213.51,0.52260
7207.72,0.51543
7201.93,0.51081
7196.15,0.50839
7190.36,0.50648
7184.58,0.49609
7178.79,0.49405
7173,0.48895
7167.22,0.49389
7161.43,0.48932
7155.65,0.49294
7149.86,0.48554
7144.07,0.49289
7138.29,0.48302
7132.5,0.47406
7126.71,0.47370
7120.93,0.47050
7115.14,0.46690
7109.36,0.46724
7103.57,0.46322
7097.78,0.46100
7092,0.45522
7086.21,0.45316
7080.42,0.44771
7074.64,0.44721
7068.85,0.44683
7063.07,0.43448
7057.28,0.43642
7051.49,0.43368
7045.71,0.43315
7039.92,0.43015
7034.13,0.43074
7028.35,0.43025
7022.56,0.42765
7016.78,0.42459
7010.99,0.42414
7005.2,0.42438
6999.42,0.42117
6993.63,0.42285
6987.84,0.42309
6982.06,0.41626
6976.27,0.41541
6970.49,0.41154
6964.7,0.41408
6958.91,0.41267
6953.13,0.41350
6947.34,0.40784
6941.55,0.40635
6935.77,0.40985
6929.98,0.40634
6924.2,0.40519
6918.41,0.40078
6912.62,0.40529
6906.84,0.40741
6901.05,0.40048
6895.26,0.40423
6889.48,0.39871
6883.69,0.40776
6877.91,0.40257
6872.12,0.40082
6866.33,0.39631
6860.55,0.39563
6854.76,0.39802
6848.97,0.39360
6843.19,0.39227
6837.4,0.39295
6831.62,0.39313
6825.83,0.39533
6820.04,0.39237
6814.26,0.38962
6808.47,0.39123
6802.68,0.38957
6796.9,0.38530
6791.11,0.38278
6785.33,0.38559
6779.54,0.38297
6773.75,0.38035
6767.97,0.37890
6762.18,0.37477
6756.39,0.37654
6750.61,0.37495
6744.82,0.37169
6739.04,0.36687
6733.25,0.36287
6727.46,0.36711
6721.68,0.36669
6715.89,0.36310
6710.1,0.35588
6704.32,0.35702
6698.53,0.35604
6692.75,0.35552
6686.96,0.35502
6681.17,0.35172
6675.39,0.35180
6669.6,0.35124
6663.82,0.35088
6658.03,0.34947
6652.24,0.35203
6646.46,0.35262
6640.67,0.35194
6634.88,0.35261
6629.1,0.35089
6623.31,0.35216
6617.53,0.35176
6611.74,0.35288
6605.95,0.35590
6600.17,0.35474
6594.38,0.35565
6588.59,0.35764
6582.81,0.35942
6577.02,0.35669
6571.24,0.35698
6565.45,0.36071
6559.66,0.35666
6553.88,0.36718
6548.09,0.36707
6542.3,0.36909
6536.52,0.36830
6530.73,0.36754
6524.95,0.37215
6519.16,0.37161
6513.37,0.37520
6507.59,0.37455
6501.8,0.37781
6496.01,0.37801
6490.23,0.38113
6484.44,0.38171
6478.66,0.38387
6472.87,0.38568
6467.08,0.38944
6461.3,0.39209
6455.51,0.39336
6449.72,0.39448
6443.94,0.39745
6438.15,0.39921
6432.37,0.40077
6426.58,0.40063
6420.79,0.40241
6415.01,0.39914
6409.22,0.40347
6403.43,0.39959
6397.65,0.40182
6391.86,0.40577
6386.08,0.40531
6380.29,0.40666
6374.5,0.40783
6368.72,0.40556
6362.93,0.40540
6357.14,0.40858
6351.36,0.40619
6345.57,0.40600
6339.79,0.41190
6334,0.41121
6328.21,0.41308
6322.43,0.41317
6316.64,0.41192
6310.85,0.41411
6305.07,0.41631
6299.28,0.41522
6293.5,0.41461
6287.71,0.42000
6281.92,0.41866
6276.14,0.42266
6270.35,0.42213
6264.56,0.42666
6258.78,0.42448
6252.99,0.42819
6247.21,0.43069
6241.42,0.43110
6235.63,0.43432
6229.85,0.43377
6224.06,0.43550
6218.27,0.43507
6212.49,0.43951
6206.7,0.43976
6200.92,0.43906
6195.13,0.44053
6189.34,0.44299
6183.56,0.44480
6177.77,0.44392
6171.98,0.44756
6166.2,0.45011
6160.41,0.44888
6154.63,0.45064
6148.84,0.45100
6143.05,0.45394
6137.27,0.45109
6131.48,0.45232
6125.7,0.45492
6119.91,0.45298
6114.12,0.45526
6108.34,0.45433
6102.55,0.46089
6096.76,0.45706
6090.98,0.45680
6085.19,0.45704
6079.41,0.46039
6073.62,0.46010
6067.83,0.45655
6062.05,0.45826
6056.26,0.45791
6050.47,0.45728
6044.69,0.45868
6038.9,0.46040
6033.12,0.45651
6027.33,0.45450
6021.54,0.45357
6015.76,0.45363
6009.97,0.44785
6004.18,0.44419
5998.4,0.44301
5992.61,0.43932
5986.83,0.43781
5981.04,0.43211
5975.25,0.42877
5969.47,0.42073
5963.68,0.41623
5957.89,0.40961
5952.11,0.40636
5946.32,0.40031
5940.54,0.39646
5934.75,0.38936
5928.96,0.38261
5923.18,0.37870
5917.39,0.37506
5911.6,0.37197
5905.82,0.37119
5900.03,0.36815
5894.25,0.37139
5888.46,0.36928
5882.67,0.36700
5876.89,0.37026
5871.1,0.37359
5865.31,0.37380
5859.53,0.37291
5853.74,0.37151
5847.96,0.37531
5842.17,0.37447
5836.38,0.37150
5830.6,0.37001
5824.81,0.36773
5819.02,0.36249
5813.24,0.36058
5807.45,0.35756
5801.67,0.35158
5795.88,0.35038
5790.09,0.34690
5784.31,0.34667
5778.52,0.34435
5772.73,0.34373
5766.95,0.34349
5761.16,0.34008
5755.38,0.33900
5749.59,0.34247
5743.8,0.34212
5738.02,0.34114
5732.23,0.34585
5726.44,0.34609
5720.66,0.34949
5714.87,0.35444
5709.09,0.35816
5703.3,0.36243
5697.51,0.36562
5691.73,0.36780
5685.94,0.37415
5680.15,0.37437
5674.37,0.37711
5668.58,0.37960
5662.8,0.38185
5657.01,0.38745
5651.22,0.38957
5645.44,0.39134
5639.65,0.39281
5633.87,0.39660
5628.08,0.39723
5622.29,0.39686
5616.51,0.39705
5610.72,0.40065
5604.93,0.40078
5599.15,0.40011
5593.36,0.39898
5587.58,0.39947
5581.79,0.39927
5576,0.39984
5570.22,0.39939
5564.43,0.39967
5558.64,0.39911
5552.86,0.40164
5547.07,0.40309
5541.29,0.40160
5535.5,0.40288
5529.71,0.40261
5523.93,0.40210
5518.14,0.40439
5512.35,0.40426
5506.57,0.40389
5500.78,0.40717
5495,0.40702
5489.21,0.40797
5483.42,0.40917
5477.64,0.41103
5471.85,0.40957
5466.06,0.41172
5460.28,0.41295
5454.49,0.41487
5448.71,0.41478
5442.92,0.41547
5437.13,0.41662
5431.35,0.41955
5425.56,0.42012
5419.77,0.42150
5413.99,0.42060
5408.2,0.42007
5402.42,0.42100
5396.63,0.42079
5390.84,0.42035
5385.06,0.41905
5379.27,0.41896
5373.48,0.41686
5367.7,0.41680
5361.91,0.41505
5356.13,0.41129
5350.34,0.40952
5344.55,0.40563
5338.77,0.40099
5332.98,0.39724
5327.19,0.38998
5321.41,0.38380
5315.62,0.37747
5309.84,0.36547
5304.05,0.35414
5298.26,0.34169
5292.48,0.33074
5286.69,0.31661
5280.9,0.30389
5275.12,0.29200
5269.33,0.27804
5263.55,0.26653
5257.76,0.25583
5251.97,0.24655
5246.19,0.23705
5240.4,0.22886
5234.61,0.22075
5228.83,0.21473
5223.04,0.20948
5217.26,0.20376
5211.47,0.19771
5205.68,0.19515
5199.9,0.19038
5194.11,0.18765
5188.32,0.18367
5182.54,0.18286
5176.75,0.18128
5170.97,0.17915
5165.18,0.17836
5159.39,0.17758
5153.61,0.17681
5147.82,0.17708
5142.03,0.17747
5136.25,0.17857
5130.46,0.18021
5124.68,0.18178
5118.89,0.18234
5113.1,0.18326
5107.32,0.18404
5101.53,0.18395
5095.75,0.18465
5089.96,0.18578
5084.17,0.18452
5078.39,0.18455
5072.6,0.18607
5066.81,0.18523
5061.03,0.18717
5055.24,0.18847
5049.46,0.18665
5043.67,0.18970
5037.88,0.19146
5032.1,0.19242
5026.31,0.19416
5020.52,0.19504
5014.74,0.19683
5008.95,0.19873
5003.17,0.19926
4997.38,0.20111
4991.59,0.20285
4985.81,0.20441
4980.02,0.20419
4974.23,0.20522
4968.45,0.20438
4962.66,0.20480
4956.88,0.20486
4951.09,0.20233
4945.3,0.20189
4939.52,0.20050
4933.73,0.19821
4927.94,0.19558
4922.16,0.19374
4916.37,0.19105
4910.59,0.18734
4904.8,0.18506
4899.01,0.18070
4893.23,0.17764
4887.44,0.17363
4881.65,0.17052
4875.87,0.16961
4870.08,0.16732
4864.3,0.16574
4858.51,0.16695
4852.72,0.16909
4846.94,0.17111
4841.15,0.17403
4835.36,0.17905
4829.58,0.18382
4823.79,0.18685
4818.01,0.19109
4812.22,0.19474
4806.43,0.19786
4800.65,0.20175
4794.86,0.20423
4789.07,0.20682
4783.29,0.20887
4777.5,0.20965
4771.72,0.21084
4765.93,0.21247
4760.14,0.21201
4754.36,0.21263
4748.57,0.21216
4742.78,0.21200
4737,0.21128
4731.21,0.20965
4725.43,0.20840
4719.64,0.20663
4713.85,0.20515
4708.07,0.20291
4702.28,0.20055
4696.49,0.19738
4690.71,0.19249
4684.92,0.19085
4679.14,0.18775
4673.35,0.18283
4667.56,0.17843
4661.78,0.17404
4655.99,0.17077
4650.2,0.16785
4644.42,0.16270
4638.63,0.15852
4632.85,0.15549
4627.06,0.15198
4621.27,0.14909
4615.49,0.14689
4609.7,0.14581
4603.92,0.14446
4598.13,0.14359
4592.34,0.14429
4586.56,0.14475
4580.77,0.14534
4574.98,0.14702
4569.2,0.14827
4563.41,0.14850
4557.63,0.15022
4551.84,0.15205
4546.05,0.15424
4540.27,0.15533
4534.48,0.15705
4528.69,0.15933
4522.91,0.16178
4517.12,0.16251
4511.34,0.16452
4505.55,0.16722
4499.76,0.17008
4493.98,0.17127
4488.19,0.17269
4482.4,0.17345
4476.62,0.17427
4470.83,0.17405
4465.05,0.17309
4459.26,0.17159
4453.47,0.17013
4447.69,0.16715
4441.9,0.16278
4436.11,0.15812
4430.33,0.15379
4424.54,0.14982
4418.76,0.14679
4412.97,0.14485
4407.18,0.14227
4401.4,0.13959
4395.61,0.13851
4389.82,0.13596
4384.04,0.13453
4378.25,0.13315
4372.47,0.13290
4366.68,0.13258
4360.89,0.13227
4355.11,0.13203
4349.32,0.13282
4343.53,0.13422
4337.75,0.13588
4331.96,0.13665
4326.18,0.13732
4320.39,0.13863
4314.6,0.14012
4308.82,0.14065
4303.03,0.14189
4297.24,0.14257
4291.46,0.14147
4285.67,0.13992
4279.89,0.13891
4274.1,0.13867
4268.31,0.13779
4262.53,0.13759
4256.74,0.13721
4250.95,0.13816
4245.17,0.13872
4239.38,0.13967
4233.6,0.14158
4227.81,0.14236
4222.02,0.14338
4216.24,0.14450
4210.45,0.14589
4204.66,0.14607
4198.88,0.14639
4193.09,0.14689
4187.31,0.14680
4181.52,0.14736
4175.73,0.14743
4169.95,0.14736
4164.16,0.14703
4158.37,0.14744
4152.59,0.14671
4146.8,0.14643
4141.02,0.14502
4135.23,0.14407
4129.44,0.14372
4123.66,0.14276
4117.87,0.14131
4112.09,0.14000
4106.3,0.13855
4100.51,0.13554
4094.73,0.13338
4088.94,0.12999
4083.15,0.12745
4077.37,0.12609
4071.58,0.12375
4065.8,0.12212
4060.01,0.12125
4054.22,0.11954
4048.44,0.11884
4042.65,0.11885
4036.86,0.11991
4031.08,0.11993
4025.29,0.12010
4019.51,0.12047
4013.72,0.12064
4007.93,0.12031
4002.15,0.12009
3996.36,0.11993
3990.57,0.11929
3984.79,0.11897
3979,0.11818
3973.22,0.11829
3967.43,0.11799
3961.64,0.11730
3955.86,0.11715
3950.07,0.11646
3944.28,0.11578
3938.5,0.11592
3932.71,0.11638
3926.93,0.11645
3921.14,0.11728
3915.35,0.11934
3909.57,0.12125
3903.78,0.12343
3897.99,0.12535
3892.21,0.12725
3886.42,0.12990
3880.64,0.13166
3874.85,0.13397
3869.06,0.13467
3863.28,0.13587
3857.49,0.13740
3851.7,0.13831
3845.92,0.13888
3840.13,0.14004
3834.35,0.14020
3828.56,0.14043
3822.77,0.14030
3816.99,0.14080
3811.2,0.14068
3805.41,0.14056
3799.63,0.13939
3793.84,0.13914
3788.06,0.13856
3782.27,0.13706
3776.48,0.13608
3770.7,0.13423
3764.91,0.13168
3759.12,0.13028
3753.34,0.12793
3747.55,0.12512
3741.77,0.12176
3735.98,0.11873
3730.19,0.11571
3724.41,0.11136
3718.62,0.10651
3712.83,0.10197
3707.05,0.09613
3701.26,0.09025
3695.48,0.08187
3689.69,0.07419
3683.9,0.06528
3678.12,0.05713
3672.33,0.05052
3666.54,0.04436
3660.76,0.03984
3654.97,0.03631
3649.19,0.03290
3643.4,0.03139
3637.61,0.02882
3631.83,0.02768
3626.04,0.02573
3620.25,0.02465
3614.47,0.02362
3608.68,0.02292
3602.9,0.02248
3597.11,0.02153
3591.32,0.02117
3585.54,0.02059
3579.75,0.02094
3573.97,0.02074
3568.18,0.01971
3562.39,0.01999
3556.61,0.01932
3550.82,0.01964
3545.03,0.01938
3539.25,0.01970
3533.46,0.01949
3527.68,0.01950
3521.89,0.01935
3516.1,0.01876
3510.32,0.01859
3504.53,0.01827
3498.74,0.01865
3492.96,0.01871
3487.17,0.01823
3481.39,0.01827
3475.6,0.01862
3469.81,0.01762
3464.03,0.01876
3458.24,0.01831
3452.45,0.01776
3446.67,0.01836
3440.88,0.01822
3435.1,0.01785
3429.31,0.01806
3423.52,0.01804
3417.74,0.01759
3411.95,0.01745
3406.16,0.01719
3400.38,0.01735
3394.59,0.01772
3388.81,0.01786
3383.02,0.01749
3377.23,0.01720
3371.45,0.01756
3365.66,0.01757
3359.87,0.01695
3354.09,0.01707
3348.3,0.01740
3342.52,0.01757
3336.73,0.01785
3330.94,0.01717
3325.16,0.01781
3319.37,0.01755
3313.58,0.01748
3307.8,0.01744
3302.01,0.01747
3296.23,0.01688
3290.44,0.01687
3284.65,0.01695
3278.87,0.01767
3273.08,0.01755
3267.29,0.01777
3261.51,0.01765
3255.72,0.01785
3249.94,0.01828
3244.15,0.01810
3238.36,0.01758
3232.58,0.01860
3226.79,0.01909
3221,0.01815
3215.22,0.01805
3209.43,0.01836
3203.65,0.01821
3197.86,0.01837
3192.07,0.01832
3186.29,0.01882
3180.5,0.01893
3174.71,0.01826
3168.93,0.01794
3163.14,0.01874
3157.36,0.01886
3151.57,0.01909
3145.78,0.01891
3140,0.01888
3134.21,0.01871
3128.42,0.01885
3122.64,0.01821
3116.85,0.01858
3111.07,0.01873
3105.28,0.01897
3099.49,0.01823
3093.71,0.01902
3087.92,0.01882
3082.14,0.01857
3076.35,0.01860
3070.56,0.01832
3064.78,0.01802
3058.99,0.01894
3053.2,0.01912
3047.42,0.01896
3041.63,0.01880
3035.85,0.01902
3030.06,0.01922
3024.27,0.01929
3018.49,0.01960
3012.7,0.01916
3006.91,0.01890
3001.13,0.01905
2995.34,0.01958
2989.56,0.01928
2983.77,0.01890
2977.98,0.01830
2972.2,0.01837
2966.41,0.01771
2960.62,0.01815
2954.84,0.01847
2949.05,0.01810
2943.27,0.01819
2937.48,0.01749
2931.69,0.01778
2925.91,0.01808
2920.12,0.01787
2914.33,0.01840
2908.55,0.01887
2902.76,0.01857
2896.98,0.01891
2891.19,0.01967
2885.4,0.01935
2879.62,0.01962
2873.83,0.01897
2868.04,0.01940
2862.26,0.01964
2856.47,0.01972
2850.69,0.02004
2844.9,0.02166
2839.11,0.02165
2833.33,0.02176
2827.54,0.02208
2821.75,0.02217
2815.97,0.02273
2810.18,0.02315
2804.4,0.02324
2798.61,0.02361
2792.82,0.02375
2787.04,0.02420
2781.25,0.02452
2775.46,0.02520
2769.68,0.02489
2763.89,0.02583
2758.11,0.02553
2752.32,0.02606
2746.53,0.02655
2740.75,0.02704
2734.96,0.02710
2729.17,0.02749
2723.39,0.02773
2717.6,0.02831
2711.82,0.02858
2706.03,0.02941
2700.24,0.02966
2694.46,0.03001
2688.67,0.03040
2682.88,0.03066
2677.1,0.03107
2671.31,0.03139
2665.53,0.03189
2659.74,0.03223
2653.95,0.03269
2648.17,0.03236
2642.38,0.03260
2636.59,0.03361
2630.81,0.03357
2625.02,0.03333
2619.24,0.03365
2613.45,0.03451
2607.66,0.03515
2601.88,0.03535
2596.09,0.03556
2590.3,0.03642
2584.52,0.03695
2578.73,0.03757
2572.95,0.03786
2567.16,0.03786
2561.37,0.03870
2555.59,0.03913
2549.8,0.03937
2544.02,0.03996
2538.23,0.04029
2532.44,0.04091
2526.66,0.04121
2520.87,0.04138
2515.08,0.04147
2509.3,0.04202
2503.51,0.04236
2497.73,0.04282
2491.94,0.04343
2486.15,0.04402
2480.37,0.04431
2474.58,0.04512
2468.79,0.04587
2463.01,0.04652
2457.22,0.04718
2451.44,0.04740
2445.65,0.04800
2439.86,0.04872
2434.08,0.04930
2428.29,0.05039
2422.5,0.05056
2416.72,0.05145
2410.93,0.05162
2405.15,0.05214
2399.36,0.05353
2393.57,0.05376
2387.79,0.05440
2382,0.05449
2376.21,0.05511
2370.43,0.05510
2364.64,0.05585
2358.86,0.05579
2353.07,0.05597
2347.28,0.05629
2341.5,0.05620
2335.71,0.05673
2329.92,0.05660
2324.14,0.05661
2318.35,0.05690
2312.57,0.05660
2306.78,0.05673
2300.99,0.05638
2295.21,0.05692
2289.42,0.05724
2283.63,0.05682
2277.85,0.05715
2272.06,0.05704
2266.28,0.05678
2260.49,0.05708
2254.7,0.05694
2248.92,0.05634
2243.13,0.05612
2237.34,0.05602
2231.56,0.05554
2225.77,0.05574
2219.99,0.05556
2214.2,0.05526
2208.41,0.05527
2202.63,0.05528
2196.84,0.05507
2191.05,0.05472
2185.27,0.05501
2179.48,0.05482
2173.7,0.05458
2167.91,0.05458
2162.12,0.05423
2156.34,0.05455
2150.55,0.05407
2144.76,0.05366
2138.98,0.05357
2133.19,0.05408
2127.41,0.05397
2121.62,0.05381
2115.83,0.05407
2110.05,0.05400
2104.26,0.05363
2098.47,0.05389
2092.69,0.05422
2086.9,0.05441
2081.12,0.05470
2075.33,0.05502
2069.54,0.05558
2063.76,0.05603
2057.97,0.05665
2052.19,0.05708
2046.4,0.05728
2040.61,0.05785
2034.83,0.05828
2029.04,0.05852
2023.25,0.05881
2017.47,0.05911
2011.68,0.05956
2005.9,0.06009
2000.11,0.06021
1994.32,0.06025
1988.54,0.06042
1982.75,0.06119
1976.96,0.06137
1971.18,0.06137
1965.39,0.06114
1959.61,0.06096
1953.82,0.06125
1948.03,0.06127
1942.25,0.06180
1936.46,0.06178
1930.67,0.06168
1924.89,0.06190
1919.1,0.06124
1913.32,0.06087
1907.53,0.06036
1901.74,0.05971
1895.96,0.05887
1890.17,0.05835
1884.38,0.05825
1878.6,0.05749
1872.81,0.05701
1867.03,0.05651
1861.24,0.05571
1855.45,0.05482
1849.67,0.05407
1843.88,0.05317
1838.09,0.05156
1832.31,0.05058
1826.52,0.04910
1820.74,0.04739
1814.95,0.04602
1809.16,0.04452
1803.38,0.04273
1797.59,0.04147
1791.8,0.03943
1786.02,0.03751
1780.23,0.03553
1774.45,0.03384
1768.66,0.03174
1762.87,0.03003
1757.09,0.02788
1751.3,0.02530
1745.51,0.02311
1739.73,0.02164
1733.94,0.01998
1728.16,0.01850
1722.37,0.01753
1716.58,0.01613
1710.8,0.01521
1705.01,0.01437
1699.22,0.01364
1693.44,0.01353
1687.65,0.01359
1681.87,0.01402
1676.08,0.01367
1670.29,0.01415
1664.51,0.01474
1658.72,0.01570
1652.93,0.01670
1647.15,0.01674
1641.36,0.01710
1635.58,0.01756
1629.79,0.01797
1624,0.01818
1618.22,0.01775
1612.43,0.01767
1606.64,0.01775
1600.86,0.01722
1595.07,0.01714
1589.29,0.01729
1583.5,0.01650
1577.71,0.01640
1571.93,0.01635
1566.14,0.01615
1560.35,0.01554
1554.57,0.01569
1548.78,0.01579
1543,0.01681
1537.21,0.01694
1531.42,0.01718
1525.64,0.01758
1519.85,0.01740
1514.07,0.01748
1508.28,0.01839
1502.49,0.01858
1496.71,0.01860
1490.92,0.01897
1485.13,0.01875
1479.35,0.01870
1473.56,0.01789
1467.78,0.01796
1461.99,0.01762
1456.2,0.01750
1450.42,0.01749
1444.63,0.01763
1438.84,0.01749
1433.06,0.01768
1427.27,0.01748
1421.49,0.01741
1415.7,0.01749
1409.91,0.01731
1404.13,0.01730
1398.34,0.01731
1392.55,0.01729
1386.77,0.01751
1380.98,0.01756
1375.2,0.01769
1369.41,0.01733
1363.62,0.01763
1357.84,0.01764
1352.05,0.01794
1346.26,0.01770
1340.48,0.01777
1334.69,0.01736
1328.91,0.01753
1323.12,0.01749
1317.33,0.01701
1311.55,0.01708
1305.76,0.01740
1299.97,0.01695
1294.19,0.01712
1288.4,0.01733
1282.62,0.01717
1276.83,0.01715
1271.04,0.01731
1265.26,0.01738
1259.47,0.01789
1253.68,0.01761
1247.9,0.01763
1242.11,0.01753
1236.33,0.01750
1230.54,0.01752
1224.75,0.01777
1218.97,0.01766
1213.18,0.01854
1207.39,0.01847
1201.61,0.01881
1195.82,0.01850
1190.04,0.01867
1184.25,0.01861
1178.46,0.01861
1172.68,0.01820
1166.89,0.01847
1161.1,0.01768
1155.32,0.01854
1149.53,0.01890
1143.75,0.01904
1137.96,0.01824
1132.17,0.01891
1126.39,0.01876
1120.6,0.01874
1114.81,0.01810
1109.03,0.01846
1103.24,0.01812
1097.46,0.01862
1091.67,0.01870
1085.88,0.01879
1080.1,0.01833
1074.31,0.01865
1068.52,0.01870
1062.74,0.01968
1056.95,0.02013
1051.17,0.01940
1045.38,0.01892
1039.59,0.01975
1033.81,0.02063
1028.02,0.02191
1022.24,0.02217
1016.45,0.02360
1010.66,0.02384
1004.88,0.02518
999.09,0.02563
993.304,0.02528
987.518,0.02533
981.731,0.02597
975.945,0.02676
970.159,0.02623
964.373,0.02631
958.586,0.02683
952.8,0.02683
947.014,0.02619
941.228,0.02583
935.441,0.02523
929.655,0.02509
923.869,0.02546
918.083,0.02540
912.297,0.02520
906.51,0.02453
900.724,0.02438
894.938,0.02461
889.152,0.02416
883.365,0.02349
877.579,0.02417
871.793,0.02405
866.007,0.02293
860.22,0.02298
854.434,0.02290
848.648,0.02201
842.862,0.02176
837.075,0.02135
831.289,0.02015
825.503,0.02079
819.717,0.02098
813.931,0.01987
808.144,0.01980
802.358,0.01938
796.572,0.01979
790.786,0.01906
784.999,0.01864
779.213,0.01837
773.427,0.01778
767.641,0.01778
761.854,0.01768
756.068,0.01793
750.282,0.01725
744.496,0.01671
738.709,0.01704
732.923,0.01744
727.137,0.01693
721.351,0.01576
715.565,0.01585
709.778,0.01585
703.992,0.01647
698.206,0.01597
692.42,0.01627
686.633,0.01715
680.847,0.01580
675.061,0.01570
669.275,0.01640
663.488,0.01618
657.702,0.01632
651.916,0.01469
646.13,0.01646
640.343,0.01596
634.557,0.01432
628.771,0.01606
622.985,0.01481
617.198,0.01499
611.412,0.01298
605.626,0.01392
599.84,0.01552