File: 01_Data/Wool_Rug/FTIR/IS/Wool_Rug_IS_S_220826_R5.dpt
7497.03,0.56444
7491.25,0.56281
7485.46,0.56564
7479.67,0.56174
7473.89,0.56621
7468.1,0.56522
7462.32,0.56743
7456.53,0.56393
7450.74,0.55827
7444.96,0.56579
7439.17,0.56092
7433.38,0.55176
7427.6,0.55594
7421.81,0.54654
7416.03,0.55450
7410.24,0.54675
7404.45,0.55730
7398.67,0.55347
7392.88,0.55228
7387.09,0.55589
7381.31,0.54913
7375.52,0.55130
7369.74,0.55121
7363.95,0.54839
7358.16,0.55753
7352.38,0.55416
7346.59,0.54845
7340.8,0.54392
7335.02,0.54182
7329.23,0.54105
7323.45,0.54663
7317.66,0.54088
7311.87,0.54053
7306.09,0.54117
7300.3,0.54215
7294.51,0.54062
7288.73,0.53474
7282.94,0.53553
7277.16,0.53480
7271.37,0.53485
7265.58,0.53197
7259.8,0.54116
7254.01,0.53080
7248.22,0.52868
7242.44,0.53113
7236.65,0.53293
7230.87,0.52915
7225.08,0.52732
7219.29,0.52485
7213.51,0.52489
7207.72,0.52506
7201.93,0.52111
7196.15,0.51698
7190.36,0.51670
7184.58,0.52132
7178.79,0.51153
7173,0.50483
7167.22,0.50359
7161.43,0.50727
7155.65,0.50349
7149.86,0.50667
7144.07,0.50571
7138.29,0.50713
7132.5,0.50042
7126.71,0.49647
7120.93,0.49041
7115.14,0.49607
7109.36,0.48834
7103.57,0.48534
7097.78,0.49040
7092,0.48386
7086.21,0.48319
7080.42,0.47728
7074.64,0.47445
7068.85,0.46972
7063.07,0.47892
7057.28,0.47351
7051.49,0.47285
7045.71,0.47302
7039.92,0.46781
7034.13,0.46261
7028.35,0.45921
7022.56,0.46177
7016.78,0.46097
7010.99,0.46590
7005.2,0.46400
6999.42,0.46111
6993.63,0.45935
6987.84,0.45547
6982.06,0.45551
6976.27,0.45468
6970.49,0.45531
6964.7,0.45539
6958.91,0.44898
6953.13,0.45340
6947.34,0.44881
6941.55,0.45014
6935.77,0.44998
6929.98,0.44745
6924.2,0.44647
6918.41,0.44167
6912.62,0.43778
6906.84,0.43874
6901.05,0.44078
6895.26,0.43799
6889.48,0.44087
6883.69,0.43390
6877.91,0.43568
6872.12,0.43255
6866.33,0.43205
6860.55,0.42943
6854.76,0.42687
6848.97,0.42785
6843.19,0.42963
6837.4,0.43044
6831.62,0.41893
6825.83,0.41949
6820.04,0.42576
6814.26,0.42203
6808.47,0.42169
6802.68,0.41937
6796.9,0.41924
6791.11,0.41606
6785.33,0.41408
6779.54,0.41171
6773.75,0.40941
6767.97,0.40577
6762.18,0.40680
6756.39,0.39497
6750.61,0.39902
6744.82,0.39567
6739.04,0.39152
6733.25,0.38508
6727.46,0.38065
6721.68,0.37481
6715.89,0.37813
6710.1,0.37091
6704.32,0.36599
6698.53,0.36832
6692.75,0.36691
6686.96,0.36489
6681.17,0.36499
6675.39,0.36352
6669.6,0.36420
6663.82,0.36371
6658.03,0.36196
6652.24,0.36176
6646.46,0.35961
6640.67,0.35916
6634.88,0.35960
6629.1,0.36655
6623.31,0.36595
6617.53,0.36517
6611.74,0.36268
6605.95,0.36390
6600.17,0.36690
6594.38,0.36633
6588.59,0.36564
6582.81,0.36746
6577.02,0.37125
6571.24,0.36532
6565.45,0.37684
6559.66,0.37620
6553.88,0.37924
6548.09,0.38000
6542.3,0.37961
6536.52,0.37856
6530.73,0.38338
6524.95,0.38706
6519.16,0.38575
6513.37,0.38798
6507.59,0.38855
6501.8,0.39166
6496.01,0.39423
6490.23,0.39592
6484.44,0.40029
6478.66,0.40172
6472.87,0.40066
6467.08,0.40326
6461.3,0.40508
6455.51,0.40792
6449.72,0.41203
6443.94,0.41338
6438.15,0.40968
6432.37,0.41432
6426.58,0.41313
6420.79,0.41654
6415.01,0.41338
6409.22,0.41812
6403.43,0.42019
6397.65,0.41929
6391.86,0.42192
6386.08,0.42004
6380.29,0.42291
6374.5,0.42073
6368.72,0.41655
6362.93,0.41584
6357.14,0.42452
6351.36,0.42211
6345.57,0.42157
6339.79,0.42204
6334,0.42306
6328.21,0.42698
6322.43,0.42406
6316.64,0.42488
6310.85,0.42780
6305.07,0.42706
6299.28,0.43204
6293.5,0.43351
6287.71,0.43598
6281.92,0.43428
6276.14,0.43408
6270.35,0.43701
6264.56,0.43860
6258.78,0.43977
6252.99,0.44035
6247.21,0.44218
6241.42,0.44195
6235.63,0.44231
6229.85,0.44884
6224.06,0.44887
6218.27,0.44674
6212.49,0.44894
6206.7,0.45111
6200.92,0.45190
6195.13,0.45252
6189.34,0.45381
6183.56,0.45697
6177.77,0.45705
6171.98,0.45836
6166.2,0.46146
6160.41,0.45997
6154.63,0.46375
6148.84,0.46298
6143.05,0.46324
6137.27,0.46413
6131.48,0.46286
6125.7,0.46422
6119.91,0.46443
6114.12,0.46666
6108.34,0.46991
6102.55,0.46829
6096.76,0.46755
6090.98,0.47050
6085.19,0.47146
6079.41,0.47098
6073.62,0.47009
6067.83,0.46793
6062.05,0.47100
6056.26,0.46990
6050.47,0.46654
6044.69,0.46531
6038.9,0.46440
6033.12,0.46286
6027.33,0.46189
6021.54,0.46185
6015.76,0.45964
6009.97,0.45587
6004.18,0.45409
5998.4,0.45121
5992.61,0.44676
5986.83,0.44199
5981.04,0.43661
5975.25,0.43250
5969.47,0.42624
5963.68,0.42036
5957.89,0.41350
5952.11,0.41208
5946.32,0.40506
5940.54,0.39731
5934.75,0.39228
5928.96,0.38713
5923.18,0.38223
5917.39,0.37727
5911.6,0.37320
5905.82,0.37032
5900.03,0.36850
5894.25,0.36857
5888.46,0.36762
5882.67,0.37058
5876.89,0.37111
5871.1,0.37222
5865.31,0.37619
5859.53,0.37454
5853.74,0.37445
5847.96,0.37462
5842.17,0.37209
5836.38,0.37284
5830.6,0.37016
5824.81,0.36824
5819.02,0.36432
5813.24,0.36075
5807.45,0.35791
5801.67,0.35446
5795.88,0.35245
5790.09,0.34963
5784.31,0.34812
5778.52,0.34496
5772.73,0.34411
5766.95,0.34187
5761.16,0.33995
5755.38,0.33964
5749.59,0.34019
5743.8,0.34099
5738.02,0.34445
5732.23,0.34593
5726.44,0.34741
5720.66,0.35237
5714.87,0.35352
5709.09,0.35973
5703.3,0.36655
5697.51,0.37047
5691.73,0.37243
5685.94,0.37668
5680.15,0.37951
5674.37,0.38304
5668.58,0.38480
5662.8,0.38930
5657.01,0.39430
5651.22,0.39646
5645.44,0.39884
5639.65,0.40117
5633.87,0.40390
5628.08,0.40557
5622.29,0.40768
5616.51,0.40887
5610.72,0.40890
5604.93,0.41068
5599.15,0.40852
5593.36,0.41236
5587.58,0.41264
5581.79,0.41179
5576,0.41047
5570.22,0.41201
5564.43,0.41050
5558.64,0.41084
5552.86,0.41174
5547.07,0.41128
5541.29,0.41246
5535.5,0.41240
5529.71,0.41356
5523.93,0.41520
5518.14,0.41352
5512.35,0.41364
5506.57,0.41593
5500.78,0.41514
5495,0.41569
5489.21,0.41626
5483.42,0.41782
5477.64,0.41955
5471.85,0.42065
5466.06,0.41959
5460.28,0.42053
5454.49,0.42234
5448.71,0.42385
5442.92,0.42460
5437.13,0.42638
5431.35,0.42800
5425.56,0.42841
5419.77,0.43121
5413.99,0.43112
5408.2,0.43046
5402.42,0.43097
5396.63,0.43024
5390.84,0.43186
5385.06,0.43004
5379.27,0.43141
5373.48,0.43116
5367.7,0.43062
5361.91,0.42942
5356.13,0.42690
5350.34,0.42553
5344.55,0.42389
5338.77,0.42187
5332.98,0.41780
5327.19,0.41307
5321.41,0.40849
5315.62,0.40170
5309.84,0.39649
5304.05,0.38918
5298.26,0.37819
5292.48,0.36797
5286.69,0.35609
5280.9,0.34609
5275.12,0.33343
5269.33,0.32164
5263.55,0.31185
5257.76,0.30130
5251.97,0.29287
5246.19,0.28529
5240.4,0.27723
5234.61,0.27060
5228.83,0.26311
5223.04,0.25751
5217.26,0.25223
5211.47,0.24824
5205.68,0.24554
5199.9,0.23949
5194.11,0.23717
5188.32,0.23387
5182.54,0.23191
5176.75,0.22809
5170.97,0.22526
5165.18,0.22535
5159.39,0.22401
5153.61,0.22431
5147.82,0.22475
5142.03,0.22369
5136.25,0.22345
5130.46,0.22379
5124.68,0.22468
5118.89,0.22554
5113.1,0.22526
5107.32,0.22462
5101.53,0.22395
5095.75,0.22320
5089.96,0.22171
5084.17,0.22022
5078.39,0.21732
5072.6,0.21615
5066.81,0.21595
5061.03,0.21383
5055.24,0.21343
5049.46,0.21452
5043.67,0.21484
5037.88,0.21564
5032.1,0.21732
5026.31,0.21810
5020.52,0.21703
5014.74,0.21866
5008.95,0.21979
5003.17,0.21972
4997.38,0.22287
4991.59,0.22170
4985.81,0.22119
4980.02,0.22171
4974.23,0.22189
4968.45,0.21985
4962.66,0.21872
4956.88,0.21716
4951.09,0.21588
4945.3,0.21328
4939.52,0.21078
4933.73,0.20783
4927.94,0.20367
4922.16,0.20079
4916.37,0.19536
4910.59,0.19254
4904.8,0.18822
4899.01,0.18564
4893.23,0.18093
4887.44,0.17788
4881.65,0.17479
4875.87,0.17216
4870.08,0.17049
4864.3,0.16993
4858.51,0.17023
4852.72,0.17170
4846.94,0.17404
4841.15,0.17781
4835.36,0.18153
4829.58,0.18664
4823.79,0.19069
4818.01,0.19536
4812.22,0.19831
4806.43,0.20368
4800.65,0.20635
4794.86,0.20880
4789.07,0.21291
4783.29,0.21422
4777.5,0.21522
4771.72,0.21585
4765.93,0.21776
4760.14,0.21749
4754.36,0.21716
4748.57,0.21691
4742.78,0.21555
4737,0.21497
4731.21,0.21368
4725.43,0.21186
4719.64,0.21025
4713.85,0.20816
4708.07,0.20481
4702.28,0.20166
4696.49,0.19962
4690.71,0.19599
4684.92,0.19200
4679.14,0.18748
4673.35,0.18337
4667.56,0.17838
4661.78,0.17487
4655.99,0.17060
4650.2,0.16643
4644.42,0.16134
4638.63,0.15713
4632.85,0.15358
4627.06,0.15035
4621.27,0.14754
4615.49,0.14561
4609.7,0.14385
4603.92,0.14357
4598.13,0.14230
4592.34,0.14215
4586.56,0.14359
4580.77,0.14378
4574.98,0.14454
4569.2,0.14630
4563.41,0.14707
4557.63,0.14853
4551.84,0.15107
4546.05,0.15246
4540.27,0.15452
4534.48,0.15602
4528.69,0.15737
4522.91,0.16063
4517.12,0.16235
4511.34,0.16372
4505.55,0.16679
4499.76,0.16843
4493.98,0.17061
4488.19,0.17265
4482.4,0.17291
4476.62,0.17230
4470.83,0.17320
4465.05,0.17211
4459.26,0.17119
4453.47,0.16839
4447.69,0.16501
4441.9,0.16176
4436.11,0.15642
4430.33,0.15136
4424.54,0.14743
4418.76,0.14368
4412.97,0.14190
4407.18,0.14002
4401.4,0.13715
4395.61,0.13566
4389.82,0.13365
4384.04,0.13279
4378.25,0.13174
4372.47,0.13015
4366.68,0.12956
4360.89,0.13026
4355.11,0.13026
4349.32,0.13032
4343.53,0.13161
4337.75,0.13343
4331.96,0.13391
4326.18,0.13510
4320.39,0.13649
4314.6,0.13800
4308.82,0.13950
4303.03,0.13966
4297.24,0.13922
4291.46,0.13947
4285.67,0.13982
4279.89,0.13860
4274.1,0.13808
4268.31,0.13655
4262.53,0.13586
4256.74,0.13618
4250.95,0.13734
4245.17,0.13871
4239.38,0.13912
4233.6,0.14079
4227.81,0.14214
4222.02,0.14395
4216.24,0.14475
4210.45,0.14517
4204.66,0.14608
4198.88,0.14690
4193.09,0.14787
4187.31,0.14808
4181.52,0.14861
4175.73,0.14870
4169.95,0.15017
4164.16,0.15039
4158.37,0.15046
4152.59,0.14938
4146.8,0.14863
4141.02,0.14850
4135.23,0.14807
4129.44,0.14704
4123.66,0.14705
4117.87,0.14691
4112.09,0.14539
4106.3,0.14319
4100.51,0.14100
4094.73,0.13811
4088.94,0.13587
4083.15,0.13262
4077.37,0.13064
4071.58,0.12835
4065.8,0.12659
4060.01,0.12549
4054.22,0.12435
4048.44,0.12407
4042.65,0.12396
4036.86,0.12481
4031.08,0.12539
4025.29,0.12639
4019.51,0.12667
4013.72,0.12658
4007.93,0.12678
4002.15,0.12692
3996.36,0.12569
3990.57,0.12529
3984.79,0.12443
3979,0.12425
3973.22,0.12409
3967.43,0.12338
3961.64,0.12250
3955.86,0.12208
3950.07,0.12111
3944.28,0.12074
3938.5,0.12049
3932.71,0.12057
3926.93,0.12089
3921.14,0.12239
3915.35,0.12407
3909.57,0.12602
3903.78,0.12813
3897.99,0.13109
3892.21,0.13427
3886.42,0.13607
3880.64,0.13798
3874.85,0.14035
3869.06,0.14244
3863.28,0.14439
3857.49,0.14514
3851.7,0.14711
3845.92,0.14898
3840.13,0.14945
3834.35,0.15046
3828.56,0.15142
3822.77,0.15219
3816.99,0.15301
3811.2,0.15345
3805.41,0.15412
3799.63,0.15425
3793.84,0.15351
3788.06,0.15349
3782.27,0.15380
3776.48,0.15286
3770.7,0.15142
3764.91,0.15053
3759.12,0.14853
3753.34,0.14675
3747.55,0.14372
3741.77,0.14161
3735.98,0.13928
3730.19,0.13623
3724.41,0.13244
3718.62,0.12835
3712.83,0.12306
3707.05,0.11760
3701.26,0.11043
3695.48,0.10256
3689.69,0.09439
3683.9,0.08463
3678.12,0.07397
3672.33,0.06562
3666.54,0.05871
3660.76,0.05308
3654.97,0.04794
3649.19,0.04457
3643.4,0.04040
3637.61,0.03747
3631.83,0.03468
3626.04,0.03222
3620.25,0.03099
3614.47,0.02953
3608.68,0.02810
3602.9,0.02777
3597.11,0.02599
3591.32,0.02497
3585.54,0.02454
3579.75,0.02405
3573.97,0.02390
3568.18,0.02282
3562.39,0.02242
3556.61,0.02139
3550.82,0.02099
3545.03,0.02080
3539.25,0.02057
3533.46,0.02016
3527.68,0.01965
3521.89,0.02041
3516.1,0.01974
3510.32,0.01877
3504.53,0.01936
3498.74,0.01938
3492.96,0.01921
3487.17,0.01901
3481.39,0.01805
3475.6,0.01864
3469.81,0.01806
3464.03,0.01778
3458.24,0.01753
3452.45,0.01820
3446.67,0.01778
3440.88,0.01790
3435.1,0.01771
3429.31,0.01723
3423.52,0.01783
3417.74,0.01756
3411.95,0.01762
3406.16,0.01710
3400.38,0.01821
3394.59,0.01744
3388.81,0.01735
3383.02,0.01749
3377.23,0.01735
3371.45,0.01720
3365.66,0.01764
3359.87,0.01694
3354.09,0.01762
3348.3,0.01712
3342.52,0.01685
3336.73,0.01770
3330.94,0.01746
3325.16,0.01702
3319.37,0.01694
3313.58,0.01700
3307.8,0.01683
3302.01,0.01697
3296.23,0.01738
3290.44,0.01726
3284.65,0.01708
3278.87,0.01783
3273.08,0.01791
3267.29,0.01735
3261.51,0.01736
3255.72,0.01778
3249.94,0.01754
3244.15,0.01776
3238.36,0.01843
3232.58,0.01787
3226.79,0.01829
3221,0.01836
3215.22,0.01809
3209.43,0.01751
3203.65,0.01799
3197.86,0.01891
3192.07,0.01822
3186.29,0.01815
3180.5,0.01879
3174.71,0.01833
3168.93,0.01910
3163.14,0.01900
3157.36,0.01887
3151.57,0.01868
3145.78,0.01917
3140,0.01849
3134.21,0.01891
3128.42,0.01885
3122.64,0.01900
3116.85,0.01863
3111.07,0.01867
3105.28,0.01853
3099.49,0.01916
3093.71,0.01869
3087.92,0.01883
3082.14,0.01887
3076.35,0.01858
3070.56,0.01818
3064.78,0.01861
3058.99,0.01870
3053.2,0.01867
3047.42,0.01895
3041.63,0.01938
3035.85,0.01955
3030.06,0.01903
3024.27,0.01936
3018.49,0.01891
3012.7,0.01893
3006.91,0.01902
3001.13,0.01909
2995.34,0.01881
2989.56,0.01875
2983.77,0.01850
2977.98,0.01754
2972.2,0.01766
2966.41,0.01779
2960.62,0.01784
2954.84,0.01782
2949.05,0.01808
2943.27,0.01751
2937.48,0.01749
2931.69,0.01761
2925.91,0.01786
2920.12,0.01785
2914.33,0.01863
2908.55,0.01855
2902.76,0.01916
2896.98,0.01890
2891.19,0.01903
2885.4,0.01920
2879.62,0.01891
2873.83,0.01932
2868.04,0.01921
2862.26,0.01968
2856.47,0.01968
2850.69,0.01964
2844.9,0.02094
2839.11,0.02138
2833.33,0.02162
2827.54,0.02222
2821.75,0.02244
2815.97,0.02288
2810.18,0.02254
2804.4,0.02270
2798.61,0.02263
2792.82,0.02313
2787.04,0.02373
2781.25,0.02401
2775.46,0.02456
2769.68,0.02450
2763.89,0.02504
2758.11,0.02531
2752.32,0.02540
2746.53,0.02580
2740.75,0.02627
2734.96,0.02685
2729.17,0.02676
2723.39,0.02749
2717.6,0.02727
2711.82,0.02833
2706.03,0.02855
2700.24,0.02908
2694.46,0.02918
2688.67,0.02970
2682.88,0.02975
2677.1,0.03010
2671.31,0.03024
2665.53,0.03068
2659.74,0.03109
2653.95,0.03156
2648.17,0.03190
2642.38,0.03238
2636.59,0.03242
2630.81,0.03259
2625.02,0.03273
2619.24,0.03309
2613.45,0.03352
2607.66,0.03398
2601.88,0.03436
2596.09,0.03462
2590.3,0.03533
2584.52,0.03572
2578.73,0.03588
2572.95,0.03644
2567.16,0.03695
2561.37,0.03735
2555.59,0.03788
2549.8,0.03853
2544.02,0.03817
2538.23,0.03875
2532.44,0.03940
2526.66,0.04003
2520.87,0.04029
2515.08,0.04052
2509.3,0.04034
2503.51,0.04072
2497.73,0.04142
2491.94,0.04191
2486.15,0.04239
2480.37,0.04284
2474.58,0.04373
2468.79,0.04459
2463.01,0.04492
2457.22,0.04536
2451.44,0.04629
2445.65,0.04671
2439.86,0.04742
2434.08,0.04839
2428.29,0.04914
2422.5,0.04924
2416.72,0.05006
2410.93,0.05073
2405.15,0.05108
2399.36,0.05188
2393.57,0.05312
2387.79,0.05345
2382,0.05387
2376.21,0.05439
2370.43,0.05476
2364.64,0.05535
2358.86,0.05568
2353.07,0.05598
2347.28,0.05617
2341.5,0.05657
2335.71,0.05723
2329.92,0.05688
2324.14,0.05777
2318.35,0.05732
2312.57,0.05729
2306.78,0.05780
2300.99,0.05809
2295.21,0.05838
2289.42,0.05837
2283.63,0.05867
2277.85,0.05894
2272.06,0.05916
2266.28,0.05912
2260.49,0.05924
2254.7,0.05958
2248.92,0.05938
2243.13,0.05942
2237.34,0.05947
2231.56,0.05958
2225.77,0.05956
2219.99,0.05920
2214.2,0.05917
2208.41,0.05938
2202.63,0.05937
2196.84,0.05953
2191.05,0.05942
2185.27,0.05977
2179.48,0.05995
2173.7,0.06003
2167.91,0.05989
2162.12,0.05939
2156.34,0.05986
2150.55,0.05982
2144.76,0.05961
2138.98,0.05925
2133.19,0.05969
2127.41,0.05931
2121.62,0.05941
2115.83,0.05939
2110.05,0.05936
2104.26,0.05956
2098.47,0.05944
2092.69,0.05961
2086.9,0.05938
2081.12,0.06012
2075.33,0.06032
2069.54,0.06058
2063.76,0.06071
2057.97,0.06123
2052.19,0.06172
2046.4,0.06228
2040.61,0.06238
2034.83,0.06230
2029.04,0.06262
2023.25,0.06295
2017.47,0.06310
2011.68,0.06358
2005.9,0.06411
2000.11,0.06403
1994.32,0.06390
1988.54,0.06401
1982.75,0.06410
1976.96,0.06405
1971.18,0.06365
1965.39,0.06361
1959.61,0.06326
1953.82,0.06348
1948.03,0.06362
1942.25,0.06360
1936.46,0.06352
1930.67,0.06354
1924.89,0.06354
1919.1,0.06288
1913.32,0.06233
1907.53,0.06201
1901.74,0.06140
1895.96,0.06044
1890.17,0.05946
1884.38,0.05864
1878.6,0.05876
1872.81,0.05800
1867.03,0.05760
1861.24,0.05654
1855.45,0.05584
1849.67,0.05467
1843.88,0.05356
1838.09,0.05214
1832.31,0.05104
1826.52,0.04906
1820.74,0.04754
1814.95,0.04648
1809.16,0.04453
1803.38,0.04306
1797.59,0.04098
1791.8,0.03918
1786.02,0.03743
1780.23,0.03530
1774.45,0.03387
1768.66,0.03149
1762.87,0.02961
1757.09,0.02718
1751.3,0.02484
1745.51,0.02243
1739.73,0.02083
1733.94,0.01924
1728.16,0.01794
1722.37,0.01677
1716.58,0.01544
1710.8,0.01477
1705.01,0.01376
1699.22,0.01363
1693.44,0.01314
1687.65,0.01314
1681.87,0.01322
1676.08,0.01399
1670.29,0.01449
1664.51,0.01484
1658.72,0.01561
1652.93,0.01582
1647.15,0.01725
1641.36,0.01759
1635.58,0.01772
1629.79,0.01778
1624,0.01800
1618.22,0.01771
1612.43,0.01737
1606.64,0.01733
1600.86,0.01730
1595.07,0.01703
1589.29,0.01645
1583.5,0.01637
1577.71,0.01606
1571.93,0.01628
1566.14,0.01574
1560.35,0.01569
1554.57,0.01529
1548.78,0.01587
1543,0.01654
1537.21,0.01672
1531.42,0.01694
1525.64,0.01660
1519.85,0.01738
1514.07,0.01754
1508.28,0.01794
1502.49,0.01825
1496.71,0.01849
1490.92,0.01819
1485.13,0.01844
1479.35,0.01864
1473.56,0.01807
1467.78,0.01755
1461.99,0.01712
1456.2,0.01750
1450.42,0.01771
1444.63,0.01745
1438.84,0.01728
1433.06,0.01752
1427.27,0.01771
1421.49,0.01750
1415.7,0.01711
1409.91,0.01723
1404.13,0.01721
1398.34,0.01728
1392.55,0.01710
1386.77,0.01722
1380.98,0.01722
1375.2,0.01732
1369.41,0.01759
1363.62,0.01749
1357.84,0.01747
1352.05,0.01725
1346.26,0.01728
1340.48,0.01735
1334.69,0.01728
1328.91,0.01682
1323.12,0.01670
1317.33,0.01687
1311.55,0.01690
1305.76,0.01695
1299.97,0.01706
1294.19,0.01693
1288.4,0.01709
1282.62,0.01706
1276.83,0.01723
1271.04,0.01708
1265.26,0.01732
1259.47,0.01720
1253.68,0.01723
1247.9,0.01722
1242.11,0.01728
1236.33,0.01718
1230.54,0.01746
1224.75,0.01735
1218.97,0.01787
1213.18,0.01749
1207.39,0.01785
1201.61,0.01787
1195.82,0.01813
1190.04,0.01800
1184.25,0.01852
1178.46,0.01834
1172.68,0.01774
1166.89,0.01879
1161.1,0.01807
1155.32,0.01806
1149.53,0.01909
1143.75,0.01878
1137.96,0.01885
1132.17,0.01886
1126.39,0.01881
1120.6,0.01835
1114.81,0.01806
1109.03,0.01800
1103.24,0.01860
1097.46,0.01797
1091.67,0.01867
1085.88,0.01863
1080.1,0.01888
1074.31,0.01877
1068.52,0.01834
1062.74,0.01929
1056.95,0.01842
1051.17,0.01909
1045.38,0.01938
1039.59,0.01977
1033.81,0.02007
1028.02,0.02180
1022.24,0.02255
1016.45,0.02321
1010.66,0.02440
1004.88,0.02526
999.09,0.02511
993.304,0.02548
987.518,0.02608
981.731,0.02643
975.945,0.02721
970.159,0.02769
964.373,0.02753
958.586,0.02791
952.8,0.02767
947.014,0.02678
941.228,0.02666
935.441,0.02603
929.655,0.02567
923.869,0.02566
918.083,0.02611
912.297,0.02696
906.51,0.02546
900.724,0.02602
894.938,0.02532
889.152,0.02528
883.365,0.02484
877.579,0.02454
871.793,0.02458
866.007,0.02397
860.22,0.02441
854.434,0.02455
848.648,0.02363
842.862,0.02310
837.075,0.02209
831.289,0.02127
825.503,0.02077
819.717,0.02152
813.931,0.02090
808.144,0.02090
802.358,0.02184
796.572,0.02106
790.786,0.01967
784.999,0.01949
779.213,0.01975
773.427,0.01907
767.641,0.01824
761.854,0.01759
756.068,0.01886
750.282,0.01783
744.496,0.01754
738.709,0.01803
732.923,0.01780
727.137,0.01775
721.351,0.01707
715.565,0.01817
709.778,0.01780
703.992,0.01602
698.206,0.01641
692.42,0.01601
686.633,0.01753
680.847,0.01517
675.061,0.01457
669.275,0.01505
663.488,0.01643
657.702,0.01560
651.916,0.01537
646.13,0.01568
640.343,0.01392
634.557,0.01577
628.771,0.01514
622.985,0.01424
617.198,0.01199
611.412,0.01537
605.626,0.01749
599.84,0.01355