File: 01_Data/Wool_Rug/FTIR/IS/Wool_Rug_IS_S_220826_R6.dpt
7497.03,0.56866
7491.25,0.57308
7485.46,0.56252
7479.67,0.57599
7473.89,0.56554
7468.1,0.56338
7462.32,0.56951
7456.53,0.56572
7450.74,0.56505
7444.96,0.55703
7439.17,0.56305
7433.38,0.57015
7427.6,0.56373
7421.81,0.55945
7416.03,0.55744
7410.24,0.55260
7404.45,0.55378
7398.67,0.55588
7392.88,0.55547
7387.09,0.55123
7381.31,0.56061
7375.52,0.54816
7369.74,0.55270
7363.95,0.54366
7358.16,0.54514
7352.38,0.55177
7346.59,0.55001
7340.8,0.54852
7335.02,0.54095
7329.23,0.53912
7323.45,0.54472
7317.66,0.54462
7311.87,0.54383
7306.09,0.53658
7300.3,0.54330
7294.51,0.53751
7288.73,0.53520
7282.94,0.53438
7277.16,0.54442
7271.37,0.53940
7265.58,0.53405
7259.8,0.53467
7254.01,0.53713
7248.22,0.53188
7242.44,0.52847
7236.65,0.53170
7230.87,0.53065
7225.08,0.53462
7219.29,0.53054
7213.51,0.52306
7207.72,0.53020
7201.93,0.51956
7196.15,0.51859
7190.36,0.51429
7184.58,0.51436
7178.79,0.51239
7173,0.51223
7167.22,0.51063
7161.43,0.51071
7155.65,0.50550
7149.86,0.50764
7144.07,0.50560
7138.29,0.50570
7132.5,0.50751
7126.71,0.50446
7120.93,0.50072
7115.14,0.49568
7109.36,0.49057
7103.57,0.49034
7097.78,0.49579
7092,0.48665
7086.21,0.48686
7080.42,0.48610
7074.64,0.48526
7068.85,0.48096
7063.07,0.48246
7057.28,0.48299
7051.49,0.48141
7045.71,0.47249
7039.92,0.46982
7034.13,0.47316
7028.35,0.46644
7022.56,0.46945
7016.78,0.47065
7010.99,0.46468
7005.2,0.46468
6999.42,0.46140
6993.63,0.45942
6987.84,0.46453
6982.06,0.46304
6976.27,0.46239
6970.49,0.46231
6964.7,0.45645
6958.91,0.45350
6953.13,0.45924
6947.34,0.46287
6941.55,0.46026
6935.77,0.45535
6929.98,0.45732
6924.2,0.44794
6918.41,0.45054
6912.62,0.45075
6906.84,0.44786
6901.05,0.44630
6895.26,0.43957
6889.48,0.44560
6883.69,0.44292
6877.91,0.44200
6872.12,0.43964
6866.33,0.43639
6860.55,0.43305
6854.76,0.43212
6848.97,0.43480
6843.19,0.43261
6837.4,0.43071
6831.62,0.42752
6825.83,0.42911
6820.04,0.42914
6814.26,0.42275
6808.47,0.42851
6802.68,0.42690
6796.9,0.42415
6791.11,0.42321
6785.33,0.41663
6779.54,0.41498
6773.75,0.41563
6767.97,0.41024
6762.18,0.40624
6756.39,0.40400
6750.61,0.39848
6744.82,0.39744
6739.04,0.39251
6733.25,0.38741
6727.46,0.38723
6721.68,0.38079
6715.89,0.37850
6710.1,0.37289
6704.32,0.37129
6698.53,0.36789
6692.75,0.36668
6686.96,0.36714
6681.17,0.36222
6675.39,0.36573
6669.6,0.36604
6663.82,0.36371
6658.03,0.36121
6652.24,0.36411
6646.46,0.36450
6640.67,0.36278
6634.88,0.36154
6629.1,0.36884
6623.31,0.36643
6617.53,0.36396
6611.74,0.35992
6605.95,0.36701
6600.17,0.36671
6594.38,0.36921
6588.59,0.37207
6582.81,0.37589
6577.02,0.37674
6571.24,0.37821
6565.45,0.37349
6559.66,0.37634
6553.88,0.37962
6548.09,0.37763
6542.3,0.38026
6536.52,0.38077
6530.73,0.38196
6524.95,0.38730
6519.16,0.38902
6513.37,0.38801
6507.59,0.38835
6501.8,0.38980
6496.01,0.39448
6490.23,0.39767
6484.44,0.40019
6478.66,0.39962
6472.87,0.39933
6467.08,0.40597
6461.3,0.40307
6455.51,0.40498
6449.72,0.41116
6443.94,0.41166
6438.15,0.41217
6432.37,0.41638
6426.58,0.41804
6420.79,0.41796
6415.01,0.42141
6409.22,0.42086
6403.43,0.41847
6397.65,0.42073
6391.86,0.41949
6386.08,0.42005
6380.29,0.42527
6374.5,0.42356
6368.72,0.42073
6362.93,0.41850
6357.14,0.42231
6351.36,0.42311
6345.57,0.42597
6339.79,0.42658
6334,0.42503
6328.21,0.42413
6322.43,0.43024
6316.64,0.42624
6310.85,0.42574
6305.07,0.43116
6299.28,0.43145
6293.5,0.43190
6287.71,0.43343
6281.92,0.43368
6276.14,0.43699
6270.35,0.43702
6264.56,0.43800
6258.78,0.44135
6252.99,0.44143
6247.21,0.44143
6241.42,0.44606
6235.63,0.44708
6229.85,0.44871
6224.06,0.44869
6218.27,0.44673
6212.49,0.45123
6206.7,0.45281
6200.92,0.45498
6195.13,0.45525
6189.34,0.45423
6183.56,0.45637
6177.77,0.45687
6171.98,0.46112
6166.2,0.45870
6160.41,0.45980
6154.63,0.46240
6148.84,0.46346
6143.05,0.46784
6137.27,0.46763
6131.48,0.46923
6125.7,0.46770
6119.91,0.46702
6114.12,0.46744
6108.34,0.46969
6102.55,0.46710
6096.76,0.46884
6090.98,0.46902
6085.19,0.47012
6079.41,0.46853
6073.62,0.46890
6067.83,0.47032
6062.05,0.46983
6056.26,0.46901
6050.47,0.46715
6044.69,0.46966
6038.9,0.46894
6033.12,0.46715
6027.33,0.46529
6021.54,0.46239
6015.76,0.46150
6009.97,0.45717
6004.18,0.45714
5998.4,0.45064
5992.61,0.44861
5986.83,0.44447
5981.04,0.43959
5975.25,0.43453
5969.47,0.42766
5963.68,0.42283
5957.89,0.41643
5952.11,0.41120
5946.32,0.40529
5940.54,0.40007
5934.75,0.39134
5928.96,0.38621
5923.18,0.38099
5917.39,0.37744
5911.6,0.37526
5905.82,0.37528
5900.03,0.37222
5894.25,0.36962
5888.46,0.36924
5882.67,0.36983
5876.89,0.37041
5871.1,0.37247
5865.31,0.37320
5859.53,0.37459
5853.74,0.37517
5847.96,0.37485
5842.17,0.37477
5836.38,0.37309
5830.6,0.37127
5824.81,0.36848
5819.02,0.36616
5813.24,0.36252
5807.45,0.35897
5801.67,0.35801
5795.88,0.35485
5790.09,0.35069
5784.31,0.34830
5778.52,0.34633
5772.73,0.34396
5766.95,0.34189
5761.16,0.34264
5755.38,0.34079
5749.59,0.34115
5743.8,0.34115
5738.02,0.34387
5732.23,0.34585
5726.44,0.34833
5720.66,0.35257
5714.87,0.35562
5709.09,0.35766
5703.3,0.36439
5697.51,0.36771
5691.73,0.37429
5685.94,0.37880
5680.15,0.38015
5674.37,0.38442
5668.58,0.38692
5662.8,0.39023
5657.01,0.39460
5651.22,0.39589
5645.44,0.40071
5639.65,0.40352
5633.87,0.40605
5628.08,0.40811
5622.29,0.40888
5616.51,0.41155
5610.72,0.41155
5604.93,0.41285
5599.15,0.41110
5593.36,0.41150
5587.58,0.41254
5581.79,0.41159
5576,0.41410
5570.22,0.41275
5564.43,0.41173
5558.64,0.41247
5552.86,0.41305
5547.07,0.41404
5541.29,0.41441
5535.5,0.41470
5529.71,0.41501
5523.93,0.41599
5518.14,0.41585
5512.35,0.41480
5506.57,0.41623
5500.78,0.41672
5495,0.41542
5489.21,0.41650
5483.42,0.41724
5477.64,0.42024
5471.85,0.42102
5466.06,0.42210
5460.28,0.42382
5454.49,0.42490
5448.71,0.42667
5442.92,0.42845
5437.13,0.42802
5431.35,0.42787
5425.56,0.43027
5419.77,0.43119
5413.99,0.43244
5408.2,0.43171
5402.42,0.43192
5396.63,0.43338
5390.84,0.43320
5385.06,0.43434
5379.27,0.43212
5373.48,0.43205
5367.7,0.43166
5361.91,0.43098
5356.13,0.42920
5350.34,0.42919
5344.55,0.42454
5338.77,0.42364
5332.98,0.42124
5327.19,0.41620
5321.41,0.41380
5315.62,0.40712
5309.84,0.40093
5304.05,0.39191
5298.26,0.38240
5292.48,0.37223
5286.69,0.36108
5280.9,0.35100
5275.12,0.33943
5269.33,0.32806
5263.55,0.31874
5257.76,0.30928
5251.97,0.29898
5246.19,0.29138
5240.4,0.28373
5234.61,0.27721
5228.83,0.27087
5223.04,0.26495
5217.26,0.26049
5211.47,0.25628
5205.68,0.25161
5199.9,0.24694
5194.11,0.24405
5188.32,0.24001
5182.54,0.23744
5176.75,0.23497
5170.97,0.23196
5165.18,0.23078
5159.39,0.23027
5153.61,0.23027
5147.82,0.22988
5142.03,0.22954
5136.25,0.23041
5130.46,0.23150
5124.68,0.23099
5118.89,0.23001
5113.1,0.23138
5107.32,0.23033
5101.53,0.22883
5095.75,0.22852
5089.96,0.22631
5084.17,0.22435
5078.39,0.22239
5072.6,0.21886
5066.81,0.21741
5061.03,0.21793
5055.24,0.21707
5049.46,0.21795
5043.67,0.21867
5037.88,0.21889
5032.1,0.21993
5026.31,0.22075
5020.52,0.22196
5014.74,0.22131
5008.95,0.22224
5003.17,0.22365
4997.38,0.22510
4991.59,0.22475
4985.81,0.22452
4980.02,0.22375
4974.23,0.22363
4968.45,0.22244
4962.66,0.22168
4956.88,0.21855
4951.09,0.21696
4945.3,0.21405
4939.52,0.21180
4933.73,0.20812
4927.94,0.20521
4922.16,0.20081
4916.37,0.19732
4910.59,0.19388
4904.8,0.19005
4899.01,0.18612
4893.23,0.18213
4887.44,0.17833
4881.65,0.17595
4875.87,0.17253
4870.08,0.17201
4864.3,0.17076
4858.51,0.17043
4852.72,0.17343
4846.94,0.17585
4841.15,0.17833
4835.36,0.18309
4829.58,0.18740
4823.79,0.19108
4818.01,0.19647
4812.22,0.20065
4806.43,0.20389
4800.65,0.20781
4794.86,0.21032
4789.07,0.21332
4783.29,0.21454
4777.5,0.21572
4771.72,0.21658
4765.93,0.21762
4760.14,0.21766
4754.36,0.21743
4748.57,0.21678
4742.78,0.21719
4737,0.21548
4731.21,0.21429
4725.43,0.21289
4719.64,0.21089
4713.85,0.20773
4708.07,0.20581
4702.28,0.20373
4696.49,0.19990
4690.71,0.19577
4684.92,0.19232
4679.14,0.18845
4673.35,0.18236
4667.56,0.17826
4661.78,0.17407
4655.99,0.17102
4650.2,0.16649
4644.42,0.16096
4638.63,0.15748
4632.85,0.15454
4627.06,0.15060
4621.27,0.14808
4615.49,0.14525
4609.7,0.14422
4603.92,0.14372
4598.13,0.14328
4592.34,0.14283
4586.56,0.14362
4580.77,0.14367
4574.98,0.14448
4569.2,0.14676
4563.41,0.14749
4557.63,0.14845
4551.84,0.15080
4546.05,0.15314
4540.27,0.15422
4534.48,0.15663
4528.69,0.15800
4522.91,0.16057
4517.12,0.16269
4511.34,0.16465
4505.55,0.16643
4499.76,0.16893
4493.98,0.17002
4488.19,0.17130
4482.4,0.17307
4476.62,0.17239
4470.83,0.17292
4465.05,0.17300
4459.26,0.17050
4453.47,0.16826
4447.69,0.16575
4441.9,0.16130
4436.11,0.15734
4430.33,0.15249
4424.54,0.14783
4418.76,0.14423
4412.97,0.14140
4407.18,0.14001
4401.4,0.13783
4395.61,0.13553
4389.82,0.13408
4384.04,0.13266
4378.25,0.13076
4372.47,0.13059
4366.68,0.12954
4360.89,0.13027
4355.11,0.12988
4349.32,0.12969
4343.53,0.13151
4337.75,0.13367
4331.96,0.13404
4326.18,0.13502
4320.39,0.13582
4314.6,0.13778
4308.82,0.13930
4303.03,0.13989
4297.24,0.14058
4291.46,0.14005
4285.67,0.13964
4279.89,0.13893
4274.1,0.13761
4268.31,0.13732
4262.53,0.13692
4256.74,0.13670
4250.95,0.13790
4245.17,0.13893
4239.38,0.13972
4233.6,0.14082
4227.81,0.14209
4222.02,0.14360
4216.24,0.14430
4210.45,0.14622
4204.66,0.14724
4198.88,0.14803
4193.09,0.14895
4187.31,0.14919
4181.52,0.14884
4175.73,0.14946
4169.95,0.15023
4164.16,0.15078
4158.37,0.15094
4152.59,0.15060
4146.8,0.15006
4141.02,0.14915
4135.23,0.14896
4129.44,0.14824
4123.66,0.14810
4117.87,0.14698
4112.09,0.14650
4106.3,0.14365
4100.51,0.14129
4094.73,0.14002
4088.94,0.13652
4083.15,0.13407
4077.37,0.13171
4071.58,0.12979
4065.8,0.12756
4060.01,0.12628
4054.22,0.12545
4048.44,0.12478
4042.65,0.12456
4036.86,0.12573
4031.08,0.12648
4025.29,0.12734
4019.51,0.12821
4013.72,0.12737
4007.93,0.12742
4002.15,0.12666
3996.36,0.12724
3990.57,0.12646
3984.79,0.12570
3979,0.12575
3973.22,0.12500
3967.43,0.12449
3961.64,0.12355
3955.86,0.12270
3950.07,0.12215
3944.28,0.12135
3938.5,0.12093
3932.71,0.12086
3926.93,0.12164
3921.14,0.12208
3915.35,0.12398
3909.57,0.12659
3903.78,0.12858
3897.99,0.13218
3892.21,0.13463
3886.42,0.13662
3880.64,0.13965
3874.85,0.14059
3869.06,0.14304
3863.28,0.14545
3857.49,0.14692
3851.7,0.14805
3845.92,0.14990
3840.13,0.15132
3834.35,0.15221
3828.56,0.15256
3822.77,0.15390
3816.99,0.15473
3811.2,0.15544
3805.41,0.15502
3799.63,0.15607
3793.84,0.15564
3788.06,0.15570
3782.27,0.15551
3776.48,0.15472
3770.7,0.15386
3764.91,0.15265
3759.12,0.15052
3753.34,0.14865
3747.55,0.14617
3741.77,0.14378
3735.98,0.14109
3730.19,0.13832
3724.41,0.13500
3718.62,0.13095
3712.83,0.12626
3707.05,0.12030
3701.26,0.11270
3695.48,0.10498
3689.69,0.09720
3683.9,0.08694
3678.12,0.07670
3672.33,0.06813
3666.54,0.06154
3660.76,0.05474
3654.97,0.04982
3649.19,0.04579
3643.4,0.04248
3637.61,0.03906
3631.83,0.03651
3626.04,0.03393
3620.25,0.03229
3614.47,0.03070
3608.68,0.02890
3602.9,0.02832
3597.11,0.02677
3591.32,0.02629
3585.54,0.02520
3579.75,0.02418
3573.97,0.02361
3568.18,0.02326
3562.39,0.02265
3556.61,0.02150
3550.82,0.02215
3545.03,0.02150
3539.25,0.02080
3533.46,0.02044
3527.68,0.02001
3521.89,0.02086
3516.1,0.02031
3510.32,0.01955
3504.53,0.01918
3498.74,0.01857
3492.96,0.01925
3487.17,0.01841
3481.39,0.01880
3475.6,0.01860
3469.81,0.01854
3464.03,0.01845
3458.24,0.01798
3452.45,0.01787
3446.67,0.01839
3440.88,0.01807
3435.1,0.01792
3429.31,0.01788
3423.52,0.01749
3417.74,0.01808
3411.95,0.01816
3406.16,0.01670
3400.38,0.01743
3394.59,0.01722
3388.81,0.01748
3383.02,0.01763
3377.23,0.01730
3371.45,0.01728
3365.66,0.01672
3359.87,0.01710
3354.09,0.01735
3348.3,0.01713
3342.52,0.01700
3336.73,0.01752
3330.94,0.01739
3325.16,0.01736
3319.37,0.01683
3313.58,0.01806
3307.8,0.01681
3302.01,0.01722
3296.23,0.01722
3290.44,0.01704
3284.65,0.01773
3278.87,0.01737
3273.08,0.01745
3267.29,0.01738
3261.51,0.01753
3255.72,0.01844
3249.94,0.01767
3244.15,0.01808
3238.36,0.01812
3232.58,0.01781
3226.79,0.01817
3221,0.01875
3215.22,0.01799
3209.43,0.01849
3203.65,0.01780
3197.86,0.01752
3192.07,0.01743
3186.29,0.01870
3180.5,0.01810
3174.71,0.01781
3168.93,0.01840
3163.14,0.01871
3157.36,0.01885
3151.57,0.01889
3145.78,0.01941
3140,0.01927
3134.21,0.01919
3128.42,0.01948
3122.64,0.01892
3116.85,0.01972
3111.07,0.01935
3105.28,0.01919
3099.49,0.01859
3093.71,0.01898
3087.92,0.01898
3082.14,0.01861
3076.35,0.01818
3070.56,0.01847
3064.78,0.01860
3058.99,0.01825
3053.2,0.01812
3047.42,0.01876
3041.63,0.01895
3035.85,0.01908
3030.06,0.01889
3024.27,0.01929
3018.49,0.01880
3012.7,0.01965
3006.91,0.01872
3001.13,0.01894
2995.34,0.01930
2989.56,0.01900
2983.77,0.01850
2977.98,0.01826
2972.2,0.01796
2966.41,0.01745
2960.62,0.01736
2954.84,0.01773
2949.05,0.01785
2943.27,0.01784
2937.48,0.01805
2931.69,0.01783
2925.91,0.01786
2920.12,0.01743
2914.33,0.01810
2908.55,0.01852
2902.76,0.01883
2896.98,0.01965
2891.19,0.01950
2885.4,0.01897
2879.62,0.01937
2873.83,0.01902
2868.04,0.01894
2862.26,0.01934
2856.47,0.01963
2850.69,0.01956
2844.9,0.02114
2839.11,0.02144
2833.33,0.02179
2827.54,0.02231
2821.75,0.02225
2815.97,0.02227
2810.18,0.02284
2804.4,0.02302
2798.61,0.02318
2792.82,0.02344
2787.04,0.02390
2781.25,0.02469
2775.46,0.02442
2769.68,0.02496
2763.89,0.02458
2758.11,0.02507
2752.32,0.02574
2746.53,0.02566
2740.75,0.02582
2734.96,0.02652
2729.17,0.02684
2723.39,0.02702
2717.6,0.02754
2711.82,0.02834
2706.03,0.02831
2700.24,0.02887
2694.46,0.02893
2688.67,0.02950
2682.88,0.03034
2677.1,0.03048
2671.31,0.03038
2665.53,0.03098
2659.74,0.03109
2653.95,0.03113
2648.17,0.03169
2642.38,0.03203
2636.59,0.03247
2630.81,0.03255
2625.02,0.03273
2619.24,0.03339
2613.45,0.03339
2607.66,0.03403
2601.88,0.03377
2596.09,0.03514
2590.3,0.03555
2584.52,0.03575
2578.73,0.03608
2572.95,0.03648
2567.16,0.03672
2561.37,0.03711
2555.59,0.03739
2549.8,0.03759
2544.02,0.03859
2538.23,0.03918
2532.44,0.03932
2526.66,0.04011
2520.87,0.04006
2515.08,0.04050
2509.3,0.04015
2503.51,0.04127
2497.73,0.04177
2491.94,0.04188
2486.15,0.04219
2480.37,0.04320
2474.58,0.04361
2468.79,0.04440
2463.01,0.04523
2457.22,0.04600
2451.44,0.04616
2445.65,0.04669
2439.86,0.04773
2434.08,0.04813
2428.29,0.04924
2422.5,0.04968
2416.72,0.05009
2410.93,0.05061
2405.15,0.05103
2399.36,0.05230
2393.57,0.05304
2387.79,0.05308
2382,0.05377
2376.21,0.05397
2370.43,0.05463
2364.64,0.05505
2358.86,0.05585
2353.07,0.05606
2347.28,0.05612
2341.5,0.05665
2335.71,0.05726
2329.92,0.05716
2324.14,0.05724
2318.35,0.05768
2312.57,0.05783
2306.78,0.05806
2300.99,0.05847
2295.21,0.05832
2289.42,0.05848
2283.63,0.05931
2277.85,0.05925
2272.06,0.05947
2266.28,0.05990
2260.49,0.05932
2254.7,0.05982
2248.92,0.05971
2243.13,0.05975
2237.34,0.05998
2231.56,0.05992
2225.77,0.05956
2219.99,0.05972
2214.2,0.05970
2208.41,0.05964
2202.63,0.06016
2196.84,0.06030
2191.05,0.06041
2185.27,0.06032
2179.48,0.06055
2173.7,0.06065
2167.91,0.06065
2162.12,0.06030
2156.34,0.06045
2150.55,0.06051
2144.76,0.06056
2138.98,0.06044
2133.19,0.06038
2127.41,0.06005
2121.62,0.06019
2115.83,0.06001
2110.05,0.05980
2104.26,0.06009
2098.47,0.06018
2092.69,0.06046
2086.9,0.06053
2081.12,0.06080
2075.33,0.06102
2069.54,0.06113
2063.76,0.06166
2057.97,0.06222
2052.19,0.06224
2046.4,0.06281
2040.61,0.06281
2034.83,0.06295
2029.04,0.06315
2023.25,0.06327
2017.47,0.06392
2011.68,0.06432
2005.9,0.06414
2000.11,0.06409
1994.32,0.06426
1988.54,0.06429
1982.75,0.06424
1976.96,0.06431
1971.18,0.06429
1965.39,0.06400
1959.61,0.06398
1953.82,0.06380
1948.03,0.06402
1942.25,0.06353
1936.46,0.06364
1930.67,0.06393
1924.89,0.06347
1919.1,0.06323
1913.32,0.06244
1907.53,0.06212
1901.74,0.06150
1895.96,0.06071
1890.17,0.05967
1884.38,0.05907
1878.6,0.05857
1872.81,0.05803
1867.03,0.05740
1861.24,0.05685
1855.45,0.05573
1849.67,0.05472
1843.88,0.05358
1838.09,0.05224
1832.31,0.05097
1826.52,0.04920
1820.74,0.04778
1814.95,0.04594
1809.16,0.04431
1803.38,0.04313
1797.59,0.04101
1791.8,0.03906
1786.02,0.03732
1780.23,0.03523
1774.45,0.03345
1768.66,0.03150
1762.87,0.02948
1757.09,0.02763
1751.3,0.02492
1745.51,0.02250
1739.73,0.02091
1733.94,0.01948
1728.16,0.01809
1722.37,0.01673
1716.58,0.01560
1710.8,0.01465
1705.01,0.01379
1699.22,0.01322
1693.44,0.01316
1687.65,0.01313
1681.87,0.01360
1676.08,0.01388
1670.29,0.01432
1664.51,0.01461
1658.72,0.01514
1652.93,0.01642
1647.15,0.01731
1641.36,0.01755
1635.58,0.01746
1629.79,0.01752
1624,0.01779
1618.22,0.01763
1612.43,0.01720
1606.64,0.01757
1600.86,0.01741
1595.07,0.01698
1589.29,0.01661
1583.5,0.01674
1577.71,0.01650
1571.93,0.01586
1566.14,0.01539
1560.35,0.01533
1554.57,0.01528
1548.78,0.01550
1543,0.01641
1537.21,0.01660
1531.42,0.01718
1525.64,0.01723
1519.85,0.01755
1514.07,0.01797
1508.28,0.01800
1502.49,0.01792
1496.71,0.01832
1490.92,0.01822
1485.13,0.01838
1479.35,0.01800
1473.56,0.01759
1467.78,0.01731
1461.99,0.01745
1456.2,0.01717
1450.42,0.01741
1444.63,0.01734
1438.84,0.01743
1433.06,0.01746
1427.27,0.01749
1421.49,0.01724
1415.7,0.01721
1409.91,0.01739
1404.13,0.01745
1398.34,0.01721
1392.55,0.01722
1386.77,0.01702
1380.98,0.01742
1375.2,0.01718
1369.41,0.01725
1363.62,0.01752
1357.84,0.01753
1352.05,0.01748
1346.26,0.01719
1340.48,0.01731
1334.69,0.01695
1328.91,0.01722
1323.12,0.01688
1317.33,0.01681
1311.55,0.01693
1305.76,0.01724
1299.97,0.01701
1294.19,0.01737
1288.4,0.01747
1282.62,0.01708
1276.83,0.01689
1271.04,0.01700
1265.26,0.01700
1259.47,0.01762
1253.68,0.01749
1247.9,0.01708
1242.11,0.01729
1236.33,0.01726
1230.54,0.01770
1224.75,0.01805
1218.97,0.01807
1213.18,0.01795
1207.39,0.01767
1201.61,0.01799
1195.82,0.01822
1190.04,0.01801
1184.25,0.01799
1178.46,0.01761
1172.68,0.01802
1166.89,0.01852
1161.1,0.01833
1155.32,0.01860
1149.53,0.01837
1143.75,0.01892
1137.96,0.01915
1132.17,0.01880
1126.39,0.01839
1120.6,0.01909
1114.81,0.01868
1109.03,0.01875
1103.24,0.01890
1097.46,0.01941
1091.67,0.01860
1085.88,0.01820
1080.1,0.01862
1074.31,0.01877
1068.52,0.01930
1062.74,0.01909
1056.95,0.01944
1051.17,0.01877
1045.38,0.01929
1039.59,0.01942
1033.81,0.02025
1028.02,0.02132
1022.24,0.02217
1016.45,0.02338
1010.66,0.02460
1004.88,0.02547
999.09,0.02537
993.304,0.02496
987.518,0.02574
981.731,0.02609
975.945,0.02697
970.159,0.02695
964.373,0.02698
958.586,0.02771
952.8,0.02833
947.014,0.02728
941.228,0.02631
935.441,0.02583
929.655,0.02633
923.869,0.02598
918.083,0.02607
912.297,0.02637
906.51,0.02676
900.724,0.02581
894.938,0.02505
889.152,0.02529
883.365,0.02504
877.579,0.02496
871.793,0.02517
866.007,0.02413
860.22,0.02527
854.434,0.02457
848.648,0.02420
842.862,0.02325
837.075,0.02217
831.289,0.02238
825.503,0.02268
819.717,0.02155
813.931,0.02187
808.144,0.02100
802.358,0.02106
796.572,0.02101
790.786,0.02060
784.999,0.02043
779.213,0.01999
773.427,0.01924
767.641,0.01978
761.854,0.01812
756.068,0.01798
750.282,0.01760
744.496,0.01799
738.709,0.01737
732.923,0.01745
727.137,0.01709
721.351,0.01725
715.565,0.01727
709.778,0.01706
703.992,0.01646
698.206,0.01679
692.42,0.01546
686.633,0.01579
680.847,0.01545
675.061,0.01586
669.275,0.01591
663.488,0.01544
657.702,0.01665
651.916,0.01540
646.13,0.01717
640.343,0.01572
634.557,0.01341
628.771,0.01304
622.985,0.01561
617.198,0.01390
611.412,0.01518
605.626,0.01463
599.84,0.01853