File: 01_Data/Wool_Rug/FTIR/IS/Wool_Rug_IS_S_220826_R4.dpt
7497.03,0.55555
7491.25,0.56011
7485.46,0.55789
7479.67,0.56311
7473.89,0.56355
7468.1,0.55490
7462.32,0.56049
7456.53,0.56564
7450.74,0.55400
7444.96,0.55955
7439.17,0.55900
7433.38,0.56357
7427.6,0.55905
7421.81,0.55736
7416.03,0.55439
7410.24,0.54987
7404.45,0.55880
7398.67,0.55738
7392.88,0.55364
7387.09,0.55603
7381.31,0.54661
7375.52,0.54970
7369.74,0.54498
7363.95,0.54517
7358.16,0.54516
7352.38,0.53856
7346.59,0.55286
7340.8,0.54452
7335.02,0.54486
7329.23,0.54460
7323.45,0.54637
7317.66,0.54358
7311.87,0.54135
7306.09,0.54033
7300.3,0.53864
7294.51,0.53974
7288.73,0.53144
7282.94,0.53202
7277.16,0.53475
7271.37,0.53236
7265.58,0.52985
7259.8,0.53351
7254.01,0.53364
7248.22,0.53304
7242.44,0.52241
7236.65,0.52857
7230.87,0.52323
7225.08,0.52408
7219.29,0.53431
7213.51,0.52599
7207.72,0.52059
7201.93,0.52336
7196.15,0.51984
7190.36,0.51519
7184.58,0.51381
7178.79,0.51246
7173,0.51491
7167.22,0.51052
7161.43,0.50382
7155.65,0.50680
7149.86,0.50390
7144.07,0.50479
7138.29,0.49693
7132.5,0.49598
7126.71,0.49951
7120.93,0.48708
7115.14,0.48554
7109.36,0.48338
7103.57,0.47981
7097.78,0.48233
7092,0.47800
7086.21,0.47703
7080.42,0.47175
7074.64,0.46733
7068.85,0.47013
7063.07,0.46755
7057.28,0.46243
7051.49,0.46488
7045.71,0.46490
7039.92,0.46810
7034.13,0.45782
7028.35,0.45770
7022.56,0.45817
7016.78,0.45114
7010.99,0.45248
7005.2,0.45357
6999.42,0.44659
6993.63,0.45201
6987.84,0.44781
6982.06,0.44062
6976.27,0.44578
6970.49,0.44600
6964.7,0.45001
6958.91,0.44453
6953.13,0.45219
6947.34,0.44156
6941.55,0.44301
6935.77,0.44200
6929.98,0.43703
6924.2,0.44060
6918.41,0.43487
6912.62,0.43344
6906.84,0.43639
6901.05,0.42838
6895.26,0.43174
6889.48,0.43339
6883.69,0.42539
6877.91,0.42765
6872.12,0.42846
6866.33,0.42790
6860.55,0.42916
6854.76,0.42402
6848.97,0.42107
6843.19,0.42186
6837.4,0.41535
6831.62,0.42075
6825.83,0.42037
6820.04,0.41216
6814.26,0.41432
6808.47,0.41547
6802.68,0.41622
6796.9,0.41421
6791.11,0.41506
6785.33,0.41260
6779.54,0.40745
6773.75,0.40678
6767.97,0.40568
6762.18,0.40066
6756.39,0.39841
6750.61,0.39756
6744.82,0.39407
6739.04,0.38634
6733.25,0.38346
6727.46,0.38038
6721.68,0.37421
6715.89,0.37694
6710.1,0.37372
6704.32,0.37297
6698.53,0.36510
6692.75,0.36892
6686.96,0.36566
6681.17,0.35805
6675.39,0.35908
6669.6,0.36504
6663.82,0.36112
6658.03,0.35828
6652.24,0.36134
6646.46,0.36085
6640.67,0.36521
6634.88,0.36183
6629.1,0.36115
6623.31,0.36363
6617.53,0.35865
6611.74,0.36563
6605.95,0.36553
6600.17,0.36686
6594.38,0.36723
6588.59,0.36597
6582.81,0.36772
6577.02,0.36877
6571.24,0.36806
6565.45,0.37547
6559.66,0.37517
6553.88,0.37488
6548.09,0.37329
6542.3,0.37698
6536.52,0.38325
6530.73,0.37879
6524.95,0.38041
6519.16,0.38279
6513.37,0.38521
6507.59,0.38951
6501.8,0.39038
6496.01,0.39180
6490.23,0.39299
6484.44,0.39605
6478.66,0.39985
6472.87,0.39830
6467.08,0.40298
6461.3,0.40027
6455.51,0.40206
6449.72,0.41100
6443.94,0.41099
6438.15,0.41111
6432.37,0.41261
6426.58,0.40978
6420.79,0.41269
6415.01,0.41624
6409.22,0.41590
6403.43,0.42126
6397.65,0.41915
6391.86,0.42146
6386.08,0.42057
6380.29,0.41922
6374.5,0.41994
6368.72,0.42297
6362.93,0.41758
6357.14,0.41845
6351.36,0.41956
6345.57,0.42050
6339.79,0.42217
6334,0.42388
6328.21,0.42087
6322.43,0.42205
6316.64,0.42436
6310.85,0.42786
6305.07,0.42547
6299.28,0.42872
6293.5,0.42812
6287.71,0.42938
6281.92,0.43329
6276.14,0.43502
6270.35,0.43663
6264.56,0.43630
6258.78,0.43840
6252.99,0.44236
6247.21,0.44246
6241.42,0.44038
6235.63,0.44312
6229.85,0.44543
6224.06,0.44623
6218.27,0.45021
6212.49,0.45173
6206.7,0.44882
6200.92,0.45520
6195.13,0.45585
6189.34,0.45128
6183.56,0.45601
6177.77,0.45825
6171.98,0.45601
6166.2,0.45589
6160.41,0.45642
6154.63,0.45846
6148.84,0.45891
6143.05,0.46023
6137.27,0.46119
6131.48,0.46141
6125.7,0.46491
6119.91,0.46516
6114.12,0.46684
6108.34,0.46848
6102.55,0.46590
6096.76,0.46747
6090.98,0.46611
6085.19,0.46975
6079.41,0.46765
6073.62,0.46907
6067.83,0.46948
6062.05,0.46923
6056.26,0.46918
6050.47,0.46619
6044.69,0.46884
6038.9,0.46583
6033.12,0.46244
6027.33,0.46517
6021.54,0.46126
6015.76,0.45896
6009.97,0.45518
6004.18,0.45365
5998.4,0.45119
5992.61,0.44845
5986.83,0.44351
5981.04,0.44038
5975.25,0.43239
5969.47,0.42849
5963.68,0.42299
5957.89,0.41759
5952.11,0.40976
5946.32,0.40386
5940.54,0.39662
5934.75,0.39308
5928.96,0.38738
5923.18,0.38321
5917.39,0.37884
5911.6,0.37539
5905.82,0.37277
5900.03,0.37286
5894.25,0.37113
5888.46,0.37068
5882.67,0.37081
5876.89,0.37156
5871.1,0.37323
5865.31,0.37387
5859.53,0.37479
5853.74,0.37324
5847.96,0.37586
5842.17,0.37736
5836.38,0.37423
5830.6,0.37132
5824.81,0.36866
5819.02,0.36580
5813.24,0.36455
5807.45,0.36011
5801.67,0.35621
5795.88,0.35494
5790.09,0.35215
5784.31,0.35058
5778.52,0.34836
5772.73,0.34744
5766.95,0.34309
5761.16,0.34225
5755.38,0.34221
5749.59,0.34305
5743.8,0.34229
5738.02,0.34521
5732.23,0.34861
5726.44,0.34941
5720.66,0.35429
5714.87,0.35560
5709.09,0.36080
5703.3,0.36703
5697.51,0.36756
5691.73,0.37396
5685.94,0.37644
5680.15,0.38003
5674.37,0.38335
5668.58,0.38520
5662.8,0.39302
5657.01,0.39169
5651.22,0.39745
5645.44,0.40015
5639.65,0.40217
5633.87,0.40548
5628.08,0.40673
5622.29,0.40873
5616.51,0.41051
5610.72,0.40889
5604.93,0.41098
5599.15,0.41133
5593.36,0.41094
5587.58,0.41031
5581.79,0.41067
5576,0.41281
5570.22,0.40989
5564.43,0.40984
5558.64,0.40950
5552.86,0.41113
5547.07,0.41076
5541.29,0.40998
5535.5,0.41398
5529.71,0.41213
5523.93,0.41296
5518.14,0.41257
5512.35,0.41639
5506.57,0.41454
5500.78,0.41305
5495,0.41503
5489.21,0.41656
5483.42,0.41663
5477.64,0.41883
5471.85,0.41938
5466.06,0.41866
5460.28,0.41993
5454.49,0.42165
5448.71,0.42436
5442.92,0.42509
5437.13,0.42746
5431.35,0.42692
5425.56,0.42701
5419.77,0.42868
5413.99,0.43103
5408.2,0.43091
5402.42,0.43032
5396.63,0.43113
5390.84,0.43163
5385.06,0.43063
5379.27,0.43055
5373.48,0.42836
5367.7,0.42895
5361.91,0.42803
5356.13,0.42464
5350.34,0.42406
5344.55,0.42157
5338.77,0.41878
5332.98,0.41488
5327.19,0.41116
5321.41,0.40367
5315.62,0.39848
5309.84,0.38900
5304.05,0.38050
5298.26,0.37011
5292.48,0.35895
5286.69,0.34778
5280.9,0.33673
5275.12,0.32389
5269.33,0.31153
5263.55,0.30276
5257.76,0.29218
5251.97,0.28326
5246.19,0.27463
5240.4,0.26718
5234.61,0.25893
5228.83,0.25236
5223.04,0.24641
5217.26,0.24101
5211.47,0.23737
5205.68,0.23313
5199.9,0.22897
5194.11,0.22688
5188.32,0.22191
5182.54,0.21930
5176.75,0.21792
5170.97,0.21723
5165.18,0.21617
5159.39,0.21467
5153.61,0.21371
5147.82,0.21328
5142.03,0.21402
5136.25,0.21433
5130.46,0.21459
5124.68,0.21556
5118.89,0.21583
5113.1,0.21687
5107.32,0.21766
5101.53,0.21694
5095.75,0.21481
5089.96,0.21399
5084.17,0.21341
5078.39,0.21158
5072.6,0.20971
5066.81,0.20982
5061.03,0.21032
5055.24,0.20997
5049.46,0.20890
5043.67,0.21047
5037.88,0.21186
5032.1,0.21244
5026.31,0.21377
5020.52,0.21488
5014.74,0.21555
5008.95,0.21694
5003.17,0.21745
4997.38,0.21898
4991.59,0.22016
4985.81,0.21955
4980.02,0.22085
4974.23,0.21962
4968.45,0.21907
4962.66,0.21811
4956.88,0.21758
4951.09,0.21454
4945.3,0.21254
4939.52,0.20980
4933.73,0.20802
4927.94,0.20443
4922.16,0.20099
4916.37,0.19874
4910.59,0.19338
4904.8,0.19085
4899.01,0.18542
4893.23,0.18289
4887.44,0.17846
4881.65,0.17602
4875.87,0.17283
4870.08,0.17115
4864.3,0.17093
4858.51,0.17195
4852.72,0.17264
4846.94,0.17578
4841.15,0.17989
4835.36,0.18419
4829.58,0.18792
4823.79,0.19184
4818.01,0.19693
4812.22,0.20203
4806.43,0.20478
4800.65,0.20780
4794.86,0.21050
4789.07,0.21219
4783.29,0.21404
4777.5,0.21601
4771.72,0.21817
4765.93,0.21840
4760.14,0.21746
4754.36,0.21799
4748.57,0.21772
4742.78,0.21823
4737,0.21654
4731.21,0.21524
4725.43,0.21377
4719.64,0.21192
4713.85,0.20961
4708.07,0.20693
4702.28,0.20422
4696.49,0.20196
4690.71,0.19739
4684.92,0.19253
4679.14,0.18988
4673.35,0.18450
4667.56,0.18072
4661.78,0.17700
4655.99,0.17254
4650.2,0.16824
4644.42,0.16377
4638.63,0.15904
4632.85,0.15618
4627.06,0.15241
4621.27,0.14896
4615.49,0.14770
4609.7,0.14615
4603.92,0.14582
4598.13,0.14508
4592.34,0.14489
4586.56,0.14612
4580.77,0.14644
4574.98,0.14712
4569.2,0.14760
4563.41,0.14950
4557.63,0.15146
4551.84,0.15306
4546.05,0.15451
4540.27,0.15635
4534.48,0.15831
4528.69,0.16000
4522.91,0.16145
4517.12,0.16366
4511.34,0.16717
4505.55,0.16864
4499.76,0.17038
4493.98,0.17222
4488.19,0.17441
4482.4,0.17438
4476.62,0.17508
4470.83,0.17467
4465.05,0.17434
4459.26,0.17287
4453.47,0.17069
4447.69,0.16791
4441.9,0.16361
4436.11,0.15904
4430.33,0.15384
4424.54,0.14992
4418.76,0.14710
4412.97,0.14365
4407.18,0.14182
4401.4,0.13961
4395.61,0.13787
4389.82,0.13616
4384.04,0.13469
4378.25,0.13294
4372.47,0.13209
4366.68,0.13201
4360.89,0.13170
4355.11,0.13239
4349.32,0.13221
4343.53,0.13405
4337.75,0.13511
4331.96,0.13619
4326.18,0.13683
4320.39,0.13831
4314.6,0.13999
4308.82,0.14164
4303.03,0.14235
4297.24,0.14185
4291.46,0.14205
4285.67,0.14101
4279.89,0.14049
4274.1,0.14042
4268.31,0.13967
4262.53,0.13798
4256.74,0.13895
4250.95,0.13856
4245.17,0.14042
4239.38,0.14159
4233.6,0.14245
4227.81,0.14415
4222.02,0.14510
4216.24,0.14590
4210.45,0.14752
4204.66,0.14911
4198.88,0.14973
4193.09,0.14966
4187.31,0.14930
4181.52,0.15010
4175.73,0.15091
4169.95,0.15116
4164.16,0.15159
4158.37,0.15189
4152.59,0.15118
4146.8,0.15038
4141.02,0.15049
4135.23,0.14932
4129.44,0.14836
4123.66,0.14820
4117.87,0.14778
4112.09,0.14608
4106.3,0.14361
4100.51,0.14159
4094.73,0.13931
4088.94,0.13682
4083.15,0.13368
4077.37,0.13137
4071.58,0.12950
4065.8,0.12739
4060.01,0.12603
4054.22,0.12487
4048.44,0.12463
4042.65,0.12494
4036.86,0.12544
4031.08,0.12629
4025.29,0.12640
4019.51,0.12681
4013.72,0.12781
4007.93,0.12717
4002.15,0.12694
3996.36,0.12534
3990.57,0.12589
3984.79,0.12515
3979,0.12454
3973.22,0.12438
3967.43,0.12421
3961.64,0.12312
3955.86,0.12273
3950.07,0.12122
3944.28,0.12070
3938.5,0.12123
3932.71,0.12113
3926.93,0.12174
3921.14,0.12252
3915.35,0.12456
3909.57,0.12635
3903.78,0.12958
3897.99,0.13178
3892.21,0.13368
3886.42,0.13634
3880.64,0.13859
3874.85,0.14078
3869.06,0.14223
3863.28,0.14348
3857.49,0.14536
3851.7,0.14686
3845.92,0.14842
3840.13,0.14936
3834.35,0.15016
3828.56,0.15059
3822.77,0.15154
3816.99,0.15137
3811.2,0.15270
3805.41,0.15301
3799.63,0.15255
3793.84,0.15254
3788.06,0.15168
3782.27,0.15118
3776.48,0.15026
3770.7,0.14931
3764.91,0.14751
3759.12,0.14619
3753.34,0.14308
3747.55,0.14173
3741.77,0.13854
3735.98,0.13588
3730.19,0.13268
3724.41,0.12884
3718.62,0.12512
3712.83,0.11993
3707.05,0.11381
3701.26,0.10565
3695.48,0.09853
3689.69,0.08997
3683.9,0.08000
3678.12,0.07047
3672.33,0.06263
3666.54,0.05536
3660.76,0.05038
3654.97,0.04524
3649.19,0.04104
3643.4,0.03806
3637.61,0.03595
3631.83,0.03307
3626.04,0.03143
3620.25,0.02971
3614.47,0.02848
3608.68,0.02711
3602.9,0.02634
3597.11,0.02542
3591.32,0.02484
3585.54,0.02318
3579.75,0.02332
3573.97,0.02304
3568.18,0.02178
3562.39,0.02160
3556.61,0.02126
3550.82,0.02134
3545.03,0.02037
3539.25,0.02005
3533.46,0.01993
3527.68,0.01966
3521.89,0.02022
3516.1,0.01999
3510.32,0.01981
3504.53,0.01951
3498.74,0.01900
3492.96,0.01869
3487.17,0.01850
3481.39,0.01842
3475.6,0.01859
3469.81,0.01779
3464.03,0.01779
3458.24,0.01859
3452.45,0.01792
3446.67,0.01839
3440.88,0.01781
3435.1,0.01850
3429.31,0.01817
3423.52,0.01859
3417.74,0.01776
3411.95,0.01751
3406.16,0.01760
3400.38,0.01753
3394.59,0.01802
3388.81,0.01726
3383.02,0.01777
3377.23,0.01753
3371.45,0.01744
3365.66,0.01686
3359.87,0.01702
3354.09,0.01759
3348.3,0.01770
3342.52,0.01742
3336.73,0.01791
3330.94,0.01834
3325.16,0.01720
3319.37,0.01754
3313.58,0.01710
3307.8,0.01708
3302.01,0.01678
3296.23,0.01731
3290.44,0.01701
3284.65,0.01796
3278.87,0.01789
3273.08,0.01795
3267.29,0.01862
3261.51,0.01776
3255.72,0.01797
3249.94,0.01783
3244.15,0.01873
3238.36,0.01830
3232.58,0.01848
3226.79,0.01854
3221,0.01827
3215.22,0.01890
3209.43,0.01822
3203.65,0.01812
3197.86,0.01827
3192.07,0.01834
3186.29,0.01872
3180.5,0.01841
3174.71,0.01835
3168.93,0.01901
3163.14,0.01899
3157.36,0.01936
3151.57,0.01886
3145.78,0.01864
3140,0.01841
3134.21,0.01921
3128.42,0.01963
3122.64,0.01909
3116.85,0.01878
3111.07,0.01911
3105.28,0.01860
3099.49,0.01912
3093.71,0.01928
3087.92,0.01870
3082.14,0.01912
3076.35,0.01953
3070.56,0.01870
3064.78,0.01886
3058.99,0.01857
3053.2,0.01860
3047.42,0.01908
3041.63,0.01870
3035.85,0.01914
3030.06,0.01968
3024.27,0.01879
3018.49,0.01908
3012.7,0.01917
3006.91,0.01900
3001.13,0.01918
2995.34,0.01897
2989.56,0.01882
2983.77,0.01890
2977.98,0.01821
2972.2,0.01812
2966.41,0.01782
2960.62,0.01708
2954.84,0.01821
2949.05,0.01802
2943.27,0.01724
2937.48,0.01779
2931.69,0.01799
2925.91,0.01798
2920.12,0.01847
2914.33,0.01846
2908.55,0.01855
2902.76,0.01915
2896.98,0.01958
2891.19,0.01938
2885.4,0.01952
2879.62,0.01888
2873.83,0.01894
2868.04,0.01912
2862.26,0.01962
2856.47,0.01956
2850.69,0.01993
2844.9,0.02078
2839.11,0.02169
2833.33,0.02208
2827.54,0.02227
2821.75,0.02231
2815.97,0.02278
2810.18,0.02299
2804.4,0.02333
2798.61,0.02363
2792.82,0.02425
2787.04,0.02412
2781.25,0.02435
2775.46,0.02448
2769.68,0.02450
2763.89,0.02531
2758.11,0.02600
2752.32,0.02530
2746.53,0.02594
2740.75,0.02631
2734.96,0.02700
2729.17,0.02748
2723.39,0.02776
2717.6,0.02808
2711.82,0.02866
2706.03,0.02872
2700.24,0.02963
2694.46,0.02971
2688.67,0.02976
2682.88,0.03013
2677.1,0.03018
2671.31,0.03091
2665.53,0.03126
2659.74,0.03164
2653.95,0.03159
2648.17,0.03248
2642.38,0.03256
2636.59,0.03261
2630.81,0.03304
2625.02,0.03346
2619.24,0.03364
2613.45,0.03398
2607.66,0.03434
2601.88,0.03461
2596.09,0.03523
2590.3,0.03599
2584.52,0.03652
2578.73,0.03661
2572.95,0.03699
2567.16,0.03749
2561.37,0.03785
2555.59,0.03868
2549.8,0.03891
2544.02,0.03958
2538.23,0.03992
2532.44,0.04040
2526.66,0.04049
2520.87,0.04091
2515.08,0.04125
2509.3,0.04174
2503.51,0.04226
2497.73,0.04261
2491.94,0.04291
2486.15,0.04344
2480.37,0.04383
2474.58,0.04478
2468.79,0.04508
2463.01,0.04583
2457.22,0.04694
2451.44,0.04688
2445.65,0.04788
2439.86,0.04859
2434.08,0.04864
2428.29,0.04968
2422.5,0.05034
2416.72,0.05094
2410.93,0.05221
2405.15,0.05250
2399.36,0.05281
2393.57,0.05359
2387.79,0.05387
2382,0.05489
2376.21,0.05504
2370.43,0.05550
2364.64,0.05608
2358.86,0.05663
2353.07,0.05689
2347.28,0.05701
2341.5,0.05732
2335.71,0.05755
2329.92,0.05778
2324.14,0.05776
2318.35,0.05829
2312.57,0.05819
2306.78,0.05843
2300.99,0.05849
2295.21,0.05912
2289.42,0.05928
2283.63,0.05952
2277.85,0.05970
2272.06,0.05963
2266.28,0.05983
2260.49,0.05992
2254.7,0.05965
2248.92,0.05952
2243.13,0.05954
2237.34,0.05954
2231.56,0.05942
2225.77,0.05954
2219.99,0.05942
2214.2,0.05955
2208.41,0.05923
2202.63,0.05915
2196.84,0.05950
2191.05,0.05918
2185.27,0.05935
2179.48,0.05952
2173.7,0.05949
2167.91,0.05943
2162.12,0.05960
2156.34,0.05920
2150.55,0.05930
2144.76,0.05909
2138.98,0.05910
2133.19,0.05892
2127.41,0.05896
2121.62,0.05906
2115.83,0.05894
2110.05,0.05908
2104.26,0.05880
2098.47,0.05932
2092.69,0.05962
2086.9,0.05952
2081.12,0.05982
2075.33,0.05983
2069.54,0.06054
2063.76,0.06072
2057.97,0.06129
2052.19,0.06140
2046.4,0.06190
2040.61,0.06206
2034.83,0.06249
2029.04,0.06236
2023.25,0.06294
2017.47,0.06330
2011.68,0.06389
2005.9,0.06394
2000.11,0.06404
1994.32,0.06448
1988.54,0.06401
1982.75,0.06411
1976.96,0.06401
1971.18,0.06416
1965.39,0.06432
1959.61,0.06413
1953.82,0.06392
1948.03,0.06406
1942.25,0.06399
1936.46,0.06411
1930.67,0.06424
1924.89,0.06395
1919.1,0.06359
1913.32,0.06329
1907.53,0.06233
1901.74,0.06158
1895.96,0.06111
1890.17,0.06014
1884.38,0.05983
1878.6,0.05925
1872.81,0.05863
1867.03,0.05798
1861.24,0.05748
1855.45,0.05657
1849.67,0.05551
1843.88,0.05443
1838.09,0.05300
1832.31,0.05170
1826.52,0.05011
1820.74,0.04839
1814.95,0.04684
1809.16,0.04516
1803.38,0.04352
1797.59,0.04170
1791.8,0.03984
1786.02,0.03789
1780.23,0.03608
1774.45,0.03423
1768.66,0.03208
1762.87,0.03015
1757.09,0.02783
1751.3,0.02497
1745.51,0.02304
1739.73,0.02121
1733.94,0.02009
1728.16,0.01824
1722.37,0.01704
1716.58,0.01601
1710.8,0.01475
1705.01,0.01375
1699.22,0.01375
1693.44,0.01347
1687.65,0.01324
1681.87,0.01345
1676.08,0.01379
1670.29,0.01422
1664.51,0.01475
1658.72,0.01539
1652.93,0.01632
1647.15,0.01733
1641.36,0.01727
1635.58,0.01772
1629.79,0.01791
1624,0.01794
1618.22,0.01780
1612.43,0.01763
1606.64,0.01757
1600.86,0.01739
1595.07,0.01700
1589.29,0.01680
1583.5,0.01628
1577.71,0.01623
1571.93,0.01627
1566.14,0.01577
1560.35,0.01557
1554.57,0.01511
1548.78,0.01582
1543,0.01639
1537.21,0.01697
1531.42,0.01714
1525.64,0.01787
1519.85,0.01778
1514.07,0.01758
1508.28,0.01827
1502.49,0.01828
1496.71,0.01859
1490.92,0.01865
1485.13,0.01844
1479.35,0.01818
1473.56,0.01765
1467.78,0.01764
1461.99,0.01761
1456.2,0.01750
1450.42,0.01762
1444.63,0.01774
1438.84,0.01739
1433.06,0.01785
1427.27,0.01788
1421.49,0.01726
1415.7,0.01758
1409.91,0.01737
1404.13,0.01728
1398.34,0.01765
1392.55,0.01721
1386.77,0.01705
1380.98,0.01723
1375.2,0.01742
1369.41,0.01778
1363.62,0.01782
1357.84,0.01762
1352.05,0.01757
1346.26,0.01746
1340.48,0.01742
1334.69,0.01713
1328.91,0.01744
1323.12,0.01729
1317.33,0.01708
1311.55,0.01727
1305.76,0.01701
1299.97,0.01739
1294.19,0.01700
1288.4,0.01715
1282.62,0.01741
1276.83,0.01724
1271.04,0.01705
1265.26,0.01722
1259.47,0.01725
1253.68,0.01736
1247.9,0.01725
1242.11,0.01758
1236.33,0.01756
1230.54,0.01776
1224.75,0.01807
1218.97,0.01815
1213.18,0.01770
1207.39,0.01796
1201.61,0.01806
1195.82,0.01840
1190.04,0.01849
1184.25,0.01842
1178.46,0.01781
1172.68,0.01764
1166.89,0.01848
1161.1,0.01816
1155.32,0.01894
1149.53,0.01881
1143.75,0.01876
1137.96,0.01867
1132.17,0.01878
1126.39,0.01862
1120.6,0.01847
1114.81,0.01790
1109.03,0.01885
1103.24,0.01842
1097.46,0.01939
1091.67,0.01863
1085.88,0.01870
1080.1,0.01848
1074.31,0.01952
1068.52,0.01878
1062.74,0.01929
1056.95,0.01976
1051.17,0.01989
1045.38,0.01922
1039.59,0.01907
1033.81,0.02060
1028.02,0.02141
1022.24,0.02164
1016.45,0.02287
1010.66,0.02407
1004.88,0.02489
999.09,0.02625
993.304,0.02557
987.518,0.02620
981.731,0.02695
975.945,0.02678
970.159,0.02706
964.373,0.02721
958.586,0.02728
952.8,0.02771
947.014,0.02764
941.228,0.02698
935.441,0.02618
929.655,0.02617
923.869,0.02564
918.083,0.02548
912.297,0.02644
906.51,0.02635
900.724,0.02610
894.938,0.02523
889.152,0.02525
883.365,0.02497
877.579,0.02491
871.793,0.02468
866.007,0.02517
860.22,0.02499
854.434,0.02424
848.648,0.02327
842.862,0.02303
837.075,0.02205
831.289,0.02152
825.503,0.02189
819.717,0.02107
813.931,0.02140
808.144,0.02074
802.358,0.02051
796.572,0.02005
790.786,0.02029
784.999,0.01949
779.213,0.01968
773.427,0.01899
767.641,0.01898
761.854,0.01929
756.068,0.01788
750.282,0.01871
744.496,0.01734
738.709,0.01775
732.923,0.01735
727.137,0.01752
721.351,0.01702
715.565,0.01540
709.778,0.01638
703.992,0.01652
698.206,0.01553
692.42,0.01728
686.633,0.01638
680.847,0.01510
675.061,0.01512
669.275,0.01619
663.488,0.01630
657.702,0.01564
651.916,0.01566
646.13,0.01534
640.343,0.01485
634.557,0.01497
628.771,0.01748
622.985,0.01437
617.198,0.01703
611.412,0.01375
605.626,0.01518
599.84,0.01545