File: 01_Data/Wool_Rug/FTIR/IS/Wool_Rug_IS_S_220826_R7.dpt
7497.03,0.57487
7491.25,0.56325
7485.46,0.56228
7479.67,0.55880
7473.89,0.55645
7468.1,0.56541
7462.32,0.56006
7456.53,0.55705
7450.74,0.55652
7444.96,0.56557
7439.17,0.56277
7433.38,0.56558
7427.6,0.56146
7421.81,0.55307
7416.03,0.54516
7410.24,0.55737
7404.45,0.56203
7398.67,0.56023
7392.88,0.55375
7387.09,0.56024
7381.31,0.56406
7375.52,0.55667
7369.74,0.55053
7363.95,0.54200
7358.16,0.55213
7352.38,0.54591
7346.59,0.55685
7340.8,0.55367
7335.02,0.55757
7329.23,0.54932
7323.45,0.54985
7317.66,0.54781
7311.87,0.54453
7306.09,0.53803
7300.3,0.53841
7294.51,0.53583
7288.73,0.53129
7282.94,0.53771
7277.16,0.53914
7271.37,0.53145
7265.58,0.53544
7259.8,0.53128
7254.01,0.53317
7248.22,0.53886
7242.44,0.53971
7236.65,0.54149
7230.87,0.53278
7225.08,0.53015
7219.29,0.53176
7213.51,0.52368
7207.72,0.52933
7201.93,0.52944
7196.15,0.51853
7190.36,0.52006
7184.58,0.51586
7178.79,0.51555
7173,0.51469
7167.22,0.51096
7161.43,0.50980
7155.65,0.51063
7149.86,0.50622
7144.07,0.51137
7138.29,0.50905
7132.5,0.51089
7126.71,0.49441
7120.93,0.49335
7115.14,0.49477
7109.36,0.49637
7103.57,0.49091
7097.78,0.48422
7092,0.49022
7086.21,0.49198
7080.42,0.48409
7074.64,0.48592
7068.85,0.48179
7063.07,0.48288
7057.28,0.47842
7051.49,0.47885
7045.71,0.47949
7039.92,0.47248
7034.13,0.47616
7028.35,0.46997
7022.56,0.46832
7016.78,0.46915
7010.99,0.46861
7005.2,0.46454
6999.42,0.46507
6993.63,0.46645
6987.84,0.46744
6982.06,0.46339
6976.27,0.45983
6970.49,0.46733
6964.7,0.45781
6958.91,0.45492
6953.13,0.46186
6947.34,0.46238
6941.55,0.46069
6935.77,0.45572
6929.98,0.45294
6924.2,0.45852
6918.41,0.45377
6912.62,0.45371
6906.84,0.45203
6901.05,0.45111
6895.26,0.45049
6889.48,0.44969
6883.69,0.44802
6877.91,0.44296
6872.12,0.43784
6866.33,0.43449
6860.55,0.43842
6854.76,0.43350
6848.97,0.43465
6843.19,0.43475
6837.4,0.43539
6831.62,0.43268
6825.83,0.43241
6820.04,0.43140
6814.26,0.42390
6808.47,0.42962
6802.68,0.42587
6796.9,0.43003
6791.11,0.42399
6785.33,0.41912
6779.54,0.41786
6773.75,0.41449
6767.97,0.41263
6762.18,0.40939
6756.39,0.40723
6750.61,0.40105
6744.82,0.39694
6739.04,0.39705
6733.25,0.38844
6727.46,0.38806
6721.68,0.38117
6715.89,0.37494
6710.1,0.37483
6704.32,0.37224
6698.53,0.37013
6692.75,0.37130
6686.96,0.36170
6681.17,0.37033
6675.39,0.36557
6669.6,0.36779
6663.82,0.36438
6658.03,0.36271
6652.24,0.36385
6646.46,0.36090
6640.67,0.36701
6634.88,0.36478
6629.1,0.36842
6623.31,0.36689
6617.53,0.36285
6611.74,0.36473
6605.95,0.36869
6600.17,0.36857
6594.38,0.37202
6588.59,0.37030
6582.81,0.37555
6577.02,0.37368
6571.24,0.37464
6565.45,0.37710
6559.66,0.37634
6553.88,0.37828
6548.09,0.37977
6542.3,0.38109
6536.52,0.38450
6530.73,0.38729
6524.95,0.38998
6519.16,0.38889
6513.37,0.38766
6507.59,0.39297
6501.8,0.39487
6496.01,0.39669
6490.23,0.39880
6484.44,0.39781
6478.66,0.39992
6472.87,0.40519
6467.08,0.40401
6461.3,0.40734
6455.51,0.40694
6449.72,0.41014
6443.94,0.41109
6438.15,0.41479
6432.37,0.41799
6426.58,0.42161
6420.79,0.42328
6415.01,0.42325
6409.22,0.42224
6403.43,0.41971
6397.65,0.42258
6391.86,0.42321
6386.08,0.42073
6380.29,0.42352
6374.5,0.42888
6368.72,0.42908
6362.93,0.42357
6357.14,0.42482
6351.36,0.42714
6345.57,0.42559
6339.79,0.42546
6334,0.42941
6328.21,0.42831
6322.43,0.42982
6316.64,0.43162
6310.85,0.43341
6305.07,0.43069
6299.28,0.43275
6293.5,0.43482
6287.71,0.43657
6281.92,0.43628
6276.14,0.43472
6270.35,0.43821
6264.56,0.44186
6258.78,0.44168
6252.99,0.44406
6247.21,0.44758
6241.42,0.44526
6235.63,0.44721
6229.85,0.45196
6224.06,0.45073
6218.27,0.45160
6212.49,0.45412
6206.7,0.45375
6200.92,0.45238
6195.13,0.45711
6189.34,0.46246
6183.56,0.46410
6177.77,0.46098
6171.98,0.46409
6166.2,0.46382
6160.41,0.46423
6154.63,0.46489
6148.84,0.46459
6143.05,0.46710
6137.27,0.46949
6131.48,0.46865
6125.7,0.46708
6119.91,0.46942
6114.12,0.46995
6108.34,0.47077
6102.55,0.47300
6096.76,0.47281
6090.98,0.46751
6085.19,0.47044
6079.41,0.47599
6073.62,0.47211
6067.83,0.47262
6062.05,0.47160
6056.26,0.47525
6050.47,0.47092
6044.69,0.47119
6038.9,0.46851
6033.12,0.46367
6027.33,0.46615
6021.54,0.46630
6015.76,0.46056
6009.97,0.45809
6004.18,0.45757
5998.4,0.45192
5992.61,0.45021
5986.83,0.44554
5981.04,0.44016
5975.25,0.43546
5969.47,0.42948
5963.68,0.42383
5957.89,0.41699
5952.11,0.40995
5946.32,0.40608
5940.54,0.40059
5934.75,0.39404
5928.96,0.38739
5923.18,0.38169
5917.39,0.37857
5911.6,0.37561
5905.82,0.37405
5900.03,0.37345
5894.25,0.37048
5888.46,0.37255
5882.67,0.37084
5876.89,0.37103
5871.1,0.37129
5865.31,0.37261
5859.53,0.37536
5853.74,0.37488
5847.96,0.37563
5842.17,0.37605
5836.38,0.37427
5830.6,0.37116
5824.81,0.37036
5819.02,0.36684
5813.24,0.36367
5807.45,0.35974
5801.67,0.35506
5795.88,0.35219
5790.09,0.35109
5784.31,0.34744
5778.52,0.34742
5772.73,0.34535
5766.95,0.34427
5761.16,0.34236
5755.38,0.34104
5749.59,0.34287
5743.8,0.34274
5738.02,0.34337
5732.23,0.34638
5726.44,0.34999
5720.66,0.35063
5714.87,0.35552
5709.09,0.36233
5703.3,0.36662
5697.51,0.37175
5691.73,0.37516
5685.94,0.37962
5680.15,0.38308
5674.37,0.38676
5668.58,0.39150
5662.8,0.39184
5657.01,0.39477
5651.22,0.39923
5645.44,0.40183
5639.65,0.40453
5633.87,0.40830
5628.08,0.41055
5622.29,0.41121
5616.51,0.41248
5610.72,0.41321
5604.93,0.41505
5599.15,0.41484
5593.36,0.41422
5587.58,0.41214
5581.79,0.41370
5576,0.41434
5570.22,0.41440
5564.43,0.41574
5558.64,0.41529
5552.86,0.41516
5547.07,0.41396
5541.29,0.41579
5535.5,0.41753
5529.71,0.41576
5523.93,0.41639
5518.14,0.41600
5512.35,0.41750
5506.57,0.41744
5500.78,0.41964
5495,0.41904
5489.21,0.41870
5483.42,0.41924
5477.64,0.42281
5471.85,0.42279
5466.06,0.42294
5460.28,0.42514
5454.49,0.42503
5448.71,0.42830
5442.92,0.42841
5437.13,0.43071
5431.35,0.43230
5425.56,0.43371
5419.77,0.43233
5413.99,0.43166
5408.2,0.43534
5402.42,0.43593
5396.63,0.43649
5390.84,0.43587
5385.06,0.43594
5379.27,0.43445
5373.48,0.43545
5367.7,0.43235
5361.91,0.43264
5356.13,0.43432
5350.34,0.43075
5344.55,0.42860
5338.77,0.42511
5332.98,0.42389
5327.19,0.42029
5321.41,0.41383
5315.62,0.40983
5309.84,0.40344
5304.05,0.39359
5298.26,0.38581
5292.48,0.37558
5286.69,0.36580
5280.9,0.35588
5275.12,0.34551
5269.33,0.33418
5263.55,0.32493
5257.76,0.31506
5251.97,0.30563
5246.19,0.29733
5240.4,0.29016
5234.61,0.28233
5228.83,0.27602
5223.04,0.27030
5217.26,0.26472
5211.47,0.26030
5205.68,0.25807
5199.9,0.25247
5194.11,0.24984
5188.32,0.24631
5182.54,0.24340
5176.75,0.24182
5170.97,0.23944
5165.18,0.23820
5159.39,0.23522
5153.61,0.23620
5147.82,0.23563
5142.03,0.23568
5136.25,0.23526
5130.46,0.23570
5124.68,0.23625
5118.89,0.23593
5113.1,0.23607
5107.32,0.23456
5101.53,0.23352
5095.75,0.23207
5089.96,0.23112
5084.17,0.22722
5078.39,0.22598
5072.6,0.22297
5066.81,0.22167
5061.03,0.22035
5055.24,0.21901
5049.46,0.22084
5043.67,0.22088
5037.88,0.22207
5032.1,0.22253
5026.31,0.22259
5020.52,0.22436
5014.74,0.22383
5008.95,0.22458
5003.17,0.22544
4997.38,0.22734
4991.59,0.22683
4985.81,0.22656
4980.02,0.22742
4974.23,0.22502
4968.45,0.22548
4962.66,0.22310
4956.88,0.22174
4951.09,0.21880
4945.3,0.21615
4939.52,0.21206
4933.73,0.21019
4927.94,0.20606
4922.16,0.20295
4916.37,0.19937
4910.59,0.19524
4904.8,0.19127
4899.01,0.18645
4893.23,0.18237
4887.44,0.17919
4881.65,0.17548
4875.87,0.17369
4870.08,0.17167
4864.3,0.17048
4858.51,0.17087
4852.72,0.17308
4846.94,0.17649
4841.15,0.17939
4835.36,0.18377
4829.58,0.18708
4823.79,0.19231
4818.01,0.19752
4812.22,0.20158
4806.43,0.20497
4800.65,0.20827
4794.86,0.21136
4789.07,0.21423
4783.29,0.21496
4777.5,0.21701
4771.72,0.21757
4765.93,0.21826
4760.14,0.21942
4754.36,0.21795
4748.57,0.21864
4742.78,0.21762
4737,0.21709
4731.21,0.21585
4725.43,0.21388
4719.64,0.21174
4713.85,0.20958
4708.07,0.20663
4702.28,0.20527
4696.49,0.20009
4690.71,0.19756
4684.92,0.19324
4679.14,0.18856
4673.35,0.18351
4667.56,0.17895
4661.78,0.17497
4655.99,0.17018
4650.2,0.16608
4644.42,0.16213
4638.63,0.15850
4632.85,0.15394
4627.06,0.15006
4621.27,0.14781
4615.49,0.14572
4609.7,0.14447
4603.92,0.14290
4598.13,0.14283
4592.34,0.14198
4586.56,0.14334
4580.77,0.14401
4574.98,0.14568
4569.2,0.14671
4563.41,0.14851
4557.63,0.15019
4551.84,0.15083
4546.05,0.15273
4540.27,0.15487
4534.48,0.15681
4528.69,0.15821
4522.91,0.16165
4517.12,0.16210
4511.34,0.16394
4505.55,0.16721
4499.76,0.16886
4493.98,0.17159
4488.19,0.17215
4482.4,0.17371
4476.62,0.17384
4470.83,0.17352
4465.05,0.17238
4459.26,0.17200
4453.47,0.16846
4447.69,0.16520
4441.9,0.16189
4436.11,0.15801
4430.33,0.15297
4424.54,0.14769
4418.76,0.14530
4412.97,0.14233
4407.18,0.13978
4401.4,0.13743
4395.61,0.13607
4389.82,0.13491
4384.04,0.13297
4378.25,0.13212
4372.47,0.13003
4366.68,0.13019
4360.89,0.13037
4355.11,0.12975
4349.32,0.13086
4343.53,0.13225
4337.75,0.13334
4331.96,0.13529
4326.18,0.13514
4320.39,0.13634
4314.6,0.13819
4308.82,0.13952
4303.03,0.14037
4297.24,0.14012
4291.46,0.14050
4285.67,0.14011
4279.89,0.13788
4274.1,0.13871
4268.31,0.13763
4262.53,0.13649
4256.74,0.13750
4250.95,0.13772
4245.17,0.13889
4239.38,0.13992
4233.6,0.14193
4227.81,0.14293
4222.02,0.14355
4216.24,0.14559
4210.45,0.14671
4204.66,0.14786
4198.88,0.14881
4193.09,0.14916
4187.31,0.14948
4181.52,0.14990
4175.73,0.14988
4169.95,0.15031
4164.16,0.15132
4158.37,0.15136
4152.59,0.15064
4146.8,0.15123
4141.02,0.15003
4135.23,0.14958
4129.44,0.14897
4123.66,0.14882
4117.87,0.14835
4112.09,0.14703
4106.3,0.14503
4100.51,0.14300
4094.73,0.13976
4088.94,0.13702
4083.15,0.13495
4077.37,0.13303
4071.58,0.13092
4065.8,0.12937
4060.01,0.12759
4054.22,0.12707
4048.44,0.12599
4042.65,0.12559
4036.86,0.12606
4031.08,0.12756
4025.29,0.12792
4019.51,0.12840
4013.72,0.12875
4007.93,0.12902
4002.15,0.12822
3996.36,0.12756
3990.57,0.12757
3984.79,0.12677
3979,0.12614
3973.22,0.12588
3967.43,0.12551
3961.64,0.12425
3955.86,0.12338
3950.07,0.12300
3944.28,0.12231
3938.5,0.12149
3932.71,0.12156
3926.93,0.12208
3921.14,0.12318
3915.35,0.12497
3909.57,0.12716
3903.78,0.13009
3897.99,0.13238
3892.21,0.13570
3886.42,0.13814
3880.64,0.14058
3874.85,0.14220
3869.06,0.14508
3863.28,0.14634
3857.49,0.14789
3851.7,0.14987
3845.92,0.15070
3840.13,0.15218
3834.35,0.15379
3828.56,0.15471
3822.77,0.15514
3816.99,0.15661
3811.2,0.15709
3805.41,0.15656
3799.63,0.15762
3793.84,0.15797
3788.06,0.15777
3782.27,0.15822
3776.48,0.15682
3770.7,0.15581
3764.91,0.15459
3759.12,0.15256
3753.34,0.15158
3747.55,0.14833
3741.77,0.14724
3735.98,0.14446
3730.19,0.14086
3724.41,0.13693
3718.62,0.13379
3712.83,0.12870
3707.05,0.12255
3701.26,0.11542
3695.48,0.10863
3689.69,0.10022
3683.9,0.08996
3678.12,0.07872
3672.33,0.07034
3666.54,0.06353
3660.76,0.05779
3654.97,0.05205
3649.19,0.04764
3643.4,0.04337
3637.61,0.04076
3631.83,0.03756
3626.04,0.03525
3620.25,0.03310
3614.47,0.03170
3608.68,0.03075
3602.9,0.02930
3597.11,0.02749
3591.32,0.02712
3585.54,0.02581
3579.75,0.02443
3573.97,0.02445
3568.18,0.02334
3562.39,0.02254
3556.61,0.02234
3550.82,0.02152
3545.03,0.02231
3539.25,0.02085
3533.46,0.02090
3527.68,0.02102
3521.89,0.02031
3516.1,0.01989
3510.32,0.01990
3504.53,0.02009
3498.74,0.01987
3492.96,0.01934
3487.17,0.01889
3481.39,0.01864
3475.6,0.01867
3469.81,0.01829
3464.03,0.01849
3458.24,0.01783
3452.45,0.01827
3446.67,0.01862
3440.88,0.01788
3435.1,0.01741
3429.31,0.01794
3423.52,0.01824
3417.74,0.01738
3411.95,0.01729
3406.16,0.01721
3400.38,0.01779
3394.59,0.01855
3388.81,0.01722
3383.02,0.01685
3377.23,0.01720
3371.45,0.01670
3365.66,0.01658
3359.87,0.01706
3354.09,0.01700
3348.3,0.01719
3342.52,0.01708
3336.73,0.01760
3330.94,0.01732
3325.16,0.01696
3319.37,0.01668
3313.58,0.01694
3307.8,0.01677
3302.01,0.01776
3296.23,0.01771
3290.44,0.01773
3284.65,0.01700
3278.87,0.01687
3273.08,0.01761
3267.29,0.01728
3261.51,0.01749
3255.72,0.01741
3249.94,0.01721
3244.15,0.01803
3238.36,0.01780
3232.58,0.01705
3226.79,0.01799
3221,0.01786
3215.22,0.01766
3209.43,0.01824
3203.65,0.01828
3197.86,0.01842
3192.07,0.01857
3186.29,0.01814
3180.5,0.01882
3174.71,0.01870
3168.93,0.01860
3163.14,0.01835
3157.36,0.01847
3151.57,0.01859
3145.78,0.01854
3140,0.01863
3134.21,0.01915
3128.42,0.01903
3122.64,0.01900
3116.85,0.01930
3111.07,0.01903
3105.28,0.01881
3099.49,0.01897
3093.71,0.01883
3087.92,0.01936
3082.14,0.01899
3076.35,0.01836
3070.56,0.01849
3064.78,0.01865
3058.99,0.01868
3053.2,0.01894
3047.42,0.01868
3041.63,0.01936
3035.85,0.01891
3030.06,0.01933
3024.27,0.01972
3018.49,0.01960
3012.7,0.01896
3006.91,0.01972
3001.13,0.01923
2995.34,0.01889
2989.56,0.01842
2983.77,0.01847
2977.98,0.01801
2972.2,0.01820
2966.41,0.01762
2960.62,0.01749
2954.84,0.01772
2949.05,0.01798
2943.27,0.01797
2937.48,0.01762
2931.69,0.01781
2925.91,0.01762
2920.12,0.01825
2914.33,0.01819
2908.55,0.01805
2902.76,0.01882
2896.98,0.01890
2891.19,0.01898
2885.4,0.01932
2879.62,0.01895
2873.83,0.01910
2868.04,0.01916
2862.26,0.01975
2856.47,0.01938
2850.69,0.01958
2844.9,0.02129
2839.11,0.02149
2833.33,0.02202
2827.54,0.02205
2821.75,0.02283
2815.97,0.02241
2810.18,0.02305
2804.4,0.02306
2798.61,0.02354
2792.82,0.02336
2787.04,0.02378
2781.25,0.02411
2775.46,0.02425
2769.68,0.02454
2763.89,0.02512
2758.11,0.02561
2752.32,0.02583
2746.53,0.02566
2740.75,0.02653
2734.96,0.02669
2729.17,0.02742
2723.39,0.02732
2717.6,0.02817
2711.82,0.02821
2706.03,0.02843
2700.24,0.02893
2694.46,0.02942
2688.67,0.02980
2682.88,0.03030
2677.1,0.03003
2671.31,0.03072
2665.53,0.03129
2659.74,0.03123
2653.95,0.03159
2648.17,0.03192
2642.38,0.03217
2636.59,0.03216
2630.81,0.03251
2625.02,0.03270
2619.24,0.03309
2613.45,0.03348
2607.66,0.03392
2601.88,0.03378
2596.09,0.03518
2590.3,0.03541
2584.52,0.03571
2578.73,0.03636
2572.95,0.03641
2567.16,0.03691
2561.37,0.03776
2555.59,0.03785
2549.8,0.03848
2544.02,0.03857
2538.23,0.03897
2532.44,0.03955
2526.66,0.03966
2520.87,0.04012
2515.08,0.04011
2509.3,0.04057
2503.51,0.04108
2497.73,0.04158
2491.94,0.04218
2486.15,0.04263
2480.37,0.04281
2474.58,0.04381
2468.79,0.04441
2463.01,0.04518
2457.22,0.04568
2451.44,0.04599
2445.65,0.04703
2439.86,0.04739
2434.08,0.04825
2428.29,0.04868
2422.5,0.04928
2416.72,0.04987
2410.93,0.05064
2405.15,0.05138
2399.36,0.05251
2393.57,0.05254
2387.79,0.05320
2382,0.05407
2376.21,0.05436
2370.43,0.05496
2364.64,0.05566
2358.86,0.05564
2353.07,0.05591
2347.28,0.05673
2341.5,0.05687
2335.71,0.05685
2329.92,0.05773
2324.14,0.05771
2318.35,0.05802
2312.57,0.05813
2306.78,0.05832
2300.99,0.05880
2295.21,0.05902
2289.42,0.05899
2283.63,0.05945
2277.85,0.05968
2272.06,0.05975
2266.28,0.06028
2260.49,0.06001
2254.7,0.06019
2248.92,0.05994
2243.13,0.05989
2237.34,0.06035
2231.56,0.06053
2225.77,0.06070
2219.99,0.06044
2214.2,0.06052
2208.41,0.06049
2202.63,0.06037
2196.84,0.06067
2191.05,0.06111
2185.27,0.06091
2179.48,0.06088
2173.7,0.06100
2167.91,0.06111
2162.12,0.06114
2156.34,0.06115
2150.55,0.06083
2144.76,0.06074
2138.98,0.06073
2133.19,0.06077
2127.41,0.06085
2121.62,0.06069
2115.83,0.06092
2110.05,0.06105
2104.26,0.06082
2098.47,0.06084
2092.69,0.06104
2086.9,0.06112
2081.12,0.06130
2075.33,0.06166
2069.54,0.06178
2063.76,0.06216
2057.97,0.06255
2052.19,0.06277
2046.4,0.06316
2040.61,0.06373
2034.83,0.06348
2029.04,0.06399
2023.25,0.06422
2017.47,0.06444
2011.68,0.06473
2005.9,0.06496
2000.11,0.06479
1994.32,0.06497
1988.54,0.06470
1982.75,0.06462
1976.96,0.06455
1971.18,0.06442
1965.39,0.06414
1959.61,0.06420
1953.82,0.06435
1948.03,0.06427
1942.25,0.06441
1936.46,0.06402
1930.67,0.06408
1924.89,0.06393
1919.1,0.06353
1913.32,0.06285
1907.53,0.06262
1901.74,0.06171
1895.96,0.06096
1890.17,0.06024
1884.38,0.05928
1878.6,0.05897
1872.81,0.05847
1867.03,0.05761
1861.24,0.05668
1855.45,0.05635
1849.67,0.05501
1843.88,0.05426
1838.09,0.05249
1832.31,0.05102
1826.52,0.04939
1820.74,0.04772
1814.95,0.04643
1809.16,0.04460
1803.38,0.04311
1797.59,0.04096
1791.8,0.03936
1786.02,0.03721
1780.23,0.03555
1774.45,0.03378
1768.66,0.03135
1762.87,0.02942
1757.09,0.02717
1751.3,0.02485
1745.51,0.02251
1739.73,0.02094
1733.94,0.01934
1728.16,0.01822
1722.37,0.01702
1716.58,0.01581
1710.8,0.01476
1705.01,0.01393
1699.22,0.01362
1693.44,0.01356
1687.65,0.01347
1681.87,0.01395
1676.08,0.01401
1670.29,0.01412
1664.51,0.01508
1658.72,0.01569
1652.93,0.01632
1647.15,0.01703
1641.36,0.01743
1635.58,0.01761
1629.79,0.01780
1624,0.01800
1618.22,0.01762
1612.43,0.01752
1606.64,0.01716
1600.86,0.01694
1595.07,0.01687
1589.29,0.01667
1583.5,0.01687
1577.71,0.01636
1571.93,0.01569
1566.14,0.01568
1560.35,0.01559
1554.57,0.01567
1548.78,0.01529
1543,0.01647
1537.21,0.01669
1531.42,0.01724
1525.64,0.01713
1519.85,0.01713
1514.07,0.01748
1508.28,0.01793
1502.49,0.01816
1496.71,0.01846
1490.92,0.01871
1485.13,0.01816
1479.35,0.01809
1473.56,0.01775
1467.78,0.01784
1461.99,0.01703
1456.2,0.01712
1450.42,0.01708
1444.63,0.01728
1438.84,0.01761
1433.06,0.01768
1427.27,0.01767
1421.49,0.01728
1415.7,0.01719
1409.91,0.01710
1404.13,0.01706
1398.34,0.01657
1392.55,0.01696
1386.77,0.01725
1380.98,0.01703
1375.2,0.01742
1369.41,0.01743
1363.62,0.01748
1357.84,0.01755
1352.05,0.01755
1346.26,0.01772
1340.48,0.01720
1334.69,0.01706
1328.91,0.01725
1323.12,0.01714
1317.33,0.01738
1311.55,0.01739
1305.76,0.01718
1299.97,0.01676
1294.19,0.01684
1288.4,0.01711
1282.62,0.01671
1276.83,0.01719
1271.04,0.01711
1265.26,0.01711
1259.47,0.01706
1253.68,0.01686
1247.9,0.01691
1242.11,0.01700
1236.33,0.01728
1230.54,0.01748
1224.75,0.01781
1218.97,0.01804
1213.18,0.01792
1207.39,0.01799
1201.61,0.01813
1195.82,0.01808
1190.04,0.01841
1184.25,0.01802
1178.46,0.01829
1172.68,0.01794
1166.89,0.01797
1161.1,0.01859
1155.32,0.01779
1149.53,0.01851
1143.75,0.01848
1137.96,0.01927
1132.17,0.01863
1126.39,0.01844
1120.6,0.01809
1114.81,0.01840
1109.03,0.01812
1103.24,0.01858
1097.46,0.01871
1091.67,0.01820
1085.88,0.01881
1080.1,0.01982
1074.31,0.01989
1068.52,0.01943
1062.74,0.01937
1056.95,0.01986
1051.17,0.01893
1045.38,0.01849
1039.59,0.01897
1033.81,0.02015
1028.02,0.02106
1022.24,0.02255
1016.45,0.02300
1010.66,0.02490
1004.88,0.02544
999.09,0.02568
993.304,0.02457
987.518,0.02605
981.731,0.02646
975.945,0.02712
970.159,0.02725
964.373,0.02787
958.586,0.02802
952.8,0.02757
947.014,0.02709
941.228,0.02736
935.441,0.02608
929.655,0.02626
923.869,0.02632
918.083,0.02615
912.297,0.02601
906.51,0.02682
900.724,0.02646
894.938,0.02529
889.152,0.02549
883.365,0.02527
877.579,0.02483
871.793,0.02525
866.007,0.02503
860.22,0.02407
854.434,0.02450
848.648,0.02350
842.862,0.02365
837.075,0.02173
831.289,0.02229
825.503,0.02198
819.717,0.02173
813.931,0.02193
808.144,0.02162
802.358,0.02156
796.572,0.02177
790.786,0.02034
784.999,0.02013
779.213,0.01938
773.427,0.01933
767.641,0.01885
761.854,0.01808
756.068,0.01875
750.282,0.01811
744.496,0.01891
738.709,0.01775
732.923,0.01714
727.137,0.01626
721.351,0.01701
715.565,0.01695
709.778,0.01619
703.992,0.01655
698.206,0.01593
692.42,0.01588
686.633,0.01674
680.847,0.01637
675.061,0.01557
669.275,0.01618
663.488,0.01676
657.702,0.01542
651.916,0.01530
646.13,0.01509
640.343,0.01436
634.557,0.01499
628.771,0.01587
622.985,0.01356
617.198,0.01408
611.412,0.01543
605.626,0.01543
599.84,0.01383