File: 01_Data/Wool_Rug/FTIR/IS/Wool_Rug_IS_T_220826_R1.dpt
7497.03,0.02452
7491.25,0.02852
7485.46,0.02848
7479.67,0.03264
7473.89,0.02569
7468.1,0.02470
7462.32,0.02508
7456.53,0.02872
7450.74,0.02472
7444.96,0.02262
7439.17,0.02137
7433.38,0.01989
7427.6,0.02558
7421.81,0.02982
7416.03,0.03221
7410.24,0.02831
7404.45,0.02168
7398.67,0.02089
7392.88,0.02890
7387.09,0.03356
7381.31,0.02708
7375.52,0.02668
7369.74,0.02303
7363.95,0.02219
7358.16,0.02214
7352.38,0.02652
7346.59,0.02977
7340.8,0.02268
7335.02,0.02475
7329.23,0.02739
7323.45,0.01976
7317.66,0.03338
7311.87,0.03058
7306.09,0.02374
7300.3,0.02922
7294.51,0.02733
7288.73,0.02493
7282.94,0.03176
7277.16,0.02853
7271.37,0.02976
7265.58,0.03024
7259.8,0.01811
7254.01,0.01871
7248.22,0.01882
7242.44,0.02787
7236.65,0.02690
7230.87,0.02910
7225.08,0.02894
7219.29,0.02166
7213.51,0.02519
7207.72,0.02531
7201.93,0.01869
7196.15,0.02222
7190.36,0.01888
7184.58,0.02513
7178.79,0.01626
7173,0.02236
7167.22,0.02014
7161.43,0.01659
7155.65,0.02389
7149.86,0.02367
7144.07,0.02178
7138.29,0.02546
7132.5,0.02835
7126.71,0.02369
7120.93,0.02844
7115.14,0.02791
7109.36,0.02740
7103.57,0.02157
7097.78,0.02211
7092,0.02457
7086.21,0.02778
7080.42,0.02777
7074.64,0.02858
7068.85,0.02194
7063.07,0.02660
7057.28,0.02642
7051.49,0.02316
7045.71,0.02100
7039.92,0.02243
7034.13,0.02578
7028.35,0.02298
7022.56,0.02225
7016.78,0.02246
7010.99,0.02549
7005.2,0.02604
6999.42,0.03294
6993.63,0.02232
6987.84,0.02148
6982.06,0.02334
6976.27,0.02862
6970.49,0.02655
6964.7,0.02272
6958.91,0.02393
6953.13,0.02904
6947.34,0.02602
6941.55,0.02372
6935.77,0.02614
6929.98,0.02089
6924.2,0.02322
6918.41,0.02420
6912.62,0.03156
6906.84,0.02646
6901.05,0.02280
6895.26,0.02549
6889.48,0.02384
6883.69,0.02476
6877.91,0.02302
6872.12,0.02297
6866.33,0.03024
6860.55,0.02321
6854.76,0.02477
6848.97,0.02732
6843.19,0.02462
6837.4,0.02629
6831.62,0.02244
6825.83,0.02320
6820.04,0.02772
6814.26,0.02639
6808.47,0.02628
6802.68,0.02058
6796.9,0.01857
6791.11,0.02378
6785.33,0.02440
6779.54,0.02244
6773.75,0.02912
6767.97,0.02353
6762.18,0.02133
6756.39,0.02679
6750.61,0.02185
6744.82,0.02585
6739.04,0.02886
6733.25,0.02532
6727.46,0.02302
6721.68,0.02833
6715.89,0.02412
6710.1,0.02663
6704.32,0.01701
6698.53,0.02175
6692.75,0.01933
6686.96,0.02589
6681.17,0.02418
6675.39,0.02213
6669.6,0.02509
6663.82,0.02309
6658.03,0.02620
6652.24,0.02368
6646.46,0.02330
6640.67,0.02070
6634.88,0.02439
6629.1,0.02369
6623.31,0.02069
6617.53,0.02591
6611.74,0.02237
6605.95,0.02501
6600.17,0.02532
6594.38,0.01792
6588.59,0.02342
6582.81,0.02310
6577.02,0.02412
6571.24,0.02581
6565.45,0.02385
6559.66,0.02235
6553.88,0.02162
6548.09,0.01948
6542.3,0.02665
6536.52,0.02451
6530.73,0.02602
6524.95,0.02956
6519.16,0.02361
6513.37,0.02061
6507.59,0.02504
6501.8,0.02262
6496.01,0.02095
6490.23,0.02449
6484.44,0.02519
6478.66,0.02589
6472.87,0.02189
6467.08,0.02230
6461.3,0.02187
6455.51,0.02526
6449.72,0.02452
6443.94,0.02191
6438.15,0.02726
6432.37,0.02339
6426.58,0.01935
6420.79,0.02012
6415.01,0.02108
6409.22,0.02355
6403.43,0.02275
6397.65,0.02074
6391.86,0.02432
6386.08,0.02516
6380.29,0.02499
6374.5,0.02063
6368.72,0.02123
6362.93,0.02097
6357.14,0.02097
6351.36,0.02660
6345.57,0.02435
6339.79,0.01918
6334,0.02286
6328.21,0.02479
6322.43,0.02489
6316.64,0.02300
6310.85,0.01848
6305.07,0.02194
6299.28,0.02351
6293.5,0.02114
6287.71,0.02349
6281.92,0.02179
6276.14,0.02036
6270.35,0.02121
6264.56,0.02084
6258.78,0.02229
6252.99,0.02618
6247.21,0.02337
6241.42,0.01900
6235.63,0.02084
6229.85,0.02346
6224.06,0.02149
6218.27,0.02215
6212.49,0.01992
6206.7,0.02055
6200.92,0.02202
6195.13,0.02230
6189.34,0.02115
6183.56,0.02098
6177.77,0.02156
6171.98,0.02249
6166.2,0.02411
6160.41,0.02110
6154.63,0.02319
6148.84,0.02330
6143.05,0.02285
6137.27,0.02355
6131.48,0.02285
6125.7,0.01845
6119.91,0.02195
6114.12,0.02105
6108.34,0.02438
6102.55,0.02470
6096.76,0.02156
6090.98,0.02017
6085.19,0.01942
6079.41,0.02242
6073.62,0.02535
6067.83,0.02492
6062.05,0.02245
6056.26,0.02219
6050.47,0.02042
6044.69,0.02267
6038.9,0.02144
6033.12,0.02185
6027.33,0.02103
6021.54,0.01816
6015.76,0.02078
6009.97,0.02177
6004.18,0.02191
5998.4,0.02174
5992.61,0.02357
5986.83,0.02182
5981.04,0.02038
5975.25,0.02079
5969.47,0.02292
5963.68,0.02039
5957.89,0.02106
5952.11,0.02314
5946.32,0.02392
5940.54,0.02400
5934.75,0.02195
5928.96,0.02268
5923.18,0.02229
5917.39,0.02131
5911.6,0.02182
5905.82,0.01953
5900.03,0.02354
5894.25,0.02202
5888.46,0.02311
5882.67,0.02120
5876.89,0.02244
5871.1,0.02199
5865.31,0.02045
5859.53,0.02031
5853.74,0.02057
5847.96,0.02108
5842.17,0.02156
5836.38,0.02075
5830.6,0.02166
5824.81,0.02211
5819.02,0.02419
5813.24,0.02268
5807.45,0.02233
5801.67,0.02337
5795.88,0.02126
5790.09,0.02216
5784.31,0.02255
5778.52,0.02388
5772.73,0.02365
5766.95,0.02375
5761.16,0.02156
5755.38,0.02059
5749.59,0.02171
5743.8,0.02252
5738.02,0.02368
5732.23,0.02224
5726.44,0.02336
5720.66,0.02146
5714.87,0.02318
5709.09,0.02255
5703.3,0.02367
5697.51,0.02268
5691.73,0.02385
5685.94,0.02149
5680.15,0.02284
5674.37,0.02191
5668.58,0.02222
5662.8,0.02196
5657.01,0.02352
5651.22,0.02002
5645.44,0.02197
5639.65,0.02073
5633.87,0.02131
5628.08,0.02175
5622.29,0.02257
5616.51,0.02160
5610.72,0.02124
5604.93,0.02378
5599.15,0.02181
5593.36,0.02290
5587.58,0.02366
5581.79,0.02199
5576,0.02167
5570.22,0.02128
5564.43,0.02158
5558.64,0.02375
5552.86,0.02223
5547.07,0.02187
5541.29,0.02136
5535.5,0.02287
5529.71,0.02151
5523.93,0.02297
5518.14,0.02071
5512.35,0.02146
5506.57,0.02059
5500.78,0.02194
5495,0.02245
5489.21,0.02276
5483.42,0.02411
5477.64,0.02215
5471.85,0.02197
5466.06,0.02112
5460.28,0.02183
5454.49,0.02339
5448.71,0.02350
5442.92,0.02205
5437.13,0.02268
5431.35,0.02174
5425.56,0.02185
5419.77,0.02279
5413.99,0.02275
5408.2,0.02331
5402.42,0.02245
5396.63,0.02156
5390.84,0.02382
5385.06,0.02126
5379.27,0.02341
5373.48,0.02198
5367.7,0.02129
5361.91,0.02289
5356.13,0.02176
5350.34,0.02271
5344.55,0.02246
5338.77,0.02296
5332.98,0.02318
5327.19,0.02285
5321.41,0.02287
5315.62,0.02157
5309.84,0.02203
5304.05,0.02278
5298.26,0.02314
5292.48,0.02272
5286.69,0.02246
5280.9,0.02302
5275.12,0.02216
5269.33,0.02250
5263.55,0.02229
5257.76,0.02331
5251.97,0.02179
5246.19,0.02184
5240.4,0.02224
5234.61,0.02166
5228.83,0.02295
5223.04,0.02258
5217.26,0.02167
5211.47,0.02210
5205.68,0.02167
5199.9,0.02310
5194.11,0.02041
5188.32,0.02094
5182.54,0.02240
5176.75,0.02163
5170.97,0.02246
5165.18,0.02253
5159.39,0.02251
5153.61,0.02197
5147.82,0.02209
5142.03,0.02208
5136.25,0.02173
5130.46,0.02129
5124.68,0.02218
5118.89,0.02215
5113.1,0.02306
5107.32,0.02228
5101.53,0.02295
5095.75,0.02404
5089.96,0.02184
5084.17,0.02246
5078.39,0.02345
5072.6,0.02243
5066.81,0.02313
5061.03,0.02258
5055.24,0.02267
5049.46,0.02164
5043.67,0.02216
5037.88,0.02305
5032.1,0.02273
5026.31,0.02199
5020.52,0.02266
5014.74,0.02186
5008.95,0.02160
5003.17,0.02249
4997.38,0.02249
4991.59,0.02146
4985.81,0.02201
4980.02,0.02281
4974.23,0.02093
4968.45,0.02346
4962.66,0.02256
4956.88,0.02223
4951.09,0.02177
4945.3,0.02244
4939.52,0.02269
4933.73,0.02282
4927.94,0.02166
4922.16,0.02250
4916.37,0.02196
4910.59,0.02308
4904.8,0.02112
4899.01,0.02259
4893.23,0.02196
4887.44,0.02204
4881.65,0.02190
4875.87,0.02215
4870.08,0.02233
4864.3,0.02076
4858.51,0.02173
4852.72,0.02252
4846.94,0.02279
4841.15,0.02223
4835.36,0.02257
4829.58,0.02269
4823.79,0.02328
4818.01,0.02152
4812.22,0.02259
4806.43,0.02211
4800.65,0.02248
4794.86,0.02245
4789.07,0.02201
4783.29,0.02127
4777.5,0.02197
4771.72,0.02206
4765.93,0.02310
4760.14,0.02224
4754.36,0.02301
4748.57,0.02194
4742.78,0.02197
4737,0.02276
4731.21,0.02259
4725.43,0.02196
4719.64,0.02263
4713.85,0.02313
4708.07,0.02269
4702.28,0.02199
4696.49,0.02144
4690.71,0.02180
4684.92,0.02194
4679.14,0.02309
4673.35,0.02235
4667.56,0.02244
4661.78,0.02288
4655.99,0.02266
4650.2,0.02291
4644.42,0.02203
4638.63,0.02304
4632.85,0.02165
4627.06,0.02159
4621.27,0.02289
4615.49,0.02283
4609.7,0.02289
4603.92,0.02293
4598.13,0.02208
4592.34,0.02224
4586.56,0.02253
4580.77,0.02327
4574.98,0.02264
4569.2,0.02181
4563.41,0.02204
4557.63,0.02231
4551.84,0.02289
4546.05,0.02249
4540.27,0.02220
4534.48,0.02306
4528.69,0.02200
4522.91,0.02263
4517.12,0.02258
4511.34,0.02168
4505.55,0.02272
4499.76,0.02245
4493.98,0.02339
4488.19,0.02279
4482.4,0.02269
4476.62,0.02274
4470.83,0.02271
4465.05,0.02230
4459.26,0.02222
4453.47,0.02286
4447.69,0.02245
4441.9,0.02290
4436.11,0.02299
4430.33,0.02268
4424.54,0.02182
4418.76,0.02143
4412.97,0.02291
4407.18,0.02242
4401.4,0.02280
4395.61,0.02294
4389.82,0.02225
4384.04,0.02220
4378.25,0.02172
4372.47,0.02246
4366.68,0.02296
4360.89,0.02272
4355.11,0.02243
4349.32,0.02298
4343.53,0.02229
4337.75,0.02212
4331.96,0.02241
4326.18,0.02221
4320.39,0.02237
4314.6,0.02260
4308.82,0.02117
4303.03,0.02246
4297.24,0.02312
4291.46,0.02316
4285.67,0.02290
4279.89,0.02276
4274.1,0.02215
4268.31,0.02232
4262.53,0.02326
4256.74,0.02303
4250.95,0.02291
4245.17,0.02236
4239.38,0.02276
4233.6,0.02209
4227.81,0.02285
4222.02,0.02196
4216.24,0.02270
4210.45,0.02298
4204.66,0.02299
4198.88,0.02245
4193.09,0.02209
4187.31,0.02278
4181.52,0.02218
4175.73,0.02283
4169.95,0.02231
4164.16,0.02278
4158.37,0.02274
4152.59,0.02275
4146.8,0.02258
4141.02,0.02284
4135.23,0.02243
4129.44,0.02258
4123.66,0.02259
4117.87,0.02264
4112.09,0.02299
4106.3,0.02320
4100.51,0.02229
4094.73,0.02270
4088.94,0.02247
4083.15,0.02337
4077.37,0.02254
4071.58,0.02234
4065.8,0.02252
4060.01,0.02190
4054.22,0.02234
4048.44,0.02208
4042.65,0.02277
4036.86,0.02267
4031.08,0.02298
4025.29,0.02320
4019.51,0.02255
4013.72,0.02266
4007.93,0.02317
4002.15,0.02327
3996.36,0.02302
3990.57,0.02259
3984.79,0.02301
3979,0.02267
3973.22,0.02288
3967.43,0.02273
3961.64,0.02328
3955.86,0.02292
3950.07,0.02300
3944.28,0.02247
3938.5,0.02299
3932.71,0.02239
3926.93,0.02299
3921.14,0.02283
3915.35,0.02229
3909.57,0.02245
3903.78,0.02277
3897.99,0.02242
3892.21,0.02244
3886.42,0.02313
3880.64,0.02258
3874.85,0.02254
3869.06,0.02290
3863.28,0.02296
3857.49,0.02259
3851.7,0.02276
3845.92,0.02270
3840.13,0.02208
3834.35,0.02291
3828.56,0.02229
3822.77,0.02251
3816.99,0.02316
3811.2,0.02265
3805.41,0.02298
3799.63,0.02265
3793.84,0.02255
3788.06,0.02281
3782.27,0.02229
3776.48,0.02235
3770.7,0.02255
3764.91,0.02221
3759.12,0.02297
3753.34,0.02251
3747.55,0.02280
3741.77,0.02249
3735.98,0.02230
3730.19,0.02280
3724.41,0.02289
3718.62,0.02313
3712.83,0.02289
3707.05,0.02211
3701.26,0.02247
3695.48,0.02289
3689.69,0.02201
3683.9,0.02225
3678.12,0.02222
3672.33,0.02282
3666.54,0.02232
3660.76,0.02221
3654.97,0.02230
3649.19,0.02197
3643.4,0.02233
3637.61,0.02202
3631.83,0.02133
3626.04,0.02141
3620.25,0.02176
3614.47,0.02199
3608.68,0.02172
3602.9,0.02214
3597.11,0.02141
3591.32,0.02121
3585.54,0.02141
3579.75,0.02186
3573.97,0.02161
3568.18,0.02177
3562.39,0.02129
3556.61,0.02097
3550.82,0.02139
3545.03,0.02101
3539.25,0.02059
3533.46,0.02133
3527.68,0.02151
3521.89,0.02177
3516.1,0.02044
3510.32,0.02101
3504.53,0.02148
3498.74,0.02092
3492.96,0.02104
3487.17,0.02112
3481.39,0.02109
3475.6,0.02077
3469.81,0.02061
3464.03,0.02044
3458.24,0.02079
3452.45,0.02074
3446.67,0.02082
3440.88,0.02073
3435.1,0.02106
3429.31,0.02156
3423.52,0.02044
3417.74,0.02054
3411.95,0.01993
3406.16,0.02068
3400.38,0.02087
3394.59,0.01994
3388.81,0.02073
3383.02,0.02057
3377.23,0.02022
3371.45,0.02058
3365.66,0.02063
3359.87,0.02006
3354.09,0.02019
3348.3,0.02144
3342.52,0.02054
3336.73,0.02060
3330.94,0.02101
3325.16,0.02060
3319.37,0.02005
3313.58,0.01961
3307.8,0.01983
3302.01,0.02007
3296.23,0.02064
3290.44,0.02064
3284.65,0.02081
3278.87,0.01975
3273.08,0.02064
3267.29,0.02076
3261.51,0.02092
3255.72,0.02102
3249.94,0.02041
3244.15,0.02023
3238.36,0.02064
3232.58,0.02154
3226.79,0.02038
3221,0.02072
3215.22,0.02103
3209.43,0.02071
3203.65,0.02123
3197.86,0.02121
3192.07,0.02121
3186.29,0.02095
3180.5,0.02096
3174.71,0.02048
3168.93,0.02046
3163.14,0.02139
3157.36,0.02105
3151.57,0.02094
3145.78,0.02051
3140,0.02111
3134.21,0.02035
3128.42,0.02052
3122.64,0.02044
3116.85,0.02054
3111.07,0.02083
3105.28,0.02083
3099.49,0.02100
3093.71,0.02086
3087.92,0.02070
3082.14,0.02150
3076.35,0.02022
3070.56,0.01991
3064.78,0.02063
3058.99,0.02079
3053.2,0.02082
3047.42,0.02062
3041.63,0.02030
3035.85,0.02049
3030.06,0.02063
3024.27,0.02044
3018.49,0.02026
3012.7,0.01981
3006.91,0.02004
3001.13,0.02069
2995.34,0.02032
2989.56,0.02023
2983.77,0.01992
2977.98,0.01986
2972.2,0.01952
2966.41,0.01938
2960.62,0.01949
2954.84,0.01985
2949.05,0.02017
2943.27,0.02013
2937.48,0.02007
2931.69,0.01930
2925.91,0.01993
2920.12,0.02020
2914.33,0.01965
2908.55,0.02038
2902.76,0.01969
2896.98,0.02032
2891.19,0.02078
2885.4,0.02028
2879.62,0.02024
2873.83,0.02051
2868.04,0.02082
2862.26,0.02030
2856.47,0.02067
2850.69,0.02101
2844.9,0.02124
2839.11,0.02126
2833.33,0.02105
2827.54,0.02154
2821.75,0.02155
2815.97,0.02093
2810.18,0.02152
2804.4,0.02124
2798.61,0.02106
2792.82,0.02111
2787.04,0.02127
2781.25,0.02134
2775.46,0.02132
2769.68,0.02128
2763.89,0.02057
2758.11,0.02124
2752.32,0.02100
2746.53,0.02127
2740.75,0.02148
2734.96,0.02144
2729.17,0.02092
2723.39,0.02115
2717.6,0.02129
2711.82,0.02132
2706.03,0.02122
2700.24,0.02094
2694.46,0.02123
2688.67,0.02091
2682.88,0.02113
2677.1,0.02141
2671.31,0.02100
2665.53,0.02115
2659.74,0.02117
2653.95,0.02133
2648.17,0.02151
2642.38,0.02145
2636.59,0.02123
2630.81,0.02133
2625.02,0.02121
2619.24,0.02174
2613.45,0.02149
2607.66,0.02112
2601.88,0.02150
2596.09,0.02164
2590.3,0.02122
2584.52,0.02158
2578.73,0.02125
2572.95,0.02057
2567.16,0.02130
2561.37,0.02159
2555.59,0.02167
2549.8,0.02132
2544.02,0.02126
2538.23,0.02092
2532.44,0.02094
2526.66,0.02088
2520.87,0.02120
2515.08,0.02092
2509.3,0.02098
2503.51,0.02122
2497.73,0.02109
2491.94,0.02110
2486.15,0.02145
2480.37,0.02089
2474.58,0.02064
2468.79,0.02078
2463.01,0.02122
2457.22,0.02091
2451.44,0.02110
2445.65,0.02118
2439.86,0.02128
2434.08,0.02121
2428.29,0.02118
2422.5,0.02154
2416.72,0.02142
2410.93,0.02128
2405.15,0.02081
2399.36,0.02119
2393.57,0.02089
2387.79,0.02127
2382,0.02104
2376.21,0.02069
2370.43,0.02097
2364.64,0.02118
2358.86,0.02077
2353.07,0.02102
2347.28,0.02138
2341.5,0.02120
2335.71,0.02127
2329.92,0.02110
2324.14,0.02130
2318.35,0.02101
2312.57,0.02096
2306.78,0.02161
2300.99,0.02057
2295.21,0.02063
2289.42,0.02123
2283.63,0.02111
2277.85,0.02113
2272.06,0.02093
2266.28,0.02090
2260.49,0.02109
2254.7,0.02111
2248.92,0.02084
2243.13,0.02138
2237.34,0.02174
2231.56,0.02092
2225.77,0.02104
2219.99,0.02109
2214.2,0.02115
2208.41,0.02087
2202.63,0.02103
2196.84,0.02091
2191.05,0.02094
2185.27,0.02112
2179.48,0.02097
2173.7,0.02099
2167.91,0.02104
2162.12,0.02083
2156.34,0.02102
2150.55,0.02084
2144.76,0.02096
2138.98,0.02089
2133.19,0.02119
2127.41,0.02101
2121.62,0.02072
2115.83,0.02081
2110.05,0.02118
2104.26,0.02123
2098.47,0.02094
2092.69,0.02076
2086.9,0.02071
2081.12,0.02053
2075.33,0.02095
2069.54,0.02114
2063.76,0.02061
2057.97,0.02067
2052.19,0.02060
2046.4,0.02060
2040.61,0.02065
2034.83,0.02083
2029.04,0.02065
2023.25,0.02115
2017.47,0.02088
2011.68,0.02082
2005.9,0.02117
2000.11,0.02111
1994.32,0.02093
1988.54,0.02068
1982.75,0.02047
1976.96,0.02070
1971.18,0.02087
1965.39,0.02046
1959.61,0.02077
1953.82,0.02084
1948.03,0.02037
1942.25,0.02089
1936.46,0.02073
1930.67,0.02046
1924.89,0.02061
1919.1,0.02077
1913.32,0.02040
1907.53,0.02056
1901.74,0.02081
1895.96,0.02065
1890.17,0.02067
1884.38,0.02021
1878.6,0.02044
1872.81,0.02009
1867.03,0.02034
1861.24,0.02049
1855.45,0.02068
1849.67,0.02015
1843.88,0.02000
1838.09,0.02007
1832.31,0.02002
1826.52,0.01997
1820.74,0.01970
1814.95,0.01974
1809.16,0.01961
1803.38,0.01948
1797.59,0.01946
1791.8,0.01942
1786.02,0.01944
1780.23,0.01890
1774.45,0.01884
1768.66,0.01855
1762.87,0.01818
1757.09,0.01769
1751.3,0.01722
1745.51,0.01734
1739.73,0.01850
1733.94,0.02016
1728.16,0.02059
1722.37,0.02114
1716.58,0.02103
1710.8,0.02040
1705.01,0.02025
1699.22,0.01982
1693.44,0.01939
1687.65,0.01880
1681.87,0.01870
1676.08,0.01869
1670.29,0.01853
1664.51,0.01872
1658.72,0.01850
1652.93,0.01852
1647.15,0.01823
1641.36,0.01838
1635.58,0.01852
1629.79,0.01851
1624,0.01884
1618.22,0.01910
1612.43,0.01924
1606.64,0.01902
1600.86,0.01892
1595.07,0.01855
1589.29,0.01851
1583.5,0.01867
1577.71,0.01856
1571.93,0.01811
1566.14,0.01815
1560.35,0.01781
1554.57,0.01781
1548.78,0.01834
1543,0.01824
1537.21,0.01817
1531.42,0.01825
1525.64,0.01844
1519.85,0.01847
1514.07,0.01853
1508.28,0.01858
1502.49,0.01861
1496.71,0.01846
1490.92,0.01857
1485.13,0.01848
1479.35,0.01822
1473.56,0.01770
1467.78,0.01827
1461.99,0.01822
1456.2,0.01794
1450.42,0.01834
1444.63,0.01842
1438.84,0.01877
1433.06,0.01887
1427.27,0.01884
1421.49,0.01843
1415.7,0.01821
1409.91,0.01786
1404.13,0.01767
1398.34,0.01795
1392.55,0.01806
1386.77,0.01801
1380.98,0.01844
1375.2,0.01822
1369.41,0.01794
1363.62,0.01776
1357.84,0.01794
1352.05,0.01787
1346.26,0.01781
1340.48,0.01777
1334.69,0.01770
1328.91,0.01749
1323.12,0.01702
1317.33,0.01684
1311.55,0.01669
1305.76,0.01721
1299.97,0.01761
1294.19,0.01781
1288.4,0.01843
1282.62,0.01849
1276.83,0.01903
1271.04,0.01883
1265.26,0.01934
1259.47,0.01990
1253.68,0.02027
1247.9,0.02026
1242.11,0.01942
1236.33,0.01982
1230.54,0.01949
1224.75,0.01904
1218.97,0.01899
1213.18,0.01908
1207.39,0.01889
1201.61,0.01824
1195.82,0.01817
1190.04,0.01783
1184.25,0.01785
1178.46,0.01787
1172.68,0.01791
1166.89,0.01760
1161.1,0.01763
1155.32,0.01784
1149.53,0.01774
1143.75,0.01737
1137.96,0.01746
1132.17,0.01786
1126.39,0.01770
1120.6,0.01904
1114.81,0.01863
1109.03,0.01880
1103.24,0.01862
1097.46,0.01831
1091.67,0.01820
1085.88,0.01766
1080.1,0.01861
1074.31,0.01857
1068.52,0.01965
1062.74,0.01937
1056.95,0.02012
1051.17,0.01912
1045.38,0.01934
1039.59,0.01990
1033.81,0.01945
1028.02,0.01901
1022.24,0.01876
1016.45,0.01902
1010.66,0.01971
1004.88,0.02054
999.09,0.02081
993.304,0.02100
987.518,0.02145
981.731,0.02076
975.945,0.02080
970.159,0.02010
964.373,0.02013
958.586,0.01996
952.8,0.02009
947.014,0.01991
941.228,0.01980
935.441,0.01972
929.655,0.01934
923.869,0.01928
918.083,0.01876
912.297,0.01925
906.51,0.01910
900.724,0.01916
894.938,0.01879
889.152,0.01923
883.365,0.01949
877.579,0.01836
871.793,0.01916
866.007,0.01877
860.22,0.01851
854.434,0.01841
848.648,0.01929
842.862,0.01843
837.075,0.01870
831.289,0.01858
825.503,0.01921
819.717,0.01860
813.931,0.01834
808.144,0.01823
802.358,0.01895
796.572,0.01854
790.786,0.01806
784.999,0.01776
779.213,0.01892
773.427,0.01884
767.641,0.01800
761.854,0.01821
756.068,0.01855
750.282,0.01732
744.496,0.01834
738.709,0.01792
732.923,0.01870
727.137,0.01803
721.351,0.01771
715.565,0.01823
709.778,0.01888
703.992,0.01748
698.206,0.01853
692.42,0.01804
686.633,0.01733
680.847,0.01809
675.061,0.01748
669.275,0.01759
663.488,0.01791
657.702,0.01652
651.916,0.01602
646.13,0.01701
640.343,0.01520
634.557,0.01515
628.771,0.01588
622.985,0.01539
617.198,0.01607
611.412,0.01691
605.626,0.01605
599.84,0.01712