File: 01_Data/Bamboo_Rug/FTIR/IS/Bamboo_Rug_IS_S_220822_R7.dpt
7497.03,0.77648
7491.25,0.77056
7485.46,0.76276
7479.67,0.75153
7473.89,0.76174
7468.1,0.76420
7462.32,0.74956
7456.53,0.74322
7450.74,0.75550
7444.96,0.74036
7439.17,0.74472
7433.38,0.73893
7427.6,0.72945
7421.81,0.72313
7416.03,0.72848
7410.24,0.72518
7404.45,0.72533
7398.67,0.71375
7392.88,0.72007
7387.09,0.71986
7381.31,0.71116
7375.52,0.71368
7369.74,0.70744
7363.95,0.71140
7358.16,0.70636
7352.38,0.70531
7346.59,0.69705
7340.8,0.69939
7335.02,0.69106
7329.23,0.69420
7323.45,0.68058
7317.66,0.69078
7311.87,0.68787
7306.09,0.68649
7300.3,0.69417
7294.51,0.68988
7288.73,0.68752
7282.94,0.68161
7277.16,0.68485
7271.37,0.67575
7265.58,0.68580
7259.8,0.68840
7254.01,0.69204
7248.22,0.68398
7242.44,0.67546
7236.65,0.67959
7230.87,0.68486
7225.08,0.67950
7219.29,0.67821
7213.51,0.67503
7207.72,0.66334
7201.93,0.66411
7196.15,0.67093
7190.36,0.65401
7184.58,0.65230
7178.79,0.65911
7173,0.65584
7167.22,0.65449
7161.43,0.64755
7155.65,0.63952
7149.86,0.63322
7144.07,0.63630
7138.29,0.62954
7132.5,0.62644
7126.71,0.62422
7120.93,0.61217
7115.14,0.60322
7109.36,0.59998
7103.57,0.59603
7097.78,0.58720
7092,0.58568
7086.21,0.57299
7080.42,0.57695
7074.64,0.57415
7068.85,0.56415
7063.07,0.55863
7057.28,0.55393
7051.49,0.54889
7045.71,0.54209
7039.92,0.53432
7034.13,0.53267
7028.35,0.53021
7022.56,0.52595
7016.78,0.51689
7010.99,0.51274
7005.2,0.51306
6999.42,0.51198
6993.63,0.50217
6987.84,0.50412
6982.06,0.49441
6976.27,0.50215
6970.49,0.49404
6964.7,0.49342
6958.91,0.49577
6953.13,0.48532
6947.34,0.48616
6941.55,0.48738
6935.77,0.48913
6929.98,0.48744
6924.2,0.48687
6918.41,0.48449
6912.62,0.48504
6906.84,0.48582
6901.05,0.48342
6895.26,0.47947
6889.48,0.48131
6883.69,0.48520
6877.91,0.48433
6872.12,0.48304
6866.33,0.47982
6860.55,0.47679
6854.76,0.47766
6848.97,0.48010
6843.19,0.47584
6837.4,0.48163
6831.62,0.48002
6825.83,0.47975
6820.04,0.47515
6814.26,0.47731
6808.47,0.47732
6802.68,0.48010
6796.9,0.48344
6791.11,0.48197
6785.33,0.48026
6779.54,0.47883
6773.75,0.48265
6767.97,0.48016
6762.18,0.47768
6756.39,0.47988
6750.61,0.48252
6744.82,0.48072
6739.04,0.47812
6733.25,0.48456
6727.46,0.48001
6721.68,0.48632
6715.89,0.48473
6710.1,0.48681
6704.32,0.49000
6698.53,0.49147
6692.75,0.48774
6686.96,0.48955
6681.17,0.48827
6675.39,0.49249
6669.6,0.49335
6663.82,0.48824
6658.03,0.49819
6652.24,0.50028
6646.46,0.50121
6640.67,0.49591
6634.88,0.49670
6629.1,0.50308
6623.31,0.49823
6617.53,0.49912
6611.74,0.50109
6605.95,0.50217
6600.17,0.50634
6594.38,0.50951
6588.59,0.50625
6582.81,0.51103
6577.02,0.50771
6571.24,0.50596
6565.45,0.50990
6559.66,0.51136
6553.88,0.51324
6548.09,0.51565
6542.3,0.51354
6536.52,0.51342
6530.73,0.51571
6524.95,0.51631
6519.16,0.51765
6513.37,0.52079
6507.59,0.52101
6501.8,0.52040
6496.01,0.51739
6490.23,0.52377
6484.44,0.51784
6478.66,0.52001
6472.87,0.52230
6467.08,0.52114
6461.3,0.52240
6455.51,0.52532
6449.72,0.52236
6443.94,0.52383
6438.15,0.52204
6432.37,0.52726
6426.58,0.53078
6420.79,0.52748
6415.01,0.52403
6409.22,0.52221
6403.43,0.52501
6397.65,0.52655
6391.86,0.52841
6386.08,0.52715
6380.29,0.52741
6374.5,0.53038
6368.72,0.53249
6362.93,0.53135
6357.14,0.53196
6351.36,0.52843
6345.57,0.53130
6339.79,0.53224
6334,0.53049
6328.21,0.53403
6322.43,0.53036
6316.64,0.53467
6310.85,0.53395
6305.07,0.53700
6299.28,0.53481
6293.5,0.53805
6287.71,0.54049
6281.92,0.53706
6276.14,0.54179
6270.35,0.54106
6264.56,0.54149
6258.78,0.54821
6252.99,0.54936
6247.21,0.55088
6241.42,0.54793
6235.63,0.55233
6229.85,0.55320
6224.06,0.55248
6218.27,0.55831
6212.49,0.55568
6206.7,0.55998
6200.92,0.56331
6195.13,0.56395
6189.34,0.56815
6183.56,0.56633
6177.77,0.56929
6171.98,0.56915
6166.2,0.57309
6160.41,0.57181
6154.63,0.57332
6148.84,0.57218
6143.05,0.57376
6137.27,0.57437
6131.48,0.57446
6125.7,0.57820
6119.91,0.57706
6114.12,0.57995
6108.34,0.57750
6102.55,0.58064
6096.76,0.57833
6090.98,0.57913
6085.19,0.57880
6079.41,0.57991
6073.62,0.58246
6067.83,0.57940
6062.05,0.57722
6056.26,0.57859
6050.47,0.57854
6044.69,0.57216
6038.9,0.57392
6033.12,0.57338
6027.33,0.57348
6021.54,0.57020
6015.76,0.56662
6009.97,0.56132
6004.18,0.56237
5998.4,0.56263
5992.61,0.56054
5986.83,0.55760
5981.04,0.55847
5975.25,0.55889
5969.47,0.55323
5963.68,0.55334
5957.89,0.55362
5952.11,0.55570
5946.32,0.55123
5940.54,0.55260
5934.75,0.55369
5928.96,0.55106
5923.18,0.55486
5917.39,0.55216
5911.6,0.55018
5905.82,0.54968
5900.03,0.54969
5894.25,0.54755
5888.46,0.54728
5882.67,0.54820
5876.89,0.54861
5871.1,0.54912
5865.31,0.54743
5859.53,0.54685
5853.74,0.54969
5847.96,0.54738
5842.17,0.54473
5836.38,0.54400
5830.6,0.54265
5824.81,0.54016
5819.02,0.53904
5813.24,0.53833
5807.45,0.53425
5801.67,0.53693
5795.88,0.53735
5790.09,0.53725
5784.31,0.54207
5778.52,0.54309
5772.73,0.54215
5766.95,0.54530
5761.16,0.54536
5755.38,0.54536
5749.59,0.54477
5743.8,0.54770
5738.02,0.54721
5732.23,0.54675
5726.44,0.54594
5720.66,0.54870
5714.87,0.55015
5709.09,0.54730
5703.3,0.54631
5697.51,0.54456
5691.73,0.54525
5685.94,0.54340
5680.15,0.54367
5674.37,0.54352
5668.58,0.54295
5662.8,0.54265
5657.01,0.54290
5651.22,0.54008
5645.44,0.53967
5639.65,0.54279
5633.87,0.54197
5628.08,0.54271
5622.29,0.54161
5616.51,0.54065
5610.72,0.53999
5604.93,0.54226
5599.15,0.54013
5593.36,0.54048
5587.58,0.53774
5581.79,0.54150
5576,0.54113
5570.22,0.54288
5564.43,0.54572
5558.64,0.54597
5552.86,0.54653
5547.07,0.54715
5541.29,0.54726
5535.5,0.54764
5529.71,0.54752
5523.93,0.54893
5518.14,0.54888
5512.35,0.55074
5506.57,0.55019
5500.78,0.55131
5495,0.55219
5489.21,0.54981
5483.42,0.55094
5477.64,0.55224
5471.85,0.55347
5466.06,0.55404
5460.28,0.55277
5454.49,0.55658
5448.71,0.55839
5442.92,0.55937
5437.13,0.56014
5431.35,0.56191
5425.56,0.56355
5419.77,0.56576
5413.99,0.56501
5408.2,0.56694
5402.42,0.56734
5396.63,0.56832
5390.84,0.56619
5385.06,0.56498
5379.27,0.56704
5373.48,0.56502
5367.7,0.56297
5361.91,0.56424
5356.13,0.56345
5350.34,0.56192
5344.55,0.55911
5338.77,0.55713
5332.98,0.55378
5327.19,0.54802
5321.41,0.54302
5315.62,0.53695
5309.84,0.53006
5304.05,0.52244
5298.26,0.51153
5292.48,0.50265
5286.69,0.49115
5280.9,0.47687
5275.12,0.46600
5269.33,0.45101
5263.55,0.43698
5257.76,0.42541
5251.97,0.41422
5246.19,0.40466
5240.4,0.39562
5234.61,0.38871
5228.83,0.38310
5223.04,0.37847
5217.26,0.37458
5211.47,0.37364
5205.68,0.37074
5199.9,0.37002
5194.11,0.36792
5188.32,0.37014
5182.54,0.37098
5176.75,0.37161
5170.97,0.37591
5165.18,0.37779
5159.39,0.38060
5153.61,0.38391
5147.82,0.38720
5142.03,0.38987
5136.25,0.39416
5130.46,0.39933
5124.68,0.40198
5118.89,0.40385
5113.1,0.40866
5107.32,0.41163
5101.53,0.41505
5095.75,0.41755
5089.96,0.42035
5084.17,0.42413
5078.39,0.42712
5072.6,0.43043
5066.81,0.43400
5061.03,0.43644
5055.24,0.43891
5049.46,0.44300
5043.67,0.44619
5037.88,0.44773
5032.1,0.44910
5026.31,0.45183
5020.52,0.45378
5014.74,0.45588
5008.95,0.45671
5003.17,0.45801
4997.38,0.45720
4991.59,0.45788
4985.81,0.45786
4980.02,0.45766
4974.23,0.45599
4968.45,0.45385
4962.66,0.45120
4956.88,0.44712
4951.09,0.44358
4945.3,0.43987
4939.52,0.43613
4933.73,0.43015
4927.94,0.42427
4922.16,0.42019
4916.37,0.41446
4910.59,0.41074
4904.8,0.40506
4899.01,0.39878
4893.23,0.39351
4887.44,0.38892
4881.65,0.38526
4875.87,0.37897
4870.08,0.37507
4864.3,0.36893
4858.51,0.36645
4852.72,0.36260
4846.94,0.35853
4841.15,0.35454
4835.36,0.35116
4829.58,0.34934
4823.79,0.34636
4818.01,0.34401
4812.22,0.34127
4806.43,0.34008
4800.65,0.33817
4794.86,0.33784
4789.07,0.33664
4783.29,0.33549
4777.5,0.33486
4771.72,0.33429
4765.93,0.33330
4760.14,0.33365
4754.36,0.33184
4748.57,0.33171
4742.78,0.33173
4737,0.33233
4731.21,0.33306
4725.43,0.33456
4719.64,0.33407
4713.85,0.33542
4708.07,0.33572
4702.28,0.33534
4696.49,0.33668
4690.71,0.33804
4684.92,0.33942
4679.14,0.34079
4673.35,0.34284
4667.56,0.34414
4661.78,0.34768
4655.99,0.34925
4650.2,0.35172
4644.42,0.35388
4638.63,0.35593
4632.85,0.35780
4627.06,0.36016
4621.27,0.36100
4615.49,0.36492
4609.7,0.36634
4603.92,0.36855
4598.13,0.37039
4592.34,0.37320
4586.56,0.37465
4580.77,0.37666
4574.98,0.37839
4569.2,0.37878
4563.41,0.38081
4557.63,0.38113
4551.84,0.38370
4546.05,0.38427
4540.27,0.38551
4534.48,0.38655
4528.69,0.38729
4522.91,0.38721
4517.12,0.38847
4511.34,0.38708
4505.55,0.38584
4499.76,0.38417
4493.98,0.38032
4488.19,0.37522
4482.4,0.37068
4476.62,0.36522
4470.83,0.35697
4465.05,0.34935
4459.26,0.34227
4453.47,0.33353
4447.69,0.32637
4441.9,0.31997
4436.11,0.31396
4430.33,0.30893
4424.54,0.30399
4418.76,0.29956
4412.97,0.29731
4407.18,0.29547
4401.4,0.29508
4395.61,0.29489
4389.82,0.29426
4384.04,0.29583
4378.25,0.29800
4372.47,0.30052
4366.68,0.30161
4360.89,0.30201
4355.11,0.30258
4349.32,0.30063
4343.53,0.30035
4337.75,0.29859
4331.96,0.29604
4326.18,0.29377
4320.39,0.29157
4314.6,0.28899
4308.82,0.28724
4303.03,0.28490
4297.24,0.28416
4291.46,0.28279
4285.67,0.28209
4279.89,0.28259
4274.1,0.28220
4268.31,0.28389
4262.53,0.28505
4256.74,0.28558
4250.95,0.28709
4245.17,0.28680
4239.38,0.28761
4233.6,0.28852
4227.81,0.28942
4222.02,0.29001
4216.24,0.29001
4210.45,0.29062
4204.66,0.29104
4198.88,0.29118
4193.09,0.29185
4187.31,0.29163
4181.52,0.29212
4175.73,0.29291
4169.95,0.29356
4164.16,0.29475
4158.37,0.29349
4152.59,0.29140
4146.8,0.29073
4141.02,0.28868
4135.23,0.28575
4129.44,0.28235
4123.66,0.27879
4117.87,0.27508
4112.09,0.27152
4106.3,0.26849
4100.51,0.26380
4094.73,0.25931
4088.94,0.25446
4083.15,0.25063
4077.37,0.24532
4071.58,0.24006
4065.8,0.23606
4060.01,0.23155
4054.22,0.22750
4048.44,0.22443
4042.65,0.22136
4036.86,0.21737
4031.08,0.21533
4025.29,0.21413
4019.51,0.21272
4013.72,0.21210
4007.93,0.21218
4002.15,0.21300
3996.36,0.21345
3990.57,0.21530
3984.79,0.21605
3979,0.21688
3973.22,0.21866
3967.43,0.22064
3961.64,0.22219
3955.86,0.22468
3950.07,0.22674
3944.28,0.22861
3938.5,0.23093
3932.71,0.23272
3926.93,0.23508
3921.14,0.23736
3915.35,0.23975
3909.57,0.24188
3903.78,0.24374
3897.99,0.24658
3892.21,0.24860
3886.42,0.25034
3880.64,0.25262
3874.85,0.25425
3869.06,0.25597
3863.28,0.25906
3857.49,0.26236
3851.7,0.26371
3845.92,0.26608
3840.13,0.26903
3834.35,0.27029
3828.56,0.27010
3822.77,0.27165
3816.99,0.27128
3811.2,0.27115
3805.41,0.27136
3799.63,0.27030
3793.84,0.26949
3788.06,0.26835
3782.27,0.26826
3776.48,0.26598
3770.7,0.26417
3764.91,0.26207
3759.12,0.26013
3753.34,0.25751
3747.55,0.25525
3741.77,0.25231
3735.98,0.24953
3730.19,0.24516
3724.41,0.24122
3718.62,0.23564
3712.83,0.22938
3707.05,0.22227
3701.26,0.21340
3695.48,0.20392
3689.69,0.19249
3683.9,0.17831
3678.12,0.16611
3672.33,0.15138
3666.54,0.13829
3660.76,0.12704
3654.97,0.11775
3649.19,0.10900
3643.4,0.10138
3637.61,0.09524
3631.83,0.09020
3626.04,0.08479
3620.25,0.08083
3614.47,0.07706
3608.68,0.07346
3602.9,0.06985
3597.11,0.06679
3591.32,0.06357
3585.54,0.06050
3579.75,0.05855
3573.97,0.05681
3568.18,0.05453
3562.39,0.05314
3556.61,0.05110
3550.82,0.05005
3545.03,0.04863
3539.25,0.04732
3533.46,0.04614
3527.68,0.04574
3521.89,0.04495
3516.1,0.04400
3510.32,0.04295
3504.53,0.04248
3498.74,0.04288
3492.96,0.04166
3487.17,0.04117
3481.39,0.04046
3475.6,0.03980
3469.81,0.03976
3464.03,0.04013
3458.24,0.03919
3452.45,0.03920
3446.67,0.03916
3440.88,0.03969
3435.1,0.03956
3429.31,0.03999
3423.52,0.03948
3417.74,0.03956
3411.95,0.03982
3406.16,0.04040
3400.38,0.04055
3394.59,0.04122
3388.81,0.04064
3383.02,0.04090
3377.23,0.04103
3371.45,0.04173
3365.66,0.04168
3359.87,0.04260
3354.09,0.04194
3348.3,0.04299
3342.52,0.04332
3336.73,0.04353
3330.94,0.04387
3325.16,0.04477
3319.37,0.04440
3313.58,0.04516
3307.8,0.04590
3302.01,0.04630
3296.23,0.04641
3290.44,0.04735
3284.65,0.04801
3278.87,0.04796
3273.08,0.04890
3267.29,0.04976
3261.51,0.05056
3255.72,0.05105
3249.94,0.05132
3244.15,0.05286
3238.36,0.05326
3232.58,0.05373
3226.79,0.05517
3221,0.05557
3215.22,0.05607
3209.43,0.05727
3203.65,0.05878
3197.86,0.05886
3192.07,0.05972
3186.29,0.06094
3180.5,0.06121
3174.71,0.06250
3168.93,0.06285
3163.14,0.06446
3157.36,0.06467
3151.57,0.06625
3145.78,0.06720
3140,0.06848
3134.21,0.06931
3128.42,0.06958
3122.64,0.07042
3116.85,0.07116
3111.07,0.07259
3105.28,0.07320
3099.49,0.07416
3093.71,0.07409
3087.92,0.07565
3082.14,0.07624
3076.35,0.07710
3070.56,0.07808
3064.78,0.07889
3058.99,0.07948
3053.2,0.08053
3047.42,0.08148
3041.63,0.08156
3035.85,0.08189
3030.06,0.08127
3024.27,0.08131
3018.49,0.08013
3012.7,0.07960
3006.91,0.07832
3001.13,0.07726
2995.34,0.07571
2989.56,0.07411
2983.77,0.07202
2977.98,0.06903
2972.2,0.06607
2966.41,0.06390
2960.62,0.06218
2954.84,0.06068
2949.05,0.05935
2943.27,0.05767
2937.48,0.05699
2931.69,0.05739
2925.91,0.05687
2920.12,0.05716
2914.33,0.05747
2908.55,0.05781
2902.76,0.05798
2896.98,0.05823
2891.19,0.05883
2885.4,0.06018
2879.62,0.06055
2873.83,0.06141
2868.04,0.06213
2862.26,0.06326
2856.47,0.06482
2850.69,0.06653
2844.9,0.06969
2839.11,0.07208
2833.33,0.07600
2827.54,0.07935
2821.75,0.08203
2815.97,0.08500
2810.18,0.08707
2804.4,0.08842
2798.61,0.08984
2792.82,0.09098
2787.04,0.09237
2781.25,0.09329
2775.46,0.09473
2769.68,0.09531
2763.89,0.09593
2758.11,0.09670
2752.32,0.09696
2746.53,0.09736
2740.75,0.09793
2734.96,0.09797
2729.17,0.09878
2723.39,0.09965
2717.6,0.10028
2711.82,0.10154
2706.03,0.10295
2700.24,0.10415
2694.46,0.10499
2688.67,0.10637
2682.88,0.10739
2677.1,0.10875
2671.31,0.10935
2665.53,0.11042
2659.74,0.11134
2653.95,0.11180
2648.17,0.11284
2642.38,0.11356
2636.59,0.11488
2630.81,0.11641
2625.02,0.11720
2619.24,0.11851
2613.45,0.11948
2607.66,0.12055
2601.88,0.12096
2596.09,0.12187
2590.3,0.12366
2584.52,0.12409
2578.73,0.12509
2572.95,0.12584
2567.16,0.12628
2561.37,0.12649
2555.59,0.12693
2549.8,0.12754
2544.02,0.12806
2538.23,0.12883
2532.44,0.12958
2526.66,0.13022
2520.87,0.13118
2515.08,0.13148
2509.3,0.13209
2503.51,0.13360
2497.73,0.13502
2491.94,0.13593
2486.15,0.13731
2480.37,0.13919
2474.58,0.14010
2468.79,0.14127
2463.01,0.14202
2457.22,0.14291
2451.44,0.14459
2445.65,0.14637
2439.86,0.14839
2434.08,0.14993
2428.29,0.15152
2422.5,0.15359
2416.72,0.15558
2410.93,0.15795
2405.15,0.16043
2399.36,0.16254
2393.57,0.16426
2387.79,0.16596
2382,0.16775
2376.21,0.16885
2370.43,0.17018
2364.64,0.17110
2358.86,0.17286
2353.07,0.17443
2347.28,0.17521
2341.5,0.17664
2335.71,0.17768
2329.92,0.17830
2324.14,0.17886
2318.35,0.17947
2312.57,0.17938
2306.78,0.17941
2300.99,0.17883
2295.21,0.17866
2289.42,0.17872
2283.63,0.17866
2277.85,0.17799
2272.06,0.17756
2266.28,0.17620
2260.49,0.17560
2254.7,0.17425
2248.92,0.17246
2243.13,0.17181
2237.34,0.17140
2231.56,0.17175
2225.77,0.17217
2219.99,0.17198
2214.2,0.17187
2208.41,0.17118
2202.63,0.16958
2196.84,0.16824
2191.05,0.16582
2185.27,0.16338
2179.48,0.16017
2173.7,0.15759
2167.91,0.15493
2162.12,0.15288
2156.34,0.15146
2150.55,0.15000
2144.76,0.14932
2138.98,0.14848
2133.19,0.14835
2127.41,0.14803
2121.62,0.14851
2115.83,0.14863
2110.05,0.14967
2104.26,0.15076
2098.47,0.15135
2092.69,0.15297
2086.9,0.15322
2081.12,0.15388
2075.33,0.15372
2069.54,0.15349
2063.76,0.15361
2057.97,0.15375
2052.19,0.15405
2046.4,0.15510
2040.61,0.15557
2034.83,0.15654
2029.04,0.15810
2023.25,0.16006
2017.47,0.16254
2011.68,0.16518
2005.9,0.16726
2000.11,0.16903
1994.32,0.17008
1988.54,0.17121
1982.75,0.17169
1976.96,0.17215
1971.18,0.17166
1965.39,0.17113
1959.61,0.17031
1953.82,0.16992
1948.03,0.17093
1942.25,0.17248
1936.46,0.17429
1930.67,0.17606
1924.89,0.17757
1919.1,0.17859
1913.32,0.17909
1907.53,0.17918
1901.74,0.17910
1895.96,0.17911
1890.17,0.17920
1884.38,0.17930
1878.6,0.17931
1872.81,0.17864
1867.03,0.17724
1861.24,0.17546
1855.45,0.17381
1849.67,0.17108
1843.88,0.16827
1838.09,0.16573
1832.31,0.16233
1826.52,0.15748
1820.74,0.15266
1814.95,0.14669
1809.16,0.13953
1803.38,0.13141
1797.59,0.12225
1791.8,0.11295
1786.02,0.10339
1780.23,0.09419
1774.45,0.08352
1768.66,0.07120
1762.87,0.06093
1757.09,0.05376
1751.3,0.04928
1745.51,0.04653
1739.73,0.04589
1733.94,0.04710
1728.16,0.04879
1722.37,0.05091
1716.58,0.05330
1710.8,0.05568
1705.01,0.05778
1699.22,0.05983
1693.44,0.06026
1687.65,0.06053
1681.87,0.05987
1676.08,0.05946
1670.29,0.05848
1664.51,0.05760
1658.72,0.05695
1652.93,0.05681
1647.15,0.05611
1641.36,0.05514
1635.58,0.05421
1629.79,0.05402
1624,0.05396
1618.22,0.05345
1612.43,0.05167
1606.64,0.05033
1600.86,0.05021
1595.07,0.05052
1589.29,0.05257
1583.5,0.05685
1577.71,0.06227
1571.93,0.06699
1566.14,0.07008
1560.35,0.07211
1554.57,0.07252
1548.78,0.07306
1543,0.07266
1537.21,0.07016
1531.42,0.06680
1525.64,0.06155
1519.85,0.05252
1514.07,0.04886
1508.28,0.04898
1502.49,0.04986
1496.71,0.05249
1490.92,0.05476
1485.13,0.05467
1479.35,0.05101
1473.56,0.04596
1467.78,0.04220
1461.99,0.04187
1456.2,0.04278
1450.42,0.04328
1444.63,0.04353
1438.84,0.04331
1433.06,0.04201
1427.27,0.04225
1421.49,0.04287
1415.7,0.04443
1409.91,0.04472
1404.13,0.04467
1398.34,0.04374
1392.55,0.04205
1386.77,0.04039
1380.98,0.03977
1375.2,0.03981
1369.41,0.04121
1363.62,0.04266
1357.84,0.04300
1352.05,0.04318
1346.26,0.04243
1340.48,0.04106
1334.69,0.04086
1328.91,0.04139
1323.12,0.04195
1317.33,0.04201
1311.55,0.04324
1305.76,0.04380
1299.97,0.04409
1294.19,0.04322
1288.4,0.04146
1282.62,0.03999
1276.83,0.03901
1271.04,0.03803
1265.26,0.03754
1259.47,0.03713
1253.68,0.03729
1247.9,0.03778
1242.11,0.03876
1236.33,0.04017
1230.54,0.04144
1224.75,0.04204
1218.97,0.04271
1213.18,0.04282
1207.39,0.04210
1201.61,0.04191
1195.82,0.04120
1190.04,0.03926
1184.25,0.03670
1178.46,0.03388
1172.68,0.03351
1166.89,0.03681
1161.1,0.03957
1155.32,0.04088
1149.53,0.03992
1143.75,0.03737
1137.96,0.03496
1132.17,0.03338
1126.39,0.03443
1120.6,0.03731
1114.81,0.03936
1109.03,0.04066
1103.24,0.04261
1097.46,0.04189
1091.67,0.04083
1085.88,0.04020
1080.1,0.04322
1074.31,0.04603
1068.52,0.05025
1062.74,0.05655
1056.95,0.06247
1051.17,0.06496
1045.38,0.06536
1039.59,0.06797
1033.81,0.07184
1028.02,0.07197
1022.24,0.07133
1016.45,0.07040
1010.66,0.06958
1004.88,0.06996
999.09,0.07032
993.304,0.07090
987.518,0.07304
981.731,0.07527
975.945,0.07745
970.159,0.07903
964.373,0.08135
958.586,0.08518
952.8,0.08824
947.014,0.09019
941.228,0.09062
935.441,0.08902
929.655,0.08769
923.869,0.08688
918.083,0.08648
912.297,0.08429
906.51,0.08111
900.724,0.07850
894.938,0.07989
889.152,0.08395
883.365,0.08682
877.579,0.08662
871.793,0.08594
866.007,0.08575
860.22,0.08619
854.434,0.08502
848.648,0.08397
842.862,0.08150
837.075,0.07990
831.289,0.08109
825.503,0.08247
819.717,0.08387
813.931,0.08398
808.144,0.08437
802.358,0.08431
796.572,0.08319
790.786,0.08315
784.999,0.08218
779.213,0.08062
773.427,0.07883
767.641,0.07697
761.854,0.07542
756.068,0.07357
750.282,0.07168
744.496,0.07056
738.709,0.06902
732.923,0.06678
727.137,0.06632
721.351,0.06575
715.565,0.06407
709.778,0.06484
703.992,0.06472
698.206,0.06391
692.42,0.06348
686.633,0.06085
680.847,0.05893
675.061,0.05797
669.275,0.05915
663.488,0.06017
657.702,0.06068
651.916,0.06004
646.13,0.05873
640.343,0.05893
634.557,0.05855
628.771,0.05836
622.985,0.05734
617.198,0.05832
611.412,0.05852
605.626,0.06254
599.84,0.06318