File: 01_Data/Bamboo_Rug/FTIR/IS/Bamboo_Rug_IS_S_220822_R3.dpt
7497.03,0.76217
7491.25,0.77286
7485.46,0.76379
7479.67,0.76087
7473.89,0.75842
7468.1,0.75406
7462.32,0.75226
7456.53,0.75141
7450.74,0.74910
7444.96,0.73229
7439.17,0.73978
7433.38,0.73217
7427.6,0.72880
7421.81,0.73473
7416.03,0.72066
7410.24,0.71950
7404.45,0.71168
7398.67,0.70984
7392.88,0.71101
7387.09,0.71910
7381.31,0.70696
7375.52,0.70794
7369.74,0.70386
7363.95,0.70192
7358.16,0.69237
7352.38,0.70883
7346.59,0.69572
7340.8,0.69617
7335.02,0.69263
7329.23,0.69362
7323.45,0.68649
7317.66,0.68814
7311.87,0.69062
7306.09,0.69272
7300.3,0.68604
7294.51,0.68470
7288.73,0.68420
7282.94,0.68096
7277.16,0.68243
7271.37,0.67789
7265.58,0.68443
7259.8,0.68683
7254.01,0.68288
7248.22,0.68703
7242.44,0.68259
7236.65,0.67557
7230.87,0.68054
7225.08,0.67510
7219.29,0.66835
7213.51,0.66695
7207.72,0.67156
7201.93,0.67062
7196.15,0.66763
7190.36,0.66627
7184.58,0.65897
7178.79,0.65744
7173,0.64783
7167.22,0.63288
7161.43,0.63967
7155.65,0.63738
7149.86,0.63220
7144.07,0.62680
7138.29,0.62171
7132.5,0.61947
7126.71,0.61481
7120.93,0.60447
7115.14,0.60235
7109.36,0.60318
7103.57,0.59277
7097.78,0.58735
7092,0.58675
7086.21,0.58061
7080.42,0.57585
7074.64,0.56830
7068.85,0.55896
7063.07,0.54747
7057.28,0.54452
7051.49,0.54101
7045.71,0.53316
7039.92,0.53000
7034.13,0.52657
7028.35,0.52323
7022.56,0.51861
7016.78,0.51782
7010.99,0.50507
7005.2,0.50819
6999.42,0.50351
6993.63,0.49947
6987.84,0.50080
6982.06,0.49488
6976.27,0.49369
6970.49,0.48968
6964.7,0.48849
6958.91,0.49046
6953.13,0.48841
6947.34,0.47753
6941.55,0.48659
6935.77,0.48054
6929.98,0.48181
6924.2,0.48810
6918.41,0.48153
6912.62,0.47800
6906.84,0.48115
6901.05,0.47596
6895.26,0.47763
6889.48,0.48272
6883.69,0.47295
6877.91,0.48368
6872.12,0.47886
6866.33,0.47541
6860.55,0.47783
6854.76,0.47110
6848.97,0.47060
6843.19,0.47412
6837.4,0.47530
6831.62,0.47308
6825.83,0.47169
6820.04,0.47674
6814.26,0.47485
6808.47,0.47502
6802.68,0.47919
6796.9,0.47653
6791.11,0.47776
6785.33,0.47342
6779.54,0.47942
6773.75,0.47600
6767.97,0.47690
6762.18,0.47735
6756.39,0.47566
6750.61,0.47799
6744.82,0.48190
6739.04,0.48664
6733.25,0.48159
6727.46,0.47591
6721.68,0.48417
6715.89,0.47682
6710.1,0.48185
6704.32,0.48098
6698.53,0.48105
6692.75,0.48106
6686.96,0.48866
6681.17,0.48952
6675.39,0.48949
6669.6,0.48908
6663.82,0.49065
6658.03,0.49104
6652.24,0.48840
6646.46,0.48984
6640.67,0.49452
6634.88,0.49364
6629.1,0.49661
6623.31,0.49560
6617.53,0.49457
6611.74,0.50264
6605.95,0.50127
6600.17,0.49861
6594.38,0.50062
6588.59,0.50622
6582.81,0.50461
6577.02,0.50556
6571.24,0.50654
6565.45,0.50545
6559.66,0.51033
6553.88,0.51131
6548.09,0.51179
6542.3,0.51373
6536.52,0.51563
6530.73,0.51505
6524.95,0.51328
6519.16,0.51457
6513.37,0.51634
6507.59,0.51591
6501.8,0.51720
6496.01,0.51970
6490.23,0.51607
6484.44,0.51530
6478.66,0.51635
6472.87,0.51803
6467.08,0.51769
6461.3,0.51766
6455.51,0.51966
6449.72,0.52051
6443.94,0.52112
6438.15,0.52101
6432.37,0.52123
6426.58,0.52057
6420.79,0.52204
6415.01,0.52107
6409.22,0.52385
6403.43,0.52341
6397.65,0.52533
6391.86,0.52418
6386.08,0.52674
6380.29,0.52777
6374.5,0.53031
6368.72,0.52980
6362.93,0.52580
6357.14,0.52727
6351.36,0.52883
6345.57,0.52545
6339.79,0.52731
6334,0.52698
6328.21,0.52868
6322.43,0.52790
6316.64,0.52963
6310.85,0.52924
6305.07,0.52961
6299.28,0.53121
6293.5,0.53215
6287.71,0.53511
6281.92,0.53395
6276.14,0.53773
6270.35,0.53866
6264.56,0.53902
6258.78,0.53791
6252.99,0.54095
6247.21,0.54413
6241.42,0.54806
6235.63,0.54539
6229.85,0.55069
6224.06,0.55078
6218.27,0.55360
6212.49,0.55550
6206.7,0.55393
6200.92,0.56057
6195.13,0.56023
6189.34,0.56100
6183.56,0.56477
6177.77,0.56245
6171.98,0.56634
6166.2,0.56879
6160.41,0.57035
6154.63,0.56578
6148.84,0.57073
6143.05,0.57082
6137.27,0.57485
6131.48,0.57490
6125.7,0.57658
6119.91,0.57602
6114.12,0.57581
6108.34,0.57473
6102.55,0.57476
6096.76,0.57897
6090.98,0.57941
6085.19,0.57921
6079.41,0.57817
6073.62,0.57522
6067.83,0.57526
6062.05,0.57508
6056.26,0.57594
6050.47,0.57364
6044.69,0.57473
6038.9,0.57295
6033.12,0.57078
6027.33,0.56872
6021.54,0.56704
6015.76,0.56288
6009.97,0.56036
6004.18,0.56045
5998.4,0.55803
5992.61,0.55835
5986.83,0.55873
5981.04,0.55308
5975.25,0.55149
5969.47,0.55347
5963.68,0.55200
5957.89,0.54974
5952.11,0.55090
5946.32,0.55124
5940.54,0.55255
5934.75,0.55376
5928.96,0.55275
5923.18,0.55207
5917.39,0.55197
5911.6,0.54785
5905.82,0.54628
5900.03,0.54550
5894.25,0.54613
5888.46,0.54434
5882.67,0.54532
5876.89,0.54721
5871.1,0.54629
5865.31,0.54433
5859.53,0.54591
5853.74,0.54455
5847.96,0.54256
5842.17,0.54256
5836.38,0.54343
5830.6,0.53980
5824.81,0.53903
5819.02,0.53594
5813.24,0.53688
5807.45,0.53566
5801.67,0.53364
5795.88,0.53423
5790.09,0.53731
5784.31,0.53866
5778.52,0.53916
5772.73,0.54009
5766.95,0.54264
5761.16,0.54526
5755.38,0.54487
5749.59,0.54460
5743.8,0.54468
5738.02,0.54442
5732.23,0.54558
5726.44,0.54548
5720.66,0.54374
5714.87,0.54487
5709.09,0.54416
5703.3,0.54602
5697.51,0.54286
5691.73,0.54436
5685.94,0.54164
5680.15,0.53923
5674.37,0.54161
5668.58,0.53922
5662.8,0.53916
5657.01,0.53785
5651.22,0.53853
5645.44,0.53894
5639.65,0.53628
5633.87,0.53759
5628.08,0.53792
5622.29,0.53810
5616.51,0.53840
5610.72,0.53591
5604.93,0.53898
5599.15,0.53595
5593.36,0.53759
5587.58,0.53767
5581.79,0.53829
5576,0.53805
5570.22,0.54103
5564.43,0.54303
5558.64,0.54212
5552.86,0.54273
5547.07,0.54354
5541.29,0.54373
5535.5,0.54542
5529.71,0.54380
5523.93,0.54636
5518.14,0.54678
5512.35,0.54835
5506.57,0.54802
5500.78,0.54697
5495,0.54811
5489.21,0.54680
5483.42,0.54970
5477.64,0.54947
5471.85,0.54966
5466.06,0.55177
5460.28,0.55194
5454.49,0.55232
5448.71,0.55501
5442.92,0.55689
5437.13,0.55662
5431.35,0.55734
5425.56,0.55966
5419.77,0.56207
5413.99,0.56227
5408.2,0.56340
5402.42,0.56209
5396.63,0.56250
5390.84,0.56480
5385.06,0.56230
5379.27,0.56133
5373.48,0.56025
5367.7,0.56146
5361.91,0.56110
5356.13,0.55757
5350.34,0.55661
5344.55,0.55457
5338.77,0.55286
5332.98,0.54781
5327.19,0.54358
5321.41,0.53738
5315.62,0.53047
5309.84,0.52485
5304.05,0.51609
5298.26,0.50512
5292.48,0.49419
5286.69,0.48094
5280.9,0.46750
5275.12,0.45583
5269.33,0.44230
5263.55,0.42826
5257.76,0.41600
5251.97,0.40302
5246.19,0.39363
5240.4,0.38562
5234.61,0.37730
5228.83,0.37087
5223.04,0.36949
5217.26,0.36549
5211.47,0.36075
5205.68,0.35930
5199.9,0.35835
5194.11,0.35866
5188.32,0.35888
5182.54,0.35898
5176.75,0.36190
5170.97,0.36310
5165.18,0.36599
5159.39,0.36830
5153.61,0.37379
5147.82,0.37505
5142.03,0.37937
5136.25,0.38191
5130.46,0.38599
5124.68,0.38959
5118.89,0.39244
5113.1,0.39550
5107.32,0.40100
5101.53,0.40477
5095.75,0.40592
5089.96,0.40916
5084.17,0.41370
5078.39,0.41680
5072.6,0.42039
5066.81,0.42244
5061.03,0.42670
5055.24,0.42931
5049.46,0.43189
5043.67,0.43496
5037.88,0.43791
5032.1,0.43933
5026.31,0.44250
5020.52,0.44439
5014.74,0.44631
5008.95,0.44707
5003.17,0.44860
4997.38,0.44937
4991.59,0.45002
4985.81,0.44981
4980.02,0.44949
4974.23,0.44822
4968.45,0.44788
4962.66,0.44589
4956.88,0.44195
4951.09,0.43801
4945.3,0.43538
4939.52,0.43157
4933.73,0.42666
4927.94,0.42105
4922.16,0.41735
4916.37,0.41113
4910.59,0.40584
4904.8,0.40091
4899.01,0.39541
4893.23,0.39080
4887.44,0.38625
4881.65,0.38108
4875.87,0.37721
4870.08,0.37297
4864.3,0.36786
4858.51,0.36338
4852.72,0.35977
4846.94,0.35670
4841.15,0.35217
4835.36,0.34866
4829.58,0.34745
4823.79,0.34379
4818.01,0.34154
4812.22,0.33941
4806.43,0.33799
4800.65,0.33747
4794.86,0.33620
4789.07,0.33446
4783.29,0.33354
4777.5,0.33230
4771.72,0.33190
4765.93,0.33217
4760.14,0.33164
4754.36,0.33126
4748.57,0.32962
4742.78,0.33074
4737,0.33119
4731.21,0.33056
4725.43,0.33165
4719.64,0.33204
4713.85,0.33302
4708.07,0.33254
4702.28,0.33393
4696.49,0.33433
4690.71,0.33625
4684.92,0.33645
4679.14,0.33847
4673.35,0.33903
4667.56,0.34263
4661.78,0.34535
4655.99,0.34717
4650.2,0.34993
4644.42,0.35215
4638.63,0.35414
4632.85,0.35687
4627.06,0.35810
4621.27,0.36008
4615.49,0.36265
4609.7,0.36437
4603.92,0.36618
4598.13,0.36914
4592.34,0.37158
4586.56,0.37175
4580.77,0.37375
4574.98,0.37654
4569.2,0.37663
4563.41,0.37719
4557.63,0.37874
4551.84,0.38103
4546.05,0.38173
4540.27,0.38314
4534.48,0.38432
4528.69,0.38467
4522.91,0.38524
4517.12,0.38503
4511.34,0.38442
4505.55,0.38356
4499.76,0.38132
4493.98,0.37817
4488.19,0.37321
4482.4,0.36828
4476.62,0.36209
4470.83,0.35476
4465.05,0.34745
4459.26,0.34020
4453.47,0.33288
4447.69,0.32514
4441.9,0.31783
4436.11,0.31233
4430.33,0.30682
4424.54,0.30266
4418.76,0.29918
4412.97,0.29622
4407.18,0.29482
4401.4,0.29344
4395.61,0.29224
4389.82,0.29352
4384.04,0.29502
4378.25,0.29721
4372.47,0.29850
4366.68,0.30072
4360.89,0.30229
4355.11,0.30126
4349.32,0.30022
4343.53,0.29848
4337.75,0.29689
4331.96,0.29403
4326.18,0.29248
4320.39,0.29019
4314.6,0.28778
4308.82,0.28524
4303.03,0.28341
4297.24,0.28234
4291.46,0.28156
4285.67,0.28149
4279.89,0.28068
4274.1,0.28129
4268.31,0.28266
4262.53,0.28357
4256.74,0.28491
4250.95,0.28533
4245.17,0.28564
4239.38,0.28611
4233.6,0.28653
4227.81,0.28839
4222.02,0.28842
4216.24,0.28855
4210.45,0.28829
4204.66,0.28852
4198.88,0.28924
4193.09,0.28981
4187.31,0.28972
4181.52,0.29018
4175.73,0.29056
4169.95,0.29132
4164.16,0.29198
4158.37,0.29087
4152.59,0.28940
4146.8,0.28822
4141.02,0.28640
4135.23,0.28366
4129.44,0.27967
4123.66,0.27652
4117.87,0.27235
4112.09,0.26839
4106.3,0.26485
4100.51,0.26104
4094.73,0.25645
4088.94,0.25204
4083.15,0.24791
4077.37,0.24293
4071.58,0.23911
4065.8,0.23408
4060.01,0.22928
4054.22,0.22612
4048.44,0.22249
4042.65,0.21905
4036.86,0.21587
4031.08,0.21390
4025.29,0.21207
4019.51,0.21079
4013.72,0.20971
4007.93,0.21040
4002.15,0.21072
3996.36,0.21208
3990.57,0.21345
3984.79,0.21432
3979,0.21506
3973.22,0.21668
3967.43,0.21877
3961.64,0.22031
3955.86,0.22245
3950.07,0.22405
3944.28,0.22639
3938.5,0.22813
3932.71,0.23069
3926.93,0.23241
3921.14,0.23512
3915.35,0.23751
3909.57,0.23902
3903.78,0.24135
3897.99,0.24366
3892.21,0.24549
3886.42,0.24749
3880.64,0.24899
3874.85,0.25154
3869.06,0.25389
3863.28,0.25597
3857.49,0.25871
3851.7,0.26009
3845.92,0.26325
3840.13,0.26465
3834.35,0.26560
3828.56,0.26692
3822.77,0.26757
3816.99,0.26677
3811.2,0.26658
3805.41,0.26630
3799.63,0.26516
3793.84,0.26446
3788.06,0.26352
3782.27,0.26250
3776.48,0.26072
3770.7,0.25889
3764.91,0.25675
3759.12,0.25433
3753.34,0.25341
3747.55,0.25016
3741.77,0.24607
3735.98,0.24336
3730.19,0.23879
3724.41,0.23445
3718.62,0.22922
3712.83,0.22320
3707.05,0.21508
3701.26,0.20657
3695.48,0.19602
3689.69,0.18423
3683.9,0.17203
3678.12,0.15935
3672.33,0.14487
3666.54,0.13195
3660.76,0.12102
3654.97,0.11139
3649.19,0.10267
3643.4,0.09624
3637.61,0.09042
3631.83,0.08538
3626.04,0.08128
3620.25,0.07715
3614.47,0.07349
3608.68,0.07017
3602.9,0.06658
3597.11,0.06424
3591.32,0.06177
3585.54,0.05952
3579.75,0.05733
3573.97,0.05562
3568.18,0.05374
3562.39,0.05187
3556.61,0.05072
3550.82,0.04857
3545.03,0.04842
3539.25,0.04719
3533.46,0.04641
3527.68,0.04492
3521.89,0.04471
3516.1,0.04385
3510.32,0.04283
3504.53,0.04209
3498.74,0.04190
3492.96,0.04127
3487.17,0.04089
3481.39,0.04089
3475.6,0.04043
3469.81,0.03958
3464.03,0.03978
3458.24,0.03932
3452.45,0.03917
3446.67,0.03940
3440.88,0.03911
3435.1,0.03863
3429.31,0.03891
3423.52,0.03868
3417.74,0.03925
3411.95,0.03918
3406.16,0.04017
3400.38,0.03998
3394.59,0.04035
3388.81,0.04034
3383.02,0.04113
3377.23,0.04072
3371.45,0.04137
3365.66,0.04182
3359.87,0.04235
3354.09,0.04198
3348.3,0.04302
3342.52,0.04295
3336.73,0.04358
3330.94,0.04414
3325.16,0.04440
3319.37,0.04511
3313.58,0.04543
3307.8,0.04597
3302.01,0.04557
3296.23,0.04633
3290.44,0.04648
3284.65,0.04758
3278.87,0.04775
3273.08,0.04817
3267.29,0.04952
3261.51,0.04976
3255.72,0.05083
3249.94,0.05127
3244.15,0.05238
3238.36,0.05251
3232.58,0.05359
3226.79,0.05471
3221,0.05540
3215.22,0.05592
3209.43,0.05615
3203.65,0.05755
3197.86,0.05798
3192.07,0.05891
3186.29,0.05970
3180.5,0.06074
3174.71,0.06135
3168.93,0.06232
3163.14,0.06297
3157.36,0.06384
3151.57,0.06429
3145.78,0.06585
3140,0.06700
3134.21,0.06786
3128.42,0.06863
3122.64,0.06940
3116.85,0.07022
3111.07,0.07136
3105.28,0.07199
3099.49,0.07321
3093.71,0.07326
3087.92,0.07448
3082.14,0.07471
3076.35,0.07576
3070.56,0.07631
3064.78,0.07691
3058.99,0.07830
3053.2,0.07914
3047.42,0.07958
3041.63,0.08063
3035.85,0.08122
3030.06,0.08012
3024.27,0.08060
3018.49,0.07955
3012.7,0.07858
3006.91,0.07790
3001.13,0.07620
2995.34,0.07514
2989.56,0.07421
2983.77,0.07136
2977.98,0.06857
2972.2,0.06562
2966.41,0.06354
2960.62,0.06204
2954.84,0.06022
2949.05,0.05849
2943.27,0.05722
2937.48,0.05689
2931.69,0.05696
2925.91,0.05735
2920.12,0.05729
2914.33,0.05726
2908.55,0.05721
2902.76,0.05771
2896.98,0.05786
2891.19,0.05969
2885.4,0.06003
2879.62,0.06073
2873.83,0.06104
2868.04,0.06205
2862.26,0.06345
2856.47,0.06498
2850.69,0.06644
2844.9,0.06890
2839.11,0.07201
2833.33,0.07571
2827.54,0.07908
2821.75,0.08160
2815.97,0.08409
2810.18,0.08624
2804.4,0.08788
2798.61,0.08962
2792.82,0.09074
2787.04,0.09162
2781.25,0.09284
2775.46,0.09372
2769.68,0.09459
2763.89,0.09482
2758.11,0.09539
2752.32,0.09608
2746.53,0.09666
2740.75,0.09696
2734.96,0.09757
2729.17,0.09826
2723.39,0.09871
2717.6,0.09965
2711.82,0.10081
2706.03,0.10173
2700.24,0.10302
2694.46,0.10412
2688.67,0.10550
2682.88,0.10581
2677.1,0.10755
2671.31,0.10849
2665.53,0.10950
2659.74,0.11032
2653.95,0.11112
2648.17,0.11200
2642.38,0.11277
2636.59,0.11371
2630.81,0.11497
2625.02,0.11589
2619.24,0.11747
2613.45,0.11859
2607.66,0.11954
2601.88,0.12026
2596.09,0.12142
2590.3,0.12208
2584.52,0.12309
2578.73,0.12390
2572.95,0.12454
2567.16,0.12476
2561.37,0.12582
2555.59,0.12627
2549.8,0.12680
2544.02,0.12725
2538.23,0.12764
2532.44,0.12821
2526.66,0.12898
2520.87,0.12970
2515.08,0.13070
2509.3,0.13149
2503.51,0.13274
2497.73,0.13419
2491.94,0.13520
2486.15,0.13653
2480.37,0.13753
2474.58,0.13869
2468.79,0.13999
2463.01,0.14094
2457.22,0.14251
2451.44,0.14363
2445.65,0.14565
2439.86,0.14703
2434.08,0.14865
2428.29,0.15074
2422.5,0.15272
2416.72,0.15465
2410.93,0.15665
2405.15,0.15887
2399.36,0.16080
2393.57,0.16257
2387.79,0.16432
2382,0.16570
2376.21,0.16706
2370.43,0.16833
2364.64,0.16954
2358.86,0.17103
2353.07,0.17220
2347.28,0.17330
2341.5,0.17452
2335.71,0.17532
2329.92,0.17571
2324.14,0.17698
2318.35,0.17684
2312.57,0.17640
2306.78,0.17672
2300.99,0.17623
2295.21,0.17626
2289.42,0.17602
2283.63,0.17590
2277.85,0.17588
2272.06,0.17514
2266.28,0.17380
2260.49,0.17297
2254.7,0.17140
2248.92,0.17030
2243.13,0.16950
2237.34,0.16896
2231.56,0.16887
2225.77,0.16894
2219.99,0.16918
2214.2,0.16903
2208.41,0.16824
2202.63,0.16683
2196.84,0.16537
2191.05,0.16284
2185.27,0.16054
2179.48,0.15750
2173.7,0.15494
2167.91,0.15236
2162.12,0.14999
2156.34,0.14791
2150.55,0.14714
2144.76,0.14650
2138.98,0.14613
2133.19,0.14588
2127.41,0.14571
2121.62,0.14583
2115.83,0.14639
2110.05,0.14716
2104.26,0.14786
2098.47,0.14860
2092.69,0.14990
2086.9,0.15020
2081.12,0.15119
2075.33,0.15108
2069.54,0.15078
2063.76,0.15064
2057.97,0.15092
2052.19,0.15154
2046.4,0.15187
2040.61,0.15291
2034.83,0.15392
2029.04,0.15503
2023.25,0.15694
2017.47,0.15945
2011.68,0.16175
2005.9,0.16406
2000.11,0.16568
1994.32,0.16703
1988.54,0.16833
1982.75,0.16857
1976.96,0.16887
1971.18,0.16889
1965.39,0.16797
1959.61,0.16737
1953.82,0.16712
1948.03,0.16794
1942.25,0.16937
1936.46,0.17112
1930.67,0.17325
1924.89,0.17496
1919.1,0.17576
1913.32,0.17634
1907.53,0.17616
1901.74,0.17659
1895.96,0.17638
1890.17,0.17620
1884.38,0.17647
1878.6,0.17623
1872.81,0.17577
1867.03,0.17441
1861.24,0.17302
1855.45,0.17087
1849.67,0.16863
1843.88,0.16603
1838.09,0.16339
1832.31,0.15981
1826.52,0.15543
1820.74,0.15055
1814.95,0.14488
1809.16,0.13813
1803.38,0.13008
1797.59,0.12137
1791.8,0.11248
1786.02,0.10335
1780.23,0.09424
1774.45,0.08416
1768.66,0.07162
1762.87,0.06117
1757.09,0.05390
1751.3,0.04880
1745.51,0.04634
1739.73,0.04590
1733.94,0.04680
1728.16,0.04843
1722.37,0.05069
1716.58,0.05262
1710.8,0.05466
1705.01,0.05730
1699.22,0.05852
1693.44,0.05931
1687.65,0.05956
1681.87,0.05902
1676.08,0.05827
1670.29,0.05754
1664.51,0.05657
1658.72,0.05578
1652.93,0.05526
1647.15,0.05531
1641.36,0.05469
1635.58,0.05364
1629.79,0.05373
1624,0.05375
1618.22,0.05344
1612.43,0.05174
1606.64,0.05002
1600.86,0.04986
1595.07,0.05020
1589.29,0.05299
1583.5,0.05702
1577.71,0.06156
1571.93,0.06643
1566.14,0.06978
1560.35,0.07092
1554.57,0.07230
1548.78,0.07238
1543,0.07199
1537.21,0.06980
1531.42,0.06652
1525.64,0.06104
1519.85,0.05211
1514.07,0.04860
1508.28,0.04926
1502.49,0.04959
1496.71,0.05229
1490.92,0.05490
1485.13,0.05439
1479.35,0.05098
1473.56,0.04598
1467.78,0.04210
1461.99,0.04204
1456.2,0.04305
1450.42,0.04352
1444.63,0.04375
1438.84,0.04304
1433.06,0.04197
1427.27,0.04216
1421.49,0.04323
1415.7,0.04445
1409.91,0.04516
1404.13,0.04447
1398.34,0.04396
1392.55,0.04218
1386.77,0.04075
1380.98,0.03976
1375.2,0.04033
1369.41,0.04128
1363.62,0.04285
1357.84,0.04335
1352.05,0.04321
1346.26,0.04251
1340.48,0.04147
1334.69,0.04108
1328.91,0.04104
1323.12,0.04134
1317.33,0.04200
1311.55,0.04328
1305.76,0.04379
1299.97,0.04383
1294.19,0.04330
1288.4,0.04137
1282.62,0.04030
1276.83,0.03918
1271.04,0.03779
1265.26,0.03718
1259.47,0.03688
1253.68,0.03717
1247.9,0.03757
1242.11,0.03872
1236.33,0.04026
1230.54,0.04149
1224.75,0.04259
1218.97,0.04288
1213.18,0.04290
1207.39,0.04176
1201.61,0.04146
1195.82,0.04085
1190.04,0.03931
1184.25,0.03650
1178.46,0.03433
1172.68,0.03360
1166.89,0.03687
1161.1,0.04030
1155.32,0.04051
1149.53,0.03956
1143.75,0.03825
1137.96,0.03515
1132.17,0.03316
1126.39,0.03462
1120.6,0.03617
1114.81,0.03866
1109.03,0.04140
1103.24,0.04204
1097.46,0.04152
1091.67,0.04025
1085.88,0.04027
1080.1,0.04268
1074.31,0.04645
1068.52,0.05051
1062.74,0.05636
1056.95,0.06196
1051.17,0.06500
1045.38,0.06570
1039.59,0.06830
1033.81,0.07172
1028.02,0.07227
1022.24,0.07142
1016.45,0.07078
1010.66,0.06975
1004.88,0.06996
999.09,0.07019
993.304,0.07067
987.518,0.07359
981.731,0.07610
975.945,0.07777
970.159,0.07849
964.373,0.08116
958.586,0.08476
952.8,0.08784
947.014,0.09070
941.228,0.09009
935.441,0.08872
929.655,0.08764
923.869,0.08671
918.083,0.08612
912.297,0.08327
906.51,0.08043
900.724,0.07751
894.938,0.07892
889.152,0.08379
883.365,0.08596
877.579,0.08557
871.793,0.08439
866.007,0.08470
860.22,0.08556
854.434,0.08541
848.648,0.08322
842.862,0.08107
837.075,0.07941
831.289,0.07959
825.503,0.08182
819.717,0.08264
813.931,0.08263
808.144,0.08273
802.358,0.08310
796.572,0.08284
790.786,0.08159
784.999,0.08040
779.213,0.07928
773.427,0.07680
767.641,0.07546
761.854,0.07331
756.068,0.07255
750.282,0.07150
744.496,0.06961
738.709,0.06761
732.923,0.06716
727.137,0.06573
721.351,0.06501
715.565,0.06433
709.778,0.06423
703.992,0.06336
698.206,0.06337
692.42,0.06314
686.633,0.06023
680.847,0.05993
675.061,0.05852
669.275,0.05858
663.488,0.05923
657.702,0.06013
651.916,0.05955
646.13,0.05835
640.343,0.05785
634.557,0.05702
628.771,0.05499
622.985,0.05693
617.198,0.05564
611.412,0.05709
605.626,0.05981
599.84,0.06001