File: 01_Data/Bamboo_Rug/FTIR/IS/Bamboo_Rug_IS_T_220822_R6.dpt
7497.03,0.02061
7491.25,0.01512
7485.46,0.01914
7479.67,0.02310
7473.89,0.02467
7468.1,0.02220
7462.32,0.02728
7456.53,0.02849
7450.74,0.01790
7444.96,0.02380
7439.17,0.02812
7433.38,0.02465
7427.6,0.02817
7421.81,0.02809
7416.03,0.02704
7410.24,0.03126
7404.45,0.02386
7398.67,0.01976
7392.88,0.01523
7387.09,0.02530
7381.31,0.02045
7375.52,0.01610
7369.74,0.01613
7363.95,0.02485
7358.16,0.01604
7352.38,0.02959
7346.59,0.02162
7340.8,0.02383
7335.02,0.02826
7329.23,0.02001
7323.45,0.02425
7317.66,0.02909
7311.87,0.03331
7306.09,0.01675
7300.3,0.03255
7294.51,0.01928
7288.73,0.01956
7282.94,0.02302
7277.16,0.02326
7271.37,0.03075
7265.58,0.02442
7259.8,0.02406
7254.01,0.02162
7248.22,0.02249
7242.44,0.01363
7236.65,0.02086
7230.87,0.02378
7225.08,0.01730
7219.29,0.01935
7213.51,0.02452
7207.72,0.02040
7201.93,0.02138
7196.15,0.01592
7190.36,0.02620
7184.58,0.02236
7178.79,0.02430
7173,0.01704
7167.22,0.02602
7161.43,0.02423
7155.65,0.01551
7149.86,0.02270
7144.07,0.02032
7138.29,0.01816
7132.5,0.01896
7126.71,0.01661
7120.93,0.02305
7115.14,0.02365
7109.36,0.01951
7103.57,0.02047
7097.78,0.01794
7092,0.02533
7086.21,0.01741
7080.42,0.01892
7074.64,0.02498
7068.85,0.01569
7063.07,0.02149
7057.28,0.01823
7051.49,0.02714
7045.71,0.01714
7039.92,0.02103
7034.13,0.01924
7028.35,0.02405
7022.56,0.02640
7016.78,0.02553
7010.99,0.02543
7005.2,0.01763
6999.42,0.02079
6993.63,0.01840
6987.84,0.01722
6982.06,0.02134
6976.27,0.01841
6970.49,0.01667
6964.7,0.02281
6958.91,0.01664
6953.13,0.01701
6947.34,0.02021
6941.55,0.01612
6935.77,0.02058
6929.98,0.02143
6924.2,0.02026
6918.41,0.02254
6912.62,0.02159
6906.84,0.02364
6901.05,0.01780
6895.26,0.01894
6889.48,0.01924
6883.69,0.02049
6877.91,0.02569
6872.12,0.02404
6866.33,0.01705
6860.55,0.02607
6854.76,0.01572
6848.97,0.01787
6843.19,0.01971
6837.4,0.02223
6831.62,0.02153
6825.83,0.02696
6820.04,0.02355
6814.26,0.01991
6808.47,0.02414
6802.68,0.02440
6796.9,0.02147
6791.11,0.02157
6785.33,0.02380
6779.54,0.02209
6773.75,0.01971
6767.97,0.01900
6762.18,0.02023
6756.39,0.01997
6750.61,0.02159
6744.82,0.02093
6739.04,0.02446
6733.25,0.02569
6727.46,0.02154
6721.68,0.01991
6715.89,0.02109
6710.1,0.02401
6704.32,0.02074
6698.53,0.01328
6692.75,0.01675
6686.96,0.01797
6681.17,0.01577
6675.39,0.01615
6669.6,0.01613
6663.82,0.02030
6658.03,0.01690
6652.24,0.01799
6646.46,0.01703
6640.67,0.02018
6634.88,0.01861
6629.1,0.02043
6623.31,0.01852
6617.53,0.02206
6611.74,0.01920
6605.95,0.01978
6600.17,0.02175
6594.38,0.02165
6588.59,0.02058
6582.81,0.02045
6577.02,0.02256
6571.24,0.01899
6565.45,0.01858
6559.66,0.02073
6553.88,0.02328
6548.09,0.02455
6542.3,0.01601
6536.52,0.01808
6530.73,0.02141
6524.95,0.01980
6519.16,0.01835
6513.37,0.01968
6507.59,0.01812
6501.8,0.01473
6496.01,0.01734
6490.23,0.01922
6484.44,0.01784
6478.66,0.02161
6472.87,0.01906
6467.08,0.01886
6461.3,0.01938
6455.51,0.01493
6449.72,0.01714
6443.94,0.02254
6438.15,0.01919
6432.37,0.01887
6426.58,0.01653
6420.79,0.01532
6415.01,0.01919
6409.22,0.01832
6403.43,0.02134
6397.65,0.01652
6391.86,0.01618
6386.08,0.01457
6380.29,0.01601
6374.5,0.02004
6368.72,0.02101
6362.93,0.01930
6357.14,0.01688
6351.36,0.01774
6345.57,0.01806
6339.79,0.02210
6334,0.01752
6328.21,0.01925
6322.43,0.01982
6316.64,0.02118
6310.85,0.01958
6305.07,0.02016
6299.28,0.02506
6293.5,0.01789
6287.71,0.02012
6281.92,0.01933
6276.14,0.01727
6270.35,0.02044
6264.56,0.02054
6258.78,0.02193
6252.99,0.02017
6247.21,0.01830
6241.42,0.01764
6235.63,0.01652
6229.85,0.01955
6224.06,0.01675
6218.27,0.01904
6212.49,0.01915
6206.7,0.01287
6200.92,0.01723
6195.13,0.02140
6189.34,0.02095
6183.56,0.01750
6177.77,0.01944
6171.98,0.01847
6166.2,0.01825
6160.41,0.01972
6154.63,0.02180
6148.84,0.01984
6143.05,0.02115
6137.27,0.01799
6131.48,0.01959
6125.7,0.01991
6119.91,0.01989
6114.12,0.01841
6108.34,0.01955
6102.55,0.01908
6096.76,0.02005
6090.98,0.01936
6085.19,0.02055
6079.41,0.01924
6073.62,0.01826
6067.83,0.02241
6062.05,0.01956
6056.26,0.01910
6050.47,0.01699
6044.69,0.01902
6038.9,0.01838
6033.12,0.01847
6027.33,0.01783
6021.54,0.01752
6015.76,0.01717
6009.97,0.02014
6004.18,0.01988
5998.4,0.02086
5992.61,0.02003
5986.83,0.01900
5981.04,0.01826
5975.25,0.01917
5969.47,0.01905
5963.68,0.01927
5957.89,0.01885
5952.11,0.01826
5946.32,0.01773
5940.54,0.01916
5934.75,0.02216
5928.96,0.01912
5923.18,0.01982
5917.39,0.01669
5911.6,0.01811
5905.82,0.01922
5900.03,0.02004
5894.25,0.02027
5888.46,0.01777
5882.67,0.01843
5876.89,0.01861
5871.1,0.01819
5865.31,0.01883
5859.53,0.01777
5853.74,0.01927
5847.96,0.01768
5842.17,0.02026
5836.38,0.01888
5830.6,0.01895
5824.81,0.01739
5819.02,0.01747
5813.24,0.01899
5807.45,0.01954
5801.67,0.01734
5795.88,0.01741
5790.09,0.01875
5784.31,0.01927
5778.52,0.01863
5772.73,0.01929
5766.95,0.01955
5761.16,0.01926
5755.38,0.02015
5749.59,0.01697
5743.8,0.02136
5738.02,0.02205
5732.23,0.01989
5726.44,0.02013
5720.66,0.01924
5714.87,0.01769
5709.09,0.01882
5703.3,0.01940
5697.51,0.01948
5691.73,0.01969
5685.94,0.02077
5680.15,0.01998
5674.37,0.01990
5668.58,0.01995
5662.8,0.01883
5657.01,0.02078
5651.22,0.01890
5645.44,0.01851
5639.65,0.01846
5633.87,0.02083
5628.08,0.01877
5622.29,0.01720
5616.51,0.01873
5610.72,0.01920
5604.93,0.01893
5599.15,0.01936
5593.36,0.01899
5587.58,0.01846
5581.79,0.01945
5576,0.01962
5570.22,0.01937
5564.43,0.01865
5558.64,0.01946
5552.86,0.01930
5547.07,0.02091
5541.29,0.01935
5535.5,0.01838
5529.71,0.01768
5523.93,0.01816
5518.14,0.02167
5512.35,0.01929
5506.57,0.01839
5500.78,0.01967
5495,0.01871
5489.21,0.01889
5483.42,0.01848
5477.64,0.01935
5471.85,0.01877
5466.06,0.02018
5460.28,0.01794
5454.49,0.01972
5448.71,0.01927
5442.92,0.01939
5437.13,0.01843
5431.35,0.01957
5425.56,0.01934
5419.77,0.01888
5413.99,0.01904
5408.2,0.01861
5402.42,0.01788
5396.63,0.01839
5390.84,0.01954
5385.06,0.01991
5379.27,0.01806
5373.48,0.02035
5367.7,0.01932
5361.91,0.02029
5356.13,0.01956
5350.34,0.01826
5344.55,0.01887
5338.77,0.01791
5332.98,0.01935
5327.19,0.02017
5321.41,0.01975
5315.62,0.01875
5309.84,0.01966
5304.05,0.01926
5298.26,0.01711
5292.48,0.01769
5286.69,0.01863
5280.9,0.01790
5275.12,0.02024
5269.33,0.01870
5263.55,0.01866
5257.76,0.02096
5251.97,0.01967
5246.19,0.01990
5240.4,0.01831
5234.61,0.02058
5228.83,0.01940
5223.04,0.01786
5217.26,0.01856
5211.47,0.01966
5205.68,0.02015
5199.9,0.02032
5194.11,0.02016
5188.32,0.02024
5182.54,0.01993
5176.75,0.01818
5170.97,0.02027
5165.18,0.01860
5159.39,0.01930
5153.61,0.02082
5147.82,0.02036
5142.03,0.01998
5136.25,0.01970
5130.46,0.01948
5124.68,0.01911
5118.89,0.02021
5113.1,0.02033
5107.32,0.01880
5101.53,0.01911
5095.75,0.01908
5089.96,0.02046
5084.17,0.01993
5078.39,0.01994
5072.6,0.01935
5066.81,0.01974
5061.03,0.01821
5055.24,0.01862
5049.46,0.01893
5043.67,0.01914
5037.88,0.01959
5032.1,0.02050
5026.31,0.02012
5020.52,0.01829
5014.74,0.01969
5008.95,0.01942
5003.17,0.01933
4997.38,0.01974
4991.59,0.01796
4985.81,0.01811
4980.02,0.01846
4974.23,0.01902
4968.45,0.01974
4962.66,0.01839
4956.88,0.01908
4951.09,0.01961
4945.3,0.01975
4939.52,0.01888
4933.73,0.02041
4927.94,0.01921
4922.16,0.01881
4916.37,0.01847
4910.59,0.01859
4904.8,0.01915
4899.01,0.02003
4893.23,0.01895
4887.44,0.01919
4881.65,0.01835
4875.87,0.01962
4870.08,0.01853
4864.3,0.01896
4858.51,0.01892
4852.72,0.01905
4846.94,0.01890
4841.15,0.01908
4835.36,0.01999
4829.58,0.01980
4823.79,0.01941
4818.01,0.02025
4812.22,0.01998
4806.43,0.01951
4800.65,0.01932
4794.86,0.01986
4789.07,0.01993
4783.29,0.01980
4777.5,0.02009
4771.72,0.02019
4765.93,0.01920
4760.14,0.01872
4754.36,0.01960
4748.57,0.01917
4742.78,0.01954
4737,0.01940
4731.21,0.02009
4725.43,0.01925
4719.64,0.01952
4713.85,0.01981
4708.07,0.01933
4702.28,0.01938
4696.49,0.01868
4690.71,0.01899
4684.92,0.01942
4679.14,0.01942
4673.35,0.02004
4667.56,0.01931
4661.78,0.01922
4655.99,0.01893
4650.2,0.01952
4644.42,0.01940
4638.63,0.01853
4632.85,0.01904
4627.06,0.02057
4621.27,0.01991
4615.49,0.01971
4609.7,0.02024
4603.92,0.02018
4598.13,0.01907
4592.34,0.01887
4586.56,0.01983
4580.77,0.01879
4574.98,0.01914
4569.2,0.01974
4563.41,0.01941
4557.63,0.01919
4551.84,0.01975
4546.05,0.01875
4540.27,0.01938
4534.48,0.01930
4528.69,0.01880
4522.91,0.01919
4517.12,0.01929
4511.34,0.01905
4505.55,0.01923
4499.76,0.01912
4493.98,0.01939
4488.19,0.01931
4482.4,0.01989
4476.62,0.01963
4470.83,0.01917
4465.05,0.02010
4459.26,0.01964
4453.47,0.01959
4447.69,0.01893
4441.9,0.01905
4436.11,0.01997
4430.33,0.01929
4424.54,0.01916
4418.76,0.01946
4412.97,0.01952
4407.18,0.02028
4401.4,0.01933
4395.61,0.01931
4389.82,0.01860
4384.04,0.01957
4378.25,0.01971
4372.47,0.01953
4366.68,0.01938
4360.89,0.01924
4355.11,0.01930
4349.32,0.01981
4343.53,0.01932
4337.75,0.01971
4331.96,0.01950
4326.18,0.01971
4320.39,0.01956
4314.6,0.01953
4308.82,0.01948
4303.03,0.01890
4297.24,0.01965
4291.46,0.01922
4285.67,0.01934
4279.89,0.01997
4274.1,0.01903
4268.31,0.01962
4262.53,0.01939
4256.74,0.01860
4250.95,0.01947
4245.17,0.01920
4239.38,0.01881
4233.6,0.01949
4227.81,0.02002
4222.02,0.01891
4216.24,0.01889
4210.45,0.01927
4204.66,0.01885
4198.88,0.01961
4193.09,0.01873
4187.31,0.01927
4181.52,0.01977
4175.73,0.02041
4169.95,0.02001
4164.16,0.01902
4158.37,0.01979
4152.59,0.01977
4146.8,0.01957
4141.02,0.01921
4135.23,0.02003
4129.44,0.01946
4123.66,0.01923
4117.87,0.01943
4112.09,0.01966
4106.3,0.01960
4100.51,0.01982
4094.73,0.01937
4088.94,0.02014
4083.15,0.01943
4077.37,0.01954
4071.58,0.01995
4065.8,0.01967
4060.01,0.01899
4054.22,0.01951
4048.44,0.01927
4042.65,0.01986
4036.86,0.01973
4031.08,0.02007
4025.29,0.01993
4019.51,0.01973
4013.72,0.01956
4007.93,0.02035
4002.15,0.01960
3996.36,0.01946
3990.57,0.01941
3984.79,0.01920
3979,0.01976
3973.22,0.01976
3967.43,0.01913
3961.64,0.01965
3955.86,0.01956
3950.07,0.01937
3944.28,0.01957
3938.5,0.01894
3932.71,0.01951
3926.93,0.01973
3921.14,0.01970
3915.35,0.01950
3909.57,0.01971
3903.78,0.01981
3897.99,0.01971
3892.21,0.01945
3886.42,0.01927
3880.64,0.01997
3874.85,0.01994
3869.06,0.02021
3863.28,0.01947
3857.49,0.01986
3851.7,0.01980
3845.92,0.01975
3840.13,0.02029
3834.35,0.01950
3828.56,0.02023
3822.77,0.02038
3816.99,0.01990
3811.2,0.01984
3805.41,0.01997
3799.63,0.01886
3793.84,0.01905
3788.06,0.01944
3782.27,0.01959
3776.48,0.02059
3770.7,0.01960
3764.91,0.01949
3759.12,0.01971
3753.34,0.02008
3747.55,0.01958
3741.77,0.01863
3735.98,0.01904
3730.19,0.01969
3724.41,0.01968
3718.62,0.02001
3712.83,0.01946
3707.05,0.01973
3701.26,0.02015
3695.48,0.01950
3689.69,0.02004
3683.9,0.01989
3678.12,0.01884
3672.33,0.01862
3666.54,0.01872
3660.76,0.01902
3654.97,0.01891
3649.19,0.01945
3643.4,0.01932
3637.61,0.01944
3631.83,0.01904
3626.04,0.01880
3620.25,0.01922
3614.47,0.01886
3608.68,0.01941
3602.9,0.01905
3597.11,0.01897
3591.32,0.01873
3585.54,0.01857
3579.75,0.01912
3573.97,0.01846
3568.18,0.01843
3562.39,0.01864
3556.61,0.01883
3550.82,0.01877
3545.03,0.01881
3539.25,0.01808
3533.46,0.01922
3527.68,0.01811
3521.89,0.01775
3516.1,0.01777
3510.32,0.01861
3504.53,0.01796
3498.74,0.01843
3492.96,0.01774
3487.17,0.01842
3481.39,0.01778
3475.6,0.01807
3469.81,0.01799
3464.03,0.01753
3458.24,0.01808
3452.45,0.01806
3446.67,0.01789
3440.88,0.01776
3435.1,0.01803
3429.31,0.01797
3423.52,0.01719
3417.74,0.01703
3411.95,0.01759
3406.16,0.01767
3400.38,0.01685
3394.59,0.01708
3388.81,0.01763
3383.02,0.01773
3377.23,0.01796
3371.45,0.01783
3365.66,0.01719
3359.87,0.01690
3354.09,0.01744
3348.3,0.01816
3342.52,0.01723
3336.73,0.01701
3330.94,0.01740
3325.16,0.01758
3319.37,0.01734
3313.58,0.01759
3307.8,0.01746
3302.01,0.01720
3296.23,0.01741
3290.44,0.01716
3284.65,0.01747
3278.87,0.01825
3273.08,0.01756
3267.29,0.01692
3261.51,0.01781
3255.72,0.01788
3249.94,0.01796
3244.15,0.01748
3238.36,0.01822
3232.58,0.01802
3226.79,0.01817
3221,0.01844
3215.22,0.01811
3209.43,0.01772
3203.65,0.01745
3197.86,0.01770
3192.07,0.01823
3186.29,0.01789
3180.5,0.01791
3174.71,0.01809
3168.93,0.01815
3163.14,0.01771
3157.36,0.01814
3151.57,0.01804
3145.78,0.01795
3140,0.01755
3134.21,0.01781
3128.42,0.01838
3122.64,0.01891
3116.85,0.01790
3111.07,0.01788
3105.28,0.01767
3099.49,0.01771
3093.71,0.01792
3087.92,0.01814
3082.14,0.01815
3076.35,0.01803
3070.56,0.01818
3064.78,0.01762
3058.99,0.01756
3053.2,0.01770
3047.42,0.01731
3041.63,0.01780
3035.85,0.01816
3030.06,0.01731
3024.27,0.01709
3018.49,0.01791
3012.7,0.01784
3006.91,0.01724
3001.13,0.01702
2995.34,0.01716
2989.56,0.01697
2983.77,0.01612
2977.98,0.01685
2972.2,0.01654
2966.41,0.01700
2960.62,0.01658
2954.84,0.01655
2949.05,0.01654
2943.27,0.01660
2937.48,0.01649
2931.69,0.01683
2925.91,0.01696
2920.12,0.01744
2914.33,0.01706
2908.55,0.01755
2902.76,0.01799
2896.98,0.01734
2891.19,0.01796
2885.4,0.01774
2879.62,0.01793
2873.83,0.01767
2868.04,0.01808
2862.26,0.01751
2856.47,0.01734
2850.69,0.01840
2844.9,0.01867
2839.11,0.01856
2833.33,0.01846
2827.54,0.01847
2821.75,0.01818
2815.97,0.01872
2810.18,0.01849
2804.4,0.01813
2798.61,0.01848
2792.82,0.01845
2787.04,0.01843
2781.25,0.01850
2775.46,0.01802
2769.68,0.01816
2763.89,0.01872
2758.11,0.01825
2752.32,0.01838
2746.53,0.01832
2740.75,0.01851
2734.96,0.01822
2729.17,0.01847
2723.39,0.01861
2717.6,0.01827
2711.82,0.01838
2706.03,0.01855
2700.24,0.01818
2694.46,0.01802
2688.67,0.01821
2682.88,0.01869
2677.1,0.01791
2671.31,0.01849
2665.53,0.01875
2659.74,0.01863
2653.95,0.01830
2648.17,0.01835
2642.38,0.01877
2636.59,0.01831
2630.81,0.01822
2625.02,0.01873
2619.24,0.01838
2613.45,0.01802
2607.66,0.01861
2601.88,0.01830
2596.09,0.01881
2590.3,0.01822
2584.52,0.01832
2578.73,0.01812
2572.95,0.01837
2567.16,0.01833
2561.37,0.01813
2555.59,0.01827
2549.8,0.01844
2544.02,0.01851
2538.23,0.01818
2532.44,0.01853
2526.66,0.01852
2520.87,0.01830
2515.08,0.01857
2509.3,0.01882
2503.51,0.01882
2497.73,0.01851
2491.94,0.01863
2486.15,0.01873
2480.37,0.01860
2474.58,0.01790
2468.79,0.01872
2463.01,0.01885
2457.22,0.01833
2451.44,0.01821
2445.65,0.01823
2439.86,0.01842
2434.08,0.01796
2428.29,0.01830
2422.5,0.01795
2416.72,0.01853
2410.93,0.01765
2405.15,0.01793
2399.36,0.01821
2393.57,0.01819
2387.79,0.01835
2382,0.01808
2376.21,0.01852
2370.43,0.01859
2364.64,0.01834
2358.86,0.01840
2353.07,0.01840
2347.28,0.01856
2341.5,0.01830
2335.71,0.01862
2329.92,0.01865
2324.14,0.01826
2318.35,0.01838
2312.57,0.01840
2306.78,0.01805
2300.99,0.01779
2295.21,0.01819
2289.42,0.01849
2283.63,0.01839
2277.85,0.01830
2272.06,0.01825
2266.28,0.01829
2260.49,0.01855
2254.7,0.01836
2248.92,0.01845
2243.13,0.01832
2237.34,0.01828
2231.56,0.01861
2225.77,0.01855
2219.99,0.01838
2214.2,0.01831
2208.41,0.01858
2202.63,0.01835
2196.84,0.01814
2191.05,0.01818
2185.27,0.01835
2179.48,0.01820
2173.7,0.01813
2167.91,0.01783
2162.12,0.01815
2156.34,0.01821
2150.55,0.01810
2144.76,0.01841
2138.98,0.01816
2133.19,0.01834
2127.41,0.01798
2121.62,0.01849
2115.83,0.01804
2110.05,0.01792
2104.26,0.01847
2098.47,0.01828
2092.69,0.01809
2086.9,0.01822
2081.12,0.01821
2075.33,0.01843
2069.54,0.01798
2063.76,0.01793
2057.97,0.01807
2052.19,0.01818
2046.4,0.01822
2040.61,0.01797
2034.83,0.01821
2029.04,0.01807
2023.25,0.01802
2017.47,0.01784
2011.68,0.01799
2005.9,0.01779
2000.11,0.01799
1994.32,0.01796
1988.54,0.01840
1982.75,0.01790
1976.96,0.01815
1971.18,0.01803
1965.39,0.01809
1959.61,0.01777
1953.82,0.01777
1948.03,0.01811
1942.25,0.01783
1936.46,0.01804
1930.67,0.01803
1924.89,0.01759
1919.1,0.01785
1913.32,0.01763
1907.53,0.01795
1901.74,0.01774
1895.96,0.01790
1890.17,0.01764
1884.38,0.01786
1878.6,0.01806
1872.81,0.01743
1867.03,0.01727
1861.24,0.01752
1855.45,0.01760
1849.67,0.01733
1843.88,0.01734
1838.09,0.01712
1832.31,0.01721
1826.52,0.01742
1820.74,0.01698
1814.95,0.01721
1809.16,0.01712
1803.38,0.01650
1797.59,0.01660
1791.8,0.01677
1786.02,0.01626
1780.23,0.01631
1774.45,0.01585
1768.66,0.01551
1762.87,0.01499
1757.09,0.01469
1751.3,0.01484
1745.51,0.01502
1739.73,0.01580
1733.94,0.01699
1728.16,0.01773
1722.37,0.01820
1716.58,0.01824
1710.8,0.01802
1705.01,0.01718
1699.22,0.01687
1693.44,0.01639
1687.65,0.01645
1681.87,0.01637
1676.08,0.01576
1670.29,0.01568
1664.51,0.01566
1658.72,0.01560
1652.93,0.01540
1647.15,0.01548
1641.36,0.01585
1635.58,0.01587
1629.79,0.01596
1624,0.01609
1618.22,0.01625
1612.43,0.01597
1606.64,0.01614
1600.86,0.01595
1595.07,0.01616
1589.29,0.01615
1583.5,0.01599
1577.71,0.01535
1571.93,0.01523
1566.14,0.01495
1560.35,0.01509
1554.57,0.01521
1548.78,0.01572
1543,0.01534
1537.21,0.01530
1531.42,0.01543
1525.64,0.01581
1519.85,0.01553
1514.07,0.01584
1508.28,0.01579
1502.49,0.01573
1496.71,0.01590
1490.92,0.01578
1485.13,0.01575
1479.35,0.01562
1473.56,0.01543
1467.78,0.01553
1461.99,0.01553
1456.2,0.01613
1450.42,0.01556
1444.63,0.01599
1438.84,0.01616
1433.06,0.01621
1427.27,0.01586
1421.49,0.01583
1415.7,0.01562
1409.91,0.01558
1404.13,0.01553
1398.34,0.01533
1392.55,0.01532
1386.77,0.01559
1380.98,0.01548
1375.2,0.01522
1369.41,0.01546
1363.62,0.01556
1357.84,0.01543
1352.05,0.01497
1346.26,0.01480
1340.48,0.01519
1334.69,0.01482
1328.91,0.01484
1323.12,0.01438
1317.33,0.01377
1311.55,0.01378
1305.76,0.01460
1299.97,0.01458
1294.19,0.01479
1288.4,0.01515
1282.62,0.01567
1276.83,0.01608
1271.04,0.01607
1265.26,0.01689
1259.47,0.01704
1253.68,0.01697
1247.9,0.01673
1242.11,0.01678
1236.33,0.01721
1230.54,0.01697
1224.75,0.01681
1218.97,0.01661
1213.18,0.01607
1207.39,0.01549
1201.61,0.01565
1195.82,0.01534
1190.04,0.01509
1184.25,0.01540
1178.46,0.01569
1172.68,0.01440
1166.89,0.01473
1161.1,0.01447
1155.32,0.01442
1149.53,0.01448
1143.75,0.01502
1137.96,0.01437
1132.17,0.01551
1126.39,0.01532
1120.6,0.01531
1114.81,0.01643
1109.03,0.01570
1103.24,0.01594
1097.46,0.01591
1091.67,0.01491
1085.88,0.01422
1080.1,0.01633
1074.31,0.01598
1068.52,0.01694
1062.74,0.01704
1056.95,0.01705
1051.17,0.01645
1045.38,0.01605
1039.59,0.01719
1033.81,0.01670
1028.02,0.01706
1022.24,0.01606
1016.45,0.01653
1010.66,0.01671
1004.88,0.01876
999.09,0.01876
993.304,0.01802
987.518,0.01804
981.731,0.01786
975.945,0.01765
970.159,0.01723
964.373,0.01766
958.586,0.01710
952.8,0.01714
947.014,0.01755
941.228,0.01691
935.441,0.01668
929.655,0.01680
923.869,0.01685
918.083,0.01705
912.297,0.01602
906.51,0.01614
900.724,0.01659
894.938,0.01628
889.152,0.01653
883.365,0.01648
877.579,0.01576
871.793,0.01580
866.007,0.01669
860.22,0.01616
854.434,0.01597
848.648,0.01657
842.862,0.01651
837.075,0.01647
831.289,0.01629
825.503,0.01621
819.717,0.01634
813.931,0.01648
808.144,0.01720
802.358,0.01680
796.572,0.01585
790.786,0.01485
784.999,0.01621
779.213,0.01543
773.427,0.01577
767.641,0.01592
761.854,0.01593
756.068,0.01588
750.282,0.01584
744.496,0.01551
738.709,0.01566
732.923,0.01550
727.137,0.01579
721.351,0.01506
715.565,0.01406
709.778,0.01546
703.992,0.01496
698.206,0.01404
692.42,0.01458
686.633,0.01577
680.847,0.01441
675.061,0.01399
669.275,0.01368
663.488,0.01351
657.702,0.01446
651.916,0.01478
646.13,0.01436
640.343,0.01345
634.557,0.01399
628.771,0.01396
622.985,0.01267
617.198,0.01257
611.412,0.01254
605.626,0.01287
599.84,0.01384