File: 01_Data/Bamboo_Rug/FTIR/IS/Bamboo_Rug_IS_S_220822_R1.dpt
7497.03,0.76518
7491.25,0.76883
7485.46,0.75746
7479.67,0.75485
7473.89,0.75446
7468.1,0.74430
7462.32,0.74641
7456.53,0.74456
7450.74,0.73744
7444.96,0.73518
7439.17,0.73880
7433.38,0.72902
7427.6,0.72678
7421.81,0.73378
7416.03,0.71968
7410.24,0.71659
7404.45,0.72496
7398.67,0.70647
7392.88,0.71303
7387.09,0.71196
7381.31,0.71115
7375.52,0.71197
7369.74,0.69308
7363.95,0.69782
7358.16,0.69905
7352.38,0.70168
7346.59,0.69627
7340.8,0.69457
7335.02,0.69545
7329.23,0.68283
7323.45,0.68878
7317.66,0.68134
7311.87,0.68544
7306.09,0.68256
7300.3,0.67839
7294.51,0.68329
7288.73,0.67945
7282.94,0.69032
7277.16,0.67786
7271.37,0.67515
7265.58,0.67995
7259.8,0.68627
7254.01,0.67133
7248.22,0.66580
7242.44,0.67679
7236.65,0.67344
7230.87,0.67209
7225.08,0.66897
7219.29,0.66597
7213.51,0.67486
7207.72,0.66945
7201.93,0.65540
7196.15,0.65275
7190.36,0.65814
7184.58,0.65313
7178.79,0.64052
7173,0.64364
7167.22,0.63766
7161.43,0.63950
7155.65,0.62986
7149.86,0.62770
7144.07,0.62414
7138.29,0.61908
7132.5,0.61219
7126.71,0.60659
7120.93,0.60356
7115.14,0.59851
7109.36,0.59310
7103.57,0.58575
7097.78,0.57980
7092,0.57451
7086.21,0.56694
7080.42,0.56505
7074.64,0.55561
7068.85,0.55664
7063.07,0.54426
7057.28,0.54211
7051.49,0.53912
7045.71,0.53649
7039.92,0.53393
7034.13,0.52642
7028.35,0.52058
7022.56,0.51354
7016.78,0.50994
7010.99,0.50340
7005.2,0.49980
6999.42,0.50197
6993.63,0.49007
6987.84,0.48827
6982.06,0.48790
6976.27,0.48605
6970.49,0.48624
6964.7,0.48879
6958.91,0.48477
6953.13,0.47885
6947.34,0.48019
6941.55,0.47978
6935.77,0.48033
6929.98,0.47604
6924.2,0.47956
6918.41,0.47728
6912.62,0.47596
6906.84,0.47519
6901.05,0.46962
6895.26,0.47410
6889.48,0.47136
6883.69,0.47702
6877.91,0.47522
6872.12,0.47342
6866.33,0.47527
6860.55,0.47608
6854.76,0.47677
6848.97,0.47593
6843.19,0.47510
6837.4,0.47522
6831.62,0.47100
6825.83,0.47046
6820.04,0.47497
6814.26,0.46984
6808.47,0.46940
6802.68,0.46878
6796.9,0.47330
6791.11,0.47064
6785.33,0.47344
6779.54,0.47255
6773.75,0.46977
6767.97,0.46898
6762.18,0.47759
6756.39,0.47285
6750.61,0.47500
6744.82,0.47056
6739.04,0.47721
6733.25,0.47424
6727.46,0.47351
6721.68,0.47773
6715.89,0.47690
6710.1,0.47713
6704.32,0.48212
6698.53,0.48593
6692.75,0.48300
6686.96,0.47911
6681.17,0.48321
6675.39,0.48413
6669.6,0.48071
6663.82,0.48604
6658.03,0.48478
6652.24,0.48655
6646.46,0.48843
6640.67,0.48706
6634.88,0.48786
6629.1,0.48741
6623.31,0.48970
6617.53,0.49427
6611.74,0.49502
6605.95,0.49526
6600.17,0.49543
6594.38,0.50128
6588.59,0.49761
6582.81,0.49551
6577.02,0.49633
6571.24,0.50273
6565.45,0.50215
6559.66,0.50239
6553.88,0.50503
6548.09,0.50552
6542.3,0.50505
6536.52,0.50554
6530.73,0.50459
6524.95,0.50837
6519.16,0.51236
6513.37,0.50703
6507.59,0.50984
6501.8,0.51071
6496.01,0.51466
6490.23,0.51283
6484.44,0.51366
6478.66,0.51325
6472.87,0.51554
6467.08,0.51480
6461.3,0.51773
6455.51,0.51558
6449.72,0.51398
6443.94,0.51689
6438.15,0.51743
6432.37,0.51786
6426.58,0.51790
6420.79,0.51607
6415.01,0.51691
6409.22,0.51907
6403.43,0.52069
6397.65,0.51895
6391.86,0.52032
6386.08,0.51874
6380.29,0.52228
6374.5,0.52340
6368.72,0.52266
6362.93,0.52292
6357.14,0.52246
6351.36,0.52344
6345.57,0.52386
6339.79,0.52287
6334,0.52376
6328.21,0.52945
6322.43,0.52543
6316.64,0.52454
6310.85,0.52649
6305.07,0.53210
6299.28,0.53037
6293.5,0.53172
6287.71,0.53386
6281.92,0.53131
6276.14,0.53585
6270.35,0.53547
6264.56,0.53948
6258.78,0.53900
6252.99,0.54123
6247.21,0.53830
6241.42,0.54348
6235.63,0.54508
6229.85,0.54546
6224.06,0.54686
6218.27,0.54989
6212.49,0.55296
6206.7,0.55409
6200.92,0.55760
6195.13,0.55700
6189.34,0.55651
6183.56,0.55986
6177.77,0.56007
6171.98,0.56057
6166.2,0.56031
6160.41,0.56288
6154.63,0.56868
6148.84,0.57091
6143.05,0.56750
6137.27,0.57009
6131.48,0.56879
6125.7,0.57141
6119.91,0.57591
6114.12,0.57181
6108.34,0.57208
6102.55,0.57308
6096.76,0.57264
6090.98,0.57266
6085.19,0.57227
6079.41,0.57026
6073.62,0.57428
6067.83,0.57204
6062.05,0.56920
6056.26,0.56959
6050.47,0.56967
6044.69,0.56939
6038.9,0.56586
6033.12,0.56491
6027.33,0.56406
6021.54,0.56490
6015.76,0.56174
6009.97,0.55902
6004.18,0.55872
5998.4,0.55675
5992.61,0.55423
5986.83,0.55566
5981.04,0.55462
5975.25,0.55169
5969.47,0.54970
5963.68,0.55060
5957.89,0.54742
5952.11,0.54875
5946.32,0.54952
5940.54,0.54836
5934.75,0.54860
5928.96,0.54740
5923.18,0.54743
5917.39,0.54540
5911.6,0.54443
5905.82,0.54514
5900.03,0.54401
5894.25,0.54329
5888.46,0.54418
5882.67,0.54243
5876.89,0.54718
5871.1,0.54386
5865.31,0.54334
5859.53,0.54192
5853.74,0.54294
5847.96,0.54334
5842.17,0.54047
5836.38,0.53911
5830.6,0.53731
5824.81,0.53400
5819.02,0.53295
5813.24,0.53210
5807.45,0.53344
5801.67,0.53235
5795.88,0.53254
5790.09,0.53387
5784.31,0.53602
5778.52,0.53611
5772.73,0.53701
5766.95,0.53948
5761.16,0.54093
5755.38,0.54094
5749.59,0.54166
5743.8,0.54274
5738.02,0.54263
5732.23,0.54189
5726.44,0.54297
5720.66,0.54170
5714.87,0.54248
5709.09,0.54101
5703.3,0.54176
5697.51,0.54067
5691.73,0.53992
5685.94,0.53839
5680.15,0.53783
5674.37,0.53982
5668.58,0.53698
5662.8,0.53630
5657.01,0.53639
5651.22,0.53529
5645.44,0.53626
5639.65,0.53315
5633.87,0.53486
5628.08,0.53357
5622.29,0.53360
5616.51,0.53325
5610.72,0.53508
5604.93,0.53513
5599.15,0.53312
5593.36,0.53515
5587.58,0.53666
5581.79,0.53430
5576,0.53717
5570.22,0.53649
5564.43,0.53717
5558.64,0.53926
5552.86,0.54179
5547.07,0.54063
5541.29,0.54013
5535.5,0.54069
5529.71,0.54182
5523.93,0.54382
5518.14,0.54518
5512.35,0.54324
5506.57,0.54360
5500.78,0.54281
5495,0.54492
5489.21,0.54458
5483.42,0.54452
5477.64,0.54588
5471.85,0.54654
5466.06,0.54716
5460.28,0.54935
5454.49,0.55010
5448.71,0.55071
5442.92,0.55185
5437.13,0.55384
5431.35,0.55504
5425.56,0.55647
5419.77,0.55722
5413.99,0.55913
5408.2,0.56063
5402.42,0.55958
5396.63,0.55994
5390.84,0.55953
5385.06,0.55860
5379.27,0.55789
5373.48,0.55714
5367.7,0.55549
5361.91,0.55408
5356.13,0.55531
5350.34,0.55206
5344.55,0.55102
5338.77,0.54717
5332.98,0.54123
5327.19,0.53774
5321.41,0.53209
5315.62,0.52541
5309.84,0.51863
5304.05,0.51049
5298.26,0.49904
5292.48,0.48540
5286.69,0.47412
5280.9,0.45896
5275.12,0.44516
5269.33,0.43134
5263.55,0.41684
5257.76,0.40348
5251.97,0.39083
5246.19,0.38170
5240.4,0.37080
5234.61,0.36350
5228.83,0.35827
5223.04,0.35447
5217.26,0.35011
5211.47,0.34608
5205.68,0.34510
5199.9,0.34440
5194.11,0.34472
5188.32,0.34442
5182.54,0.34616
5176.75,0.34792
5170.97,0.35024
5165.18,0.35224
5159.39,0.35442
5153.61,0.35867
5147.82,0.36081
5142.03,0.36387
5136.25,0.36747
5130.46,0.37238
5124.68,0.37616
5118.89,0.37923
5113.1,0.38402
5107.32,0.38706
5101.53,0.39004
5095.75,0.39317
5089.96,0.39706
5084.17,0.39897
5078.39,0.40581
5072.6,0.40657
5066.81,0.40934
5061.03,0.41381
5055.24,0.41695
5049.46,0.42092
5043.67,0.42360
5037.88,0.42697
5032.1,0.43000
5026.31,0.43202
5020.52,0.43373
5014.74,0.43616
5008.95,0.43792
5003.17,0.44001
4997.38,0.44097
4991.59,0.44011
4985.81,0.44082
4980.02,0.44112
4974.23,0.44202
4968.45,0.43880
4962.66,0.43734
4956.88,0.43484
4951.09,0.43222
4945.3,0.42896
4939.52,0.42484
4933.73,0.42120
4927.94,0.41658
4922.16,0.41232
4916.37,0.40644
4910.59,0.40201
4904.8,0.39728
4899.01,0.39232
4893.23,0.38675
4887.44,0.38299
4881.65,0.37730
4875.87,0.37257
4870.08,0.36932
4864.3,0.36524
4858.51,0.36195
4852.72,0.35763
4846.94,0.35468
4841.15,0.35073
4835.36,0.34656
4829.58,0.34458
4823.79,0.34247
4818.01,0.33939
4812.22,0.33773
4806.43,0.33599
4800.65,0.33467
4794.86,0.33292
4789.07,0.33281
4783.29,0.33171
4777.5,0.33057
4771.72,0.32957
4765.93,0.32839
4760.14,0.32951
4754.36,0.32910
4748.57,0.32869
4742.78,0.32860
4737,0.32872
4731.21,0.32892
4725.43,0.32832
4719.64,0.32890
4713.85,0.32990
4708.07,0.33082
4702.28,0.33167
4696.49,0.33122
4690.71,0.33186
4684.92,0.33434
4679.14,0.33566
4673.35,0.33717
4667.56,0.33979
4661.78,0.34308
4655.99,0.34564
4650.2,0.34730
4644.42,0.34848
4638.63,0.35114
4632.85,0.35410
4627.06,0.35512
4621.27,0.35832
4615.49,0.36100
4609.7,0.36233
4603.92,0.36458
4598.13,0.36636
4592.34,0.36810
4586.56,0.36981
4580.77,0.37088
4574.98,0.37237
4569.2,0.37474
4563.41,0.37689
4557.63,0.37649
4551.84,0.37788
4546.05,0.37925
4540.27,0.38028
4534.48,0.38134
4528.69,0.38177
4522.91,0.38222
4517.12,0.38253
4511.34,0.38098
4505.55,0.38067
4499.76,0.37822
4493.98,0.37590
4488.19,0.37043
4482.4,0.36583
4476.62,0.36058
4470.83,0.35239
4465.05,0.34411
4459.26,0.33653
4453.47,0.33054
4447.69,0.32286
4441.9,0.31621
4436.11,0.31013
4430.33,0.30520
4424.54,0.30026
4418.76,0.29715
4412.97,0.29430
4407.18,0.29336
4401.4,0.29256
4395.61,0.29143
4389.82,0.29204
4384.04,0.29262
4378.25,0.29446
4372.47,0.29682
4366.68,0.29907
4360.89,0.30051
4355.11,0.29904
4349.32,0.29853
4343.53,0.29648
4337.75,0.29539
4331.96,0.29272
4326.18,0.29067
4320.39,0.28813
4314.6,0.28599
4308.82,0.28419
4303.03,0.28254
4297.24,0.28057
4291.46,0.28004
4285.67,0.27843
4279.89,0.27930
4274.1,0.28004
4268.31,0.28076
4262.53,0.28230
4256.74,0.28247
4250.95,0.28269
4245.17,0.28365
4239.38,0.28424
4233.6,0.28427
4227.81,0.28558
4222.02,0.28520
4216.24,0.28547
4210.45,0.28579
4204.66,0.28648
4198.88,0.28592
4193.09,0.28697
4187.31,0.28716
4181.52,0.28738
4175.73,0.28750
4169.95,0.28885
4164.16,0.28972
4158.37,0.28819
4152.59,0.28627
4146.8,0.28473
4141.02,0.28209
4135.23,0.27982
4129.44,0.27658
4123.66,0.27230
4117.87,0.26880
4112.09,0.26574
4106.3,0.26201
4100.51,0.25805
4094.73,0.25399
4088.94,0.24921
4083.15,0.24485
4077.37,0.24065
4071.58,0.23543
4065.8,0.23196
4060.01,0.22665
4054.22,0.22405
4048.44,0.21970
4042.65,0.21674
4036.86,0.21388
4031.08,0.21188
4025.29,0.20939
4019.51,0.20855
4013.72,0.20774
4007.93,0.20758
4002.15,0.20841
3996.36,0.20939
3990.57,0.21021
3984.79,0.21104
3979,0.21211
3973.22,0.21336
3967.43,0.21578
3961.64,0.21752
3955.86,0.21954
3950.07,0.22140
3944.28,0.22296
3938.5,0.22530
3932.71,0.22750
3926.93,0.22855
3921.14,0.23102
3915.35,0.23304
3909.57,0.23560
3903.78,0.23728
3897.99,0.23980
3892.21,0.24180
3886.42,0.24402
3880.64,0.24505
3874.85,0.24712
3869.06,0.24951
3863.28,0.25243
3857.49,0.25452
3851.7,0.25577
3845.92,0.25798
3840.13,0.25974
3834.35,0.26117
3828.56,0.26137
3822.77,0.26209
3816.99,0.26117
3811.2,0.26105
3805.41,0.26140
3799.63,0.25983
3793.84,0.25837
3788.06,0.25707
3782.27,0.25580
3776.48,0.25399
3770.7,0.25243
3764.91,0.25069
3759.12,0.24798
3753.34,0.24541
3747.55,0.24222
3741.77,0.23927
3735.98,0.23625
3730.19,0.23060
3724.41,0.22617
3718.62,0.22022
3712.83,0.21447
3707.05,0.20581
3701.26,0.19684
3695.48,0.18723
3689.69,0.17626
3683.9,0.16232
3678.12,0.14963
3672.33,0.13559
3666.54,0.12303
3660.76,0.11276
3654.97,0.10351
3649.19,0.09614
3643.4,0.08875
3637.61,0.08391
3631.83,0.07991
3626.04,0.07522
3620.25,0.07290
3614.47,0.06914
3608.68,0.06598
3602.9,0.06307
3597.11,0.06121
3591.32,0.05863
3585.54,0.05662
3579.75,0.05461
3573.97,0.05362
3568.18,0.05216
3562.39,0.05002
3556.61,0.04919
3550.82,0.04831
3545.03,0.04787
3539.25,0.04609
3533.46,0.04522
3527.68,0.04476
3521.89,0.04336
3516.1,0.04328
3510.32,0.04210
3504.53,0.04172
3498.74,0.04128
3492.96,0.04084
3487.17,0.04056
3481.39,0.04029
3475.6,0.03954
3469.81,0.03978
3464.03,0.03915
3458.24,0.03861
3452.45,0.03882
3446.67,0.03852
3440.88,0.03861
3435.1,0.03906
3429.31,0.03844
3423.52,0.03902
3417.74,0.03979
3411.95,0.03983
3406.16,0.03951
3400.38,0.04013
3394.59,0.04044
3388.81,0.04015
3383.02,0.04028
3377.23,0.04106
3371.45,0.04075
3365.66,0.04115
3359.87,0.04208
3354.09,0.04210
3348.3,0.04218
3342.52,0.04302
3336.73,0.04335
3330.94,0.04385
3325.16,0.04414
3319.37,0.04427
3313.58,0.04501
3307.8,0.04547
3302.01,0.04576
3296.23,0.04637
3290.44,0.04690
3284.65,0.04675
3278.87,0.04797
3273.08,0.04837
3267.29,0.04939
3261.51,0.04939
3255.72,0.04970
3249.94,0.05080
3244.15,0.05118
3238.36,0.05308
3232.58,0.05301
3226.79,0.05333
3221,0.05404
3215.22,0.05499
3209.43,0.05547
3203.65,0.05704
3197.86,0.05715
3192.07,0.05808
3186.29,0.05869
3180.5,0.05906
3174.71,0.05999
3168.93,0.06119
3163.14,0.06188
3157.36,0.06295
3151.57,0.06329
3145.78,0.06444
3140,0.06520
3134.21,0.06591
3128.42,0.06699
3122.64,0.06831
3116.85,0.06872
3111.07,0.06943
3105.28,0.07028
3099.49,0.07165
3093.71,0.07170
3087.92,0.07292
3082.14,0.07356
3076.35,0.07410
3070.56,0.07456
3064.78,0.07522
3058.99,0.07649
3053.2,0.07702
3047.42,0.07814
3041.63,0.07830
3035.85,0.07884
3030.06,0.07887
3024.27,0.07839
3018.49,0.07732
3012.7,0.07734
3006.91,0.07661
3001.13,0.07516
2995.34,0.07412
2989.56,0.07329
2983.77,0.07068
2977.98,0.06791
2972.2,0.06565
2966.41,0.06395
2960.62,0.06231
2954.84,0.06036
2949.05,0.05850
2943.27,0.05682
2937.48,0.05716
2931.69,0.05692
2925.91,0.05668
2920.12,0.05688
2914.33,0.05723
2908.55,0.05760
2902.76,0.05753
2896.98,0.05850
2891.19,0.05870
2885.4,0.05932
2879.62,0.06017
2873.83,0.06113
2868.04,0.06201
2862.26,0.06364
2856.47,0.06436
2850.69,0.06635
2844.9,0.06867
2839.11,0.07149
2833.33,0.07514
2827.54,0.07827
2821.75,0.08064
2815.97,0.08326
2810.18,0.08513
2804.4,0.08704
2798.61,0.08823
2792.82,0.08950
2787.04,0.09108
2781.25,0.09152
2775.46,0.09264
2769.68,0.09309
2763.89,0.09383
2758.11,0.09485
2752.32,0.09495
2746.53,0.09528
2740.75,0.09554
2734.96,0.09622
2729.17,0.09652
2723.39,0.09759
2717.6,0.09860
2711.82,0.09997
2706.03,0.10041
2700.24,0.10181
2694.46,0.10290
2688.67,0.10395
2682.88,0.10492
2677.1,0.10616
2671.31,0.10726
2665.53,0.10821
2659.74,0.10897
2653.95,0.10964
2648.17,0.11060
2642.38,0.11171
2636.59,0.11214
2630.81,0.11369
2625.02,0.11460
2619.24,0.11575
2613.45,0.11684
2607.66,0.11810
2601.88,0.11938
2596.09,0.12046
2590.3,0.12094
2584.52,0.12165
2578.73,0.12258
2572.95,0.12292
2567.16,0.12372
2561.37,0.12414
2555.59,0.12484
2549.8,0.12548
2544.02,0.12586
2538.23,0.12650
2532.44,0.12733
2526.66,0.12799
2520.87,0.12839
2515.08,0.12870
2509.3,0.12988
2503.51,0.13091
2497.73,0.13232
2491.94,0.13399
2486.15,0.13513
2480.37,0.13630
2474.58,0.13697
2468.79,0.13799
2463.01,0.13935
2457.22,0.14062
2451.44,0.14199
2445.65,0.14376
2439.86,0.14516
2434.08,0.14714
2428.29,0.14885
2422.5,0.15079
2416.72,0.15267
2410.93,0.15489
2405.15,0.15669
2399.36,0.15894
2393.57,0.16070
2387.79,0.16190
2382,0.16310
2376.21,0.16490
2370.43,0.16607
2364.64,0.16702
2358.86,0.16815
2353.07,0.16935
2347.28,0.17101
2341.5,0.17200
2335.71,0.17234
2329.92,0.17267
2324.14,0.17310
2318.35,0.17320
2312.57,0.17373
2306.78,0.17344
2300.99,0.17266
2295.21,0.17259
2289.42,0.17232
2283.63,0.17245
2277.85,0.17186
2272.06,0.17136
2266.28,0.17040
2260.49,0.16941
2254.7,0.16743
2248.92,0.16618
2243.13,0.16559
2237.34,0.16502
2231.56,0.16516
2225.77,0.16489
2219.99,0.16484
2214.2,0.16452
2208.41,0.16420
2202.63,0.16249
2196.84,0.16103
2191.05,0.15887
2185.27,0.15636
2179.48,0.15361
2173.7,0.15084
2167.91,0.14842
2162.12,0.14634
2156.34,0.14456
2150.55,0.14345
2144.76,0.14283
2138.98,0.14200
2133.19,0.14175
2127.41,0.14148
2121.62,0.14211
2115.83,0.14289
2110.05,0.14320
2104.26,0.14399
2098.47,0.14450
2092.69,0.14551
2086.9,0.14619
2081.12,0.14705
2075.33,0.14691
2069.54,0.14667
2063.76,0.14659
2057.97,0.14696
2052.19,0.14746
2046.4,0.14787
2040.61,0.14856
2034.83,0.15001
2029.04,0.15139
2023.25,0.15315
2017.47,0.15538
2011.68,0.15758
2005.9,0.15959
2000.11,0.16173
1994.32,0.16253
1988.54,0.16388
1982.75,0.16409
1976.96,0.16470
1971.18,0.16440
1965.39,0.16407
1959.61,0.16373
1953.82,0.16380
1948.03,0.16382
1942.25,0.16540
1936.46,0.16736
1930.67,0.16934
1924.89,0.17076
1919.1,0.17163
1913.32,0.17230
1907.53,0.17237
1901.74,0.17278
1895.96,0.17265
1890.17,0.17258
1884.38,0.17244
1878.6,0.17269
1872.81,0.17217
1867.03,0.17084
1861.24,0.16943
1855.45,0.16755
1849.67,0.16532
1843.88,0.16312
1838.09,0.16016
1832.31,0.15695
1826.52,0.15271
1820.74,0.14785
1814.95,0.14223
1809.16,0.13611
1803.38,0.12851
1797.59,0.11966
1791.8,0.11112
1786.02,0.10268
1780.23,0.09385
1774.45,0.08382
1768.66,0.07201
1762.87,0.06199
1757.09,0.05416
1751.3,0.04937
1745.51,0.04629
1739.73,0.04555
1733.94,0.04619
1728.16,0.04794
1722.37,0.05023
1716.58,0.05276
1710.8,0.05453
1705.01,0.05693
1699.22,0.05837
1693.44,0.05847
1687.65,0.05876
1681.87,0.05807
1676.08,0.05736
1670.29,0.05632
1664.51,0.05533
1658.72,0.05470
1652.93,0.05403
1647.15,0.05386
1641.36,0.05375
1635.58,0.05245
1629.79,0.05251
1624,0.05289
1618.22,0.05316
1612.43,0.05155
1606.64,0.04975
1600.86,0.04959
1595.07,0.05044
1589.29,0.05277
1583.5,0.05692
1577.71,0.06135
1571.93,0.06555
1566.14,0.06882
1560.35,0.07093
1554.57,0.07134
1548.78,0.07083
1543,0.07083
1537.21,0.06922
1531.42,0.06620
1525.64,0.06074
1519.85,0.05225
1514.07,0.04835
1508.28,0.04893
1502.49,0.04970
1496.71,0.05261
1490.92,0.05478
1485.13,0.05440
1479.35,0.05085
1473.56,0.04565
1467.78,0.04211
1461.99,0.04169
1456.2,0.04286
1450.42,0.04307
1444.63,0.04361
1438.84,0.04321
1433.06,0.04197
1427.27,0.04231
1421.49,0.04330
1415.7,0.04427
1409.91,0.04489
1404.13,0.04452
1398.34,0.04387
1392.55,0.04230
1386.77,0.04071
1380.98,0.03963
1375.2,0.04040
1369.41,0.04127
1363.62,0.04220
1357.84,0.04319
1352.05,0.04285
1346.26,0.04269
1340.48,0.04151
1334.69,0.04065
1328.91,0.04131
1323.12,0.04137
1317.33,0.04218
1311.55,0.04333
1305.76,0.04376
1299.97,0.04426
1294.19,0.04289
1288.4,0.04189
1282.62,0.04031
1276.83,0.03912
1271.04,0.03775
1265.26,0.03745
1259.47,0.03709
1253.68,0.03775
1247.9,0.03798
1242.11,0.03878
1236.33,0.03975
1230.54,0.04134
1224.75,0.04253
1218.97,0.04268
1213.18,0.04312
1207.39,0.04244
1201.61,0.04141
1195.82,0.04091
1190.04,0.03996
1184.25,0.03688
1178.46,0.03411
1172.68,0.03373
1166.89,0.03690
1161.1,0.03998
1155.32,0.04039
1149.53,0.03970
1143.75,0.03754
1137.96,0.03477
1132.17,0.03344
1126.39,0.03448
1120.6,0.03683
1114.81,0.03930
1109.03,0.04090
1103.24,0.04178
1097.46,0.04161
1091.67,0.04036
1085.88,0.04040
1080.1,0.04240
1074.31,0.04617
1068.52,0.05051
1062.74,0.05569
1056.95,0.06220
1051.17,0.06458
1045.38,0.06533
1039.59,0.06726
1033.81,0.07155
1028.02,0.07227
1022.24,0.07176
1016.45,0.07022
1010.66,0.06999
1004.88,0.06925
999.09,0.06987
993.304,0.07007
987.518,0.07275
981.731,0.07550
975.945,0.07712
970.159,0.07808
964.373,0.08052
958.586,0.08389
952.8,0.08701
947.014,0.08906
941.228,0.08882
935.441,0.08735
929.655,0.08648
923.869,0.08592
918.083,0.08427
912.297,0.08263
906.51,0.08002
900.724,0.07763
894.938,0.07829
889.152,0.08300
883.365,0.08489
877.579,0.08446
871.793,0.08334
866.007,0.08315
860.22,0.08395
854.434,0.08244
848.648,0.08056
842.862,0.07820
837.075,0.07813
831.289,0.07790
825.503,0.07968
819.717,0.08088
813.931,0.08055
808.144,0.08077
802.358,0.07992
796.572,0.07964
790.786,0.07873
784.999,0.07830
779.213,0.07620
773.427,0.07468
767.641,0.07377
761.854,0.07171
756.068,0.07052
750.282,0.06874
744.496,0.06868
738.709,0.06598
732.923,0.06440
727.137,0.06358
721.351,0.06324
715.565,0.06191
709.778,0.06303
703.992,0.06169
698.206,0.06293
692.42,0.06211
686.633,0.05950
680.847,0.05774
675.061,0.05709
669.275,0.05759
663.488,0.05780
657.702,0.05913
651.916,0.05871
646.13,0.05849
640.343,0.05649
634.557,0.05606
628.771,0.05474
622.985,0.05527
617.198,0.05781
611.412,0.05833
605.626,0.06096
599.84,0.05973