File: 01_Data/Bamboo_Rug/FTIR/IS/Bamboo_Rug_IS_S_220822_R8.dpt
7497.03,0.75866
7491.25,0.77112
7485.46,0.76705
7479.67,0.76475
7473.89,0.75653
7468.1,0.74132
7462.32,0.75365
7456.53,0.74722
7450.74,0.74552
7444.96,0.74390
7439.17,0.73082
7433.38,0.73818
7427.6,0.73882
7421.81,0.73405
7416.03,0.73804
7410.24,0.72256
7404.45,0.72741
7398.67,0.71999
7392.88,0.72180
7387.09,0.71684
7381.31,0.71623
7375.52,0.71328
7369.74,0.70782
7363.95,0.70380
7358.16,0.69722
7352.38,0.70738
7346.59,0.70660
7340.8,0.70174
7335.02,0.69695
7329.23,0.68957
7323.45,0.69133
7317.66,0.68896
7311.87,0.69187
7306.09,0.67882
7300.3,0.69218
7294.51,0.69266
7288.73,0.68087
7282.94,0.68927
7277.16,0.68085
7271.37,0.67190
7265.58,0.67571
7259.8,0.68080
7254.01,0.68311
7248.22,0.68001
7242.44,0.67330
7236.65,0.67919
7230.87,0.67577
7225.08,0.68297
7219.29,0.67985
7213.51,0.67440
7207.72,0.66669
7201.93,0.66833
7196.15,0.65817
7190.36,0.66325
7184.58,0.66417
7178.79,0.66150
7173,0.65633
7167.22,0.65210
7161.43,0.64566
7155.65,0.64982
7149.86,0.63282
7144.07,0.62602
7138.29,0.63428
7132.5,0.62714
7126.71,0.61556
7120.93,0.61069
7115.14,0.60601
7109.36,0.59841
7103.57,0.59263
7097.78,0.58981
7092,0.59041
7086.21,0.57922
7080.42,0.57598
7074.64,0.57304
7068.85,0.56200
7063.07,0.56022
7057.28,0.55608
7051.49,0.54892
7045.71,0.54231
7039.92,0.53339
7034.13,0.52815
7028.35,0.52387
7022.56,0.51885
7016.78,0.51689
7010.99,0.51478
7005.2,0.51415
6999.42,0.50360
6993.63,0.50637
6987.84,0.50187
6982.06,0.50243
6976.27,0.49398
6970.49,0.49529
6964.7,0.49514
6958.91,0.48850
6953.13,0.48721
6947.34,0.48890
6941.55,0.48663
6935.77,0.48975
6929.98,0.48757
6924.2,0.48879
6918.41,0.48766
6912.62,0.48164
6906.84,0.48502
6901.05,0.47894
6895.26,0.47972
6889.48,0.47795
6883.69,0.48115
6877.91,0.47954
6872.12,0.47676
6866.33,0.47943
6860.55,0.47596
6854.76,0.48252
6848.97,0.48369
6843.19,0.48038
6837.4,0.47647
6831.62,0.48094
6825.83,0.48124
6820.04,0.47890
6814.26,0.48114
6808.47,0.48519
6802.68,0.48048
6796.9,0.48071
6791.11,0.47629
6785.33,0.48097
6779.54,0.48049
6773.75,0.47744
6767.97,0.48126
6762.18,0.48456
6756.39,0.48173
6750.61,0.48408
6744.82,0.48888
6739.04,0.48802
6733.25,0.48534
6727.46,0.48712
6721.68,0.48658
6715.89,0.48857
6710.1,0.48509
6704.32,0.48795
6698.53,0.49520
6692.75,0.48954
6686.96,0.49125
6681.17,0.48824
6675.39,0.49226
6669.6,0.49215
6663.82,0.49302
6658.03,0.49307
6652.24,0.49103
6646.46,0.49713
6640.67,0.49493
6634.88,0.49796
6629.1,0.49856
6623.31,0.49844
6617.53,0.49830
6611.74,0.50048
6605.95,0.50309
6600.17,0.50375
6594.38,0.50766
6588.59,0.50874
6582.81,0.50849
6577.02,0.51244
6571.24,0.51246
6565.45,0.51058
6559.66,0.51172
6553.88,0.51562
6548.09,0.51354
6542.3,0.51417
6536.52,0.51763
6530.73,0.51506
6524.95,0.51733
6519.16,0.51953
6513.37,0.52165
6507.59,0.52341
6501.8,0.52344
6496.01,0.52183
6490.23,0.52466
6484.44,0.52275
6478.66,0.51996
6472.87,0.52326
6467.08,0.52304
6461.3,0.52269
6455.51,0.52212
6449.72,0.52312
6443.94,0.52098
6438.15,0.52352
6432.37,0.52459
6426.58,0.52519
6420.79,0.52218
6415.01,0.52823
6409.22,0.52918
6403.43,0.52895
6397.65,0.52800
6391.86,0.52961
6386.08,0.52992
6380.29,0.52754
6374.5,0.52627
6368.72,0.52810
6362.93,0.53134
6357.14,0.53067
6351.36,0.53069
6345.57,0.53383
6339.79,0.53250
6334,0.53258
6328.21,0.53411
6322.43,0.53554
6316.64,0.53458
6310.85,0.53101
6305.07,0.53461
6299.28,0.53751
6293.5,0.53658
6287.71,0.53798
6281.92,0.54229
6276.14,0.54091
6270.35,0.54243
6264.56,0.54243
6258.78,0.54339
6252.99,0.54817
6247.21,0.54707
6241.42,0.54854
6235.63,0.54928
6229.85,0.55402
6224.06,0.55485
6218.27,0.55846
6212.49,0.55781
6206.7,0.56078
6200.92,0.56164
6195.13,0.56433
6189.34,0.56536
6183.56,0.56527
6177.77,0.57051
6171.98,0.56843
6166.2,0.57328
6160.41,0.57177
6154.63,0.57543
6148.84,0.57678
6143.05,0.58167
6137.27,0.58130
6131.48,0.57513
6125.7,0.58015
6119.91,0.57488
6114.12,0.57772
6108.34,0.58136
6102.55,0.58105
6096.76,0.58159
6090.98,0.58121
6085.19,0.58020
6079.41,0.57924
6073.62,0.57739
6067.83,0.57830
6062.05,0.57958
6056.26,0.57931
6050.47,0.57786
6044.69,0.57556
6038.9,0.57523
6033.12,0.57360
6027.33,0.56969
6021.54,0.56933
6015.76,0.56861
6009.97,0.56315
6004.18,0.56172
5998.4,0.56303
5992.61,0.55902
5986.83,0.55742
5981.04,0.55750
5975.25,0.55635
5969.47,0.55584
5963.68,0.55794
5957.89,0.55399
5952.11,0.55230
5946.32,0.55060
5940.54,0.55233
5934.75,0.55152
5928.96,0.55350
5923.18,0.55019
5917.39,0.55286
5911.6,0.55172
5905.82,0.54822
5900.03,0.54800
5894.25,0.54592
5888.46,0.55025
5882.67,0.54849
5876.89,0.54948
5871.1,0.54723
5865.31,0.54675
5859.53,0.54658
5853.74,0.54745
5847.96,0.54562
5842.17,0.54502
5836.38,0.54228
5830.6,0.54380
5824.81,0.54236
5819.02,0.54099
5813.24,0.53478
5807.45,0.53769
5801.67,0.53548
5795.88,0.53623
5790.09,0.53827
5784.31,0.53955
5778.52,0.54134
5772.73,0.54355
5766.95,0.54368
5761.16,0.54560
5755.38,0.54753
5749.59,0.54823
5743.8,0.54658
5738.02,0.54924
5732.23,0.54660
5726.44,0.54827
5720.66,0.54731
5714.87,0.54834
5709.09,0.54629
5703.3,0.54451
5697.51,0.54763
5691.73,0.54448
5685.94,0.54250
5680.15,0.54487
5674.37,0.54431
5668.58,0.54118
5662.8,0.54240
5657.01,0.54161
5651.22,0.54033
5645.44,0.54088
5639.65,0.54310
5633.87,0.54290
5628.08,0.54192
5622.29,0.54259
5616.51,0.54249
5610.72,0.54012
5604.93,0.54066
5599.15,0.54044
5593.36,0.54134
5587.58,0.54106
5581.79,0.54310
5576,0.54238
5570.22,0.54232
5564.43,0.54293
5558.64,0.54573
5552.86,0.54452
5547.07,0.54714
5541.29,0.54578
5535.5,0.54798
5529.71,0.55015
5523.93,0.55008
5518.14,0.54919
5512.35,0.54925
5506.57,0.55179
5500.78,0.55096
5495,0.55069
5489.21,0.55309
5483.42,0.55334
5477.64,0.55400
5471.85,0.55391
5466.06,0.55396
5460.28,0.55641
5454.49,0.55633
5448.71,0.55640
5442.92,0.55753
5437.13,0.56213
5431.35,0.56294
5425.56,0.56388
5419.77,0.56484
5413.99,0.56505
5408.2,0.56597
5402.42,0.56856
5396.63,0.56574
5390.84,0.56581
5385.06,0.56641
5379.27,0.56541
5373.48,0.56548
5367.7,0.56505
5361.91,0.56383
5356.13,0.56354
5350.34,0.56096
5344.55,0.55919
5338.77,0.55534
5332.98,0.55316
5327.19,0.54808
5321.41,0.54224
5315.62,0.54039
5309.84,0.53192
5304.05,0.52383
5298.26,0.51276
5292.48,0.50376
5286.69,0.49184
5280.9,0.47960
5275.12,0.46632
5269.33,0.45239
5263.55,0.43921
5257.76,0.42666
5251.97,0.41592
5246.19,0.40591
5240.4,0.39738
5234.61,0.39031
5228.83,0.38546
5223.04,0.38038
5217.26,0.37620
5211.47,0.37278
5205.68,0.37241
5199.9,0.37001
5194.11,0.37272
5188.32,0.37179
5182.54,0.37301
5176.75,0.37523
5170.97,0.37769
5165.18,0.37933
5159.39,0.38131
5153.61,0.38657
5147.82,0.38979
5142.03,0.39298
5136.25,0.39706
5130.46,0.39956
5124.68,0.40203
5118.89,0.40561
5113.1,0.41003
5107.32,0.41243
5101.53,0.41590
5095.75,0.41956
5089.96,0.42246
5084.17,0.42494
5078.39,0.42856
5072.6,0.43157
5066.81,0.43502
5061.03,0.43708
5055.24,0.44068
5049.46,0.44369
5043.67,0.44654
5037.88,0.45007
5032.1,0.45071
5026.31,0.45283
5020.52,0.45565
5014.74,0.45730
5008.95,0.45728
5003.17,0.45997
4997.38,0.45907
4991.59,0.45828
4985.81,0.45849
4980.02,0.45798
4974.23,0.45682
4968.45,0.45340
4962.66,0.45115
4956.88,0.44983
4951.09,0.44488
4945.3,0.43954
4939.52,0.43581
4933.73,0.43159
4927.94,0.42562
4922.16,0.42036
4916.37,0.41502
4910.59,0.41048
4904.8,0.40446
4899.01,0.39868
4893.23,0.39351
4887.44,0.38876
4881.65,0.38380
4875.87,0.37872
4870.08,0.37294
4864.3,0.36964
4858.51,0.36580
4852.72,0.36239
4846.94,0.35859
4841.15,0.35399
4835.36,0.35235
4829.58,0.34864
4823.79,0.34578
4818.01,0.34399
4812.22,0.34240
4806.43,0.33932
4800.65,0.33932
4794.86,0.33660
4789.07,0.33716
4783.29,0.33588
4777.5,0.33436
4771.72,0.33423
4765.93,0.33353
4760.14,0.33239
4754.36,0.33277
4748.57,0.33230
4742.78,0.33178
4737,0.33263
4731.21,0.33291
4725.43,0.33399
4719.64,0.33460
4713.85,0.33452
4708.07,0.33546
4702.28,0.33598
4696.49,0.33619
4690.71,0.33745
4684.92,0.33811
4679.14,0.33967
4673.35,0.34269
4667.56,0.34449
4661.78,0.34735
4655.99,0.34969
4650.2,0.35102
4644.42,0.35352
4638.63,0.35618
4632.85,0.35756
4627.06,0.36025
4621.27,0.36305
4615.49,0.36543
4609.7,0.36729
4603.92,0.36950
4598.13,0.37166
4592.34,0.37383
4586.56,0.37574
4580.77,0.37676
4574.98,0.37852
4569.2,0.37964
4563.41,0.38037
4557.63,0.38140
4551.84,0.38313
4546.05,0.38522
4540.27,0.38491
4534.48,0.38563
4528.69,0.38707
4522.91,0.38762
4517.12,0.38838
4511.34,0.38676
4505.55,0.38549
4499.76,0.38329
4493.98,0.38050
4488.19,0.37634
4482.4,0.37068
4476.62,0.36439
4470.83,0.35664
4465.05,0.35039
4459.26,0.34222
4453.47,0.33425
4447.69,0.32680
4441.9,0.32008
4436.11,0.31370
4430.33,0.30797
4424.54,0.30323
4418.76,0.30065
4412.97,0.29803
4407.18,0.29547
4401.4,0.29419
4395.61,0.29393
4389.82,0.29439
4384.04,0.29559
4378.25,0.29769
4372.47,0.29934
4366.68,0.30138
4360.89,0.30286
4355.11,0.30265
4349.32,0.30071
4343.53,0.30013
4337.75,0.29904
4331.96,0.29641
4326.18,0.29464
4320.39,0.29191
4314.6,0.28941
4308.82,0.28809
4303.03,0.28548
4297.24,0.28394
4291.46,0.28329
4285.67,0.28262
4279.89,0.28243
4274.1,0.28236
4268.31,0.28378
4262.53,0.28502
4256.74,0.28593
4250.95,0.28687
4245.17,0.28739
4239.38,0.28806
4233.6,0.28896
4227.81,0.28953
4222.02,0.28980
4216.24,0.29030
4210.45,0.29102
4204.66,0.29180
4198.88,0.29123
4193.09,0.29136
4187.31,0.29163
4181.52,0.29260
4175.73,0.29366
4169.95,0.29453
4164.16,0.29420
4158.37,0.29370
4152.59,0.29234
4146.8,0.29097
4141.02,0.28859
4135.23,0.28574
4129.44,0.28223
4123.66,0.27867
4117.87,0.27661
4112.09,0.27210
4106.3,0.26786
4100.51,0.26314
4094.73,0.25882
4088.94,0.25542
4083.15,0.25097
4077.37,0.24552
4071.58,0.24122
4065.8,0.23658
4060.01,0.23234
4054.22,0.22809
4048.44,0.22480
4042.65,0.22211
4036.86,0.21892
4031.08,0.21627
4025.29,0.21409
4019.51,0.21327
4013.72,0.21183
4007.93,0.21256
4002.15,0.21286
3996.36,0.21410
3990.57,0.21457
3984.79,0.21645
3979,0.21771
3973.22,0.21863
3967.43,0.22101
3961.64,0.22306
3955.86,0.22476
3950.07,0.22735
3944.28,0.22868
3938.5,0.23083
3932.71,0.23322
3926.93,0.23524
3921.14,0.23818
3915.35,0.23986
3909.57,0.24272
3903.78,0.24505
3897.99,0.24727
3892.21,0.24846
3886.42,0.25045
3880.64,0.25235
3874.85,0.25491
3869.06,0.25757
3863.28,0.25996
3857.49,0.26304
3851.7,0.26464
3845.92,0.26727
3840.13,0.27010
3834.35,0.27065
3828.56,0.27111
3822.77,0.27206
3816.99,0.27188
3811.2,0.27165
3805.41,0.27163
3799.63,0.27084
3793.84,0.26979
3788.06,0.26899
3782.27,0.26861
3776.48,0.26647
3770.7,0.26526
3764.91,0.26350
3759.12,0.26101
3753.34,0.25884
3747.55,0.25666
3741.77,0.25274
3735.98,0.25031
3730.19,0.24645
3724.41,0.24160
3718.62,0.23675
3712.83,0.23016
3707.05,0.22279
3701.26,0.21413
3695.48,0.20488
3689.69,0.19378
3683.9,0.17972
3678.12,0.16689
3672.33,0.15244
3666.54,0.13864
3660.76,0.12866
3654.97,0.11800
3649.19,0.10952
3643.4,0.10163
3637.61,0.09517
3631.83,0.09100
3626.04,0.08554
3620.25,0.08102
3614.47,0.07720
3608.68,0.07347
3602.9,0.06982
3597.11,0.06698
3591.32,0.06421
3585.54,0.06154
3579.75,0.05915
3573.97,0.05734
3568.18,0.05491
3562.39,0.05308
3556.61,0.05154
3550.82,0.04909
3545.03,0.04829
3539.25,0.04773
3533.46,0.04613
3527.68,0.04609
3521.89,0.04495
3516.1,0.04428
3510.32,0.04360
3504.53,0.04323
3498.74,0.04191
3492.96,0.04107
3487.17,0.04105
3481.39,0.04073
3475.6,0.04079
3469.81,0.04025
3464.03,0.03940
3458.24,0.03953
3452.45,0.03888
3446.67,0.03936
3440.88,0.03897
3435.1,0.03905
3429.31,0.03905
3423.52,0.03887
3417.74,0.03985
3411.95,0.03955
3406.16,0.04018
3400.38,0.03984
3394.59,0.04011
3388.81,0.04022
3383.02,0.04150
3377.23,0.04133
3371.45,0.04142
3365.66,0.04170
3359.87,0.04134
3354.09,0.04135
3348.3,0.04198
3342.52,0.04338
3336.73,0.04389
3330.94,0.04385
3325.16,0.04404
3319.37,0.04518
3313.58,0.04513
3307.8,0.04573
3302.01,0.04629
3296.23,0.04616
3290.44,0.04688
3284.65,0.04753
3278.87,0.04794
3273.08,0.04876
3267.29,0.04927
3261.51,0.04987
3255.72,0.05117
3249.94,0.05190
3244.15,0.05227
3238.36,0.05348
3232.58,0.05354
3226.79,0.05517
3221,0.05588
3215.22,0.05681
3209.43,0.05703
3203.65,0.05801
3197.86,0.05894
3192.07,0.06009
3186.29,0.06034
3180.5,0.06135
3174.71,0.06248
3168.93,0.06382
3163.14,0.06435
3157.36,0.06526
3151.57,0.06625
3145.78,0.06672
3140,0.06797
3134.21,0.06845
3128.42,0.06966
3122.64,0.07035
3116.85,0.07093
3111.07,0.07260
3105.28,0.07369
3099.49,0.07425
3093.71,0.07501
3087.92,0.07577
3082.14,0.07647
3076.35,0.07785
3070.56,0.07847
3064.78,0.07907
3058.99,0.08018
3053.2,0.08119
3047.42,0.08164
3041.63,0.08162
3035.85,0.08168
3030.06,0.08110
3024.27,0.08190
3018.49,0.08141
3012.7,0.08014
3006.91,0.07846
3001.13,0.07728
2995.34,0.07667
2989.56,0.07490
2983.77,0.07185
2977.98,0.06897
2972.2,0.06589
2966.41,0.06419
2960.62,0.06277
2954.84,0.06103
2949.05,0.05870
2943.27,0.05779
2937.48,0.05686
2931.69,0.05733
2925.91,0.05659
2920.12,0.05713
2914.33,0.05778
2908.55,0.05780
2902.76,0.05828
2896.98,0.05880
2891.19,0.05894
2885.4,0.05963
2879.62,0.06043
2873.83,0.06121
2868.04,0.06225
2862.26,0.06404
2856.47,0.06452
2850.69,0.06670
2844.9,0.06965
2839.11,0.07192
2833.33,0.07543
2827.54,0.07898
2821.75,0.08211
2815.97,0.08465
2810.18,0.08705
2804.4,0.08880
2798.61,0.09050
2792.82,0.09158
2787.04,0.09261
2781.25,0.09382
2775.46,0.09439
2769.68,0.09544
2763.89,0.09615
2758.11,0.09641
2752.32,0.09676
2746.53,0.09720
2740.75,0.09739
2734.96,0.09816
2729.17,0.09856
2723.39,0.09939
2717.6,0.10058
2711.82,0.10170
2706.03,0.10301
2700.24,0.10437
2694.46,0.10545
2688.67,0.10653
2682.88,0.10744
2677.1,0.10854
2671.31,0.10992
2665.53,0.11045
2659.74,0.11108
2653.95,0.11159
2648.17,0.11239
2642.38,0.11349
2636.59,0.11520
2630.81,0.11586
2625.02,0.11728
2619.24,0.11842
2613.45,0.11970
2607.66,0.12026
2601.88,0.12138
2596.09,0.12191
2590.3,0.12351
2584.52,0.12418
2578.73,0.12487
2572.95,0.12510
2567.16,0.12602
2561.37,0.12671
2555.59,0.12731
2549.8,0.12767
2544.02,0.12836
2538.23,0.12946
2532.44,0.12959
2526.66,0.13027
2520.87,0.13107
2515.08,0.13139
2509.3,0.13230
2503.51,0.13342
2497.73,0.13520
2491.94,0.13666
2486.15,0.13777
2480.37,0.13845
2474.58,0.14015
2468.79,0.14083
2463.01,0.14205
2457.22,0.14333
2451.44,0.14478
2445.65,0.14619
2439.86,0.14807
2434.08,0.14959
2428.29,0.15172
2422.5,0.15411
2416.72,0.15571
2410.93,0.15816
2405.15,0.16043
2399.36,0.16252
2393.57,0.16448
2387.79,0.16571
2382,0.16728
2376.21,0.16928
2370.43,0.17069
2364.64,0.17118
2358.86,0.17247
2353.07,0.17435
2347.28,0.17566
2341.5,0.17677
2335.71,0.17781
2329.92,0.17824
2324.14,0.17887
2318.35,0.17954
2312.57,0.17945
2306.78,0.17938
2300.99,0.17908
2295.21,0.17845
2289.42,0.17893
2283.63,0.17870
2277.85,0.17848
2272.06,0.17781
2266.28,0.17674
2260.49,0.17574
2254.7,0.17443
2248.92,0.17284
2243.13,0.17216
2237.34,0.17202
2231.56,0.17207
2225.77,0.17228
2219.99,0.17263
2214.2,0.17203
2208.41,0.17121
2202.63,0.17006
2196.84,0.16894
2191.05,0.16663
2185.27,0.16361
2179.48,0.16099
2173.7,0.15822
2167.91,0.15553
2162.12,0.15330
2156.34,0.15127
2150.55,0.15033
2144.76,0.14922
2138.98,0.14857
2133.19,0.14856
2127.41,0.14871
2121.62,0.14897
2115.83,0.14955
2110.05,0.15014
2104.26,0.15110
2098.47,0.15196
2092.69,0.15300
2086.9,0.15331
2081.12,0.15418
2075.33,0.15385
2069.54,0.15373
2063.76,0.15418
2057.97,0.15419
2052.19,0.15458
2046.4,0.15519
2040.61,0.15624
2034.83,0.15737
2029.04,0.15848
2023.25,0.16014
2017.47,0.16276
2011.68,0.16504
2005.9,0.16725
2000.11,0.16897
1994.32,0.17018
1988.54,0.17167
1982.75,0.17210
1976.96,0.17204
1971.18,0.17185
1965.39,0.17146
1959.61,0.17072
1953.82,0.17064
1948.03,0.17089
1942.25,0.17247
1936.46,0.17477
1930.67,0.17615
1924.89,0.17801
1919.1,0.17940
1913.32,0.17966
1907.53,0.17966
1901.74,0.17948
1895.96,0.17952
1890.17,0.17964
1884.38,0.17942
1878.6,0.17945
1872.81,0.17858
1867.03,0.17782
1861.24,0.17578
1855.45,0.17373
1849.67,0.17138
1843.88,0.16880
1838.09,0.16635
1832.31,0.16253
1826.52,0.15835
1820.74,0.15304
1814.95,0.14712
1809.16,0.13998
1803.38,0.13191
1797.59,0.12245
1791.8,0.11275
1786.02,0.10397
1780.23,0.09452
1774.45,0.08366
1768.66,0.07112
1762.87,0.06078
1757.09,0.05330
1751.3,0.04878
1745.51,0.04651
1739.73,0.04614
1733.94,0.04687
1728.16,0.04872
1722.37,0.05032
1716.58,0.05338
1710.8,0.05574
1705.01,0.05777
1699.22,0.05970
1693.44,0.05978
1687.65,0.06059
1681.87,0.06023
1676.08,0.05919
1670.29,0.05914
1664.51,0.05757
1658.72,0.05648
1652.93,0.05643
1647.15,0.05641
1641.36,0.05561
1635.58,0.05472
1629.79,0.05395
1624,0.05400
1618.22,0.05352
1612.43,0.05252
1606.64,0.05012
1600.86,0.05009
1595.07,0.05066
1589.29,0.05288
1583.5,0.05716
1577.71,0.06211
1571.93,0.06660
1566.14,0.07024
1560.35,0.07209
1554.57,0.07308
1548.78,0.07298
1543,0.07254
1537.21,0.07015
1531.42,0.06718
1525.64,0.06113
1519.85,0.05270
1514.07,0.04835
1508.28,0.04868
1502.49,0.05008
1496.71,0.05240
1490.92,0.05474
1485.13,0.05460
1479.35,0.05127
1473.56,0.04625
1467.78,0.04212
1461.99,0.04192
1456.2,0.04248
1450.42,0.04327
1444.63,0.04341
1438.84,0.04300
1433.06,0.04237
1427.27,0.04211
1421.49,0.04292
1415.7,0.04439
1409.91,0.04502
1404.13,0.04476
1398.34,0.04357
1392.55,0.04232
1386.77,0.04071
1380.98,0.03948
1375.2,0.04038
1369.41,0.04174
1363.62,0.04289
1357.84,0.04328
1352.05,0.04323
1346.26,0.04237
1340.48,0.04134
1334.69,0.04103
1328.91,0.04120
1323.12,0.04150
1317.33,0.04240
1311.55,0.04344
1305.76,0.04393
1299.97,0.04416
1294.19,0.04349
1288.4,0.04163
1282.62,0.04050
1276.83,0.03923
1271.04,0.03806
1265.26,0.03721
1259.47,0.03713
1253.68,0.03722
1247.9,0.03774
1242.11,0.03921
1236.33,0.04022
1230.54,0.04123
1224.75,0.04221
1218.97,0.04292
1213.18,0.04285
1207.39,0.04245
1201.61,0.04149
1195.82,0.04081
1190.04,0.03983
1184.25,0.03658
1178.46,0.03470
1172.68,0.03347
1166.89,0.03711
1161.1,0.04000
1155.32,0.04110
1149.53,0.04003
1143.75,0.03782
1137.96,0.03529
1132.17,0.03312
1126.39,0.03531
1120.6,0.03707
1114.81,0.03874
1109.03,0.04104
1103.24,0.04220
1097.46,0.04174
1091.67,0.04093
1085.88,0.04042
1080.1,0.04234
1074.31,0.04616
1068.52,0.05057
1062.74,0.05621
1056.95,0.06235
1051.17,0.06490
1045.38,0.06544
1039.59,0.06876
1033.81,0.07191
1028.02,0.07265
1022.24,0.07109
1016.45,0.06994
1010.66,0.06951
1004.88,0.07006
999.09,0.07069
993.304,0.07122
987.518,0.07320
981.731,0.07556
975.945,0.07764
970.159,0.07875
964.373,0.08119
958.586,0.08498
952.8,0.08837
947.014,0.09083
941.228,0.09127
935.441,0.08951
929.655,0.08764
923.869,0.08736
918.083,0.08587
912.297,0.08462
906.51,0.08150
900.724,0.07829
894.938,0.07984
889.152,0.08432
883.365,0.08733
877.579,0.08656
871.793,0.08551
866.007,0.08617
860.22,0.08662
854.434,0.08606
848.648,0.08364
842.862,0.08129
837.075,0.08051
831.289,0.08004
825.503,0.08182
819.717,0.08310
813.931,0.08452
808.144,0.08520
802.358,0.08519
796.572,0.08446
790.786,0.08386
784.999,0.08271
779.213,0.07991
773.427,0.07853
767.641,0.07763
761.854,0.07617
756.068,0.07367
750.282,0.07228
744.496,0.06944
738.709,0.06860
732.923,0.06726
727.137,0.06695
721.351,0.06598
715.565,0.06463
709.778,0.06484
703.992,0.06408
698.206,0.06300
692.42,0.06384
686.633,0.06244
680.847,0.05880
675.061,0.05814
669.275,0.05843
663.488,0.06059
657.702,0.06003
651.916,0.05932
646.13,0.05979
640.343,0.05990
634.557,0.05828
628.771,0.05630
622.985,0.05798
617.198,0.05953
611.412,0.05706
605.626,0.05863
599.84,0.06089