File: 01_Data/Bamboo_Rug/FTIR/IS/Bamboo_Rug_IS_S_220822_R4.dpt
7497.03,0.76914
7491.25,0.76600
7485.46,0.76270
7479.67,0.75818
7473.89,0.75691
7468.1,0.75218
7462.32,0.75473
7456.53,0.74251
7450.74,0.73770
7444.96,0.73880
7439.17,0.74994
7433.38,0.72624
7427.6,0.73977
7421.81,0.73938
7416.03,0.72801
7410.24,0.71682
7404.45,0.72147
7398.67,0.72320
7392.88,0.72768
7387.09,0.71008
7381.31,0.71030
7375.52,0.71218
7369.74,0.70370
7363.95,0.69740
7358.16,0.70893
7352.38,0.71033
7346.59,0.69593
7340.8,0.69947
7335.02,0.68792
7329.23,0.68974
7323.45,0.68794
7317.66,0.69116
7311.87,0.68636
7306.09,0.68149
7300.3,0.68980
7294.51,0.68732
7288.73,0.68226
7282.94,0.68276
7277.16,0.68510
7271.37,0.67984
7265.58,0.67943
7259.8,0.68409
7254.01,0.68039
7248.22,0.67498
7242.44,0.67717
7236.65,0.67677
7230.87,0.66992
7225.08,0.67011
7219.29,0.67475
7213.51,0.66885
7207.72,0.66789
7201.93,0.66056
7196.15,0.66227
7190.36,0.66061
7184.58,0.65977
7178.79,0.65398
7173,0.65308
7167.22,0.64700
7161.43,0.64714
7155.65,0.63683
7149.86,0.63058
7144.07,0.63006
7138.29,0.62639
7132.5,0.62533
7126.71,0.61400
7120.93,0.61457
7115.14,0.60377
7109.36,0.59798
7103.57,0.59017
7097.78,0.58840
7092,0.58243
7086.21,0.57523
7080.42,0.56663
7074.64,0.56557
7068.85,0.56051
7063.07,0.55928
7057.28,0.55180
7051.49,0.54343
7045.71,0.53775
7039.92,0.53725
7034.13,0.52993
7028.35,0.52950
7022.56,0.51693
7016.78,0.50863
7010.99,0.50992
7005.2,0.50696
6999.42,0.50574
6993.63,0.49332
6987.84,0.50217
6982.06,0.50064
6976.27,0.49814
6970.49,0.49286
6964.7,0.48871
6958.91,0.48367
6953.13,0.48906
6947.34,0.48988
6941.55,0.48588
6935.77,0.48156
6929.98,0.48496
6924.2,0.48509
6918.41,0.48480
6912.62,0.47970
6906.84,0.48207
6901.05,0.48129
6895.26,0.47769
6889.48,0.47798
6883.69,0.48000
6877.91,0.48335
6872.12,0.47850
6866.33,0.48401
6860.55,0.47808
6854.76,0.47478
6848.97,0.47694
6843.19,0.47709
6837.4,0.47715
6831.62,0.47498
6825.83,0.48091
6820.04,0.47398
6814.26,0.47501
6808.47,0.47471
6802.68,0.47148
6796.9,0.47393
6791.11,0.47641
6785.33,0.48200
6779.54,0.47627
6773.75,0.47729
6767.97,0.48036
6762.18,0.47969
6756.39,0.47791
6750.61,0.47839
6744.82,0.47845
6739.04,0.47919
6733.25,0.48217
6727.46,0.48144
6721.68,0.48371
6715.89,0.48792
6710.1,0.48773
6704.32,0.48339
6698.53,0.48966
6692.75,0.48525
6686.96,0.48387
6681.17,0.48804
6675.39,0.49080
6669.6,0.49062
6663.82,0.49312
6658.03,0.49353
6652.24,0.49580
6646.46,0.49567
6640.67,0.49640
6634.88,0.49434
6629.1,0.49540
6623.31,0.49460
6617.53,0.50011
6611.74,0.50486
6605.95,0.50132
6600.17,0.50259
6594.38,0.50359
6588.59,0.50393
6582.81,0.50420
6577.02,0.50553
6571.24,0.50446
6565.45,0.50636
6559.66,0.50562
6553.88,0.51170
6548.09,0.51467
6542.3,0.51033
6536.52,0.51299
6530.73,0.51229
6524.95,0.51382
6519.16,0.51377
6513.37,0.51673
6507.59,0.51750
6501.8,0.51655
6496.01,0.51849
6490.23,0.51784
6484.44,0.51932
6478.66,0.51681
6472.87,0.51842
6467.08,0.51892
6461.3,0.51747
6455.51,0.52086
6449.72,0.51891
6443.94,0.52178
6438.15,0.52276
6432.37,0.52406
6426.58,0.52529
6420.79,0.52149
6415.01,0.52342
6409.22,0.52428
6403.43,0.52573
6397.65,0.52538
6391.86,0.52763
6386.08,0.52514
6380.29,0.52679
6374.5,0.52531
6368.72,0.52427
6362.93,0.52570
6357.14,0.52574
6351.36,0.52823
6345.57,0.52985
6339.79,0.52761
6334,0.52803
6328.21,0.53102
6322.43,0.53129
6316.64,0.53140
6310.85,0.53483
6305.07,0.53080
6299.28,0.53443
6293.5,0.53308
6287.71,0.53365
6281.92,0.53476
6276.14,0.54015
6270.35,0.53602
6264.56,0.54206
6258.78,0.54470
6252.99,0.54195
6247.21,0.54281
6241.42,0.54489
6235.63,0.54761
6229.85,0.55083
6224.06,0.55390
6218.27,0.55286
6212.49,0.55356
6206.7,0.55716
6200.92,0.55833
6195.13,0.55958
6189.34,0.56108
6183.56,0.56477
6177.77,0.56649
6171.98,0.56744
6166.2,0.57262
6160.41,0.57048
6154.63,0.56956
6148.84,0.57521
6143.05,0.57213
6137.27,0.57615
6131.48,0.57813
6125.7,0.57793
6119.91,0.57380
6114.12,0.57801
6108.34,0.57881
6102.55,0.57907
6096.76,0.57675
6090.98,0.57875
6085.19,0.57735
6079.41,0.57886
6073.62,0.57837
6067.83,0.57783
6062.05,0.57753
6056.26,0.57682
6050.47,0.57321
6044.69,0.56964
6038.9,0.57019
6033.12,0.56806
6027.33,0.56894
6021.54,0.56543
6015.76,0.56464
6009.97,0.56375
6004.18,0.56062
5998.4,0.55804
5992.61,0.56111
5986.83,0.55800
5981.04,0.55488
5975.25,0.55506
5969.47,0.55420
5963.68,0.55255
5957.89,0.55304
5952.11,0.55045
5946.32,0.55230
5940.54,0.55049
5934.75,0.55086
5928.96,0.54927
5923.18,0.55129
5917.39,0.55187
5911.6,0.54788
5905.82,0.54774
5900.03,0.54583
5894.25,0.54599
5888.46,0.54443
5882.67,0.54495
5876.89,0.54517
5871.1,0.54612
5865.31,0.54560
5859.53,0.54669
5853.74,0.54555
5847.96,0.54406
5842.17,0.54595
5836.38,0.54436
5830.6,0.54089
5824.81,0.53923
5819.02,0.53587
5813.24,0.53466
5807.45,0.53444
5801.67,0.53453
5795.88,0.53392
5790.09,0.53554
5784.31,0.53920
5778.52,0.53884
5772.73,0.54123
5766.95,0.54178
5761.16,0.54337
5755.38,0.54376
5749.59,0.54461
5743.8,0.54336
5738.02,0.54719
5732.23,0.54735
5726.44,0.54429
5720.66,0.54692
5714.87,0.54668
5709.09,0.54627
5703.3,0.54422
5697.51,0.54539
5691.73,0.54285
5685.94,0.54061
5680.15,0.54219
5674.37,0.54137
5668.58,0.54197
5662.8,0.54127
5657.01,0.53884
5651.22,0.53996
5645.44,0.53831
5639.65,0.53754
5633.87,0.53947
5628.08,0.53961
5622.29,0.53747
5616.51,0.53775
5610.72,0.53676
5604.93,0.53774
5599.15,0.53657
5593.36,0.53851
5587.58,0.53865
5581.79,0.53882
5576,0.54052
5570.22,0.53954
5564.43,0.54145
5558.64,0.54284
5552.86,0.54210
5547.07,0.54200
5541.29,0.54467
5535.5,0.54681
5529.71,0.54663
5523.93,0.54593
5518.14,0.54368
5512.35,0.54658
5506.57,0.54696
5500.78,0.54672
5495,0.54853
5489.21,0.54856
5483.42,0.54888
5477.64,0.55012
5471.85,0.54948
5466.06,0.55257
5460.28,0.55133
5454.49,0.55201
5448.71,0.55579
5442.92,0.55571
5437.13,0.55845
5431.35,0.55937
5425.56,0.56044
5419.77,0.56102
5413.99,0.56241
5408.2,0.56191
5402.42,0.56440
5396.63,0.56250
5390.84,0.56351
5385.06,0.56395
5379.27,0.56426
5373.48,0.56309
5367.7,0.56257
5361.91,0.56004
5356.13,0.55822
5350.34,0.55846
5344.55,0.55410
5338.77,0.55322
5332.98,0.54894
5327.19,0.54547
5321.41,0.53835
5315.62,0.53370
5309.84,0.52635
5304.05,0.51795
5298.26,0.50862
5292.48,0.49639
5286.69,0.48404
5280.9,0.47267
5275.12,0.45961
5269.33,0.44384
5263.55,0.42943
5257.76,0.41521
5251.97,0.40492
5246.19,0.39606
5240.4,0.38814
5234.61,0.38064
5228.83,0.37503
5223.04,0.37123
5217.26,0.36678
5211.47,0.36619
5205.68,0.36342
5199.9,0.36224
5194.11,0.36047
5188.32,0.36152
5182.54,0.36228
5176.75,0.36497
5170.97,0.36813
5165.18,0.36877
5159.39,0.37163
5153.61,0.37474
5147.82,0.37925
5142.03,0.38325
5136.25,0.38716
5130.46,0.38911
5124.68,0.39399
5118.89,0.39464
5113.1,0.39844
5107.32,0.40303
5101.53,0.40663
5095.75,0.41104
5089.96,0.41293
5084.17,0.41754
5078.39,0.42042
5072.6,0.42191
5066.81,0.42611
5061.03,0.42985
5055.24,0.43144
5049.46,0.43527
5043.67,0.43766
5037.88,0.44052
5032.1,0.44378
5026.31,0.44581
5020.52,0.44779
5014.74,0.44783
5008.95,0.45029
5003.17,0.45092
4997.38,0.45266
4991.59,0.45396
4985.81,0.45302
4980.02,0.45172
4974.23,0.45166
4968.45,0.44860
4962.66,0.44687
4956.88,0.44441
4951.09,0.43995
4945.3,0.43596
4939.52,0.43213
4933.73,0.42617
4927.94,0.42277
4922.16,0.41665
4916.37,0.41235
4910.59,0.40700
4904.8,0.40138
4899.01,0.39703
4893.23,0.39229
4887.44,0.38638
4881.65,0.38288
4875.87,0.37694
4870.08,0.37321
4864.3,0.36874
4858.51,0.36449
4852.72,0.35956
4846.94,0.35689
4841.15,0.35371
4835.36,0.34988
4829.58,0.34704
4823.79,0.34427
4818.01,0.34312
4812.22,0.34068
4806.43,0.33772
4800.65,0.33777
4794.86,0.33721
4789.07,0.33708
4783.29,0.33445
4777.5,0.33368
4771.72,0.33373
4765.93,0.33149
4760.14,0.33121
4754.36,0.33108
4748.57,0.33160
4742.78,0.33128
4737,0.33146
4731.21,0.33119
4725.43,0.33190
4719.64,0.33376
4713.85,0.33421
4708.07,0.33318
4702.28,0.33453
4696.49,0.33574
4690.71,0.33557
4684.92,0.33714
4679.14,0.33913
4673.35,0.34093
4667.56,0.34287
4661.78,0.34549
4655.99,0.34770
4650.2,0.34961
4644.42,0.35272
4638.63,0.35386
4632.85,0.35597
4627.06,0.35859
4621.27,0.36126
4615.49,0.36306
4609.7,0.36532
4603.92,0.36733
4598.13,0.36978
4592.34,0.37176
4586.56,0.37270
4580.77,0.37400
4574.98,0.37620
4569.2,0.37765
4563.41,0.37891
4557.63,0.38096
4551.84,0.38148
4546.05,0.38335
4540.27,0.38391
4534.48,0.38533
4528.69,0.38534
4522.91,0.38556
4517.12,0.38578
4511.34,0.38460
4505.55,0.38298
4499.76,0.38128
4493.98,0.37831
4488.19,0.37374
4482.4,0.36934
4476.62,0.36278
4470.83,0.35646
4465.05,0.34765
4459.26,0.34026
4453.47,0.33254
4447.69,0.32544
4441.9,0.31809
4436.11,0.31172
4430.33,0.30749
4424.54,0.30251
4418.76,0.29861
4412.97,0.29636
4407.18,0.29449
4401.4,0.29380
4395.61,0.29303
4389.82,0.29411
4384.04,0.29496
4378.25,0.29637
4372.47,0.29910
4366.68,0.30086
4360.89,0.30191
4355.11,0.30158
4349.32,0.30047
4343.53,0.29901
4337.75,0.29715
4331.96,0.29489
4326.18,0.29248
4320.39,0.29020
4314.6,0.28797
4308.82,0.28666
4303.03,0.28376
4297.24,0.28290
4291.46,0.28216
4285.67,0.28114
4279.89,0.28116
4274.1,0.28195
4268.31,0.28314
4262.53,0.28402
4256.74,0.28514
4250.95,0.28522
4245.17,0.28640
4239.38,0.28661
4233.6,0.28733
4227.81,0.28845
4222.02,0.28844
4216.24,0.28898
4210.45,0.28893
4204.66,0.28878
4198.88,0.28960
4193.09,0.29038
4187.31,0.29003
4181.52,0.29132
4175.73,0.29194
4169.95,0.29199
4164.16,0.29203
4158.37,0.29184
4152.59,0.29080
4146.8,0.28855
4141.02,0.28658
4135.23,0.28389
4129.44,0.28046
4123.66,0.27711
4117.87,0.27309
4112.09,0.26956
4106.3,0.26591
4100.51,0.26189
4094.73,0.25777
4088.94,0.25286
4083.15,0.24866
4077.37,0.24421
4071.58,0.23984
4065.8,0.23521
4060.01,0.23020
4054.22,0.22645
4048.44,0.22388
4042.65,0.21980
4036.86,0.21649
4031.08,0.21439
4025.29,0.21234
4019.51,0.21161
4013.72,0.21094
4007.93,0.21034
4002.15,0.21127
3996.36,0.21229
3990.57,0.21372
3984.79,0.21458
3979,0.21617
3973.22,0.21658
3967.43,0.21878
3961.64,0.22077
3955.86,0.22240
3950.07,0.22480
3944.28,0.22749
3938.5,0.22920
3932.71,0.23112
3926.93,0.23330
3921.14,0.23580
3915.35,0.23763
3909.57,0.23988
3903.78,0.24229
3897.99,0.24412
3892.21,0.24670
3886.42,0.24864
3880.64,0.25077
3874.85,0.25277
3869.06,0.25455
3863.28,0.25682
3857.49,0.26001
3851.7,0.26173
3845.92,0.26397
3840.13,0.26610
3834.35,0.26727
3828.56,0.26772
3822.77,0.26835
3816.99,0.26903
3811.2,0.26848
3805.41,0.26791
3799.63,0.26698
3793.84,0.26614
3788.06,0.26571
3782.27,0.26330
3776.48,0.26232
3770.7,0.26081
3764.91,0.25833
3759.12,0.25583
3753.34,0.25485
3747.55,0.25119
3741.77,0.24784
3735.98,0.24522
3730.19,0.24063
3724.41,0.23634
3718.62,0.23091
3712.83,0.22497
3707.05,0.21680
3701.26,0.20908
3695.48,0.19890
3689.69,0.18766
3683.9,0.17403
3678.12,0.16129
3672.33,0.14713
3666.54,0.13337
3660.76,0.12329
3654.97,0.11340
3649.19,0.10492
3643.4,0.09827
3637.61,0.09188
3631.83,0.08632
3626.04,0.08197
3620.25,0.07809
3614.47,0.07418
3608.68,0.07073
3602.9,0.06760
3597.11,0.06474
3591.32,0.06265
3585.54,0.06002
3579.75,0.05756
3573.97,0.05582
3568.18,0.05405
3562.39,0.05234
3556.61,0.05097
3550.82,0.04940
3545.03,0.04821
3539.25,0.04726
3533.46,0.04630
3527.68,0.04547
3521.89,0.04467
3516.1,0.04322
3510.32,0.04306
3504.53,0.04162
3498.74,0.04227
3492.96,0.04189
3487.17,0.04107
3481.39,0.04015
3475.6,0.03995
3469.81,0.03982
3464.03,0.03944
3458.24,0.03914
3452.45,0.03911
3446.67,0.03903
3440.88,0.03909
3435.1,0.03923
3429.31,0.03956
3423.52,0.03938
3417.74,0.03912
3411.95,0.04012
3406.16,0.04069
3400.38,0.04037
3394.59,0.04097
3388.81,0.04006
3383.02,0.04101
3377.23,0.04167
3371.45,0.04137
3365.66,0.04140
3359.87,0.04155
3354.09,0.04214
3348.3,0.04222
3342.52,0.04339
3336.73,0.04385
3330.94,0.04418
3325.16,0.04479
3319.37,0.04521
3313.58,0.04506
3307.8,0.04641
3302.01,0.04636
3296.23,0.04682
3290.44,0.04639
3284.65,0.04744
3278.87,0.04775
3273.08,0.04889
3267.29,0.04946
3261.51,0.05053
3255.72,0.05107
3249.94,0.05087
3244.15,0.05234
3238.36,0.05281
3232.58,0.05460
3226.79,0.05508
3221,0.05536
3215.22,0.05636
3209.43,0.05663
3203.65,0.05793
3197.86,0.05883
3192.07,0.05908
3186.29,0.05985
3180.5,0.06123
3174.71,0.06192
3168.93,0.06224
3163.14,0.06337
3157.36,0.06370
3151.57,0.06517
3145.78,0.06651
3140,0.06710
3134.21,0.06818
3128.42,0.06890
3122.64,0.06946
3116.85,0.07091
3111.07,0.07225
3105.28,0.07283
3099.49,0.07330
3093.71,0.07417
3087.92,0.07449
3082.14,0.07549
3076.35,0.07630
3070.56,0.07745
3064.78,0.07849
3058.99,0.07863
3053.2,0.08023
3047.42,0.07992
3041.63,0.08044
3035.85,0.08083
3030.06,0.08046
3024.27,0.08044
3018.49,0.07986
3012.7,0.07905
3006.91,0.07793
3001.13,0.07659
2995.34,0.07620
2989.56,0.07392
2983.77,0.07127
2977.98,0.06890
2972.2,0.06609
2966.41,0.06420
2960.62,0.06251
2954.84,0.06076
2949.05,0.05888
2943.27,0.05759
2937.48,0.05689
2931.69,0.05711
2925.91,0.05736
2920.12,0.05733
2914.33,0.05783
2908.55,0.05749
2902.76,0.05773
2896.98,0.05804
2891.19,0.05883
2885.4,0.05945
2879.62,0.06061
2873.83,0.06140
2868.04,0.06259
2862.26,0.06399
2856.47,0.06505
2850.69,0.06651
2844.9,0.06904
2839.11,0.07216
2833.33,0.07510
2827.54,0.07899
2821.75,0.08196
2815.97,0.08444
2810.18,0.08630
2804.4,0.08820
2798.61,0.08982
2792.82,0.09135
2787.04,0.09248
2781.25,0.09336
2775.46,0.09388
2769.68,0.09437
2763.89,0.09512
2758.11,0.09557
2752.32,0.09617
2746.53,0.09693
2740.75,0.09740
2734.96,0.09803
2729.17,0.09819
2723.39,0.09861
2717.6,0.10000
2711.82,0.10097
2706.03,0.10205
2700.24,0.10333
2694.46,0.10478
2688.67,0.10554
2682.88,0.10648
2677.1,0.10778
2671.31,0.10886
2665.53,0.10962
2659.74,0.11059
2653.95,0.11095
2648.17,0.11188
2642.38,0.11306
2636.59,0.11423
2630.81,0.11508
2625.02,0.11660
2619.24,0.11776
2613.45,0.11885
2607.66,0.11940
2601.88,0.12025
2596.09,0.12193
2590.3,0.12250
2584.52,0.12357
2578.73,0.12417
2572.95,0.12479
2567.16,0.12521
2561.37,0.12576
2555.59,0.12694
2549.8,0.12657
2544.02,0.12770
2538.23,0.12838
2532.44,0.12904
2526.66,0.12925
2520.87,0.13003
2515.08,0.13072
2509.3,0.13141
2503.51,0.13317
2497.73,0.13442
2491.94,0.13513
2486.15,0.13692
2480.37,0.13815
2474.58,0.13950
2468.79,0.14044
2463.01,0.14140
2457.22,0.14260
2451.44,0.14379
2445.65,0.14584
2439.86,0.14748
2434.08,0.14892
2428.29,0.15113
2422.5,0.15274
2416.72,0.15487
2410.93,0.15699
2405.15,0.15916
2399.36,0.16137
2393.57,0.16373
2387.79,0.16502
2382,0.16634
2376.21,0.16764
2370.43,0.16881
2364.64,0.16985
2358.86,0.17102
2353.07,0.17269
2347.28,0.17401
2341.5,0.17495
2335.71,0.17609
2329.92,0.17677
2324.14,0.17726
2318.35,0.17766
2312.57,0.17734
2306.78,0.17716
2300.99,0.17698
2295.21,0.17648
2289.42,0.17660
2283.63,0.17627
2277.85,0.17636
2272.06,0.17584
2266.28,0.17456
2260.49,0.17344
2254.7,0.17183
2248.92,0.17096
2243.13,0.17018
2237.34,0.16943
2231.56,0.16984
2225.77,0.17001
2219.99,0.17039
2214.2,0.16990
2208.41,0.16905
2202.63,0.16795
2196.84,0.16606
2191.05,0.16380
2185.27,0.16152
2179.48,0.15864
2173.7,0.15577
2167.91,0.15298
2162.12,0.15079
2156.34,0.14934
2150.55,0.14786
2144.76,0.14703
2138.98,0.14657
2133.19,0.14654
2127.41,0.14647
2121.62,0.14689
2115.83,0.14768
2110.05,0.14822
2104.26,0.14884
2098.47,0.14977
2092.69,0.15066
2086.9,0.15148
2081.12,0.15164
2075.33,0.15157
2069.54,0.15157
2063.76,0.15143
2057.97,0.15226
2052.19,0.15259
2046.4,0.15309
2040.61,0.15355
2034.83,0.15454
2029.04,0.15605
2023.25,0.15761
2017.47,0.16034
2011.68,0.16274
2005.9,0.16483
2000.11,0.16651
1994.32,0.16837
1988.54,0.16888
1982.75,0.16960
1976.96,0.16954
1971.18,0.16947
1965.39,0.16875
1959.61,0.16837
1953.82,0.16850
1948.03,0.16897
1942.25,0.17035
1936.46,0.17201
1930.67,0.17393
1924.89,0.17548
1919.1,0.17682
1913.32,0.17726
1907.53,0.17724
1901.74,0.17731
1895.96,0.17727
1890.17,0.17725
1884.38,0.17744
1878.6,0.17725
1872.81,0.17660
1867.03,0.17505
1861.24,0.17330
1855.45,0.17159
1849.67,0.16931
1843.88,0.16695
1838.09,0.16396
1832.31,0.16069
1826.52,0.15656
1820.74,0.15140
1814.95,0.14572
1809.16,0.13862
1803.38,0.13082
1797.59,0.12171
1791.8,0.11250
1786.02,0.10340
1780.23,0.09395
1774.45,0.08388
1768.66,0.07112
1762.87,0.06097
1757.09,0.05380
1751.3,0.04906
1745.51,0.04632
1739.73,0.04588
1733.94,0.04730
1728.16,0.04864
1722.37,0.05095
1716.58,0.05335
1710.8,0.05527
1705.01,0.05750
1699.22,0.05890
1693.44,0.05967
1687.65,0.06016
1681.87,0.05975
1676.08,0.05885
1670.29,0.05771
1664.51,0.05721
1658.72,0.05608
1652.93,0.05578
1647.15,0.05568
1641.36,0.05508
1635.58,0.05460
1629.79,0.05374
1624,0.05361
1618.22,0.05354
1612.43,0.05162
1606.64,0.05006
1600.86,0.05016
1595.07,0.05063
1589.29,0.05252
1583.5,0.05678
1577.71,0.06189
1571.93,0.06651
1566.14,0.06913
1560.35,0.07181
1554.57,0.07284
1548.78,0.07217
1543,0.07181
1537.21,0.06958
1531.42,0.06665
1525.64,0.06122
1519.85,0.05271
1514.07,0.04867
1508.28,0.04902
1502.49,0.05008
1496.71,0.05252
1490.92,0.05495
1485.13,0.05489
1479.35,0.05143
1473.56,0.04597
1467.78,0.04224
1461.99,0.04206
1456.2,0.04274
1450.42,0.04363
1444.63,0.04397
1438.84,0.04313
1433.06,0.04179
1427.27,0.04213
1421.49,0.04284
1415.7,0.04418
1409.91,0.04494
1404.13,0.04471
1398.34,0.04365
1392.55,0.04212
1386.77,0.04062
1380.98,0.03984
1375.2,0.03993
1369.41,0.04104
1363.62,0.04250
1357.84,0.04318
1352.05,0.04316
1346.26,0.04274
1340.48,0.04133
1334.69,0.04068
1328.91,0.04126
1323.12,0.04140
1317.33,0.04250
1311.55,0.04346
1305.76,0.04378
1299.97,0.04399
1294.19,0.04310
1288.4,0.04146
1282.62,0.04047
1276.83,0.03901
1271.04,0.03788
1265.26,0.03699
1259.47,0.03693
1253.68,0.03715
1247.9,0.03776
1242.11,0.03852
1236.33,0.03970
1230.54,0.04143
1224.75,0.04215
1218.97,0.04273
1213.18,0.04271
1207.39,0.04255
1201.61,0.04182
1195.82,0.04090
1190.04,0.03940
1184.25,0.03700
1178.46,0.03411
1172.68,0.03403
1166.89,0.03687
1161.1,0.03999
1155.32,0.04103
1149.53,0.03996
1143.75,0.03769
1137.96,0.03473
1132.17,0.03303
1126.39,0.03503
1120.6,0.03715
1114.81,0.03879
1109.03,0.04037
1103.24,0.04213
1097.46,0.04140
1091.67,0.04025
1085.88,0.04048
1080.1,0.04280
1074.31,0.04602
1068.52,0.04996
1062.74,0.05650
1056.95,0.06290
1051.17,0.06493
1045.38,0.06602
1039.59,0.06837
1033.81,0.07182
1028.02,0.07143
1022.24,0.07073
1016.45,0.07135
1010.66,0.07023
1004.88,0.06993
999.09,0.06961
993.304,0.07074
987.518,0.07305
981.731,0.07587
975.945,0.07771
970.159,0.07910
964.373,0.08080
958.586,0.08466
952.8,0.08818
947.014,0.09006
941.228,0.09010
935.441,0.08940
929.655,0.08834
923.869,0.08683
918.083,0.08525
912.297,0.08367
906.51,0.08071
900.724,0.07796
894.938,0.07854
889.152,0.08371
883.365,0.08654
877.579,0.08567
871.793,0.08545
866.007,0.08540
860.22,0.08610
854.434,0.08453
848.648,0.08279
842.862,0.08106
837.075,0.07961
831.289,0.08013
825.503,0.08164
819.717,0.08317
813.931,0.08269
808.144,0.08348
802.358,0.08302
796.572,0.08247
790.786,0.08275
784.999,0.08101
779.213,0.07906
773.427,0.07761
767.641,0.07600
761.854,0.07479
756.068,0.07289
750.282,0.07205
744.496,0.06977
738.709,0.06800
732.923,0.06695
727.137,0.06595
721.351,0.06473
715.565,0.06440
709.778,0.06469
703.992,0.06425
698.206,0.06292
692.42,0.06240
686.633,0.06100
680.847,0.05963
675.061,0.05909
669.275,0.05843
663.488,0.06049
657.702,0.05956
651.916,0.05910
646.13,0.05821
640.343,0.05722
634.557,0.05701
628.771,0.05757
622.985,0.05706
617.198,0.05911
611.412,0.05956
605.626,0.05973
599.84,0.06157