File: 01_Data/Bamboo_Rug/FTIR/IS/Bamboo_Rug_IS_S_220822_R6.dpt
7497.03,0.76628
7491.25,0.76464
7485.46,0.75206
7479.67,0.75748
7473.89,0.76103
7468.1,0.76594
7462.32,0.73903
7456.53,0.74161
7450.74,0.74177
7444.96,0.73743
7439.17,0.73516
7433.38,0.73560
7427.6,0.72841
7421.81,0.73100
7416.03,0.72825
7410.24,0.71497
7404.45,0.71915
7398.67,0.72425
7392.88,0.71539
7387.09,0.71120
7381.31,0.72083
7375.52,0.71135
7369.74,0.70821
7363.95,0.70450
7358.16,0.70802
7352.38,0.71196
7346.59,0.69579
7340.8,0.70984
7335.02,0.69282
7329.23,0.68905
7323.45,0.69054
7317.66,0.68872
7311.87,0.68927
7306.09,0.67951
7300.3,0.68282
7294.51,0.68775
7288.73,0.68514
7282.94,0.68533
7277.16,0.67398
7271.37,0.68361
7265.58,0.68377
7259.8,0.68704
7254.01,0.68090
7248.22,0.67463
7242.44,0.67617
7236.65,0.67188
7230.87,0.67535
7225.08,0.67461
7219.29,0.67169
7213.51,0.67076
7207.72,0.66590
7201.93,0.66310
7196.15,0.66274
7190.36,0.66201
7184.58,0.65275
7178.79,0.65173
7173,0.64934
7167.22,0.64823
7161.43,0.64100
7155.65,0.64058
7149.86,0.63029
7144.07,0.63072
7138.29,0.62889
7132.5,0.61842
7126.71,0.62305
7120.93,0.62063
7115.14,0.60941
7109.36,0.60032
7103.57,0.59712
7097.78,0.59020
7092,0.57688
7086.21,0.57684
7080.42,0.56796
7074.64,0.56608
7068.85,0.55803
7063.07,0.55472
7057.28,0.54901
7051.49,0.54453
7045.71,0.53900
7039.92,0.52706
7034.13,0.53513
7028.35,0.52462
7022.56,0.52107
7016.78,0.51280
7010.99,0.51180
7005.2,0.50961
6999.42,0.50390
6993.63,0.50447
6987.84,0.50338
6982.06,0.49769
6976.27,0.49244
6970.49,0.49458
6964.7,0.48864
6958.91,0.49477
6953.13,0.48838
6947.34,0.48733
6941.55,0.48969
6935.77,0.48491
6929.98,0.48647
6924.2,0.48921
6918.41,0.48777
6912.62,0.48634
6906.84,0.48505
6901.05,0.47883
6895.26,0.48406
6889.48,0.48152
6883.69,0.47992
6877.91,0.48075
6872.12,0.48077
6866.33,0.48674
6860.55,0.47874
6854.76,0.47943
6848.97,0.47982
6843.19,0.47949
6837.4,0.47560
6831.62,0.48057
6825.83,0.47843
6820.04,0.48054
6814.26,0.47720
6808.47,0.47389
6802.68,0.47827
6796.9,0.48082
6791.11,0.47766
6785.33,0.48254
6779.54,0.47761
6773.75,0.48312
6767.97,0.47708
6762.18,0.48903
6756.39,0.48278
6750.61,0.48605
6744.82,0.48127
6739.04,0.48145
6733.25,0.48163
6727.46,0.48405
6721.68,0.48394
6715.89,0.48384
6710.1,0.48592
6704.32,0.48528
6698.53,0.48263
6692.75,0.48311
6686.96,0.48865
6681.17,0.48757
6675.39,0.49036
6669.6,0.49594
6663.82,0.49349
6658.03,0.48605
6652.24,0.49237
6646.46,0.48939
6640.67,0.49514
6634.88,0.49612
6629.1,0.49898
6623.31,0.49965
6617.53,0.49859
6611.74,0.50119
6605.95,0.50129
6600.17,0.50315
6594.38,0.50439
6588.59,0.50408
6582.81,0.50462
6577.02,0.50693
6571.24,0.50593
6565.45,0.51083
6559.66,0.51267
6553.88,0.50898
6548.09,0.51677
6542.3,0.51119
6536.52,0.51424
6530.73,0.51717
6524.95,0.51670
6519.16,0.51559
6513.37,0.51883
6507.59,0.51829
6501.8,0.51814
6496.01,0.52257
6490.23,0.51916
6484.44,0.51812
6478.66,0.52227
6472.87,0.52058
6467.08,0.52246
6461.3,0.52142
6455.51,0.52205
6449.72,0.51798
6443.94,0.52179
6438.15,0.52131
6432.37,0.52431
6426.58,0.52339
6420.79,0.52108
6415.01,0.52664
6409.22,0.52500
6403.43,0.52306
6397.65,0.52759
6391.86,0.52527
6386.08,0.52600
6380.29,0.52932
6374.5,0.52745
6368.72,0.52790
6362.93,0.52685
6357.14,0.53185
6351.36,0.52802
6345.57,0.52779
6339.79,0.52865
6334,0.53070
6328.21,0.52729
6322.43,0.53189
6316.64,0.53237
6310.85,0.53442
6305.07,0.53309
6299.28,0.53636
6293.5,0.53378
6287.71,0.53653
6281.92,0.53551
6276.14,0.53852
6270.35,0.54069
6264.56,0.53953
6258.78,0.54319
6252.99,0.54898
6247.21,0.55009
6241.42,0.54709
6235.63,0.55085
6229.85,0.55070
6224.06,0.55105
6218.27,0.55387
6212.49,0.55866
6206.7,0.55705
6200.92,0.55993
6195.13,0.56097
6189.34,0.56461
6183.56,0.56170
6177.77,0.56929
6171.98,0.57009
6166.2,0.56921
6160.41,0.56986
6154.63,0.57284
6148.84,0.57348
6143.05,0.57682
6137.27,0.57604
6131.48,0.57821
6125.7,0.57721
6119.91,0.57845
6114.12,0.57588
6108.34,0.57923
6102.55,0.58033
6096.76,0.57965
6090.98,0.58201
6085.19,0.57922
6079.41,0.57911
6073.62,0.58015
6067.83,0.57488
6062.05,0.57267
6056.26,0.57567
6050.47,0.57410
6044.69,0.57689
6038.9,0.57358
6033.12,0.56921
6027.33,0.56975
6021.54,0.56787
6015.76,0.56495
6009.97,0.56236
6004.18,0.56084
5998.4,0.56169
5992.61,0.55930
5986.83,0.55941
5981.04,0.55497
5975.25,0.55538
5969.47,0.55259
5963.68,0.55457
5957.89,0.55119
5952.11,0.55217
5946.32,0.54942
5940.54,0.55087
5934.75,0.55038
5928.96,0.55379
5923.18,0.55134
5917.39,0.55030
5911.6,0.55070
5905.82,0.54873
5900.03,0.54787
5894.25,0.54940
5888.46,0.54870
5882.67,0.54762
5876.89,0.54531
5871.1,0.54422
5865.31,0.54663
5859.53,0.54707
5853.74,0.54373
5847.96,0.54423
5842.17,0.54456
5836.38,0.54287
5830.6,0.54117
5824.81,0.53896
5819.02,0.53742
5813.24,0.53622
5807.45,0.53527
5801.67,0.53322
5795.88,0.53429
5790.09,0.53639
5784.31,0.53710
5778.52,0.53902
5772.73,0.54032
5766.95,0.54342
5761.16,0.54527
5755.38,0.54452
5749.59,0.54745
5743.8,0.54568
5738.02,0.54449
5732.23,0.54583
5726.44,0.54450
5720.66,0.54438
5714.87,0.54370
5709.09,0.54408
5703.3,0.54633
5697.51,0.54388
5691.73,0.54400
5685.94,0.54219
5680.15,0.54366
5674.37,0.54026
5668.58,0.54320
5662.8,0.54095
5657.01,0.54107
5651.22,0.54068
5645.44,0.54065
5639.65,0.53953
5633.87,0.54068
5628.08,0.53735
5622.29,0.53747
5616.51,0.53922
5610.72,0.53877
5604.93,0.54017
5599.15,0.53738
5593.36,0.53816
5587.58,0.53951
5581.79,0.53956
5576,0.54073
5570.22,0.54217
5564.43,0.54275
5558.64,0.54502
5552.86,0.54465
5547.07,0.54358
5541.29,0.54591
5535.5,0.54751
5529.71,0.54612
5523.93,0.54490
5518.14,0.54762
5512.35,0.54777
5506.57,0.54927
5500.78,0.54846
5495,0.55087
5489.21,0.54999
5483.42,0.55016
5477.64,0.54994
5471.85,0.55112
5466.06,0.55475
5460.28,0.55308
5454.49,0.55420
5448.71,0.55525
5442.92,0.55540
5437.13,0.55972
5431.35,0.55948
5425.56,0.55969
5419.77,0.56326
5413.99,0.56359
5408.2,0.56305
5402.42,0.56385
5396.63,0.56585
5390.84,0.56548
5385.06,0.56372
5379.27,0.56379
5373.48,0.56400
5367.7,0.56090
5361.91,0.56347
5356.13,0.56065
5350.34,0.55788
5344.55,0.55757
5338.77,0.55293
5332.98,0.55074
5327.19,0.54637
5321.41,0.53982
5315.62,0.53462
5309.84,0.53006
5304.05,0.52054
5298.26,0.51166
5292.48,0.49976
5286.69,0.48728
5280.9,0.47510
5275.12,0.46085
5269.33,0.44928
5263.55,0.43394
5257.76,0.42114
5251.97,0.40948
5246.19,0.40169
5240.4,0.39256
5234.61,0.38509
5228.83,0.38210
5223.04,0.37704
5217.26,0.37219
5211.47,0.36980
5205.68,0.36784
5199.9,0.36585
5194.11,0.36715
5188.32,0.36654
5182.54,0.36870
5176.75,0.36982
5170.97,0.37211
5165.18,0.37371
5159.39,0.37699
5153.61,0.38170
5147.82,0.38477
5142.03,0.38773
5136.25,0.39068
5130.46,0.39535
5124.68,0.39771
5118.89,0.40165
5113.1,0.40529
5107.32,0.40845
5101.53,0.41103
5095.75,0.41530
5089.96,0.41691
5084.17,0.42021
5078.39,0.42464
5072.6,0.42766
5066.81,0.43126
5061.03,0.43352
5055.24,0.43591
5049.46,0.43997
5043.67,0.44187
5037.88,0.44481
5032.1,0.44686
5026.31,0.44934
5020.52,0.45187
5014.74,0.45166
5008.95,0.45442
5003.17,0.45467
4997.38,0.45583
4991.59,0.45564
4985.81,0.45526
4980.02,0.45423
4974.23,0.45287
4968.45,0.45138
4962.66,0.44986
4956.88,0.44656
4951.09,0.44264
4945.3,0.43960
4939.52,0.43438
4933.73,0.42948
4927.94,0.42424
4922.16,0.41866
4916.37,0.41404
4910.59,0.40841
4904.8,0.40258
4899.01,0.39703
4893.23,0.39304
4887.44,0.38673
4881.65,0.38219
4875.87,0.37734
4870.08,0.37326
4864.3,0.37008
4858.51,0.36511
4852.72,0.36134
4846.94,0.35658
4841.15,0.35390
4835.36,0.34983
4829.58,0.34719
4823.79,0.34439
4818.01,0.34281
4812.22,0.34097
4806.43,0.33897
4800.65,0.33829
4794.86,0.33657
4789.07,0.33632
4783.29,0.33388
4777.5,0.33354
4771.72,0.33387
4765.93,0.33202
4760.14,0.33258
4754.36,0.33225
4748.57,0.33185
4742.78,0.33182
4737,0.33194
4731.21,0.33219
4725.43,0.33221
4719.64,0.33286
4713.85,0.33357
4708.07,0.33391
4702.28,0.33375
4696.49,0.33540
4690.71,0.33781
4684.92,0.33914
4679.14,0.33957
4673.35,0.34113
4667.56,0.34234
4661.78,0.34567
4655.99,0.34830
4650.2,0.35149
4644.42,0.35236
4638.63,0.35596
4632.85,0.35674
4627.06,0.35804
4621.27,0.36126
4615.49,0.36401
4609.7,0.36520
4603.92,0.36775
4598.13,0.36989
4592.34,0.37273
4586.56,0.37375
4580.77,0.37585
4574.98,0.37718
4569.2,0.37800
4563.41,0.37945
4557.63,0.37952
4551.84,0.38280
4546.05,0.38408
4540.27,0.38502
4534.48,0.38582
4528.69,0.38659
4522.91,0.38681
4517.12,0.38636
4511.34,0.38569
4505.55,0.38391
4499.76,0.38199
4493.98,0.37876
4488.19,0.37467
4482.4,0.37017
4476.62,0.36288
4470.83,0.35615
4465.05,0.34862
4459.26,0.34131
4453.47,0.33422
4447.69,0.32629
4441.9,0.31865
4436.11,0.31220
4430.33,0.30712
4424.54,0.30288
4418.76,0.29903
4412.97,0.29686
4407.18,0.29515
4401.4,0.29402
4395.61,0.29332
4389.82,0.29358
4384.04,0.29550
4378.25,0.29723
4372.47,0.29881
4366.68,0.30107
4360.89,0.30244
4355.11,0.30212
4349.32,0.30157
4343.53,0.29873
4337.75,0.29744
4331.96,0.29601
4326.18,0.29387
4320.39,0.29146
4314.6,0.28823
4308.82,0.28667
4303.03,0.28480
4297.24,0.28386
4291.46,0.28154
4285.67,0.28129
4279.89,0.28121
4274.1,0.28262
4268.31,0.28326
4262.53,0.28450
4256.74,0.28544
4250.95,0.28568
4245.17,0.28641
4239.38,0.28708
4233.6,0.28730
4227.81,0.28806
4222.02,0.28906
4216.24,0.28983
4210.45,0.28961
4204.66,0.29018
4198.88,0.29089
4193.09,0.29000
4187.31,0.29090
4181.52,0.29125
4175.73,0.29249
4169.95,0.29257
4164.16,0.29317
4158.37,0.29231
4152.59,0.29137
4146.8,0.28971
4141.02,0.28754
4135.23,0.28515
4129.44,0.28205
4123.66,0.27786
4117.87,0.27434
4112.09,0.26983
4106.3,0.26691
4100.51,0.26291
4094.73,0.25739
4088.94,0.25399
4083.15,0.24925
4077.37,0.24490
4071.58,0.24067
4065.8,0.23603
4060.01,0.23108
4054.22,0.22710
4048.44,0.22344
4042.65,0.22055
4036.86,0.21779
4031.08,0.21415
4025.29,0.21260
4019.51,0.21165
4013.72,0.21103
4007.93,0.21166
4002.15,0.21243
3996.36,0.21371
3990.57,0.21448
3984.79,0.21513
3979,0.21624
3973.22,0.21812
3967.43,0.21946
3961.64,0.22209
3955.86,0.22366
3950.07,0.22560
3944.28,0.22818
3938.5,0.22982
3932.71,0.23220
3926.93,0.23431
3921.14,0.23626
3915.35,0.23859
3909.57,0.24142
3903.78,0.24352
3897.99,0.24521
3892.21,0.24764
3886.42,0.25012
3880.64,0.25134
3874.85,0.25310
3869.06,0.25562
3863.28,0.25852
3857.49,0.26156
3851.7,0.26279
3845.92,0.26526
3840.13,0.26721
3834.35,0.26850
3828.56,0.26970
3822.77,0.27014
3816.99,0.27059
3811.2,0.27005
3805.41,0.27000
3799.63,0.26863
3793.84,0.26801
3788.06,0.26688
3782.27,0.26563
3776.48,0.26419
3770.7,0.26226
3764.91,0.26113
3759.12,0.25878
3753.34,0.25742
3747.55,0.25376
3741.77,0.25056
3735.98,0.24842
3730.19,0.24283
3724.41,0.23849
3718.62,0.23295
3712.83,0.22772
3707.05,0.22043
3701.26,0.21130
3695.48,0.20218
3689.69,0.19087
3683.9,0.17785
3678.12,0.16386
3672.33,0.14962
3666.54,0.13654
3660.76,0.12551
3654.97,0.11528
3649.19,0.10734
3643.4,0.10069
3637.61,0.09415
3631.83,0.08932
3626.04,0.08419
3620.25,0.08009
3614.47,0.07635
3608.68,0.07295
3602.9,0.06892
3597.11,0.06628
3591.32,0.06386
3585.54,0.06046
3579.75,0.05813
3573.97,0.05652
3568.18,0.05490
3562.39,0.05260
3556.61,0.05151
3550.82,0.04937
3545.03,0.04923
3539.25,0.04757
3533.46,0.04643
3527.68,0.04582
3521.89,0.04429
3516.1,0.04386
3510.32,0.04337
3504.53,0.04289
3498.74,0.04169
3492.96,0.04156
3487.17,0.04093
3481.39,0.04088
3475.6,0.04042
3469.81,0.04015
3464.03,0.04002
3458.24,0.03972
3452.45,0.03895
3446.67,0.03993
3440.88,0.03956
3435.1,0.03925
3429.31,0.03949
3423.52,0.03963
3417.74,0.03964
3411.95,0.04001
3406.16,0.03975
3400.38,0.04024
3394.59,0.04075
3388.81,0.04091
3383.02,0.04084
3377.23,0.04157
3371.45,0.04133
3365.66,0.04045
3359.87,0.04221
3354.09,0.04254
3348.3,0.04297
3342.52,0.04371
3336.73,0.04392
3330.94,0.04361
3325.16,0.04489
3319.37,0.04485
3313.58,0.04550
3307.8,0.04563
3302.01,0.04646
3296.23,0.04674
3290.44,0.04729
3284.65,0.04726
3278.87,0.04819
3273.08,0.04872
3267.29,0.04976
3261.51,0.05001
3255.72,0.05120
3249.94,0.05184
3244.15,0.05217
3238.36,0.05305
3232.58,0.05460
3226.79,0.05576
3221,0.05573
3215.22,0.05636
3209.43,0.05668
3203.65,0.05793
3197.86,0.05857
3192.07,0.05945
3186.29,0.06035
3180.5,0.06136
3174.71,0.06198
3168.93,0.06337
3163.14,0.06405
3157.36,0.06504
3151.57,0.06582
3145.78,0.06646
3140,0.06779
3134.21,0.06848
3128.42,0.06968
3122.64,0.07054
3116.85,0.07133
3111.07,0.07216
3105.28,0.07268
3099.49,0.07397
3093.71,0.07459
3087.92,0.07504
3082.14,0.07608
3076.35,0.07643
3070.56,0.07728
3064.78,0.07837
3058.99,0.07971
3053.2,0.08036
3047.42,0.08086
3041.63,0.08126
3035.85,0.08170
3030.06,0.08196
3024.27,0.08141
3018.49,0.08049
3012.7,0.07963
3006.91,0.07850
3001.13,0.07665
2995.34,0.07617
2989.56,0.07463
2983.77,0.07190
2977.98,0.06854
2972.2,0.06610
2966.41,0.06403
2960.62,0.06265
2954.84,0.06051
2949.05,0.05909
2943.27,0.05812
2937.48,0.05728
2931.69,0.05737
2925.91,0.05708
2920.12,0.05720
2914.33,0.05758
2908.55,0.05753
2902.76,0.05790
2896.98,0.05846
2891.19,0.05894
2885.4,0.05935
2879.62,0.06003
2873.83,0.06125
2868.04,0.06244
2862.26,0.06348
2856.47,0.06561
2850.69,0.06665
2844.9,0.06972
2839.11,0.07235
2833.33,0.07564
2827.54,0.07894
2821.75,0.08214
2815.97,0.08425
2810.18,0.08669
2804.4,0.08870
2798.61,0.09016
2792.82,0.09196
2787.04,0.09264
2781.25,0.09344
2775.46,0.09402
2769.68,0.09485
2763.89,0.09577
2758.11,0.09584
2752.32,0.09618
2746.53,0.09736
2740.75,0.09738
2734.96,0.09802
2729.17,0.09909
2723.39,0.09960
2717.6,0.09997
2711.82,0.10136
2706.03,0.10287
2700.24,0.10406
2694.46,0.10496
2688.67,0.10586
2682.88,0.10705
2677.1,0.10824
2671.31,0.10900
2665.53,0.11017
2659.74,0.11090
2653.95,0.11210
2648.17,0.11232
2642.38,0.11352
2636.59,0.11465
2630.81,0.11551
2625.02,0.11715
2619.24,0.11820
2613.45,0.11902
2607.66,0.12008
2601.88,0.12104
2596.09,0.12207
2590.3,0.12293
2584.52,0.12409
2578.73,0.12497
2572.95,0.12500
2567.16,0.12543
2561.37,0.12574
2555.59,0.12676
2549.8,0.12732
2544.02,0.12806
2538.23,0.12861
2532.44,0.12955
2526.66,0.12982
2520.87,0.13074
2515.08,0.13122
2509.3,0.13175
2503.51,0.13331
2497.73,0.13466
2491.94,0.13602
2486.15,0.13747
2480.37,0.13849
2474.58,0.13956
2468.79,0.14044
2463.01,0.14144
2457.22,0.14319
2451.44,0.14443
2445.65,0.14620
2439.86,0.14751
2434.08,0.14955
2428.29,0.15129
2422.5,0.15304
2416.72,0.15545
2410.93,0.15748
2405.15,0.15993
2399.36,0.16188
2393.57,0.16361
2387.79,0.16487
2382,0.16704
2376.21,0.16870
2370.43,0.16978
2364.64,0.17090
2358.86,0.17218
2353.07,0.17380
2347.28,0.17502
2341.5,0.17606
2335.71,0.17658
2329.92,0.17734
2324.14,0.17808
2318.35,0.17831
2312.57,0.17882
2306.78,0.17851
2300.99,0.17804
2295.21,0.17772
2289.42,0.17760
2283.63,0.17781
2277.85,0.17761
2272.06,0.17717
2266.28,0.17604
2260.49,0.17465
2254.7,0.17294
2248.92,0.17202
2243.13,0.17117
2237.34,0.17071
2231.56,0.17067
2225.77,0.17103
2219.99,0.17131
2214.2,0.17070
2208.41,0.17008
2202.63,0.16896
2196.84,0.16737
2191.05,0.16516
2185.27,0.16269
2179.48,0.15972
2173.7,0.15687
2167.91,0.15411
2162.12,0.15190
2156.34,0.15055
2150.55,0.14939
2144.76,0.14812
2138.98,0.14783
2133.19,0.14766
2127.41,0.14758
2121.62,0.14753
2115.83,0.14862
2110.05,0.14905
2104.26,0.15002
2098.47,0.15079
2092.69,0.15169
2086.9,0.15265
2081.12,0.15247
2075.33,0.15300
2069.54,0.15289
2063.76,0.15308
2057.97,0.15296
2052.19,0.15331
2046.4,0.15370
2040.61,0.15475
2034.83,0.15604
2029.04,0.15714
2023.25,0.15911
2017.47,0.16145
2011.68,0.16450
2005.9,0.16639
2000.11,0.16785
1994.32,0.16950
1988.54,0.17020
1982.75,0.17057
1976.96,0.17105
1971.18,0.17085
1965.39,0.16986
1959.61,0.16938
1953.82,0.16943
1948.03,0.17020
1942.25,0.17136
1936.46,0.17313
1930.67,0.17501
1924.89,0.17684
1919.1,0.17785
1913.32,0.17858
1907.53,0.17842
1901.74,0.17829
1895.96,0.17836
1890.17,0.17846
1884.38,0.17874
1878.6,0.17859
1872.81,0.17796
1867.03,0.17645
1861.24,0.17462
1855.45,0.17270
1849.67,0.17042
1843.88,0.16761
1838.09,0.16486
1832.31,0.16186
1826.52,0.15741
1820.74,0.15199
1814.95,0.14625
1809.16,0.13902
1803.38,0.13137
1797.59,0.12171
1791.8,0.11259
1786.02,0.10372
1780.23,0.09435
1774.45,0.08368
1768.66,0.07118
1762.87,0.06076
1757.09,0.05371
1751.3,0.04901
1745.51,0.04618
1739.73,0.04599
1733.94,0.04678
1728.16,0.04878
1722.37,0.05125
1716.58,0.05357
1710.8,0.05532
1705.01,0.05735
1699.22,0.05926
1693.44,0.05966
1687.65,0.06015
1681.87,0.05995
1676.08,0.05912
1670.29,0.05861
1664.51,0.05717
1658.72,0.05696
1652.93,0.05643
1647.15,0.05615
1641.36,0.05550
1635.58,0.05490
1629.79,0.05451
1624,0.05392
1618.22,0.05352
1612.43,0.05202
1606.64,0.05016
1600.86,0.05009
1595.07,0.05057
1589.29,0.05308
1583.5,0.05679
1577.71,0.06254
1571.93,0.06667
1566.14,0.06982
1560.35,0.07193
1554.57,0.07277
1548.78,0.07290
1543,0.07225
1537.21,0.07022
1531.42,0.06670
1525.64,0.06145
1519.85,0.05261
1514.07,0.04877
1508.28,0.04885
1502.49,0.04970
1496.71,0.05234
1490.92,0.05511
1485.13,0.05507
1479.35,0.05107
1473.56,0.04642
1467.78,0.04225
1461.99,0.04232
1456.2,0.04242
1450.42,0.04351
1444.63,0.04378
1438.84,0.04305
1433.06,0.04175
1427.27,0.04202
1421.49,0.04291
1415.7,0.04430
1409.91,0.04503
1404.13,0.04491
1398.34,0.04362
1392.55,0.04235
1386.77,0.04059
1380.98,0.03952
1375.2,0.04005
1369.41,0.04121
1363.62,0.04210
1357.84,0.04286
1352.05,0.04326
1346.26,0.04236
1340.48,0.04142
1334.69,0.04112
1328.91,0.04111
1323.12,0.04170
1317.33,0.04246
1311.55,0.04312
1305.76,0.04380
1299.97,0.04400
1294.19,0.04332
1288.4,0.04214
1282.62,0.04029
1276.83,0.03930
1271.04,0.03808
1265.26,0.03743
1259.47,0.03722
1253.68,0.03758
1247.9,0.03798
1242.11,0.03854
1236.33,0.03964
1230.54,0.04136
1224.75,0.04212
1218.97,0.04298
1213.18,0.04291
1207.39,0.04233
1201.61,0.04142
1195.82,0.04139
1190.04,0.03984
1184.25,0.03698
1178.46,0.03413
1172.68,0.03433
1166.89,0.03696
1161.1,0.03998
1155.32,0.04078
1149.53,0.03905
1143.75,0.03767
1137.96,0.03484
1132.17,0.03302
1126.39,0.03503
1120.6,0.03724
1114.81,0.03891
1109.03,0.04081
1103.24,0.04230
1097.46,0.04151
1091.67,0.04068
1085.88,0.04043
1080.1,0.04301
1074.31,0.04647
1068.52,0.05048
1062.74,0.05681
1056.95,0.06204
1051.17,0.06480
1045.38,0.06597
1039.59,0.06829
1033.81,0.07186
1028.02,0.07285
1022.24,0.07189
1016.45,0.07073
1010.66,0.07051
1004.88,0.07064
999.09,0.07091
993.304,0.07205
987.518,0.07355
981.731,0.07524
975.945,0.07720
970.159,0.07901
964.373,0.08110
958.586,0.08440
952.8,0.08911
947.014,0.09009
941.228,0.09070
935.441,0.09037
929.655,0.08816
923.869,0.08745
918.083,0.08582
912.297,0.08390
906.51,0.08125
900.724,0.07887
894.938,0.07987
889.152,0.08431
883.365,0.08727
877.579,0.08663
871.793,0.08454
866.007,0.08546
860.22,0.08568
854.434,0.08535
848.648,0.08420
842.862,0.08112
837.075,0.07968
831.289,0.08080
825.503,0.08179
819.717,0.08333
813.931,0.08442
808.144,0.08498
802.358,0.08399
796.572,0.08324
790.786,0.08247
784.999,0.08192
779.213,0.07995
773.427,0.07834
767.641,0.07651
761.854,0.07529
756.068,0.07317
750.282,0.07128
744.496,0.07074
738.709,0.06938
732.923,0.06675
727.137,0.06626
721.351,0.06549
715.565,0.06547
709.778,0.06501
703.992,0.06449
698.206,0.06282
692.42,0.06385
686.633,0.06263
680.847,0.05970
675.061,0.05780
669.275,0.05787
663.488,0.05920
657.702,0.06058
651.916,0.06043
646.13,0.05983
640.343,0.06087
634.557,0.05868
628.771,0.05672
622.985,0.05512
617.198,0.05745
611.412,0.05903
605.626,0.05907
599.84,0.06078