File: 01_Data/Bamboo_Rug/FTIR/IS/Bamboo_Rug_IS_S_220822_R5.dpt
7497.03,0.76721
7491.25,0.76584
7485.46,0.75416
7479.67,0.75948
7473.89,0.76415
7468.1,0.74520
7462.32,0.75681
7456.53,0.74668
7450.74,0.74505
7444.96,0.74783
7439.17,0.74097
7433.38,0.73422
7427.6,0.72961
7421.81,0.73275
7416.03,0.72281
7410.24,0.72216
7404.45,0.72091
7398.67,0.71650
7392.88,0.71227
7387.09,0.70787
7381.31,0.72241
7375.52,0.71297
7369.74,0.70923
7363.95,0.71045
7358.16,0.70915
7352.38,0.71544
7346.59,0.70500
7340.8,0.70589
7335.02,0.69645
7329.23,0.68879
7323.45,0.67679
7317.66,0.68101
7311.87,0.69124
7306.09,0.68902
7300.3,0.68274
7294.51,0.69009
7288.73,0.68462
7282.94,0.68114
7277.16,0.67849
7271.37,0.67898
7265.58,0.69099
7259.8,0.68677
7254.01,0.68417
7248.22,0.67693
7242.44,0.67692
7236.65,0.67727
7230.87,0.68449
7225.08,0.67594
7219.29,0.67298
7213.51,0.66953
7207.72,0.66240
7201.93,0.66223
7196.15,0.66137
7190.36,0.64922
7184.58,0.65477
7178.79,0.65380
7173,0.66115
7167.22,0.65025
7161.43,0.63863
7155.65,0.62733
7149.86,0.63570
7144.07,0.61957
7138.29,0.62580
7132.5,0.62276
7126.71,0.61984
7120.93,0.60749
7115.14,0.60563
7109.36,0.59368
7103.57,0.59085
7097.78,0.58869
7092,0.58533
7086.21,0.58683
7080.42,0.57970
7074.64,0.57478
7068.85,0.56355
7063.07,0.55816
7057.28,0.54894
7051.49,0.54249
7045.71,0.53748
7039.92,0.53375
7034.13,0.52675
7028.35,0.52767
7022.56,0.51854
7016.78,0.51876
7010.99,0.51536
7005.2,0.51223
6999.42,0.51030
6993.63,0.50010
6987.84,0.49552
6982.06,0.49634
6976.27,0.49785
6970.49,0.49430
6964.7,0.49329
6958.91,0.49002
6953.13,0.48752
6947.34,0.48993
6941.55,0.48960
6935.77,0.48777
6929.98,0.48298
6924.2,0.48289
6918.41,0.48492
6912.62,0.47697
6906.84,0.47992
6901.05,0.47910
6895.26,0.48107
6889.48,0.48337
6883.69,0.48110
6877.91,0.47832
6872.12,0.48030
6866.33,0.47774
6860.55,0.48150
6854.76,0.47661
6848.97,0.47664
6843.19,0.47618
6837.4,0.47784
6831.62,0.48143
6825.83,0.47906
6820.04,0.47763
6814.26,0.47908
6808.47,0.47988
6802.68,0.47811
6796.9,0.47512
6791.11,0.47593
6785.33,0.47926
6779.54,0.48058
6773.75,0.47567
6767.97,0.48003
6762.18,0.47834
6756.39,0.47302
6750.61,0.47634
6744.82,0.48281
6739.04,0.48202
6733.25,0.48226
6727.46,0.48687
6721.68,0.48653
6715.89,0.48181
6710.1,0.48388
6704.32,0.48558
6698.53,0.48657
6692.75,0.48452
6686.96,0.48592
6681.17,0.48954
6675.39,0.48503
6669.6,0.48810
6663.82,0.49146
6658.03,0.49545
6652.24,0.49131
6646.46,0.48778
6640.67,0.49888
6634.88,0.50167
6629.1,0.49418
6623.31,0.49766
6617.53,0.49653
6611.74,0.50106
6605.95,0.50359
6600.17,0.50673
6594.38,0.50518
6588.59,0.50094
6582.81,0.50572
6577.02,0.50606
6571.24,0.51078
6565.45,0.50651
6559.66,0.50928
6553.88,0.50999
6548.09,0.51504
6542.3,0.51119
6536.52,0.51777
6530.73,0.51319
6524.95,0.51375
6519.16,0.51529
6513.37,0.51935
6507.59,0.51709
6501.8,0.51547
6496.01,0.51832
6490.23,0.51609
6484.44,0.51797
6478.66,0.51703
6472.87,0.51733
6467.08,0.52181
6461.3,0.52068
6455.51,0.52012
6449.72,0.52281
6443.94,0.52150
6438.15,0.51864
6432.37,0.52662
6426.58,0.52575
6420.79,0.52215
6415.01,0.52334
6409.22,0.52200
6403.43,0.52501
6397.65,0.52403
6391.86,0.52584
6386.08,0.52586
6380.29,0.52806
6374.5,0.52845
6368.72,0.52755
6362.93,0.52670
6357.14,0.52762
6351.36,0.52869
6345.57,0.52943
6339.79,0.53056
6334,0.52840
6328.21,0.53274
6322.43,0.53054
6316.64,0.52912
6310.85,0.53206
6305.07,0.53052
6299.28,0.53134
6293.5,0.53071
6287.71,0.53111
6281.92,0.53723
6276.14,0.54079
6270.35,0.53829
6264.56,0.54373
6258.78,0.53990
6252.99,0.54396
6247.21,0.54766
6241.42,0.54641
6235.63,0.54764
6229.85,0.55074
6224.06,0.55137
6218.27,0.55118
6212.49,0.55268
6206.7,0.55945
6200.92,0.56144
6195.13,0.55986
6189.34,0.56287
6183.56,0.56521
6177.77,0.56817
6171.98,0.56643
6166.2,0.57375
6160.41,0.57165
6154.63,0.57248
6148.84,0.57371
6143.05,0.57352
6137.27,0.57191
6131.48,0.57598
6125.7,0.57809
6119.91,0.57501
6114.12,0.57806
6108.34,0.57709
6102.55,0.57908
6096.76,0.58025
6090.98,0.57887
6085.19,0.57828
6079.41,0.57722
6073.62,0.57719
6067.83,0.57516
6062.05,0.57570
6056.26,0.57508
6050.47,0.57559
6044.69,0.57457
6038.9,0.57159
6033.12,0.56945
6027.33,0.56930
6021.54,0.56630
6015.76,0.56221
6009.97,0.56454
6004.18,0.56422
5998.4,0.56117
5992.61,0.55793
5986.83,0.55846
5981.04,0.55728
5975.25,0.55622
5969.47,0.55170
5963.68,0.55355
5957.89,0.55312
5952.11,0.55180
5946.32,0.54791
5940.54,0.55171
5934.75,0.55137
5928.96,0.54987
5923.18,0.55059
5917.39,0.55110
5911.6,0.55103
5905.82,0.54931
5900.03,0.54648
5894.25,0.54676
5888.46,0.54765
5882.67,0.54796
5876.89,0.54521
5871.1,0.54496
5865.31,0.54452
5859.53,0.54592
5853.74,0.54436
5847.96,0.54398
5842.17,0.54412
5836.38,0.54405
5830.6,0.54058
5824.81,0.53809
5819.02,0.53694
5813.24,0.53590
5807.45,0.53626
5801.67,0.53295
5795.88,0.53446
5790.09,0.53524
5784.31,0.53934
5778.52,0.54074
5772.73,0.54157
5766.95,0.54301
5761.16,0.54235
5755.38,0.54438
5749.59,0.54458
5743.8,0.54483
5738.02,0.54395
5732.23,0.54512
5726.44,0.54322
5720.66,0.54780
5714.87,0.54491
5709.09,0.54610
5703.3,0.54448
5697.51,0.54315
5691.73,0.54422
5685.94,0.54148
5680.15,0.54250
5674.37,0.54161
5668.58,0.53950
5662.8,0.54136
5657.01,0.54000
5651.22,0.54042
5645.44,0.53977
5639.65,0.53955
5633.87,0.54031
5628.08,0.54109
5622.29,0.53759
5616.51,0.53791
5610.72,0.53857
5604.93,0.53841
5599.15,0.53820
5593.36,0.53899
5587.58,0.53969
5581.79,0.53970
5576,0.54129
5570.22,0.53992
5564.43,0.54243
5558.64,0.54456
5552.86,0.54499
5547.07,0.54632
5541.29,0.54499
5535.5,0.54519
5529.71,0.54720
5523.93,0.54617
5518.14,0.54798
5512.35,0.54646
5506.57,0.54765
5500.78,0.54813
5495,0.54791
5489.21,0.54768
5483.42,0.55154
5477.64,0.55131
5471.85,0.55221
5466.06,0.55168
5460.28,0.55376
5454.49,0.55428
5448.71,0.55550
5442.92,0.55575
5437.13,0.55670
5431.35,0.55864
5425.56,0.56134
5419.77,0.56184
5413.99,0.56203
5408.2,0.56449
5402.42,0.56492
5396.63,0.56504
5390.84,0.56331
5385.06,0.56543
5379.27,0.56432
5373.48,0.56283
5367.7,0.56236
5361.91,0.56063
5356.13,0.55861
5350.34,0.55878
5344.55,0.55605
5338.77,0.55414
5332.98,0.54924
5327.19,0.54433
5321.41,0.53996
5315.62,0.53528
5309.84,0.52704
5304.05,0.51793
5298.26,0.50997
5292.48,0.49793
5286.69,0.48667
5280.9,0.47375
5275.12,0.45905
5269.33,0.44532
5263.55,0.43284
5257.76,0.42051
5251.97,0.40961
5246.19,0.39924
5240.4,0.39038
5234.61,0.38219
5228.83,0.37798
5223.04,0.37269
5217.26,0.36920
5211.47,0.36750
5205.68,0.36479
5199.9,0.36503
5194.11,0.36420
5188.32,0.36366
5182.54,0.36607
5176.75,0.36556
5170.97,0.37009
5165.18,0.37159
5159.39,0.37576
5153.61,0.37844
5147.82,0.38085
5142.03,0.38423
5136.25,0.38769
5130.46,0.39200
5124.68,0.39626
5118.89,0.39991
5113.1,0.40251
5107.32,0.40599
5101.53,0.40805
5095.75,0.41141
5089.96,0.41533
5084.17,0.41950
5078.39,0.42210
5072.6,0.42610
5066.81,0.42791
5061.03,0.43129
5055.24,0.43386
5049.46,0.43665
5043.67,0.43866
5037.88,0.44283
5032.1,0.44589
5026.31,0.44913
5020.52,0.44931
5014.74,0.45086
5008.95,0.45218
5003.17,0.45376
4997.38,0.45399
4991.59,0.45437
4985.81,0.45409
4980.02,0.45276
4974.23,0.45064
4968.45,0.45003
4962.66,0.44728
4956.88,0.44420
4951.09,0.44097
4945.3,0.43716
4939.52,0.43316
4933.73,0.42743
4927.94,0.42301
4922.16,0.41879
4916.37,0.41356
4910.59,0.40788
4904.8,0.40313
4899.01,0.39693
4893.23,0.39148
4887.44,0.38676
4881.65,0.38208
4875.87,0.37714
4870.08,0.37366
4864.3,0.36898
4858.51,0.36593
4852.72,0.36136
4846.94,0.35710
4841.15,0.35331
4835.36,0.35098
4829.58,0.34711
4823.79,0.34326
4818.01,0.34270
4812.22,0.34016
4806.43,0.33793
4800.65,0.33812
4794.86,0.33707
4789.07,0.33383
4783.29,0.33327
4777.5,0.33293
4771.72,0.33304
4765.93,0.33216
4760.14,0.33153
4754.36,0.33105
4748.57,0.33099
4742.78,0.33143
4737,0.33139
4731.21,0.33139
4725.43,0.33151
4719.64,0.33292
4713.85,0.33427
4708.07,0.33431
4702.28,0.33467
4696.49,0.33428
4690.71,0.33553
4684.92,0.33784
4679.14,0.33877
4673.35,0.34116
4667.56,0.34436
4661.78,0.34491
4655.99,0.34784
4650.2,0.35112
4644.42,0.35281
4638.63,0.35445
4632.85,0.35663
4627.06,0.35849
4621.27,0.36027
4615.49,0.36324
4609.7,0.36518
4603.92,0.36680
4598.13,0.36921
4592.34,0.37135
4586.56,0.37284
4580.77,0.37487
4574.98,0.37667
4569.2,0.37689
4563.41,0.37789
4557.63,0.38035
4551.84,0.38133
4546.05,0.38320
4540.27,0.38376
4534.48,0.38547
4528.69,0.38599
4522.91,0.38584
4517.12,0.38587
4511.34,0.38464
4505.55,0.38305
4499.76,0.38182
4493.98,0.37896
4488.19,0.37521
4482.4,0.36880
4476.62,0.36247
4470.83,0.35562
4465.05,0.34822
4459.26,0.34103
4453.47,0.33298
4447.69,0.32454
4441.9,0.31830
4436.11,0.31262
4430.33,0.30788
4424.54,0.30307
4418.76,0.29931
4412.97,0.29675
4407.18,0.29472
4401.4,0.29292
4395.61,0.29304
4389.82,0.29376
4384.04,0.29506
4378.25,0.29729
4372.47,0.29918
4366.68,0.30033
4360.89,0.30124
4355.11,0.30229
4349.32,0.30059
4343.53,0.29875
4337.75,0.29686
4331.96,0.29524
4326.18,0.29377
4320.39,0.29071
4314.6,0.28829
4308.82,0.28646
4303.03,0.28384
4297.24,0.28179
4291.46,0.28172
4285.67,0.28151
4279.89,0.28114
4274.1,0.28220
4268.31,0.28258
4262.53,0.28424
4256.74,0.28500
4250.95,0.28532
4245.17,0.28596
4239.38,0.28718
4233.6,0.28750
4227.81,0.28817
4222.02,0.28862
4216.24,0.28992
4210.45,0.28915
4204.66,0.28897
4198.88,0.28990
4193.09,0.28998
4187.31,0.29056
4181.52,0.29128
4175.73,0.29167
4169.95,0.29288
4164.16,0.29328
4158.37,0.29201
4152.59,0.29041
4146.8,0.28846
4141.02,0.28715
4135.23,0.28476
4129.44,0.28111
4123.66,0.27740
4117.87,0.27364
4112.09,0.26991
4106.3,0.26569
4100.51,0.26200
4094.73,0.25773
4088.94,0.25315
4083.15,0.24837
4077.37,0.24404
4071.58,0.23959
4065.8,0.23516
4060.01,0.23102
4054.22,0.22598
4048.44,0.22288
4042.65,0.22024
4036.86,0.21699
4031.08,0.21474
4025.29,0.21256
4019.51,0.21142
4013.72,0.21058
4007.93,0.21111
4002.15,0.21173
3996.36,0.21285
3990.57,0.21461
3984.79,0.21487
3979,0.21546
3973.22,0.21699
3967.43,0.21900
3961.64,0.22152
3955.86,0.22302
3950.07,0.22551
3944.28,0.22757
3938.5,0.22952
3932.71,0.23110
3926.93,0.23381
3921.14,0.23592
3915.35,0.23775
3909.57,0.23941
3903.78,0.24224
3897.99,0.24433
3892.21,0.24727
3886.42,0.24810
3880.64,0.25054
3874.85,0.25265
3869.06,0.25516
3863.28,0.25727
3857.49,0.26036
3851.7,0.26196
3845.92,0.26458
3840.13,0.26692
3834.35,0.26758
3828.56,0.26855
3822.77,0.26953
3816.99,0.26961
3811.2,0.26884
3805.41,0.26877
3799.63,0.26770
3793.84,0.26720
3788.06,0.26617
3782.27,0.26509
3776.48,0.26316
3770.7,0.26129
3764.91,0.25990
3759.12,0.25762
3753.34,0.25533
3747.55,0.25223
3741.77,0.24999
3735.98,0.24667
3730.19,0.24227
3724.41,0.23769
3718.62,0.23154
3712.83,0.22628
3707.05,0.21886
3701.26,0.21016
3695.48,0.20024
3689.69,0.18928
3683.9,0.17548
3678.12,0.16230
3672.33,0.14865
3666.54,0.13494
3660.76,0.12455
3654.97,0.11502
3649.19,0.10619
3643.4,0.09871
3637.61,0.09286
3631.83,0.08873
3626.04,0.08314
3620.25,0.07917
3614.47,0.07521
3608.68,0.07132
3602.9,0.06821
3597.11,0.06593
3591.32,0.06339
3585.54,0.06066
3579.75,0.05792
3573.97,0.05616
3568.18,0.05382
3562.39,0.05261
3556.61,0.05115
3550.82,0.04957
3545.03,0.04848
3539.25,0.04698
3533.46,0.04704
3527.68,0.04524
3521.89,0.04441
3516.1,0.04371
3510.32,0.04322
3504.53,0.04274
3498.74,0.04203
3492.96,0.04132
3487.17,0.04093
3481.39,0.04093
3475.6,0.03979
3469.81,0.03962
3464.03,0.03939
3458.24,0.03975
3452.45,0.03932
3446.67,0.03955
3440.88,0.03950
3435.1,0.03871
3429.31,0.03961
3423.52,0.03930
3417.74,0.04016
3411.95,0.04033
3406.16,0.04034
3400.38,0.04004
3394.59,0.03996
3388.81,0.04134
3383.02,0.04087
3377.23,0.04113
3371.45,0.04116
3365.66,0.04174
3359.87,0.04188
3354.09,0.04264
3348.3,0.04261
3342.52,0.04352
3336.73,0.04390
3330.94,0.04362
3325.16,0.04484
3319.37,0.04544
3313.58,0.04615
3307.8,0.04560
3302.01,0.04600
3296.23,0.04655
3290.44,0.04690
3284.65,0.04706
3278.87,0.04851
3273.08,0.04864
3267.29,0.04927
3261.51,0.05023
3255.72,0.05100
3249.94,0.05148
3244.15,0.05306
3238.36,0.05354
3232.58,0.05438
3226.79,0.05449
3221,0.05506
3215.22,0.05613
3209.43,0.05727
3203.65,0.05746
3197.86,0.05831
3192.07,0.05981
3186.29,0.06081
3180.5,0.06129
3174.71,0.06261
3168.93,0.06347
3163.14,0.06385
3157.36,0.06490
3151.57,0.06607
3145.78,0.06644
3140,0.06692
3134.21,0.06814
3128.42,0.06886
3122.64,0.07043
3116.85,0.07131
3111.07,0.07233
3105.28,0.07222
3099.49,0.07371
3093.71,0.07452
3087.92,0.07514
3082.14,0.07569
3076.35,0.07646
3070.56,0.07721
3064.78,0.07826
3058.99,0.07878
3053.2,0.08001
3047.42,0.08053
3041.63,0.08154
3035.85,0.08152
3030.06,0.08080
3024.27,0.08049
3018.49,0.07966
3012.7,0.07880
3006.91,0.07746
3001.13,0.07719
2995.34,0.07606
2989.56,0.07417
2983.77,0.07104
2977.98,0.06844
2972.2,0.06649
2966.41,0.06387
2960.62,0.06242
2954.84,0.06101
2949.05,0.05921
2943.27,0.05805
2937.48,0.05737
2931.69,0.05749
2925.91,0.05743
2920.12,0.05690
2914.33,0.05753
2908.55,0.05703
2902.76,0.05780
2896.98,0.05874
2891.19,0.05888
2885.4,0.05982
2879.62,0.06001
2873.83,0.06122
2868.04,0.06276
2862.26,0.06418
2856.47,0.06506
2850.69,0.06648
2844.9,0.06951
2839.11,0.07250
2833.33,0.07572
2827.54,0.07897
2821.75,0.08175
2815.97,0.08446
2810.18,0.08673
2804.4,0.08866
2798.61,0.09001
2792.82,0.09150
2787.04,0.09270
2781.25,0.09298
2775.46,0.09382
2769.68,0.09473
2763.89,0.09506
2758.11,0.09583
2752.32,0.09642
2746.53,0.09658
2740.75,0.09716
2734.96,0.09775
2729.17,0.09821
2723.39,0.09905
2717.6,0.10007
2711.82,0.10124
2706.03,0.10246
2700.24,0.10344
2694.46,0.10493
2688.67,0.10584
2682.88,0.10655
2677.1,0.10811
2671.31,0.10916
2665.53,0.10970
2659.74,0.11071
2653.95,0.11113
2648.17,0.11237
2642.38,0.11350
2636.59,0.11417
2630.81,0.11517
2625.02,0.11665
2619.24,0.11768
2613.45,0.11897
2607.66,0.11997
2601.88,0.12120
2596.09,0.12203
2590.3,0.12293
2584.52,0.12399
2578.73,0.12427
2572.95,0.12477
2567.16,0.12517
2561.37,0.12578
2555.59,0.12663
2549.8,0.12700
2544.02,0.12793
2538.23,0.12843
2532.44,0.12934
2526.66,0.12986
2520.87,0.13057
2515.08,0.13096
2509.3,0.13190
2503.51,0.13305
2497.73,0.13410
2491.94,0.13533
2486.15,0.13666
2480.37,0.13809
2474.58,0.13905
2468.79,0.14047
2463.01,0.14125
2457.22,0.14289
2451.44,0.14417
2445.65,0.14585
2439.86,0.14712
2434.08,0.14898
2428.29,0.15080
2422.5,0.15302
2416.72,0.15505
2410.93,0.15740
2405.15,0.15950
2399.36,0.16142
2393.57,0.16329
2387.79,0.16473
2382,0.16631
2376.21,0.16801
2370.43,0.16904
2364.64,0.17030
2358.86,0.17144
2353.07,0.17269
2347.28,0.17409
2341.5,0.17538
2335.71,0.17619
2329.92,0.17692
2324.14,0.17713
2318.35,0.17774
2312.57,0.17759
2306.78,0.17799
2300.99,0.17763
2295.21,0.17718
2289.42,0.17724
2283.63,0.17727
2277.85,0.17648
2272.06,0.17585
2266.28,0.17492
2260.49,0.17380
2254.7,0.17218
2248.92,0.17136
2243.13,0.17069
2237.34,0.17035
2231.56,0.17032
2225.77,0.17042
2219.99,0.17070
2214.2,0.17054
2208.41,0.16965
2202.63,0.16867
2196.84,0.16692
2191.05,0.16486
2185.27,0.16178
2179.48,0.15914
2173.7,0.15628
2167.91,0.15370
2162.12,0.15139
2156.34,0.14945
2150.55,0.14847
2144.76,0.14765
2138.98,0.14716
2133.19,0.14712
2127.41,0.14694
2121.62,0.14729
2115.83,0.14754
2110.05,0.14807
2104.26,0.14919
2098.47,0.15025
2092.69,0.15134
2086.9,0.15195
2081.12,0.15191
2075.33,0.15226
2069.54,0.15228
2063.76,0.15205
2057.97,0.15220
2052.19,0.15270
2046.4,0.15302
2040.61,0.15393
2034.83,0.15522
2029.04,0.15629
2023.25,0.15841
2017.47,0.16109
2011.68,0.16353
2005.9,0.16565
2000.11,0.16700
1994.32,0.16866
1988.54,0.16952
1982.75,0.17020
1976.96,0.17025
1971.18,0.17009
1965.39,0.16977
1959.61,0.16887
1953.82,0.16865
1948.03,0.16904
1942.25,0.17071
1936.46,0.17215
1930.67,0.17434
1924.89,0.17592
1919.1,0.17711
1913.32,0.17760
1907.53,0.17770
1901.74,0.17769
1895.96,0.17733
1890.17,0.17788
1884.38,0.17768
1878.6,0.17748
1872.81,0.17705
1867.03,0.17597
1861.24,0.17387
1855.45,0.17200
1849.67,0.16985
1843.88,0.16732
1838.09,0.16451
1832.31,0.16115
1826.52,0.15696
1820.74,0.15175
1814.95,0.14569
1809.16,0.13876
1803.38,0.13069
1797.59,0.12168
1791.8,0.11267
1786.02,0.10357
1780.23,0.09402
1774.45,0.08372
1768.66,0.07148
1762.87,0.06110
1757.09,0.05380
1751.3,0.04913
1745.51,0.04619
1739.73,0.04563
1733.94,0.04698
1728.16,0.04851
1722.37,0.05058
1716.58,0.05341
1710.8,0.05538
1705.01,0.05765
1699.22,0.05921
1693.44,0.05964
1687.65,0.05992
1681.87,0.05987
1676.08,0.05912
1670.29,0.05824
1664.51,0.05731
1658.72,0.05654
1652.93,0.05635
1647.15,0.05606
1641.36,0.05492
1635.58,0.05413
1629.79,0.05401
1624,0.05382
1618.22,0.05342
1612.43,0.05196
1606.64,0.05015
1600.86,0.04973
1595.07,0.05032
1589.29,0.05264
1583.5,0.05704
1577.71,0.06188
1571.93,0.06701
1566.14,0.07004
1560.35,0.07203
1554.57,0.07265
1548.78,0.07272
1543,0.07265
1537.21,0.07041
1531.42,0.06670
1525.64,0.06114
1519.85,0.05264
1514.07,0.04894
1508.28,0.04944
1502.49,0.05010
1496.71,0.05247
1490.92,0.05473
1485.13,0.05484
1479.35,0.05141
1473.56,0.04625
1467.78,0.04207
1461.99,0.04210
1456.2,0.04309
1450.42,0.04349
1444.63,0.04350
1438.84,0.04315
1433.06,0.04213
1427.27,0.04216
1421.49,0.04319
1415.7,0.04424
1409.91,0.04521
1404.13,0.04468
1398.34,0.04359
1392.55,0.04224
1386.77,0.04047
1380.98,0.03931
1375.2,0.03987
1369.41,0.04150
1363.62,0.04263
1357.84,0.04329
1352.05,0.04329
1346.26,0.04266
1340.48,0.04164
1334.69,0.04133
1328.91,0.04165
1323.12,0.04197
1317.33,0.04240
1311.55,0.04355
1305.76,0.04407
1299.97,0.04395
1294.19,0.04301
1288.4,0.04183
1282.62,0.04036
1276.83,0.03910
1271.04,0.03798
1265.26,0.03719
1259.47,0.03740
1253.68,0.03748
1247.9,0.03762
1242.11,0.03886
1236.33,0.04034
1230.54,0.04207
1224.75,0.04252
1218.97,0.04296
1213.18,0.04300
1207.39,0.04275
1201.61,0.04129
1195.82,0.04109
1190.04,0.03946
1184.25,0.03688
1178.46,0.03445
1172.68,0.03449
1166.89,0.03686
1161.1,0.04010
1155.32,0.04081
1149.53,0.04006
1143.75,0.03723
1137.96,0.03467
1132.17,0.03337
1126.39,0.03480
1120.6,0.03701
1114.81,0.03856
1109.03,0.04051
1103.24,0.04153
1097.46,0.04146
1091.67,0.04066
1085.88,0.04026
1080.1,0.04290
1074.31,0.04654
1068.52,0.05026
1062.74,0.05733
1056.95,0.06339
1051.17,0.06536
1045.38,0.06589
1039.59,0.06830
1033.81,0.07219
1028.02,0.07257
1022.24,0.07190
1016.45,0.07058
1010.66,0.06983
1004.88,0.06997
999.09,0.07077
993.304,0.07081
987.518,0.07267
981.731,0.07647
975.945,0.07787
970.159,0.07884
964.373,0.08124
958.586,0.08507
952.8,0.08844
947.014,0.09024
941.228,0.09012
935.441,0.08940
929.655,0.08865
923.869,0.08740
918.083,0.08621
912.297,0.08419
906.51,0.08124
900.724,0.07815
894.938,0.07948
889.152,0.08410
883.365,0.08709
877.579,0.08649
871.793,0.08511
866.007,0.08561
860.22,0.08568
854.434,0.08482
848.648,0.08329
842.862,0.08146
837.075,0.07917
831.289,0.07960
825.503,0.08115
819.717,0.08304
813.931,0.08381
808.144,0.08371
802.358,0.08394
796.572,0.08344
790.786,0.08260
784.999,0.08109
779.213,0.07945
773.427,0.07797
767.641,0.07588
761.854,0.07478
756.068,0.07284
750.282,0.07036
744.496,0.06974
738.709,0.06891
732.923,0.06697
727.137,0.06571
721.351,0.06487
715.565,0.06394
709.778,0.06386
703.992,0.06324
698.206,0.06428
692.42,0.06331
686.633,0.06251
680.847,0.05957
675.061,0.05926
669.275,0.05732
663.488,0.05960
657.702,0.06116
651.916,0.05843
646.13,0.05830
640.343,0.05748
634.557,0.05830
628.771,0.05897
622.985,0.05656
617.198,0.05551
611.412,0.05846
605.626,0.06098
599.84,0.06131