File: 01_Data/Bamboo_Rug/FTIR/IS/Bamboo_Rug_IS_T_220822_R8.dpt
7497.03,0.03386
7491.25,0.02183
7485.46,0.01728
7479.67,0.02858
7473.89,0.02653
7468.1,0.03098
7462.32,0.03138
7456.53,0.03037
7450.74,0.01960
7444.96,0.01824
7439.17,0.01745
7433.38,0.02140
7427.6,0.02333
7421.81,0.02167
7416.03,0.02452
7410.24,0.01489
7404.45,0.01778
7398.67,0.02102
7392.88,0.01871
7387.09,0.02677
7381.31,0.02330
7375.52,0.02326
7369.74,0.02852
7363.95,0.01333
7358.16,0.01883
7352.38,0.02453
7346.59,0.01606
7340.8,0.02145
7335.02,0.01967
7329.23,0.02064
7323.45,0.02609
7317.66,0.01828
7311.87,0.02637
7306.09,0.01752
7300.3,0.02397
7294.51,0.02178
7288.73,0.01640
7282.94,0.02387
7277.16,0.01114
7271.37,0.01734
7265.58,0.02070
7259.8,0.02637
7254.01,0.02761
7248.22,0.01796
7242.44,0.02754
7236.65,0.01700
7230.87,0.01865
7225.08,0.02322
7219.29,0.02611
7213.51,0.02692
7207.72,0.02114
7201.93,0.02089
7196.15,0.01467
7190.36,0.01937
7184.58,0.01270
7178.79,0.01451
7173,0.02505
7167.22,0.01963
7161.43,0.02086
7155.65,0.02061
7149.86,0.01677
7144.07,0.02632
7138.29,0.02590
7132.5,0.01916
7126.71,0.01637
7120.93,0.01650
7115.14,0.01896
7109.36,0.02599
7103.57,0.02376
7097.78,0.02089
7092,0.02270
7086.21,0.02629
7080.42,0.02450
7074.64,0.02378
7068.85,0.02378
7063.07,0.02213
7057.28,0.01920
7051.49,0.00973
7045.71,0.02413
7039.92,0.01499
7034.13,0.01851
7028.35,0.02192
7022.56,0.02382
7016.78,0.02023
7010.99,0.02257
7005.2,0.02105
6999.42,0.02039
6993.63,0.01830
6987.84,0.02040
6982.06,0.01690
6976.27,0.01741
6970.49,0.02128
6964.7,0.01852
6958.91,0.01912
6953.13,0.01917
6947.34,0.02143
6941.55,0.02112
6935.77,0.01631
6929.98,0.01935
6924.2,0.01908
6918.41,0.01566
6912.62,0.02029
6906.84,0.01752
6901.05,0.02138
6895.26,0.02099
6889.48,0.02134
6883.69,0.01950
6877.91,0.02301
6872.12,0.02200
6866.33,0.02413
6860.55,0.02129
6854.76,0.01692
6848.97,0.01785
6843.19,0.02147
6837.4,0.02182
6831.62,0.01955
6825.83,0.02497
6820.04,0.02338
6814.26,0.01677
6808.47,0.02156
6802.68,0.02330
6796.9,0.01996
6791.11,0.02422
6785.33,0.02271
6779.54,0.02255
6773.75,0.02014
6767.97,0.02007
6762.18,0.01519
6756.39,0.01754
6750.61,0.01748
6744.82,0.02033
6739.04,0.01882
6733.25,0.01695
6727.46,0.02055
6721.68,0.01248
6715.89,0.02136
6710.1,0.02446
6704.32,0.01594
6698.53,0.02276
6692.75,0.01961
6686.96,0.02094
6681.17,0.02564
6675.39,0.01899
6669.6,0.02193
6663.82,0.02069
6658.03,0.01970
6652.24,0.02208
6646.46,0.02374
6640.67,0.01988
6634.88,0.01905
6629.1,0.01869
6623.31,0.01738
6617.53,0.01796
6611.74,0.02001
6605.95,0.02107
6600.17,0.02245
6594.38,0.02239
6588.59,0.02005
6582.81,0.02015
6577.02,0.01981
6571.24,0.02105
6565.45,0.01991
6559.66,0.01892
6553.88,0.01954
6548.09,0.01728
6542.3,0.02126
6536.52,0.01821
6530.73,0.02129
6524.95,0.01759
6519.16,0.01837
6513.37,0.01665
6507.59,0.01876
6501.8,0.01612
6496.01,0.01978
6490.23,0.01809
6484.44,0.02171
6478.66,0.01972
6472.87,0.02293
6467.08,0.01967
6461.3,0.02049
6455.51,0.02221
6449.72,0.02263
6443.94,0.01600
6438.15,0.01860
6432.37,0.01836
6426.58,0.02242
6420.79,0.02076
6415.01,0.02088
6409.22,0.01940
6403.43,0.01551
6397.65,0.01669
6391.86,0.01583
6386.08,0.02186
6380.29,0.01956
6374.5,0.01986
6368.72,0.01974
6362.93,0.01888
6357.14,0.02071
6351.36,0.02194
6345.57,0.01959
6339.79,0.02044
6334,0.01620
6328.21,0.01884
6322.43,0.01866
6316.64,0.01913
6310.85,0.02229
6305.07,0.02078
6299.28,0.02166
6293.5,0.01669
6287.71,0.02014
6281.92,0.01942
6276.14,0.02017
6270.35,0.01989
6264.56,0.01735
6258.78,0.01951
6252.99,0.02040
6247.21,0.01940
6241.42,0.02010
6235.63,0.01571
6229.85,0.01975
6224.06,0.02182
6218.27,0.01984
6212.49,0.02074
6206.7,0.01910
6200.92,0.01788
6195.13,0.01983
6189.34,0.02107
6183.56,0.01899
6177.77,0.01897
6171.98,0.02094
6166.2,0.01799
6160.41,0.01786
6154.63,0.01932
6148.84,0.02034
6143.05,0.01761
6137.27,0.01755
6131.48,0.01729
6125.7,0.02080
6119.91,0.01838
6114.12,0.01852
6108.34,0.01900
6102.55,0.02103
6096.76,0.01924
6090.98,0.02177
6085.19,0.01809
6079.41,0.01849
6073.62,0.02027
6067.83,0.01987
6062.05,0.01713
6056.26,0.01954
6050.47,0.01961
6044.69,0.01919
6038.9,0.01611
6033.12,0.01735
6027.33,0.01770
6021.54,0.01968
6015.76,0.01622
6009.97,0.02165
6004.18,0.02060
5998.4,0.02019
5992.61,0.01768
5986.83,0.01697
5981.04,0.01841
5975.25,0.01737
5969.47,0.01835
5963.68,0.01819
5957.89,0.01920
5952.11,0.01880
5946.32,0.01771
5940.54,0.01813
5934.75,0.01685
5928.96,0.01653
5923.18,0.01775
5917.39,0.01940
5911.6,0.01905
5905.82,0.01973
5900.03,0.02213
5894.25,0.01802
5888.46,0.01889
5882.67,0.01808
5876.89,0.01792
5871.1,0.01811
5865.31,0.02024
5859.53,0.01967
5853.74,0.01963
5847.96,0.02341
5842.17,0.01681
5836.38,0.01759
5830.6,0.01870
5824.81,0.01647
5819.02,0.01716
5813.24,0.01823
5807.45,0.01729
5801.67,0.02084
5795.88,0.01984
5790.09,0.01864
5784.31,0.01827
5778.52,0.01838
5772.73,0.01954
5766.95,0.01796
5761.16,0.01657
5755.38,0.02073
5749.59,0.01837
5743.8,0.01769
5738.02,0.01816
5732.23,0.01799
5726.44,0.01864
5720.66,0.02073
5714.87,0.01947
5709.09,0.02043
5703.3,0.01918
5697.51,0.01728
5691.73,0.01883
5685.94,0.01969
5680.15,0.01671
5674.37,0.01961
5668.58,0.01973
5662.8,0.02022
5657.01,0.02024
5651.22,0.01961
5645.44,0.01936
5639.65,0.01951
5633.87,0.02021
5628.08,0.01782
5622.29,0.01947
5616.51,0.02084
5610.72,0.01788
5604.93,0.01829
5599.15,0.01982
5593.36,0.01823
5587.58,0.02079
5581.79,0.01691
5576,0.01924
5570.22,0.02002
5564.43,0.01894
5558.64,0.01936
5552.86,0.02121
5547.07,0.01903
5541.29,0.02163
5535.5,0.01847
5529.71,0.01745
5523.93,0.01845
5518.14,0.01942
5512.35,0.02134
5506.57,0.02096
5500.78,0.01907
5495,0.01861
5489.21,0.01938
5483.42,0.01887
5477.64,0.02024
5471.85,0.01865
5466.06,0.01787
5460.28,0.01894
5454.49,0.01820
5448.71,0.01792
5442.92,0.01942
5437.13,0.01754
5431.35,0.01951
5425.56,0.02043
5419.77,0.01834
5413.99,0.01865
5408.2,0.01820
5402.42,0.01858
5396.63,0.01923
5390.84,0.01740
5385.06,0.01837
5379.27,0.01961
5373.48,0.01834
5367.7,0.02049
5361.91,0.01837
5356.13,0.01933
5350.34,0.01812
5344.55,0.02029
5338.77,0.02016
5332.98,0.02043
5327.19,0.02062
5321.41,0.01945
5315.62,0.02025
5309.84,0.01830
5304.05,0.01934
5298.26,0.02144
5292.48,0.01971
5286.69,0.01972
5280.9,0.02041
5275.12,0.02052
5269.33,0.01992
5263.55,0.01932
5257.76,0.01896
5251.97,0.02056
5246.19,0.01949
5240.4,0.01878
5234.61,0.01818
5228.83,0.01756
5223.04,0.01919
5217.26,0.01910
5211.47,0.01915
5205.68,0.01895
5199.9,0.01896
5194.11,0.01869
5188.32,0.01977
5182.54,0.01993
5176.75,0.01882
5170.97,0.01904
5165.18,0.02006
5159.39,0.02008
5153.61,0.01942
5147.82,0.01908
5142.03,0.01955
5136.25,0.01956
5130.46,0.01875
5124.68,0.01779
5118.89,0.01919
5113.1,0.01959
5107.32,0.01951
5101.53,0.01961
5095.75,0.01945
5089.96,0.02023
5084.17,0.01965
5078.39,0.01917
5072.6,0.01961
5066.81,0.01903
5061.03,0.01918
5055.24,0.01924
5049.46,0.01923
5043.67,0.01836
5037.88,0.01869
5032.1,0.01919
5026.31,0.02106
5020.52,0.02003
5014.74,0.01825
5008.95,0.01880
5003.17,0.01821
4997.38,0.01920
4991.59,0.01976
4985.81,0.01938
4980.02,0.01964
4974.23,0.01858
4968.45,0.01842
4962.66,0.01897
4956.88,0.01945
4951.09,0.01936
4945.3,0.01939
4939.52,0.01952
4933.73,0.01974
4927.94,0.01870
4922.16,0.01987
4916.37,0.02143
4910.59,0.01996
4904.8,0.02017
4899.01,0.01988
4893.23,0.01953
4887.44,0.01899
4881.65,0.01897
4875.87,0.01945
4870.08,0.01997
4864.3,0.01998
4858.51,0.02007
4852.72,0.01909
4846.94,0.01908
4841.15,0.01895
4835.36,0.01890
4829.58,0.01899
4823.79,0.01901
4818.01,0.01949
4812.22,0.01885
4806.43,0.01920
4800.65,0.01996
4794.86,0.01974
4789.07,0.01927
4783.29,0.02047
4777.5,0.01990
4771.72,0.02013
4765.93,0.01961
4760.14,0.01917
4754.36,0.02003
4748.57,0.02000
4742.78,0.01900
4737,0.01956
4731.21,0.01909
4725.43,0.02016
4719.64,0.02029
4713.85,0.01972
4708.07,0.01912
4702.28,0.01959
4696.49,0.01931
4690.71,0.01931
4684.92,0.01911
4679.14,0.01995
4673.35,0.01929
4667.56,0.01938
4661.78,0.01933
4655.99,0.01916
4650.2,0.02010
4644.42,0.01886
4638.63,0.01978
4632.85,0.01921
4627.06,0.02073
4621.27,0.01881
4615.49,0.01949
4609.7,0.01982
4603.92,0.02034
4598.13,0.02032
4592.34,0.01986
4586.56,0.01912
4580.77,0.01957
4574.98,0.01962
4569.2,0.01935
4563.41,0.01947
4557.63,0.01952
4551.84,0.02002
4546.05,0.01992
4540.27,0.01991
4534.48,0.01909
4528.69,0.01922
4522.91,0.02058
4517.12,0.01901
4511.34,0.02022
4505.55,0.02117
4499.76,0.02040
4493.98,0.01945
4488.19,0.01894
4482.4,0.01960
4476.62,0.01925
4470.83,0.01872
4465.05,0.01988
4459.26,0.01939
4453.47,0.01924
4447.69,0.01931
4441.9,0.01924
4436.11,0.01950
4430.33,0.01964
4424.54,0.01963
4418.76,0.01914
4412.97,0.01829
4407.18,0.01960
4401.4,0.01932
4395.61,0.01998
4389.82,0.01954
4384.04,0.01946
4378.25,0.01878
4372.47,0.01877
4366.68,0.01975
4360.89,0.01984
4355.11,0.01928
4349.32,0.01965
4343.53,0.01887
4337.75,0.01881
4331.96,0.01942
4326.18,0.01965
4320.39,0.01924
4314.6,0.01931
4308.82,0.01965
4303.03,0.01979
4297.24,0.01964
4291.46,0.01962
4285.67,0.01947
4279.89,0.01966
4274.1,0.02003
4268.31,0.01921
4262.53,0.01945
4256.74,0.01942
4250.95,0.01979
4245.17,0.01963
4239.38,0.01989
4233.6,0.02008
4227.81,0.01961
4222.02,0.01944
4216.24,0.02024
4210.45,0.02009
4204.66,0.02005
4198.88,0.02016
4193.09,0.02010
4187.31,0.01948
4181.52,0.01972
4175.73,0.01990
4169.95,0.02043
4164.16,0.02024
4158.37,0.01953
4152.59,0.01936
4146.8,0.01996
4141.02,0.01992
4135.23,0.02008
4129.44,0.01998
4123.66,0.01999
4117.87,0.01983
4112.09,0.02007
4106.3,0.02029
4100.51,0.01986
4094.73,0.01984
4088.94,0.02003
4083.15,0.02021
4077.37,0.02001
4071.58,0.01996
4065.8,0.01974
4060.01,0.01895
4054.22,0.01961
4048.44,0.01977
4042.65,0.01958
4036.86,0.01915
4031.08,0.01922
4025.29,0.02029
4019.51,0.02014
4013.72,0.02046
4007.93,0.02003
4002.15,0.01977
3996.36,0.01970
3990.57,0.01938
3984.79,0.01989
3979,0.01970
3973.22,0.01999
3967.43,0.01954
3961.64,0.01999
3955.86,0.02034
3950.07,0.01986
3944.28,0.01975
3938.5,0.01975
3932.71,0.01979
3926.93,0.02052
3921.14,0.02039
3915.35,0.01933
3909.57,0.01985
3903.78,0.02011
3897.99,0.02029
3892.21,0.02016
3886.42,0.02020
3880.64,0.01990
3874.85,0.01951
3869.06,0.02015
3863.28,0.02075
3857.49,0.02042
3851.7,0.01979
3845.92,0.01988
3840.13,0.02083
3834.35,0.01994
3828.56,0.02001
3822.77,0.02001
3816.99,0.01930
3811.2,0.01980
3805.41,0.02005
3799.63,0.01973
3793.84,0.01994
3788.06,0.02041
3782.27,0.01986
3776.48,0.01961
3770.7,0.01957
3764.91,0.02049
3759.12,0.02014
3753.34,0.02030
3747.55,0.02006
3741.77,0.01994
3735.98,0.02023
3730.19,0.02021
3724.41,0.01969
3718.62,0.01924
3712.83,0.02005
3707.05,0.01983
3701.26,0.01978
3695.48,0.01947
3689.69,0.01988
3683.9,0.01967
3678.12,0.02039
3672.33,0.01973
3666.54,0.01887
3660.76,0.01943
3654.97,0.01952
3649.19,0.01912
3643.4,0.01929
3637.61,0.01916
3631.83,0.01900
3626.04,0.01857
3620.25,0.01917
3614.47,0.01937
3608.68,0.01871
3602.9,0.01901
3597.11,0.01953
3591.32,0.01953
3585.54,0.01936
3579.75,0.01918
3573.97,0.01916
3568.18,0.01848
3562.39,0.01842
3556.61,0.01880
3550.82,0.01897
3545.03,0.01810
3539.25,0.01823
3533.46,0.01871
3527.68,0.01876
3521.89,0.01794
3516.1,0.01810
3510.32,0.01845
3504.53,0.01911
3498.74,0.01861
3492.96,0.01836
3487.17,0.01817
3481.39,0.01826
3475.6,0.01836
3469.81,0.01826
3464.03,0.01759
3458.24,0.01824
3452.45,0.01860
3446.67,0.01721
3440.88,0.01840
3435.1,0.01895
3429.31,0.01842
3423.52,0.01813
3417.74,0.01769
3411.95,0.01793
3406.16,0.01799
3400.38,0.01721
3394.59,0.01703
3388.81,0.01764
3383.02,0.01796
3377.23,0.01736
3371.45,0.01735
3365.66,0.01777
3359.87,0.01741
3354.09,0.01671
3348.3,0.01752
3342.52,0.01775
3336.73,0.01771
3330.94,0.01771
3325.16,0.01728
3319.37,0.01767
3313.58,0.01786
3307.8,0.01769
3302.01,0.01711
3296.23,0.01741
3290.44,0.01700
3284.65,0.01777
3278.87,0.01766
3273.08,0.01762
3267.29,0.01763
3261.51,0.01824
3255.72,0.01804
3249.94,0.01763
3244.15,0.01759
3238.36,0.01794
3232.58,0.01736
3226.79,0.01766
3221,0.01891
3215.22,0.01782
3209.43,0.01865
3203.65,0.01784
3197.86,0.01826
3192.07,0.01790
3186.29,0.01829
3180.5,0.01776
3174.71,0.01859
3168.93,0.01789
3163.14,0.01827
3157.36,0.01846
3151.57,0.01811
3145.78,0.01819
3140,0.01785
3134.21,0.01837
3128.42,0.01810
3122.64,0.01766
3116.85,0.01814
3111.07,0.01849
3105.28,0.01804
3099.49,0.01767
3093.71,0.01808
3087.92,0.01792
3082.14,0.01734
3076.35,0.01803
3070.56,0.01776
3064.78,0.01781
3058.99,0.01823
3053.2,0.01704
3047.42,0.01772
3041.63,0.01772
3035.85,0.01787
3030.06,0.01781
3024.27,0.01780
3018.49,0.01743
3012.7,0.01824
3006.91,0.01777
3001.13,0.01750
2995.34,0.01731
2989.56,0.01689
2983.77,0.01674
2977.98,0.01704
2972.2,0.01639
2966.41,0.01662
2960.62,0.01642
2954.84,0.01658
2949.05,0.01762
2943.27,0.01696
2937.48,0.01728
2931.69,0.01671
2925.91,0.01730
2920.12,0.01708
2914.33,0.01735
2908.55,0.01752
2902.76,0.01768
2896.98,0.01785
2891.19,0.01766
2885.4,0.01778
2879.62,0.01822
2873.83,0.01773
2868.04,0.01770
2862.26,0.01780
2856.47,0.01776
2850.69,0.01780
2844.9,0.01810
2839.11,0.01885
2833.33,0.01846
2827.54,0.01868
2821.75,0.01863
2815.97,0.01857
2810.18,0.01819
2804.4,0.01807
2798.61,0.01827
2792.82,0.01816
2787.04,0.01863
2781.25,0.01824
2775.46,0.01846
2769.68,0.01836
2763.89,0.01925
2758.11,0.01854
2752.32,0.01826
2746.53,0.01852
2740.75,0.01880
2734.96,0.01853
2729.17,0.01866
2723.39,0.01845
2717.6,0.01879
2711.82,0.01874
2706.03,0.01885
2700.24,0.01890
2694.46,0.01866
2688.67,0.01817
2682.88,0.01840
2677.1,0.01790
2671.31,0.01808
2665.53,0.01832
2659.74,0.01889
2653.95,0.01862
2648.17,0.01854
2642.38,0.01825
2636.59,0.01875
2630.81,0.01849
2625.02,0.01872
2619.24,0.01893
2613.45,0.01856
2607.66,0.01856
2601.88,0.01821
2596.09,0.01842
2590.3,0.01839
2584.52,0.01831
2578.73,0.01857
2572.95,0.01862
2567.16,0.01831
2561.37,0.01849
2555.59,0.01848
2549.8,0.01874
2544.02,0.01853
2538.23,0.01850
2532.44,0.01819
2526.66,0.01868
2520.87,0.01858
2515.08,0.01837
2509.3,0.01819
2503.51,0.01831
2497.73,0.01857
2491.94,0.01843
2486.15,0.01873
2480.37,0.01865
2474.58,0.01890
2468.79,0.01864
2463.01,0.01830
2457.22,0.01869
2451.44,0.01833
2445.65,0.01819
2439.86,0.01869
2434.08,0.01849
2428.29,0.01835
2422.5,0.01845
2416.72,0.01832
2410.93,0.01848
2405.15,0.01841
2399.36,0.01872
2393.57,0.01857
2387.79,0.01826
2382,0.01828
2376.21,0.01836
2370.43,0.01848
2364.64,0.01856
2358.86,0.01833
2353.07,0.01867
2347.28,0.01819
2341.5,0.01877
2335.71,0.01837
2329.92,0.01808
2324.14,0.01838
2318.35,0.01838
2312.57,0.01822
2306.78,0.01814
2300.99,0.01831
2295.21,0.01882
2289.42,0.01842
2283.63,0.01791
2277.85,0.01854
2272.06,0.01869
2266.28,0.01816
2260.49,0.01809
2254.7,0.01850
2248.92,0.01849
2243.13,0.01855
2237.34,0.01823
2231.56,0.01818
2225.77,0.01837
2219.99,0.01834
2214.2,0.01845
2208.41,0.01834
2202.63,0.01849
2196.84,0.01865
2191.05,0.01841
2185.27,0.01825
2179.48,0.01835
2173.7,0.01793
2167.91,0.01821
2162.12,0.01815
2156.34,0.01843
2150.55,0.01858
2144.76,0.01830
2138.98,0.01806
2133.19,0.01843
2127.41,0.01812
2121.62,0.01847
2115.83,0.01844
2110.05,0.01830
2104.26,0.01823
2098.47,0.01832
2092.69,0.01810
2086.9,0.01819
2081.12,0.01805
2075.33,0.01823
2069.54,0.01814
2063.76,0.01823
2057.97,0.01834
2052.19,0.01839
2046.4,0.01852
2040.61,0.01829
2034.83,0.01806
2029.04,0.01823
2023.25,0.01807
2017.47,0.01802
2011.68,0.01832
2005.9,0.01812
2000.11,0.01840
1994.32,0.01797
1988.54,0.01832
1982.75,0.01827
1976.96,0.01810
1971.18,0.01855
1965.39,0.01839
1959.61,0.01833
1953.82,0.01794
1948.03,0.01820
1942.25,0.01826
1936.46,0.01832
1930.67,0.01774
1924.89,0.01786
1919.1,0.01784
1913.32,0.01771
1907.53,0.01799
1901.74,0.01761
1895.96,0.01744
1890.17,0.01770
1884.38,0.01800
1878.6,0.01791
1872.81,0.01774
1867.03,0.01764
1861.24,0.01776
1855.45,0.01781
1849.67,0.01768
1843.88,0.01729
1838.09,0.01741
1832.31,0.01748
1826.52,0.01724
1820.74,0.01731
1814.95,0.01716
1809.16,0.01691
1803.38,0.01710
1797.59,0.01693
1791.8,0.01692
1786.02,0.01676
1780.23,0.01643
1774.45,0.01623
1768.66,0.01557
1762.87,0.01515
1757.09,0.01525
1751.3,0.01503
1745.51,0.01528
1739.73,0.01660
1733.94,0.01673
1728.16,0.01781
1722.37,0.01814
1716.58,0.01837
1710.8,0.01777
1705.01,0.01743
1699.22,0.01691
1693.44,0.01669
1687.65,0.01658
1681.87,0.01588
1676.08,0.01593
1670.29,0.01585
1664.51,0.01607
1658.72,0.01546
1652.93,0.01535
1647.15,0.01594
1641.36,0.01569
1635.58,0.01592
1629.79,0.01608
1624,0.01607
1618.22,0.01644
1612.43,0.01581
1606.64,0.01599
1600.86,0.01579
1595.07,0.01605
1589.29,0.01577
1583.5,0.01568
1577.71,0.01562
1571.93,0.01566
1566.14,0.01515
1560.35,0.01580
1554.57,0.01572
1548.78,0.01498
1543,0.01533
1537.21,0.01546
1531.42,0.01562
1525.64,0.01617
1519.85,0.01580
1514.07,0.01576
1508.28,0.01612
1502.49,0.01574
1496.71,0.01609
1490.92,0.01618
1485.13,0.01604
1479.35,0.01583
1473.56,0.01529
1467.78,0.01521
1461.99,0.01596
1456.2,0.01559
1450.42,0.01568
1444.63,0.01587
1438.84,0.01616
1433.06,0.01586
1427.27,0.01623
1421.49,0.01580
1415.7,0.01550
1409.91,0.01581
1404.13,0.01531
1398.34,0.01508
1392.55,0.01511
1386.77,0.01532
1380.98,0.01540
1375.2,0.01593
1369.41,0.01541
1363.62,0.01527
1357.84,0.01569
1352.05,0.01546
1346.26,0.01503
1340.48,0.01512
1334.69,0.01472
1328.91,0.01481
1323.12,0.01460
1317.33,0.01389
1311.55,0.01382
1305.76,0.01415
1299.97,0.01431
1294.19,0.01533
1288.4,0.01539
1282.62,0.01602
1276.83,0.01595
1271.04,0.01662
1265.26,0.01682
1259.47,0.01681
1253.68,0.01724
1247.9,0.01736
1242.11,0.01720
1236.33,0.01715
1230.54,0.01660
1224.75,0.01634
1218.97,0.01613
1213.18,0.01632
1207.39,0.01577
1201.61,0.01560
1195.82,0.01518
1190.04,0.01539
1184.25,0.01551
1178.46,0.01560
1172.68,0.01512
1166.89,0.01492
1161.1,0.01463
1155.32,0.01423
1149.53,0.01476
1143.75,0.01478
1137.96,0.01505
1132.17,0.01559
1126.39,0.01475
1120.6,0.01570
1114.81,0.01631
1109.03,0.01593
1103.24,0.01531
1097.46,0.01573
1091.67,0.01567
1085.88,0.01465
1080.1,0.01613
1074.31,0.01779
1068.52,0.01722
1062.74,0.01641
1056.95,0.01684
1051.17,0.01733
1045.38,0.01601
1039.59,0.01636
1033.81,0.01669
1028.02,0.01640
1022.24,0.01625
1016.45,0.01668
1010.66,0.01720
1004.88,0.01796
999.09,0.01759
993.304,0.01854
987.518,0.01799
981.731,0.01777
975.945,0.01712
970.159,0.01765
964.373,0.01773
958.586,0.01750
952.8,0.01719
947.014,0.01705
941.228,0.01659
935.441,0.01615
929.655,0.01611
923.869,0.01684
918.083,0.01698
912.297,0.01651
906.51,0.01685
900.724,0.01594
894.938,0.01684
889.152,0.01732
883.365,0.01631
877.579,0.01559
871.793,0.01628
866.007,0.01658
860.22,0.01598
854.434,0.01609
848.648,0.01641
842.862,0.01587
837.075,0.01691
831.289,0.01695
825.503,0.01622
819.717,0.01663
813.931,0.01738
808.144,0.01615
802.358,0.01643
796.572,0.01602
790.786,0.01640
784.999,0.01545
779.213,0.01513
773.427,0.01520
767.641,0.01572
761.854,0.01602
756.068,0.01560
750.282,0.01476
744.496,0.01502
738.709,0.01554
732.923,0.01612
727.137,0.01570
721.351,0.01523
715.565,0.01584
709.778,0.01421
703.992,0.01588
698.206,0.01527
692.42,0.01522
686.633,0.01485
680.847,0.01482
675.061,0.01451
669.275,0.01476
663.488,0.01387
657.702,0.01406
651.916,0.01440
646.13,0.01330
640.343,0.01455
634.557,0.01291
628.771,0.01249
622.985,0.01316
617.198,0.01296
611.412,0.01457
605.626,0.01263
599.84,0.01307