File: 01_Data/Bamboo_Rug/FTIR/IS/Bamboo_Rug_IS_T_220822_R4.dpt
7497.03,0.01566
7491.25,0.02480
7485.46,0.01543
7479.67,0.02581
7473.89,0.02578
7468.1,0.01637
7462.32,0.01288
7456.53,0.02636
7450.74,0.01666
7444.96,0.02330
7439.17,0.01697
7433.38,0.02186
7427.6,0.02642
7421.81,0.02033
7416.03,0.02676
7410.24,0.02494
7404.45,0.01729
7398.67,0.01831
7392.88,0.01713
7387.09,0.02790
7381.31,0.01810
7375.52,0.01296
7369.74,0.02672
7363.95,0.02077
7358.16,0.02294
7352.38,0.02608
7346.59,0.01731
7340.8,0.02952
7335.02,0.02456
7329.23,0.02961
7323.45,0.01945
7317.66,0.02279
7311.87,0.02225
7306.09,0.02284
7300.3,0.02052
7294.51,0.01948
7288.73,0.01496
7282.94,0.01430
7277.16,0.03400
7271.37,0.02777
7265.58,0.02123
7259.8,0.02735
7254.01,0.01761
7248.22,0.01977
7242.44,0.02096
7236.65,0.01961
7230.87,0.01924
7225.08,0.02133
7219.29,0.02352
7213.51,0.02562
7207.72,0.02521
7201.93,0.02849
7196.15,0.02089
7190.36,0.02518
7184.58,0.02025
7178.79,0.01567
7173,0.01798
7167.22,0.01756
7161.43,0.02664
7155.65,0.01768
7149.86,0.01860
7144.07,0.02072
7138.29,0.01584
7132.5,0.02606
7126.71,0.02123
7120.93,0.02134
7115.14,0.02084
7109.36,0.02068
7103.57,0.01932
7097.78,0.01911
7092,0.02447
7086.21,0.02840
7080.42,0.02563
7074.64,0.01611
7068.85,0.01872
7063.07,0.02066
7057.28,0.01922
7051.49,0.02514
7045.71,0.02443
7039.92,0.01781
7034.13,0.01888
7028.35,0.01722
7022.56,0.01965
7016.78,0.02040
7010.99,0.02357
7005.2,0.02499
6999.42,0.02298
6993.63,0.02186
6987.84,0.02101
6982.06,0.02468
6976.27,0.02296
6970.49,0.01646
6964.7,0.02227
6958.91,0.02391
6953.13,0.01774
6947.34,0.02107
6941.55,0.02465
6935.77,0.02846
6929.98,0.01514
6924.2,0.02144
6918.41,0.02002
6912.62,0.01849
6906.84,0.02188
6901.05,0.02265
6895.26,0.02237
6889.48,0.02419
6883.69,0.01845
6877.91,0.01744
6872.12,0.01958
6866.33,0.01527
6860.55,0.02449
6854.76,0.02197
6848.97,0.02202
6843.19,0.02533
6837.4,0.02030
6831.62,0.01815
6825.83,0.01963
6820.04,0.01917
6814.26,0.02010
6808.47,0.02116
6802.68,0.01973
6796.9,0.02138
6791.11,0.02132
6785.33,0.02328
6779.54,0.02514
6773.75,0.02413
6767.97,0.02145
6762.18,0.01773
6756.39,0.02224
6750.61,0.02139
6744.82,0.01980
6739.04,0.01896
6733.25,0.02526
6727.46,0.02144
6721.68,0.01991
6715.89,0.01921
6710.1,0.02010
6704.32,0.02009
6698.53,0.01870
6692.75,0.01882
6686.96,0.02247
6681.17,0.01680
6675.39,0.02175
6669.6,0.02120
6663.82,0.02332
6658.03,0.01904
6652.24,0.02006
6646.46,0.01928
6640.67,0.01832
6634.88,0.01999
6629.1,0.01699
6623.31,0.02216
6617.53,0.02375
6611.74,0.02041
6605.95,0.01375
6600.17,0.01830
6594.38,0.02014
6588.59,0.02190
6582.81,0.01939
6577.02,0.01402
6571.24,0.01822
6565.45,0.01741
6559.66,0.02147
6553.88,0.01889
6548.09,0.02236
6542.3,0.01988
6536.52,0.02064
6530.73,0.01512
6524.95,0.02122
6519.16,0.01877
6513.37,0.01940
6507.59,0.02096
6501.8,0.01963
6496.01,0.01940
6490.23,0.02098
6484.44,0.01711
6478.66,0.01939
6472.87,0.01837
6467.08,0.01924
6461.3,0.02048
6455.51,0.02151
6449.72,0.02234
6443.94,0.01867
6438.15,0.01514
6432.37,0.01849
6426.58,0.02051
6420.79,0.02050
6415.01,0.02040
6409.22,0.01736
6403.43,0.01610
6397.65,0.01263
6391.86,0.01884
6386.08,0.01863
6380.29,0.01673
6374.5,0.02254
6368.72,0.02093
6362.93,0.01868
6357.14,0.01934
6351.36,0.02086
6345.57,0.02104
6339.79,0.02103
6334,0.02252
6328.21,0.01978
6322.43,0.01794
6316.64,0.01697
6310.85,0.02032
6305.07,0.01960
6299.28,0.01973
6293.5,0.01825
6287.71,0.01622
6281.92,0.02014
6276.14,0.02002
6270.35,0.01974
6264.56,0.01667
6258.78,0.02027
6252.99,0.01971
6247.21,0.01899
6241.42,0.01818
6235.63,0.01858
6229.85,0.01870
6224.06,0.01813
6218.27,0.01677
6212.49,0.01843
6206.7,0.01913
6200.92,0.01780
6195.13,0.01527
6189.34,0.01483
6183.56,0.01638
6177.77,0.01901
6171.98,0.01825
6166.2,0.01889
6160.41,0.02019
6154.63,0.01820
6148.84,0.01828
6143.05,0.01495
6137.27,0.01706
6131.48,0.02014
6125.7,0.01948
6119.91,0.01963
6114.12,0.01816
6108.34,0.01659
6102.55,0.01967
6096.76,0.01961
6090.98,0.01959
6085.19,0.02093
6079.41,0.02114
6073.62,0.01822
6067.83,0.01901
6062.05,0.01866
6056.26,0.01748
6050.47,0.01900
6044.69,0.02119
6038.9,0.01779
6033.12,0.01559
6027.33,0.01821
6021.54,0.01807
6015.76,0.01915
6009.97,0.01815
6004.18,0.02025
5998.4,0.01873
5992.61,0.01823
5986.83,0.01917
5981.04,0.02103
5975.25,0.01767
5969.47,0.01717
5963.68,0.01785
5957.89,0.01785
5952.11,0.01845
5946.32,0.01871
5940.54,0.01878
5934.75,0.01880
5928.96,0.01795
5923.18,0.01695
5917.39,0.02075
5911.6,0.01893
5905.82,0.01884
5900.03,0.01954
5894.25,0.01795
5888.46,0.01813
5882.67,0.01821
5876.89,0.02033
5871.1,0.01998
5865.31,0.01904
5859.53,0.01895
5853.74,0.02027
5847.96,0.01813
5842.17,0.01887
5836.38,0.01884
5830.6,0.01810
5824.81,0.01852
5819.02,0.01814
5813.24,0.01744
5807.45,0.02002
5801.67,0.01719
5795.88,0.01889
5790.09,0.01797
5784.31,0.01799
5778.52,0.01888
5772.73,0.02125
5766.95,0.01955
5761.16,0.01815
5755.38,0.01719
5749.59,0.01932
5743.8,0.02042
5738.02,0.01857
5732.23,0.01804
5726.44,0.01910
5720.66,0.01922
5714.87,0.01828
5709.09,0.02050
5703.3,0.01973
5697.51,0.01930
5691.73,0.01788
5685.94,0.01704
5680.15,0.01843
5674.37,0.01830
5668.58,0.01893
5662.8,0.02170
5657.01,0.02003
5651.22,0.01900
5645.44,0.01956
5639.65,0.01850
5633.87,0.01964
5628.08,0.01769
5622.29,0.01847
5616.51,0.01908
5610.72,0.01983
5604.93,0.01996
5599.15,0.01954
5593.36,0.01859
5587.58,0.01803
5581.79,0.01870
5576,0.02044
5570.22,0.01982
5564.43,0.01887
5558.64,0.01897
5552.86,0.01921
5547.07,0.01897
5541.29,0.01842
5535.5,0.01895
5529.71,0.02007
5523.93,0.01790
5518.14,0.01826
5512.35,0.01959
5506.57,0.01892
5500.78,0.02065
5495,0.01773
5489.21,0.01920
5483.42,0.02046
5477.64,0.02144
5471.85,0.01949
5466.06,0.01853
5460.28,0.01923
5454.49,0.02004
5448.71,0.02004
5442.92,0.02057
5437.13,0.02034
5431.35,0.01960
5425.56,0.01869
5419.77,0.01937
5413.99,0.02009
5408.2,0.01977
5402.42,0.02040
5396.63,0.01835
5390.84,0.01908
5385.06,0.01950
5379.27,0.01984
5373.48,0.02016
5367.7,0.02005
5361.91,0.01627
5356.13,0.01944
5350.34,0.02034
5344.55,0.01855
5338.77,0.01770
5332.98,0.01928
5327.19,0.01862
5321.41,0.01982
5315.62,0.01933
5309.84,0.01898
5304.05,0.01927
5298.26,0.01941
5292.48,0.01909
5286.69,0.01938
5280.9,0.01925
5275.12,0.01860
5269.33,0.01854
5263.55,0.01972
5257.76,0.01823
5251.97,0.01625
5246.19,0.01738
5240.4,0.01863
5234.61,0.02008
5228.83,0.02050
5223.04,0.01869
5217.26,0.01873
5211.47,0.01904
5205.68,0.01728
5199.9,0.01823
5194.11,0.01934
5188.32,0.01889
5182.54,0.01833
5176.75,0.01791
5170.97,0.01767
5165.18,0.01897
5159.39,0.01956
5153.61,0.02025
5147.82,0.01966
5142.03,0.01943
5136.25,0.01868
5130.46,0.01825
5124.68,0.01821
5118.89,0.01931
5113.1,0.01822
5107.32,0.01867
5101.53,0.01890
5095.75,0.01918
5089.96,0.01862
5084.17,0.01989
5078.39,0.01952
5072.6,0.01949
5066.81,0.01869
5061.03,0.01858
5055.24,0.01773
5049.46,0.01849
5043.67,0.01937
5037.88,0.01915
5032.1,0.01936
5026.31,0.01909
5020.52,0.01929
5014.74,0.01893
5008.95,0.01843
5003.17,0.01855
4997.38,0.02013
4991.59,0.02046
4985.81,0.01844
4980.02,0.01923
4974.23,0.01913
4968.45,0.01945
4962.66,0.01938
4956.88,0.01959
4951.09,0.02047
4945.3,0.01844
4939.52,0.01988
4933.73,0.01928
4927.94,0.01921
4922.16,0.01897
4916.37,0.01906
4910.59,0.01859
4904.8,0.01885
4899.01,0.01871
4893.23,0.01956
4887.44,0.01936
4881.65,0.01950
4875.87,0.02008
4870.08,0.01968
4864.3,0.01841
4858.51,0.01910
4852.72,0.01956
4846.94,0.01983
4841.15,0.01975
4835.36,0.01902
4829.58,0.01947
4823.79,0.01929
4818.01,0.01902
4812.22,0.01918
4806.43,0.01931
4800.65,0.01860
4794.86,0.01959
4789.07,0.01930
4783.29,0.01864
4777.5,0.01863
4771.72,0.01822
4765.93,0.01939
4760.14,0.01886
4754.36,0.02065
4748.57,0.01940
4742.78,0.02009
4737,0.01854
4731.21,0.01839
4725.43,0.01927
4719.64,0.02012
4713.85,0.01864
4708.07,0.01841
4702.28,0.01948
4696.49,0.01897
4690.71,0.01914
4684.92,0.01853
4679.14,0.01840
4673.35,0.01959
4667.56,0.01940
4661.78,0.01877
4655.99,0.01939
4650.2,0.01838
4644.42,0.01864
4638.63,0.01946
4632.85,0.01920
4627.06,0.01957
4621.27,0.01886
4615.49,0.01939
4609.7,0.01932
4603.92,0.01877
4598.13,0.01880
4592.34,0.01974
4586.56,0.01896
4580.77,0.01978
4574.98,0.01949
4569.2,0.01878
4563.41,0.01975
4557.63,0.01929
4551.84,0.01916
4546.05,0.01890
4540.27,0.01935
4534.48,0.01985
4528.69,0.02024
4522.91,0.01939
4517.12,0.02039
4511.34,0.02011
4505.55,0.02009
4499.76,0.01920
4493.98,0.01904
4488.19,0.01894
4482.4,0.01949
4476.62,0.01979
4470.83,0.01885
4465.05,0.01903
4459.26,0.01913
4453.47,0.01855
4447.69,0.01980
4441.9,0.01876
4436.11,0.01988
4430.33,0.01918
4424.54,0.01945
4418.76,0.01915
4412.97,0.01911
4407.18,0.01926
4401.4,0.01902
4395.61,0.01910
4389.82,0.01920
4384.04,0.01938
4378.25,0.01900
4372.47,0.01882
4366.68,0.01916
4360.89,0.01904
4355.11,0.01967
4349.32,0.01923
4343.53,0.01902
4337.75,0.01866
4331.96,0.01867
4326.18,0.01922
4320.39,0.01918
4314.6,0.01976
4308.82,0.01992
4303.03,0.01859
4297.24,0.01949
4291.46,0.01913
4285.67,0.01931
4279.89,0.01997
4274.1,0.02023
4268.31,0.01980
4262.53,0.01929
4256.74,0.01986
4250.95,0.01977
4245.17,0.01919
4239.38,0.01928
4233.6,0.01958
4227.81,0.01951
4222.02,0.01889
4216.24,0.02030
4210.45,0.01905
4204.66,0.01894
4198.88,0.01966
4193.09,0.01974
4187.31,0.01919
4181.52,0.01979
4175.73,0.01934
4169.95,0.01960
4164.16,0.02001
4158.37,0.01883
4152.59,0.01928
4146.8,0.01925
4141.02,0.01962
4135.23,0.01924
4129.44,0.01923
4123.66,0.01912
4117.87,0.01966
4112.09,0.01950
4106.3,0.01944
4100.51,0.01918
4094.73,0.01988
4088.94,0.01984
4083.15,0.01966
4077.37,0.01981
4071.58,0.01924
4065.8,0.01939
4060.01,0.01940
4054.22,0.01959
4048.44,0.01871
4042.65,0.01991
4036.86,0.01974
4031.08,0.01976
4025.29,0.01953
4019.51,0.01889
4013.72,0.01932
4007.93,0.02039
4002.15,0.02012
3996.36,0.01995
3990.57,0.01949
3984.79,0.01996
3979,0.01976
3973.22,0.01916
3967.43,0.01918
3961.64,0.01986
3955.86,0.01954
3950.07,0.01954
3944.28,0.01997
3938.5,0.01935
3932.71,0.01961
3926.93,0.01919
3921.14,0.02042
3915.35,0.01980
3909.57,0.01926
3903.78,0.01862
3897.99,0.01925
3892.21,0.01969
3886.42,0.01953
3880.64,0.02003
3874.85,0.01982
3869.06,0.01968
3863.28,0.01950
3857.49,0.01991
3851.7,0.01954
3845.92,0.01958
3840.13,0.02013
3834.35,0.01964
3828.56,0.01956
3822.77,0.01963
3816.99,0.01982
3811.2,0.01951
3805.41,0.01979
3799.63,0.01956
3793.84,0.01953
3788.06,0.02005
3782.27,0.01960
3776.48,0.01956
3770.7,0.01944
3764.91,0.01906
3759.12,0.01931
3753.34,0.01947
3747.55,0.01929
3741.77,0.01941
3735.98,0.01928
3730.19,0.01925
3724.41,0.01914
3718.62,0.01920
3712.83,0.01993
3707.05,0.01924
3701.26,0.01879
3695.48,0.01925
3689.69,0.01866
3683.9,0.01873
3678.12,0.01915
3672.33,0.01879
3666.54,0.01859
3660.76,0.01836
3654.97,0.01960
3649.19,0.01923
3643.4,0.01909
3637.61,0.01917
3631.83,0.01932
3626.04,0.01832
3620.25,0.01883
3614.47,0.01864
3608.68,0.01834
3602.9,0.01865
3597.11,0.01891
3591.32,0.01878
3585.54,0.01817
3579.75,0.01882
3573.97,0.01829
3568.18,0.01844
3562.39,0.01897
3556.61,0.01829
3550.82,0.01800
3545.03,0.01775
3539.25,0.01883
3533.46,0.01857
3527.68,0.01799
3521.89,0.01846
3516.1,0.01850
3510.32,0.01819
3504.53,0.01793
3498.74,0.01782
3492.96,0.01795
3487.17,0.01810
3481.39,0.01841
3475.6,0.01753
3469.81,0.01767
3464.03,0.01793
3458.24,0.01787
3452.45,0.01813
3446.67,0.01758
3440.88,0.01840
3435.1,0.01746
3429.31,0.01703
3423.52,0.01770
3417.74,0.01799
3411.95,0.01772
3406.16,0.01717
3400.38,0.01607
3394.59,0.01734
3388.81,0.01692
3383.02,0.01698
3377.23,0.01805
3371.45,0.01760
3365.66,0.01705
3359.87,0.01681
3354.09,0.01670
3348.3,0.01709
3342.52,0.01718
3336.73,0.01745
3330.94,0.01647
3325.16,0.01722
3319.37,0.01728
3313.58,0.01712
3307.8,0.01698
3302.01,0.01673
3296.23,0.01667
3290.44,0.01752
3284.65,0.01723
3278.87,0.01707
3273.08,0.01760
3267.29,0.01708
3261.51,0.01707
3255.72,0.01719
3249.94,0.01723
3244.15,0.01712
3238.36,0.01797
3232.58,0.01816
3226.79,0.01738
3221,0.01778
3215.22,0.01777
3209.43,0.01809
3203.65,0.01746
3197.86,0.01780
3192.07,0.01775
3186.29,0.01769
3180.5,0.01794
3174.71,0.01760
3168.93,0.01810
3163.14,0.01773
3157.36,0.01779
3151.57,0.01769
3145.78,0.01780
3140,0.01791
3134.21,0.01771
3128.42,0.01769
3122.64,0.01790
3116.85,0.01758
3111.07,0.01760
3105.28,0.01784
3099.49,0.01778
3093.71,0.01794
3087.92,0.01748
3082.14,0.01759
3076.35,0.01771
3070.56,0.01777
3064.78,0.01793
3058.99,0.01758
3053.2,0.01700
3047.42,0.01752
3041.63,0.01809
3035.85,0.01807
3030.06,0.01732
3024.27,0.01753
3018.49,0.01655
3012.7,0.01762
3006.91,0.01719
3001.13,0.01685
2995.34,0.01720
2989.56,0.01678
2983.77,0.01643
2977.98,0.01664
2972.2,0.01707
2966.41,0.01690
2960.62,0.01715
2954.84,0.01641
2949.05,0.01627
2943.27,0.01673
2937.48,0.01658
2931.69,0.01633
2925.91,0.01706
2920.12,0.01652
2914.33,0.01678
2908.55,0.01724
2902.76,0.01733
2896.98,0.01785
2891.19,0.01749
2885.4,0.01745
2879.62,0.01704
2873.83,0.01731
2868.04,0.01774
2862.26,0.01699
2856.47,0.01728
2850.69,0.01764
2844.9,0.01794
2839.11,0.01844
2833.33,0.01823
2827.54,0.01830
2821.75,0.01866
2815.97,0.01793
2810.18,0.01815
2804.4,0.01812
2798.61,0.01803
2792.82,0.01820
2787.04,0.01810
2781.25,0.01778
2775.46,0.01897
2769.68,0.01836
2763.89,0.01829
2758.11,0.01827
2752.32,0.01786
2746.53,0.01798
2740.75,0.01802
2734.96,0.01811
2729.17,0.01830
2723.39,0.01805
2717.6,0.01769
2711.82,0.01805
2706.03,0.01806
2700.24,0.01826
2694.46,0.01818
2688.67,0.01815
2682.88,0.01790
2677.1,0.01850
2671.31,0.01824
2665.53,0.01820
2659.74,0.01808
2653.95,0.01799
2648.17,0.01830
2642.38,0.01816
2636.59,0.01789
2630.81,0.01808
2625.02,0.01829
2619.24,0.01808
2613.45,0.01795
2607.66,0.01808
2601.88,0.01801
2596.09,0.01875
2590.3,0.01815
2584.52,0.01804
2578.73,0.01818
2572.95,0.01834
2567.16,0.01822
2561.37,0.01814
2555.59,0.01830
2549.8,0.01842
2544.02,0.01818
2538.23,0.01830
2532.44,0.01815
2526.66,0.01843
2520.87,0.01823
2515.08,0.01849
2509.3,0.01846
2503.51,0.01852
2497.73,0.01811
2491.94,0.01810
2486.15,0.01810
2480.37,0.01799
2474.58,0.01804
2468.79,0.01823
2463.01,0.01798
2457.22,0.01783
2451.44,0.01803
2445.65,0.01828
2439.86,0.01811
2434.08,0.01773
2428.29,0.01789
2422.5,0.01806
2416.72,0.01808
2410.93,0.01860
2405.15,0.01805
2399.36,0.01815
2393.57,0.01809
2387.79,0.01820
2382,0.01827
2376.21,0.01788
2370.43,0.01834
2364.64,0.01847
2358.86,0.01821
2353.07,0.01809
2347.28,0.01830
2341.5,0.01849
2335.71,0.01799
2329.92,0.01789
2324.14,0.01812
2318.35,0.01817
2312.57,0.01843
2306.78,0.01792
2300.99,0.01794
2295.21,0.01798
2289.42,0.01816
2283.63,0.01808
2277.85,0.01792
2272.06,0.01830
2266.28,0.01799
2260.49,0.01842
2254.7,0.01801
2248.92,0.01821
2243.13,0.01794
2237.34,0.01819
2231.56,0.01845
2225.77,0.01814
2219.99,0.01814
2214.2,0.01812
2208.41,0.01790
2202.63,0.01804
2196.84,0.01823
2191.05,0.01823
2185.27,0.01785
2179.48,0.01789
2173.7,0.01807
2167.91,0.01806
2162.12,0.01813
2156.34,0.01781
2150.55,0.01830
2144.76,0.01801
2138.98,0.01801
2133.19,0.01787
2127.41,0.01811
2121.62,0.01804
2115.83,0.01826
2110.05,0.01805
2104.26,0.01844
2098.47,0.01762
2092.69,0.01779
2086.9,0.01787
2081.12,0.01833
2075.33,0.01786
2069.54,0.01765
2063.76,0.01780
2057.97,0.01813
2052.19,0.01804
2046.4,0.01763
2040.61,0.01791
2034.83,0.01804
2029.04,0.01794
2023.25,0.01774
2017.47,0.01816
2011.68,0.01763
2005.9,0.01777
2000.11,0.01783
1994.32,0.01796
1988.54,0.01800
1982.75,0.01786
1976.96,0.01799
1971.18,0.01814
1965.39,0.01784
1959.61,0.01793
1953.82,0.01782
1948.03,0.01756
1942.25,0.01793
1936.46,0.01763
1930.67,0.01781
1924.89,0.01822
1919.1,0.01777
1913.32,0.01789
1907.53,0.01765
1901.74,0.01760
1895.96,0.01784
1890.17,0.01740
1884.38,0.01719
1878.6,0.01756
1872.81,0.01749
1867.03,0.01729
1861.24,0.01712
1855.45,0.01750
1849.67,0.01722
1843.88,0.01746
1838.09,0.01737
1832.31,0.01726
1826.52,0.01689
1820.74,0.01695
1814.95,0.01700
1809.16,0.01685
1803.38,0.01669
1797.59,0.01634
1791.8,0.01637
1786.02,0.01652
1780.23,0.01589
1774.45,0.01568
1768.66,0.01551
1762.87,0.01525
1757.09,0.01443
1751.3,0.01432
1745.51,0.01450
1739.73,0.01557
1733.94,0.01681
1728.16,0.01746
1722.37,0.01741
1716.58,0.01773
1710.8,0.01753
1705.01,0.01716
1699.22,0.01702
1693.44,0.01641
1687.65,0.01611
1681.87,0.01562
1676.08,0.01538
1670.29,0.01562
1664.51,0.01530
1658.72,0.01549
1652.93,0.01583
1647.15,0.01542
1641.36,0.01540
1635.58,0.01535
1629.79,0.01540
1624,0.01619
1618.22,0.01639
1612.43,0.01579
1606.64,0.01584
1600.86,0.01598
1595.07,0.01589
1589.29,0.01571
1583.5,0.01560
1577.71,0.01596
1571.93,0.01526
1566.14,0.01473
1560.35,0.01537
1554.57,0.01503
1548.78,0.01523
1543,0.01554
1537.21,0.01502
1531.42,0.01522
1525.64,0.01556
1519.85,0.01593
1514.07,0.01567
1508.28,0.01601
1502.49,0.01555
1496.71,0.01567
1490.92,0.01594
1485.13,0.01553
1479.35,0.01529
1473.56,0.01580
1467.78,0.01524
1461.99,0.01553
1456.2,0.01532
1450.42,0.01556
1444.63,0.01580
1438.84,0.01625
1433.06,0.01601
1427.27,0.01574
1421.49,0.01585
1415.7,0.01548
1409.91,0.01520
1404.13,0.01522
1398.34,0.01512
1392.55,0.01486
1386.77,0.01511
1380.98,0.01498
1375.2,0.01551
1369.41,0.01511
1363.62,0.01511
1357.84,0.01465
1352.05,0.01512
1346.26,0.01503
1340.48,0.01467
1334.69,0.01455
1328.91,0.01467
1323.12,0.01433
1317.33,0.01398
1311.55,0.01405
1305.76,0.01423
1299.97,0.01416
1294.19,0.01492
1288.4,0.01513
1282.62,0.01541
1276.83,0.01621
1271.04,0.01646
1265.26,0.01660
1259.47,0.01702
1253.68,0.01727
1247.9,0.01686
1242.11,0.01679
1236.33,0.01674
1230.54,0.01651
1224.75,0.01639
1218.97,0.01600
1213.18,0.01601
1207.39,0.01559
1201.61,0.01552
1195.82,0.01534
1190.04,0.01519
1184.25,0.01541
1178.46,0.01509
1172.68,0.01403
1166.89,0.01425
1161.1,0.01458
1155.32,0.01496
1149.53,0.01448
1143.75,0.01482
1137.96,0.01459
1132.17,0.01494
1126.39,0.01548
1120.6,0.01551
1114.81,0.01560
1109.03,0.01568
1103.24,0.01590
1097.46,0.01530
1091.67,0.01527
1085.88,0.01571
1080.1,0.01558
1074.31,0.01624
1068.52,0.01723
1062.74,0.01641
1056.95,0.01701
1051.17,0.01663
1045.38,0.01708
1039.59,0.01667
1033.81,0.01641
1028.02,0.01594
1022.24,0.01612
1016.45,0.01608
1010.66,0.01673
1004.88,0.01743
999.09,0.01849
993.304,0.01787
987.518,0.01806
981.731,0.01747
975.945,0.01707
970.159,0.01769
964.373,0.01698
958.586,0.01690
952.8,0.01703
947.014,0.01662
941.228,0.01708
935.441,0.01681
929.655,0.01708
923.869,0.01633
918.083,0.01695
912.297,0.01649
906.51,0.01645
900.724,0.01600
894.938,0.01620
889.152,0.01623
883.365,0.01561
877.579,0.01570
871.793,0.01615
866.007,0.01667
860.22,0.01596
854.434,0.01580
848.648,0.01584
842.862,0.01625
837.075,0.01576
831.289,0.01631
825.503,0.01627
819.717,0.01608
813.931,0.01522
808.144,0.01578
802.358,0.01638
796.572,0.01579
790.786,0.01608
784.999,0.01544
779.213,0.01482
773.427,0.01502
767.641,0.01537
761.854,0.01654
756.068,0.01532
750.282,0.01518
744.496,0.01524
738.709,0.01619
732.923,0.01549
727.137,0.01542
721.351,0.01544
715.565,0.01479
709.778,0.01472
703.992,0.01577
698.206,0.01570
692.42,0.01554
686.633,0.01398
680.847,0.01458
675.061,0.01461
669.275,0.01471
663.488,0.01371
657.702,0.01339
651.916,0.01280
646.13,0.01413
640.343,0.01436
634.557,0.01380
628.771,0.01355
622.985,0.01168
617.198,0.01260
611.412,0.01220
605.626,0.01009
599.84,0.01272