File: 01_Data/Bamboo_Rug/FTIR/IS/Bamboo_Rug_IS_S_220822_R2.dpt
7497.03,0.77215
7491.25,0.76431
7485.46,0.75268
7479.67,0.76436
7473.89,0.75583
7468.1,0.75143
7462.32,0.74714
7456.53,0.75154
7450.74,0.73769
7444.96,0.74566
7439.17,0.73555
7433.38,0.72895
7427.6,0.73603
7421.81,0.74389
7416.03,0.72972
7410.24,0.72122
7404.45,0.72017
7398.67,0.71442
7392.88,0.70620
7387.09,0.71666
7381.31,0.71943
7375.52,0.71535
7369.74,0.70149
7363.95,0.69693
7358.16,0.70532
7352.38,0.70534
7346.59,0.69695
7340.8,0.69762
7335.02,0.69131
7329.23,0.68694
7323.45,0.68882
7317.66,0.68614
7311.87,0.69057
7306.09,0.68716
7300.3,0.68444
7294.51,0.68184
7288.73,0.68045
7282.94,0.67956
7277.16,0.68301
7271.37,0.67213
7265.58,0.68055
7259.8,0.68819
7254.01,0.68152
7248.22,0.67518
7242.44,0.67821
7236.65,0.68228
7230.87,0.68161
7225.08,0.67363
7219.29,0.68325
7213.51,0.67568
7207.72,0.66733
7201.93,0.66587
7196.15,0.65931
7190.36,0.65333
7184.58,0.65647
7178.79,0.65942
7173,0.64566
7167.22,0.64573
7161.43,0.64750
7155.65,0.63902
7149.86,0.63232
7144.07,0.62668
7138.29,0.62260
7132.5,0.61876
7126.71,0.60896
7120.93,0.60557
7115.14,0.59827
7109.36,0.59952
7103.57,0.59214
7097.78,0.58310
7092,0.57972
7086.21,0.57900
7080.42,0.56941
7074.64,0.56072
7068.85,0.55917
7063.07,0.55175
7057.28,0.54622
7051.49,0.54060
7045.71,0.53527
7039.92,0.53563
7034.13,0.52911
7028.35,0.52372
7022.56,0.52450
7016.78,0.51061
7010.99,0.50519
7005.2,0.50245
6999.42,0.50407
6993.63,0.50074
6987.84,0.49567
6982.06,0.48878
6976.27,0.48934
6970.49,0.48969
6964.7,0.49238
6958.91,0.48382
6953.13,0.49096
6947.34,0.48853
6941.55,0.48444
6935.77,0.48561
6929.98,0.49121
6924.2,0.47979
6918.41,0.48230
6912.62,0.48252
6906.84,0.48099
6901.05,0.48397
6895.26,0.47774
6889.48,0.47810
6883.69,0.47406
6877.91,0.47462
6872.12,0.47689
6866.33,0.47681
6860.55,0.47819
6854.76,0.48118
6848.97,0.47548
6843.19,0.47810
6837.4,0.47673
6831.62,0.47552
6825.83,0.47355
6820.04,0.47714
6814.26,0.47391
6808.47,0.47642
6802.68,0.47658
6796.9,0.47727
6791.11,0.47471
6785.33,0.47387
6779.54,0.47311
6773.75,0.47314
6767.97,0.47713
6762.18,0.47735
6756.39,0.47324
6750.61,0.47642
6744.82,0.47918
6739.04,0.48182
6733.25,0.48277
6727.46,0.48314
6721.68,0.48336
6715.89,0.48057
6710.1,0.48507
6704.32,0.49158
6698.53,0.49084
6692.75,0.48675
6686.96,0.48697
6681.17,0.49152
6675.39,0.48957
6669.6,0.49081
6663.82,0.49092
6658.03,0.49460
6652.24,0.48973
6646.46,0.49227
6640.67,0.49312
6634.88,0.49622
6629.1,0.49600
6623.31,0.49508
6617.53,0.49916
6611.74,0.49845
6605.95,0.49764
6600.17,0.50259
6594.38,0.49877
6588.59,0.50200
6582.81,0.50393
6577.02,0.50394
6571.24,0.50557
6565.45,0.50763
6559.66,0.50521
6553.88,0.51097
6548.09,0.51111
6542.3,0.51128
6536.52,0.51114
6530.73,0.51271
6524.95,0.50997
6519.16,0.51235
6513.37,0.51984
6507.59,0.51496
6501.8,0.51454
6496.01,0.51823
6490.23,0.51442
6484.44,0.51957
6478.66,0.51915
6472.87,0.51903
6467.08,0.51782
6461.3,0.51939
6455.51,0.51631
6449.72,0.52404
6443.94,0.52331
6438.15,0.52119
6432.37,0.52212
6426.58,0.52365
6420.79,0.52411
6415.01,0.52331
6409.22,0.52354
6403.43,0.52431
6397.65,0.52385
6391.86,0.52286
6386.08,0.52204
6380.29,0.52834
6374.5,0.52285
6368.72,0.52561
6362.93,0.52469
6357.14,0.52684
6351.36,0.52692
6345.57,0.52552
6339.79,0.52794
6334,0.52698
6328.21,0.52764
6322.43,0.52766
6316.64,0.52838
6310.85,0.53441
6305.07,0.53086
6299.28,0.52955
6293.5,0.53274
6287.71,0.53602
6281.92,0.53619
6276.14,0.53901
6270.35,0.53962
6264.56,0.54039
6258.78,0.54296
6252.99,0.54005
6247.21,0.54579
6241.42,0.54913
6235.63,0.54748
6229.85,0.55082
6224.06,0.55221
6218.27,0.55459
6212.49,0.56065
6206.7,0.55767
6200.92,0.55557
6195.13,0.56279
6189.34,0.56288
6183.56,0.56309
6177.77,0.56203
6171.98,0.56915
6166.2,0.56687
6160.41,0.56902
6154.63,0.57002
6148.84,0.57304
6143.05,0.57632
6137.27,0.57421
6131.48,0.57244
6125.7,0.57513
6119.91,0.57714
6114.12,0.57463
6108.34,0.57880
6102.55,0.57738
6096.76,0.57732
6090.98,0.57527
6085.19,0.57601
6079.41,0.57714
6073.62,0.57545
6067.83,0.57724
6062.05,0.57619
6056.26,0.57512
6050.47,0.57463
6044.69,0.57350
6038.9,0.56979
6033.12,0.57110
6027.33,0.56935
6021.54,0.56553
6015.76,0.56684
6009.97,0.56499
6004.18,0.56323
5998.4,0.56052
5992.61,0.55767
5986.83,0.55666
5981.04,0.55628
5975.25,0.55491
5969.47,0.55650
5963.68,0.55419
5957.89,0.55337
5952.11,0.55199
5946.32,0.55002
5940.54,0.55182
5934.75,0.55056
5928.96,0.55234
5923.18,0.55204
5917.39,0.54945
5911.6,0.54774
5905.82,0.54878
5900.03,0.54877
5894.25,0.54563
5888.46,0.54773
5882.67,0.54585
5876.89,0.54570
5871.1,0.54730
5865.31,0.54495
5859.53,0.54480
5853.74,0.54569
5847.96,0.54427
5842.17,0.54377
5836.38,0.54507
5830.6,0.53953
5824.81,0.53756
5819.02,0.53602
5813.24,0.53459
5807.45,0.53676
5801.67,0.53550
5795.88,0.53745
5790.09,0.53697
5784.31,0.54077
5778.52,0.54088
5772.73,0.54165
5766.95,0.54273
5761.16,0.54547
5755.38,0.54622
5749.59,0.54608
5743.8,0.54373
5738.02,0.54689
5732.23,0.54558
5726.44,0.54473
5720.66,0.54456
5714.87,0.54665
5709.09,0.54453
5703.3,0.54334
5697.51,0.54498
5691.73,0.54417
5685.94,0.54220
5680.15,0.54080
5674.37,0.54197
5668.58,0.53989
5662.8,0.54108
5657.01,0.54167
5651.22,0.53985
5645.44,0.53944
5639.65,0.53873
5633.87,0.53823
5628.08,0.53953
5622.29,0.53879
5616.51,0.53655
5610.72,0.53744
5604.93,0.53776
5599.15,0.53818
5593.36,0.54038
5587.58,0.53763
5581.79,0.53956
5576,0.54138
5570.22,0.54078
5564.43,0.54107
5558.64,0.54348
5552.86,0.54592
5547.07,0.54375
5541.29,0.54635
5535.5,0.54761
5529.71,0.54674
5523.93,0.54621
5518.14,0.54412
5512.35,0.54793
5506.57,0.54832
5500.78,0.54985
5495,0.54762
5489.21,0.54800
5483.42,0.54939
5477.64,0.55063
5471.85,0.54944
5466.06,0.55152
5460.28,0.55311
5454.49,0.55465
5448.71,0.55571
5442.92,0.55698
5437.13,0.55702
5431.35,0.55900
5425.56,0.55942
5419.77,0.56163
5413.99,0.56382
5408.2,0.56175
5402.42,0.56268
5396.63,0.56534
5390.84,0.56441
5385.06,0.56415
5379.27,0.56317
5373.48,0.56170
5367.7,0.56218
5361.91,0.55940
5356.13,0.55843
5350.34,0.55493
5344.55,0.55449
5338.77,0.55156
5332.98,0.54855
5327.19,0.54393
5321.41,0.53770
5315.62,0.53079
5309.84,0.52588
5304.05,0.51572
5298.26,0.50467
5292.48,0.49220
5286.69,0.48102
5280.9,0.46772
5275.12,0.45334
5269.33,0.43978
5263.55,0.42314
5257.76,0.41160
5251.97,0.40031
5246.19,0.39110
5240.4,0.38301
5234.61,0.37519
5228.83,0.36725
5223.04,0.36478
5217.26,0.36162
5211.47,0.35950
5205.68,0.35681
5199.9,0.35593
5194.11,0.35481
5188.32,0.35530
5182.54,0.35585
5176.75,0.35698
5170.97,0.35943
5165.18,0.36278
5159.39,0.36562
5153.61,0.36780
5147.82,0.37329
5142.03,0.37445
5136.25,0.38033
5130.46,0.38297
5124.68,0.38632
5118.89,0.38964
5113.1,0.39234
5107.32,0.39631
5101.53,0.40139
5095.75,0.40370
5089.96,0.40727
5084.17,0.41104
5078.39,0.41358
5072.6,0.41677
5066.81,0.41966
5061.03,0.42293
5055.24,0.42723
5049.46,0.42872
5043.67,0.43166
5037.88,0.43563
5032.1,0.43728
5026.31,0.44081
5020.52,0.44284
5014.74,0.44412
5008.95,0.44648
5003.17,0.44674
4997.38,0.44864
4991.59,0.44839
4985.81,0.44818
4980.02,0.44963
4974.23,0.44808
4968.45,0.44712
4962.66,0.44448
4956.88,0.44100
4951.09,0.43867
4945.3,0.43484
4939.52,0.42970
4933.73,0.42489
4927.94,0.42093
4922.16,0.41559
4916.37,0.41094
4910.59,0.40674
4904.8,0.40223
4899.01,0.39577
4893.23,0.39185
4887.44,0.38700
4881.65,0.38161
4875.87,0.37625
4870.08,0.37216
4864.3,0.36830
4858.51,0.36416
4852.72,0.36035
4846.94,0.35690
4841.15,0.35309
4835.36,0.34940
4829.58,0.34669
4823.79,0.34483
4818.01,0.34243
4812.22,0.34054
4806.43,0.33778
4800.65,0.33715
4794.86,0.33600
4789.07,0.33525
4783.29,0.33399
4777.5,0.33403
4771.72,0.33242
4765.93,0.33161
4760.14,0.33063
4754.36,0.33135
4748.57,0.33157
4742.78,0.33129
4737,0.33047
4731.21,0.33199
4725.43,0.33244
4719.64,0.33231
4713.85,0.33311
4708.07,0.33417
4702.28,0.33413
4696.49,0.33559
4690.71,0.33637
4684.92,0.33589
4679.14,0.33783
4673.35,0.34079
4667.56,0.34301
4661.78,0.34535
4655.99,0.34688
4650.2,0.35028
4644.42,0.35241
4638.63,0.35468
4632.85,0.35669
4627.06,0.35764
4621.27,0.36093
4615.49,0.36329
4609.7,0.36566
4603.92,0.36807
4598.13,0.36953
4592.34,0.37145
4586.56,0.37222
4580.77,0.37445
4574.98,0.37574
4569.2,0.37715
4563.41,0.37881
4557.63,0.37925
4551.84,0.38185
4546.05,0.38237
4540.27,0.38341
4534.48,0.38440
4528.69,0.38504
4522.91,0.38503
4517.12,0.38532
4511.34,0.38489
4505.55,0.38343
4499.76,0.38091
4493.98,0.37848
4488.19,0.37400
4482.4,0.36861
4476.62,0.36276
4470.83,0.35524
4465.05,0.34771
4459.26,0.34026
4453.47,0.33252
4447.69,0.32463
4441.9,0.31828
4436.11,0.31271
4430.33,0.30757
4424.54,0.30311
4418.76,0.29815
4412.97,0.29649
4407.18,0.29522
4401.4,0.29325
4395.61,0.29367
4389.82,0.29375
4384.04,0.29533
4378.25,0.29724
4372.47,0.29936
4366.68,0.30176
4360.89,0.30249
4355.11,0.30192
4349.32,0.30071
4343.53,0.29883
4337.75,0.29746
4331.96,0.29513
4326.18,0.29377
4320.39,0.29088
4314.6,0.28819
4308.82,0.28567
4303.03,0.28380
4297.24,0.28291
4291.46,0.28149
4285.67,0.28104
4279.89,0.28221
4274.1,0.28208
4268.31,0.28212
4262.53,0.28368
4256.74,0.28527
4250.95,0.28560
4245.17,0.28566
4239.38,0.28615
4233.6,0.28700
4227.81,0.28759
4222.02,0.28853
4216.24,0.28888
4210.45,0.28909
4204.66,0.28909
4198.88,0.28943
4193.09,0.28951
4187.31,0.28901
4181.52,0.29016
4175.73,0.29109
4169.95,0.29173
4164.16,0.29175
4158.37,0.29106
4152.59,0.29060
4146.8,0.28815
4141.02,0.28599
4135.23,0.28356
4129.44,0.27983
4123.66,0.27644
4117.87,0.27295
4112.09,0.26904
4106.3,0.26533
4100.51,0.26094
4094.73,0.25704
4088.94,0.25222
4083.15,0.24854
4077.37,0.24332
4071.58,0.23889
4065.8,0.23408
4060.01,0.22958
4054.22,0.22567
4048.44,0.22179
4042.65,0.21907
4036.86,0.21665
4031.08,0.21442
4025.29,0.21199
4019.51,0.21062
4013.72,0.20972
4007.93,0.21001
4002.15,0.21020
3996.36,0.21139
3990.57,0.21244
3984.79,0.21383
3979,0.21511
3973.22,0.21625
3967.43,0.21797
3961.64,0.21960
3955.86,0.22202
3950.07,0.22364
3944.28,0.22668
3938.5,0.22793
3932.71,0.23007
3926.93,0.23220
3921.14,0.23478
3915.35,0.23633
3909.57,0.23879
3903.78,0.24144
3897.99,0.24238
3892.21,0.24526
3886.42,0.24696
3880.64,0.24880
3874.85,0.25088
3869.06,0.25254
3863.28,0.25603
3857.49,0.25787
3851.7,0.25967
3845.92,0.26215
3840.13,0.26409
3834.35,0.26543
3828.56,0.26623
3822.77,0.26641
3816.99,0.26598
3811.2,0.26652
3805.41,0.26577
3799.63,0.26517
3793.84,0.26420
3788.06,0.26254
3782.27,0.26103
3776.48,0.25955
3770.7,0.25792
3764.91,0.25515
3759.12,0.25344
3753.34,0.25139
3747.55,0.24807
3741.77,0.24506
3735.98,0.24229
3730.19,0.23725
3724.41,0.23254
3718.62,0.22758
3712.83,0.22102
3707.05,0.21352
3701.26,0.20461
3695.48,0.19473
3689.69,0.18297
3683.9,0.16913
3678.12,0.15627
3672.33,0.14252
3666.54,0.12900
3660.76,0.11832
3654.97,0.10857
3649.19,0.10096
3643.4,0.09423
3637.61,0.08843
3631.83,0.08390
3626.04,0.07958
3620.25,0.07574
3614.47,0.07202
3608.68,0.06888
3602.9,0.06613
3597.11,0.06259
3591.32,0.06133
3585.54,0.05867
3579.75,0.05683
3573.97,0.05452
3568.18,0.05368
3562.39,0.05172
3556.61,0.05020
3550.82,0.04854
3545.03,0.04740
3539.25,0.04697
3533.46,0.04619
3527.68,0.04557
3521.89,0.04480
3516.1,0.04291
3510.32,0.04339
3504.53,0.04191
3498.74,0.04218
3492.96,0.04211
3487.17,0.04099
3481.39,0.03996
3475.6,0.03964
3469.81,0.03916
3464.03,0.03891
3458.24,0.03920
3452.45,0.03951
3446.67,0.03883
3440.88,0.03906
3435.1,0.03880
3429.31,0.03904
3423.52,0.03943
3417.74,0.03991
3411.95,0.04014
3406.16,0.03923
3400.38,0.04007
3394.59,0.04063
3388.81,0.04072
3383.02,0.04039
3377.23,0.04059
3371.45,0.04096
3365.66,0.04173
3359.87,0.04182
3354.09,0.04223
3348.3,0.04254
3342.52,0.04345
3336.73,0.04421
3330.94,0.04406
3325.16,0.04450
3319.37,0.04510
3313.58,0.04478
3307.8,0.04554
3302.01,0.04555
3296.23,0.04713
3290.44,0.04701
3284.65,0.04732
3278.87,0.04782
3273.08,0.04784
3267.29,0.04860
3261.51,0.04946
3255.72,0.05043
3249.94,0.05122
3244.15,0.05184
3238.36,0.05248
3232.58,0.05350
3226.79,0.05394
3221,0.05443
3215.22,0.05585
3209.43,0.05626
3203.65,0.05729
3197.86,0.05779
3192.07,0.05860
3186.29,0.05953
3180.5,0.05989
3174.71,0.06154
3168.93,0.06167
3163.14,0.06265
3157.36,0.06385
3151.57,0.06485
3145.78,0.06555
3140,0.06617
3134.21,0.06709
3128.42,0.06792
3122.64,0.06928
3116.85,0.07002
3111.07,0.07103
3105.28,0.07181
3099.49,0.07244
3093.71,0.07303
3087.92,0.07369
3082.14,0.07496
3076.35,0.07527
3070.56,0.07629
3064.78,0.07713
3058.99,0.07763
3053.2,0.07888
3047.42,0.07950
3041.63,0.07993
3035.85,0.08006
3030.06,0.08042
3024.27,0.07981
3018.49,0.07932
3012.7,0.07822
3006.91,0.07721
3001.13,0.07634
2995.34,0.07550
2989.56,0.07381
2983.77,0.07146
2977.98,0.06822
2972.2,0.06626
2966.41,0.06386
2960.62,0.06215
2954.84,0.06020
2949.05,0.05848
2943.27,0.05732
2937.48,0.05705
2931.69,0.05714
2925.91,0.05661
2920.12,0.05704
2914.33,0.05724
2908.55,0.05763
2902.76,0.05792
2896.98,0.05801
2891.19,0.05842
2885.4,0.05978
2879.62,0.06035
2873.83,0.06134
2868.04,0.06211
2862.26,0.06382
2856.47,0.06444
2850.69,0.06652
2844.9,0.06932
2839.11,0.07217
2833.33,0.07522
2827.54,0.07918
2821.75,0.08195
2815.97,0.08409
2810.18,0.08625
2804.4,0.08800
2798.61,0.08999
2792.82,0.09118
2787.04,0.09208
2781.25,0.09300
2775.46,0.09317
2769.68,0.09454
2763.89,0.09513
2758.11,0.09560
2752.32,0.09612
2746.53,0.09672
2740.75,0.09682
2734.96,0.09731
2729.17,0.09806
2723.39,0.09844
2717.6,0.09983
2711.82,0.10058
2706.03,0.10170
2700.24,0.10297
2694.46,0.10387
2688.67,0.10535
2682.88,0.10613
2677.1,0.10755
2671.31,0.10827
2665.53,0.10936
2659.74,0.11014
2653.95,0.11092
2648.17,0.11173
2642.38,0.11325
2636.59,0.11402
2630.81,0.11508
2625.02,0.11610
2619.24,0.11705
2613.45,0.11832
2607.66,0.11943
2601.88,0.12013
2596.09,0.12147
2590.3,0.12197
2584.52,0.12302
2578.73,0.12384
2572.95,0.12469
2567.16,0.12496
2561.37,0.12532
2555.59,0.12624
2549.8,0.12655
2544.02,0.12711
2538.23,0.12774
2532.44,0.12850
2526.66,0.12912
2520.87,0.12956
2515.08,0.13045
2509.3,0.13131
2503.51,0.13262
2497.73,0.13373
2491.94,0.13521
2486.15,0.13655
2480.37,0.13765
2474.58,0.13865
2468.79,0.13958
2463.01,0.14067
2457.22,0.14208
2451.44,0.14368
2445.65,0.14517
2439.86,0.14696
2434.08,0.14884
2428.29,0.15063
2422.5,0.15249
2416.72,0.15447
2410.93,0.15677
2405.15,0.15910
2399.36,0.16103
2393.57,0.16252
2387.79,0.16442
2382,0.16568
2376.21,0.16692
2370.43,0.16836
2364.64,0.16892
2358.86,0.17007
2353.07,0.17177
2347.28,0.17291
2341.5,0.17404
2335.71,0.17529
2329.92,0.17589
2324.14,0.17608
2318.35,0.17630
2312.57,0.17628
2306.78,0.17617
2300.99,0.17592
2295.21,0.17572
2289.42,0.17528
2283.63,0.17570
2277.85,0.17479
2272.06,0.17424
2266.28,0.17336
2260.49,0.17229
2254.7,0.17090
2248.92,0.16947
2243.13,0.16872
2237.34,0.16800
2231.56,0.16828
2225.77,0.16848
2219.99,0.16811
2214.2,0.16839
2208.41,0.16710
2202.63,0.16625
2196.84,0.16457
2191.05,0.16209
2185.27,0.16011
2179.48,0.15666
2173.7,0.15417
2167.91,0.15169
2162.12,0.14899
2156.34,0.14814
2150.55,0.14686
2144.76,0.14560
2138.98,0.14540
2133.19,0.14498
2127.41,0.14484
2121.62,0.14532
2115.83,0.14583
2110.05,0.14615
2104.26,0.14699
2098.47,0.14783
2092.69,0.14901
2086.9,0.15003
2081.12,0.14987
2075.33,0.14992
2069.54,0.14993
2063.76,0.14995
2057.97,0.15030
2052.19,0.15095
2046.4,0.15119
2040.61,0.15200
2034.83,0.15282
2029.04,0.15433
2023.25,0.15625
2017.47,0.15886
2011.68,0.16118
2005.9,0.16303
2000.11,0.16429
1994.32,0.16615
1988.54,0.16714
1982.75,0.16790
1976.96,0.16802
1971.18,0.16761
1965.39,0.16714
1959.61,0.16717
1953.82,0.16685
1948.03,0.16733
1942.25,0.16864
1936.46,0.17046
1930.67,0.17235
1924.89,0.17412
1919.1,0.17524
1913.32,0.17573
1907.53,0.17573
1901.74,0.17549
1895.96,0.17569
1890.17,0.17559
1884.38,0.17595
1878.6,0.17563
1872.81,0.17502
1867.03,0.17372
1861.24,0.17225
1855.45,0.17025
1849.67,0.16791
1843.88,0.16584
1838.09,0.16273
1832.31,0.15998
1826.52,0.15537
1820.74,0.15034
1814.95,0.14429
1809.16,0.13790
1803.38,0.12993
1797.59,0.12125
1791.8,0.11223
1786.02,0.10317
1780.23,0.09413
1774.45,0.08401
1768.66,0.07159
1762.87,0.06123
1757.09,0.05397
1751.3,0.04922
1745.51,0.04674
1739.73,0.04587
1733.94,0.04685
1728.16,0.04821
1722.37,0.05042
1716.58,0.05298
1710.8,0.05526
1705.01,0.05719
1699.22,0.05829
1693.44,0.05886
1687.65,0.05917
1681.87,0.05851
1676.08,0.05813
1670.29,0.05715
1664.51,0.05645
1658.72,0.05548
1652.93,0.05529
1647.15,0.05544
1641.36,0.05443
1635.58,0.05341
1629.79,0.05342
1624,0.05332
1618.22,0.05308
1612.43,0.05155
1606.64,0.04983
1600.86,0.04981
1595.07,0.05046
1589.29,0.05266
1583.5,0.05691
1577.71,0.06203
1571.93,0.06596
1566.14,0.06977
1560.35,0.07137
1554.57,0.07194
1548.78,0.07190
1543,0.07181
1537.21,0.07005
1531.42,0.06667
1525.64,0.06067
1519.85,0.05208
1514.07,0.04851
1508.28,0.04889
1502.49,0.05017
1496.71,0.05250
1490.92,0.05466
1485.13,0.05439
1479.35,0.05124
1473.56,0.04603
1467.78,0.04197
1461.99,0.04218
1456.2,0.04293
1450.42,0.04344
1444.63,0.04347
1438.84,0.04302
1433.06,0.04211
1427.27,0.04203
1421.49,0.04325
1415.7,0.04455
1409.91,0.04509
1404.13,0.04485
1398.34,0.04382
1392.55,0.04234
1386.77,0.04028
1380.98,0.03931
1375.2,0.03994
1369.41,0.04130
1363.62,0.04247
1357.84,0.04298
1352.05,0.04304
1346.26,0.04230
1340.48,0.04124
1334.69,0.04133
1328.91,0.04109
1323.12,0.04164
1317.33,0.04257
1311.55,0.04323
1305.76,0.04422
1299.97,0.04385
1294.19,0.04377
1288.4,0.04160
1282.62,0.03998
1276.83,0.03922
1271.04,0.03779
1265.26,0.03754
1259.47,0.03716
1253.68,0.03735
1247.9,0.03789
1242.11,0.03913
1236.33,0.04019
1230.54,0.04129
1224.75,0.04193
1218.97,0.04261
1213.18,0.04286
1207.39,0.04235
1201.61,0.04122
1195.82,0.04070
1190.04,0.03966
1184.25,0.03668
1178.46,0.03391
1172.68,0.03375
1166.89,0.03662
1161.1,0.03961
1155.32,0.04119
1149.53,0.03962
1143.75,0.03774
1137.96,0.03466
1132.17,0.03331
1126.39,0.03500
1120.6,0.03646
1114.81,0.03886
1109.03,0.04076
1103.24,0.04220
1097.46,0.04179
1091.67,0.04059
1085.88,0.04068
1080.1,0.04223
1074.31,0.04592
1068.52,0.05034
1062.74,0.05633
1056.95,0.06195
1051.17,0.06473
1045.38,0.06580
1039.59,0.06835
1033.81,0.07191
1028.02,0.07211
1022.24,0.07157
1016.45,0.07043
1010.66,0.06994
1004.88,0.06969
999.09,0.07028
993.304,0.07021
987.518,0.07270
981.731,0.07516
975.945,0.07730
970.159,0.07875
964.373,0.08060
958.586,0.08438
952.8,0.08805
947.014,0.09020
941.228,0.08977
935.441,0.08853
929.655,0.08728
923.869,0.08689
918.083,0.08531
912.297,0.08406
906.51,0.08093
900.724,0.07784
894.938,0.07912
889.152,0.08340
883.365,0.08564
877.579,0.08568
871.793,0.08436
866.007,0.08372
860.22,0.08443
854.434,0.08415
848.648,0.08219
842.862,0.08012
837.075,0.07801
831.289,0.07964
825.503,0.08128
819.717,0.08165
813.931,0.08137
808.144,0.08309
802.358,0.08258
796.572,0.08126
790.786,0.08153
784.999,0.08013
779.213,0.07792
773.427,0.07671
767.641,0.07510
761.854,0.07277
756.068,0.07126
750.282,0.07057
744.496,0.06928
738.709,0.06742
732.923,0.06578
727.137,0.06524
721.351,0.06460
715.565,0.06286
709.778,0.06292
703.992,0.06282
698.206,0.06190
692.42,0.06127
686.633,0.06055
680.847,0.05821
675.061,0.05679
669.275,0.05812
663.488,0.05715
657.702,0.05982
651.916,0.05903
646.13,0.05934
640.343,0.05737
634.557,0.05700
628.771,0.05559
622.985,0.05629
617.198,0.05636
611.412,0.05781
605.626,0.06057
599.84,0.06085