File: 01_Data/Bamboo_Rug/FTIR/IS/Bamboo_Rug_IS_T_220822_R7.dpt
7497.03,0.01884
7491.25,0.02089
7485.46,0.01922
7479.67,0.02512
7473.89,0.02621
7468.1,0.01904
7462.32,0.01929
7456.53,0.01732
7450.74,0.02497
7444.96,0.01823
7439.17,0.02815
7433.38,0.01912
7427.6,0.02053
7421.81,0.02381
7416.03,0.02375
7410.24,0.01963
7404.45,0.01964
7398.67,0.01835
7392.88,0.02146
7387.09,0.02293
7381.31,0.02366
7375.52,0.02078
7369.74,0.01809
7363.95,0.01962
7358.16,0.02484
7352.38,0.02232
7346.59,0.02882
7340.8,0.02466
7335.02,0.02272
7329.23,0.02222
7323.45,0.02097
7317.66,0.02140
7311.87,0.02139
7306.09,0.01109
7300.3,0.02307
7294.51,0.01946
7288.73,0.02491
7282.94,0.02209
7277.16,0.02371
7271.37,0.01638
7265.58,0.01797
7259.8,0.02260
7254.01,0.02924
7248.22,0.01688
7242.44,0.02163
7236.65,0.02269
7230.87,0.02545
7225.08,0.02136
7219.29,0.02205
7213.51,0.02092
7207.72,0.02081
7201.93,0.01817
7196.15,0.02160
7190.36,0.01657
7184.58,0.01671
7178.79,0.02407
7173,0.02780
7167.22,0.02147
7161.43,0.02292
7155.65,0.02210
7149.86,0.02112
7144.07,0.02297
7138.29,0.02196
7132.5,0.01747
7126.71,0.01387
7120.93,0.01909
7115.14,0.02271
7109.36,0.02334
7103.57,0.02186
7097.78,0.02153
7092,0.01759
7086.21,0.02268
7080.42,0.01776
7074.64,0.01879
7068.85,0.01923
7063.07,0.01945
7057.28,0.02027
7051.49,0.01629
7045.71,0.01875
7039.92,0.02146
7034.13,0.02285
7028.35,0.02539
7022.56,0.01692
7016.78,0.02188
7010.99,0.01925
7005.2,0.01722
6999.42,0.01976
6993.63,0.02099
6987.84,0.02252
6982.06,0.01462
6976.27,0.02334
6970.49,0.02433
6964.7,0.01791
6958.91,0.02215
6953.13,0.01912
6947.34,0.02464
6941.55,0.02174
6935.77,0.01969
6929.98,0.02663
6924.2,0.02371
6918.41,0.01724
6912.62,0.01889
6906.84,0.01481
6901.05,0.01925
6895.26,0.01449
6889.48,0.01586
6883.69,0.01786
6877.91,0.02148
6872.12,0.01969
6866.33,0.02661
6860.55,0.02632
6854.76,0.02558
6848.97,0.02319
6843.19,0.02583
6837.4,0.02267
6831.62,0.02189
6825.83,0.02133
6820.04,0.02106
6814.26,0.02035
6808.47,0.01509
6802.68,0.01761
6796.9,0.02189
6791.11,0.01893
6785.33,0.02220
6779.54,0.01654
6773.75,0.02534
6767.97,0.02289
6762.18,0.02224
6756.39,0.02484
6750.61,0.01948
6744.82,0.02222
6739.04,0.02260
6733.25,0.01627
6727.46,0.01507
6721.68,0.02017
6715.89,0.02077
6710.1,0.01890
6704.32,0.02068
6698.53,0.01911
6692.75,0.02356
6686.96,0.02130
6681.17,0.01964
6675.39,0.02311
6669.6,0.02031
6663.82,0.02383
6658.03,0.01759
6652.24,0.01969
6646.46,0.01843
6640.67,0.01832
6634.88,0.01922
6629.1,0.01885
6623.31,0.02017
6617.53,0.02073
6611.74,0.02379
6605.95,0.02258
6600.17,0.02138
6594.38,0.01801
6588.59,0.01566
6582.81,0.02114
6577.02,0.02381
6571.24,0.01679
6565.45,0.01955
6559.66,0.02128
6553.88,0.01980
6548.09,0.01866
6542.3,0.01958
6536.52,0.01768
6530.73,0.02217
6524.95,0.01749
6519.16,0.01912
6513.37,0.01513
6507.59,0.02144
6501.8,0.02141
6496.01,0.02209
6490.23,0.02242
6484.44,0.02236
6478.66,0.01895
6472.87,0.01848
6467.08,0.02157
6461.3,0.02058
6455.51,0.01996
6449.72,0.02217
6443.94,0.01711
6438.15,0.01634
6432.37,0.01939
6426.58,0.02260
6420.79,0.01649
6415.01,0.02256
6409.22,0.01902
6403.43,0.01970
6397.65,0.01850
6391.86,0.02276
6386.08,0.01962
6380.29,0.01848
6374.5,0.01699
6368.72,0.01800
6362.93,0.02052
6357.14,0.01903
6351.36,0.02053
6345.57,0.02212
6339.79,0.01684
6334,0.01980
6328.21,0.01994
6322.43,0.02134
6316.64,0.01814
6310.85,0.01688
6305.07,0.01607
6299.28,0.01701
6293.5,0.02064
6287.71,0.01851
6281.92,0.02000
6276.14,0.01905
6270.35,0.02078
6264.56,0.01939
6258.78,0.01609
6252.99,0.01951
6247.21,0.02293
6241.42,0.02084
6235.63,0.01729
6229.85,0.01890
6224.06,0.01924
6218.27,0.01792
6212.49,0.01582
6206.7,0.01690
6200.92,0.02057
6195.13,0.01777
6189.34,0.02054
6183.56,0.02025
6177.77,0.01828
6171.98,0.02216
6166.2,0.01900
6160.41,0.01941
6154.63,0.01978
6148.84,0.01749
6143.05,0.01911
6137.27,0.01708
6131.48,0.01835
6125.7,0.01712
6119.91,0.01848
6114.12,0.01703
6108.34,0.01997
6102.55,0.01879
6096.76,0.01898
6090.98,0.01825
6085.19,0.02093
6079.41,0.01932
6073.62,0.01758
6067.83,0.02041
6062.05,0.02141
6056.26,0.01930
6050.47,0.01635
6044.69,0.01915
6038.9,0.01857
6033.12,0.01980
6027.33,0.01944
6021.54,0.01741
6015.76,0.01611
6009.97,0.01805
6004.18,0.02039
5998.4,0.02166
5992.61,0.01904
5986.83,0.01909
5981.04,0.02213
5975.25,0.01866
5969.47,0.01985
5963.68,0.01952
5957.89,0.01713
5952.11,0.01665
5946.32,0.01794
5940.54,0.01952
5934.75,0.02051
5928.96,0.01842
5923.18,0.02040
5917.39,0.01965
5911.6,0.02132
5905.82,0.01839
5900.03,0.01641
5894.25,0.01856
5888.46,0.01969
5882.67,0.01971
5876.89,0.01943
5871.1,0.01768
5865.31,0.01884
5859.53,0.01753
5853.74,0.01666
5847.96,0.01724
5842.17,0.02125
5836.38,0.01917
5830.6,0.01770
5824.81,0.01602
5819.02,0.01892
5813.24,0.01837
5807.45,0.02112
5801.67,0.02132
5795.88,0.01852
5790.09,0.02055
5784.31,0.01869
5778.52,0.02059
5772.73,0.02037
5766.95,0.01808
5761.16,0.02065
5755.38,0.02145
5749.59,0.01835
5743.8,0.01900
5738.02,0.01961
5732.23,0.01989
5726.44,0.02010
5720.66,0.02039
5714.87,0.02037
5709.09,0.02101
5703.3,0.01865
5697.51,0.02020
5691.73,0.01968
5685.94,0.01743
5680.15,0.02023
5674.37,0.01680
5668.58,0.01833
5662.8,0.01975
5657.01,0.01862
5651.22,0.01932
5645.44,0.01884
5639.65,0.02196
5633.87,0.02237
5628.08,0.01797
5622.29,0.01795
5616.51,0.01890
5610.72,0.02049
5604.93,0.02140
5599.15,0.02045
5593.36,0.01870
5587.58,0.01948
5581.79,0.01809
5576,0.01834
5570.22,0.01926
5564.43,0.01924
5558.64,0.01970
5552.86,0.02050
5547.07,0.01970
5541.29,0.02101
5535.5,0.01937
5529.71,0.02030
5523.93,0.01884
5518.14,0.01796
5512.35,0.01800
5506.57,0.01888
5500.78,0.02060
5495,0.01704
5489.21,0.02032
5483.42,0.01891
5477.64,0.01929
5471.85,0.01889
5466.06,0.01841
5460.28,0.01823
5454.49,0.01872
5448.71,0.02019
5442.92,0.01791
5437.13,0.01983
5431.35,0.01900
5425.56,0.02051
5419.77,0.01889
5413.99,0.01961
5408.2,0.02100
5402.42,0.01770
5396.63,0.01852
5390.84,0.02073
5385.06,0.01839
5379.27,0.01874
5373.48,0.01836
5367.7,0.01945
5361.91,0.01882
5356.13,0.01922
5350.34,0.01885
5344.55,0.01874
5338.77,0.01951
5332.98,0.02058
5327.19,0.01869
5321.41,0.01931
5315.62,0.02028
5309.84,0.01805
5304.05,0.01855
5298.26,0.01710
5292.48,0.01945
5286.69,0.02152
5280.9,0.01933
5275.12,0.01901
5269.33,0.01714
5263.55,0.01910
5257.76,0.01892
5251.97,0.01857
5246.19,0.01956
5240.4,0.02041
5234.61,0.01778
5228.83,0.02024
5223.04,0.02074
5217.26,0.01993
5211.47,0.01818
5205.68,0.01831
5199.9,0.01905
5194.11,0.01973
5188.32,0.02053
5182.54,0.01965
5176.75,0.01857
5170.97,0.02007
5165.18,0.01919
5159.39,0.01869
5153.61,0.01986
5147.82,0.02008
5142.03,0.01997
5136.25,0.01851
5130.46,0.01885
5124.68,0.01925
5118.89,0.02016
5113.1,0.01970
5107.32,0.01973
5101.53,0.01768
5095.75,0.01758
5089.96,0.01944
5084.17,0.01882
5078.39,0.01990
5072.6,0.02005
5066.81,0.01963
5061.03,0.01977
5055.24,0.02042
5049.46,0.02044
5043.67,0.02055
5037.88,0.01983
5032.1,0.02035
5026.31,0.02041
5020.52,0.01871
5014.74,0.01957
5008.95,0.01955
5003.17,0.01941
4997.38,0.02006
4991.59,0.02102
4985.81,0.01810
4980.02,0.01877
4974.23,0.01998
4968.45,0.01926
4962.66,0.02037
4956.88,0.02043
4951.09,0.02017
4945.3,0.01894
4939.52,0.01843
4933.73,0.01951
4927.94,0.01890
4922.16,0.01899
4916.37,0.01919
4910.59,0.01938
4904.8,0.01992
4899.01,0.01972
4893.23,0.02058
4887.44,0.02032
4881.65,0.02043
4875.87,0.01918
4870.08,0.01887
4864.3,0.02012
4858.51,0.02049
4852.72,0.02010
4846.94,0.01923
4841.15,0.01999
4835.36,0.01977
4829.58,0.01942
4823.79,0.01885
4818.01,0.01939
4812.22,0.02000
4806.43,0.01921
4800.65,0.01804
4794.86,0.01870
4789.07,0.01897
4783.29,0.02002
4777.5,0.01996
4771.72,0.01936
4765.93,0.01905
4760.14,0.02015
4754.36,0.01968
4748.57,0.02020
4742.78,0.01969
4737,0.01886
4731.21,0.02041
4725.43,0.01995
4719.64,0.02010
4713.85,0.01965
4708.07,0.01981
4702.28,0.02009
4696.49,0.01945
4690.71,0.01985
4684.92,0.01980
4679.14,0.02032
4673.35,0.01988
4667.56,0.01864
4661.78,0.01901
4655.99,0.02088
4650.2,0.01981
4644.42,0.01926
4638.63,0.02009
4632.85,0.01950
4627.06,0.01882
4621.27,0.01867
4615.49,0.02023
4609.7,0.01912
4603.92,0.02049
4598.13,0.02049
4592.34,0.02045
4586.56,0.01952
4580.77,0.01920
4574.98,0.01923
4569.2,0.01937
4563.41,0.01842
4557.63,0.01962
4551.84,0.01952
4546.05,0.02107
4540.27,0.01976
4534.48,0.01935
4528.69,0.01799
4522.91,0.01952
4517.12,0.01939
4511.34,0.01913
4505.55,0.02011
4499.76,0.01841
4493.98,0.02019
4488.19,0.02004
4482.4,0.01966
4476.62,0.01964
4470.83,0.01968
4465.05,0.01965
4459.26,0.01943
4453.47,0.01992
4447.69,0.01926
4441.9,0.01991
4436.11,0.01979
4430.33,0.01999
4424.54,0.01933
4418.76,0.01989
4412.97,0.02040
4407.18,0.01983
4401.4,0.02041
4395.61,0.01991
4389.82,0.02058
4384.04,0.01951
4378.25,0.01915
4372.47,0.01863
4366.68,0.01942
4360.89,0.01996
4355.11,0.01943
4349.32,0.01996
4343.53,0.01963
4337.75,0.01929
4331.96,0.01974
4326.18,0.02006
4320.39,0.01979
4314.6,0.01993
4308.82,0.02008
4303.03,0.01972
4297.24,0.02007
4291.46,0.01945
4285.67,0.01978
4279.89,0.02050
4274.1,0.02002
4268.31,0.01985
4262.53,0.01888
4256.74,0.01993
4250.95,0.01922
4245.17,0.01989
4239.38,0.01930
4233.6,0.01954
4227.81,0.01984
4222.02,0.02029
4216.24,0.01981
4210.45,0.01980
4204.66,0.01977
4198.88,0.01990
4193.09,0.01948
4187.31,0.01968
4181.52,0.01952
4175.73,0.01973
4169.95,0.01920
4164.16,0.01951
4158.37,0.01974
4152.59,0.01958
4146.8,0.01979
4141.02,0.01995
4135.23,0.01924
4129.44,0.01987
4123.66,0.02003
4117.87,0.02001
4112.09,0.01935
4106.3,0.01946
4100.51,0.01968
4094.73,0.02036
4088.94,0.02014
4083.15,0.02009
4077.37,0.02000
4071.58,0.02002
4065.8,0.01986
4060.01,0.01971
4054.22,0.02034
4048.44,0.02001
4042.65,0.01933
4036.86,0.01953
4031.08,0.01947
4025.29,0.01957
4019.51,0.01963
4013.72,0.01943
4007.93,0.01922
4002.15,0.01998
3996.36,0.01982
3990.57,0.01983
3984.79,0.02028
3979,0.01991
3973.22,0.01944
3967.43,0.01981
3961.64,0.01987
3955.86,0.01947
3950.07,0.01975
3944.28,0.02012
3938.5,0.01935
3932.71,0.01972
3926.93,0.01955
3921.14,0.01969
3915.35,0.01942
3909.57,0.02027
3903.78,0.01980
3897.99,0.01965
3892.21,0.02034
3886.42,0.01952
3880.64,0.01959
3874.85,0.02049
3869.06,0.02012
3863.28,0.02029
3857.49,0.02014
3851.7,0.01964
3845.92,0.02033
3840.13,0.02034
3834.35,0.01993
3828.56,0.01918
3822.77,0.02022
3816.99,0.02074
3811.2,0.02044
3805.41,0.02060
3799.63,0.01974
3793.84,0.01998
3788.06,0.02047
3782.27,0.02069
3776.48,0.01907
3770.7,0.02000
3764.91,0.02007
3759.12,0.01972
3753.34,0.02020
3747.55,0.02071
3741.77,0.01926
3735.98,0.02020
3730.19,0.01974
3724.41,0.02004
3718.62,0.01925
3712.83,0.02030
3707.05,0.01952
3701.26,0.01990
3695.48,0.02025
3689.69,0.01962
3683.9,0.01980
3678.12,0.01892
3672.33,0.01940
3666.54,0.01943
3660.76,0.01930
3654.97,0.01934
3649.19,0.01884
3643.4,0.01871
3637.61,0.01980
3631.83,0.01935
3626.04,0.01925
3620.25,0.01936
3614.47,0.01882
3608.68,0.01871
3602.9,0.01922
3597.11,0.01878
3591.32,0.01887
3585.54,0.01875
3579.75,0.01869
3573.97,0.01878
3568.18,0.01822
3562.39,0.01895
3556.61,0.01846
3550.82,0.01878
3545.03,0.01883
3539.25,0.01925
3533.46,0.01825
3527.68,0.01829
3521.89,0.01818
3516.1,0.01841
3510.32,0.01783
3504.53,0.01841
3498.74,0.01859
3492.96,0.01838
3487.17,0.01848
3481.39,0.01834
3475.6,0.01834
3469.81,0.01816
3464.03,0.01831
3458.24,0.01782
3452.45,0.01789
3446.67,0.01803
3440.88,0.01865
3435.1,0.01809
3429.31,0.01773
3423.52,0.01767
3417.74,0.01744
3411.95,0.01783
3406.16,0.01816
3400.38,0.01833
3394.59,0.01796
3388.81,0.01762
3383.02,0.01745
3377.23,0.01706
3371.45,0.01693
3365.66,0.01692
3359.87,0.01764
3354.09,0.01758
3348.3,0.01736
3342.52,0.01745
3336.73,0.01728
3330.94,0.01743
3325.16,0.01787
3319.37,0.01787
3313.58,0.01761
3307.8,0.01733
3302.01,0.01719
3296.23,0.01741
3290.44,0.01824
3284.65,0.01758
3278.87,0.01755
3273.08,0.01791
3267.29,0.01803
3261.51,0.01747
3255.72,0.01806
3249.94,0.01831
3244.15,0.01815
3238.36,0.01774
3232.58,0.01774
3226.79,0.01759
3221,0.01724
3215.22,0.01799
3209.43,0.01793
3203.65,0.01786
3197.86,0.01809
3192.07,0.01763
3186.29,0.01800
3180.5,0.01782
3174.71,0.01860
3168.93,0.01815
3163.14,0.01822
3157.36,0.01771
3151.57,0.01789
3145.78,0.01780
3140,0.01792
3134.21,0.01750
3128.42,0.01798
3122.64,0.01816
3116.85,0.01815
3111.07,0.01790
3105.28,0.01849
3099.49,0.01841
3093.71,0.01801
3087.92,0.01764
3082.14,0.01746
3076.35,0.01815
3070.56,0.01751
3064.78,0.01790
3058.99,0.01806
3053.2,0.01811
3047.42,0.01791
3041.63,0.01805
3035.85,0.01815
3030.06,0.01805
3024.27,0.01818
3018.49,0.01764
3012.7,0.01830
3006.91,0.01754
3001.13,0.01736
2995.34,0.01719
2989.56,0.01679
2983.77,0.01734
2977.98,0.01720
2972.2,0.01659
2966.41,0.01681
2960.62,0.01642
2954.84,0.01667
2949.05,0.01653
2943.27,0.01633
2937.48,0.01683
2931.69,0.01685
2925.91,0.01723
2920.12,0.01697
2914.33,0.01762
2908.55,0.01782
2902.76,0.01753
2896.98,0.01742
2891.19,0.01759
2885.4,0.01791
2879.62,0.01784
2873.83,0.01779
2868.04,0.01741
2862.26,0.01726
2856.47,0.01778
2850.69,0.01801
2844.9,0.01847
2839.11,0.01831
2833.33,0.01855
2827.54,0.01830
2821.75,0.01850
2815.97,0.01860
2810.18,0.01814
2804.4,0.01882
2798.61,0.01881
2792.82,0.01871
2787.04,0.01878
2781.25,0.01836
2775.46,0.01822
2769.68,0.01820
2763.89,0.01818
2758.11,0.01828
2752.32,0.01840
2746.53,0.01840
2740.75,0.01829
2734.96,0.01834
2729.17,0.01856
2723.39,0.01865
2717.6,0.01838
2711.82,0.01804
2706.03,0.01825
2700.24,0.01865
2694.46,0.01832
2688.67,0.01851
2682.88,0.01837
2677.1,0.01865
2671.31,0.01878
2665.53,0.01862
2659.74,0.01871
2653.95,0.01840
2648.17,0.01891
2642.38,0.01907
2636.59,0.01868
2630.81,0.01850
2625.02,0.01854
2619.24,0.01870
2613.45,0.01844
2607.66,0.01866
2601.88,0.01860
2596.09,0.01886
2590.3,0.01804
2584.52,0.01876
2578.73,0.01808
2572.95,0.01824
2567.16,0.01869
2561.37,0.01843
2555.59,0.01826
2549.8,0.01884
2544.02,0.01866
2538.23,0.01885
2532.44,0.01841
2526.66,0.01830
2520.87,0.01848
2515.08,0.01908
2509.3,0.01871
2503.51,0.01828
2497.73,0.01828
2491.94,0.01867
2486.15,0.01889
2480.37,0.01853
2474.58,0.01875
2468.79,0.01845
2463.01,0.01843
2457.22,0.01854
2451.44,0.01898
2445.65,0.01869
2439.86,0.01877
2434.08,0.01867
2428.29,0.01844
2422.5,0.01863
2416.72,0.01845
2410.93,0.01862
2405.15,0.01862
2399.36,0.01847
2393.57,0.01824
2387.79,0.01810
2382,0.01808
2376.21,0.01837
2370.43,0.01837
2364.64,0.01859
2358.86,0.01848
2353.07,0.01841
2347.28,0.01827
2341.5,0.01878
2335.71,0.01853
2329.92,0.01847
2324.14,0.01835
2318.35,0.01839
2312.57,0.01827
2306.78,0.01785
2300.99,0.01822
2295.21,0.01824
2289.42,0.01848
2283.63,0.01882
2277.85,0.01834
2272.06,0.01868
2266.28,0.01862
2260.49,0.01848
2254.7,0.01876
2248.92,0.01862
2243.13,0.01880
2237.34,0.01839
2231.56,0.01831
2225.77,0.01892
2219.99,0.01845
2214.2,0.01862
2208.41,0.01823
2202.63,0.01847
2196.84,0.01833
2191.05,0.01843
2185.27,0.01850
2179.48,0.01828
2173.7,0.01819
2167.91,0.01835
2162.12,0.01846
2156.34,0.01814
2150.55,0.01840
2144.76,0.01815
2138.98,0.01804
2133.19,0.01855
2127.41,0.01840
2121.62,0.01809
2115.83,0.01813
2110.05,0.01841
2104.26,0.01842
2098.47,0.01834
2092.69,0.01818
2086.9,0.01843
2081.12,0.01829
2075.33,0.01806
2069.54,0.01810
2063.76,0.01807
2057.97,0.01839
2052.19,0.01808
2046.4,0.01833
2040.61,0.01805
2034.83,0.01783
2029.04,0.01859
2023.25,0.01834
2017.47,0.01827
2011.68,0.01829
2005.9,0.01825
2000.11,0.01873
1994.32,0.01799
1988.54,0.01784
1982.75,0.01810
1976.96,0.01812
1971.18,0.01813
1965.39,0.01822
1959.61,0.01803
1953.82,0.01826
1948.03,0.01813
1942.25,0.01815
1936.46,0.01799
1930.67,0.01808
1924.89,0.01841
1919.1,0.01835
1913.32,0.01810
1907.53,0.01774
1901.74,0.01831
1895.96,0.01806
1890.17,0.01796
1884.38,0.01761
1878.6,0.01767
1872.81,0.01768
1867.03,0.01748
1861.24,0.01738
1855.45,0.01773
1849.67,0.01747
1843.88,0.01759
1838.09,0.01742
1832.31,0.01733
1826.52,0.01747
1820.74,0.01704
1814.95,0.01704
1809.16,0.01695
1803.38,0.01680
1797.59,0.01707
1791.8,0.01691
1786.02,0.01620
1780.23,0.01647
1774.45,0.01622
1768.66,0.01534
1762.87,0.01539
1757.09,0.01494
1751.3,0.01449
1745.51,0.01477
1739.73,0.01562
1733.94,0.01666
1728.16,0.01748
1722.37,0.01833
1716.58,0.01803
1710.8,0.01811
1705.01,0.01727
1699.22,0.01641
1693.44,0.01661
1687.65,0.01679
1681.87,0.01683
1676.08,0.01646
1670.29,0.01618
1664.51,0.01581
1658.72,0.01575
1652.93,0.01612
1647.15,0.01586
1641.36,0.01634
1635.58,0.01583
1629.79,0.01611
1624,0.01615
1618.22,0.01592
1612.43,0.01613
1606.64,0.01629
1600.86,0.01601
1595.07,0.01610
1589.29,0.01619
1583.5,0.01558
1577.71,0.01602
1571.93,0.01530
1566.14,0.01556
1560.35,0.01553
1554.57,0.01531
1548.78,0.01582
1543,0.01603
1537.21,0.01584
1531.42,0.01545
1525.64,0.01573
1519.85,0.01582
1514.07,0.01576
1508.28,0.01552
1502.49,0.01573
1496.71,0.01596
1490.92,0.01604
1485.13,0.01582
1479.35,0.01601
1473.56,0.01611
1467.78,0.01537
1461.99,0.01579
1456.2,0.01568
1450.42,0.01584
1444.63,0.01610
1438.84,0.01600
1433.06,0.01631
1427.27,0.01600
1421.49,0.01554
1415.7,0.01560
1409.91,0.01548
1404.13,0.01572
1398.34,0.01539
1392.55,0.01555
1386.77,0.01538
1380.98,0.01560
1375.2,0.01558
1369.41,0.01528
1363.62,0.01520
1357.84,0.01534
1352.05,0.01560
1346.26,0.01522
1340.48,0.01474
1334.69,0.01477
1328.91,0.01491
1323.12,0.01465
1317.33,0.01420
1311.55,0.01401
1305.76,0.01462
1299.97,0.01455
1294.19,0.01504
1288.4,0.01530
1282.62,0.01589
1276.83,0.01619
1271.04,0.01671
1265.26,0.01745
1259.47,0.01741
1253.68,0.01710
1247.9,0.01735
1242.11,0.01715
1236.33,0.01674
1230.54,0.01688
1224.75,0.01668
1218.97,0.01659
1213.18,0.01636
1207.39,0.01608
1201.61,0.01573
1195.82,0.01586
1190.04,0.01589
1184.25,0.01507
1178.46,0.01502
1172.68,0.01502
1166.89,0.01420
1161.1,0.01537
1155.32,0.01509
1149.53,0.01460
1143.75,0.01509
1137.96,0.01515
1132.17,0.01528
1126.39,0.01540
1120.6,0.01596
1114.81,0.01595
1109.03,0.01591
1103.24,0.01532
1097.46,0.01600
1091.67,0.01510
1085.88,0.01487
1080.1,0.01615
1074.31,0.01657
1068.52,0.01695
1062.74,0.01771
1056.95,0.01739
1051.17,0.01733
1045.38,0.01666
1039.59,0.01650
1033.81,0.01666
1028.02,0.01625
1022.24,0.01601
1016.45,0.01599
1010.66,0.01695
1004.88,0.01741
999.09,0.01852
993.304,0.01820
987.518,0.01843
981.731,0.01795
975.945,0.01769
970.159,0.01744
964.373,0.01737
958.586,0.01784
952.8,0.01711
947.014,0.01703
941.228,0.01730
935.441,0.01742
929.655,0.01666
923.869,0.01658
918.083,0.01694
912.297,0.01637
906.51,0.01618
900.724,0.01617
894.938,0.01598
889.152,0.01590
883.365,0.01674
877.579,0.01659
871.793,0.01648
866.007,0.01681
860.22,0.01641
854.434,0.01609
848.648,0.01672
842.862,0.01658
837.075,0.01543
831.289,0.01623
825.503,0.01569
819.717,0.01600
813.931,0.01617
808.144,0.01666
802.358,0.01639
796.572,0.01651
790.786,0.01604
784.999,0.01490
779.213,0.01509
773.427,0.01611
767.641,0.01611
761.854,0.01562
756.068,0.01528
750.282,0.01494
744.496,0.01510
738.709,0.01474
732.923,0.01487
727.137,0.01541
721.351,0.01504
715.565,0.01516
709.778,0.01484
703.992,0.01507
698.206,0.01645
692.42,0.01515
686.633,0.01513
680.847,0.01653
675.061,0.01555
669.275,0.01425
663.488,0.01407
657.702,0.01349
651.916,0.01480
646.13,0.01389
640.343,0.01414
634.557,0.01361
628.771,0.01280
622.985,0.01357
617.198,0.01384
611.412,0.01345
605.626,0.01347
599.84,0.01380