File: 01_Data/Asphalt_Shingle/Cone/Asphalt_Shingle_HRRPUA_25.csv
Time after Ignition,Asphalt_Shingle_R1,Asphalt_Shingle_R2,Asphalt_Shingle_R3,Mean,Std. Dev.
0.0,15.8,16.7,26.0,19.5,5.6
0.25,16.6,17.7,27.2,20.5,5.8
0.5,17.2,19.3,28.2,21.6,5.8
0.75,18.4,21.0,29.2,22.9,5.7
1.0,18.9,22.4,30.8,24.0,6.1
1.25,20.2,23.5,31.3,25.0,5.7
1.5,20.7,24.9,32.3,26.0,5.9
1.75,21.5,26.5,33.3,27.1,5.9
2.0,22.2,28.3,34.7,28.4,6.3
2.25,23.3,29.5,35.8,29.5,6.2
2.5,24.1,30.7,36.5,30.4,6.2
2.75,24.9,32.1,37.4,31.5,6.3
3.0,25.8,33.9,38.4,32.7,6.4
3.25,26.7,34.5,39.3,33.5,6.4
3.5,27.6,36.1,40.1,34.6,6.4
3.75,29.7,38.0,41.1,36.3,5.9
4.0,30.9,38.9,41.6,37.1,5.5
4.25,32.9,40.0,43.3,38.7,5.3
4.5,33.9,41.1,43.4,39.5,5.0
4.75,36.0,43.3,44.2,41.2,4.5
5.0,36.9,43.8,45.8,42.2,4.7
5.25,38.0,45.7,45.8,43.1,4.5
5.5,39.2,46.8,46.5,44.1,4.3
5.75,40.3,47.9,47.8,45.3,4.3
6.0,41.1,49.3,48.4,46.3,4.5
6.25,42.6,49.8,49.1,47.2,4.0
6.5,43.8,52.1,51.0,49.0,4.5
6.75,44.8,52.9,51.0,49.6,4.2
7.0,45.5,52.9,52.2,50.2,4.1
7.25,45.9,54.6,53.4,51.3,4.7
7.5,47.3,55.6,54.2,52.4,4.4
7.75,49.2,56.1,55.5,53.6,3.8
8.0,50.0,57.5,57.2,54.9,4.2
8.25,50.9,58.6,57.6,55.7,4.2
8.5,52.0,60.7,59.1,57.3,4.6
8.75,53.5,61.6,59.5,58.2,4.2
9.0,54.2,63.1,61.6,59.6,4.8
9.25,55.1,63.7,62.6,60.5,4.7
9.5,54.4,65.8,63.4,61.2,6.0
9.75,55.9,65.9,64.5,62.1,5.4
10.0,56.3,66.9,66.4,63.2,5.9
10.25,58.1,69.3,67.2,64.8,6.0
10.5,58.9,69.7,69.4,66.0,6.1
10.75,59.6,73.4,70.4,67.8,7.2
11.0,60.4,73.9,72.8,69.0,7.5
11.25,61.7,75.5,74.1,70.4,7.6
11.5,62.2,76.5,76.3,71.7,8.2
11.75,62.7,78.8,77.2,72.9,8.9
12.0,63.2,81.1,77.4,73.9,9.4
12.25,64.2,83.1,80.5,76.0,10.3
12.5,64.2,85.2,82.4,77.3,11.4
12.75,65.2,87.4,85.8,79.5,12.4
13.0,65.9,89.3,86.6,80.6,12.8
13.25,66.0,89.8,88.9,81.6,13.5
13.5,65.6,91.5,90.2,82.4,14.6
13.75,67.0,93.2,92.3,84.2,14.9
14.0,67.8,96.5,94.1,86.1,15.9
14.25,67.5,99.0,96.5,87.7,17.5
14.5,68.6,99.5,98.9,89.0,17.7
14.75,68.8,101.5,100.5,90.2,18.6
15.0,69.4,101.6,103.2,91.4,19.1
15.25,71.4,105.4,105.1,94.0,19.5
15.5,72.1,106.0,105.8,94.6,19.5
15.75,72.6,108.0,108.7,96.5,20.6
16.0,73.0,109.0,110.7,97.6,21.3
16.25,73.9,111.5,112.5,99.3,22.0
16.5,74.1,114.9,112.7,100.6,23.0
16.75,75.6,116.3,115.8,102.6,23.3
17.0,76.3,119.0,117.7,104.3,24.3
17.25,76.7,116.9,121.7,105.1,24.7
17.5,78.7,118.8,121.1,106.2,23.8
17.75,79.5,120.1,124.4,108.0,24.8
18.0,80.4,121.2,126.5,109.4,25.2
18.25,82.1,124.1,127.3,111.2,25.2
18.5,82.2,126.1,127.7,112.0,25.8
18.75,84.1,126.8,130.4,113.8,25.7
19.0,87.7,127.0,133.4,116.0,24.8
19.25,87.2,128.5,135.1,116.9,26.0
19.5,88.3,132.0,136.1,118.8,26.5
19.75,88.5,133.4,138.0,120.0,27.3
20.0,90.0,133.0,137.6,120.2,26.3
20.25,90.8,136.9,140.6,122.8,27.7
20.5,93.2,137.7,141.4,124.1,26.8
20.75,92.6,137.4,141.2,123.8,27.0
21.0,93.4,138.5,142.5,124.8,27.3
21.25,94.6,140.3,142.9,125.9,27.1
21.5,96.7,144.4,145.1,128.7,27.8
21.75,96.3,143.8,145.0,128.4,27.8
22.0,97.6,146.7,145.0,129.7,27.9
22.25,96.9,149.0,147.0,131.0,29.5
22.5,98.1,150.0,145.4,131.2,28.7
22.75,98.9,150.8,147.5,132.4,29.0
23.0,99.8,152.4,149.0,133.7,29.4
23.25,100.5,156.4,147.4,134.8,30.0
23.5,100.3,154.3,146.9,133.8,29.3
23.75,100.0,156.5,146.2,134.2,30.1
24.0,100.4,156.8,146.8,134.7,30.1
24.25,101.3,159.3,144.4,135.0,30.1
24.5,100.6,160.3,142.1,134.3,30.6
24.75,99.0,158.7,140.9,132.9,30.6
25.0,98.1,162.7,143.2,134.7,33.1
25.25,100.4,162.2,140.9,134.5,31.4
25.5,99.6,161.6,139.2,133.5,31.4
25.75,98.8,165.4,138.2,134.1,33.4
26.0,99.2,163.3,134.9,132.5,32.1
26.25,98.3,164.8,133.9,132.4,33.3
26.5,98.3,160.6,134.2,131.0,31.3
26.75,98.7,163.9,133.2,131.9,32.6
27.0,97.5,165.6,131.8,131.6,34.1
27.25,97.9,165.6,130.6,131.4,33.9
27.5,98.1,165.9,129.0,131.0,33.9
27.75,98.4,167.1,128.9,131.5,34.4
28.0,99.1,166.3,129.2,131.5,33.7
28.25,97.8,168.4,129.6,132.0,35.4
28.5,97.4,168.7,128.4,131.5,35.7
28.75,96.9,170.3,126.5,131.2,36.9
29.0,97.3,168.0,128.8,131.3,35.4
29.25,97.9,170.7,126.6,131.7,36.6
29.5,98.3,168.9,128.2,131.8,35.4
29.75,99.1,171.5,126.7,132.4,36.5
30.0,96.3,170.7,125.7,130.9,37.5
30.25,98.1,171.5,126.9,132.2,37.0
30.5,96.5,170.9,128.1,131.8,37.4
30.75,97.9,173.6,126.1,132.5,38.2
31.0,96.8,174.8,128.8,133.5,39.2
31.25,98.2,176.4,128.1,134.2,39.5
31.5,97.4,174.9,127.9,133.4,39.0
31.75,95.7,175.2,126.9,132.6,40.1
32.0,98.3,178.7,127.8,134.9,40.7
32.25,98.6,174.7,129.9,134.4,38.2
32.5,96.8,179.8,129.6,135.4,41.8
32.75,98.0,179.0,128.8,135.3,40.9
33.0,96.5,181.1,130.5,136.0,42.6
33.25,97.5,183.9,130.6,137.4,43.6
33.5,97.8,182.3,132.3,137.5,42.5
33.75,97.3,181.9,134.2,137.8,42.4
34.0,97.5,181.8,136.6,138.6,42.2
34.25,96.7,182.9,140.0,139.9,43.1
34.5,98.2,181.8,140.8,140.3,41.8
34.75,99.2,183.0,140.9,141.0,41.9
35.0,99.1,186.9,143.3,143.1,43.9
35.25,98.9,187.5,143.4,143.2,44.3
35.5,99.0,183.4,143.9,142.1,42.2
35.75,97.7,192.0,146.1,145.3,47.2
36.0,99.6,186.3,145.3,143.7,43.4
36.25,98.8,189.3,148.8,145.6,45.4
36.5,99.6,189.0,151.2,146.6,44.9
36.75,101.2,190.0,151.3,147.5,44.6
37.0,101.5,195.6,151.1,149.4,47.0
37.25,100.9,193.5,151.3,148.5,46.4
37.5,102.7,193.3,153.9,150.0,45.4
37.75,103.8,197.9,155.2,152.3,47.1
38.0,106.0,198.6,159.2,154.6,46.5
38.25,105.5,201.4,158.0,155.0,48.0
38.5,108.3,203.1,159.7,157.0,47.5
38.75,110.7,207.4,159.9,159.3,48.4
39.0,110.2,204.8,160.5,158.5,47.3
39.25,111.1,206.3,160.1,159.2,47.6
39.5,112.0,210.1,160.7,160.9,49.1
39.75,112.7,212.4,164.0,163.0,49.9
40.0,114.0,217.1,166.7,166.0,51.6
40.25,115.3,212.5,171.6,166.5,48.8
40.5,116.7,217.0,170.4,168.0,50.2
40.75,117.4,218.1,167.8,167.7,50.4
41.0,118.1,219.7,171.5,169.8,50.8
41.25,119.1,221.2,171.5,170.6,51.0
41.5,120.3,225.8,170.7,172.3,52.8
41.75,121.8,226.7,171.8,173.4,52.5
42.0,126.6,224.7,176.5,175.9,49.1
42.25,121.9,229.5,175.1,175.5,53.8
42.5,124.4,230.6,177.5,177.5,53.1
42.75,126.1,229.8,177.0,177.6,51.8
43.0,126.6,233.8,177.1,179.1,53.6
43.25,127.7,230.7,179.1,179.2,51.5
43.5,132.5,235.9,180.9,183.1,51.8
43.75,132.4,236.3,184.4,184.4,52.0
44.0,134.1,237.9,186.0,186.0,51.9
44.25,135.2,239.8,186.1,187.0,52.3
44.5,135.3,242.0,186.9,188.1,53.4
44.75,136.3,237.9,184.7,186.3,50.8
45.0,142.1,240.6,192.1,191.6,49.2
45.25,142.7,247.1,188.3,192.7,52.3
45.5,141.8,254.8,191.6,196.1,56.6
45.75,144.0,254.2,194.9,197.7,55.2
46.0,143.5,252.0,193.4,196.3,54.3
46.25,146.6,249.4,196.7,197.6,51.4
46.5,150.5,251.1,195.4,199.0,50.4
46.75,149.8,251.1,195.6,198.9,50.7
47.0,149.9,252.1,198.8,200.2,51.1
47.25,151.9,254.7,199.5,202.0,51.5
47.5,154.5,257.5,198.0,203.3,51.7
47.75,153.7,253.2,200.1,202.3,49.8
48.0,155.2,253.6,200.9,203.2,49.2
48.25,154.5,254.4,203.4,204.1,49.9
48.5,158.0,256.7,205.6,206.8,49.3
48.75,156.8,251.8,207.8,205.5,47.5
49.0,159.5,257.3,206.6,207.8,48.9
49.25,159.6,253.9,206.2,206.6,47.2
49.5,160.6,253.8,212.5,209.0,46.7
49.75,161.3,261.3,211.8,211.5,50.0
50.0,162.3,255.6,209.2,209.0,46.6
50.25,166.7,262.0,210.4,213.0,47.7
50.5,166.4,259.2,209.8,211.8,46.4
50.75,170.8,258.4,210.9,213.4,43.8
51.0,170.4,261.8,211.8,214.7,45.8
51.25,171.2,257.4,214.5,214.4,43.1
51.5,171.9,257.8,212.5,214.1,42.9
51.75,175.3,259.9,212.3,215.8,42.4
52.0,176.9,255.5,211.1,214.5,39.4
52.25,175.1,261.6,216.8,217.8,43.3
52.5,176.7,263.2,216.8,218.9,43.3
52.75,181.0,252.3,216.5,216.6,35.6
53.0,182.3,257.4,220.0,219.9,37.5
53.25,184.0,256.6,222.2,220.9,36.3
53.5,182.5,260.1,218.6,220.4,38.8
53.75,184.0,261.3,219.9,221.7,38.7
54.0,185.1,257.2,220.0,220.8,36.1
54.25,183.4,260.1,220.2,221.2,38.4
54.5,183.0,256.4,223.4,220.9,36.7
54.75,185.8,257.1,223.4,222.1,35.6
55.0,188.8,256.5,224.2,223.1,33.8
55.25,189.9,256.6,226.6,224.4,33.4
55.5,190.1,260.9,221.1,224.0,35.5
55.75,189.0,256.3,224.8,223.4,33.7
56.0,192.7,257.4,228.9,226.3,32.4
56.25,189.8,253.5,227.9,223.7,32.0
56.5,192.6,260.7,225.8,226.3,34.0
56.75,193.4,262.4,226.5,227.4,34.5
57.0,191.3,254.2,226.7,224.1,31.6
57.25,191.2,251.8,229.7,224.2,30.7
57.5,193.8,256.2,227.8,225.9,31.2
57.75,197.3,259.1,232.6,229.6,31.0
58.0,195.9,258.1,228.9,227.6,31.1
58.25,196.5,255.7,228.7,227.0,29.6
58.5,198.6,259.6,227.3,228.5,30.6
58.75,198.6,262.1,226.5,229.1,31.8
59.0,200.9,259.7,226.4,229.0,29.4
59.25,201.4,255.3,224.5,227.1,27.0
59.5,204.6,254.6,224.8,228.0,25.1
59.75,201.7,257.1,230.3,229.7,27.7
60.0,203.3,252.3,225.9,227.2,24.5
60.25,205.1,248.1,227.6,226.9,21.5
60.5,205.3,250.8,226.7,227.6,22.7
60.75,208.0,245.9,229.4,227.8,19.0
61.0,208.7,246.2,230.8,228.6,18.9
61.25,207.7,250.9,225.8,228.1,21.7
61.5,209.2,248.4,227.1,228.2,19.6
61.75,206.9,249.2,225.3,227.1,21.2
62.0,211.5,254.4,229.8,231.9,21.5
62.25,212.0,245.4,224.2,227.2,16.9
62.5,213.5,247.6,229.7,230.3,17.1
62.75,210.8,248.5,222.9,227.4,19.3
63.0,218.7,244.3,224.8,229.3,13.4
63.25,216.8,247.3,222.6,228.9,16.2
63.5,214.8,249.3,225.0,229.7,17.7
63.75,217.3,242.4,221.7,227.2,13.4
64.0,215.4,243.8,221.7,227.0,14.9
64.25,217.7,239.6,223.7,227.0,11.3
64.5,216.5,240.9,220.9,226.1,13.0
64.75,221.2,239.7,220.6,227.2,10.8
65.0,216.7,234.3,222.8,224.6,9.0
65.25,217.7,243.2,220.5,227.1,14.0
65.5,214.8,241.7,221.9,226.2,13.9
65.75,219.5,239.4,219.5,226.1,11.5
66.0,214.7,240.8,222.2,225.9,13.4
66.25,216.1,238.2,220.9,225.0,11.6
66.5,215.0,239.9,219.6,224.8,13.3
66.75,215.8,237.7,218.0,223.8,12.1
67.0,212.9,233.7,215.0,220.5,11.5
67.25,216.7,234.3,216.5,222.5,10.2
67.5,213.1,227.2,215.4,218.6,7.6
67.75,212.4,230.9,215.2,219.5,10.0
68.0,215.8,227.7,216.9,220.2,6.6
68.25,209.8,228.9,210.0,216.2,11.0
68.5,210.6,231.2,209.8,217.2,12.1
68.75,210.4,227.3,212.8,216.8,9.2
69.0,207.5,227.3,212.3,215.7,10.3
69.25,210.7,226.9,210.4,216.0,9.5
69.5,209.6,220.7,213.4,214.6,5.7
69.75,206.9,221.6,210.5,213.0,7.6
70.0,207.7,226.0,213.1,215.6,9.4
70.25,209.7,221.8,209.0,213.5,7.2
70.5,206.1,220.9,212.8,213.3,7.4
70.75,204.5,220.4,208.9,211.3,8.2
71.0,205.9,220.2,209.5,211.9,7.4
71.25,204.7,217.9,209.9,210.8,6.7
71.5,203.1,219.1,212.6,211.6,8.1
71.75,202.1,221.6,215.5,213.1,10.0
72.0,204.9,217.2,211.3,211.1,6.2
72.25,202.3,214.5,210.7,209.1,6.3
72.5,199.1,217.0,206.6,207.6,9.0
72.75,201.7,214.1,213.4,209.7,7.0
73.0,198.4,215.8,211.4,208.5,9.0
73.25,197.1,216.8,212.6,208.8,10.4
73.5,196.7,211.5,211.4,206.6,8.5
73.75,200.2,213.0,212.8,208.7,7.3
74.0,195.7,210.2,211.4,205.8,8.7
74.25,192.8,209.1,209.5,203.8,9.5
74.5,194.1,209.3,212.5,205.3,9.8
74.75,194.4,209.5,211.1,205.0,9.2
75.0,191.5,210.9,210.2,204.2,11.0
75.25,188.9,203.3,209.7,200.7,10.7
75.5,190.9,208.3,211.4,203.5,11.0
75.75,189.3,206.8,208.1,201.4,10.5
76.0,187.9,205.4,208.4,200.6,11.1
76.25,190.0,207.3,210.4,202.6,11.0
76.5,186.0,205.2,211.3,200.8,13.2
76.75,186.9,205.1,211.0,201.0,12.6
77.0,183.1,207.4,209.7,200.1,14.7
77.25,182.0,205.4,208.5,198.6,14.5
77.5,179.8,201.9,211.1,197.6,16.1
77.75,178.9,199.1,209.0,195.6,15.3
78.0,179.0,203.2,213.0,198.4,17.5
78.25,179.0,201.9,210.3,197.1,16.2
78.5,175.5,197.5,209.7,194.2,17.3
78.75,175.1,199.2,208.8,194.4,17.4
79.0,174.5,195.0,210.2,193.2,17.9
79.25,172.9,200.0,209.3,194.1,18.9
79.5,170.3,194.6,210.1,191.7,20.0
79.75,171.2,197.1,207.2,191.8,18.6
80.0,170.1,192.1,210.7,191.0,20.3
80.25,167.8,192.2,207.6,189.2,20.0
80.5,169.8,191.7,209.9,190.5,20.1
80.75,166.9,191.6,205.4,188.0,19.5
81.0,163.5,188.3,205.9,185.9,21.3
81.25,165.2,188.4,206.3,186.6,20.6
81.5,163.7,189.0,207.8,186.8,22.1
81.75,161.2,183.6,205.9,183.5,22.4
82.0,160.1,187.0,210.0,185.7,25.0
82.25,158.1,182.1,207.9,182.7,24.9
82.5,155.3,180.6,204.9,180.3,24.8
82.75,157.1,180.9,204.8,180.9,23.9
83.0,154.5,181.1,202.6,179.4,24.0
83.25,153.1,180.8,203.5,179.1,25.2
83.5,154.2,179.1,199.8,177.7,22.9
83.75,149.8,177.0,202.5,176.4,26.3
84.0,149.7,178.2,204.2,177.4,27.3
84.25,146.7,175.8,202.1,174.9,27.7
84.5,145.0,172.2,203.6,173.6,29.3
84.75,143.2,173.8,200.8,172.6,28.8
85.0,143.5,170.3,201.8,171.9,29.2
85.25,140.5,170.3,198.8,169.9,29.2
85.5,139.4,169.5,198.3,169.1,29.4
85.75,139.4,169.0,198.4,168.9,29.5
86.0,138.8,168.7,195.8,167.8,28.5
86.25,135.2,166.6,198.8,166.9,31.8
86.5,135.5,165.0,202.0,167.5,33.3
86.75,134.6,163.6,196.1,164.8,30.8
87.0,134.3,162.2,195.0,163.8,30.4
87.25,131.2,158.4,196.6,162.1,32.9
87.5,132.2,159.4,193.2,161.6,30.6
87.75,132.5,157.8,196.4,162.2,32.2
88.0,130.7,156.1,193.2,160.0,31.4
88.25,131.2,154.6,195.5,160.4,32.5
88.5,127.9,153.9,192.6,158.1,32.6
88.75,128.6,150.7,192.9,157.4,32.7
89.0,126.1,151.0,190.2,155.8,32.3
89.25,124.8,151.2,191.6,155.9,33.7
89.5,122.3,149.1,192.0,154.5,35.2
89.75,122.8,145.2,191.6,153.2,35.1
90.0,120.8,147.2,187.1,151.7,33.4
90.25,121.5,145.1,188.7,151.8,34.1
90.5,119.3,145.7,185.9,150.3,33.6
90.75,119.3,141.7,185.0,148.7,33.4
91.0,118.6,140.3,184.7,147.9,33.7
91.25,116.5,140.5,184.3,147.1,34.4
91.5,116.3,141.9,184.7,147.6,34.6
91.75,115.7,137.4,183.1,145.4,34.4
92.0,115.3,137.5,183.9,145.5,35.0
92.25,114.1,136.5,182.5,144.3,34.9
92.5,114.4,134.0,182.4,143.6,35.0
92.75,113.3,133.8,183.1,143.4,35.9
93.0,112.3,129.3,179.6,140.4,35.0
93.25,112.1,130.6,181.1,141.2,35.7
93.5,111.8,129.0,181.7,140.8,36.4
93.75,109.1,128.0,177.8,138.3,35.5
94.0,111.0,126.8,177.9,138.5,35.0
94.25,109.0,124.0,178.6,137.2,36.6
94.5,109.1,124.7,173.4,135.7,33.5
94.75,106.2,126.6,177.5,136.8,36.7
95.0,107.3,122.0,174.1,134.5,35.1
95.25,107.7,121.9,173.9,134.5,34.8
95.5,106.6,119.2,171.9,132.5,34.7
95.75,106.5,116.9,172.5,132.0,35.5
96.0,105.8,119.1,172.2,132.4,35.1
96.25,105.1,117.9,173.6,132.2,36.4
96.5,105.6,117.1,171.5,131.4,35.2
96.75,104.1,115.3,170.1,129.8,35.3
97.0,104.3,116.4,170.2,130.3,35.1
97.25,103.1,114.1,167.3,128.2,34.4
97.5,104.7,112.0,168.3,128.3,34.8
97.75,104.2,113.2,168.8,128.8,35.0
98.0,102.6,112.7,167.1,127.4,34.7
98.25,103.4,112.7,166.8,127.6,34.2
98.5,103.7,110.1,166.2,126.7,34.4
98.75,101.7,109.1,165.5,125.4,34.9
99.0,102.8,108.1,163.3,124.7,33.5
99.25,101.7,109.1,160.2,123.7,31.8
99.5,101.9,106.4,164.8,124.3,35.1
99.75,99.8,106.3,163.4,123.2,35.0
100.0,101.5,106.3,161.7,123.2,33.5
100.25,99.8,103.6,160.2,121.2,33.8
100.5,100.9,105.1,158.8,121.6,32.3
100.75,100.9,105.1,157.5,121.2,31.5
101.0,100.8,102.5,158.3,120.5,32.7
101.25,101.6,101.5,157.3,120.1,32.2
101.5,100.5,100.7,157.1,119.4,32.6
101.75,100.6,100.3,158.1,119.7,33.3
102.0,100.7,100.5,156.2,119.1,32.1
102.25,98.4,100.1,158.3,118.9,34.1
102.5,98.9,97.7,153.0,116.5,31.6
102.75,99.2,99.1,153.2,117.2,31.2
103.0,99.7,96.5,154.1,116.8,32.4
103.25,98.6,96.6,153.4,116.2,32.2
103.5,98.7,97.4,152.3,116.2,31.3
103.75,99.4,98.2,151.3,116.3,30.3
104.0,98.8,96.0,150.1,115.0,30.4
104.25,97.4,94.5,147.1,113.0,29.6
104.5,99.7,94.2,147.3,113.7,29.2
104.75,97.3,93.3,146.3,112.3,29.5
105.0,97.0,93.5,144.0,111.5,28.2
105.25,97.7,93.9,145.7,112.4,28.9
105.5,97.3,91.9,144.7,111.3,29.0
105.75,96.9,91.4,142.4,110.2,28.0
106.0,97.1,90.6,141.9,109.9,27.9
106.25,95.9,90.5,141.8,109.4,28.2
106.5,95.1,89.4,139.6,108.0,27.5
106.75,95.4,88.3,142.4,108.7,29.4
107.0,96.2,89.1,138.5,107.9,26.7
107.25,95.4,88.3,138.2,107.3,27.0
107.5,95.1,86.0,137.4,106.2,27.4
107.75,94.0,85.8,136.0,105.3,26.9
108.0,94.4,84.3,135.8,104.8,27.3
108.25,94.2,83.7,135.7,104.5,27.5
108.5,93.6,82.8,136.5,104.3,28.4
108.75,92.8,81.6,133.3,102.6,27.2
109.0,93.5,80.5,133.0,102.3,27.4
109.25,92.0,80.8,133.3,102.1,27.7
109.5,93.4,80.6,132.3,102.1,26.9
109.75,92.4,80.2,130.9,101.1,26.5
110.0,93.2,79.8,129.6,100.8,25.8
110.25,91.8,78.2,127.6,99.2,25.5
110.5,90.9,78.5,128.4,99.3,26.0
110.75,92.6,77.1,127.7,99.1,25.9
111.0,91.4,75.8,126.9,98.1,26.2
111.25,91.2,76.2,125.5,97.6,25.3
111.5,90.4,75.6,126.2,97.4,26.0
111.75,90.7,75.5,124.7,97.0,25.2
112.0,91.0,74.9,122.6,96.2,24.2
112.25,92.0,75.6,122.7,96.8,23.9
112.5,91.1,74.4,120.1,95.2,23.1
112.75,90.9,74.2,120.2,95.1,23.3
113.0,90.2,73.9,119.9,94.7,23.4
113.25,90.1,73.0,117.9,93.6,22.7
113.5,90.1,72.1,117.0,93.1,22.6
113.75,90.3,71.0,116.2,92.5,22.7
114.0,91.2,71.7,114.6,92.5,21.5
114.25,89.5,71.2,114.6,91.8,21.8
114.5,89.9,69.6,114.5,91.3,22.5
114.75,90.3,68.2,113.8,90.8,22.8
115.0,90.5,69.0,111.7,90.4,21.3
115.25,90.2,67.0,111.3,89.5,22.2
115.5,91.2,67.5,110.2,89.6,21.4
115.75,89.5,66.4,108.6,88.1,21.1
116.0,90.5,65.6,109.6,88.6,22.1
116.25,89.8,64.1,105.8,86.6,21.0
116.5,90.7,63.6,106.6,86.9,21.7
116.75,90.4,63.1,104.5,86.0,21.0
117.0,90.0,62.8,102.3,85.0,20.2
117.25,90.2,62.0,102.2,84.8,20.7
117.5,89.6,61.8,101.8,84.4,20.5
117.75,89.6,59.9,100.5,83.4,21.0
118.0,91.0,60.8,98.6,83.4,20.0
118.25,90.4,58.7,98.2,82.4,20.9
118.5,90.5,58.6,96.4,81.8,20.3
118.75,90.7,57.8,95.3,81.3,20.5
119.0,90.8,57.5,94.8,81.0,20.5
119.25,90.9,55.8,94.9,80.5,21.5
119.5,91.2,55.4,93.6,80.1,21.4
119.75,90.1,55.4,92.3,79.3,20.7
120.0,89.8,56.1,90.7,78.9,19.7
120.25,91.1,55.0,89.0,78.4,20.3
120.5,90.3,54.2,88.3,77.6,20.3
120.75,90.4,54.9,88.1,77.8,19.9
121.0,90.5,53.4,86.7,76.9,20.4
121.25,90.3,53.3,86.7,76.8,20.4
121.5,89.8,52.8,85.2,75.9,20.2
121.75,90.7,52.0,85.3,76.0,21.0
122.0,90.1,51.9,82.9,75.0,20.3
122.25,90.9,51.0,84.5,75.4,21.4
122.5,90.3,51.1,83.7,75.0,21.0
122.75,91.0,49.4,82.7,74.4,22.0
123.0,90.2,49.6,82.4,74.0,21.5
123.25,90.0,49.0,81.6,73.5,21.6
123.5,90.1,48.0,81.1,73.1,22.2
123.75,89.4,47.6,78.8,71.9,21.7
124.0,90.3,47.4,77.7,71.8,22.0
124.25,89.9,46.6,77.1,71.2,22.2
124.5,89.0,46.8,76.4,70.8,21.7
124.75,89.2,46.0,75.2,70.2,22.0
125.0,89.8,45.4,74.3,69.8,22.5
125.25,89.0,45.7,73.5,69.4,21.9
125.5,91.1,44.5,73.5,69.7,23.6
125.75,88.6,44.5,72.2,68.4,22.3
126.0,89.5,43.9,71.8,68.4,23.0
126.25,87.6,44.1,70.9,67.6,22.0
126.5,88.2,43.0,69.4,66.9,22.7
126.75,86.3,42.8,68.9,66.0,21.9
127.0,89.0,42.6,68.2,66.6,23.2
127.25,86.2,42.5,67.5,65.4,21.9
127.5,88.4,42.0,66.4,65.6,23.2
127.75,86.6,41.6,66.1,64.8,22.6
128.0,87.0,41.3,65.6,64.6,22.9
128.25,85.7,40.9,64.8,63.8,22.4
128.5,87.4,39.9,63.6,63.6,23.7
128.75,86.2,39.5,63.5,63.1,23.3
129.0,85.2,40.0,61.7,62.3,22.6
129.25,84.6,38.8,61.2,61.5,22.9
129.5,85.4,39.0,60.7,61.7,23.3
129.75,85.1,39.1,60.1,61.4,23.0
130.0,85.0,38.8,59.4,61.0,23.2
130.25,84.8,38.0,58.5,60.4,23.5
130.5,84.2,37.3,58.0,59.8,23.5
130.75,83.8,37.6,56.8,59.4,23.2
131.0,84.1,37.3,57.2,59.5,23.5
131.25,83.6,36.8,55.9,58.8,23.6
131.5,85.2,36.6,54.8,58.8,24.5
131.75,83.9,36.1,54.9,58.3,24.1
132.0,83.8,36.3,54.0,58.0,24.0
132.25,83.6,36.0,53.0,57.5,24.1
132.5,82.5,36.1,52.7,57.1,23.5
132.75,83.3,35.4,51.4,56.7,24.4
133.0,83.9,35.7,51.7,57.1,24.6
133.25,82.6,35.4,51.3,56.4,24.0
133.5,83.6,35.6,50.1,56.4,24.6
133.75,82.1,35.1,50.1,55.8,24.0
134.0,83.2,34.7,48.7,55.5,25.0
134.25,82.5,34.4,48.4,55.1,24.8
134.5,81.4,34.5,48.1,54.7,24.2
134.75,82.1,34.5,47.3,54.6,24.6
135.0,82.5,34.2,47.6,54.7,24.9
135.25,81.8,34.5,46.8,54.3,24.6
135.5,82.8,34.2,46.6,54.6,25.3
135.75,81.5,33.7,46.6,53.9,24.7
136.0,81.5,33.7,45.5,53.5,24.9
136.25,81.2,33.7,45.6,53.5,24.7
136.5,80.9,33.5,45.0,53.1,24.7
136.75,82.2,33.8,44.0,53.3,25.5
137.0,80.3,33.6,44.3,52.7,24.5
137.25,81.6,33.5,43.5,52.9,25.4
137.5,81.0,33.8,43.1,52.7,25.0
137.75,80.5,33.5,42.6,52.2,24.9
138.0,80.0,33.8,42.4,52.1,24.6
138.25,79.4,33.7,42.5,51.8,24.3
138.5,81.3,34.2,41.5,52.3,25.3
138.75,80.0,33.9,41.6,51.8,24.7
139.0,79.3,34.0,41.4,51.6,24.3
139.25,80.4,33.6,40.9,51.6,25.2
139.5,80.8,33.8,39.8,51.5,25.6
139.75,79.2,33.8,39.5,50.8,24.7
140.0,79.3,33.6,39.3,50.7,24.9
140.25,79.4,33.7,38.4,50.5,25.1
140.5,79.0,33.2,38.6,50.3,25.0
140.75,78.5,33.4,37.7,49.9,24.9
141.0,78.9,33.2,38.1,50.0,25.1
141.25,77.8,33.0,37.7,49.5,24.6
141.5,77.9,32.5,37.0,49.1,25.0
141.75,78.5,33.0,36.9,49.5,25.2
142.0,77.6,32.5,36.3,48.8,25.0
142.25,77.4,32.5,36.1,48.7,25.0
142.5,76.5,32.4,35.8,48.2,24.6
142.75,77.1,32.7,35.3,48.4,24.9
143.0,76.4,32.3,35.0,47.9,24.7
143.25,75.2,32.3,34.6,47.4,24.1
143.5,75.8,31.6,34.1,47.2,24.8
143.75,75.1,31.8,34.4,47.1,24.3
144.0,75.0,31.9,33.8,46.9,24.3
144.25,75.5,31.7,32.9,46.7,24.9
144.5,74.5,31.1,33.4,46.3,24.4
144.75,74.4,31.3,32.7,46.2,24.5
145.0,73.4,30.9,32.5,45.6,24.1
145.25,72.9,30.5,31.9,45.1,24.1
145.5,74.6,30.5,32.0,45.7,25.1
145.75,74.4,29.7,31.5,45.2,25.3
146.0,72.8,29.7,30.7,44.4,24.6
146.25,73.4,29.5,30.2,44.4,25.1
146.5,72.1,29.3,30.0,43.8,24.5
146.75,72.1,29.3,29.9,43.7,24.5
147.0,72.8,29.3,29.4,43.9,25.1
147.25,72.1,29.1,29.3,43.5,24.8
147.5,71.6,29.0,28.4,43.0,24.8
147.75,72.0,28.7,28.4,43.1,25.1
148.0,71.8,28.6,27.9,42.8,25.1
148.25,72.2,28.2,28.0,42.8,25.4
148.5,72.9,27.2,27.3,42.5,26.3
148.75,71.2,27.6,27.1,42.0,25.3
149.0,71.3,26.9,26.8,41.7,25.6
149.25,70.7,26.7,26.7,41.4,25.4
149.5,70.3,26.7,26.8,41.3,25.2
149.75,70.5,26.4,26.2,41.0,25.5
150.0,69.4,25.6,25.9,40.3,25.2
150.25,70.2,25.6,25.8,40.5,25.7
150.5,69.3,25.4,25.6,40.1,25.3
150.75,69.6,25.2,25.5,40.1,25.6
151.0,69.5,24.6,25.2,39.8,25.8
151.25,67.7,24.5,25.0,39.1,24.8
151.5,69.2,24.4,24.9,39.5,25.7
151.75,68.4,24.5,24.6,39.2,25.3
152.0,68.7,24.3,24.4,39.1,25.6
152.25,67.3,24.3,24.2,38.6,24.9
152.5,66.9,24.0,24.3,38.4,24.7
152.75,66.5,23.7,23.9,38.0,24.6
153.0,66.0,23.6,23.5,37.7,24.5
153.25,65.8,23.8,23.5,37.7,24.3
153.5,66.0,23.4,23.3,37.5,24.6
153.75,65.1,23.3,23.5,37.3,24.1
154.0,64.9,23.4,23.0,37.1,24.1
154.25,64.3,23.2,22.9,36.8,23.8
154.5,63.5,23.0,22.7,36.4,23.4
154.75,63.5,22.8,22.4,36.3,23.6
155.0,63.0,22.8,21.9,35.9,23.5
155.25,62.3,22.8,21.8,35.6,23.1
155.5,61.5,22.1,21.9,35.1,22.8
155.75,60.6,21.8,21.8,34.7,22.4
156.0,61.9,22.1,21.6,35.2,23.1
156.25,60.6,21.7,21.3,34.6,22.6
156.5,60.1,21.5,21.3,34.3,22.3
156.75,60.1,21.5,21.4,34.4,22.3
157.0,59.6,21.4,21.2,34.0,22.1
157.25,59.0,21.3,20.7,33.7,21.9
157.5,58.9,20.7,20.7,33.4,22.0
157.75,58.1,21.0,20.6,33.2,21.5
158.0,58.5,21.2,20.4,33.4,21.8
158.25,57.5,20.9,20.2,32.9,21.3
158.5,57.5,20.8,20.0,32.7,21.4
158.75,56.8,20.6,20.4,32.6,21.0
159.0,56.5,20.6,19.9,32.3,20.9
159.25,57.0,20.8,19.9,32.6,21.1
159.5,56.0,20.3,19.9,32.0,20.8
159.75,56.1,20.5,20.0,32.2,20.7
160.0,56.1,20.5,19.6,32.1,20.8
160.25,54.9,20.0,20.0,31.6,20.2
160.5,56.2,20.1,19.4,31.9,21.1
160.75,54.7,19.6,19.5,31.2,20.3
161.0,54.6,19.5,19.1,31.1,20.4
161.25,54.5,19.4,19.1,31.0,20.3
161.5,54.6,19.2,19.0,30.9,20.5
161.75,53.7,18.9,18.7,30.5,20.2
162.0,53.4,18.8,18.9,30.4,20.0
162.25,53.4,18.8,18.7,30.3,20.0
162.5,53.8,18.6,18.5,30.3,20.3
162.75,53.4,18.2,18.6,30.0,20.2
163.0,52.9,18.1,18.2,29.7,20.1
163.25,52.4,17.9,18.2,29.5,19.8
163.5,51.3,18.0,18.2,29.2,19.1
163.75,51.2,17.8,17.8,28.9,19.3
164.0,51.1,17.6,17.8,28.8,19.3
164.25,51.0,17.6,17.6,28.7,19.3
164.5,50.9,17.4,17.6,28.6,19.3
164.75,50.5,17.1,17.5,28.4,19.2
165.0,49.3,16.9,17.1,27.7,18.6
165.25,49.2,17.0,16.6,27.6,18.7
165.5,49.1,16.6,16.7,27.5,18.8
165.75,49.2,16.4,16.2,27.3,19.0
166.0,49.0,16.4,16.2,27.2,18.9
166.25,48.6,16.3,16.1,27.0,18.7
166.5,48.6,16.1,15.9,26.9,18.8
166.75,48.3,16.2,16.0,26.8,18.6
167.0,48.4,16.0,15.7,26.7,18.8
167.25,48.0,16.0,15.5,26.5,18.7
167.5,47.9,16.0,15.2,26.4,18.6
167.75,48.2,15.9,15.2,26.4,18.9
168.0,47.7,15.7,14.8,26.1,18.7
168.25,47.0,15.7,14.5,25.8,18.4
168.5,47.0,15.7,14.4,25.7,18.5
168.75,47.1,15.7,14.1,25.6,18.6
169.0,46.1,15.6,13.9,25.2,18.1
169.25,46.3,15.7,13.9,25.3,18.2
169.5,45.9,15.7,13.6,25.1,18.0
169.75,45.0,15.6,13.7,24.8,17.6
170.0,45.9,15.5,13.6,25.0,18.1
170.25,45.4,15.5,13.2,24.7,18.0
170.5,44.5,15.5,13.3,24.4,17.4
170.75,44.6,15.2,13.2,24.3,17.6
171.0,43.9,15.1,13.1,24.0,17.2
171.25,43.9,15.0,13.1,24.0,17.3
171.5,44.4,15.1,13.0,24.2,17.5
171.75,44.0,15.0,12.9,24.0,17.4
172.0,43.3,14.8,12.8,23.6,17.1
172.25,43.5,14.7,12.9,23.7,17.2
172.5,44.2,14.5,12.9,23.9,17.7
172.75,43.0,14.6,12.7,23.4,17.0
173.0,43.4,14.3,12.7,23.5,17.3
173.25,43.4,14.2,12.7,23.4,17.3
173.5,43.0,14.0,12.6,23.2,17.1
173.75,43.6,13.9,12.6,23.4,17.6
174.0,42.6,14.0,12.8,23.1,16.9
174.25,43.1,14.1,12.5,23.2,17.2
174.5,43.6,13.8,12.2,23.2,17.7
174.75,43.4,13.6,12.4,23.1,17.6
175.0,43.4,13.7,12.2,23.1,17.6
175.25,43.2,13.7,12.3,23.1,17.5
175.5,43.4,13.5,12.2,23.0,17.7
175.75,43.3,13.3,12.1,22.9,17.7
176.0,43.8,13.7,12.2,23.2,17.9
176.25,43.7,13.4,11.9,23.0,17.9
176.5,43.7,13.4,12.1,23.1,17.9
176.75,43.2,13.5,11.9,22.9,17.6
177.0,43.4,13.3,12.0,22.9,17.8
177.25,43.4,13.3,12.1,22.9,17.8
177.5,43.0,13.3,12.0,22.8,17.5
177.75,42.8,13.1,12.0,22.6,17.5
178.0,42.8,12.9,11.9,22.5,17.5
178.25,42.1,12.8,12.0,22.3,17.1
178.5,42.3,12.6,11.9,22.3,17.3
178.75,42.0,12.7,11.9,22.2,17.2
179.0,42.0,12.9,11.7,22.2,17.2
179.25,42.1,12.6,11.9,22.2,17.2
179.5,41.7,12.5,11.8,22.0,17.1
179.75,42.3,12.5,11.7,22.2,17.4
180.0,41.4,12.4,11.7,21.8,16.9
180.25,42.2,12.4,11.6,22.0,17.4
180.5,41.2,12.2,11.4,21.6,17.0
180.75,41.6,12.2,11.5,21.8,17.2
181.0,41.7,12.2,11.2,21.7,17.3
181.25,41.8,12.3,11.2,21.8,17.4
181.5,41.2,12.3,11.2,21.5,17.0
181.75,40.9,12.1,11.2,21.4,16.9
182.0,40.6,11.8,11.1,21.2,16.8
182.25,40.9,11.9,11.0,21.3,17.0
182.5,40.5,11.8,11.1,21.1,16.8
182.75,40.2,11.6,10.9,20.9,16.8
183.0,40.1,11.8,11.0,21.0,16.6
183.25,40.3,11.7,10.8,20.9,16.8
183.5,39.6,11.6,10.7,20.6,16.5
183.75,39.5,11.6,10.5,20.6,16.4
184.0,39.2,11.5,10.5,20.4,16.3
184.25,40.0,11.5,10.5,20.6,16.7
184.5,40.0,11.4,10.5,20.6,16.8
184.75,39.7,11.5,10.3,20.5,16.6
185.0,39.3,11.3,10.2,20.3,16.5
185.25,39.2,11.4,10.2,20.3,16.4
185.5,39.0,11.2,9.9,20.0,16.4
185.75,39.8,11.2,10.0,20.3,16.9
186.0,38.5,11.1,10.0,19.9,16.1
186.25,39.7,11.0,9.8,20.1,16.9
186.5,39.2,10.9,9.7,19.9,16.7
186.75,38.8,10.8,9.8,19.8,16.4
187.0,38.6,10.8,9.7,19.7,16.4
187.25,38.6,10.6,9.6,19.6,16.5
187.5,38.7,10.4,9.6,19.5,16.6
187.75,38.7,10.5,9.6,19.6,16.6
188.0,38.4,10.5,9.5,19.5,16.4
188.25,38.3,10.4,9.6,19.4,16.3
188.5,38.6,10.4,9.8,19.6,16.5
188.75,38.5,10.3,9.8,19.6,16.4
189.0,38.0,10.3,9.9,19.4,16.1
189.25,38.5,10.3,10.0,19.6,16.4
189.5,38.0,10.3,10.1,19.5,16.0
189.75,37.8,10.2,10.4,19.5,15.9
190.0,38.6,10.2,10.5,19.7,16.3
190.25,37.9,10.3,10.5,19.6,15.9
190.5,38.4,10.3,10.7,19.8,16.1
190.75,38.4,10.2,10.8,19.8,16.1
191.0,38.2,10.1,10.9,19.7,16.0
191.25,38.0,10.2,10.9,19.7,15.9
191.5,38.2,10.1,11.0,19.7,16.0
191.75,38.1,10.2,11.2,19.8,15.8
192.0,37.7,10.1,11.2,19.7,15.6
192.25,38.0,9.9,11.4,19.8,15.8
192.5,37.8,10.1,11.7,19.9,15.6
192.75,38.9,10.1,11.5,20.2,16.2
193.0,37.5,10.1,,23.8,19.4
193.25,37.7,10.0,,23.9,19.6
193.5,38.1,10.0,,24.1,19.9
193.75,38.0,10.2,,24.1,19.6
194.0,38.1,10.3,,24.2,19.6
194.25,37.5,10.3,,23.9,19.2
194.5,37.5,10.6,,24.0,19.0
194.75,37.9,10.6,,24.3,19.4
195.0,37.7,10.6,,24.1,19.1
195.25,37.5,10.6,,24.0,19.0
195.5,37.5,10.6,,24.1,19.0
195.75,37.4,10.8,,24.1,18.8
196.0,37.7,10.7,,24.2,19.1
196.25,37.0,10.8,,23.9,18.5
196.5,37.4,10.7,,24.0,18.8
196.75,36.4,10.8,,23.6,18.1
197.0,36.3,10.8,,23.5,18.0
197.25,36.3,10.9,,23.6,18.0
197.5,37.1,10.7,,23.9,18.7
197.75,36.3,10.7,,23.5,18.2
198.0,35.6,10.7,,23.1,17.6
198.25,35.6,10.7,,23.1,17.6
198.5,35.8,10.6,,23.2,17.8
198.75,36.0,10.5,,23.3,18.0
199.0,35.7,10.5,,23.1,17.8
199.25,35.4,10.5,,22.9,17.6
199.5,35.6,10.4,,23.0,17.8
199.75,35.3,10.3,,22.8,17.7
200.0,35.1,10.3,,22.7,17.5
200.25,35.1,10.2,,22.7,17.6
200.5,34.9,10.3,,22.6,17.4
200.75,35.2,10.3,,22.7,17.6
201.0,35.8,10.2,,23.0,18.1
201.25,35.2,10.2,,22.7,17.6
201.5,34.5,10.3,,22.4,17.1
201.75,35.0,10.2,,22.6,17.6
202.0,34.9,10.2,,22.5,17.5
202.25,34.7,10.2,,22.4,17.3
202.5,34.5,10.1,,22.3,17.3
202.75,34.3,10.1,,22.2,17.1
203.0,34.5,10.1,,22.3,17.3
203.25,34.3,10.1,,22.2,17.1
203.5,34.5,10.1,,22.3,17.3
203.75,35.0,10.2,,22.6,17.5
204.0,34.2,10.1,,22.2,17.1
204.25,34.9,10.0,,22.4,17.7
204.5,34.3,10.1,,22.2,17.1
204.75,34.0,10.0,,22.0,17.0
205.0,34.1,9.8,,21.9,17.2
205.25,33.4,9.6,,21.5,16.8
205.5,33.2,9.5,,21.4,16.7
205.75,33.4,9.4,,21.4,17.0
206.0,33.4,9.4,,21.4,17.0
206.25,32.9,9.4,,21.2,16.7
206.5,33.2,9.1,,21.1,17.1
206.75,32.8,9.1,,20.9,16.8
207.0,32.8,9.0,,20.9,16.8
207.25,32.5,8.9,,20.7,16.7
207.5,32.5,9.0,,20.7,16.6
207.75,32.2,8.8,,20.5,16.6
208.0,32.1,8.9,,20.5,16.4
208.25,32.6,8.8,,20.7,16.8
208.5,32.5,8.9,,20.7,16.7
208.75,32.0,8.8,,20.4,16.4
209.0,32.2,8.8,,20.5,16.5
209.25,32.1,8.7,,20.4,16.6
209.5,32.2,8.8,,20.5,16.6
209.75,31.4,8.7,,20.1,16.1
210.0,31.8,8.8,,20.3,16.2
210.25,31.6,8.7,,20.1,16.2
210.5,31.6,8.6,,20.1,16.2
210.75,31.2,8.7,,19.9,15.9
211.0,31.6,8.7,,20.1,16.2
211.25,31.1,8.7,,19.9,15.8
211.5,31.3,8.6,,20.0,16.1
211.75,31.2,8.6,,19.9,16.0
212.0,30.6,8.6,,19.6,15.6
212.25,30.6,8.5,,19.5,15.6
212.5,30.4,8.5,,19.5,15.5
212.75,30.3,8.5,,19.4,15.4
213.0,30.5,8.5,,19.5,15.6
213.25,30.4,8.5,,19.5,15.5
213.5,30.4,8.6,,19.5,15.5
213.75,30.3,8.5,,19.4,15.4
214.0,30.2,8.5,,19.3,15.3
214.25,30.2,8.5,,19.4,15.3
214.5,30.1,8.5,,19.3,15.3
214.75,29.8,8.5,,19.1,15.1
215.0,29.5,8.6,,19.0,14.8
215.25,29.6,8.5,,19.0,14.9
215.5,29.2,8.7,,18.9,14.5
215.75,29.5,8.5,,19.0,14.9
216.0,29.1,8.4,,18.7,14.6
216.25,29.1,8.5,,18.8,14.6
216.5,29.0,8.4,,18.7,14.6
216.75,29.1,8.4,,18.7,14.7
217.0,28.9,8.4,,18.6,14.5
217.25,29.0,8.3,,18.6,14.6
217.5,28.6,8.3,,18.4,14.3
217.75,28.7,8.3,,18.5,14.4
218.0,28.3,8.3,,18.3,14.1
218.25,28.1,8.1,,18.1,14.1
218.5,28.2,8.1,,18.2,14.2
218.75,27.7,8.3,,18.0,13.7
219.0,27.4,8.3,,17.8,13.5
219.25,27.5,8.3,,17.9,13.6
219.5,27.4,8.3,,17.8,13.5
219.75,27.7,8.3,,18.0,13.7
220.0,27.1,8.1,,17.6,13.5
220.25,27.2,8.1,,17.7,13.5
220.5,27.2,8.2,,17.7,13.4
220.75,26.7,8.2,,17.5,13.1
221.0,26.9,8.0,,17.5,13.3
221.25,26.5,8.2,,17.3,12.9
221.5,26.5,8.1,,17.3,13.0
221.75,26.5,8.2,,17.3,13.0
222.0,26.1,8.3,,17.2,12.6
222.25,25.9,8.2,,17.0,12.5
222.5,26.3,8.2,,17.3,12.8
222.75,25.5,8.1,,16.8,12.3
223.0,25.5,7.9,,16.7,12.5
223.25,25.5,7.8,,16.6,12.5
223.5,25.1,7.7,,16.4,12.3
223.75,25.2,7.8,,16.5,12.3
224.0,24.6,7.8,,16.2,11.9
224.25,25.0,7.8,,16.4,12.2
224.5,24.9,7.8,,16.3,12.1
224.75,25.0,8.0,,16.5,12.0
225.0,24.5,7.9,,16.2,11.7
225.25,24.3,8.0,,16.1,11.5
225.5,24.3,7.9,,16.1,11.6
225.75,24.2,7.9,,16.1,11.5
226.0,24.0,8.0,,16.0,11.3
226.25,23.8,8.0,,15.9,11.1
226.5,23.8,8.0,,15.9,11.2
226.75,23.9,8.0,,16.0,11.2
227.0,23.8,8.0,,15.9,11.1
227.25,23.4,8.0,,15.7,10.9
227.5,23.3,8.1,,15.7,10.7
227.75,23.0,8.1,,15.6,10.6
228.0,23.0,8.2,,15.6,10.4
228.25,22.9,8.3,,15.6,10.3
228.5,22.7,8.3,,15.5,10.2
228.75,22.4,8.4,,15.4,9.8
229.0,22.3,8.5,,15.4,9.7
229.25,21.9,8.7,,15.3,9.4
229.5,21.9,8.6,,15.2,9.4
229.75,21.9,8.5,,15.2,9.5
230.0,22.2,8.6,,15.4,9.7
230.25,21.8,8.7,,15.2,9.3
230.5,21.6,8.6,,15.1,9.2
230.75,21.4,8.7,,15.1,9.0
231.0,21.3,8.7,,15.0,8.9
231.25,21.3,8.8,,15.0,8.9
231.5,21.5,9.1,,15.3,8.8
231.75,21.0,9.1,,15.0,8.5
232.0,21.1,9.3,,15.2,8.3
232.25,21.1,9.3,,15.2,8.4
232.5,21.4,9.3,,15.4,8.6
232.75,21.2,9.5,,15.3,8.3
233.0,21.2,9.4,,15.3,8.3
233.25,21.2,9.5,,15.4,8.3
233.5,20.9,9.6,,15.3,8.0
233.75,21.1,9.6,,15.4,8.2
234.0,20.9,9.7,,15.3,7.9
234.25,20.8,9.7,,15.2,7.9
234.5,20.7,9.7,,15.2,7.8
234.75,20.3,9.8,,15.1,7.5
235.0,20.4,9.8,,15.1,7.5
235.25,20.5,9.7,,15.1,7.6
235.5,20.4,9.9,,15.1,7.4
235.75,20.3,9.8,,15.1,7.4
236.0,20.0,9.8,,14.9,7.2
236.25,20.3,9.9,,15.1,7.3
236.5,19.9,9.9,,14.9,7.1
236.75,19.8,10.0,,14.9,6.9
237.0,19.6,9.8,,14.7,7.0
237.25,19.6,9.9,,14.8,6.8
237.5,19.6,9.8,,14.7,6.9
237.75,19.2,9.6,,14.4,6.8
238.0,19.1,9.7,,14.4,6.6
238.25,19.2,9.8,,14.5,6.6
238.5,19.0,9.6,,14.3,6.6
238.75,19.1,9.6,,14.4,6.7
239.0,19.1,9.6,,14.3,6.7
239.25,18.8,9.6,,14.2,6.5
239.5,18.9,9.5,,14.2,6.7
239.75,18.8,9.4,,14.1,6.6
240.0,18.9,9.4,,14.1,6.7
240.25,18.6,9.5,,14.1,6.5
240.5,18.8,9.5,,14.2,6.6
240.75,18.8,9.5,,14.1,6.5
241.0,18.8,9.5,,14.1,6.6
241.25,18.6,9.4,,14.0,6.5
241.5,18.6,9.4,,14.0,6.5
241.75,18.4,9.4,,13.9,6.4
242.0,18.7,9.3,,14.0,6.6
242.25,18.6,9.3,,14.0,6.6
242.5,18.8,9.3,,14.1,6.7
242.75,18.5,9.4,,13.9,6.4
243.0,18.3,9.3,,13.8,6.3
243.25,18.2,9.3,,13.7,6.3
243.5,18.0,9.3,,13.7,6.2
243.75,17.9,9.3,,13.6,6.1
244.0,17.7,9.3,,13.5,5.9
244.25,17.3,9.3,,13.3,5.6
244.5,17.3,9.4,,13.3,5.6
244.75,17.3,9.3,,13.3,5.6
245.0,17.0,9.4,,13.2,5.4
245.25,17.1,9.3,,13.2,5.5
245.5,16.8,9.3,,13.1,5.3
245.75,16.5,9.3,,12.9,5.1
246.0,16.6,9.4,,13.0,5.1
246.25,16.6,9.3,,12.9,5.1
246.5,16.4,9.3,,12.9,5.0
246.75,16.4,9.3,,12.8,5.0
247.0,16.1,9.3,,12.7,4.8
247.25,16.0,9.3,,12.7,4.7
247.5,16.0,9.3,,12.7,4.7
247.75,15.9,9.3,,12.6,4.7
248.0,15.7,9.5,,12.6,4.3
248.25,15.6,9.5,,12.5,4.3
248.5,15.4,9.3,,12.3,4.3
248.75,15.5,9.2,,12.3,4.4
249.0,15.3,9.4,,12.3,4.2
249.25,15.3,9.4,,12.4,4.2
249.5,15.1,9.3,,12.2,4.1
249.75,15.2,9.3,,12.2,4.1
250.0,14.9,9.3,,12.1,4.0
250.25,15.2,9.4,,12.3,4.1
250.5,15.1,9.3,,12.2,4.1
250.75,15.1,9.3,,12.2,4.1
251.0,14.9,9.4,,12.2,3.9
251.25,14.9,9.3,,12.1,3.9
251.5,14.9,9.3,,12.1,3.9
251.75,14.8,9.1,,12.0,4.0
252.0,14.7,9.0,,11.9,4.1
252.25,14.5,9.0,,11.8,3.9
252.5,14.5,8.9,,11.7,3.9
252.75,14.4,8.8,,11.6,3.9
253.0,14.3,8.8,,11.6,3.8
253.25,14.0,9.0,,11.5,3.6
253.5,14.1,8.8,,11.5,3.8
253.75,14.3,8.8,,11.5,3.9
254.0,14.0,8.8,,11.4,3.7
254.25,13.8,8.8,,11.3,3.6
254.5,13.9,8.8,,11.3,3.6
254.75,13.7,8.7,,11.2,3.5
255.0,14.0,8.7,,11.4,3.8
255.25,13.8,8.6,,11.2,3.7
255.5,13.7,8.8,,11.3,3.5
255.75,13.9,8.6,,11.2,3.7
256.0,13.7,8.6,,11.1,3.6
256.25,13.9,8.7,,11.3,3.7
256.5,13.7,8.7,,11.2,3.6
256.75,13.8,8.6,,11.2,3.7
257.0,13.7,8.6,,11.1,3.6
257.25,13.5,8.6,,11.0,3.4
257.5,13.5,8.6,,11.0,3.5
257.75,13.4,8.5,,11.0,3.4
258.0,13.4,8.6,,11.0,3.4
258.25,13.1,8.5,,10.8,3.2
258.5,13.1,8.5,,10.8,3.3
258.75,13.1,8.5,,10.8,3.3
259.0,13.0,8.4,,10.7,3.2
259.25,12.8,8.5,,10.6,3.0
259.5,12.9,8.2,,10.6,3.3
259.75,12.8,8.2,,10.5,3.3
260.0,12.7,8.0,,10.4,3.3
260.25,12.7,7.9,,10.3,3.4
260.5,12.7,7.8,,10.3,3.5
260.75,12.7,7.8,,10.3,3.5
261.0,12.6,7.6,,10.1,3.6
261.25,12.6,7.5,,10.1,3.6
261.5,12.6,7.6,,10.1,3.5
261.75,12.7,7.6,,10.2,3.6
262.0,12.5,7.8,,10.1,3.3
262.25,12.5,7.8,,10.2,3.3
262.5,12.6,7.8,,10.2,3.4
262.75,12.7,7.7,,10.2,3.5
263.0,12.4,7.9,,10.2,3.2
263.25,12.6,7.9,,10.2,3.3
263.5,12.4,7.9,,10.2,3.2
263.75,12.2,8.0,,10.1,3.0
264.0,12.1,8.0,,10.0,2.9
264.25,12.1,8.0,,10.0,2.8
264.5,11.9,8.0,,10.0,2.8
264.75,11.9,8.2,,10.1,2.7
265.0,11.8,8.1,,9.9,2.7
265.25,11.7,8.0,,9.9,2.6
265.5,11.8,8.0,,9.9,2.7
265.75,11.7,8.1,,9.9,2.6
266.0,11.5,8.2,,9.8,2.4
266.25,11.9,8.1,,10.0,2.7
266.5,12.1,8.0,,10.1,2.9
266.75,12.2,8.2,,10.2,2.8
267.0,12.5,8.2,,10.3,3.0
267.25,12.5,8.3,,10.4,3.0
267.5,12.7,8.4,,10.5,3.1
267.75,12.7,8.5,,10.6,3.0
268.0,12.9,8.6,,10.8,3.1
268.25,12.5,8.7,,10.6,2.7
268.5,12.8,8.7,,10.7,2.9
268.75,12.9,8.9,,10.9,2.8
269.0,12.8,8.9,,10.9,2.8
269.25,12.8,9.0,,10.9,2.7
269.5,12.8,9.1,,10.9,2.6
269.75,12.7,9.2,,10.9,2.5
270.0,13.0,9.2,,11.1,2.7
270.25,12.9,9.3,,11.1,2.5
270.5,12.8,9.3,,11.0,2.5
270.75,12.7,9.4,,11.0,2.3
271.0,12.8,9.4,,11.1,2.4
271.25,12.7,9.4,,11.0,2.3
271.5,12.7,9.4,,11.1,2.3
271.75,12.7,9.5,,11.1,2.3
272.0,12.6,9.5,,11.1,2.2
272.25,12.7,9.5,,11.1,2.3
272.5,12.8,9.6,,11.2,2.3
272.75,12.8,9.5,,11.1,2.3
273.0,12.7,9.5,,11.1,2.3
273.25,12.7,9.6,,11.1,2.2
273.5,12.9,9.5,,11.2,2.4
273.75,12.9,9.7,,11.3,2.2
274.0,12.7,9.6,,11.2,2.2
274.25,12.7,9.7,,11.2,2.1
274.5,12.7,9.7,,11.2,2.1
274.75,12.6,9.6,,11.1,2.1
275.0,12.7,9.6,,11.2,2.2
275.25,12.5,9.5,,11.0,2.1
275.5,12.6,9.5,,11.1,2.1
275.75,12.4,9.7,,11.0,2.0
276.0,12.8,9.7,,11.2,2.2
276.25,12.6,9.6,,11.1,2.1
276.5,12.3,9.7,,11.0,1.9
276.75,12.2,9.6,,10.9,1.8
277.0,12.1,9.6,,10.9,1.8
277.25,12.2,9.6,,10.9,1.8
277.5,12.0,9.6,,10.8,1.7
277.75,12.0,9.6,,10.8,1.7
278.0,12.0,9.5,,10.7,1.8
278.25,11.9,9.5,,10.7,1.7
278.5,11.9,9.5,,10.7,1.7
278.75,12.0,9.6,,10.8,1.7
279.0,11.7,9.6,,10.7,1.5
279.25,11.9,9.7,,10.8,1.5
279.5,11.9,9.5,,10.7,1.7
279.75,11.8,9.7,,10.7,1.5
280.0,11.4,9.5,,10.5,1.4
280.25,11.8,9.5,,10.6,1.6
280.5,11.7,9.6,,10.6,1.5
280.75,11.7,9.5,,10.6,1.6
281.0,11.9,9.5,,10.7,1.7
281.25,11.6,9.5,,10.6,1.5
281.5,11.8,9.6,,10.7,1.6
281.75,11.8,9.6,,10.7,1.6
282.0,12.0,9.5,,10.7,1.7
282.25,12.0,9.4,,10.7,1.8
282.5,12.1,9.5,,10.8,1.8
282.75,12.0,9.6,,10.8,1.7
283.0,11.9,9.5,,10.7,1.7
283.25,12.2,9.5,,10.8,1.9
283.5,12.0,9.5,,10.7,1.7
283.75,12.0,9.5,,10.7,1.8
284.0,11.9,9.8,,10.8,1.5
284.25,11.8,9.6,,10.7,1.6
284.5,11.9,9.5,,10.7,1.7
284.75,11.8,9.5,,10.6,1.6
285.0,11.8,9.6,,10.7,1.5
285.25,11.6,9.8,,10.7,1.3
285.5,11.6,9.6,,10.6,1.4
285.75,11.6,9.5,,10.6,1.5
286.0,11.6,9.6,,10.6,1.4
286.25,11.7,9.6,,10.7,1.5
286.5,11.6,9.6,,10.6,1.5
286.75,11.7,9.6,,10.7,1.5
287.0,11.7,9.6,,10.6,1.5
287.25,11.7,9.5,,10.6,1.6
287.5,11.5,9.6,,10.6,1.4
287.75,11.6,9.6,,10.6,1.4
288.0,11.6,9.5,,10.6,1.5
288.25,11.5,9.5,,10.5,1.4
288.5,11.7,9.6,,10.6,1.5
288.75,11.8,9.6,,10.7,1.6
289.0,11.6,9.6,,10.6,1.4
289.25,11.6,9.5,,10.5,1.5
289.5,11.6,9.5,,10.5,1.5
289.75,11.5,9.6,,10.5,1.3
290.0,11.4,9.5,,10.5,1.4
290.25,11.3,9.5,,10.4,1.3
290.5,11.5,9.6,,10.5,1.3
290.75,11.4,9.6,,10.5,1.3
291.0,11.3,9.6,,10.5,1.2
291.25,11.3,9.7,,10.5,1.1
291.5,11.4,9.5,,10.5,1.4
291.75,11.5,9.5,,10.5,1.4
292.0,11.3,9.7,,10.5,1.2
292.25,11.4,9.5,,10.5,1.3
292.5,11.2,9.6,,10.4,1.1
292.75,11.3,9.6,,10.5,1.3
293.0,11.2,9.6,,10.4,1.2
293.25,11.2,9.6,,10.4,1.2
293.5,11.2,9.5,,10.4,1.2
293.75,11.4,9.5,,10.4,1.4
294.0,11.2,9.6,,10.4,1.2
294.25,11.2,9.6,,10.4,1.1
294.5,10.9,9.6,,10.2,1.0
294.75,10.9,9.6,,10.2,0.9
295.0,10.9,9.5,,10.2,1.0
295.25,10.7,9.5,,10.1,0.8
295.5,10.7,9.6,,10.1,0.8
295.75,10.6,9.6,,10.1,0.7
296.0,10.5,9.6,,10.0,0.7
296.25,10.5,9.5,,10.0,0.7
296.5,10.4,9.5,,10.0,0.7
296.75,10.6,9.4,,10.0,0.8
297.0,10.6,9.6,,10.1,0.7
297.25,10.9,9.5,,10.2,1.0
297.5,10.8,9.5,,10.2,0.9
297.75,10.8,9.8,,10.3,0.7
298.0,10.8,9.7,,10.3,0.7
298.25,10.9,9.9,,10.4,0.7
298.5,10.7,10.0,,10.3,0.5
298.75,11.0,10.1,,10.5,0.6
299.0,11.0,10.0,,10.5,0.7
299.25,11.1,10.1,,10.6,0.7
299.5,11.2,10.2,,10.7,0.7
299.75,11.0,10.1,,10.6,0.7
300.0,11.1,10.2,,10.6,0.7
300.25,11.0,10.3,,10.7,0.4
300.5,11.2,10.3,,10.8,0.6
300.75,11.1,10.6,,10.8,0.3
301.0,11.1,10.7,,10.9,0.3
301.25,11.1,10.7,,10.9,0.3
301.5,11.1,10.6,,10.9,0.3
301.75,11.2,10.8,,11.0,0.3
302.0,11.0,11.0,,11.0,0.1
302.25,11.2,11.0,,11.1,0.1
302.5,11.1,11.2,,11.2,0.1
302.75,11.2,11.1,,11.2,0.0
303.0,11.1,11.2,,11.1,0.1
303.25,11.0,11.3,,11.2,0.2
303.5,11.1,11.3,,11.2,0.1
303.75,10.9,11.3,,11.1,0.3
304.0,10.8,11.4,,11.1,0.4
304.25,10.6,11.3,,10.9,0.5
304.5,10.6,11.3,,11.0,0.5
304.75,10.5,11.6,,11.1,0.8
305.0,10.5,11.5,,11.0,0.7
305.25,10.3,11.4,,10.9,0.8
305.5,10.5,11.5,,11.0,0.7
305.75,10.6,11.5,,11.1,0.7
306.0,10.4,11.5,,10.9,0.8
306.25,10.2,11.5,,10.9,0.9
306.5,10.4,11.5,,10.9,0.7
306.75,10.2,11.6,,10.9,1.0
307.0,10.3,11.6,,10.9,0.9
307.25,10.4,11.5,,10.9,0.8
307.5,10.2,11.5,,10.9,0.9
307.75,10.1,11.6,,10.8,1.0
308.0,10.4,11.6,,11.0,0.8