File: 01_Data/Pressure_Treated_Deck/FTIR/IS/Pressure_Treated_Deck_IS_S_221012_R6.dpt
7497.03,0.81074
7491.25,0.80576
7485.46,0.80161
7479.67,0.79114
7473.89,0.79888
7468.1,0.79961
7462.32,0.78687
7456.53,0.78582
7450.74,0.78697
7444.96,0.78660
7439.17,0.79062
7433.38,0.79150
7427.6,0.79302
7421.81,0.79103
7416.03,0.78863
7410.24,0.78839
7404.45,0.77910
7398.67,0.77091
7392.88,0.77178
7387.09,0.77901
7381.31,0.77891
7375.52,0.78343
7369.74,0.76783
7363.95,0.78117
7358.16,0.77677
7352.38,0.78034
7346.59,0.77641
7340.8,0.78508
7335.02,0.77820
7329.23,0.76936
7323.45,0.77386
7317.66,0.76527
7311.87,0.77759
7306.09,0.76128
7300.3,0.77452
7294.51,0.76621
7288.73,0.77668
7282.94,0.77053
7277.16,0.77296
7271.37,0.77482
7265.58,0.76183
7259.8,0.77332
7254.01,0.76895
7248.22,0.75286
7242.44,0.75934
7236.65,0.77645
7230.87,0.76891
7225.08,0.76574
7219.29,0.76600
7213.51,0.76438
7207.72,0.75413
7201.93,0.76866
7196.15,0.77128
7190.36,0.75618
7184.58,0.74980
7178.79,0.76453
7173,0.76396
7167.22,0.75593
7161.43,0.74315
7155.65,0.75098
7149.86,0.74950
7144.07,0.73887
7138.29,0.73747
7132.5,0.74308
7126.71,0.73167
7120.93,0.72628
7115.14,0.73063
7109.36,0.72272
7103.57,0.72503
7097.78,0.71566
7092,0.72076
7086.21,0.71482
7080.42,0.70984
7074.64,0.69981
7068.85,0.69814
7063.07,0.68964
7057.28,0.69233
7051.49,0.68433
7045.71,0.67918
7039.92,0.67961
7034.13,0.67206
7028.35,0.66045
7022.56,0.66445
7016.78,0.66898
7010.99,0.65850
7005.2,0.65410
6999.42,0.64882
6993.63,0.64790
6987.84,0.65278
6982.06,0.63575
6976.27,0.64324
6970.49,0.64167
6964.7,0.64007
6958.91,0.64218
6953.13,0.63331
6947.34,0.62952
6941.55,0.63155
6935.77,0.63772
6929.98,0.63297
6924.2,0.63232
6918.41,0.63469
6912.62,0.63307
6906.84,0.63297
6901.05,0.62674
6895.26,0.63872
6889.48,0.63078
6883.69,0.62869
6877.91,0.63332
6872.12,0.63215
6866.33,0.63428
6860.55,0.62999
6854.76,0.63379
6848.97,0.63234
6843.19,0.63547
6837.4,0.62844
6831.62,0.63061
6825.83,0.62623
6820.04,0.62640
6814.26,0.63145
6808.47,0.63546
6802.68,0.63122
6796.9,0.62961
6791.11,0.62956
6785.33,0.62759
6779.54,0.62792
6773.75,0.62539
6767.97,0.62754
6762.18,0.63081
6756.39,0.63300
6750.61,0.63507
6744.82,0.63109
6739.04,0.63561
6733.25,0.63521
6727.46,0.63121
6721.68,0.63574
6715.89,0.63941
6710.1,0.63215
6704.32,0.63281
6698.53,0.63883
6692.75,0.64116
6686.96,0.64238
6681.17,0.64312
6675.39,0.64156
6669.6,0.64080
6663.82,0.64519
6658.03,0.64324
6652.24,0.64796
6646.46,0.64384
6640.67,0.64725
6634.88,0.64594
6629.1,0.64777
6623.31,0.64915
6617.53,0.65483
6611.74,0.64818
6605.95,0.64811
6600.17,0.65386
6594.38,0.65118
6588.59,0.65487
6582.81,0.65462
6577.02,0.65129
6571.24,0.65767
6565.45,0.66101
6559.66,0.66064
6553.88,0.65883
6548.09,0.65367
6542.3,0.65285
6536.52,0.66038
6530.73,0.65694
6524.95,0.65907
6519.16,0.65869
6513.37,0.66016
6507.59,0.65986
6501.8,0.66733
6496.01,0.65997
6490.23,0.66366
6484.44,0.66307
6478.66,0.66660
6472.87,0.65951
6467.08,0.66387
6461.3,0.66618
6455.51,0.66379
6449.72,0.66472
6443.94,0.66823
6438.15,0.66311
6432.37,0.66520
6426.58,0.66785
6420.79,0.66506
6415.01,0.66511
6409.22,0.67061
6403.43,0.66858
6397.65,0.66661
6391.86,0.66749
6386.08,0.67471
6380.29,0.67224
6374.5,0.66985
6368.72,0.66934
6362.93,0.67517
6357.14,0.67072
6351.36,0.67191
6345.57,0.67685
6339.79,0.67705
6334,0.67152
6328.21,0.67441
6322.43,0.67650
6316.64,0.67849
6310.85,0.67640
6305.07,0.67779
6299.28,0.68049
6293.5,0.67705
6287.71,0.67925
6281.92,0.68340
6276.14,0.68445
6270.35,0.68097
6264.56,0.68339
6258.78,0.68840
6252.99,0.69087
6247.21,0.68771
6241.42,0.68793
6235.63,0.69210
6229.85,0.69054
6224.06,0.69533
6218.27,0.70031
6212.49,0.70066
6206.7,0.69993
6200.92,0.70329
6195.13,0.70615
6189.34,0.70406
6183.56,0.71000
6177.77,0.70871
6171.98,0.71025
6166.2,0.71285
6160.41,0.71293
6154.63,0.71379
6148.84,0.71314
6143.05,0.71487
6137.27,0.71796
6131.48,0.71912
6125.7,0.71941
6119.91,0.71756
6114.12,0.72085
6108.34,0.72133
6102.55,0.72464
6096.76,0.71896
6090.98,0.72309
6085.19,0.72051
6079.41,0.72039
6073.62,0.72076
6067.83,0.71767
6062.05,0.71798
6056.26,0.71842
6050.47,0.71927
6044.69,0.71487
6038.9,0.71353
6033.12,0.71263
6027.33,0.71007
6021.54,0.71010
6015.76,0.70600
6009.97,0.70595
6004.18,0.70524
5998.4,0.70340
5992.61,0.70382
5986.83,0.70291
5981.04,0.70089
5975.25,0.70408
5969.47,0.69979
5963.68,0.70035
5957.89,0.70451
5952.11,0.70340
5946.32,0.70194
5940.54,0.70399
5934.75,0.70558
5928.96,0.70326
5923.18,0.70277
5917.39,0.70103
5911.6,0.69982
5905.82,0.69938
5900.03,0.69827
5894.25,0.69741
5888.46,0.69749
5882.67,0.69573
5876.89,0.69516
5871.1,0.69386
5865.31,0.69391
5859.53,0.69263
5853.74,0.69630
5847.96,0.69351
5842.17,0.69431
5836.38,0.69371
5830.6,0.69138
5824.81,0.69072
5819.02,0.69045
5813.24,0.69094
5807.45,0.68998
5801.67,0.68822
5795.88,0.69068
5790.09,0.68972
5784.31,0.68839
5778.52,0.69209
5772.73,0.69056
5766.95,0.68837
5761.16,0.69021
5755.38,0.69309
5749.59,0.69409
5743.8,0.69388
5738.02,0.69464
5732.23,0.69204
5726.44,0.69403
5720.66,0.69235
5714.87,0.69119
5709.09,0.69129
5703.3,0.69345
5697.51,0.69206
5691.73,0.69262
5685.94,0.69396
5680.15,0.69254
5674.37,0.69143
5668.58,0.69025
5662.8,0.68982
5657.01,0.69150
5651.22,0.69150
5645.44,0.69207
5639.65,0.69166
5633.87,0.69058
5628.08,0.69006
5622.29,0.69051
5616.51,0.69180
5610.72,0.69039
5604.93,0.68989
5599.15,0.69209
5593.36,0.69184
5587.58,0.69008
5581.79,0.69031
5576,0.68928
5570.22,0.69059
5564.43,0.69398
5558.64,0.69192
5552.86,0.69465
5547.07,0.69529
5541.29,0.69463
5535.5,0.69388
5529.71,0.69638
5523.93,0.69540
5518.14,0.69557
5512.35,0.69459
5506.57,0.69604
5500.78,0.69705
5495,0.69656
5489.21,0.69881
5483.42,0.70121
5477.64,0.69942
5471.85,0.69815
5466.06,0.70153
5460.28,0.70054
5454.49,0.70285
5448.71,0.70386
5442.92,0.70359
5437.13,0.70510
5431.35,0.70504
5425.56,0.70862
5419.77,0.70903
5413.99,0.70747
5408.2,0.71099
5402.42,0.71134
5396.63,0.71170
5390.84,0.71300
5385.06,0.71145
5379.27,0.71289
5373.48,0.71352
5367.7,0.71138
5361.91,0.71236
5356.13,0.71192
5350.34,0.71071
5344.55,0.70843
5338.77,0.70703
5332.98,0.70617
5327.19,0.70211
5321.41,0.69952
5315.62,0.69482
5309.84,0.68981
5304.05,0.68425
5298.26,0.67929
5292.48,0.67284
5286.69,0.66230
5280.9,0.65308
5275.12,0.64160
5269.33,0.62917
5263.55,0.61729
5257.76,0.60564
5251.97,0.59434
5246.19,0.58534
5240.4,0.57837
5234.61,0.56963
5228.83,0.56454
5223.04,0.55818
5217.26,0.55404
5211.47,0.55182
5205.68,0.55039
5199.9,0.54923
5194.11,0.54655
5188.32,0.54636
5182.54,0.54686
5176.75,0.54875
5170.97,0.55024
5165.18,0.55244
5159.39,0.55503
5153.61,0.56012
5147.82,0.56168
5142.03,0.56620
5136.25,0.56778
5130.46,0.57168
5124.68,0.57621
5118.89,0.57824
5113.1,0.58199
5107.32,0.58560
5101.53,0.58975
5095.75,0.59197
5089.96,0.59476
5084.17,0.59919
5078.39,0.60153
5072.6,0.60538
5066.81,0.60584
5061.03,0.60791
5055.24,0.61018
5049.46,0.61386
5043.67,0.61653
5037.88,0.61751
5032.1,0.61899
5026.31,0.62178
5020.52,0.62455
5014.74,0.62447
5008.95,0.62626
5003.17,0.62595
4997.38,0.62535
4991.59,0.62573
4985.81,0.62303
4980.02,0.62339
4974.23,0.62021
4968.45,0.61941
4962.66,0.61573
4956.88,0.61169
4951.09,0.60875
4945.3,0.60364
4939.52,0.60001
4933.73,0.59517
4927.94,0.58915
4922.16,0.58290
4916.37,0.57675
4910.59,0.57341
4904.8,0.56802
4899.01,0.56210
4893.23,0.55781
4887.44,0.55246
4881.65,0.54706
4875.87,0.54321
4870.08,0.53754
4864.3,0.53373
4858.51,0.53070
4852.72,0.52629
4846.94,0.52178
4841.15,0.51855
4835.36,0.51531
4829.58,0.51234
4823.79,0.50778
4818.01,0.50574
4812.22,0.50367
4806.43,0.50160
4800.65,0.50007
4794.86,0.49832
4789.07,0.49652
4783.29,0.49583
4777.5,0.49571
4771.72,0.49439
4765.93,0.49290
4760.14,0.49439
4754.36,0.49300
4748.57,0.49278
4742.78,0.49272
4737,0.49424
4731.21,0.49531
4725.43,0.49581
4719.64,0.49773
4713.85,0.49805
4708.07,0.49833
4702.28,0.49916
4696.49,0.49965
4690.71,0.50067
4684.92,0.50214
4679.14,0.50238
4673.35,0.50483
4667.56,0.50610
4661.78,0.50891
4655.99,0.51099
4650.2,0.51376
4644.42,0.51509
4638.63,0.51808
4632.85,0.51873
4627.06,0.52193
4621.27,0.52555
4615.49,0.52893
4609.7,0.53229
4603.92,0.53470
4598.13,0.53928
4592.34,0.54142
4586.56,0.54279
4580.77,0.54520
4574.98,0.54709
4569.2,0.54979
4563.41,0.55099
4557.63,0.55224
4551.84,0.55328
4546.05,0.55473
4540.27,0.55498
4534.48,0.55562
4528.69,0.55722
4522.91,0.55776
4517.12,0.55790
4511.34,0.55646
4505.55,0.55666
4499.76,0.55405
4493.98,0.55142
4488.19,0.54843
4482.4,0.54393
4476.62,0.53780
4470.83,0.53196
4465.05,0.52609
4459.26,0.51893
4453.47,0.51152
4447.69,0.50397
4441.9,0.49818
4436.11,0.48997
4430.33,0.48208
4424.54,0.47438
4418.76,0.46752
4412.97,0.46196
4407.18,0.45672
4401.4,0.45472
4395.61,0.45308
4389.82,0.45344
4384.04,0.45458
4378.25,0.45682
4372.47,0.46012
4366.68,0.46173
4360.89,0.46363
4355.11,0.46464
4349.32,0.46371
4343.53,0.46241
4337.75,0.46168
4331.96,0.46047
4326.18,0.45809
4320.39,0.45649
4314.6,0.45321
4308.82,0.45039
4303.03,0.44825
4297.24,0.44442
4291.46,0.44282
4285.67,0.44178
4279.89,0.44112
4274.1,0.44090
4268.31,0.44214
4262.53,0.44290
4256.74,0.44460
4250.95,0.44601
4245.17,0.44646
4239.38,0.44729
4233.6,0.44833
4227.81,0.44701
4222.02,0.44807
4216.24,0.44766
4210.45,0.44807
4204.66,0.44827
4198.88,0.44846
4193.09,0.44861
4187.31,0.44941
4181.52,0.44970
4175.73,0.45241
4169.95,0.45357
4164.16,0.45436
4158.37,0.45533
4152.59,0.45429
4146.8,0.45171
4141.02,0.44918
4135.23,0.44678
4129.44,0.44292
4123.66,0.43980
4117.87,0.43538
4112.09,0.43009
4106.3,0.42552
4100.51,0.42033
4094.73,0.41557
4088.94,0.40917
4083.15,0.40345
4077.37,0.39787
4071.58,0.39211
4065.8,0.38544
4060.01,0.38050
4054.22,0.37523
4048.44,0.36966
4042.65,0.36516
4036.86,0.36033
4031.08,0.35693
4025.29,0.35507
4019.51,0.35290
4013.72,0.35163
4007.93,0.35038
4002.15,0.35192
3996.36,0.35269
3990.57,0.35402
3984.79,0.35544
3979,0.35638
3973.22,0.35903
3967.43,0.36082
3961.64,0.36333
3955.86,0.36652
3950.07,0.36953
3944.28,0.37204
3938.5,0.37461
3932.71,0.37785
3926.93,0.38162
3921.14,0.38391
3915.35,0.38722
3909.57,0.39016
3903.78,0.39279
3897.99,0.39461
3892.21,0.39706
3886.42,0.39998
3880.64,0.40218
3874.85,0.40391
3869.06,0.40630
3863.28,0.40922
3857.49,0.41243
3851.7,0.41561
3845.92,0.41830
3840.13,0.42028
3834.35,0.42201
3828.56,0.42260
3822.77,0.42326
3816.99,0.42277
3811.2,0.42268
3805.41,0.42259
3799.63,0.42210
3793.84,0.42153
3788.06,0.42108
3782.27,0.42031
3776.48,0.41873
3770.7,0.41833
3764.91,0.41529
3759.12,0.41342
3753.34,0.41116
3747.55,0.40921
3741.77,0.40536
3735.98,0.40241
3730.19,0.39655
3724.41,0.39086
3718.62,0.38443
3712.83,0.37735
3707.05,0.36848
3701.26,0.35802
3695.48,0.34567
3689.69,0.33012
3683.9,0.31170
3678.12,0.29211
3672.33,0.26841
3666.54,0.24550
3660.76,0.22472
3654.97,0.20528
3649.19,0.18879
3643.4,0.17207
3637.61,0.15894
3631.83,0.14841
3626.04,0.13608
3620.25,0.12810
3614.47,0.11909
3608.68,0.11088
3602.9,0.10392
3597.11,0.09748
3591.32,0.09154
3585.54,0.08619
3579.75,0.08122
3573.97,0.07718
3568.18,0.07402
3562.39,0.07101
3556.61,0.06832
3550.82,0.06605
3545.03,0.06353
3539.25,0.06137
3533.46,0.05995
3527.68,0.05832
3521.89,0.05707
3516.1,0.05532
3510.32,0.05434
3504.53,0.05369
3498.74,0.05220
3492.96,0.05162
3487.17,0.05088
3481.39,0.05024
3475.6,0.05032
3469.81,0.04934
3464.03,0.04915
3458.24,0.04835
3452.45,0.04871
3446.67,0.04883
3440.88,0.04807
3435.1,0.04751
3429.31,0.04832
3423.52,0.04776
3417.74,0.04892
3411.95,0.04844
3406.16,0.04823
3400.38,0.04902
3394.59,0.04939
3388.81,0.04936
3383.02,0.05012
3377.23,0.04990
3371.45,0.04949
3365.66,0.04997
3359.87,0.05037
3354.09,0.05100
3348.3,0.05160
3342.52,0.05222
3336.73,0.05315
3330.94,0.05442
3325.16,0.05469
3319.37,0.05572
3313.58,0.05659
3307.8,0.05701
3302.01,0.05828
3296.23,0.05829
3290.44,0.05959
3284.65,0.05987
3278.87,0.06124
3273.08,0.06202
3267.29,0.06361
3261.51,0.06425
3255.72,0.06580
3249.94,0.06779
3244.15,0.06907
3238.36,0.07013
3232.58,0.07120
3226.79,0.07262
3221,0.07439
3215.22,0.07624
3209.43,0.07785
3203.65,0.07958
3197.86,0.08117
3192.07,0.08328
3186.29,0.08494
3180.5,0.08691
3174.71,0.08911
3168.93,0.09126
3163.14,0.09336
3157.36,0.09583
3151.57,0.09761
3145.78,0.10032
3140,0.10191
3134.21,0.10474
3128.42,0.10660
3122.64,0.10889
3116.85,0.11127
3111.07,0.11409
3105.28,0.11560
3099.49,0.11745
3093.71,0.12015
3087.92,0.12174
3082.14,0.12328
3076.35,0.12497
3070.56,0.12736
3064.78,0.12923
3058.99,0.13114
3053.2,0.13371
3047.42,0.13529
3041.63,0.13686
3035.85,0.13779
3030.06,0.13862
3024.27,0.13824
3018.49,0.13741
3012.7,0.13486
3006.91,0.13197
3001.13,0.12959
2995.34,0.12730
2989.56,0.12419
2983.77,0.11880
2977.98,0.11156
2972.2,0.10363
2966.41,0.09820
2960.62,0.09381
2954.84,0.09033
2949.05,0.08608
2943.27,0.08238
2937.48,0.08062
2931.69,0.08033
2925.91,0.08010
2920.12,0.08030
2914.33,0.08016
2908.55,0.08024
2902.76,0.08042
2896.98,0.08142
2891.19,0.08263
2885.4,0.08355
2879.62,0.08501
2873.83,0.08638
2868.04,0.08855
2862.26,0.09193
2856.47,0.09551
2850.69,0.09942
2844.9,0.10454
2839.11,0.10985
2833.33,0.11621
2827.54,0.12404
2821.75,0.13100
2815.97,0.13710
2810.18,0.14275
2804.4,0.14742
2798.61,0.15147
2792.82,0.15459
2787.04,0.15692
2781.25,0.15882
2775.46,0.16041
2769.68,0.16219
2763.89,0.16353
2758.11,0.16454
2752.32,0.16565
2746.53,0.16644
2740.75,0.16691
2734.96,0.16722
2729.17,0.16862
2723.39,0.17047
2717.6,0.17270
2711.82,0.17491
2706.03,0.17728
2700.24,0.18008
2694.46,0.18247
2688.67,0.18507
2682.88,0.18724
2677.1,0.18916
2671.31,0.19117
2665.53,0.19282
2659.74,0.19384
2653.95,0.19510
2648.17,0.19711
2642.38,0.19910
2636.59,0.20071
2630.81,0.20245
2625.02,0.20428
2619.24,0.20630
2613.45,0.20825
2607.66,0.20961
2601.88,0.21181
2596.09,0.21308
2590.3,0.21499
2584.52,0.21653
2578.73,0.21761
2572.95,0.21883
2567.16,0.21954
2561.37,0.21996
2555.59,0.22068
2549.8,0.22087
2544.02,0.22158
2538.23,0.22277
2532.44,0.22405
2526.66,0.22659
2520.87,0.22793
2515.08,0.22951
2509.3,0.23150
2503.51,0.23469
2497.73,0.23770
2491.94,0.24051
2486.15,0.24306
2480.37,0.24521
2474.58,0.24799
2468.79,0.25049
2463.01,0.25271
2457.22,0.25463
2451.44,0.25780
2445.65,0.25978
2439.86,0.26257
2434.08,0.26576
2428.29,0.26848
2422.5,0.27163
2416.72,0.27516
2410.93,0.27817
2405.15,0.28170
2399.36,0.28439
2393.57,0.28692
2387.79,0.28996
2382,0.29229
2376.21,0.29489
2370.43,0.29768
2364.64,0.29976
2358.86,0.30180
2353.07,0.30323
2347.28,0.30522
2341.5,0.30669
2335.71,0.30786
2329.92,0.30909
2324.14,0.30964
2318.35,0.30987
2312.57,0.31079
2306.78,0.31034
2300.99,0.30980
2295.21,0.30915
2289.42,0.30868
2283.63,0.30874
2277.85,0.30782
2272.06,0.30679
2266.28,0.30469
2260.49,0.30316
2254.7,0.30200
2248.92,0.30097
2243.13,0.29982
2237.34,0.29909
2231.56,0.29825
2225.77,0.29787
2219.99,0.29760
2214.2,0.29709
2208.41,0.29611
2202.63,0.29457
2196.84,0.29281
2191.05,0.28987
2185.27,0.28698
2179.48,0.28329
2173.7,0.27979
2167.91,0.27630
2162.12,0.27373
2156.34,0.27173
2150.55,0.26960
2144.76,0.26856
2138.98,0.26736
2133.19,0.26659
2127.41,0.26717
2121.62,0.26771
2115.83,0.26848
2110.05,0.26942
2104.26,0.27017
2098.47,0.27126
2092.69,0.27174
2086.9,0.27163
2081.12,0.27090
2075.33,0.26963
2069.54,0.26840
2063.76,0.26699
2057.97,0.26637
2052.19,0.26628
2046.4,0.26741
2040.61,0.26955
2034.83,0.27230
2029.04,0.27506
2023.25,0.27872
2017.47,0.28200
2011.68,0.28487
2005.9,0.28706
2000.11,0.28913
1994.32,0.29144
1988.54,0.29363
1982.75,0.29504
1976.96,0.29697
1971.18,0.29847
1965.39,0.30053
1959.61,0.30297
1953.82,0.30566
1948.03,0.30855
1942.25,0.31126
1936.46,0.31371
1930.67,0.31539
1924.89,0.31655
1919.1,0.31744
1913.32,0.31778
1907.53,0.31815
1901.74,0.31768
1895.96,0.31721
1890.17,0.31680
1884.38,0.31606
1878.6,0.31530
1872.81,0.31458
1867.03,0.31428
1861.24,0.31273
1855.45,0.31148
1849.67,0.30952
1843.88,0.30727
1838.09,0.30368
1832.31,0.30056
1826.52,0.29625
1820.74,0.29041
1814.95,0.28282
1809.16,0.27446
1803.38,0.26442
1797.59,0.25308
1791.8,0.24088
1786.02,0.22630
1780.23,0.20998
1774.45,0.19144
1768.66,0.16663
1762.87,0.14294
1757.09,0.12010
1751.3,0.10492
1745.51,0.09506
1739.73,0.09134
1733.94,0.09170
1728.16,0.09372
1722.37,0.09724
1716.58,0.10367
1710.8,0.10979
1705.01,0.11565
1699.22,0.11878
1693.44,0.11668
1687.65,0.11305
1681.87,0.10690
1676.08,0.10089
1670.29,0.09487
1664.51,0.09150
1658.72,0.09074
1652.93,0.09230
1647.15,0.09286
1641.36,0.09251
1635.58,0.09283
1629.79,0.09363
1624,0.09294
1618.22,0.09150
1612.43,0.08879
1606.64,0.08631
1600.86,0.08627
1595.07,0.08675
1589.29,0.08962
1583.5,0.09749
1577.71,0.10980
1571.93,0.12499
1566.14,0.13703
1560.35,0.14398
1554.57,0.14549
1548.78,0.14361
1543,0.13971
1537.21,0.12965
1531.42,0.11543
1525.64,0.09606
1519.85,0.07332
1514.07,0.06173
1508.28,0.06215
1502.49,0.06913
1496.71,0.07849
1490.92,0.08365
1485.13,0.08291
1479.35,0.07856
1473.56,0.07076
1467.78,0.06251
1461.99,0.06157
1456.2,0.06163
1450.42,0.06170
1444.63,0.06324
1438.84,0.06238
1433.06,0.05834
1427.27,0.05818
1421.49,0.05968
1415.7,0.06234
1409.91,0.06488
1404.13,0.06546
1398.34,0.06556
1392.55,0.06329
1386.77,0.05967
1380.98,0.05682
1375.2,0.05607
1369.41,0.05728
1363.62,0.05916
1357.84,0.06072
1352.05,0.06122
1346.26,0.06100
1340.48,0.06008
1334.69,0.05916
1328.91,0.05891
1323.12,0.05824
1317.33,0.05806
1311.55,0.05912
1305.76,0.06051
1299.97,0.06018
1294.19,0.05831
1288.4,0.05559
1282.62,0.05253
1276.83,0.05128
1271.04,0.05164
1265.26,0.05253
1259.47,0.05445
1253.68,0.05611
1247.9,0.05657
1242.11,0.05631
1236.33,0.05594
1230.54,0.05592
1224.75,0.05646
1218.97,0.05696
1213.18,0.05707
1207.39,0.05754
1201.61,0.05796
1195.82,0.05872
1190.04,0.05737
1184.25,0.05380
1178.46,0.04949
1172.68,0.04606
1166.89,0.04716
1161.1,0.04947
1155.32,0.05067
1149.53,0.04959
1143.75,0.04803
1137.96,0.04624
1132.17,0.04391
1126.39,0.04372
1120.6,0.04507
1114.81,0.04591
1109.03,0.04852
1103.24,0.04975
1097.46,0.04966
1091.67,0.05000
1085.88,0.05042
1080.1,0.05317
1074.31,0.05692
1068.52,0.06248
1062.74,0.06984
1056.95,0.07476
1051.17,0.07480
1045.38,0.07355
1039.59,0.07518
1033.81,0.08064
1028.02,0.08340
1022.24,0.08545
1016.45,0.08670
1010.66,0.08842
1004.88,0.08861
999.09,0.09063
993.304,0.09314
987.518,0.09725
981.731,0.10375
975.945,0.10836
970.159,0.11071
964.373,0.11295
958.586,0.11683
952.8,0.12141
947.014,0.12415
941.228,0.12667
935.441,0.12836
929.655,0.13083
923.869,0.13100
918.083,0.12921
912.297,0.12427
906.51,0.11679
900.724,0.11098
894.938,0.11139
889.152,0.11525
883.365,0.11882
877.579,0.11899
871.793,0.11885
866.007,0.12056
860.22,0.12235
854.434,0.12510
848.648,0.12830
842.862,0.12957
837.075,0.12784
831.289,0.12281
825.503,0.11727
819.717,0.11174
813.931,0.10957
808.144,0.10883
802.358,0.11038
796.572,0.11228
790.786,0.11197
784.999,0.10972
779.213,0.10745
773.427,0.10510
767.641,0.10289
761.854,0.10253
756.068,0.09961
750.282,0.09786
744.496,0.09621
738.709,0.09536
732.923,0.09268
727.137,0.08954
721.351,0.08803
715.565,0.08660
709.778,0.08515
703.992,0.08294
698.206,0.08239
692.42,0.08175
686.633,0.08034
680.847,0.07725
675.061,0.07355
669.275,0.07391
663.488,0.07549
657.702,0.07647
651.916,0.07638
646.13,0.07595
640.343,0.07462
634.557,0.07258
628.771,0.07139
622.985,0.07142
617.198,0.07290
611.412,0.07463
605.626,0.07699
599.84,0.07664