File: 01_Data/Pressure_Treated_Deck/FTIR/IS/Pressure_Treated_Deck_IS_S_221012_R3.dpt
7497.03,0.81341
7491.25,0.80570
7485.46,0.80427
7479.67,0.78975
7473.89,0.79885
7468.1,0.79606
7462.32,0.79310
7456.53,0.79307
7450.74,0.79654
7444.96,0.79666
7439.17,0.78526
7433.38,0.78347
7427.6,0.79527
7421.81,0.79758
7416.03,0.77527
7410.24,0.77642
7404.45,0.77964
7398.67,0.78716
7392.88,0.78687
7387.09,0.78126
7381.31,0.78537
7375.52,0.78810
7369.74,0.76837
7363.95,0.76414
7358.16,0.78388
7352.38,0.78875
7346.59,0.78384
7340.8,0.78360
7335.02,0.75892
7329.23,0.76633
7323.45,0.77262
7317.66,0.75771
7311.87,0.76004
7306.09,0.76831
7300.3,0.77614
7294.51,0.76396
7288.73,0.76675
7282.94,0.76782
7277.16,0.76547
7271.37,0.76128
7265.58,0.76189
7259.8,0.76278
7254.01,0.76362
7248.22,0.75087
7242.44,0.76495
7236.65,0.77348
7230.87,0.76104
7225.08,0.76543
7219.29,0.77342
7213.51,0.75936
7207.72,0.76070
7201.93,0.76868
7196.15,0.75077
7190.36,0.76602
7184.58,0.76171
7178.79,0.75806
7173,0.76177
7167.22,0.75031
7161.43,0.74355
7155.65,0.74374
7149.86,0.74173
7144.07,0.73938
7138.29,0.73816
7132.5,0.74443
7126.71,0.73877
7120.93,0.73462
7115.14,0.72341
7109.36,0.72370
7103.57,0.72086
7097.78,0.70874
7092,0.71306
7086.21,0.71193
7080.42,0.70333
7074.64,0.69871
7068.85,0.69084
7063.07,0.68767
7057.28,0.68277
7051.49,0.68070
7045.71,0.67871
7039.92,0.66965
7034.13,0.67169
7028.35,0.66297
7022.56,0.65556
7016.78,0.65657
7010.99,0.65031
7005.2,0.65326
6999.42,0.64427
6993.63,0.64764
6987.84,0.64511
6982.06,0.64304
6976.27,0.64238
6970.49,0.63693
6964.7,0.63186
6958.91,0.63928
6953.13,0.63697
6947.34,0.63691
6941.55,0.63408
6935.77,0.63644
6929.98,0.62859
6924.2,0.63272
6918.41,0.63014
6912.62,0.62990
6906.84,0.62904
6901.05,0.63229
6895.26,0.62828
6889.48,0.62875
6883.69,0.63095
6877.91,0.62815
6872.12,0.62867
6866.33,0.62971
6860.55,0.62767
6854.76,0.63233
6848.97,0.62850
6843.19,0.62616
6837.4,0.63453
6831.62,0.62789
6825.83,0.63092
6820.04,0.63384
6814.26,0.62470
6808.47,0.62680
6802.68,0.63434
6796.9,0.63054
6791.11,0.63149
6785.33,0.62557
6779.54,0.63371
6773.75,0.63234
6767.97,0.62574
6762.18,0.62272
6756.39,0.62924
6750.61,0.63921
6744.82,0.63472
6739.04,0.63031
6733.25,0.63065
6727.46,0.63775
6721.68,0.63755
6715.89,0.63131
6710.1,0.63344
6704.32,0.63766
6698.53,0.63969
6692.75,0.63681
6686.96,0.63301
6681.17,0.63700
6675.39,0.63886
6669.6,0.64165
6663.82,0.64379
6658.03,0.64407
6652.24,0.63726
6646.46,0.64495
6640.67,0.64412
6634.88,0.64816
6629.1,0.64405
6623.31,0.65221
6617.53,0.64821
6611.74,0.64877
6605.95,0.64210
6600.17,0.65207
6594.38,0.65417
6588.59,0.65123
6582.81,0.64955
6577.02,0.65757
6571.24,0.65690
6565.45,0.65701
6559.66,0.65828
6553.88,0.65741
6548.09,0.66124
6542.3,0.66206
6536.52,0.66285
6530.73,0.65798
6524.95,0.65495
6519.16,0.65933
6513.37,0.66048
6507.59,0.65962
6501.8,0.65988
6496.01,0.66425
6490.23,0.66206
6484.44,0.65877
6478.66,0.66448
6472.87,0.66084
6467.08,0.66437
6461.3,0.65940
6455.51,0.66157
6449.72,0.66330
6443.94,0.66478
6438.15,0.66622
6432.37,0.66711
6426.58,0.66503
6420.79,0.66359
6415.01,0.66704
6409.22,0.66945
6403.43,0.66725
6397.65,0.66666
6391.86,0.66948
6386.08,0.66900
6380.29,0.66670
6374.5,0.66843
6368.72,0.66747
6362.93,0.67209
6357.14,0.66648
6351.36,0.67610
6345.57,0.67766
6339.79,0.67757
6334,0.67462
6328.21,0.67339
6322.43,0.67158
6316.64,0.67454
6310.85,0.67386
6305.07,0.67103
6299.28,0.67496
6293.5,0.67817
6287.71,0.67921
6281.92,0.67727
6276.14,0.68169
6270.35,0.68599
6264.56,0.68075
6258.78,0.68353
6252.99,0.68538
6247.21,0.68901
6241.42,0.69361
6235.63,0.69299
6229.85,0.69109
6224.06,0.69498
6218.27,0.69537
6212.49,0.69534
6206.7,0.69977
6200.92,0.69826
6195.13,0.70342
6189.34,0.70332
6183.56,0.70254
6177.77,0.70939
6171.98,0.70786
6166.2,0.70712
6160.41,0.71155
6154.63,0.70851
6148.84,0.71360
6143.05,0.71498
6137.27,0.71332
6131.48,0.71811
6125.7,0.71402
6119.91,0.72028
6114.12,0.71827
6108.34,0.71843
6102.55,0.71718
6096.76,0.71855
6090.98,0.71688
6085.19,0.72143
6079.41,0.72031
6073.62,0.72021
6067.83,0.72022
6062.05,0.72213
6056.26,0.72021
6050.47,0.71519
6044.69,0.71484
6038.9,0.71181
6033.12,0.71307
6027.33,0.71344
6021.54,0.70991
6015.76,0.70868
6009.97,0.70593
6004.18,0.70596
5998.4,0.70464
5992.61,0.70493
5986.83,0.70128
5981.04,0.70328
5975.25,0.70115
5969.47,0.69950
5963.68,0.70078
5957.89,0.70364
5952.11,0.70203
5946.32,0.70182
5940.54,0.70593
5934.75,0.70508
5928.96,0.70367
5923.18,0.70653
5917.39,0.70340
5911.6,0.70218
5905.82,0.70127
5900.03,0.69902
5894.25,0.69758
5888.46,0.69904
5882.67,0.69847
5876.89,0.69705
5871.1,0.69594
5865.31,0.69497
5859.53,0.69660
5853.74,0.69268
5847.96,0.69514
5842.17,0.69441
5836.38,0.69245
5830.6,0.69274
5824.81,0.69399
5819.02,0.69087
5813.24,0.68984
5807.45,0.69034
5801.67,0.68807
5795.88,0.69070
5790.09,0.69198
5784.31,0.68945
5778.52,0.69220
5772.73,0.69311
5766.95,0.69287
5761.16,0.69127
5755.38,0.69303
5749.59,0.69598
5743.8,0.69373
5738.02,0.69421
5732.23,0.69393
5726.44,0.69253
5720.66,0.69518
5714.87,0.69311
5709.09,0.69460
5703.3,0.69433
5697.51,0.69253
5691.73,0.69200
5685.94,0.69256
5680.15,0.69445
5674.37,0.69188
5668.58,0.69037
5662.8,0.69132
5657.01,0.68883
5651.22,0.69301
5645.44,0.69310
5639.65,0.69163
5633.87,0.69108
5628.08,0.69041
5622.29,0.68850
5616.51,0.69195
5610.72,0.69152
5604.93,0.69174
5599.15,0.68808
5593.36,0.69148
5587.58,0.69047
5581.79,0.69012
5576,0.69055
5570.22,0.69104
5564.43,0.68805
5558.64,0.69451
5552.86,0.69252
5547.07,0.69498
5541.29,0.69562
5535.5,0.69598
5529.71,0.69501
5523.93,0.69831
5518.14,0.69697
5512.35,0.69554
5506.57,0.69741
5500.78,0.69934
5495,0.69689
5489.21,0.69878
5483.42,0.69877
5477.64,0.69927
5471.85,0.69915
5466.06,0.70061
5460.28,0.70271
5454.49,0.70275
5448.71,0.70250
5442.92,0.70347
5437.13,0.70565
5431.35,0.70756
5425.56,0.70848
5419.77,0.70808
5413.99,0.71090
5408.2,0.71036
5402.42,0.71191
5396.63,0.71167
5390.84,0.71459
5385.06,0.71223
5379.27,0.71188
5373.48,0.71028
5367.7,0.71185
5361.91,0.71345
5356.13,0.71223
5350.34,0.70973
5344.55,0.70952
5338.77,0.70648
5332.98,0.70669
5327.19,0.70262
5321.41,0.69865
5315.62,0.69447
5309.84,0.68933
5304.05,0.68260
5298.26,0.67458
5292.48,0.66833
5286.69,0.65748
5280.9,0.64766
5275.12,0.63514
5269.33,0.62332
5263.55,0.61196
5257.76,0.59827
5251.97,0.58745
5246.19,0.57714
5240.4,0.56788
5234.61,0.56129
5228.83,0.55619
5223.04,0.54862
5217.26,0.54300
5211.47,0.54197
5205.68,0.53819
5199.9,0.53707
5194.11,0.53652
5188.32,0.53805
5182.54,0.53908
5176.75,0.54065
5170.97,0.54015
5165.18,0.54372
5159.39,0.54646
5153.61,0.55092
5147.82,0.55369
5142.03,0.55635
5136.25,0.55903
5130.46,0.56192
5124.68,0.56606
5118.89,0.56927
5113.1,0.57265
5107.32,0.57704
5101.53,0.58032
5095.75,0.58262
5089.96,0.58586
5084.17,0.58853
5078.39,0.59341
5072.6,0.59527
5066.81,0.59870
5061.03,0.60103
5055.24,0.60345
5049.46,0.60703
5043.67,0.60973
5037.88,0.61252
5032.1,0.61313
5026.31,0.61571
5020.52,0.61727
5014.74,0.61998
5008.95,0.61984
5003.17,0.62096
4997.38,0.62092
4991.59,0.62269
4985.81,0.62081
4980.02,0.61895
4974.23,0.61679
4968.45,0.61410
4962.66,0.61126
4956.88,0.61009
4951.09,0.60659
4945.3,0.60236
4939.52,0.59792
4933.73,0.59269
4927.94,0.58712
4922.16,0.58272
4916.37,0.57760
4910.59,0.57404
4904.8,0.56806
4899.01,0.56274
4893.23,0.55770
4887.44,0.55218
4881.65,0.54739
4875.87,0.54270
4870.08,0.53891
4864.3,0.53482
4858.51,0.53021
4852.72,0.52558
4846.94,0.52386
4841.15,0.51817
4835.36,0.51518
4829.58,0.51075
4823.79,0.50983
4818.01,0.50721
4812.22,0.50561
4806.43,0.50243
4800.65,0.50026
4794.86,0.49940
4789.07,0.49795
4783.29,0.49774
4777.5,0.49623
4771.72,0.49521
4765.93,0.49438
4760.14,0.49466
4754.36,0.49387
4748.57,0.49444
4742.78,0.49363
4737,0.49500
4731.21,0.49524
4725.43,0.49630
4719.64,0.49701
4713.85,0.49682
4708.07,0.49825
4702.28,0.49849
4696.49,0.50051
4690.71,0.50153
4684.92,0.50078
4679.14,0.50321
4673.35,0.50429
4667.56,0.50807
4661.78,0.50837
4655.99,0.51115
4650.2,0.51387
4644.42,0.51590
4638.63,0.51835
4632.85,0.52036
4627.06,0.52327
4621.27,0.52650
4615.49,0.52915
4609.7,0.53232
4603.92,0.53589
4598.13,0.53858
4592.34,0.54136
4586.56,0.54345
4580.77,0.54565
4574.98,0.54696
4569.2,0.54965
4563.41,0.55014
4557.63,0.55127
4551.84,0.55251
4546.05,0.55375
4540.27,0.55523
4534.48,0.55636
4528.69,0.55743
4522.91,0.55754
4517.12,0.55743
4511.34,0.55717
4505.55,0.55599
4499.76,0.55481
4493.98,0.55142
4488.19,0.54768
4482.4,0.54438
4476.62,0.53856
4470.83,0.53211
4465.05,0.52607
4459.26,0.51957
4453.47,0.51208
4447.69,0.50513
4441.9,0.49737
4436.11,0.49078
4430.33,0.48293
4424.54,0.47604
4418.76,0.46829
4412.97,0.46212
4407.18,0.45757
4401.4,0.45428
4395.61,0.45362
4389.82,0.45469
4384.04,0.45568
4378.25,0.45779
4372.47,0.45997
4366.68,0.46313
4360.89,0.46452
4355.11,0.46416
4349.32,0.46401
4343.53,0.46292
4337.75,0.46274
4331.96,0.46098
4326.18,0.45831
4320.39,0.45557
4314.6,0.45385
4308.82,0.45100
4303.03,0.44762
4297.24,0.44581
4291.46,0.44358
4285.67,0.44226
4279.89,0.44153
4274.1,0.43997
4268.31,0.44219
4262.53,0.44351
4256.74,0.44453
4250.95,0.44667
4245.17,0.44752
4239.38,0.44751
4233.6,0.44827
4227.81,0.44840
4222.02,0.44792
4216.24,0.44709
4210.45,0.44677
4204.66,0.44750
4198.88,0.44851
4193.09,0.44885
4187.31,0.44921
4181.52,0.45042
4175.73,0.45228
4169.95,0.45348
4164.16,0.45366
4158.37,0.45422
4152.59,0.45218
4146.8,0.45082
4141.02,0.44944
4135.23,0.44580
4129.44,0.44275
4123.66,0.43932
4117.87,0.43497
4112.09,0.42960
4106.3,0.42524
4100.51,0.41949
4094.73,0.41434
4088.94,0.40843
4083.15,0.40191
4077.37,0.39574
4071.58,0.39094
4065.8,0.38543
4060.01,0.37957
4054.22,0.37394
4048.44,0.36929
4042.65,0.36424
4036.86,0.36059
4031.08,0.35725
4025.29,0.35445
4019.51,0.35246
4013.72,0.35111
4007.93,0.35067
4002.15,0.35119
3996.36,0.35257
3990.57,0.35358
3984.79,0.35539
3979,0.35577
3973.22,0.35754
3967.43,0.35987
3961.64,0.36249
3955.86,0.36525
3950.07,0.36799
3944.28,0.37051
3938.5,0.37382
3932.71,0.37806
3926.93,0.38037
3921.14,0.38324
3915.35,0.38643
3909.57,0.38824
3903.78,0.39103
3897.99,0.39366
3892.21,0.39605
3886.42,0.39762
3880.64,0.40057
3874.85,0.40270
3869.06,0.40500
3863.28,0.40792
3857.49,0.41024
3851.7,0.41419
3845.92,0.41602
3840.13,0.41839
3834.35,0.41932
3828.56,0.42007
3822.77,0.42130
3816.99,0.42006
3811.2,0.42009
3805.41,0.41989
3799.63,0.41986
3793.84,0.41861
3788.06,0.41815
3782.27,0.41701
3776.48,0.41569
3770.7,0.41383
3764.91,0.41241
3759.12,0.41014
3753.34,0.40853
3747.55,0.40486
3741.77,0.40087
3735.98,0.39782
3730.19,0.39176
3724.41,0.38554
3718.62,0.37920
3712.83,0.37211
3707.05,0.36194
3701.26,0.35123
3695.48,0.33904
3689.69,0.32403
3683.9,0.30382
3678.12,0.28435
3672.33,0.26063
3666.54,0.23645
3660.76,0.21652
3654.97,0.19772
3649.19,0.18050
3643.4,0.16516
3637.61,0.15206
3631.83,0.14166
3626.04,0.13096
3620.25,0.12231
3614.47,0.11343
3608.68,0.10701
3602.9,0.10001
3597.11,0.09466
3591.32,0.08888
3585.54,0.08373
3579.75,0.07941
3573.97,0.07636
3568.18,0.07232
3562.39,0.06904
3556.61,0.06653
3550.82,0.06491
3545.03,0.06246
3539.25,0.06064
3533.46,0.05864
3527.68,0.05705
3521.89,0.05642
3516.1,0.05487
3510.32,0.05411
3504.53,0.05323
3498.74,0.05166
3492.96,0.05097
3487.17,0.05029
3481.39,0.05006
3475.6,0.04935
3469.81,0.04882
3464.03,0.04812
3458.24,0.04734
3452.45,0.04780
3446.67,0.04798
3440.88,0.04797
3435.1,0.04764
3429.31,0.04816
3423.52,0.04773
3417.74,0.04767
3411.95,0.04785
3406.16,0.04854
3400.38,0.04825
3394.59,0.04919
3388.81,0.04930
3383.02,0.04949
3377.23,0.04943
3371.45,0.04881
3365.66,0.04960
3359.87,0.05044
3354.09,0.05082
3348.3,0.05166
3342.52,0.05192
3336.73,0.05321
3330.94,0.05386
3325.16,0.05453
3319.37,0.05577
3313.58,0.05628
3307.8,0.05739
3302.01,0.05778
3296.23,0.05795
3290.44,0.05887
3284.65,0.05923
3278.87,0.06069
3273.08,0.06199
3267.29,0.06247
3261.51,0.06407
3255.72,0.06493
3249.94,0.06724
3244.15,0.06765
3238.36,0.06911
3232.58,0.07063
3226.79,0.07212
3221,0.07349
3215.22,0.07565
3209.43,0.07709
3203.65,0.07816
3197.86,0.08009
3192.07,0.08170
3186.29,0.08370
3180.5,0.08611
3174.71,0.08756
3168.93,0.09003
3163.14,0.09126
3157.36,0.09362
3151.57,0.09581
3145.78,0.09817
3140,0.10051
3134.21,0.10284
3128.42,0.10431
3122.64,0.10661
3116.85,0.10865
3111.07,0.11062
3105.28,0.11356
3099.49,0.11520
3093.71,0.11763
3087.92,0.11883
3082.14,0.12080
3076.35,0.12276
3070.56,0.12411
3064.78,0.12725
3058.99,0.12863
3053.2,0.13080
3047.42,0.13294
3041.63,0.13457
3035.85,0.13551
3030.06,0.13669
3024.27,0.13611
3018.49,0.13531
3012.7,0.13338
3006.91,0.13066
3001.13,0.12848
2995.34,0.12634
2989.56,0.12290
2983.77,0.11790
2977.98,0.11087
2972.2,0.10332
2966.41,0.09753
2960.62,0.09370
2954.84,0.08934
2949.05,0.08556
2943.27,0.08258
2937.48,0.08109
2931.69,0.07987
2925.91,0.07987
2920.12,0.07994
2914.33,0.08029
2908.55,0.08028
2902.76,0.08026
2896.98,0.08159
2891.19,0.08266
2885.4,0.08402
2879.62,0.08519
2873.83,0.08676
2868.04,0.08929
2862.26,0.09171
2856.47,0.09442
2850.69,0.09882
2844.9,0.10391
2839.11,0.10947
2833.33,0.11597
2827.54,0.12379
2821.75,0.13074
2815.97,0.13716
2810.18,0.14224
2804.4,0.14660
2798.61,0.14999
2792.82,0.15348
2787.04,0.15615
2781.25,0.15832
2775.46,0.16000
2769.68,0.16144
2763.89,0.16260
2758.11,0.16386
2752.32,0.16452
2746.53,0.16488
2740.75,0.16534
2734.96,0.16623
2729.17,0.16809
2723.39,0.16914
2717.6,0.17173
2711.82,0.17397
2706.03,0.17665
2700.24,0.17925
2694.46,0.18162
2688.67,0.18420
2682.88,0.18652
2677.1,0.18823
2671.31,0.19000
2665.53,0.19167
2659.74,0.19296
2653.95,0.19464
2648.17,0.19611
2642.38,0.19778
2636.59,0.19974
2630.81,0.20172
2625.02,0.20364
2619.24,0.20513
2613.45,0.20748
2607.66,0.20964
2601.88,0.21098
2596.09,0.21255
2590.3,0.21437
2584.52,0.21530
2578.73,0.21674
2572.95,0.21772
2567.16,0.21851
2561.37,0.21917
2555.59,0.21970
2549.8,0.22024
2544.02,0.22109
2538.23,0.22203
2532.44,0.22373
2526.66,0.22507
2520.87,0.22734
2515.08,0.22901
2509.3,0.23130
2503.51,0.23351
2497.73,0.23669
2491.94,0.23970
2486.15,0.24214
2480.37,0.24468
2474.58,0.24697
2468.79,0.24955
2463.01,0.25163
2457.22,0.25415
2451.44,0.25694
2445.65,0.25959
2439.86,0.26197
2434.08,0.26472
2428.29,0.26759
2422.5,0.27088
2416.72,0.27403
2410.93,0.27725
2405.15,0.28026
2399.36,0.28345
2393.57,0.28611
2387.79,0.28867
2382,0.29110
2376.21,0.29335
2370.43,0.29600
2364.64,0.29759
2358.86,0.30005
2353.07,0.30134
2347.28,0.30330
2341.5,0.30434
2335.71,0.30561
2329.92,0.30690
2324.14,0.30754
2318.35,0.30823
2312.57,0.30834
2306.78,0.30826
2300.99,0.30727
2295.21,0.30703
2289.42,0.30664
2283.63,0.30656
2277.85,0.30566
2272.06,0.30444
2266.28,0.30255
2260.49,0.30082
2254.7,0.29936
2248.92,0.29820
2243.13,0.29725
2237.34,0.29626
2231.56,0.29563
2225.77,0.29498
2219.99,0.29493
2214.2,0.29401
2208.41,0.29321
2202.63,0.29151
2196.84,0.28924
2191.05,0.28656
2185.27,0.28334
2179.48,0.28006
2173.7,0.27642
2167.91,0.27309
2162.12,0.27075
2156.34,0.26856
2150.55,0.26638
2144.76,0.26516
2138.98,0.26362
2133.19,0.26363
2127.41,0.26367
2121.62,0.26419
2115.83,0.26543
2110.05,0.26660
2104.26,0.26692
2098.47,0.26757
2092.69,0.26812
2086.9,0.26875
2081.12,0.26783
2075.33,0.26618
2069.54,0.26508
2063.76,0.26402
2057.97,0.26308
2052.19,0.26331
2046.4,0.26459
2040.61,0.26669
2034.83,0.26902
2029.04,0.27245
2023.25,0.27548
2017.47,0.27922
2011.68,0.28187
2005.9,0.28428
2000.11,0.28607
1994.32,0.28836
1988.54,0.29053
1982.75,0.29192
1976.96,0.29358
1971.18,0.29535
1965.39,0.29738
1959.61,0.30008
1953.82,0.30247
1948.03,0.30546
1942.25,0.30841
1936.46,0.31077
1930.67,0.31209
1924.89,0.31382
1919.1,0.31467
1913.32,0.31489
1907.53,0.31505
1901.74,0.31492
1895.96,0.31428
1890.17,0.31387
1884.38,0.31333
1878.6,0.31246
1872.81,0.31224
1867.03,0.31169
1861.24,0.31042
1855.45,0.30864
1849.67,0.30683
1843.88,0.30482
1838.09,0.30123
1832.31,0.29828
1826.52,0.29423
1820.74,0.28802
1814.95,0.28092
1809.16,0.27240
1803.38,0.26340
1797.59,0.25232
1791.8,0.23989
1786.02,0.22565
1780.23,0.20938
1774.45,0.19138
1768.66,0.16714
1762.87,0.14312
1757.09,0.12060
1751.3,0.10558
1745.51,0.09556
1739.73,0.09148
1733.94,0.09096
1728.16,0.09262
1722.37,0.09699
1716.58,0.10262
1710.8,0.10858
1705.01,0.11401
1699.22,0.11750
1693.44,0.11457
1687.65,0.11167
1681.87,0.10514
1676.08,0.09919
1670.29,0.09394
1664.51,0.08951
1658.72,0.08881
1652.93,0.09022
1647.15,0.09089
1641.36,0.09042
1635.58,0.09099
1629.79,0.09126
1624,0.09135
1618.22,0.09097
1612.43,0.08799
1606.64,0.08549
1600.86,0.08558
1595.07,0.08615
1589.29,0.08958
1583.5,0.09692
1577.71,0.10952
1571.93,0.12427
1566.14,0.13635
1560.35,0.14272
1554.57,0.14390
1548.78,0.14248
1543,0.13814
1537.21,0.12871
1531.42,0.11442
1525.64,0.09593
1519.85,0.07352
1514.07,0.06182
1508.28,0.06229
1502.49,0.06909
1496.71,0.07844
1490.92,0.08366
1485.13,0.08286
1479.35,0.07839
1473.56,0.07075
1467.78,0.06281
1461.99,0.06165
1456.2,0.06197
1450.42,0.06156
1444.63,0.06347
1438.84,0.06227
1433.06,0.05886
1427.27,0.05777
1421.49,0.05956
1415.7,0.06250
1409.91,0.06486
1404.13,0.06578
1398.34,0.06536
1392.55,0.06336
1386.77,0.06006
1380.98,0.05718
1375.2,0.05608
1369.41,0.05665
1363.62,0.05888
1357.84,0.06020
1352.05,0.06142
1346.26,0.06111
1340.48,0.05971
1334.69,0.05894
1328.91,0.05912
1323.12,0.05804
1317.33,0.05815
1311.55,0.05962
1305.76,0.06068
1299.97,0.06030
1294.19,0.05853
1288.4,0.05554
1282.62,0.05295
1276.83,0.05170
1271.04,0.05135
1265.26,0.05270
1259.47,0.05435
1253.68,0.05585
1247.9,0.05664
1242.11,0.05664
1236.33,0.05615
1230.54,0.05633
1224.75,0.05634
1218.97,0.05717
1213.18,0.05726
1207.39,0.05752
1201.61,0.05829
1195.82,0.05900
1190.04,0.05711
1184.25,0.05319
1178.46,0.04936
1172.68,0.04623
1166.89,0.04705
1161.1,0.05028
1155.32,0.05051
1149.53,0.04966
1143.75,0.04759
1137.96,0.04531
1132.17,0.04387
1126.39,0.04329
1120.6,0.04455
1114.81,0.04575
1109.03,0.04862
1103.24,0.04996
1097.46,0.04956
1091.67,0.04945
1085.88,0.04985
1080.1,0.05271
1074.31,0.05699
1068.52,0.06216
1062.74,0.06907
1056.95,0.07508
1051.17,0.07439
1045.38,0.07279
1039.59,0.07426
1033.81,0.08007
1028.02,0.08372
1022.24,0.08555
1016.45,0.08709
1010.66,0.08789
1004.88,0.08856
999.09,0.09071
993.304,0.09304
987.518,0.09696
981.731,0.10419
975.945,0.10862
970.159,0.10957
964.373,0.11270
958.586,0.11702
952.8,0.12115
947.014,0.12387
941.228,0.12590
935.441,0.12833
929.655,0.12978
923.869,0.13039
918.083,0.12899
912.297,0.12350
906.51,0.11612
900.724,0.11032
894.938,0.11096
889.152,0.11458
883.365,0.11733
877.579,0.11797
871.793,0.11899
866.007,0.11931
860.22,0.12058
854.434,0.12315
848.648,0.12719
842.862,0.12854
837.075,0.12618
831.289,0.12155
825.503,0.11590
819.717,0.10982
813.931,0.10691
808.144,0.10656
802.358,0.10847
796.572,0.11027
790.786,0.11012
784.999,0.10878
779.213,0.10570
773.427,0.10286
767.641,0.10146
761.854,0.09944
756.068,0.09718
750.282,0.09575
744.496,0.09471
738.709,0.09255
732.923,0.09025
727.137,0.08874
721.351,0.08629
715.565,0.08458
709.778,0.08376
703.992,0.08196
698.206,0.08122
692.42,0.08051
686.633,0.07756
680.847,0.07579
675.061,0.07251
669.275,0.07220
663.488,0.07234
657.702,0.07401
651.916,0.07471
646.13,0.07295
640.343,0.07279
634.557,0.07233
628.771,0.07128
622.985,0.06980
617.198,0.07182
611.412,0.07302
605.626,0.07354
599.84,0.07083