File: 01_Data/Pressure_Treated_Deck/FTIR/IS/Pressure_Treated_Deck_IS_S_221012_R5.dpt
7497.03,0.79624
7491.25,0.80593
7485.46,0.80279
7479.67,0.80619
7473.89,0.80660
7468.1,0.80628
7462.32,0.80577
7456.53,0.79248
7450.74,0.80167
7444.96,0.79323
7439.17,0.79117
7433.38,0.78401
7427.6,0.80315
7421.81,0.80333
7416.03,0.78354
7410.24,0.79206
7404.45,0.77969
7398.67,0.78735
7392.88,0.77928
7387.09,0.77749
7381.31,0.78523
7375.52,0.77551
7369.74,0.78134
7363.95,0.77013
7358.16,0.78273
7352.38,0.78428
7346.59,0.77110
7340.8,0.78349
7335.02,0.76730
7329.23,0.76267
7323.45,0.76364
7317.66,0.76238
7311.87,0.76337
7306.09,0.76341
7300.3,0.76751
7294.51,0.76659
7288.73,0.76869
7282.94,0.75584
7277.16,0.76542
7271.37,0.76549
7265.58,0.76908
7259.8,0.77081
7254.01,0.75766
7248.22,0.75990
7242.44,0.76674
7236.65,0.76832
7230.87,0.76023
7225.08,0.77126
7219.29,0.76447
7213.51,0.76955
7207.72,0.76291
7201.93,0.76622
7196.15,0.75754
7190.36,0.75746
7184.58,0.74241
7178.79,0.75492
7173,0.75307
7167.22,0.75297
7161.43,0.76126
7155.65,0.75128
7149.86,0.75094
7144.07,0.74594
7138.29,0.73810
7132.5,0.73871
7126.71,0.73864
7120.93,0.73535
7115.14,0.73347
7109.36,0.72607
7103.57,0.73066
7097.78,0.71126
7092,0.72052
7086.21,0.71000
7080.42,0.70513
7074.64,0.70196
7068.85,0.69829
7063.07,0.68328
7057.28,0.68903
7051.49,0.68481
7045.71,0.67726
7039.92,0.67502
7034.13,0.67325
7028.35,0.67250
7022.56,0.65882
7016.78,0.66246
7010.99,0.66006
7005.2,0.65022
6999.42,0.64911
6993.63,0.64752
6987.84,0.64526
6982.06,0.63779
6976.27,0.64047
6970.49,0.63702
6964.7,0.64390
6958.91,0.63590
6953.13,0.62814
6947.34,0.63782
6941.55,0.63132
6935.77,0.62926
6929.98,0.62685
6924.2,0.63502
6918.41,0.62803
6912.62,0.62837
6906.84,0.63691
6901.05,0.63011
6895.26,0.62823
6889.48,0.63138
6883.69,0.63053
6877.91,0.62856
6872.12,0.62907
6866.33,0.62840
6860.55,0.62540
6854.76,0.63279
6848.97,0.63693
6843.19,0.62871
6837.4,0.63361
6831.62,0.63022
6825.83,0.63474
6820.04,0.63379
6814.26,0.62901
6808.47,0.62871
6802.68,0.63393
6796.9,0.63011
6791.11,0.63064
6785.33,0.63272
6779.54,0.62619
6773.75,0.63156
6767.97,0.63271
6762.18,0.63014
6756.39,0.62641
6750.61,0.63247
6744.82,0.63130
6739.04,0.62743
6733.25,0.63920
6727.46,0.64302
6721.68,0.63741
6715.89,0.64024
6710.1,0.63049
6704.32,0.63798
6698.53,0.63695
6692.75,0.63608
6686.96,0.63861
6681.17,0.63601
6675.39,0.64172
6669.6,0.64575
6663.82,0.64512
6658.03,0.64631
6652.24,0.64696
6646.46,0.64927
6640.67,0.64496
6634.88,0.64944
6629.1,0.64947
6623.31,0.65148
6617.53,0.64820
6611.74,0.65510
6605.95,0.65122
6600.17,0.65213
6594.38,0.65538
6588.59,0.65624
6582.81,0.65731
6577.02,0.66074
6571.24,0.65736
6565.45,0.65795
6559.66,0.65866
6553.88,0.65820
6548.09,0.65761
6542.3,0.66512
6536.52,0.66249
6530.73,0.66336
6524.95,0.65967
6519.16,0.66031
6513.37,0.66066
6507.59,0.66283
6501.8,0.66208
6496.01,0.66143
6490.23,0.66433
6484.44,0.66581
6478.66,0.66570
6472.87,0.66620
6467.08,0.66670
6461.3,0.66992
6455.51,0.66196
6449.72,0.66522
6443.94,0.67003
6438.15,0.66799
6432.37,0.67034
6426.58,0.66196
6420.79,0.66341
6415.01,0.66866
6409.22,0.67011
6403.43,0.66965
6397.65,0.67181
6391.86,0.66816
6386.08,0.66862
6380.29,0.66786
6374.5,0.66801
6368.72,0.67073
6362.93,0.66921
6357.14,0.67152
6351.36,0.67282
6345.57,0.67370
6339.79,0.67777
6334,0.67110
6328.21,0.67365
6322.43,0.67524
6316.64,0.67709
6310.85,0.67333
6305.07,0.67765
6299.28,0.67516
6293.5,0.67673
6287.71,0.67974
6281.92,0.67891
6276.14,0.68028
6270.35,0.68290
6264.56,0.68561
6258.78,0.68735
6252.99,0.68964
6247.21,0.69190
6241.42,0.69477
6235.63,0.69163
6229.85,0.69317
6224.06,0.69470
6218.27,0.70071
6212.49,0.69917
6206.7,0.69997
6200.92,0.69956
6195.13,0.70361
6189.34,0.70482
6183.56,0.70508
6177.77,0.70537
6171.98,0.70708
6166.2,0.70957
6160.41,0.71243
6154.63,0.71305
6148.84,0.71651
6143.05,0.71661
6137.27,0.71252
6131.48,0.71544
6125.7,0.71452
6119.91,0.71825
6114.12,0.71953
6108.34,0.72177
6102.55,0.71919
6096.76,0.72101
6090.98,0.72153
6085.19,0.72206
6079.41,0.72052
6073.62,0.71901
6067.83,0.72187
6062.05,0.71709
6056.26,0.71610
6050.47,0.71828
6044.69,0.71576
6038.9,0.71899
6033.12,0.71563
6027.33,0.71556
6021.54,0.71265
6015.76,0.70786
6009.97,0.70764
6004.18,0.70588
5998.4,0.70288
5992.61,0.69986
5986.83,0.70380
5981.04,0.69930
5975.25,0.70002
5969.47,0.70570
5963.68,0.70271
5957.89,0.70253
5952.11,0.69934
5946.32,0.70178
5940.54,0.70329
5934.75,0.70132
5928.96,0.70218
5923.18,0.70122
5917.39,0.69978
5911.6,0.70024
5905.82,0.69923
5900.03,0.69662
5894.25,0.69904
5888.46,0.69598
5882.67,0.69796
5876.89,0.69343
5871.1,0.69472
5865.31,0.69633
5859.53,0.69634
5853.74,0.69619
5847.96,0.69721
5842.17,0.69628
5836.38,0.69399
5830.6,0.69324
5824.81,0.69024
5819.02,0.68965
5813.24,0.69225
5807.45,0.68860
5801.67,0.68675
5795.88,0.69038
5790.09,0.68935
5784.31,0.68930
5778.52,0.68841
5772.73,0.69158
5766.95,0.69437
5761.16,0.69311
5755.38,0.69368
5749.59,0.69471
5743.8,0.69547
5738.02,0.69117
5732.23,0.69501
5726.44,0.69300
5720.66,0.69128
5714.87,0.69358
5709.09,0.69315
5703.3,0.69228
5697.51,0.69313
5691.73,0.69248
5685.94,0.69165
5680.15,0.69196
5674.37,0.69093
5668.58,0.69002
5662.8,0.69245
5657.01,0.69106
5651.22,0.69104
5645.44,0.69062
5639.65,0.69075
5633.87,0.69165
5628.08,0.68924
5622.29,0.69210
5616.51,0.69161
5610.72,0.69041
5604.93,0.69011
5599.15,0.69159
5593.36,0.68977
5587.58,0.69285
5581.79,0.69145
5576,0.69151
5570.22,0.69269
5564.43,0.69046
5558.64,0.69459
5552.86,0.69579
5547.07,0.69623
5541.29,0.69448
5535.5,0.69529
5529.71,0.69481
5523.93,0.69487
5518.14,0.69779
5512.35,0.69570
5506.57,0.69942
5500.78,0.69836
5495,0.69967
5489.21,0.69853
5483.42,0.69875
5477.64,0.69955
5471.85,0.70031
5466.06,0.69969
5460.28,0.70141
5454.49,0.70251
5448.71,0.70162
5442.92,0.70286
5437.13,0.70402
5431.35,0.70397
5425.56,0.70631
5419.77,0.70733
5413.99,0.70748
5408.2,0.70963
5402.42,0.71169
5396.63,0.71162
5390.84,0.71199
5385.06,0.71199
5379.27,0.71223
5373.48,0.71204
5367.7,0.71124
5361.91,0.71316
5356.13,0.71105
5350.34,0.70977
5344.55,0.70766
5338.77,0.70836
5332.98,0.70449
5327.19,0.70222
5321.41,0.69724
5315.62,0.69515
5309.84,0.69004
5304.05,0.68340
5298.26,0.67801
5292.48,0.67184
5286.69,0.66132
5280.9,0.65134
5275.12,0.63951
5269.33,0.62686
5263.55,0.61782
5257.76,0.60681
5251.97,0.59440
5246.19,0.58458
5240.4,0.57575
5234.61,0.56815
5228.83,0.56085
5223.04,0.55685
5217.26,0.55182
5211.47,0.54920
5205.68,0.54662
5199.9,0.54610
5194.11,0.54472
5188.32,0.54237
5182.54,0.54670
5176.75,0.54911
5170.97,0.55005
5165.18,0.55148
5159.39,0.55357
5153.61,0.55709
5147.82,0.56119
5142.03,0.56309
5136.25,0.56594
5130.46,0.56906
5124.68,0.57422
5118.89,0.57979
5113.1,0.58041
5107.32,0.58423
5101.53,0.58756
5095.75,0.59002
5089.96,0.59360
5084.17,0.59558
5078.39,0.59890
5072.6,0.60107
5066.81,0.60487
5061.03,0.60737
5055.24,0.60986
5049.46,0.61220
5043.67,0.61520
5037.88,0.61690
5032.1,0.61899
5026.31,0.61977
5020.52,0.62110
5014.74,0.62387
5008.95,0.62537
5003.17,0.62415
4997.38,0.62488
4991.59,0.62554
4985.81,0.62413
4980.02,0.62323
4974.23,0.62153
4968.45,0.61737
4962.66,0.61520
4956.88,0.61185
4951.09,0.60755
4945.3,0.60481
4939.52,0.59871
4933.73,0.59373
4927.94,0.58905
4922.16,0.58289
4916.37,0.57873
4910.59,0.57337
4904.8,0.56692
4899.01,0.56193
4893.23,0.55727
4887.44,0.55263
4881.65,0.54847
4875.87,0.54206
4870.08,0.53788
4864.3,0.53312
4858.51,0.52987
4852.72,0.52575
4846.94,0.52178
4841.15,0.51789
4835.36,0.51496
4829.58,0.51161
4823.79,0.50874
4818.01,0.50514
4812.22,0.50306
4806.43,0.50276
4800.65,0.50018
4794.86,0.49796
4789.07,0.49825
4783.29,0.49571
4777.5,0.49476
4771.72,0.49486
4765.93,0.49441
4760.14,0.49283
4754.36,0.49358
4748.57,0.49337
4742.78,0.49327
4737,0.49377
4731.21,0.49483
4725.43,0.49446
4719.64,0.49628
4713.85,0.49668
4708.07,0.49843
4702.28,0.49856
4696.49,0.49972
4690.71,0.50093
4684.92,0.50127
4679.14,0.50292
4673.35,0.50353
4667.56,0.50539
4661.78,0.50829
4655.99,0.51075
4650.2,0.51322
4644.42,0.51633
4638.63,0.51666
4632.85,0.51989
4627.06,0.52240
4621.27,0.52608
4615.49,0.52971
4609.7,0.53257
4603.92,0.53519
4598.13,0.53836
4592.34,0.54056
4586.56,0.54309
4580.77,0.54531
4574.98,0.54730
4569.2,0.54814
4563.41,0.55078
4557.63,0.55164
4551.84,0.55344
4546.05,0.55438
4540.27,0.55581
4534.48,0.55593
4528.69,0.55757
4522.91,0.55751
4517.12,0.55718
4511.34,0.55589
4505.55,0.55519
4499.76,0.55353
4493.98,0.55189
4488.19,0.54792
4482.4,0.54413
4476.62,0.53768
4470.83,0.53207
4465.05,0.52574
4459.26,0.52001
4453.47,0.51159
4447.69,0.50361
4441.9,0.49757
4436.11,0.49011
4430.33,0.48260
4424.54,0.47476
4418.76,0.46728
4412.97,0.46197
4407.18,0.45666
4401.4,0.45373
4395.61,0.45253
4389.82,0.45323
4384.04,0.45443
4378.25,0.45701
4372.47,0.45939
4366.68,0.46199
4360.89,0.46348
4355.11,0.46473
4349.32,0.46366
4343.53,0.46213
4337.75,0.46110
4331.96,0.45992
4326.18,0.45823
4320.39,0.45593
4314.6,0.45307
4308.82,0.45057
4303.03,0.44736
4297.24,0.44565
4291.46,0.44369
4285.67,0.44197
4279.89,0.44108
4274.1,0.44089
4268.31,0.44191
4262.53,0.44317
4256.74,0.44503
4250.95,0.44611
4245.17,0.44687
4239.38,0.44709
4233.6,0.44733
4227.81,0.44805
4222.02,0.44817
4216.24,0.44844
4210.45,0.44732
4204.66,0.44782
4198.88,0.44809
4193.09,0.44866
4187.31,0.44919
4181.52,0.44988
4175.73,0.45184
4169.95,0.45356
4164.16,0.45478
4158.37,0.45362
4152.59,0.45368
4146.8,0.45260
4141.02,0.44910
4135.23,0.44702
4129.44,0.44292
4123.66,0.43936
4117.87,0.43522
4112.09,0.43042
4106.3,0.42512
4100.51,0.42000
4094.73,0.41517
4088.94,0.40933
4083.15,0.40301
4077.37,0.39729
4071.58,0.39151
4065.8,0.38558
4060.01,0.38056
4054.22,0.37487
4048.44,0.36928
4042.65,0.36445
4036.86,0.36101
4031.08,0.35683
4025.29,0.35486
4019.51,0.35238
4013.72,0.35088
4007.93,0.35110
4002.15,0.35191
3996.36,0.35228
3990.57,0.35464
3984.79,0.35574
3979,0.35657
3973.22,0.35788
3967.43,0.36030
3961.64,0.36327
3955.86,0.36624
3950.07,0.36877
3944.28,0.37189
3938.5,0.37463
3932.71,0.37747
3926.93,0.38085
3921.14,0.38403
3915.35,0.38705
3909.57,0.38928
3903.78,0.39204
3897.99,0.39409
3892.21,0.39682
3886.42,0.39988
3880.64,0.40158
3874.85,0.40364
3869.06,0.40640
3863.28,0.40937
3857.49,0.41213
3851.7,0.41554
3845.92,0.41766
3840.13,0.41974
3834.35,0.42100
3828.56,0.42140
3822.77,0.42272
3816.99,0.42241
3811.2,0.42267
3805.41,0.42261
3799.63,0.42186
3793.84,0.42077
3788.06,0.42009
3782.27,0.41985
3776.48,0.41797
3770.7,0.41703
3764.91,0.41569
3759.12,0.41299
3753.34,0.41154
3747.55,0.40843
3741.77,0.40498
3735.98,0.40131
3730.19,0.39563
3724.41,0.39005
3718.62,0.38349
3712.83,0.37603
3707.05,0.36670
3701.26,0.35666
3695.48,0.34465
3689.69,0.32973
3683.9,0.31022
3678.12,0.29005
3672.33,0.26760
3666.54,0.24346
3660.76,0.22375
3654.97,0.20379
3649.19,0.18739
3643.4,0.17132
3637.61,0.15816
3631.83,0.14731
3626.04,0.13544
3620.25,0.12692
3614.47,0.11859
3608.68,0.11040
3602.9,0.10357
3597.11,0.09696
3591.32,0.09092
3585.54,0.08524
3579.75,0.08109
3573.97,0.07716
3568.18,0.07386
3562.39,0.07064
3556.61,0.06771
3550.82,0.06556
3545.03,0.06397
3539.25,0.06127
3533.46,0.05975
3527.68,0.05822
3521.89,0.05625
3516.1,0.05538
3510.32,0.05417
3504.53,0.05350
3498.74,0.05181
3492.96,0.05158
3487.17,0.05040
3481.39,0.05014
3475.6,0.04980
3469.81,0.04907
3464.03,0.04870
3458.24,0.04778
3452.45,0.04827
3446.67,0.04760
3440.88,0.04822
3435.1,0.04848
3429.31,0.04778
3423.52,0.04821
3417.74,0.04798
3411.95,0.04891
3406.16,0.04910
3400.38,0.04912
3394.59,0.04897
3388.81,0.04962
3383.02,0.04951
3377.23,0.05002
3371.45,0.05069
3365.66,0.05136
3359.87,0.05105
3354.09,0.05139
3348.3,0.05185
3342.52,0.05284
3336.73,0.05375
3330.94,0.05403
3325.16,0.05470
3319.37,0.05607
3313.58,0.05616
3307.8,0.05735
3302.01,0.05837
3296.23,0.05817
3290.44,0.05902
3284.65,0.06022
3278.87,0.06094
3273.08,0.06225
3267.29,0.06445
3261.51,0.06477
3255.72,0.06568
3249.94,0.06733
3244.15,0.06848
3238.36,0.07060
3232.58,0.07101
3226.79,0.07263
3221,0.07390
3215.22,0.07642
3209.43,0.07778
3203.65,0.07958
3197.86,0.08150
3192.07,0.08277
3186.29,0.08424
3180.5,0.08638
3174.71,0.08860
3168.93,0.09110
3163.14,0.09215
3157.36,0.09532
3151.57,0.09699
3145.78,0.10000
3140,0.10184
3134.21,0.10437
3128.42,0.10651
3122.64,0.10866
3116.85,0.11100
3111.07,0.11341
3105.28,0.11609
3099.49,0.11772
3093.71,0.11943
3087.92,0.12115
3082.14,0.12330
3076.35,0.12505
3070.56,0.12654
3064.78,0.12842
3058.99,0.13109
3053.2,0.13276
3047.42,0.13453
3041.63,0.13643
3035.85,0.13725
3030.06,0.13766
3024.27,0.13810
3018.49,0.13625
3012.7,0.13432
3006.91,0.13158
3001.13,0.12899
2995.34,0.12725
2989.56,0.12403
2983.77,0.11847
2977.98,0.11156
2972.2,0.10369
2966.41,0.09812
2960.62,0.09418
2954.84,0.08991
2949.05,0.08551
2943.27,0.08262
2937.48,0.08048
2931.69,0.08070
2925.91,0.08045
2920.12,0.07978
2914.33,0.08019
2908.55,0.08048
2902.76,0.08052
2896.98,0.08130
2891.19,0.08265
2885.4,0.08371
2879.62,0.08487
2873.83,0.08640
2868.04,0.08876
2862.26,0.09230
2856.47,0.09517
2850.69,0.09890
2844.9,0.10406
2839.11,0.10977
2833.33,0.11665
2827.54,0.12385
2821.75,0.13121
2815.97,0.13702
2810.18,0.14250
2804.4,0.14692
2798.61,0.15126
2792.82,0.15451
2787.04,0.15680
2781.25,0.15854
2775.46,0.16089
2769.68,0.16235
2763.89,0.16389
2758.11,0.16492
2752.32,0.16539
2746.53,0.16593
2740.75,0.16635
2734.96,0.16715
2729.17,0.16877
2723.39,0.17015
2717.6,0.17221
2711.82,0.17432
2706.03,0.17699
2700.24,0.17992
2694.46,0.18229
2688.67,0.18450
2682.88,0.18664
2677.1,0.18878
2671.31,0.19077
2665.53,0.19233
2659.74,0.19380
2653.95,0.19504
2648.17,0.19681
2642.38,0.19862
2636.59,0.20059
2630.81,0.20265
2625.02,0.20440
2619.24,0.20642
2613.45,0.20810
2607.66,0.20972
2601.88,0.21155
2596.09,0.21345
2590.3,0.21518
2584.52,0.21602
2578.73,0.21738
2572.95,0.21838
2567.16,0.21914
2561.37,0.21984
2555.59,0.22005
2549.8,0.22101
2544.02,0.22148
2538.23,0.22228
2532.44,0.22399
2526.66,0.22599
2520.87,0.22780
2515.08,0.22925
2509.3,0.23148
2503.51,0.23492
2497.73,0.23745
2491.94,0.24019
2486.15,0.24306
2480.37,0.24501
2474.58,0.24770
2468.79,0.25018
2463.01,0.25218
2457.22,0.25480
2451.44,0.25710
2445.65,0.25975
2439.86,0.26224
2434.08,0.26577
2428.29,0.26827
2422.5,0.27140
2416.72,0.27479
2410.93,0.27809
2405.15,0.28108
2399.36,0.28407
2393.57,0.28662
2387.79,0.28953
2382,0.29238
2376.21,0.29499
2370.43,0.29748
2364.64,0.29984
2358.86,0.30158
2353.07,0.30296
2347.28,0.30437
2341.5,0.30622
2335.71,0.30738
2329.92,0.30842
2324.14,0.30910
2318.35,0.30972
2312.57,0.31012
2306.78,0.31005
2300.99,0.30890
2295.21,0.30889
2289.42,0.30835
2283.63,0.30793
2277.85,0.30742
2272.06,0.30649
2266.28,0.30445
2260.49,0.30278
2254.7,0.30175
2248.92,0.30010
2243.13,0.29991
2237.34,0.29907
2231.56,0.29779
2225.77,0.29708
2219.99,0.29692
2214.2,0.29700
2208.41,0.29574
2202.63,0.29402
2196.84,0.29206
2191.05,0.28929
2185.27,0.28609
2179.48,0.28215
2173.7,0.27916
2167.91,0.27573
2162.12,0.27325
2156.34,0.27080
2150.55,0.26913
2144.76,0.26775
2138.98,0.26659
2133.19,0.26627
2127.41,0.26639
2121.62,0.26692
2115.83,0.26755
2110.05,0.26901
2104.26,0.26964
2098.47,0.27062
2092.69,0.27083
2086.9,0.27110
2081.12,0.27030
2075.33,0.26887
2069.54,0.26775
2063.76,0.26605
2057.97,0.26546
2052.19,0.26557
2046.4,0.26685
2040.61,0.26923
2034.83,0.27130
2029.04,0.27467
2023.25,0.27813
2017.47,0.28110
2011.68,0.28405
2005.9,0.28668
2000.11,0.28856
1994.32,0.29084
1988.54,0.29263
1982.75,0.29435
1976.96,0.29611
1971.18,0.29804
1965.39,0.29975
1959.61,0.30215
1953.82,0.30488
1948.03,0.30783
1942.25,0.31080
1936.46,0.31335
1930.67,0.31502
1924.89,0.31635
1919.1,0.31722
1913.32,0.31745
1907.53,0.31734
1901.74,0.31741
1895.96,0.31671
1890.17,0.31590
1884.38,0.31542
1878.6,0.31502
1872.81,0.31434
1867.03,0.31387
1861.24,0.31234
1855.45,0.31074
1849.67,0.30866
1843.88,0.30675
1838.09,0.30321
1832.31,0.30014
1826.52,0.29594
1820.74,0.28992
1814.95,0.28266
1809.16,0.27365
1803.38,0.26427
1797.59,0.25341
1791.8,0.24039
1786.02,0.22627
1780.23,0.20986
1774.45,0.19128
1768.66,0.16667
1762.87,0.14270
1757.09,0.12045
1751.3,0.10517
1745.51,0.09534
1739.73,0.09156
1733.94,0.09161
1728.16,0.09320
1722.37,0.09692
1716.58,0.10312
1710.8,0.10940
1705.01,0.11528
1699.22,0.11835
1693.44,0.11623
1687.65,0.11321
1681.87,0.10645
1676.08,0.10022
1670.29,0.09507
1664.51,0.09106
1658.72,0.09044
1652.93,0.09172
1647.15,0.09231
1641.36,0.09221
1635.58,0.09258
1629.79,0.09269
1624,0.09249
1618.22,0.09177
1612.43,0.08907
1606.64,0.08613
1600.86,0.08626
1595.07,0.08657
1589.29,0.08936
1583.5,0.09738
1577.71,0.10958
1571.93,0.12548
1566.14,0.13743
1560.35,0.14346
1554.57,0.14477
1548.78,0.14289
1543,0.13901
1537.21,0.12891
1531.42,0.11459
1525.64,0.09584
1519.85,0.07363
1514.07,0.06208
1508.28,0.06217
1502.49,0.06899
1496.71,0.07800
1490.92,0.08354
1485.13,0.08282
1479.35,0.07856
1473.56,0.07079
1467.78,0.06297
1461.99,0.06171
1456.2,0.06134
1450.42,0.06141
1444.63,0.06309
1438.84,0.06226
1433.06,0.05837
1427.27,0.05784
1421.49,0.05916
1415.7,0.06209
1409.91,0.06462
1404.13,0.06586
1398.34,0.06497
1392.55,0.06312
1386.77,0.05964
1380.98,0.05644
1375.2,0.05609
1369.41,0.05700
1363.62,0.05877
1357.84,0.06030
1352.05,0.06126
1346.26,0.06095
1340.48,0.06017
1334.69,0.05903
1328.91,0.05904
1323.12,0.05825
1317.33,0.05822
1311.55,0.05949
1305.76,0.06039
1299.97,0.06038
1294.19,0.05829
1288.4,0.05565
1282.62,0.05242
1276.83,0.05140
1271.04,0.05142
1265.26,0.05288
1259.47,0.05453
1253.68,0.05609
1247.9,0.05659
1242.11,0.05620
1236.33,0.05584
1230.54,0.05527
1224.75,0.05630
1218.97,0.05700
1213.18,0.05706
1207.39,0.05743
1201.61,0.05824
1195.82,0.05847
1190.04,0.05733
1184.25,0.05340
1178.46,0.04977
1172.68,0.04619
1166.89,0.04712
1161.1,0.04992
1155.32,0.05065
1149.53,0.04977
1143.75,0.04816
1137.96,0.04588
1132.17,0.04396
1126.39,0.04381
1120.6,0.04470
1114.81,0.04614
1109.03,0.04811
1103.24,0.04991
1097.46,0.04985
1091.67,0.04975
1085.88,0.05040
1080.1,0.05243
1074.31,0.05773
1068.52,0.06228
1062.74,0.06912
1056.95,0.07543
1051.17,0.07491
1045.38,0.07292
1039.59,0.07448
1033.81,0.08013
1028.02,0.08322
1022.24,0.08531
1016.45,0.08715
1010.66,0.08843
1004.88,0.08854
999.09,0.09070
993.304,0.09319
987.518,0.09718
981.731,0.10443
975.945,0.10824
970.159,0.11040
964.373,0.11252
958.586,0.11688
952.8,0.12128
947.014,0.12455
941.228,0.12657
935.441,0.12872
929.655,0.13048
923.869,0.13092
918.083,0.12873
912.297,0.12425
906.51,0.11681
900.724,0.11132
894.938,0.11144
889.152,0.11536
883.365,0.11771
877.579,0.11913
871.793,0.11916
866.007,0.12096
860.22,0.12256
854.434,0.12558
848.648,0.12804
842.862,0.12977
837.075,0.12757
831.289,0.12303
825.503,0.11749
819.717,0.11067
813.931,0.10863
808.144,0.10762
802.358,0.10955
796.572,0.11226
790.786,0.11194
784.999,0.11039
779.213,0.10735
773.427,0.10417
767.641,0.10234
761.854,0.10169
756.068,0.09967
750.282,0.09853
744.496,0.09610
738.709,0.09422
732.923,0.09110
727.137,0.09039
721.351,0.08803
715.565,0.08583
709.778,0.08488
703.992,0.08383
698.206,0.08350
692.42,0.08065
686.633,0.07950
680.847,0.07670
675.061,0.07335
669.275,0.07427
663.488,0.07418
657.702,0.07678
651.916,0.07453
646.13,0.07449
640.343,0.07344
634.557,0.07226
628.771,0.07137
622.985,0.07172
617.198,0.07216
611.412,0.07422
605.626,0.07538
599.84,0.07811