File: 01_Data/Pressure_Treated_Deck/FTIR/IS/Pressure_Treated_Deck_IS_S_221012_R4.dpt
7497.03,0.80091
7491.25,0.81603
7485.46,0.79412
7479.67,0.79180
7473.89,0.78947
7468.1,0.79093
7462.32,0.80162
7456.53,0.78298
7450.74,0.79447
7444.96,0.79730
7439.17,0.80301
7433.38,0.78913
7427.6,0.80107
7421.81,0.79380
7416.03,0.78628
7410.24,0.78669
7404.45,0.79309
7398.67,0.78374
7392.88,0.77246
7387.09,0.78221
7381.31,0.77558
7375.52,0.78026
7369.74,0.78829
7363.95,0.78542
7358.16,0.78010
7352.38,0.77443
7346.59,0.77008
7340.8,0.77342
7335.02,0.77637
7329.23,0.77150
7323.45,0.76784
7317.66,0.76461
7311.87,0.76840
7306.09,0.76166
7300.3,0.77643
7294.51,0.77332
7288.73,0.76815
7282.94,0.77525
7277.16,0.76526
7271.37,0.76799
7265.58,0.76271
7259.8,0.76343
7254.01,0.77102
7248.22,0.76668
7242.44,0.76618
7236.65,0.76764
7230.87,0.76485
7225.08,0.76114
7219.29,0.76747
7213.51,0.75863
7207.72,0.76856
7201.93,0.75573
7196.15,0.75296
7190.36,0.75804
7184.58,0.75571
7178.79,0.75761
7173,0.75687
7167.22,0.75355
7161.43,0.75349
7155.65,0.74726
7149.86,0.74541
7144.07,0.74604
7138.29,0.74122
7132.5,0.73976
7126.71,0.74211
7120.93,0.72972
7115.14,0.72880
7109.36,0.72676
7103.57,0.71657
7097.78,0.71274
7092,0.71235
7086.21,0.70919
7080.42,0.70742
7074.64,0.70573
7068.85,0.70150
7063.07,0.68955
7057.28,0.68883
7051.49,0.68552
7045.71,0.67719
7039.92,0.66786
7034.13,0.66821
7028.35,0.66448
7022.56,0.66375
7016.78,0.65886
7010.99,0.65351
7005.2,0.65087
6999.42,0.64334
6993.63,0.64519
6987.84,0.63727
6982.06,0.64038
6976.27,0.63653
6970.49,0.63717
6964.7,0.64153
6958.91,0.63825
6953.13,0.62999
6947.34,0.63473
6941.55,0.63540
6935.77,0.63522
6929.98,0.63578
6924.2,0.63292
6918.41,0.62808
6912.62,0.63474
6906.84,0.63256
6901.05,0.63320
6895.26,0.63152
6889.48,0.63080
6883.69,0.62922
6877.91,0.63220
6872.12,0.63112
6866.33,0.62935
6860.55,0.62827
6854.76,0.63057
6848.97,0.62576
6843.19,0.62658
6837.4,0.63194
6831.62,0.62528
6825.83,0.62906
6820.04,0.63615
6814.26,0.63387
6808.47,0.62790
6802.68,0.62635
6796.9,0.62771
6791.11,0.62964
6785.33,0.62844
6779.54,0.62555
6773.75,0.63258
6767.97,0.63183
6762.18,0.63012
6756.39,0.63102
6750.61,0.63389
6744.82,0.63191
6739.04,0.63355
6733.25,0.63503
6727.46,0.63646
6721.68,0.63586
6715.89,0.63443
6710.1,0.63271
6704.32,0.63666
6698.53,0.64549
6692.75,0.64013
6686.96,0.64026
6681.17,0.63884
6675.39,0.64333
6669.6,0.63977
6663.82,0.64504
6658.03,0.64297
6652.24,0.64503
6646.46,0.64404
6640.67,0.64704
6634.88,0.64815
6629.1,0.64574
6623.31,0.65165
6617.53,0.64885
6611.74,0.65122
6605.95,0.64881
6600.17,0.65488
6594.38,0.65445
6588.59,0.65777
6582.81,0.65096
6577.02,0.65712
6571.24,0.65806
6565.45,0.65964
6559.66,0.65529
6553.88,0.65985
6548.09,0.65676
6542.3,0.65899
6536.52,0.65663
6530.73,0.66293
6524.95,0.65830
6519.16,0.65965
6513.37,0.65824
6507.59,0.65772
6501.8,0.65894
6496.01,0.66094
6490.23,0.66415
6484.44,0.66054
6478.66,0.66077
6472.87,0.66414
6467.08,0.66280
6461.3,0.66050
6455.51,0.66229
6449.72,0.66288
6443.94,0.66474
6438.15,0.66372
6432.37,0.66423
6426.58,0.66558
6420.79,0.66454
6415.01,0.66424
6409.22,0.66742
6403.43,0.66943
6397.65,0.66942
6391.86,0.66840
6386.08,0.67111
6380.29,0.66433
6374.5,0.66518
6368.72,0.67346
6362.93,0.67304
6357.14,0.67457
6351.36,0.67355
6345.57,0.67065
6339.79,0.67149
6334,0.67577
6328.21,0.67229
6322.43,0.67584
6316.64,0.67581
6310.85,0.67071
6305.07,0.67744
6299.28,0.67560
6293.5,0.67881
6287.71,0.67701
6281.92,0.67973
6276.14,0.67725
6270.35,0.67950
6264.56,0.68635
6258.78,0.68745
6252.99,0.68632
6247.21,0.68591
6241.42,0.69360
6235.63,0.69223
6229.85,0.69021
6224.06,0.69492
6218.27,0.69781
6212.49,0.69867
6206.7,0.69566
6200.92,0.69970
6195.13,0.70009
6189.34,0.70288
6183.56,0.70541
6177.77,0.70849
6171.98,0.70722
6166.2,0.71432
6160.41,0.70877
6154.63,0.71299
6148.84,0.71589
6143.05,0.71318
6137.27,0.71481
6131.48,0.71464
6125.7,0.71818
6119.91,0.71680
6114.12,0.71875
6108.34,0.72150
6102.55,0.72011
6096.76,0.72098
6090.98,0.71586
6085.19,0.72183
6079.41,0.72001
6073.62,0.72003
6067.83,0.72052
6062.05,0.71942
6056.26,0.71650
6050.47,0.71869
6044.69,0.71392
6038.9,0.71668
6033.12,0.71563
6027.33,0.71034
6021.54,0.71027
6015.76,0.70493
6009.97,0.70626
6004.18,0.70664
5998.4,0.70392
5992.61,0.70272
5986.83,0.70347
5981.04,0.70059
5975.25,0.70177
5969.47,0.70339
5963.68,0.69777
5957.89,0.70322
5952.11,0.70315
5946.32,0.69930
5940.54,0.70291
5934.75,0.70363
5928.96,0.70574
5923.18,0.70295
5917.39,0.69818
5911.6,0.70112
5905.82,0.69959
5900.03,0.69935
5894.25,0.69732
5888.46,0.69516
5882.67,0.69558
5876.89,0.69510
5871.1,0.69506
5865.31,0.69328
5859.53,0.69382
5853.74,0.69347
5847.96,0.69225
5842.17,0.69384
5836.38,0.69565
5830.6,0.69144
5824.81,0.69193
5819.02,0.69068
5813.24,0.69023
5807.45,0.68728
5801.67,0.68838
5795.88,0.68980
5790.09,0.69123
5784.31,0.68917
5778.52,0.68866
5772.73,0.69021
5766.95,0.69037
5761.16,0.69171
5755.38,0.69254
5749.59,0.69314
5743.8,0.69296
5738.02,0.69278
5732.23,0.69412
5726.44,0.69215
5720.66,0.69154
5714.87,0.69232
5709.09,0.69205
5703.3,0.69251
5697.51,0.69132
5691.73,0.69153
5685.94,0.69237
5680.15,0.69308
5674.37,0.68980
5668.58,0.69011
5662.8,0.68989
5657.01,0.69058
5651.22,0.69009
5645.44,0.68944
5639.65,0.68856
5633.87,0.69034
5628.08,0.69214
5622.29,0.68960
5616.51,0.68682
5610.72,0.69068
5604.93,0.69174
5599.15,0.69035
5593.36,0.68939
5587.58,0.69147
5581.79,0.69187
5576,0.69141
5570.22,0.69195
5564.43,0.69231
5558.64,0.69283
5552.86,0.69619
5547.07,0.69437
5541.29,0.69654
5535.5,0.69671
5529.71,0.69477
5523.93,0.69370
5518.14,0.69526
5512.35,0.69653
5506.57,0.69835
5500.78,0.69982
5495,0.69798
5489.21,0.69860
5483.42,0.69836
5477.64,0.69889
5471.85,0.69824
5466.06,0.69838
5460.28,0.70022
5454.49,0.70013
5448.71,0.70254
5442.92,0.70233
5437.13,0.70398
5431.35,0.70614
5425.56,0.70744
5419.77,0.70853
5413.99,0.70796
5408.2,0.71107
5402.42,0.71185
5396.63,0.71070
5390.84,0.71296
5385.06,0.71143
5379.27,0.71169
5373.48,0.71236
5367.7,0.71206
5361.91,0.71043
5356.13,0.70912
5350.34,0.70821
5344.55,0.70823
5338.77,0.70671
5332.98,0.70458
5327.19,0.70142
5321.41,0.69886
5315.62,0.69490
5309.84,0.69016
5304.05,0.68386
5298.26,0.67578
5292.48,0.66866
5286.69,0.66045
5280.9,0.64937
5275.12,0.63608
5269.33,0.62561
5263.55,0.61207
5257.76,0.60186
5251.97,0.59094
5246.19,0.58133
5240.4,0.57363
5234.61,0.56610
5228.83,0.55893
5223.04,0.55364
5217.26,0.54918
5211.47,0.54533
5205.68,0.54232
5199.9,0.54082
5194.11,0.54037
5188.32,0.54005
5182.54,0.54281
5176.75,0.54229
5170.97,0.54382
5165.18,0.54684
5159.39,0.55065
5153.61,0.55418
5147.82,0.55682
5142.03,0.55965
5136.25,0.56433
5130.46,0.56764
5124.68,0.57025
5118.89,0.57414
5113.1,0.57774
5107.32,0.58091
5101.53,0.58366
5095.75,0.58568
5089.96,0.59049
5084.17,0.59375
5078.39,0.59654
5072.6,0.59871
5066.81,0.60231
5061.03,0.60600
5055.24,0.60744
5049.46,0.60830
5043.67,0.61192
5037.88,0.61300
5032.1,0.61635
5026.31,0.61761
5020.52,0.61967
5014.74,0.62119
5008.95,0.62209
5003.17,0.62284
4997.38,0.62349
4991.59,0.62272
4985.81,0.62226
4980.02,0.62078
4974.23,0.61959
4968.45,0.61805
4962.66,0.61313
4956.88,0.61113
4951.09,0.60564
4945.3,0.60313
4939.52,0.59771
4933.73,0.59386
4927.94,0.58763
4922.16,0.58325
4916.37,0.57871
4910.59,0.57234
4904.8,0.56839
4899.01,0.56239
4893.23,0.55824
4887.44,0.55222
4881.65,0.54684
4875.87,0.54309
4870.08,0.53867
4864.3,0.53346
4858.51,0.52912
4852.72,0.52467
4846.94,0.52202
4841.15,0.51771
4835.36,0.51547
4829.58,0.51056
4823.79,0.50798
4818.01,0.50591
4812.22,0.50440
4806.43,0.50161
4800.65,0.49960
4794.86,0.49729
4789.07,0.49618
4783.29,0.49645
4777.5,0.49546
4771.72,0.49569
4765.93,0.49380
4760.14,0.49353
4754.36,0.49359
4748.57,0.49366
4742.78,0.49367
4737,0.49419
4731.21,0.49413
4725.43,0.49695
4719.64,0.49468
4713.85,0.49645
4708.07,0.49803
4702.28,0.49883
4696.49,0.49933
4690.71,0.50015
4684.92,0.50234
4679.14,0.50266
4673.35,0.50386
4667.56,0.50625
4661.78,0.50897
4655.99,0.51068
4650.2,0.51327
4644.42,0.51511
4638.63,0.51732
4632.85,0.51956
4627.06,0.52247
4621.27,0.52554
4615.49,0.52915
4609.7,0.53180
4603.92,0.53500
4598.13,0.53757
4592.34,0.54100
4586.56,0.54326
4580.77,0.54459
4574.98,0.54613
4569.2,0.54845
4563.41,0.55005
4557.63,0.55122
4551.84,0.55197
4546.05,0.55379
4540.27,0.55634
4534.48,0.55666
4528.69,0.55649
4522.91,0.55680
4517.12,0.55699
4511.34,0.55691
4505.55,0.55516
4499.76,0.55349
4493.98,0.55205
4488.19,0.54847
4482.4,0.54368
4476.62,0.53831
4470.83,0.53190
4465.05,0.52506
4459.26,0.51856
4453.47,0.51106
4447.69,0.50386
4441.9,0.49734
4436.11,0.48988
4430.33,0.48307
4424.54,0.47455
4418.76,0.46753
4412.97,0.46117
4407.18,0.45709
4401.4,0.45434
4395.61,0.45240
4389.82,0.45296
4384.04,0.45504
4378.25,0.45721
4372.47,0.45922
4366.68,0.46208
4360.89,0.46431
4355.11,0.46416
4349.32,0.46404
4343.53,0.46337
4337.75,0.46170
4331.96,0.45966
4326.18,0.45873
4320.39,0.45631
4314.6,0.45366
4308.82,0.45036
4303.03,0.44747
4297.24,0.44479
4291.46,0.44313
4285.67,0.44067
4279.89,0.44088
4274.1,0.44032
4268.31,0.44156
4262.53,0.44270
4256.74,0.44412
4250.95,0.44536
4245.17,0.44691
4239.38,0.44624
4233.6,0.44710
4227.81,0.44859
4222.02,0.44824
4216.24,0.44722
4210.45,0.44772
4204.66,0.44753
4198.88,0.44815
4193.09,0.44864
4187.31,0.44918
4181.52,0.45041
4175.73,0.45120
4169.95,0.45277
4164.16,0.45529
4158.37,0.45400
4152.59,0.45312
4146.8,0.45136
4141.02,0.44932
4135.23,0.44526
4129.44,0.44228
4123.66,0.43821
4117.87,0.43431
4112.09,0.42961
4106.3,0.42511
4100.51,0.42013
4094.73,0.41356
4088.94,0.40842
4083.15,0.40238
4077.37,0.39756
4071.58,0.39103
4065.8,0.38481
4060.01,0.37926
4054.22,0.37415
4048.44,0.36940
4042.65,0.36442
4036.86,0.36010
4031.08,0.35607
4025.29,0.35417
4019.51,0.35191
4013.72,0.35111
4007.93,0.35042
4002.15,0.35165
3996.36,0.35211
3990.57,0.35368
3984.79,0.35499
3979,0.35696
3973.22,0.35807
3967.43,0.35974
3961.64,0.36247
3955.86,0.36553
3950.07,0.36873
3944.28,0.37137
3938.5,0.37368
3932.71,0.37632
3926.93,0.37989
3921.14,0.38374
3915.35,0.38681
3909.57,0.38872
3903.78,0.39239
3897.99,0.39335
3892.21,0.39587
3886.42,0.39950
3880.64,0.40133
3874.85,0.40311
3869.06,0.40610
3863.28,0.40843
3857.49,0.41181
3851.7,0.41533
3845.92,0.41704
3840.13,0.41898
3834.35,0.42083
3828.56,0.42131
3822.77,0.42234
3816.99,0.42250
3811.2,0.42118
3805.41,0.42173
3799.63,0.42038
3793.84,0.41974
3788.06,0.41867
3782.27,0.41849
3776.48,0.41726
3770.7,0.41557
3764.91,0.41397
3759.12,0.41229
3753.34,0.41005
3747.55,0.40700
3741.77,0.40384
3735.98,0.39996
3730.19,0.39321
3724.41,0.38852
3718.62,0.38115
3712.83,0.37486
3707.05,0.36561
3701.26,0.35464
3695.48,0.34186
3689.69,0.32777
3683.9,0.30788
3678.12,0.28824
3672.33,0.26392
3666.54,0.24134
3660.76,0.22148
3654.97,0.20175
3649.19,0.18515
3643.4,0.16802
3637.61,0.15556
3631.83,0.14488
3626.04,0.13333
3620.25,0.12516
3614.47,0.11730
3608.68,0.10992
3602.9,0.10172
3597.11,0.09548
3591.32,0.08935
3585.54,0.08532
3579.75,0.08031
3573.97,0.07634
3568.18,0.07328
3562.39,0.07023
3556.61,0.06770
3550.82,0.06509
3545.03,0.06295
3539.25,0.06135
3533.46,0.05933
3527.68,0.05822
3521.89,0.05660
3516.1,0.05522
3510.32,0.05417
3504.53,0.05211
3498.74,0.05217
3492.96,0.05151
3487.17,0.05101
3481.39,0.04974
3475.6,0.04938
3469.81,0.04865
3464.03,0.04869
3458.24,0.04813
3452.45,0.04839
3446.67,0.04726
3440.88,0.04801
3435.1,0.04881
3429.31,0.04862
3423.52,0.04817
3417.74,0.04788
3411.95,0.04886
3406.16,0.04914
3400.38,0.04887
3394.59,0.04914
3388.81,0.04879
3383.02,0.04935
3377.23,0.04968
3371.45,0.05030
3365.66,0.04990
3359.87,0.05092
3354.09,0.05136
3348.3,0.05238
3342.52,0.05300
3336.73,0.05334
3330.94,0.05445
3325.16,0.05499
3319.37,0.05582
3313.58,0.05624
3307.8,0.05681
3302.01,0.05817
3296.23,0.05891
3290.44,0.05956
3284.65,0.05999
3278.87,0.06079
3273.08,0.06244
3267.29,0.06322
3261.51,0.06411
3255.72,0.06618
3249.94,0.06675
3244.15,0.06787
3238.36,0.06920
3232.58,0.07087
3226.79,0.07348
3221,0.07373
3215.22,0.07600
3209.43,0.07805
3203.65,0.07923
3197.86,0.08026
3192.07,0.08219
3186.29,0.08479
3180.5,0.08650
3174.71,0.08900
3168.93,0.09056
3163.14,0.09275
3157.36,0.09462
3151.57,0.09709
3145.78,0.09917
3140,0.10108
3134.21,0.10388
3128.42,0.10598
3122.64,0.10856
3116.85,0.11083
3111.07,0.11243
3105.28,0.11409
3099.49,0.11699
3093.71,0.11869
3087.92,0.12032
3082.14,0.12243
3076.35,0.12488
3070.56,0.12659
3064.78,0.12851
3058.99,0.13030
3053.2,0.13255
3047.42,0.13410
3041.63,0.13556
3035.85,0.13652
3030.06,0.13773
3024.27,0.13764
3018.49,0.13659
3012.7,0.13403
3006.91,0.13160
3001.13,0.12921
2995.34,0.12701
2989.56,0.12395
2983.77,0.11850
2977.98,0.11135
2972.2,0.10398
2966.41,0.09812
2960.62,0.09337
2954.84,0.09005
2949.05,0.08606
2943.27,0.08310
2937.48,0.08087
2931.69,0.08075
2925.91,0.08046
2920.12,0.07962
2914.33,0.07990
2908.55,0.08021
2902.76,0.08054
2896.98,0.08134
2891.19,0.08210
2885.4,0.08418
2879.62,0.08509
2873.83,0.08679
2868.04,0.08938
2862.26,0.09195
2856.47,0.09527
2850.69,0.09938
2844.9,0.10479
2839.11,0.10956
2833.33,0.11622
2827.54,0.12413
2821.75,0.13168
2815.97,0.13759
2810.18,0.14236
2804.4,0.14719
2798.61,0.15080
2792.82,0.15395
2787.04,0.15657
2781.25,0.15866
2775.46,0.16028
2769.68,0.16179
2763.89,0.16325
2758.11,0.16403
2752.32,0.16493
2746.53,0.16569
2740.75,0.16648
2734.96,0.16692
2729.17,0.16843
2723.39,0.16988
2717.6,0.17186
2711.82,0.17415
2706.03,0.17713
2700.24,0.17973
2694.46,0.18230
2688.67,0.18480
2682.88,0.18643
2677.1,0.18879
2671.31,0.19053
2665.53,0.19233
2659.74,0.19351
2653.95,0.19467
2648.17,0.19641
2642.38,0.19857
2636.59,0.20015
2630.81,0.20219
2625.02,0.20415
2619.24,0.20590
2613.45,0.20786
2607.66,0.20992
2601.88,0.21135
2596.09,0.21273
2590.3,0.21466
2584.52,0.21559
2578.73,0.21730
2572.95,0.21817
2567.16,0.21883
2561.37,0.21959
2555.59,0.21999
2549.8,0.22061
2544.02,0.22097
2538.23,0.22206
2532.44,0.22327
2526.66,0.22560
2520.87,0.22807
2515.08,0.22938
2509.3,0.23122
2503.51,0.23392
2497.73,0.23706
2491.94,0.23996
2486.15,0.24212
2480.37,0.24499
2474.58,0.24778
2468.79,0.25002
2463.01,0.25208
2457.22,0.25410
2451.44,0.25705
2445.65,0.25967
2439.86,0.26183
2434.08,0.26501
2428.29,0.26799
2422.5,0.27105
2416.72,0.27469
2410.93,0.27752
2405.15,0.28020
2399.36,0.28387
2393.57,0.28636
2387.79,0.28873
2382,0.29160
2376.21,0.29450
2370.43,0.29681
2364.64,0.29877
2358.86,0.30067
2353.07,0.30204
2347.28,0.30375
2341.5,0.30533
2335.71,0.30695
2329.92,0.30792
2324.14,0.30838
2318.35,0.30894
2312.57,0.30921
2306.78,0.30905
2300.99,0.30878
2295.21,0.30812
2289.42,0.30776
2283.63,0.30762
2277.85,0.30644
2272.06,0.30544
2266.28,0.30338
2260.49,0.30155
2254.7,0.30072
2248.92,0.29952
2243.13,0.29847
2237.34,0.29715
2231.56,0.29695
2225.77,0.29645
2219.99,0.29627
2214.2,0.29582
2208.41,0.29464
2202.63,0.29307
2196.84,0.29106
2191.05,0.28806
2185.27,0.28492
2179.48,0.28129
2173.7,0.27795
2167.91,0.27438
2162.12,0.27221
2156.34,0.26994
2150.55,0.26853
2144.76,0.26657
2138.98,0.26512
2133.19,0.26493
2127.41,0.26540
2121.62,0.26620
2115.83,0.26678
2110.05,0.26767
2104.26,0.26822
2098.47,0.26953
2092.69,0.26977
2086.9,0.26989
2081.12,0.26923
2075.33,0.26789
2069.54,0.26618
2063.76,0.26495
2057.97,0.26468
2052.19,0.26504
2046.4,0.26618
2040.61,0.26782
2034.83,0.27058
2029.04,0.27375
2023.25,0.27708
2017.47,0.28028
2011.68,0.28305
2005.9,0.28532
2000.11,0.28773
1994.32,0.28976
1988.54,0.29208
1982.75,0.29317
1976.96,0.29511
1971.18,0.29688
1965.39,0.29875
1959.61,0.30124
1953.82,0.30416
1948.03,0.30686
1942.25,0.30974
1936.46,0.31181
1930.67,0.31351
1924.89,0.31544
1919.1,0.31618
1913.32,0.31657
1907.53,0.31651
1901.74,0.31587
1895.96,0.31547
1890.17,0.31490
1884.38,0.31435
1878.6,0.31391
1872.81,0.31334
1867.03,0.31285
1861.24,0.31159
1855.45,0.30984
1849.67,0.30776
1843.88,0.30563
1838.09,0.30255
1832.31,0.29941
1826.52,0.29505
1820.74,0.28894
1814.95,0.28173
1809.16,0.27313
1803.38,0.26404
1797.59,0.25286
1791.8,0.24053
1786.02,0.22630
1780.23,0.20975
1774.45,0.19122
1768.66,0.16662
1762.87,0.14302
1757.09,0.12046
1751.3,0.10515
1745.51,0.09540
1739.73,0.09162
1733.94,0.09191
1728.16,0.09332
1722.37,0.09686
1716.58,0.10324
1710.8,0.10925
1705.01,0.11509
1699.22,0.11757
1693.44,0.11550
1687.65,0.11219
1681.87,0.10582
1676.08,0.10013
1670.29,0.09413
1664.51,0.09065
1658.72,0.08969
1652.93,0.09161
1647.15,0.09172
1641.36,0.09125
1635.58,0.09217
1629.79,0.09262
1624,0.09170
1618.22,0.09125
1612.43,0.08864
1606.64,0.08600
1600.86,0.08599
1595.07,0.08658
1589.29,0.08982
1583.5,0.09724
1577.71,0.10911
1571.93,0.12471
1566.14,0.13708
1560.35,0.14256
1554.57,0.14424
1548.78,0.14284
1543,0.13911
1537.21,0.12929
1531.42,0.11460
1525.64,0.09611
1519.85,0.07323
1514.07,0.06185
1508.28,0.06212
1502.49,0.06939
1496.71,0.07819
1490.92,0.08389
1485.13,0.08302
1479.35,0.07855
1473.56,0.07069
1467.78,0.06276
1461.99,0.06148
1456.2,0.06145
1450.42,0.06135
1444.63,0.06330
1438.84,0.06213
1433.06,0.05850
1427.27,0.05809
1421.49,0.05956
1415.7,0.06261
1409.91,0.06486
1404.13,0.06561
1398.34,0.06529
1392.55,0.06337
1386.77,0.06027
1380.98,0.05719
1375.2,0.05621
1369.41,0.05669
1363.62,0.05894
1357.84,0.06025
1352.05,0.06154
1346.26,0.06077
1340.48,0.05976
1334.69,0.05934
1328.91,0.05881
1323.12,0.05843
1317.33,0.05783
1311.55,0.05952
1305.76,0.06043
1299.97,0.06038
1294.19,0.05875
1288.4,0.05589
1282.62,0.05286
1276.83,0.05156
1271.04,0.05175
1265.26,0.05226
1259.47,0.05412
1253.68,0.05587
1247.9,0.05642
1242.11,0.05677
1236.33,0.05612
1230.54,0.05624
1224.75,0.05670
1218.97,0.05741
1213.18,0.05738
1207.39,0.05765
1201.61,0.05833
1195.82,0.05841
1190.04,0.05720
1184.25,0.05423
1178.46,0.05002
1172.68,0.04615
1166.89,0.04697
1161.1,0.05039
1155.32,0.05096
1149.53,0.04964
1143.75,0.04802
1137.96,0.04596
1132.17,0.04414
1126.39,0.04356
1120.6,0.04496
1114.81,0.04612
1109.03,0.04909
1103.24,0.04988
1097.46,0.05006
1091.67,0.04945
1085.88,0.05053
1080.1,0.05288
1074.31,0.05724
1068.52,0.06175
1062.74,0.06980
1056.95,0.07466
1051.17,0.07491
1045.38,0.07289
1039.59,0.07437
1033.81,0.08056
1028.02,0.08422
1022.24,0.08540
1016.45,0.08690
1010.66,0.08844
1004.88,0.08942
999.09,0.09055
993.304,0.09316
987.518,0.09779
981.731,0.10379
975.945,0.10858
970.159,0.11007
964.373,0.11287
958.586,0.11683
952.8,0.12117
947.014,0.12468
941.228,0.12663
935.441,0.12889
929.655,0.13047
923.869,0.13117
918.083,0.12844
912.297,0.12409
906.51,0.11642
900.724,0.11065
894.938,0.11098
889.152,0.11444
883.365,0.11789
877.579,0.11862
871.793,0.11915
866.007,0.12020
860.22,0.12171
854.434,0.12460
848.648,0.12796
842.862,0.12964
837.075,0.12609
831.289,0.12185
825.503,0.11699
819.717,0.11080
813.931,0.10848
808.144,0.10678
802.358,0.10932
796.572,0.11080
790.786,0.11083
784.999,0.10877
779.213,0.10644
773.427,0.10343
767.641,0.10268
761.854,0.10117
756.068,0.09853
750.282,0.09710
744.496,0.09523
738.709,0.09300
732.923,0.09123
727.137,0.08885
721.351,0.08679
715.565,0.08592
709.778,0.08516
703.992,0.08274
698.206,0.08156
692.42,0.08153
686.633,0.07924
680.847,0.07561
675.061,0.07428
669.275,0.07514
663.488,0.07533
657.702,0.07513
651.916,0.07481
646.13,0.07505
640.343,0.07209
634.557,0.07250
628.771,0.07177
622.985,0.07077
617.198,0.07193
611.412,0.07448
605.626,0.07739
599.84,0.07563