File: 01_Data/Pressure_Treated_Deck/FTIR/IS/Pressure_Treated_Deck_IS_T_221012_R1.dpt
7497.03,0.03266
7491.25,0.02610
7485.46,0.01989
7479.67,0.02282
7473.89,0.02170
7468.1,0.01992
7462.32,0.02549
7456.53,0.02563
7450.74,0.02279
7444.96,0.03274
7439.17,0.02945
7433.38,0.02832
7427.6,0.02127
7421.81,0.01617
7416.03,0.01201
7410.24,0.02060
7404.45,0.02029
7398.67,0.02020
7392.88,0.02281
7387.09,0.01864
7381.31,0.02180
7375.52,0.02206
7369.74,0.01627
7363.95,0.01967
7358.16,0.03030
7352.38,0.02730
7346.59,0.02776
7340.8,0.02481
7335.02,0.02472
7329.23,0.02438
7323.45,0.02227
7317.66,0.02247
7311.87,0.02159
7306.09,0.03039
7300.3,0.02642
7294.51,0.02115
7288.73,0.02454
7282.94,0.02042
7277.16,0.02213
7271.37,0.02232
7265.58,0.01675
7259.8,0.01946
7254.01,0.02532
7248.22,0.02624
7242.44,0.03070
7236.65,0.01736
7230.87,0.02209
7225.08,0.02455
7219.29,0.02711
7213.51,0.01638
7207.72,0.01506
7201.93,0.02285
7196.15,0.02031
7190.36,0.02862
7184.58,0.03178
7178.79,0.02396
7173,0.03237
7167.22,0.02776
7161.43,0.02633
7155.65,0.01786
7149.86,0.01929
7144.07,0.02081
7138.29,0.01464
7132.5,0.02266
7126.71,0.01964
7120.93,0.02347
7115.14,0.02048
7109.36,0.02756
7103.57,0.02554
7097.78,0.02190
7092,0.02015
7086.21,0.01887
7080.42,0.02184
7074.64,0.02398
7068.85,0.02488
7063.07,0.02674
7057.28,0.01672
7051.49,0.01350
7045.71,0.02298
7039.92,0.03620
7034.13,0.02473
7028.35,0.02502
7022.56,0.02302
7016.78,0.02659
7010.99,0.02657
7005.2,0.02925
6999.42,0.01846
6993.63,0.02640
6987.84,0.01931
6982.06,0.02295
6976.27,0.02040
6970.49,0.02241
6964.7,0.01739
6958.91,0.02335
6953.13,0.02191
6947.34,0.02705
6941.55,0.01960
6935.77,0.01931
6929.98,0.02368
6924.2,0.02161
6918.41,0.01688
6912.62,0.01807
6906.84,0.02476
6901.05,0.02357
6895.26,0.02871
6889.48,0.02910
6883.69,0.02807
6877.91,0.01738
6872.12,0.01869
6866.33,0.01687
6860.55,0.02457
6854.76,0.02488
6848.97,0.01904
6843.19,0.02564
6837.4,0.02228
6831.62,0.02145
6825.83,0.02506
6820.04,0.01644
6814.26,0.02065
6808.47,0.02724
6802.68,0.02791
6796.9,0.02252
6791.11,0.02472
6785.33,0.02703
6779.54,0.02584
6773.75,0.02240
6767.97,0.02240
6762.18,0.02052
6756.39,0.02617
6750.61,0.02529
6744.82,0.02293
6739.04,0.02247
6733.25,0.02594
6727.46,0.01774
6721.68,0.02482
6715.89,0.02353
6710.1,0.02764
6704.32,0.02559
6698.53,0.01994
6692.75,0.01991
6686.96,0.02415
6681.17,0.02370
6675.39,0.02334
6669.6,0.02484
6663.82,0.01684
6658.03,0.02355
6652.24,0.01833
6646.46,0.02126
6640.67,0.02273
6634.88,0.02677
6629.1,0.02546
6623.31,0.02096
6617.53,0.02500
6611.74,0.02112
6605.95,0.02439
6600.17,0.02819
6594.38,0.01634
6588.59,0.02197
6582.81,0.02344
6577.02,0.02618
6571.24,0.02531
6565.45,0.02076
6559.66,0.02244
6553.88,0.02069
6548.09,0.01721
6542.3,0.02027
6536.52,0.01720
6530.73,0.02241
6524.95,0.02403
6519.16,0.01812
6513.37,0.01878
6507.59,0.02113
6501.8,0.02482
6496.01,0.01951
6490.23,0.02434
6484.44,0.02251
6478.66,0.02125
6472.87,0.02213
6467.08,0.02108
6461.3,0.02094
6455.51,0.02379
6449.72,0.02283
6443.94,0.02551
6438.15,0.02402
6432.37,0.01962
6426.58,0.02072
6420.79,0.02103
6415.01,0.01575
6409.22,0.02429
6403.43,0.02281
6397.65,0.01447
6391.86,0.01967
6386.08,0.02260
6380.29,0.02449
6374.5,0.02267
6368.72,0.02394
6362.93,0.02324
6357.14,0.02110
6351.36,0.01795
6345.57,0.02520
6339.79,0.02182
6334,0.02044
6328.21,0.02237
6322.43,0.02114
6316.64,0.01978
6310.85,0.02009
6305.07,0.02218
6299.28,0.02736
6293.5,0.02112
6287.71,0.02337
6281.92,0.02298
6276.14,0.02252
6270.35,0.02010
6264.56,0.02026
6258.78,0.02090
6252.99,0.02010
6247.21,0.02075
6241.42,0.02325
6235.63,0.02074
6229.85,0.02359
6224.06,0.02165
6218.27,0.02066
6212.49,0.02029
6206.7,0.02226
6200.92,0.02520
6195.13,0.02393
6189.34,0.02187
6183.56,0.02151
6177.77,0.02601
6171.98,0.02463
6166.2,0.02124
6160.41,0.01789
6154.63,0.01996
6148.84,0.02224
6143.05,0.02309
6137.27,0.02137
6131.48,0.02049
6125.7,0.01834
6119.91,0.02524
6114.12,0.02225
6108.34,0.01987
6102.55,0.02269
6096.76,0.02186
6090.98,0.01985
6085.19,0.02136
6079.41,0.02223
6073.62,0.02252
6067.83,0.02084
6062.05,0.02062
6056.26,0.02131
6050.47,0.02393
6044.69,0.02509
6038.9,0.02150
6033.12,0.02190
6027.33,0.02125
6021.54,0.02090
6015.76,0.02195
6009.97,0.02425
6004.18,0.02400
5998.4,0.02219
5992.61,0.02114
5986.83,0.02171
5981.04,0.02070
5975.25,0.02349
5969.47,0.02127
5963.68,0.02062
5957.89,0.02074
5952.11,0.02239
5946.32,0.02317
5940.54,0.02202
5934.75,0.01973
5928.96,0.02086
5923.18,0.02363
5917.39,0.02049
5911.6,0.02418
5905.82,0.01960
5900.03,0.02045
5894.25,0.02115
5888.46,0.02164
5882.67,0.02146
5876.89,0.02167
5871.1,0.02300
5865.31,0.02107
5859.53,0.02199
5853.74,0.02172
5847.96,0.02247
5842.17,0.02060
5836.38,0.02243
5830.6,0.02130
5824.81,0.01810
5819.02,0.02055
5813.24,0.02377
5807.45,0.02170
5801.67,0.02154
5795.88,0.02084
5790.09,0.02069
5784.31,0.02185
5778.52,0.02203
5772.73,0.02280
5766.95,0.02236
5761.16,0.02462
5755.38,0.02055
5749.59,0.02099
5743.8,0.02059
5738.02,0.02148
5732.23,0.02193
5726.44,0.02250
5720.66,0.02167
5714.87,0.02195
5709.09,0.02189
5703.3,0.01921
5697.51,0.02154
5691.73,0.02294
5685.94,0.01966
5680.15,0.02385
5674.37,0.02170
5668.58,0.01897
5662.8,0.02180
5657.01,0.02268
5651.22,0.01907
5645.44,0.01979
5639.65,0.02249
5633.87,0.02130
5628.08,0.02090
5622.29,0.01871
5616.51,0.02118
5610.72,0.02152
5604.93,0.02158
5599.15,0.02107
5593.36,0.02131
5587.58,0.02198
5581.79,0.02087
5576,0.01969
5570.22,0.02113
5564.43,0.02268
5558.64,0.02175
5552.86,0.01973
5547.07,0.02034
5541.29,0.02295
5535.5,0.02160
5529.71,0.02061
5523.93,0.02218
5518.14,0.02069
5512.35,0.02151
5506.57,0.02415
5500.78,0.02248
5495,0.02132
5489.21,0.01983
5483.42,0.02167
5477.64,0.02225
5471.85,0.02208
5466.06,0.01994
5460.28,0.02071
5454.49,0.02154
5448.71,0.02160
5442.92,0.02167
5437.13,0.02104
5431.35,0.02006
5425.56,0.02268
5419.77,0.02297
5413.99,0.02081
5408.2,0.02136
5402.42,0.02104
5396.63,0.02246
5390.84,0.02189
5385.06,0.02048
5379.27,0.02138
5373.48,0.02080
5367.7,0.02177
5361.91,0.02033
5356.13,0.02235
5350.34,0.02153
5344.55,0.02167
5338.77,0.02025
5332.98,0.02025
5327.19,0.02123
5321.41,0.02022
5315.62,0.02226
5309.84,0.02101
5304.05,0.02235
5298.26,0.02154
5292.48,0.02083
5286.69,0.02099
5280.9,0.02038
5275.12,0.02037
5269.33,0.02099
5263.55,0.02185
5257.76,0.02175
5251.97,0.02325
5246.19,0.02241
5240.4,0.02171
5234.61,0.02050
5228.83,0.02048
5223.04,0.02213
5217.26,0.02108
5211.47,0.02242
5205.68,0.02221
5199.9,0.02240
5194.11,0.02229
5188.32,0.02139
5182.54,0.02184
5176.75,0.02027
5170.97,0.02130
5165.18,0.02116
5159.39,0.02197
5153.61,0.02244
5147.82,0.02100
5142.03,0.02033
5136.25,0.02196
5130.46,0.02198
5124.68,0.02147
5118.89,0.02068
5113.1,0.02129
5107.32,0.01990
5101.53,0.02082
5095.75,0.02069
5089.96,0.02191
5084.17,0.02172
5078.39,0.02110
5072.6,0.02321
5066.81,0.02128
5061.03,0.02282
5055.24,0.02233
5049.46,0.02108
5043.67,0.02352
5037.88,0.02244
5032.1,0.02200
5026.31,0.02151
5020.52,0.02082
5014.74,0.02242
5008.95,0.02132
5003.17,0.02153
4997.38,0.02118
4991.59,0.02177
4985.81,0.02188
4980.02,0.02065
4974.23,0.02139
4968.45,0.02150
4962.66,0.02179
4956.88,0.02234
4951.09,0.02077
4945.3,0.02089
4939.52,0.02059
4933.73,0.02134
4927.94,0.02275
4922.16,0.02196
4916.37,0.02099
4910.59,0.02227
4904.8,0.02263
4899.01,0.02178
4893.23,0.02162
4887.44,0.02236
4881.65,0.02227
4875.87,0.02248
4870.08,0.02215
4864.3,0.02218
4858.51,0.02234
4852.72,0.02050
4846.94,0.02134
4841.15,0.02127
4835.36,0.02107
4829.58,0.02250
4823.79,0.02330
4818.01,0.02190
4812.22,0.02258
4806.43,0.02167
4800.65,0.02315
4794.86,0.02212
4789.07,0.02245
4783.29,0.02097
4777.5,0.02195
4771.72,0.02149
4765.93,0.02201
4760.14,0.02079
4754.36,0.02227
4748.57,0.02153
4742.78,0.02132
4737,0.02097
4731.21,0.02113
4725.43,0.02163
4719.64,0.02329
4713.85,0.02198
4708.07,0.02042
4702.28,0.02075
4696.49,0.02071
4690.71,0.02271
4684.92,0.02150
4679.14,0.02165
4673.35,0.02237
4667.56,0.02189
4661.78,0.02113
4655.99,0.02240
4650.2,0.02195
4644.42,0.02201
4638.63,0.02274
4632.85,0.02158
4627.06,0.02183
4621.27,0.02241
4615.49,0.02247
4609.7,0.02264
4603.92,0.02255
4598.13,0.02163
4592.34,0.02116
4586.56,0.02230
4580.77,0.02196
4574.98,0.02242
4569.2,0.02208
4563.41,0.02157
4557.63,0.02191
4551.84,0.02142
4546.05,0.02253
4540.27,0.02189
4534.48,0.02111
4528.69,0.02188
4522.91,0.02114
4517.12,0.02233
4511.34,0.02242
4505.55,0.02180
4499.76,0.02280
4493.98,0.02234
4488.19,0.02190
4482.4,0.02155
4476.62,0.02204
4470.83,0.02226
4465.05,0.02278
4459.26,0.02217
4453.47,0.02173
4447.69,0.02174
4441.9,0.02192
4436.11,0.02226
4430.33,0.02200
4424.54,0.02158
4418.76,0.02161
4412.97,0.02211
4407.18,0.02257
4401.4,0.02288
4395.61,0.02187
4389.82,0.02215
4384.04,0.02117
4378.25,0.02118
4372.47,0.02154
4366.68,0.02239
4360.89,0.02235
4355.11,0.02129
4349.32,0.02203
4343.53,0.02270
4337.75,0.02243
4331.96,0.02199
4326.18,0.02244
4320.39,0.02195
4314.6,0.02187
4308.82,0.02223
4303.03,0.02183
4297.24,0.02233
4291.46,0.02108
4285.67,0.02320
4279.89,0.02193
4274.1,0.02204
4268.31,0.02264
4262.53,0.02209
4256.74,0.02138
4250.95,0.02189
4245.17,0.02174
4239.38,0.02195
4233.6,0.02324
4227.81,0.02196
4222.02,0.02236
4216.24,0.02220
4210.45,0.02293
4204.66,0.02041
4198.88,0.02230
4193.09,0.02194
4187.31,0.02146
4181.52,0.02267
4175.73,0.02216
4169.95,0.02205
4164.16,0.02209
4158.37,0.02325
4152.59,0.02304
4146.8,0.02249
4141.02,0.02200
4135.23,0.02185
4129.44,0.02158
4123.66,0.02263
4117.87,0.02145
4112.09,0.02250
4106.3,0.02229
4100.51,0.02198
4094.73,0.02200
4088.94,0.02212
4083.15,0.02165
4077.37,0.02206
4071.58,0.02219
4065.8,0.02178
4060.01,0.02216
4054.22,0.02187
4048.44,0.02226
4042.65,0.02293
4036.86,0.02261
4031.08,0.02235
4025.29,0.02188
4019.51,0.02223
4013.72,0.02298
4007.93,0.02230
4002.15,0.02179
3996.36,0.02202
3990.57,0.02254
3984.79,0.02295
3979,0.02255
3973.22,0.02202
3967.43,0.02236
3961.64,0.02288
3955.86,0.02304
3950.07,0.02248
3944.28,0.02250
3938.5,0.02193
3932.71,0.02265
3926.93,0.02259
3921.14,0.02217
3915.35,0.02228
3909.57,0.02230
3903.78,0.02294
3897.99,0.02202
3892.21,0.02189
3886.42,0.02252
3880.64,0.02178
3874.85,0.02186
3869.06,0.02157
3863.28,0.02266
3857.49,0.02293
3851.7,0.02220
3845.92,0.02281
3840.13,0.02147
3834.35,0.02188
3828.56,0.02309
3822.77,0.02257
3816.99,0.02262
3811.2,0.02198
3805.41,0.02275
3799.63,0.02227
3793.84,0.02260
3788.06,0.02235
3782.27,0.02213
3776.48,0.02168
3770.7,0.02237
3764.91,0.02264
3759.12,0.02314
3753.34,0.02347
3747.55,0.02267
3741.77,0.02317
3735.98,0.02187
3730.19,0.02213
3724.41,0.02265
3718.62,0.02280
3712.83,0.02320
3707.05,0.02274
3701.26,0.02214
3695.48,0.02173
3689.69,0.02161
3683.9,0.02194
3678.12,0.02267
3672.33,0.02273
3666.54,0.02209
3660.76,0.02162
3654.97,0.02179
3649.19,0.02241
3643.4,0.02232
3637.61,0.02168
3631.83,0.02133
3626.04,0.02148
3620.25,0.02224
3614.47,0.02187
3608.68,0.02191
3602.9,0.02143
3597.11,0.02141
3591.32,0.02146
3585.54,0.02082
3579.75,0.02094
3573.97,0.02086
3568.18,0.02092
3562.39,0.02137
3556.61,0.02175
3550.82,0.02170
3545.03,0.02191
3539.25,0.02100
3533.46,0.02076
3527.68,0.02061
3521.89,0.02039
3516.1,0.02078
3510.32,0.02083
3504.53,0.02108
3498.74,0.02137
3492.96,0.02091
3487.17,0.02152
3481.39,0.02104
3475.6,0.02075
3469.81,0.02076
3464.03,0.02108
3458.24,0.02055
3452.45,0.02057
3446.67,0.02060
3440.88,0.02017
3435.1,0.02014
3429.31,0.02042
3423.52,0.02038
3417.74,0.02063
3411.95,0.02033
3406.16,0.02082
3400.38,0.01966
3394.59,0.01926
3388.81,0.02031
3383.02,0.02013
3377.23,0.02078
3371.45,0.02056
3365.66,0.02079
3359.87,0.02062
3354.09,0.02009
3348.3,0.01930
3342.52,0.01952
3336.73,0.01947
3330.94,0.01989
3325.16,0.02029
3319.37,0.01961
3313.58,0.02050
3307.8,0.02118
3302.01,0.02035
3296.23,0.02029
3290.44,0.02032
3284.65,0.02061
3278.87,0.02040
3273.08,0.02051
3267.29,0.02047
3261.51,0.02013
3255.72,0.02024
3249.94,0.01966
3244.15,0.01980
3238.36,0.02082
3232.58,0.02059
3226.79,0.01999
3221,0.02076
3215.22,0.02037
3209.43,0.02057
3203.65,0.02073
3197.86,0.02093
3192.07,0.02068
3186.29,0.02042
3180.5,0.02078
3174.71,0.02003
3168.93,0.02101
3163.14,0.02084
3157.36,0.02074
3151.57,0.02080
3145.78,0.02105
3140,0.02064
3134.21,0.02134
3128.42,0.02100
3122.64,0.02040
3116.85,0.02028
3111.07,0.02062
3105.28,0.02054
3099.49,0.02059
3093.71,0.02013
3087.92,0.02073
3082.14,0.02041
3076.35,0.02081
3070.56,0.02037
3064.78,0.02050
3058.99,0.02108
3053.2,0.02033
3047.42,0.02109
3041.63,0.02058
3035.85,0.01997
3030.06,0.02061
3024.27,0.02051
3018.49,0.02042
3012.7,0.02064
3006.91,0.02027
3001.13,0.02059
2995.34,0.02040
2989.56,0.02023
2983.77,0.02001
2977.98,0.02037
2972.2,0.01938
2966.41,0.01947
2960.62,0.01987
2954.84,0.01978
2949.05,0.02017
2943.27,0.01979
2937.48,0.01936
2931.69,0.02004
2925.91,0.02041
2920.12,0.02028
2914.33,0.02058
2908.55,0.02032
2902.76,0.02014
2896.98,0.02049
2891.19,0.02041
2885.4,0.02088
2879.62,0.02018
2873.83,0.02018
2868.04,0.02040
2862.26,0.02070
2856.47,0.02056
2850.69,0.02087
2844.9,0.02180
2839.11,0.02135
2833.33,0.02105
2827.54,0.02094
2821.75,0.02089
2815.97,0.02153
2810.18,0.02114
2804.4,0.02166
2798.61,0.02147
2792.82,0.02171
2787.04,0.02160
2781.25,0.02138
2775.46,0.02147
2769.68,0.02145
2763.89,0.02111
2758.11,0.02183
2752.32,0.02158
2746.53,0.02135
2740.75,0.02133
2734.96,0.02125
2729.17,0.02184
2723.39,0.02135
2717.6,0.02135
2711.82,0.02118
2706.03,0.02139
2700.24,0.02154
2694.46,0.02135
2688.67,0.02148
2682.88,0.02129
2677.1,0.02138
2671.31,0.02119
2665.53,0.02175
2659.74,0.02192
2653.95,0.02185
2648.17,0.02136
2642.38,0.02127
2636.59,0.02133
2630.81,0.02127
2625.02,0.02144
2619.24,0.02130
2613.45,0.02133
2607.66,0.02168
2601.88,0.02150
2596.09,0.02134
2590.3,0.02112
2584.52,0.02122
2578.73,0.02120
2572.95,0.02112
2567.16,0.02136
2561.37,0.02132
2555.59,0.02148
2549.8,0.02109
2544.02,0.02160
2538.23,0.02132
2532.44,0.02140
2526.66,0.02120
2520.87,0.02120
2515.08,0.02165
2509.3,0.02171
2503.51,0.02136
2497.73,0.02196
2491.94,0.02162
2486.15,0.02135
2480.37,0.02137
2474.58,0.02131
2468.79,0.02180
2463.01,0.02186
2457.22,0.02165
2451.44,0.02127
2445.65,0.02145
2439.86,0.02149
2434.08,0.02138
2428.29,0.02110
2422.5,0.02166
2416.72,0.02170
2410.93,0.02111
2405.15,0.02163
2399.36,0.02166
2393.57,0.02168
2387.79,0.02139
2382,0.02150
2376.21,0.02144
2370.43,0.02133
2364.64,0.02152
2358.86,0.02163
2353.07,0.02134
2347.28,0.02137
2341.5,0.02128
2335.71,0.02112
2329.92,0.02146
2324.14,0.02183
2318.35,0.02154
2312.57,0.02135
2306.78,0.02123
2300.99,0.02138
2295.21,0.02090
2289.42,0.02149
2283.63,0.02146
2277.85,0.02153
2272.06,0.02111
2266.28,0.02125
2260.49,0.02145
2254.7,0.02154
2248.92,0.02137
2243.13,0.02105
2237.34,0.02118
2231.56,0.02128
2225.77,0.02114
2219.99,0.02138
2214.2,0.02126
2208.41,0.02102
2202.63,0.02135
2196.84,0.02115
2191.05,0.02104
2185.27,0.02126
2179.48,0.02147
2173.7,0.02129
2167.91,0.02124
2162.12,0.02098
2156.34,0.02073
2150.55,0.02090
2144.76,0.02112
2138.98,0.02131
2133.19,0.02136
2127.41,0.02119
2121.62,0.02130
2115.83,0.02125
2110.05,0.02119
2104.26,0.02122
2098.47,0.02106
2092.69,0.02110
2086.9,0.02128
2081.12,0.02135
2075.33,0.02077
2069.54,0.02141
2063.76,0.02075
2057.97,0.02118
2052.19,0.02137
2046.4,0.02114
2040.61,0.02096
2034.83,0.02126
2029.04,0.02112
2023.25,0.02100
2017.47,0.02118
2011.68,0.02078
2005.9,0.02118
2000.11,0.02136
1994.32,0.02111
1988.54,0.02112
1982.75,0.02113
1976.96,0.02089
1971.18,0.02123
1965.39,0.02148
1959.61,0.02127
1953.82,0.02101
1948.03,0.02141
1942.25,0.02104
1936.46,0.02107
1930.67,0.02114
1924.89,0.02119
1919.1,0.02124
1913.32,0.02074
1907.53,0.02102
1901.74,0.02083
1895.96,0.02075
1890.17,0.02087
1884.38,0.02096
1878.6,0.02050
1872.81,0.02079
1867.03,0.02062
1861.24,0.02048
1855.45,0.02089
1849.67,0.02095
1843.88,0.02088
1838.09,0.02014
1832.31,0.02052
1826.52,0.02040
1820.74,0.02001
1814.95,0.02053
1809.16,0.02047
1803.38,0.02008
1797.59,0.01977
1791.8,0.01992
1786.02,0.01964
1780.23,0.01944
1774.45,0.01981
1768.66,0.01884
1762.87,0.01864
1757.09,0.01764
1751.3,0.01740
1745.51,0.01802
1739.73,0.01910
1733.94,0.01995
1728.16,0.02059
1722.37,0.02110
1716.58,0.02103
1710.8,0.02046
1705.01,0.02052
1699.22,0.02034
1693.44,0.01966
1687.65,0.01942
1681.87,0.01864
1676.08,0.01899
1670.29,0.01900
1664.51,0.01858
1658.72,0.01848
1652.93,0.01877
1647.15,0.01876
1641.36,0.01897
1635.58,0.01887
1629.79,0.01843
1624,0.01916
1618.22,0.01915
1612.43,0.01904
1606.64,0.01939
1600.86,0.01926
1595.07,0.01916
1589.29,0.01886
1583.5,0.01876
1577.71,0.01882
1571.93,0.01897
1566.14,0.01885
1560.35,0.01866
1554.57,0.01867
1548.78,0.01833
1543,0.01873
1537.21,0.01831
1531.42,0.01874
1525.64,0.01910
1519.85,0.01810
1514.07,0.01889
1508.28,0.01903
1502.49,0.01884
1496.71,0.01850
1490.92,0.01885
1485.13,0.01922
1479.35,0.01879
1473.56,0.01883
1467.78,0.01850
1461.99,0.01858
1456.2,0.01868
1450.42,0.01887
1444.63,0.01904
1438.84,0.01882
1433.06,0.01905
1427.27,0.01893
1421.49,0.01880
1415.7,0.01882
1409.91,0.01888
1404.13,0.01870
1398.34,0.01881
1392.55,0.01824
1386.77,0.01808
1380.98,0.01869
1375.2,0.01823
1369.41,0.01836
1363.62,0.01840
1357.84,0.01833
1352.05,0.01775
1346.26,0.01828
1340.48,0.01819
1334.69,0.01813
1328.91,0.01798
1323.12,0.01788
1317.33,0.01714
1311.55,0.01732
1305.76,0.01732
1299.97,0.01762
1294.19,0.01835
1288.4,0.01868
1282.62,0.01869
1276.83,0.01939
1271.04,0.01950
1265.26,0.01993
1259.47,0.02011
1253.68,0.02012
1247.9,0.02047
1242.11,0.02037
1236.33,0.01978
1230.54,0.01957
1224.75,0.01968
1218.97,0.01947
1213.18,0.01933
1207.39,0.01934
1201.61,0.01891
1195.82,0.01836
1190.04,0.01830
1184.25,0.01854
1178.46,0.01795
1172.68,0.01826
1166.89,0.01804
1161.1,0.01760
1155.32,0.01777
1149.53,0.01761
1143.75,0.01744
1137.96,0.01759
1132.17,0.01761
1126.39,0.01837
1120.6,0.01915
1114.81,0.01946
1109.03,0.01888
1103.24,0.01886
1097.46,0.01768
1091.67,0.01806
1085.88,0.01889
1080.1,0.01877
1074.31,0.01941
1068.52,0.02008
1062.74,0.01990
1056.95,0.02012
1051.17,0.01972
1045.38,0.01900
1039.59,0.01975
1033.81,0.01935
1028.02,0.01954
1022.24,0.01929
1016.45,0.01929
1010.66,0.02053
1004.88,0.02084
999.09,0.02097
993.304,0.02130
987.518,0.02060
981.731,0.02046
975.945,0.02054
970.159,0.02068
964.373,0.02059
958.586,0.02044
952.8,0.02022
947.014,0.01998
941.228,0.01989
935.441,0.01894
929.655,0.01935
923.869,0.01934
918.083,0.01969
912.297,0.01958
906.51,0.01920
900.724,0.01894
894.938,0.01865
889.152,0.01931
883.365,0.01925
877.579,0.01870
871.793,0.01896
866.007,0.01874
860.22,0.01887
854.434,0.01924
848.648,0.01978
842.862,0.01935
837.075,0.01856
831.289,0.01883
825.503,0.01940
819.717,0.01931
813.931,0.01915
808.144,0.01973
802.358,0.01912
796.572,0.01832
790.786,0.01936
784.999,0.01801
779.213,0.01871
773.427,0.01890
767.641,0.01871
761.854,0.01888
756.068,0.01855
750.282,0.01821
744.496,0.01750
738.709,0.01788
732.923,0.01737
727.137,0.01743
721.351,0.01823
715.565,0.01772
709.778,0.01756
703.992,0.01819
698.206,0.01838
692.42,0.01833
686.633,0.01859
680.847,0.01823
675.061,0.01705
669.275,0.01712
663.488,0.01605
657.702,0.01573
651.916,0.01783
646.13,0.01558
640.343,0.01614
634.557,0.01401
628.771,0.01564
622.985,0.01495
617.198,0.01629
611.412,0.01756
605.626,0.01587
599.84,0.01513