File: 01_Data/Pressure_Treated_Deck/FTIR/IS/Pressure_Treated_Deck_IS_S_221012_R8.dpt
7497.03,0.81354
7491.25,0.80664
7485.46,0.81034
7479.67,0.80179
7473.89,0.79969
7468.1,0.80402
7462.32,0.79159
7456.53,0.78994
7450.74,0.78522
7444.96,0.79611
7439.17,0.78344
7433.38,0.77910
7427.6,0.79297
7421.81,0.80006
7416.03,0.79136
7410.24,0.78058
7404.45,0.78461
7398.67,0.78556
7392.88,0.78410
7387.09,0.78603
7381.31,0.78402
7375.52,0.78358
7369.74,0.77875
7363.95,0.78302
7358.16,0.77292
7352.38,0.77797
7346.59,0.77208
7340.8,0.78036
7335.02,0.77298
7329.23,0.76836
7323.45,0.76221
7317.66,0.77139
7311.87,0.76878
7306.09,0.76465
7300.3,0.76853
7294.51,0.77455
7288.73,0.77229
7282.94,0.76620
7277.16,0.77512
7271.37,0.76744
7265.58,0.76746
7259.8,0.77016
7254.01,0.76531
7248.22,0.76416
7242.44,0.76141
7236.65,0.76955
7230.87,0.76697
7225.08,0.75860
7219.29,0.76023
7213.51,0.76295
7207.72,0.76425
7201.93,0.75645
7196.15,0.75842
7190.36,0.77001
7184.58,0.75207
7178.79,0.76445
7173,0.75482
7167.22,0.75454
7161.43,0.75389
7155.65,0.74927
7149.86,0.74831
7144.07,0.74505
7138.29,0.74416
7132.5,0.75056
7126.71,0.73716
7120.93,0.73525
7115.14,0.72713
7109.36,0.72864
7103.57,0.72495
7097.78,0.72559
7092,0.72242
7086.21,0.71074
7080.42,0.70626
7074.64,0.71159
7068.85,0.69966
7063.07,0.69699
7057.28,0.69144
7051.49,0.67901
7045.71,0.67726
7039.92,0.67060
7034.13,0.67323
7028.35,0.67328
7022.56,0.66582
7016.78,0.65910
7010.99,0.66020
7005.2,0.65113
6999.42,0.65466
6993.63,0.64319
6987.84,0.64036
6982.06,0.64451
6976.27,0.64740
6970.49,0.64580
6964.7,0.63928
6958.91,0.64122
6953.13,0.63801
6947.34,0.63789
6941.55,0.63051
6935.77,0.62867
6929.98,0.62783
6924.2,0.63439
6918.41,0.63020
6912.62,0.63044
6906.84,0.63762
6901.05,0.63609
6895.26,0.63535
6889.48,0.63004
6883.69,0.63820
6877.91,0.63416
6872.12,0.63368
6866.33,0.62643
6860.55,0.62545
6854.76,0.62561
6848.97,0.63270
6843.19,0.63512
6837.4,0.62704
6831.62,0.62875
6825.83,0.63412
6820.04,0.63625
6814.26,0.63030
6808.47,0.62890
6802.68,0.63124
6796.9,0.62839
6791.11,0.63229
6785.33,0.63126
6779.54,0.63547
6773.75,0.63369
6767.97,0.63436
6762.18,0.63525
6756.39,0.63224
6750.61,0.63143
6744.82,0.63205
6739.04,0.63939
6733.25,0.63230
6727.46,0.63575
6721.68,0.63804
6715.89,0.63654
6710.1,0.63686
6704.32,0.63924
6698.53,0.64229
6692.75,0.64230
6686.96,0.64281
6681.17,0.64650
6675.39,0.64675
6669.6,0.63855
6663.82,0.64465
6658.03,0.64438
6652.24,0.64497
6646.46,0.64888
6640.67,0.64804
6634.88,0.64285
6629.1,0.64890
6623.31,0.65194
6617.53,0.65065
6611.74,0.64996
6605.95,0.65089
6600.17,0.65711
6594.38,0.65812
6588.59,0.65424
6582.81,0.65906
6577.02,0.65891
6571.24,0.65996
6565.45,0.66072
6559.66,0.66618
6553.88,0.66277
6548.09,0.65954
6542.3,0.66510
6536.52,0.66287
6530.73,0.66707
6524.95,0.66580
6519.16,0.66469
6513.37,0.66325
6507.59,0.67024
6501.8,0.66480
6496.01,0.66058
6490.23,0.66645
6484.44,0.66590
6478.66,0.66492
6472.87,0.66732
6467.08,0.66404
6461.3,0.66597
6455.51,0.66763
6449.72,0.66533
6443.94,0.66757
6438.15,0.67208
6432.37,0.66760
6426.58,0.66736
6420.79,0.67070
6415.01,0.66919
6409.22,0.67394
6403.43,0.66985
6397.65,0.67503
6391.86,0.67282
6386.08,0.67098
6380.29,0.67504
6374.5,0.67805
6368.72,0.67659
6362.93,0.67627
6357.14,0.67589
6351.36,0.67500
6345.57,0.67748
6339.79,0.67675
6334,0.67536
6328.21,0.67728
6322.43,0.67892
6316.64,0.67444
6310.85,0.67552
6305.07,0.67707
6299.28,0.68118
6293.5,0.68211
6287.71,0.68057
6281.92,0.68146
6276.14,0.68210
6270.35,0.68600
6264.56,0.68153
6258.78,0.68688
6252.99,0.68649
6247.21,0.68809
6241.42,0.69358
6235.63,0.69412
6229.85,0.69491
6224.06,0.69971
6218.27,0.69646
6212.49,0.70009
6206.7,0.70340
6200.92,0.69997
6195.13,0.71060
6189.34,0.70992
6183.56,0.70660
6177.77,0.71049
6171.98,0.70950
6166.2,0.71219
6160.41,0.71401
6154.63,0.71705
6148.84,0.71801
6143.05,0.71754
6137.27,0.71636
6131.48,0.71872
6125.7,0.72004
6119.91,0.71677
6114.12,0.72097
6108.34,0.72222
6102.55,0.72283
6096.76,0.72073
6090.98,0.72435
6085.19,0.72660
6079.41,0.72453
6073.62,0.72156
6067.83,0.72283
6062.05,0.71923
6056.26,0.72016
6050.47,0.71866
6044.69,0.71983
6038.9,0.72113
6033.12,0.71682
6027.33,0.71562
6021.54,0.71086
6015.76,0.71466
6009.97,0.70748
6004.18,0.70603
5998.4,0.70498
5992.61,0.70478
5986.83,0.70371
5981.04,0.70228
5975.25,0.70210
5969.47,0.70336
5963.68,0.70305
5957.89,0.70234
5952.11,0.70227
5946.32,0.70476
5940.54,0.70500
5934.75,0.70521
5928.96,0.70627
5923.18,0.70648
5917.39,0.70217
5911.6,0.70534
5905.82,0.70136
5900.03,0.70263
5894.25,0.69923
5888.46,0.69721
5882.67,0.69818
5876.89,0.69569
5871.1,0.69691
5865.31,0.69654
5859.53,0.69461
5853.74,0.69790
5847.96,0.69700
5842.17,0.70001
5836.38,0.69492
5830.6,0.69643
5824.81,0.69589
5819.02,0.69401
5813.24,0.69220
5807.45,0.69686
5801.67,0.69104
5795.88,0.69110
5790.09,0.69105
5784.31,0.69100
5778.52,0.69328
5772.73,0.69383
5766.95,0.69602
5761.16,0.69460
5755.38,0.69573
5749.59,0.69468
5743.8,0.69550
5738.02,0.69593
5732.23,0.69793
5726.44,0.69536
5720.66,0.69575
5714.87,0.69339
5709.09,0.69630
5703.3,0.69564
5697.51,0.69234
5691.73,0.69410
5685.94,0.69423
5680.15,0.69202
5674.37,0.69405
5668.58,0.69436
5662.8,0.69451
5657.01,0.69150
5651.22,0.69255
5645.44,0.69362
5639.65,0.69385
5633.87,0.69402
5628.08,0.69399
5622.29,0.69457
5616.51,0.69346
5610.72,0.69546
5604.93,0.69281
5599.15,0.69238
5593.36,0.69227
5587.58,0.69375
5581.79,0.69459
5576,0.69391
5570.22,0.69573
5564.43,0.69503
5558.64,0.69628
5552.86,0.69689
5547.07,0.69584
5541.29,0.69682
5535.5,0.70049
5529.71,0.69870
5523.93,0.69859
5518.14,0.69936
5512.35,0.69972
5506.57,0.69989
5500.78,0.70027
5495,0.70081
5489.21,0.70052
5483.42,0.70121
5477.64,0.70295
5471.85,0.70175
5466.06,0.70273
5460.28,0.70449
5454.49,0.70443
5448.71,0.70781
5442.92,0.70739
5437.13,0.70835
5431.35,0.70869
5425.56,0.71193
5419.77,0.71065
5413.99,0.71486
5408.2,0.71280
5402.42,0.71216
5396.63,0.71277
5390.84,0.71590
5385.06,0.71610
5379.27,0.71484
5373.48,0.71410
5367.7,0.71460
5361.91,0.71452
5356.13,0.71408
5350.34,0.71280
5344.55,0.71166
5338.77,0.71053
5332.98,0.70948
5327.19,0.70642
5321.41,0.70332
5315.62,0.69786
5309.84,0.69488
5304.05,0.68908
5298.26,0.68277
5292.48,0.67560
5286.69,0.66540
5280.9,0.65493
5275.12,0.64551
5269.33,0.63426
5263.55,0.62266
5257.76,0.60996
5251.97,0.60028
5246.19,0.59103
5240.4,0.58127
5234.61,0.57399
5228.83,0.56703
5223.04,0.56376
5217.26,0.56079
5211.47,0.55459
5205.68,0.55295
5199.9,0.55026
5194.11,0.55054
5188.32,0.55068
5182.54,0.55164
5176.75,0.55434
5170.97,0.55387
5165.18,0.55772
5159.39,0.56107
5153.61,0.56300
5147.82,0.56746
5142.03,0.56923
5136.25,0.57282
5130.46,0.57673
5124.68,0.58147
5118.89,0.58311
5113.1,0.58626
5107.32,0.58907
5101.53,0.59268
5095.75,0.59670
5089.96,0.59842
5084.17,0.60243
5078.39,0.60587
5072.6,0.60736
5066.81,0.61044
5061.03,0.61371
5055.24,0.61505
5049.46,0.61932
5043.67,0.62159
5037.88,0.62223
5032.1,0.62502
5026.31,0.62619
5020.52,0.62757
5014.74,0.62888
5008.95,0.63029
5003.17,0.63097
4997.38,0.63003
4991.59,0.62799
4985.81,0.62865
4980.02,0.62651
4974.23,0.62599
4968.45,0.62262
4962.66,0.61882
4956.88,0.61433
4951.09,0.61045
4945.3,0.60666
4939.52,0.60166
4933.73,0.59753
4927.94,0.59205
4922.16,0.58512
4916.37,0.58018
4910.59,0.57504
4904.8,0.57043
4899.01,0.56470
4893.23,0.55997
4887.44,0.55556
4881.65,0.54919
4875.87,0.54613
4870.08,0.53986
4864.3,0.53438
4858.51,0.53117
4852.72,0.52780
4846.94,0.52499
4841.15,0.52111
4835.36,0.51827
4829.58,0.51363
4823.79,0.51007
4818.01,0.50791
4812.22,0.50629
4806.43,0.50279
4800.65,0.50205
4794.86,0.50063
4789.07,0.49853
4783.29,0.49852
4777.5,0.49698
4771.72,0.49669
4765.93,0.49487
4760.14,0.49425
4754.36,0.49521
4748.57,0.49526
4742.78,0.49550
4737,0.49652
4731.21,0.49625
4725.43,0.49739
4719.64,0.49880
4713.85,0.49866
4708.07,0.50003
4702.28,0.50046
4696.49,0.50182
4690.71,0.50318
4684.92,0.50331
4679.14,0.50542
4673.35,0.50679
4667.56,0.50846
4661.78,0.51045
4655.99,0.51288
4650.2,0.51479
4644.42,0.51677
4638.63,0.51920
4632.85,0.52195
4627.06,0.52414
4621.27,0.52866
4615.49,0.53151
4609.7,0.53415
4603.92,0.53802
4598.13,0.54158
4592.34,0.54344
4586.56,0.54567
4580.77,0.54815
4574.98,0.54988
4569.2,0.55126
4563.41,0.55314
4557.63,0.55455
4551.84,0.55415
4546.05,0.55583
4540.27,0.55679
4534.48,0.55812
4528.69,0.55879
4522.91,0.55911
4517.12,0.55970
4511.34,0.56041
4505.55,0.55798
4499.76,0.55590
4493.98,0.55330
4488.19,0.54957
4482.4,0.54485
4476.62,0.54009
4470.83,0.53376
4465.05,0.52729
4459.26,0.52031
4453.47,0.51340
4447.69,0.50554
4441.9,0.49915
4436.11,0.49150
4430.33,0.48424
4424.54,0.47671
4418.76,0.46893
4412.97,0.46259
4407.18,0.45789
4401.4,0.45562
4395.61,0.45491
4389.82,0.45518
4384.04,0.45667
4378.25,0.45869
4372.47,0.46087
4366.68,0.46425
4360.89,0.46537
4355.11,0.46595
4349.32,0.46456
4343.53,0.46486
4337.75,0.46348
4331.96,0.46231
4326.18,0.46015
4320.39,0.45730
4314.6,0.45477
4308.82,0.45237
4303.03,0.44915
4297.24,0.44684
4291.46,0.44507
4285.67,0.44347
4279.89,0.44252
4274.1,0.44278
4268.31,0.44279
4262.53,0.44531
4256.74,0.44618
4250.95,0.44737
4245.17,0.44813
4239.38,0.44899
4233.6,0.45022
4227.81,0.45069
4222.02,0.44937
4216.24,0.44942
4210.45,0.44850
4204.66,0.44923
4198.88,0.45000
4193.09,0.45035
4187.31,0.45078
4181.52,0.45210
4175.73,0.45336
4169.95,0.45634
4164.16,0.45662
4158.37,0.45696
4152.59,0.45516
4146.8,0.45450
4141.02,0.45112
4135.23,0.44878
4129.44,0.44565
4123.66,0.44162
4117.87,0.43676
4112.09,0.43181
4106.3,0.42731
4100.51,0.42173
4094.73,0.41780
4088.94,0.41081
4083.15,0.40509
4077.37,0.39959
4071.58,0.39371
4065.8,0.38778
4060.01,0.38214
4054.22,0.37628
4048.44,0.37152
4042.65,0.36615
4036.86,0.36247
4031.08,0.35837
4025.29,0.35645
4019.51,0.35356
4013.72,0.35329
4007.93,0.35280
4002.15,0.35370
3996.36,0.35418
3990.57,0.35461
3984.79,0.35684
3979,0.35782
3973.22,0.36021
3967.43,0.36253
3961.64,0.36441
3955.86,0.36762
3950.07,0.37090
3944.28,0.37309
3938.5,0.37674
3932.71,0.38002
3926.93,0.38316
3921.14,0.38572
3915.35,0.38880
3909.57,0.39142
3903.78,0.39402
3897.99,0.39680
3892.21,0.39918
3886.42,0.40186
3880.64,0.40390
3874.85,0.40583
3869.06,0.40845
3863.28,0.41071
3857.49,0.41395
3851.7,0.41743
3845.92,0.41986
3840.13,0.42230
3834.35,0.42396
3828.56,0.42508
3822.77,0.42544
3816.99,0.42526
3811.2,0.42462
3805.41,0.42470
3799.63,0.42462
3793.84,0.42374
3788.06,0.42305
3782.27,0.42174
3776.48,0.42079
3770.7,0.41962
3764.91,0.41803
3759.12,0.41664
3753.34,0.41451
3747.55,0.41244
3741.77,0.40815
3735.98,0.40486
3730.19,0.39898
3724.41,0.39368
3718.62,0.38652
3712.83,0.38058
3707.05,0.37136
3701.26,0.36025
3695.48,0.34844
3689.69,0.33463
3683.9,0.31456
3678.12,0.29502
3672.33,0.27241
3666.54,0.24812
3660.76,0.22767
3654.97,0.20805
3649.19,0.19113
3643.4,0.17413
3637.61,0.16125
3631.83,0.14997
3626.04,0.13829
3620.25,0.12894
3614.47,0.12070
3608.68,0.11188
3602.9,0.10486
3597.11,0.09791
3591.32,0.09202
3585.54,0.08720
3579.75,0.08191
3573.97,0.07847
3568.18,0.07456
3562.39,0.07131
3556.61,0.06794
3550.82,0.06579
3545.03,0.06403
3539.25,0.06187
3533.46,0.05957
3527.68,0.05811
3521.89,0.05716
3516.1,0.05563
3510.32,0.05375
3504.53,0.05317
3498.74,0.05218
3492.96,0.05132
3487.17,0.05014
3481.39,0.04986
3475.6,0.04959
3469.81,0.04842
3464.03,0.04831
3458.24,0.04874
3452.45,0.04788
3446.67,0.04769
3440.88,0.04886
3435.1,0.04851
3429.31,0.04768
3423.52,0.04817
3417.74,0.04787
3411.95,0.04799
3406.16,0.04912
3400.38,0.04920
3394.59,0.04947
3388.81,0.04927
3383.02,0.04930
3377.23,0.04956
3371.45,0.05045
3365.66,0.05081
3359.87,0.05152
3354.09,0.05112
3348.3,0.05151
3342.52,0.05247
3336.73,0.05360
3330.94,0.05464
3325.16,0.05526
3319.37,0.05637
3313.58,0.05676
3307.8,0.05706
3302.01,0.05751
3296.23,0.05859
3290.44,0.05928
3284.65,0.06046
3278.87,0.06172
3273.08,0.06283
3267.29,0.06389
3261.51,0.06425
3255.72,0.06595
3249.94,0.06651
3244.15,0.06859
3238.36,0.07005
3232.58,0.07162
3226.79,0.07408
3221,0.07519
3215.22,0.07545
3209.43,0.07880
3203.65,0.08008
3197.86,0.08145
3192.07,0.08353
3186.29,0.08546
3180.5,0.08794
3174.71,0.08970
3168.93,0.09150
3163.14,0.09407
3157.36,0.09603
3151.57,0.09871
3145.78,0.10110
3140,0.10304
3134.21,0.10552
3128.42,0.10731
3122.64,0.11020
3116.85,0.11234
3111.07,0.11412
3105.28,0.11654
3099.49,0.11876
3093.71,0.12066
3087.92,0.12264
3082.14,0.12412
3076.35,0.12592
3070.56,0.12796
3064.78,0.13039
3058.99,0.13228
3053.2,0.13453
3047.42,0.13601
3041.63,0.13784
3035.85,0.13847
3030.06,0.13882
3024.27,0.13938
3018.49,0.13833
3012.7,0.13590
3006.91,0.13275
3001.13,0.13068
2995.34,0.12820
2989.56,0.12472
2983.77,0.11909
2977.98,0.11206
2972.2,0.10380
2966.41,0.09801
2960.62,0.09413
2954.84,0.09035
2949.05,0.08622
2943.27,0.08277
2937.48,0.08106
2931.69,0.08072
2925.91,0.08001
2920.12,0.08032
2914.33,0.08067
2908.55,0.08040
2902.76,0.08126
2896.98,0.08161
2891.19,0.08276
2885.4,0.08401
2879.62,0.08568
2873.83,0.08685
2868.04,0.08958
2862.26,0.09251
2856.47,0.09570
2850.69,0.09889
2844.9,0.10479
2839.11,0.11014
2833.33,0.11664
2827.54,0.12434
2821.75,0.13165
2815.97,0.13790
2810.18,0.14337
2804.4,0.14783
2798.61,0.15183
2792.82,0.15518
2787.04,0.15781
2781.25,0.15947
2775.46,0.16139
2769.68,0.16280
2763.89,0.16448
2758.11,0.16539
2752.32,0.16606
2746.53,0.16668
2740.75,0.16726
2734.96,0.16823
2729.17,0.16964
2723.39,0.17110
2717.6,0.17301
2711.82,0.17533
2706.03,0.17828
2700.24,0.18069
2694.46,0.18297
2688.67,0.18575
2682.88,0.18777
2677.1,0.19023
2671.31,0.19234
2665.53,0.19331
2659.74,0.19483
2653.95,0.19619
2648.17,0.19815
2642.38,0.19949
2636.59,0.20182
2630.81,0.20302
2625.02,0.20570
2619.24,0.20728
2613.45,0.20923
2607.66,0.21087
2601.88,0.21267
2596.09,0.21420
2590.3,0.21601
2584.52,0.21733
2578.73,0.21863
2572.95,0.21967
2567.16,0.22071
2561.37,0.22120
2555.59,0.22157
2549.8,0.22249
2544.02,0.22237
2538.23,0.22316
2532.44,0.22498
2526.66,0.22696
2520.87,0.22891
2515.08,0.23040
2509.3,0.23262
2503.51,0.23577
2497.73,0.23881
2491.94,0.24158
2486.15,0.24428
2480.37,0.24640
2474.58,0.24904
2468.79,0.25146
2463.01,0.25382
2457.22,0.25581
2451.44,0.25889
2445.65,0.26101
2439.86,0.26373
2434.08,0.26659
2428.29,0.26963
2422.5,0.27297
2416.72,0.27605
2410.93,0.27981
2405.15,0.28287
2399.36,0.28531
2393.57,0.28855
2387.79,0.29118
2382,0.29342
2376.21,0.29620
2370.43,0.29852
2364.64,0.30075
2358.86,0.30290
2353.07,0.30464
2347.28,0.30606
2341.5,0.30809
2335.71,0.30913
2329.92,0.31051
2324.14,0.31110
2318.35,0.31177
2312.57,0.31203
2306.78,0.31197
2300.99,0.31154
2295.21,0.31118
2289.42,0.30997
2283.63,0.31014
2277.85,0.30960
2272.06,0.30801
2266.28,0.30668
2260.49,0.30461
2254.7,0.30346
2248.92,0.30251
2243.13,0.30167
2237.34,0.30063
2231.56,0.29987
2225.77,0.29959
2219.99,0.29945
2214.2,0.29857
2208.41,0.29785
2202.63,0.29620
2196.84,0.29419
2191.05,0.29145
2185.27,0.28836
2179.48,0.28493
2173.7,0.28135
2167.91,0.27819
2162.12,0.27533
2156.34,0.27311
2150.55,0.27164
2144.76,0.27015
2138.98,0.26863
2133.19,0.26833
2127.41,0.26833
2121.62,0.26937
2115.83,0.27063
2110.05,0.27095
2104.26,0.27176
2098.47,0.27291
2092.69,0.27344
2086.9,0.27354
2081.12,0.27299
2075.33,0.27095
2069.54,0.26962
2063.76,0.26835
2057.97,0.26786
2052.19,0.26798
2046.4,0.26921
2040.61,0.27104
2034.83,0.27356
2029.04,0.27680
2023.25,0.28033
2017.47,0.28384
2011.68,0.28641
2005.9,0.28892
2000.11,0.29089
1994.32,0.29316
1988.54,0.29508
1982.75,0.29691
1976.96,0.29871
1971.18,0.30032
1965.39,0.30230
1959.61,0.30465
1953.82,0.30719
1948.03,0.31015
1942.25,0.31322
1936.46,0.31533
1930.67,0.31755
1924.89,0.31868
1919.1,0.31970
1913.32,0.31974
1907.53,0.31992
1901.74,0.31951
1895.96,0.31908
1890.17,0.31837
1884.38,0.31783
1878.6,0.31726
1872.81,0.31646
1867.03,0.31587
1861.24,0.31464
1855.45,0.31305
1849.67,0.31128
1843.88,0.30896
1838.09,0.30547
1832.31,0.30198
1826.52,0.29814
1820.74,0.29177
1814.95,0.28483
1809.16,0.27587
1803.38,0.26580
1797.59,0.25447
1791.8,0.24176
1786.02,0.22724
1780.23,0.21074
1774.45,0.19211
1768.66,0.16678
1762.87,0.14297
1757.09,0.12025
1751.3,0.10503
1745.51,0.09542
1739.73,0.09163
1733.94,0.09217
1728.16,0.09381
1722.37,0.09783
1716.58,0.10394
1710.8,0.10993
1705.01,0.11606
1699.22,0.11882
1693.44,0.11760
1687.65,0.11393
1681.87,0.10718
1676.08,0.10166
1670.29,0.09561
1664.51,0.09189
1658.72,0.09091
1652.93,0.09275
1647.15,0.09389
1641.36,0.09312
1635.58,0.09387
1629.79,0.09415
1624,0.09341
1618.22,0.09262
1612.43,0.08920
1606.64,0.08645
1600.86,0.08626
1595.07,0.08704
1589.29,0.09001
1583.5,0.09765
1577.71,0.11016
1571.93,0.12601
1566.14,0.13827
1560.35,0.14435
1554.57,0.14636
1548.78,0.14346
1543,0.13996
1537.21,0.13023
1531.42,0.11546
1525.64,0.09653
1519.85,0.07367
1514.07,0.06144
1508.28,0.06164
1502.49,0.06928
1496.71,0.07828
1490.92,0.08373
1485.13,0.08335
1479.35,0.07882
1473.56,0.07098
1467.78,0.06273
1461.99,0.06187
1456.2,0.06162
1450.42,0.06161
1444.63,0.06339
1438.84,0.06214
1433.06,0.05872
1427.27,0.05780
1421.49,0.05919
1415.7,0.06225
1409.91,0.06525
1404.13,0.06562
1398.34,0.06504
1392.55,0.06322
1386.77,0.06023
1380.98,0.05688
1375.2,0.05592
1369.41,0.05680
1363.62,0.05854
1357.84,0.06056
1352.05,0.06152
1346.26,0.06101
1340.48,0.05971
1334.69,0.05887
1328.91,0.05915
1323.12,0.05813
1317.33,0.05779
1311.55,0.05940
1305.76,0.06039
1299.97,0.06028
1294.19,0.05858
1288.4,0.05597
1282.62,0.05290
1276.83,0.05137
1271.04,0.05103
1265.26,0.05248
1259.47,0.05449
1253.68,0.05586
1247.9,0.05670
1242.11,0.05637
1236.33,0.05573
1230.54,0.05613
1224.75,0.05674
1218.97,0.05717
1213.18,0.05728
1207.39,0.05713
1201.61,0.05839
1195.82,0.05941
1190.04,0.05745
1184.25,0.05371
1178.46,0.04898
1172.68,0.04594
1166.89,0.04742
1161.1,0.04963
1155.32,0.05084
1149.53,0.04992
1143.75,0.04792
1137.96,0.04562
1132.17,0.04391
1126.39,0.04343
1120.6,0.04453
1114.81,0.04613
1109.03,0.04866
1103.24,0.04949
1097.46,0.04945
1091.67,0.04995
1085.88,0.05056
1080.1,0.05291
1074.31,0.05701
1068.52,0.06215
1062.74,0.06910
1056.95,0.07462
1051.17,0.07498
1045.38,0.07279
1039.59,0.07480
1033.81,0.08026
1028.02,0.08413
1022.24,0.08519
1016.45,0.08699
1010.66,0.08866
1004.88,0.08860
999.09,0.09076
993.304,0.09392
987.518,0.09752
981.731,0.10459
975.945,0.10887
970.159,0.11030
964.373,0.11281
958.586,0.11751
952.8,0.12147
947.014,0.12502
941.228,0.12679
935.441,0.12816
929.655,0.13077
923.869,0.13087
918.083,0.12897
912.297,0.12488
906.51,0.11753
900.724,0.11121
894.938,0.11090
889.152,0.11545
883.365,0.11834
877.579,0.11934
871.793,0.11982
866.007,0.12096
860.22,0.12286
854.434,0.12575
848.648,0.12940
842.862,0.13045
837.075,0.12805
831.289,0.12398
825.503,0.11821
819.717,0.11160
813.931,0.10955
808.144,0.10781
802.358,0.11090
796.572,0.11224
790.786,0.11258
784.999,0.11021
779.213,0.10683
773.427,0.10498
767.641,0.10378
761.854,0.10231
756.068,0.10090
750.282,0.09818
744.496,0.09621
738.709,0.09416
732.923,0.09248
727.137,0.08949
721.351,0.08715
715.565,0.08692
709.778,0.08439
703.992,0.08324
698.206,0.08295
692.42,0.08175
686.633,0.07991
680.847,0.07670
675.061,0.07473
669.275,0.07315
663.488,0.07489
657.702,0.07558
651.916,0.07446
646.13,0.07506
640.343,0.07488
634.557,0.07089
628.771,0.07116
622.985,0.07097
617.198,0.07104
611.412,0.07359
605.626,0.07512
599.84,0.07552