File: 01_Data/Pressure_Treated_Deck/FTIR/IS/Pressure_Treated_Deck_IS_S_221012_R2.dpt
7497.03,0.79978
7491.25,0.79539
7485.46,0.79029
7479.67,0.78701
7473.89,0.78066
7468.1,0.78134
7462.32,0.78283
7456.53,0.78810
7450.74,0.77973
7444.96,0.79835
7439.17,0.78627
7433.38,0.78890
7427.6,0.76953
7421.81,0.77951
7416.03,0.77640
7410.24,0.78028
7404.45,0.77686
7398.67,0.77093
7392.88,0.76649
7387.09,0.76940
7381.31,0.77445
7375.52,0.76996
7369.74,0.77213
7363.95,0.76949
7358.16,0.76615
7352.38,0.77469
7346.59,0.76484
7340.8,0.76710
7335.02,0.76370
7329.23,0.77347
7323.45,0.76563
7317.66,0.75595
7311.87,0.76029
7306.09,0.75980
7300.3,0.76182
7294.51,0.76166
7288.73,0.75210
7282.94,0.75491
7277.16,0.75096
7271.37,0.75850
7265.58,0.76205
7259.8,0.76309
7254.01,0.75690
7248.22,0.75966
7242.44,0.76457
7236.65,0.75452
7230.87,0.75148
7225.08,0.76062
7219.29,0.76415
7213.51,0.75608
7207.72,0.74601
7201.93,0.75389
7196.15,0.75900
7190.36,0.75984
7184.58,0.75128
7178.79,0.75022
7173,0.74180
7167.22,0.73643
7161.43,0.73838
7155.65,0.73596
7149.86,0.74216
7144.07,0.72980
7138.29,0.73612
7132.5,0.73379
7126.71,0.72569
7120.93,0.72780
7115.14,0.71751
7109.36,0.71211
7103.57,0.71530
7097.78,0.71652
7092,0.71228
7086.21,0.69211
7080.42,0.69833
7074.64,0.68379
7068.85,0.68633
7063.07,0.68556
7057.28,0.68118
7051.49,0.67704
7045.71,0.67090
7039.92,0.66839
7034.13,0.66458
7028.35,0.65386
7022.56,0.65003
7016.78,0.65171
7010.99,0.65207
7005.2,0.65148
6999.42,0.63896
6993.63,0.64068
6987.84,0.64087
6982.06,0.64035
6976.27,0.63620
6970.49,0.62849
6964.7,0.63518
6958.91,0.62982
6953.13,0.63497
6947.34,0.63375
6941.55,0.63208
6935.77,0.61985
6929.98,0.62482
6924.2,0.62831
6918.41,0.62374
6912.62,0.62567
6906.84,0.62666
6901.05,0.62995
6895.26,0.62606
6889.48,0.62674
6883.69,0.62340
6877.91,0.62472
6872.12,0.62906
6866.33,0.62165
6860.55,0.62139
6854.76,0.62026
6848.97,0.62224
6843.19,0.62062
6837.4,0.62553
6831.62,0.61899
6825.83,0.62369
6820.04,0.63180
6814.26,0.63022
6808.47,0.62367
6802.68,0.62364
6796.9,0.62127
6791.11,0.62327
6785.33,0.62528
6779.54,0.62092
6773.75,0.62628
6767.97,0.62519
6762.18,0.62828
6756.39,0.62614
6750.61,0.62679
6744.82,0.62713
6739.04,0.62548
6733.25,0.62791
6727.46,0.62401
6721.68,0.62562
6715.89,0.62917
6710.1,0.63146
6704.32,0.62833
6698.53,0.62929
6692.75,0.62602
6686.96,0.63854
6681.17,0.62810
6675.39,0.63144
6669.6,0.63370
6663.82,0.63476
6658.03,0.64050
6652.24,0.63069
6646.46,0.63735
6640.67,0.64198
6634.88,0.64063
6629.1,0.64180
6623.31,0.64421
6617.53,0.64360
6611.74,0.64501
6605.95,0.64519
6600.17,0.64454
6594.38,0.64673
6588.59,0.65023
6582.81,0.65042
6577.02,0.65301
6571.24,0.65191
6565.45,0.65366
6559.66,0.65077
6553.88,0.65173
6548.09,0.65183
6542.3,0.64746
6536.52,0.65503
6530.73,0.65414
6524.95,0.65417
6519.16,0.64917
6513.37,0.65365
6507.59,0.65851
6501.8,0.65799
6496.01,0.65626
6490.23,0.65359
6484.44,0.65679
6478.66,0.65299
6472.87,0.65746
6467.08,0.65829
6461.3,0.65672
6455.51,0.65489
6449.72,0.65972
6443.94,0.65718
6438.15,0.65847
6432.37,0.66197
6426.58,0.66176
6420.79,0.66324
6415.01,0.66012
6409.22,0.66006
6403.43,0.65811
6397.65,0.66070
6391.86,0.66140
6386.08,0.66087
6380.29,0.66311
6374.5,0.66578
6368.72,0.66607
6362.93,0.66733
6357.14,0.66683
6351.36,0.66505
6345.57,0.66777
6339.79,0.67037
6334,0.66562
6328.21,0.66683
6322.43,0.67022
6316.64,0.66981
6310.85,0.67225
6305.07,0.67647
6299.28,0.67094
6293.5,0.67264
6287.71,0.67321
6281.92,0.67584
6276.14,0.67712
6270.35,0.67164
6264.56,0.67917
6258.78,0.68085
6252.99,0.68171
6247.21,0.68199
6241.42,0.68804
6235.63,0.68885
6229.85,0.68620
6224.06,0.69237
6218.27,0.69348
6212.49,0.69334
6206.7,0.69477
6200.92,0.69519
6195.13,0.69667
6189.34,0.70037
6183.56,0.69876
6177.77,0.70180
6171.98,0.70300
6166.2,0.70273
6160.41,0.70538
6154.63,0.70729
6148.84,0.70623
6143.05,0.70589
6137.27,0.71056
6131.48,0.71227
6125.7,0.71131
6119.91,0.71280
6114.12,0.71594
6108.34,0.71139
6102.55,0.71640
6096.76,0.71500
6090.98,0.71234
6085.19,0.71662
6079.41,0.71399
6073.62,0.71410
6067.83,0.71361
6062.05,0.71421
6056.26,0.71317
6050.47,0.71009
6044.69,0.71048
6038.9,0.70904
6033.12,0.70646
6027.33,0.70557
6021.54,0.70087
6015.76,0.70629
6009.97,0.70260
6004.18,0.69935
5998.4,0.69625
5992.61,0.69744
5986.83,0.69369
5981.04,0.69531
5975.25,0.69505
5969.47,0.69350
5963.68,0.69796
5957.89,0.69905
5952.11,0.69949
5946.32,0.69815
5940.54,0.69732
5934.75,0.69852
5928.96,0.69697
5923.18,0.69902
5917.39,0.69421
5911.6,0.69624
5905.82,0.69672
5900.03,0.69628
5894.25,0.69201
5888.46,0.69125
5882.67,0.68970
5876.89,0.69087
5871.1,0.68945
5865.31,0.68964
5859.53,0.69047
5853.74,0.69262
5847.96,0.69043
5842.17,0.68980
5836.38,0.68791
5830.6,0.68796
5824.81,0.68718
5819.02,0.68710
5813.24,0.68717
5807.45,0.68696
5801.67,0.68532
5795.88,0.68643
5790.09,0.68698
5784.31,0.68575
5778.52,0.68638
5772.73,0.69005
5766.95,0.68710
5761.16,0.68671
5755.38,0.68798
5749.59,0.68761
5743.8,0.68741
5738.02,0.68737
5732.23,0.68654
5726.44,0.68863
5720.66,0.68846
5714.87,0.68716
5709.09,0.68881
5703.3,0.68825
5697.51,0.68902
5691.73,0.68889
5685.94,0.68835
5680.15,0.68849
5674.37,0.68780
5668.58,0.68786
5662.8,0.68526
5657.01,0.68541
5651.22,0.68505
5645.44,0.68615
5639.65,0.68479
5633.87,0.68655
5628.08,0.68675
5622.29,0.68436
5616.51,0.68541
5610.72,0.68509
5604.93,0.68604
5599.15,0.68516
5593.36,0.68450
5587.58,0.68549
5581.79,0.68707
5576,0.68708
5570.22,0.68646
5564.43,0.68635
5558.64,0.68776
5552.86,0.68787
5547.07,0.68795
5541.29,0.68861
5535.5,0.69099
5529.71,0.68927
5523.93,0.68986
5518.14,0.69131
5512.35,0.69176
5506.57,0.69160
5500.78,0.69143
5495,0.69420
5489.21,0.69285
5483.42,0.69450
5477.64,0.69517
5471.85,0.69517
5466.06,0.69551
5460.28,0.69676
5454.49,0.69722
5448.71,0.69819
5442.92,0.69935
5437.13,0.70142
5431.35,0.70166
5425.56,0.70422
5419.77,0.70203
5413.99,0.70263
5408.2,0.70603
5402.42,0.70632
5396.63,0.70793
5390.84,0.70822
5385.06,0.70874
5379.27,0.70705
5373.48,0.70717
5367.7,0.70607
5361.91,0.70633
5356.13,0.70586
5350.34,0.70415
5344.55,0.70289
5338.77,0.70283
5332.98,0.69852
5327.19,0.69624
5321.41,0.69131
5315.62,0.68863
5309.84,0.68396
5304.05,0.67479
5298.26,0.66811
5292.48,0.66089
5286.69,0.65220
5280.9,0.64267
5275.12,0.62942
5269.33,0.61738
5263.55,0.60517
5257.76,0.59383
5251.97,0.58104
5246.19,0.57028
5240.4,0.56157
5234.61,0.55548
5228.83,0.54815
5223.04,0.54334
5217.26,0.53679
5211.47,0.53594
5205.68,0.53236
5199.9,0.53077
5194.11,0.53093
5188.32,0.52972
5182.54,0.52989
5176.75,0.53114
5170.97,0.53270
5165.18,0.53608
5159.39,0.53928
5153.61,0.54185
5147.82,0.54621
5142.03,0.54939
5136.25,0.55198
5130.46,0.55625
5124.68,0.55847
5118.89,0.56173
5113.1,0.56640
5107.32,0.57084
5101.53,0.57271
5095.75,0.57555
5089.96,0.57853
5084.17,0.58175
5078.39,0.58469
5072.6,0.58793
5066.81,0.59169
5061.03,0.59489
5055.24,0.59656
5049.46,0.59883
5043.67,0.60272
5037.88,0.60454
5032.1,0.60775
5026.31,0.60957
5020.52,0.61174
5014.74,0.61246
5008.95,0.61398
5003.17,0.61412
4997.38,0.61373
4991.59,0.61366
4985.81,0.61514
4980.02,0.61369
4974.23,0.61251
4968.45,0.61021
4962.66,0.60705
4956.88,0.60495
4951.09,0.60158
4945.3,0.59669
4939.52,0.59243
4933.73,0.58847
4927.94,0.58454
4922.16,0.57884
4916.37,0.57388
4910.59,0.56919
4904.8,0.56275
4899.01,0.55926
4893.23,0.55323
4887.44,0.54946
4881.65,0.54452
4875.87,0.53909
4870.08,0.53586
4864.3,0.53021
4858.51,0.52556
4852.72,0.52194
4846.94,0.51866
4841.15,0.51567
4835.36,0.51132
4829.58,0.50836
4823.79,0.50628
4818.01,0.50358
4812.22,0.49927
4806.43,0.49865
4800.65,0.49776
4794.86,0.49693
4789.07,0.49500
4783.29,0.49412
4777.5,0.49247
4771.72,0.49091
4765.93,0.49190
4760.14,0.49087
4754.36,0.49103
4748.57,0.49155
4742.78,0.49072
4737,0.49200
4731.21,0.49231
4725.43,0.49317
4719.64,0.49276
4713.85,0.49432
4708.07,0.49551
4702.28,0.49561
4696.49,0.49674
4690.71,0.49736
4684.92,0.49911
4679.14,0.50056
4673.35,0.50226
4667.56,0.50440
4661.78,0.50579
4655.99,0.50882
4650.2,0.50998
4644.42,0.51222
4638.63,0.51436
4632.85,0.51733
4627.06,0.52021
4621.27,0.52344
4615.49,0.52587
4609.7,0.52919
4603.92,0.53221
4598.13,0.53447
4592.34,0.53840
4586.56,0.53972
4580.77,0.54233
4574.98,0.54382
4569.2,0.54604
4563.41,0.54637
4557.63,0.54843
4551.84,0.54909
4546.05,0.55058
4540.27,0.55177
4534.48,0.55264
4528.69,0.55470
4522.91,0.55380
4517.12,0.55406
4511.34,0.55321
4505.55,0.55290
4499.76,0.55080
4493.98,0.54818
4488.19,0.54472
4482.4,0.54017
4476.62,0.53470
4470.83,0.52975
4465.05,0.52272
4459.26,0.51575
4453.47,0.50917
4447.69,0.50265
4441.9,0.49584
4436.11,0.48751
4430.33,0.48022
4424.54,0.47185
4418.76,0.46519
4412.97,0.45942
4407.18,0.45431
4401.4,0.45226
4395.61,0.45086
4389.82,0.45122
4384.04,0.45301
4378.25,0.45491
4372.47,0.45793
4366.68,0.46001
4360.89,0.46159
4355.11,0.46224
4349.32,0.46191
4343.53,0.46102
4337.75,0.45995
4331.96,0.45843
4326.18,0.45627
4320.39,0.45489
4314.6,0.45148
4308.82,0.44839
4303.03,0.44584
4297.24,0.44295
4291.46,0.44151
4285.67,0.44003
4279.89,0.43931
4274.1,0.43799
4268.31,0.43976
4262.53,0.44164
4256.74,0.44272
4250.95,0.44435
4245.17,0.44428
4239.38,0.44530
4233.6,0.44541
4227.81,0.44575
4222.02,0.44555
4216.24,0.44478
4210.45,0.44436
4204.66,0.44474
4198.88,0.44528
4193.09,0.44600
4187.31,0.44675
4181.52,0.44843
4175.73,0.44904
4169.95,0.45043
4164.16,0.45091
4158.37,0.45149
4152.59,0.45010
4146.8,0.44858
4141.02,0.44634
4135.23,0.44388
4129.44,0.43974
4123.66,0.43629
4117.87,0.43136
4112.09,0.42649
4106.3,0.42175
4100.51,0.41682
4094.73,0.41139
4088.94,0.40574
4083.15,0.40050
4077.37,0.39516
4071.58,0.38954
4065.8,0.38378
4060.01,0.37752
4054.22,0.37186
4048.44,0.36691
4042.65,0.36181
4036.86,0.35794
4031.08,0.35477
4025.29,0.35183
4019.51,0.34969
4013.72,0.34822
4007.93,0.34817
4002.15,0.34886
3996.36,0.34969
3990.57,0.35092
3984.79,0.35239
3979,0.35403
3973.22,0.35555
3967.43,0.35765
3961.64,0.36015
3955.86,0.36248
3950.07,0.36510
3944.28,0.36853
3938.5,0.37105
3932.71,0.37467
3926.93,0.37706
3921.14,0.38068
3915.35,0.38329
3909.57,0.38494
3903.78,0.38857
3897.99,0.39130
3892.21,0.39331
3886.42,0.39589
3880.64,0.39757
3874.85,0.39997
3869.06,0.40218
3863.28,0.40573
3857.49,0.40762
3851.7,0.41221
3845.92,0.41280
3840.13,0.41576
3834.35,0.41708
3828.56,0.41757
3822.77,0.41792
3816.99,0.41794
3811.2,0.41663
3805.41,0.41694
3799.63,0.41647
3793.84,0.41559
3788.06,0.41417
3782.27,0.41382
3776.48,0.41240
3770.7,0.41077
3764.91,0.40906
3759.12,0.40683
3753.34,0.40396
3747.55,0.40115
3741.77,0.39790
3735.98,0.39434
3730.19,0.38790
3724.41,0.38215
3718.62,0.37508
3712.83,0.36773
3707.05,0.35796
3701.26,0.34795
3695.48,0.33490
3689.69,0.32001
3683.9,0.29979
3678.12,0.28055
3672.33,0.25691
3666.54,0.23362
3660.76,0.21260
3654.97,0.19293
3649.19,0.17764
3643.4,0.16179
3637.61,0.14974
3631.83,0.13922
3626.04,0.12786
3620.25,0.12061
3614.47,0.11236
3608.68,0.10527
3602.9,0.09866
3597.11,0.09299
3591.32,0.08707
3585.54,0.08296
3579.75,0.07774
3573.97,0.07458
3568.18,0.07224
3562.39,0.06897
3556.61,0.06616
3550.82,0.06410
3545.03,0.06196
3539.25,0.05977
3533.46,0.05866
3527.68,0.05718
3521.89,0.05552
3516.1,0.05462
3510.32,0.05305
3504.53,0.05237
3498.74,0.05117
3492.96,0.05077
3487.17,0.05002
3481.39,0.05014
3475.6,0.04904
3469.81,0.04834
3464.03,0.04866
3458.24,0.04790
3452.45,0.04767
3446.67,0.04741
3440.88,0.04742
3435.1,0.04756
3429.31,0.04711
3423.52,0.04775
3417.74,0.04828
3411.95,0.04883
3406.16,0.04864
3400.38,0.04844
3394.59,0.04845
3388.81,0.04948
3383.02,0.04908
3377.23,0.04978
3371.45,0.04967
3365.66,0.04958
3359.87,0.04990
3354.09,0.05084
3348.3,0.05142
3342.52,0.05218
3336.73,0.05364
3330.94,0.05412
3325.16,0.05386
3319.37,0.05508
3313.58,0.05554
3307.8,0.05661
3302.01,0.05727
3296.23,0.05791
3290.44,0.05814
3284.65,0.05871
3278.87,0.06079
3273.08,0.06143
3267.29,0.06326
3261.51,0.06381
3255.72,0.06486
3249.94,0.06664
3244.15,0.06776
3238.36,0.06922
3232.58,0.07012
3226.79,0.07167
3221,0.07271
3215.22,0.07521
3209.43,0.07575
3203.65,0.07755
3197.86,0.07915
3192.07,0.08193
3186.29,0.08312
3180.5,0.08501
3174.71,0.08623
3168.93,0.08910
3163.14,0.09077
3157.36,0.09235
3151.57,0.09474
3145.78,0.09649
3140,0.09939
3134.21,0.10118
3128.42,0.10372
3122.64,0.10593
3116.85,0.10783
3111.07,0.10983
3105.28,0.11191
3099.49,0.11447
3093.71,0.11590
3087.92,0.11771
3082.14,0.11919
3076.35,0.12159
3070.56,0.12367
3064.78,0.12605
3058.99,0.12760
3053.2,0.12963
3047.42,0.13156
3041.63,0.13354
3035.85,0.13435
3030.06,0.13484
3024.27,0.13473
3018.49,0.13367
3012.7,0.13205
3006.91,0.12986
3001.13,0.12760
2995.34,0.12488
2989.56,0.12220
2983.77,0.11685
2977.98,0.10984
2972.2,0.10259
2966.41,0.09696
2960.62,0.09315
2954.84,0.08983
2949.05,0.08541
2943.27,0.08264
2937.48,0.08081
2931.69,0.07991
2925.91,0.07996
2920.12,0.07965
2914.33,0.08004
2908.55,0.08004
2902.76,0.08064
2896.98,0.08100
2891.19,0.08224
2885.4,0.08366
2879.62,0.08490
2873.83,0.08641
2868.04,0.08854
2862.26,0.09150
2856.47,0.09455
2850.69,0.09851
2844.9,0.10343
2839.11,0.10911
2833.33,0.11503
2827.54,0.12264
2821.75,0.12994
2815.97,0.13610
2810.18,0.14121
2804.4,0.14571
2798.61,0.14934
2792.82,0.15243
2787.04,0.15484
2781.25,0.15754
2775.46,0.15911
2769.68,0.16027
2763.89,0.16197
2758.11,0.16287
2752.32,0.16358
2746.53,0.16459
2740.75,0.16451
2734.96,0.16589
2729.17,0.16669
2723.39,0.16868
2717.6,0.17030
2711.82,0.17305
2706.03,0.17566
2700.24,0.17817
2694.46,0.18007
2688.67,0.18285
2682.88,0.18510
2677.1,0.18726
2671.31,0.18908
2665.53,0.19038
2659.74,0.19232
2653.95,0.19363
2648.17,0.19531
2642.38,0.19721
2636.59,0.19860
2630.81,0.20078
2625.02,0.20282
2619.24,0.20458
2613.45,0.20638
2607.66,0.20827
2601.88,0.20978
2596.09,0.21152
2590.3,0.21334
2584.52,0.21400
2578.73,0.21545
2572.95,0.21675
2567.16,0.21748
2561.37,0.21790
2555.59,0.21882
2549.8,0.21882
2544.02,0.21987
2538.23,0.22053
2532.44,0.22269
2526.66,0.22443
2520.87,0.22594
2515.08,0.22764
2509.3,0.22944
2503.51,0.23255
2497.73,0.23545
2491.94,0.23832
2486.15,0.24071
2480.37,0.24306
2474.58,0.24592
2468.79,0.24845
2463.01,0.25045
2457.22,0.25318
2451.44,0.25544
2445.65,0.25784
2439.86,0.26057
2434.08,0.26371
2428.29,0.26633
2422.5,0.26974
2416.72,0.27287
2410.93,0.27548
2405.15,0.27874
2399.36,0.28167
2393.57,0.28464
2387.79,0.28709
2382,0.28956
2376.21,0.29165
2370.43,0.29388
2364.64,0.29608
2358.86,0.29814
2353.07,0.29934
2347.28,0.30096
2341.5,0.30256
2335.71,0.30385
2329.92,0.30458
2324.14,0.30559
2318.35,0.30654
2312.57,0.30627
2306.78,0.30629
2300.99,0.30580
2295.21,0.30503
2289.42,0.30478
2283.63,0.30420
2277.85,0.30370
2272.06,0.30236
2266.28,0.30041
2260.49,0.29896
2254.7,0.29704
2248.92,0.29637
2243.13,0.29552
2237.34,0.29437
2231.56,0.29328
2225.77,0.29268
2219.99,0.29243
2214.2,0.29186
2208.41,0.29079
2202.63,0.28945
2196.84,0.28708
2191.05,0.28422
2185.27,0.28113
2179.48,0.27799
2173.7,0.27420
2167.91,0.27114
2162.12,0.26831
2156.34,0.26657
2150.55,0.26419
2144.76,0.26279
2138.98,0.26181
2133.19,0.26090
2127.41,0.26139
2121.62,0.26232
2115.83,0.26325
2110.05,0.26384
2104.26,0.26475
2098.47,0.26514
2092.69,0.26577
2086.9,0.26585
2081.12,0.26590
2075.33,0.26409
2069.54,0.26278
2063.76,0.26154
2057.97,0.26089
2052.19,0.26134
2046.4,0.26247
2040.61,0.26449
2034.83,0.26687
2029.04,0.27026
2023.25,0.27341
2017.47,0.27669
2011.68,0.27969
2005.9,0.28171
2000.11,0.28339
1994.32,0.28553
1988.54,0.28800
1982.75,0.28991
1976.96,0.29187
1971.18,0.29327
1965.39,0.29505
1959.61,0.29748
1953.82,0.30060
1948.03,0.30261
1942.25,0.30617
1936.46,0.30817
1930.67,0.31008
1924.89,0.31153
1919.1,0.31232
1913.32,0.31244
1907.53,0.31276
1901.74,0.31239
1895.96,0.31197
1890.17,0.31156
1884.38,0.31097
1878.6,0.31052
1872.81,0.30999
1867.03,0.30970
1861.24,0.30789
1855.45,0.30678
1849.67,0.30483
1843.88,0.30243
1838.09,0.29945
1832.31,0.29624
1826.52,0.29256
1820.74,0.28601
1814.95,0.27943
1809.16,0.27101
1803.38,0.26145
1797.59,0.25105
1791.8,0.23872
1786.02,0.22479
1780.23,0.20888
1774.45,0.19095
1768.66,0.16675
1762.87,0.14290
1757.09,0.12058
1751.3,0.10506
1745.51,0.09509
1739.73,0.09144
1733.94,0.09132
1728.16,0.09303
1722.37,0.09649
1716.58,0.10281
1710.8,0.10820
1705.01,0.11415
1699.22,0.11602
1693.44,0.11401
1687.65,0.11065
1681.87,0.10456
1676.08,0.09883
1670.29,0.09297
1664.51,0.08905
1658.72,0.08787
1652.93,0.08898
1647.15,0.09003
1641.36,0.08959
1635.58,0.08976
1629.79,0.09043
1624,0.09035
1618.22,0.09008
1612.43,0.08759
1606.64,0.08539
1600.86,0.08529
1595.07,0.08611
1589.29,0.08883
1583.5,0.09637
1577.71,0.10901
1571.93,0.12382
1566.14,0.13527
1560.35,0.14173
1554.57,0.14371
1548.78,0.14130
1543,0.13788
1537.21,0.12841
1531.42,0.11368
1525.64,0.09510
1519.85,0.07293
1514.07,0.06192
1508.28,0.06193
1502.49,0.06901
1496.71,0.07832
1490.92,0.08367
1485.13,0.08278
1479.35,0.07803
1473.56,0.07056
1467.78,0.06263
1461.99,0.06132
1456.2,0.06081
1450.42,0.06131
1444.63,0.06321
1438.84,0.06247
1433.06,0.05852
1427.27,0.05772
1421.49,0.05937
1415.7,0.06238
1409.91,0.06477
1404.13,0.06563
1398.34,0.06532
1392.55,0.06294
1386.77,0.05991
1380.98,0.05669
1375.2,0.05587
1369.41,0.05684
1363.62,0.05905
1357.84,0.06018
1352.05,0.06132
1346.26,0.06092
1340.48,0.05963
1334.69,0.05868
1328.91,0.05902
1323.12,0.05831
1317.33,0.05799
1311.55,0.05955
1305.76,0.06041
1299.97,0.06047
1294.19,0.05868
1288.4,0.05577
1282.62,0.05291
1276.83,0.05141
1271.04,0.05117
1265.26,0.05244
1259.47,0.05447
1253.68,0.05605
1247.9,0.05637
1242.11,0.05665
1236.33,0.05608
1230.54,0.05606
1224.75,0.05655
1218.97,0.05681
1213.18,0.05707
1207.39,0.05714
1201.61,0.05815
1195.82,0.05844
1190.04,0.05697
1184.25,0.05336
1178.46,0.04970
1172.68,0.04594
1166.89,0.04695
1161.1,0.04951
1155.32,0.05043
1149.53,0.05030
1143.75,0.04792
1137.96,0.04564
1132.17,0.04399
1126.39,0.04316
1120.6,0.04434
1114.81,0.04581
1109.03,0.04842
1103.24,0.04938
1097.46,0.04987
1091.67,0.04939
1085.88,0.04986
1080.1,0.05292
1074.31,0.05723
1068.52,0.06195
1062.74,0.06890
1056.95,0.07455
1051.17,0.07554
1045.38,0.07330
1039.59,0.07425
1033.81,0.08044
1028.02,0.08330
1022.24,0.08523
1016.45,0.08652
1010.66,0.08837
1004.88,0.08936
999.09,0.09090
993.304,0.09333
987.518,0.09762
981.731,0.10389
975.945,0.10871
970.159,0.10983
964.373,0.11226
958.586,0.11660
952.8,0.12038
947.014,0.12388
941.228,0.12632
935.441,0.12797
929.655,0.12962
923.869,0.12988
918.083,0.12732
912.297,0.12294
906.51,0.11619
900.724,0.11051
894.938,0.10994
889.152,0.11417
883.365,0.11616
877.579,0.11738
871.793,0.11781
866.007,0.11934
860.22,0.12065
854.434,0.12355
848.648,0.12657
842.862,0.12739
837.075,0.12476
831.289,0.12051
825.503,0.11512
819.717,0.10897
813.931,0.10657
808.144,0.10578
802.358,0.10782
796.572,0.10891
790.786,0.10879
784.999,0.10668
779.213,0.10450
773.427,0.10277
767.641,0.10082
761.854,0.09909
756.068,0.09732
750.282,0.09550
744.496,0.09359
738.709,0.09117
732.923,0.09034
727.137,0.08750
721.351,0.08561
715.565,0.08433
709.778,0.08289
703.992,0.08128
698.206,0.08095
692.42,0.08019
686.633,0.07880
680.847,0.07631
675.061,0.07318
669.275,0.07245
663.488,0.07371
657.702,0.07444
651.916,0.07536
646.13,0.07378
640.343,0.07267
634.557,0.07155
628.771,0.07327
622.985,0.06996
617.198,0.07009
611.412,0.07434
605.626,0.07389
599.84,0.07683