File: 01_Data/Pressure_Treated_Deck/FTIR/IS/Pressure_Treated_Deck_IS_T_221012_R6.dpt
7497.03,0.02353
7491.25,0.02072
7485.46,0.02707
7479.67,0.03170
7473.89,0.01745
7468.1,0.02252
7462.32,0.02827
7456.53,0.01986
7450.74,0.02310
7444.96,0.02514
7439.17,0.01780
7433.38,0.02915
7427.6,0.02531
7421.81,0.01875
7416.03,0.02787
7410.24,0.02428
7404.45,0.01679
7398.67,0.01592
7392.88,0.02227
7387.09,0.02528
7381.31,0.02235
7375.52,0.02230
7369.74,0.03121
7363.95,0.01570
7358.16,0.03147
7352.38,0.02585
7346.59,0.02544
7340.8,0.03452
7335.02,0.02369
7329.23,0.02066
7323.45,0.02942
7317.66,0.02306
7311.87,0.02179
7306.09,0.03669
7300.3,0.02081
7294.51,0.02734
7288.73,0.02700
7282.94,0.01737
7277.16,0.01565
7271.37,0.03205
7265.58,0.02346
7259.8,0.02919
7254.01,0.02572
7248.22,0.02897
7242.44,0.02281
7236.65,0.01669
7230.87,0.02042
7225.08,0.02716
7219.29,0.02106
7213.51,0.02227
7207.72,0.02274
7201.93,0.02933
7196.15,0.01765
7190.36,0.01509
7184.58,0.02206
7178.79,0.02403
7173,0.02161
7167.22,0.02516
7161.43,0.01601
7155.65,0.01745
7149.86,0.02283
7144.07,0.02648
7138.29,0.02161
7132.5,0.01340
7126.71,0.01551
7120.93,0.02057
7115.14,0.02136
7109.36,0.01761
7103.57,0.01932
7097.78,0.01905
7092,0.01769
7086.21,0.02552
7080.42,0.02245
7074.64,0.02334
7068.85,0.03352
7063.07,0.02666
7057.28,0.01947
7051.49,0.03028
7045.71,0.02315
7039.92,0.01974
7034.13,0.01934
7028.35,0.02427
7022.56,0.02462
7016.78,0.02172
7010.99,0.02842
7005.2,0.03116
6999.42,0.01744
6993.63,0.01807
6987.84,0.01775
6982.06,0.01977
6976.27,0.01970
6970.49,0.02591
6964.7,0.02630
6958.91,0.02853
6953.13,0.02032
6947.34,0.01833
6941.55,0.01741
6935.77,0.02068
6929.98,0.02392
6924.2,0.02188
6918.41,0.01339
6912.62,0.02287
6906.84,0.02372
6901.05,0.01906
6895.26,0.02799
6889.48,0.02332
6883.69,0.02645
6877.91,0.02256
6872.12,0.01843
6866.33,0.02482
6860.55,0.02732
6854.76,0.02571
6848.97,0.02147
6843.19,0.02026
6837.4,0.02467
6831.62,0.02923
6825.83,0.02639
6820.04,0.02358
6814.26,0.02353
6808.47,0.02444
6802.68,0.01705
6796.9,0.01684
6791.11,0.02455
6785.33,0.02306
6779.54,0.02453
6773.75,0.02608
6767.97,0.02761
6762.18,0.02906
6756.39,0.02910
6750.61,0.02115
6744.82,0.01935
6739.04,0.02577
6733.25,0.02356
6727.46,0.02278
6721.68,0.02228
6715.89,0.01962
6710.1,0.02064
6704.32,0.02270
6698.53,0.02017
6692.75,0.02268
6686.96,0.02342
6681.17,0.01955
6675.39,0.02375
6669.6,0.02130
6663.82,0.02076
6658.03,0.02305
6652.24,0.02375
6646.46,0.02651
6640.67,0.02202
6634.88,0.02326
6629.1,0.02304
6623.31,0.02817
6617.53,0.02470
6611.74,0.02124
6605.95,0.02123
6600.17,0.02311
6594.38,0.01848
6588.59,0.02396
6582.81,0.02430
6577.02,0.02216
6571.24,0.01808
6565.45,0.02513
6559.66,0.02209
6553.88,0.02354
6548.09,0.01867
6542.3,0.02375
6536.52,0.02275
6530.73,0.02157
6524.95,0.02299
6519.16,0.02597
6513.37,0.01978
6507.59,0.02326
6501.8,0.01868
6496.01,0.02082
6490.23,0.02129
6484.44,0.02090
6478.66,0.02238
6472.87,0.02277
6467.08,0.01754
6461.3,0.02033
6455.51,0.02231
6449.72,0.01806
6443.94,0.02101
6438.15,0.02653
6432.37,0.02261
6426.58,0.02531
6420.79,0.02004
6415.01,0.02089
6409.22,0.02521
6403.43,0.02622
6397.65,0.02130
6391.86,0.02337
6386.08,0.02353
6380.29,0.02283
6374.5,0.02229
6368.72,0.02085
6362.93,0.02088
6357.14,0.02302
6351.36,0.01710
6345.57,0.02284
6339.79,0.01950
6334,0.02005
6328.21,0.02151
6322.43,0.01826
6316.64,0.02032
6310.85,0.01903
6305.07,0.02301
6299.28,0.02287
6293.5,0.02250
6287.71,0.02298
6281.92,0.02307
6276.14,0.02029
6270.35,0.02126
6264.56,0.02217
6258.78,0.02003
6252.99,0.02038
6247.21,0.02396
6241.42,0.02236
6235.63,0.02006
6229.85,0.02149
6224.06,0.01789
6218.27,0.02419
6212.49,0.02169
6206.7,0.02190
6200.92,0.02293
6195.13,0.02198
6189.34,0.01720
6183.56,0.02539
6177.77,0.02174
6171.98,0.02142
6166.2,0.02095
6160.41,0.01945
6154.63,0.02162
6148.84,0.02357
6143.05,0.02286
6137.27,0.02285
6131.48,0.02171
6125.7,0.01912
6119.91,0.01866
6114.12,0.02197
6108.34,0.02183
6102.55,0.02045
6096.76,0.01573
6090.98,0.02028
6085.19,0.02022
6079.41,0.01878
6073.62,0.02158
6067.83,0.02319
6062.05,0.02104
6056.26,0.02282
6050.47,0.02297
6044.69,0.02363
6038.9,0.02400
6033.12,0.02204
6027.33,0.02174
6021.54,0.01897
6015.76,0.01826
6009.97,0.02167
6004.18,0.02242
5998.4,0.02132
5992.61,0.02128
5986.83,0.01816
5981.04,0.02376
5975.25,0.02288
5969.47,0.02421
5963.68,0.01985
5957.89,0.01740
5952.11,0.02000
5946.32,0.02161
5940.54,0.02220
5934.75,0.02122
5928.96,0.02213
5923.18,0.01856
5917.39,0.01910
5911.6,0.02106
5905.82,0.02138
5900.03,0.02088
5894.25,0.02187
5888.46,0.02079
5882.67,0.02033
5876.89,0.02082
5871.1,0.02052
5865.31,0.01808
5859.53,0.02126
5853.74,0.02116
5847.96,0.02209
5842.17,0.01942
5836.38,0.02006
5830.6,0.02439
5824.81,0.02256
5819.02,0.02134
5813.24,0.01914
5807.45,0.02327
5801.67,0.02191
5795.88,0.01946
5790.09,0.02096
5784.31,0.02402
5778.52,0.02010
5772.73,0.01959
5766.95,0.02009
5761.16,0.02090
5755.38,0.01954
5749.59,0.02273
5743.8,0.02240
5738.02,0.02138
5732.23,0.02191
5726.44,0.02104
5720.66,0.02022
5714.87,0.02149
5709.09,0.02084
5703.3,0.02135
5697.51,0.02210
5691.73,0.02140
5685.94,0.02214
5680.15,0.02263
5674.37,0.02137
5668.58,0.02161
5662.8,0.02252
5657.01,0.02009
5651.22,0.02074
5645.44,0.01876
5639.65,0.02109
5633.87,0.02232
5628.08,0.02222
5622.29,0.02135
5616.51,0.02180
5610.72,0.02325
5604.93,0.02197
5599.15,0.02080
5593.36,0.02061
5587.58,0.02213
5581.79,0.02224
5576,0.02048
5570.22,0.02181
5564.43,0.02034
5558.64,0.02055
5552.86,0.01903
5547.07,0.02001
5541.29,0.02066
5535.5,0.02229
5529.71,0.02104
5523.93,0.02306
5518.14,0.02243
5512.35,0.02203
5506.57,0.02208
5500.78,0.02169
5495,0.02393
5489.21,0.02124
5483.42,0.02196
5477.64,0.02111
5471.85,0.02096
5466.06,0.02039
5460.28,0.02313
5454.49,0.02175
5448.71,0.02206
5442.92,0.02157
5437.13,0.02101
5431.35,0.01916
5425.56,0.02193
5419.77,0.02311
5413.99,0.02433
5408.2,0.02021
5402.42,0.02126
5396.63,0.02137
5390.84,0.02209
5385.06,0.02279
5379.27,0.02294
5373.48,0.02170
5367.7,0.02081
5361.91,0.02184
5356.13,0.02143
5350.34,0.01986
5344.55,0.02189
5338.77,0.02162
5332.98,0.02124
5327.19,0.01979
5321.41,0.02124
5315.62,0.02190
5309.84,0.02245
5304.05,0.02056
5298.26,0.02214
5292.48,0.02217
5286.69,0.02079
5280.9,0.02117
5275.12,0.02194
5269.33,0.02170
5263.55,0.02152
5257.76,0.02237
5251.97,0.02130
5246.19,0.02215
5240.4,0.02172
5234.61,0.02162
5228.83,0.02146
5223.04,0.02080
5217.26,0.02195
5211.47,0.02102
5205.68,0.02067
5199.9,0.02109
5194.11,0.02192
5188.32,0.02121
5182.54,0.02138
5176.75,0.02135
5170.97,0.02183
5165.18,0.02025
5159.39,0.02178
5153.61,0.02317
5147.82,0.02126
5142.03,0.02249
5136.25,0.02126
5130.46,0.02356
5124.68,0.02228
5118.89,0.02118
5113.1,0.02132
5107.32,0.02166
5101.53,0.02169
5095.75,0.02294
5089.96,0.02109
5084.17,0.02136
5078.39,0.02123
5072.6,0.02138
5066.81,0.02213
5061.03,0.02033
5055.24,0.02210
5049.46,0.02127
5043.67,0.02266
5037.88,0.02117
5032.1,0.02061
5026.31,0.02112
5020.52,0.02269
5014.74,0.02187
5008.95,0.02157
5003.17,0.02197
4997.38,0.02320
4991.59,0.02158
4985.81,0.02208
4980.02,0.02237
4974.23,0.02303
4968.45,0.02247
4962.66,0.02162
4956.88,0.02186
4951.09,0.02189
4945.3,0.02048
4939.52,0.02115
4933.73,0.02113
4927.94,0.02055
4922.16,0.02176
4916.37,0.02184
4910.59,0.02190
4904.8,0.02201
4899.01,0.02093
4893.23,0.02204
4887.44,0.02257
4881.65,0.02113
4875.87,0.02141
4870.08,0.02153
4864.3,0.02107
4858.51,0.02333
4852.72,0.02181
4846.94,0.02132
4841.15,0.01950
4835.36,0.02134
4829.58,0.02129
4823.79,0.02189
4818.01,0.02136
4812.22,0.02207
4806.43,0.02244
4800.65,0.02201
4794.86,0.02147
4789.07,0.02165
4783.29,0.02099
4777.5,0.02242
4771.72,0.02215
4765.93,0.02227
4760.14,0.02234
4754.36,0.02189
4748.57,0.02132
4742.78,0.02183
4737,0.02200
4731.21,0.02203
4725.43,0.02309
4719.64,0.02070
4713.85,0.02215
4708.07,0.02126
4702.28,0.02129
4696.49,0.02112
4690.71,0.02201
4684.92,0.02158
4679.14,0.02132
4673.35,0.02207
4667.56,0.02211
4661.78,0.02262
4655.99,0.02116
4650.2,0.02205
4644.42,0.02204
4638.63,0.02146
4632.85,0.02230
4627.06,0.02213
4621.27,0.02178
4615.49,0.02214
4609.7,0.02240
4603.92,0.02178
4598.13,0.02215
4592.34,0.02252
4586.56,0.02117
4580.77,0.02210
4574.98,0.02124
4569.2,0.02142
4563.41,0.02160
4557.63,0.02217
4551.84,0.02166
4546.05,0.02185
4540.27,0.02165
4534.48,0.02158
4528.69,0.02136
4522.91,0.02151
4517.12,0.02113
4511.34,0.02147
4505.55,0.02246
4499.76,0.02207
4493.98,0.02170
4488.19,0.02211
4482.4,0.02209
4476.62,0.02183
4470.83,0.02285
4465.05,0.02131
4459.26,0.02204
4453.47,0.02163
4447.69,0.02114
4441.9,0.02136
4436.11,0.02223
4430.33,0.02241
4424.54,0.02157
4418.76,0.02130
4412.97,0.02232
4407.18,0.02244
4401.4,0.02185
4395.61,0.02195
4389.82,0.02178
4384.04,0.02222
4378.25,0.02179
4372.47,0.02166
4366.68,0.02218
4360.89,0.02251
4355.11,0.02199
4349.32,0.02201
4343.53,0.02208
4337.75,0.02183
4331.96,0.02190
4326.18,0.02175
4320.39,0.02191
4314.6,0.02178
4308.82,0.02186
4303.03,0.02221
4297.24,0.02142
4291.46,0.02181
4285.67,0.02171
4279.89,0.02226
4274.1,0.02179
4268.31,0.02251
4262.53,0.02169
4256.74,0.02233
4250.95,0.02321
4245.17,0.02230
4239.38,0.02194
4233.6,0.02253
4227.81,0.02185
4222.02,0.02242
4216.24,0.02224
4210.45,0.02196
4204.66,0.02190
4198.88,0.02157
4193.09,0.02274
4187.31,0.02204
4181.52,0.02176
4175.73,0.02264
4169.95,0.02152
4164.16,0.02128
4158.37,0.02177
4152.59,0.02245
4146.8,0.02224
4141.02,0.02192
4135.23,0.02296
4129.44,0.02187
4123.66,0.02119
4117.87,0.02239
4112.09,0.02165
4106.3,0.02186
4100.51,0.02214
4094.73,0.02244
4088.94,0.02200
4083.15,0.02178
4077.37,0.02218
4071.58,0.02201
4065.8,0.02161
4060.01,0.02206
4054.22,0.02214
4048.44,0.02274
4042.65,0.02222
4036.86,0.02193
4031.08,0.02195
4025.29,0.02147
4019.51,0.02268
4013.72,0.02186
4007.93,0.02189
4002.15,0.02274
3996.36,0.02295
3990.57,0.02285
3984.79,0.02240
3979,0.02281
3973.22,0.02219
3967.43,0.02288
3961.64,0.02220
3955.86,0.02246
3950.07,0.02175
3944.28,0.02206
3938.5,0.02185
3932.71,0.02279
3926.93,0.02229
3921.14,0.02188
3915.35,0.02280
3909.57,0.02192
3903.78,0.02238
3897.99,0.02208
3892.21,0.02205
3886.42,0.02246
3880.64,0.02195
3874.85,0.02327
3869.06,0.02264
3863.28,0.02225
3857.49,0.02189
3851.7,0.02321
3845.92,0.02252
3840.13,0.02279
3834.35,0.02222
3828.56,0.02240
3822.77,0.02269
3816.99,0.02192
3811.2,0.02247
3805.41,0.02191
3799.63,0.02201
3793.84,0.02216
3788.06,0.02272
3782.27,0.02210
3776.48,0.02183
3770.7,0.02207
3764.91,0.02268
3759.12,0.02212
3753.34,0.02227
3747.55,0.02259
3741.77,0.02215
3735.98,0.02246
3730.19,0.02229
3724.41,0.02192
3718.62,0.02193
3712.83,0.02285
3707.05,0.02175
3701.26,0.02235
3695.48,0.02227
3689.69,0.02223
3683.9,0.02183
3678.12,0.02139
3672.33,0.02232
3666.54,0.02200
3660.76,0.02157
3654.97,0.02180
3649.19,0.02094
3643.4,0.02210
3637.61,0.02203
3631.83,0.02175
3626.04,0.02142
3620.25,0.02107
3614.47,0.02107
3608.68,0.02133
3602.9,0.02141
3597.11,0.02145
3591.32,0.02175
3585.54,0.02055
3579.75,0.02078
3573.97,0.02134
3568.18,0.02049
3562.39,0.02082
3556.61,0.02054
3550.82,0.02182
3545.03,0.02152
3539.25,0.02139
3533.46,0.02067
3527.68,0.02036
3521.89,0.02067
3516.1,0.02076
3510.32,0.02052
3504.53,0.02077
3498.74,0.02011
3492.96,0.02098
3487.17,0.02105
3481.39,0.02088
3475.6,0.02113
3469.81,0.01958
3464.03,0.02084
3458.24,0.02027
3452.45,0.02032
3446.67,0.02019
3440.88,0.02102
3435.1,0.02026
3429.31,0.02022
3423.52,0.01983
3417.74,0.01989
3411.95,0.01989
3406.16,0.01988
3400.38,0.01945
3394.59,0.01954
3388.81,0.02039
3383.02,0.02052
3377.23,0.02107
3371.45,0.02040
3365.66,0.02014
3359.87,0.02026
3354.09,0.02006
3348.3,0.02020
3342.52,0.02048
3336.73,0.02035
3330.94,0.01979
3325.16,0.01958
3319.37,0.01970
3313.58,0.02023
3307.8,0.01943
3302.01,0.01985
3296.23,0.02075
3290.44,0.02068
3284.65,0.02026
3278.87,0.01955
3273.08,0.02010
3267.29,0.02008
3261.51,0.01979
3255.72,0.02024
3249.94,0.02047
3244.15,0.02074
3238.36,0.02042
3232.58,0.02051
3226.79,0.01997
3221,0.02040
3215.22,0.02067
3209.43,0.02001
3203.65,0.02078
3197.86,0.02031
3192.07,0.02076
3186.29,0.02017
3180.5,0.02067
3174.71,0.02048
3168.93,0.02062
3163.14,0.02029
3157.36,0.02078
3151.57,0.02025
3145.78,0.02033
3140,0.02101
3134.21,0.02089
3128.42,0.02103
3122.64,0.02070
3116.85,0.02046
3111.07,0.02095
3105.28,0.02083
3099.49,0.02050
3093.71,0.02092
3087.92,0.02129
3082.14,0.02067
3076.35,0.02039
3070.56,0.01997
3064.78,0.02048
3058.99,0.02054
3053.2,0.02108
3047.42,0.02032
3041.63,0.02015
3035.85,0.02053
3030.06,0.02005
3024.27,0.02061
3018.49,0.02034
3012.7,0.01983
3006.91,0.02007
3001.13,0.02028
2995.34,0.01989
2989.56,0.02011
2983.77,0.02007
2977.98,0.01980
2972.2,0.02006
2966.41,0.01988
2960.62,0.01903
2954.84,0.01926
2949.05,0.01984
2943.27,0.01972
2937.48,0.01961
2931.69,0.01929
2925.91,0.02003
2920.12,0.02014
2914.33,0.02033
2908.55,0.02039
2902.76,0.02051
2896.98,0.02004
2891.19,0.02051
2885.4,0.02035
2879.62,0.02038
2873.83,0.02086
2868.04,0.02032
2862.26,0.02040
2856.47,0.01995
2850.69,0.02070
2844.9,0.02099
2839.11,0.02106
2833.33,0.02122
2827.54,0.02111
2821.75,0.02115
2815.97,0.02130
2810.18,0.02110
2804.4,0.02114
2798.61,0.02099
2792.82,0.02145
2787.04,0.02166
2781.25,0.02127
2775.46,0.02103
2769.68,0.02112
2763.89,0.02147
2758.11,0.02158
2752.32,0.02099
2746.53,0.02171
2740.75,0.02135
2734.96,0.02130
2729.17,0.02124
2723.39,0.02115
2717.6,0.02126
2711.82,0.02113
2706.03,0.02140
2700.24,0.02130
2694.46,0.02124
2688.67,0.02070
2682.88,0.02092
2677.1,0.02097
2671.31,0.02135
2665.53,0.02134
2659.74,0.02143
2653.95,0.02103
2648.17,0.02130
2642.38,0.02093
2636.59,0.02127
2630.81,0.02146
2625.02,0.02117
2619.24,0.02124
2613.45,0.02092
2607.66,0.02136
2601.88,0.02140
2596.09,0.02110
2590.3,0.02135
2584.52,0.02131
2578.73,0.02142
2572.95,0.02112
2567.16,0.02105
2561.37,0.02146
2555.59,0.02179
2549.8,0.02100
2544.02,0.02109
2538.23,0.02109
2532.44,0.02128
2526.66,0.02118
2520.87,0.02119
2515.08,0.02135
2509.3,0.02099
2503.51,0.02095
2497.73,0.02116
2491.94,0.02143
2486.15,0.02136
2480.37,0.02144
2474.58,0.02113
2468.79,0.02138
2463.01,0.02126
2457.22,0.02118
2451.44,0.02118
2445.65,0.02135
2439.86,0.02122
2434.08,0.02148
2428.29,0.02147
2422.5,0.02120
2416.72,0.02120
2410.93,0.02128
2405.15,0.02127
2399.36,0.02141
2393.57,0.02128
2387.79,0.02147
2382,0.02110
2376.21,0.02140
2370.43,0.02127
2364.64,0.02132
2358.86,0.02076
2353.07,0.02121
2347.28,0.02138
2341.5,0.02085
2335.71,0.02133
2329.92,0.02114
2324.14,0.02093
2318.35,0.02098
2312.57,0.02125
2306.78,0.02095
2300.99,0.02115
2295.21,0.02107
2289.42,0.02140
2283.63,0.02116
2277.85,0.02120
2272.06,0.02119
2266.28,0.02150
2260.49,0.02115
2254.7,0.02080
2248.92,0.02089
2243.13,0.02111
2237.34,0.02118
2231.56,0.02118
2225.77,0.02142
2219.99,0.02113
2214.2,0.02088
2208.41,0.02096
2202.63,0.02066
2196.84,0.02099
2191.05,0.02106
2185.27,0.02123
2179.48,0.02104
2173.7,0.02126
2167.91,0.02130
2162.12,0.02117
2156.34,0.02123
2150.55,0.02105
2144.76,0.02155
2138.98,0.02135
2133.19,0.02103
2127.41,0.02075
2121.62,0.02119
2115.83,0.02090
2110.05,0.02105
2104.26,0.02084
2098.47,0.02094
2092.69,0.02082
2086.9,0.02124
2081.12,0.02101
2075.33,0.02113
2069.54,0.02084
2063.76,0.02072
2057.97,0.02086
2052.19,0.02063
2046.4,0.02082
2040.61,0.02084
2034.83,0.02105
2029.04,0.02103
2023.25,0.02113
2017.47,0.02134
2011.68,0.02118
2005.9,0.02097
2000.11,0.02105
1994.32,0.02078
1988.54,0.02095
1982.75,0.02086
1976.96,0.02096
1971.18,0.02086
1965.39,0.02107
1959.61,0.02091
1953.82,0.02096
1948.03,0.02091
1942.25,0.02085
1936.46,0.02100
1930.67,0.02106
1924.89,0.02076
1919.1,0.02087
1913.32,0.02084
1907.53,0.02074
1901.74,0.02053
1895.96,0.02095
1890.17,0.02058
1884.38,0.02055
1878.6,0.02046
1872.81,0.02078
1867.03,0.02045
1861.24,0.02045
1855.45,0.02035
1849.67,0.02056
1843.88,0.02061
1838.09,0.02056
1832.31,0.02045
1826.52,0.02028
1820.74,0.02013
1814.95,0.02016
1809.16,0.02000
1803.38,0.02000
1797.59,0.02007
1791.8,0.01982
1786.02,0.01944
1780.23,0.01908
1774.45,0.01925
1768.66,0.01915
1762.87,0.01828
1757.09,0.01762
1751.3,0.01793
1745.51,0.01778
1739.73,0.01869
1733.94,0.01964
1728.16,0.02058
1722.37,0.02130
1716.58,0.02127
1710.8,0.02080
1705.01,0.02059
1699.22,0.01987
1693.44,0.01954
1687.65,0.01921
1681.87,0.01926
1676.08,0.01898
1670.29,0.01873
1664.51,0.01841
1658.72,0.01821
1652.93,0.01843
1647.15,0.01903
1641.36,0.01867
1635.58,0.01868
1629.79,0.01866
1624,0.01895
1618.22,0.01916
1612.43,0.01890
1606.64,0.01897
1600.86,0.01944
1595.07,0.01877
1589.29,0.01884
1583.5,0.01876
1577.71,0.01863
1571.93,0.01825
1566.14,0.01810
1560.35,0.01904
1554.57,0.01836
1548.78,0.01808
1543,0.01871
1537.21,0.01788
1531.42,0.01855
1525.64,0.01949
1519.85,0.01882
1514.07,0.01861
1508.28,0.01920
1502.49,0.01886
1496.71,0.01883
1490.92,0.01945
1485.13,0.01906
1479.35,0.01868
1473.56,0.01820
1467.78,0.01840
1461.99,0.01865
1456.2,0.01837
1450.42,0.01897
1444.63,0.01918
1438.84,0.01931
1433.06,0.01910
1427.27,0.01880
1421.49,0.01904
1415.7,0.01863
1409.91,0.01839
1404.13,0.01858
1398.34,0.01834
1392.55,0.01827
1386.77,0.01822
1380.98,0.01863
1375.2,0.01833
1369.41,0.01860
1363.62,0.01815
1357.84,0.01830
1352.05,0.01795
1346.26,0.01808
1340.48,0.01823
1334.69,0.01796
1328.91,0.01765
1323.12,0.01769
1317.33,0.01709
1311.55,0.01687
1305.76,0.01718
1299.97,0.01718
1294.19,0.01780
1288.4,0.01882
1282.62,0.01866
1276.83,0.01888
1271.04,0.01917
1265.26,0.01990
1259.47,0.02028
1253.68,0.02052
1247.9,0.02018
1242.11,0.01993
1236.33,0.01935
1230.54,0.01957
1224.75,0.01959
1218.97,0.01934
1213.18,0.01907
1207.39,0.01896
1201.61,0.01851
1195.82,0.01858
1190.04,0.01817
1184.25,0.01848
1178.46,0.01813
1172.68,0.01756
1166.89,0.01804
1161.1,0.01753
1155.32,0.01764
1149.53,0.01729
1143.75,0.01788
1137.96,0.01773
1132.17,0.01790
1126.39,0.01771
1120.6,0.01837
1114.81,0.01842
1109.03,0.01871
1103.24,0.01846
1097.46,0.01849
1091.67,0.01860
1085.88,0.01795
1080.1,0.01848
1074.31,0.01932
1068.52,0.01942
1062.74,0.02029
1056.95,0.01950
1051.17,0.01968
1045.38,0.01935
1039.59,0.01937
1033.81,0.01941
1028.02,0.01932
1022.24,0.01900
1016.45,0.01934
1010.66,0.01935
1004.88,0.01999
999.09,0.02118
993.304,0.02158
987.518,0.02134
981.731,0.02067
975.945,0.02011
970.159,0.02029
964.373,0.01982
958.586,0.02034
952.8,0.02001
947.014,0.02015
941.228,0.01943
935.441,0.01960
929.655,0.01929
923.869,0.01877
918.083,0.01922
912.297,0.01929
906.51,0.01880
900.724,0.01947
894.938,0.01913
889.152,0.01912
883.365,0.01827
877.579,0.01905
871.793,0.01889
866.007,0.01846
860.22,0.01880
854.434,0.01891
848.648,0.01883
842.862,0.01920
837.075,0.01918
831.289,0.01916
825.503,0.01889
819.717,0.01862
813.931,0.01941
808.144,0.01906
802.358,0.01914
796.572,0.01878
790.786,0.01821
784.999,0.01842
779.213,0.01787
773.427,0.01801
767.641,0.01880
761.854,0.01848
756.068,0.01875
750.282,0.01769
744.496,0.01766
738.709,0.01860
732.923,0.01848
727.137,0.01813
721.351,0.01771
715.565,0.01794
709.778,0.01683
703.992,0.01770
698.206,0.01713
692.42,0.01745
686.633,0.01761
680.847,0.01710
675.061,0.01794
669.275,0.01657
663.488,0.01713
657.702,0.01673
651.916,0.01675
646.13,0.01582
640.343,0.01753
634.557,0.01543
628.771,0.01665
622.985,0.01666
617.198,0.01852
611.412,0.01550
605.626,0.01650
599.84,0.01370