File: 01_Data/Pressure_Treated_Deck/FTIR/IS/Pressure_Treated_Deck_IS_S_221012_R1.dpt
7497.03,0.80337
7491.25,0.79086
7485.46,0.79181
7479.67,0.79062
7473.89,0.78526
7468.1,0.79668
7462.32,0.78435
7456.53,0.78289
7450.74,0.78204
7444.96,0.78013
7439.17,0.78033
7433.38,0.78271
7427.6,0.78637
7421.81,0.79334
7416.03,0.78059
7410.24,0.77237
7404.45,0.78489
7398.67,0.77672
7392.88,0.76963
7387.09,0.77064
7381.31,0.77655
7375.52,0.77832
7369.74,0.76404
7363.95,0.76634
7358.16,0.77142
7352.38,0.77054
7346.59,0.76972
7340.8,0.77399
7335.02,0.75982
7329.23,0.75997
7323.45,0.77027
7317.66,0.76049
7311.87,0.76655
7306.09,0.76823
7300.3,0.76963
7294.51,0.76607
7288.73,0.75489
7282.94,0.74496
7277.16,0.75644
7271.37,0.75408
7265.58,0.75483
7259.8,0.75595
7254.01,0.76757
7248.22,0.76129
7242.44,0.75965
7236.65,0.76290
7230.87,0.76158
7225.08,0.76711
7219.29,0.75158
7213.51,0.76245
7207.72,0.76122
7201.93,0.75289
7196.15,0.76427
7190.36,0.75361
7184.58,0.74905
7178.79,0.75617
7173,0.75203
7167.22,0.74586
7161.43,0.73539
7155.65,0.73995
7149.86,0.73462
7144.07,0.72983
7138.29,0.73247
7132.5,0.73014
7126.71,0.72746
7120.93,0.72297
7115.14,0.71600
7109.36,0.71674
7103.57,0.71448
7097.78,0.70909
7092,0.70290
7086.21,0.69892
7080.42,0.69644
7074.64,0.68573
7068.85,0.68555
7063.07,0.67947
7057.28,0.67409
7051.49,0.67075
7045.71,0.67119
7039.92,0.66646
7034.13,0.66456
7028.35,0.65837
7022.56,0.65773
7016.78,0.65576
7010.99,0.64735
7005.2,0.64269
6999.42,0.63726
6993.63,0.63653
6987.84,0.63648
6982.06,0.63423
6976.27,0.63141
6970.49,0.63268
6964.7,0.63364
6958.91,0.63291
6953.13,0.62812
6947.34,0.62976
6941.55,0.62241
6935.77,0.62416
6929.98,0.62113
6924.2,0.62055
6918.41,0.61695
6912.62,0.62568
6906.84,0.62622
6901.05,0.62785
6895.26,0.62001
6889.48,0.62481
6883.69,0.62744
6877.91,0.62364
6872.12,0.61939
6866.33,0.61683
6860.55,0.62050
6854.76,0.62156
6848.97,0.62289
6843.19,0.62644
6837.4,0.63112
6831.62,0.62693
6825.83,0.62501
6820.04,0.62335
6814.26,0.62174
6808.47,0.62196
6802.68,0.62455
6796.9,0.62176
6791.11,0.62248
6785.33,0.61992
6779.54,0.62262
6773.75,0.62638
6767.97,0.62361
6762.18,0.62728
6756.39,0.62580
6750.61,0.62061
6744.82,0.62121
6739.04,0.62523
6733.25,0.62428
6727.46,0.63035
6721.68,0.62785
6715.89,0.62972
6710.1,0.63297
6704.32,0.63138
6698.53,0.63338
6692.75,0.62814
6686.96,0.62813
6681.17,0.63420
6675.39,0.63461
6669.6,0.63099
6663.82,0.63658
6658.03,0.63498
6652.24,0.63565
6646.46,0.63661
6640.67,0.64023
6634.88,0.63865
6629.1,0.63827
6623.31,0.64411
6617.53,0.64293
6611.74,0.64525
6605.95,0.64568
6600.17,0.64423
6594.38,0.64563
6588.59,0.64690
6582.81,0.64946
6577.02,0.64487
6571.24,0.64928
6565.45,0.64762
6559.66,0.64998
6553.88,0.65578
6548.09,0.65179
6542.3,0.65480
6536.52,0.65444
6530.73,0.65028
6524.95,0.65584
6519.16,0.65134
6513.37,0.65606
6507.59,0.65515
6501.8,0.64939
6496.01,0.65420
6490.23,0.65609
6484.44,0.65702
6478.66,0.65767
6472.87,0.65682
6467.08,0.65557
6461.3,0.65587
6455.51,0.65927
6449.72,0.65577
6443.94,0.66019
6438.15,0.65852
6432.37,0.65605
6426.58,0.66049
6420.79,0.66657
6415.01,0.66395
6409.22,0.66077
6403.43,0.66309
6397.65,0.66077
6391.86,0.66603
6386.08,0.66887
6380.29,0.66302
6374.5,0.66377
6368.72,0.66703
6362.93,0.66565
6357.14,0.66733
6351.36,0.66694
6345.57,0.67014
6339.79,0.67056
6334,0.66928
6328.21,0.67073
6322.43,0.67406
6316.64,0.66650
6310.85,0.67059
6305.07,0.67077
6299.28,0.67127
6293.5,0.67272
6287.71,0.67434
6281.92,0.67652
6276.14,0.67548
6270.35,0.67317
6264.56,0.67743
6258.78,0.68186
6252.99,0.68354
6247.21,0.68393
6241.42,0.68309
6235.63,0.68760
6229.85,0.68865
6224.06,0.68890
6218.27,0.68876
6212.49,0.68882
6206.7,0.69162
6200.92,0.69631
6195.13,0.69363
6189.34,0.69482
6183.56,0.69603
6177.77,0.70008
6171.98,0.70296
6166.2,0.70096
6160.41,0.70701
6154.63,0.70595
6148.84,0.70991
6143.05,0.70957
6137.27,0.71126
6131.48,0.71139
6125.7,0.71205
6119.91,0.71345
6114.12,0.71442
6108.34,0.70924
6102.55,0.71461
6096.76,0.71303
6090.98,0.71488
6085.19,0.71416
6079.41,0.71317
6073.62,0.71450
6067.83,0.71468
6062.05,0.71569
6056.26,0.71179
6050.47,0.71071
6044.69,0.70948
6038.9,0.70986
6033.12,0.70732
6027.33,0.70943
6021.54,0.70394
6015.76,0.70049
6009.97,0.69996
6004.18,0.70194
5998.4,0.69630
5992.61,0.69579
5986.83,0.69929
5981.04,0.69717
5975.25,0.69768
5969.47,0.69696
5963.68,0.69654
5957.89,0.69799
5952.11,0.69958
5946.32,0.69771
5940.54,0.69650
5934.75,0.69738
5928.96,0.69752
5923.18,0.70097
5917.39,0.69769
5911.6,0.69494
5905.82,0.69422
5900.03,0.69422
5894.25,0.69324
5888.46,0.69478
5882.67,0.69194
5876.89,0.69408
5871.1,0.69125
5865.31,0.68998
5859.53,0.68916
5853.74,0.68946
5847.96,0.69196
5842.17,0.68966
5836.38,0.68795
5830.6,0.68718
5824.81,0.68597
5819.02,0.68807
5813.24,0.68727
5807.45,0.68627
5801.67,0.68590
5795.88,0.68470
5790.09,0.68636
5784.31,0.68630
5778.52,0.68500
5772.73,0.68715
5766.95,0.68900
5761.16,0.69093
5755.38,0.68982
5749.59,0.68948
5743.8,0.68677
5738.02,0.68795
5732.23,0.68705
5726.44,0.68717
5720.66,0.68925
5714.87,0.68684
5709.09,0.68784
5703.3,0.68989
5697.51,0.69008
5691.73,0.68936
5685.94,0.68563
5680.15,0.68414
5674.37,0.68536
5668.58,0.68540
5662.8,0.68477
5657.01,0.68443
5651.22,0.68617
5645.44,0.68538
5639.65,0.68596
5633.87,0.68544
5628.08,0.68714
5622.29,0.68474
5616.51,0.68775
5610.72,0.68685
5604.93,0.68674
5599.15,0.68716
5593.36,0.68777
5587.58,0.68703
5581.79,0.68474
5576,0.68586
5570.22,0.68755
5564.43,0.68793
5558.64,0.68919
5552.86,0.68989
5547.07,0.68974
5541.29,0.69097
5535.5,0.68986
5529.71,0.69091
5523.93,0.69079
5518.14,0.68989
5512.35,0.69245
5506.57,0.69219
5500.78,0.69218
5495,0.69062
5489.21,0.69170
5483.42,0.69500
5477.64,0.69362
5471.85,0.69546
5466.06,0.69482
5460.28,0.69530
5454.49,0.69647
5448.71,0.69808
5442.92,0.69955
5437.13,0.70195
5431.35,0.69987
5425.56,0.70068
5419.77,0.70218
5413.99,0.70408
5408.2,0.70538
5402.42,0.70529
5396.63,0.70674
5390.84,0.70772
5385.06,0.70605
5379.27,0.70739
5373.48,0.70503
5367.7,0.70861
5361.91,0.70463
5356.13,0.70320
5350.34,0.70438
5344.55,0.70273
5338.77,0.70149
5332.98,0.69888
5327.19,0.69533
5321.41,0.69165
5315.62,0.68540
5309.84,0.68184
5304.05,0.67400
5298.26,0.66858
5292.48,0.65872
5286.69,0.64999
5280.9,0.63955
5275.12,0.62596
5269.33,0.61434
5263.55,0.60138
5257.76,0.58967
5251.97,0.57645
5246.19,0.56726
5240.4,0.55935
5234.61,0.55139
5228.83,0.54296
5223.04,0.53752
5217.26,0.53265
5211.47,0.52924
5205.68,0.52778
5199.9,0.52462
5194.11,0.52451
5188.32,0.52418
5182.54,0.52585
5176.75,0.52794
5170.97,0.52702
5165.18,0.53150
5159.39,0.53448
5153.61,0.53666
5147.82,0.53991
5142.03,0.54468
5136.25,0.54926
5130.46,0.55088
5124.68,0.55449
5118.89,0.55716
5113.1,0.56280
5107.32,0.56505
5101.53,0.56792
5095.75,0.57228
5089.96,0.57430
5084.17,0.57860
5078.39,0.58220
5072.6,0.58511
5066.81,0.58765
5061.03,0.58955
5055.24,0.59350
5049.46,0.59547
5043.67,0.59980
5037.88,0.60077
5032.1,0.60350
5026.31,0.60554
5020.52,0.60839
5014.74,0.60977
5008.95,0.61037
5003.17,0.61195
4997.38,0.61179
4991.59,0.61260
4985.81,0.61277
4980.02,0.61138
4974.23,0.60942
4968.45,0.60685
4962.66,0.60522
4956.88,0.60358
4951.09,0.60117
4945.3,0.59688
4939.52,0.59157
4933.73,0.58852
4927.94,0.58405
4922.16,0.57950
4916.37,0.57310
4910.59,0.56719
4904.8,0.56238
4899.01,0.55902
4893.23,0.55362
4887.44,0.54830
4881.65,0.54437
4875.87,0.53994
4870.08,0.53595
4864.3,0.53025
4858.51,0.52600
4852.72,0.52250
4846.94,0.51909
4841.15,0.51593
4835.36,0.51323
4829.58,0.50923
4823.79,0.50488
4818.01,0.50291
4812.22,0.50101
4806.43,0.49937
4800.65,0.49793
4794.86,0.49672
4789.07,0.49596
4783.29,0.49365
4777.5,0.49293
4771.72,0.49188
4765.93,0.49205
4760.14,0.49107
4754.36,0.49136
4748.57,0.49202
4742.78,0.49158
4737,0.49126
4731.21,0.49295
4725.43,0.49390
4719.64,0.49401
4713.85,0.49421
4708.07,0.49533
4702.28,0.49603
4696.49,0.49698
4690.71,0.49809
4684.92,0.49828
4679.14,0.50018
4673.35,0.50026
4667.56,0.50330
4661.78,0.50495
4655.99,0.50835
4650.2,0.51000
4644.42,0.51238
4638.63,0.51390
4632.85,0.51709
4627.06,0.51981
4621.27,0.52224
4615.49,0.52598
4609.7,0.53030
4603.92,0.53232
4598.13,0.53473
4592.34,0.53645
4586.56,0.53937
4580.77,0.54179
4574.98,0.54370
4569.2,0.54527
4563.41,0.54590
4557.63,0.54817
4551.84,0.54836
4546.05,0.55181
4540.27,0.55240
4534.48,0.55300
4528.69,0.55346
4522.91,0.55403
4517.12,0.55485
4511.34,0.55309
4505.55,0.55252
4499.76,0.55102
4493.98,0.54770
4488.19,0.54400
4482.4,0.53995
4476.62,0.53589
4470.83,0.52930
4465.05,0.52220
4459.26,0.51636
4453.47,0.50926
4447.69,0.50118
4441.9,0.49399
4436.11,0.48779
4430.33,0.48010
4424.54,0.47245
4418.76,0.46472
4412.97,0.45860
4407.18,0.45455
4401.4,0.45141
4395.61,0.45090
4389.82,0.45246
4384.04,0.45325
4378.25,0.45543
4372.47,0.45734
4366.68,0.46030
4360.89,0.46085
4355.11,0.46142
4349.32,0.46200
4343.53,0.46140
4337.75,0.45979
4331.96,0.45851
4326.18,0.45576
4320.39,0.45323
4314.6,0.45022
4308.82,0.44832
4303.03,0.44595
4297.24,0.44320
4291.46,0.44070
4285.67,0.43918
4279.89,0.43896
4274.1,0.43924
4268.31,0.44000
4262.53,0.44129
4256.74,0.44214
4250.95,0.44371
4245.17,0.44443
4239.38,0.44462
4233.6,0.44467
4227.81,0.44553
4222.02,0.44547
4216.24,0.44512
4210.45,0.44483
4204.66,0.44415
4198.88,0.44451
4193.09,0.44547
4187.31,0.44614
4181.52,0.44734
4175.73,0.44861
4169.95,0.44994
4164.16,0.45122
4158.37,0.45066
4152.59,0.44940
4146.8,0.44759
4141.02,0.44610
4135.23,0.44328
4129.44,0.43889
4123.66,0.43484
4117.87,0.43044
4112.09,0.42613
4106.3,0.42142
4100.51,0.41603
4094.73,0.41117
4088.94,0.40489
4083.15,0.39909
4077.37,0.39351
4071.58,0.38826
4065.8,0.38201
4060.01,0.37623
4054.22,0.37180
4048.44,0.36621
4042.65,0.36166
4036.86,0.35760
4031.08,0.35461
4025.29,0.35147
4019.51,0.34943
4013.72,0.34828
4007.93,0.34853
4002.15,0.34897
3996.36,0.34893
3990.57,0.35100
3984.79,0.35188
3979,0.35316
3973.22,0.35470
3967.43,0.35674
3961.64,0.35986
3955.86,0.36244
3950.07,0.36514
3944.28,0.36762
3938.5,0.36969
3932.71,0.37294
3926.93,0.37741
3921.14,0.37956
3915.35,0.38237
3909.57,0.38480
3903.78,0.38837
3897.99,0.38993
3892.21,0.39161
3886.42,0.39463
3880.64,0.39596
3874.85,0.39829
3869.06,0.40265
3863.28,0.40457
3857.49,0.40723
3851.7,0.40972
3845.92,0.41229
3840.13,0.41398
3834.35,0.41566
3828.56,0.41595
3822.77,0.41583
3816.99,0.41621
3811.2,0.41465
3805.41,0.41556
3799.63,0.41513
3793.84,0.41446
3788.06,0.41196
3782.27,0.41191
3776.48,0.40988
3770.7,0.40852
3764.91,0.40629
3759.12,0.40428
3753.34,0.40220
3747.55,0.39995
3741.77,0.39456
3735.98,0.39110
3730.19,0.38492
3724.41,0.37967
3718.62,0.37197
3712.83,0.36442
3707.05,0.35472
3701.26,0.34407
3695.48,0.33124
3689.69,0.31597
3683.9,0.29582
3678.12,0.27608
3672.33,0.25310
3666.54,0.22885
3660.76,0.20819
3654.97,0.18862
3649.19,0.17255
3643.4,0.15770
3637.61,0.14517
3631.83,0.13481
3626.04,0.12516
3620.25,0.11682
3614.47,0.10883
3608.68,0.10273
3602.9,0.09666
3597.11,0.09069
3591.32,0.08560
3585.54,0.08121
3579.75,0.07723
3573.97,0.07316
3568.18,0.07077
3562.39,0.06730
3556.61,0.06493
3550.82,0.06309
3545.03,0.06091
3539.25,0.05950
3533.46,0.05784
3527.68,0.05664
3521.89,0.05486
3516.1,0.05429
3510.32,0.05365
3504.53,0.05249
3498.74,0.05144
3492.96,0.05081
3487.17,0.04985
3481.39,0.04937
3475.6,0.04837
3469.81,0.04811
3464.03,0.04812
3458.24,0.04821
3452.45,0.04772
3446.67,0.04760
3440.88,0.04744
3435.1,0.04745
3429.31,0.04724
3423.52,0.04761
3417.74,0.04711
3411.95,0.04778
3406.16,0.04875
3400.38,0.04877
3394.59,0.04829
3388.81,0.04901
3383.02,0.04853
3377.23,0.04906
3371.45,0.04932
3365.66,0.04935
3359.87,0.05024
3354.09,0.05041
3348.3,0.05117
3342.52,0.05234
3336.73,0.05293
3330.94,0.05378
3325.16,0.05434
3319.37,0.05554
3313.58,0.05541
3307.8,0.05705
3302.01,0.05766
3296.23,0.05730
3290.44,0.05882
3284.65,0.05943
3278.87,0.05980
3273.08,0.06134
3267.29,0.06245
3261.51,0.06397
3255.72,0.06449
3249.94,0.06571
3244.15,0.06653
3238.36,0.06822
3232.58,0.06941
3226.79,0.07071
3221,0.07205
3215.22,0.07451
3209.43,0.07571
3203.65,0.07650
3197.86,0.07855
3192.07,0.07983
3186.29,0.08154
3180.5,0.08390
3174.71,0.08558
3168.93,0.08772
3163.14,0.08931
3157.36,0.09202
3151.57,0.09421
3145.78,0.09589
3140,0.09794
3134.21,0.10034
3128.42,0.10228
3122.64,0.10364
3116.85,0.10591
3111.07,0.10786
3105.28,0.10981
3099.49,0.11268
3093.71,0.11493
3087.92,0.11620
3082.14,0.11809
3076.35,0.11963
3070.56,0.12176
3064.78,0.12368
3058.99,0.12641
3053.2,0.12798
3047.42,0.12977
3041.63,0.13164
3035.85,0.13298
3030.06,0.13329
3024.27,0.13395
3018.49,0.13229
3012.7,0.13045
3006.91,0.12884
3001.13,0.12660
2995.34,0.12431
2989.56,0.12089
2983.77,0.11682
2977.98,0.10974
2972.2,0.10180
2966.41,0.09690
2960.62,0.09315
2954.84,0.08905
2949.05,0.08511
2943.27,0.08264
2937.48,0.08036
2931.69,0.07939
2925.91,0.08018
2920.12,0.07997
2914.33,0.07946
2908.55,0.07999
2902.76,0.08002
2896.98,0.08069
2891.19,0.08239
2885.4,0.08356
2879.62,0.08477
2873.83,0.08610
2868.04,0.08870
2862.26,0.09144
2856.47,0.09429
2850.69,0.09866
2844.9,0.10355
2839.11,0.10962
2833.33,0.11568
2827.54,0.12249
2821.75,0.12944
2815.97,0.13571
2810.18,0.14094
2804.4,0.14507
2798.61,0.14896
2792.82,0.15229
2787.04,0.15491
2781.25,0.15668
2775.46,0.15844
2769.68,0.15996
2763.89,0.16099
2758.11,0.16231
2752.32,0.16320
2746.53,0.16377
2740.75,0.16384
2734.96,0.16415
2729.17,0.16631
2723.39,0.16821
2717.6,0.17003
2711.82,0.17217
2706.03,0.17473
2700.24,0.17756
2694.46,0.18004
2688.67,0.18199
2682.88,0.18424
2677.1,0.18645
2671.31,0.18848
2665.53,0.18992
2659.74,0.19165
2653.95,0.19239
2648.17,0.19433
2642.38,0.19604
2636.59,0.19825
2630.81,0.20012
2625.02,0.20242
2619.24,0.20389
2613.45,0.20620
2607.66,0.20766
2601.88,0.20914
2596.09,0.21058
2590.3,0.21238
2584.52,0.21394
2578.73,0.21513
2572.95,0.21641
2567.16,0.21681
2561.37,0.21709
2555.59,0.21785
2549.8,0.21870
2544.02,0.21907
2538.23,0.21979
2532.44,0.22143
2526.66,0.22352
2520.87,0.22517
2515.08,0.22660
2509.3,0.22887
2503.51,0.23189
2497.73,0.23486
2491.94,0.23782
2486.15,0.23982
2480.37,0.24273
2474.58,0.24504
2468.79,0.24758
2463.01,0.24975
2457.22,0.25258
2451.44,0.25456
2445.65,0.25711
2439.86,0.25971
2434.08,0.26238
2428.29,0.26543
2422.5,0.26844
2416.72,0.27173
2410.93,0.27516
2405.15,0.27811
2399.36,0.28105
2393.57,0.28324
2387.79,0.28596
2382,0.28792
2376.21,0.28997
2370.43,0.29126
2364.64,0.29272
2358.86,0.29405
2353.07,0.29651
2347.28,0.29846
2341.5,0.29946
2335.71,0.29997
2329.92,0.30170
2324.14,0.30269
2318.35,0.30363
2312.57,0.30422
2306.78,0.30407
2300.99,0.30377
2295.21,0.30334
2289.42,0.30298
2283.63,0.30282
2277.85,0.30186
2272.06,0.30048
2266.28,0.29862
2260.49,0.29674
2254.7,0.29559
2248.92,0.29462
2243.13,0.29366
2237.34,0.29231
2231.56,0.29184
2225.77,0.29101
2219.99,0.29043
2214.2,0.28980
2208.41,0.28881
2202.63,0.28747
2196.84,0.28470
2191.05,0.28197
2185.27,0.27936
2179.48,0.27590
2173.7,0.27233
2167.91,0.26861
2162.12,0.26634
2156.34,0.26422
2150.55,0.26238
2144.76,0.26067
2138.98,0.25961
2133.19,0.25897
2127.41,0.25931
2121.62,0.26031
2115.83,0.26089
2110.05,0.26140
2104.26,0.26220
2098.47,0.26323
2092.69,0.26400
2086.9,0.26418
2081.12,0.26283
2075.33,0.26181
2069.54,0.26061
2063.76,0.25972
2057.97,0.25910
2052.19,0.25959
2046.4,0.26070
2040.61,0.26214
2034.83,0.26505
2029.04,0.26799
2023.25,0.27131
2017.47,0.27506
2011.68,0.27761
2005.9,0.27964
2000.11,0.28154
1994.32,0.28411
1988.54,0.28644
1982.75,0.28772
1976.96,0.28919
1971.18,0.29116
1965.39,0.29311
1959.61,0.29530
1953.82,0.29826
1948.03,0.30120
1942.25,0.30408
1936.46,0.30621
1930.67,0.30801
1924.89,0.30952
1919.1,0.31063
1913.32,0.31088
1907.53,0.31096
1901.74,0.31038
1895.96,0.31004
1890.17,0.30971
1884.38,0.30892
1878.6,0.30836
1872.81,0.30813
1867.03,0.30752
1861.24,0.30610
1855.45,0.30494
1849.67,0.30326
1843.88,0.30143
1838.09,0.29761
1832.31,0.29507
1826.52,0.29049
1820.74,0.28457
1814.95,0.27777
1809.16,0.26946
1803.38,0.26064
1797.59,0.24963
1791.8,0.23767
1786.02,0.22386
1780.23,0.20819
1774.45,0.19060
1768.66,0.16699
1762.87,0.14319
1757.09,0.12053
1751.3,0.10489
1745.51,0.09546
1739.73,0.09099
1733.94,0.09052
1728.16,0.09253
1722.37,0.09615
1716.58,0.10174
1710.8,0.10718
1705.01,0.11321
1699.22,0.11562
1693.44,0.11309
1687.65,0.10978
1681.87,0.10343
1676.08,0.09755
1670.29,0.09201
1664.51,0.08792
1658.72,0.08639
1652.93,0.08831
1647.15,0.08869
1641.36,0.08825
1635.58,0.08901
1629.79,0.08919
1624,0.08940
1618.22,0.08897
1612.43,0.08676
1606.64,0.08450
1600.86,0.08491
1595.07,0.08539
1589.29,0.08834
1583.5,0.09583
1577.71,0.10790
1571.93,0.12287
1566.14,0.13467
1560.35,0.14075
1554.57,0.14202
1548.78,0.14064
1543,0.13690
1537.21,0.12728
1531.42,0.11368
1525.64,0.09523
1519.85,0.07343
1514.07,0.06177
1508.28,0.06173
1502.49,0.06877
1496.71,0.07786
1490.92,0.08380
1485.13,0.08297
1479.35,0.07841
1473.56,0.07018
1467.78,0.06283
1461.99,0.06132
1456.2,0.06139
1450.42,0.06119
1444.63,0.06308
1438.84,0.06232
1433.06,0.05857
1427.27,0.05787
1421.49,0.05927
1415.7,0.06270
1409.91,0.06462
1404.13,0.06584
1398.34,0.06536
1392.55,0.06309
1386.77,0.06045
1380.98,0.05645
1375.2,0.05582
1369.41,0.05697
1363.62,0.05904
1357.84,0.06026
1352.05,0.06161
1346.26,0.06116
1340.48,0.05954
1334.69,0.05886
1328.91,0.05906
1323.12,0.05846
1317.33,0.05792
1311.55,0.05912
1305.76,0.06105
1299.97,0.06038
1294.19,0.05856
1288.4,0.05545
1282.62,0.05281
1276.83,0.05123
1271.04,0.05123
1265.26,0.05230
1259.47,0.05464
1253.68,0.05593
1247.9,0.05685
1242.11,0.05655
1236.33,0.05574
1230.54,0.05575
1224.75,0.05634
1218.97,0.05697
1213.18,0.05695
1207.39,0.05750
1201.61,0.05829
1195.82,0.05897
1190.04,0.05746
1184.25,0.05436
1178.46,0.04972
1172.68,0.04655
1166.89,0.04701
1161.1,0.04939
1155.32,0.05099
1149.53,0.04980
1143.75,0.04744
1137.96,0.04559
1132.17,0.04404
1126.39,0.04329
1120.6,0.04440
1114.81,0.04555
1109.03,0.04855
1103.24,0.04948
1097.46,0.04920
1091.67,0.04912
1085.88,0.04970
1080.1,0.05291
1074.31,0.05738
1068.52,0.06180
1062.74,0.06870
1056.95,0.07411
1051.17,0.07491
1045.38,0.07317
1039.59,0.07456
1033.81,0.08002
1028.02,0.08366
1022.24,0.08523
1016.45,0.08651
1010.66,0.08806
1004.88,0.08859
999.09,0.09013
993.304,0.09331
987.518,0.09732
981.731,0.10399
975.945,0.10840
970.159,0.10990
964.373,0.11189
958.586,0.11695
952.8,0.12091
947.014,0.12379
941.228,0.12581
935.441,0.12778
929.655,0.12929
923.869,0.12909
918.083,0.12752
912.297,0.12253
906.51,0.11559
900.724,0.10934
894.938,0.10998
889.152,0.11419
883.365,0.11651
877.579,0.11681
871.793,0.11725
866.007,0.11773
860.22,0.12017
854.434,0.12237
848.648,0.12507
842.862,0.12575
837.075,0.12306
831.289,0.11914
825.503,0.11421
819.717,0.10798
813.931,0.10526
808.144,0.10348
802.358,0.10611
796.572,0.10732
790.786,0.10802
784.999,0.10523
779.213,0.10212
773.427,0.10014
767.641,0.09864
761.854,0.09770
756.068,0.09624
750.282,0.09397
744.496,0.09251
738.709,0.09032
732.923,0.08868
727.137,0.08669
721.351,0.08533
715.565,0.08294
709.778,0.08102
703.992,0.08062
698.206,0.08030
692.42,0.07857
686.633,0.07662
680.847,0.07420
675.061,0.07186
669.275,0.07335
663.488,0.07201
657.702,0.07420
651.916,0.07443
646.13,0.07326
640.343,0.07229
634.557,0.07112
628.771,0.06783
622.985,0.06973
617.198,0.06989
611.412,0.07206
605.626,0.07226
599.84,0.07416