File: 01_Data/Homasote/Cone/Homasote_Cone_HF25Scan_230608_R3.csv
Names,Time,Stack TC,Smoke TC,Exh Press,Smoke Comp,Smoke Meas,CO Meter,CO2 Meter,O2 Meter,Sample Mass,Ext Coeff,Start Test,Flame Verif
Chan Gain,,500,500,1,1,1,1,1,1,1,1,1.0,1.0
Offset,,0,0,0.143883,0,0,0,0,0,0,0,0.0,0.0
Gain,,1,1,25.011,13.3637,14.0881,1,1,1,1.00094,1.03262,1.0,1.0
Units,sec,C,C,Pa,%,%,%,%,%,g,/m,,
Baseline,,27.6485,27.9908,159.872,99.72,99.7139,0.000820082,0.0575576,20.9452,-445.443,0.00055988,,
3,0.5,25.6321,26.3698,159.916,101.119,101.091,0.000895246,0.0589516,20.9434,108.612,0.00255121,0.0,0.0
6,1.25,24.9852,26.027,159.137,101.089,101.098,0.000908731,0.0592689,20.9434,108.682,-0.000768851,0.0,0.0
9,2,24.6224,25.9851,157.942,101.063,101.115,0.000893485,0.0596579,20.9434,108.712,-0.00464866,0.0,0.0
12,2.75,24.546,25.6018,162.351,101.049,101.131,0.000871678,0.060219,20.9427,108.652,-0.00739156,0.0,0.0
15,3.5,25.1686,25.6385,156.678,101.02,101.015,0.000830758,0.0607463,20.9423,108.602,0.000377923,0.0,0.0
18,4.25,25.351,25.5335,156.01,101.002,101.024,0.000800926,0.0611308,20.9413,108.622,-0.00200541,0.0,0.0
21,5,24.8535,25.6232,159.945,100.985,101.013,0.00077918,0.0617863,20.9406,108.622,-0.00250225,0.0,0.0
24,5.75,25.1656,25.9016,158.935,100.977,100.951,0.000763326,0.0623372,20.9406,108.622,0.0023202,0.0,0.0
27,6.5,24.8807,25.4557,159.026,100.938,100.875,0.000755343,0.0627392,20.9406,108.602,0.00564021,0.0,0.0
30,7.25,24.9999,25.765,158.848,100.91,100.902,0.000760802,0.0629797,20.9404,108.592,0.00071588,0.0,0.0
33,8,25.3318,25.7363,159.206,100.887,100.798,0.000776847,0.0630924,20.9398,108.532,0.0079773,0.0,0.0
36,8.75,25.398,25.6611,161.548,100.873,100.79,0.000800954,0.0631015,20.9394,108.542,0.00750259,0.0,0.0
39,9.5,24.9948,25.8754,160.241,100.853,100.766,0.000836415,0.063077,20.9391,108.522,0.00779605,0.0,0.0
42,10.25,25.4061,25.8561,161.613,100.828,100.695,0.000871046,0.0629757,20.9389,108.532,0.0119045,0.0,0.0
45,11,25.0744,25.8971,158.489,100.826,100.677,0.000900036,0.0628635,20.9387,108.502,0.0133452,0.0,0.0
48,11.75,24.6456,25.7515,159.793,100.798,100.518,0.000917208,0.0627159,20.9386,108.492,0.025216,0.0,0.0
51,12.5,25.292,25.6813,164.155,100.784,100.553,0.000922953,0.0624475,20.9385,108.462,0.0208302,0.0,0.0
54,13.25,25.8481,25.8998,160.621,100.776,100.411,0.000912092,0.0621834,20.9385,108.452,0.0328861,0.0,0.0
57,14,25.4143,25.6242,159.389,100.743,100.254,0.000895121,0.0619032,20.9384,108.442,0.0440469,0.0,0.0
60,14.75,25.6001,25.4496,161.138,100.731,100.257,0.000878236,0.0616462,20.9384,108.382,0.0426735,0.0,0.0
63,15.5,25.5377,25.8965,162.142,100.715,100.213,0.00087721,0.0614326,20.9384,108.422,0.0452471,0.0,0.0
66,16.25,25.2285,26.2214,157.529,100.735,100.248,0.000901342,0.0614644,20.9386,108.442,0.0438943,0.0,0.0
69,17,25.7524,25.795,161.421,100.685,100.054,0.00092749,0.0616044,20.9391,108.432,0.0569196,0.0,0.0
72,17.75,25.6223,26.0298,162.034,100.661,99.8722,0.000975192,0.0617563,20.9395,108.402,0.0712709,0.0,0.0
75,18.5,25.1782,26.3185,159.603,100.653,100.008,0.0010212,0.0619087,20.9398,108.442,0.0582984,0.0,0.0
78,19.25,25.4534,26.209,158.43,100.636,99.9995,0.00107396,0.0619737,20.9401,108.402,0.0574969,0.0,0.0
81,20,26.0792,25.4574,159.203,100.637,100.026,0.00112495,0.0619422,20.9402,108.342,0.0551565,0.0,0.0
84,20.75,25.2836,26.0865,157.632,100.604,100.038,0.00116088,0.061815,20.9403,108.322,0.0510557,0.0,0.0
87,21.5,25.4055,25.9468,164.913,100.602,99.9552,0.00118653,0.0616201,20.9404,108.332,0.0584625,0.0,0.0
90,22.25,25.7464,25.865,158.397,100.59,99.7106,0.00119141,0.0614344,20.9405,108.342,0.0795571,0.0,0.0
93,23,25.8899,25.5812,160.012,100.573,99.7893,0.0011838,0.0611948,20.9405,108.312,0.0708327,0.0,0.0
96,23.75,26.0488,25.7174,157.797,100.559,99.7132,0.0011692,0.0609972,20.9406,108.332,0.0764932,0.0,0.0
99,24.5,25.366,25.956,158.062,100.544,99.7841,0.00113708,0.0608136,20.9406,108.282,0.0686929,0.0,0.0
102,25.25,25.5649,25.7854,161.061,100.549,99.7007,0.00111366,0.0607529,20.9406,108.252,0.0767812,0.0,0.0
105,26,25.6539,26.4094,156.459,100.54,99.6027,0.00108048,0.0607397,20.9411,108.222,0.0848463,0.0,0.0
108,26.75,25.5302,25.664,159.465,100.524,99.6646,0.00105893,0.0611468,20.9416,108.212,0.077748,0.0,0.0
111,27.5,26.1879,26.2107,157.718,100.521,99.619,0.00104774,0.0614435,20.942,108.212,0.0816344,0.0,0.0
114,28.25,25.9957,26.0762,162.303,100.505,99.6607,0.001031,0.0626401,20.9423,108.202,0.0764097,0.0,0.0
117,29,25.3024,26.4564,156.853,100.502,99.5124,0.00100412,0.0642152,20.9416,108.182,0.0896065,0.0,0.0
120,29.75,25.7742,26.1481,157.979,100.507,99.4015,0.000946967,0.0659872,20.9412,108.162,0.100224,0.0,0.0
123,30.5,25.6834,26.1106,157.151,100.493,99.4367,0.000880245,0.0678333,20.9406,108.152,0.0957254,0.0,0.0
126,31.25,25.9295,26.0967,160.825,100.492,99.5266,0.00082224,0.0699328,20.9398,108.172,0.08747,0.0,0.0
129,32,25.855,26.267,162.446,100.485,99.2364,0.00078221,0.0717651,20.9367,108.192,0.113259,0.0,0.0
132,32.75,26.0815,26.1149,159.849,100.48,99.2966,0.000753027,0.0736167,20.9344,108.172,0.107326,0.0,0.0
135,33.5,25.9205,25.8399,161.228,100.475,99.263,0.000806844,0.0751988,20.9321,108.152,0.109944,0.0,0.0
138,34.25,25.9734,25.9826,159.77,100.489,99.3017,0.000902565,0.0767495,20.9301,108.102,0.1077,0.0,0.0
141,35,26.3511,26.1064,157.572,100.48,99.2458,0.00101826,0.0781739,20.9283,108.062,0.111991,0.0,0.0
144,35.75,25.8499,25.9517,157.001,100.473,98.9462,0.00113993,0.0793154,20.9257,108.011,0.13872,0.0,0.0
147,36.5,25.6731,26.0973,160.435,100.483,98.99,0.00126093,0.0801915,20.923,108.052,0.135626,0.0,0.0
150,37.25,26.0081,26.1175,165.145,100.501,99.0756,0.00136299,0.0808722,20.9205,108.031,0.129381,0.0,0.0
153,38,26.0795,26.4078,158.576,100.503,99.1568,0.00144262,0.0813054,20.9188,108.031,0.122176,0.0,0.0
156,38.75,25.9974,26.2102,157.92,100.512,98.8881,0.00149955,0.0816212,20.9169,108.031,0.147564,0.0,0.0
159,39.5,26.2293,26.053,159.222,100.505,98.7084,0.00153243,0.0815574,20.9155,108.011,0.16338,0.0,0.0
162,40.25,26.0383,26.2694,157.314,100.513,98.524,0.00154168,0.0812165,20.9144,108.021,0.181019,0.0,0.0
165,41,26.235,26.3536,163.559,100.52,98.6005,0.00155381,0.0807263,20.9137,107.991,0.174648,0.0,0.0
168,41.75,25.9446,26.317,157.686,100.525,99.0033,0.00158153,0.0801704,20.9132,107.981,0.138119,0.0,0.0
171,42.5,26.0919,26.2606,157.216,100.526,98.6418,0.00163246,0.0795344,20.9128,107.951,0.17137,0.0,0.0
174,43.25,26.1156,26.2569,162.168,100.536,98.3305,0.00167925,0.0789864,20.9131,107.941,0.200955,0.0,0.0
177,44,26.0698,25.8509,156.407,100.539,98.2123,0.00173106,0.0784427,20.9134,107.931,0.212073,0.0,0.0
180,44.75,25.9079,26.3608,159.431,100.551,98.1504,0.00178169,0.0779205,20.9136,107.901,0.218924,0.0,0.0
183,45.5,26.1379,25.9692,160.049,100.54,97.5214,0.00182767,0.0774162,20.9146,107.891,0.276094,0.0,0.0
186,46.25,26.3144,26.4071,158.811,100.553,98.0966,0.00187115,0.0768369,20.9153,107.851,0.223995,0.0,0.0
189,47,26.309,26.0369,161.721,100.551,97.8442,0.00191987,0.0762091,20.9165,107.821,0.247145,0.0,0.0
192,47.75,26.2255,26.1677,158.491,100.55,97.5072,0.00198598,0.0755865,20.9173,107.781,0.278366,0.0,0.0
195,48.5,26.5463,26.2727,161.512,100.539,97.5102,0.00205312,0.0750006,20.918,107.761,0.277094,0.0,0.0
198,49.25,26.4955,26.1551,161.583,100.55,97.7467,0.00211611,0.0745294,20.9184,107.721,0.256147,0.0,0.0
201,50,26.5081,26.3075,162.252,100.558,97.1052,0.00217227,0.0741671,20.919,107.691,0.316521,0.0,0.0
204,50.75,26.4243,26.5489,164.825,100.551,96.873,0.00222052,0.0739911,20.9198,107.601,0.337542,0.0,0.0
207,51.5,26.492,26.7169,143.791,100.547,100.496,0.0022682,0.0739621,20.9216,107.491,0.00458584,0.0,1.0
210,52.25,26.797,26.4414,144.158,100.546,100.657,0.00230297,0.0740467,20.9232,107.371,-0.0100072,0.0,1.0
213,53,26.9145,26.6835,147.512,100.558,100.483,0.00232831,0.0742698,20.9247,107.321,0.0068153,0.0,1.0
216,53.75,27.7961,27.3847,150.852,100.56,100.432,0.00235942,0.0745014,20.9258,107.221,0.0116134,0.0,1.0
219,54.5,28.376,27.0127,146.778,100.541,100.414,0.00240542,0.0748567,20.9267,107.011,0.0114376,0.0,1.0
222,55.25,28.9204,27.9327,149.033,100.545,100.401,0.00246964,0.0751776,20.9271,106.92,0.0130077,0.0,1.0
225,56,28.3922,26.7757,144.949,100.55,100.288,0.00256075,0.0755173,20.9273,106.79,0.0236556,0.0,1.0
228,56.75,29.0934,26.9655,150.399,100.553,100.219,0.0026917,0.075765,20.9273,106.76,0.0301669,0.0,0.0
231,57.5,29.6776,26.9654,144.466,100.535,100.022,0.00283265,0.0767544,20.9268,106.67,0.0463655,0.0,0.0
234,58.25,30.0054,27.6563,145.334,100.529,99.7987,0.00297996,0.080595,20.9259,106.53,0.0660434,0.0,0.0
237,59,30.4569,27.6935,141.159,100.536,99.9724,0.00314071,0.0881393,20.9247,106.48,0.0509161,0.0,0.0
240,59.75,31.1967,28.0927,144.194,100.537,99.9505,0.00328066,0.110432,20.9237,106.44,0.0529764,0.0,0.0
243,60.5,31.4454,28.5708,142.731,100.541,99.8391,0.00344075,0.142877,20.9229,106.34,0.0634413,0.0,0.0
246,61.25,31.6584,29.2978,150.338,100.528,99.8735,0.00353963,0.18198,20.9205,106.2,0.0591824,0.0,0.0
249,62,32.461,29.5559,141.772,100.545,99.9514,0.0035787,0.221689,20.9155,106.15,0.0536334,0.0,0.0
252,62.75,32.7853,29.7751,146.897,100.544,99.8482,0.00356368,0.258846,20.8934,106.11,0.062917,0.0,0.0
255,63.5,32.9946,29.7399,146.643,100.54,99.9591,0.00349477,0.291803,20.8659,105.96,0.0525277,0.0,0.0
258,64.25,33.3403,30.5918,147.876,100.537,100.059,0.0034285,0.318436,20.8265,105.859,0.0431636,0.0,0.0
261,65,33.7125,30.912,156.559,100.538,99.8619,0.00335278,0.338964,20.7812,105.809,0.0610799,0.0,0.0
264,65.75,34.0642,30.7964,146.045,100.538,99.8589,0.00327349,0.353929,20.7437,105.749,0.0613534,0.0,0.0
267,66.5,33.6203,31.5919,145.94,100.541,99.8946,0.00320541,0.364447,20.7087,105.669,0.0584475,0.0,0.0
270,67.25,34.4041,31.5917,147.482,100.534,99.9449,0.00313551,0.371447,20.6806,105.579,0.0531901,0.0,0.0
273,68,34.9292,31.9205,146.161,100.531,99.6091,0.00307524,0.375318,20.6557,105.539,0.0834524,0.0,0.0
276,68.75,35.2512,32.1332,144.098,100.532,99.693,0.00303016,0.377464,20.6343,105.439,0.0759418,0.0,0.0
279,69.5,35.3642,32.4277,148.392,100.535,99.9943,0.00299549,0.377875,20.6188,105.379,0.0488199,0.0,0.0
282,70.25,35.477,32.7355,146.013,100.522,99.5438,0.00296489,0.375708,20.6074,105.279,0.0885511,0.0,0.0
285,71,35.8365,32.8033,146.278,100.526,99.5304,0.00293346,0.372269,20.5991,105.219,0.0901688,0.0,0.0
288,71.75,35.8218,32.814,151.352,100.518,99.6844,0.00289067,0.367999,20.5937,105.149,0.0754363,0.0,0.0
291,72.5,35.8497,33.3761,144.913,100.521,99.5094,0.00283782,0.363225,20.5898,105.079,0.0916077,0.0,0.0
294,73.25,35.6766,33.1016,148.095,100.499,99.3138,0.00279929,0.359744,20.5883,105.019,0.107485,0.0,0.0
297,74,35.9244,33.9471,148.456,100.493,99.6396,0.0027712,0.35369,20.5878,104.959,0.0772213,0.0,0.0
300,74.75,36.7194,33.9751,147.787,100.505,99.5257,0.00274351,0.349276,20.5891,104.879,0.0887244,0.0,0.0
303,75.5,36.7366,33.5644,150.397,100.494,99.5666,0.00271999,0.343512,20.5907,104.869,0.0840162,0.0,0.0
306,76.25,36.3488,34.2294,150.913,100.494,99.5253,0.00269715,0.337924,20.5952,104.778,0.0877342,0.0,0.0
309,77,36.6993,34.21,151.765,100.478,99.5016,0.00267148,0.33279,20.6002,104.678,0.0884528,0.0,0.0
312,77.75,36.4126,34.1682,146.88,100.492,99.8254,0.00265782,0.328243,20.6063,104.638,0.0602798,0.0,0.0
315,78.5,36.7431,34.5415,147.238,100.488,99.582,0.00266901,0.323923,20.6135,104.568,0.0820197,0.0,0.0
318,79.25,36.9977,34.6431,148.77,100.492,99.6216,0.00268525,0.320003,20.6213,104.478,0.0787532,0.0,0.0
321,80,36.9963,34.8948,148.16,100.475,99.834,0.00273683,0.316816,20.6279,104.378,0.0579915,0.0,0.0
324,80.75,37.4548,35.0516,149.91,100.486,99.8189,0.00278843,0.313135,20.6331,104.278,0.0603506,0.0,0.0
327,81.5,37.1923,35.1107,151.401,100.488,99.9032,0.00285,0.310084,20.6382,104.248,0.0528905,0.0,0.0
330,82.25,37.3646,34.9461,150.335,100.487,99.9165,0.00290629,0.30723,20.6426,104.178,0.0515722,0.0,0.0
333,83,37.9986,35.3438,153.169,100.494,99.874,0.00295553,0.304319,20.647,104.148,0.0560193,0.0,0.0
336,83.75,37.4065,35.4427,150.439,100.49,100.186,0.00299713,0.301551,20.6515,104.098,0.027462,0.0,0.0
339,84.5,37.3392,35.1736,152.566,100.501,99.9655,0.00303289,0.299256,20.6557,103.978,0.0484161,0.0,0.0
342,85.25,37.8524,35.7134,150.774,100.504,100.003,0.00306276,0.296522,20.6594,103.958,0.0452858,0.0,0.0
345,86,37.9748,35.7834,153.31,100.5,100.17,0.00308615,0.293852,20.6624,103.888,0.0297827,0.0,0.0
348,86.75,37.9691,36.3373,150.446,100.504,100.064,0.00311226,0.291617,20.6656,103.808,0.0397584,0.0,0.0
351,87.5,37.4262,35.9199,149.594,100.519,100.003,0.00313129,0.288743,20.6682,103.767,0.0466072,0.0,0.0
354,88.25,37.969,36.0032,154.084,100.526,100.104,0.00316507,0.286181,20.6711,103.687,0.0380843,0.0,0.0
357,89,37.7725,36.1208,147.428,100.523,100.163,0.00318208,0.283516,20.6742,103.667,0.0324998,0.0,0.0
360,89.75,37.7365,36.548,149.593,100.518,100.151,0.00317922,0.280755,20.6777,103.607,0.0331852,0.0,0.0
363,90.5,37.5298,35.8687,152.143,100.531,100.17,0.00315658,0.278493,20.6809,103.547,0.0325375,0.0,0.0
366,91.25,38.0544,36.77,151.221,100.55,100.072,0.00308765,0.276418,20.6837,103.497,0.0431324,0.0,0.0
369,92,37.534,36.1377,148.143,100.551,100.152,0.00301875,0.27423,20.6871,103.437,0.0360465,0.0,0.0
372,92.75,38.134,36.6438,152.074,100.53,100.234,0.0029366,0.272064,20.6903,103.397,0.0267105,0.0,0.0
375,93.5,38.1853,37.0153,150.773,100.554,100.248,0.00284063,0.270242,20.6931,103.377,0.0276342,0.0,0.0
378,94.25,37.7132,36.5186,150.808,100.562,100.349,0.00277066,0.268056,20.6953,103.287,0.019171,0.0,0.0
381,95,38.2665,36.9343,149.769,100.562,100.408,0.00271605,0.266462,20.6978,103.247,0.0138174,0.0,0.0
384,95.75,37.5456,37.2797,152.719,100.571,100.337,0.00269907,0.265049,20.7001,103.157,0.0211427,0.0,0.0
387,96.5,38.0185,36.9476,150.236,100.58,100.227,0.00269643,0.264019,20.7021,103.107,0.0318542,0.0,0.0
390,97.25,37.4155,37.2908,152.527,100.588,100.269,0.00270183,0.262851,20.7038,102.987,0.0287806,0.0,0.0
393,98,38.3228,37.4429,149.377,100.591,100.42,0.0027183,0.261676,20.7052,102.937,0.0153385,0.0,0.0
396,98.75,38.0427,37.4735,149.357,100.594,100.334,0.00271406,0.260264,20.7072,102.867,0.0234316,0.0,0.0
399,99.5,38.3097,37.0512,150.33,100.609,100.503,0.00269072,0.258544,20.7092,102.777,0.00958788,0.0,0.0
402,100.25,38.4726,37.1782,153.377,100.627,100.577,0.00266508,0.256821,20.7111,102.767,0.00453835,0.0,0.0
405,101,38.2791,37.5373,155.168,100.643,100.452,0.00261752,0.255365,20.7129,102.686,0.0172065,0.0,0.0
408,101.75,38.7284,37.1006,150.066,100.643,100.395,0.00258619,0.253775,20.7144,102.646,0.0223244,0.0,0.0
411,102.5,38.4929,37.4823,155.392,100.656,100.394,0.00256903,0.252548,20.7168,102.576,0.0235792,0.0,0.0
414,103.25,38.0664,37.3605,150.117,100.671,100.48,0.00259621,0.251538,20.7185,102.496,0.0171817,0.0,0.0
417,104,38.4148,37.8518,155.735,100.691,100.535,0.00264261,0.250411,20.72,102.486,0.0139834,0.0,0.0
420,104.75,38.0027,37.1179,149.127,100.697,100.634,0.00268777,0.249267,20.7215,102.416,0.00562942,0.0,0.0
423,105.5,38.7186,37.1164,150.439,100.711,100.503,0.00273334,0.248296,20.7231,102.376,0.0187605,0.0,0.0
426,106.25,38.3196,38.0733,152.808,100.73,100.688,0.00275256,0.247085,20.7246,102.336,0.00376449,0.0,0.0
429,107,38.5517,37.6794,152.699,100.741,100.512,0.00275328,0.24591,20.7261,102.266,0.0206622,0.0,0.0
432,107.75,37.9926,37.9581,148.772,100.766,100.702,0.00274127,0.24493,20.727,102.226,0.00578697,0.0,0.0
435,108.5,38.1,37.8507,151.454,100.767,100.813,0.00273252,0.243437,20.7277,102.186,-0.0041085,0.0,0.0
438,109.25,38.0515,38.2151,152.203,100.785,100.806,0.00272975,0.242148,20.7281,102.136,-0.00195465,0.0,0.0
441,110,38.2452,38.2047,151.698,100.802,100.806,0.00273912,0.240861,20.7297,102.076,-0.000378478,0.0,0.0
444,110.75,37.9832,38.4156,151.923,100.812,100.672,0.00275081,0.239719,20.7309,101.986,0.0125257,0.0,0.0
447,111.5,38.4208,38.3083,150.797,100.819,100.861,0.00279004,0.238646,20.732,101.956,-0.00374445,0.0,0.0
450,112.25,38.208,38.1119,150.183,100.867,100.882,0.00284936,0.23761,20.7332,101.926,-0.00135039,0.0,0.0
453,113,38.003,38.4804,148.751,100.883,100.694,0.00290275,0.236596,20.7347,101.876,0.0170017,0.0,0.0
456,113.75,37.728,38.4877,155.308,100.896,100.951,0.002946,0.235266,20.7361,101.756,-0.00492524,0.0,0.0
459,114.5,38.8825,38.5268,153.87,100.899,101.011,0.00296667,0.234296,20.7375,101.716,-0.0099926,0.0,0.0
462,115.25,38.2147,38.1501,153.206,100.941,101.049,0.00298174,0.232884,20.7385,101.655,-0.0096148,0.0,0.0
465,116,38.0747,37.9531,154.23,100.966,100.992,0.00297466,0.231856,20.7397,101.655,-0.00233213,0.0,0.0
468,116.75,38.6539,38.3537,151.108,100.981,101.184,0.00296949,0.230549,20.7414,101.605,-0.0181973,0.0,0.0
471,117.5,38.1471,38.1186,150.367,100.986,101.113,0.00296391,0.229267,20.7432,101.565,-0.0114056,0.0,0.0
474,118.25,38.1915,38.2666,149.695,101.017,101.141,0.00297379,0.228176,20.7446,101.525,-0.0111677,0.0,0.0
477,119,38.2716,38.3587,154.819,101.041,101.135,0.00298693,0.22738,20.7456,101.435,-0.00847069,0.0,0.0
480,119.75,38.33,38.5627,154.441,101.046,101.198,0.00303076,0.225985,20.7469,101.405,-0.0136141,0.0,0.0
483,120.5,38.2398,38.6331,150.748,101.074,101.212,0.0030773,0.224715,20.7487,101.335,-0.0123246,0.0,0.0
486,121.25,38.2008,38.7277,153.904,101.098,101.175,0.00314925,0.223556,20.7508,101.295,-0.00693444,0.0,0.0
489,122,37.8256,38.4577,152.674,101.118,101.266,0.0032271,0.222497,20.7522,101.245,-0.0132259,0.0,0.0
492,122.75,38.0809,38.4517,156.306,101.134,101.269,0.00329468,0.221319,20.7533,101.205,-0.0120694,0.0,0.0
495,123.5,38.3416,38.4752,154.909,101.164,101.414,0.00337839,0.220369,20.755,101.195,-0.0224288,0.0,0.0
498,124.25,38.1502,38.4234,153.334,101.164,101.288,0.00343814,0.21952,20.7566,101.165,-0.0110931,0.0,0.0
501,125,37.7782,38.4598,148.713,101.199,101.309,0.00347715,0.218774,20.7577,101.085,-0.00983964,0.0,0.0
504,125.75,37.9515,37.9905,155.869,101.23,101.386,0.00349872,0.218077,20.7599,101.045,-0.0139056,0.0,0.0
507,126.5,37.8698,38.2151,152.2,101.228,101.374,0.003509,0.217399,20.7614,100.985,-0.0130512,0.0,0.0
510,127.25,37.8052,38.5062,150.621,101.254,101.432,0.00351851,0.216409,20.7626,100.935,-0.0158984,0.0,0.0
513,128,37.7121,38.2316,151.965,101.278,101.358,0.00352887,0.215372,20.7634,100.895,-0.0071403,0.0,0.0
516,128.75,37.7954,38.3854,154.038,101.282,101.6,0.00355093,0.214482,20.764,100.845,-0.0283833,0.0,0.0
519,129.5,37.8496,38.5506,154.891,101.298,101.518,0.00356701,0.213533,20.7644,100.805,-0.0196359,0.0,0.0
522,130.25,37.7804,38.597,152.607,101.312,101.533,0.00358236,0.212715,20.7647,100.745,-0.019703,0.0,0.0
525,131,37.7627,38.1531,154.071,101.331,101.455,0.00358592,0.211781,20.7654,100.685,-0.0110785,0.0,0.0
528,131.75,37.5868,38.3825,154.263,101.345,101.447,0.00358526,0.210719,20.7668,100.645,-0.0090738,0.0,0.0
531,132.5,37.7689,38.4325,154.49,101.352,101.559,0.00358479,0.20982,20.7677,100.584,-0.0184694,0.0,0.0
534,133.25,37.6101,38.3338,152.566,101.357,101.468,0.00358262,0.209044,20.7684,100.534,-0.00986072,0.0,0.0
537,134,37.569,38.4983,148.251,101.381,101.561,0.00357215,0.208366,20.7694,100.504,-0.0160714,0.0,0.0
540,134.75,37.7394,38.5065,148.566,101.381,101.521,0.00355604,0.207535,20.7709,100.444,-0.0125052,0.0,0.0
543,135.5,37.5265,38.4618,152.646,101.403,101.53,0.00353629,0.206748,20.772,100.404,-0.0113066,0.0,0.0
546,136.25,37.3261,38.2496,153.126,101.392,101.488,0.00352524,0.205864,20.7729,100.364,-0.00860579,0.0,0.0
549,137,37.5079,38.3187,150.036,101.406,101.538,0.0035229,0.205071,20.7741,100.284,-0.011817,0.0,0.0
552,137.75,37.3837,38.2877,154.34,101.42,101.516,0.0035327,0.204239,20.7752,100.274,-0.00854688,0.0,0.0
555,138.5,37.4675,38.5679,154.075,101.414,101.608,0.00354475,0.203713,20.7764,100.184,-0.0172636,0.0,0.0
558,139.25,37.2848,38.3179,155.082,101.407,101.58,0.00357348,0.203364,20.7775,100.184,-0.0153521,0.0,0.0
561,140,37.4935,38.3403,151.342,101.407,101.445,0.0036046,0.20302,20.7783,100.124,-0.00338311,0.0,0.0
564,140.75,37.3017,37.9911,152.156,101.416,101.503,0.00363498,0.20244,20.779,100.064,-0.00776224,0.0,0.0
567,141.5,37.288,38.1515,154.449,101.414,101.584,0.00366284,0.201877,20.7796,100.044,-0.0151547,0.0,0.0
570,142.25,37.3838,38.3298,154.83,101.406,101.543,0.00368182,0.201076,20.7805,100.024,-0.012203,0.0,0.0
573,143,37.2691,38.4418,154.546,101.407,101.511,0.00369336,0.200326,20.7803,99.9739,-0.0092889,0.0,0.0
576,143.75,36.9956,38.4027,154.548,101.407,101.571,0.00369508,0.199467,20.7802,99.9039,-0.0146967,0.0,0.0
579,144.5,37.1285,38.2728,154.805,101.398,101.577,0.00368489,0.198692,20.78,99.8538,-0.01596,0.0,0.0
582,145.25,37.0056,38.096,153.941,101.392,101.599,0.00366839,0.197875,20.7802,99.8138,-0.018425,0.0,0.0
585,146,37.0953,37.989,153.625,101.377,101.563,0.00366272,0.197124,20.781,99.7337,-0.0165896,0.0,0.0
588,146.75,37.1322,38.3351,158.5,101.374,101.522,0.00367,0.196451,20.7819,99.7137,-0.0131642,0.0,0.0
591,147.5,37.3723,38.2462,152.641,101.366,101.528,0.00369019,0.195907,20.7826,99.6436,-0.0144669,0.0,0.0
594,148.25,37.0644,38.1427,149.671,101.351,101.568,0.00374048,0.195042,20.7833,99.6236,-0.0193453,0.0,0.0
597,149,36.8824,38.1501,150.818,101.333,101.571,0.0037923,0.19413,20.7843,99.5435,-0.0212549,0.0,0.0
600,149.75,36.7457,38.1787,153.746,101.321,101.466,0.00387187,0.193346,20.7848,99.5535,-0.0129534,0.0,0.0
603,150.5,36.8481,38.0467,156.285,101.321,101.392,0.00392987,0.192376,20.7851,99.5435,-0.00634552,0.0,0.0
606,151.25,36.9066,37.8199,157.466,101.297,101.412,0.00398307,0.191578,20.7858,99.4534,-0.0103018,0.0,0.0
609,152,36.9055,37.8249,149.558,101.283,101.343,0.0040193,0.190842,20.7867,99.3333,-0.00535956,0.0,0.0
612,152.75,36.9033,38.0689,155.062,101.269,101.391,0.00404127,0.190506,20.7878,99.3333,-0.0109385,0.0,0.0
615,153.5,36.6478,37.9909,149.949,101.246,101.358,0.00405155,0.190431,20.7886,99.3233,-0.0100234,0.0,0.0
618,154.25,36.7637,38.2882,151.299,101.231,101.36,0.00404814,0.190434,20.7891,99.2532,-0.0115299,0.0,0.0
621,155,36.7528,37.7054,150.626,101.21,101.352,0.0040293,0.190408,20.7895,99.2332,-0.0126976,0.0,0.0
624,155.75,36.5768,37.9755,155.096,101.191,101.272,0.00401222,0.190122,20.7901,99.1431,-0.00718785,0.0,0.0
627,156.5,36.4463,38.3841,153.457,101.189,101.27,0.00399403,0.189832,20.7909,99.1331,-0.00721703,0.0,0.0
630,157.25,36.586,38.2579,156.75,101.17,101.334,0.00399949,0.189586,20.7913,99.0831,-0.0147367,0.0,0.0
633,158,37.0156,37.9919,153.225,101.144,101.256,0.00402473,0.189196,20.7911,99.013,-0.0100034,0.0,0.0
636,158.75,36.0093,38.0184,155.711,101.132,101.247,0.00408648,0.188729,20.791,99.013,-0.0102526,0.0,0.0
639,159.5,36.5882,37.9854,153.311,101.123,101.204,0.00416342,0.18799,20.7909,98.993,-0.00724729,0.0,0.0
642,160.25,36.4149,38.3827,149.686,101.107,101.296,0.00424248,0.187064,20.7915,98.8929,-0.0169379,0.0,0.0
645,161,36.6066,37.9256,156.526,101.078,101.237,0.0043165,0.18615,20.7923,98.8829,-0.0141905,0.0,0.0
648,161.75,36.334,37.5798,151.493,101.068,101.249,0.00437558,0.185359,20.7934,98.8429,-0.016218,0.0,0.0
651,162.5,36.774,37.7595,152.693,101.062,101.186,0.00442149,0.184782,20.7946,98.7828,-0.0111104,0.0,0.0
654,163.25,36.446,38.2231,155.893,101.041,101.199,0.00445612,0.184296,20.7954,98.7828,-0.01413,0.0,0.0
657,164,36.1983,37.5598,151.242,101.039,101.099,0.00448337,0.18383,20.7961,98.7327,-0.00534336,0.0,0.0
660,164.75,36.1252,37.7993,151.065,101.017,101.137,0.00450669,0.18349,20.7967,98.6727,-0.0107461,0.0,0.0
663,165.5,36.0003,37.9299,151.932,101.02,101.138,0.00454589,0.182779,20.7976,98.6126,-0.0105645,0.0,0.0
666,166.25,36.3251,37.3351,151.819,101.009,101.136,0.00461242,0.182307,20.7985,98.5526,-0.0113618,0.0,0.0
669,167,36.3981,37.7039,150.447,100.988,101.147,0.00470107,0.181983,20.7992,98.5025,-0.014303,0.0,0.0
672,167.75,36.3164,37.6103,154.538,100.972,101.116,0.00478618,0.181768,20.7997,98.4825,-0.0128826,0.0,0.0
675,168.5,36.1041,37.4673,158.331,100.973,101.133,0.00485696,0.181488,20.8,98.4225,-0.0143857,0.0,0.0
678,169.25,36.1525,37.2423,155.311,100.966,101.012,0.00493413,0.181231,20.8003,98.3924,-0.00406745,0.0,0.0
681,170,36.2058,37.8393,157.366,100.95,101.111,0.0049924,0.18089,20.8005,98.3524,-0.0144328,0.0,0.0
684,170.75,36.2094,37.6776,150.502,100.926,101.021,0.00503835,0.180592,20.8012,98.2523,-0.00857715,0.0,0.0
687,171.5,35.961,37.7315,154.276,100.935,101.033,0.0050624,0.180291,20.8018,98.2623,-0.0087744,0.0,0.0
690,172.25,36.022,37.552,152.224,100.913,100.976,0.0050638,0.179933,20.8022,98.2223,-0.00569937,0.0,0.0
693,173,35.8378,37.8426,153.525,100.911,100.981,0.00504291,0.179612,20.8025,98.1922,-0.00626826,0.0,0.0
696,173.75,35.8418,37.3315,153.167,100.896,101.066,0.00501999,0.179246,20.803,98.1722,-0.0152207,0.0,0.0
699,174.5,36.0152,37.4761,154.467,100.898,100.88,0.00499732,0.178949,20.8037,98.0821,0.00162712,0.0,0.0
702,175.25,35.9297,37.1594,154.179,100.9,100.991,0.00497619,0.178727,20.8042,98.0221,-0.00814429,0.0,0.0
705,176,36.1445,37.4446,150.743,100.894,101.004,0.00495166,0.178579,20.8046,97.982,-0.00985369,0.0,0.0
708,176.75,36.9443,37.4806,151.114,100.868,100.973,0.00493849,0.178427,20.8049,97.882,-0.00941915,0.0,0.0
711,177.5,35.3586,37.6633,154.432,100.868,101.001,0.00493695,0.178177,20.8051,97.892,-0.0119251,0.0,0.0
714,178.25,35.9925,37.5496,151.677,100.881,100.949,0.00496527,0.177936,20.8053,97.8619,-0.00605053,0.0,0.0
717,179,35.9993,37.2888,153.974,100.87,101,0.00499847,0.177297,20.8054,97.8119,-0.0117402,0.0,0.0
720,179.75,35.6871,36.6812,155.094,100.857,100.95,0.00506653,0.176407,20.8054,97.7819,-0.00836207,0.0,0.0
723,180.5,35.6658,36.5186,151.342,100.854,100.963,0.00513437,0.17537,20.8057,97.7418,-0.00973857,0.0,0.0
726,181.25,35.5658,36.9808,148.242,100.859,100.897,0.00521499,0.174275,20.8064,97.6618,-0.00343226,0.0,0.0
729,182,35.6087,37.1303,150.504,100.863,100.892,0.00528186,0.173614,20.8067,97.6618,-0.00264374,0.0,0.0
732,182.75,35.7846,37.279,154.651,100.838,100.904,0.00537324,0.172654,20.8073,97.5917,-0.00591817,0.0,0.0
735,183.5,35.5857,37.5401,155.207,100.838,100.872,0.00544587,0.171892,20.8081,97.5917,-0.00306176,0.0,0.0
738,184.25,35.5531,37.1981,160.163,100.851,100.925,0.00551714,0.17131,20.8092,97.5216,-0.00663619,0.0,0.0
741,185,35.546,37.0737,156.746,100.831,100.929,0.0055691,0.171127,20.8101,97.4415,-0.00878088,0.0,0.0
744,185.75,35.4845,36.9507,155.662,100.843,100.816,0.0056253,0.170986,20.8113,97.4315,0.002399,0.0,0.0
747,186.5,35.3742,37.0916,154.82,100.825,100.803,0.00566885,0.170869,20.8123,97.4015,0.00202116,0.0,0.0
750,187.25,35.4858,37.0497,155.699,100.835,100.92,0.00569492,0.170279,20.8131,97.3515,-0.00764336,0.0,0.0
753,188,35.1758,37.4839,154.403,100.818,100.886,0.00570237,0.16985,20.8136,97.3014,-0.00605539,0.0,0.0
756,188.75,35.2841,36.8212,155.721,100.816,100.688,0.00569225,0.168923,20.814,97.2914,0.0114969,0.0,0.0
759,189.5,35.0636,37.0474,154.963,100.795,100.733,0.00565829,0.168118,20.8146,97.2313,0.00553337,0.0,0.0
762,190.25,35.0371,36.9203,159.861,100.801,100.777,0.00562968,0.167311,20.8152,97.1813,0.00214099,0.0,0.0
765,191,35.2629,36.5476,152.692,100.804,100.742,0.00560718,0.166324,20.8161,97.1413,0.00560244,0.0,0.0
768,191.75,34.6608,36.6244,156.169,100.795,100.728,0.00562924,0.165434,20.8172,97.1112,0.00603192,0.0,0.0
771,192.5,35.0372,36.8347,155.44,100.785,100.702,0.00564532,0.164283,20.8182,97.0612,0.00747346,0.0,0.0
774,193.25,34.978,36.3667,155.453,100.781,100.694,0.00571139,0.163695,20.8191,97.0512,0.0078036,0.0,0.0
777,194,34.9356,36.6069,153.853,100.79,100.841,0.00583277,0.162579,20.8205,97.0011,-0.00464434,0.0,0.0
780,194.75,34.9643,36.2763,154.344,100.78,100.814,0.00595877,0.161521,20.8218,96.9611,-0.00301477,0.0,0.0
783,195.5,34.7813,36.6349,153.576,100.765,100.81,0.00608193,0.160404,20.8228,96.9311,-0.00402153,0.0,0.0
786,196.25,34.8415,36.1342,155.904,100.765,100.779,0.00619931,0.158929,20.824,96.911,-0.00127804,0.0,0.0
789,197,34.8077,36.6236,156.855,100.758,100.489,0.00631326,0.157428,20.8251,96.821,0.0242199,0.0,0.0
792,197.75,34.6896,36.3057,161.637,100.773,100.641,0.00644106,0.155965,20.8258,96.8009,0.0118679,0.0,0.0
795,198.5,34.368,36.3997,156.163,100.746,100.387,0.00659003,0.154754,20.827,96.7709,0.0323094,0.0,0.0
798,199.25,34.5709,36.2834,150.651,100.739,100.61,0.00681514,0.153624,20.8281,96.7309,0.0115724,0.0,0.0
801,200,34.814,36.3998,154.448,100.736,100.614,0.00702892,0.152421,20.8294,96.6808,0.0109296,0.0,0.0
804,200.75,34.509,36.4141,153.826,100.738,100.568,0.00732549,0.151381,20.8311,96.6508,0.0153321,0.0,0.0
807,201.5,34.5647,36.3164,160.107,100.734,100.346,0.00757523,0.150732,20.8328,96.5907,0.0348934,0.0,0.0
810,202.25,33.993,36.1592,155.169,100.706,100.362,0.00781466,0.150547,20.834,96.5507,0.0309267,0.0,0.0
813,203,34.2219,36.126,154.541,100.73,100.297,0.00801521,0.150536,20.8354,96.4906,0.0390639,0.0,0.0
816,203.75,34.3084,36.2545,157.452,100.702,100.217,0.00814188,0.150528,20.8365,96.4206,0.0436826,0.0,0.0
819,204.5,34.3718,36.1433,155.415,100.691,100.151,0.0082163,0.150202,20.8374,96.3805,0.0487544,0.0,0.0
822,205.25,34.2022,36.0673,158.087,100.668,100.155,0.00824284,0.149941,20.8378,96.3305,0.0462731,0.0,0.0
825,206,34.0363,35.5736,153.522,100.678,100.563,0.0082735,0.148988,20.8383,96.2704,0.0103677,0.0,0.0
828,206.75,33.0486,36.0503,155.93,100.681,100.596,0.00832742,0.148078,20.8387,96.2604,0.00764069,0.0,0.0
831,207.5,34.0584,35.7161,154.471,100.665,100.44,0.00841753,0.147046,20.839,96.2304,0.0202754,0.0,0.0
834,208.25,33.7369,35.9232,154.553,100.653,100.247,0.00853166,0.145883,20.8392,96.2204,0.0365982,0.0,0.0
837,209,33.9035,35.5886,158.439,100.655,99.9741,0.00866065,0.144565,20.8399,96.1303,0.0615207,0.0,0.0
840,209.75,33.5553,35.6637,158.092,100.623,100.308,0.00881801,0.143182,20.841,96.1103,0.028406,0.0,0.0
843,210.5,33.4546,35.6189,164.552,100.633,100.197,0.00898112,0.141792,20.8419,96.0202,0.0393466,0.0,0.0
846,211.25,33.7716,35.743,158.508,100.609,100.267,0.00912064,0.140778,20.843,96.0102,0.030847,0.0,0.0
849,212,33.6979,35.6033,152.29,100.591,100.21,0.009301,0.139113,20.844,95.9702,0.0344352,0.0,0.0
852,212.75,33.5215,35.4857,156.682,100.587,100.19,0.00956698,0.1379,20.8456,95.9301,0.0358948,0.0,0.0
855,213.5,33.4889,35.6444,156.521,100.571,100.116,0.00981762,0.137101,20.8467,95.8801,0.041072,0.0,0.0
858,214.25,33.4782,35.8174,158.6,100.557,100.116,0.0100974,0.136655,20.8482,95.8801,0.0398283,0.0,0.0
861,215,33.2397,34.95,156.904,100.538,99.8065,0.0103164,0.136387,20.8497,95.83,0.0661495,0.0,0.0
864,215.75,33.1167,34.752,157.033,100.537,100.227,0.010458,0.135912,20.8512,95.79,0.0280347,0.0,0.0
867,216.5,33.2851,35.2153,157.119,100.515,99.9191,0.0105145,0.135249,20.8528,95.78,0.0538738,0.0,0.0
870,217.25,33.4983,35.9848,156.401,100.495,99.2282,0.0105285,0.134599,20.8539,95.7199,0.114923,0.0,0.0
873,218,33.2936,35.2042,161.289,100.48,99.1044,0.010518,0.134071,20.8547,95.6799,0.12491,0.0,0.0
876,218.75,32.9871,35.1136,157.8,100.479,98.9969,0.0105183,0.133922,20.8555,95.5998,0.134628,0.0,0.0
879,219.5,32.77,35.3546,158.095,100.456,99.0592,0.0105219,0.133995,20.8565,95.5898,0.126867,0.0,0.0
882,220.25,32.771,34.8558,154.377,100.454,99.2527,0.0105863,0.134125,20.8572,95.5798,0.108937,0.0,0.0
885,221,31.3388,33.2354,152.623,100.438,99.1629,0.0106915,0.134177,20.8578,95.5297,0.115743,0.0,0.0
888,221.75,30.8449,33.1911,154.543,100.429,99.3692,0.0108228,0.134136,20.8582,95.4897,0.0960663,0.0,0.0
891,222.5,30.7445,33.2309,154.073,100.42,99.1775,0.0109505,0.13397,20.8582,95.4296,0.112752,0.0,0.0
894,223.25,30.6984,32.775,157.336,100.399,99.1822,0.0110982,0.133291,20.8578,95.4096,0.110444,0.0,0.0
897,224,30.7025,33.1451,159.337,100.389,99.0893,0.0112718,0.132131,20.8576,95.3796,0.118009,0.0,0.0
900,224.75,30.7044,32.5429,156.358,100.407,99.067,0.0114341,0.130554,20.8574,95.3296,0.121746,0.0,0.0
903,225.5,30.5975,32.7347,159.355,100.373,99.1117,0.0115956,0.128013,20.8572,95.3095,0.114531,0.0,0.0
906,226.25,30.5215,32.4207,161.008,100.366,99.107,0.0117609,0.125711,20.8578,95.2895,0.114374,0.0,0.0
909,227,29.9734,32.5896,155.469,100.332,98.8494,0.0119956,0.123265,20.8589,95.2695,0.13485,0.0,0.0
912,227.75,30.385,32.1789,153.697,100.333,99.0296,0.0122713,0.121063,20.8609,95.2395,0.118469,0.0,0.0
915,228.5,30.4299,32.2885,162.74,100.32,99.2239,0.0125682,0.119177,20.8632,95.1694,0.0994952,0.0,0.0
918,229.25,30.6352,32.0821,155.346,100.309,98.953,0.01291,0.117627,20.8658,95.1294,0.123261,0.0,0.0
921,230,30.1417,32.4667,156.347,100.289,99.018,0.0132676,0.116263,20.8687,95.0993,0.115516,0.0,0.0
924,230.75,30.0928,32.2202,162.125,100.271,99.2639,0.0136222,0.11503,20.8712,95.0493,0.0914634,0.0,0.0
927,231.5,30.0708,32.1818,154.137,100.267,99.0558,0.0139898,0.114029,20.874,95.0093,0.110067,0.0,0.0
930,232.25,29.9711,32.0929,157.227,100.255,98.9922,0.0143128,0.113108,20.8764,94.9692,0.114855,0.0,0.0
933,233,29.5477,32.1166,158.184,100.224,98.9728,0.0145717,0.112398,20.8781,94.9092,0.113751,0.0,0.0
936,233.75,30.0697,31.704,154.283,100.207,99.26,0.0147676,0.111812,20.8794,94.8791,0.085993,0.0,0.0
939,234.5,29.7711,31.988,159.774,100.216,98.9702,0.0149225,0.111386,20.8805,94.8591,0.113324,0.0,0.0
942,235.25,29.5531,31.8384,159.716,100.195,99.1555,0.0150269,0.111309,20.8818,94.8391,0.0944261,0.0,0.0
945,236,29.493,30.9244,160.429,100.182,99.1439,0.0150885,0.111331,20.8829,94.779,0.0943812,0.0,0.0
948,236.75,29.6558,31.4809,153.905,100.146,99.1719,0.015166,0.111529,20.8836,94.759,0.0885822,0.0,0.0
951,237.5,29.5816,31.6767,153.062,100.135,99.0115,0.0152669,0.111754,20.884,94.699,0.102245,0.0,0.0
954,238.25,29.4013,31.6611,157.035,100.112,99.0188,0.015382,0.111918,20.8838,94.6489,0.0994365,0.0,0.0
957,239,29.3694,31.3322,161.308,100.092,98.9315,0.0155048,0.111948,20.8837,94.5989,0.105616,0.0,0.0
960,239.75,29.3672,31.2334,158.638,100.082,98.8847,0.0156173,0.111931,20.8836,94.5688,0.109021,0.0,0.0
963,240.5,28.8836,31.14,158.812,100.075,98.9788,0.0156994,0.111749,20.8836,94.5488,0.0997729,0.0,0.0
966,241.25,28.8303,30.9691,156.607,100.056,98.9909,0.0157342,0.111616,20.8835,94.4988,0.0969733,0.0,0.0
969,242,29.2542,31.2398,158.975,100.025,98.9393,0.0157447,0.11137,20.8835,94.4888,0.0988149,0.0,0.0
972,242.75,28.8932,31.1828,155.82,100.011,98.8847,0.0157269,0.111132,20.8835,94.3987,0.102597,0.0,0.0
975,243.5,29.0263,31.1919,158.459,100.003,98.9019,0.0156951,0.110932,20.8835,94.3586,0.100246,0.0,0.0
978,244.25,29.2077,30.5551,158.043,99.9891,98.9475,0.0156653,0.110935,20.8835,94.3186,0.0948535,0.0,0.0
981,245,29.2061,30.7844,154.448,99.963,98.6839,0.0156459,0.111013,20.8835,94.2686,0.116648,0.0,0.0
984,245.75,28.565,30.8025,157.776,99.9515,98.7617,0.0156453,0.111116,20.8834,94.2485,0.108473,0.0,0.0
987,246.5,29.0907,30.8472,156.456,99.9434,99.0459,0.0156543,0.111219,20.8834,94.2385,0.0817061,0.0,0.0
990,247.25,29.0664,31.0841,159.709,99.9234,98.907,0.0156648,0.111368,20.8834,94.2285,0.0926039,0.0,0.0
993,248,29.062,30.79,153.941,99.9079,98.6852,0.0156887,0.111509,20.8834,94.1384,0.11154,0.0,0.0
996,248.75,28.9572,30.8845,157.949,99.8847,98.8241,0.0157122,0.111462,20.8834,94.1284,0.0966944,0.0,0.0
999,249.5,29.2932,30.7808,156.045,99.8789,98.9088,0.0157282,0.111309,20.8834,94.0884,0.0884153,0.0,0.0
1002,250.25,28.677,30.745,159.767,99.8626,98.7918,0.0157149,0.111139,20.8834,94.0383,0.0976516,0.0,0.0
1005,251,28.7507,30.9322,157.046,99.8533,98.9247,0.015693,0.111001,20.8834,94.0484,0.0846292,0.0,0.0
1008,251.75,28.8567,31.0803,158.11,99.8284,98.8082,0.0156649,0.110922,20.8834,94.0083,0.0930464,0.0,0.0
1011,252.5,29.0089,30.7221,156.88,99.8267,98.5648,0.0156322,0.110864,20.8834,93.9683,0.115234,0.0,0.0
1014,253.25,28.6174,30.7751,150.714,99.8149,98.7432,0.0155931,0.110822,20.8834,93.9583,0.0977787,0.0,0.0
1017,254,28.7334,30.4862,157.925,99.799,98.7682,0.0155645,0.110702,20.8834,93.9182,0.0940478,0.0,0.0
1020,254.75,28.6847,30.4512,158.839,99.7917,98.5945,0.0155322,0.110576,20.8834,93.8882,0.109325,0.0,0.0
1023,255.5,28.521,30.5339,159.506,99.7631,98.7192,0.0155019,0.110315,20.8837,93.8482,0.0952863,0.0,0.0
1026,256.25,28.7336,30.5318,162.703,99.7827,98.7794,0.015477,0.110124,20.8842,93.8181,0.0915425,0.0,0.0
1029,257,28.4817,30.5099,156.773,99.7692,98.5691,0.0154549,0.109985,20.8847,93.7881,0.10962,0.0,0.0
1032,257.75,28.6482,30.3559,158.287,99.7529,98.674,0.0154389,0.109938,20.885,93.7481,0.098504,0.0,0.0
1035,258.5,28.983,30.4154,163.162,99.7387,98.5111,0.0154771,0.110053,20.8856,93.718,0.112177,0.0,0.0
1038,259.25,28.5587,30.5111,155.845,99.748,98.5347,0.0155467,0.110231,20.8863,93.678,0.110855,0.0,0.0
1041,260,28.1405,30.4048,160.289,99.7452,98.5313,0.01564,0.110424,20.8868,93.658,0.110912,0.0,0.0
1044,260.75,28.4064,29.9935,151.841,99.7329,98.5945,0.0157505,0.11055,20.8872,93.618,0.103994,0.0,0.0
1047,261.5,28.4013,29.9279,159.582,99.7162,98.6018,0.0158489,0.110614,20.8874,93.5579,0.101803,0.0,0.0
1050,262.25,28.5681,29.5461,158.733,99.7154,98.6831,0.0159509,0.110467,20.887,93.5379,0.0942669,0.0,0.0
1053,263,28.0275,30.0849,158.71,99.7158,98.6796,0.0160091,0.110278,20.8867,93.4978,0.0946206,0.0,0.0
1056,263.75,28.0571,29.8289,155.233,99.7179,98.7892,0.0160446,0.110139,20.8864,93.4578,0.0847468,0.0,0.0
1059,264.5,28.0777,29.8661,155.698,99.7044,98.6422,0.0160147,0.110038,20.8862,93.4178,0.0970171,0.0,0.0
1062,265.25,27.9904,29.72,159.253,99.6954,98.7832,0.0159714,0.110135,20.8861,93.3877,0.0832619,0.0,0.0
1065,266,28.0276,29.6574,161.337,99.7068,98.6413,0.0159263,0.110265,20.886,93.3477,0.0973183,0.0,0.0
1068,266.75,28.2115,29.2593,151.963,99.7056,98.5941,0.0158862,0.110386,20.886,93.2976,0.10155,0.0,0.0
1071,267.5,28.139,29.6116,159.292,99.6962,98.6349,0.0158473,0.110473,20.8859,93.2676,0.0969476,0.0,0.0
1074,268.25,28.3252,29.4092,156.791,99.6918,98.6315,0.015819,0.110367,20.8859,93.2276,0.0968558,0.0,0.0
1077,269,27.8121,29.687,155.63,99.6995,98.5971,0.0157868,0.11029,20.8859,93.2076,0.100718,0.0,0.0
1080,269.75,28.2724,30.003,155.036,99.7211,98.5833,0.0157593,0.110233,20.8858,93.1575,0.103946,0.0,0.0
1083,270.5,27.7689,29.3477,158.111,99.7011,98.6998,0.0157411,0.110281,20.8858,93.1175,0.0914314,0.0,0.0
1086,271.25,27.8876,29.5191,159.441,99.6938,98.5455,0.0157339,0.110402,20.8858,93.0975,0.10494,0.0,0.0
1089,272,28.2208,29.4273,157.895,99.6995,98.5536,0.015744,0.11057,20.8858,93.0574,0.104708,0.0,0.0
1092,272.75,28.4031,29.4523,161.532,99.7044,98.527,0.0157528,0.110714,20.8858,93.0174,0.107603,0.0,0.0
1095,273.5,27.8292,29.4532,158.568,99.7044,98.5958,0.0157616,0.110811,20.8858,92.9773,0.101282,0.0,0.0
1098,274.25,28.0006,29.4416,158.394,99.7073,98.5738,0.015768,0.110869,20.8858,92.9373,0.103556,0.0,0.0
1101,275,27.6929,29.0301,156.62,99.715,98.5816,0.0157727,0.110903,20.8858,92.8973,0.103548,0.0,0.0
1104,275.75,27.795,29.0247,154.013,99.704,98.4926,0.0158098,0.110914,20.8858,92.8572,0.110728,0.0,0.0
1107,276.5,27.7231,29.6662,164.771,99.7191,98.7768,0.0158704,0.110944,20.8858,92.8172,0.0860016,0.0,0.0
1110,277.25,27.4933,29.1814,158.963,99.717,98.4732,0.0159474,0.110926,20.8858,92.7872,0.113694,0.0,0.0
1113,278,27.7387,29.3599,153.923,99.7248,98.5799,0.0160439,0.110846,20.8858,92.7672,0.104596,0.0,0.0
1116,278.75,27.4164,29.3705,160.397,99.7289,98.5893,0.0161062,0.110766,20.8858,92.7371,0.104096,0.0,0.0
1119,279.5,27.6316,28.9507,154.005,99.7395,98.6452,0.0161481,0.110753,20.8858,92.6971,0.0999256,0.0,0.0
1122,280.25,27.4283,28.9396,153.565,99.7452,98.6534,0.0161344,0.110762,20.8858,92.6671,0.0996949,0.0,0.0
1125,281,28.049,29.1922,164.364,99.7558,98.5386,0.0161244,0.110784,20.8858,92.607,0.111204,0.0,0.0
1128,281.75,27.4636,29.1018,157.903,99.7664,98.5945,0.0160421,0.110806,20.8858,92.587,0.10703,0.0,0.0
1131,282.5,27.6878,28.8526,159.287,99.7639,98.5407,0.0159822,0.110763,20.8858,92.5369,0.111747,0.0,0.0
1134,283.25,27.5943,29.0056,156.807,99.7546,98.5566,0.0159231,0.110698,20.8858,92.4969,0.109433,0.0,0.0
1137,284,27.4744,29.0295,156.946,99.7962,98.7394,0.0158928,0.110637,20.8858,92.4669,0.0964306,0.0,0.0
1140,284.75,27.5394,28.9658,157.086,99.7917,98.6998,0.0158927,0.110699,20.8858,92.4268,0.0996533,0.0,0.0
1143,285.5,27.2963,29.1811,164.804,99.7941,98.5928,0.015929,0.110789,20.8855,92.3868,0.109705,0.0,0.0
1146,286.25,27.2174,28.8318,156.562,99.7929,98.6048,0.0159802,0.111004,20.8852,92.3468,0.108489,0.0,0.0
1149,287,27.3269,28.5132,156.286,99.8149,98.6577,0.0160334,0.111175,20.8849,92.3167,0.105631,0.0,0.0
1152,287.75,27.5102,28.9504,156.62,99.8084,98.7402,0.0160702,0.111275,20.8848,92.2867,0.0974636,0.0,0.0
1155,288.5,27.5676,28.802,160.867,99.8121,98.591,0.0160795,0.111294,20.8846,92.2467,0.111493,0.0,0.0
1158,289.25,27.412,28.4319,157.165,99.8166,98.441,0.0160788,0.111144,20.8845,92.2166,0.125696,0.0,0.0
1161,290,27.4046,28.3081,153.299,99.8157,98.7892,0.0160432,0.110964,20.8845,92.1766,0.0936332,0.0,0.0
1164,290.75,27.3446,28.8378,158.542,99.8267,98.6405,0.0159888,0.110749,20.8844,92.1265,0.108283,0.0,0.0
1167,291.5,27.209,28.9126,158.915,99.8243,98.7548,0.0159262,0.110607,20.8844,92.0465,0.0975662,0.0,0.0
1170,292.25,27.6932,28.7386,155.243,99.8361,98.5433,0.0158613,0.11053,20.8844,92.0465,0.118062,0.0,0.0
1173,293,27.104,28.3828,160.244,99.8284,98.7119,0.015818,0.110539,20.8846,92.0064,0.10188,0.0,0.0
1176,293.75,27.3868,28.6925,159.358,99.8378,98.8907,0.0157939,0.1108,20.8851,91.9964,0.0863342,0.0,0.0
1179,294.5,27.55,28.972,155.989,99.8463,98.8512,0.015786,0.111147,20.8855,91.9464,0.0907344,0.0,0.0
1182,295.25,27.2556,28.5434,157.364,99.8537,98.7991,0.0158003,0.111667,20.8858,91.9164,0.0961678,0.0,0.0
1185,296,27.2398,28.8421,155.97,99.8647,98.7235,0.0158193,0.112164,20.8861,91.8663,0.104108,0.0,0.0
1188,296.75,27.3242,28.382,159.224,99.861,98.7101,0.0158655,0.112728,20.8861,91.8363,0.104997,0.0,0.0
1191,297.5,27.4325,28.7186,160.389,99.8553,98.8004,0.0159258,0.113139,20.886,91.8163,0.0961977,0.0,0.0
1194,298.25,27.0258,28.8038,159.487,99.8622,98.852,0.0159916,0.113447,20.8853,91.7762,0.0920984,0.0,0.0
1197,299,27.7185,28.3449,160.233,99.859,98.6723,0.0160569,0.113684,20.8844,91.7362,0.108285,0.0,0.0
1200,299.75,27.2395,28.4108,161.638,99.8663,98.7299,0.0161045,0.113836,20.8835,91.6861,0.103664,0.0,0.0
1203,300.5,27.7642,28.3543,160.238,99.8679,98.9187,0.0161385,0.113857,20.8828,91.6561,0.0865118,0.0,0.0
1206,301.25,27.4097,28.6639,156.988,99.8692,98.7493,0.016155,0.113841,20.8825,91.6361,0.102148,0.0,0.0
1209,302,27.4938,28.4335,154.689,99.8944,98.7058,0.0161754,0.113631,20.8821,91.576,0.108425,0.0,0.0
1212,302.75,27.56,28.7082,157.168,99.8671,98.7673,0.0161909,0.113403,20.8818,91.556,0.100306,0.0,0.0
1215,303.5,27.5942,28.747,164.774,99.8769,98.7312,0.0162157,0.113205,20.8816,91.536,0.104507,0.0,0.0
1218,304.25,27.0078,28.6891,154.654,99.8626,98.6994,0.0162395,0.113061,20.8815,91.506,0.106131,0.0,0.0
1221,305,27.229,28.7632,163.103,99.8577,98.6805,0.0162668,0.113126,20.8814,91.4659,0.107425,0.0,0.0
1224,305.75,27.3349,28.1869,158.28,99.8618,98.7149,0.0163038,0.113218,20.8813,91.4359,0.104637,0.0,0.0
1227,306.5,27.2766,28.4554,157.143,99.8688,98.6723,0.0163442,0.113305,20.8812,91.4059,0.109173,0.0,0.0
1230,307.25,27.0583,28.2343,161.562,99.8683,98.6452,0.0163816,0.113304,20.8812,91.3558,0.111623,0.0,0.0
1233,308,26.9737,28.2708,156.801,99.8528,98.6547,0.0164125,0.113225,20.8818,91.3058,0.109349,0.0,0.0
1236,308.75,27.2465,28.4859,156.46,99.8512,98.5975,0.0164234,0.113033,20.882,91.2757,0.114452,0.0,0.0
1239,309.5,27.265,27.9674,157.72,99.872,98.901,0.016425,0.112722,20.8817,91.2457,0.0884966,0.0,0.0
1242,310.25,27.0709,28.3044,157.129,99.8634,98.7278,0.0164152,0.112417,20.8816,91.2257,0.103602,0.0,0.0
1245,311,27.0936,28.2273,157.552,99.8496,98.6104,0.0163946,0.112061,20.8814,91.1957,0.113119,0.0,0.0
1248,311.75,27.5583,28.513,158.3,99.85,98.7385,0.0163564,0.111741,20.8813,91.1456,0.101395,0.0,0.0
1251,312.5,27.3258,28.1612,156.569,99.8586,98.5214,0.0162998,0.11153,20.8817,91.0956,0.122112,0.0,0.0
1254,313.25,27.6572,28.4001,157.844,99.8577,98.4212,0.016253,0.111456,20.8822,91.0756,0.131252,0.0,0.0
1257,314,26.6554,28.1617,156.157,99.8435,98.634,0.0162238,0.111531,20.8825,91.0355,0.110393,0.0,0.0
1260,314.75,27.3745,28.5971,156.015,99.8549,98.7157,0.0162146,0.111585,20.8828,90.9855,0.103931,0.0,0.0
1263,315.5,27.1105,28.1822,162.501,99.8443,98.5885,0.0162426,0.111624,20.8829,90.9555,0.114652,0.0,0.0
1266,316.25,27.3965,28.2213,154.979,99.8455,98.5824,0.0162779,0.11178,20.8831,90.9054,0.115317,0.0,0.0
1269,317,27.0693,28.259,160.434,99.8333,98.5691,0.0163292,0.111895,20.8832,90.8453,0.115432,0.0,0.0
1272,317.75,27.2459,28.2341,155.603,99.8263,98.5794,0.0163744,0.111956,20.8832,90.8253,0.113854,0.0,0.0
1275,318.5,27.2909,28.3305,154.884,99.8259,98.5644,0.0164207,0.111822,20.8833,90.8053,0.115199,0.0,0.0
1278,319.25,27.4069,27.988,159.114,99.8292,98.5257,0.0164603,0.111648,20.8833,90.7352,0.119052,0.0,0.0
1281,320,26.8029,27.7915,155.488,99.8153,98.5124,0.0164884,0.111373,20.8834,90.7152,0.11902,0.0,0.0
1284,320.75,27.1101,28.038,156.288,99.7962,98.4324,0.016507,0.111201,20.8834,90.7052,0.124636,0.0,0.0
1287,321.5,27.1638,28.249,155.021,99.8096,98.5614,0.0165193,0.111136,20.8834,90.6552,0.113996,0.0,0.0
1290,322.25,27.2864,27.8268,158.333,99.8121,98.5059,0.016538,0.11117,20.8834,90.6452,0.119317,0.0,0.0
1293,323,26.5617,28.224,157.859,99.7856,98.5704,0.0165565,0.11113,20.8834,90.5851,0.110982,0.0,0.0
1296,323.75,27.2544,27.7343,158.579,99.777,98.6775,0.0165786,0.111062,20.8834,90.5951,0.100373,0.0,0.0
1299,324.5,27.4514,28.1339,154.17,99.7843,98.5154,0.0165892,0.110945,20.8834,90.5451,0.11593,0.0,0.0
1302,325.25,27.0653,28.1157,158.355,99.7754,98.5769,0.016594,0.110934,20.8834,90.485,0.109464,0.0,0.0
1305,326,26.9873,28.1544,160.738,99.7648,98.5575,0.0165956,0.110951,20.8834,90.465,0.110279,0.0,0.0
1308,326.75,27.2124,28.0903,156.183,99.7554,98.3627,0.0166067,0.111162,20.8834,90.455,0.127345,0.0,0.0
1311,327.5,26.8843,28.1074,157.462,99.7501,98.573,0.0166306,0.111316,20.8834,90.3949,0.107524,0.0,0.0
1314,328.25,27.1651,27.4906,157.708,99.7578,98.389,0.016648,0.11142,20.8834,90.3749,0.125152,0.0,0.0
1317,329,26.7705,27.9982,155.746,99.7509,98.3718,0.0166935,0.111483,20.8833,90.3349,0.126106,0.0,0.0
1320,329.75,26.8861,27.8959,156.911,99.7395,98.34,0.0167226,0.11138,20.8832,90.2948,0.127999,0.0,0.0
1323,330.5,27.1026,27.9276,158.045,99.7244,98.432,0.0167421,0.111349,20.883,90.2348,0.118158,0.0,0.0
1326,331.25,26.4653,27.6011,158.829,99.7378,98.3322,0.0167389,0.111346,20.883,90.2148,0.128564,0.0,0.0
1329,332,27.0983,27.8931,155.005,99.7334,98.2299,0.0167324,0.11145,20.8829,90.1847,0.137588,0.0,0.0
1332,332.75,26.7361,28.0396,157.679,99.7281,98.3666,0.0167203,0.111502,20.8829,90.1447,0.124508,0.0,0.0
1335,333.5,26.5568,27.5866,158.524,99.715,98.2991,0.0167095,0.1115,20.8828,90.1347,0.12954,0.0,0.0
1338,334.25,26.9437,27.7128,156.759,99.7293,98.2626,0.016703,0.11152,20.8828,90.0946,0.134205,0.0,0.0
1341,335,26.8072,27.9668,155.462,99.7179,98.2858,0.016701,0.111519,20.8828,90.0546,0.131028,0.0,0.0
1344,335.75,26.8984,27.6373,163.217,99.706,98.4208,0.0167032,0.111489,20.8828,90.0246,0.11752,0.0,0.0
1347,336.5,27.3045,27.7828,159.251,99.7093,98.4333,0.0167116,0.111427,20.8828,89.9745,0.116668,0.0,0.0
1350,337.25,26.8789,27.4482,158.09,99.7085,98.4212,0.0167206,0.111426,20.8828,89.9745,0.117702,0.0,0.0
1353,338,27.0322,27.7724,163.444,99.7077,98.1946,0.0167387,0.111444,20.8828,89.9245,0.138504,0.0,0.0
1356,338.75,26.7941,27.7978,157.025,99.7028,98.217,0.0167519,0.111458,20.8828,89.8844,0.135998,0.0,0.0
1359,339.5,26.7854,27.7423,157.151,99.6942,98.3567,0.0167712,0.111468,20.8828,89.8344,0.122343,0.0,0.0
1361,340,26.8446,27.4518,154.728,99.7126,98.3391,0.016781,0.111562,20.8828,89.8144,0.125633,0.0,0.0