File: 01_Data/Homasote/Cone/Homasote_Cone_HF25Scan_230608_R1.csv
Names,Time,Stack TC,Smoke TC,Exh Press,Smoke Comp,Smoke Meas,CO Meter,CO2 Meter,O2 Meter,Sample Mass,Ext Coeff,Start Test,Flame Verif
Chan Gain,,500,500,1,1,1,1,1,1,1,1,1.0,1.0
Offset,,0,0,0.143883,0,0,0,0,0,0,0,0.0,0.0
Gain,,1,1,25.011,13.2469,13.9074,1,1,1,1.00094,1.03262,1.0,1.0
Units,sec,C,C,Pa,%,%,%,%,%,g,/m,,
Baseline,,25.8621,26.1808,160.57,99.9998,99.7699,0.00127936,0.0514241,20.9554,-444.683,0.0208557,,
9,2,22.9001,22.7905,160.718,99.7052,99.4789,0.00135415,0.0638902,20.9431,105.769,0.0205749,0.0,0.0
18,4.25,22.8209,22.524,160.028,99.7213,99.4666,0.00129628,0.065862,20.9398,105.789,0.0231645,0.0,0.0
27,6.5,23.2836,23.5849,157.885,99.7432,99.5443,0.00123535,0.0679821,20.9365,105.739,0.0180773,0.0,0.0
36,8.75,23.1621,23.3082,161.568,99.7581,99.4891,0.00123936,0.0721196,20.933,105.639,0.0244569,0.0,0.0
45,11,23.7388,23.293,160.481,99.7529,99.4547,0.0014067,0.074883,20.9266,105.599,0.0271099,0.0,0.0
54,13.25,23.6192,23.4579,159.122,99.7698,99.3741,0.00155364,0.0762649,20.9222,105.599,0.0360002,0.0,0.0
63,15.5,23.3007,23.5473,165.228,99.7783,99.3338,0.00151756,0.0762721,20.9197,105.589,0.0404464,0.0,0.0
72,17.75,23.2802,23.268,159.99,99.8026,99.1432,0.00141294,0.0749906,20.9188,105.529,0.0600416,0.0,0.0
81,20,23.8996,23.7018,156.474,99.7868,99.125,0.0014,0.0729413,20.9203,105.509,0.0602776,0.0,0.0
90,22.25,23.4614,23.4629,160.316,99.7953,99.0749,0.00151023,0.0692443,20.9243,105.459,0.0656274,0.0,0.0
99,24.5,23.5512,23.6166,164.245,99.8066,98.962,0.00161492,0.0649994,20.9307,105.429,0.0769814,0.0,0.0
108,26.75,23.4235,23.5392,158.203,99.8038,98.9043,0.00163792,0.0622819,20.9371,105.399,0.08201,0.0,0.0
117,29,23.2685,23.7112,162.438,99.7925,98.7723,0.0015164,0.0607733,20.9412,105.389,0.0930785,0.0,0.0
126,31.25,23.6198,23.5681,156.107,99.7981,98.872,0.00144022,0.0601387,20.9442,105.349,0.0844505,0.0,0.0
135,33.5,23.5332,23.5637,161.177,99.7977,98.746,0.00139865,0.0594314,20.9462,105.319,0.0959701,0.0,0.0
144,35.75,23.4137,23.3757,159.661,99.7937,98.7061,0.00139296,0.0584452,20.9476,105.239,0.0992624,0.0,0.0
153,38,23.7906,23.8286,161.309,99.7925,98.5461,0.00134207,0.0576005,20.949,105.249,0.113847,0.0,0.0
162,40.25,23.4257,23.2096,160.408,99.7925,98.5851,0.00121722,0.0567841,20.9499,105.179,0.11026,0.0,0.0
171,42.5,23.9643,23.946,160.111,99.7828,97.9714,0.00115793,0.0563471,20.9517,105.149,0.165943,0.0,0.0
180,44.75,23.9622,23.8025,162.269,99.7896,98.0775,0.00119794,0.0569079,20.9519,105.109,0.156762,0.0,0.0
189,47,24.0131,24.0724,156.532,99.803,97.8165,0.0012919,0.0577318,20.9517,105.049,0.182112,0.0,0.0
198,49.25,24.0648,23.9979,164.072,99.7933,97.6824,0.00144789,0.058416,20.9506,105.039,0.193659,0.0,0.0
207,51.5,23.8859,23.784,158.635,99.7836,97.3118,0.00164922,0.0585626,20.9497,104.989,0.227202,0.0,0.0
216,53.75,23.9717,24.1375,158.581,99.786,96.7792,0.00181503,0.0582796,20.9488,104.919,0.277138,0.0,0.0
225,56,23.905,24.0297,159.235,99.7949,96.4974,0.00197484,0.0587034,20.9485,104.879,0.30436,0.0,0.0
234,58.25,24.2965,24.3254,159.816,99.7909,96.0607,0.00222113,0.0604012,20.9477,104.859,0.345081,0.0,0.0
243,60.5,24.1449,24.0628,145.807,99.7937,99.6614,0.00245364,0.0628472,20.9466,104.498,0.0120124,0.0,1.0
252,62.75,25.6476,25.2814,147.011,99.8074,99.5227,0.00270452,0.0643204,20.9443,104.138,0.0258825,0.0,1.0
261,65,25.6411,24.3373,144.588,99.7973,99.3894,0.00296863,0.0645603,20.9424,103.898,0.0371026,0.0,0.0
270,67.25,27.75,25.2234,147.595,99.7949,99.2302,0.00331468,0.0729873,20.941,103.607,0.0513993,0.0,0.0
279,69.5,28.4654,26.0801,146.9,99.7985,99.1971,0.00377385,0.152221,20.9411,103.427,0.0547518,0.0,0.0
288,71.75,30.1443,27.2706,146.91,99.7985,99.1801,0.00386557,0.251114,20.8814,103.167,0.0563015,0.0,0.0
297,74,31.2469,28.1567,147.987,99.8006,98.9437,0.00369979,0.317196,20.7812,102.917,0.0781013,0.0,0.0
306,76.25,32.0528,28.4794,149.62,99.8155,99.0172,0.00353938,0.346826,20.698,102.777,0.0727395,0.0,0.0
315,78.5,33.1409,30.0146,149.178,99.8103,98.4599,0.00352631,0.357613,20.6441,102.336,0.123385,0.0,0.0
324,80.75,33.8323,30.6778,148.85,99.8042,98.1259,0.0034806,0.356869,20.6194,102.136,0.153616,0.0,0.0
333,83,34.4088,31.4931,147.342,99.7929,98.5567,0.00351434,0.349828,20.6113,101.896,0.112909,0.0,0.0
342,85.25,34.9699,32.1747,148.596,99.8171,98.3046,0.00355333,0.340447,20.6157,101.686,0.138311,0.0,0.0
351,87.5,35.4007,32.1696,150.962,99.7998,98.726,0.00351885,0.333217,20.6236,101.525,0.0979828,0.0,0.0
360,89.75,35.5529,33.06,150.598,99.8022,98.4378,0.0035409,0.327196,20.6311,101.315,0.124682,0.0,0.0
369,92,35.5552,33.5291,148.293,99.805,98.5333,0.00373629,0.319395,20.6385,101.135,0.116156,0.0,0.0
378,94.25,36.209,34.0186,148.438,99.8224,98.5643,0.00393937,0.311287,20.6468,100.905,0.114886,0.0,0.0
387,96.5,36.631,34.4714,153.062,99.8143,98.7825,0.00391037,0.304449,20.6548,100.715,0.0941258,0.0,0.0
396,98.75,36.1982,34.4413,153.291,99.8325,98.7884,0.00365517,0.299177,20.6639,100.474,0.0952318,0.0,0.0
405,101,36.3034,34.3797,153.304,99.8139,98.8788,0.00354262,0.293168,20.6716,100.304,0.0852582,0.0,0.0
414,103.25,36.5567,35.2844,151.298,99.8325,98.9246,0.00363178,0.285401,20.6785,100.144,0.0827483,0.0,0.0
423,105.5,37.0452,35.4591,155.367,99.8236,99.1216,0.00367437,0.276845,20.6873,99.9539,0.0639271,0.0,0.0
432,107.75,36.6882,35.784,152.664,99.8208,98.864,0.00361838,0.269608,20.6968,99.7637,0.0872433,0.0,0.0
441,110,36.5945,35.9321,150.13,99.8135,99.1717,0.00355654,0.263598,20.7054,99.5936,0.0584346,0.0,0.0
450,112.25,36.8512,36.4788,149.996,99.8272,98.8843,0.00346634,0.258764,20.7105,99.3934,0.0859641,0.0,0.0
459,114.5,36.8837,36.4708,150.359,99.8216,99.0834,0.00327296,0.25427,20.7181,99.1732,0.0672353,0.0,0.0
468,116.75,36.8667,36.598,153.652,99.8086,99.3003,0.00321139,0.251346,20.7228,99.003,0.046257,0.0,0.0
477,119,36.8594,36.8939,151.8,99.8111,99.4819,0.00335106,0.248203,20.7269,98.8729,0.0299215,0.0,0.0
486,121.25,36.9864,36.491,149.575,99.8135,99.4386,0.00342221,0.244988,20.7321,98.7127,0.0340845,0.0,0.0
495,123.5,37.1065,36.6982,154.829,99.7905,99.4539,0.00336694,0.240488,20.7364,98.5025,0.0306006,0.0,0.0
504,125.75,37.039,37.2221,152.08,99.7913,99.4929,0.0033223,0.236446,20.74,98.3624,0.0271185,0.0,0.0
513,128,37.3313,36.8721,153.118,99.7961,99.664,0.00328833,0.234244,20.744,98.1822,0.0120016,0.0,0.0
522,130.25,36.9669,37.216,152.504,99.7593,99.6428,0.00332629,0.23274,20.7468,97.982,0.0105899,0.0,0.0
531,132.5,37.6948,36.8409,149.194,99.7516,99.5303,0.00333997,0.230289,20.7483,97.892,0.0201224,0.0,0.0
540,134.75,36.5804,37.3833,154.681,99.7149,99.6249,0.0032752,0.227477,20.7513,97.7218,0.00817149,0.0,0.0
549,137,36.7917,37.0724,152.681,99.6829,99.591,0.00339654,0.225306,20.7533,97.5416,0.00835813,0.0,0.0
558,139.25,36.5098,37.5392,151.284,99.6437,99.4586,0.00375354,0.223069,20.7556,97.3915,0.0168454,0.0,0.0
567,141.5,36.37,37.275,150.578,99.6207,99.5371,0.00391924,0.220874,20.7593,97.2013,0.00760293,0.0,0.0
576,143.75,36.4724,37.2468,152.353,99.577,99.563,0.00380546,0.21921,20.7618,97.0712,0.00127732,0.0,0.0
585,146,36.5919,37.5162,153.234,99.5281,99.4335,0.00361401,0.216565,20.7627,96.901,0.00861056,0.0,0.0
594,148.25,36.4295,37.5897,154.646,99.4881,99.4573,0.00350648,0.214068,20.764,96.7609,0.00280165,0.0,0.0
603,150.5,36.8093,37.2625,153.164,99.4513,99.4165,0.00344602,0.211821,20.7672,96.5907,0.00316327,0.0,0.0
612,152.75,36.4242,38.1153,154.05,99.4177,99.3987,0.00351077,0.210242,20.7697,96.3805,0.00173076,0.0,0.0
621,155,36.4357,37.2148,156.117,99.3688,99.2952,0.0037334,0.208706,20.7719,96.2504,0.00671604,0.0,0.0
630,157.25,35.9364,37.7482,156.656,99.3454,99.2773,0.00393321,0.20758,20.7728,96.0803,0.00620458,0.0,0.0
639,159.5,36.0979,37.1414,161.347,99.3389,99.226,0.00400971,0.205873,20.7728,95.9101,0.0103008,0.0,0.0
648,161.75,36.5134,36.7536,153.241,99.3029,99.2514,0.00401412,0.201681,20.7744,95.81,0.00469592,0.0,0.0
657,164,35.579,37.0852,153.558,99.2653,99.1878,0.00397058,0.196597,20.7785,95.6198,0.00707749,0.0,0.0
666,166.25,36.0792,36.7789,154.905,99.2572,99.1483,0.00389624,0.193267,20.7828,95.4597,0.00994491,0.0,0.0
675,168.5,35.6912,37.1269,154.269,99.2447,99.1576,0.00412999,0.189741,20.7882,95.3496,0.00794817,0.0,0.0
684,170.75,35.8673,36.6661,154.025,99.2419,99.1874,0.0045449,0.187197,20.7943,95.1794,0.00497652,0.0,0.0
693,173,35.3635,36.6448,153.812,99.3045,99.2374,0.00490784,0.185068,20.797,95.0293,0.00612149,0.0,0.0
702,175.25,35.6055,36.9199,153.243,99.3696,99.2939,0.00509766,0.184109,20.8006,94.8691,0.00690594,0.0,0.0
711,177.5,34.9982,36.9719,152.104,99.4294,99.3401,0.00521306,0.18223,20.8023,94.729,0.00813805,0.0,0.0
720,179.75,34.9883,36.3195,155.094,99.4852,99.4123,0.00526655,0.180814,20.8045,94.6189,0.00664266,0.0,0.0
729,182,34.8881,36.5078,156.086,99.581,99.4721,0.00524184,0.179371,20.8058,94.4788,0.0099104,0.0,0.0
738,184.25,35.0001,36.3553,150.604,99.674,99.5893,0.00527558,0.176742,20.8066,94.3887,0.00770435,0.0,0.0
747,186.5,35.0564,36.5455,158.048,99.7419,99.7595,0.00539475,0.174902,20.8093,94.1985,-0.00159231,0.0,0.0
756,188.75,35.0623,36.5335,156.463,99.8074,99.7815,0.00546206,0.173218,20.8117,94.0884,0.00234934,0.0,0.0
765,191,34.9784,35.9689,157.849,99.8717,99.827,0.00543526,0.172045,20.8139,93.9583,0.00406022,0.0,0.0
774,193.25,34.5168,36.3956,155.534,99.9247,99.9199,0.00539661,0.172393,20.8156,93.7681,0.00043191,0.0,0.0
783,195.5,34.6633,36.0281,158.103,99.9566,99.8647,0.00545504,0.172505,20.815,93.688,0.008329,0.0,0.0
792,197.75,34.4739,35.8134,153.309,99.995,99.9785,0.00557952,0.172197,20.8146,93.5179,0.00149756,0.0,0.0
801,200,34.3902,35.9702,152.131,100.022,99.914,0.00569128,0.170675,20.8144,93.3577,0.00976155,0.0,0.0
810,202.25,34.4864,35.8739,155.169,100.032,99.8983,0.00571101,0.16942,20.8159,93.2676,0.0120997,0.0,0.0
819,204.5,34.6143,35.3885,154.849,100.019,99.9611,0.0058232,0.168176,20.8178,93.1375,0.00523445,0.0,0.0
828,206.75,34.2238,35.341,157.344,100.008,99.9878,0.00600802,0.166998,20.8199,92.9573,0.0018236,0.0,0.0
837,209,33.867,35.7424,156.87,99.9695,99.9029,0.00625178,0.165619,20.8217,92.8272,0.00603732,0.0,0.0
846,211.25,34.1214,35.0781,153.594,99.9113,99.8545,0.00646971,0.166096,20.8248,92.7071,0.00514919,0.0,0.0
855,213.5,33.7627,35.2156,156.504,99.8661,99.7523,0.00658042,0.166539,20.8265,92.647,0.0103267,0.0,0.0
864,215.75,33.6427,35.2507,154.05,99.7937,99.6788,0.00662097,0.165462,20.8258,92.4569,0.0104314,0.0,0.0
873,218,33.8334,35.3361,158.783,99.7262,99.658,0.00663486,0.164003,20.8255,92.3067,0.00619055,0.0,0.0
882,220.25,33.2679,34.9424,153.734,99.6328,99.5481,0.00669283,0.163835,20.8267,92.1866,0.00770219,0.0,0.0
891,222.5,33.7267,35.1755,154.441,99.5847,99.4755,0.00689615,0.163558,20.8273,92.0865,0.00993197,0.0,0.0
900,224.75,33.7749,35.0252,154.515,99.613,99.467,0.00712483,0.162961,20.8275,91.9063,0.0132805,0.0,0.0
909,227,33.6711,35.1711,155.43,99.6401,99.5324,0.00711562,0.163021,20.8276,91.7862,0.00979175,0.0,0.0
918,229.25,33.505,34.7932,158.334,99.6922,99.4878,0.00701652,0.162201,20.8276,91.6961,0.0185881,0.0,0.0
927,231.5,33.3961,35.3265,154.758,99.729,99.5273,0.00711724,0.160693,20.8277,91.546,0.018337,0.0,0.0
936,233.75,33.0206,34.6296,157.156,99.7682,99.4895,0.00723421,0.159785,20.8297,91.3859,0.0253366,0.0,0.0
945,236,32.7828,34.6436,152.573,99.7945,99.6788,0.00746348,0.158459,20.8318,91.2958,0.0105047,0.0,0.0
954,238.25,32.5995,34.6152,155.372,99.8458,99.6474,0.00785191,0.156747,20.8328,91.1857,0.0180169,0.0,0.0
963,240.5,33.0253,34.5619,152.373,99.8798,99.8087,0.00828886,0.153786,20.8341,91.0355,0.00644844,0.0,0.0
972,242.75,32.4389,34.3119,161.055,99.9069,99.8074,0.00897232,0.149346,20.8372,90.8754,0.00902049,0.0,0.0
981,245,32.7073,34.5577,154.837,99.9324,99.7849,0.00957017,0.14982,20.8405,90.7352,0.013371,0.0,0.0
990,247.25,32.2437,34.0541,152.245,99.9906,99.8452,0.00963166,0.152751,20.842,90.6351,0.013177,0.0,0.0
999,249.5,32.3622,34.3501,155.874,100.021,99.7107,0.00935545,0.153745,20.8403,90.535,0.0281735,0.0,0.0
1008,251.75,32.2407,33.9098,159.989,100.045,99.6551,0.00902972,0.152771,20.8363,90.455,0.0353861,0.0,0.0
1017,254,31.9873,34.3733,157.452,100.088,99.852,0.00886561,0.151911,20.8351,90.2748,0.0214195,0.0,0.0
1026,256.25,31.9415,33.8064,156.412,100.122,99.8643,0.00899505,0.153168,20.8371,90.1747,0.023339,0.0,0.0
1035,258.5,32.5498,33.7458,153.68,100.155,100.013,0.00916006,0.151131,20.8379,90.0546,0.0128351,0.0,0.0
1044,260.75,32.0022,33.9215,151.898,100.196,99.9984,0.0096282,0.146204,20.8397,89.9645,0.0178369,0.0,0.0
1053,263,31.9676,33.3026,156.814,100.24,100.018,0.0104783,0.143941,20.8452,89.8244,0.0201235,0.0,0.0
1062,265.25,32.2597,33.2541,156.97,100.272,100.136,0.0107382,0.145115,20.848,89.6642,0.0122184,0.0,0.0
1071,267.5,32.1592,33.7035,159.535,100.299,100.148,0.0103627,0.147262,20.8483,89.5441,0.0136287,0.0,0.0
1080,269.75,31.9757,33.5397,161.094,100.323,100.07,0.0100569,0.149395,20.8472,89.384,0.0228457,0.0,0.0
1089,272,32.0712,33.2527,153.484,100.357,100.313,0.0101604,0.149845,20.844,89.3039,0.00396201,0.0,0.0
1098,274.25,32.2877,33.3349,154.61,100.387,100.36,0.0101597,0.150277,20.842,89.1838,0.0024465,0.0,0.0
1107,276.5,31.8192,33.5909,158.566,100.395,100.377,0.00992267,0.151255,20.8412,89.1137,0.00168325,0.0,0.0
1116,278.75,32.1243,33.6024,155.418,100.439,100.31,0.00958951,0.151929,20.84,88.9436,0.0117104,0.0,0.0
1125,281,32.1332,33.551,157.53,100.451,100.263,0.00957046,0.152869,20.8386,88.8234,0.0170211,0.0,0.0
1134,283.25,32.157,33.4438,154.052,100.464,100.372,0.009521,0.153205,20.8381,88.7434,0.00826643,0.0,0.0
1143,285.5,32.2895,33.2013,157.716,100.473,100.424,0.00924867,0.153554,20.8379,88.6233,0.00443042,0.0,0.0
1152,287.75,31.723,33.3042,155.974,100.494,100.534,0.00888802,0.153211,20.8378,88.5132,-0.00361968,0.0,0.0
1161,290,32.0111,33.2015,151.743,100.494,100.399,0.008905,0.151374,20.8377,88.373,0.00851024,0.0,0.0
1170,292.25,32.3499,33.4876,152.009,100.482,100.444,0.00918255,0.152616,20.8387,88.2429,0.00335864,0.0,0.0
1179,294.5,32.2589,33.6648,157.766,100.482,100.439,0.00917726,0.155282,20.839,88.1929,0.00393179,0.0,0.0
1188,296.75,32.2893,33.4767,153.512,100.476,100.439,0.00865792,0.157907,20.8358,88.0427,0.00334461,0.0,0.0
1197,299,32.4512,33.6565,155.609,100.442,100.451,0.00794688,0.159133,20.8312,87.9226,-0.00078721,0.0,0.0
1206,301.25,32.388,33.7559,151.258,100.423,100.391,0.00744952,0.159654,20.8294,87.7925,0.0028988,0.0,0.0
1215,303.5,32.1262,33.2761,158.84,100.401,100.291,0.00725159,0.160295,20.8273,87.6724,0.00993089,0.0,0.0
1224,305.75,32.7842,33.2783,156.587,100.365,100.304,0.00734901,0.161984,20.8259,87.5823,0.00546107,0.0,0.0
1233,308,32.6904,33.3337,154.258,100.312,100.268,0.0074762,0.163163,20.8243,87.4722,0.00393718,0.0,0.0
1242,310.25,32.4804,33.1763,150.246,100.278,100.262,0.00741639,0.162936,20.8233,87.3421,0.00144574,0.0,0.0
1251,312.5,32.3431,33.1927,151.824,100.235,100.191,0.00715439,0.163121,20.8229,87.2019,0.00401813,0.0,0.0
1260,314.75,32.626,33.4469,153.726,100.183,100.139,0.00681963,0.163725,20.8232,87.0918,0.00398683,0.0,0.0
1269,317,32.5767,33.9759,152.712,100.124,100.044,0.00663914,0.163415,20.8234,86.9217,0.0072156,0.0,0.0
1278,319.25,32.6192,33.3694,156.03,100.077,100.005,0.00674002,0.164163,20.8245,86.8516,0.00654339,0.0,0.0
1287,321.5,33.1126,33.4681,156.004,100.021,99.9271,0.00676197,0.164606,20.8241,86.7615,0.00849514,0.0,0.0
1296,323.75,32.7537,33.1952,152.438,99.9235,99.8439,0.00656634,0.1635,20.8238,86.6114,0.00721128,0.0,0.0
1305,326,32.6459,33.866,153.15,99.8479,99.8151,0.00631443,0.163609,20.8236,86.5013,0.00297437,0.0,0.0
1314,328.25,32.4747,33.8607,156.771,99.7803,99.6937,0.00619214,0.16356,20.8236,86.3511,0.00786942,0.0,0.0
1323,330.5,33.5372,34.0686,158.068,99.693,99.6029,0.00629757,0.163353,20.8236,86.231,0.00819523,0.0,0.0
1332,332.75,33.3028,34.1219,154.819,99.5968,99.4679,0.00644432,0.164161,20.8236,86.1509,0.011732,0.0,0.0
1341,335,32.4218,33.4778,156.692,99.5301,99.5074,0.00633564,0.164929,20.8223,86.0108,0.00206974,0.0,0.0
1350,337.25,32.7883,33.6136,156.236,99.4557,99.4255,0.00606528,0.165783,20.8216,85.9007,0.00275739,0.0,0.0
1359,339.5,33.3743,33.3352,151.636,99.3611,99.3117,0.00586344,0.166963,20.8214,85.8006,0.00450489,0.0,0.0
1368,341.75,33.3245,33.573,160.124,99.2867,99.1882,0.00577432,0.168753,20.8201,85.7105,0.00899352,0.0,0.0
1377,344,33.2482,33.9904,154.243,99.2253,99.1925,0.00565869,0.168888,20.8193,85.5904,0.00299811,0.0,0.0
1386,346.25,33.3096,33.8697,153.922,99.1444,99.156,0.00548203,0.168606,20.819,85.4903,-0.00105179,0.0,0.0
1395,348.5,33.5094,33.9941,154.728,99.0765,99.0524,0.00525156,0.168501,20.8189,85.3802,0.00220685,0.0,0.0
1404,350.75,33.2056,33.7673,153.818,99.0179,98.9705,0.0049219,0.169024,20.8203,85.2801,0.00433976,0.0,0.0
1413,353,33.1897,33.7257,155.756,98.9439,98.9166,0.00472004,0.169767,20.8209,85.14,0.00250371,0.0,0.0
1422,355.25,33.1798,33.8965,153.286,98.8865,98.8317,0.00456254,0.170734,20.8211,85.0399,0.00502292,0.0,0.0
1431,357.5,33.5772,33.9716,155.84,98.8433,98.7833,0.00431965,0.171645,20.8198,84.9198,0.0054956,0.0,0.0
1440,359.75,33.4246,33.7693,154.837,98.8097,98.7298,0.00416787,0.172484,20.8179,84.7796,0.00732457,0.0,0.0
1449,362,33.5361,34.0012,151.848,98.777,98.7434,0.00405554,0.173629,20.8158,84.6896,0.00307691,0.0,0.0
1458,364.25,33.6541,34.2532,152.745,98.7305,98.6152,0.00394748,0.174808,20.8148,84.5795,0.010578,0.0,0.0
1467,366.5,33.6148,34.1734,154.369,98.7256,98.6331,0.00377748,0.175499,20.8144,84.4193,0.00849621,0.0,0.0
1476,368.75,33.9562,33.6882,155.95,98.7062,98.6237,0.00371813,0.176167,20.8129,84.3092,0.00757272,0.0,0.0
1485,371,34.1851,34.2784,153.078,98.7046,98.6526,0.0038781,0.176623,20.8125,84.1691,0.00477363,0.0,0.0
1494,373.25,33.9645,34.1767,149.618,98.7196,98.6123,0.00399649,0.177958,20.8122,84.079,0.00984999,0.0,0.0
1503,375.5,34.3788,34.8331,157.813,98.7559,98.622,0.00395213,0.179605,20.8109,83.9589,0.0122906,0.0,0.0
1512,377.75,34.2592,34.5902,153.308,98.779,98.726,0.0038364,0.182172,20.8087,83.8087,0.00485888,0.0,0.0
1521,380,34.112,34.2459,153.824,98.8065,98.6237,0.00372172,0.184488,20.8057,83.6586,0.0167689,0.0,0.0
1530,382.25,34.2224,34.5759,157.362,98.8594,98.8113,0.0036191,0.185321,20.8024,83.5685,0.00440992,0.0,0.0
1539,384.5,34.4094,34.9344,151.082,98.9132,98.833,0.00352216,0.185994,20.7999,83.4184,0.00735047,0.0,0.0
1548,386.75,34.3327,34.9029,152.166,98.9653,98.8156,0.0034776,0.186779,20.7999,83.3283,0.0137193,0.0,0.0
1557,389,34.4136,35.125,152.322,99.0219,98.9128,0.00349171,0.187352,20.7996,83.2282,0.00999345,0.0,0.0
1566,391.25,34.6462,35.0838,152.997,99.0959,98.962,0.0035014,0.188476,20.7988,83.0981,0.0122507,0.0,0.0
1575,393.5,34.4221,35.0027,155.547,99.1594,99.0677,0.00331406,0.189857,20.7985,82.978,0.00838186,0.0,0.0
1584,395.75,34.5159,35.0137,151.31,99.2075,99.2009,0.00298098,0.191266,20.7971,82.8578,0.00059927,0.0,0.0
1593,398,34.6806,35.013,158.955,99.2952,99.2489,0.00291619,0.192755,20.7962,82.6877,0.00422644,0.0,0.0
1602,400.25,34.8068,35.2548,154.124,99.3462,99.2222,0.00302776,0.193911,20.7946,82.5175,0.0113136,0.0,0.0
1611,402.5,34.9213,35.1724,150.625,99.4133,99.2663,0.00314865,0.195972,20.7928,82.4475,0.0134023,0.0,0.0
1620,404.75,35.1661,35.5238,157.188,99.4824,99.3864,0.0030886,0.198936,20.7909,82.2573,0.00874433,0.0,0.0
1629,407,35.1964,35.8231,155.15,99.5451,99.3418,0.00298716,0.200641,20.7871,82.1672,0.0185116,0.0,0.0
1638,409.25,35.3814,36.2633,154.321,99.6004,99.4768,0.00296308,0.204494,20.7853,82.0371,0.011251,0.0,0.0
1647,411.5,35.5383,35.696,150.414,99.6376,99.5248,0.00300589,0.207721,20.7819,81.8969,0.0102663,0.0,0.0
1656,413.75,35.7477,35.9024,154.84,99.689,99.4505,0.00311963,0.210898,20.7775,81.7468,0.0216953,0.0,0.0
1665,416,35.7588,36.379,150.181,99.763,99.5766,0.00323364,0.212421,20.7739,81.6167,0.0169414,0.0,0.0
1674,418.25,35.8188,35.921,150.174,99.7933,99.5294,0.00329425,0.214335,20.7723,81.4465,0.0239798,0.0,0.0
1683,420.5,35.9057,36.0558,147.686,99.8175,99.5999,0.00323414,0.216731,20.7705,81.2964,0.0197723,0.0,0.0
1692,422.75,36.7034,36.0053,151.372,99.8568,99.5477,0.00308707,0.219151,20.7681,81.1462,0.0280788,0.0,0.0
1701,425,36.5516,36.358,152.978,99.8855,99.574,0.00287334,0.221697,20.7655,81.0261,0.0282876,0.0,0.0
1710,427.25,36.9074,36.9194,150.529,99.8956,99.5927,0.00271511,0.224509,20.7622,80.866,0.0275061,0.0,0.0
1719,429.5,37.1437,36.6649,150.555,99.915,99.557,0.00262342,0.226749,20.7595,80.6858,0.0325073,0.0,0.0
1728,431.75,37.0395,36.9825,150.014,99.921,99.4098,0.00254668,0.228364,20.7571,80.5657,0.0464676,0.0,0.0
1737,434,36.9468,37.5484,153.127,99.9518,99.4832,0.00241233,0.2301,20.7548,80.3455,0.0425639,0.0,0.0
1746,436.25,37.7224,37.4794,152.794,99.9271,99.5052,0.00219889,0.231336,20.7534,80.2154,0.0383198,0.0,0.0
1755,438.5,37.3263,36.9572,153.86,99.9206,99.344,0.00200691,0.231939,20.7524,80.0352,0.0524268,0.0,0.0
1764,440.75,37.6432,37.6477,152.377,99.9077,99.5384,0.00187299,0.236523,20.7497,79.8951,0.0335477,0.0,0.0
1773,443,38.1913,37.7596,151.517,99.8907,99.3232,0.00183371,0.240701,20.7451,79.7249,0.0516108,0.0,0.0
1782,445.25,37.8196,38.5795,147.527,99.8523,99.0384,0.00200289,0.244477,20.7405,79.5247,0.0741362,0.0,0.0
1791,447.5,38.0148,38.2921,149.197,99.826,99.3329,0.00231665,0.246781,20.7347,79.3646,0.0448539,0.0,0.0
1800,449.75,38.532,38.502,149.297,99.7888,99.0774,0.00247369,0.248564,20.7303,79.2545,0.0648062,0.0,0.0
1809,452,38.2755,38.5242,149.387,99.7553,98.6628,0.00244856,0.252527,20.7282,79.0943,0.0997494,0.0,0.0
1818,454.25,38.4782,39.0654,148.946,99.7153,98.8359,0.0024477,0.255724,20.7243,78.8941,0.0802303,0.0,0.0
1827,456.5,38.777,39.0167,150.866,99.6765,98.8016,0.00255651,0.25899,20.7199,78.724,0.0798568,0.0,0.0
1836,458.75,38.9385,39.3578,150.416,99.6308,98.5049,0.00259127,0.261651,20.7169,78.5738,0.102943,0.0,0.0
1845,461,39.779,39.3073,151.823,99.5786,98.3534,0.00254456,0.265018,20.7134,78.3536,0.112144,0.0,0.0
1854,463.25,39.8778,39.8943,149.287,99.5467,98.0575,0.00245339,0.267306,20.7101,78.1634,0.136524,0.0,0.0
1863,465.5,40.0836,39.8876,148.468,99.4978,98.139,0.00252497,0.269458,20.7076,77.9733,0.124548,0.0,0.0
1872,467.75,40.1576,40.21,154.177,99.4351,98.1339,0.0027631,0.271487,20.7052,77.7831,0.119311,0.0,0.0
1881,470,40.4201,40.2705,146.623,99.3999,97.9935,0.00293393,0.273841,20.7015,77.5729,0.129083,0.0,0.0
1890,472.25,40.7949,40.5587,151.37,99.3733,98.038,0.00295657,0.275361,20.6978,77.3927,0.122534,0.0,0.0
1899,474.5,40.6988,40.3264,147.376,99.3389,97.5826,0.00292652,0.277284,20.6954,77.2125,0.161574,0.0,0.0
1908,476.75,40.7523,41.4356,149.263,99.2977,97.5368,0.00295171,0.28066,20.6933,77.0023,0.162069,0.0,0.0
1917,479,41.0407,40.8778,149.645,99.2928,97.4163,0.00311726,0.283131,20.6898,76.7921,0.172827,0.0,0.0
1926,481.25,41.4744,41.316,149.598,99.2629,97.5393,0.00316668,0.285128,20.6866,76.5719,0.15866,0.0,0.0
1935,483.5,41.6612,41.6552,148.969,99.2358,97.7286,0.00312499,0.286216,20.6835,76.3317,0.138628,0.0,0.0
1944,485.75,41.7914,41.5957,152.066,99.2431,97.8318,0.00310274,0.2879,20.6821,76.1615,0.129738,0.0,0.0
1953,488,41.3558,41.8234,147.991,99.3102,97.5784,0.00313157,0.291047,20.6801,75.9614,0.159351,0.0,0.0
1962,490.25,41.4792,41.9498,145.035,99.387,97.2809,0.003193,0.293767,20.6763,75.7411,0.194014,0.0,0.0
1971,492.5,42.6399,42.6682,144.386,99.4529,97.4799,0.00321256,0.294988,20.6728,75.531,0.181501,0.0,0.0
1980,494.75,42.4607,42.0993,147.099,99.5244,97.4931,0.00315642,0.296275,20.6715,75.3408,0.186795,0.0,0.0
1989,497,42.4563,42.9743,143.865,99.6126,97.474,0.00312006,0.297673,20.6697,75.2207,0.196587,0.0,0.0
1998,499.25,42.7433,42.4656,148.596,99.6999,97.3772,0.0029999,0.299117,20.6662,74.9604,0.213521,0.0,0.0
2007,501.5,43.0242,43.0943,148.07,99.7694,97.7218,0.00285445,0.299781,20.6639,74.7903,0.187835,0.0,0.0
2016,503.75,42.7037,43.4321,148.858,99.8276,97.482,0.00299392,0.301355,20.6629,74.5801,0.215373,0.0,0.0
2025,506,43.0239,43.3119,149.531,99.8798,97.5262,0.00322836,0.303319,20.6615,74.4099,0.216003,0.0,0.0
2034,508.25,43.5066,43.7348,151.602,99.9053,97.5835,0.00343564,0.303681,20.6591,74.1497,0.212993,0.0,0.0
2043,510.5,43.369,43.7912,149.436,99.9566,97.4786,0.003661,0.302738,20.6558,73.9695,0.227382,0.0,0.0
2052,512.75,44.0024,43.8368,151.479,99.972,97.7931,0.00371644,0.302285,20.6552,73.7393,0.199597,0.0,0.0
2061,515,43.4557,43.9911,148.987,99.9889,97.9587,0.00370737,0.302452,20.6565,73.5491,0.185816,0.0,0.0
2070,517.25,43.3612,44.177,148.694,99.9881,97.9795,0.00370413,0.301865,20.6565,73.3789,0.183821,0.0,0.0
2079,519.5,43.4922,43.8711,143.871,100.01,97.7087,0.00359106,0.301179,20.657,73.1287,0.210829,0.0,0.0
2088,521.75,43.1597,43.7221,151.835,100.015,98.1068,0.00336762,0.300244,20.6575,72.9686,0.174474,0.0,0.0
2097,524,43.1888,44.1106,150.776,100.005,97.7948,0.00330648,0.298718,20.6589,72.8084,0.202407,0.0,0.0
2106,526.25,43.2867,44.1577,147.233,99.9991,97.4901,0.00330738,0.296851,20.66,72.6082,0.230163,0.0,0.0
2115,528.5,43.8029,44.2173,151.003,100.006,98.3992,0.00322643,0.294866,20.6625,72.418,0.146674,0.0,0.0
2124,530.75,43.2696,44.151,145.81,99.9732,98.0546,0.00315295,0.292248,20.6642,72.2479,0.175524,0.0,0.0
2133,533,43.5426,44.4389,148.018,99.9408,98.3703,0.00312603,0.29188,20.6693,72.0477,0.14347,0.0,0.0
2142,535.25,43.771,44.5224,150.86,99.896,97.9557,0.00314427,0.292673,20.6728,71.8575,0.177665,0.0,0.0
2151,537.5,43.7086,44.8,149.266,99.8527,97.8364,0.00309539,0.291973,20.6742,71.6673,0.184776,0.0,0.0
2160,539.75,43.6306,44.7697,148.125,99.8018,97.9502,0.00293271,0.291296,20.6747,71.5172,0.16963,0.0,0.0
2169,542,43.5687,44.6691,149.098,99.725,97.777,0.00280912,0.289804,20.6749,71.307,0.178684,0.0,0.0
2178,544.25,43.6508,44.7153,149.986,99.6304,97.9527,0.00276483,0.287783,20.6753,71.1769,0.153824,0.0,0.0
2187,546.5,43.4726,44.4418,145.997,99.5883,98.0355,0.0026698,0.286316,20.6782,70.9667,0.14235,0.0,0.0
2196,548.75,44.2251,44.7677,148.165,99.6243,97.8097,0.00262269,0.2858,20.6797,70.8265,0.166509,0.0,0.0
2205,551,43.6852,44.8943,150.737,99.6837,97.7371,0.0027292,0.285449,20.6813,70.6464,0.178634,0.0,0.0
2214,553.25,44.1809,45.0586,149.053,99.7423,97.7278,0.0027606,0.284481,20.6823,70.4462,0.184825,0.0,0.0
2223,555.5,44.0919,44.9355,148.788,99.7759,97.5652,0.00272744,0.283681,20.6832,70.256,0.20295,0.0,0.0
2232,557.75,43.823,45.1047,151.286,99.8276,97.9697,0.00274348,0.283701,20.6835,70.0758,0.170173,0.0,0.0
2241,560,43.9415,45.0146,149.276,99.8725,97.9315,0.0027316,0.283292,20.6836,69.8456,0.177776,0.0,0.0
2250,562.25,44.0991,45.6773,150.181,99.9142,98.0546,0.0026631,0.28164,20.6836,69.6254,0.170174,0.0,0.0
2259,564.5,43.8419,45.2369,148.396,99.9388,97.7859,0.00262727,0.280906,20.6848,69.5253,0.197263,0.0,0.0
2268,566.75,43.9783,45.2587,146.615,99.9898,98.2519,0.00271713,0.279994,20.6855,69.3251,0.158812,0.0,0.0
2277,569,43.8712,45.2665,149.24,100.025,97.9298,0.00279491,0.278045,20.6866,69.175,0.191782,0.0,0.0
2286,571.25,43.488,45.1863,140.736,100.052,98.2006,0.00288081,0.276839,20.6876,69.0849,0.169149,0.0,0.0
2295,573.5,43.5132,44.8178,150.147,100.075,97.9039,0.00306195,0.275484,20.688,68.9147,0.198641,0.0,0.0
2304,575.75,43.9312,45.3544,150.089,100.098,97.9977,0.00320921,0.274144,20.689,68.7346,0.19209,0.0,0.0
2313,578,43.248,44.836,155.729,100.112,98.0495,0.00318465,0.273918,20.69,68.4643,0.188585,0.0,0.0
2322,580.25,43.0233,44.9262,150.411,100.124,97.8449,0.00311932,0.273896,20.6932,68.3642,0.208601,0.0,0.0
2331,582.5,43.362,44.7396,151.435,100.171,97.8908,0.00316033,0.271591,20.6944,68.2341,0.2086,0.0,0.0
2340,584.75,42.9362,44.8091,147.436,100.184,97.8148,0.00338506,0.268062,20.6957,68.084,0.216766,0.0,0.0
2349,587,42.8504,44.4285,152.067,100.202,98.2999,0.00372956,0.265007,20.6993,67.9338,0.173562,0.0,0.0
2358,589.25,42.732,44.3103,149.356,100.198,98.2749,0.00390675,0.262759,20.7026,67.7837,0.175577,0.0,0.0
2367,591.5,42.3452,44.0609,152.622,100.215,97.8644,0.00389227,0.259944,20.7041,67.6035,0.214946,0.0,0.0
2376,593.75,42.4622,44.366,155.808,100.216,97.9077,0.00378939,0.256977,20.7074,67.4834,0.211087,0.0,0.0
2385,596,42.2074,44.3994,151.594,100.212,97.4396,0.00369585,0.251847,20.7101,67.4133,0.254134,0.0,0.0
2394,598.25,42.0762,44.0131,154.212,100.183,98.1038,0.00366839,0.245598,20.7152,67.2732,0.189967,0.0,0.0
2403,600.5,41.5173,43.8308,150.92,100.172,97.4574,0.00387587,0.241511,20.7213,67.2131,0.24886,0.0,0.0
2412,602.75,41.2671,43.7713,154.452,100.169,98.2137,0.00411002,0.236634,20.7262,67.083,0.178581,0.0,0.0
2421,605,41.4582,42.91,154.823,100.153,97.9464,0.00432785,0.231513,20.731,66.9829,0.201775,0.0,0.0
2430,607.25,41.0704,43.4467,156.045,100.151,98.2973,0.00471154,0.224391,20.737,66.9129,0.169227,0.0,0.0
2439,609.5,40.5377,42.9017,154.056,100.109,98.1586,0.00521085,0.216137,20.7434,66.7627,0.178258,0.0,0.0
2448,611.75,40.2037,42.7593,150.302,100.081,98.3491,0.00568716,0.209243,20.7511,66.7027,0.158093,0.0,0.0
2457,614,40.1624,42.0508,156.135,100.05,97.9739,0.00603009,0.202751,20.7584,66.6026,0.189896,0.0,0.0
2466,616.25,39.6678,42.1695,156.343,100.018,98.5291,0.00622905,0.196306,20.7672,66.5425,0.135898,0.0,0.0
2475,618.5,39.2426,41.9141,153.76,99.9869,99.1233,0.00650583,0.190988,20.7754,66.4424,0.0785798,0.0,0.0
2484,620.75,38.6513,41.8068,152.462,99.9368,98.8024,0.00703603,0.186567,20.7802,66.4024,0.103406,0.0,0.0
2493,623,38.2568,41.6432,154.84,99.8935,99.0613,0.00755419,0.182409,20.7831,66.2923,0.0757812,0.0,0.0
2502,625.25,38.7229,41.1132,153.025,99.8721,99.4191,0.00792275,0.179544,20.7874,66.2723,0.0411817,0.0,0.0
2511,627.5,38.327,40.6312,155.919,99.8026,99.4951,0.00807259,0.177156,20.7903,66.1922,0.0279528,0.0,0.0
2520,629.75,38.3732,40.8631,155.002,99.7496,99.5766,0.00816009,0.173871,20.7926,66.052,0.0157288,0.0,0.0
2529,632,37.5822,40.2235,152.735,99.706,99.6321,0.00829841,0.170744,20.7959,66.0921,0.00670848,0.0,0.0
2538,634.25,37.3057,39.9874,154.504,99.687,99.5978,0.00854717,0.166804,20.7985,66.1021,0.00810784,0.0,0.0
2547,636.5,36.4519,39.5116,152.429,99.6271,99.5417,0.00890708,0.161859,20.8038,65.992,0.00776584,0.0,0.0
2556,638.75,36.7601,39.5907,160.297,99.5972,99.4891,0.00918059,0.156969,20.8106,65.952,0.00983597,0.0,0.0
2565,641,36.7705,39.4125,156.539,99.5649,99.4811,0.00933035,0.153498,20.8153,65.8719,0.00762883,0.0,0.0
2574,643.25,36.73,38.7217,160.295,99.6073,99.5536,0.00957407,0.1492,20.8192,65.8218,0.00488371,0.0,0.0
2583,645.5,36.4557,38.0942,155.452,99.6817,99.6245,0.00989644,0.14427,20.8238,65.7017,0.00519883,0.0,0.0
2592,647.75,35.624,38.5491,155.784,99.7694,99.8062,0.0100429,0.141015,20.8284,65.6717,-0.00333396,0.0,0.0
2601,650,35.3162,38.2285,157.317,99.8394,99.8011,0.0101319,0.139373,20.8342,65.6617,0.00347522,0.0,0.0
2610,652.25,35.0467,37.5469,156.346,99.8656,99.7998,0.0107855,0.136477,20.8377,65.6116,0.00597473,0.0,0.0
2619,654.5,34.7951,37.2211,158.898,99.9178,99.9229,0.0119096,0.132635,20.8413,65.5316,-0.000460547,0.0,0.0
2628,656.75,34.1688,36.9921,156.08,99.9408,99.9093,0.0129171,0.12943,20.8449,65.5015,0.00285886,0.0,0.0
2637,659,34.0544,36.1349,157.339,99.9728,99.9135,0.0135133,0.126395,20.8501,65.4715,0.00536934,0.0,0.0
2646,661.25,33.9338,36.2595,159.764,99.9732,99.9959,0.0136879,0.127695,20.8537,65.4114,-0.00205618,0.0,0.0
2655,663.5,33.734,36.3561,154.305,99.9853,99.9246,0.0135834,0.131094,20.8549,65.3814,0.00550316,0.0,0.0
2664,665.75,33.7922,36.2119,159.299,100.003,99.8554,0.0135617,0.133436,20.8518,65.3514,0.0133883,0.0,0.0
2673,668,33.7914,36.0097,157.962,99.997,99.9458,0.013916,0.133095,20.8489,65.3013,0.00464304,0.0,0.0
2682,670.25,33.4055,35.2022,156.793,99.9877,99.8448,0.0142626,0.130602,20.8478,65.2613,0.0129591,0.0,0.0
2691,672.5,33.2259,35.6979,156.769,99.9853,99.8783,0.0144902,0.127333,20.849,65.1912,0.00969791,0.0,0.0
2700,674.75,32.3774,34.7955,157.539,99.9845,99.9513,0.0147895,0.124723,20.8529,65.1312,0.00300675,0.0,0.0
2709,677,32.7053,34.8973,157.745,99.9667,99.8753,0.0152701,0.122819,20.8566,65.1012,0.00828261,0.0,0.0
2718,679.25,32.1021,34.7478,156.723,99.9792,99.9084,0.015558,0.121817,20.8597,65.0511,0.00641607,0.0,0.0
2727,681.5,32.2758,34.5,155.837,99.9768,99.8749,0.015541,0.120706,20.8621,64.951,0.00923731,0.0,0.0
2736,683.75,31.9911,34.2282,159.266,99.9691,99.8537,0.0154489,0.12042,20.8629,64.971,0.0104659,0.0,0.0
2745,686,31.738,33.9559,151.328,99.9679,99.925,0.0150453,0.120916,20.8632,64.931,0.00389077,0.0,0.0
2754,688.25,31.7008,33.6779,156.437,99.9704,99.9055,0.014596,0.121019,20.8622,64.8609,0.00588085,0.0,0.0
2763,690.5,31.6704,33.3917,155.304,99.9841,99.9318,0.0142281,0.119742,20.8625,64.8209,0.00473909,0.0,0.0
2772,692.75,31.4469,33.2166,156.614,99.9853,99.9411,0.0140222,0.117606,20.863,64.7909,0.00400302,0.0,0.0
2781,695,31.5226,33.3014,157.905,99.9849,99.973,0.014009,0.116479,20.866,64.8109,0.0010819,0.0,0.0
2790,697.25,31.3631,33.3363,155.225,99.9914,99.9017,0.0139645,0.116439,20.8678,64.7608,0.0081305,0.0,0.0
2799,699.5,31.7286,33.1019,155.035,100.013,99.9165,0.0138346,0.116902,20.8685,64.7108,0.00876051,0.0,0.0
2808,701.75,30.8759,33.1441,157.849,99.9873,99.8932,0.0137814,0.117606,20.8688,64.6908,0.00853397,0.0,0.0
2817,704,30.8941,32.8683,158.433,99.9991,99.9424,0.0138331,0.117501,20.8682,64.6307,0.005133,0.0,0.0
2826,706.25,31.1772,32.0341,155.488,100.002,99.9203,0.0139955,0.116958,20.8673,64.6107,0.00738931,0.0,0.0
2835,708.5,30.8625,32.6588,156.99,99.9922,99.8787,0.0141345,0.117272,20.8668,64.6107,0.0102825,0.0,0.0
2844,710.75,30.4736,32.2553,156.221,99.9813,99.9373,0.0142554,0.117754,20.8667,64.5406,0.00398251,0.0,0.0
2853,713,30.9695,32.3785,157.932,99.9732,99.9526,0.0143874,0.118155,20.8666,64.5006,0.00186678,0.0,0.0
2862,715.25,30.9215,32.1723,161.194,99.9744,99.9717,0.0143293,0.118196,20.8666,64.5206,0.000245112,0.0,0.0
2871,717.5,30.841,32.2336,157.077,99.9255,99.8223,0.0142436,0.118882,20.8666,64.4706,0.00935813,0.0,0.0
2880,719.75,30.6866,32.0628,157.723,99.9109,99.8393,0.0141507,0.119492,20.8664,64.4305,0.00649915,0.0,0.0
2889,722,30.3985,31.9694,159.468,99.8798,99.7315,0.014095,0.119707,20.8669,64.4205,0.0134616,0.0,0.0
2898,724.25,29.9751,31.2841,154.656,99.8272,99.7981,0.0140352,0.121611,20.8673,64.3905,0.00264513,0.0,0.0
2907,726.5,30.0177,31.5981,157.299,99.784,99.678,0.0138717,0.123587,20.8657,64.3605,0.00962671,0.0,0.0
2916,728.75,30.4755,31.6467,156.704,99.729,99.65,0.0135936,0.125565,20.8628,64.3004,0.00718107,0.0,0.0
2925,731,30.8127,31.5326,157.852,99.6801,99.5897,0.0133489,0.126277,20.8617,64.3004,0.0082168,0.0,0.0
2934,733.25,30.3748,31.1131,158.496,99.6081,99.5252,0.0131665,0.125634,20.8613,64.2804,0.00754575,0.0,0.0
2943,735.5,30.753,31.4126,158.723,99.5778,99.5002,0.0129919,0.124913,20.8606,64.2504,0.0070667,0.0,0.0
2952,737.75,30.4519,31.5916,154.758,99.5976,99.5664,0.0129539,0.124229,20.8603,64.2303,0.00284267,0.0,0.0
2961,740,30.2912,30.8832,158.273,99.6352,99.6169,0.0128909,0.123287,20.8602,64.1703,0.00166814,0.0,0.0
2970,742.25,30.2542,31.1843,159.096,99.6591,99.5574,0.0128121,0.12171,20.8614,64.1403,0.00924055,0.0,0.0
2979,744.5,30.5127,31.4773,154.607,99.6979,99.6483,0.0128575,0.12184,20.8625,64.1503,0.00450705,0.0,0.0
2988,746.75,30.2323,31.2092,159.335,99.7391,99.5914,0.0130645,0.121739,20.8629,64.0702,0.0134239,0.0,0.0
2997,749,29.8505,31.0179,156.266,99.7581,99.6924,0.0132144,0.121162,20.8616,64.0502,0.00596718,0.0,0.0
3006,751.25,29.7629,30.7462,158.644,99.7969,99.65,0.0131159,0.121081,20.8611,64.0201,0.0133473,0.0,0.0
3015,753.5,29.9735,30.8932,154.226,99.828,99.765,0.0128487,0.120763,20.8609,63.9901,0.0057233,0.0,0.0
3024,755.75,29.7546,30.6278,161.192,99.8531,99.6869,0.0126384,0.120055,20.8623,63.9601,0.0150906,0.0,0.0
3033,758,29.433,30.9103,156.387,99.8673,99.7366,0.0124702,0.118686,20.8653,63.9501,0.0118625,0.0,0.0
3042,760.25,29.9723,30.1778,160.279,99.9049,99.807,0.01225,0.117482,20.8669,63.91,0.00887702,0.0,0.0
3051,762.5,29.4015,30.0709,158.952,99.9263,99.7849,0.0122051,0.116519,20.8675,63.87,0.0128211,0.0,0.0
3060,764.75,29.4574,30.4846,155.738,99.9372,99.8499,0.0122608,0.115767,20.8682,63.82,0.00791796,0.0,0.0
3069,767,29.5093,30.4626,156.823,99.9513,99.8554,0.0122196,0.115275,20.8691,63.7899,0.0087001,0.0,0.0
3078,769.25,29.6012,30.0363,162.512,99.9546,99.8125,0.0123327,0.115949,20.8694,63.7699,0.0128826,0.0,0.0
3087,771.5,29.8038,30.6377,155.401,99.959,99.8304,0.0123931,0.1167,20.8693,63.7499,0.0116684,0.0,0.0
3096,773.75,29.2117,30.2017,154.278,99.9461,99.8142,0.0123107,0.116305,20.868,63.7299,0.0119585,0.0,0.0
3105,776,29.3182,30.1071,156.986,99.9663,99.8775,0.0122338,0.115623,20.8675,63.6998,0.0080539,0.0,0.0
3114,778.25,29.3054,30.194,157.185,99.9796,99.8783,0.0122894,0.114588,20.8688,63.6498,0.00918553,0.0,0.0
3123,780.5,28.9379,29.9763,157.418,99.9635,99.8745,0.0122691,0.113774,20.8702,63.6698,0.00806685,0.0,0.0
3132,782.75,29.5202,29.8028,158.23,99.9518,99.8083,0.0120654,0.112902,20.8715,63.6098,0.0130109,0.0,0.0
3141,785,29.3771,29.3968,159.407,99.9598,99.7964,0.0119415,0.111879,20.8732,63.5597,0.0148222,0.0,0.0
3150,787.25,29.1163,29.6121,154.956,99.9477,99.8236,0.0121035,0.110814,20.8739,63.5597,0.0112575,0.0,0.0
3159,789.5,28.9239,29.5891,157.83,99.9303,99.835,0.0123166,0.109854,20.8733,63.5097,0.00864293,0.0,0.0
3168,791.75,28.7845,29.6839,154.74,99.9283,99.8393,0.0123724,0.10962,20.8753,63.4796,0.0080744,0.0,0.0
3177,794,28.8013,29.5134,157.89,99.9137,99.7298,0.0123434,0.109141,20.8766,63.4696,0.0166945,0.0,0.0
3186,796.25,28.7133,29.046,159.628,99.9041,99.8155,0.0123555,0.107714,20.877,63.3996,0.00803232,0.0,0.0
3195,798.5,28.9096,29.8575,156.915,99.8693,99.7357,0.0126219,0.10654,20.8777,63.3795,0.0121235,0.0,0.0
3204,800.75,29.2418,29.2494,161.824,99.8745,99.7425,0.0128891,0.105515,20.8791,63.3495,0.0119833,0.0,0.0
3213,803,28.9237,29.2821,160.983,99.8462,99.7595,0.0131541,0.10449,20.8809,63.3195,0.00787481,0.0,0.0
3222,805.25,28.686,29.4255,162.485,99.8264,99.6415,0.0134193,0.103542,20.8816,63.3195,0.0167969,0.0,0.0
3231,807.5,28.5949,29.6852,156.578,99.7998,99.6415,0.013469,0.103042,20.8819,63.3095,0.0143759,0.0,0.0
3240,809.75,28.8236,29.3135,158.21,99.7751,99.6258,0.0133388,0.102888,20.8834,63.2694,0.0135651,0.0,0.0
3249,812,29.0373,29.2581,156.62,99.7529,99.6631,0.013312,0.102756,20.8847,63.2494,0.00815099,0.0,0.0
3258,814.25,28.6816,28.981,158.41,99.7242,99.5859,0.0133609,0.102745,20.8859,63.2895,0.0125677,0.0,0.0
3267,816.5,28.582,28.9904,157.146,99.712,99.6258,0.0134377,0.103106,20.8864,63.2394,0.00783705,0.0,0.0
3276,818.75,28.3312,28.7895,158.211,99.6963,99.5973,0.0135982,0.103078,20.8866,63.2094,0.00899137,0.0,0.0
3285,821,28.5937,28.7405,152.866,99.6724,99.5515,0.0137111,0.102466,20.8867,63.2194,0.0109943,0.0,0.0
3294,823.25,28.4866,29.1415,159.866,99.6534,99.5795,0.0137321,0.102783,20.8867,63.1393,0.0067182,0.0,0.0
3303,825.5,28.3554,28.8954,152.495,99.6421,99.4785,0.0136975,0.103124,20.8867,63.1293,0.0148826,0.0,0.0
3312,827.75,28.4798,29.1303,157.543,99.6247,99.5006,0.0137052,0.102647,20.8867,63.0993,0.011292,0.0,0.0
3321,830,28.4326,28.9015,159.478,99.5968,99.3885,0.0137834,0.102657,20.8872,63.0692,0.018962,0.0,0.0
3330,832.25,28.6678,28.9854,158.887,99.6122,99.5091,0.0140203,0.102925,20.8861,63.0492,0.00938078,0.0,0.0
3339,834.5,28.0883,29.0203,158.744,99.5916,99.4662,0.0141551,0.102376,20.8854,63.0092,0.0114085,0.0,0.0
3348,836.75,28.1299,28.5989,158.742,99.5968,99.521,0.0141264,0.101598,20.885,63.0092,0.00690162,0.0,0.0
3357,839,28.1574,28.5735,154.54,99.5823,99.4577,0.01404,0.101399,20.886,62.9892,0.0113351,0.0,0.0
3366,841.25,28.4969,28.745,156.378,99.6009,99.515,0.0138867,0.10092,20.8864,62.9792,0.00781008,0.0,0.0
3375,843.5,28.2552,28.886,155.424,99.6029,99.5086,0.0137873,0.100768,20.8861,62.9191,0.00857389,0.0,0.0
3384,845.75,28.0415,28.4621,159.177,99.6142,99.4802,0.0138942,0.101006,20.886,62.9091,0.0121914,0.0,0.0
3393,848,28.2962,28.5443,160.557,99.6316,99.5167,0.0141864,0.101374,20.885,62.8691,0.0104497,0.0,0.0
3402,850.25,28.2829,28.4479,153.28,99.6542,99.4726,0.0144142,0.101724,20.8841,62.849,0.0165264,0.0,0.0
3411,852.5,28.0742,28.6779,157.614,99.6566,99.4883,0.0143995,0.101934,20.8837,62.829,0.0153159,0.0,0.0
3420,854.75,27.882,28.2044,159.321,99.6534,99.4861,0.0141914,0.10147,20.8836,62.819,0.0152157,0.0,0.0
3429,857,28.3618,28.3845,156.562,99.7031,99.5715,0.0139249,0.100316,20.8836,62.829,0.0119703,0.0,0.0
3438,859.25,27.8998,28.4023,159.921,99.7197,99.6848,0.0136373,0.100068,20.8844,62.829,0.00317298,0.0,0.0
3447,861.5,27.895,28.1523,155.999,99.7339,99.6423,0.0134372,0.10028,20.8862,62.779,0.00831605,0.0,0.0
3456,863.75,27.9105,28.4811,156.914,99.7549,99.6576,0.0136386,0.10039,20.8857,62.7489,0.00883603,0.0,0.0
3465,866,27.9503,28.2469,154.827,99.7949,99.6979,0.0141109,0.100057,20.8853,62.7089,0.00880474,0.0,0.0
3474,868.25,27.2102,27.5872,156.465,99.8179,99.6992,0.0142495,0.0993982,20.8858,62.6989,0.0107808,0.0,0.0
3483,870.5,27.4802,27.9812,154.732,99.8216,99.6716,0.0141122,0.0994595,20.8868,62.6589,0.0136179,0.0,0.0
3492,872.75,27.9173,28.3229,158.078,99.8454,99.6903,0.0139976,0.0997571,20.8872,62.6288,0.0140848,0.0,0.0
3501,875,27.8638,28.3571,158.762,99.8834,99.7395,0.0138121,0.100933,20.8864,62.5988,0.0130594,0.0,0.0
3510,877.25,28.3325,28.5852,159.435,99.8988,99.7349,0.0136447,0.101967,20.8846,62.6288,0.0148772,0.0,0.0
3519,879.5,28.3022,28.5474,161.377,99.9162,99.8138,0.0137143,0.102111,20.8826,62.6288,0.00928585,0.0,0.0
3528,881.75,28.0895,28.1243,157.384,99.9481,99.8584,0.0139589,0.101806,20.8812,62.5888,0.00813697,0.0,0.0
3537,884,28.248,28.481,160.278,99.9744,99.8482,0.0140327,0.101449,20.8811,62.5688,0.011443,0.0,0.0
3546,886.25,28.1637,28.3453,157.301,99.9934,99.8482,0.0139818,0.101675,20.8821,62.5387,0.013164,0.0,0.0
3555,888.5,27.7884,28.5074,159.628,100.024,99.9012,0.0140029,0.102196,20.8824,62.5287,0.011099,0.0,0.0
3564,890.75,27.5226,27.8951,163.276,100.068,99.9097,0.0140416,0.101758,20.8826,62.4987,0.0143187,0.0,0.0
3573,893,27.8191,28.0901,162.471,100.106,99.9356,0.0140771,0.100497,20.8827,62.4587,0.0154474,0.0,0.0
3582,895.25,27.5913,27.4717,156.749,100.125,100.029,0.0142571,0.0996803,20.8842,62.4286,0.00870873,0.0,0.0
3591,897.5,27.9359,28.3566,158.521,100.167,100.004,0.0144584,0.099061,20.8862,62.4387,0.0147413,0.0,0.0
3600,899.75,27.6226,27.5438,160.838,100.193,100.04,0.014567,0.098826,20.8869,62.4186,0.013812,0.0,0.0
3609,902,26.8597,27.5745,156.096,100.219,100.025,0.014636,0.0986494,20.8872,62.4286,0.0176096,0.0,0.0
3618,904.25,27.4795,27.793,161.038,100.237,100.137,0.0146823,0.0979433,20.8873,62.3986,0.00903667,0.0,0.0
3627,906.5,27.6846,27.8663,156.81,100.257,100.209,0.0146726,0.0975206,20.887,62.3586,0.00426637,0.0,0.0
3636,908.75,27.0848,28.0615,156.82,100.276,100.179,0.0145916,0.0971566,20.8875,62.3586,0.00877993,0.0,0.0
3645,911,27.7813,28.1325,156.555,100.28,100.178,0.0144872,0.0968677,20.8885,62.3386,0.00922221,0.0,0.0
3654,913.25,27.8204,27.8431,156.488,100.303,100.161,0.0145243,0.0969045,20.8884,62.3286,0.0127651,0.0,0.0
3663,915.5,27.5306,27.6745,158.693,100.311,100.16,0.0146266,0.096823,20.8874,62.3085,0.0136481,0.0,0.0
3672,917.75,27.5811,27.678,157.749,100.316,100.184,0.0147354,0.0959948,20.8882,62.2685,0.0119337,0.0,0.0
3681,920,27.9044,28.2541,159.851,100.335,100.173,0.0147436,0.095866,20.89,62.2585,0.0146465,0.0,0.0
3690,922.25,27.3639,28.1467,157.217,100.342,100.188,0.0146774,0.0960596,20.8909,62.2385,0.0139629,0.0,0.0
3699,924.5,27.7501,27.9803,162.438,100.371,100.252,0.0145739,0.0959824,20.8916,62.2285,0.0107614,0.0,0.0
3708,926.75,27.3766,27.8233,156.948,100.353,100.221,0.014405,0.0962004,20.8921,62.1884,0.0118808,0.0,0.0
3717,929,27.6137,27.7348,158.21,100.371,100.234,0.0143298,0.0962863,20.8922,62.1484,0.012447,0.0,0.0
3726,931.25,27.5229,27.6728,155.43,100.375,100.222,0.0144188,0.0959002,20.8935,62.0883,0.0138853,0.0,0.0
3735,933.5,27.4635,27.4529,162.545,100.371,100.195,0.0144775,0.095484,20.8927,62.1083,0.0159368,0.0,0.0
3744,935.75,27.5041,27.4572,156.479,100.384,100.219,0.0143283,0.0950716,20.8932,62.0983,0.0148448,0.0,0.0
3753,938,27.2268,27.6509,158.767,100.384,100.262,0.0141903,0.0944333,20.8935,62.0583,0.011045,0.0,0.0
3762,940.25,27.567,27.5973,154.925,100.403,100.302,0.0142668,0.0936264,20.8936,62.0583,0.0090809,0.0,0.0
3771,942.5,27.6678,27.7586,160.01,100.394,100.23,0.0144138,0.0932257,20.8936,62.0383,0.014833,0.0,0.0
3780,944.75,27.2476,27.7398,161.599,100.399,100.287,0.0145923,0.0937138,20.8936,61.9882,0.0100938,0.0,0.0
3789,947,27.6056,27.7585,154.032,100.423,100.296,0.0148909,0.0935255,20.8936,61.9682,0.0114042,0.0,0.0
3798,949.25,27.5052,28.1094,153.639,100.403,100.342,0.0150913,0.0928377,20.895,61.9582,0.00547942,0.0,0.0
3807,951.5,27.4041,27.5011,159.144,100.407,100.248,0.0150493,0.0922195,20.8964,61.9382,0.0143144,0.0,0.0
3816,953.75,25.4589,25.8604,156.918,100.419,100.256,0.0150349,0.0917304,20.8967,61.9282,0.0147931,0.0,0.0
3825,956,25.3609,26.1441,155.806,100.431,100.332,0.0149708,0.0912079,20.8975,61.8681,0.00891477,0.0,0.0
3834,958.25,25.3413,25.9669,157.598,100.43,100.286,0.0148577,0.0912045,20.898,61.8681,0.0129807,0.0,0.0
3843,960.5,25.7722,25.4753,159.919,100.449,100.346,0.0146983,0.0913913,20.8982,61.8081,0.00928801,0.0,0.0
3852,962.75,25.4622,25.6122,162.004,100.46,100.281,0.0144862,0.0916276,20.8983,61.8581,0.016175,0.0,0.0
3861,965,25.0029,25.3757,158.676,100.472,100.361,0.0142502,0.0912067,20.8986,61.8481,0.00999021,0.0,0.0
3870,967.25,25.9395,25.941,158.618,100.472,100.299,0.013922,0.0907071,20.9004,61.8281,0.0155854,0.0,0.0
3879,969.5,25.617,26.1093,158.094,100.476,100.291,0.0136512,0.0901699,20.9011,61.8181,0.0166784,0.0,0.0
3888,971.75,25.6701,26.1669,153.177,100.489,100.283,0.0136273,0.0905296,20.9014,61.758,0.0186096,0.0,0.0
3897,974,25.7107,26.203,156.71,100.476,100.337,0.0138426,0.0909204,20.9015,61.738,0.0125009,0.0,0.0
3906,976.25,25.7904,25.7434,157.711,100.489,100.343,0.0139783,0.0907505,20.9006,61.778,0.0131284,0.0,0.0
3915,978.5,25.2625,25.6776,156.304,100.498,100.39,0.0138606,0.0906611,20.9006,61.758,0.00968065,0.0,0.0
3924,980.75,25.3301,25.3241,158.645,100.498,100.307,0.0138029,0.0908569,20.9016,61.698,0.0171892,0.0,0.0
3933,983,25.7899,25.9278,161.353,100.471,100.321,0.0139583,0.0905975,20.902,61.6779,0.0135554,0.0,0.0
3942,985.25,25.7867,25.7216,159.684,100.476,100.409,0.0139695,0.0901944,20.9021,61.6279,0.00606214,0.0,0.0
3951,987.5,25.6457,26.3274,158.319,100.477,100.335,0.0138171,0.0905055,20.9022,61.6679,0.0128395,0.0,0.0
3960,989.75,25.7813,25.7419,160.925,100.448,100.341,0.0137367,0.0914941,20.9011,61.5178,0.00967741,0.0,0.0
3969,992,25.1314,26.0224,160.296,100.441,100.287,0.0135991,0.0920347,20.8994,61.718,0.0139629,0.0,0.0
3978,994.25,25.5536,26.0248,160.37,100.413,100.295,0.0135179,0.0922749,20.8982,61.5779,0.0106082,0.0,0.0
3987,996.5,25.745,25.5813,159.428,100.398,100.262,0.0135074,0.0923305,20.8978,61.6079,0.0122852,0.0,0.0
3996,998.75,25.7536,25.2808,160.88,100.347,100.214,0.0134939,0.0921144,20.8975,61.5879,0.0119854,0.0,0.0
4005,1001,25.4996,25.6496,159.448,100.317,100.212,0.0135164,0.0921064,20.8971,61.5578,0.00951346,0.0,0.0
4014,1003.25,25.789,25.5618,155.881,100.29,100.12,0.0134508,0.0916547,20.8969,61.5578,0.015359,0.0,0.0
4023,1005.5,25.1841,25.5735,158.626,100.256,100.067,0.0133257,0.09113,20.8973,61.5478,0.0171289,0.0,0.0
4032,1007.75,25.4676,26.4459,155.49,100.192,100.132,0.0132218,0.0908473,20.8985,61.4978,0.00540495,0.0,0.0
4041,1010,26.0738,25.9405,155.508,100.159,99.9836,0.0132051,0.0912225,20.8989,61.4878,0.0158926,0.0,0.0
4050,1012.25,25.8918,26.1509,157.128,100.099,100.027,0.0132294,0.0918621,20.8979,61.4778,0.00652074,0.0,0.0
4059,1014.5,25.7137,25.8894,152.974,100.04,99.9887,0.0132239,0.0919337,20.8972,61.4577,0.00463872,0.0,0.0
4068,1016.75,25.2774,26.1319,156.923,99.976,99.953,0.0132538,0.0920138,20.897,61.4577,0.00208378,0.0,0.0
4077,1019,25.7622,25.4349,157.93,99.9247,99.8287,0.013153,0.0915013,20.8969,61.4577,0.00870765,0.0,0.0
4086,1021.25,25.5088,25.6543,157.782,99.8907,99.7383,0.0129447,0.0913936,20.8969,61.4077,0.0138357,0.0,0.0
4095,1023.5,25.6386,25.9977,156.556,99.8175,99.644,0.012808,0.0914746,20.8977,61.4177,0.0157579,0.0,0.0
4104,1025.75,25.8873,25.6797,156.104,99.7694,99.5774,0.0127446,0.0910534,20.8988,61.4077,0.0174511,0.0,0.0
4113,1028,26.0895,26.3257,159.735,99.7213,99.6105,0.0125685,0.0903372,20.8984,61.3576,0.0100711,0.0,0.0
4122,1030.25,25.0824,25.8567,159.302,99.6635,99.5481,0.0123857,0.0895252,20.8995,61.3576,0.010495,0.0,0.0
4131,1032.5,25.4434,26.1282,160.942,99.6352,99.5464,0.0122258,0.0886898,20.9008,61.3276,0.00807656,0.0,0.0
4140,1034.75,25.3367,25.1533,156.407,99.5956,99.4174,0.0122436,0.0884193,20.9027,61.3376,0.0162224,0.0,0.0
4149,1037,25.5021,25.5703,156.221,99.5519,99.417,0.0123704,0.0882301,20.9043,61.2876,0.0122884,0.0,0.0
4158,1039.25,25.1695,25.5241,157.246,99.5204,99.38,0.0124318,0.0882424,20.9049,61.2676,0.0127845,0.0,0.0
4167,1041.5,24.9658,25.7885,158.142,99.4856,99.3427,0.0123875,0.0880325,20.9056,61.2275,0.0130238,0.0,0.0
4176,1043.75,25.4244,25.791,157.692,99.4594,99.3796,0.0122864,0.0882828,20.9059,61.2275,0.00726523,0.0,0.0
4185,1046,25.2038,25.4099,156.943,99.423,99.2981,0.0122558,0.0884789,20.9049,61.2075,0.0113804,0.0,0.0
4194,1048.25,25.6663,25.4178,158.209,99.3979,99.2973,0.0122639,0.0888802,20.9043,61.1575,0.00917475,0.0,0.0
4203,1050.5,25.4141,25.4869,156.54,99.3785,99.2349,0.0122091,0.0889218,20.9037,61.1675,0.0130993,0.0,0.0
4212,1052.75,25.0623,25.4639,162.071,99.3446,99.2196,0.0120124,0.0884665,20.9033,61.1875,0.0113988,0.0,0.0
4221,1055,25.1915,25.4325,154.724,99.2928,99.0821,0.0117908,0.0880902,20.9032,61.1675,0.0192421,0.0,0.0
4230,1057.25,25.2844,25.4284,159.196,99.2734,99.136,0.0117284,0.0878937,20.9045,61.1374,0.0125451,0.0,0.0
4239,1059.5,25.2947,25.3962,160.125,99.233,99.1364,0.0117285,0.0875942,20.9051,61.1474,0.00881661,0.0,0.0
4248,1061.75,25.2932,25.5932,158.095,99.1845,99.0745,0.0115967,0.0872559,20.9053,61.1274,0.0100517,0.0,0.0
4257,1064,25.7322,25.8776,159.973,99.1295,99.001,0.011482,0.0869794,20.9054,61.1174,0.0117439,0.0,0.0
4266,1066.25,25.009,25.8,160.651,99.0814,98.9628,0.0115014,0.0866904,20.9065,61.0874,0.0108434,0.0,0.0
4275,1068.5,25.4228,25.5273,159.48,99.028,98.8656,0.0115533,0.0865806,20.9077,61.0674,0.0148631,0.0,0.0
4284,1070.75,25.2687,25.6521,158.304,98.9706,98.8597,0.0115813,0.0865415,20.9087,61.0574,0.0101552,0.0,0.0
4291,1072.5,25.1098,25.5128,158.328,98.9342,98.8512,0.0115808,0.0866671,20.909,61.0474,0.00760185,0.0,0.0