File: 01_Data/Homasote/Cone/Homasote_HRRPUA_50.csv
Time after Ignition,Homasote_R1,Homasote_R2,Homasote_R3,Mean,Std. Dev.
0.0,12.2,10.5,17.1,13.3,3.4
0.75,12.2,9.2,15.8,12.4,3.3
1.5,12.5,8.6,15.4,12.2,3.4
2.25,12.2,8.0,13.6,11.3,2.9
3.0,11.7,7.6,12.8,10.7,2.8
3.75,11.1,7.0,11.9,10.0,2.6
4.5,10.5,6.6,11.5,9.5,2.6
5.25,9.6,6.4,11.1,9.0,2.4
6.0,8.9,6.0,10.8,8.6,2.4
6.75,8.1,6.1,10.7,8.3,2.3
7.5,7.5,6.0,10.9,8.1,2.5
8.25,7.4,6.4,11.2,8.4,2.5
9.0,8.1,7.0,12.3,9.1,2.8
9.75,9.8,7.5,14.5,10.6,3.6
10.5,21.2,7.9,17.3,15.5,6.8
11.25,29.3,12.2,26.7,22.7,9.2
12.0,53.7,21.7,32.9,36.1,16.3
12.75,79.2,37.0,48.9,55.0,21.7
13.5,101.8,63.6,68.4,77.9,20.8
14.25,123.5,83.6,88.8,98.6,21.7
15.0,139.4,108.0,109.3,118.9,17.8
15.75,154.4,126.3,133.9,138.2,14.6
16.5,170.5,154.5,157.2,160.7,8.5
17.25,183.1,164.9,172.2,173.4,9.2
18.0,195.4,175.2,183.7,184.8,10.1
18.75,200.2,190.7,191.7,194.2,5.2
19.5,207.8,196.8,204.6,203.0,5.7
20.25,210.8,202.7,210.9,208.1,4.7
21.0,211.8,206.9,214.8,211.2,4.0
21.75,215.0,210.5,215.3,213.6,2.7
22.5,215.4,214.2,220.7,216.8,3.5
23.25,214.4,212.9,221.3,216.2,4.5
24.0,214.2,219.1,225.4,219.6,5.6
24.75,216.5,224.2,223.9,221.5,4.3
25.5,214.1,217.8,227.4,219.8,6.8
26.25,213.1,216.9,224.7,218.2,5.9
27.0,215.5,214.5,224.8,218.3,5.7
27.75,213.4,214.8,225.7,218.0,6.7
28.5,213.5,214.8,225.5,217.9,6.6
29.25,212.5,214.9,221.8,216.4,4.8
30.0,214.0,207.4,224.7,215.3,8.8
30.75,210.3,207.9,217.8,212.0,5.2
31.5,212.6,208.2,214.2,211.7,3.1
32.25,208.5,201.4,213.0,207.6,5.9
33.0,205.8,200.5,209.8,205.4,4.7
33.75,204.9,198.0,210.7,204.5,6.4
34.5,199.5,197.0,205.7,200.7,4.5
35.25,201.9,193.4,204.8,200.0,5.9
36.0,199.0,192.1,204.2,198.4,6.1
36.75,199.2,192.0,200.2,197.1,4.4
37.5,196.9,186.2,197.0,193.4,6.2
38.25,197.2,189.0,197.3,194.5,4.8
39.0,200.2,186.1,191.8,192.7,7.1
39.75,193.1,183.6,194.9,190.5,6.0
40.5,192.3,186.3,193.8,190.8,4.0
41.25,184.6,182.6,188.6,185.3,3.1
42.0,186.0,177.2,186.5,183.2,5.2
42.75,182.9,175.3,188.8,182.3,6.7
43.5,181.0,177.4,188.9,182.4,5.9
44.25,178.5,172.6,184.4,178.5,5.9
45.0,174.8,169.9,184.0,176.2,7.2
45.75,173.7,167.2,178.4,173.1,5.6
46.5,170.0,166.9,179.1,172.0,6.3
47.25,170.3,161.9,176.3,169.5,7.3
48.0,167.0,162.5,176.5,168.7,7.2
48.75,166.3,159.1,174.7,166.7,7.8
49.5,163.8,156.9,172.2,164.3,7.7
50.25,161.4,156.5,169.0,162.3,6.3
51.0,160.6,156.9,168.3,161.9,5.8
51.75,158.2,152.3,168.3,159.6,8.1
52.5,157.4,154.7,166.7,159.6,6.3
53.25,157.7,151.6,167.1,158.8,7.8
54.0,155.4,149.4,163.8,156.2,7.2
54.75,153.6,146.7,162.3,154.2,7.8
55.5,149.8,146.7,163.7,153.4,9.0
56.25,150.0,144.9,162.2,152.4,8.9
57.0,149.5,142.9,161.5,151.3,9.4
57.75,147.5,141.3,161.5,150.1,10.3
58.5,147.0,140.1,160.5,149.2,10.4
59.25,144.6,139.1,159.0,147.6,10.3
60.0,143.2,138.9,156.8,146.3,9.4
60.75,142.1,139.3,156.1,145.8,9.0
61.5,142.7,137.5,156.9,145.7,10.1
62.25,140.2,137.1,153.5,143.6,8.7
63.0,139.0,136.0,153.6,142.9,9.4
63.75,139.6,133.0,151.8,141.5,9.5
64.5,140.0,132.6,151.1,141.2,9.3
65.25,136.9,130.9,150.7,139.5,10.2
66.0,138.7,129.6,146.8,138.3,8.6
66.75,137.0,128.8,148.3,138.1,9.8
67.5,134.1,126.8,148.1,136.3,10.8
68.25,132.8,127.3,144.3,134.8,8.7
69.0,132.5,125.6,144.5,134.2,9.6
69.75,131.7,126.5,143.8,134.0,8.8
70.5,130.5,126.8,141.3,132.9,7.5
71.25,130.3,126.8,139.7,132.3,6.7
72.0,130.5,126.9,142.5,133.3,8.2
72.75,129.4,123.9,137.8,130.3,7.0
73.5,128.9,124.1,140.3,131.1,8.3
74.25,129.4,120.8,138.2,129.5,8.7
75.0,130.4,120.0,139.3,129.9,9.6
75.75,129.0,121.7,136.5,129.1,7.4
76.5,127.6,118.7,134.0,126.8,7.7
77.25,130.3,118.6,133.7,127.5,7.9
78.0,126.0,118.8,132.9,125.9,7.0
78.75,126.5,118.0,132.1,125.6,7.1
79.5,125.0,118.1,132.5,125.2,7.2
80.25,125.4,117.7,131.2,124.8,6.7
81.0,125.0,116.8,131.0,124.3,7.1
81.75,123.2,116.7,128.8,122.9,6.0
82.5,121.6,116.2,130.1,122.6,7.0
83.25,121.0,118.6,129.4,123.0,5.7
84.0,121.5,115.0,129.4,122.0,7.2
84.75,120.9,116.4,128.2,121.8,5.9
85.5,118.7,115.2,129.4,121.1,7.4
86.25,117.5,114.6,128.2,120.1,7.2
87.0,119.2,115.5,128.0,120.9,6.4
87.75,115.0,113.2,129.7,119.3,9.0
88.5,119.3,111.9,126.9,119.4,7.5
89.25,116.4,112.6,125.5,118.2,6.7
90.0,116.8,113.1,129.7,119.9,8.7
90.75,116.4,112.3,126.9,118.5,7.5
91.5,114.4,110.0,127.7,117.4,9.2
92.25,113.7,111.3,128.5,117.8,9.3
93.0,114.9,109.9,125.4,116.8,7.9
93.75,114.4,108.5,124.8,115.9,8.2
94.5,114.8,109.3,122.5,115.5,6.6
95.25,113.9,108.7,122.9,115.1,7.2
96.0,114.2,109.1,127.5,116.9,9.5
96.75,113.1,108.3,123.3,114.9,7.6
97.5,115.0,106.1,123.9,115.0,8.9
98.25,113.7,105.2,120.7,113.2,7.8
99.0,114.1,104.6,119.6,112.8,7.6
99.75,112.2,104.5,120.6,112.5,8.1
100.5,113.0,103.7,119.7,112.1,8.0
101.25,114.3,103.7,119.1,112.4,7.9
102.0,113.3,104.8,118.6,112.2,7.0
102.75,113.2,103.1,116.4,110.9,6.9
103.5,114.9,102.2,116.6,111.2,7.9
104.25,111.4,103.7,114.4,109.9,5.5
105.0,113.0,102.0,113.1,109.4,6.4
105.75,113.8,102.2,115.1,110.3,7.1
106.5,111.3,101.9,111.7,108.3,5.5
107.25,110.6,102.3,113.0,108.6,5.6
108.0,110.7,101.8,111.7,108.1,5.5
108.75,111.3,100.7,111.4,107.8,6.1
109.5,109.7,101.5,110.2,107.1,4.9
110.25,108.7,101.3,109.3,106.4,4.5
111.0,109.4,100.4,109.7,106.5,5.3
111.75,109.4,100.4,109.4,106.4,5.2
112.5,107.1,102.3,109.0,106.1,3.4
113.25,107.2,99.0,107.5,104.6,4.8
114.0,107.5,99.8,108.7,105.3,4.8
114.75,105.8,101.0,108.0,105.0,3.6
115.5,107.5,98.7,107.6,104.6,5.1
116.25,106.1,98.5,108.2,104.3,5.1
117.0,105.2,98.2,107.2,103.5,4.7
117.75,105.5,99.0,106.1,103.5,3.9
118.5,103.8,99.2,104.2,102.4,2.8
119.25,104.3,96.6,105.0,101.9,4.7
120.0,105.0,98.1,104.9,102.7,4.0
120.75,103.7,98.7,104.3,102.2,3.1
121.5,104.5,97.3,102.4,101.4,3.7
122.25,103.2,96.8,102.2,100.7,3.4
123.0,102.5,96.4,102.8,100.5,3.6
123.75,101.2,96.8,102.7,100.3,3.1
124.5,101.6,95.2,102.1,99.6,3.9
125.25,101.0,95.2,102.4,99.5,3.8
126.0,98.9,95.7,99.8,98.1,2.2
126.75,98.6,96.0,100.8,98.5,2.4
127.5,98.8,95.6,101.5,98.6,3.0
128.25,98.4,95.0,102.2,98.5,3.6
129.0,98.5,95.3,100.7,98.2,2.7
129.75,98.2,95.7,100.9,98.3,2.6
130.5,98.6,95.7,100.5,98.3,2.4
131.25,98.8,96.1,100.3,98.4,2.1
132.0,98.1,95.1,98.2,97.2,1.8
132.75,96.9,96.1,99.6,97.5,1.9
133.5,96.8,95.7,99.4,97.3,1.9
134.25,97.7,96.9,98.6,97.7,0.8
135.0,97.9,96.5,98.8,97.7,1.1
135.75,97.7,98.3,97.8,97.9,0.3
136.5,96.9,99.4,97.1,97.8,1.4
137.25,97.6,99.9,97.6,98.4,1.3
138.0,96.6,101.0,98.6,98.7,2.2
138.75,94.4,100.8,96.7,97.3,3.3
139.5,95.4,100.3,97.4,97.7,2.5
140.25,95.9,99.6,97.2,97.5,1.9
141.0,95.1,99.8,96.4,97.1,2.4
141.75,94.4,99.5,97.4,97.1,2.6
142.5,94.4,97.5,97.0,96.3,1.7
143.25,93.4,98.1,96.8,96.1,2.4
144.0,95.6,96.8,95.3,95.9,0.8
144.75,93.6,97.3,96.8,95.9,2.0
145.5,93.6,96.3,96.4,95.4,1.6
146.25,93.6,95.0,95.7,94.7,1.1
147.0,93.3,94.1,96.0,94.4,1.4
147.75,92.9,94.1,96.4,94.5,1.8
148.5,93.5,94.0,94.3,93.9,0.4
149.25,93.0,92.5,94.4,93.3,1.0
150.0,91.6,93.3,92.9,92.6,0.9
150.75,92.6,92.1,94.3,93.0,1.2
151.5,92.0,91.3,94.2,92.5,1.5
152.25,91.7,90.1,94.1,91.9,2.0
153.0,92.1,90.3,92.0,91.5,1.0
153.75,92.2,91.4,92.3,92.0,0.5
154.5,90.4,88.5,92.8,90.6,2.2
155.25,91.5,89.7,94.4,91.9,2.4
156.0,93.3,89.5,92.1,91.6,1.9
156.75,91.7,87.9,92.7,90.7,2.5
157.5,91.5,88.2,93.6,91.1,2.7
158.25,92.9,88.5,92.6,91.3,2.5
159.0,92.0,88.9,91.5,90.8,1.6
159.75,91.2,90.1,90.7,90.7,0.5
160.5,92.4,89.0,90.0,90.5,1.7
161.25,92.4,90.2,92.9,91.8,1.4
162.0,92.1,88.3,92.8,91.1,2.4
162.75,92.6,91.3,92.0,92.0,0.7
163.5,91.7,88.8,92.7,91.1,2.0
164.25,91.5,89.1,93.7,91.5,2.3
165.0,91.1,88.7,93.1,91.0,2.2
165.75,91.4,89.0,93.8,91.4,2.4
166.5,91.2,89.4,93.6,91.4,2.1
167.25,90.8,87.7,92.0,90.2,2.2
168.0,88.5,87.2,92.2,89.3,2.6
168.75,91.2,86.9,92.2,90.1,2.8
169.5,88.5,87.7,92.6,89.6,2.6
170.25,90.9,87.1,90.0,89.3,2.0
171.0,89.1,86.7,90.7,88.9,2.0
171.75,88.8,86.5,90.9,88.7,2.2
172.5,87.5,86.4,89.2,87.7,1.4
173.25,87.0,85.7,89.1,87.3,1.7
174.0,87.6,87.2,89.8,88.2,1.4
174.75,87.8,88.1,88.9,88.3,0.6
175.5,87.8,88.1,88.5,88.1,0.4
176.25,88.1,88.3,88.2,88.2,0.1
177.0,88.4,89.0,88.9,88.8,0.3
177.75,87.0,89.0,87.8,87.9,1.0
178.5,88.3,89.2,89.4,89.0,0.6
179.25,89.0,88.3,88.3,88.5,0.4
180.0,87.9,88.2,89.0,88.4,0.6
180.75,87.2,88.1,88.9,88.1,0.8
181.5,88.2,87.2,88.3,87.9,0.6
182.25,88.1,89.1,88.3,88.5,0.5
183.0,89.0,88.6,87.7,88.4,0.6
183.75,89.8,87.4,88.9,88.7,1.2
184.5,91.0,87.4,88.0,88.8,2.0
185.25,88.9,87.6,88.5,88.3,0.7
186.0,88.5,89.5,88.8,88.9,0.5
186.75,89.3,88.9,89.0,89.1,0.2
187.5,91.2,89.7,89.5,90.1,0.9
188.25,87.9,88.1,87.7,87.9,0.2
189.0,89.3,89.0,88.2,88.8,0.6
189.75,92.3,87.2,87.9,89.1,2.8
190.5,90.8,87.7,88.4,89.0,1.7
191.25,89.2,87.0,88.6,88.3,1.1
192.0,89.9,88.0,88.2,88.7,1.1
192.75,88.8,87.5,88.4,88.3,0.7
193.5,88.5,87.8,88.0,88.1,0.4
194.25,89.5,88.4,88.5,88.8,0.6
195.0,89.8,86.4,88.4,88.2,1.7
195.75,89.0,88.5,89.7,89.1,0.6
196.5,89.6,86.7,88.9,88.4,1.5
197.25,89.1,88.5,87.6,88.4,0.8
198.0,89.4,89.6,88.2,89.1,0.8
198.75,87.8,88.9,86.2,87.7,1.4
199.5,87.8,88.4,88.0,88.1,0.3
200.25,88.5,88.3,87.5,88.1,0.5
201.0,87.9,90.1,88.5,88.8,1.2
201.75,86.6,88.6,88.2,87.8,1.1
202.5,87.9,87.8,87.8,87.9,0.1
203.25,86.9,88.9,89.7,88.5,1.5
204.0,85.3,89.7,88.1,87.7,2.2
204.75,85.9,89.1,87.9,87.6,1.6
205.5,85.1,88.0,88.0,87.0,1.6
206.25,85.7,90.4,86.6,87.6,2.5
207.0,86.0,88.3,87.2,87.2,1.1
207.75,86.6,87.6,87.0,87.1,0.5
208.5,86.7,88.9,89.5,88.4,1.5
209.25,86.8,90.0,87.8,88.2,1.6
210.0,87.2,88.9,88.7,88.3,0.9
210.75,87.3,88.8,88.4,88.2,0.8
211.5,87.1,91.3,88.3,88.9,2.2
212.25,87.9,90.6,89.2,89.2,1.4
213.0,86.8,91.9,88.3,89.0,2.6
213.75,86.0,90.1,87.3,87.8,2.1
214.5,86.2,90.8,89.2,88.7,2.3
215.25,85.6,90.6,90.6,88.9,2.9
216.0,86.1,89.5,90.9,88.8,2.4
216.75,85.8,89.6,89.5,88.3,2.1
217.5,87.0,90.4,89.8,89.1,1.8
218.25,87.3,92.2,89.5,89.7,2.5
219.0,87.3,89.7,90.1,89.0,1.5
219.75,89.5,91.1,91.0,90.5,0.9
220.5,88.6,89.2,89.9,89.2,0.6
221.25,88.1,90.5,89.0,89.2,1.2
222.0,88.8,91.1,91.1,90.3,1.3
222.75,89.1,91.1,89.9,90.0,1.0
223.5,89.9,91.3,89.7,90.3,0.9
224.25,90.0,90.3,90.3,90.2,0.2
225.0,90.6,90.9,91.6,91.0,0.5
225.75,89.9,93.3,90.4,91.2,1.8
226.5,88.6,91.9,90.1,90.2,1.6
227.25,89.2,91.4,89.2,89.9,1.3
228.0,89.1,91.0,89.0,89.7,1.1
228.75,89.7,92.4,87.0,89.7,2.7
229.5,90.0,92.4,88.8,90.4,1.8
230.25,90.1,92.3,89.1,90.5,1.7
231.0,90.4,93.6,89.4,91.2,2.2
231.75,91.3,94.0,89.7,91.7,2.2
232.5,91.3,93.7,89.6,91.5,2.0
233.25,90.7,96.7,90.5,92.6,3.6
234.0,90.6,95.3,91.6,92.5,2.5
234.75,90.9,95.1,91.3,92.4,2.3
235.5,94.5,95.5,90.6,93.5,2.6
236.25,92.7,94.4,91.2,92.8,1.6
237.0,94.0,94.2,90.1,92.8,2.3
237.75,92.4,95.2,89.9,92.5,2.6
238.5,93.9,96.4,92.5,94.3,2.0
239.25,94.6,96.5,90.7,94.0,2.9
240.0,91.7,97.1,91.2,93.3,3.3
240.75,92.8,98.8,92.3,94.6,3.6
241.5,91.6,96.8,92.5,93.7,2.8
242.25,92.8,98.6,91.1,94.2,3.9
243.0,90.4,98.0,93.4,94.0,3.8
243.75,92.0,98.9,90.7,93.9,4.4
244.5,92.4,100.3,91.7,94.8,4.8
245.25,94.6,101.1,94.0,96.6,4.0
246.0,93.9,99.6,92.4,95.3,3.8
246.75,93.6,99.1,93.7,95.5,3.2
247.5,93.9,100.6,94.3,96.3,3.8
248.25,93.9,102.6,93.0,96.5,5.3
249.0,93.3,100.4,94.0,95.9,3.9
249.75,94.8,100.8,94.4,96.7,3.6
250.5,94.7,98.9,94.5,96.0,2.5
251.25,94.1,101.4,94.0,96.5,4.2
252.0,94.8,100.3,95.1,96.7,3.1
252.75,95.1,99.5,95.7,96.8,2.4
253.5,94.7,99.3,97.6,97.2,2.4
254.25,94.5,100.9,98.7,98.0,3.3
255.0,94.7,103.0,98.9,98.9,4.1
255.75,94.4,102.8,100.2,99.1,4.3
256.5,93.2,103.1,98.1,98.1,5.0
257.25,95.0,103.8,99.3,99.4,4.4
258.0,93.5,107.2,101.3,100.6,6.9
258.75,93.8,105.2,99.7,99.6,5.7
259.5,95.0,104.9,100.5,100.1,4.9
260.25,94.6,107.4,100.5,100.8,6.4
261.0,95.7,105.9,100.3,100.6,5.1
261.75,93.6,107.5,100.9,100.7,7.0
262.5,94.9,107.2,101.4,101.2,6.1
263.25,95.7,109.3,101.4,102.1,6.8
264.0,94.4,114.1,103.2,103.9,9.9
264.75,94.8,111.5,102.1,102.8,8.4
265.5,96.4,113.1,101.9,103.8,8.5
266.25,94.1,114.6,101.5,103.4,10.4
267.0,94.4,113.7,103.3,103.8,9.7
267.75,95.1,114.9,106.7,105.6,10.0
268.5,96.1,115.3,103.3,104.9,9.7
269.25,95.0,115.6,104.2,104.9,10.3
270.0,95.6,116.1,105.7,105.8,10.2
270.75,95.4,115.7,104.7,105.3,10.1
271.5,96.5,115.5,107.5,106.5,9.5
272.25,95.6,114.6,106.7,105.6,9.5
273.0,94.8,115.9,106.4,105.7,10.6
273.75,94.9,114.4,105.6,105.0,9.7
274.5,96.5,115.5,106.4,106.1,9.5
275.25,96.6,116.9,104.6,106.1,10.2
276.0,96.1,115.6,105.9,105.9,9.7
276.75,96.9,114.6,105.9,105.8,8.9
277.5,96.9,113.3,106.2,105.5,8.2
278.25,94.6,112.7,108.2,105.2,9.4
279.0,98.1,114.1,107.9,106.7,8.1
279.75,98.6,114.3,107.5,106.8,7.9
280.5,98.5,114.9,107.0,106.8,8.2
281.25,100.0,113.4,110.5,108.0,7.1
282.0,100.1,115.1,109.7,108.3,7.6
282.75,99.5,113.9,109.5,107.6,7.4
283.5,100.1,112.7,109.9,107.6,6.6
284.25,101.5,116.0,110.6,109.4,7.3
285.0,101.6,114.9,111.5,109.4,6.9
285.75,102.3,115.0,109.4,108.9,6.4
286.5,102.3,115.2,112.6,110.0,6.8
287.25,101.9,115.8,111.5,109.7,7.1
288.0,103.3,116.5,111.7,110.5,6.7
288.75,105.5,118.0,113.2,112.2,6.3
289.5,105.0,116.0,111.3,110.8,5.5
290.25,106.6,117.2,110.9,111.6,5.3
291.0,103.3,117.9,111.0,110.7,7.3
291.75,104.3,115.4,112.5,110.7,5.7
292.5,105.7,117.1,111.9,111.6,5.7
293.25,108.4,116.6,112.2,112.4,4.1
294.0,108.3,118.6,112.5,113.1,5.2
294.75,107.8,115.3,113.9,112.3,4.0
295.5,108.6,116.0,112.9,112.5,3.7
296.25,108.2,116.9,114.4,113.2,4.5
297.0,108.6,115.7,113.1,112.5,3.6
297.75,109.5,117.4,112.8,113.2,4.0
298.5,106.5,115.5,116.1,112.7,5.3
299.25,106.6,116.6,114.5,112.6,5.3
300.0,108.7,117.9,114.7,113.7,4.7
300.75,108.2,116.1,114.8,113.1,4.2
301.5,109.8,116.1,116.5,114.1,3.8
302.25,109.9,115.9,117.7,114.5,4.1
303.0,111.8,117.7,115.3,115.0,2.9
303.75,111.7,116.4,116.3,114.8,2.7
304.5,112.0,117.3,116.3,115.2,2.8
305.25,112.7,119.1,116.8,116.2,3.3
306.0,112.0,118.3,118.1,116.1,3.6
306.75,113.4,117.6,119.5,116.8,3.1
307.5,114.2,118.8,119.6,117.5,2.9
308.25,114.7,116.4,119.4,116.9,2.4
309.0,114.8,119.3,119.0,117.7,2.5
309.75,116.0,118.0,119.5,117.8,1.8
310.5,113.4,118.4,120.4,117.4,3.6
311.25,114.3,119.0,122.4,118.6,4.1
312.0,114.6,120.3,119.8,118.2,3.1
312.75,117.5,120.8,121.7,120.0,2.2
313.5,119.4,118.0,120.3,119.2,1.1
314.25,119.9,121.5,122.7,121.4,1.4
315.0,121.5,119.4,121.7,120.9,1.2
315.75,120.2,121.2,123.4,121.6,1.6
316.5,122.7,118.1,122.5,121.1,2.6
317.25,121.6,120.8,126.2,122.9,2.9
318.0,123.0,119.4,122.5,121.6,1.9
318.75,123.5,121.4,124.8,123.2,1.7
319.5,122.1,123.4,125.5,123.7,1.7
320.25,122.5,119.6,124.5,122.2,2.5
321.0,121.2,119.5,124.2,121.6,2.4
321.75,120.8,121.3,124.8,122.3,2.2
322.5,122.0,120.5,124.9,122.4,2.2
323.25,121.5,120.6,126.9,123.0,3.4
324.0,120.1,121.3,125.8,122.4,3.0
324.75,119.0,121.5,127.7,122.7,4.5
325.5,121.5,119.5,126.0,122.3,3.3
326.25,120.6,122.1,124.9,122.5,2.2
327.0,118.3,117.1,128.1,121.2,6.0
327.75,120.2,120.7,127.6,122.8,4.1
328.5,118.1,120.4,128.2,122.2,5.3
329.25,120.1,121.5,127.5,123.0,3.9
330.0,120.1,122.0,127.3,123.1,3.8
330.75,119.9,120.2,126.7,122.3,3.8
331.5,120.2,121.7,128.1,123.3,4.2
332.25,121.2,119.0,130.0,123.4,5.8
333.0,122.7,122.8,128.4,124.7,3.2
333.75,120.7,122.6,129.7,124.3,4.8
334.5,120.3,120.3,128.4,123.0,4.7
335.25,119.5,122.5,126.5,122.8,3.5
336.0,120.7,121.6,130.6,124.3,5.4
336.75,120.8,122.9,131.0,124.9,5.4
337.5,120.7,120.9,131.0,124.2,5.9
338.25,121.0,120.8,132.9,124.9,7.0
339.0,120.2,121.3,133.6,125.0,7.5
339.75,120.9,122.3,134.9,126.0,7.7
340.5,121.9,122.6,137.3,127.3,8.7
341.25,121.8,124.2,137.1,127.7,8.2
342.0,123.3,124.8,137.1,128.4,7.6
342.75,120.2,123.8,137.2,127.1,9.0
343.5,122.1,124.5,138.9,128.5,9.1
344.25,121.3,127.5,138.3,129.0,8.6
345.0,121.2,124.4,137.9,127.8,8.9
345.75,120.9,125.0,135.1,127.0,7.3
346.5,123.1,123.5,137.6,128.1,8.2
347.25,122.3,124.4,135.8,127.5,7.3
348.0,121.1,123.5,138.1,127.5,9.2
348.75,122.3,124.8,140.6,129.3,9.9
349.5,124.8,125.0,139.6,129.8,8.5
350.25,122.5,126.5,137.4,128.8,7.7
351.0,121.4,123.2,139.2,127.9,9.8
351.75,124.1,127.3,139.4,130.3,8.1
352.5,124.8,125.3,137.4,129.2,7.1
353.25,124.0,124.2,138.1,128.8,8.1
354.0,126.3,124.0,140.4,130.2,8.9
354.75,125.1,122.3,139.8,129.1,9.4
355.5,125.4,126.2,137.7,129.7,6.9
356.25,124.3,126.1,137.9,129.4,7.4
357.0,122.8,126.5,137.0,128.8,7.4
357.75,126.3,123.6,135.4,128.4,6.2
358.5,124.5,125.3,135.8,128.5,6.3
359.25,124.6,125.7,138.1,129.5,7.5
360.0,125.4,125.1,136.9,129.1,6.8
360.75,125.4,126.0,136.5,129.3,6.3
361.5,124.7,126.6,136.7,129.3,6.5
362.25,124.6,127.6,137.7,129.9,6.9
363.0,124.8,126.9,138.9,130.2,7.6
363.75,124.6,130.1,137.2,130.6,6.3
364.5,126.1,127.9,139.7,131.2,7.4
365.25,123.0,124.6,138.4,128.6,8.5
366.0,125.8,124.7,143.5,131.3,10.5
366.75,122.9,126.1,138.3,129.1,8.1
367.5,126.6,125.1,140.1,130.6,8.3
368.25,126.7,126.3,139.3,130.7,7.4
369.0,127.0,125.4,138.1,130.2,6.9
369.75,126.1,128.0,138.9,131.0,6.9
370.5,126.2,127.1,141.0,131.4,8.2
371.25,128.6,126.6,140.2,131.8,7.3
372.0,127.8,126.1,141.8,131.9,8.6
372.75,127.2,127.9,138.7,131.3,6.4
373.5,127.9,126.4,137.4,130.5,6.0
374.25,128.1,125.9,137.6,130.5,6.2
375.0,127.4,126.0,136.9,130.1,5.9
375.75,126.9,125.8,139.6,130.8,7.7
376.5,127.0,123.8,139.6,130.1,8.4
377.25,128.0,125.8,139.0,130.9,7.1
378.0,127.1,126.5,136.7,130.1,5.7
378.75,128.1,125.9,138.3,130.8,6.6
379.5,127.0,127.1,138.7,130.9,6.7
380.25,129.0,124.3,138.9,130.8,7.4
381.0,125.3,125.4,141.3,130.7,9.2
381.75,127.7,125.0,139.3,130.7,7.6
382.5,129.9,124.5,139.6,131.3,7.6
383.25,128.5,125.8,140.3,131.5,7.7
384.0,128.1,125.6,140.6,131.4,8.0
384.75,127.0,124.6,143.5,131.7,10.3
385.5,127.9,124.7,142.8,131.8,9.7
386.25,128.2,124.2,143.3,131.9,10.1
387.0,129.7,126.8,141.9,132.8,8.0
387.75,130.9,126.6,141.4,133.0,7.6
388.5,128.6,123.2,141.0,130.9,9.1
389.25,130.2,124.4,139.8,131.5,7.8
390.0,127.9,125.7,141.0,131.5,8.3
390.75,130.5,128.4,140.8,133.3,6.7
391.5,128.9,125.9,141.5,132.1,8.3
392.25,129.9,123.3,142.3,131.9,9.6
393.0,130.9,125.6,142.5,133.0,8.6
393.75,128.3,125.0,142.9,132.0,9.5
394.5,130.6,126.8,144.0,133.8,9.1
395.25,130.7,126.8,143.5,133.6,8.7
396.0,128.8,126.7,142.0,132.5,8.3
396.75,130.0,127.7,142.4,133.3,7.9
397.5,132.2,127.0,143.5,134.2,8.5
398.25,128.5,125.1,142.8,132.1,9.4
399.0,129.1,126.8,144.7,133.5,9.7
399.75,129.3,127.5,144.3,133.7,9.2
400.5,130.0,123.8,143.6,132.5,10.1
401.25,130.8,125.9,141.8,132.8,8.1
402.0,130.1,128.1,142.5,133.6,7.8
402.75,130.7,127.7,142.5,133.6,7.8
403.5,129.7,128.1,144.1,134.0,8.8
404.25,129.7,127.2,140.7,132.6,7.2
405.0,133.0,125.5,142.6,133.7,8.6
405.75,132.3,128.8,143.4,134.8,7.6
406.5,129.7,126.0,143.1,132.9,9.0
407.25,130.4,126.4,142.7,133.2,8.5
408.0,129.2,125.1,144.3,132.8,10.1
408.75,129.6,124.5,140.3,131.5,8.1
409.5,130.5,126.3,145.3,134.0,10.0
410.25,128.8,124.2,143.7,132.2,10.2
411.0,129.9,126.1,142.8,132.9,8.8
411.75,131.0,124.0,143.9,133.0,10.1
412.5,130.5,124.5,141.6,132.2,8.7
413.25,130.3,125.9,143.6,133.3,9.2
414.0,131.1,127.1,142.6,133.6,8.1
414.75,131.5,127.8,146.6,135.3,10.0
415.5,130.4,127.4,142.3,133.4,7.8
416.25,128.8,126.3,140.7,131.9,7.7
417.0,132.4,127.0,139.8,133.1,6.4
417.75,132.5,123.6,139.8,131.9,8.1
418.5,133.1,124.8,140.3,132.7,7.7
419.25,131.2,124.1,140.5,131.9,8.2
420.0,129.9,124.7,139.8,131.5,7.7
420.75,131.4,125.4,137.8,131.5,6.2
421.5,131.8,125.9,139.2,132.3,6.7
422.25,130.8,125.7,138.5,131.7,6.5
423.0,131.0,125.4,139.4,131.9,7.0
423.75,131.1,125.2,135.4,130.6,5.1
424.5,131.7,125.4,136.9,131.3,5.8
425.25,131.7,122.0,138.4,130.7,8.2
426.0,129.5,126.1,134.8,130.1,4.4
426.75,130.7,126.0,135.8,130.8,4.9
427.5,130.5,124.2,136.8,130.5,6.3
428.25,132.0,122.8,134.4,129.7,6.2
429.0,131.4,122.9,135.8,130.0,6.5
429.75,131.8,123.6,133.8,129.7,5.4
430.5,129.5,124.5,133.5,129.2,4.5
431.25,128.8,123.5,135.1,129.2,5.8
432.0,128.3,121.2,134.3,127.9,6.6
432.75,128.8,122.8,131.3,127.6,4.3
433.5,130.6,121.8,132.7,128.4,5.8
434.25,129.0,122.1,130.5,127.2,4.4
435.0,131.7,120.5,131.9,128.0,6.5
435.75,132.7,122.0,130.5,128.4,5.7
436.5,132.8,121.6,132.2,128.9,6.3
437.25,131.4,122.8,133.2,129.1,5.6
438.0,130.8,122.3,133.3,128.8,5.8
438.75,131.6,121.8,130.7,128.0,5.4
439.5,129.5,122.0,130.8,127.4,4.7
440.25,131.9,123.5,132.1,129.2,4.9
441.0,130.7,122.6,130.1,127.8,4.5
441.75,131.2,122.1,130.5,127.9,5.1
442.5,129.0,124.2,128.7,127.3,2.7
443.25,129.1,122.6,128.7,126.8,3.7
444.0,129.0,122.0,126.9,125.9,3.6
444.75,130.7,119.7,128.6,126.4,5.8
445.5,128.3,121.8,128.0,126.0,3.7
446.25,128.3,121.5,126.2,125.3,3.5
447.0,129.4,118.9,127.0,125.1,5.5
447.75,128.5,119.9,125.3,124.6,4.4
448.5,129.7,120.8,125.1,125.2,4.4
449.25,126.8,118.8,122.7,122.8,4.0
450.0,127.9,118.7,124.6,123.7,4.7
450.75,126.3,117.8,123.8,122.6,4.4
451.5,129.4,115.6,121.0,122.0,6.9
452.25,128.1,116.3,123.2,122.5,5.9
453.0,130.2,118.8,122.9,124.0,5.8
453.75,129.2,115.6,120.7,121.9,6.8
454.5,127.7,112.9,121.9,120.8,7.4
455.25,126.6,113.5,120.4,120.2,6.5
456.0,126.1,113.6,116.6,118.8,6.5
456.75,128.9,112.2,118.9,120.0,8.4
457.5,128.2,110.6,116.7,118.5,8.9
458.25,127.0,111.9,116.9,118.6,7.7
459.0,128.4,110.7,115.8,118.3,9.1
459.75,129.0,111.8,116.7,119.2,8.8
460.5,127.1,114.7,115.4,119.1,7.0
461.25,127.3,111.2,114.4,117.6,8.5
462.0,126.3,111.4,115.1,117.6,7.8
462.75,122.3,109.3,114.4,115.4,6.5
463.5,125.0,109.7,112.3,115.7,8.2
464.25,124.0,110.3,110.5,115.0,7.8
465.0,122.2,107.0,111.2,113.5,7.9
465.75,123.3,106.7,109.7,113.2,8.8
466.5,124.3,106.4,108.0,112.9,9.9
467.25,121.8,105.9,107.8,111.8,8.7
468.0,121.1,106.9,108.6,112.2,7.8
468.75,120.1,105.7,106.6,110.8,8.1
469.5,119.2,106.0,106.0,110.4,7.6
470.25,119.7,104.8,106.1,110.2,8.3
471.0,119.6,105.6,104.9,110.0,8.3
471.75,120.2,103.2,104.8,109.4,9.4
472.5,120.1,103.4,102.6,108.7,9.9
473.25,118.6,100.7,103.6,107.7,9.6
474.0,117.9,101.8,100.3,106.7,9.8
474.75,118.2,101.3,102.0,107.2,9.6
475.5,115.5,100.0,99.8,105.1,9.0
476.25,117.5,101.1,97.6,105.4,10.6
477.0,115.2,99.8,100.2,105.1,8.8
477.75,113.1,99.6,98.1,103.6,8.3
478.5,113.2,98.4,96.5,102.7,9.1
479.25,113.4,98.4,98.6,103.4,8.6
480.0,112.2,99.3,96.3,102.6,8.5
480.75,111.1,97.8,94.4,101.1,8.8
481.5,111.8,96.8,95.4,101.3,9.1
482.25,110.5,96.3,94.2,100.3,8.9
483.0,109.1,95.8,93.1,99.3,8.6
483.75,109.3,95.5,93.9,99.6,8.5
484.5,107.9,93.5,93.4,98.3,8.3
485.25,108.8,94.0,92.9,98.6,8.9
486.0,105.8,94.0,90.9,96.9,7.9
486.75,107.1,91.8,89.9,96.3,9.4
487.5,107.8,91.3,90.9,96.7,9.6
488.25,105.5,92.2,89.2,95.6,8.7
489.0,105.9,89.2,89.6,94.9,9.5
489.75,105.5,89.4,85.7,93.6,10.5
490.5,103.5,86.5,85.5,91.8,10.1
491.25,103.2,84.3,83.6,90.4,11.1
492.0,103.0,84.2,82.7,89.9,11.3
492.75,103.9,84.3,81.7,90.0,12.2
493.5,104.4,83.6,80.8,89.6,12.9
494.25,101.1,82.3,80.1,87.8,11.5
495.0,99.8,81.0,77.8,86.2,11.9
495.75,100.2,79.7,78.4,86.1,12.3
496.5,99.5,79.3,78.7,85.8,11.9
497.25,101.0,77.6,77.2,85.3,13.6
498.0,99.1,77.1,75.6,83.9,13.2
498.75,99.0,74.8,75.2,83.0,13.9
499.5,97.7,73.4,73.4,81.5,14.0
500.25,97.2,73.8,72.1,81.0,14.0
501.0,96.2,73.3,71.1,80.2,13.9
501.75,95.9,72.4,71.8,80.0,13.8
502.5,94.9,71.2,70.1,78.7,14.0
503.25,95.4,70.0,70.2,78.5,14.6
504.0,94.2,69.4,69.8,77.8,14.2
504.75,92.1,68.9,68.6,76.5,13.5
505.5,92.9,68.2,68.2,76.4,14.3
506.25,90.4,68.0,67.8,75.4,12.9
507.0,91.3,66.8,67.7,75.3,13.9
507.75,90.8,65.7,66.8,74.4,14.2
508.5,88.2,64.6,66.3,73.0,13.2
509.25,87.1,63.9,67.5,72.8,12.5
510.0,86.2,62.9,66.0,71.7,12.7
510.75,85.7,61.4,66.4,71.2,12.8
511.5,83.3,61.7,66.3,70.4,11.4
512.25,83.2,60.7,65.2,69.7,11.9
513.0,82.4,60.0,65.0,69.1,11.8
513.75,81.5,58.6,65.1,68.4,11.8
514.5,80.8,58.3,65.3,68.1,11.6
515.25,81.2,57.9,64.6,67.9,12.0
516.0,78.9,58.4,63.5,66.9,10.6
516.75,79.2,57.5,63.5,66.8,11.2
517.5,77.5,57.8,64.1,66.5,10.0
518.25,75.9,57.7,64.3,66.0,9.2
519.0,75.3,56.5,62.9,64.9,9.6
519.75,73.8,55.7,62.4,64.0,9.1
520.5,72.8,55.1,61.6,63.2,9.0
521.25,72.4,55.0,60.6,62.7,8.9
522.0,71.4,55.9,59.1,62.1,8.2
522.75,70.2,55.3,58.6,61.3,7.8
523.5,70.0,54.7,57.9,60.8,8.1
524.25,68.5,54.1,57.1,59.9,7.6
525.0,67.8,53.7,56.3,59.3,7.5
525.75,67.6,53.8,55.8,59.1,7.4
526.5,68.0,53.6,55.8,59.1,7.7
527.25,66.0,53.1,55.8,58.3,6.8
528.0,64.9,52.8,55.2,57.6,6.4
528.75,66.2,51.6,55.4,57.7,7.6
529.5,65.6,51.4,55.1,57.4,7.4
530.25,64.3,51.9,53.7,56.6,6.7
531.0,63.2,50.6,55.3,56.4,6.4
531.75,64.2,51.0,54.4,56.5,6.8
532.5,63.7,50.4,54.7,56.3,6.8
533.25,62.2,50.2,53.8,55.4,6.2
534.0,62.5,49.2,53.7,55.1,6.8
534.75,62.5,49.8,53.6,55.3,6.5
535.5,62.0,47.8,52.5,54.1,7.2
536.25,63.2,47.8,52.2,54.4,7.9
537.0,62.5,48.3,51.5,54.1,7.4
537.75,62.9,48.3,51.4,54.2,7.7
538.5,63.8,47.8,50.9,54.2,8.5
539.25,63.9,48.0,50.7,54.2,8.5
540.0,63.9,47.5,51.4,54.3,8.5
540.75,64.2,47.4,49.7,53.8,9.1
541.5,65.4,47.5,50.2,54.4,9.7
542.25,66.0,47.8,50.4,54.7,9.8
543.0,64.7,47.2,50.9,54.3,9.2
543.75,66.4,47.1,50.6,54.7,10.3
544.5,64.7,48.0,50.1,54.3,9.1
545.25,65.9,48.7,49.5,54.7,9.7
546.0,64.2,48.4,49.3,54.0,8.9
546.75,62.9,49.2,50.0,54.0,7.7
547.5,64.4,49.8,50.3,54.8,8.3
548.25,63.0,50.0,50.5,54.5,7.4
549.0,63.0,50.8,49.7,54.5,7.3
549.75,62.1,50.7,50.2,54.3,6.7
550.5,61.7,50.3,49.7,53.9,6.7
551.25,60.0,50.7,49.7,53.5,5.7
552.0,59.0,50.5,49.6,53.0,5.2
552.75,58.2,50.0,50.1,52.8,4.7
553.5,57.2,51.1,50.6,53.0,3.7
554.25,56.7,49.7,49.6,52.0,4.1
555.0,55.7,49.8,49.6,51.7,3.5
555.75,55.5,49.9,48.9,51.4,3.6
556.5,54.3,50.0,49.5,51.3,2.6
557.25,53.1,50.0,49.0,50.7,2.1
558.0,54.0,51.1,49.7,51.6,2.2
558.75,52.7,50.3,48.8,50.6,1.9
559.5,52.9,51.3,49.5,51.2,1.7
560.25,51.8,50.5,48.9,50.4,1.4
561.0,52.2,50.5,49.1,50.6,1.6
561.75,51.2,51.6,49.2,50.7,1.3
562.5,51.4,50.4,48.3,50.0,1.6
563.25,50.9,51.2,48.0,50.0,1.8
564.0,51.3,51.6,47.9,50.3,2.1
564.75,51.4,51.5,48.3,50.4,1.8
565.5,50.7,50.7,48.0,49.8,1.5
566.25,50.7,49.9,47.9,49.5,1.5
567.0,51.1,49.8,48.7,49.9,1.2
567.75,50.8,49.8,48.1,49.6,1.4
568.5,49.9,48.8,48.4,49.0,0.8
569.25,49.8,48.7,48.7,49.0,0.7
570.0,50.8,48.3,48.2,49.1,1.5
570.75,49.9,47.9,47.9,48.6,1.2
571.5,50.0,47.7,47.8,48.5,1.3
572.25,49.9,47.5,48.0,48.5,1.3
573.0,50.0,47.6,48.4,48.7,1.3
573.75,49.3,47.1,47.2,47.9,1.2
574.5,48.9,47.3,47.2,47.8,1.0
575.25,49.0,47.5,47.7,48.1,0.8
576.0,47.8,46.8,47.0,47.2,0.5
576.75,48.6,46.8,47.2,47.5,1.0
577.5,48.8,46.2,47.1,47.3,1.3
578.25,48.3,46.3,45.8,46.8,1.3
579.0,48.7,45.8,46.5,47.0,1.5
579.75,48.5,45.8,47.3,47.2,1.3
580.5,47.8,45.8,47.0,46.8,1.0
581.25,48.5,46.2,47.4,47.4,1.1
582.0,48.6,46.7,47.7,47.7,1.0
582.75,48.7,47.0,46.7,47.5,1.1
583.5,47.7,47.1,47.7,47.5,0.3
584.25,47.9,46.5,46.8,47.1,0.8
585.0,48.9,46.9,47.5,47.8,1.0
585.75,48.3,47.4,46.4,47.3,0.9
586.5,48.4,46.3,47.0,47.2,1.0
587.25,50.1,46.3,47.1,47.8,2.0
588.0,49.0,46.3,46.3,47.2,1.6
588.75,49.3,46.4,46.5,47.4,1.7
589.5,49.1,46.2,46.3,47.2,1.6
590.25,48.9,45.7,47.2,47.3,1.6
591.0,49.2,45.6,46.1,47.0,2.0
591.75,50.3,45.3,45.9,47.2,2.7
592.5,49.6,44.2,46.7,46.8,2.7
593.25,49.6,45.5,46.1,47.1,2.3
594.0,49.7,44.4,46.6,46.9,2.7
594.75,50.1,43.8,46.9,46.9,3.2
595.5,48.3,44.2,46.5,46.3,2.0
596.25,48.9,43.7,47.3,46.6,2.7
597.0,49.7,43.5,46.4,46.5,3.1
597.75,49.0,43.2,46.7,46.3,2.9
598.5,47.8,42.8,45.9,45.5,2.5
599.25,47.7,43.2,45.7,45.5,2.3
600.0,47.0,42.6,45.7,45.1,2.3
600.75,47.3,42.8,45.9,45.3,2.3
601.5,47.7,42.5,46.1,45.4,2.6
602.25,48.3,42.7,46.6,45.9,2.9
603.0,48.6,41.9,45.5,45.3,3.3
603.75,49.1,42.2,45.5,45.6,3.4
604.5,48.6,41.8,45.7,45.4,3.4
605.25,48.1,42.3,45.8,45.4,2.9
606.0,48.5,41.3,46.0,45.3,3.6
606.75,48.1,41.4,46.2,45.2,3.4
607.5,48.1,40.8,45.1,44.7,3.7
608.25,47.0,40.6,44.8,44.1,3.2
609.0,47.9,40.5,45.6,44.7,3.8
609.75,47.8,40.1,44.5,44.1,3.9
610.5,46.0,40.0,44.6,43.5,3.1
611.25,46.1,40.4,45.1,43.9,3.1
612.0,46.4,40.1,44.9,43.8,3.3
612.75,46.1,39.9,44.8,43.6,3.3
613.5,46.6,40.0,44.8,43.8,3.4
614.25,46.1,39.9,45.3,43.8,3.4
615.0,45.6,40.2,45.4,43.7,3.0
615.75,45.4,40.3,45.1,43.6,2.8
616.5,46.0,39.1,45.3,43.4,3.8
617.25,46.1,40.1,45.4,43.9,3.3
618.0,45.1,39.2,45.0,43.1,3.4
618.75,45.2,39.6,46.0,43.6,3.5
619.5,45.3,39.2,45.5,43.4,3.6
620.25,45.5,38.7,45.7,43.3,4.0
621.0,46.0,39.0,45.8,43.6,4.0
621.75,46.3,38.9,45.5,43.6,4.0
622.5,46.0,39.3,45.5,43.6,3.7
623.25,45.9,39.1,45.7,43.6,3.8
624.0,46.5,39.5,44.5,43.5,3.6
624.75,46.5,39.0,44.1,43.2,3.8
625.5,45.9,39.4,43.3,42.9,3.3
626.25,46.7,39.2,43.5,43.1,3.7
627.0,45.9,39.1,43.4,42.8,3.4
627.75,47.3,39.1,43.1,43.1,4.1
628.5,46.0,39.7,42.8,42.8,3.1
629.25,46.8,39.1,42.9,42.9,3.8
630.0,46.6,39.3,42.3,42.7,3.7
630.75,46.3,39.3,43.8,43.1,3.5
631.5,46.3,39.7,44.2,43.4,3.4
632.25,45.9,39.4,44.2,43.2,3.4
633.0,45.6,39.2,45.1,43.3,3.6
633.75,46.3,39.3,46.4,44.0,4.1
634.5,46.0,39.0,46.9,44.0,4.3
635.25,46.4,39.4,47.5,44.4,4.4
636.0,46.1,39.3,49.2,44.8,5.1
636.75,44.9,39.3,49.6,44.6,5.1
637.5,45.4,39.8,49.8,45.0,5.0
638.25,45.5,39.7,50.3,45.2,5.3
639.0,44.7,39.4,50.3,44.8,5.5
639.75,44.4,39.4,50.3,44.7,5.5
640.5,45.1,39.3,49.8,44.7,5.3
641.25,44.8,39.1,49.1,44.3,5.0
642.0,43.9,39.1,48.6,43.9,4.8
642.75,44.2,39.3,48.5,44.0,4.6
643.5,43.3,38.4,48.2,43.3,4.9
644.25,44.2,38.9,47.4,43.5,4.3
645.0,43.9,39.0,46.3,43.1,3.7
645.75,43.8,38.9,46.1,42.9,3.7
646.5,43.3,39.0,46.1,42.8,3.5
647.25,43.9,39.4,46.1,43.1,3.4
648.0,44.0,38.6,45.9,42.8,3.8
648.75,44.1,38.8,46.9,43.3,4.1
649.5,44.0,38.4,45.7,42.7,3.9
650.25,43.6,38.6,45.8,42.7,3.7
651.0,43.4,38.5,45.4,42.4,3.6
651.75,43.1,38.6,45.2,42.3,3.4
652.5,42.1,38.6,44.1,41.6,2.8
653.25,42.0,38.4,44.5,41.6,3.1
654.0,41.7,38.1,45.0,41.6,3.4
654.75,42.0,37.7,44.2,41.3,3.3
655.5,41.6,37.9,43.8,41.1,3.0
656.25,41.6,37.5,44.9,41.3,3.7
657.0,41.5,37.2,43.7,40.8,3.3
657.75,41.0,37.5,43.5,40.7,3.0
658.5,41.8,38.1,43.8,41.2,2.9
659.25,41.0,37.6,,39.3,2.4
660.0,41.0,37.0,,39.0,2.8
660.75,41.0,36.6,,38.8,3.2
661.5,41.5,36.8,,39.2,3.4
662.25,41.0,36.6,,38.8,3.1
663.0,40.9,36.8,,38.9,2.9
663.75,41.4,36.4,,38.9,3.5
664.5,42.3,37.1,,39.7,3.7
665.25,41.9,36.1,,39.0,4.2
666.0,42.1,36.3,,39.2,4.1
666.75,42.0,36.9,,39.5,3.6
667.5,41.7,36.7,,39.2,3.5
668.25,41.8,37.0,,39.4,3.4
669.0,41.8,36.6,,39.2,3.7
669.75,42.0,36.8,,39.4,3.7
670.5,42.3,37.0,,39.7,3.8
671.25,42.5,36.3,,39.4,4.4
672.0,42.4,36.4,,39.4,4.2
672.75,43.1,36.3,,39.7,4.9
673.5,42.7,36.0,,39.4,4.8
674.25,42.6,36.3,,39.4,4.5
675.0,42.5,36.0,,39.3,4.6
675.75,43.3,35.9,,39.6,5.2
676.5,42.9,36.0,,39.4,4.8
677.25,43.3,35.5,,39.4,5.5
678.0,43.3,,,43.3,
678.75,42.7,,,42.7,
679.5,42.5,,,42.5,
680.25,43.5,,,43.5,
681.0,42.7,,,42.7,
681.75,42.7,,,42.7,
682.5,42.4,,,42.4,
683.25,41.4,,,41.4,
684.0,43.1,,,43.1,
684.75,42.0,,,42.0,
685.5,41.8,,,41.8,
686.25,42.3,,,42.3,
687.0,41.8,,,41.8,
687.75,41.9,,,41.9,
688.5,41.4,,,41.4,
689.25,42.4,,,42.4,
690.0,41.1,,,41.1,
690.75,41.2,,,41.2,
691.5,41.4,,,41.4,
692.25,41.6,,,41.6,
693.0,41.3,,,41.3,
693.75,41.4,,,41.4,
694.5,42.0,,,42.0,
695.25,41.9,,,41.9,
696.0,42.1,,,42.1,
696.75,42.4,,,42.4,
697.5,42.6,,,42.6,
698.25,42.2,,,42.2,
699.0,42.1,,,42.1,
699.75,42.2,,,42.2,
700.5,42.6,,,42.6,
701.25,42.2,,,42.2,
702.0,42.3,,,42.3,
702.75,42.7,,,42.7,
703.5,42.6,,,42.6,
704.25,42.6,,,42.6,
705.0,42.4,,,42.4,
705.75,43.4,,,43.4,
706.5,43.1,,,43.1,
707.25,42.5,,,42.5,
708.0,43.2,,,43.2,
708.75,42.6,,,42.6,
709.5,43.3,,,43.3,
710.25,43.1,,,43.1,
711.0,42.8,,,42.8,
711.75,41.5,,,41.5,
712.5,41.3,,,41.3,
713.25,39.8,,,39.8,
714.0,39.9,,,39.9,
714.75,39.8,,,39.8,
715.5,39.6,,,39.6,
716.25,39.0,,,39.0,
717.0,39.1,,,39.1,
717.75,39.2,,,39.2,
718.5,39.2,,,39.2,
719.25,38.6,,,38.6,
720.0,38.9,,,38.9,
720.75,38.4,,,38.4,
721.5,38.8,,,38.8,
722.25,39.0,,,39.0,
723.0,38.8,,,38.8,
723.75,38.6,,,38.6,
724.5,38.8,,,38.8,
725.25,39.0,,,39.0,
726.0,38.3,,,38.3,
726.75,38.0,,,38.0,
727.5,37.7,,,37.7,
728.25,37.6,,,37.6,
729.0,37.4,,,37.4,
729.75,37.7,,,37.7,
730.5,37.5,,,37.5,
731.25,37.1,,,37.1,
732.0,37.1,,,37.1,
732.75,37.5,,,37.5,
733.5,37.1,,,37.1,
734.25,37.8,,,37.8,
735.0,37.6,,,37.6,
735.75,38.3,,,38.3,
736.5,38.8,,,38.8,
737.25,39.1,,,39.1,
738.0,39.5,,,39.5,
738.75,39.9,,,39.9,
739.5,40.0,,,40.0,
740.25,40.4,,,40.4,
741.0,41.2,,,41.2,
741.75,40.8,,,40.8,
742.5,40.9,,,40.9,
743.25,41.1,,,41.1,
744.0,41.1,,,41.1,
744.75,40.9,,,40.9,
745.5,42.1,,,42.1,
746.25,40.6,,,40.6,
747.0,41.0,,,41.0,
747.75,40.5,,,40.5,
748.5,40.9,,,40.9,
749.25,40.5,,,40.5,
750.0,41.8,,,41.8,
750.75,41.0,,,41.0,
751.5,41.4,,,41.4,
752.25,42.0,,,42.0,
753.0,41.1,,,41.1,
753.75,40.7,,,40.7,
754.5,39.3,,,39.3,
755.25,39.7,,,39.7,
756.0,40.2,,,40.2,
756.75,39.0,,,39.0,
757.5,39.0,,,39.0,
758.25,38.9,,,38.9,
759.0,38.1,,,38.1,
759.75,38.2,,,38.2,
760.5,37.9,,,37.9,
761.25,38.4,,,38.4,
762.0,38.2,,,38.2,
762.75,38.0,,,38.0,
763.5,38.0,,,38.0,
764.25,37.5,,,37.5,
765.0,38.2,,,38.2,
765.75,38.1,,,38.1,
766.5,37.3,,,37.3,
767.25,38.3,,,38.3,
768.0,37.9,,,37.9,
768.75,38.3,,,38.3,
769.5,37.7,,,37.7,
770.25,38.0,,,38.0,
771.0,37.8,,,37.8,
771.75,37.9,,,37.9,
772.5,37.7,,,37.7,
773.25,37.5,,,37.5,
774.0,38.1,,,38.1,
774.75,37.4,,,37.4,
775.5,38.3,,,38.3,
776.25,37.2,,,37.2,
777.0,37.1,,,37.1,
777.75,37.2,,,37.2,
778.5,36.9,,,36.9,
779.25,37.1,,,37.1,
780.0,36.8,,,36.8,
780.75,36.9,,,36.9,
781.5,36.8,,,36.8,
782.25,37.0,,,37.0,
783.0,36.4,,,36.4,
783.75,37.1,,,37.1,
784.5,36.8,,,36.8,
785.25,36.8,,,36.8,
786.0,36.8,,,36.8,
786.75,36.9,,,36.9,
787.5,37.0,,,37.0,
788.25,37.2,,,37.2,
789.0,36.9,,,36.9,
789.75,36.6,,,36.6,
790.5,36.8,,,36.8,
791.25,36.6,,,36.6,
792.0,37.2,,,37.2,
792.75,37.0,,,37.0,
793.5,36.6,,,36.6,
794.25,37.2,,,37.2,
795.0,36.9,,,36.9,
795.75,36.3,,,36.3,
796.5,35.9,,,35.9,
797.25,36.0,,,36.0,
798.0,35.8,,,35.8,
798.75,35.6,,,35.6,
799.5,35.8,,,35.8,
800.25,36.0,,,36.0,
801.0,35.6,,,35.6,
801.75,35.6,,,35.6,
802.5,35.9,,,35.9,
803.25,35.6,,,35.6,
804.0,35.8,,,35.8,
804.75,35.2,,,35.2,
805.5,35.8,,,35.8,
806.25,35.7,,,35.7,
807.0,35.8,,,35.8,
807.75,35.6,,,35.6,
808.5,35.0,,,35.0,
809.25,35.0,,,35.0,
810.0,34.9,,,34.9,
810.75,35.0,,,35.0,
811.5,35.2,,,35.2,
812.25,34.6,,,34.6,
813.0,34.8,,,34.8,
813.75,35.0,,,35.0,
814.5,34.9,,,34.9,
815.25,35.0,,,35.0,
816.0,34.6,,,34.6,
816.75,34.6,,,34.6,
817.5,34.2,,,34.2,
818.25,34.3,,,34.3,
819.0,34.4,,,34.4,
819.75,35.0,,,35.0,
820.5,34.5,,,34.5,
821.25,34.4,,,34.4,
822.0,34.7,,,34.7,
822.75,34.5,,,34.5,
823.5,34.8,,,34.8,
824.25,34.6,,,34.6,
825.0,34.8,,,34.8,
825.75,34.9,,,34.9,
826.5,34.7,,,34.7,
827.25,35.5,,,35.5,
828.0,34.0,,,34.0,
828.75,34.2,,,34.2,
829.5,33.5,,,33.5,
830.25,32.7,,,32.7,
831.0,33.0,,,33.0,
831.75,32.9,,,32.9,
832.5,32.6,,,32.6,
833.25,32.8,,,32.8,
834.0,32.5,,,32.5,
834.75,33.3,,,33.3,
835.5,33.0,,,33.0,
836.25,32.9,,,32.9,
837.0,33.4,,,33.4,
837.75,33.2,,,33.2,
838.5,32.6,,,32.6,
839.25,33.2,,,33.2,
840.0,32.4,,,32.4,
840.75,32.6,,,32.6,
841.5,32.1,,,32.1,
842.25,32.0,,,32.0,
843.0,31.8,,,31.8,
843.75,31.9,,,31.9,
844.5,32.3,,,32.3,
845.25,32.0,,,32.0,
846.0,31.9,,,31.9,
846.75,32.7,,,32.7,
847.5,32.9,,,32.9,
848.25,32.7,,,32.7,