File: 01_Data/Homasote/Cone/Homasote_Cone_HF75Scan_230608_R3.csv
Names,Time,Stack TC,Smoke TC,Exh Press,Smoke Comp,Smoke Meas,CO Meter,CO2 Meter,O2 Meter,Sample Mass,Ext Coeff,Start Test,Flame Verif
Chan Gain,,500,500,1,1,1,1,1,1,1,1,1.0,1.0
Offset,,0,0,0.143883,0,0,0,0,0,0,0,0.0,0.0
Gain,,1,1,25.011,13.2788,13.9535,1,1,1,1.00094,1.03262,1.0,1.0
Units,sec,C,C,Pa,%,%,%,%,%,g,/m,,
Baseline,,50.5388,51.3162,148.977,100.231,100.264,0.000968865,0.0592143,20.9453,-446.987,-0.00301248,,
6,1.25,45.3664,46.6688,151.319,99.5867,99.5385,0.00117104,0.0688578,20.9305,106.87,0.00438186,0.0,0.0
12,2.75,45.5441,46.7177,144.698,99.5672,98.2172,0.00121402,0.0678117,20.9315,106.9,0.12366,0.0,0.0
18,4.25,45.3897,46.728,139.209,99.5729,99.3959,0.00120276,0.0673395,20.9327,106.58,0.016119,0.0,1.0
24,5.75,47.0255,47.4098,136.497,99.5531,99.0454,0.00113487,0.0676009,20.9328,106.27,0.0463064,0.0,1.0
30,7.25,49.0505,48.1455,131.992,99.5595,97.9987,0.00106417,0.0677273,20.9337,105.98,0.143129,0.0,1.0
36,8.75,49.5338,47.2858,128.948,99.5389,97.07,0.00102119,0.0670438,20.9337,105.649,0.2275,0.0,0.0
42,10.25,51.3064,49.1052,127.989,99.5478,95.0805,0.000981516,0.0664231,20.9332,105.349,0.415887,0.0,0.0
48,11.75,53.7321,50.7345,130.403,99.5259,95.2372,0.00100358,0.0729911,20.9329,105.079,0.398979,0.0,0.0
54,13.25,55.2702,51.844,123.365,99.5421,94.4188,0.00114714,0.116744,20.9328,104.778,0.478632,0.0,0.0
60,14.75,55.8101,53.3928,126.926,99.5312,94.3456,0.00146007,0.234384,20.9302,104.518,0.484666,0.0,0.0
66,16.25,57.9067,53.919,128.837,99.5559,93.0153,0.00196006,0.361782,20.8764,104.278,0.615544,0.0,0.0
72,17.75,59.3062,55.6829,129.265,99.5377,94.1156,0.00254006,0.461085,20.7289,103.938,0.50736,0.0,0.0
78,19.25,60.3132,57.0184,128.162,99.5352,93.2537,0.00315793,0.522424,20.5997,103.657,0.590471,0.0,0.0
84,20.75,60.4686,57.4527,131.754,99.536,93.7503,0.00377722,0.558174,20.5017,103.437,0.542444,0.0,0.0
90,22.25,62.2021,58.2351,126.263,99.5219,92.4097,0.00441765,0.575758,20.4252,103.207,0.671607,0.0,0.0
96,23.75,62.492,59.1918,132.01,99.5393,94.1871,0.00490816,0.582129,20.3765,102.997,0.500625,0.0,0.0
102,25.25,63.394,60.0142,131.566,99.5292,94.0658,0.00534703,0.577649,20.3493,102.696,0.511382,0.0,0.0
108,26.75,64.3619,60.7359,130.132,99.5518,94.6292,0.0056838,0.568349,20.3349,102.476,0.459359,0.0,0.0
114,28.25,64.7447,61.4002,131.118,99.5462,95.2504,0.00596775,0.555119,20.3347,102.196,0.399567,0.0,0.0
120,29.75,65.3552,61.8005,132.47,99.5648,94.406,0.00615331,0.539876,20.3433,102.036,0.481923,0.0,0.0
126,31.25,65.7573,62.5711,136.028,99.5587,95.7904,0.00624907,0.526469,20.3609,101.816,0.349507,0.0,0.0
132,32.75,65.8867,63.0592,133.888,99.5879,95.52,0.00628072,0.513073,20.3782,101.585,0.377767,0.0,0.0
138,34.25,66.3005,63.6271,135.775,99.583,95.8044,0.00625823,0.500626,20.3908,101.375,0.35039,0.0,0.0
144,35.75,66.321,63.9956,134.028,99.6005,96.5054,0.00613509,0.486599,20.4047,101.155,0.285948,0.0,0.0
150,37.25,66.6578,64.4611,136.35,99.5964,95.2602,0.00598094,0.472985,20.4225,100.945,0.403207,0.0,0.0
156,38.75,66.9482,64.4865,138.716,99.6369,96.1379,0.00582426,0.459492,20.4397,100.775,0.323823,0.0,0.0
162,40.25,67.0632,65.0379,131.742,99.6163,96.0114,0.00563572,0.446872,20.4559,100.605,0.333866,0.0,0.0
168,41.75,67.3674,65.1272,137.825,99.6451,96.3768,0.00542578,0.434532,20.4689,100.384,0.30208,0.0,0.0
174,43.25,67.5111,65.5732,136.769,99.6499,96.6067,0.00523061,0.421451,20.4829,100.194,0.280935,0.0,0.0
180,44.75,67.4009,65.8135,140.402,99.6572,96.9968,0.00502807,0.410878,20.497,100.034,0.245099,0.0,0.0
186,46.25,67.7056,66.5793,144.561,99.6568,96.6455,0.00482631,0.405404,20.5105,99.8238,0.277929,0.0,0.0
192,47.75,67.47,66.5337,131.988,99.6771,96.9661,0.00465139,0.400965,20.5263,99.6636,0.249767,0.0,0.0
198,49.25,66.9842,67.0902,138.398,99.6795,97.0781,0.0045472,0.396089,20.5355,99.4534,0.239532,0.0,0.0
204,50.75,68.1676,67.0784,139.847,99.6868,96.7353,0.0044487,0.389838,20.5419,99.2532,0.272236,0.0,0.0
210,52.25,67.9093,67.3073,136.056,99.6949,97.1637,0.00428466,0.383188,20.5491,99.1131,0.232949,0.0,0.0
216,53.75,68.1084,67.3843,138.44,99.7034,97.0675,0.00405056,0.376165,20.5572,98.9129,0.242698,0.0,0.0
222,55.25,67.9046,67.5131,136.878,99.6998,97.1914,0.00379444,0.370384,20.5638,98.7528,0.230811,0.0,0.0
228,56.75,68.1234,67.7967,136.03,99.6977,97.2365,0.00357738,0.366079,20.571,98.6026,0.226421,0.0,0.0
234,58.25,68.2348,68.1789,140.335,99.7091,97.7939,0.00344441,0.363802,20.5783,98.4125,0.175675,0.0,0.0
240,59.75,68.5984,67.9362,138.636,99.705,98.3373,0.00336401,0.362123,20.5831,98.2323,0.125119,0.0,0.0
246,61.25,68.206,68.2664,140.248,99.7216,98.0698,0.00333625,0.360078,20.5861,98.0821,0.151294,0.0,0.0
252,62.75,68.2622,68.0901,138.886,99.701,97.7726,0.00338246,0.35721,20.5883,97.942,0.17691,0.0,0.0
258,64.25,68.1063,68.2123,134.209,99.7176,97.5555,0.00344433,0.354538,20.5906,97.7819,0.198562,0.0,0.0
264,65.75,68.2006,68.2463,138.109,99.7099,98.2172,0.00347318,0.350745,20.5938,97.5817,0.136628,0.0,0.0
270,67.25,67.8882,68.3679,138.75,99.7168,97.9791,0.00345973,0.34521,20.5977,97.4015,0.159233,0.0,0.0
276,68.75,68.0541,68.4852,140.848,99.6949,98.2193,0.003417,0.339503,20.6015,97.2313,0.13507,0.0,0.0
282,70.25,67.8097,68.7573,136.412,99.7006,98.3322,0.0033003,0.335855,20.6089,97.0412,0.125184,0.0,0.0
288,71.75,67.9822,68.9724,135.994,99.69,98.1461,0.00316659,0.333744,20.6166,96.891,0.141385,0.0,0.0
294,73.25,68.1295,69.0946,138.309,99.6957,98.6209,0.00309051,0.331858,20.6205,96.7409,0.0981868,0.0,0.0
300,74.75,67.8251,69.2095,135.911,99.6767,98.8027,0.00303972,0.330119,20.6238,96.5607,0.0797712,0.0,0.0
306,76.25,68.5699,69.1936,136.577,99.6681,98.7989,0.00300219,0.329514,20.6264,96.4206,0.0793484,0.0,0.0
312,77.75,68.0851,69.4797,138.662,99.6459,98.3764,0.00296059,0.328774,20.628,96.3205,0.116134,0.0,0.0
318,79.25,67.7223,69.4539,133.137,99.6572,98.6711,0.0029408,0.327846,20.6289,96.1303,0.0900737,0.0,0.0
324,80.75,68.3905,69.3747,140.025,99.6317,98.195,0.00292748,0.326928,20.6296,96.0002,0.131563,0.0,0.0
330,82.25,68.4612,69.9673,133.816,99.6317,98.5472,0.00288369,0.325001,20.6309,95.82,0.0991353,0.0,0.0
336,83.75,68.9105,69.7576,136.29,99.6053,98.683,0.00275093,0.322374,20.632,95.6699,0.0842633,0.0,0.0
342,85.25,68.3237,69.7564,135.961,99.6102,98.5727,0.00255974,0.320383,20.6347,95.5297,0.0948354,0.0,0.0
348,86.75,68.4161,70.184,136.931,99.6118,98.7797,0.00240848,0.319002,20.638,95.3696,0.0759846,0.0,0.0
354,88.25,68.333,69.9568,141.675,99.594,98.6149,0.00234405,0.317697,20.6397,95.2295,0.0894878,0.0,0.0
360,89.75,68.4309,69.6474,135.025,99.5899,98.5642,0.00236694,0.316532,20.6405,95.0593,0.0937753,0.0,0.0
366,91.25,68.343,70.1345,135.032,99.5936,98.7503,0.00250677,0.315431,20.6414,94.8891,0.0770211,0.0,0.0
372,92.75,68.0416,69.7641,138.033,99.5883,98.7678,0.00269265,0.314798,20.6428,94.719,0.0749405,0.0,0.0
378,94.25,68.0537,70.3555,141.16,99.5656,98.9428,0.00283306,0.313298,20.6436,94.5688,0.0568402,0.0,0.0
384,95.75,68.3701,69.8807,139.752,99.5603,98.8155,0.00288887,0.310851,20.6439,94.4287,0.0680241,0.0,0.0
390,97.25,68.2809,70.1782,136.485,99.5583,98.982,0.00286656,0.307429,20.645,94.3186,0.05259,0.0,0.0
396,98.75,68.2108,70.655,138.145,99.5575,98.4884,0.00276638,0.304565,20.6483,94.1184,0.0977948,0.0,0.0
402,100.25,68.5197,70.0742,138.674,99.5429,98.9211,0.0026283,0.303268,20.6516,93.9783,0.056764,0.0,0.0
408,101.75,68.0877,70.3293,135.055,99.5583,99.1148,0.00247907,0.303292,20.6538,93.8682,0.04044,0.0,0.0
414,103.25,68.0881,71.1441,137.734,99.5474,99.266,0.0023581,0.303027,20.6552,93.8582,0.0256403,0.0,0.0
420,104.75,68.3054,70.5821,139.038,99.5563,99.0263,0.00230545,0.302422,20.6568,93.5579,0.0483549,0.0,0.0
426,106.25,68.0442,70.6077,135.946,99.5652,99.3524,0.00237118,0.301767,20.6575,93.4578,0.0193779,0.0,0.0
432,107.75,68.0855,70.4197,136.177,99.5697,99.1238,0.00247605,0.301313,20.658,93.1675,0.0406549,0.0,0.0
438,109.25,68.2916,70.6888,136.797,99.5624,99.1664,0.00253952,0.301567,20.6583,93.1175,0.0361013,0.0,0.0
444,110.75,68.4641,70.6171,134.409,99.5794,99.2856,0.00255328,0.300138,20.6584,92.9673,0.0267654,0.0,0.0
450,112.25,68.3044,70.7324,135.03,99.5826,99.2907,0.00256296,0.295954,20.659,92.8372,0.0265942,0.0,0.0
456,113.75,68.2191,70.9735,137.65,99.6005,99.2754,0.00258964,0.291181,20.6599,92.6671,0.0296148,0.0,0.0
462,115.25,68.4662,70.8956,136.571,99.5924,99.1676,0.00264256,0.288561,20.6644,92.557,0.0387123,0.0,0.0
468,116.75,68.392,71.3608,143.342,99.6349,99.1778,0.00270252,0.286094,20.6701,92.3968,0.0416492,0.0,0.0
474,118.25,68.4572,71.3848,140.032,99.6211,99.0863,0.00270583,0.284164,20.6736,92.2567,0.0487619,0.0,0.0
480,119.75,68.9303,70.9683,138.027,99.6426,99.4274,0.00259593,0.28418,20.677,92.1065,0.0195869,0.0,0.0
486,121.25,68.5464,71.1285,132.974,99.6564,99.2801,0.00248082,0.286516,20.6794,91.9564,0.0342717,0.0,0.0
492,122.75,68.8876,71.1872,138.644,99.6807,99.3618,0.00242879,0.289019,20.6795,91.7962,0.029025,0.0,0.0
498,124.25,69.0146,71.4905,135.901,99.6965,99.1566,0.00240134,0.29047,20.6766,91.5961,0.0491905,0.0,0.0
504,125.75,68.59,71.2089,138.044,99.7297,99.4606,0.00238936,0.291168,20.6746,91.516,0.0244784,0.0,0.0
510,127.25,68.7492,71.3077,139.691,99.7451,99.2328,0.00241655,0.291598,20.6726,91.3258,0.0466481,0.0,0.0
516,128.75,69.1463,71.1915,137.797,99.7609,99.2349,0.00245465,0.292441,20.6716,91.1656,0.0478898,0.0,0.0
522,130.25,69.0771,71.1752,139.148,99.7739,99.3933,0.00246739,0.293434,20.671,91.0355,0.0346181,0.0,0.0
528,131.75,68.6479,71.2461,136.15,99.8233,99.3754,0.00246607,0.294519,20.6707,90.9254,0.0407356,0.0,0.0
534,133.25,69.143,72.1534,139.17,99.8302,99.7267,0.00245023,0.294626,20.6699,90.7753,0.0093948,0.0,0.0
540,134.75,68.8003,71.4967,134.767,99.8339,99.4768,0.00244778,0.294218,20.6691,90.6552,0.0324578,0.0,0.0
546,136.25,68.7484,71.7579,133.054,99.8586,99.4959,0.00247328,0.293644,20.6687,90.535,0.0329571,0.0,0.0
552,137.75,69.291,71.7578,135.855,99.8748,99.8183,0.0025382,0.293158,20.669,90.3549,0.00512761,0.0,0.0
558,139.25,69.1359,71.8306,135.705,99.908,99.7625,0.00255965,0.292948,20.6692,90.2648,0.0132039,0.0,0.0
564,140.75,69.4984,72.0722,138.784,99.9291,99.8434,0.00252898,0.292778,20.6693,90.0946,0.00777124,0.0,0.0
570,142.25,69.3369,72.1754,137.065,99.9656,99.935,0.00246558,0.292057,20.6704,89.9845,0.00277467,0.0,0.0
576,143.75,69.6573,71.9078,140.3,99.9781,99.8847,0.00241039,0.291132,20.671,89.8244,0.00846817,0.0,0.0
582,145.25,69.5298,71.701,135.662,100.017,99.9882,0.00236664,0.291047,20.6723,89.6742,0.00261274,0.0,0.0
588,146.75,69.7695,72.1903,140.676,100.036,99.8869,0.00237471,0.290947,20.6731,89.5341,0.0134875,0.0,0.0
594,148.25,69.5766,72.1048,136.344,100.081,100.015,0.00242727,0.290638,20.6736,89.364,0.00590567,0.0,0.0
600,149.75,69.5266,72.1062,141.727,100.097,100.221,0.00243633,0.290539,20.6738,89.2138,-0.0112364,0.0,0.0
606,151.25,69.7609,71.2383,139.63,100.149,100.037,0.00235046,0.290912,20.675,89.0837,0.0100981,0.0,0.0
612,152.75,69.6415,72.0491,136.298,100.163,100.159,0.00218936,0.29138,20.6757,88.9335,0.000360647,0.0,0.0
618,154.25,69.4371,72.5076,136.7,100.218,100.274,0.00205987,0.291399,20.6752,88.8034,-0.00504894,0.0,0.0
624,155.75,69.5929,72.3899,138.957,100.229,100.059,0.00197761,0.291414,20.6747,88.6933,0.0153483,0.0,0.0
630,157.25,70.1161,71.9827,141.644,100.265,100.111,0.00192312,0.290981,20.6744,88.5031,0.0139069,0.0,0.0
636,158.75,70.049,72.6826,138.522,100.3,100.006,0.00190542,0.290352,20.6743,88.393,0.0265372,0.0,0.0
642,160.25,69.7878,71.997,135.426,100.314,100.259,0.00203731,0.290026,20.6743,88.2529,0.00504883,0.0,0.0
648,161.75,69.7276,72.4789,133.047,100.332,100.253,0.00216793,0.29019,20.6744,88.0627,0.00704728,0.0,0.0
654,163.25,69.7482,72.2924,136.959,100.373,100.262,0.00229616,0.290592,20.6744,87.9226,0.0100086,0.0,0.0
660,164.75,69.8616,72.3249,137.131,100.406,100.377,0.0023125,0.290949,20.6735,87.8025,0.0026624,0.0,0.0
666,166.25,70.5191,72.7851,140.277,100.437,100.386,0.00227596,0.29092,20.6729,87.6624,0.00459663,0.0,0.0
672,167.75,70.2285,72.0598,134.036,100.473,100.502,0.00216906,0.290803,20.6725,87.5422,-0.00259838,0.0,0.0
678,169.25,70.1152,72.7281,141.622,100.513,100.522,0.00206404,0.290774,20.6723,87.3621,-0.000821767,0.0,0.0
684,170.75,69.9824,72.8803,137.919,100.553,100.558,0.00199143,0.291047,20.6722,87.252,-0.000430311,0.0,0.0
690,172.25,70.1987,72.8614,136.872,100.582,100.414,0.00196329,0.291157,20.6722,87.1218,0.0151348,0.0,0.0
696,173.75,70.0052,72.8826,135.879,100.62,100.448,0.00196423,0.290541,20.6721,87.0218,0.0155671,0.0,0.0
702,175.25,70.1748,72.5996,138.983,100.633,100.467,0.00200308,0.290817,20.6721,86.8616,0.0148966,0.0,0.0
708,176.75,69.8288,72.5565,140.799,100.67,100.543,0.00203139,0.291293,20.6726,86.7115,0.0114581,0.0,0.0
714,178.25,69.7404,72.3947,135.982,100.681,100.563,0.00200594,0.291236,20.6735,86.5813,0.0105996,0.0,0.0
720,179.75,70.2869,72.2297,139.957,100.714,100.681,0.00195876,0.291225,20.6739,86.4512,0.00300891,0.0,0.0
726,181.25,70.2629,72.9741,136.303,100.729,100.601,0.0019183,0.291763,20.6742,86.2911,0.0115616,0.0,0.0
732,182.75,70.332,73.0005,131.587,100.755,100.543,0.00191658,0.292285,20.6743,86.171,0.0189986,0.0,0.0
738,184.25,70.4285,72.9383,137.339,100.749,100.646,0.00195733,0.292691,20.6742,86.0508,0.00928693,0.0,0.0
744,185.75,70.6989,73.0616,139.29,100.774,100.708,0.00198952,0.293051,20.6742,85.8506,0.00598768,0.0,0.0
750,187.25,70.3066,73.0398,136.069,100.773,100.567,0.00204645,0.293127,20.6741,85.7005,0.0185277,0.0,0.0
756,188.75,70.4392,73.1046,137.152,100.781,100.466,0.00210895,0.293138,20.6741,85.5504,0.0283877,0.0,0.0
762,190.25,70.6977,73.3144,138.928,100.761,100.544,0.00212582,0.293391,20.6741,85.4503,0.0195428,0.0,0.0
768,191.75,70.2224,72.9747,137.872,100.774,100.35,0.00210918,0.293811,20.6741,85.2901,0.0382553,0.0,0.0
774,193.25,70.3587,72.8465,136.62,100.761,100.593,0.00207724,0.29466,20.6741,85.16,0.015096,0.0,0.0
780,194.75,70.4929,73.0526,136.322,100.752,100.46,0.00205461,0.295402,20.6741,85.0299,0.0262659,0.0,0.0
786,196.25,70.6669,73.2087,134.695,100.731,100.53,0.00204993,0.29592,20.6719,84.8998,0.0181139,0.0,0.0
792,197.75,70.4137,72.9499,141.57,100.714,100.582,0.00204744,0.295877,20.6707,84.7696,0.0119013,0.0,0.0
798,199.25,70.5332,72.7844,143.777,100.689,100.46,0.00205865,0.294932,20.6701,84.6295,0.0206557,0.0,0.0
804,200.75,70.4216,73.2927,132.03,100.665,100.15,0.00208527,0.293763,20.6697,84.4894,0.0464611,0.0,0.0
810,202.25,70.4871,73.0204,134.559,100.637,100.134,0.00211716,0.293683,20.6712,84.3292,0.0454061,0.0,0.0
816,203.75,70.688,73.1874,137.11,100.598,100.417,0.00219666,0.295112,20.6725,84.1991,0.0163647,0.0,0.0
822,205.25,70.3774,72.7829,140.737,100.579,100.189,0.00225388,0.296865,20.6733,84.099,0.035186,0.0,0.0
828,206.75,70.1375,72.9207,134.922,100.55,100.278,0.00224432,0.29653,20.672,83.9389,0.0245139,0.0,0.0
834,208.25,70.5361,73.081,134.87,100.515,100.113,0.00216675,0.296464,20.6702,83.7987,0.0362745,0.0,0.0
840,209.75,69.8921,72.8414,137.596,100.468,99.7621,0.00200046,0.297543,20.6692,83.6486,0.0639131,0.0,0.0
846,211.25,70.1735,72.9479,137.738,100.439,99.8562,0.00187982,0.297774,20.6686,83.4984,0.0527048,0.0,0.0
852,212.75,70.263,72.7847,136.206,100.394,99.8332,0.00185654,0.29763,20.6684,83.3483,0.0507701,0.0,0.0
858,214.25,70.3901,73.082,133.476,100.362,99.84,0.00190913,0.298249,20.6682,83.2082,0.0472636,0.0,0.0
864,215.75,70.0019,73.1627,140.049,100.307,99.5769,0.00202563,0.299133,20.6681,83.078,0.0661581,0.0,0.0
870,217.25,70.4501,73.1332,136.37,100.298,99.6373,0.00224385,0.299563,20.6671,82.9279,0.0598904,0.0,0.0
876,218.75,69.8844,73.082,138.013,100.243,99.2856,0.00242609,0.300117,20.6665,82.8078,0.0869085,0.0,0.0
882,220.25,69.8952,73.3044,135.978,100.227,99.4619,0.0025319,0.300951,20.6661,82.6877,0.0694473,0.0,0.0
888,221.75,70.4756,73.2953,136.117,100.186,99.3465,0.00252471,0.301829,20.6649,82.5075,0.076263,0.0,0.0
894,223.25,70.2707,73.1316,138.754,100.165,99.2813,0.00242781,0.301995,20.6642,82.4475,0.080226,0.0,0.0
900,224.75,70.0449,73.2983,137.432,100.143,99.1676,0.00233137,0.30175,20.6638,82.2973,0.0886998,0.0,0.0
906,226.25,70.5153,73.7521,136.483,100.147,99.2907,0.00219241,0.301479,20.6636,82.1572,0.0777951,0.0,0.0
912,227.75,70.256,73.0612,141.469,100.123,99.157,0.00203284,0.301256,20.6635,82.0171,0.08784,0.0,0.0
918,229.25,70.539,73.4173,136.298,100.097,98.9811,0.00194948,0.30153,20.6634,81.917,0.101536,0.0,0.0
924,230.75,70.484,73.048,140.425,100.051,99.2226,0.00196261,0.302248,20.6636,81.8069,0.0752854,0.0,0.0
930,232.25,70.4795,73.471,139.603,100.029,99.0011,0.00202886,0.302489,20.6638,81.6167,0.0935423,0.0,0.0
936,233.75,70.2168,73.2966,137.93,99.9684,99.0748,0.00211111,0.302093,20.6639,81.5066,0.0813348,0.0,0.0
942,235.25,70.1591,73.5415,139.934,99.9571,98.8977,0.00218413,0.302311,20.6639,81.3764,0.096516,0.0,0.0
948,236.75,70.6127,73.3749,137.075,99.9709,99.0412,0.00223214,0.303419,20.664,81.2363,0.0846313,0.0,0.0
954,238.25,70.6475,73.1145,131.172,100.021,98.9053,0.00228633,0.304477,20.6632,81.1362,0.101578,0.0,0.0
960,239.75,70.4588,73.6103,136.584,100.075,98.9777,0.00235924,0.304329,20.6624,80.9661,0.0998669,0.0,0.0
966,241.25,70.4209,73.4798,135.013,100.121,98.7742,0.00239364,0.303334,20.6621,80.8059,0.122694,0.0,0.0
972,242.75,70.9308,73.5973,140.642,100.172,98.9556,0.00236778,0.303437,20.6619,80.6057,0.110693,0.0,0.0
978,244.25,70.7163,73.5974,141.118,100.214,98.9581,0.00231859,0.304125,20.6615,80.5156,0.11427,0.0,0.0
984,245.75,70.7998,73.3534,133.657,100.244,99.0897,0.00228081,0.30469,20.6605,80.3855,0.104869,0.0,0.0
990,247.25,70.5997,73.2533,139.203,100.263,98.9786,0.00222171,0.304925,20.6599,80.2654,0.116756,0.0,0.0
996,248.75,70.6584,73.491,134.81,100.305,98.8866,0.0021592,0.304959,20.6596,80.1453,0.128984,0.0,0.0
1002,250.25,70.391,73.2401,137.636,100.319,98.913,0.00217951,0.304416,20.6594,79.9851,0.12781,0.0,0.0
1008,251.75,70.503,73.4533,137.58,100.324,98.8725,0.00229916,0.303997,20.6594,79.785,0.132027,0.0,0.0
1014,253.25,70.4748,73.5427,139.737,100.291,98.91,0.00240839,0.303337,20.6585,79.6548,0.125631,0.0,0.0
1020,254.75,70.5627,73.4204,138.848,100.3,98.9279,0.00243841,0.302766,20.6578,79.5147,0.124762,0.0,0.0
1026,256.25,71.0663,73.4757,137.953,100.297,99.0122,0.00237305,0.30275,20.6585,79.4146,0.116825,0.0,0.0
1032,257.75,70.8351,73.5032,135.44,100.329,98.8419,0.00228961,0.303318,20.6588,79.2845,0.135239,0.0,0.0
1038,259.25,70.3045,73.7133,138.085,100.348,98.9807,0.00224908,0.30482,20.659,79.1343,0.124283,0.0,0.0
1044,260.75,70.7345,73.5804,138.008,100.372,99.0573,0.00226106,0.306655,20.6569,79.0042,0.119428,0.0,0.0
1050,262.25,70.6766,73.8323,136.78,100.362,98.8244,0.00231878,0.307286,20.6542,78.8441,0.139802,0.0,0.0
1056,263.75,70.7077,73.931,136.121,100.379,98.7874,0.00242077,0.307854,20.6521,78.7039,0.144807,0.0,0.0
1062,265.25,70.7863,73.4456,137.839,100.399,98.772,0.00250552,0.309231,20.6511,78.5938,0.148005,0.0,0.0
1068,266.75,70.6253,73.6534,134.921,100.436,98.8602,0.00250838,0.310466,20.6505,78.4337,0.143288,0.0,0.0
1074,268.25,70.6169,73.7875,133.155,100.453,98.9939,0.00246107,0.311029,20.6502,78.3036,0.132543,0.0,0.0
1080,269.75,71.2151,73.8784,133.887,100.472,99.019,0.00245731,0.311091,20.65,78.1834,0.131926,0.0,0.0
1086,271.25,70.8347,73.864,136.974,100.488,98.9849,0.00250063,0.310681,20.6499,78.0633,0.13654,0.0,0.0
1092,272.75,71.2514,73.6826,137.887,100.494,98.9999,0.00259954,0.310288,20.6499,77.9032,0.135651,0.0,0.0
1098,274.25,70.7563,74.1983,137.916,100.504,99.0084,0.00271652,0.310889,20.6499,77.7731,0.135822,0.0,0.0
1104,275.75,71.1853,73.853,136.56,100.504,99.0339,0.00278055,0.312017,20.6499,77.673,0.133449,0.0,0.0
1110,277.25,71.5705,74.1587,139.739,100.489,98.9977,0.00272543,0.312535,20.6497,77.5428,0.135444,0.0,0.0
1116,278.75,71.0815,74.0577,134.944,100.481,99.0305,0.00261532,0.312618,20.649,77.3827,0.131714,0.0,0.0
1122,280.25,70.6628,73.3368,143.369,100.472,99.0007,0.00250237,0.312397,20.6486,77.1925,0.133601,0.0,0.0
1128,281.75,71.1453,73.9819,138.457,100.435,99.1072,0.00246421,0.311975,20.6484,77.0824,0.120577,0.0,0.0
1134,283.25,71.4134,74.266,135.386,100.428,99.1753,0.00245444,0.311736,20.6491,77.0023,0.113658,0.0,0.0
1140,284.75,71.2094,73.9784,136.823,100.391,98.9688,0.00241186,0.311802,20.6497,76.7821,0.12925,0.0,0.0
1146,286.25,71.0417,73.7199,140.063,100.387,98.9743,0.00229117,0.311772,20.6501,76.692,0.128378,0.0,0.0
1152,287.75,71.612,74.507,135.888,100.349,98.8057,0.00217943,0.311449,20.6503,76.5919,0.140349,0.0,0.0
1158,289.25,71.617,73.8835,137.648,100.332,98.6554,0.00212511,0.311092,20.6504,76.4718,0.152641,0.0,0.0
1164,290.75,71.4381,74.3112,135.245,100.304,98.8717,0.00215714,0.311427,20.6504,76.3417,0.130239,0.0,0.0
1170,292.25,71.5504,73.9918,137.107,100.295,98.8053,0.00225545,0.313126,20.6505,76.2316,0.135522,0.0,0.0
1176,293.75,71.7088,74.2307,135.414,100.251,98.93,0.00241017,0.314904,20.6497,76.1215,0.120175,0.0,0.0
1182,295.25,71.4565,74.1681,134.073,100.256,98.7725,0.0025444,0.316385,20.6469,75.9213,0.135051,0.0,0.0
1188,296.75,71.2719,74.1657,138.063,100.202,98.8512,0.00262495,0.317292,20.6442,75.7912,0.122959,0.0,0.0
1194,298.25,71.4103,74.5682,140.653,100.211,98.8725,0.00263343,0.317577,20.6427,75.6411,0.121814,0.0,0.0
1200,299.75,71.2668,74.4411,138.377,100.176,98.8155,0.0025441,0.316147,20.6413,75.571,0.123893,0.0,0.0
1206,301.25,71.9388,74.4004,138.222,100.157,98.626,0.00244356,0.315161,20.6401,75.4209,0.13952,0.0,0.0
1212,302.75,70.9868,74.4211,140.121,100.137,99.0203,0.00237046,0.315029,20.6405,75.2407,0.101544,0.0,0.0
1218,304.25,71.8979,74.5416,137.785,100.128,98.5395,0.00229657,0.31491,20.6408,75.1506,0.144823,0.0,0.0
1224,305.75,71.5118,74.1469,140.647,100.127,98.8363,0.00225051,0.314698,20.6409,75.0205,0.117508,0.0,0.0
1230,307.25,71.2094,74.3939,138.785,100.146,98.8857,0.00218944,0.313272,20.641,74.8803,0.114741,0.0,0.0
1236,308.75,71.2773,73.9625,138.279,100.158,98.7989,0.00213879,0.311435,20.6412,74.7602,0.123728,0.0,0.0
1242,310.25,72.036,73.847,137.454,100.164,99.0467,0.0020903,0.311989,20.6423,74.6501,0.101585,0.0,0.0
1248,311.75,71.4959,73.8285,138.431,100.169,98.7669,0.00207707,0.313028,20.6438,74.49,0.12772,0.0,0.0
1254,313.25,71.5239,73.858,140.823,100.178,99.0084,0.00211113,0.314169,20.6443,74.3498,0.106374,0.0,0.0
1260,314.75,71.4312,74.1559,138.3,100.197,98.9266,0.00218148,0.314238,20.6439,74.2397,0.115579,0.0,0.0
1266,316.25,71.9292,74.3569,133.255,100.202,98.8776,0.0022801,0.314094,20.6437,74.1096,0.120539,0.0,0.0
1272,317.75,71.3215,73.9671,131.105,100.213,98.6447,0.00238177,0.314785,20.6429,73.9795,0.142855,0.0,0.0
1278,319.25,71.2187,74.2036,132.385,100.218,98.6468,0.00246659,0.315694,20.642,73.8093,0.143136,0.0,0.0
1284,320.75,71.8382,74.1618,138.409,100.229,98.8751,0.00253769,0.316614,20.6407,73.6792,0.123192,0.0,0.0
1290,322.25,71.9156,74.0101,133.915,100.227,99.0812,0.00258378,0.316693,20.6394,73.5491,0.104147,0.0,0.0
1296,323.75,71.4848,74.0069,136.034,100.256,99.0318,0.00256744,0.314683,20.64,73.409,0.1113,0.0,0.0
1302,325.25,71.6948,74.5838,139.1,100.256,98.9726,0.00254301,0.313405,20.6415,73.2788,0.116715,0.0,0.0
1308,326.75,71.5395,74.1952,132.196,100.247,99.0343,0.00253749,0.313471,20.6426,73.1387,0.110224,0.0,0.0
1314,328.25,72.0807,74.0194,136.93,100.235,99.3013,0.00254466,0.314155,20.6433,73.0086,0.0847383,0.0,0.0
1320,329.75,72.0148,74.1416,139.801,100.255,99.1791,0.00257887,0.31498,20.6436,72.8985,0.0976869,0.0,0.0
1326,331.25,72.1033,74.3034,136.364,100.235,99.1736,0.00255366,0.314562,20.6438,72.7183,0.0964722,0.0,0.0
1332,332.75,71.3781,74.3805,136.857,100.24,99.3022,0.00245161,0.313064,20.6432,72.6382,0.0851362,0.0,0.0
1338,334.25,71.4388,73.8449,136.585,100.223,99.3273,0.00236117,0.312002,20.6429,72.5081,0.081307,0.0,0.0
1344,335.75,72.0625,74.4506,137.362,100.237,99.3243,0.00232997,0.312469,20.6439,72.368,0.0828243,0.0,0.0
1350,337.25,71.7397,74.4657,137.702,100.207,99.2,0.00234689,0.312631,20.6444,72.2479,0.0914602,0.0,0.0
1356,338.75,71.9871,74.4927,140.854,100.231,99.243,0.00239791,0.312432,20.6446,72.0777,0.0896952,0.0,0.0
1362,340.25,71.6939,74.4949,136.98,100.205,99.1485,0.00249534,0.311931,20.6448,71.9876,0.095984,0.0,0.0
1368,341.75,71.8753,74.265,134.662,100.216,99.1859,0.00263558,0.311276,20.6455,71.8775,0.0936225,0.0,0.0
1374,343.25,71.8532,74.2591,136.513,100.191,99.1587,0.00277334,0.309812,20.6466,71.7674,0.0938041,0.0,0.0
1380,344.75,72.3258,74.4347,139.337,100.193,99.2409,0.00282133,0.307853,20.648,71.5772,0.0865192,0.0,0.0
1386,346.25,72.2155,74.4127,136.28,100.165,98.8891,0.00278499,0.306639,20.6496,71.4371,0.116115,0.0,0.0
1392,347.75,71.7999,74.52,139.435,100.164,99.1608,0.0027216,0.306924,20.6511,71.3771,0.0911909,0.0,0.0
1398,349.25,71.7455,74.6888,138.041,100.156,98.9458,0.00268597,0.308553,20.6518,71.2469,0.110123,0.0,0.0
1404,350.75,71.9344,74.3961,137.037,100.133,98.9803,0.00267259,0.310902,20.6519,71.2169,0.104876,0.0,0.0
1410,352.25,71.955,74.4504,142.417,100.126,99.0386,0.00265894,0.312494,20.6499,71.0568,0.09888,0.0,0.0
1416,353.75,71.7609,74.5265,135.557,100.131,98.9879,0.00262207,0.312054,20.648,70.9166,0.103956,0.0,0.0
1422,355.25,71.9487,74.3163,139.677,100.158,98.9526,0.00258249,0.310541,20.647,70.7365,0.109645,0.0,0.0
1428,356.75,72.0741,74.5121,138.229,100.184,98.8781,0.00250958,0.307996,20.647,70.6564,0.118852,0.0,0.0
1434,358.25,72.0431,74.8629,135.711,100.216,98.7801,0.00232174,0.305499,20.648,70.5363,0.130759,0.0,0.0
1440,359.75,72.0178,74.1534,136.209,100.239,99.1578,0.00214428,0.304053,20.65,70.3661,0.0982039,0.0,0.0
1446,361.25,71.636,74.4091,136.797,100.275,99.0914,0.00195736,0.302832,20.6521,70.266,0.10757,0.0,0.0
1452,362.75,71.8507,74.7059,136.848,100.304,99.1702,0.00186844,0.301664,20.6536,70.1559,0.10297,0.0,0.0
1458,364.25,72.3493,74.1279,133.025,100.344,99.1327,0.00186712,0.300183,20.6553,70.0858,0.109978,0.0,0.0
1464,365.75,72.4575,74.3272,136.504,100.362,98.9786,0.00189392,0.298266,20.657,69.9357,0.125722,0.0,0.0
1470,367.25,71.554,74.3655,139.658,100.396,99.4938,0.00194031,0.296526,20.6592,69.8456,0.0817982,0.0,0.0
1476,368.75,71.611,74.4473,138.591,100.407,99.3167,0.00196741,0.295697,20.6614,69.7055,0.0989259,0.0,0.0
1482,370.25,71.6476,74.3297,136.737,100.453,99.1272,0.00202288,0.295833,20.6632,69.6054,0.120393,0.0,0.0
1488,371.75,71.5431,74.4603,140.854,100.447,99.1876,0.00211429,0.296472,20.6642,69.5053,0.114248,0.0,0.0
1494,373.25,72.117,73.9427,138.486,100.47,98.9121,0.0022003,0.296413,20.6647,69.4252,0.141562,0.0,0.0
1500,374.75,71.6924,74.0985,138.744,100.467,99.2911,0.00226568,0.294132,20.665,69.3652,0.106666,0.0,0.0
1506,376.25,71.6973,74.2296,136.464,100.473,98.8883,0.00233682,0.291338,20.6656,69.195,0.143965,0.0,0.0
1512,377.75,71.237,73.8607,138.796,100.455,99.3277,0.00244373,0.289093,20.6683,69.0949,0.102194,0.0,0.0
1518,379.25,71.1935,74.2358,145.536,100.459,99.2034,0.00254024,0.287757,20.6722,68.9448,0.113905,0.0,0.0
1524,380.75,71.2128,73.5561,141.177,100.43,99.1974,0.00257092,0.28738,20.6745,68.8447,0.111892,0.0,0.0
1530,382.25,70.8651,73.8769,138.752,100.415,99.2153,0.00252797,0.285795,20.6757,68.8146,0.10887,0.0,0.0
1536,383.75,70.5216,73.284,139.38,100.378,99.1991,0.00246718,0.283699,20.6773,68.6845,0.107019,0.0,0.0
1542,385.25,70.267,73.1824,139.167,100.374,99.0786,0.00244453,0.282484,20.6792,68.5344,0.117701,0.0,0.0
1548,386.75,70.4133,73.4402,140.818,100.344,99.246,0.00245809,0.281499,20.6815,68.4243,0.0997077,0.0,0.0
1554,388.25,70.4517,73.2068,139.733,100.325,99.283,0.00247731,0.278982,20.6828,68.3342,0.0945351,0.0,0.0
1560,389.75,70.12,72.8945,139.093,100.318,99.1817,0.00245104,0.275888,20.6837,68.2141,0.103163,0.0,0.0
1566,391.25,70.3853,73.1082,138.49,100.275,99.125,0.00236018,0.273209,20.685,68.124,0.104495,0.0,0.0
1572,392.75,69.8424,73.1621,139.27,100.261,99.5347,0.00226166,0.270226,20.6891,67.9639,0.0658944,0.0,0.0
1578,394.25,69.9292,72.7818,143.117,100.218,99.3865,0.00215727,0.26739,20.6929,67.8437,0.0754717,0.0,0.0
1584,395.75,69.4249,72.7996,140.223,100.186,99.3069,0.00207952,0.264771,20.6974,67.7837,0.0798375,0.0,0.0
1590,397.25,69.108,73.006,141.669,100.147,99.2025,0.00199479,0.262256,20.7022,67.7036,0.0858411,0.0,0.0
1596,398.75,69.1815,72.0952,135.885,100.111,99.2349,0.00188382,0.25924,20.7054,67.6535,0.0796598,0.0,0.0
1602,400.25,69.3202,72.6157,138.264,100.065,98.9862,0.00176582,0.256322,20.7093,67.6235,0.0982071,0.0,0.0
1608,401.75,69.3565,72.1215,140.275,100.026,98.8593,0.00172036,0.253807,20.7134,67.5535,0.106304,0.0,0.0
1614,403.25,68.9207,72.2886,144.951,99.9883,99.0795,0.00175605,0.250903,20.7169,67.4734,0.0827055,0.0,0.0
1620,404.75,68.7236,71.9875,140.402,99.9903,99.171,0.00180007,0.247301,20.7196,67.4033,0.0745229,0.0,0.0
1626,406.25,68.6594,71.9352,143.895,99.9417,99.0484,0.00184078,0.242583,20.7218,67.3232,0.0813252,0.0,0.0
1632,407.75,67.6423,71.7054,144.845,99.9571,99.1876,0.00190231,0.238556,20.7272,67.2432,0.0699948,0.0,0.0
1638,409.25,68.3361,70.9258,137.975,99.9607,99.3456,0.00195907,0.236108,20.7339,67.2332,0.0559098,0.0,0.0
1644,410.75,68.2149,71.1486,147.251,100.007,99.4555,0.00199419,0.234514,20.7378,67.1631,0.0500839,0.0,0.0
1650,412.25,67.9798,71.4665,147.529,100.001,99.4393,0.00201471,0.231721,20.7398,67.083,0.0510439,0.0,0.0
1656,413.75,67.4798,70.8159,142.313,100.049,99.4627,0.00202761,0.228015,20.7417,67.0029,0.053204,0.0,0.0
1662,415.25,66.796,70.7592,141.397,100.055,99.6769,0.0020418,0.224964,20.7438,66.9529,0.0342695,0.0,0.0
1668,416.75,67.2018,70.5573,140.638,100.082,99.9784,0.00209308,0.221168,20.7473,66.9028,0.00940774,0.0,0.0
1674,418.25,67.0187,69.7923,139.324,100.095,100.068,0.00215399,0.216838,20.7497,66.8728,0.00244434,0.0,0.0
1680,419.75,66.421,70.0541,144.696,100.111,100.035,0.00221771,0.210347,20.7532,66.8328,0.00691997,0.0,0.0
1686,421.25,66.4706,69.5818,142.703,100.124,100.19,0.00223604,0.204317,20.7576,66.7827,-0.00596895,0.0,0.0
1692,422.75,66.0875,69.7434,145.777,100.15,100.213,0.00219071,0.19835,20.7646,66.7427,-0.00566533,0.0,0.0
1698,424.25,66.1708,68.8823,142.136,100.16,100.429,0.00210171,0.19367,20.7726,66.7327,-0.0242405,0.0,0.0
1704,425.75,65.0942,69.1004,142.261,100.181,100.249,0.00197505,0.189039,20.7773,66.7027,-0.0061132,0.0,0.0
1710,427.25,65.4999,68.9966,144.905,100.201,100.413,0.00189738,0.18421,20.7817,66.6726,-0.019157,0.0,0.0
1716,428.75,65.1233,68.2041,144.187,100.203,100.494,0.0018756,0.178421,20.7873,66.6426,-0.0262681,0.0,0.0
1722,430.25,64.4829,68.5935,145.185,100.228,100.44,0.00193153,0.173692,20.7946,66.6126,-0.0191213,0.0,0.0
1728,431.75,64.7708,68.3909,144.388,100.221,100.572,0.00201429,0.169984,20.8005,66.6026,-0.031641,0.0,0.0
1734,433.25,64.1691,68.5496,143.296,100.236,100.579,0.00211444,0.167309,20.8051,66.5425,-0.0309378,0.0,0.0
1740,434.75,64.1334,67.5587,144.957,100.247,100.55,0.00219476,0.165196,20.8088,66.5325,-0.0273424,0.0,0.0
1746,436.25,64.0348,67.1851,144.916,100.28,100.526,0.0022587,0.163231,20.8115,66.4925,-0.0221159,0.0,0.0
1752,437.75,64.0095,67.4131,144.562,100.278,100.587,0.00232029,0.161165,20.8141,66.4624,-0.0279332,0.0,0.0
1758,439.25,63.267,66.8425,143.887,100.308,100.639,0.00240108,0.158828,20.8161,66.4725,-0.0298273,0.0,0.0
1764,440.75,63.0795,66.7042,145.217,100.303,100.657,0.00250842,0.15666,20.8185,66.4024,-0.0319504,0.0,0.0
1770,442.25,63.3822,66.3746,143.307,100.332,100.636,0.00257954,0.154512,20.8213,66.3824,-0.0274025,0.0,0.0
1776,443.75,62.3798,66.7174,144.78,100.331,100.522,0.00262138,0.152776,20.825,66.3924,-0.017196,0.0,0.0
1782,445.25,62.4953,66.3244,145.632,100.353,100.64,0.00266274,0.151606,20.8276,66.3623,-0.0258062,0.0,0.0
1788,446.75,62.3146,65.4911,147.132,100.343,100.574,0.00280004,0.150654,20.83,66.3323,-0.0208149,0.0,0.0
1794,448.25,62.5757,65.8195,141.16,100.367,100.707,0.00293015,0.149979,20.8313,66.3023,-0.0306919,0.0,0.0
1800,449.75,61.9255,65.4475,144.213,100.363,100.585,0.00297584,0.149279,20.8329,66.2322,-0.0200579,0.0,0.0
1806,451.25,61.6229,65.5419,144.204,100.377,100.69,0.00294137,0.14855,20.8344,66.2522,-0.0282083,0.0,0.0
1812,452.75,61.7342,65.0031,151.534,100.368,100.626,0.00287391,0.147863,20.8363,66.2522,-0.0232612,0.0,0.0
1818,454.25,60.5942,64.8812,148.887,100.348,100.636,0.00279657,0.14737,20.838,66.2322,-0.0260125,0.0,0.0
1824,455.75,61.0117,64.3822,143.398,100.354,100.61,0.00278429,0.147108,20.8389,66.1822,-0.0230886,0.0,0.0
1830,457.25,60.7902,64.7007,145.412,100.347,100.565,0.00287681,0.1468,20.8394,66.1822,-0.0197192,0.0,0.0
1836,458.75,61.2213,64.2836,145.616,100.323,100.55,0.00300774,0.146364,20.8396,66.1421,-0.02046,0.0,0.0
1842,460.25,61.0793,64.2746,145.901,100.312,100.575,0.00311302,0.145578,20.8397,66.1221,-0.023749,0.0,0.0
1848,461.75,60.5429,64.4632,144.736,100.303,100.532,0.00314351,0.144688,20.8406,66.1021,-0.0206775,0.0,0.0
1854,463.25,61.0789,64.0089,144.778,100.293,100.63,0.00306256,0.144414,20.8411,66.052,-0.0303782,0.0,0.0
1860,464.75,60.6687,64.0433,145.587,100.295,100.5,0.00297049,0.144827,20.8413,66.032,-0.0185706,0.0,0.0
1866,466.25,60.6902,63.8789,148.086,100.257,100.492,0.00293406,0.145149,20.8415,65.962,-0.0212073,0.0,0.0
1872,467.75,60.6987,63.7576,143.256,100.252,100.466,0.00299027,0.145137,20.8411,65.9219,-0.0193415,0.0,0.0
1878,469.25,60.3221,63.566,147.493,100.231,100.497,0.00309451,0.144186,20.8416,65.9019,-0.0239747,0.0,0.0
1884,470.75,60.4625,63.0732,143.813,100.219,100.46,0.00322663,0.143391,20.8423,65.8719,-0.0217701,0.0,0.0
1890,472.25,59.8182,63.3845,146.007,100.193,100.302,0.00334402,0.143442,20.8438,65.8619,-0.00982072,0.0,0.0
1896,473.75,59.594,62.451,148.772,100.192,100.335,0.00341384,0.143608,20.8446,65.8318,-0.0129312,0.0,0.0
1902,475.25,59.5584,62.6412,147.318,100.145,100.441,0.00344962,0.143735,20.845,65.8318,-0.0267104,0.0,0.0
1908,476.75,59.7019,62.6223,147.005,100.133,100.464,0.00352066,0.143744,20.8451,65.7718,-0.0299226,0.0,0.0
1914,478.25,59.9105,62.7373,148.432,100.096,100.342,0.00361839,0.143696,20.845,65.7618,-0.0222328,0.0,0.0
1920,479.75,59.2571,62.4881,143.753,100.091,100.399,0.00368409,0.143597,20.8449,65.7518,-0.0278211,0.0,0.0
1926,481.25,59.5134,62.1964,143.636,100.064,100.315,0.00367119,0.143266,20.8449,65.7117,-0.0227086,0.0,0.0
1932,482.75,59.6954,62.3293,144.73,100.052,100.262,0.00366392,0.143122,20.8449,65.6817,-0.0189628,0.0,0.0
1938,484.25,59.101,61.8658,148.046,100.013,100.392,0.00371177,0.143301,20.8448,65.6817,-0.0343254,0.0,0.0
1944,485.75,59.0866,61.9017,143.786,100.014,100.348,0.00378702,0.143564,20.8437,65.6317,-0.030181,0.0,0.0
1950,487.25,58.9272,61.5712,138.502,99.9842,100.282,0.00381318,0.143631,20.8427,65.5916,-0.0269379,0.0,0.0
1956,488.75,58.6692,61.5056,142.963,99.9842,100.26,0.00378744,0.143657,20.8418,65.6216,-0.0249767,0.0,0.0
1962,490.25,59.0963,61.3826,149.884,99.9936,100.286,0.00380462,0.143993,20.8424,65.5816,-0.0264781,0.0,0.0
1968,491.75,58.8577,61.2907,145.408,100.023,100.308,0.0038657,0.144221,20.8427,65.5616,-0.0257223,0.0,0.0
1974,493.25,58.5899,60.9021,144.599,100.044,100.301,0.00390408,0.1443,20.8418,65.5216,-0.0231984,0.0,0.0
1980,494.75,58.7342,61.1511,143.891,100.095,100.333,0.00387875,0.144266,20.8413,65.5115,-0.0214605,0.0,0.0
1986,496.25,58.872,60.9607,142.86,100.151,100.39,0.00379569,0.144186,20.841,65.4815,-0.0215883,0.0,0.0
1992,497.75,58.8478,60.8967,146.921,100.198,100.364,0.00369406,0.143818,20.8411,65.4715,-0.0150314,0.0,0.0
1998,499.25,59.0933,60.91,145.234,100.248,100.497,0.00364783,0.14305,20.8421,65.4715,-0.0224748,0.0,0.0
2004,500.75,58.7652,60.8128,145.864,100.279,100.581,0.00365209,0.143026,20.8425,65.4315,-0.0271734,0.0,0.0
2010,502.25,58.5351,60.6952,140.516,100.333,100.559,0.00366011,0.142935,20.8428,65.4014,-0.0203891,0.0,0.0
2016,503.75,58.8045,60.5934,146.617,100.344,100.526,0.00359804,0.142471,20.8429,65.3714,-0.0164095,0.0,0.0
2022,505.25,58.477,60.6328,145.976,100.378,100.634,0.00345831,0.141998,20.8438,65.3514,-0.0230777,0.0,0.0
2028,506.75,58.6551,60.6615,151.506,100.385,100.568,0.00336495,0.14189,20.8446,65.3214,-0.016476,0.0,0.0
2034,508.25,58.4153,60.3613,143.542,100.411,100.661,0.00332985,0.141719,20.8453,65.3114,-0.0224921,0.0,0.0
2040,509.75,58.2087,60.1801,146.999,100.43,100.581,0.00346729,0.141416,20.8466,65.3013,-0.0136033,0.0,0.0
2046,511.25,58.3179,60.3246,144.39,100.46,100.768,0.00360691,0.141263,20.8472,65.3013,-0.0277957,0.0,0.0
2052,512.75,58.9102,60.5882,144.29,100.479,100.704,0.00371088,0.141149,20.8485,65.2613,-0.0202213,0.0,0.0
2058,514.25,58.4007,60.2698,146.819,100.501,100.636,0.00369763,0.141309,20.8494,65.2113,-0.0121208,0.0,0.0
2064,515.75,58.0273,60.1096,145.953,100.517,100.65,0.00362258,0.141238,20.8499,65.2213,-0.0119613,0.0,0.0
2070,517.25,58.2746,60.1927,141.924,100.534,100.757,0.00354149,0.141366,20.8501,65.2313,-0.0200779,0.0,0.0
2076,518.75,58.408,60.8149,145.551,100.522,100.707,0.00350654,0.141631,20.8502,65.2013,-0.0166183,0.0,0.0
2082,520.25,58.448,60.1309,143.781,100.524,100.69,0.0035284,0.141413,20.8493,65.2013,-0.0149417,0.0,0.0
2088,521.75,58.1343,60.2299,144.005,100.519,100.761,0.00360937,0.140874,20.8492,65.1612,-0.0218118,0.0,0.0
2094,523.25,58.2326,60.0044,145.529,100.5,100.788,0.00373149,0.140385,20.8497,65.1312,-0.025941,0.0,0.0
2100,524.75,58.4365,60.3086,146.654,100.458,100.663,0.00383291,0.139964,20.85,65.0811,-0.0184434,0.0,0.0
2106,526.25,58.2295,59.8283,146.045,100.433,100.587,0.00389699,0.139966,20.8502,65.0711,-0.0138883,0.0,0.0
2112,527.75,58.3533,59.7569,142.601,100.376,100.573,0.00389569,0.14004,20.8503,65.0511,-0.0177759,0.0,0.0
2118,529.25,58.0754,59.7277,152.19,100.322,100.509,0.00383409,0.139822,20.8503,65.0411,-0.0168476,0.0,0.0
2124,530.75,57.938,59.827,148.34,100.263,100.467,0.00376337,0.139802,20.8504,65.0111,-0.0184315,0.0,0.0
2130,532.25,57.6929,59.6044,143.513,100.188,100.465,0.00373058,0.140049,20.8501,64.961,-0.0249778,0.0,0.0
2136,533.75,58.0431,59.4234,143.398,100.196,100.532,0.00374099,0.140526,20.8499,64.961,-0.0303831,0.0,0.0
2142,535.25,58.0819,59.5893,143.177,100.224,100.458,0.0037707,0.141265,20.8498,64.941,-0.0211402,0.0,0.0
2148,536.75,57.8828,59.5352,145.309,100.27,100.519,0.00378585,0.141994,20.8498,64.901,-0.0224169,0.0,0.0
2154,538.25,57.8345,59.3924,143.594,100.318,100.493,0.00376472,0.142384,20.8497,64.881,-0.0157956,0.0,0.0
2160,539.75,57.5934,59.6424,141.827,100.381,100.638,0.00373727,0.142089,20.8486,64.8509,-0.0231281,0.0,0.0
2166,541.25,57.7615,59.6595,142.842,100.433,100.623,0.00376512,0.141504,20.848,64.8609,-0.0171072,0.0,0.0
2172,542.75,57.9678,59.3791,145.957,100.478,100.735,0.00387013,0.141103,20.8477,64.8109,-0.0231281,0.0,0.0
2178,544.25,57.7726,59.4267,142.863,100.533,100.737,0.00399044,0.140607,20.8475,64.7909,-0.0183536,0.0,0.0
2184,545.75,57.8298,59.3536,144.345,100.609,100.825,0.00405207,0.140107,20.8475,64.7508,-0.0194481,0.0,0.0
2190,547.25,57.8169,59.0997,144.313,100.643,100.921,0.00408713,0.139841,20.8476,64.7408,-0.0249881,0.0,0.0
2196,548.75,57.8277,59.2642,145.661,100.704,100.898,0.00409192,0.140053,20.848,64.7108,-0.0174177,0.0,0.0
2202,550.25,57.8409,59.6013,146.304,100.753,100.894,0.00404826,0.14046,20.8485,64.6908,-0.0127393,0.0,0.0
2208,551.75,57.5988,58.9262,144.413,100.809,101.006,0.00402448,0.140635,20.8491,64.6908,-0.0176125,0.0,0.0
2214,553.25,57.6223,58.9467,143.874,100.855,101.072,0.00403765,0.140449,20.8494,64.6607,-0.0194903,0.0,0.0
2220,554.75,57.5186,59.0871,148.385,100.905,101.141,0.0040567,0.140165,20.8498,64.6407,-0.0211954,0.0,0.0
2226,556.25,57.1785,59.274,147.082,100.934,101.161,0.00403431,0.140253,20.8501,64.6207,-0.0203312,0.0,0.0
2232,557.75,56.6398,58.2911,144.095,100.976,101.161,0.00400395,0.140374,20.8502,64.6207,-0.0165501,0.0,0.0
2238,559.25,55.9081,57.2239,144.474,101.002,101.155,0.00397154,0.140029,20.8503,64.5707,-0.0137655,0.0,0.0
2244,560.75,55.4797,57.204,141.85,101.046,101.106,0.00393389,0.13975,20.8503,64.5707,-0.00530716,0.0,0.0
2250,562.25,55.4598,56.8823,143.284,101.059,101.254,0.00391583,0.139485,20.851,64.5807,-0.0174832,0.0,0.0
2256,563.75,55.3084,57.2208,143.476,101.071,101.195,0.00387966,0.139345,20.8518,64.5707,-0.0111731,0.0,0.0
2262,565.25,55.2459,57.2191,143.248,101.081,101.243,0.00376046,0.13916,20.8522,64.5506,-0.0144593,0.0,0.0
2268,566.75,55.757,56.9988,144.856,101.097,101.233,0.00369085,0.138834,20.8525,64.5206,-0.01213,0.0,0.0
2274,568.25,55.3931,57.2092,144.432,101.116,101.25,0.00372649,0.138539,20.8526,64.4806,-0.0119824,0.0,0.0
2280,569.75,55.4899,57.0885,143.928,101.113,101.281,0.00378629,0.138222,20.8527,64.5006,-0.015019,0.0,0.0
2286,571.25,55.151,56.3194,144.716,101.135,101.223,0.0038372,0.137677,20.8527,64.4906,-0.00791408,0.0,0.0
2292,572.75,55.6656,56.7551,143.535,101.121,101.359,0.00389122,0.137218,20.8527,64.4606,-0.0212576,0.0,0.0
2298,574.25,55.4159,56.587,145.356,101.121,101.27,0.00395782,0.137103,20.8527,64.4606,-0.0133394,0.0,0.0
2304,575.75,55.538,56.6764,147.249,101.12,101.336,0.00403728,0.137039,20.8527,64.4505,-0.0193112,0.0,0.0
2310,577.25,55.2907,56.4604,144.983,101.121,101.329,0.00412144,0.137326,20.8527,64.4405,-0.0185938,0.0,0.0
2316,578.75,55.5042,56.9149,144.928,101.108,101.302,0.00421915,0.137359,20.8534,64.4105,-0.0173929,0.0,0.0
2322,580.25,54.886,56.4305,143.212,101.109,101.404,0.00432532,0.13717,20.8542,64.3705,-0.0263812,0.0,0.0
2328,581.75,55.4498,56.9302,140.249,101.097,101.41,0.00439076,0.137016,20.8546,64.3304,-0.028041,0.0,0.0
2334,583.25,54.8485,56.6831,146.959,101.099,101.273,0.00439021,0.136791,20.8548,64.3204,-0.0156036,0.0,0.0
2340,584.75,55.3003,56.7201,143.887,101.091,101.27,0.00436121,0.136603,20.855,64.3104,-0.0160255,0.0,0.0
2346,586.25,55.2675,56.6681,145.61,101.073,101.27,0.00430561,0.136275,20.855,64.3204,-0.0175849,0.0,0.0
2352,587.75,55.0501,56.291,146.467,101.049,101.217,0.00426555,0.136393,20.8551,64.2704,-0.0150038,0.0,0.0
2358,589.25,54.954,56.2942,145.614,101.033,101.251,0.00430973,0.136776,20.8551,64.2504,-0.0195433,0.0,0.0
2364,590.75,55.0227,56.3702,145.719,100.99,101.25,0.00438452,0.136881,20.8551,64.2403,-0.0232796,0.0,0.0
2370,592.25,55.2569,56.4755,145.925,100.979,101.223,0.00438862,0.136748,20.8551,64.2103,-0.021788,0.0,0.0
2376,593.75,55.101,56.1006,147.714,100.942,101.176,0.00431816,0.136517,20.8551,64.1703,-0.0210146,0.0,0.0
2382,595.25,54.9705,56.4306,145.537,100.924,101.041,0.00427882,0.136164,20.8551,64.1403,-0.010485,0.0,0.0
2388,596.75,55.085,56.4221,145.46,100.918,101.123,0.00433806,0.135837,20.8551,64.1503,-0.0183185,0.0,0.0
2394,598.25,54.8804,56.163,146.966,100.933,101.145,0.0043832,0.135692,20.8551,64.1202,-0.0189942,0.0,0.0
2400,599.75,54.6729,56.0045,146.61,100.917,101.036,0.00438282,0.135949,20.8551,64.1002,-0.0106818,0.0,0.0
2406,601.25,54.4042,56.0292,144.387,100.92,101.02,0.00436124,0.136493,20.855,64.0101,-0.00901489,0.0,0.0
2412,602.75,54.9699,56.5469,145.291,100.893,101.103,0.00436229,0.13672,20.8547,63.9901,-0.0188557,0.0,0.0
2418,604.25,54.8877,56.3937,142.915,100.859,101.081,0.0044257,0.13663,20.8546,63.9801,-0.0198923,0.0,0.0
2424,605.75,55.1194,56.1057,142.331,100.821,101.02,0.00446672,0.136038,20.8545,63.9601,-0.0178575,0.0,0.0
2430,607.25,54.7257,56.2126,144.924,100.79,101.14,0.00444063,0.135456,20.8545,63.9401,-0.0313458,0.0,0.0
2436,608.75,54.8088,55.7641,145.137,100.75,101.01,0.00429567,0.135126,20.8545,63.9301,-0.0233868,0.0,0.0
2442,610.25,55.2234,56.3857,143.978,100.695,100.895,0.00414269,0.134653,20.8544,63.9401,-0.0180279,0.0,0.0
2448,611.75,54.1688,56.3313,147.402,100.655,100.825,0.00406339,0.134356,20.8551,63.91,-0.0152537,0.0,0.0
2454,613.25,54.5433,55.6469,144.096,100.598,100.791,0.00410572,0.134502,20.8559,63.9,-0.0174107,0.0,0.0
2460,614.75,54.9529,55.8016,147.95,100.556,100.83,0.0042264,0.134667,20.8563,63.88,-0.0247266,0.0,0.0
2466,616.25,54.7474,55.8153,141.856,100.501,100.703,0.00426753,0.134519,20.857,63.83,-0.018174,0.0,0.0
2472,617.75,54.9953,55.5775,146.103,100.459,100.726,0.00422422,0.134305,20.858,63.84,-0.0240418,0.0,0.0
2478,619.25,54.8288,56.3422,148.102,100.383,100.557,0.00417911,0.134305,20.8585,63.83,-0.0156615,0.0,0.0
2484,620.75,54.9721,55.9126,147.531,100.337,100.525,0.00422012,0.134449,20.8588,63.8099,-0.016991,0.0,0.0
2490,622.25,54.6151,55.9748,145.267,100.27,100.417,0.00433718,0.134708,20.859,63.7699,-0.013241,0.0,0.0
2496,623.75,54.688,56.0845,143.916,100.251,100.405,0.0044432,0.134766,20.8591,63.7399,-0.0138866,0.0,0.0
2502,625.25,55.0705,56.2684,145.325,100.163,100.436,0.00450765,0.134586,20.8596,63.6998,-0.0246005,0.0,0.0
2508,626.75,54.963,56.0989,148.981,100.146,100.34,0.00453148,0.134431,20.86,63.6898,-0.0174951,0.0,0.0
2514,628.25,54.7272,55.5405,145.883,100.076,100.28,0.00452559,0.134186,20.8602,63.6698,-0.0184164,0.0,0.0
2520,629.75,54.702,55.8914,146.044,100.045,100.228,0.00448168,0.13404,20.8604,63.6798,-0.0165858,0.0,0.0
2526,631.25,54.5894,56.0409,142.641,99.9968,100.106,0.00441839,0.134002,20.8604,63.6498,-0.00986234,0.0,0.0
2532,632.75,54.7408,55.6252,145.17,99.9745,100.096,0.00431999,0.133882,20.8604,63.6398,-0.0109574,0.0,0.0
2538,634.25,54.4089,55.9407,146.935,99.9307,100.111,0.00423853,0.133578,20.8605,63.6198,-0.01631,0.0,0.0
2544,635.75,54.3287,55.8693,146.752,99.9052,100.034,0.00416715,0.133119,20.8605,63.6198,-0.0116861,0.0,0.0
2550,637.25,54.7412,55.9291,142.662,99.8606,99.8949,0.00411504,0.132812,20.8605,63.5998,-0.00311144,0.0,0.0
2556,638.75,54.3295,55.8865,149.832,99.8412,99.9673,0.00406449,0.132617,20.8614,63.5497,-0.0114385,0.0,0.0
2562,640.25,54.461,55.7899,143.704,99.8157,100.045,0.00403501,0.132594,20.8621,63.5397,-0.0207744,0.0,0.0
2568,641.75,54.6313,55.4861,145.437,99.8031,99.9609,0.00405693,0.13213,20.8624,63.5097,-0.0143154,0.0,0.0
2574,643.25,54.4422,55.8702,148.325,99.7674,99.9111,0.00416486,0.131351,20.8626,63.5197,-0.0130372,0.0,0.0
2580,644.75,54.3606,55.3134,146.573,99.7601,99.9128,0.00425916,0.131457,20.8623,63.5097,-0.0138536,0.0,0.0
2586,646.25,54.2897,55.6572,144.65,99.7407,99.8915,0.00435722,0.131949,20.8619,63.4796,-0.0136898,0.0,0.0
2592,647.75,54.8615,55.4851,145.47,99.7265,99.9013,0.0044621,0.132244,20.8615,63.4997,-0.0158654,0.0,0.0
2598,649.25,54.3027,55.9174,145.719,99.7095,99.82,0.00458378,0.132257,20.8607,63.4696,-0.0100348,0.0,0.0
2604,650.75,54.0183,55.5415,144,99.7006,99.86,0.00467708,0.132402,20.8603,63.4696,-0.014476,0.0,0.0
2610,652.25,54.2529,55.4367,149.743,99.6977,99.7919,0.00473648,0.132335,20.8601,63.4496,-0.00855121,0.0,0.0
2616,653.75,54.2294,55.2297,144.921,99.6953,99.883,0.00475686,0.132267,20.86,63.4796,-0.0170396,0.0,0.0
2622,655.25,54.4524,55.331,148.004,99.6807,99.8341,0.00476305,0.132045,20.8599,63.4997,-0.0139234,0.0,0.0
2628,656.75,54.3785,55.4793,144.161,99.6758,99.7855,0.00476771,0.131549,20.8599,63.3896,-0.00996017,0.0,0.0
2634,658.25,54.2892,55.3471,146.783,99.6827,99.8719,0.00476483,0.131051,20.8598,63.4096,-0.0171776,0.0,0.0
2640,659.75,54.4141,55.4305,147.188,99.6471,99.8285,0.00470922,0.130455,20.8601,63.3896,-0.0164782,0.0,0.0
2646,661.25,54.343,55.478,144.606,99.6722,99.86,0.00460477,0.130403,20.8611,63.3595,-0.0170532,0.0,0.0
2652,662.75,54.4278,55.6811,147.728,99.671,99.8166,0.00451884,0.130706,20.8616,63.3295,-0.0132232,0.0,0.0
2658,664.25,54.4489,55.3927,146.626,99.6831,99.8285,0.00450518,0.13093,20.8619,63.2794,-0.0132005,0.0,0.0
2664,665.75,54.1245,55.0315,141.95,99.6767,99.8247,0.00450266,0.13158,20.862,63.2694,-0.0134416,0.0,0.0
2670,667.25,53.9885,55.0127,150.569,99.688,99.8434,0.00444897,0.131773,20.8621,63.2294,-0.014111,0.0,0.0
2676,668.75,54.0847,54.9547,145.463,99.6933,99.8583,0.00437983,0.131349,20.8621,63.1994,-0.0149844,0.0,0.0
2682,670.25,54.5476,55.3758,148.282,99.7054,99.7838,0.00431477,0.130904,20.8622,63.1894,-0.00711761,0.0,0.0
2688,671.75,54.0083,55.2339,146.56,99.7042,99.7685,0.0043479,0.130499,20.8622,63.1794,-0.00583605,0.0,0.0
2694,673.25,54.1565,55.0043,146.264,99.7265,99.909,0.00445566,0.130082,20.8622,63.1293,-0.0165604,0.0,0.0
2700,674.75,54.0299,55.0304,146.276,99.7431,99.9013,0.00462861,0.129897,20.8631,63.1493,-0.0143571,0.0,0.0
2706,676.25,54.0424,54.8413,145.34,99.7565,99.9311,0.00477126,0.129674,20.8638,63.1193,-0.0158448,0.0,0.0
2711,677.5,53.6263,54.9619,145.292,99.7727,99.9052,0.00484296,0.129729,20.8641,63.0692,-0.0120186,0.0,0.0