File: 01_Data/Homasote/Cone/Homasote_Cone_HF75Scan_230608_R2.csv
Names,Time,Stack TC,Smoke TC,Exh Press,Smoke Comp,Smoke Meas,CO Meter,CO2 Meter,O2 Meter,Sample Mass,Ext Coeff,Start Test,Flame Verif
Chan Gain,,500,500,1,1,1,1,1,1,1,1,1.0,1.0
Offset,,0,0,0.143883,0,0,0,0,0,0,0,0.0,0.0
Gain,,1,1,25.011,13.1415,13.798,1,1,1,1.00094,1.03262,1.0,1.0
Units,sec,C,C,Pa,%,%,%,%,%,g,/m,,
Baseline,,48.6505,49.5936,149.389,99.9255,99.8791,0.000774044,0.0587415,20.9461,-446.898,0.00420466,,
6,1.25,45.0038,46.5006,152.917,98.6905,98.247,0.000462907,0.0700487,20.9304,108.802,0.0407925,0.0,0.0
12,2.75,44.3259,46.2502,150.41,98.6793,95.7172,0.000407637,0.071331,20.93,108.822,0.276062,0.0,0.0
18,4.25,45.1928,46.1628,134.271,98.6893,98.3338,0.000403848,0.0719086,20.9293,108.542,0.0326881,0.0,1.0
24,5.75,47.0897,46.7772,130.513,98.6789,97.5758,0.000405073,0.070582,20.9272,108.202,0.10182,0.0,1.0
30,7.25,49.2797,48.1884,128.643,98.6921,96.0688,0.000447021,0.068424,20.926,107.891,0.244028,0.0,1.0
36,8.75,49.9795,47.9106,127.677,98.6925,95.4439,0.000555849,0.0665758,20.927,107.571,0.303175,0.0,0.0
42,10.25,51.8383,49.5478,127.095,98.7005,94.5213,0.000670762,0.0654857,20.9286,107.261,0.391895,0.0,0.0
48,11.75,53.6151,51.0753,127.737,98.6925,93.7364,0.000850141,0.086703,20.9301,107.101,0.466692,0.0,0.0
54,13.25,55.3929,52.4613,128.595,98.7081,91.5472,0.00120243,0.153382,20.9294,106.57,0.682186,0.0,0.0
60,14.75,56.8888,53.9487,129.666,98.6841,91.935,0.00155541,0.26524,20.9079,106.33,0.641687,0.0,0.0
66,16.25,57.9597,54.6956,122.738,98.6933,91.3463,0.00193121,0.388181,20.8174,106.01,0.700719,0.0,0.0
72,17.75,59.6834,56.0381,135.312,98.6789,92.3553,0.00247498,0.485734,20.702,105.729,0.599898,0.0,0.0
78,19.25,60.2877,57.1297,132.775,98.6985,91.5156,0.00299785,0.545187,20.5844,105.539,0.684427,0.0,0.0
84,20.75,61.1233,58.2482,127.43,98.6837,91.4457,0.00373251,0.580428,20.4795,105.239,0.689987,0.0,0.0
90,22.25,62.032,58.78,131.294,98.7162,91.1025,0.00434673,0.599424,20.3989,104.989,0.727026,0.0,0.0
96,23.75,62.5547,59.5906,131.435,98.7166,92.2176,0.00489257,0.605504,20.3486,104.738,0.616872,0.0,0.0
102,25.25,63.6825,60.2446,136.529,98.7539,93.2345,0.00535255,0.600474,20.3207,104.438,0.520954,0.0,0.0
108,26.75,63.8545,60.8145,134.379,98.7639,92.9161,0.0056704,0.585762,20.3076,104.238,0.552855,0.0,0.0
114,28.25,64.6628,61.5133,132.67,98.7843,92.6875,0.00586398,0.566783,20.3104,103.948,0.577047,0.0,0.0
120,29.75,65.3741,62.2215,134.286,98.8132,93.3233,0.00603878,0.54795,20.3271,103.798,0.517769,0.0,0.0
126,31.25,65.2177,62.7613,133.062,98.8325,94.288,0.00617481,0.530993,20.3455,103.597,0.426379,0.0,0.0
132,32.75,65.7003,63.3832,138.972,98.8734,94.4194,0.00621549,0.516575,20.3651,103.337,0.417515,0.0,0.0
138,34.25,66.3523,64.0022,128.859,98.9035,94.1423,0.00609507,0.505612,20.383,103.067,0.44689,0.0,0.0
144,35.75,66.2794,64.2772,133.916,98.9295,94.9348,0.00587558,0.490938,20.4004,102.927,0.373347,0.0,0.0
150,37.25,66.8489,64.2767,135.858,98.9644,94.2295,0.00563648,0.476224,20.4172,102.757,0.444089,0.0,0.0
156,38.75,66.3734,64.8663,137.21,98.9933,94.4257,0.00549702,0.46178,20.4328,102.516,0.427888,0.0,0.0
162,40.25,66.8288,65.3443,137.893,99.0242,94.6038,0.00542693,0.449381,20.4515,102.326,0.413644,0.0,0.0
168,41.75,67.3933,65.4245,135.489,99.0883,94.8312,0.00532137,0.43898,20.4687,102.156,0.397766,0.0,0.0
174,43.25,67.2826,66.115,142.352,99.1152,95.5698,0.00517433,0.42834,20.4824,102.026,0.329948,0.0,0.0
180,44.75,67.1188,66.4342,137.68,99.1822,95.438,0.00498114,0.418864,20.4939,101.796,0.348567,0.0,0.0
186,46.25,67.7409,66.5883,134.888,99.2455,95.4885,0.00482094,0.410766,20.5044,101.535,0.349557,0.0,0.0
192,47.75,67.0423,65.8923,135.911,99.3077,95.8123,0.00469126,0.402984,20.5176,101.345,0.324565,0.0,0.0
198,49.25,67.6077,66.43,139.96,99.3618,95.9681,0.00456406,0.397026,20.5272,101.235,0.314783,0.0,0.0
204,50.75,67.6254,66.4713,137.858,99.4188,96.3661,0.00433119,0.390004,20.5384,101.015,0.282494,0.0,0.0
210,52.25,67.7975,67.2117,137.102,99.4629,96.2048,0.00415869,0.383436,20.5474,100.835,0.301684,0.0,0.0
216,53.75,68.0061,67.4159,134.032,99.5323,96.4297,0.00408125,0.377502,20.5548,100.685,0.286853,0.0,0.0
222,55.25,67.7683,67.9287,136.995,99.5592,96.3223,0.00408812,0.374039,20.5617,100.444,0.29939,0.0,0.0
228,56.75,67.5787,67.8995,135.011,99.6169,96.8806,0.00409932,0.372291,20.5704,100.334,0.252288,0.0,0.0
234,58.25,67.6961,67.858,141.318,99.6494,97.0061,0.00407891,0.36997,20.575,100.104,0.243516,0.0,0.0
240,59.75,67.7854,68.2048,137.118,99.6959,96.8537,0.0039782,0.367208,20.5774,99.9839,0.261989,0.0,0.0
246,61.25,67.9058,68.3325,135.646,99.722,97.6967,0.00385428,0.364376,20.58,99.7437,0.185857,0.0,0.0
252,62.75,68.1041,67.904,137.26,99.7432,97.3383,0.00375092,0.360123,20.5829,99.6236,0.221072,0.0,0.0
258,64.25,67.8615,68.4648,132.654,99.7649,97.4718,0.00365425,0.354808,20.5866,99.4434,0.210627,0.0,0.0
264,65.75,68.246,68.8595,136.86,99.8046,97.7687,0.00358069,0.350426,20.5898,99.3133,0.186685,0.0,0.0
270,67.25,68.1261,68.9823,139.153,99.8102,97.6811,0.00349779,0.34664,20.595,99.0931,0.195312,0.0,0.0
276,68.75,67.8952,68.6324,140.409,99.8279,98.3136,0.00343735,0.343402,20.6007,98.8629,0.138454,0.0,0.0
282,70.25,67.5836,68.7769,134.146,99.8632,97.9055,0.00340276,0.341078,20.6056,98.7728,0.179327,0.0,0.0
288,71.75,67.592,68.878,140.633,99.8676,98.1953,0.00338299,0.339442,20.6105,98.6126,0.152964,0.0,0.0
294,73.25,67.8585,69.3149,138.367,99.8768,98.2567,0.00337193,0.337661,20.6137,98.3824,0.148132,0.0,0.0
300,74.75,68.1845,69.2406,138.223,99.8964,98.2639,0.00331154,0.335,20.6159,98.2723,0.149252,0.0,0.0
306,76.25,67.7638,69.0379,137.249,99.9001,97.9742,0.00316481,0.332303,20.6188,98.1122,0.176325,0.0,0.0
312,77.75,68.4815,70.1876,136.859,99.8904,98.5292,0.00298834,0.330161,20.6213,97.962,0.124287,0.0,0.0
318,79.25,67.9952,69.6103,139.016,99.9121,98.5696,0.0029228,0.32783,20.6249,97.8219,0.122536,0.0,0.0
324,80.75,67.7861,69.6881,137.496,99.9065,98.6378,0.00295917,0.324814,20.6269,97.6818,0.11576,0.0,0.0
330,82.25,68.1651,69.9626,135.635,99.9269,98.5717,0.00305423,0.322486,20.6304,97.5216,0.123686,0.0,0.0
336,83.75,68.1474,70.005,136.842,99.9193,98.6774,0.00312931,0.321236,20.634,97.3414,0.11329,0.0,0.0
342,85.25,68.0101,69.9327,140.846,99.9349,98.9233,0.00309966,0.321528,20.6372,97.1613,0.0921614,0.0,0.0
348,86.75,68.209,69.6681,137.437,99.9321,98.6909,0.00297868,0.322274,20.6389,96.9911,0.113216,0.0,0.0
354,88.25,67.9697,69.9746,134.374,99.9454,98.9039,0.00281164,0.32223,20.6389,96.851,0.0948792,0.0,0.0
360,89.75,67.9837,70.3619,138.854,99.9285,98.93,0.00269833,0.321348,20.6387,96.6708,0.0909631,0.0,0.0
366,91.25,67.9991,70.3406,139.057,99.9558,98.9149,0.00256125,0.320163,20.6394,96.5207,0.0948225,0.0,0.0
372,92.75,68.2468,70.0765,137.684,99.9313,99.2648,0.00247174,0.319005,20.6407,96.4106,0.0606187,0.0,0.0
378,94.25,68.0042,70.0134,136.482,99.9562,98.6711,0.00243039,0.318257,20.6414,96.2104,0.117213,0.0,0.0
384,95.75,67.9882,70.4107,136.122,99.9381,98.909,0.00240901,0.317557,20.6418,96.0803,0.0937625,0.0,0.0
390,97.25,68.0779,70.681,136.403,99.9566,98.8863,0.00237602,0.315969,20.6424,95.9001,0.097517,0.0,0.0
396,98.75,67.9447,70.1878,145.093,99.9434,99.1604,0.00229859,0.31317,20.6434,95.78,0.071243,0.0,0.0
402,100.25,68.3297,70.5475,139.629,99.9506,99.3911,0.00222199,0.311595,20.6459,95.5898,0.0508431,0.0,0.0
408,101.75,68.1454,70.6647,139.201,99.9466,99.0804,0.00223474,0.310611,20.6475,95.4597,0.0788453,0.0,0.0
414,103.25,68.3492,70.3715,137.056,99.9458,99.277,0.00234542,0.309594,20.6495,95.2795,0.0608128,0.0,0.0
420,104.75,68.1716,70.1396,137.913,99.9478,99.4261,0.00245874,0.308352,20.6507,95.1194,0.0474043,0.0,0.0
426,106.25,68.2815,70.1553,136.919,99.9498,99.5781,0.00252409,0.307489,20.6523,94.9592,0.0337478,0.0,0.0
432,107.75,68.4024,70.4746,139.212,99.9498,99.5158,0.00254708,0.306797,20.6531,94.8191,0.0394187,0.0,0.0
438,109.25,68.2207,70.8002,136.844,99.9426,99.3246,0.00251478,0.305702,20.6545,94.709,0.0561813,0.0,0.0
444,110.75,68.3074,70.7149,138.18,99.9474,99.1389,0.00243289,0.304316,20.6554,94.5388,0.0735686,0.0,0.0
450,112.25,68.0864,70.8512,140.542,99.9422,99.2341,0.00227041,0.303163,20.6563,94.3586,0.0644053,0.0,0.0
456,113.75,68.171,70.7961,139.406,99.9538,99.2206,0.00206713,0.302485,20.6587,94.2385,0.0666887,0.0,0.0
462,115.25,68.3654,70.8566,139.652,99.9458,99.4219,0.00191049,0.301959,20.6601,94.0984,0.0476062,0.0,0.0
468,116.75,68.1724,70.7327,135.007,99.959,99.5726,0.00188824,0.301114,20.6609,93.9583,0.0350817,0.0,0.0
474,118.25,68.2704,70.8879,141.871,99.955,99.4758,0.00190014,0.30014,20.6611,93.8081,0.0435322,0.0,0.0
480,119.75,68.3526,70.8318,143.239,99.9686,99.4421,0.00193455,0.299814,20.6619,93.658,0.0478361,0.0,0.0
486,121.25,68.0027,70.6307,140.818,99.9594,99.5478,0.00199235,0.299317,20.6625,93.5078,0.0373779,0.0,0.0
492,122.75,68.1837,71.082,133.147,99.975,99.6231,0.00204484,0.297863,20.6629,93.3377,0.0319392,0.0,0.0
498,124.25,68.0326,71.1089,138.689,99.9682,99.7065,0.00207721,0.296528,20.663,93.1875,0.023745,0.0,0.0
504,125.75,68.0721,71.0617,137.02,99.9762,99.5267,0.00208128,0.295296,20.6636,93.0374,0.0408205,0.0,0.0
510,127.25,67.9363,70.9305,139.637,99.9758,99.4021,0.00206319,0.294481,20.6661,92.8773,0.0521348,0.0,0.0
516,128.75,67.9508,70.7377,141.937,99.9931,99.4762,0.00203272,0.293671,20.6691,92.7471,0.0469467,0.0,0.0
522,130.25,68.5728,70.3713,135.874,99.9722,99.7625,0.00204982,0.29285,20.6711,92.567,0.0190212,0.0,0.0
528,131.75,68.493,71.2529,134.537,99.9883,99.84,0.00213976,0.292954,20.6722,92.4168,0.0134422,0.0,0.0
534,133.25,68.2106,70.5945,137.261,99.9883,99.7036,0.00224209,0.294131,20.6726,92.2867,0.0258287,0.0,0.0
540,134.75,67.9918,71.271,143.502,99.9975,99.5777,0.00225396,0.295085,20.672,92.1466,0.0381101,0.0,0.0
546,136.25,67.8473,71.0193,139.262,99.9883,99.752,0.00222973,0.29514,20.6716,91.9964,0.0214303,0.0,0.0
552,137.75,68.3533,71.1471,137.52,100.004,99.7444,0.0021641,0.29445,20.6711,91.8163,0.0234995,0.0,0.0
558,139.25,68.0393,71.0289,134.778,99.9919,99.7137,0.00210541,0.293727,20.6702,91.7162,0.0252376,0.0,0.0
564,140.75,68.2321,71.4361,138.222,99.9979,99.5431,0.00203496,0.292689,20.6702,91.526,0.0412881,0.0,0.0
570,142.25,68.2935,70.5568,134.99,100.002,99.6762,0.0019553,0.291637,20.6708,91.3859,0.0295513,0.0,0.0
576,143.75,68.2656,70.7803,135.396,100.001,99.6682,0.00186076,0.290465,20.6718,91.2958,0.0302056,0.0,0.0
582,145.25,68.0686,70.9744,134.245,99.9959,99.8004,0.00177094,0.290011,20.6739,91.1356,0.0177249,0.0,0.0
588,146.75,68.2133,71.507,141.018,99.9971,99.7756,0.00181709,0.290606,20.6756,91.0055,0.020089,0.0,0.0
594,148.25,67.8941,71.2101,137.303,100.005,99.8354,0.00198581,0.291629,20.6759,90.8253,0.0153881,0.0,0.0
600,149.75,68.4213,71.3252,139.908,100.01,99.888,0.00217542,0.292337,20.6756,90.6752,0.011086,0.0,0.0
606,151.25,67.8867,71.4409,134.308,100.007,99.7832,0.00229734,0.292807,20.6758,90.5651,0.0203088,0.0,0.0
612,152.75,68.7678,70.7279,140.376,100.002,99.6029,0.00234346,0.293669,20.6748,90.4049,0.0362476,0.0,0.0
618,154.25,68.2225,70.9165,141.07,100.008,99.6859,0.00231822,0.293778,20.6743,90.2948,0.0291789,0.0,0.0
624,155.75,68.2903,71.7087,138.213,99.9959,99.8918,0.00225489,0.293324,20.674,90.1447,0.00943471,0.0,0.0
630,157.25,68.2402,71.2193,140.914,100.026,99.5764,0.00220942,0.292886,20.6741,89.9745,0.0408398,0.0,0.0
636,158.75,68.7958,71.1718,140.979,100.004,99.7128,0.0021883,0.292413,20.6749,89.8244,0.0263681,0.0,0.0
642,160.25,68.5332,71.4296,136.062,100.01,99.7444,0.00215792,0.291926,20.6755,89.6943,0.024081,0.0,0.0
648,161.75,68.9531,71.4421,138.887,100,99.6808,0.00213039,0.291362,20.6754,89.5241,0.0289851,0.0,0.0
654,163.25,68.757,71.302,138.005,100.025,99.5305,0.0021164,0.291497,20.6752,89.394,0.0449065,0.0,0.0
660,164.75,68.888,71.3653,137.324,99.9987,99.7587,0.00209326,0.292907,20.6749,89.2138,0.0217632,0.0,0.0
666,166.25,68.8078,71.9081,137.048,100.014,99.7238,0.00204872,0.293926,20.6739,89.1437,0.026282,0.0,0.0
672,167.75,69.1368,71.5978,137.168,100.001,99.6181,0.00196578,0.294384,20.6733,88.9736,0.0347246,0.0,0.0
678,169.25,69.3896,71.7268,137.308,100.038,99.8712,0.00189411,0.295181,20.673,88.8234,0.0150841,0.0,0.0
684,170.75,68.8275,71.6047,137.35,100.024,99.8084,0.00186203,0.296112,20.6719,88.6733,0.0195417,0.0,0.0
690,172.25,69.3665,71.8816,142.415,100.02,99.8362,0.00186615,0.296591,20.6711,88.5632,0.0166202,0.0,0.0
696,173.75,69.1996,71.8721,136.659,100.005,99.6198,0.00187432,0.296211,20.6708,88.383,0.0349709,0.0,0.0
702,175.25,69.1458,71.9271,136.553,100.01,99.6897,0.00188764,0.296099,20.6705,88.2329,0.0290174,0.0,0.0
708,176.75,69.2882,72.0706,134.315,100.008,99.624,0.0019158,0.296888,20.6704,88.1028,0.0348063,0.0,0.0
714,178.25,69.0404,71.6439,134.134,100.008,99.6505,0.00199052,0.298381,20.6704,87.9626,0.032431,0.0,0.0
720,179.75,69.0315,71.4646,137.329,100.017,99.5419,0.00211858,0.29935,20.6695,87.8425,0.0431098,0.0,0.0
726,181.25,69.0376,71.7851,144.055,100.013,99.6198,0.00223303,0.299684,20.6688,87.6824,0.0356969,0.0,0.0
732,182.75,69.3387,72.1785,137.449,100.014,99.64,0.00230547,0.299749,20.6671,87.5523,0.0339318,0.0,0.0
738,184.25,69.146,71.6333,139.264,100.011,99.5617,0.00232851,0.299643,20.6657,87.3721,0.0407646,0.0,0.0
744,185.75,69.448,71.5677,135.967,100.017,99.7145,0.00223194,0.300336,20.665,87.2319,0.0274501,0.0,0.0
750,187.25,69.2408,71.8823,139.648,100.028,99.56,0.00202912,0.301158,20.6646,87.0918,0.0425155,0.0,0.0
756,188.75,69.2544,71.9179,140.819,100.024,99.4513,0.00182935,0.301069,20.6643,86.9617,0.0520049,0.0,0.0
762,190.25,69.4345,71.9362,140.024,100.011,99.4993,0.00172278,0.301195,20.6642,86.8416,0.0464729,0.0,0.0
768,191.75,69.1507,72.0259,138,100.02,99.3511,0.00169727,0.301957,20.6642,86.6914,0.0607753,0.0,0.0
774,193.25,69.4003,72.1489,137.88,100.014,99.4374,0.00175773,0.301987,20.6641,86.5413,0.0523634,0.0,0.0
780,194.75,69.2253,72.2458,135.759,100.043,99.5482,0.00181961,0.302,20.6641,86.4412,0.0449323,0.0,0.0
786,196.25,69.5779,72.2866,134.134,100.018,99.4,0.00188226,0.301543,20.6641,86.3211,0.0561041,0.0,0.0
792,197.75,69.8295,72.4117,139.457,100.029,99.3966,0.0019486,0.300379,20.6641,86.171,0.0574647,0.0,0.0
798,199.25,69.717,72.4903,138.148,100.016,99.4454,0.00202017,0.300228,20.6647,86.0508,0.0518159,0.0,0.0
804,200.75,69.73,72.4842,135.191,100.033,99.4779,0.00208628,0.301564,20.6656,85.8306,0.0504243,0.0,0.0
810,202.25,69.7856,72.4927,135.864,100.015,99.1806,0.00209839,0.302266,20.6654,85.7205,0.0759011,0.0,0.0
816,203.75,69.925,72.275,140.379,100.02,99.4185,0.0020618,0.302455,20.6644,85.5404,0.0546703,0.0,0.0
822,205.25,69.6957,72.5645,134.462,100.004,99.3179,0.00201006,0.302712,20.6638,85.4603,0.0623915,0.0,0.0
828,206.75,70.1971,72.5161,138.17,100.022,99.3313,0.00200584,0.302747,20.6647,85.2901,0.0627615,0.0,0.0
834,208.25,69.9985,72.6364,135.346,100.004,99.1195,0.00205649,0.302841,20.6655,85.14,0.0804615,0.0,0.0
840,209.75,69.9488,72.0344,139.485,100.03,99.2981,0.00217131,0.303055,20.666,84.9998,0.066485,0.0,0.0
846,211.25,69.895,72.8355,137.608,100.016,99.3823,0.0022699,0.302599,20.6662,84.8597,0.0576074,0.0,0.0
852,212.75,69.9571,72.3644,134.927,100.024,99.2054,0.00228018,0.301922,20.6664,84.7096,0.0744308,0.0,0.0
858,214.25,69.635,72.2908,137.11,100.014,99.1945,0.00218525,0.301745,20.6673,84.5895,0.0745229,0.0,0.0
864,215.75,69.9235,72.745,139.542,100.027,99.2235,0.00206742,0.301548,20.6684,84.4593,0.0730684,0.0,0.0
870,217.25,69.9095,73.0909,138.687,100.025,99.0884,0.00200125,0.300748,20.669,84.3593,0.0852346,0.0,0.0
876,218.75,69.9541,72.7287,138.274,100.028,99.272,0.00198772,0.30092,20.6693,84.2592,0.0687218,0.0,0.0
882,220.25,69.562,72.4308,136.141,100.035,99.128,0.00201584,0.302027,20.6687,84.069,0.0824894,0.0,0.0
888,221.75,70.0341,72.5456,133.899,100.014,99.3065,0.0020304,0.303036,20.668,83.9188,0.0643377,0.0,0.0
894,223.25,69.821,72.976,134.596,100.032,99.029,0.00196069,0.303611,20.6674,83.7287,0.0912817,0.0,0.0
900,224.75,69.2318,72.9383,136.432,100.008,99.0181,0.00183481,0.303696,20.667,83.6085,0.09014,0.0,0.0
906,226.25,70.2197,72.9924,142.283,100.025,99.2438,0.00174275,0.303312,20.6668,83.4384,0.0710062,0.0,0.0
912,227.75,70.1571,73.491,140.683,100.019,99.1557,0.00170638,0.302814,20.6666,83.2882,0.0784963,0.0,0.0
918,229.25,70.1086,72.7463,137.281,100.037,98.8151,0.00176322,0.302883,20.6667,83.1881,0.11134,0.0,0.0
924,230.75,70.4014,73.4633,142.489,100.019,98.9431,0.00185718,0.303994,20.6669,83.038,0.0979796,0.0,0.0
930,232.25,70.1997,72.927,138.389,100.032,99.0997,0.00194391,0.305097,20.6668,82.8779,0.0848495,0.0,0.0
936,233.75,69.8968,73.0194,138.985,100.019,98.9705,0.00203997,0.306382,20.6657,82.7678,0.0954743,0.0,0.0
942,235.25,70.0888,72.9735,139.338,100.028,98.9574,0.00213075,0.306891,20.6645,82.6376,0.0975053,0.0,0.0
948,236.75,70.5436,73.4822,138.193,100.017,98.9545,0.00217793,0.305907,20.6639,82.4975,0.0967212,0.0,0.0
954,238.25,70.3098,73.2369,140.395,100.03,99.1023,0.00220621,0.304765,20.6641,82.3474,0.0844366,0.0,0.0
960,239.75,70.0809,73.5488,132.705,99.9963,98.9599,0.00224901,0.303819,20.6648,82.1972,0.0943673,0.0,0.0
966,241.25,70.5392,72.8168,136.128,100.024,98.986,0.00232039,0.302987,20.6652,82.0771,0.0945212,0.0,0.0
972,242.75,70.5234,73.6881,140.207,100.006,98.9637,0.00235263,0.302071,20.6654,81.937,0.0949283,0.0,0.0
978,244.25,70.1789,73.1296,137.026,100.02,98.7208,0.00234333,0.302792,20.6664,81.8069,0.118393,0.0,0.0
984,245.75,70.7682,72.5977,138.909,100.012,98.7422,0.0022959,0.30441,20.6668,81.6567,0.115732,0.0,0.0
990,247.25,70.2979,73.689,138.284,100.013,98.8985,0.00219211,0.306356,20.6658,81.5466,0.101486,0.0,0.0
996,248.75,70.6684,73.6802,142.394,100.012,98.7439,0.00202976,0.307673,20.6649,81.3965,0.115578,0.0,0.0
1002,250.25,70.7387,73.5184,132.093,100.009,98.9241,0.00192624,0.307305,20.6629,81.2563,0.09877,0.0,0.0
1008,251.75,70.8595,72.7755,137.827,100.01,98.9014,0.0018945,0.306795,20.6616,81.1562,0.100961,0.0,0.0
1014,253.25,70.8178,73.6929,136.434,100.01,98.6513,0.00192866,0.306876,20.6609,80.9961,0.123862,0.0,0.0
1020,254.75,70.9549,74.0002,136.241,100.008,98.8008,0.00197698,0.306894,20.6615,80.8459,0.109965,0.0,0.0
1026,256.25,71.2327,73.3908,132.877,99.9963,98.893,0.00201742,0.306898,20.6623,80.6958,0.100497,0.0,0.0
1032,257.75,70.9884,73.248,139.259,99.9927,98.8985,0.00205701,0.307453,20.6621,80.5857,0.0996693,0.0,0.0
1038,259.25,70.7237,73.4711,136.799,99.9923,98.5612,0.00211979,0.307992,20.6616,80.4256,0.130578,0.0,0.0
1044,260.75,71.3422,73.1741,133.549,99.9899,98.5789,0.00215337,0.308115,20.6613,80.2954,0.128735,0.0,0.0
1050,262.25,71.1214,73.2884,136.002,99.9779,98.6437,0.00215925,0.308616,20.6606,80.1453,0.121688,0.0,0.0
1056,263.75,70.6885,73.4066,137.174,99.9787,98.6437,0.00214484,0.309601,20.6597,80.0352,0.12176,0.0,0.0
1062,265.25,70.8749,73.7426,137.792,99.9634,98.6016,0.00212529,0.309622,20.6591,79.9051,0.124248,0.0,0.0
1068,266.75,71.1199,73.2766,138.786,99.9638,98.6694,0.00212581,0.308813,20.6589,79.7749,0.118058,0.0,0.0
1074,268.25,70.9883,73.6312,139.605,99.9598,98.5355,0.00214221,0.30867,20.6587,79.6348,0.129995,0.0,0.0
1080,269.75,71.7038,73.3579,135.823,99.945,98.2289,0.00218708,0.3092,20.6586,79.4947,0.156874,0.0,0.0
1086,271.25,71.4348,73.8395,139.271,99.9217,98.4711,0.0022468,0.309916,20.6586,79.3345,0.132466,0.0,0.0
1092,272.75,71.245,73.9142,140.141,99.9285,98.4618,0.00231688,0.310441,20.6578,79.2044,0.133937,0.0,0.0
1098,274.25,71.3663,73.351,134.762,99.9001,98.8269,0.00237352,0.310477,20.657,79.0643,0.0978322,0.0,0.0
1104,275.75,71.2332,73.804,134.824,99.8964,98.3793,0.00240092,0.310667,20.6566,78.9141,0.138623,0.0,0.0
1110,277.25,71.9499,74.2059,134.856,99.8636,98.3161,0.0023542,0.311272,20.6549,78.784,0.141459,0.0,0.0
1116,278.75,71.2781,73.9692,136.28,99.8612,98.0146,0.00217238,0.311677,20.654,78.6539,0.169061,0.0,0.0
1122,280.25,71.0673,74.2697,132.149,99.8118,98.2951,0.00193057,0.311894,20.6535,78.5037,0.138705,0.0,0.0
1128,281.75,71.6701,74.0159,137.704,99.8102,98.3329,0.00171705,0.311945,20.6533,78.3936,0.135068,0.0,0.0
1134,283.25,71.4724,74.1355,135.982,99.7878,98.2142,0.00158251,0.3114,20.6531,78.2535,0.143974,0.0,0.0
1140,284.75,71.8141,73.9689,135.679,99.7569,98.4715,0.00151521,0.311355,20.653,78.0834,0.117474,0.0,0.0
1146,286.25,71.7508,73.5312,136.541,99.736,98.1102,0.00157666,0.311174,20.653,77.9733,0.148875,0.0,0.0
1152,287.75,72.0066,74.0467,138.454,99.7096,98.0336,0.00174064,0.311917,20.653,77.8131,0.153549,0.0,0.0
1158,289.25,71.1796,74.4258,136.781,99.6819,98.1843,0.00194219,0.312778,20.653,77.673,0.137116,0.0,0.0
1164,290.75,71.8166,74.4779,135.811,99.6566,98.0677,0.00209534,0.313486,20.6527,77.5729,0.145587,0.0,0.0
1170,292.25,71.6795,74.2308,137.999,99.6229,98.1936,0.00216397,0.314291,20.6517,77.4327,0.130903,0.0,0.0
1176,293.75,71.9739,73.5794,136.346,99.5953,97.7586,0.00220124,0.314702,20.6512,77.2726,0.168602,0.0,0.0
1182,295.25,71.7304,74.5077,140.362,99.5708,97.9864,0.00223548,0.314384,20.6509,77.1325,0.145293,0.0,0.0
1188,296.75,71.6613,74.5282,138.248,99.5259,97.8946,0.00226004,0.313504,20.6508,76.9923,0.149696,0.0,0.0
1194,298.25,71.8926,74.1986,136.148,99.495,98.2024,0.0022787,0.313423,20.6507,76.8422,0.118447,0.0,0.0
1200,299.75,71.7285,74.4441,135.502,99.4597,97.831,0.00226389,0.314083,20.652,76.682,0.149556,0.0,0.0
1206,301.25,71.7959,74.2237,139.638,99.432,97.8302,0.00224124,0.315228,20.6531,76.5719,0.147113,0.0,0.0
1212,302.75,71.9426,74.2,139.301,99.3911,97.7497,0.0022631,0.31617,20.6524,76.4418,0.150836,0.0,0.0
1218,304.25,71.9734,74.3556,136.706,99.347,97.863,0.00227203,0.316032,20.6511,76.2717,0.136324,0.0,0.0
1224,305.75,72.2333,73.611,133.85,99.2973,97.6681,0.00223454,0.31529,20.6504,76.1716,0.149852,0.0,0.0
1230,307.25,72.5468,74.403,142.611,99.264,97.6967,0.00216739,0.314991,20.65,76.0314,0.14416,0.0,0.0
1236,308.75,72.0086,74.6036,134.851,99.2002,97.6062,0.00210356,0.315192,20.6498,75.9013,0.146738,0.0,0.0
1242,310.25,72.395,75.2392,134.614,99.1521,97.6095,0.00205582,0.316457,20.6497,75.7812,0.142029,0.0,0.0
1248,311.75,72.3376,74.3672,136.442,99.0947,97.3165,0.00203565,0.317931,20.6496,75.6511,0.164027,0.0,0.0
1254,313.25,72.1664,74.6262,134.928,99.0763,97.3758,0.00204111,0.318789,20.6484,75.551,0.156816,0.0,0.0
1260,314.75,71.9695,74.6584,137.285,98.9949,97.4592,0.00205728,0.318993,20.6467,75.3808,0.141618,0.0,0.0
1266,316.25,72.3056,74.7595,136.594,98.9789,97.3038,0.00211626,0.318472,20.6458,75.2507,0.154602,0.0,0.0
1272,317.75,72.2855,74.8597,138.429,98.9143,97.3219,0.00225811,0.31775,20.6454,75.1106,0.147006,0.0,0.0
1278,319.25,72.5117,74.917,133.916,98.8702,97.4137,0.00239354,0.317126,20.6451,74.9604,0.134424,0.0,0.0
1284,320.75,72.2958,74.9435,134.801,98.8104,97.3615,0.00244021,0.317704,20.645,74.8503,0.133805,0.0,0.0
1290,322.25,72.3469,74.7625,135.933,98.7727,97.3017,0.00240979,0.31871,20.6449,74.7402,0.135914,0.0,0.0
1296,323.75,72.816,74.7646,134.535,98.7322,97.2988,0.00235612,0.319194,20.6439,74.6001,0.132473,0.0,0.0
1302,325.25,72.8572,75.0362,134.52,98.7037,97.0251,0.00228485,0.319137,20.6426,74.48,0.155377,0.0,0.0
1308,326.75,72.282,75.0456,140.078,98.67,97.1855,0.00221162,0.319144,20.6419,74.3398,0.13732,0.0,0.0
1314,328.25,72.8348,75.3485,137.321,98.6516,97.2642,0.00221245,0.319823,20.6416,74.1196,0.12829,0.0,0.0
1320,329.75,72.7842,74.9691,138.209,98.6227,97.0107,0.00229643,0.320534,20.6414,74.0496,0.149275,0.0,0.0
1326,331.25,72.3059,75.1296,134.596,98.5938,97.007,0.00241146,0.320471,20.6413,73.8994,0.146977,0.0,0.0
1332,332.75,72.4598,74.8489,139.133,98.5726,96.9202,0.0024548,0.319817,20.6412,73.8494,0.153127,0.0,0.0
1338,334.25,72.4335,74.8549,134.085,98.5509,96.916,0.00241431,0.318537,20.6412,73.5791,0.15153,0.0,0.0
1344,335.75,72.3333,75.0264,139.787,98.5553,96.7615,0.00235626,0.317079,20.6422,73.479,0.166391,0.0,0.0
1350,337.25,72.1625,75.2579,134.895,98.514,96.7396,0.00232312,0.31602,20.6432,73.3789,0.164644,0.0,0.0
1356,338.75,72.7119,75.139,137.99,98.5189,96.9568,0.00228563,0.316283,20.6445,73.3089,0.144765,0.0,0.0
1362,340.25,72.2019,75.2709,132.886,98.488,96.8844,0.00223942,0.317152,20.6451,73.1487,0.148694,0.0,0.0
1368,341.75,72.2471,75.1061,134.127,98.5048,96.4962,0.00216929,0.318051,20.6444,73.0486,0.186613,0.0,0.0
1374,343.25,71.9068,75.1052,137.471,98.496,96.6617,0.00211742,0.318186,20.6432,72.9485,0.170282,0.0,0.0
1380,344.75,72.5005,74.8147,137.739,98.5092,96.4099,0.00211485,0.317881,20.6422,72.7784,0.195125,0.0,0.0
1386,346.25,72.425,75.0505,142.266,98.49,96.8705,0.00211928,0.316891,20.6419,72.6583,0.150177,0.0,0.0
1392,347.75,72.7459,75.0895,134.409,98.496,96.9126,0.00212704,0.315136,20.6425,72.5281,0.146794,0.0,0.0
1398,349.25,72.3124,75.4004,134.245,98.4659,96.9307,0.00209787,0.314564,20.6425,72.428,0.142335,0.0,0.0
1404,350.75,72.5811,75.023,135.236,98.4936,96.7076,0.00200461,0.315056,20.6424,72.3079,0.16576,0.0,0.0
1410,352.25,72.182,75.3582,135.204,98.488,96.6461,0.00191978,0.315174,20.6423,72.1278,0.171004,0.0,0.0
1416,353.75,72.4595,74.9851,135.985,98.4956,97.2276,0.00194337,0.314931,20.6423,72.0577,0.117366,0.0,0.0
1422,355.25,72.7943,74.8017,138.554,98.4896,96.6339,0.00211756,0.315293,20.6423,71.8975,0.172295,0.0,0.0
1428,356.75,72.3943,75.215,133.603,98.5112,96.8154,0.00235849,0.315688,20.6423,71.7674,0.157291,0.0,0.0
1434,358.25,72.2016,74.8786,137.365,98.5012,96.8465,0.0025798,0.315707,20.6423,71.6273,0.153454,0.0,0.0
1440,359.75,72.302,74.9526,137.844,98.5124,96.5834,0.00271117,0.315669,20.6423,71.4771,0.179136,0.0,0.0
1446,361.25,72.2357,75.0772,133.823,98.508,96.66,0.00270118,0.315627,20.6427,71.3771,0.171545,0.0,0.0
1452,362.75,71.8711,75.3778,136.331,98.5173,96.801,0.00254957,0.315348,20.6429,71.2469,0.159184,0.0,0.0
1458,364.25,71.9287,74.8041,140.786,98.5217,96.8339,0.00230818,0.314114,20.643,71.1468,0.156517,0.0,0.0
1464,365.75,72.1388,75.0332,137.44,98.5341,96.8229,0.00209532,0.312254,20.6431,71.0167,0.158684,0.0,0.0
1470,367.25,71.4712,74.9298,141.898,98.5413,96.9076,0.00197124,0.31163,20.6444,70.8866,0.151433,0.0,0.0
1476,368.75,71.6499,74.7472,138.445,98.5285,97.0339,0.00191856,0.311535,20.646,70.7064,0.138453,0.0,0.0
1482,370.25,71.7559,74.8943,138.722,98.5289,96.7762,0.00189057,0.310812,20.6475,70.6063,0.162578,0.0,0.0
1488,371.75,72.195,74.7752,134.175,98.5337,96.7573,0.00190827,0.309916,20.6484,70.4962,0.164794,0.0,0.0
1494,373.25,72.0711,74.9524,138.53,98.5505,96.9249,0.00201585,0.30863,20.649,70.3761,0.150667,0.0,0.0
1500,374.75,71.8426,75.0015,134.974,98.5341,96.7408,0.00215397,0.307178,20.6492,70.236,0.166369,0.0,0.0
1506,376.25,72.1614,75.05,136.442,98.5501,97.0065,0.00230086,0.306619,20.6502,70.1459,0.142999,0.0,0.0
1512,377.75,72.3205,74.7597,137.619,98.5513,96.9421,0.0024244,0.306302,20.651,70.0258,0.149128,0.0,0.0
1518,379.25,72.0406,74.549,138.927,98.5642,96.8646,0.00251007,0.305745,20.6514,69.8957,0.157549,0.0,0.0
1524,380.75,72.0913,73.914,136.068,98.5505,96.9484,0.00248068,0.305386,20.6517,69.7956,0.148463,0.0,0.0
1530,382.25,71.7773,74.5163,135.008,98.5758,96.967,0.00236521,0.305062,20.6529,69.6755,0.149055,0.0,0.0
1536,383.75,71.7382,74.6418,139.216,98.5606,96.8015,0.00230649,0.303742,20.6542,69.5353,0.163126,0.0,0.0
1542,385.25,71.8697,74.7467,142.972,98.5706,97.1813,0.0022647,0.302063,20.6556,69.4653,0.128576,0.0,0.0
1548,386.75,72.0834,74.8133,141.168,98.5598,97.1859,0.00225392,0.300228,20.6578,69.3451,0.127148,0.0,0.0
1554,388.25,71.1347,74.4968,138.115,98.5702,96.753,0.0022752,0.297814,20.6601,69.225,0.168543,0.0,0.0
1560,389.75,71.6408,74.5738,137.928,98.5606,96.9181,0.00227593,0.296021,20.6623,69.165,0.152218,0.0,0.0
1566,391.25,71.7094,74.7392,136.379,98.5626,96.8234,0.00223251,0.29452,20.6652,69.0849,0.161262,0.0,0.0
1572,392.75,71.4554,74.1889,134.862,98.5578,96.8979,0.0021676,0.292401,20.6666,68.9448,0.15385,0.0,0.0
1578,394.25,71.4431,74.181,138.651,98.5521,97.252,0.00211876,0.289869,20.6673,68.8347,0.12029,0.0,0.0
1584,395.75,71.0757,73.9181,139.261,98.5413,97.1442,0.00211224,0.286879,20.6701,68.7045,0.129339,0.0,0.0
1590,397.25,70.6071,73.6556,139.273,98.5594,97.1236,0.00213902,0.284306,20.6739,68.6345,0.132923,0.0,0.0
1596,398.75,70.9204,74.1903,135.714,98.5549,97.215,0.00217535,0.282255,20.6778,68.5344,0.123999,0.0,0.0
1602,400.25,70.9402,73.9663,138.754,98.5578,97.1981,0.00216785,0.279583,20.6811,68.4643,0.125828,0.0,0.0
1608,401.75,70.45,73.8174,141.775,98.5638,97.1598,0.00212248,0.277163,20.6835,68.4343,0.129952,0.0,0.0
1614,403.25,70.1475,73.9923,142.453,98.5505,97.0015,0.00201107,0.274235,20.6871,68.2841,0.143508,0.0,0.0
1620,404.75,70.6069,73.4219,139.136,98.5545,97.3977,0.00196322,0.270846,20.691,68.164,0.106951,0.0,0.0
1626,406.25,70.1801,73.417,137.078,98.5429,96.7425,0.00203082,0.267911,20.6951,68.074,0.167023,0.0,0.0
1632,407.75,70.387,73.2712,135.898,98.5457,97.1876,0.00215359,0.265088,20.7006,68.0239,0.125703,0.0,0.0
1638,409.25,69.8766,72.942,145.087,98.5289,97.4849,0.00227788,0.261777,20.7042,67.9038,0.0964893,0.0,0.0
1644,410.75,69.4464,73.2113,140.095,98.5373,97.2765,0.00229741,0.258566,20.7076,67.8938,0.116651,0.0,0.0
1650,412.25,69.7368,72.9625,137.811,98.5277,97.0807,0.00224736,0.25548,20.7118,67.7837,0.134017,0.0,0.0
1656,413.75,69.4697,72.7163,143.344,98.5148,97.3009,0.00219816,0.252361,20.7148,67.7036,0.112313,0.0,0.0
1662,415.25,69.5035,72.9498,140.956,98.5116,97.167,0.00215733,0.2495,20.7173,67.6636,0.124493,0.0,0.0
1668,416.75,69.0135,72.3414,141.581,98.516,97.1855,0.00212204,0.244827,20.7196,67.5935,0.123171,0.0,0.0
1674,418.25,68.9031,72.3575,144.141,98.502,97.5005,0.00206937,0.240343,20.7229,67.5535,0.0925708,0.0,0.0
1680,419.75,68.4044,71.8124,142.201,98.4988,97.6584,0.00196029,0.236119,20.7286,67.5034,0.0776174,0.0,0.0
1686,421.25,68.5204,71.6506,144.827,98.4916,97.6053,0.00180629,0.231971,20.7346,67.4233,0.0818763,0.0,0.0
1692,422.75,68.1413,71.5468,143.085,98.496,97.967,0.00170921,0.227036,20.7392,67.3633,0.048777,0.0,0.0
1698,424.25,68.055,71.243,139.844,98.4799,97.9211,0.00170691,0.221711,20.7436,67.3333,0.0515464,0.0,0.0
1704,425.75,67.4095,70.885,142.567,98.4864,98.0226,0.001791,0.216764,20.7495,67.2932,0.0427541,0.0,0.0
1710,427.25,67.1564,70.7439,143.728,98.4731,98.0584,0.00187093,0.212571,20.7545,67.1831,0.0382295,0.0,0.0
1716,428.75,66.605,70.3551,140.607,98.506,98.1169,0.00192846,0.20746,20.7607,67.1731,0.0358486,0.0,0.0
1722,430.25,66.6898,70.231,143.52,98.4667,98.314,0.00194957,0.202285,20.7646,67.1331,0.01406,0.0,0.0
1728,431.75,66.6816,70.0155,141.84,98.4711,98.3544,0.001991,0.197293,20.7711,67.1231,0.0107409,0.0,0.0
1734,433.25,66.164,69.8298,140.542,98.4639,98.4942,0.0020223,0.191717,20.7762,67.1231,-0.00278848,0.0,0.0
1740,434.75,65.6666,69.8523,140.159,98.4743,98.3009,0.00203528,0.186453,20.7822,67.073,0.0159627,0.0,0.0
1746,436.25,65.6226,69.3716,146.309,98.4579,98.2702,0.00204454,0.182084,20.7868,67.023,0.0172841,0.0,0.0
1752,437.75,65.7364,68.8689,146.403,98.4631,98.3532,0.0020436,0.177247,20.791,67.013,0.0101196,0.0,0.0
1758,439.25,64.9233,68.7853,146.504,98.4555,98.53,0.00202903,0.173693,20.7964,66.9429,-0.00685448,0.0,0.0
1764,440.75,64.7934,69.0117,142.44,98.4631,98.501,0.00201747,0.17021,20.8018,66.9329,-0.00348195,0.0,0.0
1770,442.25,64.8697,68.3082,144.585,98.4627,98.5342,0.00204651,0.167119,20.8066,66.9329,-0.00657676,0.0,0.0
1776,443.75,64.3249,68.0572,140.572,98.4619,98.5477,0.00207674,0.164811,20.8106,66.8828,-0.00788977,0.0,0.0
1782,445.25,64.0952,67.7219,147.795,98.4775,98.5629,0.00207152,0.162842,20.8136,66.8628,-0.00784438,0.0,0.0
1788,446.75,63.9777,68.0461,144.894,98.4619,98.6984,0.0020666,0.160504,20.8162,66.8128,-0.0217355,0.0,0.0
1794,448.25,63.5426,67.2661,143.599,98.4803,98.6715,0.00213411,0.158435,20.8186,66.7627,-0.0175649,0.0,0.0
1800,449.75,63.5745,67.0094,145.174,98.4751,98.6471,0.00224433,0.156948,20.8218,66.7627,-0.0158016,0.0,0.0
1806,451.25,63.2228,66.7995,141.943,98.4944,98.6496,0.00227067,0.155407,20.8247,66.7427,-0.0142635,0.0,0.0
1812,452.75,63.1692,66.2529,144.518,98.4976,98.7098,0.00222135,0.153817,20.8266,66.7627,-0.0194952,0.0,0.0
1818,454.25,62.8408,66.3136,139.827,98.5064,98.6344,0.00222386,0.152293,20.8281,66.7227,-0.0117651,0.0,0.0
1824,455.75,62.5927,66.3593,147.169,98.4968,98.6302,0.00233116,0.151041,20.8302,66.6626,-0.012263,0.0,0.0
1830,457.25,62.4735,66.0709,145.541,98.5281,98.5772,0.00249706,0.15007,20.8324,66.6726,-0.00451308,0.0,0.0
1836,458.75,62.5766,65.8333,142.892,98.5345,98.6323,0.00263641,0.14915,20.8343,66.5926,-0.00899057,0.0,0.0
1842,460.25,62.1269,65.8179,140.894,98.5557,98.6673,0.00266801,0.148737,20.8362,66.6126,-0.0102456,0.0,0.0
1848,461.75,61.9874,65.3587,147.098,98.5682,98.6012,0.00268752,0.148561,20.8372,66.6226,-0.00303259,0.0,0.0
1854,463.25,61.8417,65.2251,145.55,98.5942,98.773,0.00278508,0.148331,20.8374,66.5325,-0.0164057,0.0,0.0
1860,464.75,61.5254,64.9035,146.21,98.6259,98.7679,0.00290116,0.147801,20.8375,66.5525,-0.0130323,0.0,0.0
1866,466.25,61.1767,64.9034,147.136,98.6588,98.7178,0.00306163,0.146801,20.8376,66.4725,-0.00541575,0.0,0.0
1872,467.75,61.1015,64.6307,143.586,98.6817,98.7334,0.00317242,0.146134,20.8382,66.4624,-0.00474589,0.0,0.0
1878,469.25,60.8425,64.5905,149.548,98.7122,98.8012,0.00325266,0.146117,20.8391,66.4624,-0.00816644,0.0,0.0
1884,470.75,61.1545,64.1693,145.751,98.737,98.8879,0.00331611,0.146406,20.8395,66.4524,-0.0138336,0.0,0.0
1890,472.25,60.2327,64.0986,143.437,98.7823,98.9077,0.00337239,0.146375,20.8397,66.4324,-0.0114899,0.0,0.0
1896,473.75,60.2665,64.0498,149.83,98.806,98.8888,0.00342276,0.145482,20.8398,66.3924,-0.00758554,0.0,0.0
1902,475.25,60.4231,63.7975,141.866,98.8517,98.8222,0.00345321,0.144421,20.841,66.3223,0.00270126,0.0,0.0
1908,476.75,60.2027,63.6366,143.332,98.8918,99.0037,0.00348167,0.144362,20.8423,66.2923,-0.0102445,0.0,0.0
1914,478.25,60.2323,63.4258,151.578,98.9379,99.0143,0.00345906,0.144837,20.8434,66.3323,-0.00698415,0.0,0.0
1920,479.75,60.1153,63.337,144.003,98.9716,99.1162,0.00335765,0.145325,20.8436,66.3223,-0.0132183,0.0,0.0
1926,481.25,60.0805,63.0219,140.64,99.0153,99.168,0.00327839,0.145143,20.843,66.2222,-0.0139504,0.0,0.0
1932,482.75,59.9431,62.6532,144.616,99.0635,99.1987,0.00327023,0.14467,20.8427,66.2422,-0.012356,0.0,0.0
1938,484.25,59.7466,62.944,142.965,99.0887,99.1856,0.00330103,0.144341,20.8425,66.1922,-0.00885384,0.0,0.0
1944,485.75,59.3964,62.5161,145.275,99.1377,99.1549,0.00333167,0.144068,20.8427,66.1622,-0.00157449,0.0,0.0
1950,487.25,59.2322,62.4275,147.286,99.1758,99.3002,0.00335008,0.143942,20.844,66.1822,-0.0113558,0.0,0.0
1956,488.75,59.2674,62.5248,143.119,99.2207,99.341,0.0033594,0.144343,20.8446,66.1221,-0.0109791,0.0,0.0
1962,490.25,59.2447,62.0385,146.107,99.2508,99.3617,0.00336217,0.144387,20.845,66.0721,-0.0101158,0.0,0.0
1968,491.75,59.2349,62.0097,143.978,99.3121,99.4202,0.00334326,0.144084,20.8452,66.0921,-0.00985099,0.0,0.0
1974,493.25,59.491,61.9879,145.076,99.3594,99.4876,0.00327901,0.143444,20.8453,66.0621,-0.0116715,0.0,0.0
1980,494.75,59.0806,61.8008,141.782,99.4112,99.5322,0.00319001,0.142103,20.8459,66.0821,-0.0110196,0.0,0.0
1986,496.25,59.0512,62.163,142.367,99.4437,99.4981,0.00310042,0.140835,20.8467,66.042,-0.00495549,0.0,0.0
1992,497.75,59.0185,61.5219,146.673,99.4834,99.6071,0.00298135,0.14014,20.8481,66.022,-0.0112634,0.0,0.0
1998,499.25,58.946,61.7581,147.408,99.5038,99.6135,0.00290687,0.140531,20.8502,65.992,-0.00997638,0.0,0.0
2004,500.75,57.4936,59.4758,144.325,99.5523,99.6366,0.00291831,0.141751,20.8512,65.982,-0.00766444,0.0,0.0
2010,502.25,56.8296,59.3958,145.065,99.5732,99.6615,0.00298287,0.142957,20.851,65.9419,-0.00802594,0.0,0.0
2016,503.75,56.5168,59.3201,145.729,99.6253,99.8425,0.00307209,0.143856,20.8495,65.9319,-0.0197262,0.0,0.0
2022,505.25,56.5295,59.3816,145.703,99.6558,99.7882,0.00318316,0.144333,20.8478,65.9219,-0.0120256,0.0,0.0
2028,506.75,56.5069,59.6899,143.088,99.6991,99.7743,0.00329469,0.144022,20.8467,65.9019,-0.00682854,0.0,0.0
2034,508.25,56.6288,59.2341,143.886,99.722,99.7916,0.00336767,0.142915,20.8461,65.8519,-0.00631958,0.0,0.0
2040,509.75,56.5323,58.3663,147.31,99.7525,99.8173,0.00337714,0.141606,20.8455,65.8018,-0.00588251,0.0,0.0
2046,511.25,56.701,58.6619,148.448,99.7713,99.8846,0.00334689,0.140979,20.8478,65.7918,-0.0102823,0.0,0.0
2052,512.75,56.5629,58.7945,142.429,99.785,99.8674,0.00329016,0.141298,20.8497,65.7117,-0.00747855,0.0,0.0
2058,514.25,56.2291,58.1107,139.876,99.8154,99.9112,0.00323173,0.141819,20.8507,65.7117,-0.00868361,0.0,0.0
2064,515.75,56.304,58.7636,143.708,99.8166,99.9566,0.0032014,0.142062,20.8501,65.6717,-0.012696,0.0,0.0
2070,517.25,56.0027,58.3179,143.529,99.8447,99.9861,0.00319207,0.141639,20.8498,65.6617,-0.0128204,0.0,0.0
2076,518.75,56.142,58.6625,144.663,99.8531,99.9583,0.00323569,0.141045,20.8496,65.6517,-0.00953805,0.0,0.0
2082,520.25,56.4707,58.2486,145.244,99.8656,99.9684,0.00329196,0.140826,20.8503,65.6317,-0.00932619,0.0,0.0
2088,521.75,56.4368,58.0965,143.697,99.876,100.031,0.00331651,0.140705,20.851,65.6317,-0.0140629,0.0,0.0
2094,523.25,55.6875,58.1153,146.918,99.8884,100.064,0.00329766,0.140468,20.8514,65.5916,-0.0159097,0.0,0.0
2100,524.75,55.8655,57.8376,149.513,99.8696,100.07,0.00327399,0.140531,20.8516,65.5916,-0.0181902,0.0,0.0
2106,526.25,56.4554,58.1978,146.834,99.9001,100.059,0.00328461,0.14048,20.8517,65.6016,-0.0144355,0.0,0.0
2112,527.75,56.0268,58.367,144.21,99.8992,100.076,0.00334841,0.140186,20.8517,65.5416,-0.0160336,0.0,0.0
2118,529.25,56.4222,57.9325,144.703,99.9081,100.102,0.00341732,0.140017,20.8517,65.5115,-0.0175573,0.0,0.0
2124,530.75,56.0345,58.0258,148.201,99.9077,99.9975,0.00343721,0.14013,20.8518,65.5015,-0.00813996,0.0,0.0
2130,532.25,56.0285,58.091,145.828,99.9269,100.083,0.0033989,0.140451,20.8516,65.4615,-0.0141343,0.0,0.0
2136,533.75,55.6772,57.9381,145.604,99.9201,100.017,0.00331346,0.141017,20.8509,65.4715,-0.00876683,0.0,0.0
2142,535.25,55.7525,57.6688,147.46,99.9277,99.9806,0.00323686,0.141395,20.8505,65.4315,-0.00479559,0.0,0.0
2148,536.75,55.9052,57.8303,148.4,99.9141,100.017,0.00323836,0.141486,20.8503,65.3914,-0.00935051,0.0,0.0
2154,538.25,55.7686,57.722,146.889,99.9317,100.069,0.00333499,0.14142,20.8502,65.3114,-0.0124398,0.0,0.0
2160,539.75,55.621,57.5597,147.176,99.9121,100.029,0.0034727,0.141175,20.8502,65.3514,-0.0105996,0.0,0.0
2166,541.25,55.4756,57.6571,142.495,99.9285,100.04,0.00359474,0.140893,20.8501,65.3414,-0.0100623,0.0,0.0
2172,542.75,55.5092,57.562,141.744,99.9205,99.9714,0.00368634,0.140802,20.8501,65.3013,-0.00461139,0.0,0.0
2178,544.25,55.8474,57.5434,146.612,99.9402,100.096,0.00372495,0.140623,20.8507,65.2713,-0.0141543,0.0,0.0
2184,545.75,55.3764,57.4442,145.359,99.9117,100.035,0.00373428,0.140158,20.8515,65.2813,-0.011132,0.0,0.0
2190,547.25,55.4597,57.4475,150.257,99.9325,100.031,0.0037612,0.139953,20.852,65.2113,-0.00893653,0.0,0.0
2196,548.75,55.3398,57.1252,144.702,99.9277,100.046,0.00379233,0.140172,20.853,65.1512,-0.010745,0.0,0.0
2202,550.25,55.7311,57.2498,146.537,99.9273,100.073,0.00378513,0.140755,20.8538,65.1512,-0.0131832,0.0,0.0
2208,551.75,55.3477,56.5441,145.499,99.9265,100.04,0.00374265,0.140838,20.8535,65.1812,-0.0103201,0.0,0.0
2214,553.25,55.7939,56.9204,144.983,99.9189,99.9499,0.00371859,0.140496,20.853,65.1412,-0.00281062,0.0,0.0
2220,554.75,54.8455,56.8284,145.741,99.9357,100.021,0.0037058,0.140169,20.8527,65.1312,-0.00769199,0.0,0.0
2226,556.25,55.0183,57.2465,146.473,99.9269,100.014,0.0036318,0.140014,20.8523,65.1012,-0.0078822,0.0,0.0
2232,557.75,55.443,56.814,147.197,99.9381,100.011,0.00358359,0.140118,20.8521,65.0611,-0.00663511,0.0,0.0
2238,559.25,55.165,56.9211,145.325,99.9249,100.038,0.00358251,0.139718,20.8519,65.0311,-0.0102747,0.0,0.0
2244,560.75,54.938,56.675,146.809,99.9518,100.054,0.003646,0.139077,20.8519,65.0411,-0.00928836,0.0,0.0
2250,562.25,55.2518,56.6184,146.758,99.9289,99.9983,0.00376843,0.13875,20.8518,65.0311,-0.00628879,0.0,0.0
2256,563.75,54.718,56.5352,145.941,99.943,100.011,0.00391553,0.138446,20.8518,64.971,-0.00612293,0.0,0.0
2262,565.25,55.3546,56.5717,147.598,99.941,99.9491,0.00397855,0.13825,20.8529,64.941,-0.000734835,0.0,0.0
2268,566.75,55.1516,56.8129,144.885,99.9598,100.099,0.00396152,0.138211,20.8535,64.951,-0.0125636,0.0,0.0
2274,568.25,54.9614,56.1033,143.922,99.9418,100.065,0.00390869,0.13819,20.8538,64.941,-0.011151,0.0,0.0
2280,569.75,54.8238,56.2117,143.149,99.963,100.24,0.00384627,0.138005,20.854,64.921,-0.0251056,0.0,0.0
2286,571.25,55.2879,56.5391,146.152,99.951,100.118,0.00380998,0.137844,20.854,64.911,-0.0151542,0.0,0.0
2292,572.75,54.9723,56.1601,140.78,99.9698,100.03,0.00378046,0.137393,20.8541,64.891,-0.00548003,0.0,0.0
2298,574.25,54.8829,56.3447,143.216,99.9654,100.019,0.00371096,0.136928,20.8541,64.8709,-0.0048885,0.0,0.0
2304,575.75,54.9923,56.3814,145.077,99.9762,100.018,0.0036826,0.136941,20.8541,64.8709,-0.00375471,0.0,0.0
2310,577.25,54.7241,56.1801,143.995,99.973,100.025,0.0037545,0.136986,20.8541,64.8109,-0.00469295,0.0,0.0
2316,578.75,54.615,56.0579,144.371,99.9891,100.087,0.00387453,0.137295,20.8545,64.8109,-0.00888249,0.0,0.0
2322,580.25,55.3158,56.5803,142.572,99.9762,99.9171,0.00400533,0.13726,20.8549,64.8309,0.00536395,0.0,0.0
2328,581.75,55.3292,56.5227,146.435,99.9819,100.104,0.00403307,0.136549,20.8552,64.8009,-0.0110223,0.0,0.0
2334,583.25,54.454,55.983,149.275,99.9742,100.043,0.00400145,0.136163,20.8553,64.7909,-0.00626286,0.0,0.0
2340,584.75,54.7696,56.421,145.883,99.9983,100.11,0.00397058,0.136955,20.8554,64.7508,-0.0101423,0.0,0.0
2346,586.25,55.0675,56.1976,148.257,99.9935,100.083,0.00396968,0.137729,20.8552,64.7108,-0.0081016,0.0,0.0
2352,587.75,54.7544,56.2873,143.865,99.9947,100.078,0.00396646,0.137977,20.8542,64.6607,-0.00753475,0.0,0.0
2358,589.25,54.9036,56.2159,145.975,100,100.09,0.00394936,0.137607,20.8537,64.6607,-0.00813186,0.0,0.0
2364,590.75,54.7588,55.818,142.73,100.012,100.149,0.00394633,0.136975,20.8534,64.6307,-0.0123743,0.0,0.0
2370,592.25,54.5094,56.0324,142.224,100.003,100.096,0.00400113,0.136385,20.8535,64.5506,-0.00844745,0.0,0.0
2376,593.75,54.7399,56.0301,143.823,100.002,100.042,0.00409949,0.13591,20.8544,64.5807,-0.00367693,0.0,0.0
2382,595.25,54.6634,55.8855,149.317,100.001,100.141,0.00414428,0.136215,20.8552,64.5807,-0.0127047,0.0,0.0
2388,596.75,54.8613,56.0404,148.389,100.005,100.082,0.00414608,0.136623,20.8564,64.5506,-0.00697118,0.0,0.0
2394,598.25,54.8861,56.1378,147.196,100.004,100.089,0.0041178,0.13642,20.8564,64.5406,-0.00772604,0.0,0.0
2400,599.75,54.625,55.6842,148.666,99.9939,100.015,0.00405853,0.136048,20.856,64.5206,-0.00192711,0.0,0.0
2406,601.25,54.6271,56.0402,144.833,100.021,100.038,0.00403283,0.135868,20.8566,64.5306,-0.00155451,0.0,0.0
2412,602.75,54.214,55.6943,144.36,99.9887,99.9785,0.00407139,0.135956,20.8568,64.5006,0.000918865,0.0,0.0
2418,604.25,54.6797,55.3005,141.476,99.9927,99.9604,0.00411448,0.135922,20.857,64.4606,0.00292255,0.0,0.0
2424,605.75,54.736,55.6693,143.559,99.975,99.9558,0.00414167,0.135557,20.8571,64.4606,0.00174371,0.0,0.0
2430,607.25,54.2387,55.2642,144.021,99.9879,99.987,0.00411385,0.135347,20.8571,64.4505,8.31444e-05,0.0,0.0
2436,608.75,54.5379,55.7173,143.018,99.959,100.042,0.00404997,0.135244,20.8571,64.4105,-0.00749044,0.0,0.0
2442,610.25,54.3763,55.4699,144.844,99.9694,100.056,0.0039635,0.135083,20.8571,64.3404,-0.00788058,0.0,0.0
2448,611.75,54.4151,55.6819,142.841,99.951,100.139,0.00390636,0.134836,20.8572,64.3605,-0.0169823,0.0,0.0
2454,613.25,54.5835,55.4355,145.678,99.9622,100.005,0.00388744,0.134777,20.8573,64.3004,-0.00388218,0.0,0.0
2460,614.75,54.5649,55.4021,142.474,99.9482,100.006,0.00390515,0.134677,20.8576,64.2403,-0.00523099,0.0,0.0
2466,616.25,54.7771,55.6275,140.02,99.9313,99.9461,0.00394009,0.134585,20.8578,64.2504,-0.00133959,0.0,0.0
2472,617.75,54.9627,55.8559,147.186,99.9233,99.952,0.00394776,0.134796,20.8584,64.2604,-0.00260162,0.0,0.0
2478,619.25,54.2739,55.8415,144.474,99.9189,100.08,0.00393304,0.135239,20.8593,64.2504,-0.0145939,0.0,0.0
2481,620,54.0902,55.4654,142.453,99.9281,99.9604,0.00391663,0.135314,20.8596,64.2403,-0.00292836,0.0,0.0