File: 01_Data/Homasote/Cone/Homasote_Cone_HF50Scan_230608_R3.csv
Names,Time,Stack TC,Smoke TC,Exh Press,Smoke Comp,Smoke Meas,CO Meter,CO2 Meter,O2 Meter,Sample Mass,Ext Coeff,Start Test,Flame Verif
Chan Gain,,500,500,1,1,1,1,1,1,1,1,1.0,1.0
Offset,,0,0,0.143883,0,0,0,0,0,0,0,0.0,0.0
Gain,,1,1,25.011,13.2368,13.8891,1,1,1,1.00094,1.03262,1.0,1.0
Units,sec,C,C,Pa,%,%,%,%,%,g,/m,,
Baseline,,39.6155,40.2136,153.415,99.0402,98.8045,0.000755739,0.0615723,20.9423,-446.002,0.0215925,,
7,1.5,35.6899,36.5769,153.47,99.5087,99.2285,0.000621449,0.0884812,20.9014,109.042,0.0255369,0.0,0.0
14,3.25,36.1302,37.0967,154.43,99.5317,99.0954,0.000649429,0.0875503,20.902,109.002,0.0397896,0.0,0.0
21,5,35.814,37.1289,152.821,99.5648,98.6817,0.000703958,0.0868994,20.9035,108.982,0.0806959,0.0,0.0
28,6.75,36.2554,36.9158,154.659,99.6084,98.1248,0.000827206,0.0855973,20.9057,108.952,0.135933,0.0,0.0
35,8.5,36.4438,37.2683,153.738,99.6399,97.7793,0.00085227,0.0832818,20.9071,108.902,0.170743,0.0,0.0
42,10.25,36.4548,37.1105,141.35,99.6727,99.3671,0.000817707,0.0807224,20.9106,108.672,0.0278097,0.0,1.0
49,12,37.9743,37.5526,133.576,99.6868,99.4116,0.000802716,0.0790114,20.915,108.422,0.0250384,0.0,1.0
56,13.75,38.9928,37.3939,133.112,99.7175,99.2162,0.000852131,0.0784751,20.9183,108.192,0.04565,0.0,1.0
63,15.5,40.0648,37.9739,133.765,99.764,99.0391,0.000975548,0.0802635,20.9199,107.891,0.0660573,0.0,0.0
70,17.25,41.248,38.6861,138.49,99.7987,98.6177,0.00116107,0.0869414,20.9196,107.631,0.107827,0.0,0.0
77,19,43.3314,40.2885,131.31,99.8173,98.1659,0.00137802,0.12384,20.9153,107.361,0.15111,0.0,0.0
84,20.75,44.6924,41.466,141.614,99.85,97.9086,0.00172345,0.195029,20.8882,107.131,0.17785,0.0,0.0
91,22.5,45.1616,42.2931,135.783,99.8973,97.6378,0.00201738,0.296188,20.8333,106.86,0.207229,0.0,0.0
98,24.25,46.5188,43.4174,140.229,99.9243,97.0418,0.00221271,0.373119,20.7276,106.58,0.265139,0.0,0.0
105,26,47.9288,44.5416,141.529,99.9364,97.5386,0.00244568,0.420088,20.6201,106.4,0.219988,0.0,0.0
112,27.75,48.9279,45.3286,135.343,99.9595,96.8023,0.00282615,0.446072,20.5524,106.13,0.290706,0.0,0.0
119,29.5,49.6283,46.4624,134.334,100.003,96.4772,0.00317756,0.457975,20.5125,105.829,0.325093,0.0,0.0
126,31.25,49.8872,46.8313,135.482,100.021,96.4272,0.0034213,0.462172,20.4889,105.579,0.331474,0.0,0.0
133,33,50.9046,47.5399,143.428,100.037,96.74,0.00356816,0.461434,20.477,105.389,0.3036,0.0,0.0
140,34.75,51.2329,48.4756,139.513,100.061,96.4654,0.00371798,0.458227,20.4745,105.159,0.331513,0.0,0.0
147,36.5,52.2843,49.3938,140.292,100.105,96.058,0.00382931,0.453048,20.4751,104.909,0.373826,0.0,0.0
154,38.25,53.0312,49.5179,139.016,100.111,96.5128,0.00383975,0.44491,20.48,104.688,0.331551,0.0,0.0
161,40,52.653,50.1589,140.84,100.13,96.5828,0.00377491,0.436665,20.487,104.468,0.326708,0.0,0.0
168,41.75,53.03,50.7582,139.614,100.127,96.284,0.00373658,0.428384,20.4983,104.278,0.354485,0.0,0.0
175,43.5,53.7146,51.2271,138.878,100.142,96.7523,0.00380288,0.419853,20.5074,104.058,0.311954,0.0,0.0
182,45.25,53.8943,51.9106,138.26,100.156,96.6052,0.00390637,0.412307,20.5159,103.808,0.326976,0.0,0.0
189,47,54.1179,52.2816,137.587,100.165,96.3145,0.00402107,0.402879,20.5282,103.667,0.355085,0.0,0.0
196,48.75,54.6461,52.2688,139.942,100.168,96.732,0.00405859,0.395613,20.5378,103.467,0.316198,0.0,0.0
203,50.5,55.2434,52.5302,142.189,100.173,96.9265,0.00399155,0.389441,20.546,103.277,0.298399,0.0,0.0
210,52.25,55.1652,53.0084,143.872,100.181,96.6129,0.00390662,0.381722,20.5538,103.057,0.328526,0.0,0.0
217,54,54.9313,53.2801,139.817,100.164,96.9041,0.00386265,0.374389,20.5611,102.897,0.299695,0.0,0.0
224,55.75,55.7757,53.8097,140.47,100.158,97.7399,0.00386817,0.368583,20.5713,102.696,0.221388,0.0,0.0
231,57.5,55.2124,54.1959,143.932,100.13,97.7208,0.00391857,0.363409,20.5793,102.496,0.220599,0.0,0.0
238,59.25,55.5385,54.7682,138.507,100.121,97.5538,0.00392793,0.357973,20.5867,102.326,0.235251,0.0,0.0
245,61,55.5625,54.3937,141.342,100.114,97.7073,0.00377775,0.352646,20.5933,102.126,0.220431,0.0,0.0
252,62.75,55.4559,54.4664,144.486,100.099,97.7844,0.00357647,0.347938,20.5992,101.956,0.211929,0.0,0.0
259,64.5,55.8876,55.082,145.007,100.062,98.004,0.00339549,0.344812,20.6042,101.756,0.188213,0.0,0.0
266,66.25,55.8121,54.8406,142.446,100.036,98.0659,0.00333142,0.341702,20.6092,101.605,0.180155,0.0,0.0
273,68,55.5445,55.0365,144.874,99.9805,98.1549,0.0033201,0.337464,20.6132,101.435,0.166924,0.0,0.0
280,69.75,55.828,55.2105,140.241,99.9663,98.0616,0.00327697,0.333026,20.6179,101.245,0.174253,0.0,0.0
287,71.5,55.5638,55.777,143.086,99.9098,98.1176,0.00320513,0.327732,20.6216,101.095,0.16396,0.0,0.0
294,73.25,55.473,55.5797,141.835,99.8472,98.444,0.00317091,0.321995,20.6279,100.915,0.128201,0.0,0.0
301,75,55.6624,55.7379,139.492,99.808,98.0337,0.00315626,0.316635,20.6337,100.805,0.162478,0.0,0.0
308,76.75,55.5634,55.9868,139.515,99.7575,98.8462,0.00317675,0.31166,20.6395,100.645,0.083126,0.0,0.0
315,78.5,55.3861,56.0035,144.603,99.7122,98.8712,0.00314641,0.308095,20.646,100.474,0.0767266,0.0,0.0
322,80.25,55.8162,56.2055,147.239,99.6367,98.9132,0.00302559,0.304991,20.65,100.324,0.0660187,0.0,0.0
329,82,55.7078,56.1208,142.649,99.566,98.808,0.00283081,0.302091,20.6542,100.164,0.0692201,0.0,0.0
336,83.75,55.6778,55.7118,142.958,99.5236,98.8882,0.00271456,0.298943,20.6573,99.9739,0.0580194,0.0,0.0
343,85.5,55.7236,56.1544,139.501,99.4776,98.9797,0.00262952,0.295843,20.662,99.8338,0.0454448,0.0,0.0
350,87.25,55.0454,56.1781,141.052,99.4303,98.6084,0.00251579,0.292791,20.6659,99.6636,0.0751847,0.0,0.0
357,89,55.6132,56.0751,144.317,99.3701,98.5999,0.00240182,0.290908,20.6705,99.5535,0.070478,0.0,0.0
364,90.75,55.6159,56.3501,144.376,99.3438,98.6839,0.00226153,0.289051,20.6732,99.3734,0.0603774,0.0,0.0
371,92.5,55.3005,56.4285,144.554,99.421,98.6978,0.00215976,0.286865,20.6745,99.2132,0.0661259,0.0,0.0
378,94.25,55.7256,56.3606,141.158,99.5054,98.9865,0.00214998,0.285535,20.6764,99.0831,0.0473624,0.0,0.0
385,96,55.6546,56.7943,146.721,99.5511,99.2624,0.00217577,0.284874,20.6785,98.9129,0.0263014,0.0,0.0
392,97.75,55.3773,56.4875,145.499,99.6222,99.1628,0.00215769,0.283949,20.6797,98.7728,0.0418621,0.0,0.0
399,99.5,55.5472,56.5375,149.764,99.6654,99.4315,0.00210335,0.281708,20.6812,98.6327,0.0212773,0.0,0.0
406,101.25,55.194,56.5871,145.164,99.7122,99.3489,0.00208267,0.279183,20.6824,98.3224,0.0330679,0.0,0.0
413,103,54.6706,56.838,144.962,99.7417,99.3599,0.00209351,0.276055,20.6845,98.2223,0.0347418,0.0,0.0
420,104.75,55.0113,56.4,141.989,99.7648,99.5464,0.00207653,0.273075,20.6884,98.0921,0.0198466,0.0,0.0
427,106.5,55.1734,56.3711,143.168,99.8274,99.4752,0.00209836,0.270373,20.6913,98.0721,0.0320113,0.0,0.0
434,108.25,54.7452,56.3443,147.169,99.8827,99.5413,0.0021897,0.267923,20.6954,97.952,0.0310127,0.0,0.0
441,110,54.7259,56.4287,146.18,99.9098,99.7185,0.00232369,0.265082,20.6988,97.7418,0.0173584,0.0,0.0
448,111.75,54.5092,56.7198,144.113,99.9336,99.6163,0.00244844,0.261892,20.7014,97.6217,0.0288032,0.0,0.0
455,113.5,54.5087,56.5906,142.946,99.951,99.4858,0.00238849,0.258833,20.7051,97.5116,0.0422554,0.0,0.0
462,115.25,54.8085,56.2848,147.645,99.9688,99.6609,0.00221064,0.256463,20.7093,97.3615,0.0279421,0.0,0.0
469,117,54.9293,56.6364,142.825,99.9954,99.961,0.00210969,0.254597,20.7136,97.2113,0.00312333,0.0,0.0
476,118.75,54.5914,56.4779,143.67,99.993,99.7092,0.00220453,0.25244,20.7159,97.0912,0.025748,0.0,0.0
483,120.5,54.4845,56.923,143.201,99.9861,99.7863,0.0023827,0.250153,20.717,96.811,0.0181193,0.0,0.0
490,122.25,54.4823,56.4341,145.072,100.004,99.8219,0.00256554,0.24875,20.7192,96.7209,0.016535,0.0,0.0
497,124,54.356,56.1629,147.628,100.018,99.8749,0.00263317,0.247384,20.7201,96.6308,0.0129721,0.0,0.0
504,125.75,54.485,56.6144,145.88,100.008,99.8991,0.0026221,0.245192,20.722,96.4806,0.00983058,0.0,0.0
511,127.5,54.3922,56.1147,144.978,100.004,99.9241,0.0025126,0.242806,20.7247,96.3205,0.00719726,0.0,0.0
518,129.25,54.8428,56.4833,142.007,99.9974,99.8961,0.00237372,0.24059,20.7287,96.2204,0.00918446,0.0,0.0
525,131,54.3083,56.5503,143.141,100.027,99.816,0.00222747,0.238967,20.7319,96.0602,0.0191581,0.0,0.0
532,132.75,54.1749,56.5356,143.607,100.012,99.7414,0.00217389,0.238379,20.7335,95.9101,0.0245409,0.0,0.0
539,134.5,54.2767,56.3072,144.724,100.009,99.838,0.00216953,0.238223,20.7348,95.75,0.0155121,0.0,0.0
546,136.25,54.2478,56.3212,143.533,99.9958,99.7944,0.0021701,0.237754,20.7355,95.5998,0.0182669,0.0,0.0
553,138,53.8646,55.8453,141.465,100.016,99.7528,0.00220244,0.236962,20.7363,95.4997,0.0238312,0.0,0.0
560,139.75,53.8928,56.1206,142.175,100.024,99.7842,0.00229419,0.235532,20.7375,95.3796,0.0217513,0.0,0.0
567,141.5,54.2338,55.9831,141.121,100.004,99.908,0.00238018,0.233505,20.7391,95.2495,0.00869363,0.0,0.0
574,143.25,53.7965,56.2243,145.057,99.9958,99.8558,0.00234748,0.232037,20.7405,95.0593,0.0126896,0.0,0.0
581,145,54.0976,56.0839,144.932,99.9991,99.7795,0.00215577,0.231846,20.7425,94.8991,0.0199059,0.0,0.0
588,146.75,53.7122,55.9049,145.706,100.01,99.9499,0.00196033,0.231279,20.7438,94.8191,0.00547618,0.0,0.0
595,148.5,53.5332,55.658,142.55,100.006,99.8804,0.0018814,0.231218,20.7452,94.6889,0.0114117,0.0,0.0
602,150.25,53.3537,56.0326,150.396,99.995,99.819,0.0019586,0.231303,20.7451,94.5388,0.0159627,0.0,0.0
609,152,53.7172,55.8077,145.738,99.9877,99.8864,0.00216601,0.230398,20.745,94.4988,0.00918985,0.0,0.0
616,153.75,53.3504,56.2277,144.858,100.008,99.8859,0.00235054,0.229152,20.745,94.2886,0.0110957,0.0,0.0
623,155.5,53.3427,55.6455,144.215,100.018,99.9275,0.00237258,0.227199,20.7465,94.1184,0.00824377,0.0,0.0
630,157.25,53.1982,55.608,148.223,100.004,99.8185,0.00232484,0.225686,20.7482,94.0183,0.0167689,0.0,0.0
637,159,52.9268,55.6168,146.699,99.9873,99.8274,0.00230338,0.225308,20.7506,93.8782,0.0144977,0.0,0.0
644,160.75,53.2636,55.5562,145.767,99.9821,99.8897,0.00227464,0.225056,20.7528,93.7481,0.00837107,0.0,0.0
651,162.5,53.1178,55.3781,142.97,100.017,99.8741,0.00215546,0.225118,20.7536,93.5779,0.0129753,0.0,0.0
658,164.25,53.0573,55.9144,143.406,100,99.8609,0.00211023,0.224824,20.7541,93.4178,0.0126313,0.0,0.0
665,166,52.8402,55.3957,143.517,99.9877,99.8656,0.00218081,0.224433,20.7547,93.3277,0.0110731,0.0,0.0
672,167.75,53.0045,55.2665,147.308,99.9825,99.7253,0.00229914,0.225833,20.7553,93.1976,0.0233325,0.0,0.0
679,169.5,52.8478,54.9515,145.688,99.9813,99.7702,0.002325,0.227426,20.7561,93.0574,0.019143,0.0,0.0
686,171.25,52.6808,55.2869,146.284,99.9772,99.8308,0.00227179,0.227733,20.7542,92.9573,0.0132761,0.0,0.0
693,173,52.6765,55.0768,144.185,99.9663,99.794,0.00227727,0.226636,20.7531,92.8572,0.0156339,0.0,0.0
700,174.75,52.3159,55.4203,145.563,99.9413,99.7867,0.00232775,0.225026,20.7532,92.7171,0.0140179,0.0,0.0
707,176.5,52.6074,55.1366,144.452,99.9429,99.7961,0.00237467,0.224397,20.7549,92.607,0.0133182,0.0,0.0
714,178.25,52.7159,55.1605,147.415,99.9308,99.802,0.00232064,0.223922,20.7563,92.4569,0.0116813,0.0,0.0
721,180,52.7122,55.0147,146.686,99.9074,99.6871,0.00220117,0.222405,20.757,92.3267,0.0199888,0.0,0.0
728,181.75,52.8292,55.0204,145.78,99.8787,99.6973,0.00212024,0.221269,20.759,92.2066,0.0164628,0.0,0.0
735,183.5,52.4927,55.0429,146.847,99.8557,99.6375,0.00201504,0.221358,20.7607,92.0565,0.0198067,0.0,0.0
742,185.25,52.7976,54.8748,148.971,99.8443,99.7155,0.00189601,0.221796,20.7615,91.9864,0.0116932,0.0,0.0
749,187,52.6843,54.7068,144.723,99.8084,99.6706,0.00181551,0.220992,20.7616,91.8363,0.0125138,0.0,0.0
756,188.75,52.6051,54.7878,143.062,99.764,99.5791,0.00186681,0.219761,20.7615,91.7062,0.0168034,0.0,0.0
763,190.5,52.7367,54.5783,143.8,99.7361,99.5604,0.00195248,0.218753,20.7623,91.586,0.0159691,0.0,0.0
770,192.25,52.6866,54.8766,148.264,99.7357,99.5689,0.00199152,0.218432,20.7629,91.4759,0.0151618,0.0,0.0
777,194,52.5783,54.7091,144.664,99.7054,99.5061,0.00201429,0.218851,20.7632,91.3258,0.0181182,0.0,0.0
784,195.75,52.4291,54.3883,144.146,99.6723,99.5083,0.00205057,0.218868,20.7633,91.2057,0.0149149,0.0,0.0
791,197.5,52.3722,54.5227,147.06,99.6472,99.4943,0.00209588,0.219043,20.7634,91.0455,0.0139134,0.0,0.0
798,199.25,52.5533,54.3464,144.854,99.6048,99.4188,0.00213944,0.218859,20.7634,90.9955,0.0169273,0.0,0.0
805,201,52.5914,54.5727,144.074,99.5967,99.3879,0.0021197,0.218295,20.7634,90.8153,0.0190115,0.0,0.0
812,202.75,52.2973,54.5235,146.856,99.5721,99.4625,0.00204577,0.217539,20.7635,90.6652,0.00997511,0.0,0.0
819,204.5,51.856,54.5069,146.184,99.5285,99.3976,0.00198099,0.216782,20.7635,90.5551,0.0119132,0.0,0.0
826,206.25,52.5157,54.4081,148.187,99.5147,99.284,0.00200952,0.216303,20.7643,90.445,0.0210209,0.0,0.0
833,208,52.2388,54.594,148.914,99.478,99.2277,0.00210596,0.216652,20.7638,90.2648,0.0228188,0.0,0.0
840,209.75,52.3736,54.2395,143.693,99.4339,99.1815,0.00210128,0.216608,20.7636,90.1447,0.0230266,0.0,0.0
847,211.5,52.1175,54.1171,143.936,99.3931,99.2548,0.00182479,0.216716,20.7635,90.0046,0.0126152,0.0,0.0
854,213.25,51.781,54.4245,144.943,99.3386,99.1463,0.00157959,0.217159,20.7635,89.9045,0.0175524,0.0,0.0
861,215,52.2019,54.1007,145.632,99.3297,99.2073,0.0014853,0.21732,20.7639,89.8144,0.0111669,0.0,0.0
868,216.75,52.1826,54.0147,148.093,99.3293,99.1251,0.00162932,0.217979,20.7642,89.7043,0.0186409,0.0,0.0
875,218.5,52.0129,54.4619,147.144,99.3289,99.1196,0.00183584,0.218753,20.7644,89.5641,0.0191074,0.0,0.0
882,220.25,52.4111,53.9346,146.264,99.3329,99.2395,0.00199269,0.219171,20.7633,89.444,0.00852103,0.0,0.0
889,222,52.3428,54.2858,143.694,99.3382,99.2188,0.00195777,0.219916,20.7625,89.364,0.0108951,0.0,0.0
896,223.75,52.1942,54.305,145.316,99.3527,99.2306,0.00186744,0.220245,20.7611,88.8835,0.0111378,0.0,0.0
903,225.5,52.5948,54.2025,149.725,99.36,99.1645,0.00194301,0.220575,20.7604,89.0837,0.0178391,0.0,0.0
910,227.25,52.581,54.5875,141.116,99.3511,99.3006,0.00210263,0.221212,20.7601,88.9636,0.0046085,0.0,0.0
917,229,52.4795,54.1734,141.64,99.358,99.2264,0.00220056,0.221629,20.7595,88.8335,0.0120038,0.0,0.0
924,230.75,52.2977,54.1386,141.721,99.3653,99.2849,0.0021835,0.2212,20.7592,88.7033,0.00732889,0.0,0.0
931,232.5,52.0727,54.169,142.622,99.3749,99.1666,0.00197757,0.219381,20.7591,88.5432,0.0190072,0.0,0.0
938,234.25,52.7481,54.1201,145.22,99.3907,99.22,0.0018384,0.217583,20.759,88.4331,0.0155671,0.0,0.0
945,236,52.4829,54.4718,146.917,99.3762,99.2794,0.00179674,0.219087,20.7602,88.313,0.00882524,0.0,0.0
952,237.75,52.4249,54.159,147.708,99.3754,99.2599,0.00177352,0.222251,20.7621,88.1628,0.0105306,0.0,0.0
959,239.5,52.3604,54.1034,142.751,99.3745,99.3057,0.00175194,0.224407,20.7621,88.0327,0.00628011,0.0,0.0
966,241.25,52.2292,54.4365,144.66,99.3741,99.2319,0.00171084,0.225921,20.7598,87.9126,0.0129732,0.0,0.0
973,243,52.2731,53.902,145.442,99.3721,99.1446,0.00168508,0.226443,20.7581,87.8125,0.0207634,0.0,0.0
980,244.75,51.8879,54.5181,143.674,99.383,99.2645,0.00173912,0.22657,20.7573,87.6824,0.0108045,0.0,0.0
987,246.5,52.2677,54.2777,141.668,99.3834,99.0886,0.00183475,0.226492,20.7569,87.5422,0.0269075,0.0,0.0
994,248.25,52.1453,54.3437,140.998,99.379,99.2018,0.00190572,0.227134,20.7568,87.4421,0.0161632,0.0,0.0
1001,250,52.3867,54.5847,141.247,99.3826,99.2137,0.00199088,0.228421,20.7567,87.282,0.0154108,0.0,0.0
1008,251.75,52.8397,54.7495,142.994,99.3758,99.2094,0.00204681,0.22925,20.7557,87.1919,0.0151725,0.0,0.0
1015,253.5,52.5862,54.4624,145.159,99.3713,98.9852,0.00199635,0.229609,20.754,87.0117,0.0352624,0.0,0.0
1022,255.25,52.3593,54.7827,146.403,99.3794,99.0204,0.0019476,0.230779,20.7529,86.9117,0.0327796,0.0,0.0
1029,257,52.6313,54.4289,147.868,99.3798,99.0543,0.0018783,0.232255,20.7524,86.8015,0.0297149,0.0,0.0
1036,258.75,52.8046,54.3856,146.154,99.3693,98.9869,0.0018057,0.234157,20.7511,86.7015,0.0349225,0.0,0.0
1043,260.5,52.8513,54.9212,147.605,99.362,99.0107,0.00176752,0.236092,20.7495,86.5513,0.0320888,0.0,0.0
1050,262.25,52.224,54.6833,143.064,99.364,99.0399,0.00179835,0.237475,20.7463,86.4612,0.0295976,0.0,0.0
1057,264,53.094,54.6597,149.452,99.3762,98.9462,0.00185342,0.238323,20.7429,86.3111,0.0392724,0.0,0.0
1064,265.75,52.8925,54.5875,143.835,99.3834,98.9912,0.00188611,0.239287,20.7402,86.1609,0.0358238,0.0,0.0
1071,267.5,53.2341,54.7731,148.391,99.3657,98.8945,0.00185823,0.240625,20.7384,86.0308,0.0430507,0.0,0.0
1078,269.25,53.1581,54.7432,140.386,99.3681,98.9038,0.00182366,0.241547,20.7376,85.8907,0.0424177,0.0,0.0
1085,271,53.3072,54.6401,146.702,99.3838,98.7593,0.00185258,0.242565,20.7357,85.7806,0.057101,0.0,0.0
1092,272.75,53.4742,54.9774,143.463,99.3826,98.8051,0.0019069,0.243517,20.7346,85.6505,0.0527918,0.0,0.0
1099,274.5,52.716,54.7313,143.289,99.3608,98.669,0.00198214,0.244549,20.7339,85.5404,0.0632859,0.0,0.0
1106,276.25,53.5151,54.7767,142.39,99.36,98.8725,0.00204234,0.24728,20.7315,85.4002,0.0445541,0.0,0.0
1113,278,53.6594,54.9919,142.291,99.3741,98.7568,0.00205753,0.2491,20.7297,85.2701,0.0564496,0.0,0.0
1120,279.75,53.1952,54.7505,144.53,99.3721,98.7474,0.00198168,0.249307,20.7271,85.14,0.0571214,0.0,0.0
1127,281.5,53.2657,54.8416,141.259,99.3612,98.6491,0.00187393,0.249031,20.7257,85.0099,0.0651515,0.0,0.0
1134,283.25,53.5223,54.9009,142.895,99.362,98.7665,0.00175428,0.249544,20.7254,84.8697,0.0544513,0.0,0.0
1141,285,53.5959,55.5225,138.179,99.3754,98.6199,0.00174414,0.251934,20.7261,84.7396,0.0691269,0.0,0.0
1148,286.75,53.6728,54.6364,141.05,99.3717,98.3867,0.00179364,0.255157,20.725,84.5795,0.090233,0.0,0.0
1155,288.5,53.9424,55.362,144.887,99.3725,98.5241,0.00184518,0.257412,20.722,84.4393,0.077672,0.0,0.0
1162,290.25,53.6618,55.6728,143.746,99.3527,98.5448,0.00190964,0.2587,20.7197,84.3292,0.0739574,0.0,0.0
1169,292,54.2458,55.2253,139.464,99.36,98.3918,0.00195683,0.25919,20.718,84.1991,0.0886966,0.0,0.0
1176,293.75,53.3743,55.6684,144.445,99.3717,98.271,0.00196134,0.260082,20.7166,84.0389,0.100892,0.0,0.0
1183,295.5,53.8064,55.5328,146.857,99.3653,98.3443,0.00195434,0.261527,20.7159,83.9188,0.0935466,0.0,0.0
1190,297.25,54.2826,55.6472,140.826,99.3507,98.3838,0.00194,0.262451,20.7146,83.7687,0.0885896,0.0,0.0
1197,299,54.1738,56.0181,143.088,99.356,98.1629,0.0019598,0.263481,20.7137,83.6085,0.109424,0.0,0.0
1204,300.75,54.8666,55.7879,141.515,99.3588,98.2324,0.00200799,0.26441,20.712,83.4784,0.10327,0.0,0.0
1211,302.5,54.0042,55.8355,139.887,99.3612,98.2401,0.00204697,0.265557,20.7113,83.3383,0.102787,0.0,0.0
1218,304.25,54.5711,56.0138,144.961,99.3519,98.0443,0.00210668,0.266841,20.7096,83.1982,0.120014,0.0,0.0
1225,306,54.6986,56.23,142.075,99.3459,98.1146,0.00215233,0.268184,20.7089,83.058,0.112963,0.0,0.0
1232,307.75,54.7135,56.3885,145.463,99.3503,98.0985,0.00219299,0.269033,20.7074,82.9379,0.114856,0.0,0.0
1239,309.5,54.3315,56.4155,141.496,99.3693,97.7687,0.00220787,0.269772,20.7053,82.8078,0.147086,0.0,0.0
1246,311.25,55.0931,56.0068,141.781,99.3632,97.9646,0.00222575,0.271389,20.7041,82.6376,0.12841,0.0,0.0
1253,313,54.7644,56.4984,141.85,99.3543,97.7865,0.00222141,0.273194,20.7025,82.4775,0.144075,0.0,0.0
1260,314.75,55.1471,56.2355,141.723,99.3447,97.7111,0.00212676,0.273922,20.7008,82.3574,0.150182,0.0,0.0
1267,316.5,55.1029,56.6234,142.798,99.3673,97.4771,0.00196305,0.275075,20.6985,82.2373,0.17396,0.0,0.0
1274,318.25,55.2594,56.697,146.623,99.3701,97.7717,0.00184009,0.27646,20.6965,82.0971,0.146886,0.0,0.0
1281,320,54.9409,56.879,143.929,99.3653,97.8171,0.00181038,0.277901,20.6952,81.947,0.142243,0.0,0.0
1288,321.75,55.6516,56.8609,139.541,99.3487,97.4178,0.00188521,0.279552,20.6935,81.7768,0.177783,0.0,0.0
1295,323.5,55.6323,57.0679,140.234,99.3608,97.4873,0.0020108,0.281459,20.6925,81.6367,0.172425,0.0,0.0
1302,325.25,55.807,57.1034,145.461,99.3665,97.5305,0.00207616,0.283319,20.6902,81.4966,0.168924,0.0,0.0
1309,327,55.6944,57.0767,143.755,99.3693,97.1741,0.00211386,0.284997,20.6878,81.3664,0.20235,0.0,0.0
1316,328.75,56.0123,57.3811,142.284,99.3572,97.1571,0.00215917,0.286178,20.6861,81.2063,0.202827,0.0,0.0
1323,330.5,56.0059,57.6127,142.097,99.36,97.1974,0.00219986,0.287719,20.6853,81.0862,0.19933,0.0,0.0
1330,332.25,56.398,57.2,144.72,99.3794,96.9757,0.00222127,0.289251,20.6849,80.926,0.22178,0.0,0.0
1337,334,56.3108,57.6187,146.51,99.383,97.3165,0.00223865,0.290178,20.6823,80.7959,0.190337,0.0,0.0
1344,335.75,56.6203,57.8214,139.141,99.3697,96.9566,0.00224815,0.291207,20.681,80.5757,0.222679,0.0,0.0
1351,337.5,56.1637,57.6047,143.548,99.3701,97.0151,0.00221762,0.292231,20.6792,80.3955,0.217253,0.0,0.0
1358,339.25,56.5299,57.7666,144.858,99.379,97.1219,0.00220629,0.292801,20.6784,80.2654,0.208095,0.0,0.0
1365,341,56.9819,58.0836,141.767,99.3947,96.8748,0.00222684,0.293412,20.6767,80.0852,0.232607,0.0,0.0
1372,342.75,57.0857,58.4874,141.466,99.3956,97.1457,0.00220997,0.294774,20.6759,79.9651,0.207391,0.0,0.0
1379,344.5,57.0486,58.4164,138.627,99.3786,97.0405,0.00221686,0.297915,20.6743,79.805,0.215652,0.0,0.0
1386,346.25,57.099,58.3293,142.378,99.3988,96.9062,0.00227078,0.301792,20.6711,79.6749,0.230043,0.0,0.0
1393,348,57.1885,58.537,137.689,99.402,96.5942,0.00232915,0.304282,20.6654,79.5347,0.259544,0.0,0.0
1400,349.75,57.0951,58.4259,142.566,99.4121,96.9778,0.00234943,0.305474,20.6616,79.3646,0.224564,0.0,0.0
1407,351.5,57.5973,58.2241,143.076,99.4036,96.5052,0.00233105,0.30588,20.6588,79.1944,0.268042,0.0,0.0
1414,353.25,57.8218,59.019,140.304,99.3903,96.5442,0.00232584,0.30645,20.6575,79.0242,0.263167,0.0,0.0
1421,355,57.6917,59.18,141.971,99.4218,96.5361,0.00226715,0.307254,20.6572,78.8841,0.266795,0.0,0.0
1428,356.75,57.5543,58.9408,137.665,99.4048,96.5879,0.00218284,0.307522,20.6561,78.734,0.260398,0.0,0.0
1435,358.5,57.1754,58.9169,139.575,99.4178,96.526,0.00218773,0.307494,20.6553,78.5838,0.267382,0.0,0.0
1442,360.25,57.8436,58.9758,141.759,99.3883,96.6464,0.0022189,0.307362,20.6549,78.4237,0.253405,0.0,0.0
1449,362,57.6678,58.8208,139.618,99.396,96.5896,0.00221569,0.306545,20.6547,78.2435,0.25943,0.0,0.0
1456,363.75,57.8071,58.9201,142.601,99.4012,96.8511,0.00221392,0.304933,20.6551,78.0934,0.235415,0.0,0.0
1463,365.5,57.8895,58.9433,146.109,99.398,96.7633,0.00232644,0.303594,20.6573,77.9532,0.24333,0.0,0.0
1470,367.25,57.9127,58.9325,138.963,99.3927,96.7409,0.00254441,0.303834,20.6582,77.7831,0.244955,0.0,0.0
1477,369,57.634,59.4415,142.875,99.3956,96.8201,0.00274305,0.304713,20.6588,77.6329,0.237795,0.0,0.0
1484,370.75,57.9123,59.7031,142.357,99.4024,96.573,0.00278577,0.305093,20.6576,77.5028,0.261569,0.0,0.0
1491,372.5,58.1699,59.4539,144.401,99.4048,96.6035,0.00275097,0.305686,20.6562,77.4127,0.258927,0.0,0.0
1498,374.25,57.9726,59.242,141.808,99.3988,96.7824,0.00273966,0.306975,20.6553,77.1825,0.241619,0.0,0.0
1505,376,57.7354,59.7539,142.561,99.3903,96.5353,0.00272879,0.307828,20.6545,77.0424,0.264003,0.0,0.0
1512,377.75,58.0229,59.6528,142.464,99.3988,96.9409,0.00266257,0.307189,20.6535,76.8922,0.226795,0.0,0.0
1519,379.5,58.2341,59.4487,142.975,99.3992,97.0049,0.00255892,0.305874,20.6532,76.7721,0.220853,0.0,0.0
1526,381.25,58.5113,59.6799,145.357,99.3951,96.8223,0.0024739,0.305691,20.6538,76.5919,0.237559,0.0,0.0
1533,383,57.981,60.2059,139.514,99.3842,96.721,0.00240282,0.305763,20.6545,76.4218,0.246048,0.0,0.0
1540,384.75,58.4029,59.6277,144.182,99.3891,97.0774,0.00235244,0.305917,20.6549,76.2717,0.213167,0.0,0.0
1547,386.5,58.3319,60.0558,142.243,99.3976,96.6476,0.00235521,0.306813,20.6551,76.1215,0.254132,0.0,0.0
1554,388.25,58.5929,59.7304,141.366,99.3834,96.9058,0.00242086,0.308539,20.6542,75.9714,0.228684,0.0,0.0
1561,390,58.6162,60.2719,140.049,99.3741,96.8299,0.00245241,0.309328,20.6518,75.8112,0.234931,0.0,0.0
1568,391.75,58.8622,60.0246,143.639,99.3669,96.9812,0.00244413,0.309646,20.6487,75.6811,0.220124,0.0,0.0
1575,393.5,58.1132,59.8492,138.999,99.3721,96.8443,0.00246779,0.308827,20.6472,75.561,0.233399,0.0,0.0
1582,395.25,58.736,59.8527,137.541,99.3608,96.9075,0.00252472,0.308101,20.6464,75.3708,0.226463,0.0,0.0
1589,397,58.7503,60.2789,140.436,99.3644,97.0804,0.00257755,0.30935,20.6471,75.2107,0.210645,0.0,0.0
1596,398.75,58.9008,60.4898,138.308,99.3568,96.668,0.00258278,0.310679,20.6476,75.0405,0.248508,0.0,0.0
1603,400.5,59.35,59.9068,140.441,99.3632,96.8388,0.0025054,0.310881,20.6471,74.9204,0.233105,0.0,0.0
1610,402.25,58.9421,60.3952,144.455,99.4073,96.6913,0.0024134,0.310684,20.6455,74.7702,0.250925,0.0,0.0
1617,404,59.0694,60.1874,144.02,99.4125,97.408,0.0024936,0.310575,20.6448,74.6501,0.184506,0.0,0.0
1624,405.75,58.9125,60.686,141.169,99.4529,96.6943,0.00260085,0.311048,20.6444,74.49,0.254806,0.0,0.0
1631,407.5,58.9719,60.9387,137.902,99.463,96.8731,0.00261842,0.312349,20.6442,74.3599,0.238984,0.0,0.0
1638,409.25,58.9026,60.2644,142.714,99.5091,97.1029,0.00257137,0.312522,20.643,74.1697,0.221722,0.0,0.0
1645,411,59.3717,61.0282,139.102,99.52,96.8706,0.00252328,0.311649,20.6423,74.0396,0.244408,0.0,0.0
1652,412.75,59.2366,60.5671,143.716,99.5377,97.2198,0.00251258,0.311375,20.6439,73.9094,0.213426,0.0,0.0
1659,414.5,59.4188,60.9055,141.63,99.5499,96.7629,0.00251579,0.311922,20.6452,73.7593,0.257201,0.0,0.0
1666,416.25,59.1833,61.4892,142.677,99.5818,96.9541,0.0025052,0.312074,20.6454,73.6292,0.242227,0.0,0.0
1673,418,59.0917,60.8709,141.535,99.6121,96.7434,0.00242316,0.310753,20.6447,73.489,0.264685,0.0,0.0
1680,419.75,59.1971,60.5806,143.669,99.6282,96.8536,0.002327,0.309114,20.645,73.3689,0.255842,0.0,0.0
1687,421.5,59.3963,60.8121,140.532,99.6347,96.8574,0.0022672,0.307856,20.6458,73.1687,0.256073,0.0,0.0
1694,423.25,59.4192,61.229,146.5,99.6513,96.9897,0.00224006,0.306119,20.6464,73.0686,0.245219,0.0,0.0
1701,425,59.2048,61.009,143.754,99.6912,97.1558,0.00222544,0.303661,20.6481,72.9085,0.23335,0.0,0.0
1708,426.75,59.2667,61.2346,145.49,99.7207,97.0444,0.0022085,0.302609,20.6497,72.7884,0.246428,0.0,0.0
1715,428.5,59.2339,61.2756,141.514,99.7264,97.0397,0.00223698,0.301016,20.6516,72.6082,0.247376,0.0,0.0
1722,430.25,59.4506,61.1926,141.316,99.7417,97.1147,0.002357,0.300097,20.6549,72.5081,0.24177,0.0,0.0
1729,432,59.3753,60.6333,137.223,99.7547,96.9464,0.00248266,0.299869,20.6567,72.368,0.258653,0.0,0.0
1736,433.75,58.7697,60.7013,139.729,99.7793,97.0528,0.00257355,0.298989,20.6583,72.2379,0.250955,0.0,0.0
1743,435.5,59.1826,61.037,139.615,99.7821,97.021,0.00262449,0.297455,20.6596,72.0977,0.254179,0.0,0.0
1750,437.25,59.185,60.6439,145.026,99.7987,96.963,0.00259994,0.295406,20.6607,71.9576,0.261106,0.0,0.0
1757,439,58.9846,60.7448,144.097,99.8565,97.1613,0.0025091,0.293116,20.6628,71.8375,0.247835,0.0,0.0
1764,440.75,59.3745,60.4553,146.639,99.8775,97.4432,0.00242978,0.291801,20.6656,71.6873,0.223501,0.0,0.0
1771,442.5,59.219,60.8815,139.85,99.8989,97.2126,0.00236564,0.291522,20.6676,71.5672,0.246902,0.0,0.0
1778,444.25,59.2253,61.3379,138.565,99.9163,97.6441,0.00233088,0.29134,20.6685,71.4471,0.20836,0.0,0.0
1785,446,58.9452,61.1673,143.488,99.9623,97.1897,0.00234651,0.290529,20.669,71.307,0.254784,0.0,0.0
1792,447.75,59.0406,60.8169,145.89,99.9918,97.5386,0.00241269,0.289023,20.6692,71.1769,0.225002,0.0,0.0
1799,449.5,58.8007,60.5802,141.901,99.9857,97.4492,0.00242502,0.287475,20.6699,71.0568,0.232762,0.0,0.0
1806,451.25,58.5023,60.7043,143.994,99.9946,97.5975,0.00234508,0.286328,20.6731,70.9567,0.219789,0.0,0.0
1813,453,57.9261,61.0838,143.961,100.019,97.7823,0.0022464,0.283899,20.6751,70.8065,0.204848,0.0,0.0
1820,454.75,58.1982,59.9429,142.802,100.025,97.7611,0.00215854,0.281686,20.6786,70.7064,0.207397,0.0,0.0
1827,456.5,57.8269,60.514,144.609,100.032,97.8209,0.00213407,0.278946,20.6812,70.6264,0.202483,0.0,0.0
1834,458.25,57.9658,60.4017,149.389,100.037,98.0175,0.00214048,0.276143,20.6832,70.5062,0.184729,0.0,0.0
1841,460,58.2869,60.4582,144.787,100.034,97.8243,0.00213396,0.273574,20.6868,70.3561,0.202352,0.0,0.0
1848,461.75,58.4492,60.3576,146.454,100.033,97.8637,0.002152,0.271582,20.6904,70.226,0.198556,0.0,0.0
1855,463.5,57.6479,60.0001,145.629,100.036,98.0409,0.00219498,0.269139,20.6939,70.1159,0.182465,0.0,0.0
1862,465.25,58.216,60.07,148.863,100.033,97.9713,0.00220809,0.266619,20.6967,70.0358,0.188597,0.0,0.0
1869,467,57.4168,59.6646,141.952,100.023,98.0883,0.00218059,0.264149,20.7003,69.9157,0.17691,0.0,0.0
1876,468.75,57.6445,60.5592,150.379,99.9966,98.0731,0.00214243,0.261967,20.7031,69.8156,0.17594,0.0,0.0
1883,470.5,57.2521,59.7231,144.415,99.9825,98.1146,0.00214525,0.258826,20.7058,69.7255,0.170824,0.0,0.0
1890,472.25,57.3536,60.021,146.648,99.9615,98.2486,0.00218963,0.255094,20.7089,69.6054,0.156564,0.0,0.0
1897,474,56.8911,59.3302,142.714,99.9268,98.3766,0.0022322,0.251298,20.7141,69.5153,0.141622,0.0,0.0
1904,475.75,57.1752,59.534,142.589,99.8956,98.3151,0.00223371,0.248353,20.7191,69.4052,0.144462,0.0,0.0
1911,477.5,57.1253,59.607,149.076,99.8532,98.3151,0.00209949,0.245302,20.7227,69.3251,0.140616,0.0,0.0
1918,479.25,57.0023,59.1577,143.685,99.8363,98.2926,0.00189601,0.241919,20.7263,69.2651,0.141147,0.0,0.0
1925,481,56.1317,59.0951,144.961,99.7987,98.4067,0.0017551,0.238769,20.7295,69.195,0.127236,0.0,0.0
1932,482.75,56.0315,58.6714,148.766,99.7409,98.4363,0.00173514,0.235569,20.7331,69.1049,0.119261,0.0,0.0
1939,484.5,55.9311,58.3053,146.821,99.6795,98.2346,0.00183803,0.232375,20.7368,69.0749,0.132267,0.0,0.0
1946,486.25,55.7503,57.9916,146.366,99.6521,98.5512,0.00203157,0.229559,20.7407,68.9648,0.100623,0.0,0.0
1953,488,55.4957,58.2726,142.244,99.6387,98.6398,0.00223109,0.225979,20.7431,68.8547,0.0912721,0.0,0.0
1960,489.75,55.4046,57.679,145.386,99.6654,98.5558,0.00234443,0.222104,20.7462,68.8747,0.101406,0.0,0.0
1967,491.5,55.1804,57.9225,149.738,99.6848,98.797,0.00240695,0.218332,20.7496,68.8547,0.0810287,0.0,0.0
1974,493.25,54.9237,58.0437,148.063,99.7151,98.9458,0.00243425,0.21429,20.7527,68.7946,0.0701512,0.0,0.0
1981,495,54.606,57.2681,149.44,99.7502,99.2777,0.00238091,0.210262,20.7563,68.6945,0.043011,0.0,0.0
1988,496.75,54.5002,57.2497,145.654,99.7846,99.2171,0.00228749,0.205688,20.7602,68.6445,0.0516613,0.0,0.0
1995,498.5,53.6706,57.388,154.502,99.8116,99.3107,0.0023109,0.201052,20.7654,68.6445,0.0455694,0.0,0.0
2002,500.25,53.7011,57.0275,149.453,99.8322,99.4082,0.00244872,0.19596,20.7713,68.5244,0.0385521,0.0,0.0
2009,502,53.5536,56.4676,146.316,99.8674,99.5396,0.00267334,0.191012,20.7763,68.5244,0.0297751,0.0,0.0
2016,503.75,53.6102,56.231,148.266,99.8981,99.6151,0.00285889,0.187256,20.781,68.5344,0.0256963,0.0,0.0
2023,505.5,53.3087,55.9715,148.621,99.9166,99.5791,0.00295101,0.182643,20.7844,68.4843,0.0306565,0.0,0.0
2030,507.25,52.9124,56.2586,146.822,99.9312,99.6303,0.00300477,0.178042,20.7892,68.4143,0.0273112,0.0,0.0
2037,509,52.4328,55.5802,148.535,99.9623,99.7541,0.00310085,0.17451,20.7949,68.3842,0.0188855,0.0,0.0
2044,510.75,52.4844,55.094,148.105,99.995,99.6007,0.00325873,0.17181,20.7992,68.3742,0.0357926,0.0,0.0
2051,512.5,52.1962,55.0094,150.984,100.004,99.8096,0.00341185,0.169322,20.8019,68.3342,0.0175772,0.0,0.0
2058,514.25,51.8371,54.7371,149.11,100.016,99.841,0.00357052,0.167442,20.8049,68.3042,0.0158657,0.0,0.0
2065,516,51.4595,54.6181,151.39,100.014,99.7999,0.00376693,0.16587,20.8067,68.2942,0.0194501,0.0,0.0
2072,517.75,51.2099,54.6685,151.516,100.005,99.816,0.00399534,0.164865,20.809,68.2141,0.0171095,0.0,0.0
2079,519.5,51.1143,54.1048,149.013,99.9837,99.8317,0.00425965,0.164344,20.8104,68.2441,0.013784,0.0,0.0
2086,521.25,50.7272,53.9868,153.469,99.9498,99.8588,0.00445632,0.16317,20.811,68.1941,0.00824809,0.0,0.0
2093,523,50.5267,53.6119,151.698,99.9482,99.8185,0.00456121,0.161689,20.812,68.164,0.0117547,0.0,0.0
2100,524.75,50.1593,53.1535,151.104,99.9429,99.7253,0.00460779,0.160715,20.8141,68.134,0.0197453,0.0,0.0
2107,526.5,50.0412,52.7907,150.074,99.9373,99.6986,0.00470306,0.1592,20.8153,68.104,0.0216587,0.0,0.0
2114,528.25,49.734,52.937,149.485,99.953,99.7681,0.00488185,0.155963,20.8158,68.104,0.0167732,0.0,0.0
2121,530,49.5697,52.405,150.165,99.9494,99.8507,0.00511322,0.152877,20.8198,68.0639,0.00894282,0.0,0.0
2128,531.75,49.0015,52.2583,147.986,99.955,99.7927,0.00530079,0.150334,20.824,68.0239,0.0147241,0.0,0.0
2135,533.5,49.4536,52.3559,150.51,99.9667,99.7694,0.00545802,0.148422,20.8277,68.0039,0.0179027,0.0,0.0
2142,535.25,49.2048,52.1983,147.325,99.9651,99.7821,0.00556126,0.147407,20.8304,67.9739,0.0166008,0.0,0.0
2149,537,49.1049,51.9398,153.583,99.9554,99.791,0.00561603,0.146453,20.8317,67.9238,0.0149138,0.0,0.0
2156,538.75,48.6955,51.3813,147.271,99.9671,99.7367,0.00572309,0.145373,20.8329,67.8638,0.0209024,0.0,0.0
2163,540.5,49.2417,51.5075,153.616,99.9688,99.8024,0.00603832,0.144355,20.8337,67.8337,0.0150841,0.0,0.0
2170,542.25,48.5289,51.2893,148.069,99.9663,99.8185,0.00640717,0.143496,20.835,67.8037,0.0134023,0.0,0.0
2177,544,48.8102,51.2283,152.423,99.9494,99.7393,0.00662222,0.142409,20.8359,67.7336,0.01906,0.0,0.0
2184,545.75,48.1242,50.8974,148.086,99.9377,99.7257,0.0066812,0.141822,20.8381,67.8137,0.0192314,0.0,0.0
2191,547.5,48.2604,50.7213,149.733,99.9478,99.7253,0.00668382,0.141388,20.8398,67.7336,0.0201849,0.0,0.0
2198,549.25,47.8364,50.3235,151.164,99.928,99.716,0.00668441,0.140275,20.8416,67.6936,0.0192378,0.0,0.0
2205,551,48.0428,50.7835,149.27,99.9163,99.7287,0.00671928,0.139721,20.8425,67.6535,0.0170211,0.0,0.0
2212,552.75,48.0104,50.7245,152.406,99.8912,99.8181,0.00678336,0.139877,20.8429,67.7036,0.0066308,0.0,0.0
2219,554.5,47.3845,50.1847,149.745,99.8835,99.7961,0.006858,0.140099,20.8431,67.6135,0.00793523,0.0,0.0
2226,556.25,47.9015,50.5102,149.868,99.8666,99.7986,0.00684402,0.140626,20.8432,67.5835,0.00616465,0.0,0.0
2233,558,47.7179,50.0801,149.962,99.854,99.7206,0.00678044,0.140767,20.8433,67.5735,0.0121116,0.0,0.0
2240,559.75,47.5651,49.9009,148.207,99.8246,99.6011,0.00671047,0.140466,20.8433,67.4934,0.0203002,0.0,0.0
2247,561.5,47.288,49.498,147.577,99.8027,99.6443,0.00668919,0.140134,20.8433,67.5134,0.0143888,0.0,0.0
2254,563.25,46.9188,49.427,149.988,99.8124,99.6214,0.00677524,0.140447,20.843,67.4634,0.0173498,0.0,0.0
2261,565,46.7268,48.8649,152.361,99.7825,99.6278,0.00686201,0.140251,20.8441,67.4233,0.0140578,0.0,0.0
2268,566.75,47.0764,49.2558,147.76,99.7522,99.5837,0.00688326,0.139349,20.8445,67.4233,0.0153159,0.0,0.0
2275,568.5,47.7507,49.3084,148.712,99.7304,99.5481,0.00691274,0.1388,20.8448,67.3933,0.0165749,0.0,0.0
2282,570.25,47.5915,48.9947,151.201,99.7171,99.5896,0.00689419,0.13841,20.8449,67.3733,0.0115853,0.0,0.0
2289,572,47.5133,48.7721,147.451,99.709,99.5358,0.00688353,0.138178,20.8458,67.3533,0.0157482,0.0,0.0
2296,573.75,47.0676,49.0105,149.949,99.6779,99.5498,0.00688905,0.137815,20.8466,67.3032,0.011649,0.0,0.0
2303,575.5,47.1429,49.1958,146.89,99.6395,99.4201,0.00692661,0.137683,20.847,67.2932,0.0199705,0.0,0.0
2310,577.25,47.204,48.347,150.568,99.6133,99.4201,0.00699594,0.137658,20.8472,67.2732,0.0175826,0.0,0.0
2317,579,46.5692,48.4203,150.497,99.6201,99.3875,0.00701666,0.137265,20.8473,67.2632,0.0211814,0.0,0.0
2324,580.75,46.5032,48.4109,148.735,99.6529,99.4409,0.00696171,0.136907,20.8473,67.2131,0.0192906,0.0,0.0
2331,582.5,46.3857,48.4069,152.338,99.703,99.4718,0.00685067,0.136322,20.8473,67.2232,0.0210231,0.0,0.0
2338,584.25,46.7337,48.2629,149.07,99.7397,99.5358,0.00679151,0.136198,20.8486,67.1131,0.0185363,0.0,0.0
2345,586,46.8817,47.566,150.728,99.7793,99.624,0.00676074,0.136329,20.8494,67.1631,0.0141117,0.0,0.0
2352,587.75,46.4568,47.6511,144.142,99.8278,99.6473,0.00676491,0.136236,20.8499,67.093,0.0163917,0.0,0.0
2359,589.5,46.2362,47.8733,149.065,99.871,99.6087,0.00676561,0.136124,20.849,67.083,0.0238193,0.0,0.0
2366,591.25,46.6289,48.3473,149.804,99.8799,99.7189,0.00677772,0.136275,20.8485,67.093,0.0146098,0.0,0.0
2373,593,46.1682,48.1003,153.726,99.9187,99.6706,0.00681709,0.13652,20.8491,67.023,0.0225161,0.0,0.0
2380,594.75,46.2276,47.7843,148.464,99.9461,99.7817,0.00680886,0.136318,20.8498,67.013,0.0149203,0.0,0.0
2387,596.5,46.9081,47.6535,149.635,99.9797,99.78,0.0067177,0.13603,20.8501,67.0029,0.0181118,0.0,0.0
2394,598.25,46.4613,47.52,149.825,99.972,99.752,0.00658474,0.135875,20.8502,66.9329,0.0199554,0.0,0.0
2401,600,46.3315,47.3873,151.271,99.9712,99.7846,0.00647952,0.135166,20.8503,66.9329,0.0169198,0.0,0.0
2408,601.75,46.1666,46.814,150.865,99.997,99.7664,0.00645518,0.134728,20.8503,66.8528,0.0209164,0.0,0.0
2415,603.5,45.7561,47.4997,150.432,100.012,99.8041,0.00654108,0.134599,20.8504,66.8528,0.018809,0.0,0.0
2422,605.25,45.8007,47.1105,152.725,99.9914,99.7054,0.00668801,0.134357,20.8504,66.8128,0.0259482,0.0,0.0
2429,607,46.2447,47.1083,148.869,99.9768,99.8232,0.00679971,0.134215,20.8504,66.7227,0.0139317,0.0,0.0
2436,608.75,46.201,47.3971,148.452,99.9829,99.7295,0.00684637,0.13415,20.8515,66.7427,0.0229846,0.0,0.0
2443,610.5,45.4622,47.582,151.637,99.9825,99.7312,0.00683322,0.134347,20.8517,66.7227,0.022794,0.0,0.0
2450,612.25,45.5427,46.5217,150.333,99.9768,99.8469,0.00678526,0.134142,20.8517,66.7027,0.0117784,0.0,0.0
2457,614,45.5332,46.8062,149.092,99.9627,99.6829,0.00668372,0.133551,20.8517,66.6326,0.0253894,0.0,0.0
2464,615.75,45.6162,46.883,149.134,99.9655,99.7244,0.00657756,0.132858,20.8519,66.6426,0.021873,0.0,0.0
2471,617.5,45.3391,47.0253,148.96,99.9647,99.7702,0.00646074,0.132603,20.8531,66.6326,0.0176419,0.0,0.0
2478,619.25,45.4171,47.0719,146.891,99.9389,99.6999,0.00637136,0.132378,20.8536,66.6126,0.0216899,0.0,0.0
2485,621,45.2422,46.9345,151.094,99.9118,99.7791,0.00635051,0.132531,20.8538,66.6026,0.0120383,0.0,0.0
2492,622.75,45.5274,46.5989,147.99,99.8932,99.8139,0.00636958,0.132828,20.854,66.5725,0.00719834,0.0,0.0
2499,624.5,44.8686,46.3063,153.591,99.896,99.7558,0.00643673,0.133346,20.8538,66.5425,0.0127252,0.0,0.0
2506,626.25,44.9752,46.8588,149.986,99.894,99.777,0.00662063,0.133419,20.8527,66.5325,0.010619,0.0,0.0
2513,628,45.3065,46.0186,147.873,99.8924,99.8147,0.00685266,0.133085,20.8522,66.5725,0.00704836,0.0,0.0
2520,629.75,44.8198,46.1591,149.887,99.8625,99.713,0.00699148,0.132835,20.8522,66.4925,0.0135737,0.0,0.0
2527,631.5,45.5707,46.4363,152.473,99.8561,99.7117,0.00701719,0.132476,20.8524,66.4624,0.0131026,0.0,0.0
2534,633.25,45.2144,46.1699,150.906,99.8641,99.7914,0.00692509,0.132186,20.8544,66.4324,0.0065995,0.0,0.0
2541,635,45.186,46.1624,148.54,99.8565,99.6914,0.00684927,0.131768,20.8564,66.3924,0.0149871,0.0,0.0
2548,636.75,45.0946,46.2724,150.382,99.8464,99.61,0.0067937,0.131523,20.8573,66.3623,0.0214691,0.0,0.0
2555,638.5,45.2213,45.7962,152.647,99.8403,99.6956,0.00674948,0.132855,20.8577,66.3423,0.013136,0.0,0.0
2562,640.25,44.4484,45.8076,153.693,99.8585,99.7028,0.00672764,0.136381,20.8571,66.2923,0.0141311,0.0,0.0
2569,642,45.0679,45.931,154.27,99.8484,99.7194,0.00675482,0.140812,20.8543,66.3023,0.0117126,0.0,0.0
2576,643.75,44.7946,46.1131,148.163,99.8585,99.6893,0.00673535,0.143741,20.8497,66.2823,0.0153633,0.0,0.0
2583,645.5,44.4151,45.8356,152.045,99.8375,99.7372,0.00669236,0.144043,20.846,66.2222,0.00910679,0.0,0.0
2590,647.25,45.0001,45.9528,144.743,99.829,99.7503,0.00667152,0.142399,20.8433,66.2222,0.00714439,0.0,0.0
2597,649,44.5138,45.9088,149.73,99.8399,99.7372,0.00667172,0.140143,20.8436,66.1922,0.00932684,0.0,0.0
2604,650.75,44.6381,45.8239,149.133,99.8246,99.6414,0.00667523,0.137591,20.8452,66.2022,0.0166385,0.0,0.0
2611,652.5,44.6963,46.0508,150.224,99.8157,99.6583,0.00668396,0.136218,20.847,66.1521,0.0142907,0.0,0.0
2618,654.25,44.5632,46.1746,149.887,99.8136,99.7054,0.00669248,0.135548,20.8499,66.1822,0.00983166,0.0,0.0
2625,656,44.8705,45.5485,149.323,99.8108,99.6553,0.00670879,0.134802,20.8512,66.1321,0.0141193,0.0,0.0
2632,657.75,44.2796,45.6883,148.305,99.7975,99.7401,0.00679943,0.134123,20.8518,66.1021,0.00520855,0.0,0.0
2639,659.5,44.6268,45.7589,146.385,99.7947,99.635,0.00691751,0.133389,20.8521,66.0821,0.0145031,0.0,0.0
2646,661.25,44.6526,45.3651,150.604,99.7846,99.6833,0.00688872,0.132606,20.8534,66.0621,0.00919524,0.0,0.0
2653,663,44.2945,44.9983,150.662,99.7749,99.5735,0.00677588,0.132209,20.8541,66.022,0.018296,0.0,0.0
2660,664.75,44.2797,45.3076,153.356,99.7761,99.5528,0.00673927,0.131631,20.8556,65.972,0.0202948,0.0,0.0
2667,666.5,44.3915,45.1745,151.069,99.7599,99.5943,0.0068193,0.131177,20.8564,65.962,0.0150486,0.0,0.0
2674,668.25,44.3806,45.4204,152.458,99.7502,99.5922,0.00687945,0.131129,20.8568,65.9419,0.0143619,0.0,0.0
2681,670,42.3792,43.167,149.907,99.7454,99.5409,0.00688379,0.130992,20.8569,65.9319,0.0185881,0.0,0.0
2688,671.75,42.6482,43.3431,152.292,99.7417,99.5388,0.00686876,0.130574,20.8571,65.9219,0.0184501,0.0,0.0
2695,673.5,42.3756,43.3144,150.156,99.7292,99.5434,0.0068963,0.129453,20.8584,65.9119,0.0168885,0.0,0.0
2702,675.25,42.324,43.2987,152.684,99.7127,99.6049,0.0069482,0.12882,20.8598,65.8919,0.0097939,0.0,0.0
2709,677,42.5161,43.419,149.041,99.6945,99.5036,0.00699796,0.128635,20.8613,65.8719,0.0173595,0.0,0.0
2716,678.75,42.0579,43.6171,150.074,99.6872,99.5244,0.00701473,0.12871,20.862,65.8318,0.0148071,0.0,0.0
2723,680.5,42.6752,43.3388,153.218,99.6892,99.5087,0.00699898,0.12875,20.8623,65.8118,0.0164186,0.0,0.0
2730,682.25,42.8078,43.2024,153.48,99.6622,99.5206,0.00697629,0.128406,20.862,65.7918,0.0128794,0.0,0.0
2737,684,42.4046,43.1955,150.286,99.6452,99.4718,0.00695099,0.128384,20.8618,65.7718,0.015774,0.0,0.0
2744,685.75,42.3976,43.4216,150.262,99.6197,99.4896,0.00695691,0.128499,20.8617,65.7318,0.0118398,0.0,0.0
2751,687.5,42.3115,43.3056,148.348,99.6161,99.4362,0.00703718,0.128087,20.8616,65.6917,0.0163733,0.0,0.0
2758,689.25,42.3011,43.0786,149.011,99.5894,99.468,0.00711941,0.127797,20.8616,65.7017,0.0110526,0.0,0.0
2765,691,42.353,43.084,150.11,99.5737,99.4388,0.00714064,0.127376,20.8624,65.6617,0.0122841,0.0,0.0
2772,692.75,42.0072,43.3812,147.963,99.5482,99.4036,0.00709161,0.126901,20.8632,65.6517,0.0131737,0.0,0.0
2779,694.5,42.2439,42.7149,146.642,99.5373,99.3841,0.00701324,0.12624,20.8636,65.6417,0.0139576,0.0,0.0
2786,696.25,42.2207,42.9893,147.85,99.5357,99.3464,0.00699481,0.125787,20.8642,65.6216,0.0172496,0.0,0.0
2793,698,42.1736,43.0872,152.157,99.5256,99.3739,0.00696474,0.125652,20.8653,65.5616,0.0138196,0.0,0.0
2800,699.75,42.2767,43.0586,151.205,99.5014,99.3726,0.00693056,0.125814,20.8658,65.5416,0.0117288,0.0,0.0
2807,701.5,42.1357,43.3078,152.699,99.4977,99.3264,0.00696031,0.126037,20.8661,65.5216,0.0156102,0.0,0.0
2814,703.25,42.1213,43.0798,145.355,99.4905,99.4104,0.00710159,0.126241,20.8651,65.5216,0.0072976,0.0,0.0
2821,705,42.0655,43.4125,151.287,99.4792,99.348,0.00728461,0.125908,20.8643,65.4715,0.0119477,0.0,0.0
2828,706.75,42.2232,42.8722,151.239,99.4662,99.2099,0.00739096,0.125861,20.8639,65.4415,0.0233767,0.0,0.0
2835,708.5,41.8852,42.5957,154.33,99.446,99.3879,0.00737827,0.126182,20.8637,65.4615,0.00529812,0.0,0.0
2842,710.25,41.8614,42.7842,147.288,99.4501,99.2849,0.0072302,0.126256,20.8636,65.4315,0.0150583,0.0,0.0
2849,712,42.4731,42.9201,149.67,99.4574,99.2718,0.00703991,0.125854,20.8636,65.4215,0.0169198,0.0,0.0
2856,713.75,42.0774,42.5426,154.366,99.4279,99.3408,0.00689615,0.125424,20.8635,65.4014,0.00793091,0.0,0.0
2863,715.5,41.786,42.6267,153.831,99.4182,99.2213,0.00694034,0.125192,20.8648,65.3714,0.0179544,0.0,0.0
2870,717.25,41.7867,43.0071,149.616,99.4206,99.2565,0.00712497,0.124723,20.8653,65.3714,0.0149634,0.0,0.0
2877,719,42.1126,42.7886,148.083,99.4335,99.209,0.0073076,0.124505,20.8656,65.3314,0.0204747,0.0,0.0
2884,720.75,41.9284,42.4639,150.065,99.4242,99.2637,0.00740651,0.124365,20.8657,65.3114,0.0146368,0.0,0.0
2891,722.5,42.0777,42.6146,149.576,99.4081,99.2523,0.00748891,0.124088,20.8666,65.3013,0.0142088,0.0,0.0
2898,724.25,42.1628,42.909,149.017,99.4194,99.2154,0.00758904,0.124151,20.8664,65.2413,0.0186064,0.0,0.0
2905,726,41.7936,42.8869,150.731,99.4287,99.2917,0.00765775,0.124349,20.866,65.2513,0.012489,0.0,0.0
2912,727.75,41.8065,42.7338,151.816,99.421,99.3065,0.00770683,0.124301,20.8656,65.2213,0.0104367,0.0,0.0
2919,729.5,42.1597,42.6248,151.019,99.4267,99.2133,0.00777536,0.124145,20.8654,65.2013,0.0194619,0.0,0.0
2926,731.25,41.5392,42.5969,149.707,99.423,99.298,0.00782292,0.124043,20.8653,65.1912,0.0113945,0.0,0.0
2933,733,41.9197,42.5614,149.538,99.4214,99.3129,0.00785884,0.124058,20.8652,65.1912,0.00989422,0.0,0.0
2940,734.75,41.7574,42.3528,151.818,99.4545,99.3438,0.00787007,0.12383,20.8652,65.1612,0.0100894,0.0,0.0
2947,736.5,41.6163,42.3164,150.689,99.4412,99.3209,0.00781305,0.123345,20.8652,65.1412,0.0109631,0.0,0.0
2954,738.25,41.8026,42.7344,154.656,99.4448,99.2544,0.00771786,0.122933,20.8652,65.1312,0.0173649,0.0,0.0
2961,740,41.7101,42.6794,152.851,99.4521,99.2264,0.00763534,0.122956,20.8657,65.1212,0.0205803,0.0,0.0
2968,741.75,41.9388,42.7495,150.353,99.4715,99.3044,0.00757476,0.122994,20.8667,65.1012,0.0152297,0.0,0.0
2975,743.5,41.3947,42.1444,150.806,99.4767,99.3497,0.00746844,0.122711,20.8663,65.0811,0.0115713,0.0,0.0
2982,745.25,41.5437,42.6237,149.828,99.4549,99.2654,0.00738033,0.122529,20.8661,65.0611,0.0172787,0.0,0.0
2989,747,41.6223,42.0113,155.261,99.4658,99.3319,0.00740113,0.122331,20.8661,65.0811,0.0122022,0.0,0.0
2996,748.75,41.8006,42.2569,146.923,99.4868,99.3184,0.00754973,0.121898,20.8669,65.0311,0.0153515,0.0,0.0
3003,750.5,41.6455,42.7808,150.371,99.5184,99.2802,0.00770086,0.121043,20.8681,64.981,0.0217007,0.0,0.0
3010,752.25,41.7016,42.3584,148.222,99.5236,99.2743,0.00780389,0.120686,20.8692,64.971,0.0227197,0.0,0.0
3017,754,41.3143,41.9967,152.651,99.5192,99.3544,0.00783551,0.120862,20.8697,64.941,0.0150076,0.0,0.0
3024,755.75,41.6243,42.5039,149.333,99.5301,99.3328,0.00780667,0.12068,20.87,64.911,0.0179717,0.0,0.0
3031,757.5,41.5417,42.2001,148.491,99.5579,99.4197,0.00772108,0.120326,20.8701,64.901,0.0125882,0.0,0.0
3038,759.25,41.2239,42.1741,150.634,99.5862,99.4557,0.00760109,0.120113,20.8702,64.901,0.0118787,0.0,0.0
3045,761,41.5114,42.1309,151.436,99.5931,99.3205,0.00758245,0.120079,20.8702,64.891,0.0248262,0.0,0.0
3052,762.75,41.4839,42.1766,150.848,99.6092,99.4769,0.00766141,0.119954,20.8702,64.8509,0.0120426,0.0,0.0
3059,764.5,41.7725,42.0493,147.702,99.6302,99.5091,0.00775742,0.119693,20.8702,64.8509,0.0110192,0.0,0.0
3066,766.25,41.1518,42.301,149.549,99.6662,99.5239,0.00780811,0.119675,20.8702,64.8209,0.0129376,0.0,0.0
3073,768,41.4464,42.0554,150.994,99.686,99.5252,0.00783289,0.11986,20.8702,64.8109,0.0146206,0.0,0.0
3080,769.75,41.4749,42.0001,152.727,99.6965,99.5947,0.00785361,0.119894,20.8702,64.7809,0.00925026,0.0,0.0
3087,771.5,41.7669,42.111,153.569,99.724,99.571,0.0078394,0.119621,20.8702,64.7408,0.0139047,0.0,0.0
3094,773.25,41.5764,42.3813,155.125,99.7551,99.5774,0.00777526,0.119124,20.8699,64.7308,0.0161513,0.0,0.0
3101,775,41.3489,42.4516,151.341,99.7688,99.5231,0.00772454,0.119024,20.8706,64.6908,0.0223351,0.0,0.0
3108,776.75,41.3808,42.3293,150.586,99.7866,99.6134,0.00776732,0.11883,20.8713,64.6808,0.0157342,0.0,0.0
3115,778.5,41.4427,41.8946,150.388,99.8258,99.7312,0.00788984,0.118582,20.8716,64.6708,0.00858252,0.0,0.0
3122,780.25,41.4109,41.99,152.667,99.8742,99.755,0.00799076,0.118432,20.8718,64.6507,0.010825,0.0,0.0
3129,782,41.0122,41.5825,155.479,99.9102,99.8046,0.00809741,0.118614,20.8718,64.6307,0.00958249,0.0,0.0
3136,783.75,41.4766,42.0705,153.504,99.9429,99.7299,0.00824038,0.118754,20.8709,64.6107,0.0193219,0.0,0.0
3143,785.5,41.2709,41.7842,150.118,99.9651,99.7863,0.00835581,0.118859,20.8714,64.6007,0.016216,0.0,0.0
3150,787.25,41.3243,42.1127,151.072,99.976,99.7414,0.00845893,0.118935,20.8706,64.5707,0.0212838,0.0,0.0
3154,788.25,41.0277,42.0199,147.692,99.9954,99.8211,0.00852441,0.118895,20.8702,64.5707,0.0158064,0.0,0.0