File: 01_Data/Homasote/Cone/Homasote_Cone_HF50Scan_230608_R2.csv
Names,Time,Stack TC,Smoke TC,Exh Press,Smoke Comp,Smoke Meas,CO Meter,CO2 Meter,O2 Meter,Sample Mass,Ext Coeff,Start Test,Flame Verif
Chan Gain,,500,500,1,1,1,1,1,1,1,1,1.0,1.0
Offset,,0,0,0.143883,0,0,0,0,0,0,0,0.0,0.0
Gain,,1,1,25.011,13.3119,13.9685,1,1,1,1.00094,1.03262,1.0,1.0
Units,sec,C,C,Pa,%,%,%,%,%,g,/m,,
Baseline,,39.1394,39.7372,153.534,100.53,100.323,0.000867863,0.0615899,20.9356,-445.918,0.0186609,,
7,1.5,35.9128,36.3093,152.59,100.398,100.107,0.000640816,0.0795753,20.9291,109.793,0.0263046,0.0,0.0
14,3.25,36.252,36.4751,150.451,100.464,99.6021,0.000743535,0.0820228,20.9199,109.803,0.0780627,0.0,0.0
21,5,36.0742,36.6574,153.554,100.463,98.9635,0.000832195,0.0816835,20.9152,109.763,0.136213,0.0,0.0
28,6.75,36.4502,36.5301,151.652,100.496,98.2857,0.000916339,0.0795594,20.9131,109.663,0.201431,0.0,0.0
35,8.5,36.2757,37.1072,153.477,100.527,96.8828,0.000947102,0.0775315,20.9149,109.653,0.334473,0.0,0.0
42,10.25,36.7771,37.1837,137.61,100.554,100.383,0.000959124,0.0760081,20.9176,109.323,0.0154474,0.0,1.0
49,12,38.4891,37.9371,134.089,100.561,99.99,0.000949956,0.0750188,20.9201,109.042,0.0515668,0.0,1.0
56,13.75,38.6333,37.2327,138.198,100.566,99.7057,0.000865945,0.0743519,20.9222,108.792,0.0778369,0.0,1.0
63,15.5,40.6521,38.4572,139.514,100.581,99.3041,0.000738324,0.0748685,20.9232,108.502,0.115744,0.0,0.0
70,17.25,42.284,39.4534,136.666,100.598,99.0441,0.000795442,0.0862845,20.9228,108.252,0.140995,0.0,0.0
77,19,44.2529,40.7487,132.731,100.598,97.8164,0.00116264,0.144335,20.9199,107.961,0.254011,0.0,0.0
84,20.75,44.8999,42.3201,141.189,100.596,97.5401,0.00158392,0.223017,20.9066,107.641,0.279408,0.0,0.0
91,22.5,46.1948,42.8075,142.205,100.585,96.277,0.00208439,0.320647,20.8202,107.391,0.396519,0.0,0.0
98,24.25,47.2611,44.3491,142.021,100.593,94.6845,0.00246826,0.386259,20.7153,107.041,0.548266,0.0,0.0
105,26,48.1941,44.8218,142.581,100.597,96.4049,0.00277063,0.423205,20.6186,106.79,0.385555,0.0,0.0
112,27.75,49.1587,45.6503,137.59,100.564,96.6859,0.00301572,0.441804,20.5525,106.61,0.356271,0.0,0.0
119,29.5,50.8946,46.8132,140.724,100.57,96.7187,0.00334514,0.45181,20.5162,106.38,0.35371,0.0,0.0
126,31.25,50.1521,47.5959,137.827,100.569,97.0141,0.00366606,0.455258,20.4963,106.2,0.325939,0.0,0.0
133,33,50.8586,48.2652,136.974,100.569,95.748,0.00405048,0.453597,20.4858,105.97,0.445,0.0,0.0
140,34.75,51.8745,48.7953,139.849,100.558,96.7144,0.00430205,0.447017,20.4826,105.749,0.353011,0.0,0.0
147,36.5,51.9172,49.1687,140.939,100.541,96.6577,0.00436183,0.437089,20.4851,105.529,0.356749,0.0,0.0
154,38.25,52.8963,49.7169,142.412,100.544,96.5831,0.00427002,0.426938,20.4966,105.279,0.364036,0.0,0.0
161,40,52.802,50.4013,142.976,100.531,97.2409,0.0041698,0.418691,20.5076,105.129,0.301423,0.0,0.0
168,41.75,53.1264,50.6747,141.746,100.534,97.5533,0.00406944,0.411055,20.5191,104.889,0.272619,0.0,0.0
175,43.5,53.0441,51.0881,143.511,100.516,97.405,0.00395078,0.404189,20.5289,104.738,0.284757,0.0,0.0
182,45.25,53.3082,51.0469,141.382,100.525,96.8981,0.00380591,0.396035,20.5379,104.568,0.332856,0.0,0.0
189,47,53.4213,51.5475,141.774,100.519,97.6092,0.00368665,0.388153,20.548,104.328,0.266045,0.0,0.0
196,48.75,53.6973,51.7528,142.667,100.505,97.4012,0.00366222,0.379742,20.5554,104.108,0.284125,0.0,0.0
203,50.5,53.6808,52.1875,144.389,100.504,97.662,0.00374605,0.370489,20.5613,103.958,0.259822,0.0,0.0
210,52.25,54.2956,52.5891,143.981,100.489,97.7273,0.00382201,0.361319,20.5724,103.737,0.252457,0.0,0.0
217,54,53.8141,53.1188,140.611,100.497,98.3501,0.00378043,0.352953,20.5857,103.597,0.195647,0.0,0.0
224,55.75,54.2466,53.1409,147.918,100.51,98.0534,0.00370022,0.347146,20.5975,103.377,0.224186,0.0,0.0
231,57.5,54.5055,53.6298,142.949,100.493,97.9886,0.00360698,0.342014,20.6058,103.207,0.228635,0.0,0.0
238,59.25,54.3836,53.3967,140.856,100.482,98.0981,0.00352677,0.335625,20.6115,103.007,0.217451,0.0,0.0
245,61,54.0458,53.2914,140.693,100.489,98.122,0.00347033,0.329651,20.6197,102.827,0.215906,0.0,0.0
252,62.75,54.2802,53.7809,141.336,100.499,99.0564,0.00342312,0.323884,20.6264,102.676,0.130935,0.0,0.0
259,64.5,54.5526,54.0415,140.176,100.519,98.6941,0.00334889,0.318333,20.6338,102.506,0.165959,0.0,0.0
266,66.25,54.1602,53.8965,141.788,100.495,98.6191,0.00322332,0.313486,20.6403,102.336,0.170651,0.0,0.0
273,68,54.1604,53.9663,141.653,100.506,98.7584,0.00305836,0.308556,20.6465,102.216,0.158882,0.0,0.0
280,69.75,54.4853,54.1238,147.976,100.513,98.9375,0.00288967,0.303192,20.6509,102.036,0.143098,0.0,0.0
287,71.5,54.3769,54.2332,143.809,100.538,98.9639,0.00278301,0.297962,20.6542,101.866,0.142948,0.0,0.0
294,73.25,54.1203,53.5319,146.359,100.532,99.1898,0.00275135,0.293327,20.6619,101.766,0.121707,0.0,0.0
301,75,53.648,54.2941,148.024,100.547,99.5245,0.00276612,0.290972,20.6689,101.635,0.09259,0.0,0.0
308,76.75,54.4314,54.1884,141.921,100.541,99.6426,0.0027759,0.289496,20.6738,101.465,0.081338,0.0,0.0
315,78.5,53.9863,54.7803,143.095,100.558,99.2896,0.00273868,0.287496,20.6767,101.255,0.115018,0.0,0.0
322,80.25,53.8921,54.6921,145.148,100.56,99.6293,0.00267418,0.283423,20.6781,101.055,0.0842216,0.0,0.0
329,82,53.9788,54.9046,143.401,100.546,99.6123,0.00262038,0.279904,20.6813,101.005,0.0844922,0.0,0.0
336,83.75,54.1142,54.6712,146.143,100.544,99.8843,0.00256144,0.277269,20.6861,100.775,0.059649,0.0,0.0
343,85.5,53.9516,54.7412,140.838,100.558,99.6366,0.00252005,0.275458,20.69,100.645,0.0833443,0.0,0.0
350,87.25,53.7815,55.3309,144.31,100.545,99.7922,0.00245888,0.273843,20.6926,100.464,0.068112,0.0,0.0
357,89,53.812,54.8134,148.303,100.523,99.8399,0.00239611,0.271845,20.6951,100.304,0.0617298,0.0,0.0
364,90.75,53.8125,54.7533,145.177,100.497,99.7739,0.00235946,0.269229,20.6963,100.224,0.0654559,0.0,0.0
371,92.5,53.6432,55.0995,150.749,100.493,100.037,0.00233377,0.268044,20.6984,100.034,0.0412053,0.0,0.0
378,94.25,53.9121,54.6958,141.11,100.484,100.061,0.00236866,0.268393,20.7004,99.8438,0.038165,0.0,0.0
385,96,53.8405,55.375,148.819,100.452,100.043,0.00242978,0.267317,20.7026,99.7637,0.0369671,0.0,0.0
392,97.75,53.3133,54.6084,140.747,100.417,99.8114,0.00243218,0.264812,20.704,99.5735,0.054798,0.0,0.0
399,99.5,53.547,54.8346,146.211,100.375,99.8595,0.00238877,0.262402,20.7061,99.4034,0.0466169,0.0,0.0
406,101.25,53.6762,54.8674,143.99,100.362,99.7253,0.00234506,0.260084,20.709,99.2532,0.057631,0.0,0.0
413,103,53.5715,54.2888,141.892,100.32,99.7299,0.0022692,0.258288,20.7119,99.1131,0.0534284,0.0,0.0
420,104.75,53.0747,54.9877,145.077,100.279,99.7457,0.00225763,0.2559,20.714,99.013,0.0482539,0.0,0.0
427,106.5,53.5888,55.0066,146.715,100.235,99.9508,0.00233057,0.253739,20.7165,98.8729,0.0256887,0.0,0.0
434,108.25,53.3806,54.9364,142.195,100.209,99.9538,0.00234069,0.252201,20.7203,98.7227,0.0231419,0.0,0.0
441,110,53.4397,54.9599,143.099,100.178,99.831,0.00226179,0.251054,20.7221,98.5726,0.0314464,0.0,0.0
448,111.75,53.7252,55.2362,141.215,100.146,99.9124,0.00215042,0.249214,20.7232,98.4325,0.0211588,0.0,0.0
455,113.5,53.7628,54.8369,146.835,100.118,99.6485,0.00206582,0.247186,20.7255,98.2423,0.0425779,0.0,0.0
462,115.25,53.3981,55.142,143.472,100.11,99.805,0.00208043,0.246661,20.7277,98.1022,0.0275965,0.0,0.0
469,117,52.9886,54.8572,144.39,100.081,99.9533,0.00214237,0.246889,20.7288,97.962,0.0116058,0.0,0.0
476,118.75,53.2629,54.6233,145.468,100.06,99.8898,0.00212577,0.245766,20.7292,97.7919,0.0154151,0.0,0.0
483,120.5,53.4306,54.9937,144.957,100.039,99.715,0.00201547,0.244155,20.729,97.6718,0.0294017,0.0,0.0
490,122.25,53.168,54.7921,147.561,100.02,99.851,0.00192595,0.242474,20.7299,97.5116,0.0152911,0.0,0.0
497,124,52.5976,55.0874,147.608,100.022,99.8629,0.0019089,0.240891,20.7318,97.3715,0.0143931,0.0,0.0
504,125.75,52.9428,54.9523,142.835,100.018,99.9469,0.00196192,0.239767,20.734,97.2113,0.00644736,0.0,0.0
511,127.5,53.3113,54.7872,144.988,100.02,99.831,0.00198327,0.239103,20.7351,97.3615,0.0171095,0.0,0.0
518,129.25,52.8903,54.4184,146.286,100.002,99.9022,0.0019575,0.23823,20.7368,97.0011,0.00903344,0.0,0.0
525,131,52.6895,54.8546,140.55,100.021,99.8749,0.00197589,0.237578,20.7387,96.861,0.0132729,0.0,0.0
532,132.75,52.7814,54.637,140.175,100.025,100.013,0.00204544,0.236643,20.7398,96.6908,0.0010873,0.0,0.0
539,134.5,52.8034,55.349,142.993,100.042,99.8983,0.00204622,0.235804,20.7405,96.5207,0.0130605,0.0,0.0
546,136.25,52.8549,54.3934,142.843,100.044,99.9034,0.00194937,0.234655,20.7414,96.4106,0.0127435,0.0,0.0
553,138,52.28,55.0352,148.477,100.062,99.9316,0.00187452,0.233654,20.7418,96.2604,0.0117751,0.0,0.0
560,139.75,52.5,55.0239,146.625,100.089,100.046,0.00192385,0.234784,20.742,96.0803,0.00388861,0.0,0.0
567,141.5,52.3979,54.9441,141.68,100.103,99.926,0.00201328,0.237648,20.7421,96.0002,0.0160273,0.0,0.0
574,143.25,52.6578,54.8081,147.535,100.112,100.026,0.00208354,0.241771,20.7404,95.82,0.00775937,0.0,0.0
581,145,52.2041,54.4426,145.964,100.129,100.081,0.00212834,0.244545,20.7364,95.6799,0.00436135,0.0,0.0
588,146.75,52.5994,54.6479,148.369,100.155,100.134,0.00215528,0.243828,20.732,95.5297,0.00189269,0.0,0.0
595,148.5,52.5124,54.7462,146.27,100.18,100.027,0.00209523,0.241786,20.7303,95.3996,0.0138185,0.0,0.0
602,150.25,52.8326,54.4809,144.68,100.197,100.004,0.00195958,0.239741,20.7321,95.2795,0.0174457,0.0,0.0
609,152,52.3444,54.6183,142.956,100.206,100.028,0.00188458,0.237072,20.7348,95.1894,0.0161287,0.0,0.0
616,153.75,52.1508,54.7762,146.302,100.237,100.161,0.00187326,0.234254,20.7378,95.0593,0.0068822,0.0,0.0
623,155.5,52.4757,54.6087,143.447,100.252,100.118,0.00186403,0.231891,20.7413,94.8991,0.0120609,0.0,0.0
630,157.25,52.5621,54.1617,140.884,100.261,100.092,0.00188703,0.230058,20.7446,94.759,0.0152965,0.0,0.0
637,159,51.9906,54.3688,148.775,100.259,100.262,0.00190132,0.228553,20.7474,94.6289,-0.000304509,0.0,0.0
644,160.75,51.9945,54.6866,144.525,100.266,100.157,0.00184736,0.227211,20.7497,94.4888,0.00987372,0.0,0.0
651,162.5,51.9972,54.3088,143.031,100.287,100.166,0.00171978,0.226022,20.7511,94.3687,0.010935,0.0,0.0
658,164.25,52.4004,54.2417,142.743,100.308,100.193,0.00160396,0.225358,20.7527,94.1985,0.0104152,0.0,0.0
665,166,52.2111,54.2913,139.825,100.332,100.149,0.00160708,0.224899,20.7537,94.1184,0.0165878,0.0,0.0
672,167.75,52.0949,54.7148,144.892,100.339,100.239,0.00171434,0.224454,20.7538,93.9783,0.00896548,0.0,0.0
679,169.5,52.1214,54.5102,147.973,100.372,100.294,0.00178525,0.22394,20.7544,93.8682,0.0070052,0.0,0.0
686,171.25,52.0406,54.3553,142.311,100.401,100.336,0.00174844,0.223678,20.7544,93.708,0.00583553,0.0,0.0
693,173,52.5189,53.9406,145.86,100.427,100.32,0.00165386,0.223164,20.7549,93.6079,0.00967957,0.0,0.0
700,174.75,51.8782,54.2241,145.09,100.437,100.386,0.00159992,0.222278,20.7556,93.4578,0.00455562,0.0,0.0
707,176.5,52.2579,54.4062,144.08,100.463,100.389,0.00167322,0.221821,20.7566,93.3477,0.00659519,0.0,0.0
714,178.25,52.2477,54.2108,142.499,100.489,100.305,0.00178291,0.221387,20.7582,93.2076,0.0165921,0.0,0.0
721,180,51.9668,54.3542,145.119,100.507,100.428,0.00189947,0.221643,20.7589,93.0874,0.00708721,0.0,0.0
728,181.75,52.1379,54.3084,143.317,100.525,100.343,0.00200548,0.222312,20.759,92.9673,0.0164283,0.0,0.0
735,183.5,52.6203,54.5696,142.091,100.528,100.285,0.00209826,0.223307,20.7581,92.8372,0.0218439,0.0,0.0
742,185.25,52.1763,54.5855,143.446,100.53,100.425,0.0021828,0.223534,20.7565,92.6871,0.00948002,0.0,0.0
749,187,52.1078,54.2904,146.453,100.564,100.296,0.00219211,0.223726,20.7557,92.567,0.0242146,0.0,0.0
756,188.75,52.2852,54.3565,149.094,100.57,100.417,0.00211223,0.224162,20.7554,92.4068,0.0137958,0.0,0.0
763,190.5,52.4024,54.266,140.629,100.562,100.51,0.00203534,0.224484,20.7555,92.3067,0.00464951,0.0,0.0
770,192.25,51.9084,54.235,145.049,100.561,100.465,0.00203203,0.224964,20.7555,92.1566,0.00861164,0.0,0.0
777,194,51.7945,54.2754,144.149,100.583,100.335,0.00203628,0.225024,20.7555,92.0365,0.0223534,0.0,0.0
784,195.75,52.4183,54.2552,143.296,100.575,100.494,0.00196273,0.22397,20.7555,91.9364,0.00728034,0.0,0.0
791,197.5,52.0199,54.099,143.434,100.57,100.354,0.0018466,0.222501,20.7555,91.7862,0.0195277,0.0,0.0
798,199.25,52.0882,53.8634,142.283,100.57,100.392,0.0016151,0.222772,20.7565,91.6661,0.0160672,0.0,0.0
805,201,52.3372,54.1239,141.371,100.569,100.505,0.00139035,0.224044,20.7572,91.556,0.00577078,0.0,0.0
812,202.75,52.1614,54.2773,145.239,100.585,100.528,0.00134351,0.224713,20.7573,91.4259,0.00515998,0.0,0.0
819,204.5,51.8797,54.082,142.062,100.575,100.484,0.00148739,0.224479,20.7564,91.2858,0.00819846,0.0,0.0
826,206.25,52.0768,54.2937,144.285,100.556,100.286,0.00167512,0.22411,20.7559,91.1656,0.0243309,0.0,0.0
833,208,52.2386,54.3752,146.551,100.552,100.37,0.00183289,0.224485,20.7557,91.0555,0.0164175,0.0,0.0
840,209.75,52.2669,54.0539,146.017,100.569,100.444,0.00191423,0.224544,20.7556,90.9054,0.011265,0.0,0.0
847,211.5,52.0118,54.3739,147.647,100.558,100.541,0.00191107,0.224326,20.7562,90.7753,0.00151807,0.0,0.0
854,213.25,52.2387,54.2908,148.693,100.558,100.348,0.00187516,0.225097,20.7555,90.6552,0.0188919,0.0,0.0
861,215,52.305,54.1911,142.539,100.525,100.433,0.00185828,0.225897,20.7552,90.5451,0.0082373,0.0,0.0
868,216.75,52.2161,54.1053,149.198,100.562,100.424,0.00180169,0.226719,20.755,90.4049,0.0124135,0.0,0.0
875,218.5,52.2955,54.5224,148.077,100.559,100.317,0.00169921,0.227755,20.7545,90.2748,0.0218881,0.0,0.0
882,220.25,52.1283,53.9419,141.325,100.549,100.319,0.00166558,0.228617,20.7526,90.1547,0.0207419,0.0,0.0
889,222,52.5971,54.4503,146.98,100.538,100.325,0.00171216,0.228095,20.7513,90.0446,0.0191398,0.0,0.0
896,223.75,52.3489,54.0304,144.964,100.539,100.444,0.00178073,0.227432,20.751,89.9045,0.00855555,0.0,0.0
903,225.5,52.355,54.2069,145.815,100.559,100.472,0.00184707,0.227389,20.7518,89.7944,0.00781331,0.0,0.0
910,227.25,52.2818,53.8477,143.831,100.551,100.412,0.00186576,0.228115,20.7522,89.6542,0.0125408,0.0,0.0
917,229,52.5221,54.1781,146.875,100.542,100.331,0.00183434,0.228974,20.7514,89.5041,0.019004,0.0,0.0
924,230.75,52.3177,54.1978,146.888,100.547,100.395,0.00177272,0.229201,20.7511,89.384,0.0136718,0.0,0.0
931,232.5,52.1549,54.1152,142.636,100.551,100.241,0.00174525,0.229786,20.7511,89.2739,0.0279744,0.0,0.0
938,234.25,52.2822,53.8377,144.613,100.553,100.389,0.00176568,0.230398,20.7506,89.1137,0.0148362,0.0,0.0
945,236,52.9419,54.2582,145.025,100.545,100.236,0.00181607,0.231873,20.7482,89.0136,0.0278463,0.0,0.0
952,237.75,52.8488,54.2793,142.754,100.545,100.377,0.00178776,0.233501,20.7471,88.8935,0.0151046,0.0,0.0
959,239.5,52.5538,54.4067,142.117,100.564,100.267,0.00172224,0.23449,20.7459,88.7434,0.0267913,0.0,0.0
966,241.25,52.8279,54.2362,145.897,100.564,100.302,0.00170339,0.235235,20.7438,88.6032,0.0236728,0.0,0.0
973,243,52.9616,54.5343,141.315,100.59,100.251,0.00176894,0.236493,20.7425,88.4631,0.030635,0.0,0.0
980,244.75,53.2578,54.6746,146.255,100.554,100.107,0.00187036,0.237487,20.7419,88.353,0.0403335,0.0,0.0
987,246.5,53.19,54.7431,145.23,100.556,100.265,0.00193127,0.238833,20.7404,88.2129,0.0262163,0.0,0.0
994,248.25,52.9274,54.5473,141.379,100.566,100.29,0.00185645,0.240243,20.7386,88.0928,0.0248994,0.0,0.0
1001,250,53.5741,54.4706,148.583,100.569,100.065,0.00166895,0.242004,20.7368,87.9827,0.045506,0.0,0.0
1008,251.75,53.651,55.3206,142.9,100.56,100.176,0.00151607,0.24351,20.7345,87.8225,0.0346353,0.0,0.0
1015,253.5,53.3786,54.9063,145.004,100.559,100.149,0.0015191,0.243798,20.7327,87.6724,0.0370671,0.0,0.0
1022,255.25,52.725,54.2578,142.566,100.561,100.145,0.0016361,0.243519,20.7311,87.5523,0.0375962,0.0,0.0
1029,257,53.5549,55.1255,140.392,100.562,100.14,0.00169283,0.243767,20.7303,87.4722,0.0381306,0.0,0.0
1036,258.75,53.6636,55.1052,142.903,100.571,100.087,0.00169648,0.245598,20.7309,87.322,0.0436815,0.0,0.0
1043,260.5,53.7547,54.8333,149.731,100.543,99.9086,0.00165733,0.247712,20.7321,87.1619,0.057336,0.0,0.0
1050,262.25,53.723,54.8742,148.766,100.546,100.147,0.00170859,0.250393,20.7309,87.0618,0.036011,0.0,0.0
1057,264,53.487,55.1568,143.823,100.544,99.9456,0.00185479,0.253332,20.7283,86.8816,0.0540466,0.0,0.0
1064,265.75,53.4343,55.3321,143.95,100.541,100.03,0.00192162,0.25615,20.7247,86.7415,0.0461077,0.0,0.0
1071,267.5,54.226,55.4937,141.784,100.526,99.793,0.00186567,0.258345,20.7207,86.6214,0.0662781,0.0,0.0
1078,269.25,53.958,55.3059,144.426,100.511,99.9064,0.00176486,0.261549,20.7178,86.4812,0.0546359,0.0,0.0
1085,271,54.062,55.1448,144.123,100.514,99.663,0.00172073,0.266347,20.7156,86.3111,0.0769889,0.0,0.0
1092,272.75,53.4758,55.255,141.979,100.503,99.7078,0.00174552,0.270935,20.7118,86.181,0.0719329,0.0,0.0
1099,274.5,54.0026,55.5666,143.022,100.487,99.8028,0.00185165,0.273532,20.7047,86.0308,0.06191,0.0,0.0
1106,276.25,53.8936,55.4548,140.403,100.468,99.5927,0.00189763,0.274212,20.6999,85.9107,0.079282,0.0,0.0
1113,278,53.9975,55.6473,140.513,100.46,99.4912,0.00188893,0.273696,20.6983,85.7806,0.0877823,0.0,0.0
1120,279.75,54.4714,55.6367,142.78,100.45,99.3864,0.00189009,0.27283,20.6981,85.6304,0.0964551,0.0,0.0
1127,281.5,54.6036,55.9776,141.649,100.431,99.4998,0.00189437,0.27213,20.6988,85.4803,0.0844045,0.0,0.0
1134,283.25,54.5266,55.4949,146.313,100.398,99.4294,0.00179969,0.271438,20.6996,85.3502,0.0878047,0.0,0.0
1141,285,54.2372,55.7905,140.991,100.374,99.3207,0.00182402,0.271157,20.6999,85.21,0.0955876,0.0,0.0
1148,286.75,54.4394,55.9392,140.028,100.367,99.423,0.00195695,0.271507,20.7001,85.0799,0.0856015,0.0,0.0
1155,288.5,54.4135,56.0035,141.458,100.348,99.1344,0.00208047,0.272083,20.7002,84.9198,0.11021,0.0,0.0
1162,290.25,55.0171,56.4543,145.827,100.332,99.3292,0.00204271,0.272762,20.7002,84.7997,0.0909963,0.0,0.0
1169,292,54.6854,55.8727,141.523,100.298,98.952,0.00185279,0.27372,20.7,84.6495,0.122421,0.0,0.0
1176,293.75,54.8994,56.3218,145.255,100.267,98.926,0.00174438,0.274678,20.6989,84.5294,0.121975,0.0,0.0
1183,295.5,54.618,56.6191,146.15,100.25,99.1506,0.00178086,0.275175,20.6981,84.3593,0.0998508,0.0,0.0
1190,297.25,55.3219,56.2691,144.281,100.213,98.9635,0.00186664,0.27572,20.6968,84.1991,0.113622,0.0,0.0
1197,299,55.2165,56.6697,142.9,100.189,98.897,0.00188693,0.27599,20.6961,84.079,0.117545,0.0,0.0
1204,300.75,55.543,56.2045,146.318,100.206,99.0125,0.00179055,0.276065,20.6958,83.9389,0.108549,0.0,0.0
1211,302.5,55.9396,56.3997,143.368,100.236,98.9481,0.00162967,0.27617,20.6957,83.8087,0.117157,0.0,0.0
1218,304.25,55.1669,56.7148,148.197,100.243,98.8352,0.00155222,0.277006,20.6956,83.6186,0.128091,0.0,0.0
1225,306,55.2576,56.8409,144.132,100.246,98.8689,0.00158653,0.277241,20.6956,83.5085,0.125335,0.0,0.0
1232,307.75,55.1933,57.0119,140.261,100.268,98.6497,0.0016534,0.276685,20.6955,83.3683,0.147377,0.0,0.0
1239,309.5,55.5972,57.0574,151.78,100.3,98.845,0.00172111,0.276554,20.6955,83.2082,0.132367,0.0,0.0
1246,311.25,55.5126,57.0483,144.007,100.322,98.6962,0.00168784,0.278096,20.6955,83.078,0.148028,0.0,0.0
1253,313,55.7546,57.0698,142.205,100.332,98.6659,0.00163716,0.279368,20.6951,82.9179,0.151686,0.0,0.0
1260,314.75,56.3321,57.1781,142.333,100.348,98.6382,0.00164277,0.279605,20.6929,82.7978,0.155661,0.0,0.0
1267,316.5,55.4914,56.8704,145.758,100.359,98.593,0.00167848,0.279854,20.6918,82.6476,0.160802,0.0,0.0
1274,318.25,56.2109,57.1324,145.048,100.396,98.8706,0.00173355,0.280339,20.6913,82.4975,0.138642,0.0,0.0
1281,320,56.5041,57.1164,144.908,100.43,98.5248,0.00183185,0.280984,20.691,82.3374,0.173485,0.0,0.0
1288,321.75,56.3253,57.776,146.325,100.45,98.7324,0.00190236,0.28214,20.6901,82.2272,0.156213,0.0,0.0
1295,323.5,55.7361,57.5154,146.899,100.481,98.6949,0.00189817,0.282787,20.6886,82.0571,0.162476,0.0,0.0
1302,325.25,56.1826,57.7931,140.936,100.518,98.8787,0.00186257,0.283228,20.6873,81.907,0.148961,0.0,0.0
1309,327,56.0085,57.146,149.78,100.571,98.8096,0.001779,0.28426,20.6867,81.7468,0.160048,0.0,0.0
1316,328.75,56.1355,57.7652,149.874,100.602,99.1114,0.00170222,0.285486,20.6869,81.6067,0.135239,0.0,0.0
1323,330.5,56.178,57.5356,147.164,100.643,98.952,0.00164511,0.286294,20.6876,81.4465,0.153479,0.0,0.0
1330,332.25,55.8933,57.9933,141.091,100.692,98.848,0.00158692,0.286687,20.6872,81.3064,0.167465,0.0,0.0
1337,334,55.9802,57.746,144.323,100.735,98.6532,0.00153611,0.286676,20.6863,81.1362,0.189171,0.0,0.0
1344,335.75,56.322,57.5287,142.091,100.768,98.8492,0.00154646,0.286383,20.6853,81.0161,0.174143,0.0,0.0
1351,337.5,56.6756,57.8259,141.26,100.802,98.767,0.00164044,0.286434,20.6848,80.866,0.184752,0.0,0.0
1358,339.25,56.4776,58.1364,143.885,100.823,98.7504,0.00171793,0.28643,20.6846,80.7058,0.188137,0.0,0.0
1365,341,56.3763,58.0116,139.019,100.889,98.755,0.00179963,0.286748,20.6845,80.5657,0.193655,0.0,0.0
1372,342.75,56.9878,57.7906,141.172,100.894,98.9754,0.00194616,0.287753,20.6844,80.4256,0.173901,0.0,0.0
1379,344.5,56.7871,58.4087,144.551,100.937,99.0777,0.00206528,0.288677,20.6841,80.2854,0.168407,0.0,0.0
1386,346.25,57.0163,57.9668,137.335,100.965,98.6928,0.00213197,0.289038,20.6826,80.1253,0.20622,0.0,0.0
1393,348,56.6734,58.1829,147.491,101.011,99.0082,0.00219446,0.289902,20.6819,79.9551,0.181396,0.0,0.0
1400,349.75,56.8111,58.2081,141.716,101.042,99.1084,0.00222096,0.290667,20.6813,79.785,0.175039,0.0,0.0
1407,351.5,56.9532,58.2422,144.467,101.063,98.8296,0.00213821,0.290872,20.6795,79.6949,0.202449,0.0,0.0
1414,353.25,57.1682,58.3521,140.631,101.065,98.9938,0.00205504,0.290349,20.6784,79.5347,0.187529,0.0,0.0
1421,355,56.9424,58.1604,143.467,101.084,99.2862,0.00204442,0.290758,20.6778,79.4146,0.162522,0.0,0.0
1428,356.75,57.1951,58.4499,140.989,101.101,99.0121,0.00213636,0.290712,20.678,79.2845,0.189092,0.0,0.0
1435,358.5,56.9788,58.569,139.335,101.109,99.1476,0.00225494,0.290177,20.6781,79.1043,0.177426,0.0,0.0
1442,360.25,57.1679,58.6856,139.711,101.104,99.3079,0.00238606,0.290038,20.6781,78.8841,0.162394,0.0,0.0
1449,362,57.1184,58.6214,147.192,101.11,99.1442,0.00251048,0.289923,20.6782,78.814,0.177811,0.0,0.0
1456,363.75,57.1085,58.7637,143.069,101.118,99.0138,0.00253798,0.291206,20.6782,78.6639,0.190501,0.0,0.0
1463,365.5,56.5821,58.412,145.784,101.113,98.8305,0.00243826,0.292665,20.6779,78.5538,0.206848,0.0,0.0
1470,367.25,56.6954,58.7023,142.974,101.101,98.8092,0.00221902,0.293258,20.6755,78.4237,0.20771,0.0,0.0
1477,369,56.4471,58.9003,144.556,101.077,98.7751,0.0019987,0.293181,20.674,78.2235,0.208689,0.0,0.0
1484,370.75,57.0465,58.5301,142.111,101.085,98.6911,0.00186141,0.292602,20.6734,78.0934,0.217085,0.0,0.0
1491,372.5,56.8927,58.9007,144.062,101.078,98.8846,0.00180188,0.292381,20.673,78.0033,0.198684,0.0,0.0
1498,374.25,57.0399,58.621,145.74,101.068,98.7563,0.00180412,0.292115,20.6737,77.8632,0.209609,0.0,0.0
1505,376,57.2108,58.8437,141.657,101.042,98.9759,0.00179088,0.291869,20.6738,77.703,0.187164,0.0,0.0
1512,377.75,57.3617,58.8438,140.513,101.041,98.816,0.00183119,0.291421,20.6739,77.5128,0.201733,0.0,0.0
1519,379.5,57.3729,59.1458,145.425,101.033,98.9733,0.00202032,0.290892,20.6739,77.3727,0.186596,0.0,0.0
1526,381.25,57.1616,59.0131,141.714,101.022,98.7273,0.00223076,0.290867,20.6739,77.2526,0.208116,0.0,0.0
1533,383,57.3071,58.8277,143.051,100.996,98.7653,0.00239116,0.29119,20.6739,77.1124,0.202341,0.0,0.0
1540,384.75,57.6619,59.3031,147.115,100.984,98.9234,0.00241395,0.291706,20.6739,76.9823,0.186719,0.0,0.0
1547,386.5,57.5188,58.9254,141.225,100.969,98.8475,0.00234444,0.291292,20.674,76.8022,0.192357,0.0,0.0
1554,388.25,57.4393,59.1059,145.528,100.96,98.7793,0.00220881,0.289861,20.6744,76.662,0.197771,0.0,0.0
1561,390,57.3217,58.925,143.315,100.932,98.9038,0.0020701,0.288878,20.6757,76.5019,0.183886,0.0,0.0
1568,391.75,57.5541,59.2561,140.951,100.906,98.6587,0.00203878,0.287995,20.6765,76.4018,0.204027,0.0,0.0
1575,393.5,57.2736,58.7971,144.67,100.898,98.7465,0.00210664,0.287673,20.6768,76.2616,0.195203,0.0,0.0
1582,395.25,57.6455,59.383,141.206,100.924,98.761,0.00215389,0.288763,20.677,76.1015,0.196243,0.0,0.0
1589,397,57.4793,59.4987,146.446,100.922,98.8514,0.00215466,0.289609,20.6771,75.9413,0.187813,0.0,0.0
1596,398.75,57.8885,59.2047,148.505,100.923,98.7951,0.00213188,0.289611,20.6763,75.8312,0.193007,0.0,0.0
1603,400.5,57.5396,58.8059,141.798,100.94,98.6259,0.00213856,0.289295,20.676,75.7011,0.210069,0.0,0.0
1610,402.25,57.7011,59.3085,142.868,100.974,98.8352,0.00215884,0.290458,20.6758,75.581,0.193964,0.0,0.0
1617,404,57.7576,59.5156,143.753,101.003,98.8637,0.00213499,0.291711,20.6749,75.3908,0.193933,0.0,0.0
1624,405.75,57.2132,59.3794,142.607,100.996,98.8348,0.00203317,0.291216,20.674,75.3107,0.195934,0.0,0.0
1631,407.5,57.3377,59.297,138.304,100.986,98.7073,0.00195936,0.290863,20.6728,75.1106,0.206749,0.0,0.0
1638,409.25,57.8663,59.5267,142.924,100.984,98.6037,0.00194394,0.290971,20.6722,74.9804,0.216077,0.0,0.0
1645,411,57.7851,59.5518,144.335,100.994,98.8164,0.00197574,0.29049,20.6727,74.8503,0.197432,0.0,0.0
1652,412.75,58.0277,59.6836,145.577,100.992,98.5892,0.00206411,0.289583,20.673,74.6601,0.218137,0.0,0.0
1659,414.5,57.9963,59.8396,138.273,100.996,98.57,0.00211834,0.28809,20.6731,74.52,0.220191,0.0,0.0
1666,416.25,57.6978,59.5681,145.887,101,98.738,0.00214207,0.286836,20.6748,74.4199,0.205135,0.0,0.0
1673,418,57.9221,59.9885,141.251,101.011,98.6715,0.00216382,0.286709,20.6765,74.2698,0.212293,0.0,0.0
1680,419.75,57.719,59.3469,143.755,101.015,98.8275,0.00214453,0.287012,20.6772,74.0896,0.198274,0.0,0.0
1687,421.5,58.1281,59.5593,138.283,101.012,99.062,0.00205581,0.286929,20.6773,73.9795,0.176555,0.0,0.0
1694,423.25,58.0197,59.457,146.647,101.009,98.6348,0.00207254,0.286277,20.6761,73.8494,0.215477,0.0,0.0
1701,425,57.8098,59.7477,145.208,101.03,98.955,0.0021914,0.285996,20.6755,73.7393,0.18802,0.0,0.0
1708,426.75,57.9162,59.8525,143.791,101.033,98.7657,0.00226789,0.286177,20.6759,73.5691,0.205616,0.0,0.0
1715,428.5,57.8052,59.882,140.418,101.032,98.7512,0.0022831,0.285646,20.6766,73.479,0.2068,0.0,0.0
1722,430.25,57.1042,59.3587,139.732,101.028,98.5368,0.00224887,0.285871,20.6768,73.3289,0.226162,0.0,0.0
1729,432,57.6702,59.2095,141.871,101.049,99.2014,0.00226059,0.286055,20.6766,73.1587,0.167133,0.0,0.0
1736,433.75,57.9202,59.477,143.278,101.062,98.6493,0.0023662,0.285116,20.6765,73.0386,0.218844,0.0,0.0
1743,435.5,57.6006,59.5727,147.108,101.065,99.021,0.00246047,0.283895,20.6767,72.9385,0.185033,0.0,0.0
1750,437.25,57.9799,59.7921,140.947,101.074,98.9085,0.00250133,0.282875,20.6778,72.7283,0.196134,0.0,0.0
1757,439,58.014,59.7036,142.726,101.077,99.1685,0.0025034,0.282403,20.6798,72.6583,0.172643,0.0,0.0
1764,440.75,57.6244,59.3615,140.977,101.089,98.8987,0.00250164,0.282443,20.6818,72.5181,0.198451,0.0,0.0
1771,442.5,58.0946,59.5288,143.845,101.106,98.9635,0.00247623,0.282757,20.6827,72.378,0.194011,0.0,0.0
1778,444.25,57.9779,59.7001,138.915,101.097,98.9631,0.00238068,0.282405,20.6827,72.2979,0.193286,0.0,0.0
1785,446,58.0829,59.808,143.313,101.089,99.0023,0.00219954,0.282117,20.6827,72.1678,0.188896,0.0,0.0
1792,447.75,57.8651,59.9476,147.586,101.096,98.955,0.00199896,0.281815,20.6827,71.9676,0.193882,0.0,0.0
1799,449.5,57.7106,59.8494,145.773,101.1,99.1442,0.00183531,0.28153,20.6827,71.8975,0.176902,0.0,0.0
1806,451.25,57.7834,59.5133,144.149,101.096,99.1037,0.00179351,0.28076,20.6827,71.7474,0.180275,0.0,0.0
1813,453,57.8754,59.4723,144.926,101.072,98.8092,0.00186999,0.280076,20.6846,71.6073,0.205125,0.0,0.0
1820,454.75,57.5253,59.6053,145.445,101.073,99.4674,0.00199132,0.27876,20.6861,71.5272,0.145024,0.0,0.0
1827,456.5,57.2842,59.0486,140,101.087,99.1178,0.00214409,0.276707,20.6868,71.4071,0.178187,0.0,0.0
1834,458.25,57.3399,59.3935,145.055,101.052,99.2517,0.00226552,0.274966,20.6887,71.2269,0.162868,0.0,0.0
1841,460,57.7331,59.5027,144.011,101.039,99.2329,0.00233473,0.272716,20.693,71.1468,0.163343,0.0,0.0
1848,461.75,57.1534,59.5957,141.234,101.008,99.1268,0.00228209,0.270406,20.6948,71.0167,0.170268,0.0,0.0
1855,463.5,56.502,59.1385,146.583,101.004,99.6562,0.00216857,0.267509,20.6977,70.8966,0.121725,0.0,0.0
1862,465.25,57.2128,59.4217,143.716,101.001,99.5206,0.00204035,0.265833,20.7016,70.7765,0.133727,0.0,0.0
1869,467,56.9625,58.7922,143.529,100.967,99.42,0.00190638,0.264588,20.7045,70.6664,0.139827,0.0,0.0
1876,468.75,56.8016,58.9859,144.997,100.947,99.267,0.00181233,0.262816,20.706,70.5363,0.152032,0.0,0.0
1883,470.5,56.6584,58.7986,143.523,100.939,99.5258,0.00180928,0.261031,20.7067,70.4061,0.127686,0.0,0.0
1890,472.25,56.6107,58.7747,142.097,100.942,99.5923,0.00189994,0.258696,20.7096,70.296,0.121928,0.0,0.0
1897,474,56.4081,58.5177,147.711,100.925,99.4946,0.00196958,0.256348,20.7123,70.206,0.129316,0.0,0.0
1904,475.75,56.1731,58.6302,141.465,100.903,99.4443,0.00193593,0.254239,20.715,70.0858,0.131891,0.0,0.0
1911,477.5,56.332,58.3929,146.077,100.898,99.2606,0.00182069,0.251547,20.7176,69.9757,0.148239,0.0,0.0
1918,479.25,56.4165,58.6192,138.652,100.899,99.4806,0.0017707,0.248921,20.7214,69.9157,0.128262,0.0,0.0
1925,481,56.186,58.4599,145.702,100.907,99.6144,0.00182745,0.246154,20.7248,69.8256,0.116812,0.0,0.0
1932,482.75,56.6057,58.1509,145.828,100.896,99.5671,0.00191069,0.24452,20.727,69.7355,0.120059,0.0,0.0
1939,484.5,56.049,58.2672,148.449,100.891,99.527,0.00200195,0.242915,20.7291,69.6454,0.123303,0.0,0.0
1946,486.25,55.8858,58.3482,144.606,100.906,99.5935,0.00209697,0.240488,20.7313,69.5754,0.118602,0.0,0.0
1953,488,55.7789,58.1853,143.142,100.905,99.8736,0.00217151,0.237313,20.7335,69.4352,0.093056,0.0,0.0
1960,489.75,55.6849,58.0368,148.257,100.909,99.579,0.00227469,0.234328,20.7366,69.4252,0.120176,0.0,0.0
1967,491.5,55.0482,57.9257,146.764,100.913,99.7402,0.00242555,0.231656,20.7402,69.2651,0.105895,0.0,0.0
1974,493.25,55.2535,57.6637,149.615,100.903,99.9772,0.00253144,0.229218,20.7432,69.1249,0.0835198,0.0,0.0
1981,495,54.7828,57.476,147.947,100.929,100.161,0.0025681,0.225242,20.7453,69.165,0.0691879,0.0,0.0
1988,496.75,54.8912,56.9928,146.106,100.941,100.022,0.00255627,0.220392,20.7499,69.0849,0.0829324,0.0,0.0
1995,498.5,54.4965,57.1476,147.92,100.948,100.33,0.00253482,0.215872,20.755,68.9848,0.0555718,0.0,0.0
2002,500.25,53.979,57.0255,145.599,100.966,100.223,0.00250137,0.212067,20.7621,68.9948,0.0668773,0.0,0.0
2009,502,53.4864,56.398,149.633,100.967,100.583,0.00243529,0.207529,20.7666,68.9648,0.0345664,0.0,0.0
2016,503.75,53.3224,56.1693,149.243,100.988,100.623,0.00239967,0.202916,20.7707,68.9248,0.0328172,0.0,0.0
2023,505.5,53.1073,55.5934,148.044,100.988,100.53,0.00249516,0.197478,20.7754,68.8447,0.0412236,0.0,0.0
2030,507.25,52.9121,55.6074,150.286,100.989,100.636,0.00265789,0.192784,20.7815,68.7846,0.0316982,0.0,0.0
2037,509,52.5635,55.631,150.556,100.999,100.647,0.00277263,0.188634,20.787,68.7546,0.0316132,0.0,0.0
2044,510.75,52.3625,55.1906,149.328,101.023,100.646,0.00286046,0.185392,20.7905,68.7246,0.0338769,0.0,0.0
2051,512.5,52.0575,55.1291,146.583,101.036,100.886,0.00295325,0.181247,20.7942,68.6745,0.0134314,0.0,0.0
2058,514.25,51.6116,54.5036,148.817,101.022,100.825,0.00311634,0.176261,20.7969,68.6045,0.0177044,0.0,0.0
2065,516,51.4189,54.3321,146.448,101.025,100.77,0.00327294,0.171651,20.8015,68.5844,0.0229405,0.0,0.0
2072,517.75,51.4548,54.2168,146.796,101.048,100.918,0.00334775,0.167324,20.8053,68.5644,0.0116565,0.0,0.0
2079,519.5,51.2062,54.0561,146.791,101.054,100.817,0.00347959,0.16439,20.8102,68.5244,0.0212353,0.0,0.0
2086,521.25,50.1953,53.7577,149.253,101.05,100.931,0.00370135,0.162181,20.8142,68.4843,0.0106514,0.0,0.0
2093,523,51.0805,53.2206,145.988,101.063,100.957,0.00388938,0.160514,20.8172,68.4743,0.00948433,0.0,0.0
2100,524.75,50.3505,53.2707,147.689,101.052,101.059,0.00410448,0.158681,20.819,68.4443,-0.00059931,0.0,0.0
2107,526.5,50.2782,53.1211,150.526,101.063,100.991,0.00430707,0.156532,20.8198,68.4243,0.00646139,0.0,0.0
2114,528.25,50.4999,52.8413,148.007,101.061,101.005,0.00444076,0.15468,20.8224,68.3642,0.00505422,0.0,0.0
2121,530,49.7731,52.3279,149.446,101.05,101.011,0.00453151,0.153325,20.8248,68.3142,0.00353782,0.0,0.0
2128,531.75,49.5624,52.772,150.323,101.054,100.892,0.00473035,0.151585,20.8261,68.3042,0.0144988,0.0,0.0
2135,533.5,49.6927,52.2732,149.833,101.071,101.043,0.00492777,0.149658,20.8279,68.2541,0.00252422,0.0,0.0
2142,535.25,49.1227,52.1746,146.689,101.067,101.06,0.00514517,0.148283,20.829,68.2241,0.000633822,0.0,0.0
2149,537,49.1414,51.8818,152.168,101.066,100.936,0.00547415,0.147361,20.8305,68.1941,0.0116479,0.0,0.0
2156,538.75,49.0629,51.6697,147.84,101.05,101.042,0.0056673,0.146452,20.8328,68.2341,0.000708322,0.0,0.0
2163,540.5,48.9138,51.454,150.072,101.069,100.986,0.00567881,0.144978,20.8345,68.1841,0.00742815,0.0,0.0
2170,542.25,48.3034,51.3128,149.852,101.074,101.121,0.00556602,0.143641,20.8362,68.174,-0.00421167,0.0,0.0
2177,544,48.2552,51.3629,153.419,101.082,100.988,0.00551,0.143251,20.838,68.094,0.00840236,0.0,0.0
2184,545.75,48.3754,51.3376,146.846,101.062,100.925,0.00563602,0.143287,20.8394,68.084,0.0122421,0.0,0.0
2191,547.5,48.4436,51.0044,148.233,101.065,100.996,0.00602864,0.143195,20.8401,68.0539,0.00618299,0.0,0.0
2198,549.25,48.2789,50.9234,147.349,101.078,101.078,0.00633638,0.143031,20.8404,68.0039,-2.48355e-05,0.0,0.0
2205,551,48.2593,50.9692,152.79,101.074,101.087,0.00644401,0.143484,20.8406,67.9939,-0.00115384,0.0,0.0
2212,552.75,47.9133,50.2896,145.964,101.069,101.006,0.00642751,0.145255,20.8407,67.9839,0.00566719,0.0,0.0
2219,554.5,47.9598,50.5233,150.049,101.067,100.945,0.00642126,0.147211,20.8391,67.9438,0.0109922,0.0,0.0
2226,556.25,47.7705,50.0994,146.146,101.076,101.041,0.00650134,0.148171,20.8372,67.8738,0.00307907,0.0,0.0
2233,558,47.6843,50.0447,150.281,101.079,101.058,0.00659397,0.148099,20.8354,67.8938,0.00191645,0.0,0.0
2240,559.75,47.7671,50.2002,146.118,101.078,100.944,0.00667083,0.147359,20.8346,67.8537,0.0120135,0.0,0.0
2247,561.5,47.6822,50.0293,150.21,101.068,101.024,0.00675091,0.146858,20.8347,67.8037,0.00395337,0.0,0.0
2254,563.25,47.6678,49.7651,149.133,101.08,100.935,0.00681223,0.147259,20.8357,67.7637,0.0130012,0.0,0.0
2261,565,47.2961,49.9221,148.146,101.101,101.058,0.00688996,0.148244,20.8362,67.7436,0.00384652,0.0,0.0
2268,566.75,47.7134,49.6246,150.413,101.087,100.971,0.00692449,0.149148,20.8365,67.7136,0.0104065,0.0,0.0
2275,568.5,47.4309,48.8798,151.613,101.082,101.034,0.00692163,0.149481,20.8349,67.6836,0.00430954,0.0,0.0
2282,570.25,47.2169,49.4309,145.983,101.082,100.892,0.00691745,0.14933,20.8341,67.6636,0.0170858,0.0,0.0
2289,572,47.251,49.2656,148.691,101.082,100.998,0.00693472,0.148697,20.8338,67.6235,0.00759646,0.0,0.0
2296,573.75,47.0489,49.1828,149.206,101.088,101.039,0.00694791,0.147554,20.8336,67.5935,0.00432465,0.0,0.0
2303,575.5,46.8872,49.1688,145.806,101.104,101.01,0.00693819,0.145499,20.8355,67.5835,0.00849298,0.0,0.0
2310,577.25,47.2837,48.8221,148.561,101.082,101.068,0.00691019,0.143939,20.8377,67.5535,0.00125248,0.0,0.0
2317,579,46.8545,48.6703,149.499,101.084,101.005,0.0069334,0.142399,20.8396,67.5334,0.00709476,0.0,0.0
2324,580.75,46.829,48.6167,147.788,101.093,100.95,0.00696907,0.141325,20.8406,67.5134,0.0128632,0.0,0.0
2331,582.5,46.9043,48.6769,150.048,101.094,101.05,0.00697956,0.140501,20.8414,67.4834,0.00395229,0.0,0.0
2338,584.25,46.7675,48.4153,147.521,101.083,100.957,0.0069465,0.140016,20.8423,67.4534,0.0112661,0.0,0.0
2345,586,46.7559,48.5169,149.004,101.083,101.052,0.0068943,0.140223,20.8427,67.4333,0.0027412,0.0,0.0
2352,587.75,46.5647,48.5537,143.423,101.095,101.126,0.006822,0.140338,20.844,67.3933,-0.00281116,0.0,0.0
2359,589.5,46.721,48.0591,149.955,101.097,101.021,0.0068206,0.140473,20.8443,67.3633,0.00680667,0.0,0.0
2366,591.25,45.8549,48.265,150.674,101.1,100.993,0.00689658,0.140666,20.8435,67.3333,0.00962132,0.0,0.0
2373,593,46.6948,48.3978,146.644,101.088,100.876,0.00692438,0.140476,20.8428,67.3132,0.0190471,0.0,0.0
2380,594.75,46.2464,47.8352,149.685,101.096,100.97,0.0068664,0.13988,20.8427,67.2832,0.0113589,0.0,0.0
2387,596.5,46.4043,47.6742,148.566,101.098,101.014,0.00675349,0.138984,20.8436,67.2832,0.00752741,0.0,0.0
2394,598.25,45.9727,48.3632,147.035,101.095,101.045,0.00664521,0.138045,20.8443,67.2632,0.00452108,0.0,0.0
2401,600,46.5198,47.7956,147.896,101.083,101.01,0.00663962,0.137184,20.8457,67.2232,0.0065639,0.0,0.0
2408,601.75,46.4763,47.8519,144.177,101.085,101.084,0.00668191,0.136505,20.8463,67.1931,5.83091e-05,0.0,0.0
2415,603.5,46.1196,47.4971,144.139,101.101,100.999,0.0067142,0.135877,20.8475,67.1631,0.00915749,0.0,0.0
2422,605.25,46.2586,48.0008,154.927,101.093,100.961,0.00670596,0.135456,20.8486,67.1431,0.0118345,0.0,0.0
2429,607,46.1794,47.7371,149.846,101.085,101.016,0.00671593,0.135444,20.8501,67.1231,0.0061722,0.0,0.0
2436,608.75,46.207,47.1389,149.972,101.077,100.978,0.00672096,0.135625,20.8508,67.083,0.00884573,0.0,0.0
2443,610.5,45.9796,47.3036,148.956,101.09,101.019,0.00668304,0.135511,20.8511,67.063,0.00630277,0.0,0.0
2450,612.25,45.5784,47.1979,147.659,101.095,101.008,0.00670634,0.134862,20.8521,67.033,0.00780792,0.0,0.0
2457,614,45.6684,46.8644,149.225,101.105,101,0.00675191,0.134038,20.853,66.9929,0.00936999,0.0,0.0
2464,615.75,45.7137,46.9858,150.191,101.115,101.007,0.00669639,0.133191,20.8537,66.9729,0.00966986,0.0,0.0
2471,617.5,45.5733,47.0557,148.502,101.113,101.068,0.0065819,0.132814,20.855,66.9529,0.00402353,0.0,0.0
2478,619.25,45.5027,46.6379,150.503,101.123,101.087,0.00655185,0.132855,20.8557,66.9229,0.003214,0.0,0.0
2485,621,45.2795,46.9934,146.938,101.128,101.101,0.00660196,0.132729,20.8564,66.9028,0.00239037,0.0,0.0
2492,622.75,45.4722,46.9592,150.252,101.125,101.091,0.00666714,0.132403,20.8567,66.8828,0.00305209,0.0,0.0
2499,624.5,45.2889,46.2513,150.929,101.135,101.092,0.00671481,0.132109,20.8569,66.8728,0.00380874,0.0,0.0
2506,626.25,44.7421,46.5969,151.908,101.136,101.034,0.00682148,0.131986,20.8574,66.8328,0.00914994,0.0,0.0
2513,628,45.0536,46.3353,153.683,101.132,101.002,0.0069706,0.131815,20.8585,66.8128,0.0116932,0.0,0.0
2520,629.75,45.1064,46.57,146.05,101.127,101.113,0.00709327,0.131797,20.8589,66.7927,0.00128379,0.0,0.0
2527,631.5,45.1898,46.4744,148.483,101.119,100.887,0.00701675,0.13165,20.8587,66.7627,0.0207441,0.0,0.0
2534,633.25,44.9434,46.258,150.471,101.129,101.04,0.00683331,0.131501,20.8577,66.7327,0.0079622,0.0,0.0
2541,635,45.0524,46.2119,153.359,101.116,101.011,0.00668619,0.130942,20.858,66.7027,0.00939696,0.0,0.0
2548,636.75,45.0154,46.2762,153.379,101.099,101.042,0.00662415,0.130492,20.8582,66.6826,0.00511466,0.0,0.0
2555,638.5,44.9118,46.2295,149.149,101.081,100.964,0.00656199,0.13047,20.8583,66.6626,0.0105468,0.0,0.0
2562,640.25,44.9846,46.2381,151.553,101.077,100.992,0.00652459,0.130844,20.8583,66.6326,0.00765903,0.0,0.0
2569,642,44.6274,45.8157,151.994,101.075,101.032,0.00657358,0.130792,20.8583,66.6126,0.0038476,0.0,0.0
2576,643.75,44.9921,45.9324,148.855,101.063,100.971,0.00663972,0.130266,20.8584,66.5625,0.00818336,0.0,0.0
2583,645.5,45.0615,46.0299,152.045,101.052,100.832,0.00667954,0.129701,20.8584,66.5425,0.0197485,0.0,0.0
2590,647.25,44.7043,45.7925,147.501,101.022,100.903,0.00675634,0.129474,20.8584,66.5425,0.0106255,0.0,0.0
2597,649,44.4162,45.8582,151.384,101.013,100.87,0.00684271,0.12937,20.8584,66.5025,0.0128103,0.0,0.0
2604,650.75,44.4959,45.8335,152.213,100.993,100.828,0.00688626,0.129002,20.8584,66.4825,0.014778,0.0,0.0
2611,652.5,44.5642,45.7316,150.565,100.964,100.777,0.00685689,0.128713,20.8592,66.4624,0.0168228,0.0,0.0
2618,654.25,44.3595,45.8317,152.045,100.936,100.836,0.00679072,0.128552,20.8592,66.4424,0.00898489,0.0,0.0
2625,656,44.6207,46.2269,152.22,100.911,100.714,0.0067508,0.128347,20.8592,66.4424,0.0177561,0.0,0.0
2632,657.75,44.1142,45.3942,150.349,100.9,100.771,0.00669728,0.128092,20.8592,66.4224,0.0115239,0.0,0.0
2639,659.5,44.2667,45.5018,149.099,100.866,100.773,0.0067143,0.127838,20.8592,66.3924,0.0083441,0.0,0.0
2646,661.25,44.213,45.2839,148.619,100.834,100.68,0.00674271,0.127717,20.8592,66.3623,0.0138929,0.0,0.0
2653,663,44.6389,45.1661,153.614,100.805,100.571,0.00675845,0.12788,20.8603,66.3523,0.02105,0.0,0.0
2660,664.75,44.317,45.2386,149.966,100.778,100.598,0.00674666,0.127891,20.861,66.3123,0.0161858,0.0,0.0
2667,666.5,44.3531,45.5911,152.284,100.75,100.684,0.00669137,0.127441,20.8613,66.2923,0.00591538,0.0,0.0
2674,668.25,44.0617,45.1762,148.779,100.701,100.502,0.00665867,0.126977,20.8614,66.2522,0.0179199,0.0,0.0
2681,670,44.045,45.3879,146.823,100.65,100.559,0.00665338,0.126689,20.8628,66.2422,0.00816934,0.0,0.0
2688,671.75,44.8656,45.5808,151.095,100.609,100.432,0.00668012,0.126367,20.8634,66.2122,0.0158883,0.0,0.0
2695,673.5,43.8367,45.0724,153.704,100.579,100.316,0.00672544,0.126282,20.8637,66.1922,0.0237579,0.0,0.0
2702,675.25,44.2771,45.2644,146.894,100.523,100.358,0.00674274,0.126455,20.8634,66.1722,0.0148966,0.0,0.0
2709,677,44.6702,45.1586,147.673,100.462,100.266,0.0067361,0.126449,20.8629,66.1521,0.0176828,0.0,0.0
2716,678.75,44.1898,45.1428,148.852,100.41,100.177,0.00680073,0.126404,20.8627,66.1121,0.0210823,0.0,0.0
2723,680.5,43.7949,44.6601,148.301,100.362,100.235,0.00686281,0.126465,20.8636,66.0921,0.0114408,0.0,0.0
2730,682.25,44.3284,44.6915,154.221,100.296,100.096,0.00688351,0.126745,20.8643,66.0721,0.0180665,0.0,0.0
2737,684,43.7288,45.3691,150.63,100.232,100.184,0.00684256,0.126796,20.8647,66.052,0.00432357,0.0,0.0
2744,685.75,44.3064,45.4727,151.12,100.163,100.002,0.00673729,0.126273,20.8648,66.032,0.0145537,0.0,0.0
2751,687.5,42.3202,43.0299,149.389,100.116,99.9763,0.0066253,0.125731,20.8649,66.022,0.0126087,0.0,0.0
2758,689.25,42.4253,43.3456,147.837,100.073,99.9145,0.00663181,0.125601,20.8649,66.002,0.01435,0.0,0.0
2765,691,42.1459,43.3533,148.85,100.014,99.8659,0.00672161,0.12527,20.865,65.982,0.0134594,0.0,0.0
2772,692.75,42.5748,43.4383,150.687,99.9673,99.7312,0.00681617,0.125118,20.865,65.982,0.0214174,0.0,0.0
2779,694.5,42.4186,43.0925,154.776,99.908,99.6703,0.00691485,0.125424,20.8664,66.002,0.02158,0.0,0.0
2786,696.25,42.2223,43.1473,150.209,99.8771,99.7598,0.00697215,0.12605,20.8664,65.962,0.0106481,0.0,0.0
2793,698,42.5508,43.2829,148.823,99.8247,99.6852,0.00703835,0.12631,20.8661,65.9019,0.0126702,0.0,0.0
2800,699.75,42.1197,43.324,150.658,99.7593,99.6221,0.00713501,0.126255,20.8658,65.8519,0.0124685,0.0,0.0
2807,701.5,42.2158,42.8717,146.229,99.7159,99.5501,0.00731954,0.126019,20.8654,65.8218,0.0150734,0.0,0.0
2814,703.25,42.2235,43.3469,149.251,99.6736,99.5582,0.00743613,0.125846,20.8656,65.8419,0.0104971,0.0,0.0
2821,705,42.2677,43.1148,152.43,99.6472,99.4708,0.00743756,0.125706,20.8657,65.8218,0.0160511,0.0,0.0
2828,706.75,42.1933,43.0554,149.029,99.6208,99.4989,0.00736003,0.125677,20.8653,65.8118,0.0110893,0.0,0.0
2835,708.5,42.0342,43.0712,150.354,99.5944,99.4801,0.00724742,0.125561,20.8651,65.7718,0.0103958,0.0,0.0
2842,710.25,42.2696,42.8852,150.362,99.5924,99.487,0.00722127,0.125476,20.865,65.7518,0.00959004,0.0,0.0
2849,712,42.1084,43.2992,149.78,99.5879,99.5415,0.00719501,0.125181,20.8652,65.7418,0.00421672,0.0,0.0
2856,713.75,41.8594,43.0578,149.231,99.5777,99.4452,0.00713259,0.124909,20.8663,65.7217,0.0120641,0.0,0.0
2863,715.5,42.3435,42.971,151.928,99.5412,99.4247,0.00713598,0.125169,20.8665,65.6917,0.0106018,0.0,0.0
2870,717.25,41.8743,42.7023,148.863,99.5245,99.377,0.00725623,0.125408,20.8665,65.6917,0.0134368,0.0,0.0
2877,719,42.3316,42.4751,154.094,99.5286,99.3638,0.00742458,0.125343,20.8654,65.6216,0.0150108,0.0,0.0
2884,720.75,42.3325,43.0317,148.971,99.5079,99.4038,0.00750942,0.125561,20.8647,65.6016,0.00947247,0.0,0.0
2891,722.5,42.4091,42.572,150.672,99.4985,99.3177,0.00747539,0.126182,20.8648,65.6317,0.0164725,0.0,0.0
2898,724.25,42.1961,42.637,148.897,99.4754,99.2542,0.00734592,0.126801,20.8665,65.5916,0.020159,0.0,0.0
2905,726,42.2076,42.8695,150.51,99.4806,99.2679,0.00720967,0.127355,20.8666,65.5916,0.0193951,0.0,0.0
2912,727.75,41.9505,42.5827,153.62,99.4786,99.2478,0.00711843,0.127505,20.8666,65.5516,0.0210392,0.0,0.0
2919,729.5,41.8929,43.0031,147.395,99.481,99.2124,0.00711314,0.127483,20.8665,65.5316,0.0244902,0.0,0.0
2926,731.25,41.9844,42.8676,149.961,99.4802,99.1395,0.00725711,0.127195,20.8665,65.5115,0.0310741,0.0,0.0
2933,733,41.8792,42.0691,150.778,99.4762,99.2568,0.00741697,0.126603,20.8671,65.5216,0.0199996,0.0,0.0
2940,734.75,41.723,42.155,149.456,99.5091,99.3079,0.00751792,0.125764,20.868,65.5316,0.0183284,0.0,0.0
2947,736.5,41.8864,42.444,146.363,99.5156,99.2461,0.00751,0.124603,20.8684,65.5216,0.0245592,0.0,0.0
2954,738.25,42.2393,42.16,153.433,99.518,99.2542,0.0072978,0.123291,20.869,65.5115,0.0240422,0.0,0.0
2961,740,41.8879,42.3902,151.995,99.5123,99.2333,0.00704754,0.122008,20.8703,65.4415,0.0254303,0.0,0.0
2968,741.75,41.5177,42.1801,147.454,99.5265,99.3578,0.00689413,0.121791,20.8715,65.4715,0.0153698,0.0,0.0
2975,743.5,41.6513,42.6886,150.139,99.5497,99.3148,0.00704974,0.123502,20.8722,65.4415,0.0214034,0.0,0.0
2982,745.25,41.6459,42.362,150.591,99.555,99.2551,0.00737457,0.124659,20.8715,65.4415,0.0273285,0.0,0.0
2989,747,41.7811,42.0905,152.137,99.5611,99.2039,0.00777936,0.12497,20.8689,65.4415,0.0325525,0.0,0.0
2996,748.75,41.3858,42.3726,151.018,99.5802,99.2802,0.00801544,0.124762,20.8677,65.4114,0.0273242,0.0,0.0
3003,750.5,41.5166,42.2567,152.316,99.6025,99.3203,0.00804038,0.124286,20.8677,65.3914,0.0257017,0.0,0.0
3010,752.25,41.4778,42.1327,149.976,99.6184,99.354,0.00791856,0.123549,20.8683,65.3814,0.0240724,0.0,0.0
3017,754,41.6264,42.0689,154.254,99.6334,99.2841,0.00776332,0.12268,20.8696,65.3414,0.0318144,0.0,0.0
3024,755.75,41.0553,42.4264,150.322,99.6228,99.406,0.00762506,0.121912,20.8704,65.2313,0.0197378,0.0,0.0
3031,757.5,41.7715,42.3187,151.152,99.6598,99.3638,0.00758452,0.12181,20.8708,65.2313,0.0269452,0.0,0.0
3038,759.25,41.0102,41.8897,152.986,99.6886,99.3501,0.00757476,0.121942,20.871,65.2313,0.0308094,0.0,0.0
3045,761,41.3901,41.6802,152.619,99.7016,99.4558,0.00755731,0.122002,20.8711,65.2213,0.0223567,0.0,0.0
3052,762.75,41.3165,41.9864,148.882,99.7,99.4175,0.00754362,0.121726,20.8712,65.2313,0.0257049,0.0,0.0
3059,764.5,40.7963,41.7327,152.751,99.7069,99.4094,0.00755236,0.120924,20.8712,65.1812,0.0270701,0.0,0.0
3066,766.25,41.1394,41.7781,149.044,99.7329,99.4972,0.00753819,0.120113,20.8718,65.1812,0.0214335,0.0,0.0
3073,768,41.2658,41.7489,150.19,99.7244,99.4315,0.00748023,0.119699,20.8728,65.1812,0.0266373,0.0,0.0
3080,769.75,41.2914,42.0913,148.701,99.7264,99.3672,0.00741338,0.119755,20.8733,65.1012,0.032687,0.0,0.0
3087,771.5,41.1456,42.155,147.99,99.7479,99.5347,0.0074538,0.120124,20.8735,65.0911,0.0193844,0.0,0.0
3094,773.25,40.5831,41.7021,150.914,99.7735,99.5454,0.00753117,0.120344,20.8736,65.0711,0.0207387,0.0,0.0
3101,775,41.4375,41.4465,148.017,99.7532,99.5036,0.00753307,0.119729,20.8737,65.0511,0.022696,0.0,0.0
3108,776.75,41.0776,42.0003,149.696,99.7366,99.4111,0.00743734,0.118886,20.874,65.0311,0.0296083,0.0,0.0
3115,778.5,41.0233,41.4048,149.704,99.7211,99.5428,0.00739583,0.11827,20.8751,65.0411,0.0162117,0.0,0.0
3122,780.25,41.0264,41.4274,151.513,99.7309,99.4341,0.007473,0.117776,20.8756,65.0211,0.0269947,0.0,0.0
3129,782,40.9966,41.5591,152.867,99.7341,99.3633,0.00758504,0.117963,20.8759,64.971,0.0337381,0.0,0.0
3136,783.75,40.7279,41.9649,149.415,99.7171,99.3864,0.00780939,0.118709,20.876,65.0411,0.0300905,0.0,0.0
3143,785.5,41.2112,41.5029,148.289,99.7004,99.3889,0.00803199,0.119022,20.876,64.971,0.0283447,0.0,0.0
3150,787.25,41.1265,41.5932,150.797,99.7081,99.5339,0.00811828,0.11884,20.8761,64.901,0.0158452,0.0,0.0
3157,789,40.6228,41.5564,154.491,99.7171,99.429,0.00808268,0.118499,20.8761,64.891,0.0262066,0.0,0.0
3164,790.75,40.9879,41.7298,151.606,99.702,99.3633,0.00803963,0.118279,20.8757,64.881,0.0308233,0.0,0.0
3171,792.5,40.7293,41.8243,146.954,99.6862,99.4111,0.00801348,0.118064,20.8751,64.8509,0.0250319,0.0,0.0
3178,794.25,40.8531,41.809,151.497,99.6553,99.3122,0.00797272,0.11796,20.8742,64.8209,0.031242,0.0,0.0
3185,796,40.6494,41.5337,149.251,99.6504,99.3143,0.00794189,0.117718,20.8738,64.8409,0.0306049,0.0,0.0
3192,797.75,40.5691,41.5148,150.627,99.6419,99.2436,0.00793599,0.11767,20.8747,64.8209,0.0362852,0.0,0.0
3199,799.5,40.3251,41.6793,152.763,99.6224,99.383,0.00796673,0.1179,20.8752,64.8109,0.0217987,0.0,0.0
3206,801.25,40.8772,41.3111,152.896,99.6041,99.3476,0.00798183,0.117856,20.8753,64.8009,0.0233616,0.0,0.0
3213,803,40.7642,41.3253,152.38,99.6017,99.2696,0.0078909,0.117475,20.8744,64.7709,0.0302551,0.0,0.0
3220,804.75,40.7112,41.1721,150.54,99.6029,99.3723,0.00772977,0.117186,20.8739,64.7008,0.0209961,0.0,0.0
3226,806.25,40.7001,41.7039,150.913,99.583,99.2572,0.00758339,0.116926,20.8747,64.6607,0.0296837,0.0,0.0