File: 01_Data/Homasote/Cone/Homasote_HRRPUA_25.csv
Time after Ignition,Homasote_R1,Homasote_R2,Homasote_R3,Homasote_R4,Mean,Std. Dev.
0.0,4.6,0.0,12.7,-2.6,3.7,6.7
0.75,4.6,-0.1,11.6,-2.2,3.5,6.1
1.5,4.6,-0.2,10.9,-1.8,3.4,5.7
2.25,5.0,-0.3,9.9,-1.3,3.3,5.2
3.0,5.6,-0.4,9.5,-0.9,3.5,5.0
3.75,6.0,-0.4,9.0,-0.7,3.5,4.8
4.5,6.3,-0.5,9.1,-0.5,3.6,4.8
5.25,6.6,-0.2,9.1,0.1,3.9,4.7
6.0,6.8,-0.0,9.3,0.7,4.2,4.6
6.75,7.2,0.2,9.8,1.5,4.7,4.6
7.5,7.7,0.3,10.5,2.3,5.2,4.7
8.25,7.2,0.5,10.7,3.3,5.4,4.5
9.0,7.0,0.9,11.1,4.0,5.7,4.4
9.75,6.9,1.8,11.4,5.4,6.4,3.9
10.5,8.3,4.0,14.5,7.2,8.5,4.4
11.25,19.0,8.1,22.8,13.7,15.9,6.4
12.0,31.0,17.6,32.8,18.0,24.9,8.2
12.75,50.1,31.3,54.1,31.8,41.8,12.0
13.5,69.5,48.3,76.6,49.9,61.1,14.2
14.25,84.7,68.9,95.6,70.6,79.9,12.6
15.0,101.8,87.7,114.9,93.5,99.5,11.8
15.75,115.6,101.2,129.0,110.4,114.1,11.6
16.5,127.6,117.5,146.6,123.7,128.8,12.6
17.25,140.8,125.5,157.7,138.6,140.7,13.2
18.0,148.7,134.4,164.3,150.5,149.5,12.3
18.75,158.1,142.2,169.9,155.4,156.4,11.4
19.5,162.3,150.0,174.2,164.0,162.6,9.9
20.25,169.5,157.4,176.5,164.6,167.0,8.0
21.0,170.9,158.5,178.4,172.0,170.0,8.3
21.75,172.0,162.0,179.1,173.9,171.7,7.2
22.5,172.2,161.7,182.3,177.2,173.3,8.8
23.25,177.6,162.9,183.9,174.2,174.7,8.8
24.0,174.9,166.1,182.7,174.1,174.5,6.8
24.75,177.8,166.2,178.4,175.2,174.4,5.6
25.5,174.1,167.4,176.5,176.3,173.6,4.3
26.25,172.1,168.4,174.7,169.7,171.2,2.8
27.0,171.8,168.8,168.6,170.2,169.9,1.5
27.75,169.0,170.5,166.2,168.5,168.6,1.7
28.5,168.2,168.0,164.7,165.7,166.6,1.7
29.25,166.3,169.2,158.6,163.3,164.3,4.5
30.0,165.6,170.9,156.4,160.6,163.4,6.3
30.75,164.4,167.4,156.7,159.3,162.0,4.8
31.5,162.5,166.2,154.4,155.2,159.6,5.7
32.25,161.8,170.6,150.3,155.0,159.4,8.8
33.0,163.2,164.9,150.4,152.7,157.8,7.3
33.75,157.8,165.9,145.6,154.3,155.9,8.4
34.5,159.8,164.0,144.5,149.9,154.6,8.9
35.25,157.4,165.1,141.4,148.0,153.0,10.4
36.0,156.0,161.4,139.7,147.8,151.2,9.5
36.75,155.0,158.8,139.1,143.8,149.2,9.3
37.5,150.8,161.8,138.2,143.4,148.5,10.2
38.25,150.9,155.0,139.2,142.8,147.0,7.3
39.0,147.1,154.8,135.3,142.3,144.9,8.2
39.75,151.1,152.3,135.7,139.8,144.7,8.2
40.5,147.8,152.0,132.1,139.5,142.9,8.8
41.25,144.8,151.3,130.5,136.7,140.8,9.1
42.0,145.9,148.2,130.3,135.7,140.0,8.5
42.75,142.6,148.0,127.8,136.4,138.7,8.7
43.5,144.1,145.7,128.4,133.9,138.0,8.3
44.25,143.7,145.8,125.4,132.2,136.8,9.7
45.0,142.6,142.0,125.4,131.3,135.3,8.4
45.75,140.1,143.8,122.6,132.3,134.7,9.4
46.5,136.5,142.4,121.7,131.5,133.0,8.8
47.25,134.5,138.8,123.4,128.9,131.4,6.7
48.0,132.0,141.5,122.7,128.5,131.2,7.9
48.75,133.9,136.9,122.5,127.2,130.1,6.5
49.5,130.3,136.2,120.0,125.3,127.9,6.9
50.25,129.3,132.9,119.8,124.4,126.6,5.7
51.0,128.7,132.3,117.9,123.0,125.5,6.4
51.75,127.8,131.9,117.4,121.4,124.6,6.5
52.5,127.0,126.8,115.3,121.2,122.6,5.5
53.25,123.7,131.2,113.8,122.0,122.7,7.1
54.0,122.9,127.7,113.3,121.7,121.4,6.0
54.75,121.8,128.6,113.6,119.3,120.9,6.2
55.5,122.3,126.2,112.2,119.1,120.0,5.9
56.25,121.1,125.8,111.9,119.0,119.5,5.8
57.0,122.6,123.9,111.9,116.2,118.6,5.6
57.75,119.7,123.4,110.6,118.2,118.0,5.4
58.5,116.2,123.8,110.1,116.0,116.5,5.7
59.25,115.9,123.3,110.5,117.4,116.8,5.3
60.0,116.9,123.2,110.0,114.8,116.2,5.5
60.75,115.2,123.6,108.4,115.5,115.7,6.2
61.5,115.8,120.9,109.8,115.3,115.4,4.5
62.25,114.2,120.1,106.2,117.1,114.4,6.0
63.0,112.0,119.0,105.7,115.5,113.0,5.7
63.75,113.1,117.5,106.2,116.6,113.4,5.2
64.5,112.4,118.4,106.3,116.9,113.5,5.4
65.25,112.4,118.1,105.4,115.9,112.9,5.6
66.0,110.0,117.5,104.4,117.6,112.4,6.4
66.75,109.9,115.5,103.2,118.2,111.7,6.7
67.5,109.7,115.0,103.3,118.0,111.5,6.5
68.25,109.2,113.7,103.4,117.1,110.9,5.9
69.0,109.4,112.5,101.0,119.1,110.5,7.5
69.75,107.8,113.8,100.4,117.3,109.8,7.4
70.5,108.0,113.4,99.1,115.8,109.1,7.4
71.25,108.3,112.1,99.5,116.0,109.0,7.1
72.0,106.6,110.2,99.2,114.0,107.5,6.3
72.75,107.3,110.1,97.1,114.2,107.2,7.3
73.5,107.3,112.4,98.0,112.1,107.4,6.7
74.25,105.5,110.4,95.7,111.2,105.7,7.1
75.0,105.0,110.2,95.1,109.7,105.0,7.0
75.75,106.1,109.7,94.6,111.2,105.4,7.5
76.5,104.4,109.0,94.2,108.0,103.9,6.7
77.25,104.5,108.9,92.8,107.8,103.5,7.3
78.0,104.3,107.9,92.8,105.6,102.7,6.7
78.75,103.4,109.5,93.6,106.0,103.1,6.8
79.5,103.9,110.1,94.1,104.8,103.2,6.7
80.25,102.5,105.5,92.1,101.5,100.4,5.8
81.0,101.8,106.6,89.6,102.7,100.2,7.4
81.75,101.8,106.9,91.9,101.2,100.4,6.3
82.5,100.7,105.1,90.9,101.4,99.5,6.1
83.25,102.4,104.3,91.3,99.3,99.3,5.7
84.0,99.5,105.0,90.0,98.2,98.2,6.2
84.75,100.8,103.5,90.6,97.1,98.0,5.5
85.5,98.6,102.8,88.9,95.1,96.3,5.9
86.25,100.6,102.9,89.4,95.0,96.9,6.0
87.0,98.7,101.9,87.1,95.2,95.7,6.4
87.75,98.7,100.8,86.3,93.0,94.7,6.5
88.5,98.2,100.4,86.8,91.4,94.2,6.2
89.25,98.1,100.8,86.3,91.1,94.1,6.6
90.0,97.2,100.4,86.5,91.3,93.9,6.2
90.75,97.2,98.6,85.1,89.3,92.6,6.5
91.5,96.1,98.7,86.0,90.5,92.8,5.7
92.25,97.9,98.1,83.9,88.2,92.0,7.1
93.0,96.9,98.2,85.5,88.8,92.3,6.2
93.75,95.8,96.6,86.9,85.4,91.2,5.8
94.5,96.5,99.6,85.4,85.9,91.8,7.3
95.25,94.8,99.0,85.0,84.2,90.8,7.3
96.0,96.1,97.8,83.9,85.7,90.9,7.1
96.75,95.6,98.4,86.1,84.4,91.1,6.9
97.5,94.9,97.7,84.1,83.5,90.0,7.3
98.25,95.1,97.0,83.8,84.4,90.1,7.0
99.0,96.2,95.1,83.2,84.9,89.9,6.7
99.75,95.0,95.8,82.7,83.1,89.2,7.2
100.5,94.9,94.9,82.8,82.4,88.8,7.1
101.25,94.0,95.1,81.5,82.9,88.4,7.2
102.0,94.5,94.7,80.8,81.9,88.0,7.7
102.75,94.1,93.5,82.1,83.5,88.3,6.4
103.5,93.0,93.2,80.2,81.9,87.1,7.0
104.25,92.1,92.1,80.9,81.4,86.6,6.3
105.0,92.1,91.9,79.9,83.6,86.9,6.1
105.75,90.8,91.2,79.5,82.0,85.9,6.0
106.5,89.4,90.2,80.1,79.5,84.8,5.8
107.25,89.2,89.3,79.8,81.0,84.8,5.1
108.0,89.1,88.9,79.3,81.2,84.6,5.1
108.75,88.3,88.7,80.2,80.4,84.4,4.7
109.5,85.5,87.7,79.3,79.9,83.1,4.1
110.25,86.7,88.0,80.0,80.9,83.9,4.1
111.0,84.9,87.8,77.9,80.8,82.8,4.4
111.75,83.7,86.3,77.5,80.7,82.0,3.8
112.5,84.2,86.7,77.6,80.7,82.3,4.0
113.25,82.5,86.8,77.1,79.8,81.5,4.1
114.0,82.2,84.1,77.9,79.9,81.0,2.7
114.75,81.3,84.9,76.7,80.7,80.9,3.3
115.5,81.0,84.7,77.5,79.2,80.6,3.1
116.25,80.3,83.6,75.9,79.1,79.7,3.2
117.0,80.0,83.0,75.8,81.2,80.0,3.1
117.75,81.7,82.8,75.4,79.5,79.8,3.3
118.5,79.4,81.7,75.3,79.3,78.9,2.7
119.25,78.2,82.0,74.6,80.1,78.7,3.2
120.0,78.3,81.3,74.8,80.3,78.6,2.9
120.75,78.7,80.3,74.8,79.5,78.3,2.4
121.5,77.7,79.4,75.0,79.0,77.8,2.0
122.25,77.9,79.3,74.7,78.1,77.5,1.9
123.0,78.3,80.6,73.8,77.4,77.5,2.8
123.75,78.8,78.2,73.3,76.1,76.6,2.5
124.5,77.5,78.3,73.2,77.9,76.7,2.4
125.25,77.2,78.6,73.0,75.5,76.1,2.4
126.0,76.1,78.6,73.4,75.1,75.8,2.2
126.75,75.5,76.8,72.6,74.7,74.9,1.7
127.5,75.6,78.3,73.9,74.8,75.7,1.9
128.25,75.8,77.7,73.1,73.5,75.0,2.1
129.0,75.8,76.1,72.6,74.3,74.7,1.6
129.75,74.5,76.9,72.6,73.2,74.3,1.9
130.5,74.7,75.0,71.6,72.4,73.4,1.7
131.25,73.6,74.6,72.2,72.2,73.1,1.2
132.0,74.3,75.4,71.4,71.4,73.1,2.0
132.75,72.8,74.6,71.2,71.4,72.5,1.6
133.5,73.1,74.5,70.1,70.3,72.0,2.1
134.25,73.7,76.0,70.5,71.0,72.8,2.5
135.0,73.0,75.3,69.4,68.9,71.7,3.1
135.75,73.4,73.3,69.1,68.4,71.0,2.7
136.5,72.5,73.5,68.3,68.1,70.6,2.8
137.25,73.5,72.4,68.7,67.5,70.5,2.9
138.0,73.8,72.6,69.3,67.2,70.7,3.0
138.75,74.4,71.8,66.9,66.4,69.9,3.9
139.5,74.4,72.6,67.8,66.3,70.3,3.8
140.25,73.4,71.9,67.7,64.7,69.4,4.0
141.0,73.9,72.2,67.0,65.2,69.6,4.1
141.75,72.7,71.4,66.1,65.8,69.0,3.5
142.5,72.0,71.4,65.7,67.0,69.0,3.1
143.25,72.0,71.8,65.7,66.4,68.9,3.4
144.0,72.3,70.8,64.5,66.9,68.6,3.5
144.75,72.5,70.9,63.9,67.5,68.7,3.8
145.5,72.4,70.5,63.4,67.0,68.4,4.0
146.25,71.6,70.5,62.7,68.0,68.2,3.9
147.0,71.9,70.6,61.9,65.9,67.6,4.6
147.75,69.9,70.7,61.6,66.2,67.1,4.2
148.5,69.5,68.6,61.8,65.7,66.4,3.5
149.25,70.8,68.5,59.9,65.0,66.1,4.7
150.0,70.1,68.4,59.3,62.8,65.1,5.0
150.75,68.7,69.3,58.3,62.1,64.6,5.3
151.5,70.1,68.3,57.8,59.5,63.9,6.2
152.25,68.1,68.9,56.9,58.3,63.0,6.3
153.0,66.7,68.3,56.9,56.9,62.2,6.1
153.75,67.6,67.8,56.7,54.7,61.7,7.0
154.5,67.9,67.9,56.6,51.7,61.0,8.2
155.25,67.3,67.5,55.6,49.7,60.0,8.9
156.0,67.5,67.2,55.5,48.2,59.6,9.4
156.75,68.4,69.0,55.7,47.3,60.1,10.5
157.5,68.0,68.5,56.0,46.0,59.6,10.8
158.25,67.3,66.4,55.4,45.2,58.6,10.4
159.0,67.5,67.0,53.8,43.9,58.1,11.4
159.75,67.7,66.6,53.4,43.6,57.8,11.5
160.5,67.9,67.3,52.7,42.3,57.6,12.4
161.25,66.7,66.9,53.4,40.9,57.0,12.4
162.0,67.0,66.9,52.1,39.8,56.5,13.1
162.75,66.4,66.4,51.4,38.5,55.7,13.5
163.5,66.9,67.0,50.6,37.3,55.5,14.3
164.25,66.3,67.0,49.7,36.6,54.9,14.6
165.0,67.2,65.9,48.5,35.5,54.3,15.1
165.75,67.8,66.0,48.0,35.2,54.2,15.5
166.5,66.5,65.7,48.1,35.4,53.9,15.0
167.25,67.6,65.4,47.8,35.3,54.0,15.3
168.0,68.0,66.0,46.9,34.8,53.9,15.9
168.75,66.4,65.9,46.6,34.7,53.4,15.5
169.5,67.3,66.3,,34.9,56.2,18.4
170.25,66.5,66.1,,35.0,55.9,18.0
171.0,67.4,65.6,,35.5,56.2,17.9
171.75,67.5,64.9,,35.9,56.1,17.6
172.5,66.9,65.5,,35.8,56.0,17.6
173.25,67.3,65.3,,36.1,56.2,17.5
174.0,66.0,63.6,,36.8,55.5,16.2
174.75,66.0,64.8,,36.5,55.8,16.7
175.5,66.2,64.9,,36.6,55.9,16.7
176.25,65.9,63.7,,37.0,55.5,16.1
177.0,64.4,62.9,,36.9,54.8,15.5
177.75,64.6,64.5,,36.7,55.3,16.1
178.5,64.1,63.1,,36.4,54.6,15.7
179.25,63.8,63.6,,36.2,54.5,15.8
180.0,64.1,63.5,,36.3,54.7,15.9
180.75,65.0,64.0,,36.1,55.0,16.4
181.5,63.6,62.4,,35.3,53.7,16.0
182.25,63.7,63.5,,35.3,54.2,16.3
183.0,63.0,63.5,,35.9,54.1,15.8
183.75,61.8,64.0,,36.3,54.0,15.4
184.5,62.0,62.5,,36.7,53.7,14.8
185.25,59.8,63.1,,37.2,53.3,14.1
186.0,60.6,62.2,,37.0,53.3,14.1
186.75,59.7,62.7,,37.3,53.2,13.8
187.5,59.2,62.4,,37.2,52.9,13.7
188.25,59.8,62.1,,37.3,53.1,13.7
189.0,59.1,61.8,,37.4,52.8,13.4
189.75,59.9,61.3,,37.3,52.8,13.5
190.5,61.2,61.5,,37.8,53.5,13.6
191.25,62.2,61.8,,36.5,53.5,14.7
192.0,62.8,62.7,,36.8,54.1,15.0
192.75,63.6,62.0,,36.5,54.0,15.2
193.5,63.9,62.2,,36.6,54.2,15.3
194.25,63.1,62.2,,36.3,53.9,15.2
195.0,62.7,62.5,,36.6,53.9,15.0
195.75,62.6,63.2,,36.0,53.9,15.5
196.5,62.5,63.1,,35.7,53.8,15.6
197.25,62.7,63.3,,35.6,53.8,15.8
198.0,62.4,62.4,,34.1,53.0,16.3
198.75,62.0,62.8,,34.3,53.1,16.2
199.5,62.5,63.4,,33.6,53.2,16.9
200.25,61.0,62.9,,33.4,52.5,16.5
201.0,60.9,63.1,,32.9,52.3,16.9
201.75,60.1,62.4,,32.6,51.7,16.6
202.5,59.4,62.8,,32.3,51.5,16.7
203.25,59.2,62.2,,31.9,51.1,16.7
204.0,57.7,60.1,,32.6,50.1,15.2
204.75,56.4,60.9,,32.8,50.0,15.1
205.5,56.4,59.7,,32.7,49.6,14.7
206.25,56.0,59.6,,32.4,49.3,14.8
207.0,56.4,59.0,,32.5,49.3,14.6
207.75,55.6,59.2,,32.3,49.0,14.6
208.5,56.0,60.5,,32.2,49.6,15.2
209.25,56.0,59.7,,31.8,49.2,15.1
210.0,57.1,59.0,,31.6,49.3,15.3
210.75,57.0,59.2,,31.4,49.2,15.5
211.5,58.5,58.6,,31.6,49.6,15.6
212.25,58.3,58.8,,31.7,49.6,15.5
213.0,58.4,59.6,,31.4,49.8,16.0
213.75,59.0,59.7,,31.3,50.0,16.2
214.5,59.5,59.3,,30.8,49.8,16.5
215.25,59.8,60.4,,31.2,50.5,16.7
216.0,60.1,60.2,,32.3,50.9,16.1
216.75,60.2,59.8,,31.9,50.6,16.3
217.5,60.1,61.8,,31.7,51.2,16.9
218.25,61.2,60.9,,32.2,51.4,16.7
219.0,59.7,61.2,,32.9,51.3,15.9
219.75,61.3,60.9,,32.7,51.7,16.4
220.5,61.5,62.0,,32.5,52.0,16.9
221.25,62.0,61.2,,32.6,51.9,16.8
222.0,62.2,61.6,,32.4,52.1,17.0
222.75,61.5,61.3,,32.2,51.7,16.8
223.5,62.2,61.3,,32.2,51.9,17.1
224.25,62.3,61.7,,32.1,52.0,17.2
225.0,61.7,61.8,,32.1,51.9,17.1
225.75,62.5,61.9,,32.2,52.2,17.3
226.5,61.4,63.0,,31.5,51.9,17.7
227.25,62.0,62.7,,31.7,52.1,17.7
228.0,62.2,62.7,,31.6,52.1,17.8
228.75,61.8,62.6,,31.6,52.0,17.7
229.5,62.7,62.8,,31.6,52.4,18.0
230.25,60.7,62.4,,31.6,51.6,17.3
231.0,61.4,61.0,,30.9,51.1,17.5
231.75,61.9,61.7,,30.5,51.4,18.1
232.5,61.4,62.3,,31.4,51.7,17.6
233.25,60.8,61.5,,31.0,51.1,17.4
234.0,61.4,61.3,,31.0,51.2,17.5
234.75,61.7,61.7,,31.0,51.5,17.7
235.5,61.7,62.2,,31.0,51.7,17.9
236.25,62.0,60.7,,31.3,51.4,17.4
237.0,62.9,60.5,,30.6,51.3,18.0
237.75,64.5,61.0,,30.9,52.2,18.5
238.5,64.2,61.0,,31.2,52.1,18.2
239.25,64.9,61.2,,31.4,52.5,18.3
240.0,65.6,60.1,,31.5,52.4,18.3
240.75,66.2,60.0,,31.7,52.6,18.4
241.5,66.4,60.0,,31.7,52.7,18.5
242.25,66.3,61.5,,31.7,53.2,18.7
243.0,66.9,60.7,,32.0,53.2,18.6
243.75,66.6,61.7,,32.0,53.4,18.7
244.5,67.5,61.9,,31.8,53.7,19.2
245.25,68.3,61.3,,32.0,53.9,19.3
246.0,67.3,61.1,,31.8,53.4,19.0
246.75,68.2,61.1,,32.3,53.9,19.0
247.5,68.2,60.4,,32.6,53.7,18.7
248.25,68.9,61.6,,33.1,54.5,18.9
249.0,69.8,61.7,,33.0,54.8,19.3
249.75,69.6,61.1,,32.8,54.5,19.3
250.5,69.2,60.9,,33.1,54.4,18.9
251.25,69.3,61.3,,32.8,54.5,19.2
252.0,69.4,60.7,,32.9,54.3,19.1
252.75,69.6,61.7,,32.5,54.6,19.5
253.5,69.8,61.8,,32.7,54.8,19.5
254.25,70.3,61.7,,33.2,55.1,19.4
255.0,69.0,62.5,,32.9,54.8,19.3
255.75,70.1,62.8,,33.2,55.4,19.5
256.5,69.4,63.6,,33.4,55.5,19.3
257.25,68.6,63.1,,33.3,55.0,19.0
258.0,69.8,62.9,,33.5,55.4,19.3
258.75,69.5,63.9,,33.7,55.7,19.3
259.5,69.1,63.5,,33.8,55.5,19.0
260.25,68.5,64.6,,33.3,55.5,19.3
261.0,68.4,63.3,,33.4,55.0,18.9
261.75,69.0,63.4,,32.4,55.0,19.8
262.5,69.5,64.8,,32.3,55.5,20.3
263.25,69.3,63.8,,32.4,55.2,19.9
264.0,68.8,64.9,,32.6,55.4,19.9
264.75,69.0,65.3,,32.4,55.6,20.2
265.5,68.7,64.8,,32.2,55.2,20.0
266.25,69.2,65.2,,32.2,55.5,20.3
267.0,68.3,65.7,,32.0,55.3,20.3
267.75,68.8,65.0,,31.9,55.3,20.3
268.5,68.7,65.3,,32.2,55.4,20.2
269.25,69.3,65.7,,32.0,55.7,20.6
270.0,68.5,66.3,,31.9,55.6,20.5
270.75,68.2,65.1,,32.2,55.2,19.9
271.5,68.8,65.8,,32.3,55.6,20.3
272.25,70.2,65.5,,31.9,55.9,20.9
273.0,69.0,64.5,,32.7,55.4,19.8
273.75,69.6,65.8,,31.9,55.8,20.8
274.5,69.0,65.2,,31.8,55.4,20.5
275.25,69.9,65.4,,31.9,55.8,20.8
276.0,69.3,65.6,,32.5,55.8,20.3
276.75,70.6,66.0,,31.9,56.2,21.1
277.5,70.6,66.1,,32.2,56.3,21.0
278.25,70.2,66.2,,31.9,56.1,21.0
279.0,70.1,66.5,,32.5,56.3,20.8
279.75,70.9,66.8,,32.4,56.7,21.1
280.5,70.1,65.7,,32.5,56.1,20.6
281.25,71.3,66.1,,32.6,56.6,21.0
282.0,71.2,66.1,,33.2,56.9,20.6
282.75,70.5,66.3,,32.6,56.5,20.8
283.5,72.1,65.7,,33.7,57.2,20.5
284.25,71.0,66.7,,33.2,57.0,20.7
285.0,71.3,66.1,,33.9,57.1,20.3
285.75,71.2,66.6,,33.7,57.2,20.5
286.5,71.9,66.7,,33.7,57.5,20.7
287.25,72.1,67.3,,34.0,57.8,20.8
288.0,71.7,67.5,,33.2,57.5,21.1
288.75,70.9,68.2,,33.6,57.6,20.8
289.5,70.8,68.1,,33.2,57.3,20.9
290.25,71.7,67.4,,33.5,57.5,21.0
291.0,70.4,68.8,,32.8,57.3,21.2
291.75,70.4,68.0,,32.7,57.0,21.1
292.5,70.0,68.2,,33.0,57.1,20.9
293.25,70.1,67.7,,32.9,56.9,20.9
294.0,70.7,67.5,,33.2,57.1,20.8
294.75,69.6,66.7,,32.8,56.3,20.5
295.5,70.0,67.2,,33.0,56.7,20.6
296.25,71.3,67.1,,32.7,57.1,21.2
297.0,70.4,67.6,,32.5,56.9,21.1
297.75,70.9,67.6,,33.0,57.1,21.0
298.5,72.1,67.9,,32.9,57.6,21.5
299.25,71.9,68.1,,32.9,57.7,21.5
300.0,71.5,67.7,,32.8,57.3,21.3
300.75,72.5,67.2,,32.5,57.4,21.7
301.5,72.9,68.2,,32.8,58.0,22.0
302.25,72.6,67.3,,33.1,57.7,21.5
303.0,72.6,67.7,,34.2,58.2,20.9
303.75,72.1,70.4,,33.7,58.7,21.7
304.5,73.6,68.5,,34.2,58.8,21.4
305.25,73.0,68.8,,34.3,58.7,21.2
306.0,73.9,68.8,,34.1,58.9,21.6
306.75,73.7,67.8,,33.5,58.3,21.7
307.5,73.4,68.1,,33.7,58.4,21.6
308.25,74.3,68.7,,33.4,58.8,22.2
309.0,74.0,68.1,,32.7,58.3,22.3
309.75,75.2,68.1,,33.1,58.8,22.5
310.5,75.7,68.9,,32.9,59.1,23.0
311.25,74.0,68.3,,32.4,58.2,22.6
312.0,74.7,68.5,,32.3,58.5,22.9
312.75,75.1,68.8,,32.2,58.7,23.2
313.5,74.7,67.8,,32.0,58.2,22.9
314.25,74.6,67.5,,32.2,58.1,22.7
315.0,75.3,68.3,,32.1,58.6,23.1
315.75,75.4,68.7,,31.9,58.7,23.4
316.5,75.6,67.9,,32.2,58.5,23.1
317.25,76.8,67.7,,32.2,58.9,23.6
318.0,77.1,67.0,,31.6,58.6,23.9
318.75,78.0,67.9,,31.3,59.1,24.6
319.5,77.8,69.3,,31.4,59.5,24.7
320.25,77.3,69.7,,31.2,59.4,24.7
321.0,77.5,69.2,,31.4,59.3,24.5
321.75,78.1,68.8,,31.1,59.4,24.9
322.5,80.0,69.8,,30.3,60.1,26.2
323.25,79.9,69.9,,30.5,60.1,26.1
324.0,80.8,70.1,,30.6,60.5,26.4
324.75,81.1,70.9,,30.4,60.8,26.8
325.5,81.3,71.2,,31.0,61.2,26.6
326.25,81.6,72.1,,30.7,61.5,27.0
327.0,80.0,72.0,,31.1,61.1,26.2
327.75,81.6,72.4,,31.5,61.8,26.7
328.5,81.1,72.5,,31.2,61.6,26.6
329.25,80.8,72.2,,31.6,61.5,26.3
330.0,81.7,73.1,,31.2,62.0,27.0
330.75,80.8,73.3,,31.0,61.7,26.8
331.5,81.5,72.8,,30.5,61.6,27.3
332.25,81.0,73.3,,30.8,61.7,27.1
333.0,80.8,74.2,,30.4,61.8,27.4
333.75,81.8,74.8,,30.4,62.3,27.9
334.5,80.4,74.4,,30.6,61.8,27.2
335.25,83.4,74.5,,30.4,62.8,28.4
336.0,82.0,74.7,,30.3,62.3,28.0
336.75,83.6,75.9,,30.2,63.2,28.9
337.5,82.2,76.2,,30.2,62.9,28.4
338.25,82.8,77.0,,30.0,63.3,28.9
339.0,82.4,79.0,,30.4,63.9,29.1
339.75,83.2,78.2,,30.0,63.8,29.4
340.5,82.3,78.6,,30.6,63.8,28.8
341.25,83.8,80.0,,30.1,64.6,30.0
342.0,84.9,80.8,,30.1,65.2,30.5
342.75,84.5,81.1,,30.0,65.2,30.5
343.5,84.4,80.5,,30.3,65.0,30.2
344.25,84.2,81.6,,30.4,65.4,30.3
345.0,84.6,79.6,,30.3,64.8,30.0
345.75,85.9,80.8,,30.3,65.6,30.7
346.5,85.8,80.2,,30.5,65.5,30.4
347.25,87.2,81.3,,30.2,66.2,31.4
348.0,87.5,80.9,,29.7,66.0,31.7
348.75,88.0,80.8,,29.9,66.2,31.7
349.5,87.3,81.5,,30.2,66.3,31.4
350.25,88.2,82.3,,30.5,67.0,31.7
351.0,88.4,83.0,,30.6,67.3,31.9
351.75,89.4,82.7,,30.7,67.6,32.1
352.5,91.0,83.4,,31.2,68.5,32.6
353.25,90.6,83.8,,31.9,68.8,32.1
354.0,90.9,83.7,,32.2,68.9,32.0
354.75,92.2,85.1,,32.8,70.0,32.4
355.5,92.8,85.3,,32.9,70.4,32.6
356.25,93.1,87.5,,33.7,71.4,32.8
357.0,95.8,85.7,,34.0,71.9,33.2
357.75,94.9,86.2,,34.8,72.0,32.5
358.5,95.2,86.9,,35.2,72.4,32.5
359.25,93.7,87.1,,35.6,72.1,31.8
360.0,94.7,88.0,,36.2,73.0,32.0
360.75,96.3,88.6,,36.9,73.9,32.3
361.5,94.3,88.1,,36.8,73.1,31.6
362.25,94.9,87.8,,37.2,73.3,31.5
363.0,96.1,89.2,,37.4,74.2,32.1
363.75,96.5,88.2,,37.8,74.2,31.7
364.5,97.0,88.6,,38.3,74.7,31.7
365.25,98.5,89.5,,39.1,75.7,32.0
366.0,96.7,89.0,,38.9,74.9,31.4
366.75,100.3,89.3,,39.2,76.3,32.6
367.5,99.5,89.4,,39.6,76.2,32.1
368.25,98.7,90.3,,39.7,76.2,31.9
369.0,100.2,89.4,,40.2,76.6,32.0
369.75,100.1,91.2,,40.2,77.2,32.4
370.5,101.4,90.0,,40.2,77.2,32.5
371.25,100.2,90.7,,41.3,77.4,31.6
372.0,103.0,90.6,,41.6,78.4,32.4
372.75,101.5,92.1,,42.3,78.6,31.9
373.5,102.3,91.6,,42.1,78.7,32.1
374.25,104.3,91.6,,42.1,79.4,32.9
375.0,104.1,92.3,,43.3,79.9,32.3
375.75,104.0,91.1,,42.7,79.3,32.3
376.5,104.6,93.2,,43.5,80.4,32.5
377.25,104.2,92.4,,43.2,79.9,32.4
378.0,105.0,92.4,,42.5,80.0,33.0
378.75,104.5,92.4,,42.9,79.9,32.7
379.5,104.2,93.9,,42.8,80.3,32.9
380.25,104.3,95.6,,42.3,80.7,33.5
381.0,104.7,94.6,,42.2,80.5,33.6
381.75,108.1,95.0,,42.0,81.7,35.0
382.5,107.1,94.0,,42.3,81.1,34.3
383.25,108.8,95.6,,42.0,82.1,35.4
384.0,108.9,95.0,,41.6,81.8,35.5
384.75,109.2,94.3,,42.0,81.9,35.3
385.5,108.6,95.1,,41.2,81.6,35.7
386.25,110.5,95.5,,41.5,82.5,36.3
387.0,111.5,95.2,,42.2,83.0,36.2
387.75,112.3,96.2,,42.8,83.8,36.4
388.5,114.8,96.0,,47.5,86.1,34.7
389.25,112.2,96.9,,50.9,86.7,31.9
390.0,115.0,98.1,,55.9,89.7,30.5
390.75,114.7,97.7,,60.7,91.0,27.6
391.5,113.8,99.3,,65.1,92.7,25.0
392.25,115.8,96.6,,69.5,94.0,23.3
393.0,116.3,98.6,,73.6,96.2,21.5
393.75,117.4,97.5,,77.2,97.3,20.1
394.5,116.6,98.6,,81.0,98.7,17.8
395.25,119.4,97.9,,83.8,100.4,17.9
396.0,119.6,98.4,,85.5,101.2,17.2
396.75,120.3,99.7,,87.7,102.6,16.5
397.5,120.2,98.8,,88.9,102.6,16.0
398.25,122.0,101.2,,89.8,104.3,16.3
399.0,120.7,99.6,,90.8,103.7,15.3
399.75,124.1,101.4,,90.3,105.3,17.3
400.5,122.2,101.1,,92.0,105.1,15.5
401.25,123.5,103.2,,91.5,106.1,16.2
402.0,122.9,103.3,,92.2,106.1,15.5
402.75,124.7,104.1,,91.7,106.8,16.7
403.5,126.5,103.5,,91.9,107.3,17.6
404.25,126.4,102.8,,91.9,107.0,17.6
405.0,126.6,105.3,,91.8,107.9,17.6
405.75,125.9,103.1,,91.6,106.9,17.5
406.5,124.8,106.4,,93.5,108.2,15.7
407.25,125.4,104.0,,92.1,107.2,16.9
408.0,127.3,105.1,,92.9,108.4,17.4
408.75,125.9,107.3,,94.0,109.1,16.0
409.5,127.9,107.0,,94.9,109.9,16.7
410.25,128.2,107.2,,94.8,110.1,16.9
411.0,129.5,106.4,,95.4,110.4,17.4
411.75,131.6,106.9,,95.5,111.3,18.5
412.5,130.1,107.0,,96.1,111.0,17.4
413.25,130.7,107.0,,97.3,111.7,17.2
414.0,133.3,107.6,,95.9,112.3,19.1
414.75,132.5,109.7,,96.6,112.9,18.2
415.5,132.2,107.6,,96.9,112.2,18.1
416.25,132.2,109.1,,97.0,112.8,17.9
417.0,132.4,111.6,,97.3,113.7,17.7
417.75,130.8,111.9,,96.9,113.2,17.0
418.5,134.2,112.8,,99.0,115.3,17.7
419.25,134.5,113.4,,100.1,116.0,17.4
420.0,134.6,113.2,,101.6,116.4,16.7
420.75,136.6,113.8,,101.1,117.2,18.0
421.5,134.9,113.4,,102.4,116.9,16.5
422.25,137.3,115.0,,102.1,118.1,17.8
423.0,139.8,115.3,,102.3,119.2,19.0
423.75,136.8,114.5,,102.1,117.8,17.6
424.5,138.2,115.1,,101.0,118.1,18.8
425.25,138.0,118.5,,104.2,120.2,17.0
426.0,139.2,119.1,,104.5,120.9,17.4
426.75,138.8,118.7,,103.0,120.2,17.9
427.5,137.2,118.4,,106.2,120.6,15.6
428.25,140.0,120.0,,105.2,121.7,17.4
429.0,137.0,119.8,,105.9,120.9,15.6
429.75,140.7,119.6,,106.2,122.2,17.4
430.5,140.8,120.0,,107.0,122.6,17.0
431.25,143.1,122.4,,106.8,124.1,18.2
432.0,141.9,122.5,,107.3,123.9,17.3
432.75,143.4,122.6,,109.2,125.1,17.2
433.5,145.7,121.5,,107.2,124.8,19.4
434.25,141.7,123.2,,110.1,125.0,15.9
435.0,144.0,123.4,,111.2,126.2,16.6
435.75,145.1,125.0,,109.9,126.7,17.7
436.5,145.6,123.4,,109.5,126.2,18.2
437.25,144.1,124.9,,111.8,126.9,16.3
438.0,143.4,124.2,,112.7,126.8,15.5
438.75,144.2,124.3,,111.6,126.7,16.5
439.5,147.4,123.3,,112.0,127.6,18.1
440.25,144.6,124.0,,113.9,127.5,15.7
441.0,147.5,127.1,,113.6,129.4,17.1
441.75,146.4,123.2,,115.4,128.3,16.1
442.5,146.7,124.4,,114.7,128.6,16.4
443.25,146.3,124.8,,115.5,128.9,15.8
444.0,148.2,126.5,,115.9,130.2,16.5
444.75,149.3,125.1,,116.4,130.3,17.0
445.5,144.8,127.3,,116.6,129.6,14.2
446.25,148.0,127.7,,116.6,130.8,15.9
447.0,147.6,128.3,,118.1,131.3,15.0
447.75,150.3,128.1,,118.3,132.2,16.4
448.5,149.0,126.2,,118.1,131.1,16.1
449.25,151.1,129.2,,119.5,133.3,16.2
450.0,151.9,127.2,,118.6,132.6,17.3
450.75,151.2,128.9,,119.0,133.0,16.5
451.5,152.9,129.7,,120.9,134.5,16.5
452.25,153.2,129.9,,120.0,134.4,17.1
453.0,148.6,133.2,,120.7,134.2,14.0
453.75,151.9,133.6,,122.2,135.9,15.0
454.5,152.3,131.6,,120.5,134.8,16.1
455.25,150.2,136.6,,123.7,136.8,13.2
456.0,151.3,134.5,,124.0,136.6,13.8
456.75,150.9,134.5,,124.0,136.5,13.6
457.5,150.7,135.4,,122.5,136.2,14.1
458.25,150.8,133.1,,124.7,136.2,13.3
459.0,151.3,137.6,,124.2,137.7,13.6
459.75,151.1,138.0,,125.8,138.3,12.6
460.5,149.2,137.4,,124.8,137.1,12.2
461.25,150.2,137.7,,127.5,138.5,11.4
462.0,151.6,140.3,,124.5,138.8,13.6
462.75,149.6,141.2,,125.4,138.7,12.3
463.5,147.2,137.8,,127.3,137.4,10.0
464.25,151.3,140.3,,126.4,139.3,12.5
465.0,148.0,139.6,,127.4,138.3,10.3
465.75,149.5,141.9,,128.7,140.0,10.5
466.5,149.9,140.9,,129.9,140.2,10.0
467.25,150.8,142.3,,127.7,140.3,11.7
468.0,148.9,144.0,,126.9,139.9,11.6
468.75,148.4,141.9,,129.3,139.9,9.7
469.5,146.4,142.2,,128.8,139.2,9.2
470.25,146.1,140.8,,129.1,138.6,8.7
471.0,146.5,140.4,,126.6,137.8,10.2
471.75,147.1,142.3,,129.1,139.5,9.3
472.5,145.7,141.6,,127.2,138.2,9.8
473.25,143.4,141.2,,127.1,137.2,8.8
474.0,143.7,140.4,,132.1,138.7,5.9
474.75,141.4,140.1,,129.8,137.1,6.4
475.5,142.5,139.7,,131.2,137.8,5.9
476.25,145.2,139.2,,131.3,138.6,6.9
477.0,143.5,138.8,,131.5,137.9,6.1
477.75,143.3,140.8,,133.0,139.1,5.4
478.5,141.7,141.6,,132.2,138.5,5.4
479.25,140.2,140.3,,131.3,137.3,5.2
480.0,139.5,139.4,,131.1,136.7,4.8
480.75,141.7,140.0,,133.0,138.2,4.6
481.5,139.8,140.9,,135.7,138.8,2.7
482.25,139.7,139.4,,135.4,138.2,2.4
483.0,140.0,138.9,,134.7,137.9,2.8
483.75,141.8,139.9,,136.4,139.4,2.7
484.5,143.1,139.0,,135.6,139.2,3.8
485.25,139.7,140.1,,135.2,138.3,2.7
486.0,138.5,137.3,,137.0,137.6,0.8
486.75,138.5,138.7,,137.5,138.2,0.7
487.5,138.4,139.7,,136.9,138.4,1.4
488.25,141.8,140.0,,137.6,139.8,2.1
489.0,139.7,137.9,,139.6,139.1,1.0
489.75,138.3,136.5,,138.7,137.8,1.2
490.5,138.9,137.8,,137.6,138.1,0.7
491.25,139.1,136.1,,139.9,138.4,2.0
492.0,138.7,139.2,,139.8,139.2,0.5
492.75,139.1,137.0,,142.4,139.5,2.7
493.5,138.4,139.3,,141.5,139.7,1.6
494.25,137.0,135.7,,139.0,137.2,1.7
495.0,139.2,133.8,,141.0,138.0,3.7
495.75,136.8,138.2,,143.0,139.3,3.3
496.5,136.7,136.0,,139.4,137.3,1.8
497.25,134.7,136.1,,142.5,137.8,4.2
498.0,134.2,135.7,,141.5,137.1,3.9
498.75,137.6,132.6,,140.7,137.0,4.1
499.5,138.0,132.9,,140.5,137.1,3.9
500.25,137.1,131.7,,141.1,136.7,4.7
501.0,138.8,132.0,,140.0,136.9,4.3
501.75,138.3,133.6,,141.6,137.8,4.1
502.5,136.0,132.6,,139.6,136.1,3.5
503.25,137.9,132.8,,140.5,137.1,3.9
504.0,136.9,131.2,,141.2,136.4,5.0
504.75,139.3,132.9,,140.5,137.6,4.1
505.5,136.5,131.5,,140.3,136.1,4.4
506.25,135.0,131.9,,141.0,136.0,4.6
507.0,136.1,129.1,,142.8,136.0,6.9
507.75,137.5,130.1,,142.8,136.8,6.4
508.5,137.0,130.3,,140.0,135.8,5.0
509.25,135.8,131.9,,141.6,136.4,4.9
510.0,135.8,130.6,,140.7,135.7,5.1
510.75,136.7,131.2,,140.0,136.0,4.4
511.5,135.0,130.4,,142.6,136.0,6.2
512.25,136.3,129.8,,141.5,135.9,5.9
513.0,135.9,129.4,,140.5,135.2,5.5
513.75,134.6,132.2,,142.3,136.3,5.3
514.5,134.1,128.8,,139.5,134.1,5.4
515.25,135.2,130.4,,141.0,135.5,5.3
516.0,135.7,129.1,,140.8,135.2,5.9
516.75,135.4,129.3,,140.0,134.9,5.4
517.5,135.3,129.3,,141.0,135.2,5.8
518.25,133.9,128.1,,140.1,134.0,6.0
519.0,134.1,128.2,,138.2,133.5,5.0
519.75,132.9,127.4,,141.1,133.8,6.9
520.5,132.3,128.9,,138.1,133.1,4.6
521.25,132.5,128.0,,139.6,133.4,5.8
522.0,132.7,127.6,,136.9,132.4,4.7
522.75,133.4,127.5,,138.2,133.0,5.4
523.5,133.3,128.5,,137.6,133.2,4.6
524.25,134.9,125.5,,136.1,132.2,5.8
525.0,130.9,127.9,,136.0,131.6,4.1
525.75,130.8,124.9,,136.3,130.7,5.7
526.5,130.4,126.2,,136.0,130.9,4.9
527.25,130.6,128.2,,135.9,131.5,4.0
528.0,129.9,124.5,,135.1,129.8,5.3
528.75,129.2,127.4,,132.7,129.8,2.7
529.5,128.1,126.9,,134.2,129.8,3.9
530.25,128.0,125.7,,132.9,128.9,3.7
531.0,127.8,124.4,,132.5,128.2,4.1
531.75,128.6,124.6,,132.1,128.5,3.8
532.5,127.5,124.3,,131.9,127.9,3.8
533.25,127.4,123.3,,128.3,126.3,2.7
534.0,126.8,123.6,,129.7,126.7,3.0
534.75,127.3,123.3,,132.4,127.7,4.5
535.5,125.3,123.9,,129.7,126.3,3.1
536.25,125.2,121.9,,129.8,125.6,4.0
537.0,123.2,125.6,,130.6,126.5,3.8
537.75,124.2,123.4,,129.2,125.6,3.1
538.5,122.3,123.0,,129.6,124.9,4.1
539.25,121.4,126.0,,131.2,126.2,4.9
540.0,121.4,121.6,,128.9,124.0,4.3
540.75,120.6,123.1,,132.0,125.2,6.0
541.5,121.0,121.0,,130.0,124.0,5.2
542.25,119.9,122.1,,130.1,124.0,5.4
543.0,118.0,120.2,,129.0,122.4,5.8
543.75,117.0,121.2,,131.8,123.3,7.6
544.5,116.9,121.5,,127.0,121.8,5.1
545.25,115.9,120.6,,126.8,121.1,5.4
546.0,115.1,118.6,,128.6,120.8,7.0
546.75,114.3,117.9,,126.8,119.6,6.4
547.5,113.1,119.4,,126.3,119.6,6.6
548.25,110.4,118.1,,125.9,118.1,7.8
549.0,112.0,118.2,,126.2,118.8,7.1
549.75,109.3,119.2,,126.6,118.3,8.7
550.5,108.3,119.9,,125.4,117.9,8.7
551.25,107.0,119.8,,126.4,117.7,9.8
552.0,105.6,119.6,,126.1,117.1,10.5
552.75,105.1,119.3,,124.7,116.4,10.1
553.5,103.9,118.6,,125.2,115.9,10.9
554.25,101.7,118.5,,125.1,115.1,12.0
555.0,101.7,117.6,,126.5,115.3,12.6
555.75,99.3,118.7,,125.1,114.4,13.4
556.5,97.0,118.5,,122.4,112.7,13.7
557.25,96.4,117.7,,124.5,112.9,14.7
558.0,94.6,115.9,,122.1,110.9,14.4
558.75,94.1,117.5,,123.6,111.7,15.6
559.5,92.3,116.7,,123.5,110.8,16.4
560.25,91.2,115.9,,121.9,109.7,16.3
561.0,90.8,116.5,,122.3,109.9,16.7
561.75,89.6,116.1,,122.3,109.3,17.4
562.5,90.3,118.0,,119.9,109.4,16.6
563.25,89.1,115.4,,122.1,108.8,17.5
564.0,89.0,113.1,,122.9,108.3,17.5
564.75,88.4,114.2,,123.6,108.7,18.2
565.5,87.9,114.5,,122.4,108.3,18.1
566.25,86.3,113.2,,122.3,107.3,18.7
567.0,86.1,114.2,,123.9,108.1,19.6
567.75,86.2,112.1,,123.5,107.3,19.1
568.5,85.0,112.1,,121.4,106.2,18.9
569.25,85.1,109.5,,121.0,105.2,18.3
570.0,84.4,110.9,,122.5,105.9,19.5
570.75,84.6,109.0,,122.5,105.4,19.2
571.5,84.2,108.8,,122.4,105.2,19.4
572.25,83.1,108.2,,122.2,104.5,19.8
573.0,82.9,107.9,,121.2,104.0,19.5
573.75,83.3,105.1,,122.1,103.5,19.4
574.5,81.3,105.1,,121.8,102.7,20.3
575.25,82.0,102.2,,123.3,102.5,20.7
576.0,79.7,103.0,,121.1,101.2,20.8
576.75,80.0,100.8,,121.9,100.9,21.0
577.5,77.3,99.8,,121.8,99.6,22.2
578.25,77.9,100.1,,120.4,99.5,21.3
579.0,75.3,98.3,,123.0,98.9,23.8
579.75,75.2,96.7,,119.1,97.0,22.0
580.5,73.9,94.5,,121.6,96.7,23.9
581.25,73.5,95.3,,120.0,96.3,23.3
582.0,72.6,93.6,,119.3,95.2,23.4
582.75,71.5,91.0,,118.6,93.7,23.7
583.5,71.6,90.6,,118.8,93.7,23.7
584.25,70.5,89.1,,118.8,92.8,24.4
585.0,70.6,88.9,,118.2,92.5,24.0
585.75,69.5,88.0,,117.3,91.6,24.1
586.5,68.9,85.1,,118.5,90.8,25.3
587.25,68.7,84.6,,117.2,90.2,24.7
588.0,67.3,83.1,,120.1,90.2,27.1
588.75,65.5,79.9,,118.0,87.8,27.2
589.5,64.9,78.1,,117.7,86.9,27.5
590.25,64.1,77.9,,117.2,86.4,27.5
591.0,63.3,76.7,,115.6,85.2,27.2
591.75,63.3,74.6,,116.7,84.9,28.1
592.5,61.8,74.9,,116.0,84.3,28.3
593.25,61.4,73.7,,114.4,83.2,27.8
594.0,61.1,73.5,,112.8,82.5,27.0
594.75,60.0,73.3,,113.5,82.3,27.9
595.5,58.9,71.7,,113.2,81.3,28.4
596.25,58.9,71.0,,113.5,81.1,28.7
597.0,57.1,70.2,,113.0,80.1,29.2
597.75,57.7,69.1,,111.7,79.5,28.4
598.5,56.6,69.6,,109.6,78.6,27.6
599.25,55.1,68.6,,107.8,77.2,27.4
600.0,55.5,68.8,,108.0,77.4,27.3
600.75,54.5,67.9,,105.9,76.1,26.7
601.5,53.1,67.8,,106.0,75.7,27.3
602.25,53.5,67.8,,105.9,75.7,27.1
603.0,52.7,67.3,,105.8,75.3,27.4
603.75,52.8,66.5,,104.5,74.6,26.8
604.5,52.5,66.4,,102.8,73.9,26.0
605.25,53.0,65.7,,101.3,73.3,25.0
606.0,54.1,64.3,,98.5,72.3,23.2
606.75,55.3,64.3,,97.9,72.5,22.4
607.5,55.8,62.7,,96.8,71.8,21.9
608.25,55.7,61.5,,96.5,71.2,22.1
609.0,56.4,60.1,,94.5,70.4,21.0
609.75,56.2,60.2,,92.7,69.7,20.0
610.5,56.9,59.4,,91.7,69.3,19.4
611.25,56.5,59.2,,91.4,69.0,19.4
612.0,57.7,58.6,,88.5,68.3,17.5
612.75,56.6,57.1,,88.1,67.3,18.0
613.5,56.4,56.7,,87.1,66.7,17.6
614.25,54.8,56.2,,85.1,65.4,17.1
615.0,54.1,55.8,,83.2,64.4,16.3
615.75,53.4,54.6,,82.9,63.6,16.7
616.5,53.4,54.0,,80.3,62.6,15.4
617.25,51.8,54.1,,80.6,62.2,16.0
618.0,52.3,53.4,,78.7,61.5,14.9
618.75,51.9,51.7,,77.8,60.5,15.0
619.5,50.7,52.3,,77.7,60.2,15.1
620.25,49.9,51.1,,75.6,58.8,14.5
621.0,49.8,50.7,,74.9,58.5,14.3
621.75,49.1,49.4,,75.0,57.8,14.9
622.5,49.5,49.0,,74.5,57.7,14.6
623.25,49.4,48.2,,72.7,56.8,13.8
624.0,48.7,48.2,,72.9,56.6,14.1
624.75,48.9,47.7,,73.5,56.7,14.6
625.5,49.2,47.3,,73.1,56.5,14.4
626.25,48.5,46.6,,72.8,56.0,14.6
627.0,49.2,46.4,,71.4,55.7,13.7
627.75,49.2,45.4,,69.9,54.9,13.2
628.5,48.5,45.1,,69.4,54.3,13.2
629.25,49.5,45.2,,69.2,54.7,12.8
630.0,49.2,,,68.1,58.7,13.3
630.75,48.3,,,66.9,57.6,13.1
631.5,48.9,,,66.8,57.9,12.7
632.25,48.8,,,67.1,57.9,12.9
633.0,48.5,,,66.4,57.4,12.7
633.75,49.2,,,65.6,57.4,11.7
634.5,48.6,,,65.5,57.1,12.0
635.25,47.9,,,65.1,56.5,12.2
636.0,47.3,,,65.1,56.2,12.6
636.75,46.9,,,64.4,55.7,12.3
637.5,46.5,,,63.4,55.0,12.0
638.25,47.3,,,63.3,55.3,11.3
639.0,45.9,,,63.2,54.6,12.2
639.75,46.0,,,62.2,54.1,11.4
640.5,46.2,,,61.0,53.6,10.5
641.25,45.8,,,61.2,53.5,10.9
642.0,46.0,,,61.3,53.6,10.8
642.75,46.1,,,61.3,53.7,10.8
643.5,45.5,,,59.7,52.6,10.0
644.25,46.0,,,59.5,52.7,9.5
645.0,46.6,,,58.2,52.4,8.2
645.75,46.1,,,58.7,52.4,8.9
646.5,47.3,,,57.4,52.3,7.1
647.25,46.5,,,56.8,51.6,7.3
648.0,46.3,,,55.9,51.1,6.8
648.75,47.1,,,55.3,51.2,5.8
649.5,46.8,,,54.1,50.4,5.1
650.25,46.7,,,54.3,50.5,5.4
651.0,47.3,,,53.5,50.4,4.4
651.75,46.8,,,52.2,49.5,3.8
652.5,47.5,,,51.6,49.5,2.9
653.25,47.5,,,51.5,49.5,2.9
654.0,46.4,,,50.2,48.3,2.7
654.75,46.9,,,48.6,47.8,1.2
655.5,47.2,,,48.8,48.0,1.1
656.25,47.2,,,46.5,46.9,0.5
657.0,47.2,,,45.1,46.2,1.5
657.75,46.7,,,44.4,45.6,1.6
658.5,47.3,,,44.2,45.7,2.2
659.25,47.6,,,43.7,45.6,2.7
660.0,47.4,,,43.6,45.5,2.7
660.75,47.7,,,43.3,45.5,3.1
661.5,46.9,,,42.7,44.8,3.0
662.25,47.4,,,43.4,45.4,2.8
663.0,47.1,,,43.6,45.3,2.5
663.75,46.2,,,44.2,45.2,1.4
664.5,46.9,,,44.1,45.5,2.0
665.25,46.7,,,43.8,45.2,2.1
666.0,47.5,,,44.0,45.8,2.5
666.75,47.7,,,44.4,46.0,2.3
667.5,48.2,,,44.6,46.4,2.6
668.25,48.7,,,44.3,46.5,3.2
669.0,48.9,,,44.7,46.8,3.0
669.75,48.8,,,44.5,46.6,3.0
670.5,50.2,,,44.7,47.5,3.9
671.25,49.8,,,44.8,47.3,3.6
672.0,49.8,,,45.3,47.5,3.2
672.75,50.1,,,44.8,47.5,3.7
673.5,49.5,,,45.0,47.3,3.2
674.25,50.3,,,44.9,47.6,3.8
675.0,50.4,,,45.6,48.0,3.4
675.75,50.3,,,45.2,47.8,3.6
676.5,50.2,,,45.8,48.0,3.1
677.25,49.7,,,45.1,47.4,3.2
678.0,50.0,,,45.5,47.8,3.2
678.75,50.2,,,45.6,47.9,3.2
679.5,50.5,,,45.5,48.0,3.5
680.25,49.9,,,45.7,47.8,3.0
681.0,50.9,,,44.9,47.9,4.2
681.75,50.2,,,44.3,47.3,4.1
682.5,50.1,,,44.1,47.1,4.2
683.25,49.9,,,43.8,46.8,4.3
684.0,50.3,,,42.9,46.6,5.3
684.75,49.6,,,43.0,46.3,4.6
685.5,49.3,,,43.2,46.3,4.3
686.25,50.0,,,43.9,46.9,4.3
687.0,49.4,,,43.6,46.5,4.1
687.75,49.4,,,42.9,46.2,4.6
688.5,49.7,,,43.2,46.4,4.6
689.25,49.2,,,43.4,46.3,4.0
690.0,50.0,,,43.3,46.6,4.8
690.75,50.1,,,43.4,46.8,4.7
691.5,50.5,,,44.0,47.3,4.6
692.25,49.9,,,43.6,46.8,4.5
693.0,50.3,,,44.5,47.4,4.1
693.75,50.5,,,44.6,47.5,4.2
694.5,49.8,,,44.3,47.1,3.9
695.25,49.0,,,44.7,46.8,3.1
696.0,49.9,,,44.9,47.4,3.6
696.75,49.2,,,45.8,47.5,2.5
697.5,48.0,,,45.4,46.7,1.9
698.25,48.0,,,46.0,47.0,1.4
699.0,48.0,,,45.8,46.9,1.6
699.75,47.0,,,45.7,46.3,0.9
700.5,47.1,,,46.1,46.6,0.7
701.25,46.8,,,46.0,46.4,0.5
702.0,46.6,,,46.0,46.3,0.5
702.75,46.5,,,46.4,46.4,0.1
703.5,46.9,,,45.6,46.2,0.9
704.25,47.1,,,46.2,46.6,0.6
705.0,46.4,,,44.3,45.3,1.4
705.75,46.4,,,46.1,46.3,0.2
706.5,46.0,,,44.4,45.2,1.1
707.25,46.0,,,43.7,44.9,1.6
708.0,45.7,,,42.8,44.3,2.1
708.75,46.2,,,43.3,44.7,2.0
709.5,46.0,,,42.7,44.3,2.3
710.25,45.7,,,42.0,43.8,2.7
711.0,45.1,,,42.9,44.0,1.5
711.75,45.3,,,42.6,44.0,1.9
712.5,46.3,,,42.1,44.2,3.0
713.25,46.0,,,41.4,43.7,3.3
714.0,46.4,,,42.2,44.3,3.0
714.75,47.0,,,41.5,44.2,3.9
715.5,46.1,,,41.4,43.8,3.3
716.25,46.6,,,42.0,44.3,3.3
717.0,46.4,,,42.1,44.3,3.0
717.75,46.6,,,42.2,44.4,3.1
718.5,46.3,,,42.2,44.2,2.9
719.25,46.1,,,42.5,44.3,2.5
720.0,45.7,,,42.5,44.1,2.3
720.75,45.1,,,42.1,43.6,2.1
721.5,45.4,,,41.8,43.6,2.5
722.25,46.0,,,41.8,43.9,3.0
723.0,44.8,,,42.3,43.6,1.8
723.75,44.3,,,41.7,43.0,1.8
724.5,44.1,,,41.8,42.9,1.7
725.25,43.2,,,42.0,42.6,0.8
726.0,42.9,,,41.7,42.3,0.9
726.75,44.0,,,41.7,42.9,1.6
727.5,43.3,,,41.7,42.5,1.1
728.25,44.3,,,41.7,43.0,1.9
729.0,43.3,,,42.4,42.9,0.6
729.75,43.7,,,41.8,42.8,1.4
730.5,43.9,,,42.1,43.0,1.3
731.25,43.1,,,42.1,42.6,0.7
732.0,42.7,,,43.6,43.2,0.6
732.75,41.9,,,43.0,42.5,0.8
733.5,41.9,,,42.7,42.3,0.6
734.25,41.4,,,42.3,41.9,0.6
735.0,41.6,,,41.8,41.7,0.2
735.75,42.1,,,41.5,41.8,0.4
736.5,41.7,,,42.3,42.0,0.4
737.25,41.4,,,42.1,41.8,0.5
738.0,41.6,,,42.3,42.0,0.4
738.75,41.3,,,42.8,42.0,1.1
739.5,41.2,,,42.7,42.0,1.1
740.25,40.5,,,42.1,41.3,1.2
741.0,41.0,,,42.7,41.8,1.2
741.75,40.5,,,42.0,41.3,1.0
742.5,40.2,,,41.2,40.7,0.7
743.25,39.6,,,41.1,40.4,1.0
744.0,40.1,,,40.9,40.5,0.6
744.75,39.5,,,40.7,40.1,0.9
745.5,39.8,,,39.9,39.8,0.1
746.25,39.6,,,40.5,40.1,0.6
747.0,39.5,,,39.9,39.7,0.3
747.75,38.8,,,39.5,39.2,0.5
748.5,39.0,,,39.7,39.4,0.5
749.25,38.5,,,39.5,39.0,0.7
750.0,38.5,,,39.2,38.9,0.5
750.75,38.9,,,39.9,39.4,0.7
751.5,37.9,,,39.4,38.7,1.1
752.25,38.3,,,40.0,39.1,1.2
753.0,37.8,,,39.1,38.4,0.9
753.75,36.9,,,39.0,37.9,1.5
754.5,37.4,,,39.5,38.5,1.5
755.25,36.6,,,39.4,38.0,2.0
756.0,36.8,,,38.5,37.6,1.2
756.75,36.4,,,38.7,37.5,1.7
757.5,37.0,,,38.7,37.9,1.2
758.25,36.4,,,37.8,37.1,1.0
759.0,36.9,,,37.5,37.2,0.4
759.75,36.7,,,38.3,37.5,1.2
760.5,36.1,,,38.3,37.2,1.5
761.25,36.6,,,38.2,37.4,1.1
762.0,36.6,,,38.3,37.4,1.2
762.75,36.9,,,38.5,37.7,1.1
763.5,36.9,,,38.8,37.9,1.3
764.25,36.6,,,38.7,37.7,1.5
765.0,36.1,,,38.7,37.4,1.8
765.75,36.3,,,38.9,37.6,1.8
766.5,36.6,,,38.3,37.5,1.2
767.25,36.5,,,39.0,37.7,1.8
768.0,36.5,,,38.4,37.5,1.4
768.75,36.6,,,39.7,38.1,2.2
769.5,36.4,,,38.9,37.6,1.8
770.25,36.5,,,39.4,38.0,2.1
771.0,36.8,,,40.0,38.4,2.2
771.75,37.2,,,39.7,38.5,1.8
772.5,36.8,,,39.8,38.3,2.1
773.25,36.9,,,39.6,38.2,1.9
774.0,37.0,,,38.8,37.9,1.3
774.75,37.0,,,38.9,37.9,1.3
775.5,37.4,,,38.6,38.0,0.8
776.25,37.8,,,38.5,38.1,0.5
777.0,37.8,,,38.7,38.3,0.6
777.75,37.3,,,38.5,37.9,0.9
778.5,37.2,,,38.4,37.8,0.9
779.25,37.3,,,38.4,37.9,0.7
780.0,37.1,,,38.2,37.6,0.8
780.75,37.2,,,37.4,37.3,0.1
781.5,36.9,,,37.1,37.0,0.2
782.25,36.5,,,37.1,36.8,0.4
783.0,36.9,,,36.9,36.9,0.0
783.75,36.7,,,37.0,36.9,0.2
784.5,37.1,,,36.9,37.0,0.1
785.25,36.9,,,36.6,36.7,0.2
786.0,37.0,,,37.1,37.0,0.1
786.75,37.4,,,36.8,37.1,0.4
787.5,36.9,,,36.5,36.7,0.3
788.25,38.0,,,36.2,37.1,1.3
789.0,37.9,,,35.8,36.9,1.5
789.75,37.9,,,36.0,36.9,1.3
790.5,38.3,,,35.1,36.7,2.3
791.25,37.7,,,35.1,36.4,1.9
792.0,38.3,,,34.2,36.3,2.9
792.75,38.1,,,34.2,36.2,2.8
793.5,38.3,,,34.6,36.4,2.6
794.25,38.3,,,34.3,36.3,2.8
795.0,38.8,,,34.1,36.4,3.3
795.75,38.5,,,34.2,36.3,3.0
796.5,38.5,,,33.9,36.2,3.3
797.25,38.2,,,33.8,36.0,3.1
798.0,38.6,,,34.0,36.3,3.2
798.75,38.4,,,33.4,35.9,3.5
799.5,38.4,,,34.3,36.4,2.9
800.25,38.1,,,34.2,36.1,2.7
801.0,37.3,,,34.0,35.6,2.3
801.75,36.7,,,33.7,35.2,2.1
802.5,37.1,,,33.9,35.5,2.3
803.25,37.5,,,33.8,35.6,2.6
804.0,37.5,,,34.0,35.7,2.5
804.75,37.2,,,33.9,35.6,2.3
805.5,37.6,,,34.0,35.8,2.5
806.25,37.2,,,34.0,35.6,2.3
807.0,37.8,,,33.9,35.8,2.7
807.75,38.0,,,34.2,36.1,2.7
808.5,37.3,,,34.1,35.7,2.3
809.25,36.6,,,33.7,35.2,2.1
810.0,37.2,,,33.9,35.5,2.3
810.75,36.6,,,34.5,35.5,1.5
811.5,36.7,,,34.9,35.8,1.3
812.25,36.4,,,34.3,35.3,1.5
813.0,36.5,,,35.0,35.7,1.1
813.75,36.6,,,35.0,35.8,1.1
814.5,36.2,,,35.1,35.6,0.8
815.25,36.9,,,35.7,36.3,0.8
816.0,37.5,,,35.8,36.7,1.2
816.75,37.2,,,35.8,36.5,1.0
817.5,37.9,,,36.2,37.0,1.2
818.25,37.8,,,36.2,37.0,1.1
819.0,38.6,,,36.9,37.8,1.2
819.75,38.6,,,36.2,37.4,1.7
820.5,39.6,,,36.2,37.9,2.4
821.25,39.2,,,36.4,37.8,2.0
822.0,39.4,,,36.8,38.1,1.8
822.75,39.9,,,36.4,38.2,2.4
823.5,39.7,,,36.9,38.3,2.0
824.25,40.1,,,36.4,38.3,2.6
825.0,39.4,,,36.6,38.0,2.0
825.75,39.5,,,36.4,37.9,2.2
826.5,38.8,,,36.9,37.9,1.4
827.25,39.2,,,36.4,37.8,2.0
828.0,39.0,,,36.6,37.8,1.7
828.75,38.7,,,36.9,37.8,1.2
829.5,39.1,,,36.4,37.8,1.9
830.25,38.7,,,36.8,37.7,1.3
831.0,38.7,,,36.7,37.7,1.4
831.75,38.8,,,37.1,38.0,1.2
832.5,39.1,,,37.3,38.2,1.2
833.25,38.5,,,37.6,38.1,0.7
834.0,38.5,,,36.8,37.6,1.2
834.75,39.1,,,37.1,38.1,1.4
835.5,37.7,,,37.6,37.7,0.1
836.25,38.2,,,38.1,38.1,0.0
837.0,37.3,,,38.6,37.9,0.9
837.75,36.9,,,39.0,37.9,1.5
838.5,36.8,,,38.5,37.6,1.2
839.25,36.7,,,38.1,37.4,1.0
840.0,36.9,,,38.3,37.6,1.0
840.75,36.6,,,38.0,37.3,0.9
841.5,36.4,,,38.2,37.3,1.3
842.25,36.5,,,38.2,37.3,1.2
843.0,36.6,,,37.3,36.9,0.5
843.75,36.0,,,37.4,36.7,1.0
844.5,37.1,,,36.6,36.9,0.3
845.25,36.7,,,36.5,36.6,0.2
846.0,36.6,,,36.1,36.3,0.4
846.75,36.9,,,35.5,36.2,1.0
847.5,36.9,,,35.9,36.4,0.7
848.25,37.0,,,35.4,36.2,1.2
849.0,36.6,,,34.8,35.7,1.2
849.75,36.6,,,34.5,35.6,1.4
850.5,35.9,,,34.2,35.1,1.2
851.25,35.9,,,34.6,35.3,0.9
852.0,35.7,,,34.5,35.1,0.8
852.75,35.9,,,34.2,35.1,1.1
853.5,35.8,,,34.4,35.1,1.0
854.25,35.9,,,34.2,35.1,1.2
855.0,36.5,,,34.7,35.6,1.3
855.75,36.7,,,35.2,36.0,1.1
856.5,36.5,,,33.9,35.2,1.9
857.25,36.1,,,34.3,35.2,1.3
858.0,35.9,,,34.0,34.9,1.3
858.75,35.6,,,34.7,35.2,0.6
859.5,35.3,,,34.2,34.8,0.8
860.25,34.6,,,34.4,34.5,0.2
861.0,34.4,,,35.2,34.8,0.6
861.75,34.7,,,35.1,34.9,0.3
862.5,34.5,,,35.4,34.9,0.6
863.25,34.6,,,34.7,34.6,0.1
864.0,34.6,,,34.6,34.6,0.0
864.75,34.3,,,34.8,34.6,0.4
865.5,33.8,,,34.2,34.0,0.2
866.25,33.9,,,34.3,34.1,0.3
867.0,33.7,,,34.0,33.9,0.2
867.75,34.1,,,34.3,34.2,0.2
868.5,33.9,,,34.3,34.1,0.3
869.25,34.0,,,34.2,34.1,0.1
870.0,33.9,,,34.1,34.0,0.1
870.75,33.9,,,34.1,34.0,0.1
871.5,33.3,,,33.8,33.5,0.4
872.25,33.5,,,34.1,33.8,0.4
873.0,33.3,,,34.8,34.0,1.1
873.75,33.5,,,33.9,33.7,0.3
874.5,33.4,,,33.6,33.5,0.1
875.25,33.5,,,33.8,33.7,0.2
876.0,33.3,,,33.4,33.3,0.1
876.75,33.3,,,33.2,33.2,0.0
877.5,33.1,,,33.1,33.1,0.0
878.25,33.4,,,32.8,33.1,0.5
879.0,33.2,,,32.8,33.0,0.3
879.75,33.4,,,32.4,32.9,0.7
880.5,33.1,,,32.8,33.0,0.2
881.25,33.3,,,32.2,32.7,0.7
882.0,33.3,,,31.8,32.5,1.1
882.75,33.4,,,31.5,32.5,1.4
883.5,33.5,,,,33.5,
884.25,33.3,,,,33.3,
885.0,32.9,,,,32.9,
885.75,33.0,,,,33.0,
886.5,32.8,,,,32.8,
887.25,33.6,,,,33.6,
888.0,32.9,,,,32.9,
888.75,32.8,,,,32.8,
889.5,32.7,,,,32.7,
890.25,32.3,,,,32.3,
891.0,31.7,,,,31.7,
891.75,31.3,,,,31.3,
892.5,31.9,,,,31.9,
893.25,31.2,,,,31.2,