File: 01_Data/Homasote/Cone/Homasote_Cone_HF50Scan_230608_R1.csv
Names,Time,Stack TC,Smoke TC,Exh Press,Smoke Comp,Smoke Meas,CO Meter,CO2 Meter,O2 Meter,Sample Mass,Ext Coeff,Start Test,Flame Verif
Chan Gain,,500,500,1,1,1,1,1,1,1,1,1.0,1.0
Offset,,0,0,0.143883,0,0,0,0,0,0,0,0.0,0.0
Gain,,1,1,25.011,13.2306,13.9176,1,1,1,1.00094,1.03262,1.0,1.0
Units,sec,C,C,Pa,%,%,%,%,%,g,/m,,
Baseline,,37.4758,38.1566,154.705,99.5765,99.534,0.00035266,0.0538965,20.9494,-445.536,0.00387505,,
9,2,34.7643,35.3925,156.222,100.006,99.8244,0.000406989,0.0617587,20.9398,103.587,0.016452,0.0,0.0
18,4.25,34.8011,35.2436,155.608,100.005,99.0369,0.000548761,0.066731,20.9403,103.517,0.0880796,0.0,0.0
27,6.5,34.9971,35.5814,158.948,99.9913,98.1807,0.000715664,0.0731594,20.935,103.357,0.165527,0.0,0.0
36,8.75,35.1526,35.9827,157.044,100.001,96.6329,0.000651061,0.0750258,20.9275,103.247,0.310333,0.0,0.0
45,11,35.3958,36.1201,138.685,100.007,99.8749,0.000511729,0.0728009,20.9243,102.927,0.0120135,0.0,1.0
54,13.25,38.3223,36.9093,137.481,100.007,99.4825,0.000525943,0.0691695,20.9259,102.566,0.0476761,0.0,1.0
63,15.5,39.433,36.6756,137.236,99.995,99.1231,0.000621873,0.0661744,20.9304,102.276,0.0793195,0.0,0.0
72,17.75,41.3966,38.862,135.392,100.002,98.605,0.000740301,0.0854636,20.934,101.946,0.127453,0.0,0.0
81,20,42.7277,39.7298,142.998,100.001,98.4427,0.00106628,0.17809,20.9209,101.595,0.142223,0.0,0.0
90,22.25,44.4173,41.3417,138.03,100,97.922,0.00140221,0.289999,20.8257,101.295,0.190227,0.0,0.0
99,24.5,45.5831,42.3447,140.834,100.006,97.5661,0.00186354,0.373452,20.6836,100.925,0.223759,0.0,0.0
108,26.75,46.2356,43.3806,137.318,100.023,95.8973,0.00247825,0.417387,20.587,100.584,0.381528,0.0,0.0
117,29,47.7817,44.5481,139.79,100.003,95.7652,0.00286968,0.433498,20.5285,100.324,0.392184,0.0,0.0
126,31.25,48.8015,45.3575,136.683,99.9986,96.1309,0.00304091,0.435521,20.5063,100.014,0.357295,0.0,0.0
135,33.5,49.1715,46.473,138.725,100.006,95.9024,0.00326965,0.433051,20.5009,99.7137,0.379547,0.0,0.0
144,35.75,50.3646,46.8679,141.714,100.024,96.4677,0.00352434,0.430295,20.5043,99.4634,0.327918,0.0,0.0
153,38,50.8235,48.0017,141.163,99.9857,96.2571,0.00368345,0.425881,20.5081,99.1732,0.344247,0.0,0.0
162,40.25,50.7891,48.9016,141.447,99.9824,96.5013,0.00378154,0.418137,20.5129,98.8328,0.321,0.0,0.0
171,42.5,51.7809,49.1705,140.445,99.9824,96.3994,0.00376331,0.408632,20.5224,98.6327,0.330574,0.0,0.0
180,44.75,52.0483,49.5723,141.086,99.9647,97.1409,0.00367646,0.403229,20.5327,98.3324,0.25955,0.0,0.0
189,47,52.1203,49.9596,139.898,99.9332,97.1312,0.00377711,0.395272,20.5396,98.1022,0.257606,0.0,0.0
198,49.25,52.5338,51.1763,141.65,99.9178,97.4854,0.00394031,0.382951,20.5458,97.8519,0.223242,0.0,0.0
207,51.5,52.8507,50.9378,142.411,99.8811,97.4276,0.00397766,0.370194,20.5649,97.5717,0.22528,0.0,0.0
216,53.75,53.0868,51.6599,137.612,99.8274,97.3537,0.00385804,0.35922,20.5808,97.3915,0.227281,0.0,0.0
225,56,52.7399,51.6842,145.263,99.7967,97.6158,0.00360734,0.348849,20.595,97.1012,0.200147,0.0,0.0
234,58.25,53.3643,51.9602,144.592,99.7551,97.9534,0.00348088,0.340413,20.6077,96.881,0.165093,0.0,0.0
243,60.5,53.5101,52.1715,145.89,99.7014,98.0749,0.00333636,0.333683,20.6182,96.6708,0.148989,0.0,0.0
252,62.75,53.5275,53.0616,141.085,99.6465,98.0261,0.00301328,0.325628,20.6252,96.4706,0.148511,0.0,0.0
261,65,53.5183,52.726,143.278,99.6243,98.323,0.00276785,0.317685,20.6371,96.2704,0.119101,0.0,0.0
270,67.25,53.4458,52.8212,145.822,99.5662,98.2151,0.00262309,0.311012,20.6456,96.0703,0.123757,0.0,0.0
279,69.5,53.4052,53.6144,146.417,99.4955,98.3824,0.0025951,0.305871,20.6512,95.8701,0.101905,0.0,0.0
288,71.75,53.1409,53.5207,145.639,99.4479,98.3709,0.00267874,0.300201,20.6569,95.6098,0.0986226,0.0,0.0
297,74,53.4284,53.5248,148.901,99.4055,98.9728,0.00279748,0.294539,20.6641,95.4397,0.0395111,0.0,0.0
306,76.25,53.3988,53.5367,146.882,99.3727,98.7723,0.00283091,0.288319,20.6705,95.2395,0.0548967,0.0,0.0
315,78.5,53.3166,53.6222,145.106,99.3328,98.5464,0.00266462,0.284641,20.6772,95.0193,0.0719972,0.0,0.0
324,80.75,52.8982,53.2602,142.256,99.3126,98.6237,0.00243651,0.281348,20.6815,94.8491,0.0630542,0.0,0.0
333,83,53.2741,54.0541,147.285,99.294,98.588,0.00220568,0.278636,20.6845,94.6589,0.0646368,0.0,0.0
342,85.25,52.9294,53.4872,145.887,99.361,98.7392,0.00215579,0.275917,20.6874,94.4487,0.0568681,0.0,0.0
351,87.5,52.8819,53.9025,145.189,99.4426,99.2476,0.00214502,0.272233,20.6899,94.2385,0.0177809,0.0,0.0
360,89.75,52.9365,53.8799,142.137,99.5443,99.0904,0.00200423,0.268095,20.6941,94.0383,0.0413977,0.0,0.0
369,92,53.5473,54.1775,145.838,99.613,99.0582,0.00184767,0.263897,20.699,93.8882,0.0505929,0.0,0.0
378,94.25,53.3065,54.1607,145.899,99.7042,99.2561,0.00181357,0.260794,20.7055,93.698,0.0408065,0.0,0.0
387,96.5,53.0482,54.1723,145.943,99.8096,99.7641,0.00181645,0.258408,20.709,93.4978,0.00413578,0.0,0.0
396,98.75,52.6196,54.2081,142.101,99.9041,99.7768,0.00179726,0.256592,20.7119,93.3177,0.0115487,0.0,0.0
405,101,52.4762,54.3629,147.447,99.9542,99.821,0.00182784,0.255207,20.715,93.1375,0.0120792,0.0,0.0
414,103.25,52.7971,54.0133,146.531,99.9929,99.9068,0.00187611,0.254679,20.7162,92.9273,0.00780792,0.0,0.0
423,105.5,52.4501,54.4154,147.15,100.033,99.8949,0.00196666,0.253998,20.7168,92.7371,0.0125073,0.0,0.0
432,107.75,52.4871,54.0565,146.86,100.049,100.101,0.00206829,0.251775,20.717,92.587,-0.0047648,0.0,0.0
441,110,52.1685,54.1741,148.409,100.04,100.02,0.00216882,0.249985,20.7188,92.3968,0.00177394,0.0,0.0
450,112.25,52.4301,54.2427,142.413,100.014,99.7585,0.00219977,0.249403,20.7207,92.2266,0.0231591,0.0,0.0
459,114.5,52.5883,53.796,144.039,100.029,99.9824,0.00214631,0.248684,20.7214,92.0465,0.00424802,0.0,0.0
468,116.75,52.1054,54.2032,143.537,99.9441,99.9425,0.0021043,0.247284,20.7229,91.8363,0.000147932,0.0,0.0
477,119,52.0182,54.2063,143.833,99.8783,99.7832,0.00205811,0.24415,20.7246,91.6961,0.00862783,0.0,0.0
486,121.25,52.2871,53.6624,145.61,99.8185,99.8775,0.00199891,0.24137,20.729,91.516,-0.00534822,0.0,0.0
495,123.5,52.9931,54.1989,142.28,99.7337,99.7517,0.00191875,0.240354,20.7322,91.3358,-0.00163713,0.0,0.0
504,125.75,52.1651,54.288,147.067,99.6348,99.6099,0.00189636,0.239305,20.7335,91.1356,0.00226514,0.0,0.0
513,128,52.1735,54.1955,145.657,99.6376,99.5602,0.00199827,0.237882,20.7351,90.9555,0.00704081,0.0,0.0
522,130.25,52.2671,54.1543,144.242,99.6905,99.6299,0.00210844,0.235892,20.737,90.7953,0.00551395,0.0,0.0
531,132.5,51.5549,54.453,149.075,99.7341,99.7271,0.00209746,0.232434,20.7391,90.6051,0.000637061,0.0,0.0
540,134.75,52.2178,54.3542,147.966,99.7761,99.8371,0.00202601,0.2294,20.7453,90.455,-0.00553676,0.0,0.0
549,137,52.1765,54.1262,149.259,99.8488,99.8626,0.00201936,0.229125,20.7487,90.2848,-0.00125266,0.0,0.0
558,139.25,52.1452,54.0075,148.977,99.9085,99.9042,0.00203522,0.228351,20.7489,90.0946,0.00039196,0.0,0.0
567,141.5,52.025,53.9186,147.976,99.9732,100.088,0.00200266,0.226929,20.749,89.9345,-0.010412,0.0,0.0
576,143.75,52.2757,54.1139,145.981,100.046,100.094,0.00195425,0.225959,20.7504,89.7343,-0.00436723,0.0,0.0
585,146,52.1689,54.2667,145.366,100.14,100.092,0.00177827,0.224913,20.753,89.6142,0.00426313,0.0,0.0
594,148.25,51.171,54.2193,147.379,100.205,100.357,0.00170874,0.223664,20.7549,89.394,-0.0137747,0.0,0.0
603,150.5,52.0623,54.0979,142.972,100.279,100.433,0.00171498,0.222208,20.7561,89.2338,-0.0139191,0.0,0.0
612,152.75,52.0195,53.7855,148.483,100.337,100.477,0.00171609,0.221357,20.7577,89.1037,-0.0126517,0.0,0.0
621,155,51.606,54.0811,148.872,100.444,100.688,0.00172284,0.219579,20.7597,88.8935,-0.0220072,0.0,0.0
630,157.25,51.8302,53.5295,147.113,100.469,100.544,0.00176017,0.218483,20.7604,88.7434,-0.00675128,0.0,0.0
639,159.5,51.4267,54.0193,144.705,100.508,100.669,0.00178779,0.218296,20.7607,88.5732,-0.0144977,0.0,0.0
648,161.75,52.1617,54.3483,144.606,100.542,100.664,0.00174006,0.217218,20.7608,88.383,-0.0109472,0.0,0.0
657,164,51.9364,54.113,153.957,100.542,100.652,0.00168943,0.216645,20.7622,88.2329,-0.00987639,0.0,0.0
666,166.25,51.8039,53.8265,147.491,100.532,100.694,0.00168705,0.217123,20.763,88.0527,-0.0146437,0.0,0.0
675,168.5,51.9353,54.1831,141.595,100.534,100.577,0.00170906,0.217801,20.7633,87.9226,-0.00383627,0.0,0.0
684,170.75,51.7982,54.9562,148.494,100.513,100.626,0.00172888,0.217193,20.762,87.7124,-0.0101639,0.0,0.0
693,173,51.6745,53.9788,143.768,100.468,100.557,0.0018015,0.215629,20.7621,87.5623,-0.00800649,0.0,0.0
702,175.25,51.3856,54.0762,148.104,100.417,100.444,0.00182985,0.214443,20.7642,87.4421,-0.00245148,0.0,0.0
711,177.5,50.9407,53.9626,144.439,100.388,100.443,0.00185288,0.212958,20.7665,87.262,-0.00492199,0.0,0.0
720,179.75,51.3937,53.7683,145.781,100.329,100.357,0.00188743,0.211763,20.7683,87.1018,-0.00257623,0.0,0.0
729,182,51.56,53.8261,143.904,100.274,100.509,0.0017533,0.210721,20.7711,86.9617,-0.0212089,0.0,0.0
738,184.25,51.2357,53.6552,142.001,100.192,100.296,0.00155105,0.209563,20.7722,86.7715,-0.00938402,0.0,0.0
747,186.5,51.2945,52.9707,143.878,100.151,100.323,0.00149683,0.209455,20.7713,86.6114,-0.0155625,0.0,0.0
756,188.75,51.5948,53.8298,149.254,100.058,100.232,0.00164956,0.209504,20.7707,86.4612,-0.0157534,0.0,0.0
765,191,51.344,53.3998,146.301,100.001,100.069,0.00175976,0.209767,20.7705,86.2911,-0.00615966,0.0,0.0
774,193.25,51.0475,53.2226,146.495,99.9417,99.9425,0.00181448,0.210551,20.7704,86.171,-7.18071e-05,0.0,0.0
783,195.5,51.0494,53.223,147.945,99.8908,100.058,0.00190779,0.211869,20.7691,86.0108,-0.0151866,0.0,0.0
792,197.75,51.2039,53.309,146.659,99.827,99.8957,0.00201201,0.212493,20.7684,85.8907,-0.0062353,0.0,0.0
801,200,51.0444,53.3811,146.077,99.7729,99.7815,0.0019649,0.211224,20.7681,85.7105,-0.00078073,0.0,0.0
810,202.25,51.0516,53.2133,144.932,99.7224,99.7105,0.00184708,0.209569,20.7688,85.5804,0.00107758,0.0,0.0
819,204.5,51.0435,53.1979,142.778,99.6671,99.7946,0.00169655,0.209765,20.7697,85.4403,-0.0115845,0.0,0.0
828,206.75,51.1948,53.3994,146.657,99.6287,99.7458,0.00154915,0.21081,20.7699,85.2701,-0.0106369,0.0,0.0
837,209,51.1287,53.4832,147.792,99.5867,99.5789,0.00143022,0.210102,20.7706,85.14,0.00071588,0.0,0.0
846,211.25,51.3174,53.2725,145.906,99.5548,99.609,0.00155765,0.208688,20.7725,85.0099,-0.00492956,0.0,0.0
855,213.5,50.9726,53.0438,145.306,99.5234,99.6647,0.00180183,0.208507,20.7749,84.8797,-0.0128534,0.0,0.0
864,215.75,50.8833,53.4474,142.409,99.4951,99.6371,0.00185098,0.208684,20.7758,84.7296,-0.0129161,0.0,0.0
873,218,51.0153,52.8121,149.349,99.485,99.6324,0.00186583,0.208739,20.7746,84.4794,-0.0134108,0.0,0.0
882,220.25,51.1882,53.1405,143.539,99.4378,99.4927,0.00192085,0.20865,20.7737,84.2892,-0.00499978,0.0,0.0
891,222.5,51.5129,53.0063,148.315,99.4192,99.3975,0.00190487,0.207897,20.7736,84.1591,0.00197366,0.0,0.0
900,224.75,51.3608,53.3974,144.231,99.4172,99.4727,0.00184892,0.208366,20.7748,84.0289,-0.00505866,0.0,0.0
909,227,51.4684,53.1534,142.391,99.4095,99.4107,0.00181396,0.210396,20.7741,83.8888,-0.000109061,0.0,0.0
918,229.25,51.3605,52.8705,144.737,99.3869,99.4268,0.00173486,0.212867,20.7721,83.7487,-0.00363912,0.0,0.0
927,231.5,51.3487,52.6999,149.332,99.3627,99.3814,0.0016359,0.213341,20.7688,83.5585,-0.00170733,0.0,0.0
936,233.75,51.3683,53.2907,138.716,99.3683,99.3903,0.00149876,0.213261,20.7677,83.4784,-0.00200487,0.0,0.0
945,236,51.4469,53.4376,144.584,99.3481,99.3393,0.00148727,0.213363,20.7684,83.2782,0.000801178,0.0,0.0
954,238.25,51.1616,53.1749,147.911,99.3247,99.3427,0.001484,0.213905,20.7675,83.1581,-0.00164469,0.0,0.0
963,240.5,51.1927,52.967,150.486,99.3207,99.3372,0.00147205,0.214708,20.7666,83.038,-0.00150915,0.0,0.0
972,242.75,51.5303,54.1658,149.251,99.3142,99.3678,0.00149011,0.216363,20.765,82.8679,-0.00488634,0.0,0.0
981,245,51.0914,53.2844,145.467,99.2948,99.2837,0.00161668,0.217811,20.7629,82.7177,0.00101496,0.0,0.0
990,247.25,51.2749,53.2435,144.888,99.2977,99.2285,0.00174878,0.217907,20.7619,82.4975,0.00631248,0.0,0.0
999,249.5,51.4625,53.5052,145.587,99.3086,99.3015,0.00168483,0.21664,20.7624,82.3874,0.0006403,0.0,0.0
1008,251.75,51.426,53.3484,144.835,99.3404,99.3262,0.00161651,0.217352,20.7637,82.2272,0.00130215,0.0,0.0
1017,254,51.5621,52.8537,145.298,99.3388,99.2064,0.00171073,0.218376,20.7628,82.0871,0.0120846,0.0,0.0
1026,256.25,51.5085,53.4798,145.547,99.3707,99.2038,0.00175669,0.218859,20.7614,81.927,0.0152254,0.0,0.0
1035,258.5,51.3286,53.1264,144.718,99.4204,99.1881,0.00171954,0.219704,20.7599,81.8269,0.0211858,0.0,0.0
1044,260.75,51.4687,53.2887,150.291,99.4232,99.3865,0.00153299,0.221293,20.7579,81.6167,0.00334785,0.0,0.0
1053,263,51.7148,53.5003,145.318,99.4418,99.3304,0.00131758,0.221012,20.7566,81.4565,0.0101509,0.0,0.0
1062,265.25,51.5744,53.2785,146.689,99.4902,99.3398,0.00129982,0.220361,20.7576,81.3464,0.0137117,0.0,0.0
1071,267.5,51.6038,53.1996,145.24,99.5205,99.3525,0.00138044,0.220834,20.7579,81.1262,0.0153062,0.0,0.0
1080,269.75,51.735,53.1986,147.878,99.5347,99.4753,0.00147488,0.221988,20.7581,81.0261,0.00540819,0.0,0.0
1089,272,51.86,53.3783,148.566,99.5738,99.3924,0.00153174,0.221873,20.7568,80.8159,0.0165167,0.0,0.0
1098,274.25,51.5313,53.1064,142.417,99.6291,99.426,0.00153204,0.222203,20.7571,80.6958,0.01849,0.0,0.0
1107,276.5,51.7123,53.1818,141.351,99.6711,99.4349,0.00155973,0.223947,20.7578,80.5256,0.0214949,0.0,0.0
1116,278.75,51.8607,53.4682,149.223,99.7176,99.485,0.00154211,0.225523,20.7568,80.3355,0.0211491,0.0,0.0
1125,281,51.6009,53.3348,149.223,99.7664,99.6778,0.00149658,0.226542,20.7553,80.1953,0.00804635,0.0,0.0
1134,283.25,52.2544,53.587,150.574,99.8217,99.7195,0.00148685,0.227983,20.7545,80.0652,0.00928477,0.0,0.0
1143,285.5,52.1484,53.7749,143.453,99.8613,99.5334,0.00157573,0.229379,20.7538,79.855,0.0297891,0.0,0.0
1152,287.75,52.2429,53.9183,142.66,99.8977,99.4893,0.00163354,0.232164,20.7519,79.6949,0.0371058,0.0,0.0
1161,290,52.1682,53.928,142.638,99.9574,99.6851,0.00164485,0.234668,20.7491,79.5547,0.0247132,0.0,0.0
1170,292.25,52.3671,54.1148,145.164,99.9913,99.7959,0.0015464,0.235404,20.7464,79.4046,0.0177184,0.0,0.0
1179,294.5,52.689,53.6697,144.268,100.018,99.6923,0.00132551,0.237985,20.7442,79.1944,0.0295071,0.0,0.0
1188,296.75,52.3632,54.0234,142.386,100.065,99.6422,0.00118424,0.242093,20.7417,79.0443,0.0383392,0.0,0.0
1197,299,52.6203,54.1364,145.02,100.08,99.7008,0.00128729,0.244419,20.7367,78.8941,0.0344019,0.0,0.0
1206,301.25,52.7412,54.1564,148.485,100.095,99.6095,0.00146256,0.24517,20.7344,78.6739,0.044091,0.0,0.0
1215,303.5,52.6438,54.1644,143.296,100.108,99.4999,0.00157767,0.244963,20.7323,78.5238,0.0551554,0.0,0.0
1224,305.75,53.4026,54.7817,142.562,100.125,99.4315,0.00162721,0.244712,20.7312,78.3536,0.062991,0.0,0.0
1233,308,53.0284,54.4582,145.105,100.146,99.4842,0.00167108,0.24832,20.7304,78.1734,0.0600566,0.0,0.0
1242,310.25,53.2904,54.6636,140.241,100.137,99.35,0.00168663,0.253011,20.727,78.0433,0.0714455,0.0,0.0
1251,312.5,53.3578,54.5515,142.86,100.144,99.3296,0.00176084,0.255557,20.7224,77.8632,0.0739617,0.0,0.0
1260,314.75,53.4618,54.4301,142.253,100.145,99.4442,0.00183245,0.256433,20.719,77.683,0.0636193,0.0,0.0
1269,317,53.4622,54.8604,148.337,100.125,99.3113,0.00182192,0.257871,20.7172,77.5328,0.0739477,0.0,0.0
1278,319.25,53.9606,55.0887,146.493,100.109,99.1852,0.00177224,0.261938,20.7154,77.3226,0.0839627,0.0,0.0
1287,321.5,54.2806,55.4261,144.133,100.104,99.1057,0.00175127,0.265738,20.7127,77.1325,0.0907803,0.0,0.0
1296,323.75,53.3225,55.026,143.065,100.097,99.045,0.00164441,0.269899,20.7071,76.9523,0.0956752,0.0,0.0
1305,326,54.0949,55.1517,146.911,100.056,99.0055,0.00145149,0.272209,20.7022,76.7921,0.0955609,0.0,0.0
1314,328.25,53.6718,55.249,144.319,100.043,98.9104,0.00132733,0.271915,20.6991,76.612,0.103174,0.0,0.0
1323,330.5,53.6692,55.4372,142.445,99.9962,98.6564,0.0014524,0.269899,20.6989,76.4718,0.122185,0.0,0.0
1332,332.75,53.8289,54.9021,139.642,99.9651,98.6521,0.00169872,0.268677,20.7018,76.2616,0.119758,0.0,0.0
1341,335,53.6716,55.3005,145.481,99.911,98.6559,0.00183327,0.26839,20.7035,76.0915,0.114503,0.0,0.0
1350,337.25,54.2086,55.3467,143.631,99.8908,98.5999,0.00175063,0.269955,20.7044,75.9113,0.117822,0.0,0.0
1359,339.5,54.399,55.414,140.331,99.8867,98.3157,0.00165049,0.271113,20.7032,75.7111,0.143597,0.0,0.0
1368,341.75,54.4922,55.4227,148.278,99.8516,98.3981,0.00156184,0.271173,20.7024,75.551,0.132822,0.0,0.0
1377,344,54.4226,55.5235,143.207,99.8298,98.2822,0.00156923,0.271665,20.7021,75.3808,0.141524,0.0,0.0
1386,346.25,54.0977,55.4834,143.701,99.8185,98.1705,0.00176443,0.272089,20.702,75.2006,0.150799,0.0,0.0
1395,348.5,54.7407,55.8146,144.197,99.7806,98.1611,0.00194957,0.272269,20.7016,74.9604,0.148217,0.0,0.0
1404,350.75,54.4073,55.9747,146.603,99.7579,98.2189,0.00187758,0.272108,20.7,74.8403,0.140835,0.0,0.0
1413,353,54.1782,56.2122,141.872,99.7329,97.9292,0.00162915,0.272593,20.6993,74.6101,0.165315,0.0,0.0
1422,355.25,54.895,55.8992,137.29,99.7047,97.9178,0.00145246,0.272898,20.699,74.46,0.163809,0.0,0.0
1431,357.5,54.6695,56.2202,147.054,99.6493,97.9411,0.00144435,0.273657,20.6989,74.2498,0.156621,0.0,0.0
1440,359.75,55.7142,56.5182,144.496,99.6396,97.6018,0.00159031,0.274317,20.6978,74.0396,0.18718,0.0,0.0
1449,362,55.2407,56.0404,139.228,99.6057,97.7734,0.00171715,0.27492,20.6971,73.8794,0.168186,0.0,0.0
1458,364.25,55.0819,56.4384,138.77,99.5698,97.4777,0.00174005,0.27628,20.6959,73.6992,0.192345,0.0,0.0
1467,366.5,55.3959,56.4339,140.237,99.5302,97.7712,0.00181293,0.27637,20.6934,73.5091,0.161513,0.0,0.0
1476,368.75,55.4455,56.6403,144.503,99.5141,97.5941,0.00190222,0.27703,20.6925,73.3189,0.176467,0.0,0.0
1485,371,55.6179,56.749,142.859,99.4725,97.5674,0.00186698,0.278378,20.6921,73.1287,0.175165,0.0,0.0
1494,373.25,55.5017,56.9585,143.661,99.4515,97.7432,0.00174782,0.279207,20.6925,72.9485,0.156942,0.0,0.0
1503,375.5,55.5798,56.813,146.831,99.4139,97.3911,0.00177262,0.279611,20.6918,72.7483,0.18621,0.0,0.0
1512,377.75,55.844,56.6804,143.682,99.395,97.6714,0.00186923,0.280077,20.6906,72.5482,0.158447,0.0,0.0
1521,380,55.8361,57.1386,140.548,99.3602,97.2768,0.0018547,0.281073,20.6885,72.3179,0.191949,0.0,0.0
1530,382.25,55.6835,56.9535,140.185,99.3235,97.3648,0.00182587,0.281796,20.6874,72.1378,0.180416,0.0,0.0
1539,384.5,55.8054,57.5639,144.86,99.3182,97.3635,0.00185744,0.282225,20.6868,71.9376,0.180055,0.0,0.0
1548,386.75,56.3714,57.3302,146.14,99.2851,97.383,0.00204198,0.283043,20.6858,71.8075,0.175218,0.0,0.0
1557,389,55.9244,57.3008,143.388,99.2452,97.2441,0.00214274,0.283292,20.6854,71.6373,0.184498,0.0,0.0
1566,391.25,56.0048,57.5542,148.242,99.2121,97.4892,0.00198399,0.283612,20.6853,71.4471,0.158676,0.0,0.0
1575,393.5,56.2433,57.2097,146.338,99.1894,97.2046,0.00178965,0.283512,20.6852,71.277,0.183091,0.0,0.0
1584,395.75,55.9337,57.5645,143.691,99.1604,97.3856,0.00173259,0.284612,20.6845,71.0768,0.163592,0.0,0.0
1593,398,56.1233,57.5779,144.273,99.1087,97.5049,0.00181836,0.285327,20.6829,70.8966,0.147775,0.0,0.0
1602,400.25,56.7497,57.7852,143.166,99.0857,97.2964,0.00187846,0.284807,20.6813,70.6764,0.165065,0.0,0.0
1611,402.5,56.4301,58.0352,138.196,99.0594,97.2633,0.00192033,0.284089,20.6807,70.5062,0.165751,0.0,0.0
1620,404.75,56.5765,57.8636,142.624,99.0203,97.0331,0.00202226,0.283954,20.6804,70.286,0.183633,0.0,0.0
1629,407,56.6177,58.159,142.427,98.9928,97.1987,0.00198414,0.284347,20.6803,70.1059,0.165671,0.0,0.0
1638,409.25,56.6472,57.8085,142.978,98.9815,97.1167,0.00192327,0.284502,20.6803,69.9057,0.172278,0.0,0.0
1647,411.5,56.9677,58.0061,142.047,98.9456,97.5903,0.00200698,0.284967,20.6803,69.7255,0.124927,0.0,0.0
1656,413.75,56.869,58.178,143.874,98.9234,97.2688,0.00203162,0.285616,20.6803,69.5453,0.152784,0.0,0.0
1665,416,56.6986,58.3655,143.901,98.8975,96.8479,0.0018456,0.285594,20.6805,69.3652,0.1897,0.0,0.0
1674,418.25,56.7446,58.2325,143.03,98.8939,96.9795,0.00172302,0.285716,20.6801,69.195,0.177061,0.0,0.0
1683,420.5,56.8588,58.0451,146.358,98.8919,97.2717,0.00172645,0.286276,20.6792,69.0048,0.149624,0.0,0.0
1692,422.75,57.1427,58.9719,145.37,98.8579,97.2008,0.00178309,0.285934,20.6788,68.7946,0.153125,0.0,0.0
1701,425,57.3935,58.9903,142.157,98.8515,96.8071,0.00179267,0.285913,20.6787,68.6045,0.189298,0.0,0.0
1710,427.25,57.1409,58.7705,142.193,98.8402,97.115,0.00180388,0.286106,20.6782,68.4843,0.159495,0.0,0.0
1719,429.5,57.2116,58.9918,144.73,98.8305,97.1371,0.00182336,0.284466,20.6774,68.2942,0.156547,0.0,0.0
1728,431.75,57.1653,59.0638,142.372,98.8301,96.8725,0.00184093,0.282753,20.6785,68.114,0.181219,0.0,0.0
1737,434,57.8442,59.1451,141.191,98.8273,96.9507,0.00181958,0.283011,20.6789,67.9038,0.173655,0.0,0.0
1746,436.25,57.2851,58.9721,141.285,98.8321,97.1188,0.0018621,0.282106,20.6791,67.7236,0.158399,0.0,0.0
1755,438.5,57.8545,59.0209,144.313,98.8252,96.9868,0.00196804,0.280768,20.6801,67.5735,0.170098,0.0,0.0
1764,440.75,57.6413,59.452,138.287,98.845,96.9825,0.0019734,0.282316,20.6815,67.3833,0.172308,0.0,0.0
1773,443,57.687,59.1978,143.916,98.8543,97.0233,0.00189365,0.284257,20.6812,67.2332,0.169351,0.0,0.0
1782,445.25,57.4675,59.4882,145.452,98.8571,97.1842,0.00179685,0.284465,20.6786,67.043,0.154594,0.0,0.0
1791,447.5,57.3102,59.2985,142.109,98.8644,97.0972,0.00177421,0.283721,20.6775,66.8728,0.16338,0.0,0.0
1800,449.75,57.5379,59.1847,146.727,98.9012,97.067,0.00188524,0.28291,20.6785,66.6426,0.169559,0.0,0.0
1809,452,57.5891,58.9832,140.15,98.9262,97.2841,0.00196525,0.282325,20.6804,66.5425,0.151621,0.0,0.0
1818,454.25,57.2881,59.535,139.052,98.9423,97.3809,0.00199242,0.281255,20.6819,66.3323,0.144087,0.0,0.0
1827,456.5,57.7668,59.474,144.893,98.9775,97.2225,0.00203067,0.280984,20.6832,66.1722,0.16205,0.0,0.0
1836,458.75,57.6109,59.0759,140.257,99.0324,97.4106,0.00207287,0.280632,20.6836,66.002,0.14956,0.0,0.0
1845,461,57.4957,59.2651,150.01,99.0518,97.397,0.00212318,0.279311,20.6838,65.8318,0.152597,0.0,0.0
1854,463.25,57.4231,58.9991,143.115,99.0873,97.431,0.00219608,0.278625,20.6839,65.6417,0.152687,0.0,0.0
1863,465.5,57.315,58.7536,139.696,99.1507,97.4247,0.00223577,0.278481,20.6846,65.4715,0.159072,0.0,0.0
1872,467.75,57.5304,59.5464,142.032,99.2044,97.8481,0.00227765,0.277861,20.6863,65.3314,0.124692,0.0,0.0
1881,470,57.4744,59.4893,147.641,99.2439,97.928,0.0021596,0.275307,20.6872,65.1312,0.120914,0.0,0.0
1890,472.25,57.5004,59.3806,144.655,99.3013,97.7181,0.00202493,0.271198,20.6918,64.961,0.145574,0.0,0.0
1899,474.5,57.7005,59.1579,145.98,99.3937,97.7364,0.00198306,0.269691,20.696,64.8009,0.152312,0.0,0.0
1908,476.75,57.0333,59.0087,144.135,99.4337,97.9186,0.00202436,0.268771,20.6989,64.6607,0.139084,0.0,0.0
1917,479,56.9489,59.0412,147.17,99.4911,98.3196,0.00209235,0.266119,20.7005,64.5306,0.10729,0.0,0.0
1926,481.25,57.0942,58.9647,147.339,99.5557,98.3688,0.00214179,0.263181,20.7025,64.3805,0.108632,0.0,0.0
1935,483.5,56.8954,58.8385,144.352,99.6271,98.2941,0.00207074,0.26024,20.7064,64.2403,0.122018,0.0,0.0
1944,485.75,56.6154,59.085,144.227,99.6849,98.6228,0.00196027,0.256854,20.7117,64.0802,0.0970224,0.0,0.0
1953,488,56.6498,58.8711,146.583,99.7361,98.5667,0.00188958,0.253581,20.716,63.9501,0.106832,0.0,0.0
1962,490.25,56.5473,58.8425,141.612,99.8088,98.3043,0.00190727,0.250162,20.7206,63.83,0.137583,0.0,0.0
1971,492.5,56.3772,58.5737,146.946,99.8516,98.6258,0.00205736,0.247446,20.7246,63.7099,0.111889,0.0,0.0
1980,494.75,55.8613,58.7223,147.234,99.8928,98.8428,0.00209662,0.245305,20.7281,63.5397,0.0957126,0.0,0.0
1989,497,56.3082,58.4723,144.803,99.9324,98.7303,0.001897,0.242623,20.7315,63.4496,0.109622,0.0,0.0
1998,499.25,55.8227,57.9683,145.261,99.9679,98.8568,0.00178273,0.239816,20.7355,63.3195,0.101236,0.0,0.0
2007,501.5,55.8993,58.2828,144.926,99.9917,99.104,0.00178624,0.236743,20.7386,63.1794,0.0807729,0.0,0.0
2016,503.75,55.4175,57.9678,146.36,100.006,99.076,0.00178562,0.233265,20.7422,63.0893,0.0846153,0.0,0.0
2025,506,55.2414,57.5786,145.09,100.036,99.1801,0.00175549,0.229269,20.7449,62.9892,0.0778133,0.0,0.0
2034,508.25,55.103,57.4597,149.349,100.04,99.1401,0.00172974,0.224889,20.7482,62.9091,0.0818624,0.0,0.0
2043,510.5,54.8073,57.4101,147.049,100.046,99.4056,0.00183878,0.220617,20.7525,62.809,0.0581525,0.0,0.0
2052,512.75,54.7103,57.2689,147.798,100.012,99.3398,0.00203549,0.21577,20.7564,62.7289,0.0610821,0.0,0.0
2061,515,54.1004,56.9146,145.992,100.013,99.6371,0.00227981,0.210139,20.7605,62.6789,0.0340856,0.0,0.0
2070,517.25,53.7098,56.6951,150.26,99.9941,99.5882,0.00236205,0.203987,20.7666,62.5488,0.0368455,0.0,0.0
2079,519.5,53.7413,56.047,148.621,99.9481,99.9136,0.0023694,0.197077,20.7733,62.5287,0.00313196,0.0,0.0
2088,521.75,53.4499,56.2259,151.259,99.8997,99.9815,0.00238716,0.191313,20.7808,62.4687,-0.00741966,0.0,0.0
2097,524,52.7755,55.8175,146.782,99.8561,99.7475,0.00259119,0.185441,20.7857,62.3986,0.00985323,0.0,0.0
2106,526.25,52.674,55.2184,153.796,99.7927,99.7454,0.00288182,0.179838,20.7893,62.3886,0.00429335,0.0,0.0
2115,528.5,52.2435,55.2541,149.74,99.7301,99.8486,0.00311654,0.173389,20.7965,62.3586,-0.0107564,0.0,0.0
2124,530.75,51.6548,54.5362,152.492,99.6752,99.7815,0.00334028,0.167877,20.8029,62.2985,-0.00965587,0.0,0.0
2133,533,51.7336,54.4282,151.751,99.617,99.7275,0.00357324,0.162937,20.809,62.2985,-0.0100429,0.0,0.0
2142,535.25,51.3949,54.3038,150.614,99.5359,99.7556,0.0036774,0.159803,20.8135,62.2485,-0.0199708,0.0,0.0
2151,537.5,51.1154,53.5072,147.947,99.4814,99.6549,0.00376651,0.157381,20.8173,62.1884,-0.015788,0.0,0.0
2160,539.75,50.6948,53.5667,147.328,99.4151,99.6893,0.00400816,0.154775,20.8194,62.1484,-0.0249453,0.0,0.0
2169,542,50.5322,53.5914,145.71,99.3509,99.5207,0.00433532,0.152727,20.8224,62.0983,-0.015463,0.0,0.0
2178,544.25,50.4681,53.7877,149.313,99.3073,99.5101,0.00462965,0.152924,20.8242,62.0583,-0.0184732,0.0,0.0
2187,546.5,50.1474,52.9093,148.763,99.29,99.4803,0.0049766,0.155721,20.825,61.9882,-0.0173501,0.0,0.0
2196,548.75,50.2782,52.7891,149.217,99.3215,99.4965,0.00536497,0.158265,20.8223,61.9682,-0.015947,0.0,0.0
2205,551,49.3524,52.6713,152.222,99.4273,99.6392,0.00560699,0.158755,20.8198,61.9382,-0.0192869,0.0,0.0
2214,553.25,49.46,52.3348,148.63,99.525,99.7055,0.00573111,0.156973,20.8194,61.8781,-0.0164111,0.0,0.0
2223,555.5,48.8789,52.0641,148.24,99.6142,99.7993,0.00584763,0.153897,20.8208,61.8181,-0.0168168,0.0,0.0
2232,557.75,49.2523,51.8339,149.873,99.6877,99.9174,0.00604002,0.150741,20.8231,61.8081,-0.0208474,0.0,0.0
2241,560,48.8698,51.4934,151.691,99.7858,99.9854,0.00637302,0.146475,20.8272,61.768,-0.0180956,0.0,0.0
2250,562.25,48.0659,51.2083,152.255,99.875,100.036,0.00670085,0.143044,20.8323,61.788,-0.014615,0.0,0.0
2259,564.5,49.1159,51.1537,150.85,99.9425,100.067,0.00697187,0.140115,20.8371,61.758,-0.0112704,0.0,0.0
2268,566.75,47.8636,50.7554,149.592,99.9574,100.157,0.00711447,0.13792,20.8416,61.6779,-0.0180631,0.0,0.0
2277,569,47.9484,50.4535,147.099,99.974,100.11,0.00720103,0.136596,20.8443,61.5378,-0.0122986,0.0,0.0
2286,571.25,48.0711,49.9916,149.374,99.9933,100.158,0.00739178,0.136125,20.8466,61.5078,-0.0149227,0.0,0.0
2295,573.5,47.9164,49.837,153.97,99.9837,100.103,0.00753334,0.135467,20.8476,61.5578,-0.0108445,0.0,0.0
2304,575.75,47.6297,50.4448,146.471,99.9469,100.083,0.00754316,0.135081,20.848,61.3977,-0.0123668,0.0,0.0
2313,578,47.3234,49.6646,151.799,99.9291,100.041,0.00749795,0.134301,20.8492,61.4277,-0.0101704,0.0,0.0
2322,580.25,47.8488,49.9811,148.014,99.8928,100.071,0.00739153,0.133084,20.8501,61.4377,-0.016119,0.0,0.0
2331,582.5,47.4176,48.9416,149.789,99.8326,99.886,0.00731403,0.1332,20.8508,61.3777,-0.00483664,0.0,0.0
2340,584.75,46.9776,49.2943,148.949,99.7789,99.9667,0.00730805,0.132994,20.8524,61.3877,-0.0170256,0.0,0.0
2349,587,47.0119,49.2883,155.029,99.7394,99.8456,0.00732296,0.133235,20.8532,61.3677,-0.00964344,0.0,0.0
2358,589.25,47.1465,49.4183,143.223,99.6756,99.7598,0.00740809,0.133478,20.8535,61.3076,-0.00765255,0.0,0.0
2367,591.5,47.1325,48.8579,154.527,99.6045,99.7029,0.0074655,0.133127,20.8536,61.3076,-0.00894301,0.0,0.0
2376,593.75,46.8842,48.5399,148.07,99.5851,99.6566,0.00745765,0.133597,20.8537,61.3276,-0.0064995,0.0,0.0
2385,596,46.5145,48.8841,148.681,99.571,99.5738,0.00747897,0.133804,20.8527,61.2575,-0.000253217,0.0,0.0
2394,598.25,46.0961,48.3518,153.25,99.5791,99.6889,0.00754846,0.134561,20.8519,61.2275,-0.00998341,0.0,0.0
2403,600.5,46.7093,48.2758,150.216,99.5742,99.694,0.00758407,0.134914,20.8515,61.1875,-0.0108872,0.0,0.0
2412,602.75,46.6424,48.5251,151.287,99.6005,99.6825,0.00728717,0.133415,20.8514,61.1575,-0.00745802,0.0,0.0
2421,605,46.5885,48.4327,150.149,99.6106,99.6851,0.00702358,0.132368,20.8516,61.1174,-0.00677127,0.0,0.0
2430,607.25,46.6164,48.481,150.6,99.5928,99.6273,0.00690767,0.130971,20.8532,61.0674,-0.00313737,0.0,0.0
2439,609.5,46.1795,47.7691,148.696,99.6033,99.601,0.00688606,0.131898,20.8551,61.0674,0.000212718,0.0,0.0
2448,611.75,46.0767,47.8513,150.84,99.6029,99.6056,0.00695022,0.133314,20.8548,61.0273,-0.000248898,0.0,0.0
2457,614,46.1548,47.5285,155.606,99.5944,99.7008,0.00696807,0.132415,20.8531,60.9773,-0.0096683,0.0,0.0
2466,616.25,45.6699,47.7777,150.07,99.615,99.6184,0.00695645,0.131433,20.8538,60.9172,-0.000306669,0.0,0.0
2475,618.5,45.8963,47.7027,149.529,99.6243,99.6587,0.00690094,0.130073,20.8553,60.8472,-0.00312981,0.0,0.0
2484,620.75,45.4819,47.5183,148.413,99.6287,99.7666,0.00686572,0.129355,20.8571,60.8672,-0.0125263,0.0,0.0
2493,623,45.8768,47.0823,148.738,99.6267,99.6621,0.00691965,0.129005,20.8583,60.8372,-0.00321892,0.0,0.0
2502,625.25,46.0591,47.3717,149.476,99.6344,99.7207,0.00694941,0.128756,20.8588,60.8772,-0.00784708,0.0,0.0
2511,627.5,45.8296,47.3364,148.478,99.6409,99.7479,0.00691704,0.128453,20.8592,60.7871,-0.0097283,0.0,0.0
2520,629.75,46.0926,46.8162,149.74,99.6485,99.7454,0.00684479,0.129118,20.8597,60.717,-0.0087998,0.0,0.0
2529,632,45.6044,46.9354,153.267,99.6505,99.6231,0.00686764,0.129363,20.8587,60.7371,0.0024994,0.0,0.0
2538,634.25,45.5785,46.7262,148.988,99.6663,99.6982,0.0069514,0.128997,20.8583,60.697,-0.00290297,0.0,0.0
2547,636.5,45.6049,47.112,148.225,99.6635,99.6778,0.00706971,0.129908,20.8581,60.667,-0.00130719,0.0,0.0
2556,638.75,45.5322,46.6202,151.808,99.6477,99.6417,0.00704969,0.130061,20.8581,60.5969,0.000543124,0.0,0.0
2565,641,44.9476,46.6554,153.813,99.6404,99.6409,0.00689708,0.129033,20.858,60.637,-4.04927e-05,0.0,0.0
2574,643.25,45.4626,46.5568,146.967,99.6554,99.7585,0.00670706,0.128317,20.858,60.5769,-0.00937159,0.0,0.0
2583,645.5,44.9103,45.6435,145.705,99.6344,99.6167,0.00656705,0.12737,20.859,60.4668,0.00160984,0.0,0.0
2592,647.75,45.0779,46.2319,149.968,99.5989,99.6027,0.00646109,0.126091,20.8599,60.4968,-0.000346083,0.0,0.0
2601,650,44.7132,46.1153,148.402,99.6021,99.5479,0.00637079,0.125997,20.8608,60.4668,0.00493119,0.0,0.0
2610,652.25,44.9119,45.7153,151.922,99.5989,99.5164,0.00640897,0.127057,20.8632,60.3967,0.00749828,0.0,0.0
2619,654.5,44.8144,45.9807,147.953,99.5617,99.4774,0.00648493,0.127319,20.8631,60.3967,0.0076763,0.0,0.0
2628,656.75,44.1432,45.9519,149.243,99.55,99.4944,0.00655321,0.127331,20.8629,60.3867,0.00506393,0.0,0.0
2637,659,45.0044,45.2225,155.826,99.5504,99.522,0.00665039,0.126512,20.8628,60.3667,0.00258792,0.0,0.0
2646,661.25,44.2234,46.0038,151.361,99.5557,99.488,0.00667442,0.125514,20.8643,60.3367,0.00615818,0.0,0.0
2655,663.5,44.2673,45.7758,152.411,99.5783,99.5738,0.00666181,0.125266,20.8665,60.3067,0.000408156,0.0,0.0
2664,665.75,44.4426,45.5241,149.276,99.6001,99.499,0.00670449,0.12567,20.8676,60.2766,0.00919416,0.0,0.0
2673,668,44.2982,45.4201,150.658,99.6618,99.578,0.00666934,0.125536,20.8681,60.2366,0.00762127,0.0,0.0
2682,670.25,44.5647,45.8744,152.377,99.6958,99.5712,0.0066116,0.124672,20.8682,60.2366,0.0113211,0.0,0.0
2691,672.5,44.3008,45.4331,149.483,99.726,99.6294,0.00659629,0.123978,20.8679,60.1665,0.00877993,0.0,0.0
2700,674.75,44.1281,45.5384,149.431,99.7551,99.7033,0.00660915,0.123913,20.8668,60.1565,0.00470348,0.0,0.0
2709,677,44.0258,45.2705,154.085,99.7822,99.9272,0.00651212,0.123978,20.8672,60.1065,-0.0131524,0.0,0.0
2718,679.25,44.6362,45.3907,152.174,99.787,99.7704,0.00651541,0.124167,20.8666,60.0664,0.00150512,0.0,0.0
2727,681.5,44.1429,44.9901,151.279,99.8048,99.7649,0.0066649,0.12409,20.8657,60.0464,0.00361877,0.0,0.0
2736,683.75,43.7143,45.2118,150.407,99.8153,99.8392,0.00674644,0.123377,20.8653,59.9864,-0.00217444,0.0,0.0
2745,686,44.1453,44.5833,151.257,99.8153,99.8715,0.00673549,0.1231,20.8652,59.9964,-0.00510242,0.0,0.0
2754,688.25,43.8933,44.9111,150.842,99.8169,99.8409,0.00669479,0.122997,20.8651,59.9363,-0.002182,0.0,0.0
2763,690.5,43.7209,44.682,153.07,99.833,99.7929,0.00663214,0.122414,20.8651,59.9063,0.00363928,0.0,0.0
2772,692.75,43.6811,44.4391,150.055,99.8347,99.8749,0.00660616,0.122179,20.8665,59.9063,-0.00365155,0.0,0.0
2781,695,43.8444,44.8504,147.393,99.825,99.8341,0.00665507,0.122181,20.8665,59.8662,-0.000832565,0.0,0.0
2790,697.25,43.6342,44.987,154.831,99.8181,99.8945,0.00676801,0.121533,20.8671,59.8062,-0.00692526,0.0,0.0
2799,699.5,43.8477,44.8971,149.641,99.823,99.8477,0.00685258,0.121326,20.8673,59.7561,-0.00224897,0.0,0.0
2808,701.75,43.8291,44.8977,152.205,99.808,99.8872,0.00681398,0.121573,20.8674,59.7361,-0.00718731,0.0,0.0
2817,704,43.787,44.8005,149.431,99.7915,99.7679,0.00677233,0.122533,20.867,59.6961,0.00213991,0.0,0.0
2826,706.25,44.0749,44.4292,147.44,99.785,99.7828,0.00685937,0.123343,20.8664,59.7061,0.00020408,0.0,0.0
2835,708.5,43.7588,44.584,157.096,99.7579,99.8282,0.0069849,0.12436,20.8661,59.6761,-0.00637739,0.0,0.0
2844,710.75,43.432,44.3442,153.125,99.7063,99.7878,0.00707351,0.124623,20.866,59.606,-0.00740885,0.0,0.0
2853,713,43.5353,44.7852,152.467,99.6538,99.7067,0.00709055,0.124376,20.8658,59.586,-0.00481234,0.0,0.0
2862,715.25,43.4993,44.3203,149.226,99.6251,99.6846,0.00701323,0.123617,20.8654,59.5259,-0.00541088,0.0,0.0
2871,717.5,43.505,44.4112,156.924,99.5948,99.6596,0.0068453,0.122496,20.8652,59.5059,-0.00588791,0.0,0.0
2880,719.75,43.4042,44.5436,156.379,99.5682,99.5695,0.00676262,0.121552,20.8654,59.5259,-0.000123638,0.0,0.0
2889,722,43.429,44.262,148.969,99.59,99.666,0.00670396,0.120742,20.8684,59.5059,-0.00690743,0.0,0.0
2898,724.25,43.3118,44.1718,147.177,99.634,99.6163,0.00674443,0.120212,20.871,59.4559,0.001612,0.0,0.0
2907,726.5,43.522,43.9482,149.585,99.6683,99.6536,0.00674,0.119052,20.8726,59.4759,0.00133454,0.0,0.0
2916,728.75,43.5551,43.7181,151.494,99.6917,99.6371,0.006705,0.119211,20.8731,59.2957,0.00496789,0.0,0.0
2925,731,43.5043,44.6185,150.73,99.7543,99.846,0.00683728,0.119972,20.8734,59.3758,-0.00832532,0.0,0.0
2934,733.25,42.8964,44.0529,154.008,99.7915,99.8278,0.00699993,0.119588,20.8735,59.3758,-0.00329561,0.0,0.0
2943,735.5,43.7349,43.732,149.721,99.8395,99.8201,0.00700336,0.11856,20.8735,59.3057,0.00175883,0.0,0.0
2952,737.75,43.5611,44.1578,148.321,99.8989,100,0.0069093,0.117605,20.8749,59.3157,-0.00918567,0.0,0.0
2961,740,43.1086,44.253,151.116,99.9954,100.01,0.00698824,0.118229,20.8755,59.2757,-0.00136281,0.0,0.0
2970,742.25,43.1298,44.3923,147.108,100.047,100.089,0.00717511,0.119438,20.8757,59.2757,-0.00379468,0.0,0.0
2979,744.5,43.2985,43.9462,155.26,100.096,100.12,0.00730883,0.120467,20.8752,59.2256,-0.00214096,0.0,0.0
2988,746.75,43.2607,43.8889,150.706,100.173,100.137,0.00730578,0.121469,20.8724,59.2457,0.00322264,0.0,0.0
2997,749,43.0846,43.7339,151.947,100.219,100.302,0.00729998,0.121918,20.8712,59.1856,-0.00747585,0.0,0.0
3006,751.25,43.5166,44.2075,152.794,100.259,100.26,0.0072864,0.122519,20.8694,59.1656,-0.000100422,0.0,0.0
3015,753.5,43.2673,43.9405,150.408,100.309,100.342,0.00725123,0.122685,20.8686,59.1856,-0.00294402,0.0,0.0
3024,755.75,43.3347,44.0078,148.192,100.358,100.309,0.00726705,0.122641,20.8683,59.1456,0.0044941,0.0,0.0
3033,758,42.8642,43.5361,151.242,100.389,100.423,0.00731622,0.122439,20.8695,59.0955,-0.00312333,0.0,0.0
3042,760.25,43.3549,44.2136,148.689,100.405,100.46,0.0072646,0.12193,20.8687,59.0855,-0.00496197,0.0,0.0
3051,762.5,43.0354,44.0227,149.396,100.457,100.532,0.00714132,0.120579,20.8684,59.0455,-0.00673345,0.0,0.0
3060,764.75,43.1396,43.5645,153.527,100.474,100.474,0.00718807,0.11922,20.8709,59.0355,1.0798e-06,0.0,0.0
3069,767,42.8333,43.7296,155.515,100.47,100.41,0.00725625,0.118293,20.8725,59.0154,0.0054233,0.0,0.0
3078,769.25,43.2227,43.8629,151.402,100.471,100.42,0.00733454,0.117477,20.8742,58.9954,0.00457612,0.0,0.0
3087,771.5,42.9878,43.7418,147.293,100.495,100.463,0.0074486,0.117201,20.8748,58.9754,0.00289125,0.0,0.0
3096,773.75,43.1102,43.571,153.899,100.502,100.506,0.0076218,0.117254,20.875,58.9454,-0.000283992,0.0,0.0
3105,776,42.7198,43.6311,150.01,100.491,100.553,0.00776389,0.116643,20.8751,58.9254,-0.005587,0.0,0.0
3114,778.25,42.83,43.4046,150.595,100.49,100.499,0.00774288,0.116438,20.8752,58.9053,-0.000799629,0.0,0.0
3123,780.5,42.3277,43.8153,145.229,100.491,100.484,0.00755467,0.115818,20.8752,58.8953,0.000612227,0.0,0.0
3132,782.75,42.7766,43.2152,150.581,100.471,100.518,0.00753232,0.115656,20.8752,58.8453,-0.00415765,0.0,0.0
3141,785,42.7685,42.8658,151.147,100.44,100.46,0.00762359,0.115449,20.8752,58.8453,-0.00179373,0.0,0.0
3150,787.25,43.1989,43.4577,150.45,100.431,100.529,0.00773447,0.114852,20.8762,58.7952,-0.00883114,0.0,0.0
3159,789.5,42.6111,43.2458,148.49,100.419,100.495,0.00787368,0.114479,20.877,58.7452,-0.00689932,0.0,0.0
3168,791.75,42.6596,43.39,151.016,100.367,100.382,0.00792178,0.114174,20.8772,58.6951,-0.00141141,0.0,0.0
3177,794,42.3789,43.4985,149.434,100.334,100.36,0.00766717,0.113959,20.8772,58.7052,-0.00236886,0.0,0.0
3186,796.25,42.4915,42.969,150.844,100.294,100.394,0.00756697,0.113937,20.8772,58.6851,-0.00900624,0.0,0.0
3195,798.5,42.1432,43.7627,151.187,100.225,100.338,0.00777194,0.113986,20.8772,58.6551,-0.0102245,0.0,0.0
3204,800.75,42.5496,43.1094,147.799,100.167,100.141,0.00795517,0.114086,20.8772,58.6251,0.00236554,0.0,0.0
3213,803,42.9854,42.8447,152.961,100.099,100.14,0.00800264,0.114239,20.8772,58.6151,-0.00373148,0.0,0.0
3222,805.25,42.5659,43.0973,154.322,100.019,100.123,0.00812448,0.113744,20.8776,58.575,-0.00943212,0.0,0.0
3231,807.5,42.4261,43.2178,152.554,99.9142,99.9446,0.00822258,0.113024,20.8788,58.555,-0.00275337,0.0,0.0
3240,809.75,42.2972,42.9545,155.328,99.8145,99.8316,0.00820127,0.112718,20.8793,58.545,-0.00155343,0.0,0.0
3249,812,42.618,42.6793,147.414,99.722,99.8099,0.00803045,0.112866,20.8794,58.505,-0.00798325,0.0,0.0
3258,814.25,42.5851,43.5414,150.259,99.6267,99.6804,0.00787858,0.11263,20.8793,58.4949,-0.0048777,0.0,0.0
3267,816.5,42.4293,43.0071,146.534,99.4898,99.5491,0.00779942,0.112331,20.879,58.4549,-0.00539792,0.0,0.0
3276,818.75,42.3181,43.4078,150.648,99.4006,99.4595,0.00789719,0.112039,20.8803,58.4049,-0.00536767,0.0,0.0
3285,821,42.21,43.2938,150.558,99.2843,99.3466,0.00794249,0.11154,20.8809,58.4149,-0.00567614,0.0,0.0
3294,823.25,42.1757,43.3957,150.562,99.1745,99.2238,0.00786054,0.111015,20.8811,58.3949,-0.00450227,0.0,0.0
3303,825.5,42.6345,43.139,152.256,99.0744,99.2157,0.0077992,0.110898,20.8812,58.3548,-0.0129161,0.0,0.0
3312,827.75,42.9117,43.2529,149.229,99.0061,99.0195,0.00785854,0.110971,20.8818,58.3348,-0.0012235,0.0,0.0
3321,830,42.9978,42.8167,150.877,98.9371,98.9082,0.0080013,0.110724,20.8815,58.3248,0.00264189,0.0,0.0
3330,832.25,42.1304,43.367,150.222,98.8725,98.9707,0.00804485,0.110724,20.8813,58.2948,-0.00899057,0.0,0.0
3339,834.5,42.4166,42.7355,146.012,98.8378,98.8437,0.00798807,0.110419,20.8813,58.2647,-0.000542077,0.0,0.0
3348,836.75,42.787,43.3153,148.319,98.826,98.8016,0.00791056,0.109892,20.8813,58.2647,0.00223815,0.0,0.0
3357,839,42.4123,43.3719,151.252,98.8216,98.8088,0.00783935,0.109619,20.8831,58.2447,0.00117043,0.0,0.0
3366,841.25,42.1716,43.0159,151.174,98.843,98.746,0.00789547,0.109535,20.885,58.2347,0.00889536,0.0,0.0
3375,843.5,42.5385,43.2017,152.152,98.9024,98.8726,0.00801195,0.109601,20.886,58.1947,0.00272933,0.0,0.0
3384,845.75,42.4894,43.3875,152.326,98.9839,98.9974,0.00809844,0.10943,20.8849,58.1646,-0.00123592,0.0,0.0
3393,848,42.4279,42.9743,149.815,99.0558,98.9719,0.00822861,0.109096,20.8845,58.1246,0.0076709,0.0,0.0
3402,850.25,42.1632,42.8878,148.495,99.1583,99.192,0.00832445,0.1086,20.8857,58.1046,-0.00306932,0.0,0.0
3411,852.5,42.055,43.0312,151.291,99.2758,99.3172,0.00834296,0.108755,20.8863,58.0946,-0.00377631,0.0,0.0
3420,854.75,42.1515,42.6681,146.928,99.3683,99.3882,0.00827994,0.108788,20.8865,58.0645,-0.00181101,0.0,0.0
3429,857,42.5617,42.4823,148.058,99.4713,99.4939,0.00827771,0.108936,20.8858,58.0645,-0.00206374,0.0,0.0
3438,859.25,41.2145,41.1517,151.774,99.5815,99.5351,0.00825503,0.109106,20.8848,58.0145,0.0042178,0.0,0.0
3447,861.5,40.8493,41.3374,152.799,99.6812,99.7038,0.00830979,0.109385,20.8845,58.0145,-0.00204646,0.0,0.0
3456,863.75,40.4902,41.1941,149.801,99.7398,99.6226,0.00839393,0.109261,20.8848,57.9845,0.0106449,0.0,0.0
3465,866,40.3592,41.3312,156.317,99.8044,99.7976,0.00850146,0.108903,20.8859,57.9344,0.000613307,0.0,0.0
3474,868.25,40.5549,41.6166,157.355,99.8831,99.8639,0.00850618,0.108247,20.8863,57.9244,0.00174479,0.0,0.0
3483,870.5,40.4695,41.1284,151.468,99.9501,99.9153,0.00831286,0.1078,20.8861,57.9244,0.00316003,0.0,0.0
3492,872.75,40.2093,41.3326,148.949,99.978,99.9225,0.00821557,0.107768,20.8859,57.8844,0.00503048,0.0,0.0
3501,875,40.7688,41.7765,148.921,100.007,100.094,0.00828534,0.107965,20.8858,57.8744,-0.00784113,0.0,0.0
3510,877.25,40.3755,41.3041,150.034,100.033,100.106,0.00839017,0.108377,20.8858,57.8644,-0.0066886,0.0,0.0
3519,879.5,41.0117,41.2498,150.454,100.026,100.065,0.00836393,0.108517,20.8858,57.8443,-0.00354514,0.0,0.0
3528,881.75,40.8915,41.3976,149.965,100.023,100.14,0.0081253,0.108536,20.8858,57.8243,-0.0106012,0.0,0.0
3537,884,41.0845,41.1894,150.768,100.018,100.12,0.00800773,0.108017,20.8862,57.7943,-0.00930943,0.0,0.0
3546,886.25,40.9299,41.5048,151.913,99.9946,100.055,0.00816249,0.107303,20.8869,57.8043,-0.00543627,0.0,0.0
3555,888.5,40.1918,40.869,149.055,99.959,100.022,0.00829926,0.107297,20.8879,57.7743,-0.00573232,0.0,0.0
3564,890.75,40.5599,41.4568,151.176,99.9009,99.8864,0.00841547,0.107362,20.8879,57.7242,0.00131402,0.0,0.0
3573,893,40.6925,41.4711,150.039,99.8593,99.8804,0.00847865,0.107677,20.888,57.6942,-0.00191793,0.0,0.0
3582,895.25,40.8169,41.6838,153.711,99.7854,99.801,0.00851468,0.107642,20.8881,57.6542,-0.00141735,0.0,0.0
3591,897.5,40.6974,41.4835,153.212,99.7075,99.7823,0.00852813,0.10729,20.8881,57.6542,-0.0067972,0.0,0.0
3600,899.75,40.7707,41.214,150.465,99.655,99.7441,0.00856396,0.106936,20.8881,57.6341,-0.00809673,0.0,0.0
3609,902,40.9565,41.8518,152.109,99.5964,99.6464,0.00858512,0.106538,20.8891,57.6041,-0.00454441,0.0,0.0
3618,904.25,40.8261,41.22,156.155,99.5133,99.55,0.00863235,0.106119,20.8895,57.6041,-0.00334368,0.0,0.0
3627,906.5,40.3972,41.1237,148.879,99.4458,99.4897,0.00859479,0.105921,20.8903,57.5641,-0.00399345,0.0,0.0
3636,908.75,40.298,41.3661,152.026,99.3845,99.5483,0.00845572,0.105532,20.8908,57.534,-0.0149206,0.0,0.0
3645,911,40.3816,41.1455,150.702,99.3316,99.3975,0.00835885,0.105325,20.8913,57.524,-0.00601271,0.0,0.0
3654,913.25,40.7789,41.4931,149.947,99.2637,99.3296,0.00833371,0.105481,20.8907,57.494,-0.00600569,0.0,0.0
3663,915.5,40.6915,41.0749,152.057,99.2536,99.3869,0.00843968,0.105918,20.8905,57.484,-0.0121538,0.0,0.0
3672,917.75,40.4683,40.9776,148.598,99.3501,99.4982,0.00856086,0.105732,20.8904,57.444,-0.013487,0.0,0.0
3681,920,40.4205,40.9028,149.43,99.4208,99.5589,0.00849471,0.105382,20.8903,57.4239,-0.0125755,0.0,0.0
3690,922.25,40.4051,41.3726,148.337,99.5217,99.6545,0.00834974,0.105256,20.8903,57.3939,-0.0120737,0.0,0.0
3699,924.5,40.7988,40.9845,151.385,99.6057,99.5572,0.00830298,0.105236,20.8906,57.3939,0.00441208,0.0,0.0
3708,926.75,40.5144,41.0012,149.057,99.6602,99.728,0.00841594,0.104873,20.8919,57.4039,-0.00615372,0.0,0.0
3717,929,40.522,41.3711,149.766,99.7357,99.8235,0.00855951,0.104666,20.8924,57.3739,-0.0079692,0.0,0.0
3726,931.25,40.1163,41.5526,154.926,99.8157,99.8987,0.00865399,0.104662,20.8912,57.3639,-0.00753097,0.0,0.0
3735,933.5,40.3981,40.9823,152.323,99.8787,99.8741,0.00849771,0.104599,20.8907,57.3539,0.000416794,0.0,0.0
3744,935.75,40.1428,41.0447,148.817,99.9186,99.928,0.00817868,0.104272,20.8904,57.3439,-0.000848764,0.0,0.0
3753,938,40.2063,40.7397,152.741,99.9324,99.9739,0.00804406,0.103874,20.8904,57.3038,-0.00376173,0.0,0.0
3762,940.25,40.6223,40.9758,150.436,99.9643,100.055,0.00814127,0.103862,20.8903,57.2738,-0.00821832,0.0,0.0
3771,942.5,39.9748,41.0639,153.477,99.9703,100.025,0.00829658,0.10421,20.8903,57.2638,-0.00493874,0.0,0.0
3780,944.75,40.1929,40.7397,152.975,99.9562,99.9811,0.0084295,0.104768,20.889,57.2238,-0.00225707,0.0,0.0
3789,947,39.9271,41.1481,149.83,99.9602,100.018,0.00845294,0.105041,20.8884,57.1637,-0.00523747,0.0,0.0
3798,949.25,40.2247,40.8749,151.442,99.957,100.003,0.00855051,0.104671,20.8881,57.1837,-0.00418466,0.0,0.0
3807,951.5,39.6198,40.6614,153.078,99.976,100.01,0.00873996,0.104256,20.888,57.1937,-0.00311846,0.0,0.0
3816,953.75,40.065,41.1496,150.411,99.9534,99.9866,0.0087863,0.104119,20.8895,57.1537,-0.00301315,0.0,0.0
3825,956,40.3322,40.9254,148.563,99.9606,99.9938,0.00874695,0.104138,20.8908,57.1437,-0.00300883,0.0,0.0
3834,958.25,40.0725,41.1005,147.494,99.9558,100.076,0.00868829,0.104011,20.8913,57.0936,-0.0109088,0.0,0.0
3843,960.5,40.3269,40.8243,148.266,99.9013,99.8677,0.00866948,0.103499,20.8915,57.0736,0.00304561,0.0,0.0
3852,962.75,40.4905,40.5654,150.838,99.8431,99.8872,0.00871941,0.103409,20.8916,57.0736,-0.00399993,0.0,0.0
3861,965,40.4435,40.8645,153.431,99.8177,99.7959,0.00885706,0.103494,20.8916,57.0536,0.0019769,0.0,0.0
3870,967.25,40.2678,40.9779,150.04,99.7571,99.8048,0.00892751,0.103559,20.8916,57.0136,-0.00432996,0.0,0.0
3879,969.5,40.285,41.1359,151.899,99.6715,99.6672,0.00894007,0.103304,20.8916,56.9835,0.00039196,0.0,0.0
3888,971.75,40.1391,40.984,150.115,99.6081,99.6617,0.00884619,0.10268,20.8929,56.9535,-0.00486906,0.0,0.0
3897,974,39.9807,40.6056,149.93,99.6142,99.646,0.0087759,0.102732,20.8936,56.9435,-0.00288947,0.0,0.0
3906,976.25,40.6263,40.9559,149.389,99.6388,99.6931,0.00877975,0.103079,20.8938,56.9235,-0.0049355,0.0,0.0
3913,978,40.1237,40.9882,151.542,99.6804,99.6672,0.00883611,0.103001,20.8927,56.9335,0.0011985,0.0,0.0