File: 01_Data/Homasote/Cone/Homasote_Cone_HF75Scan_230608_R1.csv
Names,Time,Stack TC,Smoke TC,Exh Press,Smoke Comp,Smoke Meas,CO Meter,CO2 Meter,O2 Meter,Sample Mass,Ext Coeff,Start Test,Flame Verif
Chan Gain,,500,500,1,1,1,1,1,1,1,1,1.0,1.0
Offset,,0,0,0.143883,0,0,0,0,0,0,0,0.0,0.0
Gain,,1,1,25.011,13.2166,13.8964,1,1,1,1.00094,1.03262,1.0,1.0
Units,sec,C,C,Pa,%,%,%,%,%,g,/m,,
Baseline,,45.5031,46.1105,149.841,99.6778,99.6471,0.00104762,0.0643963,20.9418,-446.686,0.00279755,,
6,1.25,42.4789,43.1254,154.721,99.6926,99.545,0.000673854,0.0839764,20.9146,102.316,0.0134163,0.0,0.0
12,2.75,42.6393,43.7877,151.307,99.7144,98.4543,0.000674903,0.0823882,20.9143,102.186,0.115193,0.0,0.0
18,4.25,42.9971,43.8456,151.722,99.6797,95.6519,0.000730485,0.0818956,20.9166,102.096,0.373605,0.0,0.0
24,5.75,43.0929,43.8768,132.969,99.691,99.2791,0.00101644,0.0816651,20.9182,101.906,0.0374972,0.0,1.0
30,7.25,45.0341,44.8514,126.792,99.6813,98.2664,0.00127225,0.080834,20.9194,101.585,0.12949,0.0,1.0
36,8.75,46.5782,44.8621,128.329,99.691,97.4551,0.00136986,0.0793527,20.92,101.245,0.205462,0.0,1.0
42,10.25,47.2288,45.2599,128.689,99.676,97.0001,0.00138348,0.0778771,20.9211,100.945,0.246499,0.0,0.0
48,11.75,49.4325,46.9034,133.605,99.6853,94.5332,0.00135039,0.0775607,20.9246,100.675,0.480684,0.0,0.0
54,13.25,51.185,48.7772,132.153,99.6772,93.3462,0.00136737,0.0931507,20.9265,100.284,0.594408,0.0,0.0
60,14.75,53.262,49.8855,126.052,99.6942,91.937,0.00152179,0.175987,20.9274,100.004,0.733737,0.0,0.0
66,16.25,54.7612,50.8564,129.082,99.6772,91.113,0.00191241,0.285003,20.8942,99.6736,0.813747,0.0,0.0
72,17.75,56.098,52.7899,133.185,99.674,92.8496,0.00239127,0.403982,20.7909,99.3834,0.642432,0.0,0.0
78,19.25,57.8313,54.0452,125.309,99.6668,91.1198,0.00292273,0.49474,20.6724,99.0631,0.81212,0.0,0.0
84,20.75,59.0908,54.8312,126.72,99.6768,91.702,0.00353345,0.559796,20.5547,98.8228,0.75534,0.0,0.0
90,22.25,59.9397,55.8025,129.062,99.6571,91.87,0.00415472,0.605068,20.4474,98.5426,0.73697,0.0,0.0
96,23.75,60.9203,56.5118,131.471,99.6615,91.7474,0.0047684,0.632958,20.3627,98.2323,0.749465,0.0,0.0
102,25.25,61.5161,57.6421,135.492,99.6635,92.6923,0.00532226,0.647669,20.3061,97.952,0.656842,0.0,0.0
108,26.75,62.3774,58.4685,135.775,99.6482,92.5252,0.00588673,0.650621,20.2716,97.7018,0.671791,0.0,0.0
114,28.25,63.3517,59.4347,134.2,99.6482,92.987,0.00632269,0.641141,20.2532,97.4916,0.626692,0.0,0.0
120,29.75,63.1307,59.8884,137.871,99.6474,93.892,0.0066151,0.627322,20.2507,97.2414,0.538887,0.0,0.0
126,31.25,63.8436,60.4122,136.552,99.6494,94.4051,0.0067687,0.610369,20.2581,97.0111,0.489702,0.0,0.0
132,32.75,63.9698,61.2707,132.032,99.649,93.9238,0.00683595,0.590138,20.2674,96.821,0.535966,0.0,0.0
138,34.25,64.3424,61.2765,133.045,99.653,94.9734,0.00685086,0.568421,20.2807,96.5507,0.43567,0.0,0.0
144,35.75,64.54,61.8847,134.836,99.6442,95.6647,0.00681329,0.547001,20.3021,96.3105,0.369174,0.0,0.0
150,37.25,64.7013,62.2365,137.214,99.6442,96.1638,0.00665237,0.526424,20.3297,96.0903,0.322035,0.0,0.0
156,38.75,64.973,62.8935,138.129,99.6401,96.5599,0.00646761,0.507769,20.3591,95.8801,0.284437,0.0,0.0
162,40.25,65.2927,63.4421,132.796,99.6535,96.677,0.00632736,0.490693,20.3841,95.6999,0.274672,0.0,0.0
168,41.75,65.1653,63.3647,132.312,99.668,97.1914,0.00611187,0.478268,20.403,95.5097,0.227923,0.0,0.0
174,43.25,65.3988,63.9168,131.45,99.6922,96.8466,0.00582515,0.464304,20.426,95.2895,0.262312,0.0,0.0
180,44.75,65.8764,63.9615,136.749,99.6627,97.7397,0.00551984,0.453155,20.4478,95.0793,0.176485,0.0,0.0
186,46.25,65.8336,64.0911,136.278,99.6857,97.6685,0.00524496,0.443704,20.4644,94.9092,0.18518,0.0,0.0
192,47.75,65.937,64.3361,133.199,99.6724,97.4814,0.0049263,0.435668,20.4773,94.709,0.201332,0.0,0.0
198,49.25,66.0724,64.7529,141.507,99.6918,97.5714,0.00463576,0.428536,20.4901,94.5188,0.19474,0.0,0.0
204,50.75,66.0117,65.1754,134.88,99.6833,98.1897,0.00437566,0.423389,20.5006,94.3186,0.136751,0.0,0.0
210,52.25,66.2898,65.1973,136.952,99.6978,97.967,0.00417116,0.418867,20.5092,94.1585,0.158633,0.0,0.0
216,53.75,65.9763,65.2549,136.777,99.6962,98.1646,0.00397283,0.413609,20.5151,93.9683,0.140232,0.0,0.0
222,55.25,66.7125,65.5613,141.469,99.7172,98.2308,0.00374466,0.407981,20.5202,93.7881,0.136035,0.0,0.0
228,56.75,66.5879,65.8151,133.774,99.7253,98.4216,0.003588,0.402971,20.5252,93.618,0.119188,0.0,0.0
234,58.25,66.6034,65.8527,137.244,99.7248,98.2011,0.00346091,0.398196,20.5322,93.4178,0.13947,0.0,0.0
240,59.75,66.2391,66.3731,137.996,99.7228,98.3457,0.00339826,0.394053,20.5371,93.2976,0.125957,0.0,0.0
246,61.25,66.2764,66.584,132.343,99.7616,98.4492,0.0033676,0.387926,20.5435,93.0874,0.119948,0.0,0.0
252,62.75,66.5914,66.5619,134.205,99.7757,98.8292,0.0033184,0.382078,20.5506,92.9073,0.0863364,0.0,0.0
258,64.25,66.5298,66.3694,135.909,99.7757,98.7007,0.00318159,0.377588,20.5595,92.7672,0.0981206,0.0,0.0
264,65.75,66.8646,67.1515,136.97,99.7966,98.5633,0.00298358,0.374545,20.5681,92.607,0.112643,0.0,0.0
270,67.25,66.7611,67.5042,137.365,99.7966,98.7113,0.00282402,0.372108,20.5735,92.4368,0.099052,0.0,0.0
276,68.75,67.0586,67.1689,134.783,99.8253,98.872,0.00275181,0.369423,20.5767,92.2467,0.0869139,0.0,0.0
282,70.25,66.9973,67.3578,135.148,99.8309,99.1328,0.00273189,0.367302,20.5796,92.0865,0.0635647,0.0,0.0
288,71.75,67.1217,67.8573,136.001,99.8559,98.9556,0.00266363,0.365927,20.5824,91.8863,0.0820443,0.0,0.0
294,73.25,67.0544,67.8666,135.255,99.8652,99.2236,0.00260093,0.363797,20.5841,91.7562,0.0583853,0.0,0.0
300,74.75,66.7247,68.3621,137.491,99.8914,99.202,0.00257714,0.361159,20.5865,91.536,0.0627379,0.0,0.0
306,76.25,66.9198,67.6319,139.177,99.8858,98.9937,0.00258449,0.359045,20.5884,91.3558,0.0812577,0.0,0.0
312,77.75,67.5994,67.9951,143.02,99.9051,99.1544,0.00253398,0.357136,20.5911,91.2057,0.0683188,0.0,0.0
318,79.25,66.8781,68.2153,141.856,99.914,99.048,0.00248957,0.355008,20.5942,91.0255,0.0788528,0.0,0.0
324,80.75,66.683,68.8277,137.468,99.9338,99.2579,0.00248628,0.351848,20.5961,90.8654,0.0614671,0.0,0.0
330,82.25,66.9768,68.6435,131.941,99.9193,99.2164,0.00250753,0.348923,20.5976,90.7252,0.0639442,0.0,0.0
336,83.75,67.4909,68.2014,141.06,99.9378,99.2919,0.00251492,0.346414,20.5996,90.5651,0.0587372,0.0,0.0
342,85.25,66.4826,68.2525,138.519,99.9322,99.3228,0.00245858,0.345179,20.6029,90.3949,0.0554022,0.0,0.0
348,86.75,66.9094,68.6319,140.097,99.9406,99.4157,0.00238855,0.3436,20.6062,90.2448,0.0477029,0.0,0.0
354,88.25,66.8037,68.9645,136.486,99.9342,99.4759,0.00236422,0.341403,20.6085,90.0946,0.0416331,0.0,0.0
360,89.75,66.7903,68.638,140.279,99.9277,99.5145,0.00245278,0.339343,20.6116,89.8944,0.0375349,0.0,0.0
366,91.25,66.9632,68.6725,137.167,99.9184,99.3745,0.00258364,0.337592,20.6148,89.7643,0.0494418,0.0,0.0
372,92.75,66.9584,68.9118,138.09,99.9144,99.4886,0.00267917,0.336256,20.6168,89.5641,0.0386832,0.0,0.0
378,94.25,66.9161,68.9165,142.044,99.893,99.5671,0.00273707,0.335484,20.6188,89.444,0.0296051,0.0,0.0
384,95.75,67.481,69.2488,136.034,99.8813,99.5773,0.00274464,0.334465,20.62,89.2338,0.0276181,0.0,0.0
390,97.25,67.0984,69.431,138.587,99.843,99.4068,0.0026916,0.333167,20.6206,89.0737,0.0396649,0.0,0.0
396,98.75,67.2303,69.0114,136.822,99.8249,99.3504,0.00258447,0.332014,20.6229,88.9335,0.0431582,0.0,0.0
402,100.25,67.1695,68.7376,139.48,99.8011,99.4594,0.00249819,0.330443,20.6244,88.7734,0.0310666,0.0,0.0
408,101.75,66.8771,69.5936,140.176,99.7511,99.5408,0.00243628,0.328207,20.626,88.6032,0.0191139,0.0,0.0
414,103.25,67.403,69.5591,137.745,99.7156,99.3555,0.00238042,0.326463,20.6271,88.4531,0.0327699,0.0,0.0
420,104.75,67.4547,69.987,137.009,99.674,99.344,0.00235217,0.325151,20.6283,88.2729,0.0300399,0.0,0.0
426,106.25,66.6574,69.3903,138.013,99.6248,99.484,0.00234125,0.323624,20.6306,88.1428,0.0128157,0.0,0.0
432,107.75,67.1599,69.6882,143.081,99.5603,99.3894,0.00231485,0.321719,20.6334,87.9226,0.0155606,0.0,0.0
438,109.25,67.5234,69.5763,135.971,99.6047,99.5026,0.00230557,0.319865,20.6365,87.8225,0.0092837,0.0,0.0
444,110.75,67.1943,69.4826,135.62,99.5998,99.5395,0.00239874,0.318493,20.6384,87.6624,0.00548481,0.0,0.0
450,112.25,66.9683,69.57,135.269,99.6373,99.3656,0.0025474,0.317194,20.6399,87.5022,0.0247315,0.0,0.0
456,113.75,66.9958,69.4476,138.843,99.6599,99.5603,0.00267792,0.315824,20.6414,87.3421,0.00905825,0.0,0.0
462,115.25,66.8325,69.4152,133.918,99.7103,99.3686,0.00268284,0.315253,20.6426,87.2019,0.0310956,0.0,0.0
468,116.75,66.9727,69.6408,138.619,99.7345,99.5043,0.00260747,0.314325,20.6434,87.0518,0.0209326,0.0,0.0
474,118.25,67.29,69.6754,139.044,99.7938,99.414,0.00252793,0.313094,20.6447,86.8816,0.0345417,0.0,0.0
480,119.75,67.1851,69.7793,138.523,99.8305,99.7185,0.00251056,0.312654,20.6464,86.7415,0.0101714,0.0,0.0
486,121.25,67.2108,69.6887,134.418,99.8834,99.6697,0.00247059,0.312629,20.6474,86.5813,0.0193951,0.0,0.0
492,122.75,66.9323,69.6663,140.262,99.9148,99.7588,0.00239832,0.312544,20.6481,86.4612,0.0141581,0.0,0.0
498,124.25,67.3204,69.5617,137.803,99.9749,99.7723,0.0023284,0.311681,20.6488,86.271,0.0183725,0.0,0.0
504,125.75,66.8051,70.0626,136.763,100.013,99.9038,0.00234395,0.310727,20.6491,86.1309,0.00991579,0.0,0.0
510,127.25,67.0144,70.0703,139.912,100.068,99.8215,0.00238615,0.309915,20.6503,85.9608,0.0223815,0.0,0.0
516,128.75,67.6564,70.1208,138.89,100.108,99.8745,0.00238843,0.309183,20.6515,85.8206,0.0211868,0.0,0.0
522,130.25,66.9865,69.8307,135.884,100.184,100.042,0.00238612,0.309101,20.6531,85.6705,0.0128287,0.0,0.0
528,131.75,67.2844,69.8286,138.802,100.201,99.9704,0.00243165,0.309296,20.6541,85.5103,0.0208518,0.0,0.0
534,133.25,66.8805,69.9851,137.603,100.251,100.128,0.00244142,0.30905,20.6546,85.3802,0.0110893,0.0,0.0
540,134.75,67.3908,70.0391,135.903,100.272,100.093,0.00242993,0.308295,20.6549,85.21,0.0161685,0.0,0.0
546,136.25,67.2816,70.0388,133.829,100.31,100.139,0.00242182,0.307375,20.656,85.0699,0.0154474,0.0,0.0
552,137.75,67.2042,70.3128,136.333,100.344,100.044,0.00240278,0.30628,20.6567,84.9298,0.0271411,0.0,0.0
558,139.25,67.5557,70.1935,141.727,100.378,100.249,0.00235656,0.304609,20.6571,84.8197,0.0116705,0.0,0.0
564,140.75,67.5564,70.3369,133.063,100.414,100.208,0.00233207,0.303155,20.6581,84.6395,0.0185913,0.0,0.0
570,142.25,67.4836,70.3948,134.6,100.421,100.358,0.0023183,0.302921,20.6612,84.4894,0.00564884,0.0,0.0
576,143.75,67.6326,70.4807,136.858,100.446,100.25,0.0022946,0.303535,20.6626,84.3292,0.0176699,0.0,0.0
582,145.25,67.5635,70.0015,135.724,100.452,100.242,0.00225718,0.30356,20.6631,84.2091,0.0189437,0.0,0.0
588,146.75,67.5054,70.3681,137.279,100.469,100.435,0.00219833,0.302561,20.6625,84.0389,0.00305209,0.0,0.0
594,148.25,67.5024,70.1476,134.927,100.468,100.26,0.00216784,0.301367,20.662,83.9188,0.0187486,0.0,0.0
600,149.75,67.6299,70.2457,136.322,100.485,100.453,0.00217216,0.300162,20.6622,83.7487,0.00293658,0.0,0.0
606,151.25,67.282,70.4123,136.073,100.492,100.308,0.00217216,0.299421,20.6643,83.6085,0.0166784,0.0,0.0
612,152.75,67.811,70.1899,142.491,100.518,100.476,0.00212514,0.298901,20.6667,83.4684,0.00377852,0.0,0.0
618,154.25,67.7846,70.3796,133.41,100.494,100.456,0.00203067,0.298936,20.6683,83.3183,0.00346874,0.0,0.0
624,155.75,67.5525,69.9464,137.815,100.517,100.471,0.00197747,0.298742,20.6694,83.1681,0.00416492,0.0,0.0
630,157.25,67.4534,70.7643,142.221,100.508,100.323,0.00195039,0.298708,20.6701,83.028,0.0166816,0.0,0.0
636,158.75,67.8352,70.2994,136.244,100.508,100.177,0.0019442,0.299159,20.6705,82.9079,0.0298623,0.0,0.0
642,160.25,67.9402,70.7216,140.821,100.488,100.297,0.0019446,0.299754,20.6702,82.7778,0.0172722,0.0,0.0
648,161.75,67.7288,70.5679,134.854,100.486,100.297,0.00194681,0.299751,20.6694,82.6076,0.0170524,0.0,0.0
654,163.25,67.9754,70.7157,139.632,100.455,100.207,0.00196408,0.299265,20.669,82.4775,0.0224138,0.0,0.0
660,164.75,67.8436,70.587,132.518,100.439,100.288,0.00201123,0.29841,20.6692,82.3273,0.0136018,0.0,0.0
666,166.25,67.5469,71.1384,137.835,100.397,100.172,0.00209979,0.297828,20.6696,82.1772,0.0202829,0.0,0.0
672,167.75,67.6188,70.2522,135.634,100.381,100.264,0.00219898,0.297664,20.6698,82.0271,0.0106201,0.0,0.0
678,169.25,67.7667,70.4924,136.212,100.331,100.034,0.00225724,0.297496,20.6699,81.8969,0.0268591,0.0,0.0
684,170.75,68.2202,70.7413,138.795,100.306,100.073,0.00229882,0.297141,20.67,81.7368,0.0210328,0.0,0.0
690,172.25,67.4668,70.9997,139.231,100.255,100.027,0.00230634,0.296883,20.67,81.6167,0.0206245,0.0,0.0
696,173.75,67.7462,70.7131,136.271,100.208,100.03,0.00227899,0.296864,20.6708,81.4765,0.0160942,0.0,0.0
702,175.25,68.0312,70.6583,142.414,100.167,99.9623,0.0022288,0.297065,20.6716,81.3564,0.0184825,0.0,0.0
708,176.75,67.5167,70.1736,139.911,100.101,99.7147,0.00217319,0.29724,20.6724,81.1863,0.0350053,0.0,0.0
714,178.25,68.3146,71.0253,138.597,100.045,99.813,0.00211011,0.297038,20.6728,81.0261,0.0210339,0.0,0.0
720,179.75,68.1681,70.8127,136.181,99.9882,99.738,0.00204745,0.296832,20.673,80.946,0.0226981,0.0,0.0
726,181.25,67.8717,71.0339,135.079,99.9398,99.5043,0.00201386,0.297014,20.6731,80.7859,0.0395584,0.0,0.0
732,182.75,67.8664,70.8332,137.633,99.8842,99.4666,0.00203767,0.29749,20.6732,80.6257,0.0379489,0.0,0.0
738,184.25,67.9754,70.8964,139.095,99.8426,99.5764,0.00207793,0.297883,20.6732,80.4556,0.0241833,0.0,0.0
744,185.75,67.7235,70.7255,142.003,99.7805,99.6901,0.00210693,0.298174,20.6726,80.3655,0.00821357,0.0,0.0
750,187.25,67.8885,70.6862,138.164,99.7349,99.3953,0.00212295,0.29824,20.6718,80.2053,0.0308944,0.0,0.0
756,188.75,67.85,70.7667,141.727,99.6728,99.4674,0.00214069,0.298033,20.6716,80.0752,0.018685,0.0,0.0
762,190.25,67.8698,70.5381,139.253,99.6458,99.327,0.00214809,0.298003,20.6724,79.9351,0.0290206,0.0,0.0
768,191.75,68.2163,70.9769,133.845,99.5599,99.0383,0.00213725,0.299486,20.6728,79.795,0.0475826,0.0,0.0
774,193.25,68.041,70.6401,144.375,99.5425,99.269,0.00210175,0.302719,20.673,79.6648,0.0249296,0.0,0.0
780,194.75,68.1178,70.8887,140.873,99.4905,99.2651,0.00205797,0.306336,20.6712,79.4947,0.0205415,0.0,0.0
786,196.25,68.3149,71.1754,138.359,99.4679,99.0688,0.00205195,0.308771,20.6684,79.3746,0.0364197,0.0,0.0
792,197.75,68.0124,70.6028,136.825,99.3909,98.9602,0.00206517,0.309704,20.6649,79.3245,0.0393337,0.0,0.0
798,199.25,68.0751,70.9931,137.985,99.3602,98.7626,0.00210039,0.310032,20.6621,79.1644,0.0546466,0.0,0.0
804,200.75,68.2325,71.2135,139.125,99.3042,98.7011,0.00215587,0.309674,20.6606,79.0443,0.0551758,0.0,0.0
810,202.25,67.9314,70.8143,143.565,99.2852,98.7516,0.00220027,0.308747,20.6598,78.8941,0.0488156,0.0,0.0
816,203.75,68.0107,71.014,140.435,99.2336,98.7427,0.00218803,0.308196,20.6602,78.744,0.0449216,0.0,0.0
822,205.25,68.0905,70.9292,136.04,99.2053,98.6752,0.00214432,0.308378,20.6607,78.5938,0.048531,0.0,0.0
828,206.75,67.7531,70.9447,138.82,99.1477,98.6269,0.00210809,0.308211,20.6609,78.4137,0.0477029,0.0,0.0
834,208.25,68.0303,71.2966,133.921,99.1267,98.5107,0.00208225,0.307504,20.6614,78.1935,0.0564646,0.0,0.0
840,209.75,67.7643,70.8118,139.091,99.1021,98.4216,0.00204393,0.306868,20.6617,78.1234,0.0624087,0.0,0.0
846,211.25,68.1543,71.1457,134.466,99.09,98.3054,0.0020054,0.305694,20.6625,78.0633,0.0720036,0.0,0.0
852,212.75,67.7444,71.1505,136.665,99.0505,98.5294,0.00203439,0.305347,20.6635,77.9032,0.0477802,0.0,0.0
858,214.25,68.0426,71.1223,141.928,99.0271,98.5026,0.00212203,0.305879,20.6639,77.743,0.0480982,0.0,0.0
864,215.75,67.7236,70.9005,141.9,99.0134,98.2889,0.00224489,0.306808,20.6634,77.6129,0.0665193,0.0,0.0
870,217.25,68.2573,71.0516,142.073,98.99,98.1506,0.00236165,0.30742,20.6628,77.4327,0.0771292,0.0,0.0
876,218.75,67.7901,70.9538,141.056,98.9835,98.04,0.00242654,0.307427,20.6625,77.3326,0.0867577,0.0,0.0
882,220.25,68.427,70.873,135.733,98.9775,98.0773,0.00243282,0.307501,20.6623,77.2025,0.082758,0.0,0.0
888,221.75,68.1396,70.9047,141.205,98.9855,97.9034,0.00235582,0.308078,20.6616,77.0324,0.0995678,0.0,0.0
894,223.25,68.0547,70.7068,137.283,98.9496,97.9899,0.00224586,0.308728,20.6607,76.9323,0.0882827,0.0,0.0
900,224.75,68,70.971,137.897,98.9561,97.9369,0.00212349,0.308715,20.6601,76.7721,0.0937742,0.0,0.0
906,226.25,68.1707,71.1209,140.506,98.9395,97.9925,0.00204921,0.309024,20.6599,76.5919,0.0871246,0.0,0.0
912,227.75,67.9049,71.3387,140.899,98.9573,98.0624,0.00204494,0.309582,20.6597,76.4718,0.0822829,0.0,0.0
918,229.25,68.0013,70.9547,140.311,98.9395,97.6015,0.00209942,0.310222,20.6593,76.3117,0.123339,0.0,0.0
924,230.75,68.4198,70.6998,139.89,98.9565,97.6922,0.00217016,0.311517,20.6578,76.2917,0.116471,0.0,0.0
930,232.25,68.2971,71.1018,138.123,98.9327,97.8801,0.00223073,0.313345,20.656,76.1215,0.09689,0.0,0.0
936,233.75,68.2843,71.3299,134.639,98.9383,97.6155,0.00225711,0.31443,20.6541,75.9614,0.12193,0.0,0.0
942,235.25,68.2543,70.8944,137.716,98.9133,97.7367,0.00221795,0.313554,20.6529,75.8012,0.108392,0.0,0.0
948,236.75,68.2242,70.9334,139.886,98.9408,97.9161,0.00213533,0.312721,20.6523,75.621,0.0942936,0.0,0.0
954,238.25,68.435,71.4951,139.418,98.9278,97.7775,0.00215334,0.313636,20.6512,75.5109,0.10595,0.0,0.0
960,239.75,67.9652,71.1861,133.45,98.9408,97.481,0.00225759,0.314377,20.6505,75.3808,0.134634,0.0,0.0
966,241.25,68.5858,71.1741,136.383,98.9278,97.6155,0.00234677,0.314441,20.651,75.2707,0.12097,0.0,0.0
972,242.75,68.3799,70.8994,141.756,98.9375,97.6256,0.00235154,0.315059,20.6511,75.0605,0.120911,0.0,0.0
978,244.25,68.5066,70.9644,137.972,98.9395,97.5862,0.0022771,0.315578,20.6498,74.9304,0.124757,0.0,0.0
984,245.75,68.4283,71.1196,138.983,98.948,97.2779,0.00215756,0.316014,20.6485,74.8303,0.154194,0.0,0.0
990,247.25,68.2745,71.063,136.897,98.9529,97.5565,0.00209271,0.316759,20.6479,74.6301,0.128731,0.0,0.0
996,248.75,68.0449,70.8129,144.63,98.95,97.336,0.00214188,0.317982,20.6477,74.5,0.148971,0.0,0.0
1002,250.25,68.4949,71.3964,141.752,98.9545,97.4496,0.00224899,0.319205,20.6478,74.4099,0.138806,0.0,0.0
1008,251.75,68.3136,70.9448,141.627,98.9545,97.7087,0.00236524,0.320189,20.6466,74.2397,0.114754,0.0,0.0
1014,253.25,68.413,71.2586,136.948,98.9754,97.4925,0.00245553,0.320307,20.645,74.0696,0.136745,0.0,0.0
1020,254.75,68.4184,71.0172,141.146,98.9803,97.283,0.00251594,0.320477,20.6448,73.9495,0.156674,0.0,0.0
1026,256.25,68.2703,70.8898,136.62,98.996,97.3453,0.00255678,0.320472,20.6452,73.7793,0.152311,0.0,0.0
1032,257.75,68.4504,71.0638,138.277,98.9847,97.6922,0.00257224,0.320378,20.6454,73.5991,0.119055,0.0,0.0
1038,259.25,68.3385,70.9535,141.667,98.9964,97.2961,0.00257359,0.320411,20.6448,73.479,0.156926,0.0,0.0
1044,260.75,68.3228,70.7409,137.481,98.9892,97.3521,0.00255049,0.320226,20.6441,73.3389,0.151051,0.0,0.0
1050,262.25,68.5432,70.97,136.075,99.0061,97.0043,0.00249639,0.319928,20.6437,73.2188,0.185016,0.0,0.0
1056,263.75,68.6797,71.0741,137.807,98.9904,97.3237,0.00239617,0.320343,20.6435,73.1087,0.153807,0.0,0.0
1062,265.25,68.5263,71.0061,140.047,99.0146,97.4089,0.00227893,0.321445,20.6434,72.9485,0.148091,0.0,0.0
1068,266.75,68.3112,71.2671,138.157,99.0077,96.9933,0.0022127,0.322104,20.6427,72.8484,0.186193,0.0,0.0
1074,268.25,68.2493,71.3434,140.657,99.0388,97.3538,0.00224037,0.322259,20.641,72.7283,0.155433,0.0,0.0
1080,269.75,68.859,71.4222,135.584,99.0246,97.1625,0.00230612,0.322467,20.6389,72.5582,0.171954,0.0,0.0
1086,271.25,68.3021,71.38,140.231,99.0371,97.1146,0.00234928,0.32337,20.6376,72.4381,0.177566,0.0,0.0
1092,272.75,69.1482,71.5774,144.687,99.0069,97.3856,0.00236322,0.324022,20.6369,72.2879,0.149559,0.0,0.0
1098,274.25,69.1316,70.8321,131.496,99.0154,97.3114,0.00238387,0.324015,20.6354,72.1478,0.157239,0.0,0.0
1104,275.75,68.4612,70.703,142.311,99.0037,97.266,0.00243652,0.322886,20.6347,71.9776,0.160394,0.0,0.0
1110,277.25,68.3037,71.3374,134.018,99.0186,97.1939,0.00250035,0.322276,20.6353,71.8375,0.168475,0.0,0.0
1116,278.75,68.5144,71.404,134.968,99.023,97.0989,0.00254639,0.322979,20.6368,71.6773,0.177738,0.0,0.0
1122,280.25,68.7091,71.5191,135.7,99.0178,97.2643,0.00254284,0.323312,20.6376,71.5672,0.161844,0.0,0.0
1128,281.75,68.9946,71.0889,133.16,99,97.2113,0.00252355,0.323511,20.637,71.3771,0.165158,0.0,0.0
1134,283.25,69.2021,71.743,141.761,99.0017,97.4,0.00253503,0.323741,20.6355,71.2469,0.147739,0.0,0.0
1140,284.75,68.9095,71.2771,140.27,98.9916,97.0209,0.00259038,0.324264,20.6347,71.1368,0.182143,0.0,0.0
1146,286.25,69.3764,71.4867,141.003,99.0053,97.0111,0.00268824,0.325617,20.6334,70.9767,0.184309,0.0,0.0
1152,287.75,68.7457,71.8041,138.147,98.9839,97.09,0.00277173,0.326911,20.6325,70.8165,0.17499,0.0,0.0
1158,289.25,69.1781,71.6044,143.761,98.9875,96.9772,0.00278467,0.32764,20.632,70.6564,0.185853,0.0,0.0
1164,290.75,69.1728,71.7709,138.053,98.9912,97.2363,0.0027228,0.327405,20.6324,70.5463,0.162016,0.0,0.0
1170,292.25,69.2481,71.6773,136.331,98.9533,97.1553,0.00269125,0.327217,20.6334,70.3761,0.166094,0.0,0.0
1176,293.75,69.1651,71.6736,137.47,98.9529,97.1299,0.00270037,0.327174,20.6341,70.266,0.168429,0.0,0.0
1182,295.25,69.3934,71.6476,136.915,98.9456,97.1668,0.00265559,0.326674,20.6344,70.1159,0.164326,0.0,0.0
1188,296.75,69.7007,71.8768,135.352,98.9541,97.255,0.00254849,0.326248,20.6346,69.9157,0.156881,0.0,0.0
1194,298.25,69.135,71.792,137.914,98.9202,97.1498,0.00246865,0.326182,20.6347,69.8256,0.163579,0.0,0.0
1200,299.75,69.3575,72.117,136.849,98.9307,97.2312,0.0024454,0.325971,20.6348,69.7455,0.156952,0.0,0.0
1206,301.25,69.0886,71.8351,133.82,98.9222,97.5646,0.00249225,0.326215,20.6348,69.5854,0.125176,0.0,0.0
1212,302.75,69.0767,72.3727,134.724,98.9274,96.981,0.00256306,0.327119,20.6344,69.4452,0.179995,0.0,0.0
1218,304.25,69.5429,71.9293,142.768,98.9178,97.0654,0.00263444,0.327343,20.6335,69.2751,0.17123,0.0,0.0
1224,305.75,69.5303,71.7963,139.077,98.9323,97.319,0.00273778,0.326848,20.633,69.155,0.148925,0.0,0.0
1230,307.25,69.6863,71.8257,137.273,98.9137,97.4929,0.0028383,0.326761,20.6325,68.9948,0.131057,0.0,0.0
1236,308.75,69.2669,72.1235,139.727,98.9428,97.1528,0.00285688,0.327208,20.6314,68.8947,0.165371,0.0,0.0
1242,310.25,69.6535,72.0132,138.634,98.9359,97.2622,0.00271369,0.327256,20.6308,68.7646,0.154548,0.0,0.0
1248,311.75,69.5718,72.3371,137.883,98.9468,97.168,0.00253029,0.326739,20.6305,68.6145,0.164317,0.0,0.0
1254,313.25,69.4019,72.0734,137.321,98.9399,97.2185,0.00236659,0.326392,20.6303,68.4843,0.158986,0.0,0.0
1260,314.75,69.7565,71.9914,140.66,98.952,97.4106,0.00229631,0.326663,20.6298,68.2942,0.142212,0.0,0.0
1266,316.25,69.3952,72.3457,139.628,98.944,97.4009,0.00229576,0.326832,20.6296,68.124,0.142381,0.0,0.0
1272,317.75,69.4017,72.145,137.303,98.9549,97.129,0.00230556,0.327585,20.6294,68.0239,0.168693,0.0,0.0
1278,319.25,69.6583,72.1326,136.581,98.9666,97.1651,0.00232401,0.328129,20.6294,67.8237,0.166403,0.0,0.0
1284,320.75,69.6193,72.4667,138.681,98.9718,97.1943,0.00237315,0.326823,20.6293,67.7336,0.164155,0.0,0.0
1290,322.25,69.4955,71.9318,138.608,98.9734,97.3954,0.00240815,0.324942,20.6293,67.5134,0.145588,0.0,0.0
1296,323.75,69.7316,72.0914,141.898,98.9738,97.3563,0.00239548,0.324242,20.6308,67.4534,0.149254,0.0,0.0
1302,325.25,69.79,71.6811,138.049,98.9879,97.2524,0.00231943,0.325258,20.6316,67.3433,0.160219,0.0,0.0
1308,326.75,69.479,71.9226,139.454,98.9771,97.1078,0.00219746,0.326327,20.632,67.2332,0.172701,0.0,0.0
1314,328.25,70.0807,71.6661,134.706,98.9944,96.9496,0.00210438,0.327316,20.6306,67.103,0.189055,0.0,0.0
1320,329.75,69.9307,72.4944,139.061,98.9811,97.0714,0.00209108,0.327802,20.6293,66.9429,0.176474,0.0,0.0
1326,331.25,69.3062,72.5534,138.832,98.9851,97.3368,0.00223905,0.326012,20.6286,66.7627,0.152104,0.0,0.0
1332,332.75,69.8057,72.4533,143.194,98.9762,97.1439,0.00239715,0.323287,20.6282,66.6626,0.169266,0.0,0.0
1338,334.25,70.3561,71.8959,142.318,98.9787,96.7694,0.00245284,0.323361,20.629,66.5425,0.204471,0.0,0.0
1344,335.75,69.9753,72.4421,137.519,98.9645,97.1854,0.00243841,0.326067,20.6295,66.4024,0.16432,0.0,0.0
1350,337.25,70.1135,72.0852,138.297,98.9783,97.2524,0.00242517,0.327444,20.6296,66.2522,0.159333,0.0,0.0
1356,338.75,69.9711,72.6173,139.427,98.9698,97.0116,0.00243724,0.327463,20.6286,66.1321,0.181021,0.0,0.0
1362,340.25,70.2941,72.2467,135.635,98.9766,96.9687,0.00244635,0.327918,20.6276,65.992,0.185648,0.0,0.0
1368,341.75,69.6919,72.6158,140.383,98.9541,97.0739,0.0024174,0.329122,20.6261,65.8318,0.173762,0.0,0.0
1374,343.25,70.1903,72.2429,138.513,98.9589,96.9602,0.00237815,0.329971,20.6252,65.7418,0.184817,0.0,0.0
1380,344.75,69.9354,72.624,140.065,98.9533,96.8971,0.002354,0.329679,20.6244,65.6016,0.190204,0.0,0.0
1386,346.25,70.0168,72.5981,137.532,98.9613,96.9831,0.00238897,0.328019,20.6239,65.4715,0.182898,0.0,0.0
1392,347.75,69.9562,72.617,138.208,98.9524,96.889,0.00244792,0.326541,20.6236,65.3614,0.190883,0.0,0.0
1398,349.25,70.0787,72.8259,135.888,98.9581,96.8865,0.00247605,0.326412,20.6243,65.2013,0.191639,0.0,0.0
1404,350.75,70.0618,72.5446,140.365,98.9359,96.8169,0.00249765,0.32763,20.6249,65.1112,0.196113,0.0,0.0
1410,352.25,70.3477,72.5735,133.069,98.9529,97.0366,0.00252861,0.328282,20.6236,65.0111,0.177134,0.0,0.0
1416,353.75,70.2063,72.0678,137.568,98.9412,96.8657,0.00255399,0.327897,20.6224,64.881,0.19203,0.0,0.0
1422,355.25,70.1661,72.6078,139.295,98.9581,97.1892,0.00255198,0.326766,20.6223,64.7308,0.163374,0.0,0.0
1428,356.75,70.1562,72.736,135.68,98.9593,96.984,0.00250833,0.325305,20.6228,64.5807,0.182635,0.0,0.0
1434,358.25,70.0461,72.4335,136.653,98.9492,96.6973,0.00246645,0.323991,20.6252,64.4606,0.208527,0.0,0.0
1440,359.75,70.0224,72.5596,134.501,98.948,96.9708,0.00246818,0.323192,20.6265,64.3204,0.18283,0.0,0.0
1446,361.25,69.7425,72.3388,141.153,98.9609,97.015,0.0025082,0.322402,20.6273,64.2203,0.179891,0.0,0.0
1452,362.75,69.853,72.687,137.98,98.9537,96.4323,0.00256524,0.321793,20.6284,64.0702,0.233796,0.0,0.0
1458,364.25,69.4327,72.345,138.885,98.9545,96.7245,0.00256438,0.321425,20.6294,63.9701,0.206465,0.0,0.0
1464,365.75,69.4376,72.4792,140.861,98.9585,96.7677,0.00252075,0.320959,20.6311,63.86,0.202784,0.0,0.0
1470,367.25,69.4629,72.854,138.077,98.9585,96.9539,0.00244887,0.320118,20.6324,63.7599,0.185374,0.0,0.0
1476,368.75,69.0921,72.9301,142.946,98.965,96.8551,0.00239964,0.318478,20.633,63.6598,0.1952,0.0,0.0
1482,370.25,69.8018,72.5126,137.281,98.9541,96.7567,0.00238994,0.316515,20.6346,63.4997,0.20341,0.0,0.0
1488,371.75,69.9707,72.1703,139.741,98.9815,96.8279,0.00237721,0.315209,20.6371,63.3595,0.199253,0.0,0.0
1494,373.25,69.8579,72.0942,140.198,98.9654,96.8449,0.0023323,0.314015,20.6391,63.2294,0.196189,0.0,0.0
1500,374.75,69.472,72.2727,139.249,98.9803,97.0027,0.00227494,0.313041,20.641,63.1493,0.182812,0.0,0.0
1506,376.25,69.5838,72.1744,135.242,98.9674,97.0179,0.00223069,0.312222,20.6426,63.0392,0.180205,0.0,0.0
1512,377.75,69.0195,72.4596,137.681,98.9827,97.1782,0.00225281,0.311347,20.6436,62.9191,0.166654,0.0,0.0
1518,379.25,69.3142,72.309,136.301,98.9593,97.3771,0.00234947,0.309632,20.6448,62.809,0.145992,0.0,0.0
1524,380.75,69.1108,72.2012,136.317,98.9811,97.0188,0.00247759,0.306508,20.6459,62.7089,0.181381,0.0,0.0
1530,382.25,68.9689,71.6643,139.091,98.9654,97.1057,0.00255496,0.303987,20.6464,62.6288,0.171828,0.0,0.0
1536,383.75,69.1373,71.6372,139.244,98.9855,97.3529,0.0025572,0.301511,20.6511,62.5087,0.15064,0.0,0.0
1542,385.25,68.9722,71.387,139.745,98.9686,97.2236,0.00251096,0.29961,20.6551,62.4286,0.161133,0.0,0.0
1548,386.75,68.6331,71.5345,137.049,98.99,97.3381,0.00245577,0.297251,20.6588,62.2985,0.152428,0.0,0.0
1554,388.25,68.5568,71.3157,138.225,98.9892,97.3127,0.00245427,0.29387,20.6623,62.2184,0.154722,0.0,0.0
1560,389.75,68.2919,71.5784,142.052,98.992,97.3504,0.00246333,0.289766,20.6648,62.1184,0.151468,0.0,0.0
1566,391.25,68.5215,71.6639,142.113,98.9879,97.2486,0.00245027,0.285855,20.6691,62.0283,0.160574,0.0,0.0
1572,392.75,67.996,71.4005,143.409,99.0109,97.3398,0.00237049,0.283275,20.6747,61.9482,0.154189,0.0,0.0
1578,394.25,68.2002,71.4737,137.872,98.9944,97.3046,0.00228653,0.28023,20.6806,61.8481,0.155952,0.0,0.0
1584,395.75,67.9528,71.0519,140.023,98.9992,97.738,0.00223838,0.277447,20.6849,61.738,0.116139,0.0,0.0
1590,397.25,67.7589,70.67,143.114,99.0037,97.4963,0.00220462,0.275271,20.6885,61.688,0.138974,0.0,0.0
1596,398.75,67.6883,70.9375,142.881,99.0065,97.6629,0.00215994,0.273281,20.691,61.5578,0.123762,0.0,0.0
1602,400.25,67.513,70.6595,139.527,99.0125,97.551,0.00213749,0.270473,20.6931,61.4778,0.134704,0.0,0.0
1608,401.75,67.3544,70.4835,139.678,99.0121,97.6621,0.00217121,0.266836,20.6957,61.4077,0.124357,0.0,0.0
1614,403.25,67.4385,70.0458,140.734,99.0291,97.5637,0.00221865,0.263308,20.6992,61.3476,0.135037,0.0,0.0
1620,404.75,67.3387,70.1944,143.629,99.0117,97.7995,0.00227613,0.259693,20.7024,61.2375,0.111585,0.0,0.0
1626,406.25,66.6169,70.4436,146.889,99.0234,97.8958,0.00232989,0.255514,20.7066,61.1975,0.103743,0.0,0.0
1632,407.75,66.7174,69.8429,144.097,99.0279,97.998,0.00235578,0.251367,20.7116,61.1274,0.0946975,0.0,0.0
1638,409.25,66.4315,69.916,140.624,99.0396,98.1672,0.00230798,0.247585,20.7159,61.0874,0.0801415,0.0,0.0
1644,410.75,66.2,69.5408,138.47,99.0226,98.2062,0.00221342,0.243942,20.7208,61.0373,0.0749919,0.0,0.0
1650,412.25,66.4374,69.2251,145.35,99.048,98.3843,0.0020918,0.239999,20.7252,60.9773,0.0609029,0.0,0.0
1656,413.75,66.1306,69.5715,139.08,99.0339,98.5387,0.0019804,0.235603,20.7296,60.9072,0.0454104,0.0,0.0
1662,415.25,65.9035,68.6901,143.642,99.067,98.7265,0.00191867,0.230968,20.7343,60.8672,0.0311817,0.0,0.0
1668,416.75,65.814,68.7657,141.264,99.0618,98.6214,0.00191275,0.226066,20.7387,60.8271,0.0403572,0.0,0.0
1674,418.25,65.6417,68.4262,143.328,99.0989,98.9712,0.00192364,0.221535,20.7428,60.7471,0.0116727,0.0,0.0
1680,419.75,65.1147,68.3836,140.051,99.0831,99.0853,0.00196662,0.21719,20.7472,60.7371,-0.000200845,0.0,0.0
1686,421.25,65.0417,67.8899,145.738,99.1077,99.1248,0.00204099,0.212788,20.7521,60.687,-0.00155613,0.0,0.0
1692,422.75,64.4267,68.1246,141.202,99.1154,99.16,0.00207487,0.208744,20.7568,60.657,-0.00407231,0.0,0.0
1698,424.25,64.1401,67.9694,139.012,99.1436,99.2028,0.00203852,0.205718,20.7618,60.5969,-0.00540386,0.0,0.0
1704,425.75,64.2302,67.4973,140.063,99.1577,99.4933,0.00199866,0.202471,20.7653,60.5769,-0.0306003,0.0,0.0
1710,427.25,63.7938,67.4177,138.479,99.1755,99.5056,0.00202349,0.199288,20.7685,60.5469,-0.0300987,0.0,0.0
1716,428.75,63.4373,67.2562,140.734,99.1908,99.4017,0.00206095,0.194919,20.7707,60.5168,-0.019236,0.0,0.0
1722,430.25,64.2041,66.5664,140.35,99.2263,99.632,0.00206112,0.191344,20.7749,60.4868,-0.0369548,0.0,0.0
1728,431.75,63.1827,66.5841,143.226,99.2388,99.4801,0.00204028,0.187749,20.7781,60.4568,-0.0220001,0.0,0.0
1734,433.25,63.1515,67.0107,146.863,99.2767,99.545,0.00204655,0.183377,20.7825,60.4568,-0.0244462,0.0,0.0
1740,434.75,62.8179,66.1109,149.265,99.3038,99.5828,0.00210837,0.179387,20.7871,60.4067,-0.0254147,0.0,0.0
1746,436.25,62.7907,66.0397,141.215,99.3344,99.4725,0.00216696,0.176647,20.7944,60.4067,-0.0125841,0.0,0.0
1752,437.75,62.6465,65.7544,145.622,99.3792,99.5798,0.00220494,0.1748,20.7995,60.3667,-0.0182676,0.0,0.0
1758,439.25,62.3159,65.869,148.381,99.4102,99.576,0.00229152,0.173071,20.8023,60.3267,-0.0150898,0.0,0.0
1764,440.75,61.7841,65.3647,147.357,99.4522,99.6519,0.00244394,0.170969,20.8043,60.2966,-0.0181718,0.0,0.0
1770,442.25,61.8364,65.0502,143.223,99.4594,99.6875,0.0025964,0.168358,20.8062,60.2466,-0.0207473,0.0,0.0
1776,443.75,61.4318,64.9277,140.357,99.5143,99.7452,0.00276901,0.166143,20.8088,60.2366,-0.020993,0.0,0.0
1782,445.25,61.2715,64.3449,142.826,99.5329,99.7677,0.00293646,0.164614,20.8117,60.2266,-0.0213453,0.0,0.0
1788,446.75,61.3556,64.7264,144.323,99.5825,99.8317,0.00306554,0.163501,20.8146,60.2166,-0.0226431,0.0,0.0
1794,448.25,61.0938,64.0053,138.176,99.6038,99.9165,0.00311976,0.162116,20.8165,60.1765,-0.0283909,0.0,0.0
1800,449.75,61.026,64.4254,140.305,99.6579,99.9191,0.0029574,0.160463,20.8195,60.1665,-0.0237084,0.0,0.0
1806,451.25,60.7553,64.1595,143.636,99.6748,99.8885,0.00278661,0.15887,20.8213,60.0965,-0.0194,0.0,0.0
1812,452.75,60.2071,63.6329,140.866,99.7313,100.022,0.0026663,0.157064,20.8234,60.0564,-0.0263758,0.0,0.0
1818,454.25,60.3944,63.8451,144.906,99.7563,99.9513,0.00275377,0.155991,20.8256,60.0264,-0.0176888,0.0,0.0
1824,455.75,60.5604,63.7175,145.261,99.812,99.9606,0.00294301,0.15568,20.8276,60.0064,-0.0134816,0.0,0.0
1830,457.25,60.437,63.1093,143.138,99.8337,99.9988,0.00308549,0.155348,20.8289,59.9763,-0.0149633,0.0,0.0
1836,458.75,60.1907,63.2897,144.185,99.8753,100.168,0.00318473,0.154678,20.8297,59.9563,-0.0265475,0.0,0.0
1842,460.25,60.4787,62.8929,145.101,99.9047,100.112,0.00328019,0.153903,20.8307,59.9163,-0.0187372,0.0,0.0
1848,461.75,59.7367,62.966,146.48,99.9402,100.108,0.00333415,0.153137,20.8319,59.8963,-0.0152131,0.0,0.0
1854,463.25,59.6085,63.1552,145.445,99.9697,100.208,0.00332849,0.152192,20.8332,59.9263,-0.0215569,0.0,0.0
1860,464.75,59.8819,63.0432,145.784,100.014,100.257,0.00327623,0.151327,20.8345,59.8963,-0.0220201,0.0,0.0
1866,466.25,59.7271,62.8193,145.774,100.035,100.336,0.00318959,0.150884,20.8353,59.8662,-0.0272449,0.0,0.0
1872,467.75,59.576,62.1759,148.005,100.075,100.248,0.00305365,0.150881,20.8367,59.8362,-0.0156626,0.0,0.0
1878,469.25,59.0155,62.3067,143.382,100.077,100.367,0.00296866,0.15125,20.8374,59.8062,-0.0262421,0.0,0.0
1884,470.75,59.3044,62.2264,144.658,100.096,100.239,0.00295309,0.151615,20.8379,59.8062,-0.0129258,0.0,0.0
1890,472.25,59.497,62.1148,143.494,100.122,100.3,0.00303056,0.151555,20.8369,59.7862,-0.0161066,0.0,0.0
1896,473.75,58.7261,61.9826,144.07,100.131,100.299,0.00317104,0.15103,20.8361,59.7461,-0.0151888,0.0,0.0
1902,475.25,58.8169,62.0112,145.304,100.16,100.339,0.00334364,0.150531,20.8358,59.7561,-0.0162364,0.0,0.0
1908,476.75,58.6814,61.5366,145.145,100.167,100.443,0.00347731,0.1499,20.8361,59.6861,-0.0249524,0.0,0.0
1914,478.25,58.6319,61.6216,143.797,100.177,100.303,0.00346413,0.149393,20.8363,59.7061,-0.0114131,0.0,0.0
1920,479.75,58.6608,61.5664,144.203,100.173,100.41,0.00333671,0.149096,20.8364,59.6961,-0.0214216,0.0,0.0
1926,481.25,58.3207,61.1367,144.492,100.189,100.439,0.0031895,0.149361,20.8371,59.656,-0.0225294,0.0,0.0
1932,482.75,58.4822,61.1192,145.08,100.169,100.504,0.00307906,0.150123,20.8382,59.636,-0.030239,0.0,0.0
1938,484.25,58.3393,60.8881,146.203,100.181,100.484,0.00311463,0.150834,20.8378,59.596,-0.0273484,0.0,0.0
1944,485.75,58.3012,61.0922,151.396,100.17,100.455,0.00332019,0.151246,20.8376,59.556,-0.0256952,0.0,0.0
1950,487.25,58.0249,60.5991,147.876,100.187,100.336,0.00353421,0.151433,20.8375,59.5459,-0.0134519,0.0,0.0
1956,488.75,58.3822,60.3535,147.497,100.165,100.343,0.00370677,0.151256,20.8375,59.4959,-0.0160704,0.0,0.0
1962,490.25,57.9085,60.2924,143.751,100.179,100.442,0.00370223,0.150664,20.8374,59.4859,-0.0237078,0.0,0.0
1968,491.75,57.7265,60.22,143.406,100.163,100.493,0.00361876,0.150289,20.8374,59.4859,-0.0297563,0.0,0.0
1974,493.25,57.5983,59.8365,141.896,100.139,100.4,0.0035286,0.150043,20.838,59.4659,-0.0236445,0.0,0.0
1980,494.75,57.7118,60.4638,148.508,100.105,100.368,0.00347719,0.149462,20.8388,59.4358,-0.0237268,0.0,0.0
1986,496.25,57.6552,60.0632,141.5,100.088,100.249,0.00347864,0.148577,20.8404,59.4258,-0.0145372,0.0,0.0
1992,497.75,57.7069,60.1266,147.886,100.039,100.322,0.00351896,0.147972,20.8409,59.3658,-0.0255793,0.0,0.0
1998,499.25,58.0476,60.1375,144.755,100.008,100.236,0.00359367,0.147525,20.8407,59.3658,-0.020579,0.0,0.0
2004,500.75,57.442,59.7823,143.968,99.9648,100.202,0.00367392,0.147113,20.8407,59.3157,-0.0214979,0.0,0.0
2010,502.25,57.6606,60.002,144.868,99.9031,100.143,0.00366716,0.146646,20.8406,59.2957,-0.0216835,0.0,0.0
2016,503.75,57.3742,59.6837,146.142,99.8503,100.05,0.00356074,0.146257,20.8404,59.2957,-0.0180718,0.0,0.0
2022,505.25,57.3289,59.4523,141.943,99.7958,100.079,0.00341954,0.146297,20.8401,59.2657,-0.0256232,0.0,0.0
2028,506.75,57.7655,59.8839,144.503,99.7156,99.97,0.0033409,0.146156,20.841,59.2356,-0.0230794,0.0,0.0
2034,508.25,57.3115,59.8265,144.254,99.6607,99.9407,0.00331816,0.145578,20.8415,59.2356,-0.0254115,0.0,0.0
2040,509.75,57.3334,59.51,147.186,99.6083,99.7702,0.00334367,0.145136,20.8418,59.2256,-0.0147145,0.0,0.0
2046,511.25,57.3829,59.5166,142.943,99.5462,99.7486,0.00343968,0.145095,20.8419,59.1756,-0.0184007,0.0,0.0
2052,512.75,57.3615,59.4908,142.948,99.4933,99.7507,0.00359115,0.144868,20.8426,59.1456,-0.0234025,0.0,0.0
2058,514.25,57.3006,59.2244,148.28,99.4344,99.6663,0.00373076,0.144566,20.8434,59.1255,-0.0210985,0.0,0.0
2064,515.75,57.3583,59.737,144.579,99.424,99.587,0.00381457,0.144173,20.8439,59.1155,-0.0148438,0.0,0.0
2070,517.25,57.3999,59.4996,149.902,99.3655,99.6477,0.00379747,0.143755,20.8441,59.0555,-0.0256876,0.0,0.0
2076,518.75,56.5049,58.5556,144.776,99.428,99.6375,0.00369472,0.14356,20.8443,59.0355,-0.0190651,0.0,0.0
2082,520.25,56.9063,59.4146,146.549,99.4941,99.7333,0.0035519,0.143689,20.8443,59.0355,-0.0217501,0.0,0.0
2088,521.75,57.3722,59.2535,144.333,99.5841,99.7957,0.00347189,0.143887,20.8453,58.9954,-0.0192252,0.0,0.0
2094,523.25,56.447,58.4858,147.494,99.6272,99.8847,0.00342095,0.143813,20.8461,58.9754,-0.0233803,0.0,0.0
2100,524.75,56.8488,58.9907,148.591,99.7059,100.013,0.0033977,0.14353,20.8475,58.9554,-0.027839,0.0,0.0
2106,526.25,56.5662,58.6743,145.429,99.7301,99.8936,0.00340931,0.143047,20.8477,58.9454,-0.0148411,0.0,0.0
2112,527.75,56.5739,58.4706,147.096,99.7688,99.9886,0.00344468,0.142533,20.8483,58.9254,-0.0199356,0.0,0.0
2118,529.25,56.4096,58.9748,147.703,99.7821,99.9488,0.0034445,0.142294,20.8488,58.8853,-0.0151147,0.0,0.0
2124,530.75,57.3588,59.0018,145.817,99.8023,99.9886,0.00339196,0.142349,20.8491,58.8753,-0.0168963,0.0,0.0
2130,532.25,56.9815,58.2464,144.96,99.8257,99.9916,0.00333346,0.142136,20.8492,58.8353,-0.0150428,0.0,0.0
2136,533.75,56.5651,58.5608,142.658,99.8696,100.034,0.00331706,0.141869,20.8493,58.8253,-0.0148562,0.0,0.0
2142,535.25,56.9844,58.5184,144.306,99.8918,100.111,0.00329448,0.142296,20.8493,58.8153,-0.0198307,0.0,0.0
2148,536.75,56.3432,58.3807,144.078,99.9184,100.084,0.00326737,0.142459,20.8493,58.8052,-0.0149611,0.0,0.0
2154,538.25,57.002,58.3216,142.74,99.941,100.209,0.0032775,0.14226,20.8493,58.7452,-0.0242291,0.0,0.0
2160,539.75,56.4454,58.2285,139.809,99.9499,100.115,0.0033766,0.141905,20.8493,58.7452,-0.0149882,0.0,0.0
2166,541.25,56.3935,58.2595,142.485,99.9604,100.268,0.00353974,0.14179,20.8493,58.7352,-0.0278011,0.0,0.0
2172,542.75,56.5803,58.517,142.42,99.9693,100.309,0.00363873,0.141694,20.8493,58.7152,-0.0307509,0.0,0.0
2178,544.25,56.1786,57.8274,143.01,99.9822,100.187,0.00368201,0.141569,20.8493,58.7152,-0.0185073,0.0,0.0
2184,545.75,56.6262,57.9137,147.544,99.9705,100.246,0.0036884,0.141212,20.8512,58.6851,-0.0249724,0.0,0.0
2190,547.25,56.7711,58.1146,143.197,99.964,100.219,0.00375013,0.140605,20.8525,58.6851,-0.0230648,0.0,0.0
2196,548.75,56.1376,57.5616,144.065,99.9644,100.109,0.00386016,0.140401,20.8532,58.6551,-0.0131345,0.0,0.0
2202,550.25,54.5696,56.2969,144.371,99.9443,100.163,0.00397023,0.140298,20.8541,58.6151,-0.0198344,0.0,0.0
2208,551.75,54.5221,55.8826,146.273,99.8995,100.106,0.00405408,0.139977,20.8551,58.575,-0.018675,0.0,0.0
2214,553.25,54.5845,56.1062,147.421,99.893,100.147,0.00408903,0.139783,20.8557,58.575,-0.0230204,0.0,0.0
2220,554.75,54.4777,55.7788,148.713,99.8487,100.132,0.00409264,0.139625,20.8559,58.565,-0.0257012,0.0,0.0
2226,556.25,54.1378,56.0579,147.341,99.8297,99.97,0.00408338,0.139476,20.8561,58.545,-0.0127166,0.0,0.0
2232,557.75,54.3163,55.813,144.983,99.7684,99.9178,0.00408091,0.139308,20.8558,58.525,-0.0135541,0.0,0.0
2238,559.25,53.9696,55.5288,144.161,99.745,99.8707,0.00405786,0.138838,20.8556,58.515,-0.0114093,0.0,0.0
2244,560.75,54.3593,55.6636,142.41,99.6704,99.8016,0.00399676,0.13877,20.8555,58.505,-0.0119159,0.0,0.0
2250,562.25,54.1798,56.0615,150.707,99.6365,99.8601,0.00391523,0.139021,20.8555,58.4849,-0.0203057,0.0,0.0
2256,563.75,54.3602,56.0861,145.445,99.6002,99.8186,0.0038884,0.13894,20.8554,58.4549,-0.0198361,0.0,0.0
2262,565.25,54.1586,55.7279,148.357,99.645,99.8266,0.00392021,0.138783,20.8554,58.4149,-0.0164966,0.0,0.0
2268,566.75,54.4287,55.9209,144.469,99.6841,99.8788,0.00395535,0.138743,20.8554,58.3949,-0.0176725,0.0,0.0
2274,568.25,53.6891,55.4173,146.702,99.7277,99.8902,0.004006,0.139399,20.8552,58.3448,-0.0147535,0.0,0.0
2280,569.75,54.1296,55.4192,147.559,99.7624,100.012,0.00411942,0.139913,20.855,58.3548,-0.0226718,0.0,0.0
2286,571.25,53.9374,55.1576,142.882,99.81,100.059,0.00418692,0.140076,20.8549,58.3048,-0.022537,0.0,0.0
2292,572.75,53.7828,55.4841,142.982,99.845,100.057,0.00416673,0.139783,20.8548,58.2747,-0.0192376,0.0,0.0
2298,574.25,53.7993,55.1217,148.83,99.9043,100.084,0.00403836,0.139105,20.8548,58.2848,-0.0163181,0.0,0.0
2304,575.75,53.9825,55.6837,143.899,99.9422,100.18,0.00391093,0.138239,20.8548,58.2747,-0.0215125,0.0,0.0
2310,577.25,54.1243,55.1846,145.061,100.01,100.274,0.0038484,0.137825,20.8554,58.2247,-0.0239189,0.0,0.0
2316,578.75,54.0484,55.3012,146.111,100.048,100.196,0.00388176,0.137835,20.8562,58.2247,-0.0133946,0.0,0.0
2322,580.25,53.9883,55.543,145.861,100.096,100.286,0.00396086,0.137775,20.8566,58.1546,-0.0171765,0.0,0.0
2328,581.75,54.0894,55.2563,145.055,100.156,100.283,0.00400576,0.137406,20.8568,58.1847,-0.0114331,0.0,0.0
2334,583.25,53.5862,54.9046,142.211,100.19,100.374,0.0040331,0.137278,20.857,58.1747,-0.016601,0.0,0.0
2340,584.75,53.5608,55.2908,142.226,100.258,100.452,0.00407672,0.137707,20.857,58.1747,-0.0174799,0.0,0.0
2346,586.25,53.779,55.4509,142.016,100.31,100.55,0.00416442,0.138357,20.8564,58.1446,-0.0216462,0.0,0.0
2352,587.75,54.1741,55.0996,145.87,100.336,100.534,0.00425787,0.138625,20.8556,58.1346,-0.0179014,0.0,0.0
2358,589.25,53.9242,55.06,142.911,100.376,100.548,0.00426741,0.138022,20.8548,58.1246,-0.0154473,0.0,0.0
2364,590.75,53.7957,54.8533,150.24,100.414,100.641,0.00420748,0.13718,20.8544,58.1246,-0.0204275,0.0,0.0
2370,592.25,53.9141,55.3328,143.382,100.436,100.659,0.00418004,0.136677,20.8563,58.0645,-0.0200682,0.0,0.0
2376,593.75,53.7858,55.4443,144.249,100.456,100.697,0.00427098,0.136963,20.8577,58.0445,-0.0216814,0.0,0.0
2382,595.25,53.985,55.2762,144.797,100.478,100.717,0.00440924,0.137484,20.8589,58.0746,-0.0215125,0.0,0.0
2388,596.75,53.5345,54.6826,144.967,100.499,100.705,0.00451879,0.137743,20.8587,58.0245,-0.0185543,0.0,0.0
2394,598.25,53.5224,54.8822,140.992,100.512,100.686,0.00455821,0.137818,20.8586,57.9845,-0.0156723,0.0,0.0
2400,599.75,53.5994,55.2923,149.13,100.543,100.679,0.00454444,0.137571,20.8585,57.9144,-0.0123014,0.0,0.0
2406,601.25,54.2007,55.2967,147.107,100.537,100.79,0.00449798,0.136644,20.8585,57.9244,-0.0227611,0.0,0.0
2412,602.75,53.5476,54.6765,146.797,100.558,100.778,0.0044688,0.136269,20.8589,57.9044,-0.0198431,0.0,0.0
2418,604.25,53.6754,55.155,142.585,100.545,100.684,0.00452314,0.136791,20.859,57.8744,-0.0125398,0.0,0.0
2424,605.75,53.3508,55.0647,144.093,100.548,100.793,0.00459227,0.137506,20.8597,57.8644,-0.0219747,0.0,0.0
2430,607.25,53.6484,55.091,142.736,100.544,100.687,0.00457529,0.137918,20.8597,57.8644,-0.0128431,0.0,0.0
2436,608.75,53.7572,54.7393,147.334,100.554,100.696,0.00455332,0.137735,20.8591,57.8544,-0.0128106,0.0,0.0
2442,610.25,53.4707,54.7344,145.086,100.521,100.755,0.00453496,0.137328,20.8588,57.8343,-0.0210909,0.0,0.0
2448,611.75,53.608,55.0359,143.135,100.53,100.824,0.00449394,0.136936,20.8586,57.8343,-0.0264273,0.0,0.0
2454,613.25,53.6331,54.8699,143.689,100.52,100.61,0.00443654,0.136532,20.8588,57.9044,-0.00807728,0.0,0.0
2460,614.75,53.8152,54.7558,144.129,100.503,100.639,0.00438076,0.136372,20.8595,57.8143,-0.0122743,0.0,0.0
2466,616.25,54.0996,54.9024,145.006,100.486,100.553,0.00431051,0.136214,20.8598,57.7943,-0.00608727,0.0,0.0
2472,617.75,53.7341,54.9562,144.176,100.467,100.682,0.00430181,0.136015,20.86,57.7442,-0.019328,0.0,0.0
2478,619.25,53.4055,55.1741,145.753,100.446,100.657,0.00433868,0.135931,20.86,57.6842,-0.0190407,0.0,0.0
2484,620.75,53.4449,54.8152,145.821,100.431,100.572,0.00440087,0.136179,20.8601,57.7042,-0.0127144,0.0,0.0
2490,622.25,53.3944,54.713,147.501,100.403,100.534,0.00443928,0.136076,20.8601,57.7142,-0.0117861,0.0,0.0
2496,623.75,53.5684,54.7446,143.091,100.375,100.588,0.00444374,0.13591,20.8601,57.6642,-0.0191852,0.0,0.0
2502,625.25,53.3037,54.7867,142.324,100.356,100.557,0.00446068,0.135781,20.8601,57.6241,-0.0181096,0.0,0.0
2508,626.75,53.3949,54.5343,146.94,100.318,100.4,0.00450784,0.135696,20.8601,57.6141,-0.00738507,0.0,0.0
2514,628.25,52.5175,54.5641,146.32,100.298,100.373,0.00455749,0.13589,20.8601,57.5941,-0.00675938,0.0,0.0
2520,629.75,53.1897,54.581,147.648,100.254,100.445,0.00459098,0.135924,20.8601,57.504,-0.0172706,0.0,0.0
2526,631.25,52.9164,54.3168,144.207,100.242,100.302,0.00460461,0.135822,20.8598,57.524,-0.00539035,0.0,0.0
2532,632.75,53.2052,54.6692,147.908,100.216,100.4,0.00460025,0.135646,20.8593,57.6041,-0.0166404,0.0,0.0
2538,634.25,52.9516,54.2246,144.16,100.217,100.316,0.004592,0.135402,20.8601,57.5641,-0.00895274,0.0,0.0
2544,635.75,52.793,54.478,142.914,100.172,100.256,0.00459753,0.13467,20.8605,57.5441,-0.00759689,0.0,0.0
2550,637.25,52.8058,53.9664,142.468,100.193,100.278,0.00458119,0.134141,20.8607,57.5441,-0.00765633,0.0,0.0
2556,638.75,53.0141,54.0797,144.857,100.163,100.224,0.00455817,0.134052,20.8603,57.524,-0.00556323,0.0,0.0
2562,640.25,52.4192,54.2838,146.348,100.157,100.341,0.00454804,0.133961,20.8606,57.514,-0.016608,0.0,0.0
2568,641.75,52.8763,54.2517,147.593,100.133,100.251,0.00454022,0.133956,20.861,57.464,-0.0106774,0.0,0.0
2574,643.25,53.321,54.3139,145.202,100.128,100.32,0.00448471,0.13382,20.8612,57.474,-0.0173588,0.0,0.0
2580,644.75,52.5812,53.9213,145.5,100.103,100.229,0.00443638,0.133235,20.8613,57.444,-0.0113472,0.0,0.0
2586,646.25,52.9751,54.1356,146.499,100.085,100.182,0.00451211,0.132939,20.8614,57.3339,-0.00873657,0.0,0.0
2592,647.75,52.8339,54.3471,144.169,100.08,100.202,0.00465707,0.13326,20.8614,57.3339,-0.0110515,0.0,0.0
2598,649.25,52.9172,54.0096,147.053,100.098,100.205,0.00480865,0.133561,20.8614,57.3539,-0.00974992,0.0,0.0
2604,650.75,52.5179,54.1043,147.591,100.083,100.195,0.00493214,0.133438,20.8614,57.3339,-0.0101418,0.0,0.0
2610,652.25,52.3968,54.066,144.276,100.076,100.224,0.00496723,0.133368,20.8614,57.2938,-0.0133708,0.0,0.0
2616,653.75,52.774,53.8754,144.705,100.073,100.234,0.0048952,0.133344,20.8614,57.2638,-0.0145826,0.0,0.0
2622,655.25,52.6132,53.6109,147.419,100.072,100.218,0.00478908,0.13318,20.8625,57.2638,-0.0131989,0.0,0.0
2628,656.75,52.8347,53.8383,143.735,100.073,100.112,0.00469266,0.132721,20.8631,57.2438,-0.0035365,0.0,0.0
2634,658.25,52.4093,53.6311,146.178,100.081,100.218,0.00459744,0.132153,20.8635,57.2338,-0.0124327,0.0,0.0
2640,659.75,52.3261,53.6991,144.447,100.064,100.276,0.00449326,0.132174,20.8636,57.1937,-0.0191045,0.0,0.0
2646,661.25,52.6852,53.8163,141.889,100.071,100.274,0.00442115,0.132621,20.8627,57.2137,-0.0184039,0.0,0.0
2652,662.75,52.7736,53.669,142.866,100.072,100.173,0.00434218,0.132956,20.8636,57.2338,-0.00913541,0.0,0.0
2658,664.25,52.8774,54.2575,145.517,100.074,100.241,0.00424564,0.132845,20.8629,57.2137,-0.0151234,0.0,0.0
2664,665.75,52.869,53.9971,143.379,100.075,100.25,0.00421224,0.132345,20.8625,57.1637,-0.015781,0.0,0.0
2670,667.25,52.9878,53.7082,146.43,100.068,100.162,0.00426236,0.13204,20.8633,57.1437,-0.00842853,0.0,0.0
2676,668.75,52.6182,53.7818,147.908,100.094,100.232,0.00430583,0.131962,20.8638,57.1537,-0.0124927,0.0,0.0