File: 01_Data/Homasote/Cone/Homasote_Cone_HF25Scan_230608_R4.csv
Names,Time,Stack TC,Smoke TC,Exh Press,Smoke Comp,Smoke Meas,CO Meter,CO2 Meter,O2 Meter,Sample Mass,Ext Coeff,Start Test,Flame Verif
Chan Gain,,500,500,1,1,1,1,1,1,1,1,1.0,1.0
Offset,,0,0,0.143883,0,0,0,0,0,0,0,0.0,0.0
Gain,,1,1,25.011,13.4045,14.1318,1,1,1,1.00094,1.03262,1.0,1.0
Units,sec,C,C,Pa,%,%,%,%,%,g,/m,,
Baseline,,28.182,28.4665,159.472,101.009,100.957,0.000596986,0.0589524,20.9403,-445.497,0.00471186,,
9,2,25.568,26.0075,160.621,101.246,101.115,0.000655895,0.0605783,20.9449,108.732,0.0117018,0.0,0.0
18,4.25,25.149,26.0357,157.239,101.247,101.167,0.000569919,0.0628658,20.9431,108.612,0.00713899,0.0,0.0
27,6.5,25.6871,26.1083,156.425,101.254,101.24,0.000560381,0.0652116,20.9405,108.632,0.00123629,0.0,0.0
36,8.75,26.0236,26.2592,158.724,101.251,101.157,0.000563125,0.0661425,20.9363,108.622,0.00835705,0.0,0.0
45,11,25.0605,26.4989,160.95,101.255,101.141,0.000633687,0.0658291,20.9341,108.492,0.010152,0.0,0.0
54,13.25,25.8775,25.911,158.9,101.239,101.078,0.000754639,0.0648953,20.9337,108.532,0.0144017,0.0,0.0
63,15.5,25.083,25.6153,167.889,101.254,101.017,0.000829471,0.0636661,20.9346,108.472,0.0212482,0.0,0.0
72,17.75,25.6357,25.8409,160.292,101.265,100.823,0.000889322,0.0620832,20.9353,108.482,0.0396132,0.0,0.0
81,20,25.5952,25.8826,160.805,101.266,100.712,0.000941333,0.0603335,20.938,108.472,0.0496909,0.0,0.0
90,22.25,25.6391,25.7105,161.918,101.255,100.628,0.00087803,0.0589425,20.9408,108.432,0.0563434,0.0,0.0
99,24.5,25.7262,26.3024,162.685,101.264,100.557,0.000725803,0.0580389,20.943,108.362,0.0634778,0.0,0.0
108,26.75,25.8474,26.4068,163.934,101.269,100.399,0.000565381,0.05746,20.9443,108.352,0.0781848,0.0,0.0
117,29,26.063,26.1482,160.289,101.254,100.505,0.000497984,0.0571607,20.9457,108.342,0.0672675,0.0,0.0
126,31.25,26.0859,26.2577,158.707,101.268,100.637,0.000520232,0.0572959,20.9466,108.302,0.056587,0.0,0.0
135,33.5,25.9388,25.8369,162.821,101.262,100.397,0.00066313,0.0580082,20.9472,108.262,0.0777587,0.0,0.0
144,35.75,25.9403,26.7915,158.519,101.284,100.269,0.00084322,0.0585656,20.9474,108.272,0.091224,0.0,0.0
153,38,26.3772,26.2207,159.658,101.256,100.166,0.00100077,0.0584525,20.9475,108.242,0.0980138,0.0,0.0
162,40.25,26.3271,26.6508,157.519,101.257,99.9919,0.00100586,0.0583508,20.9475,108.202,0.113856,0.0,0.0
171,42.5,25.9572,26.1487,159.625,101.257,99.9518,0.000903968,0.0581028,20.9471,108.172,0.117563,0.0,0.0
180,44.75,26.4548,26.0945,158.368,101.245,99.9026,0.000875622,0.0580652,20.9469,108.142,0.120886,0.0,0.0
189,47,26.124,25.9431,157.342,101.241,99.5076,0.000947907,0.0582229,20.9468,107.921,0.156443,0.0,0.0
198,49.25,25.5102,25.8842,156.955,101.238,99.3532,0.00108521,0.058393,20.9469,108.031,0.170253,0.0,0.0
207,51.5,26.2468,26.7802,158.416,101.225,99.0733,0.00115388,0.0588556,20.9465,107.991,0.194636,0.0,0.0
216,53.75,26.3161,26.6581,163.3,101.2,99.1134,0.0012192,0.0595968,20.9456,107.941,0.188737,0.0,0.0
225,56,26.0454,26.2156,151.566,101.188,101.264,0.00130305,0.0614164,20.9448,107.751,-0.00677937,0.0,1.0
234,58.25,27.6094,26.8608,140.801,101.179,101.272,0.00141535,0.0642851,20.9424,107.441,-0.00839125,0.0,1.0
243,60.5,27.5665,26.4821,141.329,101.175,100.986,0.00162066,0.0674701,20.9406,107.121,0.0169661,0.0,0.0
252,62.75,29.4428,26.9382,144.044,101.136,100.789,0.00192725,0.075392,20.9363,106.84,0.0311408,0.0,0.0
261,65,30.7903,28.5722,147.437,101.117,100.566,0.00222268,0.128229,20.9313,106.61,0.0494794,0.0,0.0
270,67.25,32.4263,29.4559,147.224,101.094,100.516,0.00252804,0.24488,20.9069,106.35,0.0519351,0.0,0.0
279,69.5,33.52,31.1527,147.913,101.043,100.364,0.00279677,0.325824,20.8171,106.09,0.061081,0.0,0.0
288,71.75,33.9081,30.8283,147.969,101.036,100.384,0.00289838,0.359648,20.7035,105.829,0.0586299,0.0,0.0
297,74,35.8419,32.1927,141.156,100.987,100.217,0.00278237,0.368214,20.6355,105.669,0.0693765,0.0,0.0
306,76.25,35.3004,32.8951,149.257,100.967,100.043,0.00267694,0.366284,20.6054,105.439,0.0832641,0.0,0.0
315,78.5,36.4056,34.3221,146.577,100.939,100.302,0.00256103,0.35652,20.5958,105.189,0.057293,0.0,0.0
324,80.75,37.0628,34.7185,148.951,100.915,100.253,0.00248783,0.34338,20.5987,104.989,0.0596437,0.0,0.0
333,83,37.4019,34.5945,147.383,100.906,100.154,0.00246747,0.332449,20.6087,104.798,0.0678012,0.0,0.0
342,85.25,37.5124,34.9469,148.415,100.848,100.101,0.00246306,0.323602,20.6207,104.588,0.0672696,0.0,0.0
351,87.5,38.1719,35.9476,150.068,100.817,100.233,0.00257204,0.313478,20.6336,104.388,0.0526189,0.0,0.0
360,89.75,37.6429,35.3967,147.55,100.788,99.8341,0.00277178,0.304689,20.644,104.198,0.086131,0.0,0.0
369,92,37.9705,36.038,152.551,100.751,100.152,0.00293966,0.298038,20.6543,103.978,0.0539908,0.0,0.0
378,94.25,38.3009,36.8244,151.404,100.693,100.057,0.00297224,0.290721,20.6634,103.777,0.0574293,0.0,0.0
387,96.5,38.5136,36.3719,148.388,100.66,99.8936,0.00296023,0.284428,20.6701,103.617,0.069219,0.0,0.0
396,98.75,38.7122,37.118,148.911,100.652,100.093,0.00294593,0.279633,20.6767,103.407,0.050434,0.0,0.0
405,101,39.081,36.8152,149.824,100.618,100.214,0.00282685,0.274194,20.6841,103.257,0.0364928,0.0,0.0
414,103.25,39.3534,37.1895,149.946,100.583,100.101,0.0026249,0.268747,20.6904,103.057,0.0435816,0.0,0.0
423,105.5,38.914,37.7732,151.74,100.563,100.244,0.00243545,0.264701,20.6976,102.827,0.0287526,0.0,0.0
432,107.75,38.8118,38.0028,154.711,100.551,100.274,0.00242472,0.261913,20.7038,102.686,0.0250341,0.0,0.0
441,110,38.7757,37.9774,148.737,100.517,100.246,0.00268047,0.259167,20.7074,102.506,0.0244321,0.0,0.0
450,112.25,38.6757,38.182,153.027,100.521,100.491,0.00291035,0.255801,20.7108,102.386,0.00269155,0.0,0.0
459,114.5,38.4828,38.2411,151.906,100.512,100.389,0.00302591,0.254182,20.7135,102.196,0.0110979,0.0,0.0
468,116.75,38.8396,38.5155,151.111,100.518,100.502,0.00309263,0.254707,20.7141,102.076,0.00142523,0.0,0.0
477,119,38.8979,38.5393,149.884,100.56,100.557,0.00310028,0.255099,20.7142,101.896,0.000247271,0.0,0.0
486,121.25,38.8189,38.9854,149.52,100.614,100.638,0.00308642,0.253621,20.712,101.716,-0.0021145,0.0,0.0
495,123.5,38.8517,38.0518,154.302,100.664,100.698,0.00315767,0.24978,20.7116,101.545,-0.00309308,0.0,0.0
504,125.75,38.5454,38.1973,150.839,100.71,100.784,0.00332451,0.244736,20.7127,101.395,-0.00664808,0.0,0.0
513,128,38.1061,38.6149,153.424,100.764,100.874,0.00339301,0.239409,20.7184,101.225,-0.00989261,0.0,0.0
522,130.25,38.5081,38.9132,150.052,100.812,100.822,0.00346881,0.234035,20.725,101.145,-0.000865503,0.0,0.0
531,132.5,38.0691,38.725,162.989,100.849,100.978,0.00353711,0.229655,20.7305,100.975,-0.0116115,0.0,0.0
540,134.75,38.4054,38.4654,152.288,100.875,101.063,0.00349732,0.224388,20.7378,100.785,-0.01684,0.0,0.0
549,137,38.0631,39.139,155.195,100.958,100.991,0.00346106,0.219274,20.7437,100.675,-0.00300451,0.0,0.0
558,139.25,37.9879,38.2235,152.242,101.008,101.092,0.00346489,0.215499,20.7497,100.524,-0.0074618,0.0,0.0
567,141.5,37.8114,38.829,149.27,101.052,101.229,0.00347379,0.212375,20.7557,100.404,-0.0158567,0.0,0.0
576,143.75,37.7224,38.9036,158.083,101.116,101.274,0.00346037,0.207907,20.7612,100.254,-0.0141894,0.0,0.0
585,146,38.0829,38.4597,148.318,101.158,101.352,0.00346483,0.203978,20.7661,100.124,-0.0173171,0.0,0.0
594,148.25,37.3137,39.0519,149.136,101.194,101.359,0.00354023,0.201783,20.7715,99.9939,-0.0147859,0.0,0.0
603,150.5,37.6718,38.478,150.249,101.211,101.362,0.00365116,0.200774,20.776,99.8338,-0.0134795,0.0,0.0
612,152.75,37.792,38.7525,155.746,101.253,101.391,0.00376152,0.200407,20.7782,99.7437,-0.0122932,0.0,0.0
621,155,37.1414,38.877,155.074,101.249,101.416,0.00385271,0.198366,20.7791,99.5735,-0.0148551,0.0,0.0
630,157.25,37.4514,38.6943,154.081,101.241,101.42,0.00397768,0.196288,20.7804,99.4134,-0.0160114,0.0,0.0
639,159.5,37.3135,38.399,152.727,101.223,101.363,0.00413037,0.194615,20.7822,99.3033,-0.0125728,0.0,0.0
648,161.75,37.6139,38.6138,155.011,101.206,101.35,0.00412556,0.193235,20.7842,99.1932,-0.012842,0.0,0.0
657,164,37.083,38.7858,155.395,101.176,101.257,0.00392551,0.191943,20.7857,99.023,-0.00729754,0.0,0.0
666,166.25,37.0244,38.2754,154.212,101.075,101.129,0.00374371,0.190959,20.7862,98.8729,-0.00477128,0.0,0.0
675,168.5,36.4675,38.7309,152.531,101.026,101.077,0.00379707,0.191414,20.786,98.6727,-0.00460815,0.0,0.0
684,170.75,37.0258,38.3924,152.671,100.94,101.001,0.00417994,0.190926,20.7863,98.5726,-0.00547409,0.0,0.0
693,173,36.2516,38.0257,152.351,100.823,100.976,0.00470974,0.188397,20.7865,98.4024,-0.0137331,0.0,0.0
702,175.25,36.2465,38.1877,154.193,100.87,100.865,0.00513589,0.184159,20.787,98.2923,0.000479419,0.0,0.0
711,177.5,36.5276,37.9008,154.56,100.916,100.986,0.00534202,0.180485,20.7898,98.1622,-0.00628285,0.0,0.0
720,179.75,36.0099,37.7215,151.934,100.967,100.997,0.0054532,0.177371,20.7933,97.9921,-0.00269991,0.0,0.0
729,182,35.8576,37.6564,154.468,101.021,101.053,0.00559964,0.176538,20.7957,97.902,-0.00292242,0.0,0.0
738,184.25,36.1049,37.4306,157.226,101.096,101.174,0.00578535,0.174718,20.7988,97.7819,-0.00703224,0.0,0.0
747,186.5,35.4836,37.3898,152.639,101.179,101.185,0.00602122,0.171964,20.8009,97.5917,-0.000559895,0.0,0.0
756,188.75,35.6257,37.356,151.058,101.256,101.327,0.00630056,0.169442,20.8049,97.4916,-0.00633147,0.0,0.0
765,191,34.9058,36.8986,155.217,101.329,101.272,0.00650885,0.165821,20.8083,97.3615,0.00507581,0.0,0.0
774,193.25,34.8031,37.2034,150.252,101.429,101.437,0.00668026,0.165942,20.8119,97.2814,-0.000653844,0.0,0.0
783,195.5,35.4476,36.3755,153.409,101.494,101.367,0.00689541,0.16997,20.8152,97.1212,0.0113179,0.0,0.0
792,197.75,35.1564,36.5464,155.566,101.545,100.022,0.00708667,0.170138,20.8143,97.0211,0.136885,0.0,0.0
801,200,34.3963,36.7965,157.249,101.611,100.672,0.00731191,0.166967,20.8131,96.901,0.0840151,0.0,0.0
810,202.25,33.912,36.4165,155.393,101.667,100.361,0.00772289,0.16155,20.8128,96.8009,0.117102,0.0,0.0
819,204.5,33.985,36.4973,153.828,101.714,99.9358,0.00836318,0.153104,20.817,96.7109,0.159792,0.0,0.0
828,206.75,33.7132,36.0339,156.117,101.753,100.137,0.00935274,0.141978,20.8254,96.6808,0.145017,0.0,0.0
837,209,33.1208,35.388,153.873,101.754,100.267,0.0109151,0.133902,20.8365,96.3906,0.133318,0.0,0.0
846,211.25,34.3568,37.0979,161.52,101.775,100.183,0.0124444,0.129288,20.8469,96.2804,0.142848,0.0,0.0
855,213.5,34.3262,37.0211,158.749,101.766,100.237,0.0136759,0.124376,20.8542,96.2204,0.137102,0.0,0.0
864,215.75,34.3136,37.037,152.138,101.764,100.456,0.0148032,0.119463,20.8596,96.0703,0.117216,0.0,0.0
873,218,33.6424,36.1837,161.244,101.744,100.549,0.0153447,0.115093,20.8669,95.9702,0.107075,0.0,0.0
882,220.25,33.486,36.065,154.415,101.733,100.242,0.0153501,0.113242,20.872,95.8701,0.133721,0.0,0.0
891,222.5,33.1816,35.917,156.077,101.712,100.421,0.0153138,0.113475,20.8741,95.6799,0.115744,0.0,0.0
900,224.75,33.1952,35.1976,158.318,101.678,100.438,0.0153958,0.114284,20.8743,95.6198,0.111088,0.0,0.0
909,227,33.304,35.2489,156.596,101.649,100.369,0.0154691,0.114792,20.8729,95.5097,0.114802,0.0,0.0
918,229.25,32.7814,34.9624,153.009,101.565,100.55,0.0155758,0.114802,20.8716,95.4296,0.0909567,0.0,0.0
927,231.5,32.6273,35.0097,157.929,101.506,100.319,0.0156398,0.113689,20.871,95.2995,0.106586,0.0,0.0
936,233.75,32.7584,35.2583,154.858,101.433,100.208,0.0155952,0.113771,20.8713,95.1994,0.110065,0.0,0.0
945,236,32.0962,34.2801,155.688,101.357,100.213,0.015552,0.114737,20.8724,95.0693,0.102797,0.0,0.0
954,238.25,32.5944,34.5818,159.296,101.256,100.12,0.0156045,0.115434,20.8724,94.9192,0.102187,0.0,0.0
963,240.5,32.0922,34.6932,162.144,101.154,100.105,0.0157371,0.115998,20.8709,94.789,0.0944357,0.0,0.0
972,242.75,32.4455,34.48,155.692,101.06,99.9229,0.0158899,0.11612,20.8703,94.6789,0.102453,0.0,0.0
981,245,31.9656,34.4096,156.533,100.958,99.8064,0.0159418,0.115677,20.87,94.5088,0.103918,0.0,0.0
990,247.25,32.089,34.3473,155.638,100.852,99.7275,0.0159463,0.115079,20.8706,94.4187,0.101535,0.0,0.0
999,249.5,31.8905,33.8743,156.687,100.765,99.5429,0.015836,0.114173,20.8716,94.3186,0.11056,0.0,0.0
1008,251.75,31.8837,33.6381,159.862,100.67,99.7482,0.0157444,0.113611,20.8726,94.2185,0.0832897,0.0,0.0
1017,254,31.8794,33.4029,154.657,100.577,99.4075,0.0158407,0.113464,20.8757,94.0984,0.10596,0.0,0.0
1026,256.25,31.8583,33.9225,156.257,100.5,99.3804,0.0160334,0.113741,20.8783,93.9683,0.101507,0.0,0.0
1035,258.5,31.425,33.0458,157.084,100.416,99.1074,0.0162269,0.113616,20.8795,93.7981,0.118862,0.0,0.0
1044,260.75,31.2287,33.4722,157.014,100.329,99.1755,0.0161084,0.112007,20.8789,93.7381,0.104773,0.0,0.0
1053,263,31.1116,32.3412,159.378,100.268,99.3631,0.0159032,0.111679,20.8793,93.5779,0.0821138,0.0,0.0
1062,265.25,31.7926,33.4281,155.06,100.227,98.8827,0.0157256,0.111602,20.8805,93.5179,0.122357,0.0,0.0
1071,267.5,31.0565,33.2142,158.181,100.165,99.1009,0.0156301,0.112082,20.8813,93.3877,0.0967671,0.0,0.0
1080,269.75,30.9378,33.4781,159.915,100.131,98.9353,0.0157343,0.112987,20.8816,93.2876,0.108847,0.0,0.0
1089,272,31.0102,33.0684,154.282,100.114,98.9991,0.0159018,0.113155,20.8805,93.1976,0.101413,0.0,0.0
1098,274.25,31.3127,33.3749,153.145,100.102,99.144,0.0160756,0.113097,20.8792,93.0874,0.0870914,0.0,0.0
1107,276.5,31.2035,32.6751,151.842,100.088,99.2268,0.0161324,0.112184,20.8793,92.9173,0.0782704,0.0,0.0
1116,278.75,30.9716,32.6097,155.888,100.095,99.0677,0.0160491,0.11137,20.8794,92.8572,0.0934386,0.0,0.0
1125,281,31.1926,32.1699,152.851,100.125,98.95,0.0160657,0.11126,20.8797,92.7371,0.106949,0.0,0.0
1134,283.25,31.0006,31.8433,154.577,100.144,99.0931,0.0161456,0.111434,20.8809,92.647,0.0955908,0.0,0.0
1143,285.5,30.9492,31.9129,155.237,100.155,99,0.0161353,0.111495,20.8817,92.587,0.105072,0.0,0.0
1152,287.75,30.7888,32.0791,159.741,100.229,99.2622,0.0160008,0.111603,20.8822,92.4368,0.0877694,0.0,0.0
1161,290,30.2912,32.0267,163.068,100.269,99.0974,0.015744,0.111406,20.8816,92.3668,0.106475,0.0,0.0
1170,292.25,30.9138,32.1707,156.743,100.303,99.0905,0.0156372,0.111544,20.8822,92.2467,0.110172,0.0,0.0
1179,294.5,30.7803,31.9408,157.197,100.364,99.2881,0.0159987,0.112108,20.8816,92.0965,0.0976367,0.0,0.0
1188,296.75,31.198,32.3839,158.934,100.429,99.5024,0.0162598,0.11137,20.8807,92.0064,0.0839359,0.0,0.0
1197,299,31.2981,32.0424,156.985,100.487,99.3743,0.0162203,0.11196,20.8804,91.9164,0.100877,0.0,0.0
1206,301.25,30.5168,31.9122,159.481,100.52,99.3346,0.0163506,0.113128,20.8803,91.8263,0.107408,0.0,0.0
1215,303.5,30.7293,31.6933,160.015,100.589,99.3571,0.0164892,0.113584,20.8789,91.6361,0.111663,0.0,0.0
1224,305.75,30.7727,31.8093,157.122,100.647,99.42,0.0165348,0.113576,20.8784,91.566,0.111081,0.0,0.0
1233,308,30.4157,31.9231,159.576,100.682,99.4903,0.016515,0.112441,20.879,91.4559,0.10788,0.0,0.0
1242,310.25,30.3765,31.1804,162.887,100.729,99.5391,0.0163555,0.112844,20.8782,91.3258,0.10764,0.0,0.0
1251,312.5,30.5539,31.4605,156.79,100.771,99.4994,0.0161316,0.112469,20.8774,91.2357,0.115002,0.0,0.0
1260,314.75,30.5112,31.4618,158.52,100.825,99.8146,0.0159188,0.112495,20.8771,91.1456,0.0912379,0.0,0.0
1269,317,30.5394,31.2493,156.098,100.852,99.7081,0.0159666,0.112911,20.8788,91.0055,0.103298,0.0,0.0
1278,319.25,30.6836,31.6961,155.015,100.9,99.9483,0.0161639,0.11231,20.8796,90.9154,0.0858732,0.0,0.0
1287,321.5,30.8868,31.6555,158.184,100.94,99.5994,0.0162745,0.112565,20.8799,90.7953,0.121109,0.0,0.0
1296,323.75,30.6601,31.5001,158.863,100.979,99.8841,0.0164038,0.1126,20.8801,90.6952,0.0987828,0.0,0.0
1305,326,30.6694,31.4473,165.277,101.021,99.7858,0.0164504,0.112333,20.8801,90.5951,0.11141,0.0,0.0
1314,328.25,30.9059,31.2253,160.448,101.058,99.9617,0.0163356,0.111706,20.8797,90.465,0.0988245,0.0,0.0
1323,330.5,30.4918,31.2835,159.239,101.096,100.017,0.0162416,0.112224,20.8804,90.4049,0.0971602,0.0,0.0
1332,332.75,30.3216,31.3388,157.291,101.11,99.7353,0.0164225,0.113169,20.8801,90.2548,0.123983,0.0,0.0
1341,335,30.2204,31.6071,156.979,101.172,99.7797,0.0167129,0.113769,20.8788,90.1547,0.125519,0.0,0.0
1350,337.25,30.6872,30.8825,161.719,101.198,99.8349,0.0169902,0.114118,20.8787,90.0346,0.122853,0.0,0.0
1359,339.5,30.1208,31.4485,155.489,101.217,99.7487,0.0170978,0.113581,20.8778,89.9645,0.132329,0.0,0.0
1368,341.75,30.2851,31.4614,162.068,101.249,99.8944,0.0170092,0.112699,20.877,89.8344,0.121994,0.0,0.0
1377,344,30.4756,31.0419,158.726,101.272,99.9255,0.0168887,0.112742,20.8777,89.6943,0.121229,0.0,0.0
1386,346.25,30.2301,31.193,156.471,101.285,99.8246,0.0169589,0.113414,20.8784,89.5942,0.131515,0.0,0.0
1395,348.5,30.5879,30.9498,158.14,101.298,100.074,0.0170435,0.113482,20.8787,89.5341,0.110131,0.0,0.0
1404,350.75,30.5597,30.8897,159.172,101.329,99.9811,0.0170103,0.11251,20.8788,89.3439,0.121307,0.0,0.0
1413,353,30.5932,30.8142,156.014,101.333,100.022,0.016815,0.112342,20.8787,89.1838,0.117961,0.0,0.0
1422,355.25,30.5328,30.8174,155.841,101.335,99.8884,0.0165712,0.113852,20.8787,89.1538,0.130224,0.0,0.0
1431,357.5,30.1188,30.6366,158.123,101.332,99.7991,0.0165731,0.114414,20.8778,89.1037,0.138102,0.0,0.0
1440,359.75,29.9261,30.2926,157.432,101.323,100.091,0.0167442,0.113921,20.8763,89.0236,0.11084,0.0,0.0
1449,362,29.8719,30.8229,161.337,101.333,99.8681,0.0168813,0.112958,20.8762,88.9035,0.131915,0.0,0.0
1458,364.25,30.0142,31.295,153.548,101.328,99.9005,0.0169371,0.112832,20.8778,88.7934,0.128543,0.0,0.0
1467,366.5,30.1191,30.7854,157.152,101.329,99.8681,0.0171134,0.113505,20.8792,88.7133,0.13155,0.0,0.0
1476,368.75,30.2439,30.5891,158.227,101.32,99.9337,0.0172963,0.113166,20.8798,88.6233,0.124765,0.0,0.0
1485,371,30.3551,31.1439,153.915,101.303,99.7754,0.0172755,0.112447,20.88,88.4731,0.137623,0.0,0.0
1494,373.25,30.7198,30.906,156.031,101.27,99.4744,0.0171157,0.111792,20.8805,88.4131,0.16203,0.0,0.0
1503,375.5,30.3103,30.9946,158.897,101.261,99.7073,0.0170984,0.111192,20.8817,88.323,0.140079,0.0,0.0
1512,377.75,30.3526,30.9294,156.03,101.25,99.2656,0.0171987,0.111105,20.8827,88.2129,0.1793,0.0,0.0
1521,380,30.2147,30.1875,155.814,101.229,99.6132,0.0172594,0.111542,20.8831,88.1328,0.145734,0.0,0.0
1530,382.25,30.3871,30.5658,154.692,101.168,99.0517,0.0172965,0.111856,20.8818,88.0327,0.191445,0.0,0.0
1539,384.5,30.2739,31.1323,159.4,101.16,99.3515,0.0172493,0.111321,20.8813,87.9426,0.163417,0.0,0.0
1548,386.75,30.4752,31.055,158.315,101.134,99.0026,0.0171889,0.11135,20.8824,87.8225,0.192938,0.0,0.0
1557,389,30.4252,30.4101,160.905,101.106,99.5486,0.0173717,0.112123,20.883,87.7224,0.140629,0.0,0.0
1566,391.25,30.5161,30.4752,155.411,101.088,99.1259,0.0176088,0.111834,20.8832,87.6323,0.177556,0.0,0.0
1575,393.5,30.2884,30.7593,158.5,101.064,98.9978,0.0177076,0.111192,20.8833,87.5723,0.187105,0.0,0.0
1584,395.75,30.5509,30.6448,154.433,101.036,99.0004,0.017715,0.110407,20.8833,87.4622,0.184374,0.0,0.0
1593,398,30.4354,30.7821,157.439,101.041,98.7002,0.0177267,0.110352,20.8834,87.4021,0.212283,0.0,0.0
1602,400.25,30.2711,30.7087,156.897,101.035,98.4536,0.0177774,0.111072,20.8836,87.262,0.234474,0.0,0.0
1611,402.5,30.9395,30.4822,157.498,101.044,98.6998,0.017877,0.111589,20.8839,87.1619,0.212579,0.0,0.0
1620,404.75,29.9771,30.0711,157.757,101.042,98.7201,0.0178545,0.111761,20.884,87.0418,0.210536,0.0,0.0
1629,407,30.3498,31.0008,159.597,101.049,98.3587,0.0178071,0.112961,20.8828,86.9417,0.244417,0.0,0.0
1638,409.25,30.0179,30.819,158.451,101.056,98.41,0.0179343,0.114221,20.8798,86.8216,0.240353,0.0,0.0
1647,411.5,29.9979,31.0231,155.93,101.077,98.7524,0.0181163,0.114587,20.8774,86.7215,0.210722,0.0,0.0
1656,413.75,29.7959,31.2239,159.18,101.07,98.5748,0.0182149,0.115328,20.8751,86.6114,0.22641,0.0,0.0
1665,416,30.7162,30.8903,155.109,101.111,98.8447,0.0181518,0.116256,20.872,86.5913,0.205375,0.0,0.0
1674,418.25,30.3876,30.742,159.008,101.139,98.1111,0.017975,0.116986,20.8701,86.4412,0.275344,0.0,0.0
1683,420.5,29.9861,31.025,162.758,101.156,97.8808,0.0179104,0.117791,20.8679,86.3711,0.298132,0.0,0.0
1692,422.75,30.3976,30.923,153.903,101.177,98.1525,0.0180322,0.118407,20.8661,86.211,0.274891,0.0,0.0
1701,425,30.0782,30.6356,157.204,101.213,98.4372,0.0181946,0.119184,20.8652,86.1109,0.25192,0.0,0.0
1710,427.25,30.3589,30.3877,161.76,101.236,98.0956,0.018244,0.120059,20.8625,85.9808,0.285456,0.0,0.0
1719,429.5,30.4049,30.6169,158.603,101.252,98.4876,0.0182688,0.120868,20.8606,85.9307,0.250756,0.0,0.0
1728,431.75,30.1949,30.6612,158.348,101.287,97.6605,0.0182786,0.120613,20.8587,85.7606,0.330227,0.0,0.0
1737,434,30.4152,30.3016,156.636,101.292,101.228,0.0183785,0.120804,20.8584,85.6505,0.00575783,0.0,0.0
1746,436.25,31.771,31.4291,158.588,101.309,101.416,0.0187102,0.120669,20.8593,85.4603,-0.00959048,0.0,0.0
1755,438.5,31.7314,31.1504,151.822,101.296,101.395,0.0189558,0.120007,20.8601,85.3402,-0.00891059,0.0,0.0
1764,440.75,32.0854,31.9735,155.731,101.299,101.35,0.0188188,0.130611,20.8605,85.2201,-0.00449687,0.0,0.0
1773,443,32.851,32.3235,152.333,101.311,101.508,0.0170934,0.160864,20.8596,85.15,-0.0176092,0.0,0.0
1782,445.25,33.0336,32.7736,152.346,101.274,101.334,0.0133102,0.183959,20.8351,84.9498,-0.00530176,0.0,0.0
1791,447.5,33.8132,33.0218,144.741,101.253,101.33,0.00899989,0.197145,20.8092,84.7796,-0.00685718,0.0,0.0
1800,449.75,33.7416,32.5664,148.551,101.225,101.432,0.0060469,0.205314,20.7853,84.6996,-0.0185148,0.0,0.0
1809,452,34.6203,33.6439,150.974,101.164,101.219,0.00459096,0.210258,20.7723,84.5294,-0.00492524,0.0,0.0
1818,454.25,34.6517,33.8912,148.36,101.127,101.092,0.00386538,0.212045,20.7654,84.4493,0.00316758,0.0,0.0
1827,456.5,35.276,34.1779,151.88,101.023,100.908,0.00328409,0.212585,20.7628,84.2491,0.0103343,0.0,0.0
1836,458.75,35.5033,34.4974,152.692,100.94,100.837,0.00289628,0.214255,20.7628,84.1491,0.00923731,0.0,0.0
1845,461,35.6562,35.3035,153.069,100.839,100.778,0.00275029,0.216963,20.7617,84.0189,0.00547618,0.0,0.0
1854,463.25,36.3302,35.7637,149.262,100.732,100.638,0.00264595,0.219279,20.7592,83.9088,0.00848543,0.0,0.0
1863,465.5,36.5035,35.0766,152.277,100.66,100.43,0.00256324,0.220134,20.7561,83.7387,0.0206622,0.0,0.0
1872,467.75,36.4591,36.5253,152.406,100.517,100.345,0.00249853,0.221007,20.7539,83.6286,0.015511,0.0,0.0
1881,470,36.8431,36.432,152.644,100.405,100.187,0.00242059,0.225185,20.7531,83.4684,0.0197011,0.0,0.0
1890,472.25,37.3155,36.0221,153.709,100.315,100.142,0.00231131,0.230014,20.7524,83.2983,0.0155994,0.0,0.0
1899,474.5,37.2881,36.3956,154.45,100.223,99.9828,0.00223337,0.232409,20.747,83.1381,0.0217653,0.0,0.0
1908,476.75,37.6628,36.954,150.598,100.165,99.753,0.00229837,0.233644,20.7428,82.988,0.0373628,0.0,0.0
1917,479,38.2315,37.1577,150.42,100.108,99.7353,0.00247024,0.236277,20.7396,82.8278,0.0338242,0.0,0.0
1926,481.25,38.1008,37.7339,148.449,100.089,99.6861,0.00250119,0.239674,20.7369,82.6276,0.0365132,0.0,0.0
1935,483.5,38.5477,37.4334,151.509,100.094,99.6564,0.00230012,0.242784,20.7349,82.4775,0.0396627,0.0,0.0
1944,485.75,38.8376,38.4919,150.492,100.09,99.6279,0.00209248,0.245354,20.7309,82.3374,0.0418793,0.0,0.0
1953,488,38.3016,38.0535,150.78,100.133,99.7271,0.00188876,0.248326,20.7286,82.1572,0.0368262,0.0,0.0
1962,490.25,39.1411,38.4063,148.902,100.176,99.6602,0.00183649,0.250166,20.7248,81.967,0.0467469,0.0,0.0
1971,492.5,39.6657,38.8037,151.433,100.234,99.7271,0.00192748,0.251749,20.7222,81.8069,0.0458874,0.0,0.0
1980,494.75,40.0756,39.5652,151.132,100.295,99.6551,0.00192964,0.253915,20.7191,81.6467,0.0580119,0.0,0.0
1989,497,39.8272,39.4128,149.923,100.383,99.6801,0.00194953,0.257186,20.7161,81.4565,0.0636419,0.0,0.0
1998,499.25,40.7019,39.6769,151.587,100.477,99.8504,0.00208747,0.258855,20.7129,81.2864,0.0566235,0.0,0.0
2007,501.5,40.8082,39.8946,149.064,100.539,99.9656,0.00213535,0.260317,20.71,81.1062,0.051788,0.0,0.0
2016,503.75,41.0451,40.8171,152.9,100.644,99.9358,0.0020634,0.262544,20.7082,80.926,0.0639517,0.0,0.0
2025,506,41.4379,40.4316,146.138,100.736,99.9522,0.00202482,0.266978,20.7059,80.7258,0.0707095,0.0,0.0
2034,508.25,42.1534,41.2722,148.166,100.809,100.098,0.00205817,0.269195,20.7018,80.5557,0.0641276,0.0,0.0
2043,510.5,41.1513,41.3746,150.724,100.886,99.9393,0.00198889,0.270338,20.698,80.3855,0.0854454,0.0,0.0
2052,512.75,42.121,40.8289,147.139,100.98,99.9958,0.00193063,0.272609,20.6963,80.1853,0.0887329,0.0,0.0
2061,515,42.3507,41.3513,153.785,101.058,100.208,0.00185979,0.275401,20.6943,80.0152,0.0764632,0.0,0.0
2070,517.25,42.2418,41.5571,151.265,101.122,100.087,0.001863,0.277613,20.6916,79.815,0.0931415,0.0,0.0
2079,519.5,42.6297,42.4396,151.983,101.195,100.151,0.00198208,0.279399,20.6896,79.5647,0.0939634,0.0,0.0
2088,521.75,42.9078,42.0513,147.591,101.274,100.391,0.00199974,0.281277,20.6882,79.3946,0.079327,0.0,0.0
2097,524,43.2729,42.0632,150.865,101.334,100.53,0.00199485,0.282938,20.6877,79.2144,0.072144,0.0,0.0
2106,526.25,43.4396,42.9937,145.46,101.356,100.223,0.0020541,0.28488,20.6861,79.0142,0.101825,0.0,0.0
2115,528.5,43.3685,43.3954,146.026,101.404,99.9397,0.00210049,0.287102,20.6845,78.804,0.131784,0.0,0.0
2124,530.75,43.633,42.753,149.244,101.433,100.487,0.00218033,0.288612,20.6805,78.6539,0.0848367,0.0,0.0
2133,533,44.0562,43.2784,146.718,101.453,99.9673,0.0023344,0.28964,20.679,78.4037,0.133632,0.0,0.0
2142,535.25,43.9899,43.3751,155.227,101.496,100.168,0.00233159,0.291971,20.6769,78.1634,0.119273,0.0,0.0
2151,537.5,43.9675,44.0034,145.742,101.514,100.097,0.00216639,0.294637,20.674,78.0233,0.127281,0.0,0.0
2160,539.75,44.5269,44.4193,149.602,101.545,100.273,0.00206911,0.297902,20.6711,77.8431,0.114221,0.0,0.0
2169,542,44.9468,44.6644,143.871,101.582,100.075,0.00197936,0.30004,20.668,77.6429,0.135401,0.0,0.0
2178,544.25,44.6507,44.6208,146.868,101.597,99.9841,0.00193861,0.301495,20.6652,77.4227,0.144918,0.0,0.0
2187,546.5,44.9275,45.1756,145.058,101.632,99.6766,0.00200853,0.302502,20.6629,77.2426,0.175991,0.0,0.0
2196,548.75,44.9563,45.406,151.936,101.629,100.095,0.0022567,0.303212,20.6609,77.0224,0.137839,0.0,0.0
2205,551,44.8478,44.6535,149.032,101.639,99.9544,0.00239298,0.303252,20.6598,76.8222,0.151369,0.0,0.0
2214,553.25,44.9916,45.6816,147.989,101.662,100.036,0.00242987,0.302969,20.6594,76.642,0.145989,0.0,0.0
2223,555.5,45.1739,46.1684,147.114,101.658,99.9393,0.00245661,0.3034,20.6592,76.4318,0.154488,0.0,0.0
2232,557.75,45.8736,45.5002,147.821,101.645,99.9453,0.00246742,0.304165,20.6591,76.2416,0.152774,0.0,0.0
2241,560,45.8451,46.1616,148.119,101.656,99.9074,0.00248776,0.303921,20.6596,76.0314,0.157126,0.0,0.0
2250,562.25,45.3584,45.796,149.734,101.679,99.5964,0.00261605,0.303627,20.6598,75.8112,0.187439,0.0,0.0
2259,564.5,45.3059,46.412,145.218,101.67,99.8328,0.00273442,0.303552,20.659,75.6411,0.165205,0.0,0.0
2268,566.75,45.6971,45.9479,149.659,101.697,100.038,0.00269891,0.302126,20.6586,75.4309,0.149042,0.0,0.0
2277,569,45.5504,45.6041,149.178,101.688,100.092,0.00257678,0.300601,20.6591,75.2507,0.143284,0.0,0.0
2286,571.25,45.7511,46.2615,148.722,101.692,100.222,0.00255392,0.298295,20.6601,75.0205,0.13191,0.0,0.0
2295,573.5,45.9495,46.6047,150.204,101.689,99.8785,0.00257153,0.297188,20.6618,74.8203,0.162771,0.0,0.0
2304,575.75,45.5219,46.4072,145.587,101.692,99.8604,0.00255832,0.295972,20.6639,74.6701,0.164595,0.0,0.0
2313,578,45.9475,46.8354,146.139,101.696,100.027,0.00252705,0.295023,20.6661,74.4399,0.149906,0.0,0.0
2322,580.25,45.6045,46.7434,147.346,101.707,100.101,0.00251647,0.291769,20.6679,74.2698,0.144176,0.0,0.0
2331,582.5,45.5054,46.316,145.378,101.709,99.8543,0.0024918,0.288089,20.67,74.0896,0.166674,0.0,0.0
2340,584.75,45.2667,46.5458,145.97,101.713,100.043,0.00251292,0.286545,20.6738,73.9194,0.149955,0.0,0.0
2349,587,45.5724,46.9231,146.833,101.713,99.9949,0.00239763,0.285686,20.6765,73.7593,0.15433,0.0,0.0
2358,589.25,45.2278,46.7998,146.008,101.698,100.335,0.00208556,0.28441,20.6786,73.5891,0.122286,0.0,0.0
2367,591.5,45.5033,46.3078,149.096,101.703,100.302,0.00193045,0.282755,20.6806,73.449,0.125683,0.0,0.0
2376,593.75,45.3547,46.5757,149.424,101.711,99.9656,0.00195974,0.281957,20.682,73.2888,0.156804,0.0,0.0
2385,596,45.6812,47.0482,149.126,101.709,100.164,0.0019966,0.281463,20.6825,73.1387,0.138664,0.0,0.0
2394,598.25,45.7884,46.9718,151.955,101.692,100.168,0.00204201,0.278745,20.6829,72.9686,0.136819,0.0,0.0
2403,600.5,45.3957,46.8196,149.489,101.669,100.176,0.0021022,0.275851,20.6856,72.7884,0.133962,0.0,0.0
2412,602.75,45.8865,47.1443,150.114,101.66,100.372,0.0021409,0.275072,20.6882,72.6082,0.115477,0.0,0.0
2421,605,45.3143,46.7022,150.046,101.638,99.8733,0.00213166,0.273781,20.6902,72.4381,0.158648,0.0,0.0
2430,607.25,44.7575,46.4045,151.226,101.632,100.393,0.00214037,0.270977,20.6909,72.2779,0.111127,0.0,0.0
2439,609.5,45.83,47.3802,150.302,101.622,100.113,0.00213163,0.26937,20.6923,72.1178,0.135468,0.0,0.0
2448,611.75,45.1273,47.682,148.741,101.61,100.286,0.00212048,0.268109,20.6941,71.9176,0.118813,0.0,0.0
2457,614,45.4974,46.7929,150.375,101.575,100.089,0.00215547,0.267314,20.6963,71.7474,0.133535,0.0,0.0
2466,616.25,45.6884,47.2448,148.786,101.535,99.7448,0.00216476,0.267,20.6971,71.6073,0.161119,0.0,0.0
2475,618.5,45.5843,46.9335,150.766,101.502,99.8841,0.00211306,0.266709,20.6974,71.4171,0.145557,0.0,0.0
2484,620.75,45.4575,47.4168,148.694,101.466,100.073,0.00226275,0.266289,20.6976,71.2269,0.125191,0.0,0.0
2493,623,45.0964,46.7624,147.303,101.426,99.9212,0.00245185,0.266786,20.6978,71.1068,0.135439,0.0,0.0
2502,625.25,45.8067,47.1601,147.308,101.377,99.8095,0.0024573,0.266884,20.6981,70.9567,0.141185,0.0,0.0
2511,627.5,45.5153,47.1016,146.561,101.341,100.078,0.00251133,0.265123,20.698,70.8065,0.113617,0.0,0.0
2520,629.75,45.2259,46.9393,151.425,101.286,99.8371,0.0025888,0.264221,20.6992,70.6364,0.13049,0.0,0.0
2529,632,45.5434,47.0418,153.091,101.248,99.6624,0.00268205,0.264944,20.6994,70.4762,0.142947,0.0,0.0
2538,634.25,44.868,46.7547,144.613,101.186,99.7504,0.00262224,0.263332,20.6998,70.306,0.129427,0.0,0.0
2547,636.5,45.2072,46.5445,146.322,101.152,99.4998,0.00247303,0.26192,20.7007,70.1859,0.149132,0.0,0.0
2556,638.75,44.8668,46.9518,143.684,101.093,99.1975,0.00254537,0.259714,20.7032,70.0558,0.171492,0.0,0.0
2565,641,44.7004,46.7873,150.442,101.068,99.6922,0.00272051,0.256841,20.7057,69.9057,0.124162,0.0,0.0
2574,643.25,45.2641,46.9447,154.002,101.017,99.787,0.00285946,0.253709,20.7077,69.7455,0.110963,0.0,0.0
2583,645.5,44.8444,46.7465,150.418,100.954,99.3855,0.0030848,0.251374,20.7105,69.6454,0.141795,0.0,0.0
2592,647.75,44.835,46.6417,151.355,100.89,99.6059,0.00324844,0.249431,20.7141,69.5053,0.116004,0.0,0.0
2601,650,44.5235,46.4977,151.555,100.835,99.4765,0.00334245,0.244279,20.7168,69.4052,0.122891,0.0,0.0
2610,652.25,44.5156,45.9078,151.292,100.781,99.7318,0.00343567,0.235979,20.7195,69.3451,0.0948215,0.0,0.0
2619,654.5,43.9893,46.145,149.942,100.703,99.505,0.00367001,0.231621,20.726,69.235,0.108424,0.0,0.0
2628,656.75,43.3257,45.5513,150.718,100.671,99.0638,0.00395185,0.225596,20.732,69.205,0.145803,0.0,0.0
2637,659,43.0753,45.4969,153.954,100.591,99.4826,0.00424047,0.218545,20.7363,69.1049,0.100377,0.0,0.0
2646,661.25,42.9008,45.487,154.58,100.522,99.5611,0.00457273,0.2108,20.7444,69.0148,0.0870433,0.0,0.0
2655,663.5,42.8127,45.0544,151.503,100.462,99.191,0.00490282,0.203264,20.7522,68.9448,0.115314,0.0,0.0
2664,665.75,41.8792,45.0779,152.412,100.408,99.9794,0.00531913,0.195006,20.7603,68.8547,0.0387359,0.0,0.0
2673,668,42.2322,44.2133,155.206,100.364,99.436,0.00572401,0.1872,20.7694,68.7746,0.0841884,0.0,0.0
2682,670.25,41.6666,44.0763,153.264,100.314,99.376,0.00598338,0.180117,20.7767,68.7346,0.0851084,0.0,0.0
2691,672.5,41.2192,43.34,154.795,100.278,99.4843,0.00624881,0.174839,20.7844,68.6545,0.0719972,0.0,0.0
2700,674.75,40.5813,43.5039,152.951,100.257,99.5938,0.006597,0.169317,20.7902,68.5844,0.0600695,0.0,0.0
2709,677,41.1128,43.0885,152.874,100.216,99.5399,0.00689895,0.166728,20.7954,68.5344,0.0613513,0.0,0.0
2718,679.25,40.4122,42.8341,155.032,100.196,99.8845,0.00712664,0.163077,20.7985,68.4743,0.0281628,0.0,0.0
2727,681.5,40.178,43.009,156.618,100.175,99.8612,0.00752617,0.159073,20.8006,68.3943,0.028462,0.0,0.0
2736,683.75,39.7978,42.5357,158.821,100.171,99.7763,0.00787889,0.1561,20.8061,68.3842,0.0357658,0.0,0.0
2745,686,39.145,42.2978,155.473,100.141,100.125,0.00820606,0.154112,20.8096,68.2942,0.00140903,0.0,0.0
2754,688.25,39.5398,42.0881,154.586,100.144,100.243,0.00845462,0.15149,20.8124,68.2341,-0.00890302,0.0,0.0
2763,690.5,39.2426,41.7736,152.809,100.144,100.315,0.00850901,0.148133,20.8146,68.1841,-0.0155219,0.0,0.0
2772,692.75,38.7751,41.6714,154.193,100.144,100.317,0.0086151,0.14735,20.8179,68.074,-0.0156036,0.0,0.0
2781,695,38.688,41.2712,154.76,100.121,100.304,0.00883143,0.14629,20.8209,68.114,-0.0165058,0.0,0.0
2790,697.25,37.4812,41.2886,153.69,100.119,100.276,0.00913065,0.142416,20.8224,68.0139,-0.0141959,0.0,0.0
2799,699.5,38.0819,40.8991,155.741,100.12,100.252,0.00946001,0.139607,20.8266,67.9739,-0.0119808,0.0,0.0
2808,701.75,37.3114,40.674,150.094,100.109,100.146,0.0096493,0.13814,20.8304,67.9138,-0.00335233,0.0,0.0
2817,704,37.0029,39.5105,154.521,100.127,100.136,0.00962311,0.135253,20.8343,67.9038,-0.00078829,0.0,0.0
2826,706.25,37.1295,39.2355,157.764,100.122,100.193,0.00968629,0.131597,20.838,67.8838,-0.00637956,0.0,0.0
2835,708.5,36.358,39.4629,151.275,100.142,100.274,0.0100309,0.125768,20.8416,67.8537,-0.0119672,0.0,0.0
2844,710.75,36.4599,39.012,157.327,100.13,100.327,0.0105986,0.122169,20.8482,67.7637,-0.0177921,0.0,0.0
2853,713,36.2577,38.875,155.667,100.14,100.289,0.0114085,0.122036,20.8541,67.7236,-0.0134027,0.0,0.0
2862,715.25,36.333,38.8394,154.909,100.15,100.257,0.0122644,0.122226,20.8573,67.6936,-0.00967101,0.0,0.0
2871,717.5,35.9971,38.8374,158.742,100.149,100.355,0.0126143,0.123301,20.858,67.6535,-0.0186587,0.0,0.0
2880,719.75,35.4823,38.6386,157.793,100.153,100.334,0.0123794,0.123543,20.857,67.5935,-0.0163814,0.0,0.0
2889,722,35.382,37.9689,155.296,100.174,100.264,0.0120266,0.123271,20.8557,67.5735,-0.00815077,0.0,0.0
2898,724.25,35.2992,38.2171,157.377,100.188,100.333,0.0118058,0.122057,20.8551,67.5635,-0.0131226,0.0,0.0
2907,726.5,35.0798,37.9963,158.284,100.193,100.319,0.0118951,0.121267,20.8549,67.5234,-0.0113964,0.0,0.0
2916,728.75,35.1706,37.8809,153.009,100.225,100.366,0.0122274,0.120647,20.8543,67.4233,-0.012716,0.0,0.0
2925,731,34.8169,37.605,157.334,100.243,100.331,0.0124827,0.120644,20.854,67.4133,-0.00797353,0.0,0.0
2934,733.25,34.814,37.1053,154.657,100.257,100.359,0.0127293,0.119802,20.8539,67.3733,-0.00917324,0.0,0.0
2943,735.5,35.1043,36.9393,158.085,100.292,100.369,0.0129819,0.119088,20.8539,67.3032,-0.00696632,0.0,0.0
2952,737.75,34.6428,36.5416,152.605,100.288,100.449,0.0132152,0.118469,20.8565,67.2932,-0.0145728,0.0,0.0
2961,740,34.7569,36.6646,159.776,100.306,100.363,0.0133947,0.117649,20.8583,67.2131,-0.00520236,0.0,0.0
2970,742.25,33.9488,36.1455,154.865,100.314,100.438,0.0134345,0.117246,20.859,67.1931,-0.0111969,0.0,0.0
2979,744.5,34.4633,36.3056,154.515,100.327,100.393,0.0133697,0.118093,20.8579,67.1131,-0.00600569,0.0,0.0
2988,746.75,33.8955,35.9344,158.496,100.333,100.47,0.0132667,0.118739,20.8573,67.1231,-0.0123733,0.0,0.0
2997,749,33.9325,35.4964,153.883,100.349,100.473,0.0129965,0.118894,20.8558,67.033,-0.0111688,0.0,0.0
3006,751.25,34.3736,35.9884,154.689,100.342,100.411,0.0127144,0.118817,20.8547,67.0029,-0.00627204,0.0,0.0
3015,753.5,33.8055,35.1766,155.794,100.343,100.484,0.0126219,0.119378,20.8537,67.013,-0.0126571,0.0,0.0
3024,755.75,34.044,35.2945,155.953,100.364,100.46,0.0128507,0.120077,20.8533,66.9729,-0.00867226,0.0,0.0
3033,758,34.1164,35.5901,157.633,100.354,100.567,0.0129797,0.120153,20.8535,66.9529,-0.0192366,0.0,0.0
3042,760.25,34.2056,35.4605,155.844,100.382,100.55,0.0127947,0.119371,20.8545,66.9028,-0.0151347,0.0,0.0
3051,762.5,33.9718,35.1576,154.134,100.41,100.605,0.0125378,0.117992,20.8564,66.8728,-0.0175211,0.0,0.0
3060,764.75,33.5681,35.4949,157.96,100.408,100.518,0.012718,0.118485,20.8592,66.8428,-0.00989747,0.0,0.0
3069,767,33.6856,35.1929,155.088,100.418,100.586,0.0130683,0.118641,20.8603,66.7827,-0.0151131,0.0,0.0
3078,769.25,33.6069,34.7963,156.349,100.451,100.618,0.0131997,0.118123,20.8607,66.7527,-0.0150336,0.0,0.0
3087,771.5,33.5335,35.1164,155.56,100.477,100.481,0.0131293,0.117713,20.8609,66.7827,-0.000396296,0.0,0.0
3096,773.75,33.3954,34.5185,155.457,100.496,100.559,0.0129923,0.11696,20.8599,66.7527,-0.00569559,0.0,0.0
3105,776,33.5407,34.5866,157.086,100.545,100.645,0.0128458,0.11582,20.8602,66.7127,-0.00903813,0.0,0.0
3114,778.25,33.5734,35.0282,156.322,100.553,100.66,0.0128631,0.115835,20.8609,66.6426,-0.0096575,0.0,0.0
3123,780.5,33.1672,34.8399,157.21,100.578,100.713,0.0130112,0.116211,20.8607,66.5725,-0.0121056,0.0,0.0
3132,782.75,33.4654,35.0258,160.132,100.608,100.722,0.012934,0.11731,20.8606,66.5826,-0.0102704,0.0,0.0
3141,785,34.0468,34.4604,156.614,100.636,100.769,0.0127516,0.117799,20.8606,66.5025,-0.0119948,0.0,0.0
3150,787.25,32.8789,34.4085,159.188,100.679,100.794,0.0126652,0.117242,20.8596,66.4725,-0.0103001,0.0,0.0
3159,789.5,32.9249,34.4939,154.921,100.7,100.766,0.0125072,0.116371,20.8601,66.4725,-0.00594032,0.0,0.0
3168,791.75,33.3488,34.4963,155.449,100.74,100.913,0.012411,0.116161,20.8604,66.4524,-0.0155474,0.0,0.0
3177,794,33.7467,34.6509,154.751,100.78,100.932,0.0123122,0.11668,20.86,66.4524,-0.0136444,0.0,0.0
3186,796.25,33.4679,34.342,158.323,100.822,100.995,0.0122199,0.116215,20.86,66.4024,-0.0155452,0.0,0.0
3195,798.5,33.3669,33.9075,158.344,100.844,100.934,0.0123909,0.115155,20.8617,66.3623,-0.0081043,0.0,0.0
3204,800.75,33.1941,34.2871,156.887,100.894,101.001,0.0126036,0.114431,20.864,66.3623,-0.00962344,0.0,0.0
3213,803,32.9067,34.1948,152.62,100.92,101.077,0.012607,0.114112,20.8649,66.3824,-0.0140391,0.0,0.0
3222,805.25,33.2843,34.2657,154.685,100.958,101.109,0.0126131,0.114419,20.8652,66.3223,-0.0135968,0.0,0.0
3231,807.5,33.3601,34.1437,155.986,100.993,101.165,0.0126502,0.114253,20.8654,66.2622,-0.0153483,0.0,0.0
3240,809.75,33.0491,34.1515,156.699,101.02,101.16,0.0125868,0.113614,20.8654,66.2723,-0.0125771,0.0,0.0
3249,812,33.0132,33.8484,156.33,101.049,101.193,0.0123899,0.113097,20.8669,66.2322,-0.0128696,0.0,0.0
3258,814.25,32.7776,33.7549,156.659,101.068,101.17,0.0120767,0.112547,20.8675,66.1922,-0.00917486,0.0,0.0
3267,816.5,32.9593,33.3203,152.192,101.117,101.299,0.0117219,0.112655,20.8677,66.1622,-0.0162391,0.0,0.0
3276,818.75,32.9105,33.199,152.058,101.153,101.255,0.0115311,0.112843,20.8677,66.1021,-0.00911757,0.0,0.0
3285,821,32.8507,33.7132,157.091,101.16,101.378,0.0116406,0.113365,20.8674,66.0921,-0.019447,0.0,0.0
3294,823.25,32.6794,33.6795,156.437,101.21,101.319,0.011868,0.113974,20.8672,66.0621,-0.00973911,0.0,0.0
3303,825.5,32.7609,33.6145,155.715,101.251,101.387,0.0122237,0.113405,20.8658,66.022,-0.0122051,0.0,0.0
3312,827.75,33.2099,33.5467,153.651,101.255,101.442,0.0125118,0.112806,20.8654,65.992,-0.0166945,0.0,0.0
3321,830,32.6395,33.2575,162.05,101.273,101.356,0.0125393,0.11231,20.8665,65.982,-0.00734077,0.0,0.0
3330,832.25,32.6189,33.5148,159.161,101.301,101.447,0.0125004,0.111767,20.8673,65.9119,-0.0130204,0.0,0.0
3339,834.5,32.717,33.6279,156.351,101.317,101.381,0.0124975,0.111294,20.868,65.8819,-0.00566209,0.0,0.0
3348,836.75,32.5266,33.4784,153.798,101.321,101.461,0.0125872,0.111055,20.8694,65.8719,-0.0125349,0.0,0.0
3357,839,32.2183,32.9181,158.912,101.349,101.442,0.0127921,0.11118,20.87,65.8318,-0.00831559,0.0,0.0
3366,841.25,32.1738,33.366,157.454,101.334,101.472,0.0129828,0.110496,20.8702,65.8018,-0.01233,0.0,0.0
3375,843.5,31.9612,33.1143,157.807,101.348,101.403,0.0129775,0.108788,20.8718,65.8018,-0.00488634,0.0,0.0
3384,845.75,32.5342,32.9619,157.219,101.336,101.452,0.0128516,0.108139,20.8735,65.7618,-0.0104104,0.0,0.0
3393,848,32.4888,32.3875,155.714,101.337,101.421,0.0127331,0.10799,20.8752,65.7418,-0.00745262,0.0,0.0
3402,850.25,32.1729,32.8017,154.497,101.332,101.448,0.0127795,0.107728,20.8758,65.7518,-0.0104293,0.0,0.0
3411,852.5,32.2821,31.6954,157,101.342,101.516,0.0128576,0.107486,20.8761,65.7418,-0.0155977,0.0,0.0
3420,854.75,32.2159,33.2346,156.994,101.314,101.479,0.0130226,0.107966,20.8762,65.7217,-0.0146988,0.0,0.0
3429,857,32.3198,32.3863,154.931,101.324,101.41,0.0132009,0.107924,20.8762,65.6917,-0.00773522,0.0,0.0
3438,859.25,32.1516,32.1168,159.525,101.322,101.516,0.0132845,0.107865,20.8762,65.6417,-0.0172755,0.0,0.0
3447,861.5,32.074,32.4822,159.861,101.314,101.427,0.0132501,0.107765,20.8762,65.6216,-0.0100785,0.0,0.0
3456,863.75,32.3889,32.4056,155.679,101.309,101.424,0.0130316,0.107504,20.8763,65.5916,-0.0102088,0.0,0.0
3465,866,32.2023,32.2537,155.405,101.293,101.393,0.0128809,0.107341,20.876,65.5916,-0.00893707,0.0,0.0
3474,868.25,31.7079,33.0653,153.016,101.296,101.52,0.0129406,0.107391,20.8749,65.5716,-0.0199643,0.0,0.0
3483,870.5,32.3829,32.2181,156.878,101.274,101.483,0.0130816,0.107304,20.8731,65.5516,-0.0186312,0.0,0.0
3492,872.75,32.4207,32.4978,159.225,101.277,101.406,0.0131354,0.107064,20.8723,65.5216,-0.0115196,0.0,0.0
3501,875,32.0363,32.4143,158.516,101.282,101.334,0.0130168,0.107336,20.8716,65.5115,-0.00464272,0.0,0.0
3510,877.25,31.5593,32.7282,158.03,101.267,101.426,0.0128571,0.1074,20.8712,65.4615,-0.0142078,0.0,0.0
3519,879.5,32.4615,32.8725,156.314,101.266,101.46,0.0128481,0.107389,20.8711,65.4114,-0.0173582,0.0,0.0
3528,881.75,32.1989,32.4438,161.611,101.267,101.394,0.0130128,0.107253,20.871,65.3414,-0.0113531,0.0,0.0
3537,884,31.6071,32.4178,156.798,101.262,101.421,0.0130503,0.107214,20.871,65.3514,-0.0142587,0.0,0.0
3546,886.25,31.583,32.2363,156.336,101.236,101.361,0.0129453,0.107175,20.8709,65.3314,-0.0111699,0.0,0.0
3555,888.5,31.191,32.2164,154.721,101.219,101.339,0.012717,0.107095,20.87,65.3314,-0.0107066,0.0,0.0
3564,890.75,31.5625,31.4551,156.868,101.208,101.31,0.0125644,0.107552,20.869,65.3214,-0.00911271,0.0,0.0
3573,893,31.6848,32.3606,162.298,101.189,101.269,0.0124456,0.10747,20.8677,65.3214,-0.00716948,0.0,0.0
3582,895.25,31.2817,31.8702,156.23,101.151,101.278,0.0123666,0.106773,20.8674,65.2713,-0.0113834,0.0,0.0
3591,897.5,32.1098,32.1884,155.757,101.146,101.284,0.0126118,0.106123,20.8687,65.2513,-0.0123651,0.0,0.0
3600,899.75,31.8589,32.42,155.175,101.133,101.316,0.0129744,0.105828,20.8704,65.2613,-0.0164273,0.0,0.0
3609,902,31.8145,31.934,160.567,101.085,101.22,0.0131804,0.105341,20.8724,65.2313,-0.0120748,0.0,0.0
3618,904.25,32.0414,32.0913,157.784,101.075,101.207,0.0131604,0.104754,20.8741,65.2113,-0.0118332,0.0,0.0
3627,906.5,31.8816,31.7379,156.883,101.069,101.196,0.0130137,0.104471,20.8754,65.0611,-0.0113834,0.0,0.0
3636,908.75,31.7955,32.2491,159.383,101.057,101.177,0.0128992,0.104541,20.8759,65.0611,-0.0106704,0.0,0.0
3645,911,31.8529,32.3246,158.033,101.026,101.139,0.0128502,0.104837,20.8747,65.1012,-0.0101347,0.0,0.0
3654,913.25,31.4739,31.3832,163.833,101.039,101.136,0.0128675,0.104919,20.8759,65.1212,-0.00876629,0.0,0.0
3663,915.5,31.3072,32.074,156.387,101.035,101.18,0.012871,0.104257,20.8752,65.0911,-0.0129966,0.0,0.0
3672,917.75,30.836,31.7242,160.946,101.018,101.13,0.0128076,0.103521,20.8747,65.0311,-0.0100569,0.0,0.0
3681,920,31.3999,31.9716,156.839,101.041,101.148,0.0129325,0.102916,20.8755,65.0211,-0.00955048,0.0,0.0
3690,922.25,31.3871,31.1799,158.948,101.042,101.152,0.0132025,0.103594,20.8758,65.0111,-0.00986504,0.0,0.0
3699,924.5,31.0263,31.6753,156.833,101.045,101.174,0.0134691,0.104542,20.8759,65.0111,-0.0115375,0.0,0.0
3708,926.75,31.6102,31.8613,154.634,101.054,101.165,0.0136814,0.103751,20.876,64.981,-0.00995854,0.0,0.0
3717,929,29.4513,31.3123,157.701,101.098,101.128,0.0138847,0.103045,20.8762,64.981,-0.00275283,0.0,0.0
3726,931.25,31.7853,31.6038,159.435,101.107,101.236,0.0139142,0.102934,20.8776,64.941,-0.0115234,0.0,0.0
3735,933.5,31.5903,31.9669,157.49,101.107,101.225,0.0137258,0.102433,20.8781,64.891,-0.0106342,0.0,0.0
3744,935.75,31.1933,32.0587,155.982,101.143,101.234,0.0135622,0.102021,20.8791,64.891,-0.00814429,0.0,0.0
3753,938,31.4468,31.887,154.373,101.168,101.297,0.0133274,0.101348,20.8811,64.8409,-0.0115445,0.0,0.0
3762,940.25,29.6975,30.0485,156.218,101.189,101.332,0.0131199,0.10121,20.8819,64.8609,-0.0127609,0.0,0.0
3771,942.5,29.938,30.0151,157.568,101.204,101.32,0.0128893,0.101179,20.8823,64.8509,-0.0104385,0.0,0.0
3780,944.75,30.1959,30.3896,154.873,101.23,101.257,0.0125749,0.101582,20.8824,64.8409,-0.00235265,0.0,0.0
3789,947,30.1817,30.2967,158.216,101.251,101.413,0.0124626,0.102914,20.8824,64.7909,-0.0145528,0.0,0.0
3798,949.25,29.7809,30.1774,156.021,101.273,101.393,0.0126051,0.103506,20.8813,64.8009,-0.0107299,0.0,0.0
3807,951.5,29.8643,30.0595,158.57,101.269,101.381,0.0128162,0.10365,20.8787,64.7709,-0.00998017,0.0,0.0
3816,953.75,30.0482,30.2555,155.572,101.284,101.382,0.012875,0.103805,20.8769,64.8009,-0.00874035,0.0,0.0
3825,956,29.0512,29.7703,156.894,101.296,101.358,0.012677,0.1033,20.8754,64.7008,-0.00552163,0.0,0.0
3834,958.25,29.2502,29.5529,161.787,101.287,101.37,0.012359,0.102858,20.8748,64.7408,-0.00740453,0.0,0.0
3843,960.5,29.6052,29.8126,157.716,101.26,101.283,0.0123435,0.102083,20.8743,64.7208,-0.00210748,0.0,0.0
3852,962.75,29.6093,29.1657,156.674,101.259,101.3,0.0125789,0.101123,20.8763,64.7008,-0.00368449,0.0,0.0
3861,965,29.5635,29.78,157.659,101.184,101.271,0.0128865,0.100212,20.8777,64.6507,-0.00780115,0.0,0.0
3870,967.25,30.133,30.2798,160.323,101.124,101.133,0.0129101,0.0995649,20.8799,64.6407,-0.000832565,0.0,0.0
3879,969.5,29.5648,29.4134,159.628,101.055,101.124,0.012871,0.0996596,20.8813,64.6307,-0.00614021,0.0,0.0
3888,971.75,29.9765,29.5692,157.125,100.994,101.084,0.0128801,0.0994088,20.883,64.6007,-0.00812645,0.0,0.0
3897,974,29.5146,29.501,157.832,100.868,100.915,0.0127556,0.0988818,20.8837,64.5506,-0.0041987,0.0,0.0
3906,976.25,29.4011,30.5015,153.982,100.774,100.863,0.0124635,0.09815,20.8852,64.5306,-0.0080789,0.0,0.0
3915,978.5,29.1061,29.8813,158.062,100.659,100.671,0.0122136,0.0975673,20.8861,64.5206,-0.00101399,0.0,0.0
3924,980.75,29.0643,29.5322,154.883,100.567,100.569,0.012278,0.0972863,20.8869,64.5106,-0.000177089,0.0,0.0
3933,983,29.2924,29.6496,159.413,100.443,100.444,0.0124821,0.0965948,20.8872,64.4505,-0.00011284,0.0,0.0
3942,985.25,29.1237,28.9889,152.78,100.36,100.431,0.012313,0.0955929,20.8892,64.4405,-0.00639955,0.0,0.0
3951,987.5,28.8905,30.0655,159.217,100.288,100.318,0.0120498,0.0953455,20.8901,64.4405,-0.00270477,0.0,0.0
3960,989.75,28.8798,29.3023,158.248,100.197,100.219,0.0121257,0.0954758,20.8902,64.4305,-0.00198543,0.0,0.0
3969,992,29.1465,29.5764,156.085,100.149,100.211,0.0124583,0.0953797,20.89,64.4005,-0.00557457,0.0,0.0
3978,994.25,28.9029,28.9846,156.985,100.118,100.216,0.0126481,0.0948927,20.8899,64.3605,-0.0088533,0.0,0.0
3987,996.5,28.0814,29.1583,161.184,100.103,100.145,0.0126438,0.0945713,20.8913,64.3404,-0.00382925,0.0,0.0
3996,998.75,28.6778,28.6233,156.79,100.083,100.033,0.0126446,0.0941818,20.8919,64.3204,0.00450489,0.0,0.0
4005,1001,28.6058,29.5007,160.033,100.077,100.082,0.0126315,0.0940435,20.8926,64.3004,-0.000386577,0.0,0.0
4014,1003.25,28.765,29.345,158.031,100.131,100.104,0.0124506,0.0941005,20.8929,64.2904,0.0023569,0.0,0.0
4023,1005.5,28.6549,28.5155,160.264,100.174,100.196,0.012298,0.0941436,20.8933,64.2904,-0.00199191,0.0,0.0
4032,1007.75,28.5096,28.9262,156.98,100.212,100.173,0.0122729,0.0938359,20.8936,64.2704,0.00347629,0.0,0.0
4041,1010,29.0288,29.1757,158.298,100.288,100.333,0.0122898,0.0938565,20.8937,64.2303,-0.00410256,0.0,0.0
4050,1012.25,28.3887,28.8856,156.88,100.358,100.424,0.0123,0.0940814,20.8937,64.2003,-0.00596193,0.0,0.0
4059,1014.5,28.8317,28.7045,155.993,100.41,100.523,0.01235,0.0938132,20.894,64.2103,-0.0101407,0.0,0.0
4068,1016.75,28.9737,28.792,158.982,100.486,100.604,0.0123243,0.0932953,20.8953,64.1803,-0.0105823,0.0,0.0
4077,1019,29.0034,28.9398,157.838,100.553,100.593,0.0122539,0.0927765,20.8958,64.1503,-0.00360131,0.0,0.0
4086,1021.25,28.4426,28.8243,161.159,100.623,100.688,0.0121414,0.0926235,20.8964,64.1202,-0.00580417,0.0,0.0
4095,1023.5,28.4961,29.2276,163.946,100.656,100.702,0.0120928,0.092474,20.8977,64.1302,-0.00410202,0.0,0.0
4104,1025.75,28.7237,28.804,152.291,100.706,100.802,0.0121126,0.0924205,20.8982,64.1102,-0.00860957,0.0,0.0
4113,1028,28.418,28.7315,154.953,100.75,100.908,0.0120996,0.0919688,20.8985,64.0802,-0.0142381,0.0,0.0
4122,1030.25,28.4414,29.1443,156.156,100.791,100.835,0.0120183,0.0915149,20.8989,64.0802,-0.00393889,0.0,0.0
4131,1032.5,28.6499,29.1617,159.357,100.828,100.876,0.0119589,0.0916153,20.8986,64.0402,-0.00431268,0.0,0.0
4140,1034.75,27.5747,28.5476,159.689,100.862,100.979,0.0118414,0.0916662,20.8984,63.9601,-0.010438,0.0,0.0
4149,1037,28.7464,29.2477,153.333,100.882,100.955,0.0115854,0.0913318,20.8983,63.9701,-0.00654921,0.0,0.0
4158,1039.25,28.1939,28.5439,161.651,100.91,100.965,0.0112993,0.0909355,20.8983,63.9701,-0.00493982,0.0,0.0
4167,1041.5,28.1661,28.5889,157.153,100.912,101.095,0.0110001,0.0907248,20.8984,63.9601,-0.0163965,0.0,0.0
4176,1043.75,28.6111,28.6505,157.433,100.955,101.048,0.0108971,0.0905757,20.8989,63.86,-0.00836531,0.0,0.0
4185,1046,28.2473,28.47,156.834,100.954,101.06,0.0109714,0.0908335,20.899,63.91,-0.00944563,0.0,0.0
4194,1048.25,28.5451,28.3754,157.745,100.988,101.025,0.0110832,0.0906781,20.8991,63.9,-0.00330534,0.0,0.0
4203,1050.5,28.3051,29.005,156.411,100.987,101.102,0.0110641,0.0905184,20.8991,63.88,-0.0102591,0.0,0.0
4212,1052.75,28.5878,28.7636,160.172,100.999,101.083,0.0108949,0.0899556,20.9005,63.85,-0.00749422,0.0,0.0
4221,1055,27.9686,28.5141,159.551,100.992,101.111,0.0107199,0.0897122,20.9011,63.83,-0.0107077,0.0,0.0
4230,1057.25,27.794,28.8533,157.148,100.999,101.092,0.0107139,0.0900835,20.9013,63.83,-0.00834747,0.0,0.0
4233,1058,28.129,28.2275,157.592,100.985,101.013,0.0107645,0.0901692,20.9014,63.7999,-0.00244284,0.0,0.0