File: 01_Data/Homasote/Cone/Homasote_HRRPUA_75.csv
Time after Ignition,Homasote_R1,Homasote_R2,Homasote_R3,Mean,Std. Dev.
0.0,12.5,8.1,6.8,9.1,3.0
0.5,11.7,7.9,6.2,8.6,2.8
1.0,11.3,8.5,6.0,8.6,2.7
1.5,10.8,8.7,5.9,8.5,2.5
2.0,10.7,8.7,6.0,8.5,2.3
2.5,10.5,8.8,5.9,8.4,2.3
3.0,10.5,9.3,5.6,8.5,2.6
3.5,10.5,9.3,5.5,8.4,2.6
4.0,10.2,9.2,5.4,8.3,2.6
4.5,10.0,9.4,5.4,8.3,2.5
5.0,10.2,9.2,5.4,8.3,2.5
5.5,9.7,8.9,5.5,8.0,2.2
6.0,9.1,8.6,5.6,7.8,1.9
6.5,8.5,8.2,5.6,7.4,1.6
7.0,8.2,7.9,5.7,7.3,1.4
7.5,7.7,7.8,5.8,7.1,1.1
8.0,7.4,7.3,5.8,6.8,0.9
8.5,7.2,7.3,5.7,6.8,0.9
9.0,7.0,7.3,5.8,6.7,0.8
9.5,6.7,7.2,5.7,6.5,0.8
10.0,6.6,8.2,6.0,6.9,1.1
10.5,9.0,8.6,6.3,8.0,1.5
11.0,13.0,13.6,7.0,11.2,3.7
11.5,22.1,21.3,11.2,18.2,6.1
12.0,34.9,34.1,17.2,28.7,10.0
12.5,51.7,52.4,31.7,45.3,11.7
13.0,70.8,66.0,52.0,62.9,9.8
13.5,84.3,83.4,75.4,81.0,4.9
14.0,103.2,104.0,99.4,102.2,2.5
14.5,122.0,120.0,119.9,120.6,1.2
15.0,139.9,137.5,140.2,139.2,1.5
15.5,164.2,159.3,157.4,160.3,3.5
16.0,175.5,176.6,177.9,176.7,1.2
16.5,201.2,192.0,191.8,195.0,5.4
17.0,208.1,208.3,204.4,206.9,2.2
17.5,225.5,222.0,215.5,221.0,5.1
18.0,242.7,233.5,234.6,236.9,5.1
18.5,252.6,251.2,233.7,245.8,10.5
19.0,265.7,256.2,253.7,258.5,6.4
19.5,278.8,264.9,259.7,267.8,9.9
20.0,284.1,278.0,261.0,274.4,12.0
20.5,295.6,277.3,265.1,279.3,15.3
21.0,302.5,279.4,272.4,284.8,15.7
21.5,306.6,281.9,272.5,287.0,17.6
22.0,311.3,292.3,280.9,294.9,15.4
22.5,316.2,296.0,281.3,297.8,17.5
23.0,311.4,294.1,277.1,294.2,17.1
23.5,317.4,295.9,278.9,297.4,19.3
24.0,319.6,290.3,280.4,296.8,20.4
24.5,319.0,293.1,278.1,296.7,20.7
25.0,323.0,296.4,281.1,300.2,21.2
25.5,320.0,291.1,277.2,296.1,21.8
26.0,316.8,288.9,275.4,293.7,21.1
26.5,317.7,282.2,276.0,292.0,22.5
27.0,316.5,283.3,271.3,290.4,23.4
27.5,320.5,276.7,270.8,289.3,27.1
28.0,308.2,276.2,265.6,283.3,22.2
28.5,310.3,276.2,264.9,283.8,23.6
29.0,313.8,269.8,260.8,281.5,28.4
29.5,303.2,261.2,259.1,274.5,24.9
30.0,300.7,267.7,253.6,274.0,24.2
30.5,299.8,263.5,256.7,273.3,23.2
31.0,295.4,252.7,255.3,267.8,23.9
31.5,290.0,261.9,256.6,269.5,17.9
32.0,289.6,249.5,248.7,262.6,23.4
32.5,285.2,252.8,247.3,261.8,20.5
33.0,278.9,247.6,246.0,257.5,18.6
33.5,276.0,245.6,242.5,254.7,18.5
34.0,272.4,243.4,241.9,252.6,17.2
34.5,264.4,238.5,231.9,244.9,17.2
35.0,263.6,241.4,236.5,247.2,14.4
35.5,255.7,235.0,227.7,239.4,14.5
36.0,257.2,232.1,227.6,239.0,15.9
36.5,253.5,233.7,223.2,236.8,15.4
37.0,246.7,225.6,225.0,232.4,12.3
37.5,243.4,226.2,224.3,231.3,10.5
38.0,242.0,221.2,222.2,228.4,11.8
38.5,235.4,220.2,218.1,224.6,9.4
39.0,236.6,216.7,218.8,224.1,11.0
39.5,232.2,212.6,214.8,219.9,10.7
40.0,229.9,218.7,211.6,220.1,9.2
40.5,226.1,212.0,211.4,216.5,8.3
41.0,222.6,210.0,211.1,214.6,7.0
41.5,221.9,208.2,206.0,212.0,8.6
42.0,217.6,211.6,201.6,210.3,8.1
42.5,220.1,207.4,207.7,211.7,7.3
43.0,213.4,205.4,199.7,206.2,6.9
43.5,214.8,202.7,199.0,205.5,8.2
44.0,214.2,200.2,191.4,201.9,11.5
44.5,213.9,197.6,193.1,201.6,10.9
45.0,207.7,197.4,192.5,199.2,7.8
45.5,205.4,194.5,191.8,197.2,7.2
46.0,204.0,193.7,190.5,196.1,7.1
46.5,203.8,193.7,187.6,195.0,8.2
47.0,203.9,191.6,189.5,195.0,7.8
47.5,201.6,185.7,185.4,190.9,9.2
48.0,198.0,186.3,185.6,190.0,7.0
48.5,196.9,187.1,183.7,189.3,6.8
49.0,198.8,185.0,182.1,188.6,8.9
49.5,198.7,183.6,183.5,188.6,8.7
50.0,196.1,185.5,181.5,187.7,7.6
50.5,199.5,179.2,180.3,186.3,11.5
51.0,199.4,181.1,177.1,185.9,11.9
51.5,196.3,178.4,177.5,184.0,10.6
52.0,191.8,179.4,175.5,182.2,8.5
52.5,193.9,176.5,175.5,182.0,10.3
53.0,190.3,177.1,173.5,180.3,8.8
53.5,191.0,177.7,173.7,180.8,9.1
54.0,187.9,172.3,169.8,176.7,9.8
54.5,191.2,172.1,172.8,178.7,10.8
55.0,189.4,174.2,171.8,178.5,9.5
55.5,186.0,173.0,168.7,175.9,9.0
56.0,185.8,170.6,169.5,175.3,9.1
56.5,182.6,170.1,170.3,174.3,7.1
57.0,184.6,171.2,168.9,174.9,8.4
57.5,182.8,170.4,169.2,174.1,7.6
58.0,180.5,169.8,165.4,171.9,7.7
58.5,182.4,172.3,164.3,173.0,9.0
59.0,179.6,167.0,167.3,171.3,7.2
59.5,177.5,171.0,165.6,171.4,6.0
60.0,177.5,168.9,167.4,171.3,5.4
60.5,175.6,166.9,163.4,168.7,6.3
61.0,174.2,165.9,165.4,168.5,4.9
61.5,175.6,168.1,163.4,169.0,6.1
62.0,167.7,165.6,164.3,165.9,1.7
62.5,171.9,166.6,163.5,167.3,4.2
63.0,171.8,168.5,165.2,168.5,3.3
63.5,169.4,165.7,162.9,166.0,3.2
64.0,168.8,162.5,161.5,164.3,4.0
64.5,170.3,162.4,164.2,165.6,4.1
65.0,169.7,158.1,162.3,163.4,5.9
65.5,167.7,162.8,160.3,163.6,3.7
66.0,166.8,159.9,157.3,161.3,4.9
66.5,170.6,158.6,156.4,161.9,7.7
67.0,166.9,158.2,154.8,160.0,6.2
67.5,164.8,158.1,155.3,159.4,4.9
68.0,165.9,157.0,152.6,158.5,6.8
68.5,165.7,155.3,152.4,157.8,7.0
69.0,166.0,157.1,150.6,157.9,7.7
69.5,167.2,153.4,152.0,157.5,8.4
70.0,166.0,155.3,151.0,157.4,7.7
70.5,166.1,151.3,152.6,156.7,8.2
71.0,163.4,157.4,149.2,156.7,7.1
71.5,166.1,153.8,150.5,156.8,8.2
72.0,164.5,154.4,148.0,155.6,8.4
72.5,161.9,152.5,148.2,154.2,7.0
73.0,166.9,153.7,145.8,155.5,10.7
73.5,160.0,153.9,150.8,154.9,4.7
74.0,162.0,153.7,148.7,154.8,6.7
74.5,165.0,149.1,147.1,153.7,9.8
75.0,162.0,150.8,145.7,152.9,8.3
75.5,163.5,148.5,145.4,152.4,9.7
76.0,161.5,148.9,149.3,153.3,7.2
76.5,161.6,149.5,148.1,153.0,7.4
77.0,159.5,150.8,148.6,153.0,5.8
77.5,157.5,148.7,147.0,151.1,5.6
78.0,162.4,149.4,148.7,153.5,7.7
78.5,160.5,147.7,144.7,151.0,8.4
79.0,161.8,148.4,145.5,151.9,8.7
79.5,161.3,148.2,144.7,151.4,8.7
80.0,157.5,145.3,145.4,149.4,7.0
80.5,159.1,146.0,146.1,150.4,7.5
81.0,160.8,145.7,146.7,151.1,8.4
81.5,157.7,144.6,144.1,148.8,7.7
82.0,158.3,143.5,146.4,149.4,7.8
82.5,158.6,141.6,144.4,148.2,9.1
83.0,154.6,142.9,143.1,146.9,6.7
83.5,155.2,143.5,144.2,147.7,6.6
84.0,157.1,143.0,143.9,148.0,7.9
84.5,157.6,143.3,144.7,148.6,7.9
85.0,155.9,144.7,141.2,147.3,7.7
85.5,153.2,145.5,142.3,147.0,5.6
86.0,152.1,144.2,140.9,145.7,5.7
86.5,152.6,143.5,143.3,146.4,5.3
87.0,153.1,142.8,142.1,146.0,6.2
87.5,152.3,143.4,140.5,145.4,6.1
88.0,152.2,144.2,142.9,146.4,5.0
88.5,152.2,142.6,141.8,145.6,5.8
89.0,150.4,142.5,141.5,144.8,4.8
89.5,153.5,141.6,142.6,145.9,6.6
90.0,152.2,142.5,137.9,144.2,7.3
90.5,148.5,142.7,142.7,144.6,3.3
91.0,149.5,143.1,141.9,144.8,4.1
91.5,149.4,143.3,142.9,145.2,3.6
92.0,152.6,140.9,141.8,145.1,6.5
92.5,150.7,143.2,140.8,144.9,5.1
93.0,150.9,141.3,140.8,144.3,5.7
93.5,148.5,141.3,139.6,143.1,4.7
94.0,148.6,141.8,141.2,143.9,4.1
94.5,148.9,139.9,139.5,142.7,5.3
95.0,150.2,141.9,139.0,143.7,5.8
95.5,149.4,143.5,141.1,144.6,4.3
96.0,147.3,142.1,137.7,142.4,4.8
96.5,148.7,141.4,137.6,142.6,5.6
97.0,149.1,139.8,134.9,141.3,7.2
97.5,147.8,140.2,136.9,141.6,5.6
98.0,147.6,140.6,134.9,141.0,6.4
98.5,147.1,138.5,137.6,141.1,5.2
99.0,147.1,138.5,134.6,140.1,6.4
99.5,148.4,138.2,135.6,140.7,6.8
100.0,146.2,139.5,139.8,141.9,3.7
100.5,144.3,136.9,135.9,139.0,4.6
101.0,146.5,136.4,135.4,139.5,6.1
101.5,145.8,136.4,135.9,139.4,5.6
102.0,146.4,137.4,135.9,139.9,5.7
102.5,143.7,135.7,133.6,137.7,5.3
103.0,147.0,136.3,134.2,139.2,6.9
103.5,145.1,139.8,134.1,139.7,5.5
104.0,143.5,137.1,133.5,138.0,5.1
104.5,141.8,136.4,135.1,137.8,3.6
105.0,143.9,135.4,134.5,137.9,5.2
105.5,141.9,136.9,133.6,137.5,4.2
106.0,140.8,135.9,134.6,137.1,3.3
106.5,139.7,134.9,135.5,136.7,2.6
107.0,141.0,135.4,132.4,136.3,4.4
107.5,140.0,135.5,135.9,137.1,2.5
108.0,140.5,136.7,133.6,136.9,3.4
108.5,143.0,136.3,132.5,137.3,5.4
109.0,141.1,136.5,132.9,136.8,4.1
109.5,140.7,133.7,134.0,136.1,3.9
110.0,139.7,135.9,133.3,136.3,3.2
110.5,138.1,134.0,130.9,134.3,3.6
111.0,139.5,134.3,130.4,134.8,4.6
111.5,140.3,132.8,130.7,134.6,5.1
112.0,140.1,134.0,130.1,134.7,5.0
112.5,140.3,132.5,128.2,133.7,6.2
113.0,139.6,132.1,131.2,134.3,4.6
113.5,139.6,132.8,129.5,134.0,5.2
114.0,137.1,132.3,127.0,132.1,5.0
114.5,138.6,132.2,128.0,133.0,5.3
115.0,138.6,132.5,128.1,133.1,5.3
115.5,137.8,131.3,124.8,131.3,6.5
116.0,136.9,133.1,125.4,131.8,5.9
116.5,136.1,132.5,124.5,131.0,5.9
117.0,139.9,134.3,124.2,132.8,8.0
117.5,135.3,134.4,122.1,130.6,7.4
118.0,138.7,134.7,123.8,132.4,7.7
118.5,141.2,132.5,124.0,132.6,8.6
119.0,133.4,133.4,124.6,130.5,5.1
119.5,137.1,131.1,124.0,130.7,6.6
120.0,137.5,132.5,125.3,131.8,6.2
120.5,138.3,133.2,124.6,132.1,6.9
121.0,136.5,132.2,125.2,131.3,5.7
121.5,135.6,131.8,123.7,130.4,6.1
122.0,137.0,131.2,126.6,131.6,5.2
122.5,137.5,130.6,128.2,132.1,4.8
123.0,137.3,131.8,127.5,132.2,4.9
123.5,134.9,131.7,128.3,131.6,3.3
124.0,136.3,129.7,126.4,130.8,5.0
124.5,137.4,129.8,128.6,131.9,4.8
125.0,134.9,129.6,127.8,130.8,3.7
125.5,134.2,130.5,128.0,130.9,3.1
126.0,134.4,129.1,128.9,130.8,3.1
126.5,133.7,128.8,128.7,130.4,2.9
127.0,135.1,128.2,127.4,130.2,4.2
127.5,135.3,128.8,129.4,131.1,3.6
128.0,135.0,129.3,127.5,130.6,3.9
128.5,134.4,128.5,127.4,130.1,3.7
129.0,135.3,128.6,127.9,130.6,4.1
129.5,134.2,127.7,129.2,130.3,3.4
130.0,133.3,128.1,128.7,130.0,2.9
130.5,137.7,130.1,128.7,132.2,4.8
131.0,133.8,127.2,127.6,129.5,3.7
131.5,131.8,129.6,129.5,130.3,1.3
132.0,135.2,132.5,130.2,132.7,2.5
132.5,133.6,128.8,127.0,129.8,3.4
133.0,132.7,127.6,129.1,129.8,2.6
133.5,133.4,128.6,130.7,130.9,2.4
134.0,135.4,129.1,128.0,130.8,4.0
134.5,135.1,128.7,129.5,131.1,3.5
135.0,132.5,130.4,127.5,130.1,2.5
135.5,134.3,132.4,127.9,131.5,3.3
136.0,130.4,128.2,129.6,129.4,1.1
136.5,131.2,129.4,126.7,129.1,2.3
137.0,131.1,128.2,129.3,129.5,1.5
137.5,129.8,129.5,128.7,129.3,0.5
138.0,130.4,129.5,130.1,130.0,0.5
138.5,132.1,128.9,128.0,129.7,2.2
139.0,130.2,130.2,127.9,129.4,1.3
139.5,128.8,126.7,127.1,127.5,1.1
140.0,130.3,128.3,129.1,129.2,1.0
140.5,129.4,128.1,129.7,129.1,0.9
141.0,130.2,128.0,126.4,128.2,1.9
141.5,130.8,127.4,126.4,128.2,2.3
142.0,130.4,128.3,126.1,128.3,2.2
142.5,129.0,127.8,124.8,127.2,2.2
143.0,130.4,126.9,128.3,128.5,1.8
143.5,129.5,126.4,126.7,127.6,1.7
144.0,129.7,126.4,125.4,127.2,2.2
144.5,130.1,125.1,126.1,127.1,2.6
145.0,130.1,126.4,126.1,127.5,2.2
145.5,132.1,127.1,127.0,128.8,2.9
146.0,130.6,126.9,128.5,128.7,1.9
146.5,129.1,126.1,126.0,127.1,1.8
147.0,129.7,127.7,126.2,127.9,1.8
147.5,128.4,126.3,126.9,127.2,1.1
148.0,130.8,125.3,127.1,127.8,2.8
148.5,128.3,127.1,125.6,127.0,1.4
149.0,128.2,125.3,125.1,126.2,1.7
149.5,125.9,125.7,127.2,126.2,0.8
150.0,125.1,127.5,125.9,126.2,1.2
150.5,128.1,128.8,125.5,127.5,1.7
151.0,127.5,126.1,124.7,126.1,1.4
151.5,128.6,129.0,124.8,127.5,2.3
152.0,127.3,127.9,126.8,127.3,0.5
152.5,129.2,126.2,127.0,127.5,1.6
153.0,126.0,127.7,123.5,125.7,2.1
153.5,127.3,127.7,128.0,127.7,0.4
154.0,126.2,127.3,125.8,126.5,0.8
154.5,127.8,126.4,126.3,126.8,0.9
155.0,127.6,128.2,126.7,127.5,0.7
155.5,128.4,127.6,125.6,127.2,1.4
156.0,127.2,126.8,127.6,127.2,0.4
156.5,128.9,125.9,125.3,126.7,2.0
157.0,126.0,127.7,126.0,126.6,0.9
157.5,130.4,126.2,127.2,127.9,2.2
158.0,128.3,126.0,124.2,126.1,2.0
158.5,128.4,124.2,125.1,125.9,2.2
159.0,127.6,127.1,126.7,127.1,0.5
159.5,128.5,126.0,126.0,126.8,1.4
160.0,125.0,126.4,125.7,125.7,0.7
160.5,128.0,128.4,125.8,127.4,1.4
161.0,128.6,125.6,126.5,126.9,1.6
161.5,127.4,124.8,127.0,126.4,1.4
162.0,124.4,127.0,126.8,126.1,1.4
162.5,126.5,126.7,128.1,127.1,0.8
163.0,126.3,126.3,127.1,126.5,0.5
163.5,126.5,126.5,125.1,126.0,0.8
164.0,129.1,127.1,125.4,127.2,1.9
164.5,126.5,129.4,128.0,128.0,1.5
165.0,126.8,124.9,127.2,126.3,1.2
165.5,126.6,129.1,129.0,128.2,1.4
166.0,127.5,127.5,125.6,126.9,1.1
166.5,129.5,128.4,125.6,127.8,2.0
167.0,125.5,128.7,127.4,127.2,1.6
167.5,127.9,127.2,128.3,127.8,0.6
168.0,128.8,128.5,125.8,127.7,1.6
168.5,127.1,128.8,126.9,127.6,1.0
169.0,126.1,129.1,124.8,126.7,2.2
169.5,125.9,127.8,126.1,126.6,1.0
170.0,125.1,130.5,126.5,127.4,2.8
170.5,128.4,127.4,126.8,127.6,0.8
171.0,127.8,129.6,125.9,127.8,1.9
171.5,126.9,129.7,127.9,128.2,1.4
172.0,127.0,128.9,126.7,127.5,1.2
172.5,126.6,130.7,128.2,128.5,2.1
173.0,125.6,129.1,128.6,127.8,1.9
173.5,126.1,129.0,124.6,126.6,2.2
174.0,127.6,127.0,126.4,127.0,0.6
174.5,123.8,129.5,126.0,126.4,2.8
175.0,124.9,128.3,126.5,126.6,1.7
175.5,125.6,130.9,126.1,127.5,2.9
176.0,125.8,128.7,127.5,127.3,1.4
176.5,124.4,128.5,126.3,126.4,2.0
177.0,126.8,130.9,127.5,128.4,2.2
177.5,124.6,129.9,125.7,126.7,2.8
178.0,125.6,130.8,125.9,127.4,2.9
178.5,125.9,130.2,126.1,127.4,2.4
179.0,125.4,129.2,123.4,126.0,2.9
179.5,126.2,131.1,127.2,128.1,2.6
180.0,122.6,128.8,125.1,125.5,3.1
180.5,125.9,129.4,126.1,127.1,1.9
181.0,127.8,129.4,126.3,127.8,1.6
181.5,125.1,130.2,125.8,127.0,2.8
182.0,126.8,131.6,127.0,128.5,2.7
182.5,126.4,131.3,127.1,128.3,2.6
183.0,126.9,129.8,127.9,128.2,1.5
183.5,125.9,132.3,125.6,128.0,3.8
184.0,128.2,131.0,123.7,127.6,3.7
184.5,126.1,131.5,127.0,128.2,2.9
185.0,127.3,130.7,126.1,128.0,2.4
185.5,126.7,130.3,124.9,127.3,2.7
186.0,123.4,131.0,127.7,127.4,3.8
186.5,123.4,131.9,126.9,127.4,4.3
187.0,123.9,131.1,126.3,127.1,3.6
187.5,126.9,132.3,125.5,128.2,3.6
188.0,127.2,130.4,126.5,128.0,2.1
188.5,128.7,129.6,127.3,128.5,1.2
189.0,125.0,130.7,124.9,126.8,3.3
189.5,126.3,131.1,125.9,127.7,2.9
190.0,127.9,130.0,126.6,128.2,1.7
190.5,128.3,130.8,127.2,128.8,1.9
191.0,128.8,131.8,125.7,128.8,3.0
191.5,128.0,130.7,125.1,127.9,2.8
192.0,128.3,130.9,125.5,128.2,2.7
192.5,129.4,131.9,125.9,129.1,3.0
193.0,129.0,132.2,128.1,129.8,2.2
193.5,130.7,130.8,125.8,129.1,2.9
194.0,130.7,129.7,129.7,130.0,0.6
194.5,130.8,132.3,128.3,130.5,2.0
195.0,130.2,132.3,129.3,130.6,1.5
195.5,131.7,130.0,131.0,130.9,0.8
196.0,132.1,131.0,129.8,130.9,1.1
196.5,134.5,131.3,128.8,131.6,2.9
197.0,132.6,130.2,125.7,129.5,3.5
197.5,134.6,129.8,127.8,130.7,3.5
198.0,130.7,129.3,128.8,129.6,1.0
198.5,134.1,130.5,126.2,130.3,4.0
199.0,132.9,130.8,128.7,130.8,2.1
199.5,131.6,130.6,126.6,129.6,2.6
200.0,131.6,130.4,126.7,129.6,2.5
200.5,130.6,132.2,126.8,129.9,2.7
201.0,132.6,131.0,127.4,130.3,2.7
201.5,130.6,130.6,128.1,129.8,1.4
202.0,131.8,130.9,125.2,129.3,3.6
202.5,130.8,129.9,126.3,129.0,2.4
203.0,131.3,132.8,126.1,130.1,3.5
203.5,129.2,129.4,130.0,129.5,0.4
204.0,131.2,129.2,127.1,129.2,2.1
204.5,129.4,131.4,126.8,129.2,2.3
205.0,131.6,131.3,129.2,130.7,1.3
205.5,130.2,130.9,128.8,129.9,1.1
206.0,128.4,132.5,128.7,129.9,2.3
206.5,128.9,129.0,128.2,128.7,0.4
207.0,130.9,132.6,128.5,130.7,2.1
207.5,132.2,131.4,128.9,130.9,1.7
208.0,129.7,131.9,128.2,129.9,1.9
208.5,132.2,129.9,129.1,130.4,1.6
209.0,130.3,131.7,128.3,130.1,1.7
209.5,131.8,130.9,129.3,130.7,1.3
210.0,130.8,129.8,129.4,130.0,0.7
210.5,128.4,131.1,127.1,128.9,2.0
211.0,132.2,128.0,127.6,129.2,2.5
211.5,131.1,127.4,129.9,129.4,1.9
212.0,130.3,127.8,130.3,129.5,1.4
212.5,132.4,128.1,127.3,129.3,2.7
213.0,129.9,127.5,129.9,129.1,1.4
213.5,128.9,129.6,128.9,129.2,0.4
214.0,132.2,127.8,127.4,129.1,2.6
214.5,130.2,129.5,127.9,129.2,1.2
215.0,130.9,128.3,130.1,129.8,1.3
215.5,129.6,130.0,129.5,129.7,0.2
216.0,130.3,128.8,129.1,129.4,0.8
216.5,130.7,127.6,129.3,129.2,1.6
217.0,132.6,128.7,129.5,130.3,2.0
217.5,132.6,129.5,129.8,130.6,1.7
218.0,132.8,129.5,129.8,130.7,1.8
218.5,131.2,127.6,128.8,129.2,1.8
219.0,132.7,129.1,130.6,130.8,1.8
219.5,133.8,128.8,131.5,131.3,2.5
220.0,131.7,130.6,130.6,131.0,0.6
220.5,132.4,128.2,131.9,130.8,2.3
221.0,133.1,128.0,131.1,130.7,2.5
221.5,133.1,129.4,131.5,131.3,1.8
222.0,131.3,129.4,132.8,131.1,1.7
222.5,132.8,130.5,130.6,131.3,1.3
223.0,133.4,131.6,131.6,132.2,1.0
223.5,130.8,130.3,129.8,130.3,0.5
224.0,134.3,129.7,133.1,132.3,2.4
224.5,133.3,130.4,129.6,131.1,1.9
225.0,132.3,128.9,130.7,130.6,1.7
225.5,132.2,129.5,130.6,130.8,1.3
226.0,133.7,130.7,130.8,131.8,1.7
226.5,136.2,131.0,132.4,133.2,2.7
227.0,133.8,129.7,132.5,132.0,2.1
227.5,133.7,131.1,130.7,131.8,1.6
228.0,134.8,132.9,132.3,133.3,1.3
228.5,134.2,130.1,132.0,132.1,2.1
229.0,132.9,129.9,130.6,131.1,1.6
229.5,133.9,131.4,131.1,132.1,1.5
230.0,136.4,133.4,131.2,133.7,2.6
230.5,134.9,132.9,131.1,133.0,1.9
231.0,136.3,133.7,128.5,132.8,4.0
231.5,135.7,131.3,132.2,133.1,2.3
232.0,136.3,130.5,131.4,132.7,3.1
232.5,135.5,130.0,129.2,131.6,3.4
233.0,136.9,134.4,130.7,134.0,3.1
233.5,136.6,133.6,131.6,133.9,2.5
234.0,136.9,130.8,132.1,133.3,3.2
234.5,135.8,131.1,128.2,131.7,3.9
235.0,134.0,130.6,129.7,131.5,2.3
235.5,133.8,130.7,132.2,132.2,1.6
236.0,135.6,131.1,131.2,132.6,2.6
236.5,135.1,131.5,132.1,132.9,1.9
237.0,134.8,129.8,131.3,131.9,2.5
237.5,137.5,130.3,130.6,132.8,4.1
238.0,137.8,130.2,132.3,133.4,3.9
238.5,133.4,130.7,130.0,131.4,1.8
239.0,133.7,129.2,133.3,132.1,2.5
239.5,136.5,131.0,130.8,132.8,3.2
240.0,137.1,129.6,130.4,132.4,4.1
240.5,137.9,129.2,133.7,133.6,4.3
241.0,137.6,129.5,133.7,133.6,4.0
241.5,136.2,130.6,132.3,133.0,2.9
242.0,136.5,129.6,130.6,132.2,3.7
242.5,136.9,129.7,132.7,133.1,3.6
243.0,138.4,130.3,131.8,133.5,4.3
243.5,139.0,130.2,133.6,134.3,4.4
244.0,140.8,131.0,131.7,134.5,5.5
244.5,138.2,129.3,132.7,133.4,4.5
245.0,136.7,130.6,131.6,133.0,3.3
245.5,139.3,129.9,133.6,134.3,4.7
246.0,137.5,131.6,132.5,133.8,3.2
246.5,137.9,130.0,133.1,133.7,4.0
247.0,139.8,131.0,133.3,134.7,4.6
247.5,138.7,130.5,131.9,133.7,4.4
248.0,138.4,131.8,133.1,134.4,3.5
248.5,138.2,131.8,132.9,134.3,3.4
249.0,139.4,132.7,133.6,135.2,3.6
249.5,139.6,132.7,134.5,135.6,3.6
250.0,140.4,135.5,132.6,136.2,3.9
250.5,137.5,132.8,134.8,135.0,2.4
251.0,140.7,133.5,134.4,136.2,3.9
251.5,138.0,132.6,132.5,134.4,3.1
252.0,138.7,131.0,132.6,134.1,4.0
252.5,138.1,131.1,133.6,134.3,3.6
253.0,138.7,131.1,134.5,134.8,3.8
253.5,136.9,131.5,132.0,133.5,3.0
254.0,141.3,131.5,132.2,135.0,5.4
254.5,140.7,132.8,132.0,135.2,4.8
255.0,140.6,131.6,133.2,135.1,4.8
255.5,138.9,134.6,133.5,135.7,2.9
256.0,138.9,131.4,133.7,134.7,3.8
256.5,140.8,133.0,132.3,135.4,4.7
257.0,139.9,133.2,134.4,135.8,3.6
257.5,138.3,132.2,134.2,134.9,3.2
258.0,139.6,132.4,134.9,135.6,3.7
258.5,138.7,130.6,135.1,134.8,4.0
259.0,139.3,132.4,135.4,135.7,3.5
259.5,139.4,133.1,139.4,137.3,3.6
260.0,139.8,132.5,135.7,136.0,3.7
260.5,140.5,131.2,136.2,136.0,4.7
261.0,138.8,135.2,136.3,136.8,1.9
261.5,140.0,132.5,137.0,136.5,3.8
262.0,139.9,132.0,137.5,136.5,4.1
262.5,139.1,132.9,136.3,136.1,3.1
263.0,138.7,133.6,135.8,136.0,2.6
263.5,142.0,133.0,135.6,136.9,4.6
264.0,140.6,133.4,137.2,137.1,3.6
264.5,140.9,133.9,135.1,136.6,3.7
265.0,140.2,133.3,135.4,136.3,3.5
265.5,140.9,133.8,136.5,137.0,3.6
266.0,142.4,132.8,135.4,136.9,5.0
266.5,143.3,131.5,136.5,137.1,5.9
267.0,143.5,133.6,136.4,137.8,5.1
267.5,142.0,131.6,137.1,136.9,5.2
268.0,145.7,132.7,137.7,138.7,6.6
268.5,143.2,133.9,137.3,138.1,4.7
269.0,143.4,134.0,137.5,138.3,4.7
269.5,139.6,133.5,136.3,136.5,3.1
270.0,143.0,132.2,137.1,137.5,5.4
270.5,140.8,135.1,137.6,137.8,2.9
271.0,145.8,135.6,136.1,139.1,5.7
271.5,143.3,132.7,136.3,137.5,5.4
272.0,143.2,133.1,136.8,137.7,5.1
272.5,141.2,135.3,136.9,137.8,3.1
273.0,141.9,136.2,135.0,137.7,3.7
273.5,140.5,136.5,138.4,138.5,2.0
274.0,140.9,137.3,136.9,138.4,2.2
274.5,142.9,135.1,138.6,138.9,3.9
275.0,142.0,134.7,136.5,137.7,3.8
275.5,140.9,134.6,136.9,137.5,3.2
276.0,142.1,136.6,135.7,138.1,3.4
276.5,140.5,136.3,140.9,139.2,2.5
277.0,139.8,135.8,139.0,138.2,2.1
277.5,143.3,134.3,138.1,138.6,4.5
278.0,141.7,133.7,138.5,138.0,4.0
278.5,144.9,136.3,135.7,139.0,5.2
279.0,141.3,135.2,135.8,137.5,3.3
279.5,142.9,135.7,136.6,138.4,3.9
280.0,144.6,134.6,137.1,138.8,5.2
280.5,143.4,134.3,137.4,138.4,4.6
281.0,144.7,134.8,137.0,138.8,5.2
281.5,145.5,135.0,138.8,139.8,5.3
282.0,143.3,134.4,139.4,139.0,4.5
282.5,145.6,137.0,138.5,140.4,4.6
283.0,144.6,135.9,136.4,139.0,4.9
283.5,144.8,134.3,137.6,138.9,5.4
284.0,145.2,136.0,136.2,139.2,5.3
284.5,147.6,135.2,135.0,139.3,7.2
285.0,147.0,135.3,138.5,140.2,6.0
285.5,144.2,134.8,137.1,138.7,4.9
286.0,144.5,134.1,136.4,138.3,5.4
286.5,143.6,135.7,137.5,138.9,4.2
287.0,147.1,136.5,135.9,139.8,6.3
287.5,143.1,137.4,136.5,139.0,3.6
288.0,141.1,135.0,136.6,137.6,3.1
288.5,143.3,135.0,136.8,138.4,4.4
289.0,143.4,139.5,137.2,140.0,3.1
289.5,141.5,136.8,136.3,138.2,2.9
290.0,140.8,136.2,136.3,137.7,2.7
290.5,142.9,134.8,136.9,138.2,4.2
291.0,141.4,136.6,137.1,138.4,2.6
291.5,142.3,136.1,136.9,138.4,3.4
292.0,141.9,136.2,139.8,139.3,2.9
292.5,143.5,137.0,138.3,139.6,3.4
293.0,142.1,137.6,140.2,140.0,2.3
293.5,143.3,136.1,141.6,140.3,3.8
294.0,143.1,137.2,140.6,140.3,3.0
294.5,143.7,136.1,142.2,140.7,4.0
295.0,142.7,137.7,140.8,140.4,2.5
295.5,143.2,133.8,141.0,139.3,4.9
296.0,143.0,135.5,141.7,140.1,4.0
296.5,141.1,137.7,141.2,140.0,2.0
297.0,142.6,137.2,142.3,140.7,3.0
297.5,143.6,136.4,142.1,140.7,3.8
298.0,141.8,136.2,142.7,140.2,3.5
298.5,142.2,137.1,144.0,141.1,3.6
299.0,145.1,134.7,143.0,140.9,5.5
299.5,146.3,135.8,140.8,141.0,5.2
300.0,142.9,135.6,142.5,140.4,4.1
300.5,142.4,135.5,141.5,139.8,3.8
301.0,144.6,138.0,140.8,141.2,3.3
301.5,143.5,137.6,142.3,141.1,3.1
302.0,143.9,136.3,143.0,141.1,4.2
302.5,143.9,136.6,141.0,140.5,3.7
303.0,143.5,138.9,140.4,140.9,2.3
303.5,145.1,135.4,142.1,140.9,5.0
304.0,145.8,138.8,141.2,141.9,3.6
304.5,144.9,136.9,144.0,141.9,4.4
305.0,144.4,137.1,141.7,141.1,3.7
305.5,145.4,135.9,140.6,140.6,4.7
306.0,145.1,137.5,141.6,141.4,3.8
306.5,143.5,138.6,140.6,140.9,2.5
307.0,145.2,136.4,140.6,140.7,4.4
307.5,146.4,136.2,138.3,140.3,5.4
308.0,145.3,137.3,140.5,141.1,4.0
308.5,145.0,137.7,139.7,140.8,3.8
309.0,146.1,139.0,139.2,141.4,4.0
309.5,144.9,138.2,141.5,141.5,3.3
310.0,146.9,137.2,141.6,141.9,4.8
310.5,144.3,136.2,138.9,139.8,4.1
311.0,143.9,141.1,140.4,141.8,1.8
311.5,146.6,139.9,140.2,142.2,3.8
312.0,142.8,139.4,140.0,140.7,1.8
312.5,146.5,139.5,137.9,141.3,4.6
313.0,145.4,137.3,137.5,140.1,4.6
313.5,144.4,139.1,143.5,142.4,2.8
314.0,145.3,141.3,137.2,141.3,4.1
314.5,145.0,138.0,140.8,141.3,3.5
315.0,148.0,138.8,140.4,142.4,4.9
315.5,143.7,140.6,138.3,140.9,2.7
316.0,146.1,139.9,141.6,142.6,3.2
316.5,144.9,138.2,141.2,141.4,3.3
317.0,143.9,138.0,141.9,141.3,3.0
317.5,146.1,140.4,142.5,143.0,2.9
318.0,145.7,139.8,141.7,142.4,3.0
318.5,144.3,139.1,140.2,141.2,2.8
319.0,147.1,139.2,143.2,143.2,4.0
319.5,145.2,139.8,142.6,142.5,2.7
320.0,146.4,138.0,141.1,141.8,4.3
320.5,144.7,139.4,141.8,142.0,2.7
321.0,143.7,140.9,142.2,142.3,1.4
321.5,143.7,139.7,141.9,141.8,2.0
322.0,145.3,141.5,142.6,143.1,2.0
322.5,141.3,140.7,144.6,142.2,2.1
323.0,146.0,138.2,137.9,140.7,4.6
323.5,143.3,142.2,139.6,141.7,1.9
324.0,146.2,142.6,141.2,143.3,2.6
324.5,144.0,140.7,139.9,141.5,2.2
325.0,146.3,142.7,140.0,143.0,3.2
325.5,147.2,140.5,140.9,142.8,3.8
326.0,149.0,141.6,141.2,143.9,4.4
326.5,146.6,141.4,138.9,142.3,4.0
327.0,146.4,140.8,138.8,142.0,3.9
327.5,142.4,142.9,139.3,141.5,1.9
328.0,149.0,140.7,139.2,143.0,5.3
328.5,143.9,142.2,138.3,141.4,2.9
329.0,146.4,141.5,140.0,142.6,3.3
329.5,148.0,141.9,140.5,143.5,4.0
330.0,145.4,140.4,140.5,142.1,2.9
330.5,146.6,141.3,140.0,142.6,3.5
331.0,145.4,142.1,139.6,142.4,2.9
331.5,147.3,139.9,141.6,142.9,3.9
332.0,146.0,139.1,139.8,141.6,3.8
332.5,145.7,141.0,140.2,142.3,3.0
333.0,146.1,139.6,140.9,142.2,3.4
333.5,145.0,141.5,139.8,142.1,2.6
334.0,146.8,140.2,139.7,142.2,3.9
334.5,145.1,141.3,140.8,142.4,2.3
335.0,146.7,141.3,141.3,143.1,3.2
335.5,145.1,140.6,138.9,141.5,3.2
336.0,147.4,140.5,138.2,142.1,4.8
336.5,144.6,139.9,139.3,141.3,2.9
337.0,148.5,139.4,138.6,142.2,5.5
337.5,145.9,140.2,138.9,141.7,3.7
338.0,147.2,140.6,137.8,141.8,4.8
338.5,147.8,138.5,137.5,141.3,5.7
339.0,149.9,139.4,138.7,142.7,6.3
339.5,146.6,139.7,138.2,141.5,4.5
340.0,149.1,140.1,137.9,142.4,5.9
340.5,146.7,139.8,137.8,141.4,4.7
341.0,146.3,141.1,138.9,142.1,3.8
341.5,147.9,141.2,138.0,142.4,5.1
342.0,149.8,141.7,141.0,144.2,4.9
342.5,149.5,140.1,136.6,142.1,6.7
343.0,148.5,140.6,138.1,142.4,5.4
343.5,150.1,141.6,135.5,142.4,7.3
344.0,148.4,138.2,137.6,141.4,6.1
344.5,146.9,140.6,136.0,141.2,5.5
345.0,145.9,139.6,136.4,140.6,4.8
345.5,146.4,143.8,136.6,142.2,5.1
346.0,149.0,139.2,135.4,141.2,7.0
346.5,147.4,138.7,136.3,140.8,5.8
347.0,147.1,141.6,136.0,141.5,5.5
347.5,145.6,140.7,135.8,140.7,4.9
348.0,148.8,140.9,137.9,142.5,5.6
348.5,149.3,139.7,139.6,142.8,5.6
349.0,148.6,141.5,139.2,143.1,4.9
349.5,149.9,140.9,138.6,143.2,5.9
350.0,148.6,141.2,137.1,142.3,5.8
350.5,149.6,139.2,139.4,142.8,5.9
351.0,148.2,142.2,138.6,143.0,4.9
351.5,148.8,141.4,139.6,143.3,4.9
352.0,147.4,140.6,137.6,141.9,5.1
352.5,149.1,140.2,140.1,143.1,5.2
353.0,149.7,141.0,138.8,143.2,5.7
353.5,146.9,142.0,138.5,142.4,4.2
354.0,148.7,143.8,136.4,143.0,6.2
354.5,150.1,141.1,137.1,142.8,6.7
355.0,145.1,140.5,137.0,140.9,4.1
355.5,147.5,142.9,136.7,142.4,5.4
356.0,145.4,141.8,136.4,141.2,4.5
356.5,148.3,144.1,137.7,143.4,5.4
357.0,144.6,140.9,136.1,140.5,4.2
357.5,147.4,140.8,135.8,141.4,5.8
358.0,146.1,141.0,136.5,141.2,4.8
358.5,146.8,142.9,137.0,142.2,4.9
359.0,147.3,141.5,135.1,141.3,6.1
359.5,146.2,140.3,134.9,140.5,5.7
360.0,145.0,141.2,133.3,139.8,6.0
360.5,145.4,140.4,132.4,139.4,6.6
361.0,146.5,141.1,133.7,140.4,6.4
361.5,144.5,141.5,132.8,139.6,6.1
362.0,146.2,140.9,133.3,140.1,6.5
362.5,144.4,142.4,133.5,140.1,5.8
363.0,142.6,140.3,132.1,138.3,5.5
363.5,144.3,139.1,134.0,139.1,5.2
364.0,146.7,140.2,131.0,139.3,7.9
364.5,145.0,141.0,133.5,139.8,5.8
365.0,145.0,139.6,132.4,139.0,6.3
365.5,142.9,142.4,131.9,139.1,6.2
366.0,144.1,138.0,131.8,137.9,6.2
366.5,144.3,139.5,130.7,138.2,6.9
367.0,143.0,139.9,131.0,138.0,6.3
367.5,145.0,139.2,130.1,138.1,7.5
368.0,142.7,139.4,132.2,138.1,5.4
368.5,142.3,137.9,129.9,136.7,6.3
369.0,140.2,136.8,133.7,136.9,3.3
369.5,141.9,139.0,130.7,137.2,5.8
370.0,141.0,137.1,131.0,136.3,5.1
370.5,142.4,137.3,131.7,137.1,5.3
371.0,141.5,135.9,130.8,136.1,5.3
371.5,138.2,137.2,131.7,135.7,3.5
372.0,141.3,138.4,129.3,136.3,6.3
372.5,140.3,136.0,129.4,135.2,5.5
373.0,139.1,134.2,132.2,135.2,3.6
373.5,138.9,136.6,131.2,135.6,3.9
374.0,139.2,136.1,129.4,134.9,5.0
374.5,137.8,135.8,129.9,134.5,4.1
375.0,140.3,139.0,128.4,135.9,6.5
375.5,140.4,136.5,130.7,135.9,4.9
376.0,137.4,136.3,128.4,134.0,4.9
376.5,139.4,135.2,126.4,133.7,6.6
377.0,139.2,134.3,127.6,133.7,5.8
377.5,138.5,137.9,128.6,135.0,5.5
378.0,138.8,135.6,126.5,133.7,6.4
378.5,138.3,134.4,126.0,132.9,6.3
379.0,136.4,136.2,124.9,132.5,6.6
379.5,137.6,136.6,125.4,133.2,6.8
380.0,133.9,135.5,125.6,131.6,5.3
380.5,134.8,135.4,127.5,132.6,4.4
381.0,135.1,134.8,125.6,131.8,5.4
381.5,132.6,133.2,124.7,130.1,4.8
382.0,131.8,136.5,123.7,130.6,6.5
382.5,133.9,132.4,123.2,129.9,5.8
383.0,132.2,133.8,124.3,130.1,5.1
383.5,130.8,134.4,124.0,129.7,5.3
384.0,128.1,134.3,123.9,128.8,5.2
384.5,129.7,133.4,123.2,128.8,5.1
385.0,131.4,133.4,123.6,129.5,5.2
385.5,127.8,132.4,124.3,128.2,4.1
386.0,128.0,133.1,122.6,127.9,5.3
386.5,129.4,131.0,122.7,127.7,4.4
387.0,127.2,132.0,122.5,127.2,4.8
387.5,128.2,129.7,121.6,126.5,4.3
388.0,127.4,130.6,121.4,126.5,4.7
388.5,124.4,131.0,122.5,126.0,4.4
389.0,124.9,131.2,120.2,125.4,5.6
389.5,122.2,131.9,118.8,124.3,6.8
390.0,123.8,131.2,117.1,124.1,7.1
390.5,120.3,132.4,120.0,124.2,7.1
391.0,121.1,130.3,116.5,122.6,7.0
391.5,120.4,131.0,119.1,123.5,6.5
392.0,120.6,127.9,116.8,121.8,5.7
392.5,120.8,128.3,116.0,121.7,6.2
393.0,118.2,128.9,115.9,121.0,6.9
393.5,118.5,126.9,115.1,120.2,6.1
394.0,119.5,126.3,114.2,120.0,6.1
394.5,119.4,126.4,114.4,120.1,6.0
395.0,118.4,125.8,111.3,118.5,7.3
395.5,117.2,125.3,111.5,118.0,6.9
396.0,117.3,125.1,112.7,118.4,6.3
396.5,117.8,127.0,110.4,118.4,8.3
397.0,116.0,124.4,111.9,117.4,6.3
397.5,115.2,122.3,109.3,115.6,6.5
398.0,115.8,123.2,109.3,116.1,7.0
398.5,114.8,121.7,107.8,114.7,6.9
399.0,113.9,121.2,108.0,114.4,6.6
399.5,114.3,122.9,109.5,115.5,6.8
400.0,114.5,122.0,106.8,114.4,7.6
400.5,113.1,119.7,106.6,113.1,6.6
401.0,113.0,120.6,106.5,113.4,7.1
401.5,113.9,119.5,108.8,114.0,5.4
402.0,110.2,117.7,106.1,111.3,5.9
402.5,109.4,117.9,106.8,111.4,5.8
403.0,110.4,115.1,104.6,110.0,5.3
403.5,108.0,118.2,104.5,110.2,7.1
404.0,107.9,116.5,104.7,109.7,6.1
404.5,107.0,115.9,101.7,108.2,7.2
405.0,107.6,114.1,100.7,107.4,6.7
405.5,105.2,113.2,99.0,105.8,7.2
406.0,104.0,113.6,97.3,104.9,8.2
406.5,105.6,112.8,98.9,105.8,7.0
407.0,103.3,111.3,100.4,105.0,5.6
407.5,104.4,110.2,98.6,104.4,5.8
408.0,102.1,111.4,97.2,103.6,7.3
408.5,101.4,113.1,99.6,104.7,7.3
409.0,100.1,110.9,98.1,103.0,6.9
409.5,100.0,110.0,97.4,102.5,6.6
410.0,99.0,110.2,97.0,102.0,7.1
410.5,99.5,108.9,96.5,101.6,6.5
411.0,98.0,108.8,95.7,100.9,7.0
411.5,99.4,107.7,95.7,101.0,6.1
412.0,96.6,109.1,96.8,100.8,7.2
412.5,97.5,109.5,94.8,100.6,7.8
413.0,94.0,107.5,93.8,98.4,7.9
413.5,95.4,106.9,94.4,98.9,6.9
414.0,95.2,106.3,92.8,98.1,7.2
414.5,94.8,107.5,92.2,98.2,8.2
415.0,92.3,105.6,93.1,97.0,7.5
415.5,93.1,105.1,92.8,97.0,7.0
416.0,92.1,103.1,92.4,95.9,6.2
416.5,91.8,102.9,91.3,95.3,6.5
417.0,89.8,103.9,90.8,94.8,7.9
417.5,88.4,102.2,89.7,93.4,7.6
418.0,88.2,99.0,89.5,92.2,5.9
418.5,87.2,99.5,87.5,91.4,7.0
419.0,86.5,98.5,87.3,90.8,6.7
419.5,85.2,98.6,85.0,89.6,7.8
420.0,85.1,96.1,85.0,88.7,6.4
420.5,86.0,96.9,82.4,88.4,7.5
421.0,83.8,96.4,83.3,87.8,7.4
421.5,84.8,96.2,82.4,87.8,7.4
422.0,82.6,94.9,80.3,85.9,7.8
422.5,81.9,94.1,79.8,85.2,7.7
423.0,81.7,92.6,79.0,84.4,7.2
423.5,82.6,91.8,78.9,84.5,6.6
424.0,81.6,91.3,78.3,83.7,6.8
424.5,81.7,90.7,76.5,83.0,7.2
425.0,80.6,89.5,76.1,82.0,6.8
425.5,79.4,88.5,75.3,81.1,6.8
426.0,80.2,87.6,73.8,80.5,6.9
426.5,78.3,88.2,72.9,79.8,7.8
427.0,78.7,86.5,71.0,78.8,7.8
427.5,77.4,84.8,69.9,77.4,7.4
428.0,77.4,82.3,69.8,76.5,6.3
428.5,77.6,83.8,68.8,76.8,7.5
429.0,75.5,81.9,68.4,75.3,6.8
429.5,75.5,83.0,67.4,75.3,7.8
430.0,76.0,80.8,66.3,74.4,7.4
430.5,74.0,79.9,65.8,73.2,7.1
431.0,72.6,78.8,66.0,72.5,6.4
431.5,70.5,78.8,65.1,71.4,6.9
432.0,70.0,77.2,65.2,70.8,6.1
432.5,69.5,78.0,64.7,70.8,6.8
433.0,69.1,75.5,64.4,69.7,5.6
433.5,67.8,74.4,63.6,68.6,5.4
434.0,68.1,74.1,63.4,68.5,5.4
434.5,68.4,75.8,63.9,69.4,6.0
435.0,66.7,73.7,62.7,67.7,5.6
435.5,66.7,73.2,62.3,67.4,5.4
436.0,67.3,72.7,62.9,67.6,4.9
436.5,65.6,70.9,62.3,66.3,4.3
437.0,65.4,69.7,61.5,65.5,4.1
437.5,65.4,68.6,60.5,64.8,4.1
438.0,65.3,68.8,60.8,65.0,4.0
438.5,66.0,67.2,59.7,64.3,4.0
439.0,63.5,66.7,58.7,63.0,4.0
439.5,63.7,65.7,59.0,62.8,3.5
440.0,63.8,65.6,58.3,62.6,3.8
440.5,62.7,64.9,57.8,61.8,3.6
441.0,62.2,63.9,56.6,60.9,3.8
441.5,60.9,64.0,57.2,60.7,3.4
442.0,61.7,64.2,56.2,60.7,4.1
442.5,60.6,63.6,55.9,60.0,3.9
443.0,61.5,62.5,56.3,60.1,3.3
443.5,59.4,62.7,54.6,58.9,4.1
444.0,60.6,61.7,55.6,59.3,3.3
444.5,59.9,63.7,54.5,59.4,4.6
445.0,58.5,61.9,55.6,58.7,3.2
445.5,59.4,61.0,54.8,58.4,3.2
446.0,58.2,60.4,54.5,57.7,3.0
446.5,58.3,59.9,54.1,57.4,3.0
447.0,58.8,59.1,54.4,57.4,2.7
447.5,57.6,59.3,53.7,56.9,2.8
448.0,56.8,58.6,53.5,56.3,2.6
448.5,56.6,58.4,53.4,56.1,2.5
449.0,56.9,57.7,54.1,56.2,1.9
449.5,56.5,57.6,52.7,55.6,2.6
450.0,56.5,56.8,52.6,55.3,2.3
450.5,55.3,57.5,52.9,55.3,2.3
451.0,55.6,55.9,51.3,54.3,2.5
451.5,54.9,56.9,51.4,54.4,2.8
452.0,55.3,56.7,51.5,54.5,2.7
452.5,54.6,56.1,51.2,54.0,2.5
453.0,54.3,55.5,51.3,53.7,2.2
453.5,54.9,54.8,51.6,53.8,1.9
454.0,54.4,54.6,51.3,53.4,1.9
454.5,54.2,54.5,51.5,53.4,1.7
455.0,55.0,53.8,51.5,53.4,1.8
455.5,54.1,53.6,50.8,52.8,1.8
456.0,53.9,53.9,50.8,52.9,1.8
456.5,53.6,53.4,51.5,52.8,1.2
457.0,53.8,52.8,51.3,52.6,1.2
457.5,53.6,53.6,50.8,52.7,1.6
458.0,53.1,53.5,50.9,52.5,1.4
458.5,53.0,51.9,50.6,51.8,1.2
459.0,51.8,53.2,50.9,52.0,1.2
459.5,52.3,52.5,50.6,51.8,1.0
460.0,52.4,52.3,50.5,51.7,1.1
460.5,52.0,52.3,50.1,51.5,1.2
461.0,51.7,52.3,50.7,51.6,0.8
461.5,52.0,52.6,49.9,51.5,1.4
462.0,51.7,53.0,50.5,51.7,1.2
462.5,51.0,52.5,51.1,51.5,0.8
463.0,51.7,53.0,51.4,52.0,0.9
463.5,50.5,53.8,50.0,51.4,2.1
464.0,50.6,53.3,50.4,51.4,1.6
464.5,50.6,52.6,50.8,51.3,1.1
465.0,50.9,52.1,51.3,51.4,0.6
465.5,50.3,52.0,50.9,51.1,0.8
466.0,50.6,52.4,50.3,51.1,1.2
466.5,50.6,52.1,50.2,51.0,1.0
467.0,50.3,51.7,49.9,50.7,0.9
467.5,50.9,51.3,49.8,50.7,0.8
468.0,51.7,51.3,49.6,50.9,1.2
468.5,51.3,51.4,49.6,50.8,1.0
469.0,51.4,51.7,49.0,50.7,1.5
469.5,51.5,52.0,48.8,50.8,1.7
470.0,51.7,51.3,49.7,50.9,1.0
470.5,51.8,51.4,49.7,51.0,1.1
471.0,52.3,51.8,48.2,50.7,2.2
471.5,52.5,51.1,49.3,50.9,1.6
472.0,51.6,50.8,48.1,50.2,1.8
472.5,51.6,50.5,48.3,50.1,1.7
473.0,52.4,51.4,49.2,51.0,1.7
473.5,51.3,50.1,48.4,49.9,1.4
474.0,51.5,50.1,48.5,50.0,1.5
474.5,51.2,50.0,49.5,50.2,0.9
475.0,51.3,49.4,48.8,49.9,1.3
475.5,51.5,49.4,48.9,49.9,1.4
476.0,50.8,49.7,48.7,49.8,1.0
476.5,51.0,50.0,49.5,50.2,0.8
477.0,50.3,49.7,48.5,49.5,0.9
477.5,50.6,50.3,48.7,49.9,1.0
478.0,50.6,51.5,48.4,50.1,1.6
478.5,50.4,50.5,48.5,49.8,1.1
479.0,50.3,50.6,48.9,49.9,0.9
479.5,51.0,50.2,49.0,50.1,1.0
480.0,50.6,50.1,49.1,49.9,0.7
480.5,50.7,50.5,49.5,50.2,0.6
481.0,52.0,50.0,48.2,50.0,1.9
481.5,51.1,50.3,49.2,50.2,0.9
482.0,50.4,50.3,49.3,50.0,0.6
482.5,51.4,50.0,50.1,50.5,0.8
483.0,50.6,49.2,49.8,49.9,0.7
483.5,50.6,50.1,48.9,49.9,0.9
484.0,51.4,49.6,50.5,50.5,0.9
484.5,50.8,49.5,50.3,50.2,0.7
485.0,51.6,49.7,50.2,50.5,1.0
485.5,50.8,49.5,50.1,50.1,0.7
486.0,50.6,49.5,50.3,50.1,0.5
486.5,51.0,49.0,51.0,50.4,1.2
487.0,50.7,49.0,50.3,50.0,0.9
487.5,50.9,49.2,50.0,50.0,0.8
488.0,50.3,49.9,50.1,50.1,0.2
488.5,50.2,49.0,49.8,49.7,0.6
489.0,50.1,49.2,50.1,49.8,0.5
489.5,50.3,48.4,50.5,49.7,1.1
490.0,50.9,49.4,50.7,50.4,0.8
490.5,50.1,48.7,50.7,49.8,1.0
491.0,49.4,48.8,50.6,49.6,0.9
491.5,49.0,49.2,51.1,49.7,1.1
492.0,49.0,48.3,50.4,49.2,1.1
492.5,49.7,48.3,50.5,49.5,1.1
493.0,49.8,48.4,50.8,49.7,1.2
493.5,48.9,47.8,50.9,49.2,1.6
494.0,49.4,48.5,51.2,49.7,1.4
494.5,49.3,47.6,49.7,48.9,1.1
495.0,49.7,47.3,50.3,49.1,1.6
495.5,49.2,46.7,50.4,48.8,1.9
496.0,49.3,46.7,50.5,48.8,1.9
496.5,49.6,46.7,50.4,48.9,2.0
497.0,49.7,,50.3,50.0,0.4
497.5,49.4,,50.7,50.1,0.9
498.0,49.3,,49.7,49.5,0.3
498.5,49.7,,49.3,49.5,0.3
499.0,49.8,,50.4,50.1,0.4
499.5,49.8,,49.6,49.7,0.2
500.0,49.3,,50.2,49.8,0.7
500.5,49.2,,49.8,49.5,0.4
501.0,49.3,,49.6,49.4,0.2
501.5,48.9,,49.7,49.3,0.6
502.0,49.2,,49.5,49.3,0.2
502.5,48.9,,49.9,49.4,0.7
503.0,48.8,,50.2,49.5,1.0
503.5,48.9,,48.9,48.9,0.0
504.0,49.1,,49.2,49.1,0.0
504.5,48.4,,48.6,48.5,0.1
505.0,49.3,,48.1,48.7,0.8
505.5,49.3,,48.2,48.8,0.8
506.0,48.3,,48.6,48.4,0.2
506.5,48.5,,47.3,47.9,0.9
507.0,49.0,,47.5,48.2,1.0
507.5,48.6,,47.8,48.2,0.6
508.0,48.1,,47.5,47.8,0.5
508.5,48.2,,48.2,48.2,0.0
509.0,47.8,,47.1,47.5,0.5
509.5,48.7,,46.9,47.8,1.2
510.0,48.3,,46.7,47.5,1.2
510.5,47.8,,47.1,47.5,0.5
511.0,47.8,,46.8,47.3,0.7
511.5,47.6,,46.2,46.9,1.0
512.0,47.5,,46.8,47.2,0.5
512.5,48.6,,46.2,47.4,1.7
513.0,48.3,,46.6,47.5,1.2
513.5,47.3,,46.0,46.7,0.9
514.0,47.7,,46.2,47.0,1.0
514.5,47.8,,46.2,47.0,1.2
515.0,47.6,,46.5,47.1,0.8
515.5,47.9,,45.7,46.8,1.6
516.0,48.1,,47.0,47.6,0.8
516.5,47.4,,46.7,47.0,0.5
517.0,47.1,,46.7,46.9,0.3
517.5,46.9,,47.2,47.0,0.2
518.0,46.9,,46.8,46.9,0.1
518.5,47.3,,46.5,46.9,0.5
519.0,46.4,,46.3,46.4,0.1
519.5,46.5,,46.8,46.7,0.2
520.0,46.7,,46.2,46.4,0.4
520.5,45.2,,47.0,46.1,1.3
521.0,45.8,,46.8,46.3,0.7
521.5,46.1,,46.5,46.3,0.3
522.0,45.3,,46.6,45.9,0.9
522.5,45.9,,46.6,46.3,0.5
523.0,46.1,,46.7,46.4,0.4
523.5,45.3,,45.7,45.5,0.3
524.0,45.8,,46.0,45.9,0.1
524.5,46.0,,46.7,46.4,0.6
525.0,46.4,,46.4,46.4,0.0
525.5,45.7,,47.5,46.6,1.3
526.0,45.5,,46.1,45.8,0.4
526.5,45.8,,46.7,46.2,0.6
527.0,45.0,,46.9,46.0,1.4
527.5,45.3,,46.4,45.8,0.7
528.0,44.5,,46.6,45.6,1.5
528.5,44.9,,46.3,45.6,1.0
529.0,44.9,,46.7,45.8,1.2
529.5,45.3,,47.2,46.2,1.3
530.0,45.3,,46.4,45.8,0.8
530.5,45.1,,46.3,45.7,0.8
531.0,45.5,,47.0,46.2,1.1
531.5,45.3,,46.4,45.8,0.7
532.0,45.1,,46.8,46.0,1.2
532.5,45.6,,47.1,46.3,1.1
533.0,45.2,,46.7,46.0,1.1
533.5,44.9,,46.1,45.5,0.9
534.0,44.9,,46.5,45.7,1.1
534.5,45.9,,46.5,46.2,0.4
535.0,44.5,,47.3,45.9,2.0
535.5,45.3,,47.2,46.2,1.4
536.0,45.4,,46.7,46.1,1.0
536.5,44.9,,46.9,45.9,1.5
537.0,45.3,,47.8,46.5,1.8
537.5,45.8,,47.2,46.5,0.9
538.0,44.9,,47.7,46.3,2.0
538.5,45.0,,47.9,46.5,2.1
539.0,45.0,,47.8,46.4,2.0
539.5,45.0,,48.0,46.5,2.1
540.0,44.9,,47.4,46.2,1.8
540.5,44.6,,47.4,46.0,2.0
541.0,44.7,,47.8,46.2,2.2
541.5,44.2,,47.9,46.1,2.6
542.0,44.2,,47.7,45.9,2.5
542.5,43.4,,47.0,45.2,2.5
543.0,43.8,,48.1,46.0,3.0
543.5,44.0,,47.6,45.8,2.5
544.0,43.3,,47.5,45.4,3.0
544.25,43.2,,47.3,45.2,2.9