File: 01_Data/Homasote/Cone/Homasote_Cone_HF25Scan_230608_R2.csv
Names,Time,Stack TC,Smoke TC,Exh Press,Smoke Comp,Smoke Meas,CO Meter,CO2 Meter,O2 Meter,Sample Mass,Ext Coeff,Start Test,Flame Verif
Chan Gain,,500,500,1,1,1,1,1,1,1,1,1.0,1.0
Offset,,0,0,0.143883,0,0,0,0,0,0,0,0.0,0.0
Gain,,1,1,25.011,13.2197,13.9034,1,1,1,1.00094,1.03262,1.0,1.0
Units,sec,C,C,Pa,%,%,%,%,%,g,/m,,
Baseline,,26.5542,26.8144,160.493,99.7215,99.6894,0.00123153,0.0556768,20.947,-445.375,0.00292005,,
7,1.5,23.228,23.6528,157.789,98.5962,98.5947,0.00123505,0.0605834,20.9423,102.747,0.000138214,0.0,0.0
14,3.25,23.0888,23.6689,163.598,98.6006,98.5001,0.00119252,0.0607328,20.9425,102.887,0.00924271,0.0,0.0
21,5,23.1559,23.6568,162.248,98.6039,98.5739,0.00122101,0.0610114,20.9419,102.827,0.00275308,0.0,0.0
28,6.75,23.6203,23.7451,159.745,98.5906,98.5374,0.00123427,0.0611465,20.9416,102.807,0.00488371,0.0,0.0
35,8.5,23.5048,23.9859,161.239,98.5873,98.4886,0.00124694,0.0612895,20.9414,102.777,0.00907335,0.0,0.0
42,10.25,24.0699,24.079,162.849,98.593,98.439,0.00125495,0.0611725,20.9414,102.787,0.0141592,0.0,0.0
49,12,23.7173,23.4022,163.588,98.5825,98.4241,0.00123608,0.0609942,20.9413,102.747,0.0145624,0.0,0.0
56,13.75,24.0972,23.7319,163.53,98.5873,98.2964,0.0012035,0.0604774,20.9413,102.706,0.0267676,0.0,0.0
63,15.5,23.3644,23.949,162.823,98.5514,98.1577,0.00121806,0.0598944,20.9413,102.676,0.0362626,0.0,0.0
70,17.25,24.0031,24.0838,163.338,98.5627,98.1526,0.00129001,0.0591954,20.9413,102.646,0.0377704,0.0,0.0
77,19,24.0081,24.4113,159.185,98.5623,98.0287,0.00135587,0.0587252,20.942,102.616,0.0491743,0.0,0.0
84,20.75,23.9809,23.8881,162.393,98.5494,97.9757,0.00141748,0.0584783,20.9429,102.586,0.0528895,0.0,0.0
91,22.5,23.8263,23.8492,160.204,98.5478,97.9731,0.00144124,0.058905,20.9433,102.536,0.0529764,0.0,0.0
98,24.25,23.8501,24.2808,157.608,98.5405,97.7537,0.00140052,0.0596295,20.9435,102.546,0.0726131,0.0,0.0
105,26,23.9052,23.9417,161.531,98.5474,97.8284,0.00132704,0.0598048,20.9435,102.526,0.0663263,0.0,0.0
112,27.75,23.8644,24.5355,160.305,98.543,97.7686,0.00123881,0.0592415,20.9431,102.496,0.0714605,0.0,0.0
119,29.5,23.8371,23.8782,160.515,98.5543,97.5972,0.00119471,0.0582187,20.9431,102.486,0.0883939,0.0,0.0
126,31.25,24.0397,24.4308,158.459,98.5325,97.8649,0.00125523,0.0573327,20.9441,102.466,0.0615765,0.0,0.0
133,33,24.3938,24.3923,160.557,98.5611,97.6786,0.00135047,0.0566751,20.9448,102.446,0.0814653,0.0,0.0
140,34.75,23.9823,24.3217,165.058,98.5595,97.5318,0.00147949,0.056194,20.9461,102.406,0.0949422,0.0,0.0
147,36.5,24.0273,24.1019,161.37,98.5619,97.4572,0.00157609,0.0560095,20.9468,102.406,0.102102,0.0,0.0
154,38.25,24.292,24.4442,158.594,98.551,97.4606,0.00158533,0.0559785,20.9471,102.376,0.100785,0.0,0.0
161,40,24.1083,24.332,158.663,98.5676,97.559,0.00150399,0.0560793,20.9483,102.346,0.0931618,0.0,0.0
168,41.75,24.1842,24.5387,161.295,98.5744,97.4686,0.00141512,0.0563831,20.9482,102.296,0.102187,0.0,0.0
175,43.5,24.5208,24.5117,158.617,98.5853,97.2997,0.0013218,0.0566595,20.9478,102.276,0.118895,0.0,0.0
182,45.25,24.3234,24.5729,161.487,98.5651,97.1826,0.00123266,0.0567676,20.9476,102.246,0.12795,0.0,0.0
189,47,24.4042,24.4939,159.412,98.5716,96.8479,0.00123284,0.0568894,20.9462,102.216,0.1598,0.0,0.0
196,48.75,24.7799,23.8212,157.92,98.5789,96.962,0.00129412,0.0567788,20.9454,102.176,0.149798,0.0,0.0
203,50.5,24.3305,24.8463,159.761,98.5793,96.794,0.00151165,0.0565409,20.9455,102.126,0.165545,0.0,0.0
210,52.25,24.7151,24.6314,158.748,98.5615,95.9696,0.00177351,0.0565285,20.946,102.116,0.241394,0.0,0.0
217,54,24.5448,24.4322,152.685,98.5434,98.5052,0.00197855,0.0566453,20.9471,101.936,0.00350976,0.0,1.0
224,55.75,25.4863,24.5905,144.663,98.5696,98.5031,0.00206485,0.0568311,20.9475,101.736,0.00611501,0.0,1.0
231,57.5,26.4111,25.8823,142.038,98.5607,98.4772,0.00213981,0.0570591,20.9478,101.505,0.00768061,0.0,1.0
238,59.25,26.589,24.8995,146.541,98.5571,98.4432,0.00223837,0.0575625,20.9473,101.285,0.0104691,0.0,0.0
245,61,27.5633,25.7507,145.657,98.545,98.3261,0.00240752,0.0641603,20.9464,101.075,0.0201375,0.0,0.0
252,62.75,28.6306,26.4965,145.703,98.5401,98.3087,0.00264911,0.0995054,20.9452,100.865,0.0212967,0.0,0.0
259,64.5,29.905,27.1201,144.781,98.5563,97.9273,0.00282749,0.164896,20.9364,100.695,0.0579937,0.0,0.0
266,66.25,31.162,28.1257,146.019,98.5543,98.3486,0.00287312,0.241337,20.8993,100.344,0.01892,0.0,0.0
273,68,31.331,28.5197,150.199,98.568,97.999,0.00291217,0.294223,20.814,100.314,0.0524386,0.0,0.0
280,69.75,32.5252,29.3025,146.854,98.5579,97.8963,0.00305441,0.326641,20.7371,100.094,0.061007,0.0,0.0
287,71.5,33.0642,30.3042,148.263,98.5902,97.8658,0.00319853,0.343178,20.6861,99.9139,0.0668001,0.0,0.0
294,73.25,33.9618,30.5758,146.667,98.6059,97.881,0.00330272,0.345774,20.6519,99.7037,0.0668312,0.0,0.0
301,75,34.1886,31.3499,145.57,98.6325,97.6562,0.00327334,0.345005,20.6328,99.5235,0.0901111,0.0,0.0
308,76.75,34.7518,32.0069,148.633,98.6571,97.6422,0.00320491,0.345979,20.6246,99.4034,0.0936706,0.0,0.0
315,78.5,35.8811,32.8042,147.666,98.6688,97.6697,0.00323542,0.345852,20.6198,99.1632,0.0921871,0.0,0.0
322,80.25,36.2026,33.1793,150.974,98.7229,98.016,0.00334895,0.344216,20.6174,99.023,0.0650946,0.0,0.0
329,82,35.7471,33.1615,153.439,98.7636,97.8624,0.00334298,0.342082,20.6168,98.8429,0.0830383,0.0,0.0
336,83.75,36.7891,33.7511,154.197,98.7955,97.954,0.00331675,0.338615,20.6173,98.7027,0.0774825,0.0,0.0
343,85.5,36.7262,34.0902,143.23,98.8367,97.587,0.00335723,0.33334,20.6179,98.5326,0.115257,0.0,0.0
350,87.25,37.0231,34.7373,150.658,98.9141,97.856,0.0033478,0.326614,20.6222,98.3724,0.0974177,0.0,0.0
357,89,36.984,34.9374,153.593,98.9682,97.9778,0.00326582,0.319318,20.6279,98.2223,0.0911021,0.0,0.0
364,90.75,37.321,35.3111,147.753,99.0158,98.1403,0.00317191,0.312726,20.636,98.0621,0.0804476,0.0,0.0
371,92.5,37.383,35.5117,145.039,99.0577,98.0885,0.00317215,0.305836,20.6432,97.912,0.0890633,0.0,0.0
378,94.25,37.6095,35.6363,150.017,99.1029,98.201,0.00328247,0.300515,20.6496,97.7418,0.0828168,0.0,0.0
385,96,37.5536,36.0074,150.065,99.1537,98.1916,0.00350686,0.295463,20.6579,97.5817,0.0883234,0.0,0.0
392,97.75,37.9544,35.7922,150.178,99.1989,98.3223,0.00372138,0.289912,20.6637,97.4415,0.0804026,0.0,0.0
399,99.5,37.9377,36.6129,154.747,99.2449,98.4916,0.00380218,0.284004,20.6698,97.3014,0.0690176,0.0,0.0
406,101.25,37.8137,36.5596,149.727,99.2824,98.5837,0.00375565,0.279204,20.6767,97.1613,0.0639785,0.0,0.0
413,103,37.9761,36.8753,153.799,99.3369,98.5913,0.00362037,0.276362,20.6829,96.9711,0.0682438,0.0,0.0
420,104.75,37.6245,36.7474,152.165,99.3809,98.6779,0.0034732,0.273877,20.69,96.881,0.0643045,0.0,0.0
427,106.5,38.0441,36.984,150.558,99.4281,98.8777,0.00339003,0.270684,20.694,96.7109,0.0502794,0.0,0.0
434,108.25,37.8436,37.1319,148.448,99.4487,98.9859,0.00334615,0.267502,20.6981,96.6008,0.0422468,0.0,0.0
441,110,38.0522,37.0192,150.214,99.4975,99.0979,0.00331497,0.264486,20.701,96.4706,0.0364476,0.0,0.0
448,111.75,37.9198,37.5144,150.081,99.5257,98.7067,0.00333852,0.26165,20.7054,96.3105,0.0748474,0.0,0.0
455,113.5,37.619,37.3593,154.57,99.5761,99.0712,0.00335241,0.258659,20.7079,96.1403,0.0460507,0.0,0.0
462,115.25,37.8297,37.4979,150.94,99.577,99.2719,0.00327828,0.254966,20.7113,96.0302,0.0277925,0.0,0.0
469,117,37.8474,37.6988,152.416,99.6076,99.3016,0.00319797,0.251524,20.7147,95.8901,0.0278721,0.0,0.0
476,118.75,38.1358,38.1103,152.845,99.65,99.4369,0.00315506,0.249373,20.7176,95.77,0.0193854,0.0,0.0
483,120.5,38.2826,37.8789,151.122,99.658,99.4637,0.0031024,0.247617,20.7218,95.6298,0.0176839,0.0,0.0
490,122.25,37.9129,38.084,150.054,99.6738,99.4072,0.00303755,0.245603,20.7254,95.4897,0.0242544,0.0,0.0
497,124,38.0073,38.0763,152.961,99.6895,99.5663,0.00305839,0.243931,20.7281,95.3396,0.0111982,0.0,0.0
504,125.75,38.4772,38.2416,148.681,99.7097,99.6852,0.00315932,0.242058,20.7303,95.1994,0.00222844,0.0,0.0
511,127.5,38.1322,37.9371,152.819,99.7303,99.6703,0.00329626,0.240647,20.7328,95.0893,0.00544704,0.0,0.0
518,129.25,38.0947,38.1667,150.09,99.7307,99.6826,0.00342531,0.23931,20.735,94.9592,0.00436567,0.0,0.0
525,131,37.9591,38.6613,153.886,99.7363,99.8154,0.00348016,0.237689,20.7369,94.8091,-0.00718191,0.0,0.0
532,132.75,37.4953,38.3899,147.109,99.7492,99.7946,0.00349582,0.23622,20.7379,94.709,-0.00412254,0.0,0.0
539,134.5,37.8362,38.4125,154.022,99.7601,99.8341,0.00346506,0.233797,20.7399,94.5488,-0.00671454,0.0,0.0
546,136.25,37.6031,38.6671,151.28,99.7581,99.7552,0.0033348,0.230365,20.7424,94.4687,0.000266707,0.0,0.0
553,138,37.8384,38.6367,157.041,99.7492,99.854,0.00316602,0.227225,20.7451,94.3286,-0.00951211,0.0,0.0
560,139.75,37.8224,38.0671,155.101,99.7476,99.812,0.00313234,0.225643,20.7486,94.1885,-0.00584739,0.0,0.0
567,141.5,37.6414,38.3543,151.483,99.7565,99.896,0.00324938,0.224682,20.7509,94.0283,-0.0126625,0.0,0.0
574,143.25,38.0044,38.6841,150.666,99.775,99.9351,0.00341844,0.224455,20.753,93.9883,-0.0145161,0.0,0.0
581,145,37.6938,38.4757,156.5,99.7488,99.927,0.00346535,0.223773,20.7541,93.7781,-0.0161661,0.0,0.0
588,146.75,37.7215,38.5949,150.05,99.7537,99.8735,0.00350436,0.222121,20.7552,93.648,-0.0108796,0.0,0.0
595,148.5,37.8841,38.4243,154.116,99.7488,99.7734,0.00361644,0.219689,20.7564,93.5579,-0.00223277,0.0,0.0
602,150.25,37.6315,38.8649,152.79,99.7315,99.86,0.00372933,0.216962,20.7575,93.4778,-0.0116629,0.0,0.0
609,152,37.5737,38.7111,154.476,99.7294,99.8099,0.00376945,0.215209,20.7603,93.3877,-0.00730402,0.0,0.0
616,153.75,37.268,38.4958,154.618,99.7048,99.8659,0.00375996,0.213557,20.7625,93.2176,-0.0146204,0.0,0.0
623,155.5,37.2279,38.6507,152.63,99.698,99.9329,0.00380396,0.211588,20.7643,93.1175,-0.0213225,0.0,0.0
630,157.25,37.5249,38.4765,154.034,99.6919,99.8829,0.00384041,0.209041,20.7673,92.9974,-0.0173323,0.0,0.0
637,159,37.3202,38.5089,157.583,99.6609,99.854,0.00378561,0.20678,20.7703,92.8873,-0.0175384,0.0,0.0
644,160.75,37.2177,38.6151,151.374,99.6637,99.8239,0.00368864,0.2049,20.7736,92.7371,-0.014549,0.0,0.0
651,162.5,37.1753,38.1946,153.605,99.6387,99.7153,0.00364997,0.202971,20.7759,92.637,-0.00696092,0.0,0.0
658,164.25,36.9711,38.5624,152.647,99.6298,99.7199,0.00368708,0.201047,20.7778,92.4869,-0.00819238,0.0,0.0
665,166,36.8292,38.5197,152.548,99.6056,99.7238,0.0038314,0.198159,20.7795,92.3568,-0.0107396,0.0,0.0
672,167.75,37.0007,38.2949,148.069,99.5995,99.7632,0.00396954,0.196223,20.7819,92.3167,-0.0148735,0.0,0.0
679,169.5,37.1138,38.2383,150.776,99.5818,99.6559,0.0041296,0.194139,20.7844,92.1666,-0.00673615,0.0,0.0
686,171.25,36.6311,38.2918,152.574,99.5447,99.6945,0.00427349,0.19188,20.7875,92.0665,-0.0136217,0.0,0.0
693,173,36.9281,38.1113,156.071,99.5362,99.6202,0.00442868,0.190214,20.7903,91.9063,-0.0076439,0.0,0.0
700,174.75,36.6017,38.3405,156.23,99.5205,99.6139,0.00458032,0.18911,20.7927,91.7762,-0.00849717,0.0,0.0
707,176.5,37.0911,38.2171,151.827,99.5023,99.7276,0.00466822,0.188044,20.7937,91.6561,-0.0204838,0.0,0.0
714,178.25,35.8851,38.0077,150.96,99.4801,99.5464,0.00462155,0.186288,20.795,91.6161,-0.00603324,0.0,0.0
721,180,36.4154,38.159,156.78,99.4838,99.689,0.00455572,0.184254,20.7966,91.4459,-0.0186658,0.0,0.0
728,181.75,36.1749,37.9594,158.809,99.462,99.4853,0.00455154,0.182949,20.7981,91.3358,-0.00212422,0.0,0.0
735,183.5,35.8897,36.5271,156.706,99.4386,99.5549,0.00466818,0.181816,20.8006,91.2057,-0.0105893,0.0,0.0
742,185.25,36.1222,37.7657,154.526,99.4156,99.5672,0.004857,0.181207,20.8022,91.1656,-0.0138039,0.0,0.0
749,187,35.9591,37.5023,153.782,99.395,99.5825,0.00502586,0.180195,20.8032,91.0055,-0.0170683,0.0,0.0
756,188.75,35.8027,37.295,159.673,99.4075,99.5125,0.00507927,0.178817,20.8049,90.8754,-0.00955805,0.0,0.0
763,190.5,36.1627,37.6561,153.309,99.3978,99.4921,0.00497238,0.177683,20.8064,90.8153,-0.00858633,0.0,0.0
770,192.25,35.6166,37.5417,160.557,99.3865,99.3949,0.0049505,0.176559,20.8079,90.7653,-0.000765612,0.0,0.0
777,194,35.7444,37.3133,153.161,99.3652,99.4615,0.0050155,0.175168,20.8085,90.6051,-0.00878305,0.0,0.0
784,195.75,35.2838,37.0726,155.578,99.3777,99.501,0.00512004,0.173887,20.8099,90.475,-0.0112364,0.0,0.0
791,197.5,35.2942,37.0543,155.101,99.3736,99.4874,0.00516991,0.172857,20.8108,90.4049,-0.0103677,0.0,0.0
798,199.25,35.1673,36.6092,154.886,99.3837,99.4658,0.00521843,0.171518,20.812,90.3449,-0.00747801,0.0,0.0
805,201,35.1976,36.9775,152.883,99.3668,99.4357,0.00534564,0.170718,20.813,90.2248,-0.00627852,0.0,0.0
812,202.75,35.115,36.5104,151.838,99.3861,99.5456,0.00551991,0.1704,20.8146,90.1647,-0.0145182,0.0,0.0
819,204.5,35.2158,37.027,157.352,99.3881,99.4577,0.00569003,0.170006,20.8155,90.0046,-0.00633903,0.0,0.0
826,206.25,35.0178,36.1714,154.371,99.3954,99.4348,0.00577062,0.169099,20.8159,89.9245,-0.00359051,0.0,0.0
833,208,35.0049,36.7686,154.047,99.4059,99.5562,0.00579133,0.168458,20.817,89.8144,-0.0136822,0.0,0.0
840,209.75,35.0428,36.4098,153.52,99.4192,99.5192,0.00583827,0.168703,20.8179,89.6742,-0.00910947,0.0,0.0
847,211.5,34.8807,36.4913,155.081,99.441,99.5812,0.00590425,0.16873,20.8184,89.6142,-0.012762,0.0,0.0
854,213.25,35.2421,36.3909,153.533,99.4414,99.5702,0.00594734,0.16812,20.8188,89.4741,-0.0117218,0.0,0.0
861,215,35.0963,36.4676,154.803,99.4297,99.5905,0.0060041,0.167612,20.8191,89.424,-0.0146404,0.0,0.0
868,216.75,34.8037,35.9559,154.358,99.424,99.5608,0.00601246,0.167249,20.8192,89.2939,-0.0124527,0.0,0.0
875,218.5,34.7894,36.373,154.052,99.4555,99.6194,0.00595799,0.167275,20.8196,89.1738,-0.0149119,0.0,0.0
882,220.25,35.3055,36.1672,152.399,99.4362,99.6474,0.00592135,0.16703,20.8202,89.1337,-0.019222,0.0,0.0
889,222,34.7003,36.2,157.283,99.445,99.658,0.00593486,0.166328,20.8206,89.0336,-0.0193778,0.0,0.0
896,223.75,34.527,36.2312,154.304,99.4466,99.6011,0.00600909,0.165009,20.8209,88.9135,-0.0140618,0.0,0.0
903,225.5,34.5577,35.99,152.558,99.4491,99.6207,0.00625637,0.163718,20.8221,88.7734,-0.0156155,0.0,0.0
910,227.25,34.5946,36.1456,153.654,99.4515,99.5893,0.00661297,0.163361,20.8237,88.6833,-0.0125403,0.0,0.0
917,229,34.8001,35.787,152.794,99.4608,99.5328,0.00686305,0.163104,20.8249,88.5532,-0.00656109,0.0,0.0
924,230.75,34.5902,36.0811,152.322,99.4563,99.5519,0.00695074,0.162694,20.8257,88.5232,-0.00870306,0.0,0.0
931,232.5,34.2102,35.8535,154.236,99.46,99.5277,0.00694911,0.162275,20.8261,88.383,-0.00617155,0.0,0.0
938,234.25,34.1727,36.0896,155.424,99.4604,99.616,0.00705446,0.161761,20.8263,88.2929,-0.0141624,0.0,0.0
945,236,34.1307,36.189,155.611,99.4604,99.6436,0.00734733,0.160569,20.826,88.1728,-0.0166702,0.0,0.0
952,237.75,35.1067,35.8918,154.987,99.4583,99.5973,0.0077196,0.159041,20.8259,88.1028,-0.0126484,0.0,0.0
959,239.5,34.3399,35.9499,158.265,99.447,99.6342,0.00816124,0.157615,20.8281,88.0427,-0.0170342,0.0,0.0
966,241.25,33.7096,35.6709,157.517,99.4414,99.5782,0.00853596,0.157343,20.8289,87.9326,-0.0124554,0.0,0.0
973,243,34.1624,35.5364,155.828,99.4406,99.6482,0.00875922,0.15822,20.8293,87.8525,-0.0188952,0.0,0.0
980,244.75,33.9503,35.3338,157.662,99.4228,99.5464,0.00871401,0.159784,20.8295,87.7424,-0.0112504,0.0,0.0
987,246.5,33.7738,35.0851,154.845,99.4128,99.4985,0.00849519,0.161112,20.8287,87.6624,-0.00780547,0.0,0.0
994,248.25,34.0084,35.5195,155.595,99.3849,99.5205,0.00817124,0.161669,20.828,87.5422,-0.0123506,0.0,0.0
1001,250,34.1712,35.5528,154.186,99.3829,99.49,0.00784176,0.160651,20.8271,87.4722,-0.0097537,0.0,0.0
1008,251.75,33.9325,35.2106,151.599,99.3652,99.521,0.00772948,0.160047,20.8266,87.3421,-0.0141916,0.0,0.0
1015,253.5,33.7914,35.0682,155.501,99.3405,99.4437,0.00785108,0.15922,20.8274,87.262,-0.00940401,0.0,0.0
1022,255.25,33.6001,35.324,152.628,99.3034,99.4403,0.00799762,0.157047,20.8282,87.1819,-0.0124798,0.0,0.0
1029,257,33.4776,34.9744,157.652,99.2909,99.3954,0.00813342,0.155921,20.8294,87.0618,-0.00952292,0.0,0.0
1036,258.75,33.7754,35.5561,157.617,99.2748,99.4098,0.0081815,0.156953,20.8317,86.9717,-0.0123095,0.0,0.0
1043,260.5,33.7249,35.2214,160.515,99.2578,99.3822,0.00801048,0.15769,20.833,86.9117,-0.0113423,0.0,0.0
1050,262.25,31.6424,35.2425,159.552,99.2413,99.3733,0.00782643,0.156864,20.8336,86.8216,-0.0120397,0.0,0.0
1057,264,33.4515,35.0988,153.132,99.2131,99.2939,0.00779501,0.156492,20.8339,86.6914,-0.00738183,0.0,0.0
1064,265.75,33.7312,34.6664,154.749,99.2005,99.3287,0.00789495,0.157639,20.834,86.5813,-0.011698,0.0,0.0
1071,267.5,33.6957,34.8447,155.479,99.2034,99.3211,0.00800952,0.159005,20.8333,86.4612,-0.0107439,0.0,0.0
1078,269.25,34.0479,34.9542,152.719,99.1755,99.26,0.00803777,0.159572,20.8321,86.3912,-0.00771145,0.0,0.0
1085,271,33.3836,34.8188,154.134,99.155,99.3287,0.00796922,0.159912,20.8307,86.3211,-0.0158616,0.0,0.0
1092,272.75,33.4842,34.1861,154.175,99.1493,99.2256,0.00776561,0.1598,20.83,86.211,-0.0069701,0.0,0.0
1099,274.5,33.7109,35.0058,155.203,99.1501,99.2855,0.0074831,0.160221,20.8297,86.1109,-0.0123565,0.0,0.0
1106,276.25,33.7208,34.8382,154.788,99.1453,99.3326,0.00730989,0.160915,20.8296,86.0308,-0.0170937,0.0,0.0
1113,278,33.5515,34.7247,154.126,99.1178,99.2439,0.00719753,0.161393,20.8291,85.8807,-0.011511,0.0,0.0
1120,279.75,33.7049,35.0767,155.127,99.1259,99.2121,0.00708473,0.16137,20.828,85.8006,-0.00786815,0.0,0.0
1127,281.5,32.9415,34.755,156.3,99.117,99.2307,0.00703878,0.160058,20.8276,85.6805,-0.0103839,0.0,0.0
1134,283.25,33.4778,34.6255,156.553,99.1247,99.1904,0.00724229,0.159107,20.8278,85.6104,-0.00600353,0.0,0.0
1141,285,33.3766,34.7125,155.334,99.1069,99.1586,0.00754142,0.158765,20.8288,85.4903,-0.00471942,0.0,0.0
1148,286.75,33.2124,34.7682,157.088,99.1166,99.2307,0.00774193,0.15902,20.8293,85.4403,-0.0104207,0.0,0.0
1155,288.5,33.6686,34.6701,155.615,99.1162,99.1387,0.00788727,0.158223,20.8296,85.3602,-0.00204916,0.0,0.0
1162,290.25,33.7518,34.3783,153.738,99.1138,99.2256,0.00787717,0.157697,20.8308,85.2701,-0.0102147,0.0,0.0
1169,292,32.9921,34.8493,157.775,99.09,99.2125,0.00790279,0.158307,20.8315,85.19,-0.0111888,0.0,0.0
1176,293.75,33.7836,34.6148,152.513,99.1017,99.2295,0.00805844,0.158496,20.8314,85.0899,-0.0116688,0.0,0.0
1183,295.5,33.7357,34.2599,150.755,99.1049,99.2278,0.00824234,0.158227,20.8307,84.9798,-0.0112191,0.0,0.0
1190,297.25,33.5973,34.8366,153.951,99.1005,99.3572,0.00835784,0.158304,20.8302,84.9098,-0.0234307,0.0,0.0
1197,299,33.6759,34.4426,154.887,99.0892,99.201,0.00828591,0.158327,20.83,84.8397,-0.0102164,0.0,0.0
1204,300.75,34.0812,34.7873,159.106,99.0892,99.2104,0.00822831,0.158457,20.8299,84.7296,-0.0110688,0.0,0.0
1211,302.5,33.6995,35.5977,152.699,99.0775,99.2299,0.00826101,0.159724,20.8299,84.6195,-0.0139207,0.0,0.0
1218,304.25,33.5115,34.2783,152.541,99.0751,99.2108,0.00831868,0.160434,20.8299,84.5394,-0.0123981,0.0,0.0
1225,306,33.7051,34.651,150.372,99.0932,99.3309,0.00824502,0.160447,20.8292,84.4493,-0.0216949,0.0,0.0
1232,307.75,33.6728,35.1709,152.26,99.0803,99.246,0.00799082,0.160873,20.8282,84.3392,-0.0151342,0.0,0.0
1239,309.5,33.6479,34.7683,153.549,99.0642,99.2464,0.00771328,0.161137,20.8267,84.2391,-0.0166486,0.0,0.0
1246,311.25,33.6017,34.8409,154.723,99.0835,99.1611,0.00771001,0.161285,20.826,84.119,-0.00709059,0.0,0.0
1253,313,33.8653,34.5279,154.471,99.0856,99.1722,0.00781931,0.161818,20.8254,84.0389,-0.00791354,0.0,0.0
1260,314.75,33.7031,34.7301,151.714,99.0856,99.2558,0.00784589,0.162449,20.825,83.9389,-0.0155447,0.0,0.0
1267,316.5,32.504,34.8798,154.433,99.0787,99.1679,0.00770126,0.163414,20.8247,83.8688,-0.00815293,0.0,0.0
1274,318.25,33.107,34.642,155.36,99.0803,99.2935,0.00745237,0.164045,20.8235,83.7787,-0.0194703,0.0,0.0
1281,320,33.5279,34.8486,155.539,99.0811,99.2036,0.00728439,0.16375,20.8228,83.6986,-0.0111872,0.0,0.0
1288,321.75,33.624,34.9943,152.796,99.0779,99.1951,0.00721207,0.163868,20.8225,83.5685,-0.0107066,0.0,0.0
1295,323.5,35.3715,34.7381,152.73,99.0618,99.3262,0.0070749,0.164634,20.8226,83.4584,-0.0241463,0.0,0.0
1302,325.25,33.7476,35.6171,158.466,99.0585,99.2409,0.00674382,0.165233,20.8228,83.4084,-0.016661,0.0,0.0
1309,327,33.6458,34.4244,161.81,99.0642,99.2053,0.00636581,0.165822,20.8229,83.3083,-0.0128907,0.0,0.0
1316,328.75,33.3467,34.8888,155.588,99.0545,99.1514,0.00600968,0.16633,20.8218,83.2082,-0.00885492,0.0,0.0
1323,330.5,33.773,34.5351,154.196,99.0408,99.103,0.00568654,0.166097,20.8208,83.1381,-0.0056891,0.0,0.0
1330,332.25,33.6178,35.4635,151.897,99.0279,99.1662,0.00553469,0.165787,20.8204,83.038,-0.0126468,0.0,0.0
1337,334,34.6881,34.5843,151.455,99.0444,99.2838,0.00551947,0.165804,20.8202,82.9379,-0.0218632,0.0,0.0
1344,335.75,33.5612,34.6696,153.177,99.0912,99.3262,0.00556777,0.165746,20.8201,82.8578,-0.0214541,0.0,0.0
1351,337.5,33.7673,34.4736,153.324,99.136,99.2918,0.00564743,0.165679,20.8201,82.7978,-0.0142262,0.0,0.0
1358,339.25,33.612,34.8889,150.405,99.1646,99.4136,0.00579261,0.166222,20.82,82.7177,-0.0227118,0.0,0.0
1365,341,33.9878,33.3399,156.708,99.1985,99.4136,0.00591074,0.167327,20.8192,82.6577,-0.0196169,0.0,0.0
1372,342.75,34.1632,34.7579,153.267,99.2445,99.42,0.00588845,0.167898,20.8184,82.5976,-0.015999,0.0,0.0
1379,344.5,33.9555,34.4509,148.332,99.2768,99.4323,0.00573664,0.167949,20.818,82.4675,-0.0141743,0.0,0.0
1386,346.25,33.7894,34.5469,157.349,99.3111,99.5095,0.00555296,0.168218,20.8178,82.3474,-0.0180777,0.0,0.0
1393,348,34.143,34.679,157.736,99.343,99.5557,0.00532101,0.168664,20.8178,82.2973,-0.0193799,0.0,0.0
1400,349.75,34.1132,35.2513,156.34,99.3962,99.5316,0.0050916,0.168863,20.8177,82.2072,-0.0123251,0.0,0.0
1407,351.5,34.1638,35.0941,155.005,99.4543,99.6453,0.00484298,0.168762,20.8179,82.1272,-0.0173755,0.0,0.0
1414,353.25,33.9738,34.8652,153.47,99.5011,99.6762,0.00462323,0.168511,20.8175,82.0371,-0.0159292,0.0,0.0
1421,355,33.9767,34.984,155.452,99.5531,99.8078,0.00452012,0.168159,20.8168,81.947,-0.0231384,0.0,0.0
1428,356.75,33.7544,34.9335,151.518,99.5971,99.8693,0.00449663,0.168164,20.8163,81.8869,-0.0247201,0.0,0.0
1435,358.5,34.2547,35.0737,153.381,99.6589,99.8269,0.00453298,0.168408,20.816,81.7268,-0.015258,0.0,0.0
1442,360.25,33.9806,35.343,155.418,99.6859,99.8511,0.00459038,0.169082,20.817,81.6867,-0.0149963,0.0,0.0
1449,362,34.1666,34.957,156.693,99.7125,99.9003,0.0045514,0.170038,20.8166,81.5866,-0.0170413,0.0,0.0
1456,363.75,33.938,34.8791,160.432,99.7339,99.8324,0.00445852,0.170594,20.8162,81.5166,-0.00894139,0.0,0.0
1463,365.5,34.0216,34.8995,152.132,99.7524,99.896,0.00444725,0.170721,20.816,81.3764,-0.0130291,0.0,0.0
1470,367.25,34.2558,35.1907,152.132,99.769,99.9563,0.00452119,0.170942,20.8163,81.3064,-0.0169882,0.0,0.0
1477,369,34.1991,34.9188,154.559,99.7706,99.9491,0.00455846,0.171232,20.8165,81.2163,-0.0161883,0.0,0.0
1484,370.75,34.2991,35.2174,153.022,99.7593,99.9724,0.00455338,0.172263,20.8166,81.1162,-0.0193291,0.0,0.0
1491,372.5,34.375,35.0539,151.24,99.769,99.9762,0.00451186,0.17354,20.8156,81.0461,-0.0187956,0.0,0.0
1498,374.25,34.3066,35.0232,157.815,99.7766,99.9775,0.00442552,0.173959,20.8137,80.8259,-0.0182151,0.0,0.0
1505,376,34.8623,35.1753,154.746,99.7771,99.9228,0.00429987,0.17447,20.8124,80.7559,-0.0132178,0.0,0.0
1512,377.75,34.6228,35.2971,152.186,99.7678,99.8799,0.00429322,0.175963,20.8118,80.7258,-0.0101747,0.0,0.0
1519,379.5,34.709,35.2583,158.166,99.7694,99.9465,0.00437404,0.177125,20.8102,80.6658,-0.0160677,0.0,0.0
1526,381.25,34.5806,35.2489,153.328,99.7779,99.9673,0.00441481,0.177885,20.8083,80.5657,-0.0171819,0.0,0.0
1533,383,34.4317,35.0654,151.461,99.7609,99.8965,0.00449691,0.178869,20.8074,80.4856,-0.0122981,0.0,0.0
1540,384.75,34.5942,35.1737,152.897,99.7561,99.9143,0.0045844,0.179325,20.8065,80.4556,-0.0143538,0.0,0.0
1547,386.5,34.49,34.9898,152.164,99.7407,99.9003,0.00463132,0.180804,20.8053,80.2954,-0.0144755,0.0,0.0
1554,388.25,34.3289,35.6126,153.657,99.7569,99.9363,0.00458904,0.182952,20.8043,80.1953,-0.0162802,0.0,0.0
1561,390,35.0818,35.9438,156.542,99.7581,99.9202,0.00449316,0.185255,20.8024,80.1653,-0.014708,0.0,0.0
1568,391.75,34.9529,35.6615,155.279,99.7541,99.7976,0.00449806,0.187284,20.7987,80.0752,-0.00395186,0.0,0.0
1575,393.5,35.1778,35.8111,150.404,99.7383,99.8532,0.00464098,0.189206,20.7952,79.9751,-0.0104239,0.0,0.0
1582,395.25,34.8228,35.5871,155.669,99.7528,99.9172,0.00466917,0.189886,20.7933,79.855,-0.0149157,0.0,0.0
1589,397,35.033,35.7746,155.031,99.7557,100.018,0.00451877,0.189297,20.7924,79.825,-0.0237706,0.0,0.0
1596,398.75,35.1426,35.5292,150.446,99.7621,99.8752,0.00430191,0.189567,20.7924,79.7049,-0.0102639,0.0,0.0
1603,400.5,35.1556,35.3361,153.733,99.7609,99.8646,0.00419214,0.191603,20.7916,79.6148,-0.00941212,0.0,0.0
1610,402.25,35.3054,35.6994,154.184,99.7533,99.8095,0.00404115,0.193713,20.7907,79.5347,-0.0051035,0.0,0.0
1617,404,35.4145,35.6491,154.601,99.7678,99.8281,0.00396324,0.195894,20.7892,79.4446,-0.00547895,0.0,0.0
1624,405.75,35.7372,35.9177,153.08,99.7686,99.8065,0.00399343,0.197836,20.7869,79.3545,-0.00344198,0.0,0.0
1631,407.5,35.7144,35.8874,150.637,99.7742,99.8549,0.00400379,0.199611,20.7846,79.2144,-0.00731807,0.0,0.0
1638,409.25,36.0528,36.6209,152.817,99.752,99.8735,0.00385804,0.201042,20.7823,79.0843,-0.0110261,0.0,0.0
1645,411,35.617,36.244,152.864,99.7565,99.714,0.00367734,0.202317,20.7798,79.0042,0.00385731,0.0,0.0
1652,412.75,35.9413,36.4585,149.079,99.7428,99.7908,0.00350313,0.203077,20.7785,78.9241,-0.00436183,0.0,0.0
1659,414.5,36.5078,36.7092,154.829,99.7528,99.8273,0.00331739,0.204097,20.777,78.784,-0.00675776,0.0,0.0
1666,416.25,36.1418,36.2831,151.644,99.7234,99.6902,0.00316486,0.205733,20.776,78.6339,0.00301107,0.0,0.0
1673,418,35.5469,36.6652,152.365,99.7125,99.8052,0.00303992,0.206974,20.7753,78.5238,-0.00841935,0.0,0.0
1680,419.75,36.0318,36.6615,150.357,99.6814,99.7577,0.00293946,0.207684,20.7739,78.4137,-0.00692742,0.0,0.0
1687,421.5,36.4058,36.3697,151.797,99.648,99.5545,0.00285149,0.208459,20.773,78.3736,0.00850269,0.0,0.0
1694,423.25,36.5642,36.8931,155.256,99.6246,99.5591,0.00271589,0.209312,20.7718,78.2135,0.00594991,0.0,0.0
1701,425,37.2904,36.8594,150.383,99.581,99.5494,0.00259314,0.209983,20.7703,78.1534,0.00287614,0.0,0.0
1708,426.75,36.8171,37.3562,152.663,99.5334,99.4221,0.00254213,0.210787,20.7695,78.0533,0.0101337,0.0,0.0
1715,428.5,36.5043,37.0601,153.956,99.5055,99.344,0.00257082,0.212765,20.7691,77.9332,0.0147165,0.0,0.0
1722,430.25,36.9422,37.8835,155.747,99.3974,99.355,0.00266763,0.214589,20.7685,77.743,0.00386271,0.0,0.0
1729,432,37.0706,36.8633,151.406,99.3652,99.229,0.00266739,0.216304,20.7672,77.663,0.0124168,0.0,0.0
1736,433.75,37.2764,37.0406,148.976,99.3123,99.2452,0.00254662,0.217457,20.7656,77.5529,0.0061258,0.0,0.0
1743,435.5,37.7775,37.5208,154.363,99.2655,99.1947,0.00244304,0.218937,20.764,77.4728,0.00646678,0.0,0.0
1750,437.25,37.4373,37.9146,149.086,99.2118,99.0559,0.00243466,0.219987,20.7629,77.3427,0.0142476,0.0,0.0
1757,439,37.8459,37.9494,153.282,99.1404,99.0402,0.00247291,0.221104,20.7615,77.2225,0.0091618,0.0,0.0
1764,440.75,37.6049,37.5749,147.967,99.0698,98.8438,0.00252105,0.222408,20.7597,77.0624,0.0206934,0.0,0.0
1771,442.5,37.2839,36.545,152.371,99.0126,98.8013,0.00254879,0.224085,20.7579,76.9723,0.0193434,0.0,0.0
1778,444.25,37.9239,38.0965,153.57,99.0198,98.7555,0.00256997,0.225569,20.7568,76.8622,0.0242092,0.0,0.0
1785,446,37.7881,37.6906,146.006,99.0368,98.7644,0.00260092,0.22708,20.7557,76.7621,0.0249425,0.0,0.0
1792,447.75,37.88,38.7321,150.213,99.0573,98.7207,0.00265647,0.22816,20.7552,76.692,0.030833,0.0,0.0
1799,449.5,38.1404,38.3009,152.928,99.0912,98.7716,0.00274969,0.230572,20.7543,76.5419,0.0292607,0.0,0.0
1806,451.25,38.2358,38.3468,149.024,99.1247,98.5756,0.00282524,0.23312,20.7531,76.4018,0.0503159,0.0,0.0
1813,453,38.5342,38.0857,147.303,99.1743,98.652,0.00289682,0.235554,20.7503,76.3117,0.047834,0.0,0.0
1820,454.75,38.5199,38.7118,154.438,99.1957,98.6545,0.00300725,0.238083,20.7472,76.1716,0.0495524,0.0,0.0
1827,456.5,39.1571,38.7688,153.311,99.2562,98.862,0.00307674,0.239274,20.7454,76.0314,0.0360465,0.0,0.0
1834,458.25,38.8451,38.9276,150.723,99.303,98.6346,0.00298756,0.240316,20.7434,75.8813,0.0611786,0.0,0.0
1841,460,39.3575,39.4369,149.523,99.3438,98.6367,0.00284229,0.241385,20.7417,75.7812,0.064699,0.0,0.0
1848,461.75,39.4542,39.3627,149.001,99.3809,98.7818,0.00267282,0.242588,20.7403,75.6511,0.0547669,0.0,0.0
1855,463.5,39.1474,39.3138,153.154,99.3902,98.6583,0.00259655,0.244326,20.7384,75.541,0.0669416,0.0,0.0
1862,465.25,39.4374,39.5887,149.123,99.4394,98.6779,0.00259461,0.245616,20.7371,75.3808,0.0696348,0.0,0.0
1869,467,40.2919,39.7992,148.05,99.4757,98.6193,0.00260686,0.247447,20.7356,75.2507,0.0783175,0.0,0.0
1876,468.75,39.6912,39.0063,150.945,99.5112,98.6651,0.00259625,0.249639,20.7329,75.1206,0.0773412,0.0,0.0
1883,470.5,39.7737,39.5684,146.046,99.531,98.5608,0.00254353,0.251837,20.7298,75.0005,0.0887286,0.0,0.0
1890,472.25,39.8287,39.5515,151.544,99.5515,98.9134,0.00254133,0.253303,20.7269,74.8603,0.0582544,0.0,0.0
1897,474,39.9508,40.4884,149.762,99.5794,98.8705,0.00257636,0.254473,20.7242,74.7202,0.0647119,0.0,0.0
1904,475.75,39.9293,40.6001,148.946,99.6044,98.6919,0.00258687,0.256665,20.7218,74.56,0.0833668,0.0,0.0
1911,477.5,40.4514,40.7837,147.079,99.6242,98.9172,0.002635,0.259544,20.72,74.4299,0.0645093,0.0,0.0
1918,479.25,40.535,40.6323,145.78,99.6367,98.3991,0.00272615,0.262098,20.7171,74.2998,0.113212,0.0,0.0
1925,481,40.601,40.625,155.069,99.6589,98.7169,0.00276243,0.26387,20.7136,74.1497,0.0860208,0.0,0.0
1932,482.75,41.2532,41.1081,148.898,99.6782,98.5523,0.00278393,0.265505,20.7105,73.9995,0.102899,0.0,0.0
1939,484.5,40.8364,40.8649,149.994,99.6895,98.6936,0.00286187,0.267067,20.7088,73.8294,0.0909493,0.0,0.0
1946,486.25,40.9299,40.9449,146.328,99.6879,98.624,0.00293072,0.268219,20.7068,73.6992,0.0971912,0.0,0.0
1953,488,41.1988,41.2885,149.797,99.6915,98.6448,0.00297275,0.269796,20.7046,73.489,0.0956122,0.0,0.0
1960,489.75,41.1782,40.9433,152.525,99.7137,98.5077,0.00299159,0.271312,20.7036,73.399,0.110221,0.0,0.0
1967,491.5,41.1542,41.2156,151.05,99.7097,98.5803,0.00299007,0.273192,20.7023,73.2588,0.103185,0.0,0.0
1974,493.25,41.442,41.6648,147.125,99.7266,98.324,0.00291537,0.275319,20.7021,73.1287,0.128303,0.0,0.0
1981,495,41.4846,41.7972,147.664,99.7206,98.3261,0.00286663,0.276933,20.6998,72.9185,0.127557,0.0,0.0
1988,496.75,41.8499,41.8245,149.8,99.7452,98.3045,0.00289469,0.277557,20.697,72.8484,0.131787,0.0,0.0
1995,498.5,41.4972,42.2134,143.835,99.7432,98.2871,0.00293571,0.278588,20.6956,72.6983,0.133206,0.0,0.0
2002,500.25,41.7569,42.05,151.339,99.7533,98.5998,0.00296191,0.279297,20.6949,72.5381,0.105349,0.0,0.0
2009,502,41.8252,42.1406,147.165,99.7444,98.2018,0.00303092,0.280531,20.6946,72.378,0.14118,0.0,0.0
2016,503.75,41.9313,42.6009,146.314,99.7516,98.1326,0.00314087,0.283843,20.6933,72.2279,0.148221,0.0,0.0
2023,505.5,42.1729,42.6198,148.697,99.7512,98.3728,0.00320785,0.288556,20.6908,72.0777,0.126044,0.0,0.0
2030,507.25,42.4524,42.9858,144.068,99.7553,98.0168,0.00313533,0.29123,20.6854,71.9376,0.159249,0.0,0.0
2037,509,42.2377,42.9909,153.583,99.7545,98.4963,0.00304011,0.291868,20.6809,71.8275,0.114974,0.0,0.0
2044,510.75,42.4169,42.8711,152.601,99.746,98.1763,0.00303353,0.293006,20.6784,71.6173,0.143674,0.0,0.0
2051,512.5,42.705,43.0815,147.857,99.7504,98.041,0.00307445,0.295132,20.6764,71.4872,0.156574,0.0,0.0
2058,514.25,42.5187,43.3045,149.354,99.7553,98.0508,0.00309836,0.296633,20.6754,71.337,0.156112,0.0,0.0
2065,516,42.724,43.2916,147.66,99.7432,98.066,0.00318904,0.298192,20.6723,71.1869,0.153602,0.0,0.0
2072,517.75,43.0467,43.3066,151.9,99.7508,98.0041,0.00333321,0.29915,20.6698,71.0167,0.160021,0.0,0.0
2079,519.5,42.6912,43.6232,150.056,99.7484,98.1768,0.00342651,0.299327,20.6672,70.8766,0.143855,0.0,0.0
2086,521.25,42.5019,43.4938,146.607,99.7504,97.7461,0.00349927,0.299112,20.6659,70.7164,0.183859,0.0,0.0
2093,523,42.8146,43.6883,149.44,99.744,97.842,0.00355417,0.298084,20.6653,70.5763,0.174392,0.0,0.0
2100,524.75,43.1273,43.6708,146.015,99.7424,98.0817,0.00360252,0.297247,20.6661,70.4262,0.152078,0.0,0.0
2107,526.5,42.8158,43.8341,149.872,99.7299,97.8675,0.00356856,0.296641,20.6672,70.276,0.170752,0.0,0.0
2114,528.25,42.9562,43.5714,145.54,99.7335,98.1085,0.00348913,0.296985,20.6684,70.1059,0.148804,0.0,0.0
2121,530,43.1486,43.9802,146.48,99.7274,97.9561,0.00350346,0.296459,20.6689,69.9457,0.16233,0.0,0.0
2128,531.75,43.2022,44.277,148.104,99.7157,97.8781,0.00363259,0.295541,20.6692,69.7756,0.168488,0.0,0.0
2135,533.5,43.5521,44.188,146.76,99.7137,97.8649,0.00376492,0.294791,20.6693,69.6254,0.169522,0.0,0.0
2142,535.25,43.2194,44.0883,151.571,99.7097,98.0465,0.00362049,0.293784,20.6703,69.4753,0.152364,0.0,0.0
2149,537,43.2404,44.4853,153.29,99.7137,97.8866,0.00340173,0.293086,20.6706,69.3251,0.16752,0.0,0.0
2156,538.75,43.5191,44.5683,149.466,99.6883,97.9595,0.00331797,0.292918,20.6718,69.165,0.158461,0.0,0.0
2163,540.5,43.4087,44.2998,149.491,99.6726,98.021,0.00342547,0.292716,20.6727,69.0549,0.151343,0.0,0.0
2170,542.25,43.5544,44.6558,146.229,99.6592,98.1191,0.00351356,0.291274,20.6731,68.8547,0.141081,0.0,0.0
2177,544,43.6814,44.6275,146.711,99.6467,98.0805,0.00351417,0.289492,20.6745,68.7346,0.14351,0.0,0.0
2184,545.75,43.4585,44.9046,154.637,99.6383,98.0635,0.00346784,0.287851,20.6762,68.5744,0.144307,0.0,0.0
2191,547.5,43.5207,44.6058,149.62,99.6254,98.1195,0.00336499,0.286831,20.6776,68.4543,0.137961,0.0,0.0
2198,549.25,43.5464,44.515,153.599,99.6036,98.1034,0.00323614,0.286187,20.6793,68.3142,0.137469,0.0,0.0
2205,551,43.2555,44.5616,152.3,99.5931,98.0966,0.00317214,0.285262,20.6804,68.2141,0.137141,0.0,0.0
2212,552.75,43.5769,44.6931,151.37,99.5838,97.8972,0.00322131,0.283639,20.6814,68.074,0.15473,0.0,0.0
2219,554.5,43.6087,44.6191,145.18,99.5725,97.8815,0.00335016,0.281206,20.6826,67.9538,0.155156,0.0,0.0
2226,556.25,43.5316,44.533,148.34,99.5536,98.1322,0.00341191,0.279723,20.6837,67.7737,0.130254,0.0,0.0
2233,558,43.3125,44.7691,152.786,99.5628,98.3448,0.00331592,0.2777,20.6862,67.6836,0.111498,0.0,0.0
2240,559.75,43.0566,44.8267,151.109,99.535,98.1309,0.00314398,0.276691,20.6886,67.5334,0.128684,0.0,0.0
2247,561.5,43.5843,44.7169,149.263,99.5253,97.8221,0.00305812,0.276833,20.6896,67.4333,0.156359,0.0,0.0
2254,563.25,43.4968,44.5399,152.403,99.512,98.0287,0.00308258,0.277373,20.6898,67.2632,0.136035,0.0,0.0
2261,565,43.4922,44.9158,145.861,99.4878,98.1687,0.00311305,0.277043,20.6899,67.1431,0.120902,0.0,0.0
2268,566.75,43.1816,44.7518,148.053,99.4979,98.0635,0.00310895,0.275382,20.6899,67.023,0.131534,0.0,0.0
2275,568.5,43.3166,44.7733,149.931,99.4801,98.0877,0.00309396,0.273715,20.6906,66.8728,0.127684,0.0,0.0
2282,570.25,43.1218,44.7129,149.139,99.4511,97.9349,0.00302752,0.273274,20.692,66.7627,0.139155,0.0,0.0
2289,572,43.464,44.5924,149.073,99.4265,98.167,0.00287656,0.272596,20.6934,66.6526,0.115473,0.0,0.0
2296,573.75,43.5178,44.6848,156.637,99.4301,98.0058,0.00272466,0.271498,20.6945,66.5125,0.130693,0.0,0.0
2303,575.5,43.209,45.1445,152.132,99.42,98.0164,0.00269379,0.271406,20.6958,66.3924,0.128794,0.0,0.0
2310,577.25,43.2592,44.8158,154.131,99.4115,97.9269,0.00284922,0.271376,20.6968,66.2522,0.1363,0.0,0.0
2317,579,43.0571,45.4909,148.027,99.3978,98.0605,0.003027,0.270899,20.6977,66.1021,0.122696,0.0,0.0
2324,580.75,43.4228,44.5467,148.099,99.3829,97.9264,0.003163,0.269481,20.6981,65.992,0.133728,0.0,0.0
2331,582.5,43.3022,44.8348,153.315,99.3748,97.9264,0.00315862,0.268487,20.6983,65.8519,0.132993,0.0,0.0
2338,584.25,43.1392,44.784,149.137,99.3712,97.9697,0.00313352,0.268138,20.6988,65.7318,0.12866,0.0,0.0
2345,586,43.4569,44.7567,146.384,99.3534,97.9404,0.00311162,0.266868,20.7015,65.6216,0.129748,0.0,0.0
2352,587.75,43.1001,44.7911,150.017,99.351,97.8683,0.00310183,0.266645,20.7032,65.4715,0.136202,0.0,0.0
2359,589.5,43.4617,44.9227,148.859,99.3365,97.5908,0.0031033,0.267076,20.7039,65.3214,0.160596,0.0,0.0
2366,591.25,43.1692,44.4304,150.897,99.3264,97.326,0.00304992,0.266785,20.7047,65.2313,0.184284,0.0,0.0
2373,593,43.2591,44.6813,158.627,99.3236,97.9409,0.00298013,0.266451,20.7052,65.0911,0.126988,0.0,0.0
2380,594.75,43.3863,44.5132,153.315,99.2982,97.7457,0.00295395,0.264955,20.7059,64.981,0.142739,0.0,0.0
2387,596.5,43.4042,44.8084,149.137,99.303,97.8768,0.00298314,0.263046,20.707,64.8509,0.131038,0.0,0.0
2394,598.25,43.5891,44.389,152.19,99.2917,97.9277,0.00299565,0.262414,20.7088,64.7108,0.125298,0.0,0.0
2401,600,42.8948,45.1306,148.972,99.28,97.8013,0.0029175,0.26232,20.7108,64.6107,0.135932,0.0,0.0
2408,601.75,42.905,44.9725,148.14,99.2651,97.951,0.00283464,0.262147,20.7117,64.5006,0.12071,0.0,0.0
2415,603.5,43.1602,44.6977,150.051,99.253,97.4937,0.00280739,0.262137,20.712,64.3805,0.162002,0.0,0.0
2422,605.25,43.2565,44.415,149.752,99.257,97.6973,0.00284947,0.261186,20.712,64.2704,0.143467,0.0,0.0
2429,607,43.0716,44.7092,151.433,99.2546,97.8445,0.00286086,0.259947,20.7124,64.1302,0.129607,0.0,0.0
2436,608.75,43.0318,44.8588,146.955,99.2292,97.6299,0.00281356,0.259132,20.7126,64.0201,0.147184,0.0,0.0
2443,610.5,42.8846,44.7149,151.261,99.2252,97.6829,0.00282584,0.257324,20.7134,63.9,0.141896,0.0,0.0
2450,612.25,42.804,44.5778,148.977,99.2219,97.5242,0.00294542,0.254321,20.715,63.7999,0.156328,0.0,0.0
2457,614,42.9267,44.6168,148.779,99.2171,97.7168,0.00314704,0.251656,20.7176,63.6998,0.138012,0.0,0.0
2464,615.75,42.2734,44.5807,151.973,99.228,97.94,0.00329784,0.248669,20.7201,63.6098,0.118342,0.0,0.0
2471,617.5,42.5236,44.3453,150.536,99.1828,97.6587,0.00329197,0.245669,20.7217,63.5297,0.140272,0.0,0.0
2478,619.25,41.7962,44.6578,154.807,99.1788,97.8815,0.00322413,0.243112,20.7251,63.4296,0.119266,0.0,0.0
2485,621,42.104,43.7367,146.972,99.1876,97.6926,0.0031801,0.240162,20.7271,63.3795,0.137565,0.0,0.0
2492,622.75,42.2061,43.9434,151.936,99.1784,97.1686,0.00317532,0.235696,20.7292,63.2895,0.185435,0.0,0.0
2499,624.5,42.1388,44.1298,151.885,99.1735,97.632,0.00324546,0.230588,20.7337,63.2094,0.141902,0.0,0.0
2506,626.25,41.9253,43.4971,153.26,99.1687,97.9833,0.00334974,0.225548,20.738,63.1293,0.108925,0.0,0.0
2513,628,41.8311,43.1358,155.353,99.1796,97.2717,0.0035005,0.220925,20.7435,63.0592,0.175939,0.0,0.0
2520,629.75,41.4215,43.1688,154.075,99.1844,98.2824,0.00361644,0.216135,20.7472,62.9992,0.0827515,0.0,0.0
2527,631.5,40.923,42.8669,156.133,99.1816,97.8598,0.00378561,0.211436,20.7525,62.9792,0.121526,0.0,0.0
2534,633.25,40.4009,42.7221,154.51,99.1767,97.8955,0.00411125,0.205347,20.7579,62.9191,0.117784,0.0,0.0
2541,635,40.4247,42.5084,154.146,99.1889,98.1844,0.00447706,0.199147,20.7625,62.839,0.0921946,0.0,0.0
2548,636.75,40.3708,41.8506,161.648,99.1872,98.5434,0.00492681,0.193157,20.7688,62.789,0.0589914,0.0,0.0
2555,638.5,39.8727,42.3895,156.335,99.2001,98.2404,0.00537661,0.185061,20.7756,62.7489,0.0880592,0.0,0.0
2562,640.25,39.8069,42.2102,151.937,99.205,98.6431,0.00565356,0.177859,20.7812,62.6889,0.0514519,0.0,0.0
2569,642,39.3081,41.9579,155.807,99.188,98.5468,0.00575659,0.173317,20.7905,62.6489,0.0587533,0.0,0.0
2576,643.75,38.8415,41.7274,157.02,99.1957,98.8667,0.00588227,0.170894,20.7977,62.5888,0.0300959,0.0,0.0
2583,645.5,38.7432,41.5887,152.334,99.1876,98.8624,0.00614883,0.168128,20.8022,62.5588,0.0297472,0.0,0.0
2590,647.25,39.0155,41.1111,156.314,99.1812,98.8921,0.00657368,0.165254,20.8053,62.5287,0.026437,0.0,0.0
2597,649,38.5182,41.2164,158.496,99.1691,99.008,0.00711456,0.162172,20.8088,62.4787,0.0147273,0.0,0.0
2604,650.75,38.0112,40.7885,154.696,99.1655,99.0916,0.00756467,0.159461,20.812,62.4487,0.00675164,0.0,0.0
2611,652.5,37.3783,40.3805,154.074,99.1695,98.9834,0.00795481,0.155823,20.8143,62.4186,0.0170168,0.0,0.0
2618,654.25,37.7219,40.2304,153.802,99.163,98.9702,0.00820083,0.153608,20.8163,62.3686,0.0176311,0.0,0.0
2625,656,37.1936,39.9532,156.478,99.1513,99.1391,0.00841494,0.150611,20.8176,62.3185,0.00111969,0.0,0.0
2632,657.75,36.7885,39.8132,158.161,99.1586,99.3194,0.00868295,0.147622,20.8196,62.2985,-0.0146783,0.0,0.0
2639,659.5,36.6413,39.2225,157.03,99.1513,99.2396,0.00907273,0.144051,20.8237,62.2585,-0.00806431,0.0,0.0
2646,661.25,36.7284,39.4368,156.736,99.1517,99.3678,0.00953185,0.141652,20.8274,62.2285,-0.0197149,0.0,0.0
2653,663,36.7418,38.9361,163.443,99.1433,99.2906,0.00992033,0.138721,20.8315,62.2084,-0.013447,0.0,0.0
2660,664.75,35.8253,38.7565,158.902,99.1537,99.2893,0.0102379,0.136303,20.8342,62.0983,-0.0123733,0.0,0.0
2667,666.5,36.0132,38.5314,153.735,99.1336,99.2413,0.0104436,0.134202,20.8373,62.0983,-0.00984072,0.0,0.0
2674,668.25,35.6566,37.9087,153.538,99.1412,99.2053,0.0104024,0.132017,20.8404,62.0883,-0.00584793,0.0,0.0
2681,670,35.2156,38.1231,156.441,99.1364,99.2477,0.0103186,0.129446,20.8432,62.0483,-0.0101634,0.0,0.0
2688,671.75,34.7503,38.0283,158.38,99.1267,99.2553,0.0103978,0.127049,20.8461,62.0183,-0.0117456,0.0,0.0
2695,673.5,34.4914,37.7703,154.669,99.1291,99.1993,0.0106989,0.124697,20.8496,61.9382,-0.00641143,0.0,0.0
2702,675.25,34.3296,37.693,157.444,99.1336,99.2295,0.011117,0.122598,20.8523,61.8982,-0.00875656,0.0,0.0
2709,677,34.6205,36.9709,154.953,99.1235,99.2566,0.0116167,0.121071,20.855,61.9082,-0.0121565,0.0,0.0
2716,678.75,34.2658,36.6125,159.385,99.1211,99.2269,0.0121825,0.119327,20.8575,61.8681,-0.00966668,0.0,0.0
2723,680.5,34.2902,36.5722,154.011,99.1114,99.2439,0.0127211,0.118008,20.8593,61.8581,-0.0121008,0.0,0.0
2730,682.25,33.9537,36.3417,157.852,99.1182,99.2138,0.0130698,0.117157,20.8618,61.8081,-0.0087236,0.0,0.0
2737,684,31.8756,34.4992,157.827,99.1211,99.1836,0.013212,0.116625,20.8627,61.788,-0.00571503,0.0,0.0
2744,685.75,32.2493,34.438,155.477,99.1061,99.2227,0.0132741,0.116313,20.8632,61.768,-0.0106428,0.0,0.0
2751,687.5,31.2591,34.0494,158.351,99.0997,99.2889,0.0134166,0.115737,20.8642,61.738,-0.0172739,0.0,0.0
2758,689.25,31.2499,33.7575,155.556,99.092,99.1853,0.0137021,0.115113,20.8651,61.688,-0.00852473,0.0,0.0
2765,691,31.7097,33.8438,157.873,99.0948,99.2239,0.0140977,0.11428,20.8666,61.6279,-0.0117921,0.0,0.0
2772,692.75,31.1675,33.5266,159.706,99.0864,99.1989,0.0143723,0.113767,20.8675,61.6079,-0.0102807,0.0,0.0
2779,694.5,30.8031,33.2561,158.59,99.0852,99.1056,0.0146115,0.114045,20.8684,61.5879,-0.00186393,0.0,0.0
2786,696.25,30.8771,33.7095,156.376,99.069,99.2205,0.0148823,0.115031,20.8683,61.5678,-0.0138423,0.0,0.0
2793,698,31.2628,33.3977,158.152,99.0787,99.274,0.0151942,0.115725,20.8675,61.5378,-0.017837,0.0,0.0
2800,699.75,30.7478,32.7167,157.888,99.0799,99.2405,0.0153889,0.115602,20.8662,61.5278,-0.0146669,0.0,0.0
2807,701.5,30.7544,33.0755,157.956,99.071,99.2278,0.0154535,0.115063,20.8662,61.4878,-0.0143171,0.0,0.0
2814,703.25,30.8121,32.5443,153.924,99.0464,99.1344,0.0154569,0.114918,20.8661,61.4577,-0.00804215,0.0,0.0
2821,705,30.6324,32.2458,159.94,99.0517,99.1858,0.0154845,0.114625,20.8657,61.4277,-0.0122522,0.0,0.0
2828,706.75,30.2839,32.8079,155.643,99.0577,99.1522,0.0155238,0.113852,20.8666,61.4177,-0.00863713,0.0,0.0
2835,708.5,29.9317,32.1764,157.047,99.0533,99.1637,0.0156268,0.11285,20.8671,61.3877,-0.0100893,0.0,0.0
2842,710.25,30.4809,32.0178,153.505,99.0368,99.1319,0.0157465,0.11216,20.8686,61.3677,-0.00869442,0.0,0.0
2849,712,30.0469,31.4094,156.706,99.044,99.1594,0.0157422,0.111704,20.8693,61.2676,-0.0105509,0.0,0.0
2856,713.75,29.9218,31.9028,157.633,99.0755,99.1874,0.0157777,0.111398,20.8697,61.2475,-0.0102304,0.0,0.0
2863,715.5,30.0969,31.7263,157.31,99.0948,99.2507,0.0159424,0.111096,20.8698,61.2776,-0.0142322,0.0,0.0
2870,717.25,29.3659,31.6434,159.129,99.109,99.2452,0.0161427,0.110765,20.8699,61.2375,-0.0124381,0.0,0.0
2877,719,29.6606,31.3313,160.988,99.1291,99.2341,0.0163807,0.110468,20.8699,61.2075,-0.00958777,0.0,0.0
2884,720.75,29.6031,31.6525,157.301,99.1602,99.3436,0.0165342,0.10998,20.87,61.1875,-0.0167367,0.0,0.0
2891,722.5,29.7085,31.0852,156.523,99.1715,99.26,0.0165468,0.109566,20.87,61.1875,-0.00807998,0.0,0.0
2898,724.25,29.6904,30.7773,157.002,99.1852,99.2239,0.0164698,0.10976,20.8708,61.1274,-0.00353542,0.0,0.0
2905,726,29.1494,30.6203,157.753,99.2139,99.3652,0.0164799,0.109879,20.8709,61.1074,-0.0138098,0.0,0.0
2912,727.75,29.2143,30.9853,158.806,99.2106,99.3398,0.0165925,0.109825,20.8708,61.0874,-0.0117834,0.0,0.0
2919,729.5,28.9477,30.6392,155.098,99.2276,99.3338,0.0167403,0.109521,20.8707,61.0674,-0.00969425,0.0,0.0
2926,731.25,29.0095,30.2993,154.701,99.2623,99.4361,0.0167909,0.108827,20.8707,61.0474,-0.015847,0.0,0.0
2933,733,28.8861,31.2776,156.959,99.2756,99.3945,0.0168207,0.108153,20.8711,61.0273,-0.0108439,0.0,0.0
2940,734.75,28.7643,30.5239,157.475,99.2885,99.4717,0.0168731,0.10791,20.8721,60.9873,-0.016701,0.0,0.0
2947,736.5,29.0386,30.2968,158.219,99.3337,99.4467,0.0169024,0.107877,20.8728,60.9272,-0.0102996,0.0,0.0
2954,738.25,28.7523,30.5558,156.926,99.3434,99.4038,0.0168885,0.107634,20.8734,60.8972,-0.00551245,0.0,0.0
2961,740,28.7667,30.2275,155.377,99.3785,99.5655,0.0168659,0.107493,20.8736,60.8972,-0.0170315,0.0,0.0
2968,741.75,29.0388,30.1324,155.472,99.4087,99.5265,0.0169321,0.107575,20.8738,60.8772,-0.0107223,0.0,0.0
2975,743.5,28.7394,29.9919,158.605,99.4378,99.5481,0.0171426,0.107506,20.8738,60.8572,-0.010045,0.0,0.0
2982,745.25,28.7698,29.9211,160.092,99.4761,99.6529,0.0172974,0.107283,20.8738,60.8472,-0.0160855,0.0,0.0
2989,747,28.7595,30.0135,158.78,99.5189,99.7038,0.0173736,0.107559,20.8747,60.8171,-0.0168189,0.0,0.0
2996,748.75,28.526,29.105,161.007,99.5451,99.77,0.017457,0.107481,20.8755,60.7571,-0.0204443,0.0,0.0
3003,750.5,28.4461,30.1263,158.786,99.5814,99.7475,0.0175528,0.106787,20.8759,60.727,-0.015099,0.0,0.0
3010,752.25,28.4617,29.5605,158.512,99.6233,99.7857,0.0175745,0.106228,20.8761,60.717,-0.0147508,0.0,0.0
3017,754,28.6237,29.8039,155.548,99.6742,99.7861,0.017529,0.105732,20.8761,60.667,-0.0101683,0.0,0.0
3024,755.75,28.6029,29.7575,157.585,99.6794,99.8307,0.017503,0.105273,20.8768,60.667,-0.0137358,0.0,0.0
3031,757.5,28.9402,29.7289,153.183,99.6944,99.773,0.0175674,0.104581,20.8769,60.647,-0.00714138,0.0,0.0
3038,759.25,28.3962,29.5358,157.283,99.7278,99.882,0.0176497,0.104542,20.8778,60.627,-0.0139937,0.0,0.0
3045,761,28.3717,29.3617,159.928,99.7605,99.93,0.0174434,0.105874,20.8782,60.627,-0.0153732,0.0,0.0
3052,762.75,28.7615,29.3403,160.849,99.7726,99.9232,0.0168608,0.108138,20.8784,60.5969,-0.013659,0.0,0.0
3059,764.5,28.6642,29.2295,163.88,99.7956,99.9444,0.0159087,0.109561,20.8775,60.5769,-0.0134946,0.0,0.0
3066,766.25,28.0928,28.9213,155.501,99.7871,99.9414,0.0149947,0.110589,20.876,60.5569,-0.0139948,0.0,0.0
3073,768,28.2439,29.2099,158.531,99.8005,99.8816,0.0142681,0.111181,20.8749,60.5269,-0.00736184,0.0,0.0
3080,769.75,28.4576,29.2285,157.596,99.7984,99.9669,0.0137853,0.111194,20.8744,60.5269,-0.0152759,0.0,0.0
3087,771.5,28.9026,29.3152,158.558,99.7912,99.9011,0.0132947,0.11107,20.8735,60.4668,-0.00997422,0.0,0.0
3094,773.25,28.3574,29.1526,158.381,99.7783,99.9194,0.0130311,0.111238,20.8726,60.4468,-0.0127998,0.0,0.0
3101,775,28.5281,29.45,160.934,99.7738,99.9185,0.0128292,0.111423,20.872,60.3967,-0.0131264,0.0,0.0
3108,776.75,28.7217,29.2341,160.599,99.7549,99.8965,0.0126148,0.111569,20.8718,60.3867,-0.0128474,0.0,0.0
3115,778.5,28.5143,29.2534,155.698,99.7226,99.874,0.0124067,0.111534,20.8716,60.3867,-0.0137396,0.0,0.0
3122,780.25,28.5835,29.386,154.286,99.6778,99.8646,0.0123265,0.111308,20.8716,60.3567,-0.0169612,0.0,0.0
3129,782,28.5379,28.7133,160.673,99.648,99.7513,0.012446,0.111323,20.8715,60.3467,-0.00939321,0.0,0.0
3136,783.75,28.09,28.9594,160.573,99.6141,99.7683,0.0126811,0.1108,20.8715,60.2866,-0.0140153,0.0,0.0
3143,785.5,28.0226,29.149,158.826,99.5693,99.6232,0.0129458,0.109762,20.8718,60.2766,-0.00490363,0.0,0.0
3150,787.25,28.4385,28.7847,157.889,99.5185,99.6796,0.0130476,0.10938,20.8729,60.2866,-0.0146583,0.0,0.0
3157,789,28.2532,28.8762,158.9,99.4487,99.661,0.0129665,0.1095,20.8734,60.2666,-0.0193166,0.0,0.0
3164,790.75,28.1515,28.8183,156.314,99.3962,99.5761,0.0128285,0.109374,20.8736,60.2366,-0.0163792,0.0,0.0
3171,792.5,27.8894,29.0326,158.136,99.3801,99.6045,0.012709,0.109055,20.8738,60.2166,-0.0204356,0.0,0.0
3178,794.25,28.1466,28.963,156.861,99.4265,99.5536,0.0127626,0.108828,20.8748,60.1966,-0.0115764,0.0,0.0
3185,796,27.8053,28.7944,158.678,99.4487,99.4904,0.0127991,0.108419,20.8753,60.1465,-0.00380116,0.0,0.0
3192,797.75,28.1237,28.8662,160.518,99.485,99.7178,0.0127239,0.108648,20.8768,60.1465,-0.0211759,0.0,0.0
3199,799.5,28.1525,28.8602,158.314,99.5116,99.6079,0.0125344,0.108749,20.8776,60.1365,-0.00876467,0.0,0.0
3206,801.25,28.2604,28.7307,153.338,99.5515,99.6376,0.0123757,0.108635,20.8775,60.0965,-0.00782979,0.0,0.0
3212,802.75,28.2406,28.9376,153.161,99.5608,99.641,0.0123411,0.108404,20.8774,60.0864,-0.0072943,0.0,0.0