File: 01_Data/HIPS/STA/N2/30K_min/HIPS_STA_N2_30KData_211022_R2.csv
##Temp./Â°C,Time/min,Mass loss(subtr.2)/mg,DSC(subtr.2)/(mW/mg),Sensit./(uV/mW)
49.495,10.00667,-0.0092,0.03474449,1.05401
49.995,10.97742,-0.01016819,0.14822,1.05402
50.495,11.189,-0.01147857,0.24526,1.05403
50.995,11.3327,-0.0099391,0.31584,1.05404
51.495,11.44603,-0.01283578,0.38757,1.05405
51.995,11.53894,-0.01175228,0.45488,1.05405
52.495,11.62313,-0.008809361,0.50164,1.05406
52.995,11.69811,-0.01001028,0.5713,1.05406
53.495,11.76571,-0.01151069,0.62544,1.05406
53.995,11.8289,-0.01030019,0.67829,1.05406
54.495,11.88785,-0.01100068,0.72473,1.05406
54.995,11.94307,-0.01080285,0.77151,1.05406
55.495,11.99569,-0.01032174,0.8095,1.05406
55.995,12.0466,-0.01151429,0.85262,1.05405
56.495,12.09431,-0.01131214,0.89268,1.05405
56.995,12.1406,-0.01245583,0.93694,1.05404
57.495,12.18563,-0.01084991,0.96752,1.05403
57.995,12.22905,-0.01013735,1.00106,1.05402
58.495,12.27164,-0.009194642,1.03316,1.05401
58.995,12.3131,-0.01018729,1.0683,1.054
59.495,12.35341,-0.0105249,1.1068,1.05399
59.995,12.39311,-0.01360732,1.14202,1.05398
60.495,12.43148,-0.01455702,1.16566,1.05396
60.995,12.46899,-0.01270235,1.19825,1.05395
61.495,12.50615,-0.0131203,1.20994,1.05393
61.995,12.5425,-0.01411379,1.24441,1.05391
62.495,12.57828,-0.01311879,1.27851,1.05389
62.995,12.61353,-0.01313958,1.3089,1.05387
63.495,12.6484,-0.005730209,1.34299,1.05385
63.995,12.68271,-0.0003974789,1.37019,1.05382
64.495,12.71652,-0.01780076,1.3792,1.0538
64.995,12.75028,-0.02599244,1.39984,1.05377
65.495,12.78333,-0.0169442,1.433,1.05375
65.995,12.81568,-0.0156435,1.45452,1.05372
66.495,12.84793,-0.01423347,1.48089,1.05369
66.995,12.88028,-0.01272886,1.4934,1.05366
67.495,12.9122,-0.01406653,1.52562,1.05363
67.995,12.94347,-0.01541617,1.54274,1.05359
68.495,12.97452,-0.01643005,1.56303,1.05356
68.995,13.0054,-0.01569893,1.5921,1.05352
69.495,13.036,-0.01452168,1.60409,1.05349
69.995,13.06615,-0.01429099,1.63159,1.05345
70.495,13.09635,-0.01382322,1.6515,1.05341
70.995,13.1263,-0.01425454,1.67265,1.05337
71.495,13.1561,-0.01297159,1.68692,1.05333
71.995,13.18554,-0.01352872,1.70502,1.05328
72.495,13.21475,-0.01381707,1.72272,1.05324
72.995,13.2439,-0.01245853,1.74396,1.0532
73.495,13.2727,-0.01245607,1.74856,1.05315
73.995,13.3013,-0.01356895,1.77335,1.0531
74.495,13.3298,-0.01426114,1.78786,1.05305
74.995,13.3583,-0.01603715,1.8115,1.05301
75.495,13.3865,-0.01632862,1.82578,1.05295
75.995,13.41439,-0.01589825,1.84168,1.0529
76.495,13.44231,-0.01462576,1.85431,1.05285
76.995,13.46975,-0.01382755,1.87677,1.05279
77.495,13.49725,-0.01408339,1.89367,1.05274
77.995,13.5245,-0.0138621,1.91038,1.05268
78.495,13.5514,-0.01343008,1.93577,1.05262
78.995,13.57804,-0.01352541,1.94451,1.05257
79.495,13.6048,-0.01327622,1.96443,1.05251
79.995,13.63146,-0.01289848,1.98298,1.05244
80.495,13.65797,-0.01275141,2.00187,1.05238
80.995,13.68413,-0.01307544,2.02172,1.05232
81.495,13.71006,-0.01407506,2.04404,1.05225
81.995,13.7359,-0.01418743,2.05751,1.05219
82.495,13.7618,-0.01374323,2.06983,1.05212
82.995,13.78735,-0.01333612,2.08708,1.05205
83.495,13.8128,-0.01388345,2.09236,1.05198
83.995,13.83796,-0.0143659,2.08973,1.05191
84.495,13.8629,-0.01390963,2.09903,1.05184
84.995,13.88766,-0.01308098,2.09812,1.05177
85.495,13.9124,-0.01484561,2.09385,1.05169
85.995,13.9373,-0.01489112,2.09589,1.05162
86.495,13.962,-0.01310754,2.09069,1.05154
86.995,13.98625,-0.01470893,2.0916,1.05147
87.495,14.0105,-0.01516873,2.09388,1.05139
87.995,14.03442,-0.015928,2.09684,1.05131
88.495,14.0586,-0.01586309,2.10185,1.05123
88.995,14.0825,-0.01473869,2.11502,1.05114
89.495,14.1063,-0.01451717,2.12407,1.05106
89.995,14.1298,-0.01442693,2.12959,1.05098
90.495,14.15311,-0.01578893,2.14045,1.05089
90.995,14.1764,-0.01578591,2.15859,1.0508
91.495,14.1995,-0.01569005,2.17785,1.05072
91.995,14.22238,-0.01540312,2.18953,1.05063
92.495,14.24528,-0.01511778,2.20543,1.05054
92.995,14.26813,-0.01560534,2.22276,1.05045
93.495,14.2908,-0.01590368,2.24769,1.05036
93.995,14.3133,-0.01700024,2.25411,1.05026
94.495,14.3358,-0.0158939,2.27448,1.05017
94.995,14.3582,-0.01705554,2.3014,1.05007
95.495,14.38042,-0.01703795,2.31842,1.04998
95.995,14.4026,-0.01606545,2.35083,1.04988
96.495,14.42469,-0.01706457,2.36831,1.04978
96.995,14.44669,-0.01567009,2.39933,1.04968
97.495,14.4686,-0.01471299,2.41414,1.04958
97.995,14.49032,-0.01584496,2.44707,1.04948
98.495,14.5117,-0.01548538,2.46734,1.04937
98.995,14.5331,-0.01662867,2.49513,1.04927
99.495,14.55439,-0.01601274,2.53225,1.04916
99.995,14.5759,-0.01614051,2.56079,1.04906
100.495,14.59711,-0.01571624,2.5901,1.04895
100.995,14.61832,-0.01590474,2.61977,1.04884
101.495,14.63936,-0.01617262,2.65493,1.04873
101.995,14.6603,-0.0159984,2.68377,1.04862
102.495,14.6813,-0.01720817,2.71775,1.04851
102.995,14.70215,-0.01620265,2.74001,1.04839
103.495,14.7229,-0.01624329,2.76024,1.04828
103.995,14.74359,-0.01584396,2.79398,1.04816
104.495,14.76411,-0.01521584,2.82009,1.04805
104.995,14.7843,-0.01527964,2.83721,1.04793
105.495,14.8046,-0.01452638,2.85715,1.04781
105.995,14.82496,-0.01605439,2.88891,1.04769
106.495,14.8453,-0.01704654,2.90223,1.04757
106.995,14.8659,-0.01627081,2.91785,1.04745
107.495,14.88611,-0.01774037,2.9314,1.04732
107.995,14.90625,-0.01730572,2.95708,1.0472
108.495,14.92631,-0.01775425,2.97028,1.04707
108.995,14.94636,-0.01845573,2.99268,1.04695
109.495,14.96623,-0.01766034,3.00665,1.04682
109.995,14.98605,-0.01672517,3.01695,1.04669
110.495,15.00576,-0.01635492,3.0337,1.04656
110.995,15.02545,-0.01570995,3.04969,1.04643
111.495,15.0451,-0.0156482,3.06505,1.0463
111.995,15.0647,-0.01476504,3.07431,1.04617
112.495,15.08425,-0.01639927,3.08826,1.04603
112.995,15.1038,-0.01711185,3.08944,1.0459
113.495,15.1232,-0.01661243,3.10264,1.04576
113.995,15.1426,-0.01803859,3.12128,1.04563
114.495,15.16195,-0.01746922,3.13402,1.04549
114.995,15.1812,-0.0165658,3.14853,1.04535
115.495,15.20049,-0.01656517,3.158,1.04521
115.995,15.2197,-0.01666054,3.17016,1.04507
116.495,15.2388,-0.01677405,3.18536,1.04492
116.995,15.25772,-0.01678736,3.20268,1.04478
117.495,15.2766,-0.01756762,3.21383,1.04464
117.995,15.2955,-0.0167962,3.21971,1.04449
118.495,15.3143,-0.01679382,3.22768,1.04434
118.995,15.33319,-0.01698959,3.24492,1.0442
119.495,15.35193,-0.01721235,3.26529,1.04405
119.995,15.3705,-0.01818908,3.28047,1.0439
120.495,15.3892,-0.01705133,3.29427,1.04375
120.995,15.4077,-0.01831857,3.31068,1.0436
121.495,15.4262,-0.0177135,3.31361,1.04344
121.995,15.44476,-0.01688947,3.32973,1.04329
122.495,15.46321,-0.01689046,3.33861,1.04313
122.995,15.4816,-0.01779376,3.36006,1.04298
123.495,15.5,-0.01743207,3.36536,1.04282
123.995,15.5182,-0.01876516,3.38144,1.04266
124.495,15.5366,-0.01846035,3.38716,1.0425
124.995,15.5548,-0.0188541,3.40188,1.04234
125.495,15.5731,-0.01887046,3.41762,1.04218
125.995,15.5913,-0.01750773,3.43282,1.04202
126.495,15.60935,-0.01754024,3.44646,1.04186
126.995,15.62735,-0.01754936,3.45919,1.04169
127.495,15.6452,-0.01631136,3.47665,1.04153
127.995,15.66305,-0.01619888,3.48588,1.04136
128.495,15.6809,-0.01729136,3.51343,1.04119
128.995,15.69869,-0.01621482,3.52074,1.04103
129.495,15.71649,-0.01621925,3.52506,1.04086
129.995,15.7343,-0.01739044,3.54723,1.04069
130.495,15.7521,-0.01632474,3.56167,1.04051
130.995,15.7698,-0.01755846,3.57779,1.04034
131.495,15.7876,-0.01675655,3.59066,1.04017
131.995,15.8052,-0.01746325,3.603,1.03999
132.495,15.8226,-0.01754945,3.62183,1.03982
132.995,15.8401,-0.01720904,3.63919,1.03964
133.495,15.8575,-0.01621607,3.64228,1.03947
133.995,15.87496,-0.01623036,3.65392,1.03929
134.495,15.8924,-0.01623075,3.68103,1.03911
134.995,15.9098,-0.0161741,3.6995,1.03893
135.495,15.92715,-0.01695317,3.71297,1.03875
135.995,15.94435,-0.01632672,3.71453,1.03856
136.495,15.96135,-0.01736804,3.73078,1.03838
136.995,15.9785,-0.01630375,3.74591,1.0382
137.495,15.99559,-0.01648376,3.76552,1.03801
137.995,16.01269,-0.01788288,3.76875,1.03782
138.495,16.03,-0.01786867,3.78593,1.03764
138.995,16.04719,-0.01787002,3.79293,1.03745
139.495,16.0642,-0.01787058,3.81472,1.03726
139.995,16.08129,-0.01785873,3.82192,1.03707
140.495,16.09827,-0.01833553,3.83659,1.03688
140.995,16.11519,-0.01799889,3.85213,1.03668
141.495,16.13203,-0.01799026,3.86959,1.03649
141.995,16.1489,-0.01798999,3.88255,1.0363
142.495,16.16572,-0.01799002,3.89102,1.0361
142.995,16.1826,-0.01798846,3.91005,1.03591
143.495,16.19934,-0.01796918,3.91379,1.03571
143.995,16.2161,-0.01820074,3.92838,1.03551
144.495,16.2328,-0.01850573,3.93976,1.03531
144.995,16.24944,-0.01816752,3.95198,1.03511
145.495,16.26614,-0.01819995,3.95978,1.03491
145.995,16.28279,-0.01817051,3.97682,1.03471
146.495,16.29938,-0.02015767,3.98034,1.03451
146.995,16.31604,-0.02104005,3.99212,1.0343
147.495,16.3326,-0.02107456,4.00162,1.0341
147.995,16.34909,-0.01899616,4.02704,1.03389
148.495,16.36561,-0.01722174,4.0402,1.03368
148.995,16.38213,-0.01653493,4.06118,1.03348
149.495,16.39842,-0.01554697,4.06208,1.03327
149.995,16.4147,-0.01556033,4.07872,1.03306
150.495,16.4311,-0.01555653,4.08499,1.03285
150.995,16.4474,-0.01559907,4.09693,1.03264
151.495,16.4637,-0.01704362,4.11824,1.03242
151.995,16.47994,-0.01699011,4.12723,1.03221
152.495,16.49607,-0.0169487,4.14161,1.032
152.995,16.51209,-0.01824934,4.14728,1.03178
153.495,16.52825,-0.0172124,4.15763,1.03156
153.995,16.5445,-0.01700825,4.16579,1.03135
154.495,16.56077,-0.01738876,4.18261,1.03113
154.995,16.57703,-0.01832625,4.19072,1.03091
155.495,16.5934,-0.01830969,4.19787,1.03069
155.995,16.60951,-0.01809704,4.2124,1.03047
156.495,16.6257,-0.01697647,4.22141,1.03025
156.995,16.64191,-0.01696237,4.23301,1.03003
157.495,16.65786,-0.01816356,4.24575,1.0298
157.995,16.67395,-0.01831173,4.26366,1.02958
158.495,16.68998,-0.01831027,4.26825,1.02935
158.995,16.70595,-0.01831013,4.28149,1.02913
159.495,16.72205,-0.01830213,4.29823,1.0289
159.995,16.73809,-0.0178979,4.31358,1.02867
160.495,16.754,-0.01775366,4.31525,1.02844
160.995,16.76988,-0.01840816,4.3282,1.02821
161.495,16.7858,-0.01844937,4.33218,1.02798
161.995,16.80161,-0.01693324,4.3445,1.02775
162.495,16.8174,-0.01699016,4.35661,1.02752
162.995,16.8332,-0.01699605,4.3833,1.02728
163.495,16.84879,-0.01560683,4.38386,1.02705
163.995,16.86445,-0.01644517,4.39848,1.02681
164.495,16.88026,-0.01698889,4.41052,1.02658
164.995,16.89583,-0.01698962,4.41584,1.02634
165.495,16.91141,-0.01698999,4.43403,1.0261
165.995,16.92727,-0.01698997,4.43748,1.02586
166.495,16.94301,-0.01698773,4.44887,1.02562
166.995,16.95874,-0.01696207,4.46123,1.02538
167.495,16.97465,-0.01731189,4.47121,1.02514
167.995,16.99044,-0.01730064,4.47582,1.0249
168.495,17.00604,-0.01825381,4.49866,1.02465
168.995,17.0216,-0.01863544,4.50191,1.02441
169.495,17.03716,-0.0186397,4.51944,1.02416
169.995,17.05265,-0.01864004,4.53326,1.02392
170.495,17.06823,-0.01863786,4.54388,1.02367
170.995,17.08375,-0.01857637,4.55234,1.02342
171.495,17.0992,-0.01934385,4.55805,1.02317
171.995,17.1146,-0.01865374,4.57302,1.02292
172.495,17.1299,-0.01864118,4.58144,1.02267
172.995,17.14535,-0.01864003,4.59427,1.02242
173.495,17.1608,-0.01864002,4.60234,1.02217
173.995,17.17626,-0.01864085,4.61195,1.02192
174.495,17.19179,-0.01865186,4.62545,1.02166
174.995,17.20725,-0.01937351,4.64503,1.02141
175.495,17.22261,-0.01998626,4.65121,1.02115
175.995,17.23795,-0.01877883,4.66019,1.0209
176.495,17.25329,-0.01864013,4.6697,1.02064
176.995,17.2686,-0.01863894,4.6816,1.02038
177.495,17.2839,-0.01862107,4.69164,1.02012
177.995,17.2992,-0.01803898,4.6965,1.01986
178.495,17.3144,-0.01797629,4.70405,1.0196
178.995,17.32959,-0.01797804,4.72094,1.01934
179.495,17.3447,-0.01795513,4.72287,1.01908
179.995,17.35984,-0.01863611,4.72953,1.01881
180.495,17.37492,-0.01864359,4.74746,1.01855
180.995,17.38999,-0.01873285,4.75504,1.01828
181.495,17.40511,-0.01963631,4.77661,1.01802
181.995,17.42024,-0.01893939,4.78664,1.01775
182.495,17.4353,-0.01832317,4.78621,1.01748
182.995,17.45035,-0.01831086,4.80195,1.01722
183.495,17.46537,-0.01831003,4.80977,1.01695
183.995,17.48037,-0.01831,4.81893,1.01668
184.495,17.49532,-0.01831,4.82537,1.01641
184.995,17.5104,-0.01831001,4.83874,1.01613
185.495,17.5254,-0.01831008,4.85398,1.01586
185.995,17.5404,-0.01830943,4.86184,1.01559
186.495,17.55542,-0.01825493,4.86742,1.01531
186.995,17.57038,-0.01707705,4.87966,1.01504
187.495,17.58529,-0.01696303,4.88432,1.01476
187.995,17.60022,-0.01731722,4.90049,1.01449
188.495,17.61512,-0.01781811,4.91383,1.01421
188.995,17.62999,-0.01865764,4.9191,1.01393
189.495,17.64483,-0.01864074,4.93849,1.01365
189.995,17.6597,-0.01864001,4.94983,1.01337
190.495,17.67439,-0.01864,4.95294,1.01309
190.995,17.68913,-0.01864,4.96416,1.01281
191.495,17.70391,-0.01864,4.97182,1.01253
191.995,17.71871,-0.01864,4.98701,1.01225
192.495,17.73338,-0.01864,4.99093,1.01196
192.995,17.7482,-0.01864107,4.9987,1.01168
193.495,17.76292,-0.01866819,5.01533,1.01139
193.995,17.7776,-0.01824888,5.02489,1.01111
194.495,17.7923,-0.01864983,5.03209,1.01082
194.995,17.807,-0.01863984,5.03853,1.01053
195.495,17.8217,-0.01864066,5.05081,1.01024
195.995,17.83628,-0.01865679,5.06251,1.00995
196.495,17.8509,-0.01788917,5.08201,1.00966
196.995,17.86555,-0.01732721,5.08738,1.00937
197.495,17.88018,-0.01767669,5.09363,1.00908
197.995,17.89481,-0.01899547,5.10083,1.00879
198.495,17.90945,-0.01957475,5.11272,1.0085
198.995,17.92405,-0.02030479,5.12197,1.0082
199.495,17.93864,-0.02029055,5.12795,1.00791
199.995,17.9532,-0.02029,5.1405,1.00761
200.495,17.96772,-0.02029,5.15024,1.00731
200.995,17.98227,-0.02029,5.15578,1.00702
201.495,17.9968,-0.02029,5.16699,1.00672
201.995,18.01135,-0.02029,5.17786,1.00642
202.495,18.02584,-0.02029,5.18981,1.00612
202.995,18.0403,-0.02029,5.20353,1.00582
203.495,18.0548,-0.02028999,5.20531,1.00552
203.995,18.06922,-0.02028979,5.22216,1.00522
204.495,18.0837,-0.02028629,5.2333,1.00492
204.995,18.09818,-0.02024062,5.23949,1.00461
205.495,18.11271,-0.02157708,5.23965,1.00431
205.995,18.12718,-0.02161131,5.25663,1.00401
206.495,18.14165,-0.02160214,5.26053,1.0037
206.995,18.15607,-0.02137872,5.27735,1.00339
207.495,18.17044,-0.02060631,5.28598,1.00309
207.995,18.18479,-0.02061934,5.29176,1.00278
208.495,18.1992,-0.02061998,5.30407,1.00247
208.995,18.21359,-0.02062,5.30643,1.00216
209.495,18.228,-0.02062,5.31373,1.00185
209.995,18.2424,-0.02062,5.33107,1.00154
210.495,18.25674,-0.02062,5.3466,1.00123
210.995,18.27107,-0.02062,5.35273,1.00092
211.495,18.2854,-0.02062,5.36196,1.00061
211.995,18.2998,-0.02062,5.36824,1.00029
212.495,18.31413,-0.02062001,5.38608,0.99998
212.995,18.32844,-0.02062048,5.38592,0.99967
213.495,18.34277,-0.02063039,5.38996,0.99935
213.995,18.357,-0.02090673,5.41277,0.99903
214.495,18.37134,-0.02207877,5.40902,0.99872
214.995,18.38559,-0.02204144,5.42567,0.9984
215.495,18.39984,-0.02204004,5.43863,0.99808
215.995,18.4141,-0.02203805,5.43736,0.99776
216.495,18.42831,-0.02196994,5.45398,0.99744
216.995,18.4426,-0.02171882,5.46348,0.99712
217.495,18.45684,-0.02169718,5.46856,0.9968
217.995,18.47111,-0.02132297,5.47839,0.99648
218.495,18.48536,-0.02037026,5.49212,0.99616
218.995,18.49964,-0.02038965,5.49605,0.99583
219.495,18.51383,-0.02039016,5.50648,0.99551
219.995,18.52804,-0.02039562,5.51746,0.99518
220.495,18.54225,-0.02054655,5.51757,0.99486
220.995,18.55643,-0.02175911,5.53437,0.99453
221.495,18.5706,-0.02169914,5.54198,0.99421
221.995,18.5848,-0.02128382,5.55257,0.99388
222.495,18.59889,-0.0203837,5.56056,0.99355
222.995,18.613,-0.02039971,5.56443,0.99322
223.495,18.62715,-0.02040003,5.57216,0.99289
223.995,18.6413,-0.0204,5.58583,0.99256
224.495,18.6554,-0.02039999,5.6012,0.99223
224.995,18.6695,-0.02039988,5.59988,0.9919
225.495,18.68365,-0.02039809,5.61203,0.99157
225.995,18.69776,-0.02037302,5.62842,0.99124
226.495,18.71183,-0.02097215,5.62601,0.9909
226.995,18.72588,-0.02138643,5.63104,0.99057
227.495,18.73995,-0.02138027,5.64676,0.99023
227.995,18.75403,-0.02177201,5.65676,0.9899
228.495,18.7681,-0.02271596,5.6625,0.98956
228.995,18.7822,-0.02270135,5.67061,0.98922
229.495,18.7962,-0.0227001,5.68021,0.98889
229.995,18.81026,-0.02269998,5.68146,0.98855
230.495,18.82434,-0.02269968,5.6938,0.98821
230.995,18.8384,-0.02269614,5.71056,0.98787
231.495,18.8524,-0.02244817,5.7171,0.98753
231.995,18.86659,-0.0217089,5.72354,0.98719
232.495,18.8807,-0.02171053,5.7286,0.98685
232.995,18.89472,-0.02170829,5.73431,0.98651
233.495,18.90876,-0.02166114,5.74835,0.98616
233.995,18.92282,-0.02065856,5.75208,0.98582
234.495,18.93683,-0.02071595,5.76899,0.98548
234.995,18.95085,-0.02071979,5.7765,0.98513
235.495,18.96482,-0.02072033,5.7787,0.98479
235.995,18.97881,-0.02072381,5.7868,0.98444
236.495,18.99279,-0.02100494,5.79253,0.9841
236.995,19.00674,-0.02204116,5.80028,0.98375
237.495,19.02069,-0.02204069,5.81249,0.9834
237.995,19.0346,-0.02204021,5.81765,0.98305
238.495,19.04854,-0.02204292,5.82208,0.9827
238.995,19.06244,-0.02210903,5.83002,0.98235
239.495,19.07636,-0.02322574,5.84234,0.982
239.995,19.09028,-0.02334515,5.84753,0.98165
240.495,19.10425,-0.02334603,5.84872,0.9813
240.995,19.1182,-0.02330167,5.86886,0.98095
241.495,19.13213,-0.02459832,5.87274,0.9806
241.995,19.14607,-0.02466775,5.86549,0.98024
242.495,19.16001,-0.02467,5.8839,0.97989
242.995,19.17391,-0.02466996,5.89805,0.97954
243.495,19.18779,-0.02466858,5.8966,0.97918
243.995,19.20175,-0.02463757,5.90617,0.97883
244.495,19.21565,-0.02550699,5.91805,0.97847
244.995,19.22954,-0.02565565,5.916,0.97811
245.495,19.2434,-0.02565971,5.93357,0.97776
245.995,19.25733,-0.02565998,5.94415,0.9774
246.495,19.2712,-0.02566,5.94713,0.97704
246.995,19.285,-0.02566,5.95182,0.97668
247.495,19.29888,-0.02566,5.96818,0.97632
247.995,19.31273,-0.02566,5.9724,0.97596
248.495,19.3265,-0.02566,5.97925,0.9756
248.995,19.3403,-0.02565997,5.98163,0.97524
249.495,19.35416,-0.02565884,5.98116,0.97488
249.995,19.36796,-0.02563076,5.99125,0.97451
250.495,19.38178,-0.02453568,6.00092,0.97415
250.995,19.39562,-0.02434408,6.00804,0.97379
251.495,19.40946,-0.0243245,6.0126,0.97342
251.995,19.42333,-0.02499905,6.02161,0.97306
252.495,19.43714,-0.02567604,6.01871,0.97269
252.995,19.451,-0.02566097,6.02737,0.97233
253.495,19.46479,-0.02566012,6.0345,0.97196
253.995,19.4785,-0.02566088,6.03874,0.97159
254.495,19.49212,-0.02567067,6.04482,0.97122
254.995,19.5059,-0.02622425,6.04096,0.97086
255.495,19.51971,-0.0269839,6.05658,0.97049
255.995,19.53347,-0.02697975,6.05952,0.97012
256.495,19.54737,-0.02696996,6.06994,0.96975
256.995,19.5613,-0.02780587,6.06906,0.96938
257.495,19.57515,-0.02828706,6.07639,0.96901
257.995,19.58892,-0.02829901,6.08882,0.96863
258.495,19.6027,-0.02829993,6.09087,0.96826
258.995,19.61645,-0.02830002,6.09015,0.96789
259.495,19.6302,-0.02830033,6.10172,0.96752
259.995,19.64394,-0.0283048,6.11139,0.96714
260.495,19.6576,-0.02845312,6.10847,0.96677
260.995,19.67134,-0.02955868,6.11466,0.96639
261.495,19.68509,-0.02960675,6.11444,0.96602
261.995,19.69874,-0.02959912,6.1284,0.96564
262.495,19.7123,-0.02907687,6.13253,0.96527
262.995,19.726,-0.02828075,6.13013,0.96489
263.495,19.73969,-0.02828971,6.12885,0.96451
263.995,19.7534,-0.02829,6.15251,0.96413
264.495,19.7671,-0.02829,6.15141,0.96376
264.995,19.781,-0.02829,6.15679,0.96338
265.495,19.79485,-0.02829,6.15935,0.963
265.995,19.80865,-0.02829,6.17251,0.96262
266.495,19.82238,-0.02829002,6.17944,0.96224
266.995,19.83609,-0.0282903,6.18091,0.96186
267.495,19.84978,-0.02829457,6.17624,0.96147
267.995,19.86345,-0.02840352,6.18781,0.96109
268.495,19.87712,-0.0295233,6.19241,0.96071
268.995,19.89079,-0.02960611,6.19661,0.96033
269.495,19.90446,-0.02960979,6.20291,0.95994
269.995,19.91815,-0.02961036,6.20239,0.95956
270.495,19.93186,-0.02961459,6.20779,0.95918
270.995,19.9455,-0.029853,6.20862,0.95879
271.495,19.95917,-0.03117671,6.21868,0.9584
271.995,19.97285,-0.03223009,6.20773,0.95802
272.495,19.98646,-0.03223972,6.21903,0.95763
272.995,20.0001,-0.03224001,6.22628,0.95725
273.495,20.0137,-0.03224,6.22944,0.95686
273.995,20.02737,-0.03224,6.22778,0.95647
274.495,20.04102,-0.03224,6.24168,0.95608
274.995,20.0547,-0.03223999,6.24529,0.95569
275.495,20.0684,-0.03223981,6.2391,0.9553
275.995,20.08203,-0.03223686,6.25079,0.95491
276.495,20.09569,-0.03217498,6.25154,0.95452
276.995,20.1094,-0.03105938,6.25395,0.95413
277.495,20.12306,-0.0309082,6.27235,0.95374
277.995,20.13674,-0.03158793,6.2625,0.95335
278.495,20.15042,-0.03225623,6.26192,0.95296
278.995,20.16411,-0.03224105,6.26825,0.95256
279.495,20.1778,-0.03224009,6.26401,0.95217
279.995,20.19141,-0.03224036,6.26229,0.95178
280.495,20.20505,-0.03224457,6.27165,0.95138
280.995,20.21872,-0.03247037,6.26561,0.95099
281.495,20.2323,-0.03354291,6.27121,0.95059
281.995,20.24597,-0.03384522,6.27323,0.9502
282.495,20.25957,-0.03422284,6.27791,0.9498
282.995,20.27318,-0.03422003,6.28095,0.94941
283.495,20.28681,-0.0342205,6.28526,0.94901
283.995,20.30046,-0.03424407,6.28202,0.94861
284.495,20.3141,-0.03557975,6.28511,0.94822
284.995,20.32775,-0.03621106,6.28482,0.94782
285.495,20.34145,-0.03619182,6.29126,0.94742
285.995,20.35501,-0.03619014,6.28912,0.94702
286.495,20.36852,-0.03619001,6.29696,0.94662
286.995,20.38212,-0.03619,6.29236,0.94622
287.495,20.39571,-0.03619005,6.29399,0.94582
287.995,20.4093,-0.03619079,6.30205,0.94542
288.495,20.42287,-0.03620183,6.2939,0.94502
288.995,20.43659,-0.03644527,6.30107,0.94462
289.495,20.45025,-0.03755613,6.29953,0.94422
289.995,20.46386,-0.03751312,6.29966,0.94381
290.495,20.47743,-0.03751023,6.29224,0.94341
290.995,20.49107,-0.03751037,6.30189,0.94301
291.495,20.50471,-0.0375148,6.30432,0.9426
291.995,20.51833,-0.0377126,6.30185,0.9422
292.495,20.53193,-0.0387974,6.31139,0.9418
292.995,20.54557,-0.0388284,6.30128,0.94139
293.495,20.5593,-0.03882993,6.29993,0.94099
293.995,20.57282,-0.03883,6.28945,0.94058
294.495,20.58643,-0.03883,6.30762,0.94017
294.995,20.60008,-0.03883,6.29909,0.93977
295.495,20.6137,-0.03883003,6.29348,0.93936
295.995,20.6273,-0.03883083,6.29462,0.93895
296.495,20.64089,-0.03884818,6.29436,0.93855
296.995,20.65448,-0.03991611,6.28962,0.93814
297.495,20.668,-0.04024277,6.29665,0.93773
297.995,20.68166,-0.0402401,6.29691,0.93732
298.495,20.6952,-0.04075894,6.30832,0.93691
298.995,20.70883,-0.04158611,6.29978,0.9365
299.495,20.72243,-0.04153033,6.29068,0.93609
299.995,20.73604,-0.04251348,6.29052,0.93568
300.495,20.74964,-0.04387383,6.29003,0.93527
300.995,20.7633,-0.04417673,6.28982,0.93486
301.495,20.7769,-0.04420252,6.29913,0.93445
301.995,20.79045,-0.04450398,6.29331,0.93404
302.495,20.80407,-0.0455699,6.29693,0.93363
302.995,20.81765,-0.04475609,6.29131,0.93321
303.495,20.83127,-0.044188,6.2908,0.9328
303.995,20.8449,-0.04419934,6.30002,0.93239
304.495,20.85853,-0.04420081,6.28972,0.93197
304.995,20.87213,-0.0442106,6.28477,0.93156
305.495,20.88573,-0.04474364,6.29004,0.93114
305.995,20.8993,-0.04553004,6.29699,0.93073
306.495,20.91284,-0.04552049,6.2881,0.93032
306.995,20.92642,-0.04552002,6.28652,0.9299
307.495,20.94,-0.04552,6.29157,0.92948
307.995,20.95359,-0.04551999,6.28347,0.92907
308.495,20.96719,-0.04551982,6.28316,0.92865
308.995,20.9808,-0.04551606,6.28745,0.92823
309.495,20.99442,-0.04593867,6.28845,0.92782
309.995,21.008,-0.0468454,6.28003,0.9274
310.495,21.02165,-0.0468314,6.28038,0.92698
310.995,21.03523,-0.04683301,6.28223,0.92656
311.495,21.04883,-0.04688749,6.28246,0.92615
311.995,21.06239,-0.0479922,6.28873,0.92573
312.495,21.07599,-0.04814605,6.29016,0.92531
312.995,21.08952,-0.04819283,6.28526,0.92489
313.495,21.10312,-0.05036943,6.29077,0.92447
313.995,21.11668,-0.05075732,6.28911,0.92405
314.495,21.1303,-0.05089182,6.28427,0.92363
314.995,21.14382,-0.05200475,6.2881,0.92321
315.495,21.1574,-0.05208611,6.29198,0.92279
315.995,21.171,-0.05209011,6.29332,0.92236
316.495,21.18463,-0.05209492,6.28788,0.92194
316.995,21.19823,-0.05228671,6.28443,0.92152
317.495,21.21186,-0.0533753,6.2903,0.9211
317.995,21.2255,-0.05340805,6.29331,0.92067
318.495,21.2391,-0.05340748,6.30195,0.92025
318.995,21.2527,-0.05338404,6.28647,0.91983
319.495,21.2663,-0.0546946,6.28627,0.9194
319.995,21.27991,-0.05570187,6.29128,0.91898
320.495,21.29349,-0.05603756,6.28582,0.91856
320.995,21.30712,-0.05676783,6.28225,0.91813
321.495,21.32075,-0.05757193,6.27865,0.91771
321.995,21.33436,-0.05763783,6.28042,0.91728
322.495,21.34791,-0.05893972,6.27375,0.91686
322.995,21.36156,-0.05890323,6.28122,0.91643
323.495,21.37519,-0.05890039,6.27596,0.916
323.995,21.38876,-0.05890222,6.27989,0.91558
324.495,21.40235,-0.05893425,6.26873,0.91515
324.995,21.41599,-0.05787729,6.27039,0.91473
325.495,21.42962,-0.05859782,6.26765,0.9143
325.995,21.44323,-0.05887762,6.26702,0.91387
326.495,21.45684,-0.05888951,6.26687,0.91344
326.995,21.47048,-0.05889499,6.25855,0.91301
327.495,21.48406,-0.05903587,6.25312,0.91259
327.995,21.49769,-0.06014687,6.25222,0.91216
328.495,21.51128,-0.06020723,6.25791,0.91173
328.995,21.5249,-0.06021457,6.25111,0.9113
329.495,21.53849,-0.06042465,6.25276,0.91087
329.995,21.55216,-0.06149375,6.24761,0.91044
330.495,21.56576,-0.06152188,6.24106,0.91001
330.995,21.57941,-0.06180168,6.22955,0.90958
331.495,21.593,-0.0628343,6.2325,0.90915
331.995,21.60667,-0.06284002,6.22126,0.90872
332.495,21.62029,-0.06285424,6.21735,0.90829
332.995,21.6339,-0.06418203,6.20862,0.90786
333.495,21.64753,-0.06415149,6.21092,0.90743
333.995,21.6612,-0.06498652,6.21044,0.90699
334.495,21.67478,-0.06567498,6.20807,0.90656
334.995,21.68839,-0.06573081,6.20105,0.90613
335.495,21.70201,-0.06682554,6.19002,0.9057
335.995,21.71565,-0.06695611,6.18143,0.90526
336.495,21.72927,-0.06775136,6.17856,0.90483
336.995,21.7429,-0.06789826,6.16833,0.9044
337.495,21.7566,-0.06902712,6.15467,0.90397
337.995,21.77027,-0.06896491,6.14878,0.90353
338.495,21.7839,-0.06970155,6.15208,0.9031
338.995,21.79753,-0.07031547,6.13875,0.90266
339.495,21.81115,-0.07032162,6.13239,0.90223
339.995,21.82478,-0.07094062,6.12011,0.90179
340.495,21.83847,-0.07231526,6.10798,0.90136
340.995,21.8521,-0.07227955,6.11136,0.90092
341.495,21.8658,-0.07225315,6.09671,0.90049
341.995,21.87945,-0.07376809,6.09395,0.90005
342.495,21.89313,-0.07380986,6.08749,0.89962
342.995,21.9068,-0.07415181,6.07664,0.89918
343.495,21.92043,-0.07513647,6.06658,0.89875
343.995,21.9341,-0.07513074,6.06659,0.89831
344.495,21.9478,-0.07513004,6.04776,0.89787
344.995,21.9615,-0.0751294,6.04826,0.89744
345.495,21.9752,-0.07511937,6.0464,0.897
345.995,21.9889,-0.07567328,6.03027,0.89656
346.495,22.00261,-0.07645822,6.02196,0.89612
346.995,22.01633,-0.0764454,6.01457,0.89569
347.495,22.03,-0.07654235,6.00708,0.89525
347.995,22.0437,-0.07759837,5.99656,0.89481
348.495,22.05738,-0.07845144,5.97886,0.89437
348.995,22.07108,-0.0791843,5.96296,0.89393
349.495,22.08476,-0.07986757,5.95906,0.8935
349.995,22.09848,-0.07984797,5.94417,0.89306
350.495,22.11218,-0.07981373,5.92863,0.89262
350.995,22.12589,-0.08121886,5.9171,0.89218
351.495,22.13961,-0.08126988,5.90981,0.89174
351.995,22.15331,-0.08159785,5.89088,0.8913
352.495,22.16705,-0.08259572,5.87808,0.89086
352.995,22.18074,-0.08258671,5.87975,0.89042
353.495,22.19443,-0.08301703,5.86196,0.88998
353.995,22.20811,-0.08405279,5.84958,0.88954
354.495,22.22169,-0.08414112,5.82985,0.8891
354.995,22.23534,-0.0857378,5.82079,0.88866
355.495,22.249,-0.08581672,5.81045,0.88822
355.995,22.2628,-0.08728676,5.80617,0.88778
356.495,22.2765,-0.08743704,5.78713,0.88733
356.995,22.2904,-0.08867607,5.77398,0.88689
357.495,22.3042,-0.08862214,5.75534,0.88645
357.995,22.31792,-0.08860155,5.75472,0.88601
358.495,22.33164,-0.08945106,5.73299,0.88557
358.995,22.34538,-0.0899514,5.72582,0.88513
359.495,22.35905,-0.09019628,5.70037,0.88468
359.995,22.37281,-0.09134451,5.68344,0.88424
360.495,22.3866,-0.09136017,5.68803,0.8838
360.995,22.4004,-0.09172242,5.67164,0.88336
361.495,22.41414,-0.09268988,5.65298,0.88291
361.995,22.428,-0.09266243,5.63278,0.88247
362.495,22.4418,-0.09358597,5.6225,0.88203
362.995,22.45555,-0.09409677,5.61032,0.88158
363.495,22.46934,-0.09419003,5.58865,0.88114
363.995,22.48312,-0.09535317,5.56903,0.8807
364.495,22.49694,-0.09554206,5.56492,0.88025
364.995,22.51074,-0.09603624,5.54422,0.87981
365.495,22.52457,-0.09767118,5.5346,0.87937
365.995,22.53833,-0.09780893,5.51382,0.87892
366.495,22.55213,-0.09910135,5.49473,0.87848
366.995,22.5659,-0.0991383,5.48432,0.87803
367.495,22.57969,-0.09913927,5.46263,0.87759
367.995,22.59345,-0.10081,5.45185,0.87714
368.495,22.60725,-0.10145,5.43896,0.8767
368.995,22.62104,-0.10144,5.41075,0.87625
369.495,22.63486,-0.10192,5.39984,0.87581
369.995,22.64869,-0.10291,5.37316,0.87536
370.495,22.66252,-0.10287,5.36499,0.87492
370.995,22.67636,-0.10353,5.3322,0.87447
371.495,22.6902,-0.10442,5.324,0.87403
371.995,22.704,-0.10521,5.3105,0.87358
372.495,22.71779,-0.10621,5.2797,0.87314
372.995,22.73164,-0.10673,5.26661,0.87269
373.495,22.7454,-0.10761,5.25288,0.87224
373.995,22.75928,-0.10757,5.2408,0.8718
374.495,22.7731,-0.10922,5.23742,0.87135
374.995,22.78696,-0.1096,5.20866,0.87091
375.495,22.80079,-0.11123,5.19101,0.87046
375.995,22.81465,-0.11166,5.17852,0.87001
376.495,22.82849,-0.11255,5.1551,0.86957
376.995,22.8424,-0.11253,5.13507,0.86912
377.495,22.8563,-0.11249,5.12502,0.86867
377.995,22.87015,-0.11372,5.10749,0.86823
378.495,22.88404,-0.11417,5.0944,0.86778
378.995,22.89789,-0.11572,5.08894,0.86733
379.495,22.91176,-0.11602,5.07257,0.86688
379.995,22.9256,-0.11733,5.06062,0.86644
380.495,22.93945,-0.11735,5.05076,0.86599
380.995,22.95332,-0.11845,5.03842,0.86554
381.495,22.9672,-0.11926,5.02676,0.86509
381.995,22.98105,-0.12064,5.00426,0.86465
382.495,22.99491,-0.12167,4.99396,0.8642
382.995,23.00881,-0.12164,4.9898,0.86375
383.495,23.02274,-0.1216,4.97438,0.8633
383.995,23.03664,-0.12268,4.96426,0.86286
384.495,23.05059,-0.12295,4.96386,0.86241
384.995,23.06454,-0.12331,4.95281,0.86196
385.495,23.0785,-0.1257,4.94736,0.86151
385.995,23.09241,-0.12641,4.94843,0.86106
386.495,23.10632,-0.12754,4.93209,0.86062
386.995,23.12024,-0.12999,4.92958,0.86017
387.495,23.13417,-0.13115,4.92335,0.85972
387.995,23.1481,-0.13237,4.92552,0.85927
388.495,23.16206,-0.13394,4.92817,0.85882
388.995,23.17598,-0.13422,4.93594,0.85837
389.495,23.18995,-0.13489,4.92606,0.85792
389.995,23.20393,-0.13558,4.92052,0.85748
390.495,23.21786,-0.13559,4.92715,0.85703
390.995,23.2318,-0.13494,4.94018,0.85658
391.495,23.2458,-0.13543,4.94797,0.85613
391.995,23.25979,-0.13545,4.93595,0.85568
392.495,23.2738,-0.13735,4.95008,0.85523
392.995,23.28782,-0.13832,4.96276,0.85478
393.495,23.30186,-0.13991,4.97246,0.85433
393.995,23.31585,-0.14194,4.98497,0.85388
394.495,23.32987,-0.14368,4.99041,0.85343
394.995,23.34384,-0.14584,5.00664,0.85299
395.495,23.35783,-0.14707,5.03906,0.85254
395.995,23.37179,-0.14796,5.06884,0.85209
396.495,23.3858,-0.14895,5.0987,0.85164
396.995,23.3998,-0.14991,5.12911,0.85119
397.495,23.41386,-0.15161,5.14506,0.85074
397.995,23.4279,-0.15342,5.17195,0.85029
398.495,23.44193,-0.15473,5.19114,0.84984
398.995,23.45597,-0.15649,5.21407,0.84939
399.495,23.46999,-0.15837,5.23538,0.84894
399.995,23.484,-0.15973,5.27138,0.84849
400.495,23.49801,-0.16125,5.29287,0.84804
400.995,23.51205,-0.16324,5.32796,0.84759
401.495,23.52601,-0.16453,5.35575,0.84714
401.995,23.54009,-0.16563,5.41661,0.84669
402.495,23.55411,-0.16716,5.44853,0.84624
402.995,23.56822,-0.16824,5.4748,0.84579
403.495,23.58229,-0.16931,5.52923,0.84534
403.995,23.59636,-0.17172,5.59207,0.84489
404.495,23.61047,-0.17347,5.63797,0.84445
404.995,23.62455,-0.17634,5.7025,0.844
405.495,23.6386,-0.1788,5.74631,0.84355
405.995,23.65263,-0.18031,5.80445,0.8431
406.495,23.6667,-0.18219,5.87278,0.84265
406.995,23.6808,-0.18347,5.94523,0.8422
407.495,23.6949,-0.18745,6.00703,0.84175
407.995,23.70903,-0.18989,6.08248,0.8413
408.495,23.72317,-0.19187,6.16254,0.84085
408.995,23.73735,-0.19282,6.25816,0.8404
409.495,23.75149,-0.19467,6.3378,0.83995
409.995,23.7656,-0.19655,6.41957,0.8395
410.495,23.77978,-0.19937,6.49394,0.83905
410.995,23.7939,-0.20149,6.58773,0.8386
411.495,23.80799,-0.2044,6.66991,0.83815
411.995,23.8221,-0.20729,6.77762,0.8377
412.495,23.8363,-0.21024,6.87812,0.83725
412.995,23.85043,-0.2134,6.98914,0.8368
413.495,23.86456,-0.21571,7.108,0.83635
413.995,23.8787,-0.21854,7.21532,0.8359
414.495,23.89285,-0.22132,7.32752,0.83545
414.995,23.90701,-0.22385,7.45634,0.835
415.495,23.92119,-0.22653,7.59017,0.83455
415.995,23.93538,-0.23008,7.75066,0.8341
416.495,23.94959,-0.23449,7.91179,0.83365
416.995,23.9638,-0.23801,8.05576,0.83321
417.495,23.97802,-0.24189,8.18547,0.83276
417.995,23.99224,-0.24598,8.33968,0.83231
418.495,24.00647,-0.25111,8.48815,0.83186
418.995,24.0207,-0.255,8.64665,0.83141
419.495,24.03491,-0.25922,8.82277,0.83096
419.995,24.04905,-0.26255,9.01656,0.83051
420.495,24.06328,-0.26642,9.23342,0.83006
420.995,24.07752,-0.27044,9.42838,0.82961
421.495,24.0917,-0.27484,9.62811,0.82916
421.995,24.10599,-0.27945,9.8352,0.82871
422.495,24.12033,-0.28452,10.05172,0.82826
422.995,24.13458,-0.29008,10.26791,0.82781
423.495,24.14881,-0.29543,10.5267,0.82737
423.995,24.16307,-0.30058,10.76753,0.82692
424.495,24.17735,-0.30482,11.0116,0.82647
424.995,24.19162,-0.31039,11.27557,0.82602
425.495,24.2059,-0.31627,11.54721,0.82557
425.995,24.2202,-0.32223,11.8682,0.82512
426.495,24.23452,-0.32843,12.15093,0.82467
426.995,24.24881,-0.33474,12.45283,0.82423
427.495,24.26303,-0.34141,12.76905,0.82378
427.995,24.27733,-0.3484,13.1111,0.82333
428.495,24.29166,-0.35595,13.4611,0.82288
428.995,24.306,-0.36365,13.85015,0.82243
429.495,24.3203,-0.37145,14.2572,0.82198
429.995,24.3348,-0.38022,14.68092,0.82154
430.495,24.34916,-0.38898,15.14359,0.82109
430.995,24.3635,-0.39815,15.60421,0.82064
431.495,24.3779,-0.40759,16.06576,0.82019
431.995,24.39225,-0.41753,16.52422,0.81974
432.495,24.40661,-0.42816,16.98742,0.8193
432.995,24.42103,-0.44007,17.48242,0.81885
433.495,24.43546,-0.45223,18.00933,0.8184
433.995,24.44989,-0.46485,18.54385,0.81795
434.495,24.46431,-0.47824,19.1319,0.81751
434.995,24.47874,-0.49206,19.72259,0.81706
435.495,24.49319,-0.50627,20.3399,0.81661
435.995,24.5076,-0.52064,20.97774,0.81616
436.495,24.5221,-0.53582,21.63665,0.81572
436.995,24.5366,-0.55182,22.30715,0.81527
437.495,24.5511,-0.56908,22.9804,0.81482
437.995,24.56556,-0.58754,23.6049,0.81438
438.495,24.58009,-0.60701,24.27496,0.81393
438.995,24.59463,-0.62673,24.96078,0.81348
439.495,24.60915,-0.64718,25.68318,0.81304
439.995,24.6237,-0.66827,26.4527,0.81259
440.495,24.6382,-0.68995,27.20324,0.81214
440.995,24.65277,-0.71257,27.92243,0.8117
441.495,24.66739,-0.73525,28.60925,0.81125
441.995,24.68206,-0.75872,29.36239,0.8108
442.495,24.6967,-0.78234,30.14943,0.81036
442.995,24.71145,-0.80611,30.94275,0.80991
443.495,24.7261,-0.83117,31.8266,0.80947
443.995,24.7408,-0.85824,32.63348,0.80902
444.495,24.75546,-0.88881,33.39894,0.80857
444.995,24.7701,-0.92007,34.1498,0.80813
445.495,24.78482,-0.9519,34.91988,0.80768
445.995,24.7995,-0.98371,35.71263,0.80724
446.495,24.8142,-1.01525,36.51238,0.80679
446.995,24.8289,-1.04661,37.3005,0.80635
447.495,24.8436,-1.07783,38.09196,0.8059
447.995,24.85835,-1.10958,38.89813,0.80546
448.495,24.8731,-1.1425,39.67629,0.80501
448.995,24.88785,-1.17761,40.42777,0.80457
449.495,24.9026,-1.21165,41.18741,0.80413
449.995,24.9174,-1.25317,41.91274,0.80368
450.495,24.93211,-1.29567,42.61985,0.80324
450.995,24.94685,-1.35014,43.35564,0.80279
451.495,24.9616,-1.40599,44.02915,0.80235
451.995,24.97635,-1.43785,44.6593,0.80191
452.495,24.99115,-1.47312,45.27467,0.80146
452.995,25.00595,-1.51813,45.82647,0.80102
453.495,25.02084,-1.56383,46.36688,0.80057
453.995,25.03571,-1.60956,46.84643,0.80013
454.495,25.05056,-1.65592,47.30189,0.79969
454.995,25.06541,-1.70233,47.7328,0.79925
455.495,25.08026,-1.7491,48.10907,0.7988
455.995,25.095,-1.79619,48.45689,0.79836
456.495,25.10976,-1.84356,48.7327,0.79792
456.995,25.1246,-1.89224,48.9296,0.79747
457.495,25.13937,-1.94078,49.0692,0.79703
457.995,25.15415,-1.98931,49.13843,0.79659
458.495,25.16895,-2.03772,49.15495,0.79615
458.995,25.18371,-2.08588,49.13465,0.79571
459.495,25.19845,-2.13491,49.02811,0.79526
459.995,25.21319,-2.18425,48.85243,0.79482
460.495,25.22794,-2.23301,48.6625,0.79438
460.995,25.24267,-2.28147,48.36395,0.79394
461.495,25.25742,-2.32902,48.00588,0.7935
461.995,25.2722,-2.37634,47.66729,0.79306
462.495,25.2869,-2.42327,47.22943,0.79262
462.995,25.3017,-2.46931,46.73836,0.79218
463.495,25.31632,-2.51472,46.17508,0.79174
463.995,25.33088,-2.55919,45.56179,0.7913
464.495,25.34544,-2.60349,44.87415,0.79086
464.995,25.36006,-2.64766,44.16333,0.79042
465.495,25.3747,-2.69093,43.37805,0.78998
465.995,25.38939,-2.73341,42.59319,0.78954
466.495,25.40415,-2.77498,41.76533,0.7891
466.995,25.4189,-2.81559,40.89179,0.78866
467.495,25.43354,-2.85513,39.98637,0.78822
467.995,25.44813,-2.89328,39.07277,0.78778
468.495,25.46275,-2.93006,38.1263,0.78734
468.995,25.4773,-2.96541,37.199,0.7869
469.495,25.49188,-3.00428,36.25138,0.78646
469.995,25.5064,-3.03946,35.30475,0.78602
470.495,25.521,-3.07094,34.31389,0.78559
470.995,25.53547,-3.1051,33.3652,0.78515
471.495,25.54999,-3.13418,32.3851,0.78471
471.995,25.56455,-3.16272,31.4549,0.78427
472.495,25.57903,-3.18864,30.452,0.78383
472.995,25.59355,-3.21672,29.52781,0.7834
473.495,25.6081,-3.24382,28.5708,0.78296
473.995,25.62254,-3.26971,27.6563,0.78252
474.495,25.63701,-3.29459,26.73885,0.78209
474.995,25.65149,-3.3191,25.83802,0.78165
475.495,25.66595,-3.34341,24.97788,0.78121
475.995,25.68038,-3.36708,24.089,0.78078
476.495,25.6949,-3.38904,23.23555,0.78034
476.995,25.70935,-3.41043,22.3816,0.77991
477.495,25.72382,-3.43197,21.5423,0.77947
477.995,25.73824,-3.45444,20.76453,0.77903
478.495,25.7528,-3.47551,19.99069,0.7786
478.995,25.76716,-3.49408,19.22535,0.77816
479.495,25.78161,-3.51091,18.48325,0.77773
479.995,25.79607,-3.52643,17.77297,0.7773
480.495,25.81056,-3.54153,17.0877,0.77686
480.995,25.82499,-3.55654,16.41137,0.77643
481.495,25.83952,-3.57199,15.76845,0.77599
481.995,25.85399,-3.58725,15.1535,0.77556
482.495,25.8685,-3.60233,14.57899,0.77512
482.995,25.88297,-3.61681,13.9994,0.77469
483.495,25.89751,-3.63049,13.46468,0.77426
483.995,25.912,-3.64326,12.9566,0.77383
484.495,25.92655,-3.65486,12.44748,0.77339
484.995,25.94097,-3.66567,11.97751,0.77296
485.495,25.95545,-3.67622,11.51406,0.77253
485.995,25.97,-3.68643,11.07943,0.7721
486.495,25.98457,-3.69667,10.667,0.77166
486.995,25.9991,-3.70669,10.26248,0.77123
487.495,26.01386,-3.71575,9.88576,0.7708
487.995,26.02852,-3.72576,9.51274,0.77037
488.495,26.04306,-3.73518,9.17466,0.76994
488.995,26.05767,-3.74498,8.82923,0.76951
489.495,26.07232,-3.75349,8.50158,0.76908
489.995,26.08696,-3.7615,8.18523,0.76865
490.495,26.1016,-3.7694,7.87531,0.76821
490.995,26.11635,-3.77746,7.58801,0.76778
491.495,26.13105,-3.78507,7.30651,0.76736
491.995,26.1457,-3.79232,7.01851,0.76693
492.495,26.16038,-3.79939,6.7521,0.7665
492.995,26.1751,-3.8064,6.5091,0.76607
493.495,26.18974,-3.8137,6.24823,0.76564
493.995,26.2044,-3.82094,6.00642,0.76521
494.495,26.2191,-3.82731,5.77446,0.76478
494.995,26.23381,-3.83247,5.53211,0.76435
495.495,26.24853,-3.83679,5.31977,0.76392
495.995,26.2632,-3.84197,5.11721,0.7635
496.495,26.278,-3.84653,4.88846,0.76307
496.995,26.29275,-3.85254,4.67558,0.76264
497.495,26.3075,-3.85898,4.46861,0.76222
497.995,26.3223,-3.86408,4.26887,0.76179
498.495,26.3371,-3.86845,4.07235,0.76136
498.995,26.35185,-3.87234,3.87694,0.76094
499.495,26.3666,-3.87618,3.69219,0.76051
499.995,26.3814,-3.87963,3.5154,0.76008
500.495,26.39619,-3.88304,3.34395,0.75966
500.995,26.41102,-3.88653,3.16145,0.75923
501.495,26.42577,-3.88975,2.98929,0.75881
501.995,26.4406,-3.89204,2.83452,0.75838
502.495,26.45543,-3.89419,2.67035,0.75796
502.995,26.4702,-3.89704,2.52586,0.75753
503.495,26.48501,-3.89918,2.38219,0.75711
503.995,26.49987,-3.90096,2.23345,0.75669
504.495,26.5147,-3.90309,2.10503,0.75626
504.995,26.52957,-3.90511,1.96763,0.75584
505.495,26.5444,-3.90711,1.84019,0.75542
505.995,26.55922,-3.90948,1.72603,0.75499
506.495,26.57409,-3.91155,1.61143,0.75457
506.995,26.589,-3.91299,1.51363,0.75415
507.495,26.6038,-3.91339,1.3992,0.75372
507.995,26.61867,-3.91477,1.30113,0.7533
508.495,26.63358,-3.91562,1.21229,0.75288
508.995,26.64845,-3.91673,1.1289,0.75246
509.495,26.6633,-3.91782,1.04939,0.75204
509.995,26.6782,-3.91808,0.97053,0.75162
510.495,26.6931,-3.91809,0.90634,0.7512
510.995,26.70798,-3.9194,0.83945,0.75078
511.495,26.7229,-3.92106,0.76374,0.75036
511.995,26.73785,-3.92239,0.7341,0.74994
512.495,26.7527,-3.92245,0.67922,0.74952
512.995,26.76763,-3.92427,0.63897,0.7491
513.495,26.78255,-3.92328,0.5893,0.74868
513.995,26.7975,-3.92474,0.55042,0.74826
514.495,26.81242,-3.92467,0.51449,0.74784
514.995,26.82739,-3.92467,0.4855,0.74742
515.495,26.8423,-3.92467,0.44311,0.74701
515.995,26.8572,-3.92467,0.41965,0.74659
516.495,26.87214,-3.92467,0.39525,0.74617
516.995,26.887,-3.92505,0.38313,0.74575
517.495,26.902,-3.92749,0.35351,0.74534
517.995,26.91705,-3.92742,0.34044,0.74492
518.495,26.93202,-3.92741,0.30997,0.7445
518.995,26.947,-3.92741,0.29581,0.74409
519.495,26.962,-3.92741,0.28132,0.74367
519.995,26.977,-3.92741,0.26845,0.74326
520.495,26.99199,-3.92741,0.25556,0.74284
520.995,27.007,-3.92741,0.24479,0.74243
521.495,27.022,-3.92741,0.23632,0.74201
521.995,27.0371,-3.92741,0.2268,0.7416
522.495,27.0521,-3.92741,0.20911,0.74118
522.995,27.0671,-3.92743,0.19667,0.74077
523.495,27.08219,-3.92878,0.19962,0.74036
523.995,27.09725,-3.92873,0.18353,0.73994
524.495,27.11225,-3.92873,0.1745,0.73953
524.995,27.1273,-3.92874,0.17312,0.73912
525.495,27.14238,-3.92778,0.15363,0.73871
525.995,27.15738,-3.92742,0.1506,0.73829
526.495,27.17241,-3.92741,0.14808,0.73788
526.995,27.1875,-3.92741,0.14739,0.73747
527.495,27.20257,-3.92741,0.13192,0.73706
527.995,27.21765,-3.92741,0.12623,0.73665
528.495,27.2327,-3.92741,0.1082,0.73624
528.995,27.2478,-3.92741,0.11211,0.73583
529.495,27.26284,-3.92741,0.12472,0.73542
529.995,27.2779,-3.92742,0.12133,0.73501
530.495,27.293,-3.92802,0.10729,0.7346
530.995,27.3081,-3.92939,0.11834,0.73419
531.495,27.3232,-3.92915,0.09868552,0.73378
531.995,27.33827,-3.92793,0.11029,0.73337
532.495,27.35339,-3.92796,0.09883859,0.73296
532.995,27.3685,-3.92793,0.07605565,0.73256
533.495,27.3836,-3.92904,0.08709591,0.73215
533.995,27.3987,-3.92929,0.07522004,0.73174
534.495,27.41382,-3.92825,0.05757348,0.73133
534.995,27.42895,-3.92797,0.05652363,0.73093
535.495,27.4441,-3.92796,0.06056963,0.73052
535.995,27.4592,-3.92796,0.04060167,0.73011
536.495,27.47438,-3.92796,0.02919249,0.72971
536.995,27.4895,-3.92796,0.03046133,0.7293
537.495,27.5046,-3.92796,0.00662373,0.7289
537.995,27.5197,-3.92796,0.005239911,0.72849
538.495,27.53483,-3.92796,-0.004584258,0.72809
538.995,27.55,-3.92796,-0.01273018,0.72768
539.495,27.5651,-3.92791,-0.03219905,0.72728
539.995,27.58026,-3.92929,-0.03897603,0.72688
540.495,27.5954,-3.92928,-0.04216778,0.72647
540.995,27.6106,-3.92928,-0.05739996,0.72607
541.495,27.62572,-3.92928,-0.05501389,0.72567
541.995,27.6409,-3.92928,-0.05509221,0.72527
542.495,27.65612,-3.92915,-0.06637668,0.72486
542.995,27.6713,-3.92896,-0.07390924,0.72446
543.495,27.68655,-3.92895,-0.07994877,0.72406
543.995,27.70175,-3.92895,-0.09172248,0.72366
544.495,27.7169,-3.92895,-0.09860924,0.72326
544.995,27.7321,-3.92895,-0.10078,0.72286
545.495,27.7473,-3.92895,-0.09491813,0.72246
545.995,27.76245,-3.92896,-0.10294,0.72206
546.495,27.7777,-3.92933,-0.10435,0.72166
546.995,27.79294,-3.93028,-0.12088,0.72126
547.495,27.80815,-3.93027,-0.11923,0.72086
547.995,27.8234,-3.93027,-0.13086,0.72046
548.495,27.8386,-3.93027,-0.13502,0.72006
548.995,27.85383,-3.93027,-0.13712,0.71967
549.495,27.869,-3.93027,-0.14538,0.71927
549.995,27.8843,-3.93027,-0.15501,0.71887
550.495,27.8995,-3.93027,-0.1505,0.71847
550.995,27.91475,-3.93027,-0.15597,0.71808
551.495,27.93004,-3.93027,-0.15506,0.71768
551.995,27.9453,-3.93027,-0.16497,0.71729
552.495,27.96055,-3.93027,-0.17394,0.71689
552.995,27.97581,-3.93027,-0.16903,0.71649
553.495,27.99108,-3.93027,-0.17504,0.7161
553.995,28.00633,-3.93028,-0.17678,0.71571
554.495,28.02164,-3.9289,-0.18498,0.71531
554.995,28.03698,-3.92895,-0.19031,0.71492
555.495,28.05227,-3.92895,-0.18613,0.71452
555.995,28.0675,-3.92895,-0.18723,0.71413
556.495,28.08275,-3.92895,-0.19896,0.71374
556.995,28.098,-3.92895,-0.20273,0.71334
557.495,28.1132,-3.92895,-0.19238,0.71295
557.995,28.1285,-3.92895,-0.21145,0.71256
558.495,28.1438,-3.92895,-0.22474,0.71217
558.995,28.1591,-3.92895,-0.21724,0.71178
559.495,28.1744,-3.92895,-0.21508,0.71139
559.995,28.1898,-3.92893,-0.22309,0.711
560.495,28.205,-3.92978,-0.23501,0.71061
560.995,28.2203,-3.93026,-0.23771,0.71022
561.495,28.2356,-3.93025,-0.24138,0.70983
561.995,28.25098,-3.92989,-0.23528,0.70944
562.495,28.26632,-3.92894,-0.23695,0.70905
562.995,28.28163,-3.92809,-0.23955,0.70866
563.495,28.297,-3.92765,-0.23487,0.70827
563.995,28.3123,-3.92739,-0.2345,0.70788
564.495,28.32762,-3.92631,-0.24289,0.7075
564.995,28.34292,-3.92632,-0.23701,0.70711
565.495,28.35827,-3.92632,-0.24864,0.70672
565.995,28.37364,-3.92632,-0.24691,0.70634
566.495,28.389,-3.92633,-0.24158,0.70595
566.995,28.4043,-3.92669,-0.24033,0.70556
567.495,28.41971,-3.92764,-0.24362,0.70518
567.995,28.4351,-3.92764,-0.2414,0.70479
568.495,28.4504,-3.92764,-0.23358,0.70441
568.995,28.4658,-3.92764,-0.24993,0.70402
569.495,28.48123,-3.92764,-0.22942,0.70364
569.995,28.4966,-3.92764,-0.24258,0.70326
570.495,28.51202,-3.92764,-0.24691,0.70287
570.995,28.5274,-3.92764,-0.25016,0.70249
571.495,28.5428,-3.92764,-0.25117,0.70211
571.995,28.5582,-3.92759,-0.25675,0.70173
572.495,28.5736,-3.92896,-0.26205,0.70134
572.995,28.58907,-3.92895,-0.26719,0.70096
573.495,28.60452,-3.92895,-0.26997,0.70058
573.995,28.61993,-3.92863,-0.27238,0.7002
574.495,28.63537,-3.92762,-0.27958,0.69982
574.995,28.6508,-3.92764,-0.27295,0.69944
575.495,28.6662,-3.92764,-0.28091,0.69906
575.995,28.68168,-3.92766,-0.27842,0.69868
576.495,28.6972,-3.92728,-0.28066,0.6983
576.995,28.7126,-3.92731,-0.28584,0.69792
577.495,28.72808,-3.9273,-0.28539,0.69754
577.995,28.74356,-3.92799,-0.2888,0.69717
578.495,28.75902,-3.92862,-0.29264,0.69679
578.995,28.77445,-3.92818,-0.28172,0.69641
579.495,28.78993,-3.92763,-0.27714,0.69603
579.995,28.8054,-3.9285,-0.27762,0.69566
580.495,28.8208,-3.92896,-0.2749,0.69528
580.995,28.83633,-3.92793,-0.295,0.69491
581.495,28.85176,-3.92768,-0.29864,0.69453
581.995,28.8672,-3.92617,-0.28634,0.69416
582.495,28.8826,-3.92671,-0.29777,0.69378
582.995,28.89813,-3.92627,-0.2912,0.69341
583.495,28.9136,-3.92621,-0.30707,0.69303
583.995,28.9291,-3.92621,-0.29379,0.69266
584.495,28.9446,-3.92621,-0.29707,0.69229
584.995,28.96012,-3.92622,-0.30447,0.69191
585.495,28.9756,-3.92757,-0.29829,0.69154
585.995,28.99113,-3.92752,-0.30426,0.69117
586.495,29.00664,-3.92752,-0.30706,0.6908
586.995,29.0221,-3.92752,-0.31266,0.69043
587.495,29.0376,-3.92752,-0.32631,0.69005
587.995,29.0531,-3.92752,-0.31152,0.68968
588.495,29.0686,-3.92752,-0.31473,0.68931
588.995,29.0841,-3.92752,-0.33255,0.68894
589.495,29.09965,-3.92752,-0.32366,0.68857
589.995,29.1152,-3.92752,-0.32617,0.6882
590.495,29.13076,-3.92752,-0.33069,0.68784
590.995,29.1463,-3.92752,-0.32526,0.68747
591.495,29.16184,-3.92752,-0.33326,0.6871
591.995,29.17734,-3.92752,-0.32926,0.68673
592.495,29.1929,-3.92752,-0.35939,0.68636
592.995,29.20838,-3.92752,-0.34366,0.686
593.495,29.22395,-3.92752,-0.33463,0.68563
593.995,29.23953,-3.92752,-0.353,0.68526
594.495,29.2551,-3.92752,-0.36363,0.6849
594.995,29.2706,-3.92752,-0.35247,0.68453
595.495,29.28616,-3.92752,-0.37826,0.68417
595.995,29.30166,-3.92752,-0.37222,0.6838
596.495,29.31717,-3.92752,-0.36406,0.68344
596.995,29.33278,-3.92752,-0.3624,0.68308
597.495,29.34835,-3.92752,-0.36532,0.68271
597.995,29.36389,-3.92752,-0.3772,0.68235
598.495,29.37945,-3.92752,-0.37097,0.68199
598.995,29.39504,-3.92752,-0.36887,0.68162
599.495,29.41065,-3.92752,-0.38331,0.68126
599.995,29.42622,-3.92752,-0.38422,0.6809
600.495,29.4419,-3.92752,-0.36969,0.68054
600.995,29.45751,-3.92752,-0.37737,0.68018
601.495,29.47311,-3.92752,-0.38226,0.67982
601.995,29.4887,-3.92752,-0.39149,0.67946
602.495,29.50432,-3.92752,-0.38667,0.6791
602.995,29.5199,-3.92752,-0.39678,0.67874
603.495,29.53552,-3.92752,-0.40947,0.67838
603.995,29.55116,-3.92751,-0.40404,0.67802
604.495,29.5668,-3.92685,-0.4073,0.67766
604.995,29.5825,-3.92707,-0.41256,0.6773
605.495,29.5981,-3.9272,-0.40582,0.67695
605.995,29.61379,-3.9272,-0.40593,0.67659
606.495,29.6294,-3.9272,-0.41294,0.67623
606.995,29.6451,-3.92725,-0.42237,0.67588
607.495,29.6607,-3.92586,-0.43154,0.67552
607.995,29.6763,-3.9261,-0.42957,0.67517
608.495,29.6919,-3.92721,-0.43545,0.67481
608.995,29.7076,-3.92719,-0.43136,0.67446
609.495,29.72318,-3.92709,-0.4369,0.6741
609.995,29.73886,-3.92591,-0.43813,0.67375
610.495,29.75455,-3.92588,-0.42278,0.67339
610.995,29.77025,-3.92588,-0.43838,0.67304
611.495,29.78592,-3.92587,-0.42896,0.67269
611.995,29.8016,-3.92698,-0.43611,0.67233
612.495,29.81724,-3.92719,-0.42994,0.67198
612.995,29.8329,-3.92719,-0.44037,0.67163
613.495,29.84855,-3.92719,-0.42884,0.67128
613.995,29.8643,-3.92703,-0.44855,0.67093
614.495,29.87995,-3.92587,-0.438,0.67058
614.995,29.89562,-3.92587,-0.42833,0.67023
615.495,29.91133,-3.92587,-0.436,0.66988
615.995,29.92703,-3.92587,-0.4417,0.66953
616.495,29.94268,-3.92587,-0.43502,0.66918
616.995,29.95838,-3.92587,-0.44897,0.66883
617.495,29.9741,-3.92587,-0.43607,0.66848
617.995,29.98985,-3.92587,-0.44832,0.66814
618.295,29.99942,-3.92587,-0.44832,0.66793