File: 01_Data/HIPS/STA/N2/30K_min/HIPS_STA_N2_30KData_211022_R1.csv
##Temp./Â°C,Time/min,Mass loss(subtr.2)/mg,DSC(subtr.2)/(mW/mg),Sensit./(uV/mW)
49.529,10.00667,0.03324,-0.01948809,1.05401
50.029,10.9735,0.03740624,0.0102755,1.05402
50.529,11.18803,0.03577835,0.03414139,1.05403
51.029,11.33336,0.04299178,0.05103648,1.05404
51.529,11.44544,0.03557209,0.07130819,1.05405
52.029,11.53975,0.03786025,0.08519645,1.05405
52.529,11.62215,0.03783608,0.10337,1.05406
53.029,11.6944,0.04046187,0.11664,1.05406
53.529,11.76477,0.04083516,0.12861,1.05406
54.029,11.827,0.03608183,0.13992,1.05406
54.529,11.88449,0.03635271,0.15101,1.05406
55.029,11.9412,0.03722825,0.16098,1.05406
55.529,11.993,0.03758881,0.17524,1.05406
56.029,12.04423,0.03813023,0.18636,1.05405
56.529,12.09276,0.03788873,0.19574,1.05405
57.029,12.13899,0.04105513,0.20586,1.05404
57.529,12.18396,0.04440368,0.21256,1.05403
58.029,12.22792,0.04535653,0.22202,1.05402
58.529,12.27032,0.04100272,0.23175,1.05401
59.029,12.31133,0.03932698,0.23673,1.054
59.529,12.35158,0.03840951,0.24561,1.05399
60.029,12.3907,0.03693096,0.25192,1.05398
60.529,12.42932,0.0380652,0.25947,1.05396
61.029,12.46727,0.04000879,0.2698,1.05394
61.529,12.50411,0.03953557,0.27593,1.05393
62.029,12.5405,0.04113466,0.283,1.05391
62.529,12.57634,0.04230414,0.29058,1.05389
63.029,12.61182,0.04219971,0.2965,1.05387
63.529,12.64682,0.04000253,0.30038,1.05384
64.029,12.68117,0.03926356,0.30723,1.05382
64.529,12.715,0.04038803,0.31285,1.0538
65.029,12.74848,0.04044962,0.32018,1.05377
65.529,12.7816,0.04165581,0.32531,1.05374
66.029,12.8143,0.04266601,0.33164,1.05372
66.529,12.84648,0.04346244,0.33694,1.05369
67.029,12.87843,0.04120627,0.34165,1.05365
67.529,12.9102,0.0401698,0.34755,1.05362
68.029,12.94183,0.04026375,0.35423,1.05359
68.529,12.97297,0.04024829,0.35824,1.05356
69.029,13.0036,0.04126108,0.36325,1.05352
69.529,13.0341,0.04007873,0.36647,1.05348
70.029,13.06446,0.03828661,0.37173,1.05345
70.529,13.09463,0.03506724,0.37625,1.05341
71.029,13.1243,0.03496944,0.38084,1.05337
71.529,13.154,0.04440785,0.38851,1.05332
72.029,13.1835,0.04292491,0.38994,1.05328
72.529,13.21285,0.04095948,0.39664,1.05324
73.029,13.2419,0.0411783,0.39784,1.05319
73.529,13.2709,0.03799396,0.40158,1.05315
74.029,13.2996,0.03783112,0.40459,1.0531
74.529,13.32807,0.040657,0.40935,1.05305
75.029,13.35648,0.04251524,0.41213,1.053
75.529,13.38447,0.04353754,0.41787,1.05295
76.029,13.41231,0.04271853,0.42092,1.0529
76.529,13.44004,0.04233105,0.42401,1.05285
77.029,13.4676,0.04219603,0.42898,1.05279
77.529,13.49501,0.04326286,0.43257,1.05274
78.029,13.52201,0.04275985,0.43558,1.05268
78.529,13.54905,0.04222647,0.44193,1.05262
79.029,13.57594,0.04240433,0.44492,1.05256
79.529,13.60278,0.0419958,0.4501,1.0525
80.029,13.62931,0.04121101,0.45489,1.05244
80.529,13.6557,0.04054796,0.45915,1.05238
81.029,13.68175,0.04161031,0.46335,1.05231
81.529,13.70786,0.04235165,0.46763,1.05225
82.029,13.73366,0.04227761,0.47051,1.05218
82.529,13.7594,0.04261974,0.47349,1.05212
83.029,13.7848,0.04296487,0.4748,1.05205
83.529,13.81037,0.04272033,0.47589,1.05198
84.029,13.8357,0.04156068,0.47686,1.05191
84.529,13.86077,0.04054968,0.47604,1.05184
85.029,13.8856,0.03914425,0.47408,1.05176
85.529,13.91036,0.03924105,0.47553,1.05169
86.029,13.935,0.03953151,0.47203,1.05161
86.529,13.9596,0.04066373,0.47226,1.05154
87.029,13.98405,0.04210656,0.47295,1.05146
87.529,14.00815,0.04368122,0.47303,1.05138
88.029,14.0322,0.04292916,0.47591,1.0513
88.529,14.05596,0.0433634,0.47657,1.05122
89.029,14.0799,0.04190054,0.48014,1.05114
89.529,14.10355,0.04283354,0.48136,1.05106
90.029,14.12711,0.04325302,0.48227,1.05097
90.529,14.15051,0.0425795,0.48759,1.05089
91.029,14.17365,0.04155882,0.48841,1.0508
91.529,14.1967,0.03999458,0.49281,1.05071
92.029,14.21965,0.04040416,0.49768,1.05062
92.529,14.2425,0.04097726,0.49909,1.05053
93.029,14.26535,0.03992185,0.50284,1.05044
93.529,14.2881,0.03992452,0.50985,1.05035
94.029,14.31068,0.04156456,0.51239,1.05026
94.529,14.333,0.04087587,0.51888,1.05016
95.029,14.3551,0.04073674,0.52419,1.05007
95.529,14.3773,0.0427474,0.53126,1.04997
96.029,14.39957,0.04903101,0.53566,1.04987
96.529,14.4218,0.05105398,0.54138,1.04977
97.029,14.44394,0.04274149,0.54716,1.04967
97.529,14.46584,0.0363312,0.55084,1.04957
98.029,14.48761,0.03852642,0.55908,1.04947
98.529,14.509,0.0404898,0.56391,1.04937
99.029,14.5305,0.04183396,0.57047,1.04926
99.529,14.55194,0.04209284,0.57979,1.04915
100.029,14.57337,0.04410158,0.58816,1.04905
100.529,14.5946,0.044258,0.59327,1.04894
101.029,14.6157,0.0447581,0.60314,1.04883
101.529,14.637,0.04415822,0.61021,1.04872
102.029,14.65807,0.04381445,0.61767,1.04861
102.529,14.67905,0.04456768,0.6269,1.0485
103.029,14.6999,0.04453205,0.63254,1.04838
103.529,14.72047,0.04524902,0.64054,1.04827
104.029,14.7411,0.04584784,0.64909,1.04815
104.529,14.76171,0.04481709,0.6537,1.04804
105.029,14.78222,0.0442946,0.65923,1.04792
105.529,14.8027,0.04404643,0.66315,1.0478
106.029,14.8232,0.04399309,0.66528,1.04768
106.529,14.84343,0.0438632,0.66979,1.04756
107.029,14.8636,0.04296971,0.66998,1.04744
107.529,14.88384,0.04335383,0.67064,1.04732
108.029,14.90386,0.0426783,0.66809,1.04719
108.529,14.9239,0.04178069,0.67027,1.04707
109.029,14.94395,0.04136868,0.66712,1.04694
109.529,14.9639,0.04147141,0.66391,1.04681
110.029,14.9837,0.04148309,0.66397,1.04668
110.529,15.0035,0.04253782,0.65966,1.04655
111.029,15.0231,0.04254094,0.65328,1.04642
111.529,15.0428,0.04155842,0.65073,1.04629
112.029,15.0625,0.04279975,0.64729,1.04616
112.529,15.082,0.04273635,0.64312,1.04602
113.029,15.10154,0.04233497,0.64003,1.04589
113.529,15.12089,0.0429928,0.63738,1.04575
114.029,15.14025,0.04288699,0.63259,1.04562
114.529,15.15957,0.04229129,0.63117,1.04548
115.029,15.17883,0.04187362,0.63641,1.04534
115.529,15.19795,0.04225246,0.63835,1.0452
116.029,15.21701,0.04137665,0.64278,1.04506
116.529,15.23601,0.04197914,0.64769,1.04491
117.029,15.25501,0.0428839,0.652,1.04477
117.529,15.274,0.04287778,0.65344,1.04463
118.029,15.29299,0.04357884,0.65805,1.04448
118.529,15.3119,0.04283851,0.6638,1.04433
119.029,15.3306,0.04241096,0.66828,1.04419
119.529,15.3493,0.04172481,0.67309,1.04404
120.029,15.368,0.04126591,0.67665,1.04389
120.529,15.38672,0.04256084,0.68094,1.04374
121.029,15.4054,0.04233025,0.68583,1.04358
121.529,15.424,0.04120581,0.68866,1.04343
122.029,15.44251,0.04240977,0.69254,1.04328
122.529,15.46095,0.04256078,0.69703,1.04312
123.029,15.4793,0.04255787,0.69871,1.04297
123.529,15.49761,0.04175639,0.70354,1.04281
124.029,15.51596,0.042615,0.7064,1.04265
124.529,15.53411,0.04259739,0.70552,1.04249
125.029,15.55233,0.04412091,0.71222,1.04233
125.529,15.57036,0.04420975,0.71616,1.04217
126.029,15.5884,0.04518213,0.71949,1.04201
126.529,15.6065,0.04712916,0.72473,1.04185
127.029,15.62454,0.05163342,0.72933,1.04168
127.529,15.6426,0.05467471,0.7279,1.04152
128.029,15.6606,0.05065825,0.72903,1.04135
128.529,15.67855,0.04344547,0.73188,1.04118
129.029,15.69636,0.0374927,0.73239,1.04101
129.529,15.7141,0.03777333,0.73863,1.04084
130.029,15.7319,0.03971744,0.73835,1.04067
130.529,15.74949,0.0422438,0.74199,1.0405
131.029,15.7671,0.04345245,0.74489,1.04033
131.529,15.78478,0.04492979,0.7477,1.04016
132.029,15.8024,0.04374911,0.7531,1.03998
132.529,15.82,0.04377,0.75141,1.03981
133.029,15.8376,0.04392598,0.75483,1.03963
133.529,15.85503,0.04510578,0.75904,1.03945
134.029,15.87241,0.045058,0.75988,1.03927
134.529,15.88975,0.04645196,0.76072,1.0391
135.029,15.9071,0.04639453,0.7621,1.03891
135.529,15.9244,0.04761641,0.76669,1.03873
136.029,15.94178,0.04635575,0.7694,1.03855
136.529,15.959,0.0464121,0.7701,1.03837
137.029,15.9763,0.04515884,0.77375,1.03818
137.529,15.9935,0.04497205,0.7741,1.038
138.029,16.0107,0.04385342,0.77967,1.03781
138.529,16.0278,0.04367405,0.78001,1.03762
139.029,16.0449,0.04236706,0.78247,1.03743
139.529,16.06189,0.04225297,0.78635,1.03725
140.029,16.0788,0.04095071,0.78805,1.03706
140.529,16.0957,0.04227762,0.7896,1.03686
141.029,16.1126,0.04224416,0.79247,1.03667
141.529,16.12945,0.04164795,0.79345,1.03648
142.029,16.14637,0.04223299,0.79587,1.03628
142.529,16.16321,0.04287624,0.79679,1.03609
143.029,16.18009,0.04354962,0.80053,1.03589
143.529,16.19693,0.04355101,0.80328,1.0357
144.029,16.2137,0.04354321,0.8058,1.0355
144.529,16.23043,0.04534855,0.80507,1.0353
145.029,16.24718,0.04617952,0.80819,1.0351
145.529,16.26376,0.0461881,0.80842,1.0349
146.029,16.2803,0.04652213,0.81112,1.03469
146.529,16.2969,0.04590429,0.8127,1.03449
147.029,16.31345,0.04562002,0.81635,1.03429
147.529,16.32995,0.04462221,0.81751,1.03408
148.029,16.34654,0.04464,0.81967,1.03388
148.529,16.36307,0.04462343,0.82233,1.03367
149.029,16.3794,0.04557193,0.82678,1.03346
149.529,16.39563,0.04600894,0.82739,1.03325
150.029,16.412,0.04677512,0.83187,1.03304
150.529,16.42834,0.04573344,0.83143,1.03283
151.029,16.4448,0.04682441,0.83401,1.03262
151.529,16.46123,0.0458394,0.83665,1.03241
152.029,16.47757,0.04586608,0.83782,1.0322
152.529,16.4938,0.04470118,0.83922,1.03198
153.029,16.50998,0.04431345,0.84027,1.03177
153.529,16.5262,0.04429129,0.84539,1.03155
154.029,16.54241,0.04568175,0.8458,1.03133
154.529,16.55866,0.04563146,0.84924,1.03111
155.029,16.57486,0.0456305,0.85146,1.0309
155.529,16.5911,0.04564732,0.85342,1.03068
156.029,16.60725,0.04633423,0.85574,1.03045
156.529,16.62334,0.04766868,0.85502,1.03023
157.029,16.6395,0.04792805,0.85916,1.03001
157.529,16.65546,0.047927,0.86356,1.02979
158.029,16.67142,0.04774205,0.86306,1.02956
158.529,16.68733,0.04660354,0.86434,1.02934
159.029,16.70336,0.04687502,0.86687,1.02911
159.529,16.71937,0.04793939,0.86912,1.02888
160.029,16.73538,0.04787487,0.87106,1.02865
160.529,16.75134,0.04667071,0.87557,1.02843
161.029,16.76738,0.04662353,0.87468,1.0282
161.529,16.78327,0.04602816,0.87906,1.02796
162.029,16.7991,0.04637253,0.87942,1.02773
162.529,16.81493,0.04590518,0.8822,1.0275
163.029,16.83071,0.04484862,0.8844,1.02727
163.529,16.8464,0.04486885,0.88587,1.02703
164.029,16.86218,0.04432527,0.88781,1.0268
164.529,16.87794,0.04461157,0.89194,1.02656
165.029,16.89365,0.04692501,0.89438,1.02632
165.529,16.9094,0.05100603,0.89739,1.02608
166.029,16.92513,0.05360037,0.90041,1.02584
166.529,16.94081,0.04961162,0.90261,1.0256
167.029,16.9565,0.04488142,0.90432,1.02536
167.529,16.97221,0.04116431,0.9049,1.02512
168.029,16.98787,0.04025832,0.90825,1.02488
168.529,17.00348,0.0417068,0.90797,1.02464
169.029,17.0191,0.04182795,0.91036,1.02439
169.529,17.03448,0.04322045,0.91165,1.02415
170.029,17.04982,0.04477052,0.91398,1.0239
170.529,17.06535,0.044061,0.91623,1.02365
171.029,17.08084,0.04523748,0.91883,1.0234
171.529,17.09636,0.0451968,0.92094,1.02316
172.029,17.11202,0.04520605,0.92419,1.02291
172.529,17.1276,0.04413334,0.92478,1.02266
173.029,17.1431,0.04364983,0.92752,1.0224
173.529,17.15844,0.04253584,0.92928,1.02215
174.029,17.17385,0.0425604,0.93113,1.0219
174.529,17.18921,0.04256007,0.93112,1.02165
175.029,17.2045,0.04256,0.93485,1.02139
175.529,17.2198,0.04255999,0.93835,1.02113
176.029,17.2351,0.04256276,0.93882,1.02088
176.529,17.2504,0.04268866,0.94191,1.02062
177.029,17.26577,0.04386147,0.94342,1.02036
177.529,17.2811,0.04388099,0.94836,1.0201
178.029,17.2964,0.04388088,0.94914,1.01984
178.529,17.31166,0.04389121,0.95026,1.01958
179.029,17.32688,0.04457066,0.95419,1.01932
179.529,17.342,0.04530986,0.95594,1.01906
180.029,17.35715,0.04540712,0.95932,1.01879
180.529,17.3723,0.04561287,0.96048,1.01853
181.029,17.3874,0.04668173,0.96155,1.01827
181.529,17.4025,0.04694595,0.96432,1.018
182.029,17.41763,0.04696845,0.96618,1.01773
182.529,17.43275,0.04601188,0.96811,1.01747
183.029,17.4478,0.04563384,0.97157,1.0172
183.529,17.46278,0.04563345,0.97239,1.01693
184.029,17.47775,0.04568194,0.97366,1.01666
184.529,17.49271,0.04434357,0.97513,1.01639
185.029,17.50769,0.04429235,0.97623,1.01612
185.529,17.52269,0.04529505,0.97952,1.01584
186.029,17.53773,0.04562037,0.98165,1.01557
186.529,17.55269,0.04562982,0.98116,1.0153
187.029,17.56766,0.04563012,0.98514,1.01502
187.529,17.5825,0.04563388,0.98636,1.01474
188.029,17.59742,0.0457772,0.9868,1.01447
188.529,17.61222,0.04692563,0.9914,1.01419
189.029,17.627,0.04695053,0.99174,1.01391
189.529,17.64188,0.04696079,0.99578,1.01363
190.029,17.65669,0.04628721,0.99577,1.01335
190.529,17.67149,0.04561934,0.99741,1.01307
191.029,17.68628,0.04562987,0.99993,1.01279
191.529,17.70109,0.04562973,0.9998,1.01251
192.029,17.71583,0.04562044,1.00405,1.01223
192.529,17.73055,0.04532477,1.00568,1.01194
193.029,17.7453,0.04419497,1.00714,1.01166
193.529,17.75998,0.04453041,1.00774,1.01137
194.029,17.77467,0.04352864,1.01253,1.01109
194.529,17.78935,0.04353898,1.0128,1.0108
195.029,17.80406,0.04353981,1.01498,1.01051
195.529,17.81871,0.04353853,1.01619,1.01022
196.029,17.8334,0.04354123,1.01905,1.00993
196.529,17.84804,0.04421546,1.02047,1.00964
197.029,17.86269,0.04400336,1.02288,1.00935
197.529,17.8773,0.04286552,1.02498,1.00906
198.029,17.89186,0.04339507,1.02575,1.00877
198.529,17.90643,0.04388097,1.0284,1.00848
199.029,17.92096,0.04387979,1.03118,1.00818
199.529,17.93534,0.04387998,1.033,1.00789
200.029,17.94985,0.04388,1.03385,1.00759
200.529,17.9644,0.04388,1.03705,1.00729
201.029,17.9789,0.04388,1.03874,1.007
201.529,17.99345,0.04388,1.04044,1.0067
202.029,18.00812,0.04388,1.04144,1.0064
202.529,18.02264,0.04388,1.04328,1.0061
203.029,18.03714,0.04388,1.04641,1.0058
203.529,18.05162,0.04388,1.04778,1.0055
204.029,18.06607,0.04388,1.05151,1.0052
204.529,18.0805,0.04388,1.05329,1.0049
205.029,18.09497,0.04388,1.05366,1.00459
205.529,18.1094,0.0438801,1.0576,1.00429
206.029,18.1238,0.04388166,1.05764,1.00399
206.529,18.13822,0.04402768,1.05927,1.00368
207.029,18.1526,0.04520966,1.06375,1.00337
207.529,18.167,0.04518949,1.06481,1.00307
208.029,18.18135,0.04518702,1.06916,1.00276
208.529,18.1957,0.04510353,1.0708,1.00245
209.029,18.21004,0.04480013,1.06914,1.00214
209.529,18.22439,0.04496271,1.07101,1.00183
210.029,18.23875,0.04496582,1.0738,1.00152
210.529,18.2531,0.04466112,1.07376,1.00121
211.029,18.26742,0.04363979,1.07611,1.0009
211.529,18.28184,0.04364878,1.07848,1.00059
212.029,18.2962,0.043651,1.08097,1.00027
212.529,18.3106,0.04366795,1.08254,0.99996
213.029,18.32491,0.04283603,1.08576,0.99964
213.529,18.33921,0.04233587,1.08781,0.99933
214.029,18.3535,0.04234,1.08797,0.99901
214.529,18.36776,0.0423341,1.08931,0.9987
215.029,18.38194,0.04285505,1.0894,0.99838
215.529,18.39614,0.04366474,1.09538,0.99806
216.029,18.41039,0.04360046,1.09666,0.99774
216.529,18.42461,0.04483035,1.09751,0.99742
217.029,18.43885,0.04496542,1.0967,0.9971
217.529,18.4531,0.04496994,1.10116,0.99678
218.029,18.46735,0.04497001,1.10072,0.99646
218.529,18.48153,0.04497,1.10433,0.99613
219.029,18.4957,0.04497,1.10437,0.99581
219.529,18.50989,0.04497,1.10667,0.99549
220.029,18.52404,0.04497,1.10904,0.99516
220.529,18.53821,0.04497,1.1093,0.99484
221.029,18.55242,0.04497,1.11248,0.99451
221.529,18.56661,0.04497,1.11332,0.99418
222.029,18.58077,0.04497002,1.11352,0.99386
222.529,18.59495,0.04497065,1.11679,0.99353
223.029,18.60909,0.04498387,1.11801,0.9932
223.529,18.62322,0.04432248,1.11862,0.99287
224.029,18.6373,0.04363832,1.12006,0.99254
224.529,18.65145,0.04369322,1.12341,0.99221
225.029,18.66556,0.04221162,1.12416,0.99188
225.529,18.67971,0.04212147,1.12495,0.99155
226.029,18.6938,0.04211985,1.12819,0.99121
226.529,18.70794,0.04211998,1.13037,0.99088
227.029,18.722,0.04212,1.13144,0.99054
227.529,18.7361,0.04211998,1.13298,0.99021
228.029,18.75013,0.04211965,1.13366,0.98987
228.529,18.76415,0.04211488,1.13519,0.98954
229.029,18.7781,0.04193061,1.13625,0.9892
229.529,18.79223,0.04083375,1.13946,0.98886
230.029,18.80631,0.04141612,1.1379,0.98853
230.529,18.82038,0.04211573,1.14109,0.98819
231.029,18.8344,0.04211929,1.14196,0.98785
231.529,18.84861,0.04211992,1.14409,0.98751
232.029,18.86259,0.04211987,1.14533,0.98717
232.529,18.8766,0.04211801,1.14696,0.98683
233.029,18.8906,0.04209035,1.14927,0.98648
233.529,18.90464,0.04258568,1.15098,0.98614
234.029,18.91858,0.04221489,1.15286,0.9858
234.529,18.93255,0.04222944,1.15342,0.98545
235.029,18.94655,0.04222999,1.15355,0.98511
235.529,18.96056,0.04223,1.15646,0.98476
236.029,18.97457,0.04223,1.1571,0.98442
236.529,18.9885,0.04223001,1.1577,0.98407
237.029,19.00253,0.0422302,1.16097,0.98372
237.529,19.01645,0.04223329,1.16227,0.98338
238.029,19.03041,0.0422801,1.16266,0.98303
238.529,19.04433,0.04108531,1.16671,0.98268
239.029,19.05827,0.04092723,1.1662,0.98233
239.529,19.07222,0.04092022,1.16801,0.98198
240.029,19.08614,0.04091926,1.16724,0.98163
240.529,19.10004,0.04267981,1.16904,0.98128
241.029,19.11392,0.04385936,1.17038,0.98093
241.529,19.12782,0.04386827,1.1715,0.98057
242.029,19.14173,0.04385992,1.17486,0.98022
242.529,19.15558,0.044415,1.17644,0.97987
243.029,19.1694,0.04519803,1.17767,0.97951
243.529,19.18334,0.04493187,1.17769,0.97916
244.029,19.19725,0.04383728,1.17942,0.9788
244.529,19.21112,0.04387748,1.17976,0.97845
245.029,19.22502,0.04387987,1.1812,0.97809
245.529,19.23899,0.04388,1.18249,0.97773
246.029,19.25282,0.04388,1.18163,0.97737
246.529,19.2667,0.04388,1.18335,0.97701
247.029,19.28051,0.04388001,1.18856,0.97666
247.529,19.29434,0.04388034,1.18921,0.9763
248.029,19.3082,0.04388747,1.18882,0.97594
248.529,19.32205,0.04404106,1.18909,0.97557
249.029,19.33587,0.04488942,1.1917,0.97521
249.529,19.34972,0.04491741,1.19274,0.97485
250.029,19.36359,0.04378691,1.194,0.97449
250.529,19.37742,0.04356069,1.1952,0.97413
251.029,19.39125,0.04355063,1.19654,0.97376
251.529,19.40506,0.04355003,1.19743,0.9734
252.029,19.4189,0.04355,1.19594,0.97303
252.529,19.4327,0.04355001,1.19816,0.97267
253.029,19.44649,0.04355003,1.20178,0.9723
253.529,19.4603,0.04354924,1.20376,0.97193
254.029,19.47409,0.04351957,1.2027,0.97157
254.529,19.48789,0.041378,1.20368,0.9712
255.029,19.50168,0.0409193,1.20602,0.97083
255.529,19.51543,0.04091072,1.20629,0.97046
256.029,19.52917,0.04091005,1.20544,0.97009
256.529,19.54296,0.04090992,1.20897,0.96972
257.029,19.55677,0.0409087,1.20999,0.96935
257.529,19.5705,0.04089094,1.21122,0.96898
258.029,19.58434,0.04167552,1.2113,0.96861
258.529,19.59812,0.04224056,1.21408,0.96824
259.029,19.61187,0.04222635,1.21584,0.96786
259.529,19.6256,0.04198489,1.21571,0.96749
260.029,19.63935,0.04092292,1.21254,0.96712
260.529,19.65308,0.04091112,1.21672,0.96674
261.029,19.6668,0.04090204,1.21746,0.96637
261.529,19.68059,0.03956656,1.21802,0.96599
262.029,19.69426,0.03958405,1.21958,0.96562
262.529,19.70798,0.03951117,1.22128,0.96524
263.029,19.7217,0.03822565,1.222,0.96486
263.529,19.7354,0.03813488,1.22221,0.96449
264.029,19.74908,0.0369189,1.22402,0.96411
264.529,19.7628,0.0369664,1.22614,0.96373
265.029,19.77659,0.03696975,1.22288,0.96335
265.529,19.79029,0.03696998,1.22803,0.96297
266.029,19.80399,0.03697,1.22745,0.96259
266.529,19.81769,0.03697,1.22837,0.96221
267.029,19.83137,0.03697001,1.2295,0.96183
267.529,19.845,0.03697009,1.23283,0.96145
268.029,19.85865,0.03697111,1.23045,0.96107
268.529,19.8723,0.03698288,1.23368,0.96068
269.029,19.88598,0.03604099,1.23414,0.9603
269.529,19.89968,0.03564844,1.23617,0.95992
270.029,19.91337,0.03565001,1.23547,0.95953
270.529,19.92708,0.03564986,1.23717,0.95915
271.029,19.94081,0.03564575,1.2362,0.95876
271.529,19.9545,0.03608984,1.23791,0.95838
272.029,19.9682,0.03697555,1.23843,0.95799
272.529,19.98188,0.03696117,1.24096,0.95761
273.029,19.99554,0.03695942,1.23887,0.95722
273.529,20.00917,0.03694938,1.24196,0.95683
274.029,20.02282,0.03674548,1.23992,0.95644
274.529,20.03642,0.03550692,1.24149,0.95605
275.029,20.0501,0.03459998,1.24391,0.95567
275.529,20.0637,0.03465595,1.24233,0.95528
276.029,20.07734,0.03465973,1.24308,0.95489
276.529,20.09095,0.03465998,1.24685,0.9545
277.029,20.10462,0.03466,1.2447,0.95411
277.529,20.11834,0.03466002,1.24741,0.95371
278.029,20.132,0.03466025,1.24798,0.95332
278.529,20.14569,0.03466291,1.24971,0.95293
279.029,20.15934,0.03493105,1.24988,0.95254
279.529,20.17295,0.03564186,1.25063,0.95214
280.029,20.18656,0.0350034,1.25113,0.95175
280.529,20.2002,0.03433222,1.25083,0.95136
281.029,20.21375,0.03432244,1.25149,0.95096
281.529,20.22726,0.03329194,1.25351,0.95057
282.029,20.24083,0.03302402,1.25166,0.95017
282.529,20.2544,0.0322172,1.25229,0.94978
283.029,20.2679,0.03160442,1.25251,0.94938
283.529,20.2814,0.03161227,1.25483,0.94898
284.029,20.29515,0.03070571,1.25343,0.94859
284.529,20.30892,0.03028053,1.25417,0.94819
285.029,20.32268,0.0301939,1.25707,0.94779
285.529,20.33645,0.02908462,1.25187,0.94739
286.029,20.35025,0.02924384,1.25588,0.94699
286.529,20.36392,0.03044069,1.25455,0.94659
287.029,20.37754,0.03037419,1.25518,0.94619
287.529,20.39114,0.03117108,1.25504,0.94579
288.029,20.40476,0.03170566,1.25666,0.94539
288.529,20.41834,0.03149687,1.25899,0.94499
289.029,20.43196,0.03041136,1.25739,0.94459
289.529,20.44559,0.03038155,1.25686,0.94419
290.029,20.4592,0.03038004,1.25797,0.94379
290.529,20.47283,0.03037962,1.25821,0.94338
291.029,20.48651,0.03037814,1.25821,0.94298
291.529,20.50009,0.0297082,1.25749,0.94258
292.029,20.51369,0.02906404,1.25869,0.94217
292.529,20.5273,0.02906047,1.25809,0.94177
293.029,20.54092,0.02906005,1.25964,0.94136
293.529,20.5545,0.02906,1.25996,0.94096
294.029,20.56814,0.02905984,1.2603,0.94055
294.529,20.58181,0.02905712,1.25916,0.94015
295.029,20.59545,0.02900177,1.26187,0.93974
295.529,20.609,0.02787369,1.26023,0.93933
296.029,20.62275,0.02764844,1.2608,0.93893
296.529,20.63635,0.02764059,1.25928,0.93852
297.029,20.64994,0.02764004,1.26053,0.93811
297.529,20.6635,0.02764001,1.25915,0.9377
298.029,20.67716,0.0276401,1.25962,0.93729
298.529,20.69071,0.0276414,1.25802,0.93688
299.029,20.7043,0.02765928,1.26025,0.93648
299.529,20.7179,0.02685782,1.25895,0.93607
300.029,20.7315,0.02600185,1.25938,0.93565
300.529,20.7451,0.02492846,1.25937,0.93524
301.029,20.75865,0.02490254,1.26055,0.93483
301.529,20.7723,0.02540866,1.25905,0.93442
302.029,20.78586,0.02633443,1.26086,0.93401
302.529,20.79945,0.02632208,1.26138,0.9336
303.029,20.81312,0.02632837,1.26053,0.93318
303.529,20.8267,0.02489635,1.25876,0.93277
304.029,20.84038,0.02489247,1.25991,0.93236
304.529,20.85398,0.02388105,1.25916,0.93195
305.029,20.86758,0.02392058,1.25859,0.93153
305.529,20.88118,0.0231031,1.25823,0.93112
306.029,20.89481,0.02260356,1.2577,0.9307
306.529,20.9084,0.0226202,1.25787,0.93029
307.029,20.922,0.02174189,1.25739,0.92987
307.529,20.9356,0.02244668,1.25724,0.92946
308.029,20.9492,0.02259866,1.25776,0.92904
308.529,20.96276,0.02264213,1.25836,0.92862
309.029,20.97635,0.02157825,1.25782,0.92821
309.529,20.98994,0.02129636,1.25904,0.92779
310.029,21.00355,0.0213279,1.26041,0.92737
310.529,21.0171,0.02011326,1.2596,0.92695
311.029,21.0307,0.01988124,1.25975,0.92654
311.529,21.04437,0.01906893,1.26141,0.92612
312.029,21.058,0.01812405,1.25951,0.9257
312.529,21.07159,0.01708069,1.25945,0.92528
313.029,21.08517,0.01717054,1.26242,0.92486
313.529,21.09881,0.01499765,1.26147,0.92444
314.029,21.11236,0.01436527,1.26456,0.92402
314.529,21.12595,0.01436976,1.25974,0.9236
315.029,21.1396,0.01436999,1.26144,0.92318
315.529,21.15318,0.01436999,1.26206,0.92276
316.029,21.16677,0.0143701,1.26047,0.92234
316.529,21.18036,0.01437494,1.26329,0.92191
317.029,21.1939,0.01363502,1.2634,0.92149
317.529,21.2075,0.01307204,1.26214,0.92107
318.029,21.22108,0.01262077,1.26277,0.92065
318.529,21.23467,0.01149236,1.26333,0.92022
319.029,21.24829,0.011417,1.26165,0.9198
319.529,21.26192,0.01020005,1.26319,0.91938
320.029,21.27553,0.01133523,1.26012,0.91895
320.529,21.28916,0.01150458,1.26138,0.91853
321.029,21.30281,0.0115097,1.25933,0.9181
321.529,21.31642,0.01151124,1.25837,0.91768
322.029,21.33004,0.01152863,1.25996,0.91725
322.529,21.34362,0.0108361,1.26125,0.91683
323.029,21.3572,0.0100644,1.25975,0.9164
323.529,21.3708,0.01008735,1.26017,0.91598
324.029,21.38436,0.01007676,1.26082,0.91555
324.529,21.39798,0.009689468,1.25841,0.91512
325.029,21.4116,0.008624316,1.25777,0.9147
325.529,21.42524,0.008455141,1.25945,0.91427
326.029,21.4389,0.00705341,1.25774,0.91384
326.529,21.4526,0.00704604,1.25863,0.91341
327.029,21.46622,0.00551372,1.25808,0.91299
327.529,21.47983,0.005481484,1.25709,0.91256
328.029,21.49341,0.005816743,1.25466,0.91213
328.529,21.50704,0.00644275,1.25163,0.9117
329.029,21.52066,0.005471274,1.2519,0.91127
329.529,21.53424,0.005479229,1.25325,0.91084
330.029,21.54782,0.005480411,1.24936,0.91041
330.529,21.56145,0.005488459,1.24921,0.90998
331.029,21.575,0.00499983,1.24783,0.90955
331.529,21.58863,0.0036423,1.25018,0.90912
332.029,21.6022,0.002704749,1.24491,0.90869
332.529,21.61573,0.00267736,1.2437,0.90826
333.029,21.6293,0.001404956,1.24598,0.90783
333.529,21.6429,0.001223508,1.24303,0.9074
334.029,21.65652,0.0005602293,1.24175,0.90696
334.529,21.67012,-0.0001386641,1.2406,0.90653
335.029,21.68386,0.000767846,1.23747,0.9061
335.529,21.69761,0.00204114,1.2365,0.90567
336.029,21.7113,0.00343842,1.23464,0.90524
336.529,21.72493,0.003273467,1.2374,0.9048
337.029,21.73859,0.0009305058,1.23464,0.90437
337.529,21.75224,-0.002591785,1.23343,0.90394
338.029,21.76589,-0.005014891,1.23355,0.9035
338.529,21.77954,-0.005906179,1.23442,0.90307
339.029,21.79318,-0.007658609,1.23255,0.90263
339.529,21.8068,-0.00767101,1.23071,0.9022
340.029,21.8205,-0.007680785,1.2288,0.90176
340.529,21.8342,-0.007699515,1.22759,0.90133
341.029,21.84786,-0.008003295,1.22709,0.90089
341.529,21.86151,-0.007998599,1.22637,0.90046
342.029,21.87518,-0.007971043,1.22162,0.90002
342.529,21.88888,-0.008931608,1.22044,0.89959
343.029,21.9025,-0.00931549,1.21746,0.89915
343.529,21.91623,-0.009520525,1.21657,0.89872
344.029,21.92991,-0.01133967,1.21557,0.89828
344.529,21.9436,-0.01198112,1.21239,0.89784
345.029,21.95724,-0.01197476,1.21017,0.89741
345.529,21.97087,-0.01110302,1.2084,0.89697
346.029,21.98449,-0.01171512,1.20593,0.89653
346.529,21.99813,-0.01189452,1.20173,0.89609
347.029,22.0118,-0.01334536,1.20141,0.89566
347.529,22.02542,-0.0134718,1.20149,0.89522
348.029,22.0391,-0.01457749,1.19657,0.89478
348.529,22.0528,-0.01512667,1.19148,0.89434
349.029,22.0665,-0.01621263,1.19034,0.8939
349.529,22.08022,-0.01666865,1.18751,0.89347
350.029,22.09394,-0.016669,1.18544,0.89303
350.529,22.1077,-0.01664916,1.18305,0.89259
351.029,22.12146,-0.01480129,1.17843,0.89215
351.529,22.13518,-0.01291861,1.17573,0.89171
352.029,22.1489,-0.01169723,1.17497,0.89127
352.529,22.16263,-0.01085342,1.17468,0.89083
353.029,22.17628,-0.01379596,1.17131,0.89039
353.529,22.18993,-0.01944622,1.17239,0.88995
354.029,22.20358,-0.02554018,1.16726,0.88951
354.529,22.2173,-0.02900058,1.16781,0.88907
355.029,22.2309,-0.0282545,1.16454,0.88863
355.529,22.24464,-0.02654697,1.16065,0.88819
356.029,22.25839,-0.0242145,1.15788,0.88775
356.529,22.2722,-0.02300186,1.15539,0.8873
357.029,22.28585,-0.02215032,1.15079,0.88686
357.529,22.29956,-0.02216372,1.1478,0.88642
358.029,22.3133,-0.02281551,1.14551,0.88598
358.529,22.32704,-0.02332587,1.13982,0.88554
359.029,22.3408,-0.02326014,1.13971,0.8851
359.529,22.35453,-0.02410616,1.13236,0.88465
360.029,22.36834,-0.02463372,1.13382,0.88421
360.529,22.3821,-0.02570604,1.13086,0.88377
361.029,22.39585,-0.02586206,1.12587,0.88333
361.529,22.40958,-0.02750822,1.12307,0.88288
362.029,22.42334,-0.02753328,1.12015,0.88244
362.529,22.43712,-0.02865357,1.11695,0.882
363.029,22.45084,-0.02873628,1.11064,0.88155
363.529,22.4646,-0.02874063,1.10846,0.88111
364.029,22.4784,-0.02875087,1.10603,0.88067
364.529,22.49212,-0.02923205,1.10048,0.88022
365.029,22.5059,-0.03030607,1.09795,0.87978
365.529,22.51969,-0.03119117,1.09516,0.87934
366.029,22.53346,-0.03311934,1.089,0.87889
366.529,22.54723,-0.03350532,1.08618,0.87845
367.029,22.56105,-0.03468096,1.08492,0.878
367.529,22.57486,-0.03469941,1.08117,0.87756
368.029,22.58869,-0.03582737,1.07854,0.87711
368.529,22.6025,-0.03607544,1.07342,0.87667
369.029,22.61635,-0.03616497,1.06955,0.87622
369.529,22.63014,-0.03748226,1.06497,0.87578
370.029,22.6439,-0.0377518,1.06173,0.87533
370.529,22.6577,-0.03931241,1.05606,0.87489
371.029,22.67149,-0.0407142,1.05219,0.87444
371.529,22.68528,-0.04207178,1.04818,0.874
372.029,22.69912,-0.04211878,1.04462,0.87355
372.529,22.71296,-0.04212464,1.04201,0.87311
373.029,22.72672,-0.04278519,1.03811,0.87266
373.529,22.7405,-0.04230581,1.03416,0.87221
374.029,22.7543,-0.04324578,1.0269,0.87177
374.529,22.76815,-0.04396311,1.02721,0.87132
375.029,22.78195,-0.04398167,1.02206,0.87088
375.529,22.7958,-0.04405012,1.01931,0.87043
376.029,22.8097,-0.04517599,1.01335,0.86998
376.529,22.82369,-0.04524238,1.01047,0.86954
377.029,22.8375,-0.04677308,1.00845,0.86909
377.529,22.85138,-0.0472064,1.00318,0.86864
378.029,22.86523,-0.04875658,1.00157,0.8682
378.529,22.8791,-0.04933973,0.99747,0.86775
379.029,22.89299,-0.05034554,0.99657,0.8673
379.529,22.90686,-0.0503489,0.99062,0.86685
380.029,22.9207,-0.05168466,0.98965,0.86641
380.529,22.93461,-0.05158648,0.98694,0.86596
381.029,22.94849,-0.05031118,0.98097,0.86551
381.529,22.96238,-0.05052924,0.97872,0.86506
382.029,22.97628,-0.05109977,0.97699,0.86462
382.529,22.99022,-0.05029744,0.97902,0.86417
383.029,23.00415,-0.05170541,0.97516,0.86372
383.529,23.0181,-0.0525587,0.97101,0.86327
384.029,23.032,-0.05513686,0.97043,0.86283
384.529,23.04574,-0.05634299,0.97058,0.86238
385.029,23.05951,-0.05713351,0.97144,0.86193
385.529,23.07331,-0.05879782,0.96692,0.86148
386.029,23.08704,-0.05981267,0.966,0.86103
386.529,23.10095,-0.0601027,0.96574,0.86058
387.029,23.115,-0.06060247,0.9649,0.86014
387.529,23.1291,-0.0616556,0.96279,0.85969
388.029,23.14315,-0.06232374,0.96352,0.85924
388.529,23.1572,-0.06320728,0.96437,0.85879
389.029,23.17125,-0.06335111,0.96449,0.85834
389.529,23.1852,-0.06467064,0.96373,0.85789
390.029,23.19914,-0.06532239,0.96297,0.85744
390.529,23.21312,-0.0666874,0.96414,0.857
391.029,23.22711,-0.06869518,0.96785,0.85655
391.529,23.24105,-0.06911089,0.96759,0.8561
392.029,23.255,-0.07042859,0.97052,0.85565
392.529,23.269,-0.0716309,0.97319,0.8552
393.029,23.28296,-0.07246387,0.97714,0.85475
393.529,23.29693,-0.07441931,0.97497,0.8543
394.029,23.31092,-0.07565644,0.98016,0.85385
394.529,23.3249,-0.07584263,0.98509,0.8534
395.029,23.33892,-0.07716795,0.98428,0.85295
395.529,23.35295,-0.07811297,0.9906,0.85251
396.029,23.36693,-0.08086471,0.99629,0.85206
396.529,23.38093,-0.08380387,1.0003,0.85161
397.029,23.39493,-0.08522756,1.00399,0.85116
397.529,23.4089,-0.08611419,1.01207,0.85071
398.029,23.42298,-0.08693757,1.01601,0.85026
398.529,23.43704,-0.08761168,1.0219,0.84981
399.029,23.4511,-0.08937125,1.0282,0.84936
399.529,23.46511,-0.09102112,1.03611,0.84891
400.029,23.47915,-0.0937593,1.04491,0.84846
400.529,23.49316,-0.09639023,1.05506,0.84801
401.029,23.5072,-0.09935965,1.06494,0.84756
401.529,23.52121,-0.1023,1.07354,0.84711
402.029,23.53529,-0.10337,1.08274,0.84666
402.529,23.54932,-0.10413,1.09408,0.84621
403.029,23.56338,-0.10564,1.10641,0.84576
403.529,23.57745,-0.10708,1.11691,0.84531
404.029,23.5915,-0.10886,1.13221,0.84486
404.529,23.60559,-0.11059,1.14275,0.84441
405.029,23.61966,-0.11251,1.1579,0.84396
405.529,23.63375,-0.11466,1.17494,0.84352
406.029,23.64782,-0.11649,1.19008,0.84307
406.529,23.66191,-0.11887,1.2016,0.84262
407.029,23.6761,-0.12015,1.21935,0.84217
407.529,23.6902,-0.12188,1.23417,0.84172
408.029,23.70429,-0.12387,1.25412,0.84127
408.529,23.71838,-0.12545,1.27137,0.84082
409.029,23.7325,-0.12589,1.29166,0.84037
409.529,23.74654,-0.12811,1.31138,0.83992
410.029,23.76065,-0.12964,1.33366,0.83947
410.529,23.7747,-0.13248,1.35396,0.83902
411.029,23.78884,-0.13525,1.37784,0.83857
411.529,23.803,-0.13933,1.39805,0.83812
412.029,23.8171,-0.14122,1.42363,0.83767
412.529,23.83125,-0.1426,1.44826,0.83722
413.029,23.84543,-0.14468,1.47436,0.83677
413.529,23.8596,-0.14735,1.49926,0.83632
414.029,23.87373,-0.14911,1.52763,0.83587
414.529,23.88788,-0.15112,1.56152,0.83542
415.029,23.90204,-0.15377,1.59354,0.83497
415.529,23.9162,-0.15674,1.6268,0.83452
416.029,23.93039,-0.16027,1.65839,0.83407
416.529,23.94463,-0.16429,1.69278,0.83362
417.029,23.9588,-0.16777,1.72611,0.83317
417.529,23.97296,-0.17044,1.76326,0.83273
418.029,23.98716,-0.17398,1.80489,0.83228
418.529,24.00131,-0.17808,1.84342,0.83183
419.029,24.01546,-0.18252,1.88822,0.83138
419.529,24.02964,-0.18712,1.93256,0.83093
420.029,24.0439,-0.19093,1.97815,0.83048
420.529,24.05808,-0.19479,2.02363,0.83003
421.029,24.0723,-0.19932,2.07178,0.82958
421.529,24.0866,-0.20366,2.12096,0.82913
422.029,24.10079,-0.20788,2.17729,0.82868
422.529,24.11502,-0.21229,2.23146,0.82823
423.029,24.12929,-0.21747,2.29087,0.82778
423.529,24.1435,-0.22361,2.3507,0.82734
424.029,24.1578,-0.23074,2.41355,0.82689
424.529,24.17209,-0.23616,2.47908,0.82644
425.029,24.1864,-0.24101,2.5467,0.82599
425.529,24.20065,-0.24581,2.61632,0.82554
426.029,24.21497,-0.25078,2.69161,0.82509
426.529,24.22926,-0.25677,2.7655,0.82464
427.029,24.24354,-0.26346,2.84384,0.82419
427.529,24.25786,-0.27006,2.92719,0.82375
428.029,24.2722,-0.27693,3.0121,0.8233
428.529,24.28649,-0.28431,3.10333,0.82285
429.029,24.30077,-0.29196,3.1912,0.8224
429.529,24.31513,-0.29963,3.28922,0.82195
430.029,24.32939,-0.30721,3.38577,0.82151
430.529,24.34378,-0.31556,3.49235,0.82106
431.029,24.35814,-0.32544,3.60129,0.82061
431.529,24.37254,-0.33633,3.71226,0.82016
432.029,24.38691,-0.34688,3.82958,0.81971
432.529,24.40136,-0.35684,3.94546,0.81927
433.029,24.41572,-0.36677,4.0704,0.81882
433.529,24.43008,-0.37778,4.1948,0.81837
434.029,24.44445,-0.39086,4.32619,0.81792
434.529,24.45879,-0.4035,4.46468,0.81748
435.029,24.47319,-0.41581,4.60514,0.81703
435.529,24.48761,-0.42851,4.75549,0.81658
436.029,24.5021,-0.44176,4.90752,0.81613
436.529,24.51661,-0.4562,5.07294,0.81569
437.029,24.53112,-0.47165,5.23649,0.81524
437.529,24.54563,-0.48718,5.39917,0.81479
438.029,24.56018,-0.50379,5.56499,0.81435
438.529,24.5747,-0.52168,5.73731,0.8139
439.029,24.58919,-0.54035,5.91247,0.81345
439.529,24.60376,-0.55939,6.08753,0.81301
440.029,24.61829,-0.57829,6.28864,0.81256
440.529,24.6328,-0.5972,6.48345,0.81211
441.029,24.64736,-0.61676,6.67063,0.81167
441.529,24.66197,-0.6385,6.86154,0.81122
442.029,24.67655,-0.66214,7.06236,0.81077
442.529,24.69114,-0.68688,7.25925,0.81033
443.029,24.70577,-0.71238,7.46233,0.80988
443.529,24.72041,-0.73757,7.67439,0.80944
444.029,24.73505,-0.76245,7.88254,0.80899
444.529,24.74973,-0.78696,8.0928,0.80854
445.029,24.76442,-0.81382,8.30405,0.8081
445.529,24.77911,-0.84299,8.51096,0.80765
446.029,24.7938,-0.87454,8.71573,0.80721
446.529,24.80844,-0.90618,8.92431,0.80676
447.029,24.8231,-0.93831,9.14196,0.80632
447.529,24.83782,-0.97182,9.35689,0.80587
448.029,24.85254,-1.00701,9.56605,0.80543
448.529,24.8673,-1.04242,9.76855,0.80498
449.029,24.88208,-1.07882,9.96102,0.80454
449.529,24.89684,-1.12042,10.15483,0.8041
450.029,24.91155,-1.17021,10.33244,0.80365
450.529,24.92628,-1.22849,10.4998,0.80321
451.029,24.941,-1.25905,10.6656,0.80276
451.529,24.95572,-1.29293,10.81905,0.80232
452.029,24.97048,-1.33525,10.97059,0.80187
452.529,24.98528,-1.38076,11.11428,0.80143
453.029,25.00004,-1.42451,11.25517,0.80099
453.529,25.0149,-1.46866,11.37803,0.80054
454.029,25.02969,-1.51332,11.48627,0.8001
454.529,25.04449,-1.55842,11.58438,0.79966
455.029,25.0593,-1.6038,11.67002,0.79921
455.529,25.07416,-1.64696,11.7435,0.79877
456.029,25.08894,-1.68953,11.8035,0.79833
456.529,25.10375,-1.73502,11.84953,0.79789
457.029,25.11854,-1.78595,11.8857,0.79744
457.529,25.13332,-1.85857,11.90483,0.797
458.029,25.14808,-1.90861,11.907,0.79656
458.529,25.1629,-1.95596,11.8982,0.79612
459.029,25.17762,-1.99983,11.86929,0.79568
459.529,25.19241,-2.03292,11.82364,0.79523
460.029,25.20719,-2.0701,11.7578,0.79479
460.529,25.22194,-2.13895,11.68062,0.79435
461.029,25.2366,-2.18439,11.59521,0.79391
461.529,25.2514,-2.22931,11.49296,0.79347
462.029,25.26613,-2.27401,11.36842,0.79303
462.529,25.2808,-2.31901,11.22598,0.79259
463.029,25.29549,-2.36345,11.07209,0.79215
463.529,25.31021,-2.40683,10.9077,0.79171
464.029,25.32488,-2.44449,10.73315,0.79127
464.529,25.3395,-2.47631,10.5493,0.79083
465.029,25.35412,-2.51398,10.35489,0.79039
465.529,25.3688,-2.55803,10.1532,0.78995
466.029,25.38339,-2.59691,9.93935,0.78951
466.529,25.39801,-2.63249,9.72762,0.78907
467.029,25.4126,-2.67189,9.50354,0.78863
467.529,25.4272,-2.71029,9.28072,0.78819
468.029,25.4418,-2.74493,9.05239,0.78775
468.529,25.45634,-2.7784,8.81686,0.78731
469.029,25.4709,-2.81509,8.57724,0.78687
469.529,25.4854,-2.84898,8.34126,0.78643
470.029,25.49994,-2.88429,8.10106,0.78599
470.529,25.51444,-2.90994,7.86606,0.78556
471.029,25.52893,-2.93636,7.62728,0.78512
471.529,25.54342,-2.96298,7.38861,0.78468
472.029,25.55786,-2.98911,7.15358,0.78424
472.529,25.5724,-3.01453,6.92168,0.78381
473.029,25.58685,-3.04006,6.69395,0.78337
473.529,25.60136,-3.06546,6.46512,0.78293
474.029,25.61585,-3.09055,6.24317,0.78249
474.529,25.6304,-3.11456,6.02193,0.78206
475.029,25.64484,-3.1371,5.80694,0.78162
475.529,25.65932,-3.15854,5.59731,0.78118
476.029,25.6738,-3.17895,5.38912,0.78075
476.529,25.68824,-3.1999,5.18762,0.78031
477.029,25.70269,-3.22013,4.9936,0.77988
477.529,25.71718,-3.23886,4.79767,0.77944
478.029,25.73169,-3.25696,4.61338,0.77901
478.529,25.7462,-3.27425,4.43221,0.77857
479.029,25.7607,-3.29112,4.26038,0.77813
479.529,25.77515,-3.30802,4.09191,0.7777
480.029,25.7896,-3.32419,3.92681,0.77727
480.529,25.80402,-3.33934,3.76989,0.77683
481.029,25.81849,-3.35381,3.61529,0.7764
481.529,25.83296,-3.36744,3.47283,0.77596
482.029,25.8475,-3.38007,3.33087,0.77553
482.529,25.8621,-3.39206,3.19264,0.7751
483.029,25.87664,-3.40392,3.06273,0.77466
483.529,25.8912,-3.41566,2.93639,0.77423
484.029,25.9057,-3.42694,2.81654,0.7738
484.529,25.92024,-3.43808,2.70068,0.77336
485.029,25.93478,-3.44956,2.593,0.77293
485.529,25.94933,-3.46142,2.48844,0.7725
486.029,25.96388,-3.47252,2.38406,0.77207
486.529,25.9785,-3.48237,2.28678,0.77163
487.029,25.99306,-3.4905,2.19285,0.7712
487.529,26.00767,-3.49722,2.1038,0.77077
488.029,26.0223,-3.50498,2.0204,0.77034
488.529,26.03696,-3.5132,1.93771,0.76991
489.029,26.0516,-3.5218,1.85348,0.76948
489.529,26.06624,-3.53045,1.7806,0.76905
490.029,26.08087,-3.53866,1.7083,0.76862
490.529,26.09548,-3.54683,1.63349,0.76819
491.029,26.11016,-3.55435,1.56642,0.76776
491.529,26.12484,-3.56148,1.50481,0.76733
492.029,26.1396,-3.5666,1.43939,0.7669
492.529,26.15427,-3.57166,1.37859,0.76647
493.029,26.169,-3.57712,1.31933,0.76604
493.529,26.18366,-3.58319,1.26262,0.76561
494.029,26.19835,-3.59016,1.20686,0.76518
494.529,26.21312,-3.59587,1.15092,0.76475
495.029,26.2279,-3.60122,1.09916,0.76432
495.529,26.24261,-3.60616,1.04635,0.7639
496.029,26.2574,-3.61133,0.99539,0.76347
496.529,26.27223,-3.61648,0.94514,0.76304
497.029,26.2869,-3.62125,0.89721,0.76261
497.529,26.3017,-3.62501,0.8499,0.76219
498.029,26.3165,-3.62825,0.80638,0.76176
498.529,26.33132,-3.63155,0.76044,0.76133
499.029,26.34613,-3.63528,0.71657,0.76091
499.529,26.36095,-3.64039,0.67214,0.76048
500.029,26.37578,-3.64486,0.62894,0.76005
500.529,26.3906,-3.64709,0.58805,0.75963
501.029,26.40537,-3.64848,0.54811,0.7592
501.529,26.42018,-3.65061,0.51021,0.75878
502.029,26.435,-3.65537,0.47294,0.75835
502.529,26.4499,-3.65872,0.43509,0.75793
503.029,26.46472,-3.66119,0.39944,0.7575
503.529,26.4796,-3.66337,0.36599,0.75708
504.029,26.49448,-3.6652,0.32692,0.75666
504.529,26.5093,-3.66699,0.29689,0.75623
505.029,26.52415,-3.66919,0.26223,0.75581
505.529,26.53905,-3.67125,0.23329,0.75539
506.029,26.55392,-3.67264,0.20138,0.75496
506.529,26.56878,-3.67443,0.17013,0.75454
507.029,26.5837,-3.67592,0.14532,0.75412
507.529,26.59856,-3.67796,0.12125,0.7537
508.029,26.61342,-3.68019,0.09178701,0.75327
508.529,26.62828,-3.68171,0.06944859,0.75285
509.029,26.6431,-3.68204,0.04764373,0.75243
509.529,26.658,-3.68204,0.02352312,0.75201
510.029,26.67285,-3.68214,0.003668087,0.75159
510.529,26.68778,-3.68375,-0.01407982,0.75117
511.029,26.7027,-3.68371,-0.03332908,0.75075
511.529,26.71755,-3.6837,-0.04978572,0.75033
512.029,26.7325,-3.6837,-0.06169903,0.74991
512.529,26.74752,-3.68372,-0.07715086,0.74949
513.029,26.7625,-3.68486,-0.0927495,0.74907
513.529,26.7774,-3.68626,-0.10639,0.74865
514.029,26.7924,-3.68698,-0.11743,0.74823
514.529,26.80735,-3.68775,-0.12725,0.74781
515.029,26.8223,-3.68776,-0.132,0.7474
515.529,26.83728,-3.68773,-0.14344,0.74698
516.029,26.85228,-3.68839,-0.15062,0.74656
516.529,26.86723,-3.68844,-0.15888,0.74614
517.029,26.8822,-3.68874,-0.16643,0.74573
517.529,26.89712,-3.68905,-0.17315,0.74531
518.029,26.91208,-3.69007,-0.18101,0.74489
518.529,26.92703,-3.69005,-0.18406,0.74448
519.029,26.94202,-3.68954,-0.19196,0.74406
519.529,26.95703,-3.68872,-0.19631,0.74364
520.029,26.97203,-3.68874,-0.19672,0.74323
520.529,26.98702,-3.69044,-0.20182,0.74281
521.029,27.0021,-3.69071,-0.20343,0.7424
521.529,27.01708,-3.69071,-0.2093,0.74198
522.029,27.03207,-3.69075,-0.21305,0.74157
522.529,27.04712,-3.68938,-0.21484,0.74116
523.029,27.06212,-3.6894,-0.21997,0.74074
523.529,27.077,-3.6894,-0.22188,0.74033
524.029,27.092,-3.68962,-0.22404,0.73992
524.529,27.10705,-3.69074,-0.2232,0.7395
525.029,27.12207,-3.69135,-0.22817,0.73909
525.529,27.13713,-3.69135,-0.22938,0.73868
526.029,27.1523,-3.6923,-0.2332,0.73827
526.529,27.1674,-3.69135,-0.23389,0.73785
527.029,27.18245,-3.69138,-0.23102,0.73744
527.529,27.1975,-3.69137,-0.23752,0.73703
528.029,27.2126,-3.69111,-0.23877,0.73662
528.529,27.22762,-3.69005,-0.2422,0.73621
529.029,27.2427,-3.68947,-0.24544,0.7358
529.529,27.2578,-3.68873,-0.24565,0.73539
530.029,27.2729,-3.68874,-0.24466,0.73498
530.529,27.28807,-3.68871,-0.24769,0.73457
531.029,27.30322,-3.68749,-0.24897,0.73416
531.529,27.3183,-3.68872,-0.2535,0.73375
532.029,27.33339,-3.68885,-0.25478,0.73334
532.529,27.34845,-3.68885,-0.25726,0.73294
533.029,27.3635,-3.68885,-0.26714,0.73253
533.529,27.3786,-3.68885,-0.26995,0.73212
534.029,27.3937,-3.68885,-0.27333,0.73171
534.529,27.40875,-3.68885,-0.27734,0.73131
535.029,27.4238,-3.6889,-0.27957,0.7309
535.529,27.4388,-3.68761,-0.27919,0.73049
536.029,27.45395,-3.68754,-0.28153,0.73009
536.529,27.469,-3.68754,-0.28497,0.72968
537.029,27.48413,-3.68754,-0.28637,0.72928
537.529,27.4993,-3.68754,-0.28587,0.72887
538.029,27.5145,-3.68754,-0.28981,0.72847
538.529,27.5296,-3.68754,-0.2908,0.72806
539.029,27.5447,-3.68754,-0.29775,0.72766
539.529,27.55988,-3.68754,-0.29613,0.72725
540.029,27.5751,-3.68758,-0.29862,0.72685
540.529,27.59023,-3.68858,-0.29689,0.72645
541.029,27.6054,-3.68853,-0.3006,0.72604
541.529,27.6206,-3.68853,-0.30749,0.72564
542.029,27.6358,-3.68853,-0.307,0.72524
542.529,27.65093,-3.68853,-0.30983,0.72484
543.029,27.6661,-3.68853,-0.31242,0.72443
543.529,27.6813,-3.68852,-0.31062,0.72403
544.029,27.69646,-3.68829,-0.31438,0.72363
544.529,27.71162,-3.68718,-0.31639,0.72323
545.029,27.7268,-3.68721,-0.31887,0.72283
545.529,27.742,-3.68726,-0.31686,0.72243
546.029,27.7572,-3.6885,-0.317,0.72203
546.529,27.7724,-3.68837,-0.31918,0.72163
547.029,27.78758,-3.68798,-0.3211,0.72123
547.529,27.80278,-3.68798,-0.32185,0.72083
548.029,27.8179,-3.68798,-0.32505,0.72043
548.529,27.8332,-3.68798,-0.32848,0.72004
549.029,27.84842,-3.68801,-0.32778,0.71964
549.529,27.86366,-3.68689,-0.32788,0.71924
550.029,27.8789,-3.68666,-0.33074,0.71884
550.529,27.89416,-3.68666,-0.32773,0.71845
551.029,27.9094,-3.68666,-0.33035,0.71805
551.529,27.9245,-3.68666,-0.33249,0.71765
552.029,27.9398,-3.68666,-0.33322,0.71726
552.529,27.95497,-3.68666,-0.33703,0.71686
553.029,27.97018,-3.68664,-0.3369,0.71647
553.529,27.98542,-3.6861,-0.3394,0.71607
554.029,28.00068,-3.68596,-0.33987,0.71568
554.529,28.0159,-3.68407,-0.34507,0.71528
555.029,28.0312,-3.68252,-0.34342,0.71489
555.529,28.0464,-3.68164,-0.348,0.7145
556.029,28.0617,-3.68201,-0.34749,0.7141
556.529,28.077,-3.68194,-0.34555,0.71371
557.029,28.0922,-3.68194,-0.34825,0.71332
557.529,28.10753,-3.68193,-0.34461,0.71293
558.029,28.12283,-3.6833,-0.34588,0.71253
558.529,28.13816,-3.68438,-0.34461,0.71214
559.029,28.1534,-3.6849,-0.34744,0.71175
559.529,28.1687,-3.68665,-0.34727,0.71136
560.029,28.1839,-3.68727,-0.34777,0.71097
560.529,28.1991,-3.68786,-0.34761,0.71058
561.029,28.21425,-3.68786,-0.34825,0.71019
561.529,28.22955,-3.68769,-0.34773,0.7098
562.029,28.24488,-3.68533,-0.35051,0.70941
562.529,28.2603,-3.68524,-0.34475,0.70902
563.029,28.27576,-3.68524,-0.34499,0.70863
563.529,28.29128,-3.68524,-0.35233,0.70825
564.029,28.30661,-3.68524,-0.34546,0.70786
564.529,28.322,-3.68524,-0.34762,0.70747
565.029,28.33731,-3.68524,-0.34482,0.70708
565.529,28.35264,-3.68524,-0.3485,0.7067
566.029,28.36797,-3.68525,-0.34685,0.70631
566.529,28.3833,-3.68471,-0.34947,0.70592
567.029,28.3987,-3.68458,-0.34955,0.70554
567.529,28.41403,-3.68458,-0.34597,0.70515
568.029,28.42939,-3.68458,-0.34895,0.70477
568.529,28.4448,-3.68458,-0.34783,0.70438
569.029,28.46019,-3.68458,-0.34918,0.704
569.529,28.4756,-3.68458,-0.3478,0.70361
570.029,28.491,-3.68456,-0.34383,0.70323
570.529,28.5064,-3.68555,-0.3462,0.70285
571.029,28.5219,-3.6859,-0.34755,0.70246
571.529,28.53728,-3.6859,-0.34903,0.70208
572.029,28.5527,-3.6859,-0.35076,0.7017
572.529,28.56812,-3.68587,-0.3519,0.70132
573.029,28.58352,-3.68468,-0.34855,0.70094
573.529,28.5989,-3.68458,-0.35048,0.70056
574.029,28.61422,-3.68458,-0.35198,0.70017
574.529,28.62965,-3.6845,-0.35112,0.69979
575.029,28.6451,-3.6831,-0.35213,0.69941
575.529,28.66045,-3.68302,-0.35519,0.69903
576.029,28.6759,-3.68142,-0.35299,0.69865
576.529,28.69145,-3.68148,-0.35297,0.69828
577.029,28.70685,-3.68083,-0.35381,0.6979
577.529,28.7223,-3.6802,-0.35389,0.69752
578.029,28.7377,-3.68019,-0.35374,0.69714
578.529,28.7531,-3.68019,-0.3574,0.69676
579.029,28.76854,-3.68019,-0.35887,0.69639
579.529,28.784,-3.6802,-0.35597,0.69601
580.029,28.79945,-3.68048,-0.35565,0.69563
580.529,28.8149,-3.68163,-0.35334,0.69526
581.029,28.83042,-3.68237,-0.35707,0.69488
581.529,28.84589,-3.68315,-0.35667,0.69451
582.029,28.86137,-3.68438,-0.35908,0.69413
582.529,28.8769,-3.68468,-0.35842,0.69376
583.029,28.89238,-3.68469,-0.35949,0.69338
583.529,28.90786,-3.68469,-0.35867,0.69301
584.029,28.92339,-3.68469,-0.35967,0.69263
584.529,28.93893,-3.68469,-0.36203,0.69226
585.029,28.95435,-3.68469,-0.36118,0.69189
585.529,28.96981,-3.68469,-0.36525,0.69152
586.029,28.9853,-3.68473,-0.36217,0.69114
586.529,29.00083,-3.68334,-0.36019,0.69077
587.029,29.01633,-3.68336,-0.36268,0.6904
587.529,29.0319,-3.68333,-0.36128,0.69003
588.029,29.0475,-3.68472,-0.36386,0.68966
588.529,29.06308,-3.68468,-0.3638,0.68929
589.029,29.0786,-3.68422,-0.36098,0.68892
589.529,29.0941,-3.68317,-0.36487,0.68855
590.029,29.1096,-3.68249,-0.36357,0.68818
590.529,29.1251,-3.68171,-0.36297,0.68781
591.029,29.14068,-3.68074,-0.36275,0.68744
591.529,29.1562,-3.68073,-0.36434,0.68707
592.029,29.1718,-3.68073,-0.3649,0.68671
592.529,29.18735,-3.68073,-0.36497,0.68634
593.029,29.2029,-3.68073,-0.36479,0.68597
593.529,29.2185,-3.68073,-0.36732,0.68561
594.029,29.2341,-3.68073,-0.37002,0.68524
594.529,29.2496,-3.68135,-0.3685,0.68487
595.029,29.26527,-3.68206,-0.37142,0.68451
595.529,29.2809,-3.68205,-0.37477,0.68414
596.029,29.2965,-3.68205,-0.37358,0.68378
596.529,29.3121,-3.68228,-0.37454,0.68341
597.029,29.3277,-3.68338,-0.37347,0.68305
597.529,29.34324,-3.68337,-0.37322,0.68269
598.029,29.35885,-3.68337,-0.37451,0.68232
598.529,29.3744,-3.68337,-0.37582,0.68196
599.029,29.39,-3.68337,-0.37603,0.6816
599.529,29.4056,-3.68338,-0.37938,0.68124
600.029,29.4212,-3.68216,-0.38119,0.68088
600.529,29.4368,-3.6819,-0.38022,0.68051
601.029,29.45242,-3.67947,-0.38065,0.68015
601.529,29.4681,-3.67898,-0.38143,0.67979
602.029,29.4837,-3.67898,-0.38402,0.67943
602.529,29.4993,-3.67898,-0.38514,0.67907
603.029,29.5147,-3.67898,-0.38505,0.67871
603.529,29.53022,-3.67898,-0.38457,0.67835
604.029,29.5458,-3.67897,-0.38664,0.678
604.529,29.5615,-3.68008,-0.38786,0.67764
605.029,29.57718,-3.68029,-0.39034,0.67728
605.529,29.593,-3.68029,-0.38947,0.67692
606.029,29.60868,-3.68029,-0.38636,0.67657
606.529,29.6243,-3.68031,-0.39247,0.67621
607.029,29.63992,-3.68094,-0.39308,0.67585
607.529,29.65558,-3.68128,-0.39475,0.6755
608.029,29.6712,-3.68128,-0.39531,0.67514
608.529,29.68686,-3.68128,-0.39592,0.67479
609.029,29.70253,-3.6807,-0.39626,0.67443
609.529,29.71823,-3.67996,-0.39796,0.67408
610.029,29.73388,-3.67997,-0.39722,0.67372
610.529,29.7496,-3.67997,-0.39875,0.67337
611.029,29.7653,-3.67999,-0.3988,0.67302
611.529,29.7808,-3.67891,-0.39953,0.67266
612.029,29.79648,-3.67866,-0.39883,0.67231
612.529,29.8122,-3.67866,-0.40115,0.67196
613.029,29.82795,-3.67872,-0.40478,0.67161
613.529,29.84367,-3.68109,-0.4006,0.67126
614.029,29.85946,-3.68128,-0.40457,0.6709
614.529,29.87515,-3.68128,-0.40518,0.67055
615.029,29.8909,-3.68123,-0.40807,0.6702
615.529,29.9066,-3.68107,-0.40566,0.66985
616.029,29.9223,-3.68107,-0.40595,0.66951
616.529,29.93804,-3.68107,-0.40598,0.66916
617.029,29.9538,-3.68107,-0.40286,0.66881
617.529,29.9695,-3.68047,-0.40689,0.66846
618.029,29.98524,-3.67974,-0.40737,0.66811
618.429,29.9978,-3.67975,-0.40536,0.66783