File: 01_Data/HIPS/STA/N2/30K_min/HIPS_STA_N2_30KData_211022_R3.csv
##Temp./Â°C,Time/min,Mass loss(subtr.2)/mg,DSC(subtr.2)/(mW/mg),Sensit./(uV/mW)
49.539,10.00583,-0.02446,0.0023292,1.05401
50.039,10.9741,-0.02525414,0.02945413,1.05402
50.539,11.18402,-0.02745917,0.05220914,1.05403
51.039,11.3263,-0.02799937,0.07016801,1.05404
51.539,11.443,-0.02839101,0.08986372,1.05405
52.039,11.5363,-0.02703483,0.10772,1.05405
52.539,11.62094,-0.02621085,0.12588,1.05406
53.039,11.69525,-0.02691107,0.14012,1.05406
53.539,11.7624,-0.02835482,0.15315,1.05406
54.039,11.82612,-0.02866565,0.16704,1.05406
54.539,11.88255,-0.02697639,0.18057,1.05406
55.039,11.94024,-0.02649562,0.1921,1.05406
55.539,11.99318,-0.02812056,0.20456,1.05406
56.039,12.0436,-0.02796581,0.21566,1.05405
56.539,12.09178,-0.02805963,0.2279,1.05405
57.039,12.138,-0.02725862,0.23711,1.05404
57.539,12.18272,-0.02665306,0.24655,1.05403
58.039,12.22676,-0.02707019,0.25611,1.05402
58.539,12.26912,-0.02885634,0.2662,1.05401
59.039,12.3104,-0.02782844,0.27611,1.054
59.539,12.35058,-0.02759382,0.28432,1.05399
60.039,12.38997,-0.02807331,0.29031,1.05398
60.539,12.42872,-0.02854272,0.29984,1.05396
61.039,12.46649,-0.02737615,0.307,1.05394
61.539,12.50353,-0.02708216,0.31601,1.05393
62.039,12.54006,-0.02738748,0.32289,1.05391
62.539,12.57606,-0.02747636,0.33152,1.05389
63.039,12.6114,-0.02809208,0.33749,1.05387
63.539,12.64583,-0.02785053,0.34424,1.05384
64.039,12.68018,-0.02818853,0.35127,1.05382
64.539,12.71424,-0.02831086,0.35827,1.0538
65.039,12.74775,-0.02803575,0.36358,1.05377
65.539,12.78065,-0.02860375,0.37029,1.05374
66.039,12.8135,-0.02751145,0.37867,1.05371
66.539,12.84566,-0.02689658,0.38518,1.05368
67.039,12.87756,-0.02837004,0.39129,1.05365
67.539,12.9094,-0.02782288,0.39759,1.05362
68.039,12.94094,-0.02703533,0.40268,1.05359
68.539,12.97204,-0.02861626,0.40966,1.05355
69.039,13.0031,-0.02856925,0.41572,1.05352
69.539,13.03387,-0.02789784,0.42001,1.05348
70.039,13.0642,-0.02745242,0.42528,1.05344
70.539,13.09423,-0.0290209,0.4328,1.05341
71.039,13.12398,-0.02885699,0.43713,1.05337
71.539,13.1536,-0.02849369,0.44217,1.05332
72.039,13.18319,-0.02753366,0.44712,1.05328
72.539,13.2124,-0.02807163,0.45182,1.05324
73.039,13.2416,-0.02909114,0.45771,1.05319
73.539,13.27019,-0.02920214,0.46216,1.05315
74.039,13.2988,-0.02915192,0.46534,1.0531
74.539,13.3273,-0.0293892,0.47235,1.05305
75.039,13.3553,-0.02912666,0.47393,1.053
75.539,13.3834,-0.02805972,0.47627,1.05295
76.039,13.41169,-0.02836546,0.48434,1.0529
76.539,13.4394,-0.02887232,0.48891,1.05284
77.039,13.46679,-0.02883474,0.49261,1.05279
77.539,13.49429,-0.02945633,0.50083,1.05273
78.039,13.5216,-0.02888693,0.50278,1.05268
78.539,13.5487,-0.02836365,0.50851,1.05262
79.039,13.57555,-0.02759354,0.51217,1.05256
79.539,13.6022,-0.02893326,0.51765,1.0525
80.039,13.62875,-0.03018281,0.52365,1.05244
80.539,13.6551,-0.03111759,0.52803,1.05238
81.039,13.6812,-0.03049508,0.53434,1.05231
81.539,13.7071,-0.02986859,0.53869,1.05225
82.039,13.73311,-0.02987759,0.54385,1.05218
82.539,13.7588,-0.0300603,0.55044,1.05211
83.039,13.7842,-0.02876199,0.55297,1.05205
83.539,13.80965,-0.02828115,0.55659,1.05198
84.039,13.83508,-0.02826457,0.55713,1.05191
84.539,13.8597,-0.02805567,0.55767,1.05183
85.039,13.8844,-0.02804718,0.55683,1.05176
85.539,13.9092,-0.02840388,0.55761,1.05169
86.039,13.9344,-0.02878938,0.5593,1.05161
86.539,13.959,-0.02972168,0.55797,1.05154
87.039,13.98342,-0.02948754,0.55878,1.05146
87.539,14.00765,-0.02866211,0.56042,1.05138
88.039,14.0316,-0.02721669,0.56199,1.0513
88.539,14.0554,-0.02833004,0.56445,1.05122
89.039,14.0791,-0.02817185,0.57055,1.05114
89.539,14.1026,-0.02821373,0.5718,1.05105
90.039,14.12619,-0.02885063,0.57369,1.05097
90.539,14.1495,-0.02900008,0.58102,1.05088
91.039,14.1728,-0.02887204,0.58416,1.0508
91.539,14.1958,-0.02908553,0.5901,1.05071
92.039,14.21866,-0.02895675,0.59352,1.05062
92.539,14.2415,-0.02817852,0.60046,1.05053
93.039,14.26446,-0.02872014,0.60393,1.05044
93.539,14.28745,-0.02929191,0.61061,1.05035
94.039,14.3101,-0.02972642,0.6179,1.05025
94.539,14.33255,-0.02950143,0.62222,1.05016
95.039,14.35485,-0.02944696,0.63073,1.05006
95.539,14.37704,-0.03010767,0.63769,1.04997
96.039,14.39916,-0.02949977,0.64359,1.04987
96.539,14.4212,-0.02925126,0.651,1.04977
97.039,14.44292,-0.02897533,0.65865,1.04967
97.539,14.46465,-0.02849072,0.66524,1.04957
98.039,14.4864,-0.0285411,0.6692,1.04947
98.539,14.5081,-0.0289888,0.68001,1.04936
99.039,14.5296,-0.02806156,0.68803,1.04926
99.539,14.5511,-0.02913418,0.69683,1.04915
100.039,14.57235,-0.02775307,0.70545,1.04905
100.539,14.59351,-0.02927785,0.71277,1.04894
101.039,14.6147,-0.02938172,0.72395,1.04883
101.539,14.6358,-0.03036276,0.73189,1.04872
102.039,14.65675,-0.02997554,0.74006,1.04861
102.539,14.67775,-0.03140178,0.74719,1.0485
103.039,14.69866,-0.03055215,0.75552,1.04838
103.539,14.7194,-0.03179752,0.76464,1.04827
104.039,14.73993,-0.03281258,0.7717,1.04815
104.539,14.7606,-0.03170984,0.77892,1.04804
105.039,14.7811,-0.03079649,0.78717,1.04792
105.539,14.8016,-0.03057551,0.79387,1.0478
106.039,14.8222,-0.03041729,0.798,1.04768
106.539,14.84255,-0.03089887,0.80585,1.04756
107.039,14.8628,-0.03038598,0.81415,1.04744
107.539,14.883,-0.03074268,0.81839,1.04731
108.039,14.90308,-0.03020715,0.8221,1.04719
108.539,14.92314,-0.03026653,0.82859,1.04706
109.039,14.9431,-0.03037768,0.83366,1.04694
109.539,14.96296,-0.03038003,0.83997,1.04681
110.039,14.9828,-0.03038064,0.84458,1.04668
110.539,15.00257,-0.03034745,0.84944,1.04655
111.039,15.02224,-0.0309831,0.85299,1.04642
111.539,15.0419,-0.03178932,0.85846,1.04629
112.039,15.0616,-0.03227941,0.86385,1.04616
112.539,15.0812,-0.03201998,0.86819,1.04602
113.039,15.10077,-0.03224684,0.87561,1.04589
113.539,15.1202,-0.03142314,0.87818,1.04575
114.039,15.1395,-0.03203484,0.88196,1.04561
114.539,15.15884,-0.03096946,0.88859,1.04547
115.039,15.17815,-0.03174438,0.89269,1.04534
115.539,15.1974,-0.03061127,0.89774,1.0452
116.039,15.2165,-0.03042915,0.90131,1.04505
116.539,15.2356,-0.03121961,0.90693,1.04491
117.039,15.25451,-0.03062781,0.90997,1.04477
117.539,15.2734,-0.0309414,0.91515,1.04462
118.039,15.2923,-0.0309144,0.91846,1.04448
118.539,15.31112,-0.03156287,0.92292,1.04433
119.039,15.3299,-0.0307554,0.92674,1.04418
119.539,15.3486,-0.03172433,0.9297,1.04403
120.039,15.3673,-0.03061375,0.93462,1.04388
120.539,15.38599,-0.03094326,0.94178,1.04373
121.039,15.4046,-0.03192655,0.94366,1.04358
121.539,15.4232,-0.03192264,0.94996,1.04343
122.039,15.4418,-0.03203053,0.95008,1.04327
122.539,15.46028,-0.032025,0.95677,1.04312
123.039,15.47865,-0.03106918,0.95904,1.04296
123.539,15.49699,-0.0319768,0.96328,1.04281
124.039,15.5152,-0.03081808,0.96726,1.04265
124.539,15.5335,-0.03193031,0.9714,1.04249
125.039,15.5518,-0.0316504,0.9766,1.04233
125.539,15.56995,-0.03132141,0.98077,1.04217
126.039,15.5881,-0.03191079,0.98325,1.04201
126.539,15.60624,-0.03225916,0.98911,1.04184
127.039,15.6242,-0.032128,0.99376,1.04168
127.539,15.64215,-0.03214048,0.99819,1.04151
128.039,15.65978,-0.03213995,1.00223,1.04135
128.539,15.6774,-0.03213224,1.00711,1.04118
129.039,15.69532,-0.03212992,1.01014,1.04101
129.539,15.71321,-0.03213005,1.01492,1.04084
130.039,15.73126,-0.03213266,1.01882,1.04067
130.539,15.7492,-0.03226094,1.02186,1.0405
131.039,15.76692,-0.0322741,1.02356,1.04033
131.539,15.7845,-0.03355617,1.02991,1.04015
132.039,15.802,-0.03238315,1.03292,1.03998
132.539,15.8193,-0.03224982,1.03717,1.0398
133.039,15.83676,-0.032251,1.03988,1.03963
133.539,15.8543,-0.03224029,1.04417,1.03945
134.039,15.87181,-0.03224033,1.04787,1.03927
134.539,15.8894,-0.03220816,1.0509,1.03909
135.039,15.90688,-0.0325239,1.0556,1.03891
135.539,15.9241,-0.0322548,1.06195,1.03873
136.039,15.9414,-0.03223384,1.06478,1.03855
136.539,15.95863,-0.03290675,1.06668,1.03836
137.039,15.97582,-0.03222743,1.07022,1.03818
137.539,15.993,-0.03225014,1.07451,1.03799
138.039,16.01014,-0.03224331,1.07893,1.03781
138.539,16.0273,-0.03223995,1.08143,1.03762
139.039,16.04435,-0.03224039,1.0851,1.03743
139.539,16.0614,-0.03222363,1.08888,1.03724
140.039,16.0785,-0.0328936,1.09257,1.03705
140.539,16.09526,-0.03222561,1.09609,1.03686
141.039,16.11218,-0.0322496,1.10133,1.03667
141.539,16.12908,-0.0322968,1.10478,1.03647
142.039,16.14593,-0.03092606,1.10621,1.03628
142.539,16.16292,-0.03123751,1.1115,1.03608
143.039,16.17982,-0.03223316,1.1157,1.03589
143.539,16.1966,-0.03223039,1.11852,1.03569
144.039,16.2134,-0.03187903,1.12125,1.03549
144.539,16.23003,-0.03227494,1.12602,1.03529
145.039,16.24675,-0.03224935,1.13083,1.03509
145.539,16.26342,-0.03223706,1.13258,1.03489
146.039,16.28006,-0.03146531,1.13662,1.03469
146.539,16.29673,-0.03208507,1.14187,1.03449
147.039,16.31322,-0.03225186,1.14536,1.03428
147.539,16.3296,-0.03225147,1.14958,1.03408
148.039,16.34618,-0.03224413,1.15196,1.03387
148.539,16.3626,-0.03114621,1.15342,1.03367
149.039,16.37903,-0.03223764,1.15887,1.03346
149.539,16.39552,-0.03224161,1.16112,1.03325
150.039,16.41186,-0.03224242,1.1652,1.03304
150.539,16.42826,-0.03280427,1.16882,1.03283
151.039,16.44461,-0.03356747,1.17122,1.03262
151.539,16.4609,-0.03353236,1.17682,1.03241
152.039,16.47725,-0.0347549,1.1798,1.03219
152.539,16.49351,-0.03482447,1.18547,1.03198
153.039,16.5097,-0.03352772,1.1853,1.03176
153.539,16.52597,-0.03357235,1.19165,1.03155
154.039,16.54215,-0.03475655,1.19497,1.03133
154.539,16.5582,-0.03489102,1.19893,1.03111
155.039,16.57444,-0.03374562,1.20075,1.03089
155.539,16.59062,-0.03356293,1.20438,1.03067
156.039,16.6067,-0.03355969,1.20774,1.03045
156.539,16.62282,-0.03354616,1.21264,1.03023
157.039,16.63889,-0.03293392,1.215,1.03001
157.539,16.6549,-0.03241579,1.21905,1.02978
158.039,16.67091,-0.03369722,1.22397,1.02956
158.539,16.687,-0.033738,1.22635,1.02933
159.039,16.70298,-0.03502255,1.22989,1.02911
159.539,16.71896,-0.03498019,1.23398,1.02888
160.039,16.7349,-0.03497993,1.2365,1.02865
160.539,16.75081,-0.03498008,1.23861,1.02842
161.039,16.7667,-0.03497888,1.24292,1.02819
161.539,16.78252,-0.03487655,1.24774,1.02796
162.039,16.79841,-0.03368519,1.24999,1.02773
162.539,16.8142,-0.03366876,1.25318,1.02749
163.039,16.83008,-0.03367002,1.25772,1.02726
163.539,16.84589,-0.03366994,1.26086,1.02703
164.039,16.86168,-0.03362313,1.26503,1.02679
164.539,16.87741,-0.03451825,1.26742,1.02655
165.039,16.89316,-0.03378912,1.27115,1.02632
165.539,16.90883,-0.0337813,1.27378,1.02608
166.039,16.92458,-0.03377983,1.27962,1.02584
166.539,16.94023,-0.03378423,1.28117,1.0256
167.039,16.95591,-0.034052,1.28438,1.02536
167.539,16.97156,-0.03511323,1.29056,1.02512
168.039,16.9872,-0.03512003,1.29361,1.02487
168.539,17.0028,-0.03402158,1.29422,1.02463
169.039,17.01836,-0.03379303,1.29978,1.02439
169.539,17.0339,-0.03378978,1.30302,1.02414
170.039,17.0494,-0.03378996,1.30514,1.02389
170.539,17.06492,-0.03378977,1.31016,1.02365
171.039,17.08043,-0.03379705,1.31249,1.0234
171.539,17.09592,-0.03311926,1.3171,1.02315
172.039,17.11141,-0.03245135,1.319,1.0229
172.539,17.12697,-0.0335404,1.32341,1.02265
173.039,17.14241,-0.03377525,1.32703,1.0224
173.539,17.15786,-0.03377993,1.33186,1.02215
174.039,17.17324,-0.03377911,1.3329,1.02189
174.539,17.1886,-0.03372979,1.33488,1.02164
175.039,17.204,-0.03473039,1.33862,1.02139
175.539,17.21934,-0.03476561,1.34069,1.02113
176.039,17.2346,-0.0339912,1.34345,1.02087
176.539,17.24986,-0.03378603,1.34996,1.02062
177.039,17.26516,-0.03378028,1.35155,1.02036
177.539,17.28042,-0.03377299,1.3542,1.0201
178.039,17.2956,-0.03441145,1.35654,1.01984
178.539,17.31082,-0.03489567,1.36215,1.01958
179.039,17.32603,-0.03377679,1.36356,1.01932
179.539,17.3412,-0.03377864,1.36821,1.01905
180.039,17.3564,-0.03377991,1.36966,1.01879
180.539,17.37153,-0.03377995,1.37155,1.01853
181.039,17.38668,-0.03378088,1.37867,1.01826
181.539,17.40173,-0.03381996,1.38021,1.01799
182.039,17.41679,-0.0326288,1.38513,1.01773
182.539,17.4318,-0.03246071,1.38678,1.01746
183.039,17.44685,-0.03251804,1.38779,1.01719
183.539,17.46187,-0.0338314,1.39169,1.01692
184.039,17.47692,-0.03378351,1.39791,1.01665
184.539,17.49193,-0.03378601,1.39966,1.01638
185.039,17.50696,-0.03457993,1.40172,1.01611
185.539,17.5219,-0.03508601,1.40648,1.01584
186.039,17.5368,-0.03509929,1.40958,1.01556
186.539,17.55177,-0.03509999,1.4111,1.01529
187.039,17.5667,-0.0351,1.41671,1.01501
187.539,17.58156,-0.0351,1.41942,1.01474
188.039,17.59648,-0.0351,1.42052,1.01446
188.539,17.6114,-0.03510002,1.42682,1.01418
189.039,17.62625,-0.03509985,1.42946,1.01391
189.539,17.64109,-0.03508889,1.43048,1.01363
190.039,17.65589,-0.03576109,1.43351,1.01335
190.539,17.67067,-0.0364167,1.43938,1.01307
191.039,17.68538,-0.03612118,1.4405,1.01279
191.539,17.7001,-0.03543061,1.44387,1.0125
192.039,17.71484,-0.03542144,1.44669,1.01222
192.539,17.7296,-0.03542512,1.44981,1.01194
193.039,17.7443,-0.03563323,1.45123,1.01165
193.539,17.75903,-0.03673761,1.45286,1.01137
194.039,17.77374,-0.03674104,1.45902,1.01108
194.539,17.78845,-0.03673957,1.46009,1.01079
195.039,17.80314,-0.03673047,1.46192,1.01051
195.539,17.81781,-0.03646579,1.46649,1.01022
196.039,17.83251,-0.03640999,1.47087,1.00993
196.539,17.84721,-0.03640985,1.47489,1.00964
197.039,17.8618,-0.03640999,1.47736,1.00935
197.539,17.87647,-0.03641,1.47967,1.00906
198.039,17.89106,-0.03641,1.48252,1.00876
198.539,17.90569,-0.03641,1.48528,1.00847
199.039,17.92024,-0.0364097,1.48843,1.00818
199.539,17.9348,-0.03640032,1.49305,1.00788
200.039,17.94945,-0.0361212,1.49562,1.00758
200.539,17.96399,-0.03507093,1.50052,1.00729
201.039,17.97849,-0.03509931,1.49993,1.00699
201.539,17.99304,-0.03510003,1.50387,1.00669
202.039,18.00753,-0.03509996,1.50485,1.0064
202.539,18.02198,-0.03509885,1.50907,1.0061
203.039,18.03645,-0.03508124,1.5127,1.0058
203.539,18.05096,-0.03594557,1.51727,1.00549
204.039,18.06542,-0.03642203,1.51819,1.00519
204.539,18.07988,-0.03641986,1.52114,1.00489
205.039,18.09435,-0.03642203,1.52547,1.00459
205.539,18.10885,-0.03646563,1.52751,1.00428
206.039,18.12325,-0.03528822,1.53073,1.00398
206.539,18.13766,-0.03510615,1.53375,1.00367
207.039,18.15209,-0.03510011,1.53761,1.00337
207.539,18.16647,-0.03509998,1.53783,1.00306
208.039,18.18085,-0.03509935,1.54311,1.00275
208.539,18.19521,-0.03508524,1.54667,1.00245
209.039,18.20956,-0.03579037,1.54963,1.00214
209.539,18.22392,-0.036421,1.55329,1.00183
210.039,18.23832,-0.03641026,1.55481,1.00152
210.539,18.25269,-0.03641025,1.55767,1.0012
211.039,18.26709,-0.03643864,1.56063,1.00089
211.539,18.28148,-0.03756784,1.56362,1.00058
212.039,18.29579,-0.03773807,1.56534,1.00027
212.539,18.31007,-0.03809348,1.56938,0.99995
213.039,18.3244,-0.03907263,1.57454,0.99964
213.539,18.3386,-0.03905056,1.57694,0.99932
214.039,18.3529,-0.03904997,1.58002,0.99901
214.539,18.36714,-0.03904962,1.58397,0.99869
215.039,18.3814,-0.03904048,1.58715,0.99837
215.539,18.39568,-0.03880196,1.59032,0.99805
216.039,18.41001,-0.03769146,1.59239,0.99773
216.539,18.4243,-0.03773149,1.59823,0.99741
217.039,18.4386,-0.03775245,1.599,0.99709
217.539,18.45283,-0.03639626,1.60323,0.99677
218.039,18.46706,-0.03640726,1.60418,0.99645
218.539,18.4813,-0.03641298,1.60754,0.99613
219.039,18.4955,-0.03650186,1.61189,0.9958
219.539,18.5097,-0.03764723,1.61406,0.99548
220.039,18.5239,-0.03772701,1.6171,0.99516
220.539,18.53811,-0.03772989,1.61968,0.99483
221.039,18.5523,-0.03773,1.62373,0.9945
221.539,18.56641,-0.03773004,1.62446,0.99418
222.039,18.58055,-0.03773154,1.62879,0.99385
222.539,18.5947,-0.03776488,1.63344,0.99352
223.039,18.6088,-0.0367147,1.63503,0.99319
223.539,18.62296,-0.03643152,1.63918,0.99286
224.039,18.63711,-0.03642061,1.64096,0.99253
224.539,18.65129,-0.03642005,1.64309,0.9922
225.039,18.6654,-0.03642017,1.64499,0.99187
225.539,18.67954,-0.0364173,1.65031,0.99154
226.039,18.6936,-0.03681164,1.6482,0.99121
226.539,18.7077,-0.03751682,1.65407,0.99087
227.039,18.72174,-0.03772289,1.65908,0.99054
227.539,18.7358,-0.03772936,1.65874,0.9902
228.039,18.74991,-0.03772751,1.66393,0.98987
228.539,18.76397,-0.0376975,1.66549,0.98953
229.039,18.778,-0.03806117,1.66711,0.98919
229.539,18.79211,-0.03805057,1.67135,0.98886
230.039,18.80613,-0.03804613,1.675,0.98852
230.539,18.82016,-0.03883393,1.67805,0.98818
231.039,18.83419,-0.03935737,1.68038,0.98784
231.539,18.84821,-0.03936899,1.68353,0.9875
232.039,18.86221,-0.03936993,1.68567,0.98716
232.539,18.8763,-0.03937,1.68674,0.98682
233.039,18.89029,-0.03937,1.69183,0.98648
233.539,18.90426,-0.03937,1.6942,0.98613
234.039,18.91825,-0.03937,1.69707,0.98579
234.539,18.93221,-0.03937,1.69838,0.98545
235.039,18.94614,-0.03937,1.70022,0.9851
235.539,18.9601,-0.03937,1.70264,0.98476
236.039,18.97411,-0.03936999,1.70753,0.98441
236.539,18.98809,-0.03936979,1.70883,0.98407
237.039,19.00204,-0.03936633,1.71081,0.98372
237.539,19.01601,-0.0393116,1.71459,0.98337
238.039,19.02992,-0.04029376,1.71555,0.98302
238.539,19.04381,-0.04035733,1.71736,0.98267
239.039,19.0578,-0.04035987,1.7207,0.98232
239.539,19.07173,-0.04036,1.72434,0.98197
240.039,19.0857,-0.04036,1.72731,0.98162
240.539,19.09965,-0.04036002,1.72974,0.98127
241.039,19.11362,-0.04036082,1.73333,0.98092
241.539,19.12753,-0.04037815,1.7341,0.98057
242.039,19.14145,-0.03999472,1.73742,0.98021
242.539,19.15534,-0.04002738,1.73952,0.97986
243.039,19.16924,-0.04002871,1.7415,0.97951
243.539,19.18315,-0.04001356,1.74318,0.97915
244.039,19.19705,-0.03959399,1.74795,0.97879
244.539,19.21094,-0.03904285,1.75155,0.97844
245.039,19.22482,-0.03904969,1.74911,0.97808
245.539,19.2387,-0.03905,1.75547,0.97772
246.039,19.25262,-0.03904996,1.75562,0.97737
246.539,19.26649,-0.03904664,1.76019,0.97701
247.039,19.28036,-0.0394897,1.76204,0.97665
247.539,19.2942,-0.04038733,1.76424,0.97629
248.039,19.30809,-0.04037159,1.76633,0.97593
248.539,19.32191,-0.040374,1.76837,0.97557
249.039,19.33575,-0.04046846,1.77099,0.97521
249.539,19.34955,-0.04159025,1.77165,0.97484
250.039,19.3634,-0.04167627,1.77332,0.97448
250.539,19.3772,-0.04167979,1.77662,0.97412
251.039,19.39104,-0.04167999,1.77881,0.97375
251.539,19.4049,-0.04168,1.78036,0.97339
252.039,19.4187,-0.04168,1.78297,0.97302
252.539,19.43252,-0.04168,1.78486,0.97266
253.039,19.44633,-0.04168,1.78516,0.97229
253.539,19.46014,-0.04168,1.7888,0.97193
254.039,19.47395,-0.04168,1.79058,0.97156
254.539,19.48776,-0.04168,1.79202,0.97119
255.039,19.50156,-0.04168,1.79587,0.97082
255.539,19.51534,-0.04168,1.79646,0.97045
256.039,19.5291,-0.04167999,1.79994,0.97008
256.539,19.54287,-0.04167981,1.80082,0.96972
257.039,19.55667,-0.04167723,1.80358,0.96934
257.539,19.57037,-0.04164227,1.80559,0.96897
258.039,19.58415,-0.04333561,1.80735,0.9686
258.539,19.5979,-0.04432379,1.80978,0.96823
259.039,19.6117,-0.0443106,1.81288,0.96786
259.539,19.62547,-0.04431002,1.81444,0.96748
260.039,19.63924,-0.04431,1.8162,0.96711
260.539,19.65299,-0.04431,1.81874,0.96674
261.039,19.6667,-0.04431,1.82152,0.96636
261.539,19.68042,-0.04431,1.82102,0.96599
262.039,19.69415,-0.04431,1.82371,0.96561
262.539,19.70788,-0.04431001,1.8285,0.96523
263.039,19.7216,-0.04431023,1.82907,0.96486
263.539,19.73534,-0.04431371,1.83346,0.96448
264.039,19.7491,-0.04440599,1.8323,0.9641
264.539,19.76284,-0.04535335,1.83319,0.96372
265.039,19.77654,-0.04530346,1.83861,0.96334
265.539,19.79022,-0.04530022,1.83806,0.96296
266.039,19.8039,-0.04530001,1.84077,0.96258
266.539,19.81758,-0.0453,1.84313,0.9622
267.039,19.83124,-0.04530004,1.84435,0.96182
267.539,19.84499,-0.04530039,1.84758,0.96144
268.039,19.8587,-0.04530315,1.84764,0.96106
268.539,19.87247,-0.04561893,1.84938,0.96068
269.039,19.88616,-0.04562066,1.85018,0.96029
269.539,19.8999,-0.04562018,1.85192,0.95991
270.039,19.91358,-0.0456217,1.85383,0.95953
270.539,19.92729,-0.0456559,1.85813,0.95914
271.039,19.94097,-0.04678592,1.85804,0.95876
271.539,19.9547,-0.04798598,1.85908,0.95837
272.039,19.96839,-0.04793407,1.86258,0.95798
272.539,19.98208,-0.04793029,1.86313,0.9576
273.039,19.99575,-0.04793002,1.86417,0.95721
273.539,20.0094,-0.04792999,1.8655,0.95682
274.039,20.02308,-0.0479299,1.8675,0.95644
274.539,20.03681,-0.04792865,1.87146,0.95605
275.039,20.05049,-0.04791178,1.86894,0.95566
275.539,20.06417,-0.04876391,1.87191,0.95527
276.039,20.07787,-0.04925705,1.87392,0.95488
276.539,20.0915,-0.04924795,1.87468,0.95449
277.039,20.10516,-0.04922446,1.87496,0.9541
277.539,20.11879,-0.05054093,1.87903,0.95371
278.039,20.13243,-0.05055978,1.88028,0.95331
278.539,20.1461,-0.05056006,1.88214,0.95292
279.039,20.1598,-0.05056001,1.88389,0.95253
279.539,20.1734,-0.05056,1.88358,0.95214
280.039,20.18702,-0.05056001,1.8866,0.95174
280.539,20.2007,-0.05056017,1.88856,0.95135
281.039,20.21431,-0.05056275,1.88834,0.95095
281.539,20.22796,-0.05061599,1.89092,0.95056
282.039,20.24159,-0.05172353,1.89257,0.95016
282.539,20.25525,-0.05187493,1.89373,0.94977
283.039,20.26891,-0.05187964,1.89382,0.94937
283.539,20.28264,-0.05187997,1.8958,0.94898
284.039,20.2963,-0.05188,1.89702,0.94858
284.539,20.30998,-0.05188001,1.89868,0.94818
285.039,20.3236,-0.05188012,1.90019,0.94778
285.539,20.33729,-0.0518816,1.90015,0.94738
286.039,20.35091,-0.05190093,1.90339,0.94699
286.539,20.36457,-0.05266099,1.90211,0.94659
287.039,20.3782,-0.05354131,1.90342,0.94619
287.539,20.39186,-0.05353054,1.90481,0.94579
288.039,20.4055,-0.05353011,1.90882,0.94539
288.539,20.41911,-0.05353023,1.90849,0.94498
289.039,20.4327,-0.05386721,1.91031,0.94458
289.539,20.4463,-0.05484648,1.91009,0.94418
290.039,20.45984,-0.05484066,1.91297,0.94378
290.539,20.4735,-0.05483969,1.91111,0.94338
291.039,20.4871,-0.05483312,1.91257,0.94297
291.539,20.5007,-0.05531359,1.91533,0.94257
292.039,20.5143,-0.05617767,1.91593,0.94216
292.539,20.52798,-0.05616134,1.91638,0.94176
293.039,20.54165,-0.05616015,1.91738,0.94136
293.539,20.5552,-0.05616082,1.91903,0.94095
294.039,20.56888,-0.05617229,1.92,0.94054
294.539,20.58257,-0.05643117,1.91871,0.94014
295.039,20.5962,-0.0575245,1.92116,0.93973
295.539,20.60985,-0.05747918,1.9211,0.93933
296.039,20.62349,-0.0574283,1.92193,0.93892
296.539,20.63717,-0.05865717,1.92289,0.93851
297.039,20.65079,-0.05878292,1.92728,0.9381
297.539,20.66443,-0.05878959,1.92498,0.93769
298.039,20.678,-0.05878997,1.92671,0.93729
298.539,20.69165,-0.05879,1.92684,0.93688
299.039,20.70524,-0.05879003,1.9273,0.93647
299.539,20.71882,-0.05879027,1.92982,0.93606
300.039,20.73244,-0.05879078,1.92891,0.93565
300.539,20.746,-0.05947485,1.93336,0.93524
301.039,20.75962,-0.06010508,1.93186,0.93482
301.539,20.7732,-0.0601095,1.93311,0.93441
302.039,20.7868,-0.06011031,1.93567,0.934
302.539,20.80046,-0.06011666,1.93657,0.93359
303.039,20.81408,-0.05962292,1.93521,0.93318
303.539,20.8277,-0.0592787,1.93606,0.93276
304.039,20.84131,-0.06012758,1.93797,0.93235
304.539,20.85494,-0.06011157,1.93937,0.93194
305.039,20.86853,-0.06011446,1.939,0.93152
305.539,20.88211,-0.06020329,1.93938,0.93111
306.039,20.89569,-0.06135678,1.94135,0.93069
306.539,20.90931,-0.0615259,1.94303,0.93028
307.039,20.9229,-0.0616381,1.94384,0.92986
307.539,20.9365,-0.06350454,1.94368,0.92945
308.039,20.95015,-0.06417993,1.94441,0.92903
308.539,20.96376,-0.0641707,1.94658,0.92861
309.039,20.97737,-0.06417098,1.9462,0.9282
309.539,20.99098,-0.06418207,1.94861,0.92778
310.039,21.0046,-0.06467485,1.94855,0.92736
310.539,21.01819,-0.06549402,1.94924,0.92695
311.039,21.0318,-0.06547876,1.94986,0.92653
311.539,21.0454,-0.06546143,1.95179,0.92611
312.039,21.05901,-0.06679261,1.95173,0.92569
312.539,21.07263,-0.06680085,1.95277,0.92527
313.039,21.08626,-0.06682157,1.95319,0.92485
313.539,21.09985,-0.06814599,1.95548,0.92443
314.039,21.1134,-0.06812234,1.95599,0.92401
314.539,21.127,-0.0681195,1.95527,0.92359
315.039,21.14056,-0.06810801,1.95364,0.92317
315.539,21.1541,-0.06850942,1.95921,0.92275
316.039,21.16767,-0.06955868,1.96152,0.92233
316.539,21.18124,-0.06974506,1.95896,0.92191
317.039,21.1949,-0.06974869,1.96021,0.92148
317.539,21.2085,-0.06973527,1.96128,0.92106
318.039,21.22206,-0.0703672,1.9616,0.92064
318.539,21.2357,-0.07118058,1.96257,0.92021
319.039,21.24929,-0.07212229,1.96236,0.91979
319.539,21.2629,-0.07219164,1.96546,0.91937
320.039,21.27646,-0.07330194,1.96565,0.91894
320.539,21.29007,-0.07338986,1.96446,0.91852
321.039,21.30365,-0.07376496,1.96911,0.91809
321.539,21.31726,-0.07472043,1.96749,0.91767
322.039,21.33089,-0.07469634,1.96981,0.91724
322.539,21.34451,-0.07491669,1.96593,0.91682
323.039,21.35817,-0.07598867,1.96904,0.91639
323.539,21.3718,-0.07600709,1.97088,0.91597
324.039,21.3854,-0.07599176,1.9699,0.91554
324.539,21.39895,-0.07741735,1.96996,0.91511
325.039,21.4126,-0.07742953,1.97252,0.91469
325.539,21.42618,-0.07814178,1.97161,0.91426
326.039,21.43982,-0.07896238,1.97124,0.91383
326.539,21.45345,-0.07901634,1.97089,0.9134
327.039,21.46708,-0.08056878,1.97391,0.91298
327.539,21.4807,-0.08051474,1.97276,0.91255
328.039,21.49434,-0.08050965,1.97278,0.91212
328.539,21.50796,-0.08049849,1.97064,0.91169
329.039,21.52157,-0.08106105,1.97445,0.91126
329.539,21.53519,-0.08183944,1.97267,0.91083
330.039,21.5488,-0.08182575,1.97471,0.9104
330.539,21.56236,-0.08192116,1.97188,0.90997
331.039,21.57597,-0.0830389,1.97195,0.90954
331.539,21.58961,-0.08313604,1.97033,0.90911
332.039,21.60323,-0.0831448,1.97046,0.90868
332.539,21.6169,-0.08330298,1.97153,0.90825
333.039,21.63048,-0.08440005,1.97151,0.90782
333.539,21.64412,-0.08444629,1.9714,0.90739
334.039,21.65778,-0.08443441,1.97032,0.90696
334.539,21.67136,-0.08533543,1.97065,0.90652
335.039,21.68496,-0.08577743,1.97027,0.90609
335.539,21.6986,-0.08605046,1.97041,0.90566
336.039,21.71227,-0.08730432,1.96858,0.90523
336.539,21.72588,-0.08730956,1.96675,0.90479
337.039,21.73948,-0.08799861,1.96717,0.90436
337.539,21.75313,-0.08861352,1.96454,0.90393
338.039,21.7668,-0.08862034,1.96482,0.90349
338.539,21.78044,-0.08864131,1.9638,0.90306
339.039,21.79411,-0.09021312,1.96142,0.90263
339.539,21.8078,-0.09127362,1.96003,0.90219
340.039,21.8215,-0.09126461,1.96178,0.90176
340.539,21.83514,-0.0913365,1.95985,0.90132
341.039,21.8488,-0.09244968,1.95884,0.90089
341.539,21.8625,-0.09257756,1.95724,0.90045
342.039,21.87611,-0.09285112,1.95604,0.90002
342.539,21.88975,-0.09405273,1.95495,0.89958
343.039,21.90344,-0.09401731,1.95229,0.89914
343.539,21.91708,-0.09440373,1.95207,0.89871
344.039,21.93078,-0.09533922,1.95034,0.89827
344.539,21.94446,-0.09506278,1.94708,0.89783
345.039,21.95814,-0.09562859,1.94805,0.8974
345.539,21.97181,-0.09619478,1.94754,0.89696
346.039,21.98551,-0.09618918,1.94555,0.89652
346.539,21.99922,-0.0961923,1.94645,0.89609
347.039,22.01291,-0.09752683,1.94331,0.89565
347.539,22.02657,-0.09751172,1.94106,0.89521
348.039,22.0403,-0.09750399,1.93961,0.89477
348.539,22.054,-0.09798022,1.93831,0.89433
349.039,22.06768,-0.09884776,1.93602,0.8939
349.539,22.08136,-0.09882892,1.93426,0.89346
350.039,22.0951,-0.09879065,1.93421,0.89302
350.539,22.10879,-0.09983572,1.9318,0.89258
351.039,22.12246,-0.10014,1.92937,0.89214
351.539,22.13616,-0.10043,1.92797,0.8917
352.039,22.14989,-0.10162,1.92732,0.89126
352.539,22.16359,-0.10173,1.92512,0.89082
353.039,22.17736,-0.10303,1.92055,0.89038
353.539,22.1911,-0.10305,1.91862,0.88994
354.039,22.20485,-0.10443,1.91555,0.8895
354.539,22.21858,-0.10582,1.91627,0.88906
355.039,22.23228,-0.10648,1.91458,0.88862
355.539,22.24604,-0.10738,1.9108,0.88818
356.039,22.25975,-0.10741,1.90929,0.88774
356.539,22.27351,-0.10897,1.90467,0.8873
357.039,22.28726,-0.10892,1.9013,0.88685
357.539,22.30104,-0.10945,1.9001,0.88641
358.039,22.31478,-0.11049,1.89958,0.88597
358.539,22.32854,-0.11043,1.89556,0.88553
359.039,22.3423,-0.11159,1.89347,0.88509
359.539,22.35605,-0.11198,1.88983,0.88464
360.039,22.36976,-0.11229,1.88884,0.8842
360.539,22.38351,-0.11357,1.88757,0.88376
361.039,22.39724,-0.11324,1.88463,0.88332
361.539,22.41101,-0.11412,1.87905,0.88287
362.039,22.42476,-0.11414,1.87703,0.88243
362.539,22.4386,-0.11547,1.87736,0.88199
363.039,22.4524,-0.1155,1.87273,0.88155
363.539,22.4662,-0.1155,1.86895,0.8811
364.039,22.48,-0.1159,1.86561,0.88066
364.539,22.49374,-0.11682,1.86435,0.88021
365.039,22.5075,-0.1168,1.86065,0.87977
365.539,22.5213,-0.11733,1.85723,0.87933
366.039,22.5351,-0.11873,1.85521,0.87888
366.539,22.54891,-0.11947,1.85283,0.87844
367.039,22.56269,-0.11945,1.84915,0.87799
367.539,22.5765,-0.1194,1.84723,0.87755
368.039,22.59025,-0.12069,1.84058,0.8771
368.539,22.604,-0.12088,1.83774,0.87666
369.039,22.6178,-0.12135,1.83446,0.87621
369.539,22.6316,-0.12243,1.83351,0.87577
370.039,22.6454,-0.12241,1.8294,0.87532
370.539,22.6593,-0.12241,1.82499,0.87488
371.039,22.67321,-0.12417,1.82131,0.87443
371.539,22.68702,-0.1247,1.81874,0.87399
372.039,22.70083,-0.12472,1.81836,0.87354
372.539,22.71467,-0.12485,1.81266,0.8731
373.039,22.7285,-0.12631,1.81051,0.87265
373.539,22.74226,-0.1262,1.80793,0.87221
374.039,22.75609,-0.12738,1.80112,0.87176
374.539,22.76998,-0.12764,1.8,0.87131
375.039,22.78368,-0.12858,1.79633,0.87087
375.539,22.79748,-0.12941,1.79465,0.87042
376.039,22.8113,-0.13128,1.7918,0.86997
376.539,22.82517,-0.13113,1.78787,0.86953
377.039,22.83902,-0.13184,1.78383,0.86908
377.539,22.85292,-0.13352,1.78224,0.86863
378.039,22.86686,-0.13395,1.77896,0.86819
378.539,22.8807,-0.13547,1.77628,0.86774
379.039,22.89459,-0.13729,1.77304,0.86729
379.539,22.9084,-0.13847,1.7687,0.86685
380.039,22.92226,-0.13864,1.76551,0.8664
380.539,22.93617,-0.14002,1.76382,0.86595
381.039,22.95008,-0.13995,1.75993,0.8655
381.539,22.96396,-0.14083,1.75844,0.86506
382.039,22.97795,-0.14151,1.75817,0.86461
382.539,22.99186,-0.14206,1.75535,0.86416
383.039,23.0058,-0.14303,1.75397,0.86371
383.539,23.0197,-0.14418,1.75262,0.86326
384.039,23.03359,-0.14472,1.7496,0.86282
384.539,23.04749,-0.14628,1.74918,0.86237
385.039,23.0614,-0.14627,1.74893,0.86192
385.539,23.07534,-0.14773,1.74788,0.86147
386.039,23.08931,-0.14824,1.74508,0.86102
386.539,23.10324,-0.14986,1.74478,0.86058
387.039,23.1172,-0.15125,1.74574,0.86013
387.539,23.13111,-0.15167,1.74599,0.85968
388.039,23.14505,-0.1532,1.74501,0.85923
388.539,23.1589,-0.15354,1.7465,0.85878
389.039,23.1728,-0.15476,1.74619,0.85833
389.539,23.1868,-0.1557,1.74515,0.85788
390.039,23.2007,-0.15606,1.74713,0.85744
390.539,23.2145,-0.1565,1.75102,0.85699
391.039,23.2283,-0.15701,1.75187,0.85654
391.539,23.2423,-0.15892,1.75385,0.85609
392.039,23.25621,-0.15963,1.75679,0.85564
392.539,23.27017,-0.16056,1.75938,0.85519
393.039,23.2843,-0.16198,1.76044,0.85474
393.539,23.2984,-0.16237,1.76215,0.85429
394.039,23.31239,-0.16408,1.76578,0.85384
394.539,23.32636,-0.16549,1.76899,0.8534
395.039,23.3403,-0.16652,1.77469,0.85295
395.539,23.35427,-0.16783,1.77785,0.8525
396.039,23.36824,-0.16885,1.78297,0.85205
396.539,23.38222,-0.16942,1.78813,0.8516
397.039,23.3962,-0.17123,1.79064,0.85115
397.539,23.41018,-0.17249,1.79355,0.8507
398.039,23.42417,-0.1737,1.80242,0.85025
398.539,23.43818,-0.17567,1.80678,0.8498
399.039,23.4522,-0.17698,1.81443,0.84935
399.539,23.46623,-0.17917,1.82167,0.8489
400.039,23.48025,-0.18102,1.83047,0.84845
400.539,23.4943,-0.18253,1.83966,0.848
401.039,23.50834,-0.1836,1.84974,0.84755
401.539,23.5224,-0.18504,1.85885,0.8471
402.039,23.53642,-0.18731,1.86735,0.84665
402.539,23.5505,-0.19042,1.88143,0.8462
403.039,23.56455,-0.19204,1.88983,0.84575
403.539,23.57859,-0.19381,1.90709,0.8453
404.039,23.5927,-0.19569,1.9162,0.84486
404.539,23.60674,-0.19739,1.92705,0.84441
405.039,23.6208,-0.19966,1.94006,0.84396
405.539,23.6349,-0.20106,1.95467,0.84351
406.039,23.649,-0.20181,1.96744,0.84306
406.539,23.66301,-0.20276,1.98879,0.84261
407.039,23.67701,-0.20479,2.00132,0.84216
407.539,23.6911,-0.20685,2.01996,0.84171
408.039,23.70523,-0.20743,2.0373,0.84126
408.539,23.71932,-0.2092,2.05464,0.84081
409.039,23.73341,-0.21125,2.07544,0.84036
409.539,23.7476,-0.21329,2.09213,0.83991
410.039,23.76173,-0.21558,2.11539,0.83946
410.539,23.77584,-0.21758,2.13642,0.83901
411.039,23.7899,-0.22023,2.15824,0.83856
411.539,23.80406,-0.22234,2.18318,0.83811
412.039,23.8182,-0.22463,2.2092,0.83766
412.539,23.8323,-0.22703,2.23484,0.83721
413.039,23.84645,-0.22964,2.26145,0.83676
413.539,23.86059,-0.23258,2.28887,0.83631
414.039,23.87475,-0.23481,2.31622,0.83586
414.539,23.88888,-0.23774,2.34766,0.83541
415.039,23.90299,-0.24026,2.37878,0.83496
415.539,23.91711,-0.24307,2.41077,0.83451
416.039,23.93126,-0.24623,2.4422,0.83406
416.539,23.94541,-0.24926,2.47471,0.83361
417.039,23.9596,-0.25301,2.51484,0.83317
417.539,23.97374,-0.25579,2.55025,0.83272
418.039,23.98796,-0.25918,2.58984,0.83227
418.539,24.00212,-0.26296,2.63061,0.83182
419.039,24.01632,-0.26803,2.6725,0.83137
419.539,24.03055,-0.27264,2.71448,0.83092
420.039,24.04477,-0.27743,2.76229,0.83047
420.539,24.05904,-0.28185,2.80513,0.83002
421.039,24.07329,-0.2865,2.85562,0.82957
421.539,24.08754,-0.2907,2.90369,0.82912
422.039,24.10175,-0.29456,2.95809,0.82867
422.539,24.116,-0.29979,3.01136,0.82822
423.039,24.13024,-0.30424,3.07008,0.82778
423.539,24.1445,-0.30913,3.12618,0.82733
424.039,24.1587,-0.31433,3.18388,0.82688
424.539,24.17301,-0.31858,3.25095,0.82643
425.039,24.18723,-0.3238,3.3157,0.82598
425.539,24.20148,-0.32974,3.38557,0.82553
426.039,24.21572,-0.33583,3.45497,0.82508
426.539,24.22993,-0.34218,3.52859,0.82463
427.039,24.2442,-0.34859,3.60976,0.82419
427.539,24.25848,-0.35535,3.69448,0.82374
428.039,24.27277,-0.3623,3.77742,0.82329
428.539,24.28705,-0.3695,3.8658,0.82284
429.039,24.30141,-0.37709,3.95566,0.82239
429.539,24.31576,-0.38466,4.05089,0.82194
430.039,24.33011,-0.39289,4.15244,0.8215
430.539,24.3445,-0.40122,4.26051,0.82105
431.039,24.35887,-0.40971,4.36566,0.8206
431.539,24.37323,-0.41876,4.47761,0.82015
432.039,24.3876,-0.42858,4.5965,0.8197
432.539,24.40202,-0.43995,4.72473,0.81926
433.039,24.41639,-0.45124,4.86009,0.81881
433.539,24.43078,-0.46274,4.98617,0.81836
434.039,24.44521,-0.47482,5.11192,0.81791
434.539,24.45966,-0.4874,5.26819,0.81747
435.039,24.47409,-0.50008,5.41698,0.81702
435.539,24.48858,-0.51328,5.56216,0.81657
436.039,24.50306,-0.52723,5.71376,0.81612
436.539,24.51754,-0.54175,5.88349,0.81568
437.039,24.532,-0.55753,6.05109,0.81523
437.539,24.54646,-0.57425,6.21029,0.81478
438.039,24.56095,-0.59189,6.37672,0.81434
438.539,24.57548,-0.61104,6.55878,0.81389
439.039,24.59001,-0.63051,6.74183,0.81344
439.539,24.60455,-0.65079,6.93353,0.813
440.039,24.61909,-0.6715,7.1151,0.81255
440.539,24.63365,-0.69243,7.30038,0.8121
441.039,24.64819,-0.71368,7.50427,0.81166
441.539,24.6628,-0.73586,7.69216,0.81121
442.039,24.67737,-0.75936,7.88131,0.81076
442.539,24.69203,-0.78402,8.08241,0.81032
443.039,24.70668,-0.81021,8.28485,0.80987
443.539,24.7213,-0.83786,8.49678,0.80943
444.039,24.73602,-0.86697,8.70933,0.80898
444.539,24.75071,-0.89683,8.90791,0.80854
445.039,24.76535,-0.92691,9.1024,0.80809
445.539,24.7801,-0.95711,9.28938,0.80764
446.039,24.79479,-0.98758,9.47598,0.8072
446.539,24.80946,-1.01845,9.68332,0.80675
447.039,24.8242,-1.05127,9.87874,0.80631
447.539,24.83894,-1.08397,10.05608,0.80586
448.039,24.8537,-1.11819,10.2622,0.80542
448.539,24.86845,-1.15394,10.46105,0.80498
449.039,24.88324,-1.18561,10.63798,0.80453
449.539,24.898,-1.22562,10.8245,0.80409
450.039,24.9128,-1.26866,11.00855,0.80364
450.539,24.92754,-1.32412,11.18388,0.8032
451.039,24.94227,-1.37593,11.35281,0.80275
451.539,24.957,-1.40751,11.5223,0.80231
452.039,24.9718,-1.44185,11.6815,0.80187
452.539,24.98655,-1.48665,11.82552,0.80142
453.039,25.00133,-1.53093,11.95457,0.80098
453.539,25.01615,-1.5751,12.0806,0.80054
454.039,25.03102,-1.62015,12.20153,0.80009
454.539,25.04578,-1.66563,12.30034,0.79965
455.039,25.0606,-1.71187,12.39712,0.79921
455.539,25.07541,-1.7587,12.48165,0.79876
456.039,25.0902,-1.80576,12.55264,0.79832
456.539,25.10503,-1.85311,12.61058,0.79788
457.039,25.11983,-1.90057,12.65778,0.79744
457.539,25.13459,-1.94859,12.68228,0.79699
458.039,25.14932,-1.99674,12.68854,0.79655
458.539,25.16408,-2.04518,12.67718,0.79611
459.039,25.17887,-2.0937,12.6477,0.79567
459.539,25.19366,-2.14211,12.6131,0.79523
460.039,25.20841,-2.19014,12.55738,0.79478
460.539,25.22322,-2.23807,12.48086,0.79434
461.039,25.23795,-2.28509,12.40125,0.7939
461.539,25.2527,-2.33154,12.31146,0.79346
462.039,25.26739,-2.37783,12.19571,0.79302
462.539,25.28211,-2.4237,12.06898,0.79258
463.039,25.2968,-2.46942,11.9267,0.79214
463.539,25.31148,-2.515,11.7773,0.7917
464.039,25.32617,-2.559,11.60755,0.79126
464.539,25.3409,-2.6022,11.4316,0.79082
465.039,25.35555,-2.64413,11.24638,0.79038
465.539,25.3702,-2.68484,11.05297,0.78994
466.039,25.38484,-2.72507,10.8476,0.7895
466.539,25.39948,-2.76425,10.6335,0.78906
467.039,25.4141,-2.80209,10.42172,0.78862
467.539,25.4287,-2.83971,10.19459,0.78818
468.039,25.44334,-2.87634,9.98177,0.78774
468.539,25.4579,-2.91141,9.75009,0.7873
469.039,25.4725,-2.94913,9.52485,0.78686
469.539,25.4871,-2.98438,9.28588,0.78642
470.039,25.50159,-3.01921,9.05369,0.78599
470.539,25.51615,-3.04416,8.8145,0.78555
471.039,25.5307,-3.0711,8.5815,0.78511
471.539,25.54526,-3.0984,8.34095,0.78467
472.039,25.55981,-3.12776,8.10427,0.78423
472.539,25.57435,-3.15689,7.87197,0.7838
473.039,25.5888,-3.18467,7.65431,0.78336
473.539,25.60324,-3.2111,7.4246,0.78292
474.039,25.6177,-3.2365,7.20155,0.78249
474.539,25.63223,-3.26104,6.97689,0.78205
475.039,25.6467,-3.28459,6.76547,0.78161
475.539,25.6612,-3.30691,6.55407,0.78118
476.039,25.6757,-3.32805,6.34471,0.78074
476.539,25.6902,-3.34807,6.13881,0.7803
477.039,25.70459,-3.3674,5.94017,0.77987
477.539,25.7191,-3.38625,5.74588,0.77943
478.039,25.7336,-3.40513,5.5544,0.779
478.539,25.7481,-3.42339,5.37304,0.77856
479.039,25.76256,-3.44124,5.19331,0.77813
479.539,25.7771,-3.4586,5.02012,0.77769
480.039,25.79151,-3.47507,4.85755,0.77726
480.539,25.806,-3.49061,4.69797,0.77682
481.039,25.82047,-3.50536,4.54606,0.77639
481.539,25.835,-3.51919,4.40041,0.77595
482.039,25.84949,-3.53262,4.25742,0.77552
482.539,25.86404,-3.54545,4.12109,0.77509
483.039,25.87852,-3.55794,3.98566,0.77465
483.539,25.89301,-3.57007,3.86163,0.77422
484.039,25.9075,-3.58231,3.74477,0.77379
484.539,25.92203,-3.59501,3.62846,0.77335
485.039,25.9365,-3.6075,3.51899,0.77292
485.539,25.9511,-3.61862,3.40977,0.77249
486.039,25.9657,-3.62885,3.30947,0.77206
486.539,25.98024,-3.63823,3.21192,0.77163
487.039,25.99485,-3.64714,3.11802,0.77119
487.539,26.00948,-3.65457,3.03083,0.77076
488.039,26.0241,-3.66312,2.94637,0.77033
488.539,26.0387,-3.67149,2.86267,0.7699
489.039,26.05336,-3.6801,2.78491,0.76947
489.539,26.068,-3.68879,2.70851,0.76904
490.039,26.08259,-3.69692,2.63476,0.76861
490.539,26.09724,-3.706,2.5654,0.76818
491.039,26.11188,-3.71343,2.49823,0.76775
491.539,26.12649,-3.72008,2.43419,0.76732
492.039,26.14113,-3.72715,2.36821,0.76689
492.539,26.15586,-3.73462,2.31012,0.76646
493.039,26.1706,-3.74097,2.24956,0.76603
493.539,26.1853,-3.7471,2.19052,0.7656
494.039,26.2,-3.7529,2.13381,0.76517
494.539,26.21472,-3.75824,2.07956,0.76474
495.039,26.2294,-3.76373,2.02806,0.76432
495.539,26.24413,-3.76927,1.97392,0.76389
496.039,26.2589,-3.77474,1.9231,0.76346
496.539,26.2736,-3.7799,1.87581,0.76303
497.039,26.28841,-3.78461,1.82719,0.7626
497.539,26.3032,-3.78901,1.77892,0.76218
498.039,26.31795,-3.79311,1.73424,0.76175
498.539,26.33268,-3.79716,1.68792,0.76132
499.039,26.3475,-3.80122,1.64023,0.7609
499.539,26.36223,-3.80502,1.60095,0.76047
500.039,26.37708,-3.80887,1.5574,0.76005
500.539,26.3919,-3.81242,1.51741,0.75962
501.039,26.40673,-3.81605,1.47439,0.75919
501.539,26.42152,-3.81909,1.43529,0.75877
502.039,26.4364,-3.82187,1.39728,0.75835
502.539,26.45113,-3.82481,1.361,0.75792
503.039,26.46596,-3.82685,1.32521,0.7575
503.539,26.4808,-3.82884,1.29093,0.75707
504.039,26.4957,-3.83091,1.25663,0.75665
504.539,26.5105,-3.83295,1.22338,0.75622
505.039,26.52535,-3.83502,1.19278,0.7558
505.539,26.54018,-3.83753,1.16081,0.75538
506.039,26.55504,-3.84053,1.1352,0.75495
506.539,26.56989,-3.84227,1.10652,0.75453
507.039,26.58472,-3.84285,1.07684,0.75411
507.539,26.5996,-3.84462,1.05369,0.75369
508.039,26.6145,-3.84587,1.03148,0.75327
508.539,26.62939,-3.84667,1.00671,0.75284
509.039,26.64429,-3.84806,0.98879,0.75242
509.539,26.65922,-3.84812,0.96725,0.752
510.039,26.6741,-3.84995,0.94735,0.75158
510.539,26.6891,-3.8502,0.93161,0.75116
511.039,26.704,-3.85247,0.91653,0.75074
511.539,26.7189,-3.85239,0.90252,0.75032
512.039,26.73382,-3.85399,0.88902,0.7499
512.539,26.7487,-3.85394,0.87598,0.74948
513.039,26.7636,-3.85394,0.86408,0.74906
513.539,26.77852,-3.85451,0.85426,0.74864
514.039,26.7935,-3.85524,0.84265,0.74822
514.539,26.8085,-3.85525,0.83357,0.74781
515.039,26.8235,-3.85525,0.82701,0.74739
515.539,26.8384,-3.85525,0.81636,0.74697
516.039,26.85339,-3.85526,0.81266,0.74655
516.539,26.86832,-3.85429,0.80722,0.74613
517.039,26.8833,-3.85394,0.79937,0.74572
517.539,26.8982,-3.85393,0.79532,0.7453
518.039,26.91323,-3.85433,0.78974,0.74488
518.539,26.9282,-3.85524,0.78602,0.74447
519.039,26.94329,-3.85598,0.7832,0.74405
519.539,26.9583,-3.85656,0.77957,0.74364
520.039,26.97338,-3.85656,0.77676,0.74322
520.539,26.98837,-3.85662,0.77231,0.74281
521.039,27.00335,-3.8576,0.77097,0.74239
521.539,27.01833,-3.85755,0.77016,0.74198
522.039,27.03327,-3.85755,0.76645,0.74156
522.539,27.04823,-3.85766,0.76319,0.74115
523.039,27.06325,-3.85787,0.76226,0.74073
523.539,27.07828,-3.85788,0.75897,0.74032
524.039,27.0933,-3.85788,0.75861,0.73991
524.539,27.1084,-3.85788,0.75467,0.73949
525.039,27.1235,-3.85788,0.75516,0.73908
525.539,27.13857,-3.85788,0.75267,0.73867
526.039,27.15365,-3.85788,0.75362,0.73826
526.539,27.1687,-3.85788,0.7548,0.73785
527.039,27.18383,-3.85788,0.75177,0.73743
527.539,27.19892,-3.85788,0.74926,0.73702
528.039,27.21395,-3.85788,0.74913,0.73661
528.539,27.229,-3.85788,0.74928,0.7362
529.039,27.2441,-3.85788,0.75129,0.73579
529.539,27.2591,-3.85788,0.75038,0.73538
530.039,27.2742,-3.85788,0.74946,0.73497
530.539,27.28929,-3.85788,0.75159,0.73456
531.039,27.30442,-3.85788,0.74874,0.73415
531.539,27.31953,-3.8579,0.75047,0.73374
532.039,27.3346,-3.85924,0.75016,0.73334
532.539,27.3497,-3.85919,0.74802,0.73293
533.039,27.36487,-3.85919,0.74511,0.73252
533.539,27.38,-3.85919,0.74623,0.73211
534.039,27.395,-3.85919,0.74628,0.7317
534.539,27.4101,-3.85919,0.74384,0.7313
535.039,27.4253,-3.85919,0.74411,0.73089
535.539,27.4404,-3.85919,0.74504,0.73048
536.039,27.45562,-3.85919,0.7423,0.73008
536.539,27.47077,-3.85919,0.74028,0.72967
537.039,27.48589,-3.85919,0.73724,0.72927
537.539,27.50102,-3.85919,0.73308,0.72886
538.039,27.51616,-3.85919,0.7303,0.72846
538.539,27.53132,-3.85919,0.7318,0.72805
539.039,27.54655,-3.85919,0.72665,0.72765
539.539,27.5617,-3.85926,0.72342,0.72725
540.039,27.57687,-3.86045,0.72357,0.72684
540.539,27.5921,-3.86051,0.7208,0.72644
541.039,27.60728,-3.86005,0.7205,0.72604
541.539,27.6225,-3.85917,0.72249,0.72563
542.039,27.63768,-3.85919,0.7199,0.72523
542.539,27.6529,-3.85919,0.71933,0.72483
543.039,27.6681,-3.85919,0.71799,0.72443
543.539,27.6833,-3.85919,0.71873,0.72403
544.039,27.69851,-3.85919,0.71838,0.72362
544.539,27.71375,-3.85916,0.7166,0.72322
545.039,27.729,-3.85797,0.71769,0.72282
545.539,27.74417,-3.85874,0.71505,0.72242
546.039,27.7594,-3.85886,0.71665,0.72202
546.539,27.7747,-3.85886,0.71654,0.72162
547.039,27.7899,-3.85886,0.71739,0.72122
547.539,27.80518,-3.85886,0.71843,0.72083
548.039,27.82045,-3.85886,0.71375,0.72043
548.539,27.8357,-3.85886,0.71178,0.72003
549.039,27.85095,-3.85886,0.71494,0.71963
549.539,27.86615,-3.85886,0.71501,0.71923
550.039,27.8814,-3.85886,0.71641,0.71884
550.539,27.8966,-3.85886,0.70897,0.71844
551.039,27.91183,-3.85886,0.71311,0.71804
551.539,27.9271,-3.85932,0.71051,0.71765
552.039,27.94237,-3.85983,0.7119,0.71725
552.539,27.95767,-3.85985,0.71241,0.71686
553.039,27.9729,-3.85985,0.71069,0.71646
553.539,27.9882,-3.85985,0.70926,0.71606
554.039,28.00351,-3.85986,0.71049,0.71567
554.539,28.01882,-3.86017,0.70956,0.71528
555.039,28.03411,-3.86018,0.70915,0.71488
555.539,28.04947,-3.86018,0.70803,0.71449
556.039,28.0648,-3.86018,0.70676,0.7141
556.539,28.0801,-3.86018,0.70684,0.7137
557.039,28.09543,-3.86018,0.7062,0.71331
557.539,28.1108,-3.86018,0.7076,0.71292
558.039,28.12609,-3.86018,0.71037,0.71253
558.539,28.14142,-3.86018,0.71018,0.71213
559.039,28.15673,-3.86018,0.71001,0.71174
559.539,28.172,-3.86018,0.71046,0.71135
560.039,28.18737,-3.86018,0.71051,0.71096
560.539,28.2027,-3.86018,0.71269,0.71057
561.039,28.21805,-3.86018,0.71273,0.71018
561.539,28.23344,-3.86018,0.71093,0.70979
562.039,28.24881,-3.86013,0.71263,0.7094
562.539,28.2642,-3.8614,0.71064,0.70901
563.039,28.2796,-3.8615,0.70949,0.70863
563.539,28.295,-3.8615,0.71318,0.70824
564.039,28.3103,-3.8615,0.71338,0.70785
564.539,28.32569,-3.8615,0.71434,0.70746
565.039,28.341,-3.86037,0.71475,0.70707
565.539,28.35643,-3.86024,0.71037,0.70669
566.039,28.3718,-3.85891,0.71061,0.7063
566.539,28.3872,-3.85887,0.71313,0.70592
567.039,28.4026,-3.85887,0.71254,0.70553
567.539,28.41798,-3.85887,0.7118,0.70514
568.039,28.4334,-3.85887,0.71306,0.70476
568.539,28.4488,-3.85896,0.71254,0.70437
569.039,28.46425,-3.86014,0.71216,0.70399
569.539,28.4797,-3.86018,0.71303,0.70361
570.039,28.49506,-3.86018,0.71179,0.70322
570.539,28.51043,-3.86018,0.71063,0.70284
571.039,28.5259,-3.86018,0.71431,0.70246
571.539,28.5413,-3.85999,0.71556,0.70207
572.039,28.55665,-3.85953,0.71395,0.70169
572.539,28.57221,-3.85952,0.71408,0.70131
573.039,28.5876,-3.85952,0.71769,0.70093
573.539,28.60306,-3.85952,0.71487,0.70055
574.039,28.61855,-3.85952,0.71847,0.70017
574.539,28.634,-3.85952,0.71575,0.69979
575.039,28.64947,-3.85952,0.71666,0.69941
575.539,28.66487,-3.85952,0.71341,0.69903
576.039,28.6803,-3.85952,0.7171,0.69865
576.539,28.6957,-3.85952,0.71593,0.69827
577.039,28.7111,-3.85952,0.71632,0.69789
577.539,28.7265,-3.85952,0.71631,0.69751
578.039,28.74206,-3.85952,0.71787,0.69713
578.539,28.75755,-3.85952,0.71896,0.69676
579.039,28.773,-3.85952,0.71756,0.69638
579.539,28.7885,-3.85952,0.71951,0.696
580.039,28.80395,-3.85948,0.71929,0.69563
580.539,28.8194,-3.8595,0.7195,0.69525
581.039,28.8349,-3.85918,0.71833,0.69487
581.539,28.8504,-3.85955,0.72167,0.6945
582.039,28.8659,-3.85953,0.71716,0.69412
582.539,28.88138,-3.85953,0.7192,0.69375
583.039,28.8969,-3.85953,0.71908,0.69337
583.539,28.9124,-3.85953,0.71754,0.693
584.039,28.9279,-3.86006,0.71917,0.69263
584.539,28.9434,-3.8605,0.71817,0.69225
585.039,28.959,-3.86051,0.71733,0.69188
585.539,28.9745,-3.86051,0.71984,0.69151
586.039,28.99002,-3.86051,0.71755,0.69114
586.539,29.0055,-3.86051,0.71761,0.69076
587.039,29.02102,-3.86051,0.71848,0.69039
587.539,29.0365,-3.86051,0.71555,0.69002
588.039,29.052,-3.86051,0.71752,0.68965
588.539,29.06751,-3.86051,0.7166,0.68928
589.039,29.08297,-3.86051,0.71871,0.68891
589.539,29.09849,-3.86051,0.71691,0.68854
590.039,29.11405,-3.86057,0.71829,0.68817
590.539,29.1295,-3.86081,0.71747,0.6878
591.039,29.145,-3.86175,0.7192,0.68744
591.539,29.16058,-3.86215,0.71645,0.68707
592.039,29.1761,-3.86215,0.71734,0.6867
592.539,29.1917,-3.86216,0.71761,0.68633
593.039,29.20727,-3.86106,0.71763,0.68597
593.539,29.22281,-3.86084,0.71664,0.6856
594.039,29.23838,-3.86084,0.71822,0.68523
594.539,29.25388,-3.86084,0.71614,0.68487
595.039,29.26945,-3.86084,0.71775,0.6845
595.539,29.285,-3.86084,0.71867,0.68414
596.039,29.30064,-3.86084,0.71748,0.68377
596.539,29.31622,-3.86084,0.71826,0.68341
597.039,29.33178,-3.86084,0.7173,0.68304
597.539,29.34737,-3.86084,0.71579,0.68268
598.039,29.3629,-3.86084,0.71922,0.68232
598.539,29.37845,-3.86084,0.71874,0.68195
599.039,29.39402,-3.86084,0.71978,0.68159
599.539,29.40962,-3.86084,0.71551,0.68123
600.039,29.4252,-3.86084,0.72058,0.68087
600.539,29.44081,-3.86084,0.72212,0.68051
601.039,29.45642,-3.86084,0.72054,0.68015
601.539,29.472,-3.86084,0.71831,0.67979
602.039,29.48756,-3.86084,0.71695,0.67943
602.539,29.5032,-3.86084,0.72072,0.67907
603.039,29.5188,-3.86084,0.72203,0.67871
603.539,29.53448,-3.86084,0.7234,0.67835
604.039,29.55012,-3.86084,0.72249,0.67799
604.539,29.56577,-3.86084,0.72403,0.67763
605.039,29.5814,-3.86084,0.7237,0.67727
605.539,29.5971,-3.86084,0.72171,0.67692
606.039,29.61269,-3.86084,0.72122,0.67656
606.539,29.6284,-3.86084,0.72274,0.6762
607.039,29.644,-3.86086,0.72341,0.67585
607.539,29.65966,-3.85981,0.72661,0.67549
608.039,29.67533,-3.85952,0.72236,0.67513
608.539,29.691,-3.85952,0.72484,0.67478
609.039,29.7066,-3.85952,0.72694,0.67442
609.539,29.7222,-3.85928,0.72624,0.67407
610.039,29.73787,-3.85815,0.72414,0.67372
610.539,29.7535,-3.85957,0.72551,0.67336
611.039,29.76918,-3.85953,0.72592,0.67301
611.539,29.78492,-3.85953,0.72736,0.67266
612.039,29.80058,-3.85953,0.72761,0.6723
612.539,29.81632,-3.85953,0.72891,0.67195
613.039,29.832,-3.85953,0.7296,0.6716
613.539,29.8477,-3.86002,0.73292,0.67125
614.039,29.8634,-3.86085,0.73406,0.6709
614.539,29.87905,-3.86084,0.73285,0.67055
615.039,29.8947,-3.86084,0.73297,0.6702
615.539,29.9104,-3.86084,0.7327,0.66985
616.039,29.9261,-3.86084,0.73426,0.6695
616.539,29.94163,-3.85968,0.73264,0.66915
617.039,29.9573,-3.85953,0.73294,0.6688
617.539,29.97288,-3.85953,0.73406,0.66845
618.039,29.98858,-3.85953,0.73112,0.6681
618.339,29.99812,-3.85953,0.72864,0.6679