File: 01_Data/Excelsior/Cone/Excelsior_Cone_HF35Scan_181018_R2.csv
Names,Time,Stack TC,Smoke TC,Exh Press,Smoke Comp,Smoke Meas,CO Meter,CO2 Meter,O2 Meter,Sample Mass,Ext Coeff,Start Test,Flame Verif
Chan Gain,,500,500,1,1,1,1,1,1,1,1,1,1
Offset,,0,0,0.14301,0,0,0,0,0,0,0,0,0
Gain,,1,1,25.011,14.3065,15.6922,1,1,1,1.00094,1.047,1,1
Units,sec,C,C,Pa,%,%,%,%,%,g,/m,,
Baseline,,39.6114,41.5643,167.614,103.512,104.658,0.00221593,0.0504185,20.9581,-0.0975498,-0.101115,,
3,0.5,37.9183,39.7215,164.106,103.465,104.602,0.00261846,0.0514651,20.9592,944.836,-0.100386,0,0
6,1.25,38.8204,39.5174,168.652,103.476,104.248,0.002671237,0.0514595,20.9595,945.667,-0.0682534,0,0
9,2,38.9313,39.7106,171.55,103.48,104.414,0.002709712,0.0514392,20.9591,945.106,-0.0824518,0,0
12,2.75,38.5403,40.3428,164.809,103.481,104.186,0.002732332,0.0514063,20.9587,945.577,-0.062341,0,0
15,3.5,38.7479,40.3962,163.62,103.488,104.353,0.002748822,0.0513823,20.9585,945.337,-0.0764838,0,0
18,4.25,38.6101,40.4826,167.393,103.497,104.017,0.002760843,0.0513829,20.9583,945.326,-0.0460316,0,0
21,5,39.0005,40.0466,167.236,103.501,104.15,0.002757438,0.0514595,20.9578,945.427,-0.0574729,0,0
24,5.75,38.9231,39.6948,169.602,103.501,104.658,0.002737814,0.0516081,20.9571,945.156,-0.102091,0,0
27,6.5,38.1097,40.2375,168.878,103.501,104.837,0.002716199,0.0518193,20.9565,945.246,-0.117873,0,0
30,7.25,38.9517,40.5328,167.435,103.529,104.376,0.002649036,0.0522271,20.9555,945.186,-0.0748269,0,0
33,8,38.3754,41.004,167.82,103.518,103.981,0.002578158,0.0527048,20.9541,945.146,-0.0409621,0,0
36,8.75,38.8689,40.8843,165.316,103.535,104.286,0.002483074,0.0533617,20.9526,945.256,-0.0663978,0,0
39,9.5,38.982,40.8297,166.572,103.54,104.221,0.002396643,0.0540081,20.9513,945.206,-0.0601956,0,0
42,10.25,38.874,41.0143,164.781,103.551,104.625,0.002320335,0.0547656,20.9504,945.196,-0.0947765,0,0
45,11,38.8287,41.0712,165.391,103.557,104.181,0.002254439,0.0556998,20.9479,945.206,-0.0551822,0,0
48,11.75,38.5773,41.3152,165.211,103.562,104.291,0.002214539,0.0567115,20.946,945.126,-0.0644576,0,0
51,12.5,39.5081,40.8723,170.648,103.569,103.315,0.002200662,0.0577357,20.9444,945.146,0.0225959,0,0
54,13.25,39.3239,41.2366,164.393,103.584,103.314,0.00219703,0.058828,20.9429,945.126,0.0239959,0,0
57,14,38.7306,41.4302,170.819,103.589,103.462,0.002235075,0.0598285,20.9418,945.106,0.0112732,0,0
60,14.75,39.686,41.0043,166.758,103.609,102.692,0.002272826,0.0607254,20.9409,945.126,0.08162751,0,0
63,15.5,39.5657,40.8567,164.657,103.611,103.098,0.002317474,0.06151716,20.9403,945.086,0.0456125,0,0
66,16.25,38.9513,41.3855,168.684,103.628,102.286,0.002371866,0.0621582,20.9398,945.086,0.11964,0,0
69,17,39.7799,41.4241,169.848,103.635,100.595,0.002438876,0.0626527,20.9391,945.076,0.273356,0,0
72,17.75,39.1058,41.5869,164.83,103.648,101.689,0.002518583,0.0635416,20.9361,945.046,0.175238,0,0
75,18.5,39.6371,41.0651,165.555,103.652,101.73,0.002631972,0.0668951,20.934,944.996,0.171945,0,0
78,19.25,39.4551,41.0874,161.158,103.664,103.577,0.0027382,0.0704933,20.9215,944.996,0.007774439,0,0
81,20,39.1386,41.3243,156.779,103.678,106.056,0.00290536,0.0810967,20.8996,944.686,-0.20823,0,1
84,20.75,39.3832,42.4407,151.979,103.692,103.741,0.003065469,0.0964435,20.8697,944.886,-0.004384778,0,1
87,21.5,40.5026,43.7568,154.667,103.703,105.044,0.003256751,0.114838,20.8417,945.026,-0.118017,0,1
90,22.25,41.3739,45.1301,152.73,103.708,104.855,0.003446117,0.133254,20.8107,944.396,-0.101041,0,1
93,23,42.2553,46.5003,155.316,103.734,103.877,0.003615173,0.15524,20.7776,944.576,-0.0126634,0,1
96,23.75,43.1589,47.0172,152.266,103.733,103.758,0.003765722,0.177528,20.7478,944.316,-0.00219158,0,1
99,24.5,44.0485,48.2962,154.323,103.744,105.528,0.003881212,0.196445,20.7237,944.226,-0.156616,0,1
102,25.25,44.4973,49.5922,158.435,103.756,106.241,0.003967852,0.216846,20.7005,944.316,-0.217343,0,1
105,26,44.741,51.2673,156.291,103.761,105.28,0.004041946,0.23345,20.6806,944.115,-0.133536,0,0
108,26.75,46.2151,51.8865,152.241,103.79,104.454,0.004107457,0.248517,20.6647,944.185,-0.0585576,0,0
111,27.5,46.2407,52.9936,155.021,103.805,104.33,0.004160115,0.26345,20.6507,944.035,-0.0462929,0,0
114,28.25,46.8804,54.4215,160.374,103.802,103.575,0.004206168,0.276924,20.6396,943.875,0.020159,0,0
117,29,47.9845,54.9223,152.504,103.813,103.813,0.004250068,0.289338,20.6299,943.805,4.48883E-05,0,0
120,29.75,48.1857,55.9674,148.677,103.833,105.116,0.004294144,0.300931,20.6207,943.675,-0.112741,0,0
123,30.5,49.3162,56.7548,149.108,103.844,103.111,0.00434928,0.3108854,20.6121,943.575,0.0650651,0,0
126,31.25,49.8013,57.3595,146.319,103.84,103.219,0.004416444,0.320713,20.6043,943.525,0.0550866,0,0
129,32,49.668,58.5149,146.5,103.866,103.268,0.004494755,0.330271,20.5955,943.365,0.0530567,0,0
132,32.75,50.9332,59.3036,153.42,103.881,103.084,0.004599836,0.339351,20.5861,943.305,0.0707348,0,0
135,33.5,51.021,59.7144,149.828,103.89,102.916,0.004719147,0.347837,20.5776,943.174,0.0864953,0,0
138,34.25,51.7866,61.1952,152.795,103.895,102.857,0.004844164,0.356915,20.5698,943.074,0.0922157,0,0
141,35,52.3599,61.2099,148.493,103.897,104.009,0.004977603,0.364402,20.5639,943.014,-0.009899934,0,0
144,35.75,52.6529,62.5425,148.115,103.938,105.091,0.005092913,0.371343,20.5593,942.884,-0.101343,0,0
147,36.5,53.1234,62.6396,152.267,103.94,104.228,0.005193362,0.378161,20.5556,942.774,-0.0254228,0,0
150,37.25,53.3679,64.1137,158.062,103.952,104.281,0.005274589,0.383699,20.5526,942.744,-0.0289801,0,0
153,38,53.562,64.1776,150.762,103.953,103.624,0.005335536,0.388707,20.5501,942.614,0.0290995,0,0
156,38.75,54.6099,64.4591,155.921,103.969,104.697,0.005383817,0.393201,20.5483,942.464,-0.0640927,0,0
159,39.5,54.1855,65.8458,148.421,103.976,104.176,0.005426427,0.396837,20.5472,942.414,-0.0176564,0,0
162,40.25,55.2389,66.0064,152.453,103.985,104.037,0.005455897,0.400032,20.5468,942.314,-0.004598376,0,0
165,41,55.3086,66.7292,158.404,104,104.2,0.00547045,0.402335,20.549,942.204,-0.0176109,0,0
168,41.75,55.6388,67.3432,155.143,104.021,104.271,0.005465873,0.403778,20.5506,942.174,-0.0221248,0,0
171,42.5,56.5686,66.9302,157.157,104.027,102.653,0.005436569,0.4045,20.5518,942.053,0.122102,0,0
174,43.25,56.0811,67.5592,151.382,104.045,104.816,0.00540205,0.404468,20.5545,941.983,-0.0678425,0,0
177,44,56.2887,68.3476,159.124,104.061,104.246,0.00535439,0.403865,20.5565,941.883,-0.0163007,0,0
180,44.75,57.0643,67.7069,153.337,104.074,105.22,0.005310035,0.402839,20.5597,941.753,-0.100566,0,0
183,45.5,56.6551,68.5941,148.986,104.079,103.224,0.005273603,0.4020904,20.5627,941.713,0.0758353,0,0
186,46.25,56.8384,68.6089,150.032,104.095,104.437,0.005247044,0.4005,20.5668,941.603,-0.0300762,0,0
189,47,56.9579,68.7659,152.982,104.107,105.82,0.005229605,0.39852,20.5707,941.533,-0.149903,0,0
192,47.75,57.5568,68.4773,154.53,104.123,102.903,0.005217712,0.396438,20.5751,941.433,0.108236,0,0
195,48.5,57.7835,68.6588,149.99,104.135,104.155,0.005209042,0.393842,20.5796,941.313,-0.001775452,0,0
198,49.25,57.6403,68.7709,161.079,104.134,105.585,0.005202721,0.39143,20.5835,941.203,-0.127047,0,0
201,50,58.1992,68.574,149.903,104.151,104.862,0.005178928,0.388781,20.588,941.113,-0.0625058,0,0
204,50.75,57.2384,69.2649,157.551,104.168,105.118,0.005144292,0.385788,20.593,941.083,-0.0833748,0,0
207,51.5,58.2434,68.9225,160.874,104.169,104.835,0.005112682,0.383152,20.5982,941.022,-0.0585366,0,0
210,52.25,58.1196,69.164,154.066,104.183,104.931,0.005091368,0.379433,20.6032,940.942,-0.0657334,0,0
213,53,57.971,69.6377,154.539,104.187,105.697,0.005096968,0.376722,20.6075,940.872,-0.13217,0,0
216,53.75,58.6771,68.6358,158.993,104.198,104.041,0.005125235,0.373353,20.6119,940.772,0.0138655,0,0
219,54.5,57.7494,69.2684,153.615,104.201,105.348,0.005171791,0.370295,20.6156,940.692,-0.100556,0,0
222,55.25,58.5959,68.6818,149.077,104.21,104.227,0.005227678,0.367524,20.6188,940.642,-0.00144749,0,0
225,56,57.8591,69.0812,152.435,104.221,104.434,0.005256242,0.365019,20.6206,940.562,-0.0187359,0,0
228,56.75,58.3438,68.8778,154.553,104.23,103.625,0.005293087,0.362228,20.6235,940.462,0.0534812,0,0
231,57.5,57.5579,68.7831,157.982,104.234,104.031,0.005321586,0.359846,20.626,940.362,0.0179859,0,0
234,58.25,58.3518,68.4665,151.947,104.255,103.784,0.005376604,0.357515,20.6291,940.272,0.0415535,0,0
237,59,57.7135,68.9283,151.799,104.256,103.614,0.005447508,0.355906,20.6323,940.212,0.0567646,0,0
240,59.75,58.4492,68.4531,154.782,104.256,104.195,0.005528544,0.353509,20.6351,940.142,0.005418945,0,0
243,60.5,57.6619,68.5963,154.604,104.267,104.965,0.005615352,0.350978,20.6371,940.122,-0.0612454,0,0
246,61.25,58.4477,68.4294,153.665,104.275,105.309,0.005705613,0.348949,20.6387,939.981,-0.0905894,0,0
249,62,57.7061,69.1498,153.524,104.286,104.621,0.005792047,0.347156,20.6397,939.931,-0.0294996,0,0
252,62.75,57.9839,68.157,160.914,104.275,102.797,0.005870672,0.345575,20.6412,939.921,0.131121,0,0
255,63.5,58.0246,68.841,153.912,104.285,104.675,0.00593002,0.344146,20.6422,939.771,-0.0342413,0,0
258,64.25,58.2018,68.0444,152.392,104.297,104.197,0.005962788,0.342831,20.6432,939.691,0.008825627,0,0
261,65,58.2045,68.6358,152.442,104.31,104.428,0.005998712,0.341482,20.6443,939.591,-0.0103433,0,0
264,65.75,58.0769,68.1243,155.301,104.313,102.921,0.006027122,0.340331,20.6451,939.611,0.123392,0,0
267,66.5,58.0505,68.4252,157.341,104.32,105.57,0.006053043,0.339206,20.6459,939.531,-0.109363,0,0
270,67.25,57.8398,68.3087,153.146,104.329,105.651,0.006079045,0.338407,20.6469,939.461,-0.115636,0,0
273,68,58.481,68.0149,157.148,104.335,105.325,0.006110153,0.337198,20.6482,939.391,-0.0867844,0,0
276,68.75,57.9409,68.2854,154.668,104.343,103.799,0.006124184,0.33595,20.6491,939.301,0.0480023,0,0
279,69.5,58.3896,68.0744,157.875,104.36,105.141,0.006130726,0.335041,20.6498,939.251,-0.0684613,0,0
282,70.25,58.0474,67.5507,154.478,104.368,104.417,0.00608051,0.333731,20.6506,939.141,-0.004347536,0,0
285,71,58.3207,68.2723,154.991,104.375,103.456,0.006043902,0.332593,20.6512,939.031,0.0811576,0,0
288,71.75,58.4115,67.7243,154.649,104.378,104.948,0.005945782,0.33145,20.6522,938.92,-0.0499738,0,0
291,72.5,58.1159,68.1556,153.76,104.396,104.956,0.005843456,0.330315,20.6533,938.901,-0.0491499,0,0
294,73.25,57.7031,67.7702,151.965,104.409,106.055,0.005744593,0.32936,20.6545,938.84,-0.143712,0,0
297,74,57.7126,67.793,154.281,104.415,104.536,0.005653473,0.328427,20.6559,938.77,-0.0105976,0,0
300,74.75,58.1369,67.4684,156.512,104.418,103.863,0.005584307,0.327636,20.6575,938.74,0.04889537,0,0
303,75.5,57.9179,67.9698,154.283,104.435,104.73,0.005537726,0.32687,20.6587,938.66,-0.02589271,0,0
306,76.25,58.2182,67.3363,153.085,104.451,104.832,0.005505406,0.325905,20.6597,938.57,-0.0334512,0,0
309,77,58.4332,67.3961,150.725,104.459,105.543,0.005481845,0.324886,20.6604,938.54,-0.0947765,0,0
312,77.75,58.6744,67.5582,157.286,104.466,104.895,0.005455562,0.323906,20.6609,938.47,-0.0376865,0,0
315,78.5,58.4124,67.2387,151.323,104.468,105.428,0.005420831,0.323016,20.6612,938.37,-0.0840819,0,0
318,79.25,57.9063,67.4748,156.761,104.476,105.628,0.005375282,0.322304,20.6615,938.31,-0.100694,0,0
321,80,58.3286,67.0454,149.853,104.474,104.677,0.005333453,0.321808,20.6617,938.26,-0.0178177,0,0
324,80.75,57.9995,67.463,153.285,104.498,104.707,0.005316671,0.321487,20.662,938.2,-0.01835358,0,0
327,81.5,58.0476,67.6773,152.356,104.485,103.794,0.005329435,0.3212291,20.6621,938.1,0.0609071,0,0
330,82.25,58.3359,67.5138,153.998,104.499,105.294,0.005363576,0.321001,20.6617,938.08,-0.0696687,0,0
333,83,58.556,67.1654,162.168,104.493,105.311,0.005412707,0.320806,20.6615,938.01,-0.0715878,0,0
336,83.75,58.7668,67.1603,153.23,104.5056,105.121,0.00546225,0.3206833,20.6615,937.93,-0.0539222,0,0
339,84.5,58.1179,67.7841,156.026,104.508,105.257,0.005498366,0.320648,20.6619,937.9,-0.0655239,0,0
342,85.25,57.8369,67.4669,151.644,104.51,104.867,0.005508217,0.320494,20.6627,937.779,-0.0312945,0,0
345,86,58.6566,67.0613,152.298,104.527,104.273,0.005484618,0.320224,20.6634,937.709,0.0223556,0,0
348,86.75,57.9913,67.5351,158.47,104.534,103.706,0.005435068,0.319758,20.6639,937.649,0.0730095,0,0
351,87.5,58.6302,67.2345,150.077,104.53,105.035,0.005366071,0.319104,20.6649,937.579,-0.04431906,0,0
354,88.25,58.1137,67.0287,153.765,104.532,105.137,0.005280144,0.318493,20.6657,937.519,-0.0530043,0,0
357,89,58.4723,67.249,149.851,104.548,105.071,0.005210424,0.31775,20.6662,937.449,-0.0457686,0,0
360,89.75,58.7245,66.645,151.454,104.548,104.647,0.005147495,0.317013,20.6675,937.419,-0.008727816,0,0
363,90.5,58.0417,67.4678,158.378,104.548,102.48,0.005104652,0.3162,20.6688,937.329,0.183487,0,0
366,91.25,58.7344,66.3792,156.106,104.546,105.627,0.005078604,0.315431,20.6699,937.269,-0.0944728,0,0
369,92,58.0329,66.935,160.7,104.541,103.609,0.005069727,0.314708,20.6707,937.229,0.0822699,0,0
372,92.75,58.7168,66.4705,150.628,104.55,105.331,0.005080547,0.314182,20.6713,937.169,-0.06835486,0,0
375,93.5,57.9697,66.7668,154.243,104.553,104.21,0.005107626,0.313267,20.6721,937.109,0.0301472,0,0
378,94.25,58.288,66.9412,155.894,104.559,104.532,0.005133131,0.312358,20.6736,937.059,0.002361262,0,0
381,95,58.2765,66.1524,154.966,104.568,104.066,0.005162276,0.31128,20.6759,937.019,0.0442048,0,0
384,95.75,58.4184,66.8428,152.711,104.575,104.17,0.005197364,0.310229,20.6776,936.959,0.0356062,0,0
387,96.5,58.883,66.2708,155.886,104.569,105.128,0.005244885,0.309008,20.6788,936.879,-0.0489876,0,0
390,97.25,57.9013,66.6632,153.856,104.565,104.361,0.005292692,0.307674,20.6803,936.798,0.0179772,0,0
393,98,58.3837,66.4524,159.231,104.575,104.221,0.005350054,0.306332,20.6826,936.788,0.0312122,0,0
396,98.75,58.1436,66.0205,159.767,104.577,103.992,0.005439992,0.304924,20.6846,936.728,0.0515598,0,0
399,99.5,57.9267,66.6467,152.708,104.568,105.161,0.00552607,0.303432,20.6863,936.648,-0.051912,0,0
402,100.25,58.6876,66.1987,154.971,104.575,103.604,0.005608056,0.301545,20.6885,936.648,0.0856091,0,0
405,101,57.919,66.4455,154.723,104.598,103.023,0.005653633,0.29986,20.6905,936.578,0.139318,0,0
408,101.75,58.3076,65.641,157.619,104.589,105.324,0.005662592,0.298101,20.6925,936.508,-0.064316,0,0
411,102.5,57.6159,66.0658,154.987,104.593,104.679,0.005603238,0.296027,20.6953,936.438,-0.007594747,0,0
414,103.25,58.1043,66.1513,157.402,104.583,105.772,0.005534671,0.294177,20.6979,936.418,-0.103859,0,0
417,104,57.7249,65.4498,154.55,104.607,106.1,0.005441425,0.29214,20.6998,936.368,-0.130151,0,0
420,104.75,57.8015,65.6882,156.545,104.597,104.924,0.005335076,0.290216,20.7016,936.308,-0.0286945,0,0
423,105.5,57.5014,65.0877,152.192,104.597,103.536,0.005260579,0.288626,20.7031,936.258,0.0935943,0,0
426,106.25,57.9676,65.2855,155.568,104.596,104.754,0.005211453,0.286968,20.7055,936.198,-0.01383987,0,0
429,107,57.1914,65.0006,154.461,104.6,104.261,0.005206392,0.285322,20.7072,936.128,0.0298111,0,0
432,107.75,57.5911,65.2156,152.971,104.608,105.215,0.005229982,0.283936,20.7084,936.098,-0.0531866,0,0
435,108.5,57.3938,64.617,158.685,104.611,105.574,0.005271407,0.282074,20.7105,936.048,-0.0840941,0,0
438,109.25,57.6778,64.6068,159.343,104.596,105.696,0.00532904,0.280336,20.714,936.008,-0.0960913,0,0
441,110,56.8132,64.6564,157.978,104.611,105.534,0.005396073,0.278416,20.7172,935.958,-0.0806778,0,0
444,110.75,57.5058,64.5374,161.407,104.592,106.005,0.005455606,0.276004,20.7207,935.938,-0.123244,0,0
447,111.5,57.1476,63.9113,158.146,104.606,106.338,0.005538885,0.273511,20.7239,935.878,-0.150805,0,0
450,112.25,57.4071,63.7902,160.072,104.611,105.603,0.005599596,0.271038,20.7266,935.818,-0.0866771,0,0
453,113,56.5287,64.1055,152.356,104.603,105.972,0.00569056,0.268653,20.7285,935.778,-0.11938,0,0
456,113.75,56.6108,63.6258,156.441,104.607,105.656,0.005756873,0.265965,20.7312,935.737,-0.0916404,0,0
459,114.5,56.2092,63.6165,156.089,104.61,105.587,0.005801363,0.263602,20.7335,935.657,-0.0853797,0,0
462,115.25,56.1835,63.3671,166.014,104.606,106.107,0.005819989,0.260607,20.7358,935.517,-0.130809,0,0
465,116,56.4584,63.5312,156.716,104.599,107.706,0.005812766,0.257881,20.7393,935.617,-0.268752,0,0
468,116.75,56.7163,62.4252,162.871,104.595,107.019,0.005777284,0.254877,20.7444,935.567,-0.21039,0,0
471,117.5,56.0122,62.7427,162.246,104.606,105.962,0.005750403,0.250948,20.7509,935.527,-0.118317,0,0
474,118.25,55.8926,62.2997,156.33,104.597,106.482,0.005741237,0.246109,20.7584,935.507,-0.164054,0,0
477,119,56.0784,62.4783,161.291,104.596,105.765,0.005755356,0.241835,20.7657,935.467,-0.102081,0,0
480,119.75,55.9569,62.0691,160.306,104.61,105.777,0.005794046,0.237441,20.771,935.467,-0.10186,0,0
483,120.5,55.237,60.9672,157.927,104.597,105.767,0.005870811,0.232502,20.7768,935.437,-0.102133,0,0
486,121.25,55.6188,61.0898,162.687,104.612,106.248,0.005994292,0.227732,20.7816,935.407,-0.142527,0,0
489,122,55.3456,60.6458,162.013,104.603,105.394,0.006181654,0.223756,20.7876,935.367,-0.0692285,0,0
492,122.75,55.1564,60.5952,165.23,104.614,106.876,0.00629889,0.218939,20.7911,935.347,-0.196448,0,0
495,123.5,54.7602,60.4691,164.966,104.615,106.029,0.00650396,0.214643,20.7958,935.317,-0.123283,0,0
498,124.25,54.7872,60.0722,159.1,104.611,105.818,0.006724931,0.21017,20.8004,935.317,-0.105317,0,0
501,125,54.6619,59.2313,157.568,104.59,107.21,0.006957483,0.204425,20.8051,935.297,-0.227233,0,0
504,125.75,53.9118,59.5518,159.698,104.609,105.801,0.00725705,0.202104,20.8103,935.327,-0.10405,0,0
507,126.5,54.5971,58.7994,162.435,104.61,107.019,0.007475434,0.197588,20.8147,935.307,-0.209049,0,0
510,127.25,53.5811,58.9951,163.593,104.613,107.22,0.007839808,0.192741,20.8198,935.297,-0.226104,0,0
513,128,53.9221,58.2411,159.198,104.603,106.489,0.008198943,0.188615,20.8239,935.277,-0.164131,0,0
516,128.75,53.5026,58.185,162.011,104.611,105.856,0.008410447,0.184593,20.8266,935.287,-0.108641,0,0
519,129.5,52.917,57.4383,165.641,104.615,106.376,0.008788402,0.180592,20.8309,935.287,-0.153266,0,0
522,130.25,52.8766,57.4282,163.63,104.603,105.47,0.009172643,0.176794,20.8345,935.257,-0.07574033,0,0
525,131,52.8643,56.644,162.044,104.603,106.303,0.009486745,0.173298,20.8373,935.227,-0.148092,0,0
528,131.75,52.3019,56.8485,163.072,104.607,106.711,0.009773851,0.170798,20.8399,935.217,-0.182891,0,0
531,132.5,52.6113,56.0235,166.859,104.599,105.815,0.0100404,0.167521,20.8433,935.197,-0.106221,0,0
534,133.25,51.9495,56.3608,166.153,104.613,106.187,0.01023468,0.164467,20.8464,935.167,-0.137074,0,0
537,134,52.2431,55.3993,165.535,104.596,105.921,0.0104015,0.161249,20.8491,935.147,-0.115594,0,0
540,134.75,52.1109,55.609,168.37,104.606,105.978,0.0105172,0.158195,20.8518,935.147,-0.119728,0,0
543,135.5,51.9766,54.7168,164.321,104.604,105.987,0.0105949,0.155667,20.8544,935.137,-0.12067,0,0
546,136.25,51.543,55.0776,164.559,104.608,106.164,0.0106446,0.153038,20.8566,935.097,-0.135666,0,0
549,137,51.101,54.1537,163.231,104.608,105.984,0.01068072,0.150786,20.8586,935.077,-0.119996,0,0
552,137.75,51.4378,54.3133,161.077,104.612,106.085,0.0107211,0.148234,20.8607,935.067,-0.128483,0,0
555,138.5,50.6178,54.4311,165.71,104.624,105.574,0.0107701,0.145909,20.8624,935.047,-0.0830665,0,0
558,139.25,50.39,54.1529,160.327,104.627,106.058,0.0108234,0.144016,20.8636,935.047,-0.124741,0,0
561,140,50.7043,53.5457,163.793,104.623,106.334,0.0108782,0.141973,20.8652,935.047,-0.14902,0,0
564,140.75,50.5371,53.8038,159.708,104.616,106.384,0.01092747,0.140013,20.8663,935.027,-0.153972,0,0
567,141.5,50.0026,53.6266,159.634,104.629,105.85,0.0109793,0.138263,20.8671,935.007,-0.10653,0,0
570,142.25,50.3131,52.7424,166.012,104.636,105.715,0.0110514,0.136515,20.8686,935.007,-0.0942295,0,0
573,143,50.5208,52.5621,166.353,104.645,106.25,0.01113821,0.135019,20.87,934.977,-0.139741,0,0
576,143.75,50.1713,52.8663,159.258,104.627,106.327,0.0112351,0.133548,20.8708,934.977,-0.148052,0,0
579,144.5,49.8379,52.6861,162.578,104.632,106.582,0.0113431,0.132184,20.8719,934.957,-0.169613,0,0
582,145.25,49.6315,51.8556,157.383,104.635,106.543,0.0114584,0.130692,20.8734,934.937,-0.165964,0,0
585,146,50.0567,51.6823,166.401,104.649,106.886,0.0115779,0.129114,20.8746,934.907,-0.194246,0,0
588,146.75,49.944,51.6301,164.867,104.648,106.405,0.0117042,0.12777,20.8758,934.947,-0.152917,0,0
591,147.5,49.1917,52.0627,163.65,104.65,105.998,0.0117964,0.126459,20.8769,934.907,-0.1176,0,0
594,148.25,49.318,51.6756,158.049,104.653,106.487,0.011872,0.125128,20.8777,934.887,-0.159559,0,0
597,149,49.361,51.7049,159.337,104.664,105.206,0.01189899,0.123922,20.8788,934.887,-0.0474874,0,0
600,149.75,49.2949,51.1949,167.502,104.668,105.797,0.0119052,0.122942,20.8797,934.877,-0.0985444,0,0
603,150.5,48.6343,51.3392,167.588,104.678,105.781,0.0118868,0.121647,20.881,934.877,-0.096291,0,0
606,151.25,48.6279,51.3615,163.46,104.689,106.306,0.0118556,0.120496,20.8822,934.847,-0.140832,0,0
609,152,48.6551,51.0548,163.47,104.69,105.848,0.0118228,0.119303,20.8834,934.857,-0.101041,0,0
612,152.75,48.5742,51.1614,168.651,104.7,105.921,0.0117944,0.118004,20.8843,934.897,-0.106474,0,0
615,153.5,48.3607,51.1161,167.243,104.705,106.197,0.0117796,0.116919,20.8853,934.787,-0.129898,0,0
618,154.25,48.3952,50.995,162.982,104.714,106.153,0.0117713,0.115893,20.8865,934.877,-0.125324,0,0
621,155,48.4514,50.1142,165.315,104.724,106.486,0.0117928,0.114828,20.8875,934.727,-0.153274,0,0
624,155.75,48.3311,50.2964,162.153,104.727,106.065,0.0118399,0.113894,20.8881,934.817,-0.116586,0,0
627,156.5,48.8009,49.984,165.029,104.735,106.025,0.0119079,0.112943,20.8892,934.737,-0.112413,0,0
630,157.25,48.0164,50.4116,160.59,104.738,106.289,0.0119996,0.112092,20.89,934.757,-0.135057,0,0
633,158,48.3684,50.1961,166.385,104.749,106.602,0.0120716,0.111201,20.8906,934.797,-0.16104,0,0
636,158.75,47.8732,50.2475,166.377,104.761,104.782,0.0121298,0.110291,20.8917,934.767,-0.001871269,0,0
639,159.5,48.0023,49.3147,161.758,104.768,105.612,0.012167,0.109538,20.8924,934.787,-0.0736382,0,0
642,160.25,47.977,49.7206,164.305,104.773,106.24,0.012194,0.108837,20.893,934.717,-0.127652,0,0
645,161,47.679,49.8844,167.872,104.778,105.54,0.0121632,0.10801,20.8931,934.747,-0.0664678,0,0
648,161.75,47.4324,49.6595,157.891,104.763,105.631,0.0121408,0.107238,20.893,934.707,-0.07576295,0,0
651,162.5,48.0962,49.1074,166.408,104.785,106.533,0.0120767,0.106603,20.8934,934.697,-0.151999,0,0
654,163.25,47.7406,49.2228,161.619,104.811,105.387,0.0120248,0.106003,20.8939,934.727,-0.050374,0,0
657,164,47.1687,49.2889,162.072,104.816,106.229,0.0119781,0.105331,20.8948,934.616,-0.12295,0,0
660,164.75,47.5634,48.7008,164.917,104.818,105.474,0.011948,0.104724,20.8955,934.727,-0.05731203,0,0
663,165.5,47.6178,48.7158,161.642,104.819,106.267,0.0119309,0.104232,20.896,934.697,-0.126074,0,0
666,166.25,47.8096,48.5517,159.766,104.823,107.01,0.0119164,0.103756,20.8964,934.596,-0.189622,0,0
669,167,46.98,49.22,168.452,104.837,105.924,0.0119004,0.103298,20.8966,934.687,-0.0947023,0,0
672,167.75,46.7822,48.8183,161.533,104.84,105.67,0.01186007,0.102858,20.8968,934.596,-0.0724397,0,0
675,168.5,46.9453,48.9312,168.799,104.837,106.101,0.0117935,0.102482,20.897,934.636,-0.110052,0,0
678,169.25,47.2319,48.6558,163.004,104.857,106.308,0.0116626,0.102169,20.8971,934.616,-0.126184,0,0
681,170,47.3458,48.1821,164.103,104.877,106.27,0.0115319,0.101998,20.8972,934.596,-0.121235,0,0
684,170.75,47.1052,47.8978,165.702,104.87,105.794,0.0113639,0.101725,20.8973,934.556,-0.0806159,0,0
687,171.5,47.0404,48.1435,166.96,104.878,106.137,0.0111984,0.101561,20.8973,934.606,-0.109608,0,0
690,172.25,46.6914,48.0039,165.226,104.874,106.46,0.0110274,0.101499,20.8973,837.776,-0.137919,0,0
693,173,46.5612,48.0798,160.723,104.881,105.651,0.01084807,0.101545,20.8974,134.706,-0.0671416,0,0
696,173.75,46.415,48.5229,166.512,104.887,105.882,0.0105688,0.101597,20.8974,87.8023,-0.0867302,0,0
699,174.5,46.2319,48.3962,164.064,104.897,106.084,0.010302,0.1016002,20.8974,3.77354,-0.103363,0,0
702,175.25,47.1624,48.0307,164.083,104.896,106.808,0.009862839,0.101161,20.8991,62.7689,-0.165872,0,0
705,176,46.8478,47.4056,168.173,104.915,105.944,0.009542714,0.100283,20.9011,-0.0900845,-0.089644,0,0
708,176.75,45.8725,47.8194,166.435,104.92,106.272,0.008872118,0.099013,20.9044,-0.110103,-0.117616,0,0
711,177.5,46.1678,48.0293,170.484,104.921,106.805,0.008295817,0.09689676,20.9083,-0.110103,-0.163446,0,0
714,178.25,46.407,47.5683,168.968,104.925,106.065,0.007726179,0.0948465,20.9128,-0.0600563,-0.09922,0,0
717,179,45.9619,46.8917,171.567,104.93,106.263,0.00711857,0.0922038,20.9186,-0.100094,-0.11591,0,0
720,179.75,46.1203,46.6133,165.695,104.939,105.684,0.006577587,0.0897878,20.923,-0.0800751,-0.0649714,0,0
723,180.5,45.1757,46.8326,167.694,104.93,105.455,0.006091934,0.0866503,20.9266,-0.0800751,-0.0458566,0,0
726,181.25,45.6918,46.9569,167.988,104.939,105.809,0.005653277,0.0836568,20.9311,-0.0800751,-0.0757856,0,0
729,182,45.7315,46.1123,168.935,104.947,106.392,0.005235801,0.0808834,20.9344,-0.0900845,-0.125588,0,0
732,182.75,45.9317,46.1047,167.769,104.954,105.755,0.004889813,0.0783655,20.9367,-0.0900845,-0.0697503,0,0
735,183.5,45.7175,45.9345,167.207,104.955,105.629,0.004540079,0.0758542,20.9385,-0.0900845,-0.0587295,0,0
738,184.25,45.2113,46.5891,165.164,104.949,107.054,0.004243554,0.073808,20.9402,-0.0900845,-0.182351,0,0
741,185,45.1975,45.4434,162.267,104.954,106.611,0.00398419,0.0719479,20.9416,-0.120113,-0.143888,0,0
744,185.75,44.8164,46.1689,165.976,104.95,105.891,0.003721245,0.0703767,20.9439,-0.110103,-0.0819392,0,0
747,186.5,45.0543,45.9165,166.412,104.95,106.542,0.003487619,0.0688632,20.9456,-0.110103,-0.13833,0,0
750,187.25,44.6724,45.5091,167.703,104.956,106.285,0.003299427,0.0677599,20.9474,-0.120113,-0.115521,0,0
753,188,44.6692,44.8925,167.074,104.949,105.3,0.003118751,0.0664194,20.9487,-0.130122,-0.0306524,0,0
756,188.75,45.1599,45.2647,163.43,104.962,106.069,0.002948957,0.06509956,20.9499,-0.120113,-0.096343,0,0
759,189.5,44.6211,45.4123,163.64,104.965,106.557,0.002799929,0.0639422,20.9512,-0.120113,-0.138273,0,0
762,190.25,44.0555,45.2085,163.961,104.959,106.36,0.002675877,0.0628818,20.9521,-0.140131,-0.121828,0,0
765,191,44.819,44.7097,165.447,104.975,106.414,0.002586443,0.061909,20.9528,-0.140131,-0.125082,0,0
768,191.75,44.0468,45.1148,166.689,104.98,106.836,0.002522956,0.0610164,20.9533,-0.140131,-0.160965,0,0
771,192.5,44.4095,44.7726,164.791,104.985,106.722,0.002495677,0.0602001,20.9536,-0.130122,-0.150745,0,0
774,193.25,44.0728,45.124,169.549,104.993,106.345,0.002492922,0.0594339,20.9539,-0.120113,-0.117486,0,0
777,194,43.9954,44.3935,165.255,104.997,106.531,0.002509242,0.0587034,20.9541,-0.110103,-0.133217,0,0
780,194.75,43.4856,44.9809,164.57,104.992,106.921,0.002539988,0.0580309,20.9549,-0.120113,-0.167179,0,0
783,195.5,44.2489,44.8247,164.098,104.999,106.648,0.002570021,0.057481,20.95541,-0.100094,-0.143091,0,0
786,196.25,44.1706,44.669,168.072,104.998,106.576,0.002595164,0.0569712,20.9558,-0.110103,-0.136979,0,0
789,197,44.0041,44.153,166.092,105.011,107.165,0.002613492,0.0565088,20.9561,-0.110103,-0.186454,0,0
792,197.75,43.6832,44.4249,163.534,105.011,107.315,0.002626854,0.0561182,20.9563,-0.0900845,-0.199332,0,0
795,198.5,43.7171,44.7823,165.241,105.006,106.449,0.002628446,0.05574182,20.9565,-0.110103,-0.125349,0,0
798,199.25,44.1389,44.4883,167.42,105.019,105.882,0.002602443,0.0553657,20.9568,-0.120113,-0.0751536,0,0
801,200,43.8214,43.8001,165.61,105.022,105.565,0.002562453,0.0550482,20.9575,-0.110103,-0.0473851,0,0
804,200.75,43.5259,44.6035,165.355,105.019,106.562,0.002497333,0.0547441,20.9579,-0.110103,-0.133991,0,0
807,201.5,43.9481,43.8296,171.09,105.02,106.236,0.002425441,0.054489,20.9583,-0.100094,-0.105726,0,0
810,202.25,43.9146,43.5907,164.507,105.035,105.878,0.002378733,0.0542458,20.9585,-0.110103,-0.0733672,0,0
813,203,43.5677,43.8961,165.336,105.027,105.98,0.002347113,0.0539597,20.9587,-0.100094,-0.0829776,0,0
816,203.75,43.2064,44.0897,166.241,105.03,104.904,0.00234035,0.0537177,20.9588,-0.110103,0.0110556,0,0
819,204.5,43.3281,44.2508,168.557,105.036,106.7,0.002332412,0.0534841,20.9589,-0.110103,-0.14434,0,0
822,205.25,43.5325,44.1512,169.557,105.031,106.471,0.002321483,0.0532594,20.959,-0.110103,-0.125115,0,0
825,206,43.7123,43.469,164.714,105.026,106.411,0.002303109,0.0530829,20.959,-0.100094,-0.120367,0,0
828,206.75,42.9917,43.863,165.036,105.033,105.977,0.002285277,0.0529489,20.9591,-0.0800751,-0.0821529,0,0
831,207.5,43.6169,43.8997,167.753,105.041,106.363,0.002272278,0.0527967,20.9591,-0.0900845,-0.114818,0,0
834,208.25,43.6316,43.6118,168.766,105.03,105.755,0.002262802,0.0526658,20.9589,-0.0900845,-0.0631049,0,0
837,209,42.8047,43.5439,167.282,105.032,105.679,0.00225046,0.052536,20.9589,-0.0900845,-0.0564588,0,0
840,209.75,42.8935,43.7907,167.62,105.033,106.323,0.002231957,0.05242826,20.959,-0.100094,-0.11203,0,0
843,210.5,43.2699,43.688,167.485,105.031,105.81,0.002214417,0.0523441,20.959,-0.0900845,-0.067848,0,0
846,211.25,43.315,43.2115,170.207,105.043,105.691,0.00220163,0.052236,20.9591,-0.100094,-0.0565067,0,0
849,212,43.1404,43.2013,166.589,105.036,106.118,0.002206323,0.0520771,20.9591,-0.0900845,-0.0941614,0,0
852,212.75,43.4585,43.2547,167.424,105.029,105.856,0.002233711,0.0519794,20.9597,-0.100094,-0.0720281,0,0
855,213.5,43.1021,42.9196,167.414,105.043,106.127,0.002278101,0.0518955,20.9602,-0.100094,-0.0943351,0,0
858,214.25,43.2761,43.1742,166.056,105.038,106.304,0.002305455,0.0518289,20.9606,-0.0800751,-0.110076,0,0
861,215,42.8242,43.8096,166.485,105.033,106.376,0.002316832,0.05181662,20.9608,-0.0800751,-0.1167,0,0
864,215.75,42.5191,43.704,168.719,105.03,106.442,0.002292567,0.0517809,20.961,-0.0800751,-0.122633,0,0
867,216.5,42.9257,43.8457,165.116,105.037,106.879,0.002262869,0.0517091,20.9611,-0.0900845,-0.159626,0,0
870,217.25,42.6822,43.61,163.19,105.029,106.275,0.002220685,0.0515844,20.9612,-0.0900845,-0.108353,0,0
873,218,42.3831,43.048,174.09,105.027,105.248,0.002191214,0.05149338,20.961,-0.0900845,-0.0192653,0,0
876,218.75,42.5865,42.9774,168.252,105.017,106.092,0.00216973,0.0514137,20.9607,-0.100094,-0.0934817,0,0
879,219.5,42.3312,43.1969,171.56,105.03,106.107,0.002173055,0.0513327,20.9606,-0.100094,-0.0937013,0,0
882,220.25,42.7962,43.391,172.106,105.031,106.47,0.002184989,0.0512741,20.9604,-0.100094,-0.124912,0,0
885,221,42.3835,43.4347,163.064,105.026,106.095,0.002197742,0.0512316,20.9603,-0.0800751,-0.0929708,0,0
888,221.75,42.4765,42.9588,167.291,105.022,105.972,0.002207039,0.0512133,20.9602,-0.0600563,-0.082734,0,0
891,222.5,42.5782,42.5112,164.622,105.014,106.102,0.002208384,0.0512053,20.9602,-0.0700657,-0.0946205,0,0
894,223.25,42.3177,43.4966,167.671,105.03,106.327,0.002201757,0.0511271,20.9601,-0.0900845,-0.112787,0,0
897,224,41.9026,43.2355,171.959,105.026,105.923,0.002193684,0.0511081,20.9601,-0.110103,-0.0780732,0,0
900,224.75,42.5735,42.4472,168.702,105.014,105.888,0.002174238,0.05113063,20.9601,-0.110103,-0.076114,0,0
903,225.5,41.9876,43.1486,165.245,105.002,105.753,0.002160062,0.05118132,20.9601,-0.110103,-0.0654202,0,0
906,226.25,42.2215,42.6354,171.27,105.011,106.25,0.00215244,0.0511277,20.9601,-0.100094,-0.107767,0,0
909,227,42.4568,42.4111,165.073,105.017,106.135,0.002163095,0.0510759,20.9601,-0.0600563,-0.0972536,0,0
912,227.75,42.2398,42.7587,166.241,105.008,106.045,0.002177774,0.0510327,20.9601,-0.0900845,-0.09030021,0,0
915,228.5,42.449,42.344,163.762,104.998,106.158,0.002215619,0.0510013,20.9599,-0.0700657,-0.100882,0,0
918,229.25,42.3623,42.4353,165.647,105.005,106.201,0.002254617,0.0509984,20.9597,-0.0600563,-0.10404,0,0
921,230,42.2332,42.3337,165.025,104.995,106.517,0.002287911,0.05103055,20.9596,-0.0800751,-0.132169,0,0
924,230.75,41.9675,42.6341,165.502,105.008,106.432,0.002320324,0.0510917,20.9595,-0.100094,-0.123709,0,0
927,231.5,41.767,42.7518,167.509,104.988,106.552,0.002343953,0.05115236,20.9594,-0.110103,-0.135794,0,0
930,232.25,41.915,43.0654,164.68,104.989,106.063,0.002389739,0.0511785,20.9594,-0.130122,-0.0934381,0,0
933,233,42.0973,42.9175,161.431,104.997,106.431,0.002435292,0.0511848,20.9595,-0.150141,-0.124585,0,0
936,233.75,42.4197,42.3527,167.295,104.984,106.267,0.002478019,0.05118398,20.9596,-0.16015,-0.111587,0,0
939,234.5,42.0678,42.5639,164.741,104.98,105.635,0.002509216,0.0511633,20.9597,-0.17016,-0.0571314,0,0
942,235.25,42.0715,42.7107,168.508,104.994,106.7,0.002525103,0.051114,20.9597,-0.190178,-0.148043,0,0
945,236,41.777,42.6735,164.409,104.979,105.441,0.002501384,0.05107804,20.9597,-0.17016,-0.0402918,0,0
948,236.75,41.8129,42.9558,166.684,104.981,106.186,0.002459356,0.0510518,20.9598,-0.16015,-0.104812,0,0
951,237.5,41.7044,43.1334,163.073,104.979,106.641,0.002401628,0.0510581,20.9598,-0.140131,-0.144271,0,0
954,238.25,42.5099,42.7168,171.375,104.974,107.036,0.002331255,0.0510668,20.9598,-0.150141,-0.178653,0,0
957,239,42.2881,42.4524,169.496,104.982,106,0.002243843,0.0510618,20.9599,-0.150141,-0.088612,0,0
960,239.75,41.9341,42.5947,167.192,104.976,106.529,0.002164726,0.0510037,20.9601,-0.150141,-0.134844,0,0
963,240.5,41.7678,43.1815,167.715,104.966,105.637,0.002080451,0.05094913,20.9603,-0.110103,-0.0585207,0,0
966,241.25,42.11,42.7948,169.877,104.972,106.118,0.002004679,0.0509175,20.9604,-0.110103,-0.0996954,0,0
969,242,42.21,42.7229,168.523,104.963,106.221,0.001944319,0.0509172,20.9605,-0.120113,-0.109442,0,0
972,242.75,42.1535,42.19,168.935,104.981,106.239,0.001903021,0.0509237,20.9605,-0.100094,-0.10945,0,0
975,243.5,41.7341,42.8938,163.588,104.958,105.754,0.001884912,0.0509399,20.9606,-0.120113,-0.069362,0,0
978,244.25,42.1964,42.8933,170.193,104.952,106.025,0.001892226,0.0509517,20.9606,-0.120113,-0.093406,0,0
981,245,41.8717,42.5307,163.429,104.964,106.387,0.001954475,0.0510111,20.9606,-0.130122,-0.1236853,0,0
984,245.75,41.6601,42.9309,165.722,104.962,106.224,0.002039797,0.0510761,20.9604,-0.110103,-0.109809,0,0
987,246.5,41.6596,43.0537,165.123,104.964,106.082,0.002119026,0.0511415,20.9599,-0.110103,-0.097274,0,0
990,247.25,41.8533,43.0403,167.453,104.953,105.364,0.002218658,0.0511512,20.9595,-0.110103,-0.0359448,0,0
993,248,42.002,43.0778,166.598,104.967,105.803,0.002282097,0.0511286,20.9593,-0.0900845,-0.0729208,0,0
996,248.75,42.0332,42.4441,169.934,104.971,106.37,0.00235939,0.0510892,20.9595,-0.110103,-0.121665,0,0
999,249.5,42.1328,42.3048,167.556,104.966,106.144,0.002407721,0.0510733,20.9598,-0.130122,-0.102468,0,0
1002,250.25,41.4647,42.4009,165.127,104.959,105.796,0.002429246,0.051067,20.9603,-0.140131,-0.0729059,0,0
1005,251,41.8128,42.9176,167.127,104.965,105.062,0.002436783,0.0510639,20.9606,-0.150141,-0.008417687,0,0
1008,251.75,41.3279,42.6067,163.547,104.968,105.955,0.00244609,0.0510602,20.9609,-0.16015,-0.0859334,0,0
1011,252.5,41.5054,42.6181,164.721,104.974,105.885,0.002454501,0.0510218,20.961,-0.150141,-0.0793773,0,0
1014,253.25,42.0677,42.3614,169.157,104.969,106.47,0.002476922,0.0509685,20.9612,-0.150141,-0.130455,0,0
1017,254,41.8518,42.1882,168.305,104.973,106.581,0.002500283,0.0509121,20.9613,-0.140131,-0.139608,0,0
1020,254.75,41.7999,42.7222,162.871,104.968,106.796,0.002529312,0.0508596,20.9613,-0.120113,-0.158538,0,0
1023,255.5,40.9457,42.7848,163.212,104.98,106.822,0.002550475,0.050834,20.9614,-0.120113,-0.159774,0,0
1026,256.25,41.8321,42.1396,165.606,104.966,106.025,0.002530597,0.0508207,20.9609,-0.120113,-0.0921446,0,0
1029,257,41.6753,42.1046,164.615,104.97,105.287,0.002487562,0.0508292,20.96,-0.140131,-0.0276913,0,0
1032,257.75,41.6558,42.455,166.226,104.97,106.645,0.00243501,0.0508353,20.959,-0.140131,-0.145405,0,0
1035,258.5,42.0439,42.5157,169.091,104.958,106.561,0.002381291,0.0508779,20.9582,-0.140131,-0.139176,0,0
1038,259.25,41.9527,42.4474,163.503,104.959,105.924,0.002343555,0.0509519,20.9577,-0.120113,-0.0840786,0,0
1041,260,41.5833,42.7386,166.563,104.963,105.81,0.002326058,0.0510516,20.9573,-0.100094,-0.0738468,0,0
1044,260.75,41.3273,42.4798,164.761,104.968,106.136,0.002330425,0.051233,20.9568,-0.120113,-0.101649,0,0
1047,261.5,41.4959,42.9205,172.884,104.975,106.056,0.002338615,0.0513918,20.9564,-0.130122,-0.094115,0,0
1050,262.25,41.5594,43.1391,164.705,104.96,105.5,0.002353145,0.0515529,20.9561,-0.130122,-0.0471815,0,0
1053,263,41.3174,42.9324,168.468,104.961,106.095,0.00238546,0.0517247,20.9559,-0.130122,-0.0987375,0,0
1056,263.75,41.8026,42.6809,166.136,104.961,105.815,0.002416631,0.0518901,20.9558,-0.140131,-0.0744952,0,0
1059,264.5,41.5158,42.102,165.997,104.959,105.164,0.002441598,0.05207926,20.9557,-0.140131,-0.0179455,0,0
1062,265.25,41.6362,42.7382,169.667,104.959,106.747,0.00245808,0.0522299,20.9556,-0.140131,-0.155179,0,0
1065,266,41.8566,43.0573,169.073,104.942,106.01,0.002448382,0.0523518,20.9555,-0.130122,-0.0929603,0,0
1068,266.75,41.7605,42.6662,169.892,104.962,106.29,0.002431797,0.0524521,20.9555,-0.120113,-0.115483,0,0
1071,267.5,41.5611,42.1837,165.354,104.959,106.286,0.002415649,0.0524708,20.9555,-0.110103,-0.115378,0,0
1074,268.25,41.5964,42.3591,167.516,104.961,106.933,0.002417198,0.0524912,20.9555,-0.0900845,-0.17092,0,0
1077,269,41.5502,42.993,168.764,104.956,105.989,0.002424005,0.0525175,20.9554,-0.100094,-0.0899917,0,0
1080,269.75,41.5141,42.3819,167.061,104.968,106.032,0.002447977,0.0525547,20.9554,-0.100094,-0.0926174,0,0
1083,270.5,41.1265,42.5972,171.928,104.956,105.712,0.002460443,0.0525565,20.9554,-0.100094,-0.0658955,0,0
1086,271.25,41.8652,42.4877,168.348,104.956,105.769,0.002460964,0.052547,20.95541,-0.100094,-0.0709247,0,0
1089,272,41.741,42.4884,165.514,104.957,105.825,0.002447774,0.0525527,20.955,-0.100094,-0.07567022,0,0
1092,272.75,41.1794,42.4994,165.841,104.958,106.639,0.002447672,0.0525757,20.9545,-0.110103,-0.145899,0,0
1095,273.5,40.8221,42.8075,165.988,104.957,105.933,0.002460672,0.0526153,20.9541,-0.100094,-0.0849825,0,0
1098,274.25,41.5725,41.8998,166.198,104.96,105.237,0.00248557,0.0526442,20.9538,-0.120113,-0.024224,0,0
1101,275,41.0108,42.8468,168.48,104.96,107.247,0.002522766,0.052692,20.9536,-0.110103,-0.197976,0,0
1104,275.75,41.941,42.3307,165.589,104.957,106.363,,0.0527726,,-0.100094,-0.12219,0,0
1107,276.5,41.3646,42.2112,172.133,104.947,105.964,,0.0528677,,-0.100094,-0.0886358,0,0
1110,277.25,40.873,42.6133,167.394,104.959,105.563,,0.0529169,,-0.100094,-0.0527169,0,0
1113,278,41.5153,42.4728,167.934,104.949,105.81,,0.0529184,,-0.100094,-0.0750278,0,0
1116,278.75,41.6414,42.3386,167.162,104.961,106.19,,,,-0.100094,-0.106942,0,0
1119,279.5,40.6708,42.4616,167.282,104.961,106.32,,,,-0.0800751,-0.118083,0,0
1122,280.25,41.6118,42.5465,171.643,104.962,105.577,,,,-0.0900845,-0.0536585,0,0
1125,281,41.8311,42.0793,164.97,104.961,106.411,,,,-0.0900845,-0.12598,0,0
1128,281.75,40.9596,42.7044,170.406,104.95,105.926,,,,-0.110103,-0.0850056,0,0
1131,282.5,41.0137,42.2212,175.099,104.965,106.06,,,,-0.120113,-0.095329,0,0
1134,283.25,40.889,42.783,163.896,104.955,105.872,,,,-0.120113,-0.0799367,0,0
1137,284,41.3017,42.2,167.185,104.951,105.934,,,,-0.110103,-0.0855587,0,0
1140,284.75,41.6725,42.6649,166.853,104.956,105.753,,,,-0.100094,-0.0695109,0,0
1143,285.5,41.141,42.3713,162.375,104.97,105.693,,,,-0.0900845,-0.063047,0,0
1146,286.25,41.2755,41.8419,170.21,104.961,106.334,,,,-0.100094,-0.119365,0,0
1147,286.5,41.5497,42.043,163.924,104.965,106.064,,,,-0.110103,-0.0956603,0,0