File: 01_Data/Excelsior/Cone/Excelsior_Cone_HF35Scan_181019_R3.csv
Names,Time,Stack TC,Smoke TC,Exh Press,Smoke Comp,Smoke Meas,CO Meter,CO2 Meter,O2 Meter,Sample Mass,Ext Coeff,Start Test,Flame Verif
Chan Gain,,500,500,1,1,1,1,1,1,1,1,1,1
Offset,,0,0,0.126212,0,0,0,0,0,0,0,0,0
Gain,,1,1,25.011,13.7876,15.8843,1,1,1,1.00085,1.0195,1,1
Units,sec,C,C,Pa,%,%,%,%,%,g,/m,,
Baseline,,31.662,33.3637,171.486,97.8321,99.5861,0.002922045,0.0623583,20.9127,-0.0225608,-0.158872,,
3,0.5,31.2032,32.0087,170.922,97.8812,100.294,0.002835517,0.06217673,20.9113,920.803,-0.217775,0,0
6,1.25,30.8756,32.2817,168.048,97.8968,99.7764,0.002829436,0.0622108,20.9111,920.753,-0.170071,0,0
9,2,30.9504,32.3824,169.993,97.8947,100.3,0.002832276,0.0622897,20.911,920.623,-0.217064,0,0
12,2.75,31.0319,32.4165,164.549,97.8951,99.4933,0.002874919,0.0623741,20.9109,920.673,-0.144814,0,0
15,3.5,31.2028,32.4147,167.859,97.8901,99.802,0.002906006,0.0625016,20.9108,920.493,-0.172988,0,0
18,4.25,31.3901,32.4964,164.888,97.9006,99.693,0.002942207,0.0626291,20.9108,920.563,-0.162248,0,0
21,5,31.5015,32.3557,175.525,97.9157,100.019,0.002962605,0.0626327,20.9107,920.503,-0.190082,0,0
24,5.75,31.4277,32.6089,170.056,97.9132,99.5951,0.002967227,0.0625973,20.9107,920.593,-0.152307,0,0
27,6.5,31.3848,33.0105,169.518,97.9103,99.4487,0.00295436,0.0626078,20.9107,920.523,-0.139421,0,0
30,7.25,31.4013,33.3309,169.398,97.9284,100.285,0.002946881,0.0626155,20.9111,920.483,-0.21265,0,0
33,8,31.7142,33.0587,171.203,97.9296,99.6978,0.00294224,0.0626029,20.9116,920.513,-0.160031,0,0
36,8.75,31.5234,33.0833,169.888,97.9305,99.3662,0.002938857,0.0626192,20.9119,920.473,-0.130163,0,0
39,9.5,31.9072,33.1599,170.169,97.9376,99.1816,0.002921436,0.0626487,20.9122,920.493,-0.112872,0,0
42,10.25,31.7695,33.4819,168.631,97.9473,100.151,0.002908736,0.0626817,20.9124,920.443,-0.198982,0,0
45,11,32.2209,33.4703,171.676,97.9519,99.6523,0.002883512,0.062724,20.9125,920.453,-0.153907,0,0
48,11.75,31.7465,33.665,170.438,97.9662,99.4031,0.002837822,0.0627685,20.9124,920.433,-0.130213,0,0
51,12.5,31.9934,33.4445,169.257,97.9616,98.8922,0.002780186,0.0628242,20.9123,920.413,-0.0845507,0,0
54,13.25,31.8037,33.9664,170.404,97.9696,98.8306,0.002739166,0.06286487,20.9123,920.403,-0.0782512,0,0
57,14,32.639,33.398,173.223,97.9948,98.5334,0.002710964,0.0630402,20.9122,920.393,-0.0490182,0,0
60,14.75,32.1676,33.8704,173.412,97.9961,98.9969,0.002741777,0.0631747,20.9122,920.393,-0.09086439,0,0
63,15.5,32.1006,33.7303,169.163,97.9944,98.4874,0.002793196,0.0632842,20.9122,920.383,-0.0448756,0,0
66,16.25,31.9895,33.9795,173.087,98.01,98.7026,0.002880195,0.0634734,20.9122,920.352,-0.0629772,0,0
69,17,31.9919,34.2323,175.072,98.0251,97.3317,0.003014043,0.0636623,20.9122,920.332,0.0634832,0,0
72,17.75,32.5729,33.7564,171.051,98.0365,97.4146,0.003111618,0.0638218,20.9121,920.3125,0.0569073,0,0
75,18.5,32.482,33.9922,171.069,98.0344,97.7152,0.003283075,0.0653606,20.9084,920.272,0.0291662,0,0
78,19.25,32.7188,34.0396,168.648,98.0546,97.3725,0.003443132,0.0721148,20.9057,920.242,0.0624299,0,0
81,20,32.5438,34.3074,168.407,98.0622,99.5267,0.003619776,0.0794397,20.8871,920.172,-0.132573,0,0
84,20.75,32.4543,34.5155,161.215,98.0643,100.107,0.003819227,0.103306,20.8579,920.092,-0.184412,0,1
87,21.5,32.7388,35.1429,159.088,98.0672,100.129,0.003997049,0.128744,20.8204,920.002,-0.186091,0,1
90,22.25,33.5409,36.9329,163.181,98.0765,101.567,0.004152554,0.161036,20.7766,919.892,-0.312705,0,1
93,23,34.8371,38.5654,157.169,98.0849,101.327,0.004286524,0.194148,20.733,919.722,-0.290784,0,1
96,23.75,35.7975,39.8075,160.901,98.0925,101.609,0.004393729,0.224391,20.6991,919.642,-0.31496,0,1
99,24.5,36.2048,41.433,157.834,98.0992,101.103,0.004475948,0.2499,20.6734,919.622,-0.269693,0,1
102,25.25,37.1717,42.1579,161.331,98.0975,101.825,0.004539703,0.270658,20.6537,919.642,-0.33355,0,1
105,26,38.5679,42.8133,156.401,98.1198,101.846,0.004591828,0.287365,20.6379,919.632,-0.333305,0,0
108,26.75,38.7709,44.0005,157.974,98.1249,99.4341,0.004636703,0.30066,20.6251,919.372,-0.118534,0,0
111,27.5,38.6133,45.489,162.55,98.1329,101.542,0.004699382,0.311232,20.6153,919.392,-0.305388,0,0
114,28.25,39.8831,46.1332,156.451,98.1404,102.068,0.004767996,0.319314,20.6068,919.282,-0.3509,0,0
117,29,40.5675,46.5947,166.01,98.1472,100.574,0.004849922,0.326578,20.5987,919.161,-0.2184176,0,0
120,29.75,41.1424,47.079,159.175,98.1472,99.8622,0.004947497,0.333094,20.592,919.021,-0.154917,0,0
123,30.5,41.5936,47.7648,158.109,98.1627,99.8127,0.005091344,0.339614,20.5855,918.961,-0.149069,0,0
126,31.25,41.1702,49.0035,157.58,98.1762,100.412,0.005227209,0.34553,20.5789,918.881,-0.201364,0,0
129,32,41.6913,50.0452,154.608,98.1905,100.887,0.005416333,0.351917,20.5727,918.751,-0.242314,0,0
132,32.75,41.9606,50.5411,154.631,98.2103,100.946,0.005646344,0.357564,20.5677,918.711,-0.245668,0,0
135,33.5,42.7669,50.7273,160.197,98.2195,100.909,0.005779966,0.363376,20.5651,918.611,-0.241561,0,0
138,34.25,43.6186,50.8671,158.845,98.2279,99.6784,0.005934342,0.369305,20.559,918.551,-0.131091,0,0
141,35,43.1006,52.6193,153.019,98.23,101.289,0.006109887,0.37435,20.5552,918.461,-0.274221,0,0
144,35.75,43.8976,52.8821,160.814,98.2414,100.188,0.00622876,0.378655,20.5527,918.331,-0.1755,0,0
147,36.5,45.0733,53.0858,152.871,98.2519,100.25,0.006288741,0.380856,20.5508,918.251,-0.18008,0,0
150,37.25,45.637,53.5342,161.17,98.2692,100.012,0.006313453,0.383335,20.5495,918.131,-0.157252,0,0
153,38,44.9061,54.7883,161.562,98.2776,101.656,0.006319947,0.384917,20.5492,918.081,-0.302277,0,0
156,38.75,45.7353,54.4151,158.577,98.2906,100.106,0.006319768,0.385731,20.5502,918,-0.163661,0,0
159,39.5,46.5053,55.1308,152.016,98.3125,100.079,0.006316898,0.385445,20.5517,917.89,-0.159289,0,0
162,40.25,46.2707,55.8932,161.908,98.331,101.376,0.006320868,0.384491,20.5532,917.82,-0.27269,0,0
165,41,46.204,56.525,152.656,98.3462,101.92,0.006334128,0.383162,20.5562,917.73,-0.319207,0,0
168,41.75,47.4397,55.9559,159.131,98.3517,102.13,0.006354616,0.381334,20.5588,917.66,-0.337107,0,0
171,42.5,46.7727,56.6077,155.888,98.3622,101.909,0.006358213,0.379637,20.5615,917.56,-0.316775,0,0
174,43.25,47.7643,56.471,155.986,98.3744,100.964,0.006355884,0.377135,20.5653,917.5,-0.232413,0,0
177,44,46.7288,58.0244,159.329,98.3908,100.825,0.006318586,0.374992,20.5681,917.42,-0.218546,0,0
180,44.75,48.1984,56.7729,160.134,98.4026,101.421,0.006268371,0.372886,20.5703,917.35,-0.270163,0,0
183,45.5,47.1745,58.0901,161.773,98.4186,100.452,0.006221949,0.370932,20.5724,917.28,-0.182898,0,0
186,46.25,48.176,57.0455,157.175,98.4341,100.411,0.006172766,0.369445,20.5738,917.2,-0.177814,0,0
189,47,48.6916,57.512,157.135,98.4324,101.252,0.006130373,0.368334,20.5749,917.09,-0.252604,0,0
192,47.75,48.3778,57.5913,151.371,98.4467,100.572,0.006115885,0.367525,20.5757,916.99,-0.191032,0,0
195,48.5,47.9065,58.879,157.938,98.4711,100.081,0.006120666,0.367058,20.5763,916.95,-0.145001,0,0
198,49.25,49.0013,58.2033,159.766,98.4867,100.784,0.006134735,0.366771,20.5767,916.87,-0.206176,0,0
201,50,49.0024,58.2104,161.928,98.4821,101.465,0.006151903,0.366577,20.577,916.779,-0.266828,0,0
204,50.75,48.2404,59.1796,152.934,98.5023,100.749,0.006165911,0.366467,20.5772,916.689,-0.201707,0,0
207,51.5,48.4834,59.3395,159.829,98.52,100.551,0.006178674,0.366428,20.5774,916.579,-0.18253,0,0
210,52.25,48.3636,59.745,161.098,98.5338,100.503,0.006177025,0.366431,20.5777,916.499,-0.176958,0,0
213,53,48.6352,59.8004,160.386,98.538,102.061,0.006175823,0.366471,20.5779,916.429,-0.314146,0,0
216,53.75,48.7105,60.3256,155.021,98.5444,102.732,0.006136648,0.366542,20.5775,916.349,-0.372166,0,0
219,54.5,50.0145,59.2422,155.339,98.5629,99.503,0.006090827,0.366812,20.5772,916.289,-0.0848924,0,0
222,55.25,49.3775,59.8293,156.862,98.5797,99.9746,0.006050064,0.367102,20.577,916.169,-0.125656,0,0
225,56,49.9827,59.6944,161.278,98.5881,100.444,0.006020348,0.36738,20.5762,916.099,-0.166769,0,0
228,56.75,49.0376,60.9221,156.011,98.5881,100.689,0.005994853,0.367631,20.5756,916.019,-0.188581,0,0
231,57.5,50.4719,59.5599,158.707,98.6037,102.063,0.005974633,0.367898,20.5752,915.909,-0.30836,0,0
234,58.25,49.4385,60.564,157.512,98.6138,100.112,0.005948795,0.368359,20.5749,915.839,-0.134871,0,0
237,59,50.534,60.0558,156.046,98.6184,101.276,0.005910986,0.368857,20.5752,915.789,-0.237779,0,0
240,59.75,49.4471,61.0976,157.156,98.6323,101.113,0.005856092,0.369501,20.5745,915.708,-0.222125,0,0
243,60.5,50.9843,60.1889,159.093,98.6626,100.616,0.005816073,0.369969,20.5736,915.618,-0.175324,0,0
246,61.25,50.8661,59.8106,154.505,98.6588,101.137,0.005762305,0.371065,20.573,915.498,-0.221865,0,0
249,62,51.4579,59.7409,157.107,98.671,100.797,0.005725652,0.37216,20.5725,915.398,-0.190661,0,0
252,62.75,51.4184,60.2359,150.183,98.6748,101.896,0.005703284,0.373084,20.5709,915.358,-0.28729,0,0
255,63.5,51.5105,60.0483,161.225,98.6845,100.767,0.005706101,0.374101,20.5696,915.268,-0.186731,0,0
258,64.25,50.0859,61.5702,160.363,98.6984,98.7467,0.005729226,0.374989,20.5686,915.188,-0.004381607,0,0
261,65,50.3517,61.8822,158.075,98.7017,101.691,0.005755068,0.375856,20.5678,915.098,-0.266835,0,0
264,65.75,50.885,61.704,158.667,98.719,102.323,0.005825871,0.376597,20.5673,915.038,-0.320647,0,0
267,66.5,51.6964,61.3959,153.402,98.7337,100.544,0.005921258,0.377184,20.5669,914.958,-0.162502,0,0
270,67.25,50.83,62.1246,158.742,98.7425,99.7162,0.005990795,0.377412,20.5666,914.878,-0.0877546,0,0
273,68,50.8045,62.1992,156.657,98.7514,100.695,0.006085647,0.377344,20.5664,914.808,-0.174344,0,0
276,68.75,51.228,62.1687,158.213,98.7539,99.755,0.00618777,0.377145,20.5662,914.758,-0.0902026,0,0
279,69.5,50.9958,62.3871,157.719,98.7619,100.467,0.006286416,0.376916,20.5661,914.658,-0.153048,0,0
282,70.25,52.0251,61.4043,152.783,98.7716,100.504,0.006388484,0.376718,20.566,914.518,-0.155493,0,0
285,71,51.8063,61.9803,154.281,98.777,100.524,0.006472504,0.37656,20.566,914.508,-0.156766,0,0
288,71.75,51.2224,62.0245,158.871,98.7901,100.194,0.006537853,0.3766675,20.5659,914.427,-0.126169,0,0
291,72.5,51.7088,62.4049,154.989,98.7787,99.2771,0.006571782,0.376615,20.5659,914.337,-0.0450031,0,0
294,73.25,51.9352,61.9293,152.379,98.7964,99.708,0.006584987,0.376351,20.5659,914.257,-0.0821387,0,0
297,74,51.282,62.8014,155.634,98.804,99.0342,0.006589698,0.37576,20.5659,914.167,-0.02081388,0,0
300,74.75,52.1245,61.9915,157.178,98.8238,99.8306,0.006566232,0.375204,20.5659,914.067,-0.0906565,0,0
303,75.5,52.6031,61.3426,156.417,98.8099,101.211,0.006528559,0.374746,20.5659,914.027,-0.214738,0,0
306,76.25,52.5538,61.4487,155.192,98.825,99.8675,0.006485534,0.374722,20.5658,913.937,-0.0938422,0,0
309,77,52.1584,62.0134,151.77,98.8271,98.2125,0.006440482,0.374939,20.5658,913.897,0.0557875,0,0
312,77.75,51.7014,62.8087,160.193,98.8557,98.0928,0.006403597,0.375197,20.5658,913.797,0.0692843,0,0
315,78.5,51.4592,63.2922,158.248,98.8507,98.4588,0.006369797,0.375384,20.5658,913.707,0.0355237,0,0
318,79.25,51.5412,63.3421,159.234,98.87,99.1302,0.006331473,0.375415,20.5658,913.607,-0.0234991,0,0
321,80,52.9683,61.7212,158.687,98.8902,100.208,0.006297779,0.375255,20.5658,913.527,-0.118406,0,0
324,80.75,52.5684,62.4152,162.193,98.8982,99.3323,0.006270762,0.375227,20.5658,913.477,-0.0391672,0,0
327,81.5,51.8139,62.9349,160.844,98.9071,99.3396,0.006251066,0.37558,20.5658,913.397,-0.03902315,0,0
330,82.25,53.3248,61.7204,153.815,98.9306,98.0865,0.006212071,0.375998,20.566,913.336,0.0766323,0,0
333,83,51.789,63.5739,160.519,98.9504,99.7371,0.006177589,0.376636,20.5663,913.236,-0.0708175,0,0
336,83.75,53.5883,61.4843,156.269,98.9542,98.0235,0.006142099,0.377101,20.5665,913.146,0.0845097,0,0
339,84.5,51.6517,63.1286,157.501,98.9634,99.0158,0.006108548,0.377084,20.5666,913.066,-0.00472826,0,0
342,85.25,51.9156,63.0891,153.44,98.9811,99.4525,0.006082835,0.377072,20.5667,913.016,-0.042492,0,0
345,86,52.2458,63.3639,155.073,98.9929,98.1738,0.006067544,0.375752,20.568,912.936,0.07430768,0,0
348,86.75,51.8147,63.3836,159.002,99.011,98.5407,0.006065992,0.374464,20.5694,912.836,0.042577,0,0
351,87.5,52.1663,63.0397,154.029,99.0257,99.5335,0.006071977,0.372965,20.5712,912.806,-0.0457387,0,0
354,88.25,52.2975,62.9165,155.722,99.0316,100.702,0.006081515,0.370526,20.5738,912.736,-0.149561,0,0
357,89,54.3832,61.7819,158.288,99.0535,99.5437,0.006088468,0.368163,20.5763,912.656,-0.0441465,0,0
360,89.75,52.6668,63.0962,154.375,99.0817,101.106,0.006068919,0.365442,20.5794,912.556,-0.180829,0,0
363,90.5,52.2104,63.4732,153.768,99.0707,99.5466,0.006048611,0.362427,20.5826,912.516,-0.0428503,0,0
366,91.25,52.5725,62.7246,162.276,99.0922,100.579,0.006018407,0.36023,20.5858,912.426,-0.133193,0,0
369,92,52.8362,61.9642,155.152,99.1221,99.9925,0.005987763,0.35748,20.5893,912.356,-0.0781926,0,0
372,92.75,51.7679,62.6169,162.285,99.1187,100.096,0.005973626,0.354985,20.5941,912.306,-0.0877692,0,0
375,93.5,51.9981,62.2179,168.495,99.128,99.611,0.005962312,0.351188,20.5985,912.206,-0.0434764,0,0
378,94.25,52.808,61.6161,160.256,99.1402,100.196,0.005952341,0.34686,20.6048,912.156,-0.09470731,0,0
381,95,52.635,61.6829,155.576,99.1671,99.8156,0.005923195,0.342222,20.6111,912.095,-0.0582937,0,0
384,95.75,52.6869,60.8653,156.337,99.1709,100.901,0.005901947,0.337445,20.6164,912.045,-0.154669,0,0
387,96.5,51.7963,61.9109,154.589,99.1949,99.3764,0.005837264,0.331038,20.6229,911.995,-0.0163543,0,0
390,97.25,52.1287,61.631,161.752,99.2003,101.24,0.005770958,0.32497,20.6292,911.925,-0.181996,0,0
393,98,52.2405,60.6983,160.132,99.2344,101.026,0.005711433,0.319951,20.6346,911.895,-0.16002,0,0
396,98.75,51.775,60.7449,161.042,99.2441,100.888,0.005662871,0.314541,20.6398,911.865,-0.146952,0,0
399,99.5,51.1657,60.9224,162.206,99.2757,100.765,0.005640572,0.309513,20.6458,911.825,-0.133189,0,0
402,100.25,51.6866,59.9173,158.85,99.2866,102.178,0.005665881,0.303996,20.6528,911.765,-0.256698,0,0
405,101,52.8349,58.8317,160.554,99.3038,102.877,0.005717095,0.298032,20.6611,911.745,-0.316116,0,0
408,101.75,52.0133,58.641,156.535,99.3295,102.331,0.005828281,0.291715,20.6697,911.695,-0.266188,0,0
411,102.5,50.4999,59.876,161.792,99.3606,103.041,0.005909336,0.285154,20.6771,911.645,-0.325275,0,0
414,103.25,51.7182,58.3148,163.417,99.3758,101.921,0.006072476,0.2775217,20.6851,911.605,-0.226153,0,0
417,104,50.1908,58.8499,158.226,99.4023,102.109,0.006239459,0.270074,20.692,911.595,-0.240298,0,0
420,104.75,50.4983,59.1564,162.328,99.4246,101.528,0.006381676,0.263842,20.698,911.555,-0.187242,0,0
423,105.5,49.6401,58.3051,167.221,99.441,101.504,0.0065289,0.256369,20.7039,911.505,-0.183589,0,0
426,106.25,50.616,57.2598,160.753,99.4587,101.885,0.006710696,0.24973,20.7102,911.465,-0.21559,0,0
429,107,51.3129,56.2002,159.818,99.465,102.484,0.006902955,0.242853,20.7167,911.445,-0.267375,0,0
432,107.75,50.9132,55.8968,166.09,99.4848,101.737,0.007099034,0.237839,20.7245,911.405,-0.200173,0,0
435,108.5,49.5609,56.683,163.618,99.5083,101.22,0.00729406,0.229696,20.7333,911.395,-0.152516,0,0
438,109.25,49.1267,55.7753,166.828,99.5235,103.103,0.007515415,0.222859,20.741,911.365,-0.316015,0,0
441,110,50.1567,54.2274,166.113,99.5319,102.478,0.007710538,0.216333,20.749,911.335,-0.260896,0,0
444,110.75,49.2723,54.6326,165.085,99.5449,102.06,0.007863213,0.209422,20.7538,911.325,-0.223185,0,0
447,111.5,48.346,54.4222,166.079,99.5689,102.654,0.008107566,0.203629,20.7602,911.305,-0.272913,0,0
450,112.25,47.4288,55.3344,164.29,99.5794,102.447,0.008415606,0.198115,20.7662,911.285,-0.253917,0,0
453,113,47.2429,54.2905,171.256,99.5824,101.54,0.008731399,0.192694,20.7718,911.285,-0.174128,0,0
456,113.75,49.0608,52.6761,168.047,99.6038,102.427,0.009042456,0.189505,20.777,911.285,-0.249949,0,0
459,114.5,47.0044,53.0612,163.92,99.6161,103.032,0.00934095,0.18444,20.7821,911.255,-0.30156,0,0
462,115.25,46.8192,52.3933,168.261,99.6106,102.659,0.009698776,0.179691,20.7875,911.235,-0.269594,0,0
465,116,47.4994,51.6285,159.175,99.6312,102.22,0.009988367,0.175428,20.7927,911.225,-0.229445,0,0
468,116.75,48.1933,50.3745,165.033,99.6564,102.305,0.01024862,0.170958,20.7975,911.185,-0.234598,0,0
471,117.5,47.7447,50.2732,166.888,99.6657,102.617,0.0104969,0.167228,20.8014,911.185,-0.261015,0,0
474,118.25,45.2625,51.9986,169.211,99.6628,102.046,0.0107286,0.163701,20.805,911.185,-0.211375,0,0
477,119,45.326,51.6435,163.169,99.6737,102.836,0.0109414,0.160309,20.8083,911.175,-0.279289,0,0
480,119.75,45.5206,50.5851,166.976,99.688,101.82,0.0111474,0.157513,20.8109,911.145,-0.189249,0,0
483,120.5,44.5288,50.9353,168.555,99.6922,102.37,0.0113296,0.154923,20.8132,911.125,-0.237066,0,0
486,121.25,44.407,50.1141,167.589,99.7031,102.52,0.01148,0.152328,20.8155,911.115,-0.24916,0,0
489,122,44.2064,49.9522,164.74,99.7006,101.663,0.0116008,0.149813,20.8176,911.105,-0.174312,0,0
492,122.75,43.91,49.7478,163.358,99.7313,101.198,0.0116909,0.14743,20.8199,911.085,-0.13057,0,0
495,123.5,46.105,47.1265,166.297,99.733,101.744,0.0117602,0.144727,20.8222,911.075,-0.178566,0,0
498,124.25,43.546,48.8988,166.625,99.7587,102.359,0.0118178,0.142471,20.8239,911.065,-0.230088,0,0
501,125,45.6881,46.4003,168.104,99.7309,102.406,0.0118722,0.140338,20.8258,911.045,-0.236684,0,0
504,125.75,45.0977,46.5525,162.81,99.7452,102.512,0.0119285,0.138141,20.8274,911.015,-0.244668,0,0
507,126.5,44.2496,46.7532,164.197,99.7688,102.68,0.01197669,0.13654,20.8289,910.995,-0.257261,0,0
510,127.25,44.9903,46.4045,168.032,99.7663,102.628,0.0120369,0.134732,20.8304,911.015,-0.252883,0,0
513,128,44.1901,46.328,164.506,99.7713,102.134,0.0121004,0.133282,20.8315,910.995,-0.209325,0,0
516,128.75,43.2853,47.2555,172.935,99.7776,101.749,0.0121467,0.131999,20.8323,910.974,-0.174994,0,0
519,129.5,42.8297,46.9812,166.163,99.7785,101.27,0.0121944,0.130931,20.833,910.985,-0.132682,0,0
522,130.25,43.2733,45.6656,159.511,99.7629,102.614,0.0122251,0.129956,20.8336,910.974,-0.25196,0,0
525,131,43.186,45.1549,171.448,99.7549,102.223,0.0122404,0.12916,20.8346,910.954,-0.21856,0,0
528,131.75,43.7168,44.5604,161.889,99.7684,102.866,0.0122392,0.128331,20.8359,910.934,-0.273411,0,0
531,132.5,43.9799,44.7022,168.326,99.7936,101.896,0.0122171,0.127299,20.8375,910.924,-0.186462,0,0
534,133.25,42.4492,45.037,165.291,99.7705,102.045,0.012201,0.126097,20.8387,910.904,-0.201545,0,0
537,134,44.1538,43.6979,167.284,99.7877,101.761,0.0122069,0.1249789,20.8399,910.894,-0.175112,0,0
540,134.75,42.7531,44.1762,163.89,99.7759,103.017,0.0122188,0.12375,20.8411,910.904,-0.285871,0,0
543,135.5,43.6545,43.5939,168.173,99.7936,101.673,0.0122497,0.12246,20.8422,910.894,-0.166828,0,0
546,136.25,42.4676,43.8834,164.413,99.7936,102.458,0.0122739,0.121352,20.8434,910.894,-0.235635,0,0
549,137,42.3325,43.556,162.853,99.7898,102.098,0.0122941,0.120283,20.8448,910.894,-0.204482,0,0
552,137.75,41.5526,43.853,171.71,99.7701,101.998,0.0122809,0.11932,20.8461,910.884,-0.197503,0,0
555,138.5,40.7567,44.6237,169.455,99.7797,101.926,0.0122712,0.118539,20.8471,910.864,-0.190344,0,0
558,139.25,40.9173,44.755,168.216,99.797,101.905,0.0122195,0.117766,20.8482,910.864,-0.186969,0,0
561,140,42.9598,42.8536,167.685,99.7772,101.724,0.012172,0.117119,20.8492,910.834,-0.172774,0,0
564,140.75,40.9957,44.4699,166.066,99.7894,101.78,0.0121332,0.116506,20.85,910.834,-0.176665,0,0
567,141.5,41.2517,42.7433,165.323,99.7679,101.168,0.0120937,0.115836,20.851,910.814,-0.124589,0,0
570,142.25,41.0124,43.6172,164.657,99.7747,101.81,0.0120709,0.115347,20.8519,910.814,-0.180625,0,0
573,143,40.0088,43.7889,164.424,99.773,101.846,0.0120567,0.114785,20.8525,910.784,-0.183883,0,0
576,143.75,41.4585,42.7906,163.809,99.7671,101.775,0.0120352,0.114323,20.853,910.754,-0.1782379,0,0
579,144.5,41.6291,42.1375,167.611,99.7562,102.585,0.0119432,0.113965,20.8536,910.764,-0.250112,0,0
582,145.25,41.0098,42.6109,167.715,99.7461,101.863,0.0118436,0.113666,20.8544,910.804,-0.187788,0,0
585,146,40.0622,43.3073,163.151,99.7326,101.427,0.0114593,0.113121,20.8554,910.834,-0.150695,0,0
588,146.75,40.0917,43.2245,171.256,99.7499,101.477,0.0110528,0.111939,20.8563,910.924,-0.153508,0,0
591,147.5,40.9768,42.6827,169.141,99.7469,101.444,0.0105406,0.109975,20.8607,910.864,-0.150909,0,0
594,148.25,41.8657,41.7564,171.995,99.7339,101.471,0.009932429,0.106595,20.8655,910.844,-0.154386,0,0
597,149,40.4905,41.4519,171.871,99.744,101.731,0.009438257,0.1033,20.8696,911.015,-0.176435,0,0
600,149.75,41.4104,40.1085,170.24,99.7309,101.5,0.008974848,0.099605,20.8727,911.145,-0.157213,0,0
603,150.5,39.9505,41.4454,171.24,99.7305,101.964,0.008609236,0.0962715,20.8749,-26.4925,-0.198074,0,0
606,151.25,39.5627,40.4913,171.37,99.7137,101.46,0.008342706,0.0939281,20.8765,59.1603,-0.155299,0,0
609,152,38.417,40.9651,169.814,99.709,101.766,0.008148405,0.0926265,20.8772,0.280238,-0.182635,0,0
612,152.75,40.6641,38.8458,169.186,99.6909,102.093,0.008006759,0.09271042,20.8776,-0.0300255,-0.212923,0,0
615,153.5,40.556,38.5444,170.669,99.6834,102.315,0.007788055,0.0928261,20.8782,-0.0500425,-0.232987,0,0
618,154.25,39.1481,39.4583,170.021,99.6733,102.133,0.007522804,0.0930036,20.8788,-0.0300255,-0.218033,0,0
621,155,40.0654,38.0925,172.809,99.6851,101.745,0.007212596,0.09313298,20.8792,-0.020017,-0.182954,0,0
624,155.75,38.7319,38.6513,170.137,99.68,101.951,0.006863799,0.0915738,20.882,-0.0800681,-0.201454,0,0
627,156.5,37.5507,38.6893,164.935,99.6733,102.221,0.006426525,0.0890887,20.8852,-0.0300255,-0.225755,0,0
630,157.25,37.9991,38.334,168.063,99.6564,101.979,0.006049904,0.0861766,20.8895,-0.0500425,-0.206035,0,0
633,158,37.3511,38.7089,166.217,99.6396,102.933,0.005676427,0.0833346,20.8932,-0.040034,-0.290773,0,0
636,158.75,37.4026,39.6745,173.033,99.627,101.476,0.005330696,0.0806863,20.897,0,-0.164443,0,0
639,159.5,37.2809,39.4786,168.154,99.6236,101.723,0.005078658,0.0782941,20.9001,-0.040034,-0.186507,0,0
642,160.25,39.2858,37.1655,170.66,99.6102,102.829,0.004786209,0.0760941,20.9024,-0.040034,-0.284442,0,0
645,161,38.9061,37.6443,170.95,99.5996,102.084,0.004514012,0.074369,20.9044,-0.0800681,-0.220354,0,0
648,161.75,37.6454,39.365,169.452,99.5916,100.912,0.004290428,0.072904,20.9061,-0.040034,-0.117751,0,0
651,162.5,37.3914,38.5362,166.367,99.5723,101.571,0.004043384,0.0716058,20.9074,-0.0500425,-0.177767,0,0
654,163.25,39.0988,37.2266,175.868,99.5597,101.962,0.003840496,0.0704871,20.9084,-0.040034,-0.213193,0,0
657,164,37.0196,39.1401,167.349,99.5571,101.663,0.003681873,0.069545,20.9091,-0.020017,-0.187148,0,0
660,164.75,37.9499,38.3076,165.54,99.5466,101.881,0.003564526,0.0686941,20.9102,-0.0300255,-0.207304,0,0
663,165.5,38.9925,37.082,172.007,99.5256,101.22,0.003506074,0.0679796,20.911,-0.0300255,-0.150966,0,0
666,166.25,37.5209,38.0082,164.213,99.5151,101.56,0.003463462,0.0672977,20.9116,-0.0300255,-0.181927,0,0
669,167,37.35,37.7672,176.424,99.4982,101.073,0.003462208,0.0666856,20.912,-0.0300255,-0.140394,0,0
672,167.75,36.6116,38.7875,174.142,99.5125,101.035,0.003463821,0.0661434,20.9124,-0.0300255,-0.135805,0,0
675,168.5,36.9127,39.0091,172.449,99.494,102.256,0.003469319,0.0656675,20.9126,-0.040034,-0.244861,0,0
678,169.25,36.8128,38.4346,172.003,99.4789,101.164,0.003446219,0.0652441,20.9125,-0.0300255,-0.150237,0,0
681,170,37.5277,38.4289,172.113,99.4734,101.499,0.003393295,0.0649027,20.9125,-0.040034,-0.18029,0,0
684,170.75,36.8873,38.6186,170.058,99.449,100.873,0.003317355,0.064635,20.9125,-0.0300255,-0.127175,0,0
687,171.5,38.5466,36.8091,173.652,99.436,101.124,0.003224418,0.0644526,20.913,-0.0300255,-0.150582,0,0
690,172.25,37.5381,38.0939,173.981,99.425,100.379,0.003132322,0.0643251,20.9135,-0.040034,-0.08543165,0,0
693,173,37.0072,37.9499,171.542,99.4158,101.629,0.003065184,0.0642322,20.9138,-0.0500425,-0.196914,0,0
696,173.75,36.8856,37.8787,172.595,99.3994,101.562,0.003023819,0.064128,20.914,-0.0500425,-0.19246,0,0
699,174.5,36.8366,38.752,166.717,99.3909,101.165,0.003004884,0.0640251,20.9142,-0.0500425,-0.158232,0,0
702,175.25,37.5117,37.2223,173.863,99.3703,102.006,0.003004743,0.0639042,20.9141,-0.040034,-0.234128,0,0
705,176,38.2976,36.7199,169.674,99.3707,101.075,0.003004641,0.06379053,20.9136,-0.0500425,-0.152033,0,0
708,176.75,37.6494,37.5108,167.915,99.3623,100.722,0.003061425,0.0636968,20.9125,-0.0500425,-0.121511,0,0
711,177.5,37.753,37.1088,174.75,99.3442,101.115,0.003138026,0.0635556,20.9117,-0.040034,-0.15802,0,0
714,178.25,37.2651,37.6672,170.192,99.3367,101.252,0.00320387,0.0634526,20.9111,-0.0500425,-0.170827,0,0
717,179,38.2287,36.3918,171.154,99.3375,100.958,0.003268971,0.0633776,20.9106,-0.0600511,-0.144682,0,0
720,179.75,37.9284,36.6413,166.651,99.3257,100.511,0.00331643,0.0633095,20.9103,-0.0700596,-0.106064,0,0
723,180.5,37.942,36.9901,173.047,99.3518,101.65,0.003332029,0.0632368,20.9101,-0.0600511,-0.204503,0,0
726,181.25,38.0214,36.4982,169.563,99.3939,100.819,0.003310914,0.0631475,20.9105,-0.0700596,-0.127275,0,0
729,182,36.1784,37.2862,174.362,99.4419,101.107,0.003272737,0.06309507,20.9108,-0.0600511,-0.148465,0,0
732,182.75,37.0759,36.5914,166.647,99.481,101.672,0.003229202,0.0630623,20.9111,-0.0600511,-0.194802,0,0
735,183.5,36.7298,37.758,172.262,99.5239,101.471,0.003187221,0.0630384,20.9113,-0.0600511,-0.173275,0,0
738,184.25,36.5432,37.1694,169.499,99.5479,101.538,0.003162306,0.0630009,20.9114,-0.0500425,-0.177014,0,0
741,185,38.1497,36.3035,170.517,99.6013,101.243,0.003151566,0.06293904,20.9115,-0.040034,-0.146175,0,0
744,185.75,36.1317,37.9812,170.094,99.6169,101.781,0.003152283,0.0628758,20.9115,-0.0500425,-0.192181,0,0
747,186.5,37.6845,35.8621,170.421,99.6653,101.716,0.003166341,0.0628229,20.9116,-0.040034,-0.182172,0,0
750,187.25,36.1467,37.6475,165.279,99.6758,101.485,0.003176589,0.0627729,20.9116,-0.0300255,-0.160876,0,0
753,188,36.243,37.7787,169.608,99.7031,102.024,0.00321656,0.0626818,20.9117,-0.0500425,-0.205797,0,0
756,188.75,36.2625,37.5682,167.137,99.7364,101.162,0.003254172,0.0626027,20.9117,-0.0500425,-0.126903,0,0
759,189.5,36.7155,36.592,165.717,99.7679,102.285,0.003302082,0.06253954,20.9117,-0.0700596,-0.222818,0,0
762,190.25,37.506,36.214,173.728,99.7881,101.723,0.003347268,0.0624935,20.9119,-0.0600511,-0.171708,0,0
765,191,36.9883,36.6302,171.477,99.8029,101.486,0.003378312,0.06246,20.9121,-0.0500425,-0.149567,0,0
768,191.75,36.06,37.1664,171.568,99.8344,102.679,0.003398134,0.0624901,20.9122,-0.0500425,-0.251209,0,0
771,192.5,36.3894,36.6241,169.291,99.8622,101.516,0.003409166,0.06251248,20.9123,-0.0500425,-0.1469,0,0
774,193.25,37.4559,35.9214,168.621,99.8651,101.697,0.003414496,0.062529,20.9124,-0.0500425,-0.162551,0,0
777,194,37.6244,36.058,172.484,99.8799,102.144,0.003418382,0.062541,20.9124,-0.100085,-0.200491,0,0
780,194.75,37.1905,36.2427,170.156,99.9085,102.455,0.003423926,0.06254977,20.9125,-0.100085,-0.225051,0,0
783,195.5,35.4356,37.4565,167.541,99.9308,102.144,0.003426968,0.0625179,20.9125,-0.0900766,-0.195892,0,0
786,196.25,37.1357,35.7747,170.053,99.9232,101.863,0.003426473,0.0624783,20.9125,-0.110094,-0.171962,0,0
789,197,35.7815,37.301,169.993,99.9337,102.473,0.003424401,0.06247497,20.9125,-0.100085,-0.224357,0,0
792,197.75,36.5588,36.7889,173.08,99.9594,102.48,0.003401212,0.0624834,20.9125,-0.0900766,-0.222737,0,0
795,198.5,35.6898,37.5764,168.889,99.9804,101.744,0.003384307,0.0625078,20.9126,-0.0800681,-0.156367,0,0
798,199.25,36.8046,36.4343,170.744,99.9825,102.15,0.003360989,0.0624873,20.9122,-0.0800681,-0.191813,0,0
801,200,35.7232,37.3006,169.513,99.9817,102.524,0.003325188,0.06244928,20.9115,-0.120102,-0.224548,0,0
804,200.75,36.9582,36.0392,171.435,99.996,102.234,0.003309917,0.0624101,20.9115,-0.130111,-0.1979049,0,0
807,201.5,36.9815,35.7378,163.784,100.015,102.775,0.003302786,0.062395,20.9116,-0.130111,-0.243452,0,0
810,202.25,36.3589,36.9213,171.395,100.01,101.675,0.003304428,0.0624069,20.911,-0.110094,-0.1476,0,0
813,203,36.0731,36.7727,168.747,100.02,102.16,0.003294228,0.0623901,20.9108,-0.130111,-0.189313,0,0
816,203.75,35.6334,37.6297,171.433,100.02,101.448,0.003281933,0.0623669,20.9111,-0.120102,-0.126721,0,0
819,204.5,36.9279,35.9814,167.809,100.031,102.581,0.003224229,0.0623137,20.9112,-0.130111,-0.225055,0,0
822,205.25,37.1223,36.0921,167.975,100.033,102.099,0.003138865,0.062295,20.9114,-0.0800681,-0.182798,0,0
825,206,35.6959,36.734,169.618,100.02,101.85,0.003061463,0.06231581,20.9115,-0.0900766,-0.162119,0,0
828,206.75,36.8661,35.9455,169.252,100.033,102.174,0.003017368,0.0623492,20.9115,-0.0700596,-0.189382,0,0
831,207.5,36.5643,36.4256,169.385,100.033,102.36,0.002969125,0.0623803,20.9116,-0.0700596,-0.205612,0,0
834,208.25,35.7252,37.3742,167.97,100.036,102.186,0.002933955,0.0624144,20.9116,-0.0500425,-0.190212,0,0
837,209,36.9768,36.384,169.789,100.04,101.537,0.002959726,0.06238465,20.9116,-0.0700596,-0.132893,0,0
840,209.75,35.5063,37.9292,171.774,100.035,101.78,0.003027878,0.0623695,20.9117,-0.0500425,-0.154628,0,0
843,210.5,36.1514,36.1743,166.512,100.038,102.906,0.003098605,0.0623519,20.9117,-0.0500425,-0.252802,0,0
846,211.25,37.106,36.4584,171.884,100.025,102.128,0.003189521,0.06235731,20.9115,-0.0500425,-0.186066,0,0
849,212,36.3512,36.5965,166.938,100.021,102.532,0.003263397,0.0623612,20.9114,-0.0600511,-0.221768,0,0
852,212.75,37.2027,36.3387,171.297,100.009,102.385,0.003324497,0.0623641,20.9112,-0.0600511,-0.20996,0,0
855,213.5,36.2187,37.2899,168.074,100.017,101.79,0.003375889,0.0622892,20.9111,-0.0500425,-0.157135,0,0
858,214.25,36.2607,36.9998,166.777,99.9973,102.242,0.003432333,0.0622153,20.9111,-0.0500425,-0.198556,0,0
861,215,35.3582,37.6747,174.568,99.9952,101.964,0.00347348,0.0621843,20.911,-0.040034,-0.174331,0,0
864,215.75,35.8131,37.1208,170.562,99.9884,102.129,0.003497774,0.0621982,20.911,-0.0500425,-0.189461,0,0
867,216.5,36.1742,37.0748,173.07,99.9863,101.49,0.003496045,0.062221,20.9109,-0.0500425,-0.133486,0,0
870,217.25,35.7259,37.1525,169.173,99.9779,101.487,0.003465703,0.0622431,20.9109,-0.040034,-0.133982,0,0
873,218,35.3668,37.3925,170.553,99.9607,101.374,0.003392115,0.0622592,20.9109,-0.0500425,-0.125567,0,0
876,218.75,36.4452,36.6128,170.282,99.9489,102.29,0.003308103,0.0622709,20.9109,-0.0700596,-0.207038,0,0
879,219.5,36.6749,36.0789,172.196,99.951,101.361,0.00322193,0.0622977,20.9109,-0.0900766,-0.125278,0,0
882,220.25,35.796,36.5978,168.347,99.9333,102.174,0.003138616,0.0622917,20.9109,-0.0700596,-0.198297,0,0
885,221,35.7972,37.1171,172.415,99.9308,101.45,0.003061709,0.0622764,20.9109,-0.0700596,-0.134908,0,0
888,221.75,36.7979,36.1471,175.152,99.9118,101.933,0.002998749,0.0622653,20.9109,-0.0700596,-0.179148,0,0
891,222.5,36.5294,36.0416,167.941,99.9123,102.207,0.002952851,0.06223898,20.9109,-0.0700596,-0.203106,0,0
894,223.25,35.2783,37.1426,174.278,99.898,100.992,0.002905863,0.0622469,20.9112,-0.0500425,-0.0974158,0,0
897,224,36.2613,36.1226,171.117,99.8664,102.073,0.002893826,0.06229895,20.9114,-0.0600511,-0.195456,0,0
900,224.75,36.5545,36.1734,171.671,99.8681,101.295,0.00289569,0.0623369,20.9117,-0.0500425,-0.126836,0,0
903,225.5,35.7835,36.0122,169.449,99.855,102.569,0.002922923,0.0623282,20.9118,-0.0500425,-0.239816,0,0
906,226.25,36.1597,36.2573,170.555,99.8492,101.117,0.00298096,0.0623218,20.912,-0.0600511,-0.112811,0,0
909,227,35.7193,36.7132,169.399,99.834,101.912,0.003044594,0.0623441,20.9121,-0.100085,-0.184246,0,0
912,227.75,35.234,37.0329,168.955,99.8088,101.157,0.003108075,0.0623767,20.9122,-0.100085,-0.119988,0,0
915,228.5,35.7425,36.5916,164.66,99.79319,101.722,0.003162484,0.0623886,20.9122,-0.0800681,-0.171213,0,0
918,229.25,35.275,36.7905,177.52,99.7768,101.985,0.003202148,0.06240223,20.9123,-0.0900766,-0.195795,0,0
921,230,35.8871,36.099,173.893,99.7574,100.848,0.003231063,0.062394,20.9123,-0.0800681,-0.0972483,0,0
924,230.75,36.001,35.9415,168.717,99.7507,101.822,0.003249142,0.062388,20.9123,-0.110094,-0.18384,0,0
927,231.5,35.6041,36.7947,173.066,99.7053,101.781,0.00325719,0.0623836,20.9123,-0.0900766,-0.184252,0,0
930,232.25,35.0712,36.7057,163.916,99.6998,101.831,0.003264487,0.0624168,20.9123,-0.0800681,-0.189129,0,0
933,233,36.1474,35.847,173.116,99.6867,102.35,0.003275503,0.06241418,20.9121,-0.0800681,-0.23582,0,0
936,233.75,36.3581,36.1386,166.326,99.6653,101.586,0.003293961,0.0623663,20.9119,-0.100085,-0.170743,0,0
939,234.5,35.3936,36.8327,166.814,99.6421,100.756,0.003321095,0.0623438,20.9118,-0.0900766,-0.0994185,0,0
942,235.25,35.0905,36.9185,170.952,99.6266,101.483,0.003359847,0.0623326,20.9117,-0.0900766,-0.16508,0,0
945,236,36.2876,35.7952,173.15,99.6009,101.54,0.003388097,0.0623244,20.9117,-0.100085,-0.172466,0,0
948,236.75,35.4327,36.5594,169.482,99.5677,101.739,0.003433099,0.0623185,20.9116,-0.120102,-0.192938,0,0
951,237.5,36.3832,35.7139,171.806,99.539,102.25,0.003462902,0.0623269,20.9116,-0.140119,-0.240265,0,0
954,238.25,35.6998,36.0779,171.926,99.5062,102.612,0.003479492,0.0623385,20.9116,-0.100085,-0.27487,0,0
957,239,35.223,36.7933,167.58,99.4759,101.566,0.003472612,0.0623106,20.9116,-0.100085,-0.185956,0,0
960,239.75,34.7423,36.9928,170.169,99.4663,101.324,0.003461897,0.0623036,20.9115,-0.0900766,-0.16546,0,0
963,240.5,35.3189,36.525,175.791,99.4381,101.845,0.003451655,0.0623215,20.9115,-0.0900766,-0.213912,0,0
966,241.25,35.7048,36.4183,171.643,99.4065,101.229,0.003455025,0.0623218,20.9115,-0.0900766,-0.162486,0,0
969,242,35.0731,36.921,173.503,99.3914,101.31,0.003468888,0.0623233,20.9115,-0.0900766,-0.170955,0,0
972,242.75,35.698,36.285,167.764,99.364,100.854,0.003483857,0.0623359,20.9115,-0.0800681,-0.133101,0,0
975,243.5,35.6051,36.0016,169.028,99.3278,100.72,0.003494769,0.062345,20.9115,-0.0800681,-0.124488,0,0
978,244.25,35.3635,36.507,169.385,99.3072,101.577,0.003502724,0.0623316,20.9115,-0.0900766,-0.202076,0,0
981,245,34.6187,36.8816,165.453,99.2824,101.121,0.003489548,0.0622873,20.9115,-0.0800681,-0.164104,0,0
984,245.75,35.1016,36.445,162.814,99.239,100.795,0.003479942,0.0622805,20.9111,-0.0800681,-0.139154,0,0
987,246.5,36.0398,35.808,171.181,99.2188,101.261,,0.0622865,,-0.0800681,-0.18221,0,0
990,247.25,35.1032,36.6265,168.895,99.1923,101.083,,0.0622726,,-0.0800681,-0.168832,0,0
993,248,35.6772,35.9257,172.011,99.1658,101.222,,0.062237,,-0.0800681,-0.183522,0,0
996,248.75,35.5531,36.4115,173.213,99.1755,101.21,,0.0622002,,-0.0700596,-0.181578,0,0
999,249.5,35.1029,36.5454,172.577,99.162,101.57,,,,-0.0600511,-0.214604,0,0
1002,250.25,34.6442,36.837,174.064,99.1658,100.856,,,,-0.0700596,-0.151128,0,0
1005,251,35.4663,36.0564,166.877,99.1776,101.164,,,,-0.0600511,-0.177318,0,0
1008,251.75,35.5171,36.2444,169.042,99.1873,100.916,,,,-0.0700596,-0.154521,0,0
1011,252.5,35.2898,36.287,169.56,99.1856,100.875,,,,-0.0600511,-0.151065,0,0
1014,253.25,35.6114,36.0658,173.461,99.1864,101.136,,,,-0.0700596,-0.174036,0,0
1017,254,35.3162,36.5436,175.23,99.2041,100.606,,,,-0.0800681,-0.125512,0,0
1020,254.75,35.315,36.2985,170.36,99.21,101.066,,,,-0.0800681,-0.165737,0,0
1023,255.5,35.259,36.4453,169.27,99.213,100.701,,,,-0.0800681,-0.133157,0,0
1026,256.25,35.0664,36.611,172.483,99.2092,100.599,,,,-0.0700596,-0.124411,0,0
1028,256.75,35.7791,36.2121,169.165,99.2172,100.546,,,,-0.0800681,-0.118948,0,0