File: 01_Data/Excelsior/Cone/Excelsior_Cone_HF35Scan_181018_R1.csv
Names,Time,Stack TC,Smoke TC,Exh Press,Smoke Comp,Smoke Meas,CO Meter,CO2 Meter,O2 Meter,Sample Mass,Ext Coeff,Start Test,Flame Verif
Chan Gain,,500,500,1,1,1,1,1,1,1,1,1,1
Offset,,0,0,0.14301,0,0,0,0,0,0,0,0,0
Gain,,1,1,25.011,13.5312,14.6783,1,1,1,1.00099,1.04424,1,1
Units,sec,C,C,Pa,%,%,%,%,%,g,/m,,
Baseline,,39.9588,41.8313,180.306,100.201,98.9739,0.003443114,0.0522564,20.9604,-0.737692,0.112955,,
3,0.5,38.5327,40.1118,182.07,100.399,99.8209,0.003600485,0.0575613,20.9533,943.707,0.0528868,0,0
6,1.25,38.9059,39.9692,185.983,100.387,99.4621,0.003596256,0.0576606,20.9535,943.737,0.0847414,0,0
9,2,38.6822,39.8829,179.473,100.387,99.1687,0.003585693,0.057733,20.9537,944.168,0.111879,0,0
12,2.75,38.4941,40.6419,184.184,100.394,99.3443,0.003574805,0.0577858,20.9538,943.947,0.096277,0,0
15,3.5,39.0818,40.1023,179.878,100.394,98.6679,0.003559377,0.057837,20.9539,944.007,0.158895,0,0
18,4.25,38.6151,40.7094,181.58,100.383,99.4339,0.003544936,0.0578663,20.954,944.057,0.0870391,0,0
21,5,39.2444,40.2831,183.774,100.384,99.5656,0.003543666,0.0578649,20.954,943.817,0.0749536,0,0
24,5.75,39.0241,40.3999,176.765,100.391,99.3497,0.003542739,0.0578437,20.9541,943.837,0.0954795,0,0
27,6.5,39.0796,41.1778,180.54,100.384,98.9963,0.003555169,0.057794,20.9544,943.847,0.12752,0,0
30,7.25,39.3154,40.7641,179.895,100.386,99.2897,0.003570802,0.0577397,20.9551,943.797,0.1006,0,0
33,8,39.8701,40.8946,182.733,100.385,97.8674,0.003583882,0.0577001,20.9563,943.867,0.232646,0,0
36,8.75,39.0279,40.6705,182.876,100.384,98.62,0.00360143,0.05758274,20.9571,943.827,0.162365,0,0
39,9.5,39.8981,41.1116,183.919,100.385,98.7329,0.003613238,0.0574595,20.9578,943.737,0.152,0,0
42,10.25,39.9612,40.9704,176.639,100.379,98.685,0.003620162,0.0571523,20.9588,943.767,0.155883,0,0
45,11,39.2813,41.1445,181.367,100.388,98.4032,0.003617327,0.0568682,20.9596,943.727,0.182903,0,0
48,11.75,39.0621,41.4254,177.12,100.399,97.5243,0.003601781,0.0565584,20.9595,943.717,0.26606,0,0
51,12.5,40.0609,41.2606,178.019,100.396,97.4585,0.00357977,0.05626902,20.9595,943.747,0.272059,0,0
54,13.25,40.0087,41.1337,179.505,100.389,98.1994,0.003561849,0.056031,20.9595,943.737,0.202044,0,0
57,14,39.4899,41.9607,179.647,100.381,97.5445,0.003550941,0.0557671,20.9595,943.707,0.262585,0,0
60,14.75,39.5878,41.9092,179.226,100.389,98.5963,0.003548043,0.0556127,20.9582,943.667,0.165023,0,0
63,15.5,39.682,41.0831,185.412,100.388,96.7279,0.003572147,0.0556299,20.9568,943.677,0.340233,0,0
66,16.25,39.4844,41.9887,179.675,100.385,96.8667,0.003600895,0.0558367,20.9551,943.667,0.32679,0,0
69,17,39.8218,41.5914,182.518,100.378,96.6007,0.003672614,0.0570041,20.9472,943.637,0.351383,0,0
72,17.75,39.7211,41.3568,177.112,100.384,97.0316,0.003724897,0.0582885,20.9388,943.627,0.311178,0,0
75,18.5,39.6942,41.9453,163.805,100.392,99.4568,0.003805794,0.0641076,20.9191,943.717,0.0857648,0,1
78,19.25,40.1026,42.4627,164.713,100.379,100.795,0.003877895,0.0738785,20.8906,943.156,-0.0379306,0,1
81,20,41.1006,44.3896,164.394,100.368,98.8758,0.003942967,0.0833586,20.8553,943.457,0.137169,0,1
84,20.75,41.7507,45.5105,170.335,100.372,100.608,0.004002225,0.09843488,20.8141,943.297,-0.0215418,0,1
87,21.5,42.7978,47.0232,161.389,100.383,100.246,0.004056123,0.11649,20.7775,943.127,0.0124911,0,1
90,22.25,43.7239,47.6747,167.994,100.376,99.2382,0.004106674,0.13578,20.7467,943.056,0.10445,0,1
93,23,45.0805,49.1479,163.532,100.368,99.7399,0.004172734,0.156648,20.7208,942.956,0.057504,0,1
96,23.75,45.1133,50.3427,169.194,100.372,99.6588,0.004231298,0.175839,20.6999,942.836,0.06532988,0,0
99,24.5,46.237,51.8734,168.974,100.368,99.7314,0.004288912,0.193223,20.6892,942.806,0.0583244,0,0
102,25.25,47.0105,52.9764,167.133,100.365,99.6628,0.004391009,0.208798,20.6738,942.686,0.06431935,0,0
105,26,47.585,54.0753,165.283,100.358,99.3614,0.004536589,0.224972,20.6604,942.606,0.0914662,0,0
108,26.75,47.9475,54.6872,161.119,100.357,98.6505,0.004669464,0.238509,20.6497,942.496,0.157125,0,0
111,27.5,49.2503,56.1354,170.569,100.358,99.734,0.004812067,0.247523,20.6392,942.356,0.0570971,0,0
114,28.25,50.1279,56.7924,163.048,100.354,100.835,0.00496707,0.261489,20.6315,942.286,-0.0437757,0,0
117,29,50.0993,57.6625,163.064,100.335,100.063,0.005080067,0.273186,20.6242,942.176,0.0248727,0,0
120,29.75,50.5529,59.3372,163.965,100.334,100.571,0.005220893,0.285802,20.6171,942.086,-0.0216239,0,0
123,30.5,51.4248,59.7344,157.416,100.332,99.9164,0.005380549,0.296509,20.6086,941.955,0.0380303,0,0
126,31.25,52.3003,60.5715,162.05,100.335,97.0334,0.005510613,0.306897,20.5997,941.885,0.306486,0,0
129,32,52.2464,61.9506,159.17,100.329,98.1214,0.00563564,0.316481,20.592,941.735,0.203815,0,0
132,32.75,53.4977,62.352,163.687,100.32,99.1239,0.005751596,0.326904,20.5845,941.615,0.109873,0,0
135,33.5,53.1883,63.4216,161.87,100.32,98.9327,0.005856532,0.337554,20.5765,941.525,0.127566,0,0
138,34.25,54.9896,63.8748,159.156,100.319,99.7237,0.005951897,0.346462,20.569,941.435,0.0544999,0,0
141,35,54.4917,65.1364,166.989,100.314,99.5222,0.006028973,0.35491,20.5627,941.315,0.0725814,0,0
144,35.75,55.3842,65.5238,156.585,100.309,98.6684,0.006104364,0.364328,20.5546,941.205,0.151012,0,0
147,36.5,55.2396,66.4939,158.975,100.309,98.7315,0.006131692,0.372074,20.5508,941.104,0.145226,0,0
150,37.25,56.6837,67.4157,157.045,100.317,99.9495,0.006150036,0.379224,20.5459,940.994,0.0335969,0,0
153,38,56.2992,68.0681,164.144,100.302,99.9504,0.006157768,0.386519,20.5416,940.864,0.0321955,0,0
156,38.75,57.4242,68.0287,161.698,100.297,99.6937,0.006155851,0.395154,20.5379,940.754,0.0552955,0,0
159,39.5,57.1616,69.0447,163.712,100.308,99.864,0.006146261,0.398565,20.5345,940.644,0.0406496,0,0
162,40.25,57.775,69.3233,163.242,100.31,100.441,0.006130766,0.404609,20.532,940.544,-0.0120096,0,0
165,41,58.1679,70.5038,163.957,100.304,98.9716,0.006102469,0.409703,20.5302,940.414,0.122487,0,0
168,41.75,58.2759,69.9199,164.514,100.303,99.0603,0.006070819,0.41459,20.5291,940.344,0.114169,0,0
171,42.5,58.6105,70.9712,163.165,100.297,99.1669,0.006048123,0.419215,20.5287,940.234,0.103826,0,0
174,43.25,59.105,71.1637,165.918,100.302,99.2426,0.006034974,0.422697,20.5315,940.114,0.0972894,0,0
177,44,59.5403,72.2173,162.726,100.294,99.1544,0.006057722,0.425425,20.5353,940.033,0.104721,0,0
180,44.75,59.5756,71.9275,160.217,100.28,98.7893,0.006074306,0.427252,20.5388,939.933,0.137226,0,0
183,45.5,60.2411,72.1099,161.67,100.291,98.2245,0.006164575,0.428082,20.5435,939.833,0.190695,0,0
186,46.25,60.0443,72.3303,165.927,100.287,99.2552,0.006281474,0.428074,20.5479,939.743,0.09473598,0,0
189,47,60.0688,72.3902,166.04,100.289,98.2361,0.006388475,0.427384,20.5542,939.643,0.18946,0,0
192,47.75,60.4283,72.2137,164.341,100.283,99.6023,0.006510973,0.425481,20.5607,939.563,0.0623761,0,0
195,48.5,60.0292,72.6237,162.999,100.283,99.3349,0.006613532,0.423494,20.5671,939.493,0.0869655,0,0
198,49.25,60.2799,72.0267,169.161,100.286,100.28,0.006694946,0.421021,20.5734,939.413,0.000563434,0,0
201,50,60.3297,72.5046,165.486,100.288,99.132,0.006756006,0.418166,20.581,939.323,0.106224,0,0
204,50.75,60.3003,72.3701,170.632,100.283,99.1692,0.006781609,0.415637,20.5866,939.233,0.102299,0,0
207,51.5,60.7827,72.2295,167.106,100.273,98.7728,0.006800274,0.412024,20.5907,939.163,0.138085,0,0
210,52.25,60.2082,72.641,163.78,100.284,99.2279,0.00679594,0.408298,20.5962,939.052,0.0969933,0,0
213,53,60.8288,71.9162,165.524,100.275,97.9754,0.0067621,0.404576,20.6019,939.002,0.212518,0,0
216,53.75,60.1151,71.7375,162.726,100.284,98.2164,0.006710429,0.400313,20.6078,938.942,0.190844,0,0
219,54.5,60.7144,71.9779,169.384,100.278,98.6016,0.006661411,0.396132,20.6137,938.862,0.154458,0,0
222,55.25,60.3007,71.5876,163.761,100.277,99.2928,0.006617853,0.393083,20.6196,938.812,0.0903212,0,0
225,56,60.7226,71.47,161.788,100.287,99.4312,0.006580994,0.389671,20.6258,938.732,0.0785032,0,0
228,56.75,59.8591,71.0167,166.32,100.285,99.1692,0.006554124,0.385148,20.6303,938.622,0.102488,0,0
231,57.5,59.8667,71.0227,167.964,100.266,99.717,0.006534536,0.380479,20.6354,938.572,0.0503264,0,0
234,58.25,60.0058,70.8533,167.117,100.266,98.8476,0.006527069,0.37618,20.6396,938.472,0.130546,0,0
237,59,60.4733,70.6469,164.493,100.264,97.7774,0.006521625,0.372186,20.6428,938.422,0.230067,0,0
240,59.75,59.8296,70.9221,161.936,100.264,98.1689,0.006528451,0.368457,20.6459,938.362,0.193463,0,0
243,60.5,59.7262,70.6684,173.615,100.252,97.1978,0.006541396,0.364832,20.6484,938.272,0.283437,0,0
246,61.25,59.6079,70.324,162.477,100.25,99.7824,0.006564462,0.361803,20.6515,938.212,0.04281161,0,0
249,62,59.493,70.1328,167.069,100.259,98.7271,0.00660017,0.358586,20.6546,938.162,0.141078,0,0
252,62.75,59.4149,69.6767,170.794,100.242,99.274,0.006633774,0.355811,20.6578,938.071,0.0888506,0,0
255,63.5,59.7038,69.8101,169.755,100.228,98.8789,0.006668477,0.352506,20.6608,938.021,0.124132,0,0
258,64.25,59.7867,69.3201,168.081,100.226,98.8364,0.006705706,0.349429,20.6636,937.921,0.127924,0,0
261,65,59.9178,69.3772,169.214,100.228,99.3291,0.006751757,0.3469,20.6666,937.881,0.0825211,0,0
264,65.75,59.0986,69.6501,169.402,100.223,99.5378,0.006785328,0.344172,20.6691,937.801,0.06280227,0,0
267,66.5,59.5991,69.0731,173.09,100.215,99.3685,0.006828717,0.34132,20.6722,937.731,0.0777171,0,0
270,67.25,58.9465,69.2645,166.912,100.213,98.9309,0.006864139,0.338909,20.6746,937.641,0.117923,0,0
273,68,59.4927,68.6479,168.307,100.216,99.7484,0.006891579,0.33658,20.6768,937.561,0.0428812,0,0
276,68.75,59.1759,68.8765,168.057,100.212,97.8921,0.006906174,0.333918,20.6788,937.491,0.214537,0,0
279,69.5,59.511,68.5754,171.07,100.214,98.3252,0.006911827,0.33159,20.6805,937.441,0.174283,0,0
282,70.25,58.5972,68.5423,172.968,100.204,98.5412,0.00690742,0.329232,20.683,937.371,0.153323,0,0
285,71,59.4258,68.0787,171.023,100.212,98.6088,0.0068826,0.32684,20.6852,937.301,0.147755,0,0
288,71.75,58.7017,68.5745,165.173,100.211,98.4287,0.006851246,0.324809,20.687,937.241,0.164347,0,0
291,72.5,59.2533,68.049,167.752,100.209,98.0838,0.006822736,0.322456,20.6883,937.121,0.196389,0,0
294,73.25,58.8421,67.9357,162.031,100.201,98.7248,0.006824681,0.320368,20.6895,937.06,0.135965,0,0
297,74,58.5638,68.1342,166.688,100.197,96.9138,0.006855737,0.318523,20.6908,937.02,0.305145,0,0
300,74.75,59.1858,67.677,168.83,100.2,98.3696,0.006912488,0.316897,20.6917,936.95,0.16887,0,0
303,75.5,58.4725,67.9799,167.434,100.195,98.4269,0.006953859,0.31534,20.6923,936.89,0.163117,0,0
306,76.25,58.7264,67.1184,166.639,100.194,98.3687,0.007040814,0.314047,20.6925,936.84,0.168387,0,0
309,77,58.6569,67.3739,163.938,100.193,98.6675,0.007117738,0.312778,20.6931,936.79,0.140532,0,0
312,77.75,59.1891,67.4942,164.164,100.199,97.7922,0.007171918,0.311713,20.6937,936.74,0.222719,0,0
315,78.5,58.4064,67.2221,163.397,100.183,98.0547,0.007210608,0.310537,20.6942,936.67,0.196693,0,0
318,79.25,58.9416,67.1606,168.081,100.178,98.8964,0.007236108,0.309385,20.6947,936.61,0.117984,0,0
321,80,58.4099,67.1171,166.521,100.178,97.7008,0.007254698,0.308332,20.6955,936.53,0.229358,0,0
324,80.75,58.9545,66.9308,171.057,100.173,97.6551,0.007260126,0.307269,20.6961,936.45,0.23319,0,0
327,81.5,58.5278,66.7484,162.04,100.162,96.4206,0.007250804,0.306346,20.6965,936.4,0.348708,0,0
330,82.25,58.3019,67.1869,166.519,100.159,97.9521,0.007238349,0.30561,20.6968,936.36,0.204091,0,0
333,83,58.7509,66.8523,170.805,100.145,97.9772,0.00719412,0.304823,20.6971,936.31,0.2004987,0,0
336,83.75,58.7873,66.7707,173.014,100.157,97.3227,0.007135339,0.304142,20.6977,936.25,0.262946,0,0
339,84.5,58.2217,66.6964,165.437,100.155,96.8856,0.007070207,0.30333,20.6983,936.18,0.304037,0,0
342,85.25,58.7935,66.8974,168.188,100.149,97.1919,0.007003971,0.302503,20.6987,936.08,0.27451,0,0
345,86,58.2625,66.865,164.047,100.124,98.2643,0.006931373,0.301698,20.6995,935.999,0.171691,0,0
348,86.75,59.0084,66.463,164.478,100.131,96.5948,0.00687845,0.300939,20.7002,935.939,0.329298,0,0
351,87.5,58.5687,66.6505,166.393,100.131,97.2022,0.006780485,0.300113,20.7008,935.889,0.271915,0,0
354,88.25,58.5171,66.9955,162.221,100.132,96.8434,0.006669347,0.29929,20.7012,935.859,0.305903,0,0
357,89,58.6756,66.5838,168.633,100.12,97.927,0.006571395,0.298596,20.7027,935.789,0.202849,0,0
360,89.75,58.7871,66.1373,173.627,100.119,97.3832,0.006471608,0.297567,20.704,935.719,0.253782,0,0
363,90.5,58.6781,66.57,166.957,100.11,97.6847,0.006404831,0.296577,20.7054,935.659,0.224638,0,0
366,91.25,58.3296,66.1345,167.266,100.114,97.9915,0.006366354,0.295446,20.7079,935.619,0.1963249,0,0
369,92,58.6114,65.6244,170.006,100.1,97.4007,0.006359874,0.294111,20.7097,935.599,0.250363,0,0
372,92.75,58.2003,66.0359,169.246,100.097,98.1653,0.006377852,0.29292,20.7114,935.519,0.178506,0,0
375,93.5,58.4513,65.4847,165.041,100.104,97.0419,0.006400635,0.291343,20.7129,935.489,0.284583,0,0
378,94.25,57.9449,66.0432,170.707,100.1,96.8466,0.006479326,0.289843,20.7148,935.419,0.302698,0,0
381,95,58.1787,66.405,164.202,100.085,97.5194,0.006568884,0.288401,20.7166,935.359,0.237845,0,0
384,95.75,58.0354,66.0585,173.479,100.092,97.2426,0.006647898,0.287009,20.7191,935.309,0.264565,0,0
387,96.5,58.478,65.3264,170.1362,100.095,96.4139,0.006735224,0.285529,20.7214,935.269,0.343188,0,0
390,97.25,57.9036,65.1778,168.068,100.095,97.7846,0.006806469,0.284252,20.7233,935.219,0.213953,0,0
393,98,58.4941,65.5153,169.119,100.088,97.5539,0.00686164,0.282575,20.7255,935.149,0.234909,0,0
396,98.75,57.9863,64.8482,172.979,100.081,97.6041,0.006901859,0.280816,20.7275,935.119,0.229518,0,0
399,99.5,57.72612,65.4801,169.267,100.097,98.2048,0.006904138,0.279001,20.7303,935.069,0.174828,0,0
402,100.25,58.1389,64.4238,171.809,100.092,96.7848,0.006886861,0.277158,20.7328,935.008,0.307753,0,0
405,101,57.6888,65.0852,169.117,100.085,97.5973,0.006866192,0.275814,20.7354,934.968,0.230564,0,0
408,101.75,57.8772,64.4622,169.28,100.069,98.1738,0.006841653,0.273415,20.7375,934.898,0.17518,0,0
411,102.5,57.2176,64.7828,176.635,100.09,97.8751,0.006823712,0.271334,20.7395,934.868,0.204951,0,0
414,103.25,57.7546,64.3269,166.037,100.095,98.418,0.006817451,0.269247,20.7427,934.838,0.154734,0,0
417,104,57.3673,64.0793,163.948,100.084,98.6088,0.006831798,0.267311,20.7456,934.788,0.136046,0,0
420,104.75,57.7798,63.7668,169.289,100.093,97.1418,0.006857416,0.26519,20.7483,934.758,0.274102,0,0
423,105.5,56.7806,63.8726,167.36,100.104,98.5864,0.006893526,0.262767,20.751,934.728,0.139904,0,0
426,106.25,57.6332,63.594,169.432,100.1,97.6927,0.006938614,0.260707,20.7549,934.658,0.223013,0,0
429,107,56.8728,63.4087,165.792,100.095,98.5698,0.006972635,0.258705,20.7581,934.618,0.140612,0,0
432,107.75,56.594,63.4931,167.665,100.079,99.0572,0.00702603,0.256251,20.7604,934.568,0.0940346,0,0
435,108.5,56.8729,62.8544,171.04,100.095,98.2527,0.007076336,0.253582,20.7636,934.508,0.170207,0,0
438,109.25,56.8884,63.1851,173.407,100.095,98.9,0.007122566,0.250873,20.7681,934.498,0.109983,0,0
441,110,56.8272,62.4576,173.211,100.095,98.2321,0.007130613,0.248236,20.7706,934.468,0.172053,0,0
444,110.75,56.6276,62.7346,175.771,100.079,98.0368,0.007125943,0.245887,20.7735,934.428,0.188809,0,0
447,111.5,56.1294,62.2631,176.261,100.086,99.4281,0.007098654,0.243173,20.7766,934.398,0.0604432,0,0
450,112.25,56.3069,62.477,171.533,100.098,98.0453,0.007054431,0.239218,20.7806,934.358,0.189827,0,0
453,113,55.9709,61.4173,170.255,100.086,98.4731,0.007012721,0.23757,20.7852,934.318,0.148852,0,0
456,113.75,55.4838,61.8052,174.269,100.091,99.5249,0.006978277,0.234147,20.7898,934.278,0.0519498,0,0
459,114.5,55.8022,61.0489,169.535,100.092,97.1449,0.006953167,0.230702,20.7947,934.268,0.273768,0,0
462,115.25,55.2747,61.2532,169.84,100.101,99.5275,0.006968972,0.227325,20.7987,934.248,0.0526468,0,0
465,116,55.1578,60.3777,168.988,100.103,99.2435,0.007020988,0.224075,20.8024,934.218,0.078973,0,0
468,116.75,55.5873,60.6554,172.144,100.114,99.347,0.007103284,0.22046,20.807,934.188,0.0704101,0,0
471,117.5,55.2725,60.0918,173.488,100.096,99.1719,0.00720504,0.2173,20.8112,934.158,0.084987,0,0
474,118.25,55.0848,59.8421,176.049,100.1,99.8532,0.00731402,0.214102,20.8146,934.108,0.02264869,0,0
477,119,54.8514,59.3908,174.628,100.1,98.2043,0.007422528,0.210627,20.819,934.088,0.175096,0,0
480,119.75,54.8573,59.2197,175.188,100.095,100.439,0.007558556,0.207123,20.8227,934.068,-0.0313563,0,0
483,120.5,54.2385,59.358,176.996,100.09,99.2498,0.007695775,0.203741,20.8261,934.057,0.0772602,0,0
486,121.25,53.8397,59.1456,173.359,100.097,98.1644,0.007860879,0.200222,20.8286,934.018,0.178589,0,0
489,122,54.2281,58.1804,174.701,100.099,99.2521,0.007981241,0.196961,20.8304,933.987,0.0778103,0,0
492,122.75,53.7035,58.6095,170.948,100.089,99.4245,0.008206243,0.194287,20.832,933.967,0.0610387,0,0
495,123.5,54.2076,57.8147,179.262,100.085,98.3508,0.008457935,0.191095,20.8336,933.927,0.160084,0,0
498,124.25,54.1439,57.5289,176.97,100.105,99.5647,0.008691268,0.188768,20.836,933.917,0.0495282,0,0
501,125,53.769,57.5112,177.276,100.084,99.3175,0.008893857,0.186279,20.8384,933.907,0.0704535,0,0
504,125.75,53.0244,57.6888,170.923,100.091,99.2843,0.009055394,0.183111,20.8413,933.877,0.0741532,0,0
507,126.5,52.7192,57.095,167.24,100.084,98.9488,0.009173155,0.179802,20.846,933.857,0.104518,0,0
510,127.25,53.4093,56.7034,174.266,100.093,98.8502,0.009245371,0.176589,20.8498,933.877,0.114402,0,0
513,128,53.0667,56.3093,175.181,100.095,99.0021,0.009296004,0.173604,20.853,933.827,0.100605,0,0
516,128.75,52.6591,55.7916,170.88,100.081,100.599,0.009329473,0.170432,20.8557,933.817,-0.0472545,0,0
519,129.5,52.864,55.8018,171.918,100.064,98.6617,0.009382549,0.167462,20.8579,933.807,0.129248,0,0
522,130.25,52.4723,55.5753,176.403,100.076,100.053,0.009418248,0.165018,20.8593,933.797,0.002112697,0,0
525,131,52.2602,55.8002,177.988,100.068,99.0205,0.009495843,0.162339,20.8614,933.787,0.096412,0,0
528,131.75,51.8296,55.5802,172.06,100.065,98.4444,0.009593101,0.159951,20.8637,933.757,0.149591,0,0
531,132.5,51.6238,54.9792,177.586,100.052,98.6988,0.009707082,0.157466,20.8666,933.757,0.124738,0,0
534,133.25,51.5824,54.9696,173.902,100.049,98.857,0.009853038,0.155476,20.8687,933.747,0.109809,0,0
537,134,51.584,54.7167,171.581,100.034,98.908,0.0100035,0.153178,20.8707,933.727,0.103681,0,0
540,134.75,51.4228,54.1115,174.164,100.034,99.3291,0.0101512,0.150631,20.873,933.717,0.0647292,0,0
543,135.5,51.2375,54.1783,175.552,100.026,98.9349,0.0102917,0.148284,20.8746,933.697,0.100474,0,0
546,136.25,50.6387,53.7802,172.715,100.026,98.6393,0.0104194,0.14612,20.8758,933.677,0.127888,0,0
549,137,51.5478,53.677,176.713,100.026,98.7463,0.0105557,0.144125,20.8767,933.677,0.117988,0,0
552,137.75,50.7766,53.9025,173.106,100.016,98.6464,0.0107127,0.142234,20.8777,933.637,0.126275,0,0
555,138.5,50.7869,53.1936,179.657,100.004,99.055,0.0108636,0.14067,20.8792,933.587,0.0873235,0,0
558,139.25,50.6063,53.1085,180.884,100.01,98.9497,0.0109984,0.138795,20.881,933.627,0.0976297,0,0
561,140,50.7579,52.8842,170.585,100.003,97.8975,0.01111219,0.137144,20.8823,933.647,0.194916,0,0
564,140.75,50.16,53.1219,178.774,100.003,98.3373,0.0111979,0.135453,20.8837,933.597,0.153887,0,0
567,141.5,50.2576,52.2928,174.2388,99.9996,98.6814,0.0112594,0.133639,20.8849,933.597,0.121558,0,0
570,142.25,50.4787,52.112,179.518,99.9996,98.8108,0.0113025,0.131866,20.8864,933.577,0.109548,0,0
573,143,49.5882,52.4098,175.137,100.005,98.6178,0.0113339,0.130206,20.8875,933.587,0.127955,0,0
576,143.75,50.1447,51.6924,174.988,100.007,98.6406,0.011365,0.128839,20.8883,933.557,0.12606,0,0
579,144.5,49.3759,52.3173,174.227,99.9984,99.0263,0.0113877,0.127356,20.8891,933.537,0.0894822,0,0
582,145.25,50.2582,51.7211,175.251,99.991,98.6921,0.0114152,0.126275,20.8901,933.527,0.119765,0,0
585,146,49.5688,51.6854,179.279,99.9856,98.8408,0.0114424,0.124907,20.8901,933.517,0.105481,0,0
588,146.75,49.3326,51.1308,177.527,99.9819,98.7728,0.0114743,0.123723,20.8905,933.517,0.111451,0,0
591,147.5,49.4901,51.217,171.694,99.9831,98.2894,0.0115498,0.122543,20.8911,933.497,0.156499,0,0
594,148.25,49.0897,51.532,169.379,99.9786,100.176,0.0116127,0.121489,20.8913,933.487,-0.0180444,0,0
597,149,48.8783,51.2817,175.455,99.979,98.667,0.0117167,0.120391,20.8921,933.467,0.120996,0,0
600,149.75,49.5351,51.002,172.782,99.9695,98.491,0.0118695,0.119162,20.8928,933.467,0.136484,0,0
603,150.5,49.3631,50.9104,178.441,99.9761,98.2057,0.0119993,0.118018,20.8933,933.447,0.163665,0,0
606,151.25,49.0694,50.7245,174.353,99.9707,98.573,0.0121251,0.11736,20.8939,933.437,0.128977,0,0
609,152,49.2051,50.4518,172.726,99.9534,98.5273,0.0122111,0.116311,20.8948,933.427,0.131635,0,0
612,152.75,48.6432,51.1182,177.391,99.9654,99.5974,0.012257,0.115301,20.8954,933.417,0.03377746,0,0
615,153.5,48.65,49.8458,177.083,99.9567,98.4354,0.0122662,0.114354,20.8958,933.417,0.140479,0,0
618,154.25,48.1968,50.9419,174.666,99.9488,98.7996,0.012242,0.113454,20.8961,933.397,0.105932,0,0
621,155,48.1456,50.0017,182.742,99.9385,98.2612,0.012198,0.112559,20.8976,933.387,0.155043,0,0
624,155.75,48.1225,50.455,176.565,99.9447,98.8946,0.0121434,0.111649,20.8987,933.357,0.0967545,0,0
627,156.5,48.7622,49.8384,174.491,99.9385,99.0012,0.01208427,0.110686,20.8995,933.367,0.0863165,0,0
630,157.25,48.145,49.8422,176.91,99.9315,98.4095,0.0120361,0.109753,20.9007,933.367,0.140589,0,0
633,158,48.0008,49.5122,174.914,99.9274,97.587,0.0119923,0.108898,20.9015,933.337,0.217083,0,0
636,158.75,48.3864,49.6053,175.913,99.9162,98.0453,0.0119577,0.10796,20.9022,933.327,0.173147,0,0
639,159.5,47.8926,49.6569,175.113,99.9038,99.0205,0.0119401,0.10716,20.9026,933.347,0.0813555,0,0
642,160.25,47.6958,49.6495,176.228,99.8832,98.5394,0.0119418,0.106377,20.903,933.337,0.124075,0,0
645,161,47.8015,48.9528,184.331,99.8795,98.6523,0.0119621,0.105638,20.9032,933.327,0.113246,0,0
648,161.75,47.9671,48.8669,177.023,99.8762,98.2643,0.0120347,0.104966,20.9034,933.317,0.149033,0,0
651,162.5,48.0066,48.5414,172.803,99.8733,98.9255,0.0120876,0.104371,20.904,933.317,0.0873419,0,0
654,163.25,47.2295,49.0068,179.311,99.8791,98.9295,0.0122129,0.103734,20.9046,933.307,0.0874988,0,0
657,164,48.0642,48.6156,174.88,99.8621,97.5422,0.01230422,0.103127,20.9051,933.257,0.215306,0,0
660,164.75,46.9857,48.9255,175.654,99.8617,98.8565,0.012346,0.102624,20.9057,933.277,0.0926716,0,0
663,165.5,47.2829,48.3954,174.911,99.8634,98.5483,0.0122388,0.102035,20.9061,933.267,0.121423,0,0
666,166.25,47.1998,48.1775,176.728,99.8683,97.8571,0.012082,0.101605,20.9067,933.287,0.18635,0,0
669,167,47.2986,48.002,177.634,99.846,99.0155,0.0117773,0.100942,20.9074,933.497,0.0765087,0,0
672,167.75,47.098,48.5227,174.124,99.8204,98.491,0.0113907,0.100214,20.9092,933.747,0.122814,0,0
675,168.5,46.9601,47.9047,178.762,99.8171,98.3727,0.0108279,0.0986744,20.9124,933.167,0.133517,0,0
678,169.25,47.1042,47.7274,183.736,99.8031,98.1631,0.0101835,0.0976673,20.917,909.153,0.151769,0,0
681,170,46.7273,47.7297,184.435,99.8018,98.5877,0.009593876,0.09578155,20.9222,311.139,0.112116,0,0
684,170.75,46.0981,47.4634,179.689,99.7919,98.2164,0.009112938,0.0940989,20.926,98.2776,0.145773,0,0
687,171.5,46.4707,47.0593,181.475,99.7994,98.4955,0.008669276,0.0920483,20.9288,-0.730726,0.120465,0,0
690,172.25,45.8058,46.7012,179.557,99.7849,97.6045,0.008306173,0.0900399,20.9308,28.4983,0.202376,0,0
693,173,45.9627,46.0598,183.258,99.775,98.603,0.007983373,0.088298,20.9322,-0.750745,0.108236,0,0
696,173.75,45.3361,46.2562,179.345,99.7663,97.3044,0.007730096,0.0868227,20.9333,-0.750745,0.228878,0,0
699,174.5,45.5332,45.6653,176.772,99.7692,98.7817,0.007514752,0.0856596,20.9314,-0.720716,0.091117,0,0
702,175.25,44.9779,45.3865,179.519,99.768,98.7024,0.007284836,0.08483,20.93,-0.730726,0.0983589,0,0
705,176,44.5256,45.592,183.846,99.7581,98.3221,0.007086359,0.0842114,20.9289,-0.930924,0.132812,0,0
708,176.75,44.7213,44.7213,179.655,99.7498,98.4162,0.006888884,0.0837369,20.9282,-0.670666,0.123293,0,0
711,177.5,45.0651,44.8964,180.863,99.7643,98.1788,0.006661362,0.0831984,20.9289,-0.660656,0.146743,0,0
714,178.25,44.5521,45.4424,176.413,99.7531,98.1201,0.00645179,0.0827237,20.9294,-0.730726,0.151196,0,0
717,179,44.801,44.8679,176.426,99.7444,97.8455,0.006224272,0.0819384,20.9316,-0.760755,0.17607,0,0
720,179.75,45.3276,44.8262,183.945,99.7329,98.1877,0.005975071,0.0810454,20.9341,-0.740736,0.143026,0,0
723,180.5,44.6954,44.7,177.367,99.7333,97.7456,0.005727512,0.0802578,20.9365,-0.750745,0.184403,0,0
726,181.25,44.4265,44.9447,181.666,99.737,98.9645,0.005494208,0.0790259,20.9387,-0.770765,0.0712271,0,0
729,182,44.21,44.8135,176.854,99.7354,98.1716,0.005281819,0.0776289,20.9421,-0.780775,0.144758,0,0
732,182.75,43.8451,44.4852,177.369,99.7106,98.4413,0.005070705,0.0762161,20.9446,-0.780775,0.117355,0,0
735,183.5,44.451,44.4479,180.189,99.7193,97.7689,0.00490145,0.0748756,20.9464,-0.770765,0.180931,0,0
738,184.25,44.5464,45.1162,175.43,99.7201,98.5215,0.00475181,0.0734794,20.9478,-0.750745,0.11077,0,0
741,185,44.2638,44.6985,182.465,99.7069,98.4283,0.004642722,0.0721425,20.9487,-0.750745,0.118222,0,0
744,185.75,44.3252,44.6672,179.387,99.6961,98.0193,0.004501645,0.0710319,20.95,-0.740736,0.155376,0,0
747,186.5,44.1708,44.2316,181.29,99.6854,97.9633,0.004365039,0.0698046,20.9512,-0.730726,0.159624,0,0
750,187.25,44.0848,44.3311,184.566,99.6978,98.9972,0.00423794,0.0689098,20.9524,-0.720716,0.064598,0,0
753,188,44.7798,44.7205,178.154,99.6784,97.8894,0.004141667,0.0677486,20.9535,-0.730726,0.165893,0,0
756,188.75,43.9956,44.7389,176.028,99.6747,97.7174,0.004074863,0.0667747,20.9544,-0.750745,0.181661,0,0
759,189.5,43.7408,44.8004,177.058,99.6635,98.5237,0.004018137,0.065847,20.9551,-0.730726,0.105363,0,0
762,190.25,44.1819,44.2366,177.422,99.6606,97.8155,0.003976783,0.0649347,20.9555,-0.720716,0.171179,0,0
765,191,43.9488,44.0568,181.148,99.6491,98.5492,0.003899807,0.0639973,20.9561,-0.730726,0.101662,0,0
768,191.75,44.5693,44.1574,183,99.6263,98.5712,0.003823726,0.063227,20.9569,-0.740736,0.0975335,0,0
771,192.5,43.7523,44.4,179.349,99.6251,97.9687,0.003728963,0.0625166,20.9575,-0.720716,0.153579,0,0
774,193.25,43.9955,44.1551,181.736,99.6325,98.3835,0.003643125,0.0619051,20.9579,-0.740736,0.115562,0,0
777,194,44.1669,43.951,181.12,99.6197,98.2442,0.003526467,0.061299,20.9582,-0.730726,0.127364,0,0
780,194.75,43.6674,43.6173,176.188,99.6111,98.4852,0.00347926,0.0607429,20.9584,-0.740736,0.104124,0,0
783,195.5,43.5958,43.9106,175.669,99.5929,97.8352,0.003419387,0.0602886,20.9586,-0.770765,0.163107,0,0
786,196.25,43.2453,44.4604,185.158,99.5892,97.9754,0.003377423,0.05975816,20.9587,-0.750745,0.149648,0,0
789,197,43.9532,44.0262,179.824,99.5937,98.2218,0.003354833,0.05915308,20.9588,-0.730726,0.12706,0,0
792,197.75,44.0809,43.7083,177.701,99.5685,98.1483,0.003343973,0.0588826,20.9589,-0.730726,0.131597,0,0
795,198.5,43.6514,43.6225,181.34,99.5599,98.3037,0.003338446,0.0584304,20.9589,-0.730726,0.116303,0,0
798,199.25,43.6682,43.948,177.244,99.5698,97.5413,0.003354999,0.0579944,20.959,-0.710706,0.188534,0,0
801,200,43.1997,43.4872,184.951,99.5533,98.1842,0.00337584,0.0575966,20.959,-0.710706,0.126847,0,0
804,200.75,43.4296,43.8585,179.383,99.5442,97.7528,0.003425737,0.057216,20.959,-0.720716,0.166344,0,0
807,201.5,43.3682,43.7469,180.342,99.5256,98.6428,0.003482707,0.0569052,20.959,-0.730726,0.0816066,0,0
810,202.25,43.2004,43.8895,179.622,99.5128,98.1183,0.003537948,0.0566215,20.959,-0.740736,0.129268,0,0
813,203,43.248,44.0252,181.056,99.5041,98.6272,0.003586649,0.0563132,20.9597,-0.740736,0.081086,0,0
816,203.75,43.1828,43.992,183.436,99.4946,97.5454,0.003614131,0.0560118,20.9601,-0.730726,0.181239,0,0
819,204.5,43.0361,43.4971,180.182,99.4748,98.3136,0.003617416,0.0557349,20.9604,-0.730726,0.107555,0,0
822,205.25,43.3695,43.2143,175.808,99.4777,97.4616,0.003591167,0.05549689,20.9607,-0.750745,0.187549,0,0
825,206,43.4926,43.2371,179.44,99.4756,97.4509,0.003548397,0.05534875,20.9609,-0.750745,0.18837,0,0
828,206.75,43.1517,43.6963,177.631,99.4802,97.5736,0.003476802,0.0552516,20.961,-0.740736,0.177259,0,0
831,207.5,43.0085,43.1394,177.311,99.4773,97.5835,0.003413392,0.0550179,20.9611,-0.730726,0.176067,0,0
834,208.25,42.9999,43.1536,174.158,99.476,98.0551,0.003359431,0.0548475,20.9612,-0.720716,0.131783,0,0
837,209,43.617,43.2382,177.78,99.4847,97.312,0.003315041,0.0546691,20.9612,-0.740736,0.202268,0,0
840,209.75,43.6756,43.5904,175.094,99.4888,98.4708,0.003285351,0.0545123,20.9612,-0.740736,0.0942107,0,0
843,210.5,43.2427,43.515,179.313,99.4744,98.564,0.003276796,0.0543523,20.961,-0.750745,0.0842167,0,0
846,211.25,42.9915,43.3384,178.189,99.4855,98.0654,0.00328106,0.0542357,20.9605,-0.740736,0.131694,0,0
849,212,43.2833,43.1676,179.917,99.4958,98.0771,0.003292582,0.0541888,20.9601,-0.710706,0.131558,0,0
852,212.75,42.8989,43.1804,181.124,99.4905,97.51,0.003302954,0.0541841,20.9598,-0.720716,0.184183,0,0
855,213.5,42.9077,43.1832,181.438,99.4884,98.1241,0.003313887,0.0542035,20.9596,-0.730726,0.126481,0,0
858,214.25,42.9758,42.8358,179.71,99.4785,97.3819,0.003321857,0.0543262,20.9595,-0.710706,0.195122,0,0
861,215,42.7503,43.2555,181.156,99.4909,97.9897,0.003362355,0.0544157,20.9595,-0.700696,0.139264,0,0
864,215.75,42.9246,42.8926,177.561,99.4897,98.0435,0.003412571,0.0545352,20.9595,-0.720716,0.134126,0,0
867,216.5,43.17,43.0148,175.543,99.4963,97.9969,0.003484564,0.0546223,20.9596,-0.720716,0.139088,0,0
870,217.25,43.275,43.0712,175.104,99.4769,99.0187,0.003577124,0.0546858,20.9596,-0.740736,0.0422877,0,0
873,218,43.03,43.5533,182.244,99.4946,98.0699,0.003647557,0.0547321,20.9596,-0.730726,0.132113,0,0
876,218.75,42.8813,43.4671,179.456,99.4843,98.4959,0.00370396,0.0547658,20.9597,-0.740736,0.0914597,0,0
879,219.5,42.5663,43.0639,182.7,99.4826,98.568,0.003718352,0.0547704,20.9597,-0.740736,0.0846029,0,0
882,220.25,42.5566,43.6795,181.727,99.4777,97.8607,0.003728844,0.0547395,20.9597,-0.740736,0.150114,0,0
885,221,42.4677,43.3321,181.248,99.481,98.3839,0.003669725,0.0546989,20.9597,-0.750745,0.101575,0,0
888,221.75,42.1386,43.4155,180.066,99.4942,97.9638,0.003611657,0.0546439,20.9597,-0.740736,0.141996,0,0
891,222.5,42.8321,42.9691,179.421,99.4992,97.4948,0.003561957,0.054593,20.9597,-0.740736,0.186411,0,0
894,223.25,42.9281,42.9737,178.235,99.4876,98.6563,0.00352404,0.0545305,20.9597,-0.740736,0.0768618,0,0
897,224,42.3573,42.9266,180.42,99.4835,97.8061,0.003504411,0.0544274,20.9597,-0.750745,0.155763,0,0
900,224.75,42.5372,43.7195,184.87,99.4917,98.2652,0.003497586,0.0542724,20.9597,-0.760755,0.113623,0,0
903,225.5,43.0369,43.1602,177.031,99.4806,98.2733,0.003495802,0.0541413,20.9597,-0.760755,0.111845,0,0
906,226.25,42.2508,43.3329,184.356,99.4864,98.2424,0.003497169,0.0540203,20.9597,-0.760755,0.1152597,0,0
909,227,42.5796,43.3602,180.666,99.4818,98.1071,0.003498166,0.0539147,20.9597,-0.750745,0.127462,0,0
912,227.75,42.0025,42.6191,180.26,99.4897,97.8867,0.003525593,0.0538262,20.9597,-0.750745,0.148785,0,0
915,228.5,42.4579,42.6695,180.953,99.5,97.6757,0.003569933,0.0537618,20.9599,-0.760755,0.1695,0,0
918,229.25,42.5668,42.5927,182.557,99.4983,97.3295,0.003625453,0.05371476,20.9605,-0.770765,0.201878,0,0
921,230,42.1158,43.4262,178.45,99.4897,98.005,0.003687846,0.05365514,20.9609,-0.780775,0.137727,0,0
924,230.75,42.4816,42.7495,178.765,99.4901,97.8334,0.003757386,0.05360087,20.9612,-0.780775,0.153813,0,0
927,231.5,42.2873,43.6508,176.715,99.4909,97.7944,0.003815584,0.0535071,20.9614,-0.790785,0.157538,0,0
930,232.25,42.3836,42.6926,181.844,99.4909,98.418,0.003853318,0.05342599,20.9616,-0.790785,0.0993193,0,0
933,233,42.3576,42.9268,179.989,99.4942,97.8504,0.003867334,0.0533415,20.9617,-0.800795,0.1526,0,0
936,233.75,42.3666,42.6665,179.412,99.488,97.8916,0.003836325,0.0532323,20.9615,-0.780775,0.148172,0,0
939,234.5,42.2905,43.3528,182.09,99.4996,98.0883,0.003785305,0.0531299,20.961,-0.770765,0.130855,0,0
942,235.25,41.7128,42.9643,184.663,99.4946,98.0722,0.003729574,0.0530191,20.9607,-0.760755,0.131904,0,0
945,236,42.6927,43.0442,177.379,99.4913,98.1447,0.003691814,0.0529449,20.9604,-0.750745,0.124825,0,0
948,236.75,42.1961,42.7259,177.141,99.4938,97.6672,0.003665509,0.0529023,20.9602,-0.750745,0.169728,0,0
951,237.5,42.2984,42.7687,179.789,99.4979,98.3709,0.003650274,0.0528351,20.9601,-0.750745,0.104344,0,0
954,238.25,42.4494,42.5788,177.356,99.4963,98.3938,0.003645908,0.0527994,20.9598,-0.740736,0.102066,0,0
957,239,42.1524,42.8131,184.64,99.4835,98.6796,0.003636188,0.0527962,20.9599,-0.730726,0.0743189,0,0
960,239.75,42.7064,42.6866,177.062,99.4946,97.5982,0.003617074,0.0527939,20.9603,-0.760755,0.176276,0,0
963,240.5,42.6792,43.2027,177.699,99.5074,98.2101,0.00358966,0.0527665,20.9606,-0.740736,0.120206,0,0
966,241.25,42.0034,43.2044,181.173,99.5132,99.0774,0.003549095,0.0527355,20.9608,-0.750745,0.0402071,0,0
969,242,41.6488,42.978,181.514,99.493,97.8881,0.00351075,0.0527196,20.9609,-0.760755,0.148964,0,0
972,242.75,42.2534,42.3494,186.05,99.5082,97.9552,0.003482796,0.0527375,20.961,-0.760755,0.144085,0,0
975,243.5,42.6748,42.6854,177.628,99.507,97.8643,0.003486746,0.0527505,20.9611,-0.770765,0.152478,0,0
978,244.25,41.5661,42.9151,179.353,99.5107,98.1985,0.003520592,0.05276,20.9612,-0.780775,0.121596,0,0
981,245,41.8061,42.8246,181.414,99.4992,98.2097,0.003554045,0.0527489,20.9612,-0.780775,0.119487,0,0
984,245.75,42.1327,42.7782,185.462,99.5033,98.3154,0.00360514,0.0527407,20.9613,-0.770765,0.110012,0,0
987,246.5,42.4719,42.7778,181.936,99.5153,98.1013,0.003646795,0.0527348,20.9613,-0.790785,0.131085,0,0
990,247.25,42.077,42.8352,177.135,99.502,98.0224,0.003684696,0.0526762,20.9613,-0.780775,0.137233,0,0
993,248,41.6489,42.867,178.36,99.5033,97.9028,0.003716272,0.0525829,20.9613,-0.780775,0.148531,0,0
996,248.75,41.6714,42.7357,179.999,99.4983,97.523,0.003746039,0.0525132,20.9609,-0.760755,0.183684,0,0
999,249.5,42.3072,42.5919,176.798,99.5037,98.1515,0.00377041,0.0524966,20.9607,-0.760755,0.125337,0,0
1002,250.25,42.0536,43.2226,180.094,99.5095,98.2536,0.003795668,0.0524914,20.9605,-0.770765,0.1163444,0,0
1005,251,41.5848,42.9505,182.745,99.512,97.5691,0.003813333,0.0524994,20.9603,-0.790785,0.180606,0,0
1008,251.75,41.5805,43.1532,178.419,99.5029,97.828,0.003819467,0.0525179,20.9602,-0.790785,0.155494,0,0
1011,252.5,41.9169,42.8045,177.19,99.512,98.1214,0.003807904,0.0525234,20.9606,-0.790785,0.128899,0,0
1014,253.25,42.0056,42.6222,181.398,99.4983,97.4916,0.003797601,0.0525046,20.961,-0.800795,0.18663,0,0
1017,254,41.6743,42.44944,180.969,99.5053,97.5642,0.003789293,0.0525036,20.9613,-0.800795,0.180461,0,0
1020,254.75,42.1969,42.6293,180.91,99.5107,97.3151,0.003783236,0.0525216,20.9616,-0.780775,0.204368,0,0
1023,255.5,41.751,42.66,181.717,99.5186,98.5067,0.003771917,0.05255755,20.9617,-0.780775,0.0936152,0,0
1026,256.25,41.822,43.0582,177.598,99.5099,98.4202,0.003757856,0.0526199,20.9618,-0.780775,0.100859,0,0
1029,257,41.6751,42.9342,186.818,99.5107,98.3844,0.003717275,0.052678,20.9619,-0.780775,0.104271,0,0
1032,257.75,42.1708,42.83,175.507,99.4987,97.6506,0.00366799,0.0527258,20.962,-0.780775,0.171739,0,0
1035,258.5,41.7551,43.2272,178.489,99.5082,97.5808,0.003616112,0.0527245,20.9619,-0.770765,0.179171,0,0
1038,259.25,41.5765,43.131,180.547,99.5194,98.4193,0.003553965,0.0527238,20.9617,-0.780775,0.101817,0,0
1041,260,41.3038,43.0229,179.443,99.5124,98.4139,0.003498289,0.052723,20.9616,-0.810805,0.101671,0,0
1044,260.75,41.7554,42.7253,180.633,99.5091,98.1931,0.003418438,0.0527761,20.9616,-0.820815,0.121945,0,0
1047,261.5,42.0983,42.6722,178.445,99.5107,97.2076,0.003343489,0.0527948,20.9617,-0.820815,0.214493,0,0
1050,262.25,41.9574,42.7095,172.308,99.5248,98.8937,0.003268287,0.0527742,20.9618,-0.810805,0.0582658,0,0
1053,263,41.7185,42.6686,179.686,99.5206,98.3208,0.003205683,0.05274589,20.9618,-0.820815,0.111108,0,0
1056,263.75,41.8595,42.5644,178.766,99.5107,98.5577,0.003161728,0.0527024,20.9619,-0.810805,0.0881455,0,0
1059,264.5,41.8462,42.6227,178.46,99.5182,98.2258,0.003137682,0.0526327,20.9619,-0.790785,0.119731,0,0
1062,265.25,41.3827,42.7927,174.978,99.5248,97.9664,0.003129495,0.0525656,20.9619,-0.790785,0.144558,0,0
1065,266,41.5132,42.7115,182.445,99.5231,98.4278,0.003139317,0.0525529,20.962,-0.790785,0.101367,0,0
1068,266.75,42.1249,42.4964,176.984,99.5243,97.8518,0.003166669,0.052531,20.9626,-0.790785,0.155249,0,0
1071,267.5,41.8207,42.7525,181.985,99.5128,97.9199,0.003224015,0.05250958,20.9628,-0.780775,0.147813,0,0
1074,268.25,41.5937,42.5333,181.368,99.5268,98.0802,0.003281768,0.052494,20.9626,-0.780775,0.134116,0,0
1077,269,42.0859,42.4544,182.485,99.5314,98.5152,0.003359436,0.0525188,20.9624,-0.780775,0.0940011,0,0
1080,269.75,42.0652,42.4945,176.237,99.5334,98.3024,0.003431218,0.0525368,20.9623,-0.800795,0.113997,0,0
1083,270.5,41.7615,41.8696,182.369,99.5107,98.7598,0.003502249,0.05255,20.9622,-0.800795,0.0693882,0,0
1086,271.25,41.8888,42.717,181.54,99.5367,98.2352,0.003557775,0.0526483,20.9619,-0.780775,0.120564,0,0
1089,272,41.299,42.0286,177.809,99.5405,98.4552,0.003601822,0.0527578,20.9613,-0.780775,0.100421,0,0
1092,272.75,41.799,42.2467,179.479,99.5413,97.8164,0.003637305,0.0529137,20.9609,-0.800795,0.16012,0,0
1095,273.5,41.3449,43.0563,178.47,99.5206,97.9239,0.003665837,0.0530798,20.9606,-0.820815,0.148158,0,0
1098,274.25,41.3133,42.5545,180.766,99.54,98.478,0.003690385,0.0532351,20.9603,-0.820815,0.0982574,0,0
1101,275,41.9588,42.5206,177.441,99.5499,98.2513,,0.0533484,,-0.780775,0.120277,0,0
1104,275.75,41.8824,42.2859,175.577,99.5363,99.0079,,0.0534509,,-0.780775,0.048757,0,0
1107,276.5,41.8568,42.6973,176.062,99.545,98.3521,,0.0535599,,-0.760755,0.110429,0,0
1110,277.25,41.7855,42.3885,188.116,99.5466,97.6842,,0.0536394,,-0.760755,0.172996,0,0
1113,278,41.0192,42.4875,178.715,99.5545,97.4885,,,,-0.790785,0.192094,0,0
1116,278.75,41.2812,42.2484,185.909,99.5491,97.6076,,,,-0.730726,0.18041,0,0
1119,279.5,41.0116,41.714,183.547,99.5495,97.7026,,,,-0.770765,0.171541,0,0
1122,280.25,41.4268,41.8015,182.407,99.5566,98.233,,,,-0.810805,0.122598,0,0
1125,281,40.9497,41.7329,184.132,99.5698,98.7486,,,,-0.810805,0.0758612,0,0
1128,281.75,40.7654,42.4563,182.245,99.5541,97.8262,,,,-0.810805,0.160375,0,0
1131,282.5,40.4384,41.9195,182.235,99.5545,98.1882,,,,-0.820815,0.126585,0,0
1134,283.25,40.3718,41.8499,184.248,99.5545,98.5685,,,,-0.790785,0.0911743,0,0
1137,284,40.8453,41.5051,181.117,99.5652,98.4023,,,,-0.750745,0.107619,0,0
1140,284.75,40.9299,41.1874,179.326,99.5491,98.0717,,,,-0.760755,0.136963,0,0
1142,285.25,40.6035,41.146,177.868,99.557,98.1125,,,,-0.760755,0.133878,0,0