File: 01_Data/ABS/MCC/ABS_MCC_30K_min_211019_R3.txt
Sample ID:	C:\MCC\MCC Cal\Test\PlasticA_MCC_30K_min_211019_R3.txt
Sample Weight (mg):	4.61
Heating Rate (C/s):	0.5
Combustor Temp (C):	900
N2 Flow Rate (cc/min):	80
O2 Flow Rate (cc/min):	20
Calibration File:	C:\MCC\MCC Cal\Coeff1 JN10440_30_210304.txt.txt
T Correction Coefficients:	0	1.024463	0
Time Shift (s):	14
*
Time (s)	Temperature (C)	N2 flow rate (cc/min)	O2 flow rate (cc/min)	Flow Rate (cc/min)	Oxygen (%)	HRR (W/g)	Heating rate (C/s)
0.000	107.006	80.008	19.995	102.965	19.974	0.128	0.017
2.000	107.004	80.006	19.995	102.965	19.975	0.083	0.006
4.000	107.011	80.008	19.995	102.975	19.977	-0.070	0.033
6.000	107.020	80.008	19.996	102.970	19.975	0.096	0.003
8.000	106.997	80.007	19.995	102.979	19.974	0.136	-0.006
10.000	106.976	80.008	19.994	102.985	19.976	0.011	0.000
12.000	106.990	80.008	19.994	102.980	19.976	0.047	0.017
14.000	107.004	80.008	19.994	102.987	19.973	0.213	-0.005
16.000	107.033	80.007	19.993	102.986	19.977	-0.047	-0.002
18.000	107.034	80.007	19.995	103.004	19.973	0.221	0.004
20.000	107.057	80.008	19.995	103.015	19.970	0.465	0.005
22.000	107.065	80.008	19.995	103.027	19.972	0.295	0.035
24.000	107.082	80.009	19.995	103.065	19.960	1.157	0.003
26.000	107.157	80.006	19.995	103.103	19.960	1.163	0.019
28.000	107.280	80.006	19.996	103.122	19.956	1.384	0.068
30.000	107.401	80.007	19.995	103.138	19.952	1.709	0.065
32.000	107.588	80.005	19.995	103.150	19.949	1.908	0.100
34.000	107.777	80.006	19.995	103.176	19.943	2.319	0.093
36.000	107.989	80.005	19.996	103.175	19.946	2.105	0.118
38.000	108.235	80.006	19.995	103.179	19.942	2.417	0.100
40.000	108.530	80.006	19.995	103.176	19.940	2.506	0.124
42.000	108.858	80.005	19.994	103.179	19.941	2.481	0.153
44.000	109.180	80.006	19.995	103.190	19.936	2.789	0.176
46.000	109.534	80.005	19.995	103.208	19.936	2.791	0.183
48.001	109.939	80.007	19.995	103.187	19.941	2.432	0.200
50.001	110.296	80.006	19.995	103.176	19.941	2.493	0.176
52.000	110.733	80.005	19.995	103.184	19.942	2.411	0.208
54.000	111.219	80.005	19.995	103.183	19.942	2.356	0.239
56.000	111.659	80.005	19.996	103.182	19.942	2.394	0.213
58.000	112.121	80.005	19.996	103.183	19.938	2.668	0.243
60.001	112.654	80.004	19.996	103.195	19.938	2.667	0.254
62.000	113.177	80.004	19.996	103.189	19.939	2.633	0.295
64.001	113.752	80.005	19.996	103.191	19.939	2.580	0.293
66.000	114.311	80.005	19.996	103.188	19.941	2.482	0.289
68.001	114.817	80.006	19.996	103.194	19.937	2.715	0.278
70.000	115.448	80.006	19.996	103.182	19.937	2.713	0.298
72.000	115.996	80.006	19.995	103.189	19.937	2.707	0.298
74.000	116.625	80.007	19.994	103.194	19.938	2.641	0.290
76.000	117.246	80.008	19.995	103.207	19.936	2.825	0.307
78.000	117.886	80.007	19.995	103.217	19.932	3.092	0.316
80.001	118.553	80.008	19.995	103.220	19.932	3.084	0.368
82.000	119.184	80.008	19.995	103.219	19.929	3.304	0.314
84.000	119.880	80.007	19.996	103.220	19.929	3.321	0.349
86.000	120.578	80.007	19.995	103.220	19.929	3.306	0.345
88.000	121.325	80.008	19.995	103.230	19.931	3.195	0.358
90.001	122.046	80.006	19.994	103.252	19.929	3.301	0.403
92.001	122.785	80.005	19.995	103.248	19.928	3.352	0.364
94.000	123.578	80.006	19.994	103.255	19.926	3.480	0.402
96.000	124.352	80.007	19.994	103.260	19.924	3.669	0.408
98.000	125.111	80.008	19.994	103.262	19.925	3.609	0.388
100.001	126.003	80.008	19.994	103.261	19.925	3.569	0.420
102.000	126.861	80.008	19.993	103.262	19.926	3.488	0.448
104.000	127.723	80.009	19.994	103.260	19.925	3.566	0.416
106.000	128.594	80.009	19.994	103.256	19.926	3.477	0.417
108.001	129.488	80.009	19.994	103.258	19.927	3.446	0.470
110.001	130.334	80.008	19.994	103.261	19.927	3.452	0.448
112.000	131.292	80.007	19.993	103.260	19.926	3.537	0.471
114.000	132.161	80.006	19.994	103.265	19.925	3.611	0.448
116.000	133.133	80.006	19.995	103.262	19.920	3.934	0.484
118.001	134.050	80.005	19.995	103.263	19.922	3.766	0.452
120.000	135.012	80.006	19.995	103.259	19.920	3.895	0.509
122.000	136.002	80.005	19.996	103.266	19.922	3.777	0.498
124.000	136.980	80.005	19.996	103.257	19.921	3.860	0.494
126.000	137.956	80.006	19.996	103.255	19.921	3.885	0.507
128.000	138.945	80.007	19.996	103.258	19.922	3.817	0.495
130.000	139.911	80.007	19.995	103.257	19.925	3.577	0.510
132.000	140.904	80.006	19.995	103.258	19.925	3.599	0.521
134.000	141.901	80.005	19.995	103.247	19.924	3.676	0.521
136.000	142.883	80.006	19.996	103.251	19.922	3.784	0.528
138.000	143.956	80.006	19.996	103.250	19.924	3.675	0.507
140.000	144.959	80.006	19.995	103.253	19.923	3.685	0.509
142.000	145.992	80.005	19.996	103.252	19.919	4.030	0.544
144.000	147.039	80.006	19.995	103.250	19.923	3.746	0.518
146.000	148.064	80.006	19.995	103.230	19.920	3.916	0.530
148.000	149.098	80.006	19.996	103.234	19.924	3.623	0.510
150.000	150.129	80.005	19.996	103.236	19.924	3.664	0.531
152.000	151.157	80.006	19.998	103.233	19.924	3.668	0.516
154.000	152.206	80.006	19.997	103.238	19.923	3.723	0.525
156.000	153.208	80.006	19.996	103.225	19.925	3.574	0.492
158.000	154.255	80.006	19.996	103.239	19.923	3.691	0.510
160.000	155.294	80.009	19.995	103.225	19.923	3.710	0.503
162.000	156.353	80.007	19.996	103.227	19.924	3.657	0.525
164.000	157.359	80.009	19.995	103.225	19.924	3.629	0.500
166.000	158.436	80.008	19.994	103.227	19.924	3.613	0.506
168.000	159.465	80.007	19.995	103.225	19.922	3.787	0.505
170.000	160.535	80.005	19.995	103.221	19.923	3.687	0.516
172.000	161.548	80.007	19.994	103.221	19.922	3.766	0.512
174.000	162.592	80.006	19.995	103.223	19.923	3.728	0.534
176.000	163.614	80.006	19.995	103.219	19.922	3.787	0.508
178.000	164.711	80.008	19.994	103.208	19.922	3.806	0.532
180.000	165.750	80.007	19.994	103.221	19.926	3.535	0.544
182.000	166.744	80.007	19.994	103.221	19.923	3.707	0.472
184.000	167.796	80.008	19.994	103.210	19.925	3.554	0.474
186.000	168.802	80.009	19.994	103.213	19.925	3.580	0.515
188.000	169.799	80.008	19.995	103.208	19.926	3.535	0.500
190.000	170.876	80.010	19.994	103.205	19.924	3.630	0.528
192.000	171.833	80.009	19.994	103.203	19.921	3.852	0.502
194.000	172.891	80.006	19.995	103.202	19.923	3.710	0.529
196.000	173.901	80.007	19.994	103.184	19.923	3.705	0.490
198.000	174.901	80.005	19.994	103.204	19.924	3.625	0.501
200.000	175.897	80.007	19.995	103.197	19.925	3.555	0.507
202.000	176.908	80.007	19.993	103.194	19.924	3.633	0.504
204.000	177.910	80.005	19.993	103.182	19.927	3.429	0.499
206.000	178.911	80.006	19.994	103.187	19.926	3.501	0.515
208.000	179.885	80.006	19.994	103.189	19.924	3.642	0.480
210.000	180.875	80.006	19.994	103.184	19.926	3.486	0.460
212.000	181.848	80.007	19.994	103.188	19.927	3.421	0.471
214.000	182.908	80.006	19.995	103.182	19.928	3.393	0.544
216.000	183.841	80.006	19.995	103.184	19.925	3.582	0.479
218.000	184.834	80.008	19.995	103.184	19.928	3.397	0.521
220.000	185.851	80.005	19.996	103.189	19.928	3.334	0.499
222.000	186.828	80.006	19.995	103.184	19.928	3.400	0.476
224.000	187.786	80.005	19.995	103.181	19.928	3.340	0.481
226.000	188.769	80.005	19.995	103.185	19.924	3.641	0.464
228.000	189.717	80.005	19.995	103.186	19.925	3.574	0.438
230.000	190.733	80.005	19.995	103.188	19.926	3.478	0.516
232.000	191.740	80.006	19.994	103.183	19.925	3.608	0.495
234.000	192.675	80.004	19.995	103.186	19.924	3.621	0.502
236.000	193.612	80.006	19.995	103.188	19.926	3.540	0.455
238.000	194.573	80.006	19.995	103.187	19.922	3.759	0.466
240.000	195.572	80.007	19.996	103.183	19.922	3.809	0.517
242.000	196.510	80.006	19.995	103.183	19.921	3.833	0.465
244.000	197.454	80.006	19.996	103.184	19.925	3.606	0.425
246.000	198.414	80.005	19.995	103.182	19.925	3.587	0.467
248.000	199.363	80.006	19.996	103.184	19.922	3.784	0.482
250.000	200.345	80.006	19.996	103.184	19.925	3.601	0.478
252.000	201.310	80.006	19.996	103.183	19.927	3.438	0.493
254.000	202.241	80.005	19.996	103.181	19.924	3.614	0.457
256.000	203.216	80.006	19.996	103.183	19.925	3.576	0.480
258.000	204.244	80.007	19.995	103.179	19.925	3.601	0.518
260.000	205.218	80.007	19.996	103.177	19.920	3.894	0.493
262.000	206.195	80.008	19.994	103.184	19.922	3.805	0.515
264.000	207.197	80.009	19.995	103.178	19.919	4.015	0.510
266.000	208.183	80.009	19.994	103.182	19.923	3.744	0.505
268.000	209.133	80.010	19.994	103.180	19.920	3.911	0.471
270.000	210.145	80.009	19.994	103.180	19.917	4.156	0.519
272.000	211.121	80.009	19.994	103.179	19.920	3.931	0.469
274.000	212.122	80.007	19.996	103.178	19.920	3.896	0.495
276.000	213.107	80.008	19.995	103.177	19.918	4.083	0.474
278.000	214.072	80.006	19.995	103.178	19.920	3.911	0.504
280.000	215.105	80.006	19.994	103.176	19.918	4.038	0.538
282.000	216.104	80.006	19.995	103.180	19.919	3.962	0.520
284.000	217.061	80.005	19.995	103.180	19.918	4.045	0.495
286.000	218.053	80.006	19.995	103.182	19.914	4.312	0.498
288.000	219.059	80.006	19.995	103.180	19.915	4.245	0.515
290.000	220.037	80.006	19.994	103.188	19.916	4.210	0.488
292.000	221.025	80.007	19.995	103.182	19.917	4.145	0.483
294.000	222.073	80.007	19.995	103.183	19.914	4.349	0.539
296.000	223.111	80.007	19.995	103.185	19.917	4.168	0.537
298.000	224.060	80.006	19.994	103.184	19.914	4.378	0.509
300.000	225.063	80.006	19.994	103.182	19.912	4.478	0.476
302.000	226.067	80.007	19.995	103.183	19.911	4.586	0.536
304.000	227.078	80.006	19.994	103.180	19.912	4.508	0.480
306.000	228.108	80.006	19.994	103.186	19.910	4.652	0.515
308.000	229.124	80.005	19.996	103.178	19.909	4.680	0.519
310.000	230.136	80.006	19.995	103.180	19.910	4.589	0.499
312.000	231.159	80.005	19.995	103.184	19.912	4.459	0.520
314.000	232.135	80.005	19.995	103.170	19.910	4.621	0.496
316.000	233.109	80.005	19.995	103.173	19.913	4.429	0.481
318.000	234.138	80.006	19.996	103.183	19.910	4.599	0.516
320.001	235.120	80.006	19.995	103.174	19.909	4.659	0.487
322.000	236.119	80.006	19.995	103.182	19.911	4.536	0.483
324.000	237.171	80.008	19.995	103.168	19.912	4.517	0.530
326.000	238.152	80.007	19.995	103.174	19.906	4.903	0.483
328.000	239.092	80.007	19.995	103.171	19.904	5.034	0.453
330.000	240.138	80.008	19.994	103.167	19.904	5.065	0.513
332.000	241.132	80.006	19.995	103.161	19.907	4.844	0.495
334.000	242.086	80.007	19.995	103.172	19.905	4.978	0.465
336.000	243.073	80.007	19.996	103.167	19.904	5.054	0.523
338.000	244.034	80.005	19.995	103.168	19.906	4.915	0.502
340.000	245.053	80.008	19.995	103.170	19.911	4.577	0.509
342.000	245.995	80.006	19.996	103.156	19.906	4.872	0.466
344.000	246.967	80.006	19.996	103.169	19.910	4.621	0.468
346.000	247.971	80.007	19.996	103.154	19.905	4.954	0.473
348.000	248.988	80.008	19.996	103.155	19.907	4.820	0.507
350.000	249.980	80.009	19.995	103.148	19.907	4.841	0.493
352.000	250.957	80.009	19.994	103.155	19.906	4.875	0.494
354.000	251.970	80.008	19.995	103.162	19.906	4.928	0.489
356.000	252.898	80.008	19.994	103.172	19.906	4.884	0.469
358.000	253.862	80.008	19.993	103.169	19.903	5.096	0.468
360.000	254.823	80.007	19.994	103.168	19.903	5.109	0.490
362.000	255.803	80.005	19.994	103.178	19.902	5.185	0.453
364.000	256.779	80.006	19.995	103.179	19.901	5.245	0.499
366.000	257.742	80.005	19.994	103.170	19.902	5.162	0.472
368.000	258.738	80.006	19.994	103.174	19.904	5.009	0.499
370.000	259.705	80.005	19.994	103.174	19.903	5.113	0.473
372.000	260.668	80.005	19.995	103.182	19.904	5.026	0.467
374.000	261.671	80.006	19.995	103.174	19.901	5.234	0.504
376.000	262.613	80.006	19.994	103.163	19.903	5.079	0.478
378.000	263.609	80.005	19.995	103.173	19.902	5.149	0.464
380.000	264.608	80.006	19.995	103.170	19.902	5.159	0.489
382.000	265.587	80.006	19.995	103.167	19.901	5.266	0.450
384.000	266.596	80.006	19.994	103.167	19.902	5.187	0.481
386.000	267.576	80.006	19.995	103.176	19.902	5.162	0.503
388.000	268.552	80.005	19.994	103.172	19.904	5.039	0.497
390.000	269.517	80.006	19.994	103.175	19.906	4.928	0.471
392.000	270.542	80.005	19.995	103.174	19.902	5.162	0.471
394.000	271.571	80.007	19.994	103.166	19.907	4.850	0.512
396.000	272.577	80.005	19.994	103.172	19.911	4.557	0.501
398.000	273.585	80.006	19.995	103.175	19.912	4.517	0.473
400.000	274.550	80.007	19.994	103.176	19.914	4.331	0.534
402.000	275.583	80.006	19.995	103.168	19.911	4.580	0.528
404.000	276.573	80.007	19.995	103.169	19.914	4.320	0.469
406.000	277.567	80.008	19.995	103.161	19.912	4.467	0.489
408.000	278.644	80.007	19.994	103.165	19.910	4.613	0.545
410.000	279.666	80.007	19.995	103.159	19.911	4.520	0.508
412.000	280.677	80.007	19.995	103.161	19.913	4.427	0.504
414.000	281.678	80.007	19.994	103.173	19.910	4.588	0.487
416.000	282.679	80.008	19.995	103.155	19.916	4.207	0.484
418.000	283.678	80.007	19.995	103.149	19.916	4.197	0.513
420.000	284.675	80.007	19.995	103.152	19.914	4.316	0.479
422.000	285.651	80.006	19.995	103.152	19.916	4.187	0.490
424.000	286.659	80.006	19.995	103.151	19.915	4.244	0.487
426.000	287.662	80.008	19.994	103.160	19.916	4.239	0.490
428.000	288.658	80.007	19.995	103.156	19.917	4.145	0.482
430.000	289.704	80.007	19.995	103.150	19.917	4.132	0.519
432.000	290.716	80.007	19.995	103.149	19.919	3.985	0.515
434.000	291.722	80.007	19.994	103.157	19.915	4.243	0.497
436.000	292.783	80.007	19.995	103.148	19.917	4.161	0.520
438.000	293.749	80.008	19.995	103.168	19.915	4.297	0.528
440.000	294.789	80.007	19.995	103.150	19.917	4.163	0.507
442.000	295.791	80.006	19.995	103.144	19.919	4.027	0.508
444.000	296.809	80.004	19.996	103.151	19.916	4.214	0.521
446.000	297.832	80.005	19.995	103.162	19.915	4.267	0.535
448.000	298.815	80.006	19.995	103.150	19.918	4.070	0.512
450.000	299.859	80.006	19.994	103.147	19.920	3.896	0.514
452.000	300.831	80.005	19.996	103.151	19.916	4.221	0.520
454.000	301.806	80.007	19.994	103.152	19.917	4.168	0.491
456.000	302.837	80.007	19.995	103.148	19.915	4.246	0.505
458.000	303.866	80.006	19.994	103.151	19.917	4.108	0.517
460.000	304.851	80.007	19.995	103.141	19.915	4.286	0.500
462.000	305.892	80.007	19.994	103.144	19.911	4.541	0.525
464.000	306.858	80.007	19.995	103.150	19.912	4.457	0.485
466.000	307.861	80.007	19.995	103.144	19.913	4.442	0.496
468.000	308.877	80.006	19.994	103.145	19.912	4.512	0.509
470.000	309.852	80.006	19.995	103.144	19.911	4.539	0.530
472.000	310.820	80.005	19.995	103.145	19.911	4.565	0.499
474.000	311.846	80.004	19.995	103.144	19.909	4.665	0.502
476.000	312.825	80.005	19.995	103.141	19.909	4.722	0.477
478.000	313.871	80.006	19.995	103.143	19.905	4.996	0.511
480.000	314.846	80.006	19.995	103.142	19.902	5.200	0.457
482.000	315.864	80.006	19.995	103.143	19.904	5.076	0.474
484.000	316.887	80.006	19.995	103.142	19.900	5.308	0.484
486.000	317.921	80.006	19.995	103.142	19.901	5.268	0.527
488.000	318.887	80.006	19.995	103.143	19.902	5.172	0.477
490.000	319.875	80.007	19.994	103.144	19.897	5.524	0.503
492.000	320.912	80.007	19.994	103.144	19.897	5.520	0.495
494.001	321.892	80.007	19.994	103.143	19.896	5.620	0.475
496.000	322.915	80.008	19.994	103.142	19.892	5.877	0.487
498.000	323.888	80.008	19.995	103.144	19.894	5.752	0.464
500.000	324.923	80.006	19.995	103.142	19.894	5.707	0.542
502.000	325.963	80.007	19.996	103.145	19.888	6.145	0.518
504.000	326.965	80.007	19.995	103.136	19.889	6.123	0.496
506.000	327.922	80.006	19.996	103.140	19.886	6.280	0.491
508.000	328.944	80.007	19.995	103.138	19.885	6.361	0.480
510.000	329.976	80.007	19.995	103.142	19.884	6.406	0.533
512.000	330.974	80.007	19.995	103.141	19.881	6.659	0.533
514.000	331.963	80.007	19.995	103.142	19.880	6.729	0.505
516.000	332.982	80.008	19.994	103.143	19.873	7.196	0.503
518.000	333.976	80.007	19.995	103.141	19.870	7.383	0.478
520.000	335.011	80.009	19.994	103.142	19.869	7.489	0.506
522.000	335.992	80.008	19.995	103.139	19.868	7.575	0.480
524.000	337.011	80.007	19.994	103.132	19.865	7.795	0.485
526.000	338.013	80.007	19.995	103.126	19.858	8.251	0.514
528.000	339.019	80.004	19.995	103.132	19.858	8.257	0.476
530.000	339.957	80.004	19.996	103.134	19.855	8.493	0.460
532.000	340.970	80.006	19.995	103.130	19.853	8.634	0.497
534.000	341.987	80.006	19.996	103.124	19.845	9.175	0.505
536.000	342.978	80.005	19.996	103.134	19.838	9.641	0.486
538.000	343.940	80.004	19.996	103.139	19.833	10.014	0.495
540.000	344.918	80.004	19.997	103.135	19.829	10.254	0.478
542.000	345.957	80.006	19.996	103.131	19.824	10.655	0.514
544.000	346.910	80.005	19.996	103.134	19.816	11.196	0.520
546.000	347.965	80.007	19.996	103.133	19.813	11.358	0.506
548.000	348.939	80.007	19.995	103.126	19.807	11.814	0.504
550.000	349.930	80.009	19.995	103.133	19.798	12.465	0.481
552.000	350.907	80.007	19.994	103.123	19.794	12.732	0.466
554.000	351.931	80.006	19.995	103.130	19.784	13.404	0.532
556.000	352.918	80.007	19.994	103.135	19.779	13.750	0.478
558.000	353.894	80.006	19.995	103.134	19.772	14.282	0.503
560.000	354.911	80.004	19.995	103.137	19.764	14.846	0.510
562.000	355.888	80.003	19.996	103.130	19.757	15.287	0.464
564.000	356.893	80.005	19.995	103.125	19.748	15.931	0.493
566.000	357.949	80.005	19.994	103.132	19.737	16.732	0.504
568.000	358.890	80.009	19.994	103.142	19.732	17.039	0.492
570.000	359.845	80.006	19.995	103.133	19.722	17.763	0.463
572.000	360.888	80.006	19.994	103.143	19.707	18.808	0.529
574.000	361.902	80.008	19.995	103.141	19.700	19.274	0.513
576.000	362.908	80.005	19.995	103.133	19.689	20.054	0.523
578.000	363.923	80.007	19.995	103.136	19.679	20.771	0.527
580.000	364.893	80.006	19.994	103.142	19.665	21.754	0.494
582.000	365.919	80.006	19.994	103.143	19.648	22.895	0.528
584.000	366.908	80.007	19.994	103.139	19.638	23.627	0.484
586.000	367.935	80.006	19.994	103.137	19.623	24.624	0.502
588.000	369.017	80.007	19.994	103.115	19.611	25.467	0.557
590.000	370.000	80.008	19.994	103.131	19.596	26.522	0.493
592.000	371.040	80.007	19.995	103.128	19.580	27.680	0.519
594.000	372.026	80.008	19.994	103.138	19.564	28.763	0.499
596.000	373.096	80.008	19.994	103.138	19.545	30.081	0.541
598.000	374.089	80.009	19.995	103.127	19.532	31.025	0.519
600.001	375.110	80.008	19.995	103.141	19.513	32.307	0.526
602.000	376.133	80.010	19.995	103.137	19.493	33.716	0.529
604.000	377.173	80.008	19.995	103.136	19.474	35.058	0.511
606.000	378.147	80.007	19.995	103.136	19.450	36.748	0.498
608.001	379.151	80.007	19.995	103.138	19.431	38.057	0.482
610.000	380.189	80.006	19.995	103.134	19.407	39.713	0.510
612.000	381.162	80.005	19.995	103.142	19.384	41.340	0.495
614.000	382.212	80.007	19.995	103.141	19.362	42.851	0.530
616.000	383.214	80.008	19.995	103.144	19.337	44.591	0.499
618.000	384.228	80.004	19.996	103.140	19.313	46.288	0.477
620.000	385.183	80.005	19.995	103.142	19.283	48.383	0.465
622.000	386.246	80.005	19.995	103.144	19.255	50.349	0.495
624.000	387.229	80.005	19.995	103.142	19.225	52.439	0.511
626.000	388.251	80.004	19.996	103.146	19.193	54.663	0.493
628.000	389.241	80.006	19.996	103.148	19.160	56.965	0.526
630.000	390.285	80.003	19.996	103.144	19.123	59.597	0.530
632.000	391.258	80.004	19.996	103.145	19.085	62.198	0.510
634.000	392.258	80.005	19.996	103.144	19.051	64.589	0.503
636.000	393.244	80.003	19.996	103.146	19.012	67.316	0.491
638.000	394.271	80.005	19.996	103.155	18.968	70.425	0.474
640.000	395.276	80.005	19.995	103.179	18.922	73.606	0.511
642.000	396.166	80.005	19.995	103.162	18.877	76.744	0.445
644.000	397.162	80.004	19.995	103.169	18.825	80.425	0.489
646.000	398.142	80.006	19.995	103.178	18.777	83.745	0.500
648.000	399.123	80.005	19.995	103.180	18.719	87.783	0.460
650.000	400.080	80.006	19.994	103.183	18.667	91.490	0.487
652.000	401.049	80.006	19.995	103.180	18.605	95.775	0.458
654.000	402.017	80.006	19.995	103.180	18.542	100.161	0.477
656.000	402.977	80.007	19.995	103.183	18.481	104.451	0.456
658.000	403.963	80.008	19.994	103.193	18.412	109.277	0.490
660.000	404.889	80.008	19.995	103.218	18.337	114.519	0.447
662.000	405.873	80.007	19.995	103.219	18.264	119.643	0.478
664.001	406.813	80.006	19.995	103.216	18.188	124.994	0.489
666.000	407.768	80.008	19.995	103.219	18.105	130.741	0.471
668.000	408.760	80.006	19.995	103.236	18.019	136.798	0.473
670.000	409.747	80.008	19.995	103.243	17.927	143.235	0.463
672.000	410.744	80.008	19.995	103.255	17.836	149.654	0.484
674.000	411.682	80.008	19.995	103.256	17.735	156.701	0.472
676.000	412.696	80.008	19.995	103.259	17.637	163.579	0.491
678.000	413.658	80.008	19.995	103.267	17.535	170.675	0.494
680.000	414.631	80.008	19.994	103.283	17.427	178.237	0.501
682.000	415.636	80.009	19.994	103.295	17.317	186.014	0.508
684.000	416.610	80.009	19.993	103.293	17.205	193.796	0.532
686.000	417.584	80.008	19.994	103.299	17.089	201.953	0.488
688.000	418.643	80.007	19.994	103.311	16.975	209.890	0.497
690.000	419.620	80.006	19.994	103.305	16.856	218.270	0.526
692.000	420.609	80.005	19.994	103.329	16.742	226.257	0.505
694.000	421.610	80.006	19.997	103.337	16.628	234.258	0.490
696.000	422.631	80.005	19.997	103.339	16.515	242.104	0.513
698.000	423.645	80.006	19.996	103.343	16.410	249.505	0.497
700.000	424.633	80.005	19.995	103.340	16.310	256.500	0.505
702.000	425.666	80.006	19.996	103.354	16.219	262.780	0.517
704.000	426.660	80.005	19.995	103.361	16.130	269.055	0.502
706.000	427.683	80.005	19.995	103.356	16.045	274.990	0.498
708.000	428.673	80.006	19.996	103.365	15.974	279.952	0.511
710.000	429.657	80.006	19.996	103.364	15.911	284.344	0.459
712.000	430.707	80.006	19.995	103.369	15.858	288.076	0.509
714.000	431.723	80.006	19.995	103.360	15.816	290.988	0.514
716.000	432.726	80.005	19.996	103.354	15.782	293.370	0.486
718.000	433.783	80.006	19.996	103.349	15.764	294.615	0.529
720.000	434.762	80.005	19.996	103.351	15.752	295.472	0.498
722.000	435.815	80.005	19.996	103.349	15.759	294.980	0.533
724.000	436.863	80.005	19.998	103.355	15.773	293.950	0.556
726.000	437.905	80.005	19.996	103.351	15.802	291.838	0.523
728.000	438.959	80.005	19.996	103.354	15.837	289.419	0.537
730.000	439.938	80.006	19.996	103.342	15.880	286.422	0.513
732.000	440.989	80.007	19.996	103.340	15.933	282.779	0.517
734.000	442.001	80.006	19.995	103.331	15.990	278.722	0.510
736.000	443.064	80.009	19.995	103.321	16.056	274.050	0.542
738.000	444.143	80.008	19.994	103.311	16.118	269.655	0.506
740.000	445.141	80.009	19.995	103.323	16.179	265.359	0.522
742.000	446.213	80.008	19.994	103.327	16.231	261.587	0.533
744.000	447.205	80.006	19.995	103.322	16.280	258.129	0.528
746.000	448.226	80.007	19.994	103.304	16.334	254.357	0.497
748.000	449.262	80.006	19.995	103.280	16.396	250.050	0.504
750.000	450.285	80.007	19.994	103.266	16.477	244.453	0.495
752.000	451.399	80.006	19.995	103.229	16.594	236.343	0.563
754.000	452.436	80.008	19.995	103.186	16.738	226.272	0.539
756.000	453.524	80.007	19.996	103.180	16.898	214.985	0.544
758.000	454.550	80.009	19.995	103.191	17.060	203.625	0.521
760.000	455.664	80.009	19.994	103.215	17.207	193.324	0.509
762.000	456.718	80.008	19.995	103.246	17.337	184.273	0.508
764.000	457.775	80.008	19.994	103.249	17.461	175.552	0.543
766.000	458.840	80.008	19.995	103.224	17.572	167.849	0.530
768.000	459.916	80.009	19.995	103.186	17.676	160.540	0.516
770.000	460.965	80.005	19.995	103.173	17.774	153.716	0.514
772.000	462.044	80.006	19.994	103.166	17.871	146.911	0.523
774.000	463.117	80.006	19.994	103.153	17.963	140.456	0.540
776.000	464.116	80.006	19.994	103.143	18.054	134.125	0.492
778.000	465.188	80.005	19.995	103.143	18.142	128.008	0.519
780.000	466.194	80.007	19.995	103.114	18.228	122.017	0.514
782.000	467.298	80.006	19.995	103.118	18.311	116.223	0.529
784.000	468.343	80.006	19.995	103.108	18.395	110.312	0.526
786.000	469.366	80.005	19.996	103.109	18.473	104.849	0.516
788.000	470.411	80.004	19.995	103.105	18.555	99.137	0.503
790.000	471.485	80.006	19.996	103.102	18.632	93.769	0.521
792.000	472.494	80.006	19.996	103.098	18.701	88.917	0.504
794.000	473.569	80.007	19.995	103.086	18.774	83.866	0.529
796.000	474.640	80.007	19.995	103.079	18.839	79.354	0.550
798.000	475.652	80.005	19.996	103.079	18.903	74.870	0.524
800.000	476.653	80.006	19.995	103.076	18.965	70.517	0.496
802.000	477.696	80.004	19.995	103.065	19.023	66.504	0.515
804.000	478.746	80.005	19.996	103.066	19.075	62.836	0.518
806.000	479.751	80.004	19.996	103.066	19.130	59.005	0.477
808.000	480.857	80.006	19.996	103.065	19.176	55.846	0.534
810.000	481.863	80.006	19.996	103.063	19.224	52.475	0.512
812.000	482.892	80.005	19.996	103.062	19.269	49.314	0.501
814.000	483.942	80.005	19.996	103.045	19.312	46.359	0.505
816.000	484.964	80.007	19.995	103.064	19.354	43.403	0.483
818.000	486.015	80.006	19.996	103.066	19.398	40.339	0.501
820.000	487.058	80.007	19.996	103.066	19.438	37.514	0.486
822.000	488.110	80.006	19.995	103.066	19.481	34.564	0.521
824.000	489.093	80.008	19.996	103.062	19.523	31.636	0.505
826.000	490.140	80.006	19.996	103.065	19.560	29.064	0.510
828.000	491.182	80.007	19.995	103.074	19.597	26.435	0.522
830.000	492.216	80.006	19.994	103.067	19.635	23.796	0.518
832.000	493.277	80.007	19.995	103.063	19.668	21.485	0.539
834.000	494.335	80.007	19.995	103.053	19.702	19.148	0.519
836.000	495.395	80.007	19.995	103.062	19.734	16.902	0.530
838.000	496.394	80.007	19.996	103.057	19.764	14.773	0.492
840.000	497.448	80.009	19.995	103.059	19.792	12.820	0.536
842.000	498.471	80.009	19.994	103.066	19.816	11.177	0.511
844.000	499.511	80.007	19.995	103.066	19.840	9.511	0.521
846.000	500.543	80.008	19.995	103.054	19.860	8.079	0.539
848.000	501.567	80.009	19.996	103.059	19.875	7.053	0.549
850.000	502.618	80.007	19.995	103.062	19.892	5.878	0.509
852.000	503.629	80.006	19.996	103.065	19.908	4.767	0.559
854.000	504.630	80.005	19.996	103.061	19.922	3.812	0.512
856.000	505.686	80.007	19.995	103.054	19.932	3.058	0.519
858.000	506.683	80.008	19.995	103.057	19.937	2.769	0.490
860.000	507.690	80.008	19.995	103.059	19.945	2.210	0.504
862.000	508.678	80.009	19.995	103.054	19.954	1.570	0.506
864.000	509.706	80.007	19.995	103.059	19.955	1.451	0.518
866.000	510.676	80.007	19.995	103.066	19.961	1.063	0.501
868.000	511.710	80.007	19.995	103.062	19.968	0.574	0.507
870.000	512.684	80.008	19.995	103.054	19.969	0.485	0.502
872.000	513.666	80.008	19.995	103.053	19.968	0.603	0.498
874.000	514.692	80.008	19.995	103.058	19.972	0.283	0.487
876.000	515.696	80.004	19.995	103.060	19.972	0.291	0.533
878.000	516.693	80.005	19.996	103.065	19.973	0.191	0.502
880.000	517.722	80.005	19.995	103.065	19.977	-0.045	0.492
882.000	518.724	80.005	19.997	103.056	19.977	-0.077	0.505
884.000	519.741	80.004	19.996	103.066	19.976	0.026	0.511
886.000	520.733	80.005	19.995	103.064	19.984	-0.574	0.530
888.000	521.724	80.005	19.995	103.048	19.983	-0.487	0.494
890.000	522.733	80.006	19.996	103.057	19.986	-0.680	0.530
892.000	523.738	80.006	19.995	103.049	19.983	-0.450	0.531
894.000	524.769	80.008	19.996	103.051	19.985	-0.623	0.528
896.000	525.813	80.009	19.995	103.044	19.985	-0.635	0.512
898.000	526.768	80.006	19.994	103.065	19.986	-0.714	0.496
900.000	527.799	80.006	19.995	103.055	19.983	-0.491	0.523
902.000	528.805	80.004	19.996	103.050	19.989	-0.861	0.467
904.000	529.820	80.006	19.996	103.065	19.982	-0.436	0.492
906.000	530.785	80.005	19.996	103.054	19.986	-0.716	0.490
908.000	531.838	80.006	19.996	103.048	19.988	-0.810	0.526
910.000	532.859	80.006	19.996	103.050	19.986	-0.703	0.520
912.000	533.882	80.006	19.996	103.054	19.987	-0.755	0.518
914.000	534.880	80.007	19.995	103.052	19.988	-0.829	0.474
916.000	535.935	80.007	19.995	103.050	19.987	-0.786	0.522
918.000	536.925	80.008	19.995	103.049	19.991	-1.061	0.484
920.000	538.001	80.008	19.995	103.056	19.989	-0.893	0.511
922.000	539.018	80.008	19.995	103.054	19.992	-1.099	0.523
924.000	540.071	80.008	19.995	103.049	19.992	-1.116	0.552
926.000	541.092	80.009	19.995	103.042	19.990	-0.944	0.527
928.000	542.116	80.008	19.995	103.046	19.990	-0.969	0.496
930.000	543.176	80.007	19.995	103.046	19.994	-1.214	0.547
932.000	544.147	80.006	19.995	103.051	19.994	-1.235	0.487
934.000	545.214	80.005	19.994	103.055	19.994	-1.207	0.533
936.000	546.272	80.005	19.995	103.059	19.993	-1.171	0.513
938.000	547.265	80.007	19.995	103.056	19.993	-1.184	0.499
940.000	548.334	80.006	19.995	103.065	19.996	-1.360	0.526
942.000	549.356	80.007	19.994	103.049	19.995	-1.284	0.514
944.000	550.398	80.005	19.995	103.051	19.997	-1.435	0.519
946.000	551.428	80.006	19.994	103.054	19.998	-1.539	0.504
948.000	552.460	80.007	19.995	103.034	19.996	-1.390	0.509
950.000	553.486	80.007	19.995	103.053	19.996	-1.409	0.491
952.000	554.513	80.005	19.994	103.059	19.999	-1.569	0.528
954.000	555.537	80.005	19.994	103.043	19.999	-1.556	0.501
956.000	556.589	80.005	19.994	103.040	19.998	-1.484	0.524
958.000	557.632	80.006	19.994	103.034	19.999	-1.556	0.521
960.000	558.678	80.006	19.995	103.036	19.997	-1.414	0.529
962.000	559.615	80.003	19.995	103.041	19.996	-1.381	0.484
964.000	560.671	80.004	19.996	103.043	20.000	-1.673	0.488
966.000	561.686	80.006	19.995	103.036	20.001	-1.711	0.541
968.000	562.775	80.006	19.995	103.035	19.998	-1.518	0.555
970.000	563.737	80.007	19.995	103.038	20.002	-1.830	0.504
972.000	564.747	80.007	19.995	103.043	20.002	-1.809	0.500
974.000	565.760	80.008	19.996	103.051	20.002	-1.813	0.502
976.000	566.818	80.005	19.995	103.030	20.005	-1.973	0.488
978.000	567.828	80.006	19.996	103.037	20.007	-2.138	0.525
980.000	568.830	80.007	19.995	103.031	20.009	-2.300	0.508
982.000	569.857	80.006	19.995	103.046	20.005	-1.981	0.534
984.000	570.894	80.006	19.995	103.045	20.006	-2.105	0.517
986.000	571.899	80.006	19.996	103.031	20.005	-2.026	0.506
988.000	572.967	80.007	19.995	103.038	20.008	-2.206	0.526
990.000	574.000	80.007	19.996	103.041	20.004	-1.949	0.491
992.000	575.080	80.007	19.996	103.031	20.006	-2.104	0.538
994.000	576.113	80.006	19.995	103.029	20.007	-2.122	0.506
996.000	577.113	80.007	19.997	103.030	20.007	-2.138	0.501
998.000	578.125	80.008	19.996	103.029	20.006	-2.109	0.488
1000.000	579.137	80.007	19.995	103.033	20.005	-1.990	0.494
1002.000	580.165	80.007	19.995	103.042	20.006	-2.102	0.521
1004.000	581.172	80.007	19.996	103.035	20.005	-1.977	0.522
1006.000	582.180	80.005	19.994	103.030	20.009	-2.262	0.494
1008.000	583.217	80.005	19.995	103.030	20.006	-2.106	0.510
1010.000	584.198	80.005	19.994	103.039	20.009	-2.308	0.497
1012.000	585.233	80.005	19.995	103.033	20.008	-2.232	0.496
1014.000	586.215	80.004	19.995	103.035	20.009	-2.309	0.508
1016.000	587.229	80.006	19.995	103.030	20.010	-2.360	0.514
1018.000	588.264	80.006	19.995	103.046	20.010	-2.372	0.521
1020.000	589.261	80.006	19.995	103.050	20.013	-2.599	0.517
1022.000	590.279	80.005	19.995	103.034	20.013	-2.553	0.499
1024.000	591.306	80.005	19.994	103.039	20.010	-2.334	0.520
1026.000	592.314	80.006	19.995	103.034	20.013	-2.532	0.495
1028.000	593.332	80.004	19.994	103.032	20.013	-2.566	0.519
1030.000	594.367	80.005	19.995	103.036	20.015	-2.704	0.533
1032.000	595.407	80.006	19.995	103.042	20.012	-2.515	0.500
1034.000	596.444	80.005	19.995	103.032	20.012	-2.470	0.503
1036.000	597.469	80.005	19.995	103.034	20.013	-2.542	0.534
1038.000	598.445	80.005	19.995	103.027	20.013	-2.564	0.540
1040.000	599.493	80.006	19.994	103.029	20.011	-2.432	0.540
1042.000	600.516	80.005	19.994	103.038	20.014	-2.623	0.472
1044.000	601.524	80.005	19.994	103.039	20.018	-2.925	0.489
1046.000	602.554	80.006	19.995	103.045	20.015	-2.687	0.509
1048.000	603.568	80.007	19.996	103.027	20.015	-2.710	0.501
1050.001	604.573	80.008	19.995	103.035	20.017	-2.842	0.550
1052.000	605.592	80.008	19.994	103.028	20.016	-2.747	0.501
1054.000	606.665	80.007	19.995	103.034	20.013	-2.570	0.545
1056.000	607.624	80.009	19.995	103.031	20.017	-2.812	0.507
1058.000	608.670	80.007	19.996	103.035	20.016	-2.763	0.471
1060.000	609.712	80.006	19.996	103.030	20.013	-2.538	0.515
1062.001	610.703	80.005	19.996	103.031	20.014	-2.612	0.488
1064.000	611.774	80.007	19.996	103.027	20.013	-2.555	0.529
1066.001	612.814	80.006	19.995	103.029	20.011	-2.443	0.526
1068.000	613.822	80.007	19.995	103.031	20.013	-2.591	0.533
1070.000	614.917	80.006	19.995	103.031	20.013	-2.591	0.592
1072.000	615.889	80.007	19.994	103.029	20.014	-2.623	0.487
1074.000	616.932	80.007	19.995	103.050	20.018	-2.893	0.501
1076.000	617.964	80.008	19.995	103.039	20.016	-2.774	0.533
1078.000	619.000	80.009	19.995	103.038	20.019	-2.950	0.508
1080.000	620.061	80.008	19.995	103.040	20.017	-2.825	0.516
1082.000	621.077	80.007	19.996	103.036	20.017	-2.833	0.486
1084.000	622.133	80.007	19.996	103.042	20.019	-3.012	0.524
1086.000	623.181	80.005	19.996	103.034	20.016	-2.791	0.557
1088.000	624.200	80.005	19.996	103.042	20.018	-2.925	0.555
1090.000	625.286	80.004	19.995	103.048	20.017	-2.859	0.508
1092.000	626.301	80.004	19.996	103.048	20.017	-2.823	0.536
1094.000	627.372	80.005	19.995	103.045	20.018	-2.946	0.523
1096.000	628.405	80.006	19.995	103.053	20.021	-3.099	0.516
1098.000	629.450	80.006	19.995	103.039	20.021	-3.148	0.530
1100.000	630.450	80.007	19.995	103.038	20.021	-3.091	0.503
1102.001	631.520	80.006	19.995	103.029	20.023	-3.289	0.524
1104.001	632.580	80.005	19.995	103.036	20.019	-2.991	0.523
1106.000	633.628	80.008	19.995	103.035	20.023	-3.259	0.533
1108.000	634.704	80.005	19.995	103.030	20.024	-3.329	0.556
1110.000	635.772	80.006	19.994	103.027	20.021	-3.112	0.551
1112.000	636.817	80.005	19.995	103.027	20.024	-3.306	0.528
1114.000	637.840	80.006	19.995	103.028	20.026	-3.459	0.506
1116.001	638.871	80.006	19.994	103.029	20.026	-3.448	0.517
1118.000	639.929	80.006	19.995	103.031	20.023	-3.235	0.505
1120.000	640.963	80.006	19.996	103.030	20.025	-3.384	0.509
1122.001	642.001	80.005	19.995	103.028	20.024	-3.340	0.520
1124.000	643.058	80.006	19.995	103.030	20.020	-3.068	0.543
1126.000	644.019	80.007	19.995	103.027	20.025	-3.373	0.527
1128.000	645.024	80.007	19.995	103.031	20.024	-3.320	0.502
1130.000	646.079	80.007	19.995	103.028	20.023	-3.289	0.503
1132.000	647.073	80.008	19.994	103.034	20.026	-3.446	0.517
1134.001	648.059	80.007	19.995	103.032	20.021	-3.110	0.495
1136.001	649.090	80.008	19.994	103.034	20.026	-3.493	0.514
1138.000	650.078	80.006	19.994	103.034	20.026	-3.491	0.474
1140.001	651.135	80.005	19.995	103.031	20.025	-3.378	0.509
1142.000	652.145	80.007	19.994	103.029	20.025	-3.405	0.496
1144.001	653.133	80.006	19.995	103.032	20.035	-4.116	0.481
1146.001	654.133	80.005	19.995	103.034	20.035	-4.065	0.510
1148.000	655.165	80.005	19.995	103.029	20.032	-3.882	0.517
1150.001	656.181	80.007	19.996	103.029	20.029	-3.714	0.500
1152.000	657.214	80.007	19.995	103.037	20.031	-3.805	0.534
1154.001	658.225	80.007	19.995	103.040	20.030	-3.756	0.526
1156.000	659.175	80.008	19.994	103.030	20.032	-3.922	0.502
1158.000	660.164	80.007	19.994	103.018	20.029	-3.695	0.480
1160.000	661.169	80.008	19.994	103.016	20.031	-3.852	0.466
1162.000	662.199	80.006	19.995	103.025	20.030	-3.761	0.488
1164.000	663.228	80.006	19.995	103.029	20.029	-3.695	0.479
1166.000	664.255	80.005	19.996	103.029	20.032	-3.876	0.537
1168.000	665.222	80.006	19.996	103.026	20.031	-3.852	0.490
1170.000	666.218	80.006	19.996	103.024	20.032	-3.895	0.507
1172.001	667.210	80.003	19.995	103.023	20.031	-3.818	0.490
1174.000	668.197	80.005	19.996	103.018	20.034	-4.041	0.507
1176.000	669.218	80.004	19.997	103.025	20.034	-4.011	0.523
1178.000	670.171	80.006	19.996	103.031	20.032	-3.922	0.481
1180.000	671.182	80.005	19.997	103.025	20.033	-3.975	0.527
1182.000	672.170	80.006	19.996	103.017	20.035	-4.130	0.497
1184.000	673.177	80.006	19.996	103.025	20.037	-4.216	0.495
1186.000	674.155	80.007	19.995	103.026	20.037	-4.226	0.501
1188.001	675.224	80.004	19.995	103.027	20.033	-3.965	0.515
1190.000	676.245	80.005	19.994	103.029	20.034	-4.017	0.522
1192.000	677.265	80.005	19.994	103.027	20.029	-3.695	0.535
1194.000	678.231	80.005	19.995	103.027	20.034	-4.037	0.491
1196.001	679.293	80.003	19.995	103.024	20.029	-3.714	0.528
1198.000	680.276	80.006	19.996	103.034	20.029	-3.695	0.496
1200.000	681.228	80.005	19.995	103.036	20.030	-3.761	0.466
1202.000	682.236	80.005	19.995	103.033	20.034	-4.035	0.494
1204.001	683.218	80.006	19.995	103.022	20.032	-3.912	0.493
1206.000	684.174	80.007	19.994	103.012	20.033	-3.950	0.482
1208.000	685.211	80.007	19.994	103.021	20.036	-4.141	0.504
1210.001	686.180	80.005	19.995	103.028	20.033	-3.964	0.485
1212.001	687.179	80.006	19.995	103.029	20.036	-4.201	0.523
1214.001	688.170	80.006	19.994	103.024	20.037	-4.268	0.483
1216.000	689.153	80.006	19.994	103.024	20.040	-4.420	0.496
1218.000	690.196	80.004	19.995	103.035	20.035	-4.126	0.479
1220.001	691.167	80.005	19.995	103.035	20.039	-4.353	0.480
1222.001	692.158	80.005	19.995	103.028	20.038	-4.339	0.486
1224.000	693.150	80.005	19.996	103.031	20.039	-4.343	0.493
1226.000	694.201	80.006	19.994	103.034	20.039	-4.357	0.540
1228.000	695.216	80.008	19.994	103.031	20.040	-4.459	0.504
1230.000	696.253	80.007	19.994	103.029	20.042	-4.582	0.497
1232.000	697.240	80.007	19.995	103.032	20.043	-4.659	0.493
1234.000	698.247	80.008	19.994	103.024	20.044	-4.710	0.499
1236.000	699.285	80.008	19.995	103.032	20.040	-4.442	0.535
1238.001	700.234	80.008	19.995	103.043	20.043	-4.626	0.474
1240.000	701.305	80.007	19.995	103.039	20.046	-4.853	0.512
1242.000	702.330	80.006	19.995	103.044	20.042	-4.596	0.511
1244.001	703.322	80.007	19.996	103.035	20.046	-4.853	0.503
1246.000	704.354	80.005	19.996	103.046	20.045	-4.785	0.518
1248.000	705.359	80.006	19.995	103.034	20.043	-4.649	0.495
1250.000	706.361	80.005	19.995	103.032	20.044	-4.705	0.492
1252.001	707.414	80.005	19.995	103.030	20.042	-4.586	0.522
1254.000	708.418	80.005	19.995	103.028	20.047	-4.915	0.489
1256.000	709.474	80.005	19.996	103.028	20.046	-4.898	0.532
1258.001	710.475	80.005	19.995	103.030	20.045	-4.789	0.508
1260.000	711.495	80.005	19.996	103.030	20.045	-4.806	0.504
1262.000	712.468	80.004	19.997	103.024	20.047	-4.902	0.496
1264.000	713.488	80.005	19.996	103.028	20.046	-4.855	0.517
1266.000	714.465	80.005	19.996	103.028	20.046	-4.873	0.484
1268.001	715.533	80.004	19.996	103.031	20.047	-4.942	0.524
1270.000	716.516	80.005	19.995	103.030	20.050	-5.157	0.495
1272.000	717.526	80.004	19.996	103.023	20.046	-4.896	0.498
1274.000	718.531	80.004	19.995	103.031	20.050	-5.132	0.491
1276.001	719.519	80.005	19.995	103.030	20.050	-5.140	0.505
1278.000	720.541	80.005	19.995	103.028	20.050	-5.113	0.519
1280.000	721.489	80.006	19.996	103.033	20.049	-5.096	0.502
1282.000	722.503	80.006	19.995	103.028	20.052	-5.308	0.515
1284.000	723.548	80.006	19.995	103.029	20.053	-5.357	0.532
1286.001	724.530	80.006	19.995	103.025	20.052	-5.300	0.500
1288.000	725.527	80.007	19.995	103.026	20.056	-5.531	0.476
1290.001	726.545	80.007	19.996	103.022	20.053	-5.381	0.546
1292.000	727.537	80.007	19.994	103.025	20.054	-5.432	0.503
1294.000	728.610	80.007	19.995	103.024	20.052	-5.302	0.562
1296.001	729.586	80.006	19.995	103.025	20.054	-5.440	0.492
1298.001	730.620	80.006	19.995	103.024	20.057	-5.602	0.499
1300.000	731.636	80.005	19.995	103.026	20.056	-5.581	0.526
1302.000	732.644	80.007	19.996	103.025	20.056	-5.551	0.494
1304.000	733.714	80.007	19.995	103.015	20.057	-5.662	0.517
1306.000	734.728	80.009	19.994	103.018	20.054	-5.424	0.495
1308.001	735.727	80.007	19.994	103.026	20.055	-5.470	0.509
1310.000	736.757	80.009	19.995	103.024	20.054	-5.450	0.514
1312.001	737.782	80.008	19.994	103.022	20.055	-5.472	0.528
1314.000	738.786	80.009	19.995	103.016	20.058	-5.721	0.525
1316.000	739.833	80.008	19.995	103.019	20.058	-5.715	0.537
1318.000	740.859	80.005	19.995	103.020	20.058	-5.689	0.523
1320.000	741.807	80.005	19.995	103.009	20.060	-5.827	0.505
1322.001	742.769	80.004	19.996	103.010	20.059	-5.777	0.483
1324.000	743.787	80.004	19.996	103.024	20.059	-5.743	0.477
1326.000	744.794	80.005	19.995	103.022	20.061	-5.934	0.508
1326.500	745.042	80.005	19.995	103.018	20.061	-5.935	0.533