File: 01_Data/ABS/MCC/ABS_MCC_30K_min_211019_R2.txt
Sample ID:	C:\MCC\MCC Cal\Test\PlasticA_MCC_30K_min_211019_R2.txt
Sample Weight (mg):	4.95
Heating Rate (C/s):	0.5
Combustor Temp (C):	900
N2 Flow Rate (cc/min):	80
O2 Flow Rate (cc/min):	20
Calibration File:	C:\MCC\MCC Cal\Coeff1 JN10440_30_210304.txt.txt
T Correction Coefficients:	0	1.024463	0
Time Shift (s):	14
*
Time (s)	Temperature (C)	N2 flow rate (cc/min)	O2 flow rate (cc/min)	Flow Rate (cc/min)	Oxygen (%)	HRR (W/g)	Heating rate (C/s)
-0.001	107.682	80.001	19.995	102.963	19.948	0.411	-0.010
2.000	107.655	80.003	19.996	102.993	19.954	0.044	0.004
4.000	107.647	80.008	19.994	102.996	19.955	-0.033	-0.024
6.000	107.654	80.006	19.994	102.998	19.954	0.074	0.010
8.000	107.626	79.982	19.998	102.996	19.948	0.459	0.001
10.000	107.611	79.990	19.997	102.999	19.949	0.357	-0.028
12.000	107.635	80.014	19.994	102.996	19.952	0.174	-0.001
14.000	107.603	80.006	19.995	102.993	19.948	0.457	-0.006
16.000	107.618	80.018	19.993	103.002	19.948	0.438	-0.010
18.000	107.643	80.003	19.996	103.044	19.942	0.803	0.020
20.000	107.713	80.005	19.996	103.064	19.942	0.854	0.025
22.000	107.638	80.001	19.996	103.036	19.941	0.919	-0.038
24.000	107.773	80.004	19.995	103.056	19.933	1.424	0.040
26.000	107.852	80.003	19.995	103.109	19.934	1.333	0.045
28.000	107.951	80.014	19.993	103.142	19.928	1.731	0.062
30.000	108.100	79.998	19.995	103.151	19.924	2.013	0.088
32.000	108.271	80.009	19.993	103.148	19.923	2.083	0.088
33.999	108.475	80.002	19.995	103.150	19.919	2.303	0.111
35.999	108.751	80.005	19.993	103.163	19.922	2.164	0.126
38.000	108.880	80.009	19.994	103.152	19.917	2.473	0.130
40.000	109.282	80.004	19.995	103.170	19.914	2.651	0.186
42.000	109.519	80.015	19.993	103.165	19.915	2.619	0.107
44.000	109.795	80.005	19.995	103.153	19.911	2.844	0.158
46.000	110.138	80.006	19.997	103.162	19.914	2.658	0.181
47.999	110.503	80.000	19.995	103.179	19.913	2.725	0.155
49.999	110.878	80.006	19.995	103.188	19.910	2.940	0.207
51.999	111.281	80.007	19.995	103.192	19.912	2.755	0.184
54.001	111.692	80.002	19.994	103.191	19.909	3.007	0.222
55.999	112.129	79.999	19.995	103.190	19.908	3.051	0.231
57.999	112.599	80.001	19.995	103.192	19.908	3.019	0.213
60.000	113.114	80.011	19.994	103.197	19.910	2.924	0.245
61.999	113.591	80.006	19.994	103.188	19.912	2.774	0.252
63.999	114.072	80.006	19.995	103.194	19.909	2.966	0.228
65.999	114.632	80.005	19.993	103.184	19.908	3.027	0.261
67.999	115.132	80.009	19.994	103.183	19.909	2.981	0.255
69.999	115.719	79.995	19.996	103.189	19.906	3.189	0.283
71.999	116.287	80.002	19.995	103.189	19.909	2.970	0.275
73.999	116.859	80.002	19.996	103.195	19.911	2.863	0.306
76.000	117.459	80.003	19.995	103.209	19.907	3.080	0.285
78.000	118.103	80.003	19.996	103.201	19.910	2.922	0.325
79.999	118.718	80.004	19.994	103.217	19.908	3.051	0.307
82.000	119.334	79.997	19.995	103.218	19.909	2.951	0.314
83.999	120.000	80.004	19.994	103.212	19.910	2.932	0.355
85.999	120.694	80.004	19.995	103.221	19.907	3.089	0.337
88.000	121.363	80.002	19.996	103.265	19.908	3.061	0.352
90.000	122.061	80.003	19.995	103.238	19.906	3.181	0.335
92.000	122.777	80.005	19.993	103.214	19.908	3.043	0.371
93.999	123.504	80.001	19.996	103.223	19.905	3.242	0.356
96.000	124.243	80.004	19.994	103.233	19.904	3.330	0.321
98.000	125.014	80.003	19.995	103.234	19.907	3.082	0.388
99.999	125.765	80.001	19.996	103.240	19.901	3.483	0.401
101.999	126.587	80.002	19.996	103.252	19.901	3.477	0.402
103.999	127.339	79.992	19.996	103.225	19.903	3.400	0.422
106.000	128.134	79.996	19.999	103.224	19.902	3.422	0.412
108.000	128.978	80.006	19.996	103.227	19.905	3.254	0.386
109.999	129.783	80.001	19.996	103.221	19.904	3.335	0.384
112.000	130.633	80.005	19.994	103.225	19.905	3.244	0.431
114.001	131.412	80.004	19.995	103.233	19.902	3.418	0.378
115.999	132.258	80.007	19.995	103.225	19.900	3.579	0.419
117.999	133.105	80.003	19.996	103.229	19.903	3.341	0.450
120.000	133.942	80.007	19.996	103.228	19.903	3.390	0.414
121.999	134.858	80.009	20.002	103.233	19.902	3.462	0.444
123.999	135.734	80.004	19.994	103.240	19.901	3.525	0.437
126.000	136.614	80.006	19.996	103.227	19.897	3.728	0.454
128.000	137.516	80.003	19.996	103.225	19.898	3.663	0.472
130.000	138.431	80.004	19.996	103.227	19.900	3.538	0.461
132.000	139.282	80.004	19.993	103.230	19.900	3.572	0.430
134.000	140.194	80.007	19.994	103.246	19.900	3.554	0.452
136.000	141.126	80.005	19.993	103.238	19.898	3.708	0.468
138.000	142.038	80.006	19.995	103.230	19.898	3.688	0.452
140.000	142.972	80.003	19.989	103.231	19.901	3.522	0.468
142.000	143.934	80.005	19.993	103.231	19.899	3.631	0.470
144.000	144.879	80.008	19.990	103.230	19.897	3.778	0.447
146.000	145.821	80.005	19.994	103.245	19.898	3.720	0.473
148.000	146.790	80.005	19.995	103.237	19.900	3.568	0.497
150.000	147.702	79.997	19.992	103.229	19.899	3.631	0.472
152.000	148.687	80.004	19.994	103.230	19.896	3.813	0.462
154.000	149.653	80.004	19.991	103.229	19.899	3.624	0.502
156.000	150.617	80.005	19.994	103.246	19.897	3.767	0.510
158.000	151.532	80.001	19.995	103.230	19.895	3.882	0.450
160.000	152.577	80.006	19.994	103.219	19.897	3.762	0.490
162.000	153.518	80.004	19.994	103.230	19.895	3.859	0.528
164.000	154.503	80.005	19.994	103.237	19.892	4.087	0.493
166.000	155.470	80.003	19.994	103.223	19.893	4.001	0.487
168.000	156.457	80.002	19.994	103.238	19.895	3.902	0.476
170.000	157.417	80.004	19.994	103.231	19.898	3.703	0.496
172.000	158.397	80.005	19.994	103.238	19.895	3.858	0.478
174.000	159.383	80.004	19.996	103.224	19.896	3.801	0.488
176.000	160.390	80.004	19.994	103.221	19.896	3.851	0.477
178.000	161.406	79.998	19.990	103.220	19.899	3.627	0.520
180.000	162.358	80.002	19.997	103.223	19.895	3.882	0.497
182.000	163.411	79.999	20.000	103.219	19.898	3.705	0.521
184.000	164.415	80.004	19.995	103.204	19.898	3.709	0.506
186.000	165.397	80.002	19.995	103.206	19.895	3.910	0.488
188.000	166.416	80.005	19.993	103.207	19.893	3.997	0.500
190.000	167.414	80.003	19.997	103.226	19.895	3.865	0.501
192.000	168.470	80.002	19.996	103.230	19.896	3.795	0.519
194.000	169.457	80.006	19.995	103.226	19.892	4.067	0.510
196.000	170.470	80.005	19.996	103.225	19.894	3.955	0.521
198.000	171.457	80.004	19.998	103.214	19.895	3.914	0.507
200.000	172.494	80.007	19.994	103.196	19.897	3.782	0.492
202.000	173.491	80.004	19.996	103.213	19.895	3.857	0.518
204.000	174.480	80.000	19.998	103.233	19.897	3.745	0.472
206.000	175.490	80.006	19.989	103.222	19.891	4.133	0.502
208.000	176.491	80.000	19.998	103.212	19.897	3.767	0.490
210.000	177.519	80.003	19.994	103.209	19.894	3.958	0.526
212.000	178.528	80.002	19.995	103.197	19.895	3.905	0.509
214.000	179.547	80.011	19.990	103.189	19.893	3.995	0.498
216.000	180.563	80.003	19.997	103.208	19.897	3.757	0.515
218.000	181.567	80.007	19.996	103.204	19.896	3.816	0.528
220.000	182.534	80.000	19.991	103.223	19.895	3.918	0.489
222.000	183.518	80.007	19.999	103.192	19.900	3.541	0.496
224.000	184.531	80.006	19.991	103.209	19.896	3.831	0.505
226.000	185.555	80.004	19.994	103.192	19.896	3.808	0.513
228.000	186.538	80.003	19.995	103.210	19.896	3.826	0.488
230.000	187.604	80.005	19.993	103.193	19.896	3.810	0.523
232.000	188.561	80.004	19.994	103.208	19.901	3.496	0.463
234.000	189.559	80.003	19.995	103.189	19.896	3.843	0.482
236.000	190.633	80.001	19.994	103.191	19.894	3.977	0.552
238.000	191.590	80.002	19.995	103.195	19.898	3.667	0.476
240.000	192.564	80.002	20.004	103.191	19.894	3.972	0.502
242.000	193.564	80.003	20.000	103.192	19.897	3.753	0.468
244.000	194.540	80.003	19.996	103.193	19.899	3.643	0.500
246.000	195.503	80.003	19.996	103.190	19.897	3.750	0.472
248.000	196.564	80.008	19.995	103.187	19.894	3.966	0.520
250.000	197.501	80.010	19.993	103.199	19.896	3.825	0.484
252.000	198.529	80.006	19.986	103.186	19.896	3.812	0.518
254.000	199.506	80.004	19.994	103.191	19.894	3.970	0.481
256.000	200.479	80.005	19.991	103.202	19.894	3.963	0.476
258.000	201.495	80.002	20.003	103.190	19.893	4.026	0.477
260.000	202.472	80.007	19.995	103.186	19.891	4.169	0.496
262.000	203.463	80.001	19.994	103.190	19.891	4.176	0.476
264.000	204.448	80.005	19.993	103.194	19.892	4.097	0.478
266.000	205.460	80.005	19.993	103.192	19.891	4.158	0.506
268.000	206.445	80.001	19.989	103.192	19.888	4.317	0.517
270.000	207.405	80.002	19.998	103.197	19.888	4.322	0.482
272.000	208.376	80.004	19.991	103.192	19.887	4.387	0.457
274.000	209.339	80.003	19.994	103.189	19.890	4.229	0.473
276.000	210.367	80.006	19.993	103.192	19.891	4.155	0.469
278.000	211.362	80.004	19.992	103.189	19.889	4.292	0.489
280.000	212.320	80.002	19.994	103.181	19.888	4.377	0.473
282.000	213.332	80.006	19.994	103.186	19.888	4.359	0.496
284.000	214.278	80.002	19.996	103.175	19.886	4.488	0.493
286.000	215.278	80.005	19.994	103.190	19.888	4.356	0.485
288.000	216.249	80.005	19.994	103.186	19.885	4.541	0.487
290.000	217.282	80.007	19.997	103.182	19.885	4.530	0.505
292.000	218.254	80.002	19.996	103.182	19.886	4.503	0.485
294.000	219.192	80.002	19.993	103.187	19.883	4.685	0.483
296.000	220.170	80.005	19.995	103.189	19.885	4.512	0.495
298.000	221.196	80.005	19.995	103.189	19.883	4.667	0.488
300.000	222.182	80.003	19.994	103.205	19.881	4.810	0.507
302.000	223.160	80.003	19.999	103.184	19.886	4.507	0.493
304.000	224.178	80.004	19.995	103.183	19.883	4.660	0.466
306.000	225.138	80.005	19.995	103.187	19.884	4.591	0.484
308.000	226.126	80.005	19.996	103.178	19.880	4.856	0.519
310.000	227.106	80.006	19.998	103.182	19.881	4.822	0.499
312.000	228.074	80.005	19.996	103.179	19.881	4.776	0.504
314.000	229.069	80.004	19.993	103.180	19.882	4.766	0.508
316.000	230.104	80.003	19.995	103.186	19.877	5.081	0.483
318.000	231.132	80.004	19.995	103.182	19.880	4.865	0.492
320.000	232.095	80.004	19.995	103.184	19.877	5.062	0.499
322.000	233.064	80.002	19.994	103.171	19.876	5.155	0.482
324.000	234.067	80.002	19.996	103.193	19.881	4.817	0.520
326.000	235.075	80.003	19.995	103.191	19.879	4.953	0.495
328.000	236.059	80.002	19.996	103.188	19.880	4.850	0.517
330.000	237.024	80.003	19.995	103.191	19.874	5.257	0.505
332.000	238.065	80.003	19.994	103.190	19.878	5.010	0.528
334.000	239.030	80.003	19.994	103.191	19.874	5.255	0.448
336.000	240.003	80.003	19.995	103.187	19.877	5.077	0.499
338.000	241.010	80.004	19.994	103.183	19.876	5.124	0.486
340.000	242.038	80.002	19.996	103.169	19.872	5.367	0.523
342.000	243.041	80.004	19.994	103.185	19.872	5.367	0.528
344.000	244.021	80.002	19.994	103.173	19.874	5.272	0.475
346.000	245.022	80.005	19.994	103.174	19.873	5.320	0.499
348.000	246.008	80.004	19.992	103.189	19.873	5.294	0.501
350.000	247.008	80.002	19.994	103.191	19.872	5.367	0.518
352.000	247.976	80.002	19.995	103.192	19.874	5.261	0.486
354.000	249.023	80.002	19.995	103.191	19.869	5.579	0.497
356.000	250.073	80.002	19.992	103.178	19.869	5.567	0.509
358.000	251.080	80.002	19.994	103.180	19.867	5.696	0.548
360.000	252.074	80.002	19.994	103.191	19.866	5.748	0.486
362.000	253.090	80.004	19.995	103.191	19.868	5.653	0.488
364.000	254.091	80.005	19.994	103.185	19.871	5.465	0.489
366.000	255.101	80.005	19.994	103.180	19.867	5.703	0.537
368.000	256.108	80.004	19.995	103.180	19.871	5.474	0.526
370.000	257.104	80.003	19.995	103.156	19.873	5.318	0.509
372.000	258.072	80.003	20.004	103.180	19.872	5.364	0.484
374.000	259.079	80.003	19.995	103.174	19.873	5.348	0.494
376.000	260.086	80.004	19.995	103.185	19.871	5.422	0.500
378.000	261.056	80.004	19.994	103.187	19.873	5.313	0.480
380.000	262.087	80.004	19.994	103.199	19.874	5.278	0.506
382.000	263.079	80.004	19.996	103.187	19.875	5.195	0.516
384.000	264.104	80.004	19.995	103.175	19.874	5.285	0.517
386.000	265.074	80.005	19.995	103.161	19.875	5.184	0.508
388.000	266.068	80.006	19.995	103.169	19.875	5.179	0.474
390.000	267.123	80.006	19.994	103.182	19.878	5.008	0.501
392.000	268.109	80.006	19.995	103.183	19.876	5.120	0.502
394.000	269.101	80.025	19.999	103.184	19.875	5.183	0.481
396.000	270.062	80.005	19.995	103.168	19.873	5.306	0.498
398.000	271.162	80.005	19.996	103.167	19.876	5.152	0.521
400.000	272.191	80.003	19.996	103.167	19.878	4.990	0.493
402.000	273.145	80.002	19.996	103.170	19.880	4.838	0.472
404.000	274.204	80.002	19.997	103.172	19.881	4.820	0.554
406.000	275.157	80.002	19.995	103.190	19.879	4.922	0.526
408.000	276.212	80.002	19.995	103.167	19.880	4.880	0.554
410.000	277.156	80.003	19.995	103.163	19.880	4.870	0.487
412.000	278.164	80.002	19.995	103.163	19.884	4.631	0.479
414.000	279.169	80.003	19.995	103.145	19.884	4.585	0.505
416.000	280.185	80.004	19.995	103.129	19.889	4.288	0.493
418.000	281.181	80.002	19.994	103.152	19.885	4.531	0.483
420.000	282.184	80.005	19.994	103.172	19.883	4.653	0.505
422.000	283.146	80.003	19.994	103.128	19.884	4.584	0.483
424.000	284.162	80.003	19.994	103.113	19.887	4.384	0.518
426.000	285.202	80.005	19.995	103.125	19.888	4.330	0.542
428.000	286.159	80.003	19.994	103.125	19.887	4.401	0.509
430.000	287.149	80.003	19.995	103.137	19.887	4.383	0.494
432.000	288.151	80.003	19.994	103.140	19.889	4.270	0.514
434.000	289.136	80.004	19.994	103.115	19.888	4.371	0.488
436.000	290.144	80.004	19.995	103.119	19.888	4.334	0.524
438.000	291.159	80.003	19.995	103.135	19.889	4.302	0.503
440.000	292.136	80.003	19.994	103.132	19.891	4.126	0.465
442.000	293.175	80.004	19.995	103.126	19.890	4.223	0.474
444.000	294.185	80.004	19.995	103.136	19.891	4.173	0.508
446.000	295.176	80.006	19.994	103.146	19.888	4.342	0.492
448.000	296.198	80.005	19.994	103.131	19.892	4.064	0.497
450.000	297.199	80.005	19.994	103.113	19.889	4.244	0.501
452.000	298.224	80.005	19.994	103.137	19.890	4.233	0.506
454.000	299.241	80.006	19.994	103.118	19.889	4.307	0.536
456.000	300.216	80.005	19.995	103.111	19.890	4.232	0.498
458.000	301.236	80.005	19.995	103.135	19.889	4.268	0.509
460.000	302.248	80.004	19.995	103.106	19.887	4.436	0.526
462.000	303.221	80.004	19.995	103.113	19.890	4.196	0.487
464.000	304.239	80.004	19.995	103.121	19.888	4.346	0.501
466.000	305.234	80.004	19.996	103.122	19.888	4.326	0.464
468.000	306.259	80.003	19.995	103.117	19.890	4.235	0.503
470.000	307.273	80.005	19.995	103.134	19.884	4.576	0.540
472.000	308.264	80.004	19.995	103.123	19.888	4.325	0.470
474.000	309.282	80.006	19.995	103.119	19.881	4.785	0.511
476.000	310.305	80.005	19.994	103.111	19.882	4.708	0.485
478.000	311.304	80.006	19.995	103.119	19.882	4.699	0.490
480.000	312.308	80.005	19.995	103.125	19.883	4.682	0.484
482.000	313.343	80.004	19.995	103.127	19.883	4.643	0.495
484.000	314.322	80.003	19.995	103.146	19.880	4.856	0.489
486.000	315.386	80.004	19.995	103.147	19.879	4.921	0.514
488.000	316.390	80.002	19.995	103.133	19.881	4.778	0.533
490.000	317.393	80.002	19.995	103.112	19.875	5.163	0.501
492.000	318.418	80.003	19.995	103.128	19.874	5.229	0.502
494.000	319.398	80.002	19.995	103.110	19.874	5.276	0.493
496.000	320.409	80.003	19.995	103.110	19.874	5.241	0.472
498.000	321.391	80.001	19.996	103.113	19.874	5.224	0.483
500.000	322.428	80.004	19.996	103.124	19.873	5.285	0.535
502.000	323.447	80.003	19.996	103.119	19.868	5.609	0.491
504.000	324.433	80.003	19.996	103.109	19.869	5.563	0.504
506.000	325.443	80.001	19.995	103.110	19.866	5.787	0.514
508.000	326.484	80.003	19.995	103.115	19.864	5.899	0.516
510.000	327.497	80.003	19.994	103.112	19.861	6.070	0.497
512.000	328.493	80.004	19.994	103.109	19.857	6.352	0.519
514.000	329.509	80.004	19.995	103.110	19.856	6.414	0.505
516.000	330.508	80.003	19.994	103.118	19.851	6.725	0.490
518.000	331.545	80.003	19.995	103.122	19.853	6.616	0.531
520.000	332.550	80.004	19.995	103.111	19.848	6.950	0.492
522.000	333.588	80.004	19.994	103.121	19.848	6.940	0.535
524.000	334.617	80.004	19.994	103.122	19.842	7.306	0.537
526.000	335.642	80.003	19.994	103.119	19.842	7.348	0.523
528.000	336.649	80.003	19.994	103.116	19.836	7.734	0.541
530.000	337.635	80.004	19.995	103.116	19.832	7.976	0.508
532.000	338.652	80.005	19.995	103.114	19.829	8.205	0.509
534.000	339.701	80.004	19.995	103.112	19.821	8.701	0.522
536.000	340.731	80.004	19.995	103.114	19.818	8.896	0.543
538.000	341.752	80.003	19.995	103.116	19.813	9.246	0.531
540.000	342.790	80.005	19.995	103.114	19.810	9.435	0.517
542.000	343.741	80.004	19.995	103.109	19.805	9.725	0.506
544.000	344.784	80.005	19.994	103.115	19.798	10.212	0.530
546.000	345.789	80.006	19.994	103.133	19.796	10.340	0.508
548.000	346.784	80.004	19.995	103.115	19.790	10.744	0.465
550.000	347.826	80.005	19.994	103.128	19.781	11.310	0.501
552.000	348.863	80.005	19.995	103.116	19.776	11.595	0.525
554.000	349.891	80.005	19.993	103.118	19.765	12.357	0.534
556.000	350.928	80.005	19.994	103.115	19.762	12.519	0.543
558.000	351.901	80.007	19.994	103.112	19.754	13.038	0.481
560.000	352.967	80.007	19.994	103.119	19.747	13.522	0.555
562.000	353.999	80.005	19.995	103.113	19.738	14.079	0.523
564.000	355.018	80.006	19.994	103.115	19.728	14.717	0.470
566.000	356.028	80.005	19.995	103.115	19.722	15.100	0.537
568.000	357.018	80.005	19.995	103.112	19.708	16.054	0.514
570.000	358.079	80.004	19.995	103.112	19.700	16.554	0.556
572.000	359.064	80.004	19.995	103.112	19.688	17.361	0.502
574.000	360.077	80.003	19.995	103.110	19.677	18.043	0.499
576.000	361.058	80.003	19.994	103.111	19.668	18.613	0.474
578.000	362.120	80.004	19.994	103.115	19.654	19.534	0.514
580.000	363.149	80.004	19.995	103.119	19.646	20.063	0.541
582.000	364.076	80.003	19.995	103.115	19.631	21.053	0.441
584.000	365.124	80.004	19.995	103.128	19.619	21.838	0.481
586.000	366.111	80.004	19.995	103.112	19.603	22.832	0.476
588.000	367.137	80.004	19.995	103.107	19.588	23.862	0.494
590.000	368.133	80.004	19.995	103.111	19.571	24.954	0.491
592.000	369.170	80.003	19.995	103.109	19.559	25.710	0.507
594.000	370.190	80.004	19.996	103.113	19.543	26.794	0.525
596.000	371.166	80.002	19.996	103.111	19.528	27.720	0.471
598.000	372.194	80.001	19.995	103.115	19.508	29.061	0.506
600.000	373.154	80.003	19.995	103.120	19.487	30.430	0.460
602.000	374.224	80.002	19.996	103.112	19.468	31.635	0.508
604.000	375.228	80.003	19.995	103.111	19.450	32.796	0.503
606.000	376.189	80.002	19.996	103.133	19.430	34.102	0.526
608.000	377.234	80.003	19.995	103.129	19.411	35.348	0.531
610.000	378.208	80.003	19.994	103.154	19.387	36.921	0.485
612.000	379.174	80.004	19.995	103.151	19.366	38.270	0.465
614.000	380.223	80.005	19.994	103.141	19.341	39.897	0.511
616.000	381.221	80.004	19.994	103.118	19.317	41.457	0.473
618.000	382.229	80.003	19.994	103.131	19.293	43.057	0.517
620.000	383.252	80.004	19.994	103.149	19.263	44.981	0.514
622.000	384.222	80.004	19.994	103.141	19.237	46.657	0.525
624.000	385.193	80.003	19.995	103.150	19.207	48.591	0.487
626.000	386.234	80.005	19.994	103.155	19.173	50.814	0.504
628.000	387.273	80.004	19.994	103.145	19.139	53.080	0.546
630.000	388.235	80.005	19.994	103.148	19.109	55.032	0.526
632.000	389.215	80.005	19.994	103.147	19.070	57.530	0.485
634.000	390.198	80.006	19.995	103.152	19.034	59.866	0.478
636.000	391.196	80.006	19.994	103.160	18.998	62.251	0.506
638.000	392.179	80.006	19.995	103.168	18.955	65.008	0.480
640.000	393.194	80.006	19.994	103.184	18.912	67.822	0.539
642.000	394.199	80.007	19.994	103.173	18.866	70.835	0.482
644.000	395.228	80.008	19.994	103.179	18.817	74.025	0.510
646.000	396.215	80.007	19.994	103.186	18.766	77.349	0.498
648.000	397.202	80.005	19.995	103.182	18.714	80.721	0.488
650.000	398.205	80.005	19.994	103.186	18.662	84.136	0.517
652.000	399.206	80.005	19.995	103.188	18.598	88.284	0.504
654.000	400.156	80.004	19.994	103.186	18.538	92.158	0.451
656.000	401.177	80.002	19.994	103.200	18.471	96.549	0.458
658.000	402.186	80.003	19.995	103.212	18.402	101.060	0.515
660.000	403.149	80.004	19.996	103.220	18.323	106.205	0.487
662.000	404.167	80.003	19.995	103.222	18.245	111.281	0.453
664.000	405.178	80.004	19.995	103.230	18.165	116.495	0.500
666.000	406.193	80.002	19.994	103.232	18.078	122.194	0.506
668.000	407.198	80.003	19.994	103.231	17.991	127.879	0.518
670.000	408.179	80.003	19.995	103.250	17.902	133.687	0.469
672.000	409.180	80.004	19.994	103.265	17.808	139.800	0.499
674.000	410.174	80.005	19.994	103.261	17.713	145.958	0.497
676.000	411.193	80.005	19.995	103.272	17.612	152.576	0.508
678.000	412.228	80.003	19.995	103.303	17.505	159.551	0.523
680.000	413.161	80.002	19.995	103.312	17.388	167.190	0.466
682.000	414.163	80.004	19.994	103.328	17.267	175.143	0.483
684.000	415.193	80.004	19.995	103.319	17.146	183.022	0.522
686.000	416.186	80.003	19.995	103.321	17.023	190.999	0.474
688.000	417.212	80.002	19.996	103.317	16.898	199.178	0.496
690.000	418.226	80.002	19.995	103.340	16.774	207.226	0.506
692.000	419.206	80.003	19.996	103.363	16.648	215.442	0.503
694.000	420.251	80.003	19.996	103.370	16.522	223.689	0.493
696.000	421.242	80.005	19.996	103.361	16.402	231.537	0.483
698.000	422.252	80.003	19.995	103.365	16.280	239.478	0.498
700.000	423.285	80.005	19.995	103.361	16.165	247.014	0.519
702.000	424.252	80.006	19.995	103.380	16.052	254.341	0.504
704.000	425.251	80.006	19.994	103.378	15.950	260.979	0.509
706.000	426.331	80.005	19.995	103.385	15.847	267.725	0.507
708.000	427.315	80.006	19.994	103.382	15.755	273.658	0.475
710.000	428.307	80.006	19.994	103.395	15.674	278.998	0.495
712.000	429.341	80.005	19.994	103.396	15.601	283.790	0.513
714.000	430.338	80.005	19.994	103.395	15.539	287.783	0.498
716.000	431.400	80.005	19.994	103.389	15.485	291.307	0.521
718.000	432.385	80.006	19.995	103.394	15.451	293.453	0.492
720.000	433.405	80.006	19.995	103.399	15.417	295.675	0.484
722.000	434.464	80.005	19.995	103.404	15.404	296.565	0.524
724.000	435.509	80.008	19.994	103.387	15.397	296.929	0.533
726.000	436.470	80.007	19.994	103.391	15.408	296.213	0.467
728.000	437.522	80.007	19.995	103.397	15.433	294.622	0.513
730.000	438.533	80.006	19.994	103.389	15.466	292.438	0.505
732.000	439.610	80.005	19.994	103.385	15.510	289.617	0.530
734.000	440.598	80.005	19.993	103.380	15.567	285.906	0.530
736.000	441.620	80.004	19.994	103.356	15.628	281.956	0.530
738.000	442.657	80.004	19.994	103.368	15.706	276.798	0.516
740.000	443.717	80.003	19.995	103.369	15.789	271.367	0.526
742.000	444.741	80.003	19.994	103.380	15.865	266.353	0.543
744.000	445.749	80.004	19.994	103.377	15.938	261.487	0.483
746.000	446.778	80.004	19.994	103.394	15.990	258.011	0.512
748.000	447.809	80.003	19.995	103.378	16.042	254.479	0.508
750.000	448.813	80.002	19.996	103.359	16.097	250.959	0.490
752.000	449.892	80.003	19.994	103.334	16.167	246.516	0.525
754.000	450.868	80.003	19.994	103.299	16.259	240.551	0.499
756.000	451.970	80.003	19.995	103.265	16.385	232.427	0.549
758.000	453.057	80.004	19.995	103.220	16.546	221.928	0.549
760.000	454.116	80.003	19.995	103.192	16.717	210.685	0.523
762.000	455.195	80.003	19.996	103.222	16.888	199.546	0.524
764.000	456.273	80.004	19.995	103.260	17.043	189.446	0.558
766.000	457.294	80.004	19.996	103.279	17.190	179.788	0.545
768.000	458.361	80.003	19.995	103.298	17.323	171.145	0.498
770.000	459.431	80.003	19.994	103.263	17.439	163.592	0.502
772.000	460.493	80.003	19.995	103.216	17.554	156.098	0.544
774.000	461.507	80.004	19.996	103.226	17.658	149.329	0.519
776.000	462.577	80.003	19.995	103.197	17.756	142.926	0.519
778.000	463.615	80.004	19.995	103.166	17.860	136.223	0.518
780.000	464.634	80.003	19.995	103.188	17.958	129.827	0.514
782.000	465.679	80.005	19.996	103.166	18.049	123.920	0.485
784.000	466.687	80.005	19.996	103.146	18.144	117.717	0.501
786.000	467.749	80.005	19.996	103.147	18.234	111.812	0.536
788.000	468.788	80.005	19.996	103.152	18.318	106.383	0.550
790.000	469.798	80.004	19.996	103.145	18.406	100.680	0.532
792.000	470.854	80.004	19.996	103.140	18.487	95.371	0.515
794.000	471.889	80.004	19.996	103.129	18.566	90.257	0.517
796.000	472.868	80.005	19.995	103.110	18.641	85.391	0.484
798.000	473.958	80.004	19.994	103.115	18.710	80.908	0.555
800.000	474.995	80.005	19.995	103.116	18.775	76.675	0.504
802.000	476.024	80.004	19.994	103.115	18.838	72.536	0.509
804.000	477.058	80.005	19.995	103.113	18.899	68.627	0.520
806.000	478.084	80.007	19.994	103.106	18.955	64.992	0.511
808.000	479.107	80.006	19.995	103.109	19.012	61.305	0.514
810.000	480.129	80.007	19.994	103.107	19.062	58.022	0.521
812.000	481.176	80.007	19.994	103.092	19.112	54.794	0.523
814.000	482.199	80.006	19.995	103.096	19.161	51.611	0.510
816.000	483.177	80.004	19.993	103.098	19.205	48.757	0.498
818.000	484.210	80.004	19.994	103.112	19.252	45.646	0.535
820.000	485.174	80.003	19.995	103.117	19.291	43.112	0.475
822.000	486.189	80.003	19.995	103.098	19.332	40.458	0.485
824.000	487.197	80.003	19.995	103.111	19.376	37.634	0.478
826.000	488.209	80.003	19.994	103.105	19.416	34.993	0.483
828.000	489.279	80.004	19.995	103.105	19.455	32.487	0.518
830.000	490.285	80.002	19.995	103.099	19.494	29.958	0.496
832.000	491.306	80.004	19.994	103.080	19.534	27.354	0.528
834.000	492.319	80.005	19.994	103.097	19.566	25.257	0.498
836.000	493.362	80.006	19.995	103.083	19.604	22.805	0.537
838.000	494.378	80.004	19.994	103.077	19.638	20.590	0.523
840.000	495.443	80.005	19.995	103.087	19.671	18.470	0.510
842.000	496.441	80.004	19.994	103.089	19.697	16.762	0.510
844.000	497.471	80.005	19.994	103.091	19.722	15.135	0.493
846.000	498.492	80.004	19.994	103.084	19.749	13.371	0.501
848.000	499.509	80.004	19.995	103.087	19.769	12.074	0.499
850.000	500.580	80.004	19.996	103.078	19.792	10.585	0.523
852.000	501.551	80.004	19.995	103.098	19.811	9.341	0.511
854.000	502.608	80.003	19.995	103.098	19.827	8.279	0.522
856.000	503.599	80.003	19.995	103.102	19.841	7.362	0.510
858.000	504.602	80.003	19.995	103.096	19.855	6.510	0.477
860.000	505.602	80.003	19.996	103.089	19.864	5.896	0.521
862.000	506.658	80.005	19.996	103.081	19.872	5.394	0.490
864.000	507.645	80.006	19.996	103.093	19.878	4.971	0.508
866.000	508.655	80.006	19.996	103.093	19.882	4.744	0.528
868.000	509.682	80.005	19.995	103.084	19.892	4.057	0.495
870.000	510.709	80.006	19.994	103.079	19.896	3.790	0.510
872.000	511.727	80.004	19.995	103.085	19.899	3.644	0.501
874.000	512.741	80.005	19.994	103.077	19.901	3.503	0.493
876.000	513.767	80.004	19.994	103.097	19.904	3.269	0.514
878.000	514.826	80.004	19.995	103.108	19.904	3.299	0.526
880.000	515.817	80.006	19.995	103.106	19.906	3.146	0.495
882.000	516.894	80.005	19.995	103.084	19.907	3.074	0.530
884.000	517.918	80.004	19.996	103.074	19.911	2.847	0.490
886.000	518.937	80.005	19.996	103.077	19.909	3.005	0.526
888.000	520.000	80.004	19.995	103.088	19.915	2.599	0.520
890.000	521.054	80.005	19.996	103.088	19.914	2.636	0.534
892.000	522.037	80.006	19.996	103.081	19.912	2.789	0.488
894.000	523.046	80.007	19.995	103.089	19.913	2.729	0.479
896.000	524.130	80.006	19.994	103.077	19.914	2.637	0.487
898.000	525.136	80.007	19.994	103.085	19.918	2.421	0.497
900.000	526.139	80.005	19.995	103.106	19.920	2.291	0.490
902.000	527.208	80.005	19.995	103.101	19.918	2.368	0.555
904.000	528.219	80.004	19.993	103.078	19.917	2.453	0.513
906.000	529.314	80.004	19.995	103.072	19.916	2.514	0.556
908.000	530.300	80.004	19.994	103.081	19.920	2.285	0.517
910.000	531.284	80.004	19.995	103.076	19.918	2.368	0.542
912.000	532.276	80.004	19.995	103.082	19.920	2.278	0.466
914.000	533.324	80.004	19.994	103.074	19.922	2.159	0.511
916.000	534.366	80.003	19.995	103.081	19.916	2.489	0.539
918.000	535.369	80.005	19.994	103.077	19.919	2.324	0.528
920.000	536.405	80.005	19.994	103.083	19.921	2.187	0.517
922.000	537.441	80.004	19.995	103.075	19.922	2.103	0.537
924.000	538.469	80.004	19.995	103.075	19.920	2.272	0.516
926.000	539.489	80.004	19.995	103.072	19.920	2.266	0.518
928.000	540.492	80.005	19.994	103.078	19.921	2.217	0.528
930.000	541.442	80.004	19.994	103.096	19.918	2.419	0.487
932.000	542.475	80.004	19.994	103.089	19.919	2.351	0.526
934.000	543.503	80.005	19.994	103.096	19.924	1.971	0.517
936.000	544.515	80.005	19.994	103.102	19.921	2.192	0.481
938.000	545.503	80.005	19.995	103.091	19.919	2.295	0.480
940.000	546.507	80.005	19.995	103.093	19.920	2.231	0.520
942.000	547.576	80.003	19.993	103.074	19.917	2.433	0.494
944.000	548.557	80.004	19.994	103.094	19.919	2.323	0.482
946.000	549.611	80.005	19.994	103.081	19.918	2.396	0.511
948.000	550.590	80.003	19.995	103.098	19.918	2.365	0.512
950.000	551.629	80.004	19.995	103.083	19.918	2.381	0.495
952.000	552.608	80.005	19.994	103.076	19.919	2.335	0.469
954.000	553.686	80.005	19.995	103.090	19.921	2.226	0.553
956.000	554.694	80.004	19.995	103.080	19.919	2.326	0.511
958.000	555.761	80.005	19.995	103.083	19.923	2.083	0.526
960.000	556.766	80.004	19.995	103.097	19.922	2.138	0.514
962.000	557.784	80.005	19.994	103.085	19.925	1.943	0.523
964.000	558.807	80.004	19.995	103.073	19.925	1.915	0.529
966.000	559.838	80.004	19.994	103.080	19.924	2.006	0.498
968.000	560.858	80.005	19.996	103.069	19.922	2.110	0.519
970.000	561.887	80.005	19.995	103.084	19.924	1.969	0.530
972.000	562.879	80.005	19.995	103.087	19.924	1.983	0.513
974.000	563.913	80.006	19.995	103.099	19.925	1.962	0.521
976.000	564.932	80.007	19.995	103.086	19.925	1.947	0.505
978.000	565.976	80.007	19.997	103.084	19.926	1.863	0.512
980.000	567.025	80.006	19.996	103.097	19.920	2.237	0.529
982.000	568.045	80.005	19.996	103.099	19.924	2.029	0.517
984.000	569.060	80.005	19.996	103.096	19.927	1.791	0.511
986.000	570.086	80.005	19.996	103.076	19.925	1.943	0.493
988.000	571.080	80.003	19.996	103.079	19.925	1.937	0.454
990.000	572.123	80.004	19.996	103.096	19.924	2.030	0.513
992.000	573.154	80.004	19.995	103.094	19.922	2.147	0.519
994.000	574.205	80.004	19.995	103.086	19.923	2.087	0.529
996.000	575.269	80.003	19.995	103.104	19.923	2.092	0.564
998.000	576.305	80.004	19.995	103.095	19.928	1.758	0.536
1000.000	577.268	80.003	19.995	103.089	19.927	1.835	0.459
1002.000	578.337	80.004	19.995	103.086	19.923	2.047	0.543
1004.000	579.319	80.004	19.995	103.097	19.925	1.946	0.489
1006.000	580.355	80.005	19.994	103.082	19.925	1.908	0.487
1008.000	581.397	80.004	19.994	103.096	19.923	2.057	0.501
1010.000	582.440	80.004	19.995	103.092	19.922	2.121	0.543
1012.000	583.446	80.004	19.995	103.095	19.922	2.115	0.507
1014.000	584.458	80.003	19.995	103.104	19.922	2.105	0.507
1016.000	585.482	80.003	19.995	103.106	19.921	2.191	0.519
1018.000	586.473	80.002	19.995	103.098	19.921	2.209	0.500
1020.000	587.507	80.002	19.995	103.113	19.922	2.122	0.505
1022.000	588.489	80.002	19.996	103.110	19.925	1.967	0.475
1024.000	589.526	80.002	19.995	103.105	19.924	1.985	0.501
1025.999	590.511	80.004	19.995	103.102	19.922	2.117	0.490
1027.999	591.494	80.004	19.994	103.106	19.923	2.078	0.491
1030.000	592.553	80.004	19.994	103.105	19.920	2.236	0.503
1031.999	593.532	80.004	19.994	103.090	19.922	2.141	0.488
1033.999	594.605	80.005	19.994	103.101	19.926	1.846	0.539
1035.999	595.607	80.005	19.995	103.082	19.923	2.047	0.507
1037.999	596.645	80.005	19.994	103.092	19.922	2.136	0.507
1039.999	597.694	80.005	19.994	103.095	19.923	2.049	0.528
1041.999	598.694	80.005	19.995	103.073	19.924	1.971	0.488
1043.999	599.676	80.004	19.994	103.086	19.921	2.166	0.503
1045.999	600.703	80.005	19.995	103.092	19.925	1.960	0.509
1048.000	601.789	80.005	19.995	103.103	19.923	2.054	0.550
1049.999	602.744	80.004	19.995	103.101	19.921	2.221	0.502
1051.999	603.750	80.006	19.995	103.107	19.926	1.883	0.502
1053.999	604.799	80.006	19.995	103.095	19.925	1.937	0.524
1055.999	605.790	80.004	19.995	103.092	19.928	1.770	0.494
1057.999	606.807	80.007	19.995	103.096	19.922	2.128	0.523
1060.000	607.830	80.007	19.994	103.105	19.924	2.025	0.497
1061.999	608.831	80.007	19.996	103.101	19.925	1.923	0.507
1063.999	609.856	80.007	19.994	103.106	19.926	1.864	0.485
1065.999	610.911	80.006	19.994	103.091	19.926	1.846	0.514
1067.999	611.935	80.006	19.995	103.096	19.926	1.860	0.515
1070.000	612.947	80.003	19.994	103.092	19.922	2.119	0.489
1071.999	613.947	80.002	19.995	103.092	19.924	2.025	0.505
1073.999	614.960	80.003	19.995	103.106	19.918	2.361	0.469
1075.999	616.012	80.003	19.996	103.095	19.920	2.268	0.512
1077.999	617.041	80.001	19.996	103.085	19.922	2.107	0.510
1080.000	618.044	80.004	19.995	103.095	19.921	2.175	0.518
1082.001	619.054	80.003	19.996	103.094	19.918	2.393	0.511
1083.999	619.969	80.004	19.995	103.089	19.918	2.400	0.464
1085.999	621.021	80.004	19.995	103.097	19.919	2.318	0.511
1087.999	622.002	80.004	19.995	103.105	19.918	2.412	0.533
1089.999	622.998	80.005	19.994	103.106	19.921	2.184	0.517
1091.999	623.992	80.004	19.994	103.098	19.920	2.279	0.457
1093.999	624.975	80.004	19.994	103.097	19.920	2.277	0.473
1096.000	625.958	80.004	19.995	103.100	19.919	2.351	0.491
1097.999	626.997	80.004	19.995	103.101	19.920	2.293	0.499
1099.999	627.986	80.004	19.995	103.079	19.919	2.316	0.498
1101.999	628.999	80.003	19.994	103.102	19.920	2.284	0.509
1103.999	630.000	80.003	19.994	103.088	19.921	2.197	0.473
1105.999	631.020	80.003	19.994	103.104	19.920	2.259	0.484
1107.999	632.032	80.004	19.995	103.087	19.918	2.360	0.498
1109.999	633.041	80.005	19.996	103.104	19.922	2.158	0.528
1111.999	634.039	80.004	19.994	103.098	19.921	2.198	0.516
1113.999	635.092	80.005	19.996	103.076	19.919	2.354	0.516
1115.999	636.096	80.006	19.995	103.071	19.921	2.206	0.496
1118.000	637.169	80.006	19.994	103.079	19.922	2.103	0.506
1119.999	638.161	80.006	19.994	103.100	19.923	2.054	0.500
1122.000	639.129	80.006	19.994	103.093	19.923	2.083	0.465
1123.999	640.180	80.006	19.995	103.084	19.924	1.994	0.538
1126.001	641.174	80.007	19.994	103.077	19.923	2.069	0.495
1127.999	642.171	80.007	19.994	103.091	19.924	2.025	0.492
1129.999	643.194	80.006	19.994	103.092	19.924	1.989	0.522
1131.999	644.184	80.005	19.995	103.088	19.924	2.010	0.501
1133.999	645.189	80.005	19.994	103.098	19.924	2.027	0.517
1135.999	646.244	80.004	19.995	103.089	19.922	2.141	0.560
1137.999	647.257	80.006	19.994	103.080	19.922	2.129	0.505
1140.001	648.292	80.005	19.995	103.106	19.923	2.047	0.518
1142.000	649.260	80.007	19.994	103.104	19.928	1.728	0.492
1143.999	650.359	80.007	19.995	103.099	19.924	2.020	0.539
1145.999	651.346	80.007	19.995	103.091	19.926	1.853	0.518
1147.999	652.384	80.006	19.995	103.105	19.927	1.837	0.514
1149.999	653.417	80.005	19.995	103.108	19.927	1.790	0.527
1151.999	654.443	80.004	19.995	103.108	19.924	1.980	0.536
1153.999	655.528	80.004	19.995	103.111	19.927	1.776	0.501
1155.999	656.594	80.003	19.994	103.112	19.927	1.820	0.501
1157.999	657.617	80.004	19.994	103.113	19.927	1.813	0.502
1159.999	658.718	80.004	19.994	103.111	19.927	1.823	0.503
1161.999	659.772	80.003	19.995	103.111	19.927	1.829	0.548
1163.999	660.808	80.003	19.995	103.109	19.929	1.688	0.506
1165.999	661.872	80.004	19.995	103.109	19.927	1.786	0.529
1167.999	662.956	80.005	19.996	103.108	19.925	1.925	0.529
1170.000	663.967	80.005	19.996	103.106	19.922	2.136	0.521
1172.000	665.046	80.002	19.996	103.107	19.921	2.226	0.505
1173.999	666.089	80.005	19.996	103.099	19.917	2.429	0.511
1175.999	667.213	80.005	19.996	103.101	19.921	2.214	0.566
1177.999	668.262	80.003	19.996	103.100	19.920	2.242	0.552
1180.000	669.288	80.004	19.996	103.094	19.921	2.202	0.540
1181.999	670.344	80.005	19.995	103.086	19.919	2.305	0.543
1183.999	671.388	80.002	19.996	103.104	19.921	2.189	0.529
1185.999	672.403	80.004	19.995	103.105	19.922	2.101	0.491
1188.000	673.487	80.004	19.995	103.109	19.924	2.020	0.543
1190.000	674.578	80.005	19.994	103.108	19.921	2.214	0.536
1191.999	675.676	80.005	19.995	103.108	19.920	2.258	0.561
1193.999	676.702	80.006	19.995	103.108	19.918	2.385	0.511
1195.999	677.746	80.006	19.994	103.110	19.922	2.154	0.530
1198.000	678.828	80.004	19.994	103.109	19.919	2.337	0.535
1199.999	679.894	80.007	19.995	103.111	19.917	2.439	0.521
1201.999	680.986	80.006	19.995	103.108	19.918	2.416	0.543
1203.999	681.996	80.007	19.994	103.105	19.915	2.555	0.512
1205.999	683.047	80.005	19.994	103.110	19.916	2.502	0.510
1207.999	684.136	80.005	19.995	103.111	19.918	2.422	0.515
1210.000	685.178	80.006	19.994	103.106	19.920	2.291	0.509
1212.000	686.251	80.006	19.995	103.107	19.920	2.279	0.521
1213.999	687.296	80.005	19.994	103.109	19.916	2.541	0.514
1215.999	688.320	80.005	19.995	103.094	19.918	2.383	0.526
1217.999	689.401	80.004	19.994	103.110	19.919	2.321	0.457
1219.999	690.443	80.004	19.994	103.115	19.922	2.163	0.536
1221.999	691.496	80.007	19.994	103.110	19.919	2.307	0.521
1223.999	692.525	80.007	19.994	103.110	19.918	2.412	0.539
1225.999	693.522	80.007	19.993	103.091	19.920	2.244	0.517
1227.999	694.555	80.008	19.994	103.103	19.920	2.288	0.475
1229.999	695.587	80.007	19.994	103.109	19.923	2.082	0.517
1231.999	696.565	80.008	19.995	103.095	19.920	2.231	0.487
1233.999	697.591	80.005	19.994	103.092	19.919	2.303	0.482
1235.999	698.534	80.005	19.995	103.101	19.920	2.291	0.479
1238.000	699.509	80.006	19.995	103.105	19.919	2.318	0.502
1239.999	700.480	80.001	19.996	103.096	19.919	2.342	0.497
1242.001	701.458	80.006	19.996	103.107	19.919	2.330	0.498
1243.999	702.431	80.005	19.995	103.102	19.920	2.237	0.489
1246.001	703.417	80.003	19.996	103.098	19.918	2.372	0.482
1247.999	704.357	80.007	19.996	103.098	19.917	2.455	0.469
1249.999	705.340	80.004	19.995	103.100	19.919	2.349	0.488
1251.999	706.337	80.003	19.996	103.104	19.917	2.445	0.519
1254.001	707.309	80.002	19.995	103.108	19.919	2.358	0.537
1255.999	708.348	80.002	19.995	103.100	19.919	2.298	0.513
1257.999	709.314	80.005	19.995	103.102	19.920	2.260	0.491
1259.999	710.268	80.003	19.995	103.104	19.919	2.309	0.485
1261.999	711.240	80.004	19.995	103.106	19.918	2.423	0.490
1263.999	712.243	80.002	19.995	103.109	19.920	2.288	0.505
1265.999	713.200	80.005	19.995	103.104	19.916	2.496	0.474
1267.999	714.233	80.000	19.996	103.106	19.916	2.539	0.519
1270.000	715.250	80.004	19.996	103.100	19.916	2.536	0.499
1272.000	716.195	80.003	19.996	103.107	19.916	2.496	0.483
1273.999	717.202	80.002	19.996	103.108	19.918	2.374	0.496
1275.999	718.116	80.001	19.995	103.107	19.919	2.316	0.450
1278.000	719.193	80.002	19.995	103.103	19.914	2.636	0.491
1279.999	720.115	80.004	19.995	103.096	19.917	2.455	0.461
1281.999	721.133	80.005	19.995	103.098	19.917	2.462	0.502
1283.999	722.113	80.005	19.995	103.108	19.916	2.492	0.517
1285.999	723.102	80.006	19.993	103.095	19.919	2.324	0.506
1288.000	724.095	80.005	19.994	103.107	19.918	2.393	0.515
1290.000	725.094	80.007	19.994	103.100	19.919	2.305	0.504
1292.000	726.043	80.004	19.994	103.103	19.917	2.436	0.493
1293.999	727.073	80.003	19.994	103.105	19.915	2.555	0.505
1296.000	728.032	80.005	19.995	103.100	19.916	2.537	0.470
1297.999	729.071	80.006	19.995	103.084	19.914	2.655	0.501
1299.999	730.061	80.003	19.995	103.083	19.914	2.620	0.532
1301.999	731.106	80.004	19.996	103.096	19.915	2.617	0.538
1303.999	732.098	80.007	19.995	103.107	19.915	2.599	0.517
1305.999	733.118	80.008	19.995	103.102	19.916	2.518	0.493
1307.999	734.059	80.004	19.995	103.088	19.913	2.719	0.519
1309.999	735.060	80.007	19.994	103.096	19.911	2.833	0.528
1311.999	736.021	80.007	19.995	103.092	19.917	2.450	0.456
1314.000	737.015	80.006	19.994	103.093	19.914	2.634	0.468
1315.999	738.021	80.006	19.995	103.099	19.912	2.764	0.487
1317.999	739.008	80.007	19.994	103.097	19.915	2.615	0.487
1319.999	739.994	80.003	19.993	103.105	19.916	2.553	0.501
1321.999	740.985	80.005	19.994	103.100	19.915	2.603	0.470
1323.999	741.939	80.004	19.994	103.100	19.914	2.636	0.464
1325.999	742.983	80.004	19.995	103.088	19.915	2.569	0.508
1327.499	743.703	80.003	19.994	103.089	19.913	2.712	0.486