File: 01_Data/ABS/MCC/ABS_MCC_30K_min_211018_R1.txt
Sample ID:	C:\MCC\MCC Cal\Test\PlasticA_MCC_30K_min_211018_R1.txt
Sample Weight (mg):	4.78
Heating Rate (C/s):	0.5
Combustor Temp (C):	900
N2 Flow Rate (cc/min):	80
O2 Flow Rate (cc/min):	20
Calibration File:	C:\MCC\MCC Cal\Coeff1 JN10440_30_210304.txt.txt
T Correction Coefficients:	0	1.024463	0
Time Shift (s):	14
*
Time (s)	Temperature (C)	N2 flow rate (cc/min)	O2 flow rate (cc/min)	Flow Rate (cc/min)	Oxygen (%)	HRR (W/g)	Heating rate (C/s)
0.000	106.377	80.000	19.995	102.962	20.135	-0.225	-0.026
2.001	106.417	80.000	19.994	102.963	20.131	0.004	0.015
4.000	106.424	80.002	19.995	102.960	20.132	-0.037	0.023
6.000	106.418	80.000	19.995	102.961	20.132	-0.018	-0.010
8.000	106.427	80.000	19.995	102.962	20.129	0.147	0.019
10.000	106.427	80.004	19.994	102.972	20.130	0.092	0.006
12.001	106.397	80.002	19.992	102.970	20.131	0.026	-0.036
14.000	106.418	80.001	19.995	102.965	20.125	0.415	-0.018
16.001	106.419	80.001	19.994	102.975	20.122	0.643	0.052
18.000	106.440	80.001	19.994	103.011	20.120	0.758	-0.003
20.000	106.478	80.001	19.993	103.044	20.117	0.959	0.002
22.000	106.547	80.001	19.995	103.061	20.112	1.311	0.057
24.000	106.656	80.001	19.995	103.081	20.109	1.474	0.041
26.001	106.746	79.999	19.994	103.076	20.107	1.642	0.074
28.000	106.908	79.999	19.994	103.082	20.101	2.049	0.096
30.001	107.058	80.001	19.995	103.092	20.099	2.147	0.070
32.000	107.224	80.000	19.993	103.108	20.097	2.278	0.093
34.000	107.445	80.001	19.995	103.126	20.098	2.228	0.124
36.000	107.647	79.997	19.994	103.151	20.100	2.100	0.101
38.000	107.973	80.000	19.994	103.145	20.099	2.149	0.149
40.000	108.255	80.001	19.995	103.148	20.095	2.452	0.188
42.001	108.597	79.999	19.994	103.151	20.091	2.723	0.156
44.000	108.940	80.000	19.994	103.157	20.094	2.495	0.113
46.000	109.331	80.000	19.994	103.168	20.095	2.461	0.201
48.000	109.728	79.999	19.994	103.180	20.091	2.697	0.210
50.001	110.149	80.000	19.996	103.169	20.092	2.677	0.209
52.000	110.642	80.002	19.996	103.176	20.093	2.558	0.263
54.000	111.054	80.001	19.995	103.191	20.091	2.685	0.220
56.001	111.549	80.000	19.995	103.187	20.090	2.809	0.249
58.000	112.099	80.001	19.994	103.169	20.095	2.426	0.282
60.000	112.600	80.002	19.995	103.180	20.097	2.278	0.267
62.000	113.107	80.001	19.997	103.208	20.090	2.760	0.252
64.001	113.715	80.002	19.996	103.197	20.094	2.489	0.272
66.000	114.254	80.002	19.995	103.200	20.094	2.499	0.290
68.000	114.884	80.002	19.994	103.197	20.091	2.719	0.321
70.000	115.467	80.000	19.994	103.185	20.094	2.499	0.302
72.000	116.123	80.000	19.995	103.177	20.091	2.697	0.342
74.001	116.722	80.001	19.995	103.162	20.086	3.023	0.303
76.000	117.422	79.999	19.995	103.184	20.089	2.830	0.359
78.001	118.072	80.002	19.994	103.211	20.092	2.672	0.379
80.000	118.757	80.000	19.997	103.240	20.088	2.899	0.344
82.000	119.459	80.001	19.995	103.193	20.092	2.677	0.376
84.001	120.122	80.001	19.996	103.194	20.089	2.843	0.363
86.000	120.897	80.002	19.994	103.236	20.090	2.776	0.374
88.000	121.628	80.001	19.993	103.213	20.086	3.038	0.358
90.000	122.382	80.003	19.993	103.195	20.086	3.034	0.388
92.001	123.174	80.003	19.994	103.227	20.084	3.190	0.404
94.001	123.972	80.004	19.994	103.263	20.086	3.034	0.391
96.000	124.727	80.005	19.995	103.236	20.088	2.900	0.394
98.000	125.550	80.004	19.994	103.223	20.087	2.964	0.407
100.001	126.341	80.003	19.994	103.212	20.083	3.248	0.394
102.000	127.171	80.003	19.993	103.203	20.083	3.245	0.402
104.000	128.028	80.000	19.994	103.208	20.079	3.535	0.412
106.000	128.851	80.001	19.994	103.221	20.084	3.200	0.400
108.000	129.721	80.001	19.994	103.214	20.082	3.337	0.432
110.000	130.616	80.001	19.995	103.204	20.085	3.099	0.455
112.001	131.469	80.002	19.994	103.235	20.083	3.266	0.430
114.000	132.373	80.000	19.994	103.234	20.084	3.172	0.438
116.000	133.258	80.001	19.994	103.218	20.082	3.298	0.432
118.000	134.205	80.002	19.995	103.229	20.083	3.225	0.464
120.001	135.056	80.002	19.996	103.232	20.087	2.968	0.440
122.000	135.994	80.001	19.993	103.211	20.081	3.409	0.453
124.000	136.927	80.001	19.994	103.207	20.082	3.336	0.458
126.000	137.835	80.000	19.994	103.216	20.080	3.490	0.450
128.000	138.771	80.001	19.994	103.232	20.076	3.718	0.459
130.000	139.732	80.002	19.993	103.226	20.079	3.509	0.496
132.000	140.681	80.001	19.991	103.207	20.078	3.598	0.464
134.000	141.649	80.002	19.996	103.228	20.082	3.348	0.469
136.000	142.580	80.000	19.995	103.234	20.079	3.496	0.459
138.000	143.558	80.002	19.995	103.208	20.081	3.421	0.469
140.000	144.583	80.000	19.994	103.209	20.081	3.399	0.479
142.000	145.557	79.999	19.994	103.232	20.084	3.176	0.476
144.000	146.529	80.001	19.995	103.235	20.084	3.170	0.464
146.000	147.497	80.002	19.996	103.229	20.082	3.294	0.509
148.000	148.509	80.003	19.996	103.202	20.081	3.389	0.506
150.000	149.495	80.002	19.996	103.207	20.086	3.071	0.497
152.000	150.507	80.003	19.994	103.209	20.079	3.537	0.485
154.000	151.505	80.002	19.994	103.198	20.087	3.008	0.487
156.000	152.474	80.002	19.995	103.200	20.082	3.297	0.484
158.000	153.505	80.002	19.995	103.189	20.086	3.081	0.488
160.000	154.459	80.000	19.997	103.189	20.085	3.117	0.490
162.001	155.447	80.003	19.995	103.202	20.080	3.489	0.479
164.000	156.426	80.003	19.999	103.196	20.084	3.159	0.463
166.000	157.438	80.000	19.994	103.192	20.085	3.091	0.516
168.000	158.430	80.001	19.996	103.194	20.082	3.304	0.497
170.000	159.481	80.003	19.996	103.194	20.080	3.450	0.530
172.000	160.482	80.003	19.996	103.195	20.081	3.402	0.509
174.000	161.469	80.003	19.996	103.193	20.084	3.207	0.496
176.000	162.467	80.004	19.995	103.194	20.078	3.590	0.486
178.001	163.451	80.005	19.994	103.197	20.089	2.832	0.487
180.000	164.510	80.004	19.994	103.171	20.082	3.354	0.530
182.000	165.490	80.003	19.995	103.187	20.084	3.162	0.530
184.000	166.501	80.002	19.995	103.193	20.083	3.247	0.479
186.000	167.503	80.001	19.995	103.181	20.082	3.311	0.496
188.000	168.518	80.001	19.995	103.179	20.089	2.820	0.503
190.000	169.547	80.001	19.994	103.191	20.076	3.722	0.538
192.000	170.535	80.000	19.994	103.179	20.082	3.341	0.506
194.000	171.505	80.002	19.996	103.177	20.084	3.175	0.500
196.000	172.512	80.000	19.995	103.175	20.087	2.995	0.462
198.000	173.567	80.000	19.994	103.162	20.081	3.393	0.526
200.000	174.564	80.002	19.994	103.159	20.075	3.790	0.506
202.000	175.528	80.002	19.996	103.162	20.083	3.231	0.511
204.000	176.574	80.002	19.994	103.175	20.086	3.061	0.520
206.000	177.524	80.000	19.994	103.198	20.082	3.302	0.500
208.000	178.579	80.002	19.995	103.184	20.081	3.418	0.476
210.000	179.602	80.002	19.995	103.190	20.081	3.363	0.514
212.000	180.565	80.002	19.994	103.187	20.080	3.423	0.497
214.000	181.523	80.000	19.992	103.198	20.087	2.983	0.504
216.000	182.542	80.001	19.994	103.185	20.082	3.331	0.522
218.000	183.560	80.002	19.995	103.163	20.085	3.117	0.480
220.000	184.536	80.002	19.995	103.160	20.085	3.099	0.495
222.000	185.557	80.000	19.994	103.157	20.082	3.315	0.510
224.000	186.575	80.001	19.995	103.157	20.082	3.337	0.502
226.000	187.564	80.002	19.995	103.157	20.083	3.240	0.488
228.000	188.552	80.004	19.995	103.156	20.084	3.209	0.502
230.000	189.582	80.003	19.994	103.163	20.084	3.158	0.518
232.000	190.527	80.002	19.995	103.166	20.084	3.206	0.498
234.000	191.532	80.002	19.995	103.156	20.089	2.827	0.499
236.000	192.550	80.003	19.995	103.147	20.091	2.695	0.520
238.000	193.508	80.003	19.995	103.142	20.084	3.191	0.449
240.000	194.535	80.002	19.995	103.150	20.079	3.527	0.504
242.000	195.545	80.002	19.994	103.155	20.079	3.499	0.496
244.000	196.503	80.003	19.997	103.155	20.087	3.012	0.481
246.000	197.499	80.002	19.995	103.151	20.078	3.612	0.482
248.000	198.500	80.002	19.995	103.156	20.082	3.328	0.514
250.000	199.506	80.003	19.995	103.157	20.080	3.484	0.506
252.000	200.483	80.003	19.996	103.159	20.080	3.455	0.508
254.000	201.489	80.003	19.994	103.159	20.076	3.718	0.499
256.000	202.449	80.002	19.995	103.155	20.078	3.606	0.489
258.001	203.409	80.003	19.995	103.157	20.080	3.423	0.493
260.000	204.431	80.002	19.994	103.162	20.080	3.479	0.490
262.000	205.361	80.002	19.995	103.154	20.079	3.523	0.464
264.000	206.319	80.002	19.995	103.157	20.081	3.396	0.451
266.000	207.402	80.004	19.996	103.156	20.080	3.440	0.498
268.000	208.245	80.001	19.995	103.158	20.074	3.872	0.495
270.001	209.213	80.001	19.996	103.155	20.075	3.776	0.407
272.001	210.339	80.000	19.995	103.146	20.080	3.488	0.506
274.000	211.324	80.000	19.995	103.151	20.079	3.548	0.476
276.000	212.238	80.001	19.994	103.151	20.076	3.742	0.492
278.000	213.287	80.000	19.994	103.157	20.080	3.462	0.453
280.000	214.281	80.001	19.994	103.160	20.077	3.628	0.523
282.000	215.249	80.000	19.994	103.152	20.074	3.825	0.479
284.000	216.219	80.002	19.994	103.142	20.074	3.858	0.482
286.000	217.264	80.001	19.995	103.139	20.072	3.967	0.504
288.000	218.299	80.001	19.995	103.153	20.073	3.926	0.545
290.000	219.257	80.001	19.994	103.156	20.072	3.980	0.469
292.000	220.211	80.002	19.995	103.155	20.075	3.795	0.511
294.000	221.237	80.000	19.994	103.145	20.077	3.688	0.501
296.001	222.194	80.001	19.996	103.130	20.074	3.882	0.505
298.000	223.220	80.002	19.995	103.130	20.074	3.844	0.495
300.000	224.185	80.001	19.995	103.135	20.070	4.146	0.461
302.000	225.162	80.001	19.993	103.130	20.070	4.111	0.457
304.000	226.166	80.001	19.995	103.131	20.072	3.984	0.495
306.000	227.222	80.001	19.995	103.134	20.065	4.465	0.538
308.000	228.192	80.003	19.995	103.143	20.071	4.046	0.503
310.000	229.237	80.001	19.995	103.153	20.067	4.333	0.518
312.000	230.279	80.002	19.994	103.149	20.071	4.053	0.541
314.000	231.306	80.001	19.994	103.149	20.072	4.022	0.511
316.000	232.275	80.004	19.994	103.133	20.072	4.025	0.497
318.000	233.289	80.003	19.994	103.143	20.070	4.119	0.506
320.000	234.254	80.004	19.993	103.130	20.072	3.983	0.477
322.000	235.259	80.003	19.994	103.120	20.066	4.385	0.502
324.000	236.238	80.001	19.995	103.124	20.068	4.256	0.454
326.000	237.289	80.001	19.994	103.117	20.065	4.468	0.524
328.000	238.263	80.000	19.994	103.121	20.059	4.869	0.525
330.000	239.254	80.000	19.995	103.134	20.063	4.571	0.499
332.000	240.260	80.002	19.995	103.134	20.062	4.696	0.478
334.000	241.215	80.002	19.996	103.120	20.065	4.481	0.486
336.000	242.215	80.002	19.994	103.120	20.066	4.395	0.501
338.000	243.259	80.002	19.994	103.136	20.059	4.865	0.527
340.000	244.266	80.003	19.994	103.141	20.061	4.718	0.507
342.000	245.228	80.004	19.994	103.120	20.059	4.889	0.497
344.000	246.209	80.004	19.995	103.120	20.058	4.938	0.508
346.000	247.267	80.002	19.995	103.127	20.058	4.958	0.512
348.000	248.212	80.004	19.995	103.138	20.057	4.972	0.495
350.000	249.274	80.003	19.994	103.141	20.056	5.077	0.514
352.000	250.304	80.001	19.994	103.152	20.057	5.000	0.539
354.000	251.284	80.000	19.995	103.116	20.054	5.237	0.510
356.000	252.245	80.001	19.996	103.103	20.057	5.019	0.497
358.000	253.275	80.000	19.995	103.126	20.055	5.168	0.497
360.000	254.307	80.000	19.995	103.148	20.057	5.008	0.463
362.000	255.245	80.000	19.996	103.141	20.056	5.079	0.517
364.000	256.259	80.001	19.995	103.129	20.056	5.098	0.490
366.000	257.279	80.000	19.995	103.119	20.065	4.488	0.509
368.000	258.275	80.002	19.994	103.120	20.056	5.048	0.495
370.000	259.293	80.001	19.994	103.120	20.055	5.135	0.478
372.000	260.250	80.000	19.995	103.126	20.059	4.844	0.473
374.000	261.246	80.001	19.993	103.124	20.056	5.056	0.507
376.000	262.273	80.002	19.995	103.118	20.058	4.938	0.523
378.000	263.222	80.001	19.995	103.117	20.058	4.915	0.491
380.000	264.325	80.000	19.994	103.114	20.060	4.807	0.544
382.000	265.282	79.998	19.994	103.118	20.059	4.845	0.513
384.000	266.285	80.001	19.994	103.121	20.054	5.215	0.502
386.000	267.288	80.001	19.995	103.133	20.057	5.028	0.511
388.000	268.255	80.001	19.993	103.113	20.057	5.006	0.424
390.000	269.312	80.002	19.995	103.118	20.055	5.144	0.501
392.000	270.347	80.002	19.994	103.136	20.059	4.896	0.502
394.000	271.334	80.001	19.996	103.136	20.062	4.683	0.499
396.000	272.348	80.001	19.995	103.120	20.061	4.757	0.506
398.000	273.375	80.003	19.994	103.116	20.062	4.685	0.487
400.000	274.354	80.002	19.995	103.115	20.063	4.592	0.542
402.000	275.346	80.003	19.993	103.112	20.064	4.558	0.511
404.000	276.408	80.003	19.993	103.099	20.059	4.861	0.526
406.000	277.347	80.001	19.994	103.118	20.062	4.693	0.518
408.000	278.340	80.003	19.993	103.118	20.060	4.809	0.478
410.000	279.389	80.003	19.993	103.127	20.065	4.451	0.513
412.000	280.420	80.001	19.994	103.121	20.064	4.506	0.526
414.000	281.410	80.001	19.994	103.122	20.070	4.120	0.468
416.000	282.393	80.001	19.995	103.124	20.068	4.277	0.494
418.000	283.389	80.002	19.994	103.117	20.067	4.300	0.516
420.000	284.399	80.001	19.994	103.115	20.071	4.049	0.522
422.000	285.394	80.003	19.994	103.114	20.075	3.774	0.498
424.000	286.443	80.004	19.995	103.108	20.068	4.235	0.531
426.000	287.433	80.004	19.995	103.099	20.070	4.124	0.520
428.000	288.443	80.002	19.995	103.114	20.071	4.084	0.504
430.000	289.439	80.002	19.994	103.113	20.069	4.163	0.474
432.000	290.446	80.003	19.995	103.111	20.071	4.034	0.534
434.000	291.505	79.999	19.995	103.108	20.069	4.224	0.525
436.000	292.426	80.000	19.994	103.110	20.070	4.126	0.492
438.000	293.480	80.002	19.994	103.105	20.070	4.119	0.525
440.000	294.485	80.001	19.995	103.110	20.073	3.922	0.500
442.000	295.456	80.000	19.995	103.112	20.071	4.067	0.483
444.000	296.470	80.000	19.994	103.109	20.068	4.246	0.480
446.000	297.455	80.001	19.997	103.115	20.069	4.183	0.509
448.000	298.452	80.000	19.995	103.111	20.070	4.104	0.498
450.000	299.447	79.999	19.995	103.111	20.074	3.829	0.498
452.000	300.479	80.000	19.996	103.113	20.073	3.930	0.493
454.000	301.431	79.999	19.996	103.112	20.072	3.989	0.494
456.000	302.464	79.999	19.996	103.099	20.070	4.157	0.487
458.000	303.464	80.001	19.996	103.099	20.072	4.024	0.510
460.000	304.478	80.000	19.995	103.109	20.071	4.052	0.506
462.000	305.439	80.001	19.995	103.084	20.068	4.285	0.495
464.000	306.457	80.000	19.996	103.093	20.073	3.929	0.503
466.000	307.460	80.001	19.995	103.094	20.068	4.238	0.483
468.000	308.478	80.000	19.993	103.088	20.066	4.382	0.477
470.001	309.523	80.000	19.993	103.108	20.067	4.338	0.543
472.000	310.475	80.001	19.995	103.112	20.066	4.386	0.476
474.000	311.485	80.001	19.994	103.115	20.065	4.452	0.501
476.000	312.528	80.002	19.994	103.111	20.066	4.412	0.517
478.000	313.517	80.001	19.993	103.105	20.061	4.746	0.489
480.000	314.578	80.000	19.993	103.102	20.064	4.512	0.498
482.000	315.580	80.003	19.995	103.112	20.059	4.882	0.502
484.000	316.587	80.002	19.995	103.107	20.064	4.537	0.505
486.000	317.552	80.002	19.995	103.105	20.064	4.538	0.493
488.000	318.580	80.002	19.997	103.111	20.057	5.003	0.518
490.000	319.531	80.001	19.994	103.096	20.060	4.781	0.498
492.000	320.561	80.002	19.995	103.092	20.060	4.805	0.524
494.000	321.554	80.003	19.995	103.099	20.050	5.466	0.490
496.000	322.553	80.001	19.994	103.084	20.054	5.189	0.493
498.001	323.590	80.002	19.994	103.093	20.051	5.373	0.495
500.001	324.609	80.004	19.995	103.098	20.049	5.510	0.471
502.000	325.638	80.003	19.994	103.082	20.048	5.603	0.533
504.000	326.620	80.004	19.994	103.091	20.046	5.774	0.477
506.000	327.637	80.004	19.996	103.092	20.045	5.777	0.513
508.000	328.624	80.004	19.994	103.092	20.046	5.740	0.485
510.001	329.663	80.004	19.995	103.089	20.037	6.332	0.524
512.000	330.625	80.002	19.994	103.099	20.037	6.360	0.500
514.000	331.629	80.002	19.995	103.109	20.033	6.582	0.488
516.000	332.646	80.001	19.994	103.092	20.027	7.034	0.489
518.000	333.694	80.001	19.995	103.094	20.023	7.256	0.501
520.000	334.699	80.001	19.996	103.089	20.023	7.307	0.511
522.000	335.760	80.000	19.995	103.093	20.021	7.427	0.561
524.000	336.714	80.001	19.995	103.095	20.017	7.720	0.511
526.000	337.728	80.000	19.995	103.092	20.016	7.756	0.503
528.000	338.710	80.000	19.994	103.096	20.011	8.082	0.501
530.000	339.739	80.000	19.995	103.086	20.011	8.090	0.492
532.000	340.699	80.002	19.994	103.083	20.009	8.261	0.517
534.000	341.750	80.000	19.995	103.094	20.004	8.589	0.480
536.000	342.745	80.001	19.994	103.086	20.000	8.816	0.488
538.000	343.739	80.001	19.996	103.084	19.998	8.959	0.487
540.000	344.738	80.002	19.995	103.082	19.990	9.518	0.489
542.000	345.740	80.001	19.995	103.084	19.987	9.741	0.503
544.000	346.750	80.001	19.995	103.085	19.979	10.265	0.508
546.000	347.792	80.000	19.994	103.086	19.978	10.341	0.498
548.000	348.797	80.000	19.996	103.084	19.969	10.904	0.504
550.000	349.821	80.001	19.995	103.081	19.961	11.472	0.519
552.000	350.846	79.999	19.997	103.084	19.953	11.979	0.476
554.000	351.834	79.999	19.996	103.082	19.948	12.340	0.474
556.000	352.871	80.000	19.996	103.090	19.941	12.771	0.526
558.000	353.908	80.002	19.995	103.086	19.932	13.412	0.507
560.000	354.965	80.002	19.995	103.079	19.924	13.931	0.532
562.000	355.946	80.001	19.995	103.082	19.917	14.434	0.512
564.000	356.955	80.002	19.994	103.086	19.907	15.067	0.489
566.000	357.945	80.002	19.994	103.079	19.901	15.493	0.541
568.000	359.008	80.001	19.995	103.080	19.890	16.209	0.508
570.000	359.960	80.001	19.994	103.082	19.880	16.886	0.476
572.000	361.014	80.003	19.995	103.084	19.873	17.397	0.513
574.000	362.032	80.003	19.995	103.081	19.863	18.046	0.540
576.000	363.084	80.001	19.994	103.087	19.847	19.113	0.504
578.000	364.064	80.003	19.995	103.090	19.837	19.814	0.513
580.001	365.110	80.003	19.994	103.097	19.823	20.772	0.506
582.000	366.120	80.002	19.995	103.106	19.813	21.396	0.515
584.000	367.168	80.004	19.995	103.095	19.802	22.170	0.549
586.000	368.137	80.004	19.994	103.110	19.786	23.237	0.498
588.001	369.182	80.003	19.995	103.089	19.771	24.228	0.502
590.000	370.176	80.004	19.994	103.096	19.757	25.173	0.508
592.000	371.206	80.004	19.993	103.092	19.741	26.280	0.512
594.000	372.220	80.003	19.995	103.081	19.725	27.333	0.524
596.000	373.270	80.002	19.993	103.089	19.703	28.851	0.538
598.000	374.288	80.001	19.993	103.099	19.687	29.873	0.490
600.000	375.325	80.002	19.995	103.096	19.669	31.108	0.524
602.000	376.343	80.000	19.994	103.104	19.649	32.452	0.535
604.001	377.355	80.001	19.994	103.090	19.631	33.659	0.496
606.000	378.343	80.000	19.994	103.088	19.607	35.278	0.516
608.000	379.360	80.001	19.995	103.089	19.580	37.125	0.507
610.000	380.351	80.001	19.994	103.087	19.560	38.442	0.494
612.000	381.383	80.001	19.996	103.085	19.540	39.819	0.497
614.001	382.396	80.002	19.997	103.090	19.513	41.579	0.507
616.000	383.405	80.002	19.996	103.090	19.488	43.306	0.505
618.000	384.411	80.002	19.996	103.093	19.463	44.985	0.527
620.000	385.407	80.002	19.994	103.096	19.433	46.972	0.503
622.000	386.408	80.003	19.995	103.105	19.408	48.683	0.523
624.000	387.410	80.001	19.994	103.099	19.377	50.794	0.492
626.000	388.412	80.001	19.996	103.103	19.346	52.894	0.475
628.000	389.449	80.002	19.995	103.107	19.311	55.237	0.505
630.000	390.451	80.001	19.996	103.117	19.275	57.608	0.524
632.000	391.440	80.000	19.994	103.120	19.240	59.999	0.519
634.000	392.439	80.002	19.995	103.124	19.203	62.464	0.491
636.000	393.485	80.000	19.996	103.132	19.161	65.327	0.531
638.000	394.465	80.001	19.996	103.140	19.121	68.018	0.499
640.000	395.515	80.001	19.994	103.128	19.073	71.230	0.499
642.000	396.528	80.002	19.996	103.118	19.025	74.471	0.484
644.000	397.545	80.003	19.996	103.122	18.977	77.712	0.535
646.000	398.512	80.001	19.996	103.146	18.923	81.361	0.529
648.000	399.532	80.003	19.996	103.149	18.871	84.919	0.544
650.000	400.482	80.003	19.995	103.145	18.814	88.687	0.486
652.001	401.469	80.003	19.995	103.156	18.750	93.048	0.480
654.000	402.480	80.003	19.996	103.158	18.686	97.332	0.498
656.000	403.471	80.003	19.996	103.159	18.612	102.349	0.497
658.000	404.455	80.002	19.994	103.179	18.538	107.341	0.502
660.000	405.443	80.001	19.994	103.188	18.457	112.781	0.479
662.000	406.421	80.001	19.994	103.179	18.380	117.983	0.485
664.000	407.434	80.002	19.995	103.187	18.295	123.691	0.499
666.000	408.405	80.002	19.994	103.187	18.213	129.252	0.484
668.000	409.414	80.003	19.994	103.177	18.123	135.314	0.506
670.000	410.393	80.005	19.994	103.197	18.026	141.829	0.493
672.000	411.378	80.003	19.994	103.198	17.928	148.489	0.481
674.000	412.320	80.003	19.994	103.192	17.826	155.388	0.474
676.000	413.329	80.003	19.994	103.201	17.721	162.502	0.509
678.000	414.272	80.001	19.994	103.218	17.620	169.274	0.504
680.000	415.270	80.001	19.994	103.209	17.507	176.914	0.497
682.000	416.251	80.000	19.994	103.233	17.391	184.726	0.473
684.000	417.255	80.002	19.995	103.250	17.270	192.855	0.510
686.000	418.270	80.000	19.994	103.273	17.147	201.149	0.501
688.000	419.231	80.002	19.995	103.273	17.023	209.572	0.478
690.000	420.221	80.001	19.994	103.288	16.901	217.789	0.504
692.001	421.232	80.001	19.995	103.287	16.775	226.327	0.457
694.000	422.221	80.002	19.995	103.283	16.651	234.691	0.492
696.000	423.194	80.001	19.994	103.257	16.533	242.673	0.456
698.000	424.220	80.002	19.995	103.286	16.418	250.422	0.526
700.000	425.225	80.001	19.994	103.308	16.312	257.598	0.497
702.000	426.238	80.001	19.994	103.295	16.203	264.915	0.502
704.000	427.218	80.000	19.994	103.310	16.108	271.301	0.489
706.000	428.231	80.000	19.996	103.306	16.022	277.085	0.477
708.000	429.246	80.001	19.996	103.304	15.944	282.430	0.503
710.000	430.237	80.001	19.996	103.328	15.873	287.200	0.471
712.000	431.283	80.001	19.995	103.322	15.808	291.601	0.516
714.000	432.286	80.000	19.994	103.327	15.756	295.113	0.521
716.000	433.290	80.000	19.995	103.313	15.715	297.834	0.503
718.000	434.309	80.000	19.995	103.326	15.677	300.417	0.525
720.000	435.369	80.001	19.996	103.327	15.657	301.854	0.509
722.000	436.392	80.002	19.994	103.325	15.645	302.649	0.514
724.000	437.447	80.002	19.996	103.335	15.650	302.302	0.525
726.000	438.422	80.002	19.995	103.342	15.661	301.525	0.513
728.000	439.466	80.005	19.995	103.329	15.694	299.326	0.500
730.000	440.566	80.002	19.995	103.340	15.733	296.636	0.530
732.000	441.606	80.003	19.995	103.356	15.785	293.241	0.540
734.000	442.638	80.003	19.995	103.353	15.847	289.083	0.527
736.000	443.640	80.002	19.994	103.334	15.917	284.356	0.509
738.000	444.722	80.002	19.995	103.344	15.992	279.248	0.544
740.000	445.780	80.002	19.996	103.337	16.069	273.919	0.538
742.000	446.832	80.002	19.995	103.350	16.140	268.962	0.553
744.000	447.865	80.002	19.996	103.372	16.193	265.275	0.555
746.000	448.923	80.001	19.995	103.364	16.233	262.510	0.539
748.000	449.941	80.003	19.995	103.382	16.263	260.444	0.506
750.000	451.006	80.003	19.995	103.334	16.308	257.489	0.555
752.000	452.045	80.004	19.995	103.250	16.380	252.841	0.517
754.000	453.127	80.004	19.995	103.215	16.487	245.735	0.531
756.000	454.220	80.004	19.994	103.195	16.635	235.695	0.545
758.000	455.330	80.003	19.994	103.160	16.814	223.557	0.590
760.000	456.465	80.003	19.994	103.160	16.987	211.861	0.570
762.000	457.521	80.002	19.995	103.218	17.145	201.152	0.527
764.000	458.592	80.001	19.995	103.287	17.290	191.373	0.525
766.000	459.680	80.001	19.994	103.296	17.424	182.353	0.540
768.000	460.762	80.001	19.995	103.269	17.543	174.321	0.536
770.000	461.818	80.001	19.995	103.254	17.661	166.369	0.530
772.000	462.972	80.001	19.995	103.214	17.767	159.169	0.555
774.000	464.006	80.002	19.995	103.189	17.869	152.258	0.516
776.000	465.063	80.001	19.995	103.180	17.971	145.396	0.530
778.000	466.164	80.001	19.996	103.177	18.077	138.301	0.573
780.000	467.249	80.001	19.994	103.164	18.174	131.766	0.561
782.000	468.325	80.002	19.995	103.139	18.274	124.998	0.540
784.000	469.392	80.003	19.994	103.116	18.364	118.943	0.537
786.000	470.414	80.003	19.994	103.115	18.459	112.518	0.481
788.000	471.463	80.002	19.994	103.123	18.549	106.507	0.531
790.000	472.538	80.001	19.995	103.137	18.639	100.405	0.545
792.000	473.610	80.001	19.995	103.114	18.713	95.460	0.531
794.000	474.695	80.001	19.994	103.092	18.789	90.339	0.510
796.000	475.742	80.002	19.994	103.102	18.860	85.516	0.525
798.000	476.777	80.001	19.995	103.107	18.931	80.784	0.527
800.000	477.873	80.000	19.996	103.087	18.995	76.444	0.549
802.000	478.864	80.001	19.995	103.083	19.062	71.915	0.532
804.000	479.897	80.002	19.994	103.083	19.119	68.099	0.522
806.000	480.955	80.002	19.995	103.082	19.176	64.271	0.532
808.000	481.981	80.003	19.995	103.080	19.233	60.440	0.531
810.000	482.950	80.002	19.996	103.079	19.281	57.198	0.496
812.000	483.988	80.003	19.995	103.081	19.330	53.907	0.538
814.000	485.028	80.004	19.994	103.080	19.379	50.625	0.503
816.000	486.053	80.001	19.995	103.078	19.427	47.374	0.507
818.000	487.089	80.001	19.995	103.077	19.472	44.368	0.504
820.000	488.085	80.003	19.995	103.064	19.510	41.815	0.502
822.000	489.109	80.002	19.994	103.064	19.554	38.855	0.493
824.000	490.171	80.002	19.995	103.073	19.593	36.223	0.531
826.000	491.155	80.002	19.995	103.061	19.637	33.284	0.513
828.001	492.168	80.001	19.996	103.067	19.677	30.585	0.495
830.000	493.215	80.002	19.997	103.066	19.714	28.037	0.518
832.000	494.260	80.003	19.996	103.066	19.747	25.865	0.500
834.000	495.296	80.005	19.995	103.061	19.784	23.393	0.513
836.000	496.299	80.004	19.997	103.073	19.817	21.175	0.498
838.000	497.351	80.004	19.996	103.066	19.847	19.100	0.518
840.000	498.379	80.006	19.995	103.038	19.880	16.922	0.514
842.000	499.367	80.003	19.994	103.038	19.905	15.245	0.480
844.000	500.405	80.003	19.994	103.062	19.930	13.548	0.517
846.000	501.419	80.002	19.994	103.075	19.952	12.078	0.532
848.000	502.424	80.001	19.995	103.067	19.975	10.532	0.529
850.000	503.415	80.003	19.996	103.082	19.991	9.441	0.495
852.000	504.452	80.003	19.995	103.082	20.007	8.360	0.511
854.000	505.467	80.002	19.994	103.074	20.022	7.362	0.522
856.000	506.485	80.002	19.994	103.072	20.034	6.547	0.522
858.000	507.502	80.003	19.995	103.059	20.042	5.976	0.515
860.000	508.496	80.001	19.995	103.044	20.055	5.156	0.497
862.000	509.537	80.001	19.995	103.051	20.063	4.563	0.539
864.000	510.543	80.002	19.994	103.052	20.069	4.208	0.502
866.000	511.542	80.001	19.994	103.061	20.073	3.905	0.507
868.000	512.546	80.001	19.995	103.058	20.076	3.743	0.509
870.000	513.600	80.002	19.995	103.063	20.082	3.323	0.505
872.000	514.625	80.002	19.995	103.062	20.084	3.213	0.527
874.000	515.649	80.002	19.994	103.068	20.082	3.304	0.538
876.000	516.733	80.002	19.994	103.069	20.090	2.805	0.534
878.000	517.742	80.002	19.995	103.070	20.087	3.011	0.494
880.000	518.800	80.002	19.994	103.075	20.095	2.440	0.528
882.000	519.784	80.002	19.995	103.080	20.094	2.494	0.526
884.000	520.804	80.003	19.995	103.077	20.099	2.197	0.486
886.000	521.869	80.002	19.994	103.062	20.096	2.409	0.532
888.000	522.829	80.003	19.993	103.061	20.097	2.298	0.499
890.000	523.877	80.004	19.995	103.060	20.098	2.252	0.516
892.000	524.892	80.003	19.995	103.077	20.100	2.088	0.516
894.000	525.947	80.004	19.994	103.078	20.099	2.206	0.509
896.000	526.976	80.004	19.996	103.076	20.101	2.044	0.508
898.000	528.016	80.004	19.996	103.073	20.098	2.216	0.526
900.000	528.996	80.005	19.994	103.075	20.104	1.861	0.494
902.000	530.023	80.002	19.995	103.076	20.102	2.001	0.495
904.000	531.067	80.003	19.995	103.080	20.102	1.992	0.514
906.000	532.068	80.002	19.996	103.072	20.101	2.046	0.511
908.000	533.107	80.003	19.995	103.044	20.097	2.293	0.507
910.000	534.132	80.000	19.995	103.041	20.101	2.044	0.489
912.000	535.183	80.003	19.994	103.051	20.101	2.011	0.511
914.000	536.216	80.002	19.995	103.080	20.103	1.872	0.514
916.000	537.245	80.004	19.995	103.082	20.101	2.033	0.528
918.000	538.245	80.004	19.994	103.077	20.104	1.860	0.507
920.000	539.295	80.003	19.995	103.085	20.104	1.821	0.513
922.000	540.311	80.002	19.995	103.081	20.101	2.042	0.527
924.000	541.330	80.002	19.996	103.046	20.103	1.898	0.506
926.000	542.362	80.002	19.995	103.067	20.106	1.736	0.533
928.000	543.359	80.002	19.995	103.089	20.108	1.594	0.507
930.000	544.399	80.002	19.995	103.083	20.104	1.819	0.517
932.000	545.417	80.001	19.995	103.049	20.108	1.539	0.513
934.000	546.463	80.002	19.996	103.065	20.106	1.673	0.533
936.000	547.464	80.003	19.994	103.080	20.105	1.774	0.503
938.000	548.496	80.000	19.994	103.073	20.105	1.760	0.531
940.000	549.561	80.000	19.995	103.072	20.103	1.928	0.510
942.000	550.582	80.002	19.995	103.048	20.108	1.535	0.536
944.000	551.586	80.001	19.994	103.055	20.105	1.788	0.499
946.000	552.615	80.002	19.995	103.046	20.105	1.760	0.528
948.000	553.655	80.002	19.994	103.058	20.102	1.948	0.540
950.000	554.632	80.001	19.995	103.071	20.103	1.926	0.518
952.000	555.670	80.002	19.994	103.077	20.104	1.843	0.495
954.000	556.700	80.002	19.995	103.076	20.110	1.414	0.499
956.000	557.756	80.000	19.995	103.069	20.103	1.883	0.547
958.000	558.773	80.001	19.994	103.059	20.104	1.836	0.493
960.000	559.795	80.000	19.996	103.075	20.102	1.996	0.478
962.000	560.804	80.001	19.995	103.071	20.104	1.862	0.506
964.000	561.848	80.002	19.995	103.072	20.104	1.869	0.542
966.000	562.900	80.003	19.994	103.076	20.104	1.854	0.554
968.000	563.875	80.001	19.995	103.067	20.104	1.815	0.513
970.000	564.876	80.002	19.994	103.078	20.110	1.423	0.525
972.000	565.895	80.002	19.994	103.080	20.105	1.764	0.488
974.000	566.890	80.002	19.994	103.073	20.106	1.718	0.482
976.000	567.908	80.004	19.995	103.067	20.102	1.944	0.482
978.000	568.956	80.004	19.995	103.076	20.104	1.821	0.533
980.000	569.985	80.002	19.994	103.076	20.103	1.933	0.549
982.000	571.002	80.003	19.994	103.081	20.109	1.506	0.522
984.000	572.064	80.002	19.995	103.080	20.106	1.732	0.530
986.000	573.078	80.002	19.995	103.077	20.106	1.699	0.527
988.000	574.136	80.002	19.996	103.073	20.110	1.438	0.535
990.000	575.191	80.001	19.995	103.071	20.109	1.515	0.534
992.000	576.204	80.001	19.994	103.074	20.105	1.751	0.509
994.000	577.242	80.001	19.995	103.059	20.109	1.533	0.526
996.000	578.287	80.003	19.994	103.067	20.105	1.780	0.527
998.000	579.313	80.004	19.994	103.072	20.107	1.662	0.493
1000.000	580.325	80.003	19.994	103.072	20.108	1.585	0.541
1002.000	581.329	80.004	19.994	103.067	20.111	1.336	0.491
1004.000	582.392	80.004	19.994	103.057	20.106	1.682	0.522
1006.000	583.410	80.004	19.994	103.045	20.102	1.940	0.506
1008.000	584.447	80.003	19.995	103.041	20.107	1.664	0.550
1010.000	585.471	80.001	19.996	103.045	20.108	1.557	0.516
1012.000	586.474	80.001	19.996	103.071	20.105	1.758	0.495
1014.000	587.519	80.002	19.995	103.060	20.109	1.526	0.494
1016.000	588.575	79.999	19.996	103.051	20.107	1.668	0.520
1018.000	589.566	80.002	19.996	103.047	20.108	1.587	0.520
1020.000	590.602	80.001	19.996	103.054	20.104	1.806	0.534
1022.000	591.646	80.001	19.997	103.052	20.105	1.740	0.536
1024.000	592.684	80.002	19.995	103.047	20.108	1.566	0.524
1026.000	593.693	80.001	19.997	103.072	20.108	1.572	0.494
1028.000	594.796	80.002	19.995	103.071	20.109	1.517	0.558
1030.000	595.842	80.002	19.995	103.065	20.109	1.482	0.528
1032.000	596.846	80.002	19.994	103.072	20.110	1.421	0.522
1034.001	597.865	80.001	19.995	103.069	20.110	1.448	0.537
1036.001	598.892	80.002	19.995	103.061	20.110	1.421	0.527
1038.000	599.936	80.001	19.995	103.071	20.110	1.423	0.527
1040.000	600.980	80.000	19.994	103.081	20.110	1.452	0.516
1042.000	602.005	80.002	19.995	103.074	20.109	1.522	0.514
1044.000	603.039	79.999	19.994	103.067	20.110	1.401	0.559
1046.000	604.053	80.001	19.994	103.054	20.112	1.296	0.511
1048.000	605.078	80.001	19.995	103.055	20.110	1.465	0.505
1050.001	606.058	80.001	19.995	103.077	20.112	1.286	0.518
1052.001	607.090	80.003	19.994	103.080	20.109	1.507	0.525
1054.001	608.094	80.003	19.995	103.067	20.106	1.714	0.549
1056.000	609.106	80.003	19.994	103.062	20.108	1.555	0.504
1058.000	610.098	80.003	19.994	103.077	20.109	1.500	0.517
1060.000	611.153	80.003	19.995	103.061	20.109	1.517	0.530
1062.000	612.145	80.004	19.994	103.056	20.108	1.565	0.501
1064.000	613.209	80.002	19.994	103.060	20.109	1.502	0.515
1066.000	614.186	80.002	19.995	103.062	20.109	1.504	0.499
1068.000	615.199	80.003	19.994	103.064	20.111	1.336	0.544
1070.000	616.268	80.003	19.994	103.069	20.111	1.388	0.527
1072.000	617.275	80.003	19.996	103.061	20.106	1.694	0.528
1074.000	618.330	80.003	19.995	103.075	20.110	1.452	0.547
1076.001	619.315	80.004	19.994	103.055	20.109	1.517	0.516
1078.000	620.305	80.005	19.995	103.057	20.106	1.734	0.488
1080.001	621.343	80.004	19.995	103.056	20.110	1.443	0.502
1082.001	622.378	80.003	19.995	103.071	20.105	1.756	0.496
1084.000	623.392	80.005	19.995	103.067	20.107	1.642	0.493
1086.001	624.375	80.003	19.995	103.058	20.107	1.640	0.481
1088.000	625.406	80.004	19.995	103.054	20.108	1.572	0.485
1090.000	626.401	80.002	19.996	103.038	20.108	1.590	0.527
1092.000	627.397	80.001	19.995	103.041	20.109	1.504	0.472
1094.001	628.430	80.001	19.997	103.055	20.106	1.686	0.512
1096.001	629.419	80.002	19.995	103.043	20.107	1.651	0.475
1098.000	630.440	80.001	19.994	103.046	20.107	1.651	0.517
1100.000	631.469	80.001	19.995	103.055	20.104	1.808	0.525
1102.000	632.470	80.001	19.995	103.061	20.108	1.583	0.509
1104.001	633.530	80.000	19.995	103.057	20.110	1.441	0.550
1106.001	634.555	80.000	19.995	103.076	20.108	1.546	0.543
1108.000	635.557	79.999	19.995	103.078	20.108	1.535	0.491
1110.000	636.629	80.001	19.995	103.081	20.112	1.316	0.547
1112.000	637.656	80.000	19.995	103.078	20.110	1.401	0.554
1114.000	638.676	80.001	19.995	103.061	20.109	1.495	0.502
1116.000	639.749	80.002	19.995	103.067	20.109	1.489	0.569
1118.000	640.730	80.000	19.995	103.049	20.110	1.436	0.492
1120.000	641.781	80.000	19.995	103.068	20.109	1.502	0.528
1122.001	642.825	80.001	19.994	103.079	20.112	1.330	0.521
1124.000	643.856	80.001	19.994	103.073	20.111	1.349	0.537
1126.000	644.871	80.000	19.995	103.081	20.111	1.365	0.493
1128.001	645.893	80.001	19.994	103.082	20.107	1.627	0.523
1130.000	646.923	80.000	19.996	103.077	20.109	1.504	0.495
1132.000	647.938	80.001	19.994	103.062	20.107	1.615	0.481
1134.000	648.991	80.003	19.995	103.040	20.111	1.399	0.541
1136.001	650.040	80.003	19.996	103.045	20.105	1.799	0.533
1138.000	651.060	80.003	19.994	103.049	20.110	1.458	0.519
1140.000	652.097	80.004	19.994	103.054	20.108	1.544	0.524
1142.001	653.120	80.003	19.995	103.075	20.109	1.520	0.512
1144.000	654.167	80.002	19.995	103.073	20.108	1.559	0.526
1146.001	655.203	80.002	19.995	103.065	20.111	1.380	0.552
1148.000	656.225	80.002	19.995	103.063	20.111	1.356	0.492
1150.000	657.298	80.002	19.994	103.054	20.111	1.367	0.561
1152.000	658.328	80.002	19.994	103.072	20.108	1.594	0.501
1154.000	659.326	80.003	19.994	103.053	20.112	1.327	0.503
1156.000	660.377	80.003	19.994	103.053	20.109	1.469	0.504
1158.000	661.417	80.005	19.994	103.050	20.107	1.603	0.525
1160.001	662.444	80.004	19.994	103.045	20.111	1.360	0.512
1162.001	663.431	80.005	19.994	103.060	20.107	1.633	0.493
1164.000	664.503	80.005	19.995	103.052	20.109	1.526	0.492
1166.000	665.486	80.004	19.995	103.077	20.110	1.415	0.505
1168.001	666.506	80.005	19.994	103.077	20.111	1.398	0.522
1170.000	667.552	80.004	19.995	103.076	20.108	1.557	0.547
1172.001	668.536	80.002	19.995	103.055	20.109	1.524	0.502
1174.001	669.542	80.002	19.995	103.051	20.112	1.321	0.487
1176.000	670.586	80.001	19.996	103.075	20.109	1.489	0.503
1178.000	671.563	80.002	19.995	103.056	20.111	1.395	0.493
1180.001	672.598	80.001	19.996	103.047	20.110	1.415	0.482
1182.000	673.615	80.002	19.995	103.046	20.112	1.277	0.543
1184.000	674.606	80.002	19.994	103.058	20.111	1.347	0.532
1186.000	675.595	80.001	19.995	103.063	20.111	1.386	0.517
1188.001	676.656	80.000	19.994	103.038	20.109	1.505	0.534
1190.000	677.623	80.002	19.995	103.042	20.110	1.426	0.510
1192.000	678.659	80.001	19.994	103.045	20.107	1.620	0.534
1194.000	679.631	80.002	19.994	103.045	20.108	1.581	0.525
1196.001	680.676	80.001	19.996	103.044	20.104	1.839	0.513
1198.000	681.647	80.002	19.995	103.044	20.109	1.513	0.491
1200.001	682.640	80.001	19.995	103.049	20.112	1.306	0.490
1202.000	683.656	80.001	19.996	103.059	20.110	1.467	0.518
1204.001	684.669	80.000	19.996	103.072	20.107	1.645	0.512
1206.000	685.681	80.001	19.996	103.068	20.112	1.312	0.499
1208.001	686.668	79.999	19.997	103.052	20.109	1.484	0.480
1210.000	687.681	80.000	19.996	103.045	20.111	1.347	0.483
1212.001	688.704	80.002	19.995	103.041	20.109	1.506	0.515
1214.001	689.733	80.002	19.995	103.035	20.110	1.443	0.521
1216.000	690.759	80.004	19.994	103.057	20.112	1.299	0.511
1218.001	691.751	80.004	19.995	103.074	20.113	1.251	0.489
1220.000	692.767	80.004	19.995	103.074	20.111	1.354	0.515
1222.000	693.756	80.004	19.996	103.075	20.112	1.303	0.504
1224.001	694.823	80.004	19.994	103.055	20.110	1.428	0.508
1226.000	695.815	80.003	19.995	103.039	20.112	1.299	0.507
1228.000	696.851	80.003	19.995	103.039	20.108	1.565	0.526
1230.000	697.857	80.003	19.995	103.039	20.110	1.445	0.494
1232.000	698.863	80.003	19.996	103.041	20.108	1.546	0.499
1234.001	699.855	80.002	19.995	103.044	20.110	1.430	0.506
1236.001	700.879	80.001	19.994	103.053	20.108	1.585	0.516
1238.000	701.902	80.002	19.994	103.045	20.110	1.411	0.510
1240.000	702.883	80.003	19.995	103.073	20.111	1.380	0.494
1242.000	703.924	80.004	19.994	103.065	20.110	1.459	0.501
1244.000	704.950	80.004	19.995	103.046	20.109	1.518	0.516
1246.000	705.972	80.005	19.995	103.044	20.110	1.437	0.498
1248.000	706.969	80.004	19.995	103.045	20.109	1.524	0.510
1250.000	707.990	80.004	19.994	103.053	20.111	1.388	0.518
1252.000	709.019	80.003	19.994	103.045	20.109	1.476	0.507
1254.001	710.014	80.001	19.994	103.049	20.110	1.437	0.503
1256.000	711.037	80.002	19.994	103.047	20.108	1.537	0.506
1258.000	712.042	80.002	19.995	103.054	20.111	1.389	0.494
1260.001	713.034	80.000	19.994	103.050	20.108	1.564	0.509
1262.001	714.070	80.000	19.994	103.065	20.110	1.459	0.485
1264.001	715.065	80.001	19.995	103.065	20.109	1.500	0.530
1266.001	716.125	80.000	19.995	103.039	20.110	1.444	0.521
1268.001	717.137	80.001	19.995	103.052	20.106	1.682	0.528
1270.001	718.143	80.001	19.995	103.044	20.110	1.417	0.485
1272.000	719.168	80.002	19.995	103.042	20.106	1.701	0.505
1274.001	720.206	80.001	19.996	103.039	20.108	1.575	0.528
1276.000	721.209	80.001	19.996	103.037	20.107	1.625	0.548
1278.001	722.185	80.001	19.995	103.053	20.110	1.417	0.498
1280.001	723.226	80.003	19.996	103.060	20.108	1.559	0.502
1282.000	724.196	80.001	19.995	103.052	20.107	1.651	0.485
1284.000	725.258	80.001	19.995	103.041	20.106	1.675	0.508
1286.001	726.239	80.001	19.995	103.042	20.108	1.546	0.498
1288.000	727.277	80.000	19.996	103.047	20.107	1.666	0.527
1290.000	728.315	80.001	19.995	103.037	20.107	1.618	0.523
1292.000	729.313	80.001	19.996	103.044	20.104	1.865	0.513
1294.001	730.313	80.002	19.995	103.059	20.109	1.494	0.500
1296.000	731.318	80.000	19.997	103.042	20.107	1.618	0.505
1298.001	732.368	80.001	19.995	103.042	20.110	1.434	0.539
1300.000	733.368	80.004	19.996	103.039	20.106	1.727	0.518
1302.000	734.406	80.003	19.997	103.043	20.107	1.649	0.540
1304.000	735.359	80.002	19.996	103.044	20.106	1.697	0.512
1306.000	736.364	80.003	19.995	103.049	20.108	1.566	0.512
1308.000	737.356	80.001	19.995	103.048	20.109	1.476	0.481
1310.000	738.318	80.003	19.994	103.074	20.108	1.568	0.465
1312.000	739.402	80.002	19.996	103.056	20.103	1.883	0.495
1314.000	740.423	80.002	19.995	103.050	20.106	1.693	0.533
1316.000	741.425	80.003	19.995	103.032	20.106	1.673	0.517
1318.000	742.419	80.002	19.995	103.046	20.105	1.783	0.501
1320.000	743.446	80.003	19.995	103.040	20.108	1.555	0.525
1320.500	743.692	80.005	19.993	103.043	20.105	1.745	0.501