File: 01_Data/Black_PMMA/Cone/Black_PMMA_Cone_HF50Scan_221129_R4.csv
Names,Time,Stack TC,Smoke TC,Exh Press,Smoke Comp,Smoke Meas,CO Meter,CO2 Meter,O2 Meter,Sample Mass,Ext Coeff,Start Test,Flame Verif
Chan Gain,,500,500,1,1,1,1,1,1,1,1,1.0,1.0
Offset,,0,0,0.137569,0,0,0,0,0,0,0,0.0,0.0
Gain,,1,1,25.011,13.0852,15.0251,1,1,1,1.00088,1.05531,1.0,1.0
Units,sec,C,C,Pa,%,%,%,%,%,g,/m,,
Baseline,,41.3016,42.621,164.248,99.211,97.4879,0.00174427,0.0780764,20.9445,-447.113,0.162214,,
4,0.75,39.9652,41.5137,163.353,98.4761,96.7934,0.0017508,0.0881319,20.9335,157.839,0.159546,0.0,0.0
8,1.75,39.7713,41.0062,164.369,98.4833,96.8439,0.00167147,0.0881502,20.9335,157.789,0.155399,0.0,0.0
12,2.75,39.9189,41.1508,165.293,98.5049,96.7247,0.00158158,0.0882181,20.9328,157.839,0.168829,0.0,0.0
16,3.75,39.8718,41.5633,161.779,98.53125,97.2162,0.00150483,0.0884234,20.9323,157.799,0.124381,0.0,0.0
20,4.75,39.77,41.1858,165.411,98.5688,96.9924,0.00145669,0.0887281,20.9319,157.839,0.149239,0.0,0.0
24,5.75,39.802,41.1906,162.692,98.5716,97.0649,0.00142511,0.0891718,20.9311,157.839,0.14259,0.0,0.0
28,6.75,40.2958,41.2304,164.716,98.5892,96.9791,0.00140562,0.0896899,20.9304,157.829,0.15242,0.0,0.0
32,7.75,39.7935,41.4701,162.74,98.6215,97.6385,0.00140487,0.0902059,20.9299,157.789,0.0927303,0.0,0.0
36,8.75,39.9347,41.3727,163.414,98.6327,96.903,0.0014293,0.0906426,20.9296,157.829,0.163775,0.0,0.0
40,9.75,39.9607,41.2104,162.507,98.6542,97.196,0.00146808,0.0910016,20.9294,157.799,0.137851,0.0,0.0
44,10.75,40.0152,41.473,162.891,98.6542,96.8196,0.00149959,0.0910584,20.9293,157.809,0.173773,0.0,0.0
48,11.75,40.252,41.2952,163.778,98.6862,97.3221,0.00151563,0.0909681,20.9292,157.789,0.128845,0.0,0.0
52,12.75,39.8622,41.1469,166.848,98.697,97.1983,0.00151726,0.0908067,20.9293,157.809,0.141641,0.0,0.0
56,13.75,40.4885,41.5285,165.265,98.7113,97.3267,0.00151465,0.0906221,20.9295,157.799,0.130769,0.0,0.0
60,14.75,40.2764,41.0348,164.954,98.7289,96.7673,0.00150257,0.0903592,20.9296,157.789,0.185778,0.0,0.0
64,15.75,40.0623,41.2654,164.995,98.7341,97.318,0.00147272,0.0900653,20.9299,157.789,0.133732,0.0,0.0
68,16.75,40.3465,41.4694,165.148,98.7509,97.1094,0.00142671,0.0896553,20.9307,157.789,0.155171,0.0,0.0
72,17.75,40.2038,41.5258,161.987,98.7605,97.0186,0.00137945,0.0891313,20.9312,157.789,0.164729,0.0,0.0
76,18.75,40.025,41.0925,163.701,98.7788,97.2185,0.00134864,0.0885836,20.9315,157.779,0.147394,0.0,0.0
80,19.75,40.1515,41.4359,161.773,98.7996,97.5129,0.00134264,0.0880459,20.9317,157.779,0.121353,0.0,0.0
84,20.75,40.1569,41.7861,163.946,98.818,97.8407,0.00133709,0.0878738,20.9319,157.769,0.0920027,0.0,0.0
88,21.75,40.3098,41.4266,164.072,98.8379,97.1887,0.00152921,0.089741,20.9328,157.759,0.15577,0.0,0.0
92,22.75,40.1628,41.4696,158.577,98.8272,97.7357,0.00176898,0.0911159,20.9314,157.699,0.102803,0.0,0.0
96,23.75,40.6803,41.4022,158.994,98.8367,97.2795,0.00203897,0.102619,20.9213,157.679,0.147015,0.0,1.0
100,24.75,40.2779,41.3209,152.343,98.8503,97.644,0.00238075,0.123475,20.8785,157.619,0.113661,0.0,1.0
104,25.75,40.6721,41.6154,147.868,98.8447,95.8943,0.00273583,0.153222,20.8111,157.528,0.280527,0.0,1.0
108,26.75,41.5256,42.2906,148.851,98.8511,95.6517,0.00316535,0.198664,20.7378,157.388,0.30457,0.0,1.0
112,27.75,42.4362,42.9087,137.344,98.8579,94.9258,0.0035812,0.25532,20.6611,157.298,0.375721,0.0,1.0
116,28.75,42.1261,41.6509,139.788,98.8603,94.9602,0.00413443,0.321844,20.5821,157.168,0.372592,0.0,1.0
120,29.75,43.008,42.8938,133.055,98.8559,95.6123,0.00469899,0.387773,20.4882,157.018,0.308836,0.0,1.0
124,30.75,45.4377,43.9786,133.73,98.8539,94.0097,0.00525515,0.466161,20.3836,156.838,0.465123,0.0,0.0
128,31.75,47.3517,45.558,125.492,98.8479,94.1991,0.00573485,0.542815,20.2761,156.658,0.445932,0.0,0.0
132,32.75,49.3496,47.0685,125.879,98.8359,94.2055,0.00619353,0.616637,20.1733,156.448,0.444179,0.0,0.0
136,33.75,51.3465,48.6722,120.924,98.8391,92.8927,0.00659976,0.680827,20.0858,156.337,0.574385,0.0,0.0
140,34.75,53.6885,50.9195,131.101,98.8212,93.4994,0.00692328,0.742096,20.0095,156.137,0.512446,0.0,0.0
144,35.75,55.3418,53.3361,122.091,98.8108,92.6277,0.00722229,0.798414,19.9352,155.907,0.598179,0.0,0.0
148,36.75,57.2935,54.863,117.647,98.8068,92.9551,0.00750085,0.841834,19.8669,155.737,0.565143,0.0,0.0
152,37.75,60.1625,57.8794,126.596,98.794,93.2316,0.00777967,0.889753,19.8075,155.537,0.536452,0.0,0.0
156,38.75,62.3973,59.1493,124.288,98.7768,92.1783,0.00804008,0.932725,19.7411,155.347,0.640016,0.0,0.0
160,39.75,64.6554,61.1682,119.637,98.7701,92.082,0.00832496,0.972731,19.6867,155.126,0.649055,0.0,0.0
164,40.75,66.6024,62.6691,112.861,98.7513,92.287,0.00859865,1.00904,19.6384,154.896,0.626713,0.0,0.0
168,41.75,69.2137,65.6473,117.97,98.7301,91.8473,0.00890309,1.04195,19.5979,154.696,0.668943,0.0,0.0
172,42.75,71.1884,66.884,112.723,98.7197,92.5204,0.00916489,1.07196,19.569,154.466,0.600374,0.0,0.0
176,43.75,73.3193,69.5359,122.126,98.6882,91.4919,0.00935334,1.09751,19.5397,154.276,0.700896,0.0,0.0
180,44.75,74.9858,71.2699,123.535,98.679,90.8023,0.0095883,1.11987,19.5146,154.085,0.770074,0.0,0.0
184,45.75,77.1229,73.6886,120.582,98.6594,90.2167,0.00981749,1.14011,19.4917,153.845,0.828128,0.0,0.0
188,46.75,78.8706,75.7641,112.968,98.6383,90.6395,0.0100577,1.16063,19.4622,153.655,0.782863,0.0,0.0
192,47.75,80.6255,77.4526,117.24,98.6111,91.2402,0.0103,1.18326,19.4243,153.345,0.719168,0.0,0.0
196,48.75,82.4035,79.0763,117.793,98.588,89.3061,0.0105046,1.20835,19.3886,153.175,0.915332,0.0,0.0
200,49.75,84.5387,81.626,108.254,98.566,90.6588,0.0107148,1.23188,19.359,152.894,0.774111,0.0,0.0
204,50.75,86.378,83.2882,124.303,98.5428,89.3474,0.0108806,1.25147,19.3332,152.694,0.906818,0.0,0.0
208,51.75,88.4167,85.2904,120.714,98.5165,91.5657,0.0110277,1.27028,19.31,152.404,0.677309,0.0,0.0
212,52.75,90.1766,87.534,117.8,98.4941,91.961,0.0111689,1.28488,19.2915,152.184,0.635334,0.0,0.0
216,53.75,92.4064,89.9687,108.24,98.4717,91.5685,0.0113433,1.29681,19.2769,151.984,0.672827,0.0,0.0
220,54.75,93.6564,91.0012,112.554,98.4454,90.5845,0.0115023,1.30769,19.2636,151.743,0.770366,0.0,0.0
224,55.75,95.9109,93.067,113.581,98.4178,91.1324,0.0116156,1.31748,19.251,151.503,0.711947,0.0,0.0
228,56.75,97.5148,95.3421,110.122,98.4035,89.4602,0.0117,1.32713,19.2393,151.243,0.882038,0.0,0.0
232,57.75,98.9912,96.8574,109.681,98.3671,90.5276,0.0117681,1.33481,19.2285,151.003,0.768815,0.0,0.0
236,58.75,100.455,99.0691,114.44,98.3428,90.6739,0.0118373,1.34795,19.2118,150.763,0.751577,0.0,0.0
240,59.75,101.962,100.464,113.417,98.3272,88.8407,0.0119196,1.36472,19.1842,150.532,0.939185,0.0,0.0
244,60.75,103.542,102.496,118.822,98.2837,90.9513,0.0120192,1.38279,19.1581,150.292,0.717734,0.0,0.0
248,61.75,105.383,104.111,106.108,98.2601,90.4002,0.0121144,1.39951,19.1362,150.042,0.771782,0.0,0.0
252,62.75,106.832,106.054,109.484,98.2357,90.8408,0.0121972,1.4141,19.1197,149.812,0.724474,0.0,0.0
256,63.75,108.317,107.675,111.959,98.2054,89.4482,0.0122882,1.42586,19.1064,149.561,0.86462,0.0,0.0
260,64.75,110.055,109.65,124.422,98.1794,90.816,0.012412,1.43632,19.0948,149.321,0.72169,0.0,0.0
264,65.75,111.471,111.454,113.234,98.1451,90.6858,0.0125488,1.44444,19.0843,149.061,0.731734,0.0,0.0
268,66.75,112.835,113.188,111.818,98.1219,89.9925,0.0126969,1.45107,19.077,148.801,0.800593,0.0,0.0
272,67.75,113.951,114.52,110.729,98.0968,90.1512,0.0128386,1.45705,19.0702,148.581,0.781914,0.0,0.0
276,68.75,115.079,116.199,115.14,98.0696,90.1374,0.012938,1.46318,19.0634,148.33,0.780764,0.0,0.0
280,69.75,116.646,117.927,109.503,98.0481,90.8844,0.0129783,1.46807,19.0577,148.04,0.702332,0.0,0.0
284,70.75,117.78,119.324,117.661,98.0185,89.9513,0.0129792,1.47231,19.0529,147.84,0.795075,0.0,0.0
288,71.75,119.116,120.996,111.292,97.9966,90.0893,0.0129698,1.47525,19.0497,147.56,0.778809,0.0,0.0
292,72.75,120.412,122.475,113.411,97.9614,90.4368,0.0129458,1.47778,19.0469,147.35,0.739843,0.0,0.0
296,73.75,121.788,123.899,110.113,97.943,89.208,0.0129054,1.48143,19.041,147.079,0.864755,0.0,0.0
300,74.75,122.237,124.651,104.281,97.9255,90.1746,0.0128556,1.48622,19.0347,146.809,0.763332,0.0,0.0
304,75.75,123.941,127.123,114.743,97.9027,90.4047,0.0128182,1.49038,19.0298,146.599,0.737581,0.0,0.0
308,76.75,125.367,128.384,117.647,97.874,91.1132,0.0128158,1.49386,19.0264,146.249,0.662604,0.0,0.0
312,77.75,125.813,129.199,113.567,97.8544,90.944,0.0128672,1.49863,19.0213,146.068,0.677959,0.0,0.0
316,78.75,126.673,130.375,109.916,97.824,90.4364,0.0129533,1.50501,19.0123,145.808,0.7269,0.0,0.0
320,79.75,128.158,132.139,108.707,97.8001,89.7834,0.0130895,1.51255,19,145.588,0.79171,0.0,0.0
324,80.75,129.312,133.147,103.541,97.7841,90.2443,0.0132452,1.52028,18.9888,145.338,0.742807,0.0,0.0
328,81.75,130.277,134.737,113.354,97.7581,90.0462,0.0133907,1.52635,18.9814,145.048,0.760691,0.0,0.0
332,82.75,131.507,136.057,113.853,97.7358,88.235,0.0135063,1.53153,18.9734,144.797,0.946669,0.0,0.0
336,83.75,131.811,137.343,102.546,97.7166,88.1616,0.0135515,1.53644,18.9669,144.527,0.952554,0.0,0.0
340,84.75,133.114,138.406,112.294,97.7006,88.9915,0.0135102,1.54242,18.9597,144.217,0.864303,0.0,0.0
344,85.75,133.913,139.253,106.647,97.6887,89.4648,0.0134065,1.54917,18.9515,143.987,0.814074,0.0,0.0
348,86.75,134.74,140.913,113.529,97.6739,88.8219,0.0133035,1.55554,18.943,143.716,0.879432,0.0,0.0
352,87.75,135.705,141.823,116.023,97.6563,89.9577,0.0132228,1.56055,18.9361,143.466,0.760146,0.0,0.0
356,88.75,136.578,143.117,102.664,97.6511,90.225,0.0131848,1.56491,18.9299,143.226,0.732186,0.0,0.0
360,89.75,137.522,143.818,111.46,97.6252,89.3538,0.0131799,1.5718,18.9223,142.966,0.819545,0.0,0.0
364,90.75,138.056,144.924,106.714,97.6232,89.6229,0.0132131,1.57905,18.9142,142.735,0.791513,0.0,0.0
368,91.75,138.953,145.847,112.131,97.6104,89.8852,0.0132775,1.58498,18.908,142.455,0.76325,0.0,0.0
372,92.75,139.965,147.036,108.497,97.6,89.6505,0.0133225,1.58918,18.9026,142.215,0.786474,0.0,0.0
376,93.75,140.833,148.42,112.685,97.59,89.7119,0.0133248,1.59148,18.8975,141.935,0.779186,0.0,0.0
380,94.75,141.545,149.149,104.12,97.588,89.329,0.0133074,1.59498,18.8919,141.645,0.818589,0.0,0.0
384,95.75,142.163,149.931,103.859,97.578,89.3648,0.0133033,1.59997,18.8843,141.384,0.813935,0.0,0.0
388,96.75,142.887,150.936,108.023,97.5585,89.0502,0.0133307,1.60727,18.8743,141.144,0.84472,0.0,0.0
392,97.75,143.537,151.973,102.049,97.5545,88.8265,0.0134268,1.61654,18.8633,140.864,0.867631,0.0,0.0
396,98.75,144.496,153.081,108.398,97.5501,88.7348,0.0135332,1.62792,18.8513,140.624,0.876777,0.0,0.0
400,99.75,144.993,153.971,103.377,97.5525,89.7678,0.0136051,1.63819,18.8363,140.293,0.769854,0.0,0.0
404,100.75,145.912,155.052,109.892,97.5469,88.3689,0.0136321,1.64891,18.8232,139.993,0.914724,0.0,0.0
408,101.75,146.629,156.23,109.94,97.5589,89.1488,0.0136205,1.65769,18.8141,139.763,0.834515,0.0,0.0
412,102.75,147.359,157.178,111.881,97.5405,90.3768,0.0135923,1.66229,18.807,139.433,0.706135,0.0,0.0
416,103.75,148.077,158.317,109.403,97.5401,89.1461,0.0135675,1.66442,18.8023,139.182,0.83302,0.0,0.0
420,104.75,148.634,159.081,108.148,97.5397,88.887,0.0135654,1.66653,18.7993,138.952,0.859924,0.0,0.0
424,105.75,149.887,160.245,100.804,97.5401,89.0319,0.013602,1.66971,18.7941,138.652,0.844884,0.0,0.0
428,106.75,150.289,160.898,109.271,97.5377,89.0608,0.0136614,1.6745,18.7891,138.422,0.841654,0.0,0.0
432,107.75,150.617,161.405,115.692,97.5477,89.2699,0.0137509,1.67995,18.7815,138.141,0.820894,0.0,0.0
436,108.75,151.213,162.625,107.533,97.5505,89.5473,0.0138389,1.68584,18.7736,137.841,0.792437,0.0,0.0
440,109.75,151.924,163.37,106.873,97.5593,89.235,0.0139232,1.69203,18.7642,137.601,0.825605,0.0,0.0
444,110.75,152.958,164.967,105.78,97.5569,87.9635,0.013995,1.6993,18.7546,137.301,0.958231,0.0,0.0
448,111.75,153.442,164.751,111.996,97.5721,89.5156,0.0140588,1.70519,18.7476,137.04,0.797753,0.0,0.0
452,112.75,153.907,165.985,104.569,97.5665,89.9196,0.0141386,1.71079,18.7425,136.76,0.755542,0.0,0.0
456,113.75,154.413,166.87,104.405,97.5713,87.8576,0.014225,1.71908,18.7355,136.53,0.970749,0.0,0.0
460,114.75,155.353,167.84,97.22,97.58,89.8426,0.0143141,1.72861,18.7248,136.18,0.764764,0.0,0.0
464,115.75,155.734,168.704,101.702,97.5848,89.7793,0.0143822,1.73718,18.7146,135.909,0.77174,0.0,0.0
468,116.75,156.658,169.83,107.361,97.5908,88.4684,0.0144219,1.74347,18.7063,135.669,0.908474,0.0,0.0
472,117.75,157.474,170.531,112.999,97.5948,89.5679,0.0144361,1.74621,18.699,135.349,0.794509,0.0,0.0
476,118.75,158.482,171.077,112.957,97.6116,89.633,0.0144467,1.74796,18.6935,135.109,0.789372,0.0,0.0
480,119.75,158.435,172.268,108.149,97.6172,89.3166,0.0144494,1.75108,18.6893,134.788,0.822636,0.0,0.0
484,120.75,158.999,172.806,110.829,97.6308,90.8894,0.0144287,1.75464,18.6861,134.518,0.662336,0.0,0.0
488,121.75,159.386,173.917,106.835,97.6324,90.0764,0.0143871,1.75794,18.6824,134.228,0.745661,0.0,0.0
492,122.75,159.976,174.187,106.298,97.6455,89.4272,0.0143586,1.75859,18.6796,133.978,0.813878,0.0,0.0
496,123.75,161.123,175.294,99.8022,97.6539,90.2048,0.01435,1.75993,18.676,133.668,0.73452,0.0,0.0
500,124.75,160.868,175.833,105.237,97.6659,88.9425,0.0143581,1.76335,18.6715,133.367,0.866116,0.0,0.0
504,125.75,161.606,176.399,104.023,97.6795,89.1961,0.0144179,1.76664,18.6672,133.127,0.841049,0.0,0.0
508,126.75,162.713,177.474,96.7544,97.6994,88.4372,0.0144945,1.77065,18.6637,132.897,0.922035,0.0,0.0
512,127.75,163.055,178.161,116.291,97.7026,90.0191,0.0145867,1.77502,18.6598,132.587,0.758215,0.0,0.0
516,128.75,163.357,179.02,113.59,97.6994,88.9191,0.0146648,1.77877,18.654,132.356,0.871729,0.0,0.0
520,129.75,164.051,179.697,100.377,97.737,89.0548,0.0147341,1.7829,18.6481,131.996,0.861166,0.0,0.0
524,130.75,164.453,180.341,107.094,97.7338,89.4042,0.0148024,1.78688,18.64,131.726,0.824614,0.0,0.0
528,131.75,164.871,180.901,107.375,97.7362,88.6101,0.014859,1.79413,18.6295,131.446,0.907439,0.0,0.0
532,132.75,165.588,182.048,109.248,97.7398,89.2272,0.0149626,1.80245,18.6195,131.145,0.843527,0.0,0.0
536,133.75,166.047,182.558,102.842,97.7593,88.107,0.0150735,1.80958,18.6102,130.905,0.962331,0.0,0.0
540,134.75,166.843,183.34,107.678,97.7561,88.9081,0.0151581,1.81576,18.6024,130.565,0.878246,0.0,0.0
544,135.75,166.506,183.663,115.603,97.7685,87.3679,0.0151922,1.822,18.5953,130.335,1.04119,0.0,0.0
548,136.75,167.455,183.956,103.951,97.7893,88.9251,0.0151945,1.82845,18.5867,129.984,0.879617,0.0,0.0
552,137.75,168.384,185.175,96.8727,97.7789,89.5427,0.0151471,1.8347,18.5806,129.754,0.81456,0.0,0.0
556,138.75,168.106,185.711,98.6916,97.7765,88.7591,0.0150827,1.83984,18.5748,129.454,0.895704,0.0,0.0
560,139.75,169.016,186.261,100.862,97.7745,89.3634,0.0150293,1.84399,18.57,129.144,0.832698,0.0,0.0
564,140.75,169.135,186.262,102.208,97.7506,88.3877,0.0150004,1.84716,18.5663,128.843,0.932063,0.0,0.0
568,141.75,170.404,187.924,94.0112,97.7246,88.1914,0.0150125,1.85191,18.5598,128.523,0.950181,0.0,0.0
572,142.75,170.015,187.979,97.7238,97.6599,88.2322,0.0150733,1.86105,18.5405,128.263,0.939768,0.0,0.0
576,143.75,170.876,188.623,105.693,97.6431,88.6013,0.0151525,1.87466,18.5208,128.003,0.899532,0.0,0.0
580,144.75,171.507,189.302,100.825,97.6387,88.29,0.0152553,1.8872,18.505,127.692,0.931702,0.0,0.0
584,145.75,171.643,189.691,94.4661,97.6368,88.2419,0.0153408,1.8979,18.4937,127.372,0.936563,0.0,0.0
588,146.75,172.255,190.359,105.424,97.6427,88.865,0.015433,1.90683,18.4838,127.032,0.871989,0.0,0.0
592,147.75,172.684,191.154,104.483,97.6384,89.047,0.0155155,1.91427,18.4755,126.791,0.852629,0.0,0.0
596,148.75,174.036,192.363,97.8245,97.6439,88.2176,0.0156218,1.92162,18.4676,126.481,0.939794,0.0,0.0
600,149.75,173.424,192.154,100.511,97.6563,89.1153,0.0157385,1.92969,18.4565,126.111,0.847233,0.0,0.0
604,150.75,174.241,193.311,102.516,97.6495,89.2699,0.0158636,1.93944,18.443,125.891,0.830551,0.0,0.0
608,151.75,175.645,194.446,100.656,97.6523,87.7421,0.0159948,1.94884,18.4289,125.51,0.99062,0.0,0.0
612,152.75,175.461,194.48,106.469,97.6555,88.1373,0.016113,1.95796,18.4172,125.33,0.949316,0.0,0.0
616,153.75,176.395,195.128,100.759,97.6663,88.6729,0.0162551,1.96486,18.4095,124.99,0.894258,0.0,0.0
620,154.75,177.016,195.957,100.732,97.6587,87.5137,0.01635,1.96985,18.4031,124.65,1.01535,0.0,0.0
624,155.75,177.027,196.206,104.036,97.6583,89.7706,0.0163927,1.97623,18.3955,124.339,0.779606,0.0,0.0
628,156.75,177.474,197.125,97.2749,97.6583,88.6325,0.0164047,1.98221,18.3905,124.059,0.897714,0.0,0.0
632,157.75,178.544,197.838,98.6481,97.6547,89.6078,0.0164208,1.98667,18.3872,123.769,0.796067,0.0,0.0
636,158.75,178.696,198.696,99.3472,97.6587,88.4298,0.0164619,1.98797,18.3855,123.439,0.918943,0.0,0.0
640,159.75,179.316,198.752,103.896,97.6583,87.6838,0.0165446,1.98585,18.3847,123.148,0.997333,0.0,0.0
644,160.75,180.02,199.711,99.8197,97.6595,88.0685,0.0167586,1.98518,18.3847,122.818,0.95692,0.0,0.0
648,161.75,179.893,200.413,106.25,97.6571,88.7444,0.0169569,1.98473,18.3847,122.588,0.885922,0.0,0.0
652,162.75,180.622,200.775,104.242,97.6615,88.9306,0.0171182,1.99231,18.3803,122.277,0.866941,0.0,0.0
656,163.75,181.058,201.34,101.76,97.6543,87.6907,0.0172294,1.99677,18.3731,121.947,0.996229,0.0,0.0
660,164.75,181.28,201.881,92.6014,97.6567,88.9943,0.0172577,1.99882,18.3667,121.587,0.859854,0.0,0.0
664,165.75,181.901,202.511,95.724,97.6631,87.2019,0.0172522,2.00264,18.359,121.307,1.04881,0.0,0.0
668,166.75,182.215,203.175,97.9848,97.6579,88.4963,0.0171696,2.01473,18.3453,120.956,0.911911,0.0,0.0
672,167.75,182.589,203.34,104.177,97.6535,88.224,0.0170322,2.02551,18.3279,120.716,0.940029,0.0,0.0
676,168.75,183.787,204.608,99.9319,97.6511,89.1933,0.0168975,2.03831,18.3136,120.396,0.838647,0.0,0.0
680,169.75,183.961,204.81,107.64,97.6487,88.4963,0.0167919,2.04811,18.303,120.086,0.91104,0.0,0.0
684,170.75,184.738,205.724,108.162,97.6451,88.8132,0.0167457,2.05368,18.2945,119.775,0.877615,0.0,0.0
688,171.75,185.052,206.37,97.481,97.634,88.1176,0.0167836,2.05781,18.2889,119.465,0.949342,0.0,0.0
692,172.75,184.897,206.284,87.6226,97.6308,88.9709,0.0168629,2.0657,18.2781,119.145,0.859825,0.0,0.0
696,173.75,185.673,207.362,108.319,97.6244,88.578,0.0170493,2.07551,18.2647,118.844,0.900196,0.0,0.0
700,174.75,185.83,206.909,109.688,97.6144,88.3097,0.0172703,2.08711,18.2492,118.524,0.927325,0.0,0.0
704,175.75,186.455,208.068,96.7979,97.6156,88.7834,0.0175284,2.09841,18.2322,118.194,0.87792,0.0,0.0
708,176.75,186.908,208.667,94.5386,97.6076,88.9801,0.017816,2.10905,18.2197,117.854,0.856675,0.0,0.0
712,177.75,187.899,209.839,96.8674,97.5984,87.5683,0.0181472,2.11807,18.2087,117.483,1.00386,0.0,0.0
716,178.75,188.247,209.753,98.4176,97.6,88.3056,0.0184904,2.12729,18.1958,117.173,0.926395,0.0,0.0
720,179.75,188.768,211.1,107.317,97.602,89.2524,0.0187679,2.13856,18.1836,116.913,0.827853,0.0,0.0
724,180.75,189.782,211.814,95.0393,97.5856,87.958,0.018991,2.15105,18.17,116.542,0.961538,0.0,0.0
728,181.75,189.874,212.107,95.2561,97.5805,88.4858,0.0191339,2.16665,18.158,116.232,0.905668,0.0,0.0
732,182.75,190.108,212.712,93.8875,97.5852,88.1717,0.019205,2.1806,18.1426,115.912,0.939039,0.0,0.0
736,183.75,191.058,213.143,107.207,97.5705,88.7875,0.0192036,2.18929,18.132,115.592,0.873209,0.0,0.0
740,184.75,192.109,214.22,95.9148,97.5661,88.9278,0.0191241,2.19486,18.1232,115.261,0.858176,0.0,0.0
744,185.75,192.111,214.477,95.482,97.5625,88.3863,0.0189594,2.1961,18.1168,114.921,0.914378,0.0,0.0
748,186.75,192.274,215.047,98.4992,97.5573,88.2639,0.0187961,2.19775,18.1126,114.591,0.926716,0.0,0.0
752,187.75,193.236,215.964,98.8992,97.5585,87.8136,0.0185563,2.20041,18.1099,114.27,0.974176,0.0,0.0
756,188.75,193.621,216.052,99.4114,97.5445,88.7458,0.0183628,2.20444,18.1049,113.89,0.875099,0.0,0.0
760,189.75,193.614,216.682,93.7532,97.5337,87.8108,0.0182599,2.21074,18.0971,113.57,0.972116,0.0,0.0
764,190.75,194.089,217.138,106.933,97.5529,88.3106,0.0182438,2.21916,18.0857,113.36,0.921396,0.0,0.0
768,191.75,194.323,217.547,95.2195,97.5345,88.7192,0.018287,2.22883,18.0734,112.859,0.876925,0.0,0.0
772,192.75,194.795,218.088,108.064,97.5369,89.7536,0.0183717,2.23775,18.0643,112.639,0.769842,0.0,0.0
776,193.75,195.483,218.659,95.3507,97.5233,88.7421,0.0184468,2.24698,18.0519,112.289,0.873472,0.0,0.0
780,194.75,195.996,219.162,89.5239,97.5249,87.3211,0.0185517,2.25668,18.0388,111.898,1.02305,0.0,0.0
784,195.75,196.68,219.892,97.4261,97.521,89.2657,0.0186568,2.26472,18.0282,111.618,0.818783,0.0,0.0
788,196.75,196.989,220.402,96.072,97.5114,88.0924,0.0187475,2.27231,18.0179,111.278,0.940361,0.0,0.0
792,197.75,197.497,221.034,90.5047,97.513,87.6059,0.018807,2.2801,18.0083,110.958,0.991778,0.0,0.0
796,198.75,197.911,221.428,102.94,97.5134,88.9292,0.0188291,2.29007,17.9941,110.647,0.85303,0.0,0.0
800,199.75,198.36,222.464,95.0118,97.5118,88.2707,0.0188243,2.30282,17.978,110.287,0.921675,0.0,0.0
804,200.75,199.111,222.853,101.039,97.5102,88.5023,0.0188232,2.3185,17.9579,110.027,0.897271,0.0,0.0
808,201.75,199.67,223.572,103.613,97.5158,88.7352,0.0188276,2.3317,17.9407,109.656,0.873469,0.0,0.0
812,202.75,200.531,224.416,98.9091,97.515,87.5793,0.0189395,2.34118,17.9287,109.186,0.994778,0.0,0.0
816,203.75,200.991,224.847,91.7901,97.517,87.6646,0.0191268,2.3473,17.9184,108.946,0.985957,0.0,0.0
820,204.75,201.838,225.506,86.1395,97.5138,88.0107,0.0193444,2.35542,17.9093,108.485,0.94917,0.0,0.0
824,205.75,202.067,226.086,90.1467,97.5186,88.5743,0.0195167,2.36772,17.8951,108.265,0.89054,0.0,0.0
828,206.75,202.824,227.203,90.0101,97.519,87.9346,0.0196551,2.38071,17.8787,107.875,0.957672,0.0,0.0
832,207.75,203.55,227.649,97.4841,97.5285,88.6403,0.0197469,2.39083,17.8663,107.575,0.884589,0.0,0.0
836,208.75,203.954,228.111,94.0684,97.5229,88.9879,0.0198047,2.39937,17.8575,107.164,0.847832,0.0,0.0
840,209.75,204.273,229.025,91.626,97.5269,88.1048,0.0198402,2.40892,17.8459,106.834,0.940539,0.0,0.0
844,210.75,204.644,229.584,88.5896,97.5397,87.8287,0.0198611,2.4172,17.8368,106.534,0.9708,0.0,0.0
848,211.75,205.648,230.472,87.9805,97.5389,88.9824,0.0198614,2.42217,17.8308,106.173,0.84992,0.0,0.0
852,212.75,206.205,230.889,99.0541,97.5505,87.9965,0.0198549,2.42389,17.8269,105.803,0.954151,0.0,0.0
856,213.75,207.058,231.546,90.4772,97.5617,88.3886,0.019885,2.42325,17.8243,105.593,0.914062,0.0,0.0
860,214.75,207.5,232.459,84.4153,97.5665,86.5017,0.0199635,2.42363,17.8226,105.162,1.11427,0.0,0.0
864,215.75,207.893,232.846,96.9979,97.5836,87.8448,0.0201172,2.4263,17.819,104.852,0.973276,0.0,0.0
868,216.75,208.065,233.468,100.32,97.5868,87.7031,0.0202312,2.42984,17.8153,104.552,0.988522,0.0,0.0
872,217.75,208.455,233.784,91.1168,97.5912,88.3744,0.020354,2.43474,17.809,104.102,0.918355,0.0,0.0
876,218.75,209.218,234.723,88.5767,97.6036,86.0258,0.0204373,2.44009,17.8017,103.781,1.16887,0.0,0.0
880,219.75,209.611,235.362,104.915,97.6028,87.6939,0.0204888,2.44387,17.7928,103.401,0.991005,0.0,0.0
884,220.75,209.904,235.413,89.7185,97.6184,87.0639,0.0205311,2.4541,17.7751,103.031,1.05923,0.0,0.0
888,221.75,210.043,236.157,89.3873,97.6268,88.2258,0.0205676,2.47203,17.7521,102.67,0.9373,0.0,0.0
892,222.75,210.729,236.696,89.098,97.6531,87.7301,0.0206477,2.49069,17.7346,102.35,0.991953,0.0,0.0
896,223.75,211.578,237.339,93.2029,97.6499,88.0878,0.0207193,2.50331,17.7222,102.04,0.953988,0.0,0.0
900,224.75,212.41,237.927,89.5682,97.6663,88.0089,0.0207675,2.51017,17.714,101.609,0.963832,0.0,0.0
904,225.75,212.627,238.486,94.5791,97.6627,88.7605,0.0208058,2.5134,17.7086,101.239,0.884778,0.0,0.0
908,226.75,213.465,239.233,92.203,97.6891,88.6632,0.020858,2.51277,17.7051,100.949,0.89742,0.0,0.0
912,227.75,213.96,239.581,95.5301,97.6915,87.8883,0.0209221,2.51194,17.7027,100.578,0.978909,0.0,0.0
916,228.75,213.992,240.744,92.7228,97.7078,88.1029,0.0209703,2.51611,17.7012,100.258,0.957886,0.0,0.0
920,229.75,215.016,241.375,94.405,97.7258,87.6902,0.0210965,2.52489,17.6948,99.8678,1.00305,0.0,0.0
924,230.75,215.113,241.372,87.9775,97.7326,88.1928,0.0213127,2.53279,17.6859,99.5075,0.950793,0.0,0.0
928,231.75,215.914,242.323,97.5154,97.7434,88.0607,0.021621,2.53964,17.6787,99.1672,0.965687,0.0,0.0
932,232.75,216.366,242.974,99.593,97.7625,87.4816,0.0219515,2.54913,17.6669,98.8769,1.02858,0.0,0.0
936,233.75,216.168,243.293,91.2909,97.7729,87.4853,0.0223331,2.56424,17.6363,98.4966,1.02918,0.0,0.0
940,234.75,216.888,243.56,93.5502,97.7853,88.5271,0.0224992,2.5815,17.6193,98.1863,0.920765,0.0,0.0
944,235.75,218.247,244.423,92.8625,97.8081,89.0319,0.0226563,2.59798,17.6006,97.7459,0.870279,0.0,0.0
948,236.75,218.674,245.109,80.2012,97.8268,88.9113,0.0226614,2.61157,17.5915,97.2655,0.884602,0.0,0.0
952,237.75,219.079,246.327,89.5895,97.842,88.3033,0.0226545,2.61522,17.5813,96.9753,0.949559,0.0,0.0
956,238.75,219.124,246.409,93.209,97.86,88.1813,0.0226527,2.62051,17.5739,96.655,0.964054,0.0,0.0
960,239.75,220.589,248.051,97.6505,97.8831,88.9365,0.0226549,2.62397,17.5677,96.3447,0.887304,0.0,0.0
964,240.75,220.346,247.625,91.9335,97.8927,89.1043,0.0226434,2.62922,17.5612,96.0244,0.870758,0.0,0.0
968,241.75,221.436,248.751,93.025,97.9167,88.5981,0.0225837,2.63309,17.5551,95.6441,0.925765,0.0,0.0
972,242.75,221.584,249.27,90.4704,97.9355,88.7802,0.0224936,2.638,17.5503,95.2137,0.908539,0.0,0.0
976,243.75,222.37,250.197,87.7325,97.9494,87.1322,0.0223422,2.64421,17.5416,94.8434,1.08331,0.0,0.0
980,244.75,222.591,250.666,102.327,97.9738,89.0608,0.0221324,2.64927,17.5359,94.5331,0.882947,0.0,0.0
984,245.75,222.926,250.978,87.6241,97.9882,88.5055,0.0219532,2.65709,17.5284,94.0727,0.942202,0.0,0.0
988,246.75,223.188,251.649,89.3468,98.0149,87.9741,0.0218306,2.66722,17.5118,93.8025,1.00048,0.0,0.0
992,247.75,224.022,252.546,94.0509,98.0301,88.8283,0.0217698,2.67982,17.4955,93.3821,0.912461,0.0,0.0
996,248.75,224.508,252.844,87.7508,98.058,87.9791,0.021752,2.69016,17.4842,92.9417,1.00402,0.0,0.0
1000,249.75,225.342,254.186,91.7824,98.072,89.3854,0.0217214,2.69856,17.4767,92.7115,0.858542,0.0,0.0
1004,250.75,226.291,254.421,91.8297,98.1231,88.522,0.0216521,2.70436,17.4718,92.3512,0.953219,0.0,0.0
1008,251.75,225.952,254.12,93.4456,98.1279,87.7205,0.0215792,2.70644,17.4667,91.9408,1.03787,0.0,0.0
1012,252.75,226.5,254.584,89.1598,98.1479,88.4353,0.0214678,2.70686,17.4633,91.5104,0.964622,0.0,0.0
1016,253.75,227.234,255.954,86.1708,98.1675,88.6651,0.0213924,2.7091,17.4607,91.1701,0.94245,0.0,0.0
1020,254.75,227.684,256.796,88.0599,98.1994,88.3767,0.0214062,2.71244,17.4581,90.7798,0.975623,0.0,0.0
1024,255.75,227.515,256.415,89.2644,98.2154,89.152,0.0214979,2.72244,17.4486,90.4595,0.896267,0.0,0.0
1028,256.75,228.432,257.421,83.2597,98.2489,89.1433,0.021603,2.73438,17.434,89.9791,0.900332,0.0,0.0
1032,257.75,229.438,258.012,94.5791,98.2669,88.7073,0.0217824,2.73981,17.4231,89.7289,0.947419,0.0,0.0
1036,258.75,229.274,258.958,91.684,98.2944,88.6399,0.0219419,2.74571,17.4157,89.3385,0.957052,0.0,0.0
1040,259.75,229.836,259.082,81.866,98.3288,89.5702,0.022076,2.75008,17.4101,88.9382,0.86363,0.0,0.0
1044,260.75,230.624,259.924,93.0243,98.3535,88.2744,0.0221787,2.75669,17.3988,88.5979,1.00086,0.0,0.0
1048,261.75,230.908,260.265,85.0709,98.3831,88.1281,0.02225,2.7695,17.381,88.2576,1.01899,0.0,0.0
1052,262.75,231.387,260.84,90.5917,98.4075,88.9232,0.0223152,2.78483,17.3577,87.9273,0.938142,0.0,0.0
1056,263.75,231.805,261.368,96.4491,98.4254,89.4084,0.0223954,2.80204,17.3373,87.4969,0.889467,0.0,0.0
1060,264.75,232.429,262.087,103.467,98.469,89.9554,0.0224743,2.8167,17.3212,87.1066,0.837095,0.0,0.0
1064,265.75,233.151,262.856,86.8074,98.4873,88.4051,0.0225803,2.82701,17.3106,86.7162,0.999748,0.0,0.0
1068,266.75,233.705,263.48,84.7763,98.4969,88.4184,0.0226819,2.83369,17.3036,86.3459,0.999257,0.0,0.0
1072,267.75,234.13,264.196,84.6634,98.5289,88.7797,0.0228102,2.8366,17.299,85.9956,0.964506,0.0,0.0
1076,268.75,234.434,264.858,85.0465,98.5536,89.9393,0.0229831,2.83723,17.296,85.5152,0.846701,0.0,0.0
1080,269.75,235.039,265.558,81.0294,98.5788,88.6775,0.0231831,2.83851,17.2934,85.2349,0.979864,0.0,0.0
1084,270.75,235.441,265.877,87.5714,98.6103,90.3658,0.0233443,2.84033,17.2916,84.7845,0.808239,0.0,0.0
1088,271.75,236.019,266.977,83.291,98.6355,89.5285,0.023469,2.84228,17.2899,84.5043,0.89677,0.0,0.0
1092,272.75,236.562,267.427,97.2009,98.6415,89.1497,0.0235286,2.84404,17.2865,84.1039,0.936577,0.0,0.0
1096,273.75,237.114,267.956,86.6433,98.6634,89.4556,0.0235451,2.84794,17.2814,83.8137,0.906935,0.0,0.0
1100,274.75,237.553,268.591,90.5039,98.7018,89.4143,0.0235493,2.85166,17.2781,83.3633,0.914803,0.0,0.0
1104,275.75,238.024,268.763,87.2516,98.6986,89.7733,0.0235862,2.85703,17.2741,82.9429,0.877407,0.0,0.0
1108,276.75,238.384,269.708,81.2729,98.7245,89.1397,0.0236641,2.8646,17.2666,82.6427,0.945416,0.0,0.0
1112,277.75,238.698,270.33,75.5476,98.7309,89.4996,0.0237362,2.86992,17.2612,82.2123,0.908711,0.0,0.0
1116,278.75,239.216,270.727,83.7512,98.7569,89.1218,0.0238553,2.87208,17.2552,81.852,0.950306,0.0,0.0
1120,279.75,239.818,271.2,89.198,98.7637,90.0187,0.0239484,2.87285,17.2507,81.4616,0.858248,0.0,0.0
1124,280.75,240.003,271.386,88.4752,98.7677,89.6092,0.0239722,2.87599,17.2475,81.0813,0.900826,0.0,0.0
1128,281.75,240.624,271.924,95.1072,98.7828,89.8545,0.0238815,2.87862,17.2436,80.711,0.876942,0.0,0.0
1132,282.75,240.92,272.511,90.107,98.798,89.5069,0.0236515,2.88087,17.2405,80.3206,0.91424,0.0,0.0
1136,283.75,241.474,272.901,85.5091,98.8012,89.5785,0.0233428,2.88539,17.2334,79.9503,0.907145,0.0,0.0
1140,284.75,242.002,273.995,77.942,98.798,89.6193,0.0230511,2.89221,17.2275,79.5599,0.902629,0.0,0.0
1144,285.75,242.04,274.292,90.6963,98.802,89.6615,0.022837,2.89734,17.2235,79.1396,0.898646,0.0,0.0
1148,286.75,242.382,274.334,92.9823,98.812,89.6266,0.0227156,2.89862,17.221,78.7692,0.903181,0.0,0.0
1152,287.75,242.864,275.257,91.3092,98.8028,90.0764,0.0227024,2.89597,17.2249,78.469,0.855977,0.0,0.0
1156,288.75,243.394,275.571,89.3522,98.8036,88.9993,0.0227497,2.89187,17.2274,78.0886,0.96741,0.0,0.0
1160,289.75,243.406,275.995,80.75,98.7976,89.3313,0.0228768,2.8902,17.2303,77.6583,0.932383,0.0,0.0
1164,290.75,243.725,276.396,84.3993,98.7912,90.3534,0.0230368,2.8888,17.2339,77.2879,0.826473,0.0,0.0
1168,291.75,244.585,276.432,90.636,98.7864,90.3947,0.0232176,2.88484,17.2396,76.9176,0.821797,0.0,0.0
1172,292.75,244.74,277.07,84.0268,98.7884,88.9301,0.0234074,2.87751,17.2498,76.5473,0.973193,0.0,0.0
1176,293.75,245.024,277.69,91.8603,98.7533,88.8613,0.0235845,2.86973,17.2606,76.237,0.977061,0.0,0.0
1180,294.75,245.507,277.882,77.8427,98.7493,89.2676,0.0237318,2.862,17.2697,75.8867,0.934461,0.0,0.0
1184,295.75,245.94,278.45,91.3405,98.7241,89.0305,0.0238518,2.85544,17.2767,75.4163,0.956719,0.0,0.0
1188,296.75,246.271,279.031,92.2358,98.7014,89.4615,0.0239253,2.85073,17.2813,75.116,0.909877,0.0,0.0
1192,297.75,245.941,279.159,94.5905,98.6898,88.7898,0.0239423,2.84715,17.284,74.6957,0.978563,0.0,0.0
1196,298.75,246.559,279.566,86.1899,98.6778,89.2598,0.0239328,2.84165,17.2869,74.3053,0.928567,0.0,0.0
1200,299.75,246.424,279.366,97.3803,98.6622,88.5037,0.0238602,2.83446,17.2953,73.975,1.00586,0.0,0.0
1204,300.75,246.805,279.846,92.1664,98.6423,89.4441,0.0238096,2.82999,17.3008,73.5747,0.906136,0.0,0.0
1208,301.75,246.84,280.077,76.6513,98.6255,89.9944,0.0238014,2.82584,17.3068,73.2644,0.847789,0.0,0.0
1212,302.75,247.29,281.047,88.166,98.6135,87.853,0.023878,2.82497,17.3124,72.8841,1.06959,0.0,0.0
1216,303.75,247.291,280.628,90.5688,98.5888,88.8673,0.0240323,2.82413,17.3135,72.5538,0.961006,0.0,0.0
1220,304.75,247.318,280.709,88.6988,98.5792,88.0318,0.0242403,2.82441,17.3123,72.1234,1.04754,0.0,0.0
1224,305.75,248.123,281.468,89.2819,98.5476,89.545,0.0244472,2.82957,17.3046,71.7631,0.886815,0.0,0.0
1228,306.75,248.344,281.788,87.3486,98.53125,88.4528,0.0246351,2.83971,17.2942,71.3527,0.998884,0.0,0.0
1232,307.75,248.552,282.004,89.1491,98.5045,86.9584,0.024799,2.8504,17.281,71.0024,1.1541,0.0,0.0
1236,308.75,249.01,282.479,87.8218,98.4857,88.1167,0.0249517,2.8607,17.2686,70.6021,1.02985,0.0,0.0
1240,309.75,248.692,282.936,84.2191,98.461,85.9795,0.0250939,2.87581,17.247,70.2017,1.25481,0.0,0.0
1244,310.75,248.706,282.415,91.1062,98.4338,87.0864,0.0252309,2.89509,17.2208,69.8014,1.13384,0.0,0.0
1248,311.75,249.263,282.785,74.9927,98.4202,86.4673,0.0253455,2.91576,17.1869,69.421,1.1986,0.0,0.0
1252,312.75,249.713,283.599,90.6574,98.4043,86.9493,0.0254424,2.93566,17.1643,69.0907,1.14565,0.0,0.0
1256,313.75,250.458,284.072,82.6842,98.3907,86.6159,0.0255294,2.95048,17.1488,68.7204,1.17993,0.0,0.0
1260,314.75,250.667,284.423,89.5857,98.3787,88.0722,0.025609,2.96189,17.1341,68.29,1.02446,0.0,0.0
1264,315.75,250.909,285.015,82.3003,98.3575,87.3922,0.0256994,2.97305,17.116,67.8797,1.09422,0.0,0.0
1268,316.75,251.452,285.284,86.0105,98.3571,86.77,0.0258209,2.9875,17.0964,67.5594,1.16032,0.0,0.0
1272,317.75,252.2,286.156,78.0908,98.3555,88.9177,0.0259475,3.0049,17.0751,67.109,0.93383,0.0,0.0
1276,318.75,252.719,286.413,87.8035,98.3579,86.2147,0.0261102,3.0219,17.0571,66.7187,1.21983,0.0,0.0
1280,319.75,253.259,286.806,88.1653,98.4378,87.3427,0.0262871,3.03314,17.0444,66.3483,1.10701,0.0,0.0
1284,320.75,253.931,287.727,91.1313,98.5324,87.8489,0.0264347,3.04088,17.0359,65.948,1.06241,0.0,0.0
1288,321.75,254.139,288.376,79.5021,98.6043,86.2619,0.0265634,3.0517,17.0287,65.5676,1.23792,0.0,0.0
1292,322.75,254.462,288.506,81.1645,98.675,86.5742,0.0267143,3.06652,17.014,65.1973,1.2111,0.0,0.0
1296,323.75,255.089,289.138,85.1526,98.7501,86.5389,0.0268503,3.08396,16.9883,64.7669,1.22192,0.0,0.0
1300,324.75,255.545,289.945,74.6187,98.8407,88.2978,0.0269982,3.10308,16.9652,64.3666,1.04415,0.0,0.0
1304,325.75,256.386,290.465,81.9629,98.8811,87.5811,0.0271558,3.11652,16.9428,63.9662,1.12337,0.0,0.0
1308,326.75,256.832,291.58,75.9185,98.9478,86.6893,0.0273599,3.12858,16.9281,63.5659,1.22436,0.0,0.0
1312,327.75,257.021,291.897,90.0902,98.9941,84.8675,0.0274759,3.14634,16.9185,63.1755,1.4253,0.0,0.0
1316,328.75,257.575,292.797,71.2816,99.0504,88.0396,0.0274641,3.15625,16.9122,62.7352,1.09087,0.0,0.0
1320,329.75,258.584,293.146,95.8263,99.0903,86.3403,0.0273058,3.15434,16.9134,62.3648,1.27502,0.0,0.0
1324,330.75,258.539,293.146,86.5128,99.1159,88.0259,0.0270749,3.14072,16.9269,61.9845,1.09843,0.0,0.0
1328,331.75,259.193,293.788,82.4445,99.1382,88.5669,0.0268181,3.13019,16.9384,61.6442,1.04379,0.0,0.0
1332,332.75,259.215,294.231,82.43,99.1742,88.9778,0.0266036,3.12312,16.9478,61.2138,1.00431,0.0,0.0
1336,333.75,259.491,294.64,86.6364,99.1786,87.8993,0.0263885,3.11154,16.9604,60.8835,1.1176,0.0,0.0
1340,334.75,260.073,294.821,104.931,99.183,88.3285,0.02612,3.09441,16.9786,60.4331,1.07292,0.0,0.0
1344,335.75,260.058,295.504,88.4591,99.1933,88.9205,0.0258043,3.06805,17.0058,60.0828,1.01206,0.0,0.0
1348,336.75,260.441,296.298,84.6885,99.1834,88.0474,0.0254976,3.03844,17.0541,59.7325,1.10247,0.0,0.0
1352,337.75,259.936,296.061,89.6582,99.1778,88.2542,0.0252542,2.99956,17.1087,59.3121,1.08023,0.0,0.0
1356,338.75,259.93,295.741,84.9114,99.171,85.4893,0.0250895,2.9588,17.1606,58.9919,1.37425,0.0,0.0
1360,339.75,259.991,295.938,83.2895,99.1286,87.5619,0.0249605,2.91828,17.2111,58.6115,1.14855,0.0,0.0
1364,340.75,259.293,295.824,88.0034,99.0991,88.0864,0.0248247,2.87878,17.2623,58.3113,1.0905,0.0,0.0
1368,341.75,259.303,295.828,90.4673,99.0628,87.0474,0.0246017,2.83649,17.3305,57.961,1.19695,0.0,0.0
1372,342.75,258.607,295.205,96.7773,99.0132,87.6494,0.0242698,2.77248,17.3938,57.6907,1.12852,0.0,0.0
1376,343.75,258.1,295.12,85.6457,98.9785,87.8484,0.0238829,2.70024,17.4759,57.3504,1.10427,0.0,0.0
1380,344.75,257.313,294.483,93.8753,98.8982,87.6004,0.0233753,2.62407,17.5623,57.0702,1.12294,0.0,0.0
1384,345.75,256.158,293.475,98.9137,98.8419,86.9612,0.0228149,2.55561,17.6503,56.6698,1.18546,0.0,0.0
1388,346.75,255.173,292.005,95.25,98.7832,85.7832,0.0223397,2.5002,17.7338,56.3595,1.30621,0.0,0.0
1392,347.75,253.613,291.36,108.655,98.7014,86.9726,0.021647,2.42247,17.8214,56.1293,1.17107,0.0,0.0
1396,348.75,252.591,290.448,105.352,98.6682,86.0854,0.0209187,2.33795,17.9331,55.8291,1.26288,0.0,0.0
1400,349.75,250.971,288.645,101.833,98.6994,87.4568,0.0200718,2.24971,18.0398,55.6789,1.11949,0.0,0.0
1404,350.75,248.978,287.232,99.9487,98.7185,88.212,0.0191522,2.15075,18.1711,55.4087,1.04169,0.0,0.0
1408,351.75,248.206,285.769,108.98,98.7493,85.6314,0.0181855,2.04124,18.3448,55.1785,1.31943,0.0,0.0
1412,352.75,245.749,283.879,121.564,98.7876,88.1254,0.0171906,1.90464,18.5496,54.9984,1.05727,0.0,0.0
1416,353.75,243.211,281.44,113.226,98.8208,86.9662,0.0162969,1.74874,18.7554,54.8582,1.18294,0.0,0.0
1420,354.75,239.652,279.168,119.556,98.8603,89.1452,0.0151929,1.58556,18.9564,54.7081,0.957567,0.0,0.0
1424,355.75,237.232,276.226,125.107,98.893,89.6216,0.0140965,1.43785,19.17,54.6881,0.911293,0.0,0.0
1428,356.75,233.634,273.087,130.945,98.9426,90.3378,0.0130793,1.26998,19.3999,54.598,0.842241,0.0,0.0
1432,357.75,229.487,270.043,137.418,98.9849,94.5022,0.0121422,1.09769,19.6482,54.548,0.429013,0.0,0.0
1436,358.75,225.348,265.78,142.825,99.0288,95.9057,0.0113578,0.925823,19.8736,54.5279,0.296645,0.0,0.0
1440,359.75,221.217,262.382,141.78,99.0715,97.578,0.0106116,0.77036,20.0678,54.5279,0.140617,0.0,0.0
1444,360.75,217.039,258.198,147.632,99.1175,97.3666,0.0101406,0.633708,20.2046,54.5179,0.164983,0.0,0.0
1448,361.75,212.407,254.264,146.538,99.1546,97.5509,0.00948265,0.518113,20.3581,54.5379,0.150943,0.0,0.0
1452,362.75,207.902,249.069,149.409,99.2057,97.7288,0.00888608,0.424812,20.4881,54.5379,0.138846,0.0,0.0
1456,363.75,202.487,244.321,148.914,99.2477,97.666,0.00833641,0.368672,20.5962,54.558,0.14871,0.0,0.0
1460,364.75,198.207,239.645,144.161,99.2752,98.0356,0.00777095,0.302297,20.6823,54.578,0.116316,0.0,0.0
1464,365.75,194.477,235.956,146.764,99.3207,97.5592,0.00729878,0.252507,20.7438,54.5279,0.165655,0.0,0.0
1468,366.75,191.028,232.094,151.929,99.3531,97.9558,0.00670234,0.215312,20.7892,54.5279,0.131111,0.0,0.0
1472,367.75,187.33,228.104,146.996,99.3738,98.0333,0.00608011,0.187273,20.8217,54.5279,0.125725,0.0,0.0
1476,368.75,184.54,224.583,147.713,99.4122,97.5468,0.00549682,0.166066,20.8461,54.5279,0.175349,0.0,0.0
1480,369.75,180.372,220.852,148.37,99.4277,97.7642,0.00494581,0.151113,20.8652,54.5279,0.156197,0.0,0.0
1484,370.75,177.631,217.519,145.257,99.4541,97.6679,0.00447419,0.138768,20.8807,54.5379,0.167773,0.0,0.0
1488,371.75,174.804,214.35,152.991,99.4733,97.954,0.0040323,0.128734,20.8941,54.5179,0.142477,0.0,0.0
1492,372.75,172.444,210.812,149.038,99.4733,98.1493,0.00363929,0.121015,20.9047,54.5279,0.124035,0.0,0.0
1496,373.75,168.9,207.408,150.12,99.4892,97.6362,0.0033031,0.115035,20.9136,54.5379,0.174042,0.0,0.0
1500,374.75,166.11,204.519,148.046,99.4864,98.1356,0.00304423,0.110121,20.9202,54.5379,0.126559,0.0,0.0
1504,375.75,163.38,201.682,149.725,99.4984,97.7298,0.00282857,0.106071,20.9254,54.5179,0.166032,0.0,0.0
1508,376.75,161.39,197.986,149.414,99.4916,97.8829,0.00265657,0.102832,20.9296,54.5279,0.150906,0.0,0.0
1512,377.75,159.279,195.597,149.018,99.4789,98.1649,0.0025127,0.100126,20.9331,54.5279,0.123086,0.0,0.0
1516,378.75,156.876,193.239,149.157,99.4649,97.6977,0.0023893,0.0975323,20.9362,54.5179,0.165952,0.0,0.0
1520,379.75,154.698,190.203,151.555,99.4433,97.489,0.00228563,0.0952689,20.9388,54.5279,0.183734,0.0,0.0
1524,380.75,152.234,187.462,150.61,99.4122,97.4675,0.00219389,0.0933755,20.9405,54.5379,0.18288,0.0,0.0
1528,381.75,150.07,184.942,144.55,99.3874,97.4918,0.002114,0.091872,20.9421,54.5079,0.178267,0.0,0.0
1532,382.75,147.507,182.111,149.741,99.3634,98.0562,0.00203332,0.090554,20.9435,54.5279,0.122593,0.0,0.0
1536,383.75,145.384,179.642,151.19,99.3079,97.4028,0.00195934,0.0893937,20.9446,54.5279,0.179312,0.0,0.0
1540,384.75,143.803,177.003,149.776,99.282,97.7623,0.00189568,0.0884499,20.9459,54.5279,0.142791,0.0,0.0
1544,385.75,142.851,175.012,146.621,99.2265,97.9783,0.00184893,0.0874996,20.9468,54.4879,0.117187,0.0,0.0
1548,386.75,140.722,172.239,150.578,99.1802,97.5647,0.00182564,0.086596,20.9476,54.4979,0.152023,0.0,0.0
1552,387.75,138.756,170.483,149.301,99.1251,97.8421,0.00181634,0.0857995,20.9487,54.5079,0.120594,0.0,0.0
1556,388.75,137.375,168.097,147.752,99.0532,97.3414,0.00183251,0.0851497,20.9494,54.5379,0.161374,0.0,0.0
1560,389.75,135.701,166.349,154.334,98.9993,97.6353,0.00187143,0.0845961,20.9495,54.5279,0.128426,0.0,0.0
1564,390.75,134.259,164.206,150.968,98.9394,97.583,0.00192704,0.0841527,20.9486,54.5079,0.12778,0.0,0.0
1568,391.75,132.217,162.205,148.335,98.8675,97.5835,0.00198092,0.0838402,20.948,54.5179,0.12101,0.0,0.0
1572,392.75,131.101,159.918,150.432,98.81,96.6816,0.00200512,0.0833554,20.9476,54.5079,0.201582,0.0,0.0
1576,393.75,129.266,157.938,147.972,98.7405,97.4478,0.00199202,0.0829171,20.9473,54.5179,0.121997,0.0,0.0
1580,394.75,127.962,156.335,153.839,98.6658,97.5784,0.00195445,0.082477,20.9471,54.5379,0.102587,0.0,0.0
1584,395.75,126.95,154.211,150.495,98.6071,96.765,0.00190173,0.0820856,20.9475,54.5079,0.174569,0.0,0.0
1588,396.75,125.25,152.706,154.279,98.5344,96.748,0.00184482,0.0817018,20.948,54.4979,0.169368,0.0,0.0
1592,397.75,123.95,150.93,152.309,98.463,96.5371,0.0017815,0.0813636,20.9489,54.4979,0.182853,0.0,0.0
1596,398.75,123.316,149.341,148.048,98.4011,96.6949,0.00174087,0.0810696,20.9496,54.5179,0.16192,0.0,0.0
1600,399.75,121.263,147.405,149.02,98.33,96.5357,0.00169817,0.080775,20.9502,54.5079,0.170475,0.0,0.0
1604,400.75,120.317,145.904,151.533,98.2533,96.6875,0.00166945,0.0804867,20.9506,54.5179,0.148711,0.0,0.0
1608,401.75,118.971,144.474,151.442,98.1786,96.2593,0.00165377,0.0802524,20.9509,54.5279,0.182768,0.0,0.0
1612,402.75,117.95,142.183,150.665,98.1179,96.2134,0.00165238,0.0799087,20.9511,54.4979,0.181453,0.0,0.0
1616,403.75,116.521,140.849,150.592,98.0576,96.2134,0.0016427,0.0796831,20.9512,54.4979,0.175763,0.0,0.0
1620,404.75,116.122,139.87,149.972,98.0005,95.9241,0.00160819,0.0795212,20.9513,54.4979,0.198251,0.0,0.0
1624,405.75,114.995,138.21,149.539,97.9502,96.0502,0.00153764,0.0794035,20.9514,54.4979,0.181335,0.0,0.0
1628,406.75,113.617,136.825,150.162,97.8959,96.3633,0.00146947,0.079301,20.9514,54.5079,0.146068,0.0,0.0
1632,407.75,112.712,134.867,148.986,97.8632,95.9277,0.0014579,0.0792336,20.9514,54.5079,0.184912,0.0,0.0
1636,408.75,111.553,133.421,150.714,97.7981,96.0914,0.00147716,0.0792149,20.9514,54.4879,0.162969,0.0,0.0
1640,409.75,110.759,132.346,152.236,97.741,95.881,0.00160353,0.0791425,20.9514,54.4979,0.17786,0.0,0.0
1644,410.75,109.887,130.675,151.081,97.7078,95.7462,0.00171962,0.0790589,20.9514,54.4979,0.187745,0.0,0.0
1648,411.75,108.598,129.592,152.899,97.6567,95.8869,0.00181584,0.0789987,20.9514,54.4979,0.169302,0.0,0.0
1652,412.75,107.839,127.806,153.72,97.6248,95.9277,0.00186666,0.0789311,20.9514,54.4979,0.162333,0.0,0.0
1656,413.75,107.405,126.626,149.688,97.6016,95.693,0.00187255,0.078836,20.9504,54.5079,0.18282,0.0,0.0
1660,414.75,106.319,125.299,151.094,97.5761,95.8709,0.00181758,0.0787508,20.9498,54.4879,0.163201,0.0,0.0
1664,415.75,105.482,123.92,148.695,97.5657,95.953,0.00174205,0.078715,20.9493,54.4979,0.154294,0.0,0.0
1668,416.75,104.331,122.815,150.089,97.5465,95.6338,0.0016452,0.0786568,20.949,54.5079,0.183315,0.0,0.0
1672,417.75,104.265,122.383,149.691,97.5289,95.6118,0.00155667,0.0785679,20.9488,54.4979,0.183778,0.0,0.0
1676,418.75,102.994,120.493,153.823,97.5257,96.1176,0.00149178,0.0784988,20.9487,54.4979,0.134637,0.0,0.0
1680,419.75,102.35,119.701,150.219,97.5217,95.6939,0.00145002,0.0784535,20.9486,54.5079,0.175153,0.0,0.0
1684,420.75,101.477,118.347,149.248,97.5205,95.7292,0.00142834,0.0784164,20.9486,54.5379,0.171623,0.0,0.0
1688,421.75,100.799,117.547,151.29,97.5337,95.9025,0.00143236,0.0783666,20.9485,54.5179,0.15613,0.0,0.0
1692,422.75,99.753,116.308,148.933,97.5521,95.6265,0.00144973,0.0783233,20.9485,54.548,0.184556,0.0,0.0
1696,423.75,99.751,115.463,151.983,97.5713,96.1543,0.00147847,0.078313,20.9485,54.5379,0.135425,0.0,0.0
1700,424.75,98.9987,114.236,153.845,97.5868,96.1611,0.00151734,0.0783049,20.9485,54.5179,0.136241,0.0,0.0
1704,425.75,98.489,113.533,155.918,97.6132,96.2299,0.00156064,0.0782408,20.9491,54.4979,0.132122,0.0,0.0
1708,426.75,97.4966,112.45,153.044,97.6415,96.2125,0.00160463,0.0781546,20.9497,54.4879,0.136486,0.0,0.0
1712,427.75,97.2449,111.572,148.817,97.6787,96.2409,0.00162913,0.0780894,20.95,54.4979,0.137271,0.0,0.0
1716,428.75,96.2798,110.712,152.599,97.729,96.2469,0.00164653,0.0780579,20.9503,54.5179,0.141465,0.0,0.0
1720,429.75,95.8769,109.714,152.792,97.7601,95.8979,0.00164812,0.0780225,20.9505,54.5079,0.178037,0.0,0.0
1724,430.75,94.8212,108.976,153.047,97.7937,95.692,0.00161019,0.0779832,20.9506,54.4879,0.201109,0.0,0.0
1728,431.75,94.7835,107.446,155.645,97.8552,96.1786,0.00158409,0.0779629,20.9506,54.4779,0.159984,0.0,0.0
1732,432.75,94.3932,106.849,150.078,97.8935,96.0639,0.00151772,0.0779896,20.9507,54.4979,0.17465,0.0,0.0
1736,433.75,93.8632,106.078,153.398,97.9458,95.9456,0.00145196,0.0779757,20.9501,54.4979,0.191001,0.0,0.0
1740,434.75,93.1341,105.415,150.108,97.9878,95.9071,0.00142214,0.0779747,20.9495,54.4879,0.19868,0.0,0.0
1744,435.75,92.6821,104.533,150.65,98.0505,96.5151,0.00142844,0.0780501,20.9492,54.4979,0.146101,0.0,0.0
1748,436.75,92.4601,103.367,153.87,98.11,96.5073,0.00149564,0.0781411,20.9495,54.4979,0.152465,0.0,0.0
1752,437.75,91.4731,102.929,152.659,98.1631,96.7439,0.00159762,0.0782188,20.9497,54.4879,0.134807,0.0,0.0
1756,438.75,91.1994,101.925,156.917,98.213,96.5124,0.00170818,0.0781697,20.9503,54.5079,0.161697,0.0,0.0
1760,439.75,90.7551,101.466,152.811,98.2721,96.7425,0.00179355,0.0780826,20.951,54.5079,0.145213,0.0,0.0
1764,440.75,90.2941,100.031,153.212,98.332,96.4408,0.00183761,0.0780101,20.9515,54.5079,0.179769,0.0,0.0
1768,441.75,89.7535,99.1645,155.383,98.3903,96.5353,0.00185983,0.0779805,20.9519,54.5079,0.176195,0.0,0.0
1772,442.75,89.1764,98.7332,151.055,98.451,96.6407,0.00187616,0.0779537,20.9521,54.5079,0.171797,0.0,0.0
1776,443.75,88.5931,98.3471,150.455,98.5125,96.7077,0.00188023,0.0779108,20.9522,54.4979,0.171166,0.0,0.0
1780,444.75,88.7427,97.7241,154.074,98.5676,97.1107,0.00185386,0.0778941,20.9515,54.4979,0.137842,0.0,0.0
1784,445.75,87.9235,97.0694,151.865,98.6179,96.9883,0.00179843,0.0779552,20.951,54.5179,0.154244,0.0,0.0
1788,446.75,87.9172,96.273,150.077,98.6522,96.6453,0.00173193,0.078046,20.9507,54.5179,0.190262,0.0,0.0
1792,447.75,87.2055,95.6356,154.296,98.707,96.7421,0.00167122,0.0781656,20.9505,54.5279,0.186131,0.0,0.0
1796,448.75,86.5612,94.6485,152.034,98.7373,96.7655,0.00163018,0.0782743,20.9504,54.5379,0.186739,0.0,0.0
1800,449.75,86.2725,94.2302,153.159,98.7653,96.8705,0.00160798,0.078371,20.9503,54.5379,0.17932,0.0,0.0
1804,450.75,85.583,93.9835,154.182,98.782,97.4432,0.00161445,0.0784458,20.9503,54.5279,0.126325,0.0,0.0
1808,451.75,85.4556,93.0502,152.832,98.804,96.5637,0.00164365,0.0784808,20.9498,54.5079,0.212311,0.0,0.0
1812,452.75,84.8495,92.4629,154.799,98.8036,96.9383,0.00169431,0.0784784,20.9491,54.5179,0.17643,0.0,0.0
1816,453.75,84.9825,92.1835,151.295,98.8168,97.1772,0.00174562,0.0785098,20.9487,54.4879,0.15488,0.0,0.0
1820,454.75,84.8397,91.071,151.341,98.7996,96.7902,0.00178943,0.0786384,20.9484,54.4979,0.19021,0.0,0.0
1824,455.75,84.4173,90.4153,157.327,98.7796,97.1195,0.00181463,0.078672,20.9479,54.5079,0.156905,0.0,0.0
1828,456.75,83.878,90.3349,154.904,98.7581,97.7435,0.00181895,0.0786923,20.9476,54.5079,0.0955912,0.0,0.0
1832,457.75,83.3621,89.7001,155.647,98.7197,96.7054,0.00178961,0.0787852,20.9474,54.5079,0.19084,0.0,0.0
1836,458.75,82.766,89.0408,154.624,98.6822,96.842,0.0017407,0.0788877,20.9473,54.5179,0.174249,0.0,0.0
1840,459.75,82.5371,88.0493,149.95,98.6347,96.9521,0.00165812,0.0789523,20.9467,54.5179,0.159276,0.0,0.0
1844,460.75,82.0642,88.0267,156.926,98.6051,97.1621,0.00159265,0.0790281,20.9464,54.4979,0.136472,0.0,0.0
1848,461.75,82.1999,87.2546,150.283,98.5696,96.1469,0.0015232,0.0790919,20.9461,54.4979,0.230366,0.0,0.0
1852,462.75,81.9681,86.8396,153.062,98.5293,96.5656,0.00149541,0.0791591,20.9459,54.4979,0.186358,0.0,0.0
1856,463.75,81.9249,86.5867,158.41,98.4857,96.4546,0.00149996,0.0792028,20.9458,54.4979,0.192911,0.0,0.0
1860,464.75,81.4393,86.1642,153.702,98.4358,96.5046,0.00151682,0.0792506,20.9457,54.5179,0.183422,0.0,0.0
1864,465.75,80.9735,85.5372,153.11,98.4023,96.2799,0.00154682,0.0792779,20.9456,54.4979,0.201846,0.0,0.0
1868,466.75,80.4046,85.1019,148.432,98.3476,96.4885,0.00159542,0.0792417,20.9456,54.5179,0.176659,0.0,0.0
1872,467.75,80.2474,84.7131,149.755,98.3236,96.7673,0.00165847,0.079258,20.9456,54.5179,0.147696,0.0,0.0
1876,468.75,80.3261,83.9427,149.194,98.296,96.6128,0.00171543,0.0793195,20.9455,54.4979,0.159895,0.0,0.0
1880,469.75,80.2673,83.9338,153.398,98.3012,96.2629,0.00175057,0.0793987,20.9455,54.5179,0.193967,0.0,0.0
1884,470.75,79.8325,83.0459,155.028,98.459,96.6614,0.00176027,0.0794733,20.9455,54.5079,0.17057,0.0,0.0
1888,471.75,79.893,83.6403,154.805,98.6251,97.1571,,0.0795223,,54.4979,0.138827,0.0,0.0
1892,472.75,79.3376,83.2229,154.456,98.7577,96.986,,0.0794563,,54.5079,0.167573,0.0,0.0
1896,473.75,78.5505,81.9332,151.468,98.8667,97.0048,,0.0793334,,54.4979,0.175992,0.0,0.0
1900,474.75,78.9665,81.8181,149.233,98.9653,96.5188,,,,54.5079,0.231722,0.0,0.0
1904,475.75,78.5216,81.2927,152.041,99.0404,97.13,,,,54.5179,0.180305,0.0,0.0
1908,476.75,78.1775,81.0998,156.693,99.0995,97.4487,,,,54.5379,0.155505,0.0,0.0
1912,477.75,77.9286,80.6485,155.736,99.1302,97.2699,,,,54.5379,0.175379,0.0,0.0
1916,478.75,78.0202,79.9319,151.696,99.1438,97.4271,,,,54.548,0.161691,0.0,0.0
1920,479.75,77.3155,80.3864,152.872,99.1462,97.2873,,,,54.568,0.175213,0.0,0.0
1924,480.75,77.4794,79.3751,153.534,99.1039,97.6193,,,,54.578,0.139725,0.0,0.0
1928,481.75,76.7798,79.0998,155.095,99.0416,97.2378,,,,54.558,0.170153,0.0,0.0
1931,482.5,76.6382,78.3553,152.271,98.9925,97.0493,,,,54.548,0.183519,0.0,0.0