File: 01_Data/Black_PMMA/Cone/Black_PMMA_HRRPUA_75.csv
Time after Ignition,Black_PMMA_R1,Black_PMMA_R2,Black_PMMA_R3,Black_PMMA_R4,Mean,Std. Dev.
0.0,48.6,78.7,45.7,-0.7,43.1,32.8
0.25,68.8,97.7,65.2,-0.7,57.7,41.6
0.5,65.9,109.7,80.4,-0.6,63.8,46.7
0.75,94.8,136.1,81.7,-0.5,78.0,57.3
1.0,116.7,160.1,92.0,-0.5,92.1,67.8
1.25,138.5,186.2,101.5,-0.4,106.4,79.2
1.5,161.7,196.7,111.8,-0.4,117.5,85.9
1.75,187.5,213.9,129.6,-0.3,132.7,95.4
2.0,218.4,221.6,152.6,-0.3,148.1,103.9
2.25,238.8,253.4,162.6,-0.2,163.6,116.3
2.5,261.5,272.8,186.3,-0.2,180.1,126.2
2.75,296.7,289.0,192.9,-0.1,194.6,138.1
3.0,326.4,319.4,222.7,0.0,217.1,152.3
3.25,332.3,335.6,248.1,0.1,229.0,157.9
3.5,352.1,352.0,270.3,0.2,243.7,166.8
3.75,391.7,378.8,279.7,0.4,262.7,181.9
4.0,391.7,404.4,296.9,0.5,273.4,188.1
4.25,417.9,404.0,318.5,0.7,285.3,194.8
4.5,443.7,432.1,366.8,0.8,310.9,209.5
4.75,465.2,448.9,381.9,0.9,324.2,218.6
5.0,467.2,472.4,382.8,1.0,330.8,223.7
5.25,494.3,470.7,435.0,2.2,350.6,233.5
5.5,526.3,521.9,448.6,2.2,374.7,250.9
5.75,547.7,542.3,480.4,2.8,393.3,262.1
6.0,563.1,577.2,510.5,3.3,413.5,275.0
6.25,572.3,575.0,532.4,6.0,421.4,277.6
6.5,570.4,575.3,569.3,8.3,430.8,281.7
6.75,612.8,624.4,570.5,10.8,454.6,296.8
7.0,651.6,628.2,605.5,13.0,474.6,308.3
7.25,636.5,659.3,610.1,19.6,481.4,308.5
7.5,662.3,654.1,614.4,26.0,489.2,309.5
7.75,626.6,664.4,673.5,30.2,498.6,313.0
8.0,661.0,709.3,656.7,48.8,519.0,314.3
8.25,687.6,697.9,689.4,61.7,534.1,315.0
8.5,720.7,684.2,717.5,76.4,549.7,315.9
8.75,728.3,745.9,683.8,88.7,561.7,316.4
9.0,707.7,705.7,729.9,107.3,562.7,303.7
9.25,801.0,736.9,721.7,120.7,595.1,318.1
9.5,780.8,715.4,739.8,142.7,594.7,302.5
9.75,777.9,791.0,753.6,160.4,620.7,307.3
10.0,810.6,743.5,747.7,179.1,620.2,295.7
10.25,814.6,714.5,781.9,191.0,625.5,292.7
10.5,834.3,828.7,775.6,209.1,661.9,303.0
10.75,832.2,785.1,825.4,223.8,666.7,295.9
11.0,841.8,794.0,797.5,234.8,667.0,289.0
11.25,824.9,822.0,755.9,254.8,664.4,274.9
11.5,830.2,821.4,801.2,253.5,676.6,282.3
11.75,828.9,830.4,800.4,252.7,678.1,283.9
12.0,869.5,800.7,829.5,277.0,694.2,279.6
12.25,848.8,827.6,853.6,303.3,708.3,270.3
12.5,857.6,844.1,837.6,284.5,705.9,281.1
12.75,882.3,890.6,854.7,320.2,736.9,278.3
13.0,835.4,853.5,852.5,329.8,717.8,258.8
13.25,877.9,904.9,837.9,337.1,739.4,269.7
13.5,915.0,884.2,849.4,367.5,754.0,259.1
13.75,915.0,859.2,900.0,375.5,762.4,259.1
14.0,898.6,929.4,900.3,380.9,777.3,264.6
14.25,939.1,905.8,875.2,398.0,779.5,255.6
14.5,871.3,865.1,911.8,401.6,762.5,241.5
14.75,879.3,913.4,913.4,445.3,787.9,228.9
15.0,921.8,940.1,889.9,427.0,794.7,246.0
15.25,879.6,888.9,950.7,437.7,789.2,236.5
15.5,891.2,972.7,905.6,471.8,810.3,228.5
15.75,936.2,954.4,897.3,490.8,819.7,220.6
16.0,987.6,915.1,939.6,474.7,829.2,238.3
16.25,956.7,934.5,946.7,466.4,826.1,240.0
16.5,947.4,922.1,940.2,522.1,833.0,207.5
16.75,949.6,952.9,1021.7,541.3,866.4,219.2
17.0,940.9,952.6,978.3,531.2,850.7,213.6
17.25,926.3,967.9,949.6,530.0,843.4,209.7
17.5,967.7,943.2,959.6,574.6,861.3,191.4
17.75,944.0,976.4,967.0,573.6,865.2,194.9
18.0,1001.5,961.6,996.1,560.7,879.9,213.6
18.25,919.0,953.5,961.5,574.7,852.2,185.9
18.5,965.6,1020.1,957.3,602.3,886.3,191.4
18.75,947.8,932.7,988.5,596.7,866.4,181.4
19.0,1001.4,1067.0,952.3,636.1,914.2,191.3
19.25,998.4,968.9,958.5,642.7,892.1,167.1
19.5,976.0,933.9,990.7,690.8,897.9,140.1
19.75,1043.8,957.4,943.4,666.3,902.7,163.8
20.0,1011.3,964.5,960.0,618.7,888.6,181.4
20.25,974.8,981.2,996.7,699.6,913.1,142.6
20.5,1015.7,988.2,963.9,649.6,904.4,171.1
20.75,959.1,1034.3,977.8,668.3,909.9,164.2
21.0,1028.9,1012.0,1050.6,689.6,945.3,171.2
21.25,1011.8,1002.9,975.3,714.5,926.1,141.9
21.5,991.9,965.6,1014.4,710.5,920.6,141.5
21.75,937.0,949.2,985.9,704.9,894.3,127.9
22.0,1024.8,993.2,1032.0,722.1,943.0,148.3
22.25,1035.6,992.7,1018.8,716.9,941.0,150.4
22.5,980.4,1026.5,1014.6,739.3,940.2,135.4
22.75,986.5,1036.9,1048.8,744.0,954.1,142.6
23.0,1061.7,1016.1,1024.3,723.4,956.3,156.6
23.25,1013.1,1009.5,992.0,756.3,942.7,124.7
23.5,1070.7,1010.9,1018.8,707.0,951.9,165.4
23.75,1046.9,1063.0,1038.1,779.6,981.9,135.3
24.0,1056.0,1045.0,981.7,719.9,950.7,157.3
24.25,1059.1,1022.2,1027.7,782.8,972.9,127.8
24.5,1001.9,999.7,1038.4,789.1,957.3,113.5
24.75,1013.1,993.4,1001.8,794.9,950.8,104.3
25.0,1025.9,999.9,1042.8,773.9,960.7,125.7
25.25,1016.1,1032.1,1014.0,796.1,964.6,112.6
25.5,1072.3,1040.7,1071.4,771.5,989.0,145.7
25.75,1042.4,1026.6,1043.0,766.9,969.7,135.4
26.0,1060.1,1085.9,1056.5,796.9,999.8,135.9
26.25,1000.9,1005.5,1018.0,805.2,957.4,101.7
26.5,1041.8,1036.8,1047.6,801.4,981.9,120.4
26.75,1059.1,1036.1,1047.6,818.6,990.4,114.9
27.0,1072.8,1037.0,1020.6,795.1,981.4,126.1
27.25,1020.6,1033.5,1041.6,826.9,980.7,102.9
27.5,1074.4,1007.6,1036.1,812.8,982.7,116.6
27.75,1031.2,1040.7,1077.8,852.8,1000.6,100.6
28.0,1064.2,1008.3,1073.2,836.6,995.6,109.8
28.25,1057.9,1080.9,1029.8,820.9,997.4,119.5
28.5,1079.6,1028.3,1022.0,847.6,994.4,101.2
28.75,1166.0,1061.2,1076.4,833.5,1034.3,141.6
29.0,1084.8,1072.9,1054.3,912.2,1031.0,80.2
29.25,1013.3,1067.7,1092.1,881.4,1013.6,94.1
29.5,1078.9,1089.0,1079.8,907.1,1038.7,87.8
29.75,1055.7,1064.7,1049.5,856.2,1006.5,100.4
30.0,1023.9,1075.7,1094.3,841.9,1009.0,115.3
30.25,1036.0,1053.1,1065.1,843.4,999.4,104.7
30.5,1074.8,1049.3,1065.4,859.9,1012.3,102.2
30.75,1102.9,1058.3,1102.0,879.6,1035.7,106.1
31.0,1045.0,1063.6,1156.9,927.0,1048.1,94.4
31.25,1045.3,1056.4,1092.1,871.5,1016.3,98.6
31.5,1079.4,1021.5,1043.0,855.8,999.9,99.0
31.75,1109.5,1064.1,1130.2,1009.3,1078.3,53.7
32.0,1047.7,1090.6,1061.8,902.9,1025.7,83.8
32.25,1053.4,1085.1,1069.0,893.1,1025.1,89.0
32.5,1052.6,1034.4,1133.9,973.5,1048.6,66.2
32.75,1096.6,1143.3,1067.8,898.8,1051.6,106.5
33.0,1053.2,1020.1,1095.6,855.6,1006.1,105.0
33.25,1085.8,1104.0,1132.0,950.5,1068.1,80.7
33.5,1077.4,1118.0,1078.0,910.5,1046.0,92.3
33.75,1041.3,1058.1,1110.8,908.2,1029.6,86.2
34.0,1114.5,1072.4,1116.9,874.6,1044.6,115.2
34.25,1052.0,1088.0,1127.4,975.0,1060.6,64.9
34.5,1055.6,1110.6,1076.8,942.5,1046.4,72.9
34.75,1055.5,1063.0,1059.6,920.5,1024.6,69.5
35.0,1078.5,1060.4,1072.6,895.4,1026.7,87.9
35.25,1056.7,1131.3,1125.2,920.1,1058.3,98.2
35.5,1056.2,1091.1,1095.0,999.1,1060.3,44.4
35.75,1075.5,1045.7,1032.1,946.8,1025.0,55.2
36.0,1078.2,1032.3,1081.4,922.7,1028.6,74.1
36.25,1085.8,1082.9,1152.7,908.7,1057.5,104.3
36.5,1057.5,1062.2,1095.4,925.9,1035.3,74.8
36.75,1052.7,1056.6,1068.4,943.7,1030.4,58.1
37.0,1090.7,1110.7,1110.5,909.6,1055.4,97.6
37.25,1057.7,1017.5,1105.1,936.4,1029.2,71.5
37.5,1093.3,1054.1,1074.9,905.5,1032.0,85.8
37.75,1138.0,1037.8,1053.5,940.3,1042.4,81.1
38.0,1081.6,1071.4,1088.2,942.4,1045.9,69.3
38.25,1097.2,1079.0,1046.0,929.0,1037.8,75.5
38.5,1047.8,1053.0,1126.5,979.5,1051.7,60.0
38.75,1047.8,1141.5,1100.4,970.0,1064.9,74.0
39.0,1096.7,1053.1,1074.9,951.8,1044.1,64.1
39.25,1110.0,1032.9,1151.3,948.2,1060.6,89.6
39.5,1078.8,1090.1,1119.5,987.6,1069.0,56.9
39.75,1177.8,1072.3,1056.9,1031.7,1084.7,64.3
40.0,1104.8,1089.8,1100.6,964.8,1065.0,67.1
40.25,1115.3,1089.3,1113.7,966.5,1071.2,70.8
40.5,1054.1,1069.4,1120.7,918.4,1040.7,86.3
40.75,1117.0,1079.0,1067.3,979.2,1060.6,58.3
41.0,1049.8,1045.4,1083.5,949.8,1032.2,57.5
41.25,1093.3,1151.2,1117.0,983.4,1086.2,72.6
41.5,1052.6,1054.2,1089.4,963.0,1039.8,53.9
41.75,1099.5,1084.2,1086.8,917.6,1047.0,86.5
42.0,1069.1,1059.4,1124.5,995.5,1062.1,52.8
42.25,1142.9,1106.0,1089.4,932.9,1067.8,92.7
42.5,1063.4,1049.9,1166.4,933.2,1053.2,95.5
42.75,1067.0,1066.0,1078.6,1045.7,1064.4,13.7
43.0,1050.9,1104.4,1031.6,1023.2,1052.5,36.4
43.25,1086.8,1139.2,1074.5,981.0,1070.4,65.8
43.5,1116.3,1103.5,1105.7,944.8,1067.6,82.0
43.75,1125.0,1048.8,1158.4,920.5,1063.2,105.6
44.0,1059.5,1145.4,1085.0,955.4,1061.3,79.2
44.25,1090.9,1086.4,1078.1,1044.2,1074.9,21.1
44.5,1105.8,1047.4,1095.4,960.2,1052.2,66.4
44.75,1093.6,1156.7,1179.8,956.6,1096.7,100.3
45.0,1127.8,1082.7,1086.1,978.2,1068.7,63.7
45.25,1095.5,1108.7,1108.9,1025.4,1084.6,40.0
45.5,1170.6,1045.5,1095.4,1042.1,1088.4,60.0
45.75,1116.1,1050.7,1040.6,964.6,1043.0,62.1
46.0,1102.4,1086.9,1072.1,1000.2,1065.4,45.2
46.25,1115.8,1022.2,1082.5,942.9,1040.9,75.9
46.5,1150.9,1105.5,1061.1,930.9,1062.1,94.8
46.75,1087.8,1059.4,1104.1,903.4,1038.7,92.1
47.0,1078.4,1094.3,1135.8,1106.5,1103.7,24.3
47.25,1076.0,1082.3,1089.4,975.8,1055.9,53.7
47.5,1060.6,1098.7,1052.9,969.8,1045.5,54.3
47.75,1131.7,1174.6,1135.9,973.9,1104.0,88.8
48.0,1080.5,1144.6,1090.5,1004.6,1080.0,57.7
48.25,1089.3,1148.1,1109.1,974.5,1080.2,74.6
48.5,1086.4,1101.7,1176.1,1018.9,1095.8,64.5
48.75,1130.8,1089.0,1089.4,1005.8,1078.7,52.5
49.0,1107.7,1053.0,1184.0,973.2,1079.5,88.9
49.25,1126.8,1141.8,1081.6,971.2,1080.3,77.1
49.5,1123.5,1071.8,1107.7,1011.1,1078.5,49.9
49.75,1133.3,1051.2,1093.1,959.4,1059.3,74.5
50.0,1139.7,1141.6,1093.1,941.6,1079.0,94.3
50.25,1114.3,1098.7,1076.5,982.1,1067.9,59.2
50.5,1126.4,1093.9,1125.7,990.0,1084.0,64.5
50.75,1098.7,1059.0,1058.3,1000.9,1054.2,40.3
51.0,1145.7,1127.4,1143.7,972.6,1097.3,83.6
51.25,1041.7,1082.6,1107.1,986.8,1054.5,52.6
51.5,1109.6,1086.2,1123.5,972.1,1072.9,68.9
51.75,1153.9,1092.9,1091.8,995.7,1083.6,65.4
52.0,1052.4,1118.8,1109.5,994.1,1068.7,57.7
52.25,1070.0,1191.5,1138.5,953.7,1088.4,102.6
52.5,1073.2,1133.7,1017.4,1036.7,1065.3,51.1
52.75,1121.0,1123.9,1154.3,1032.9,1108.0,52.3
53.0,1133.2,1098.2,1189.7,935.1,1089.1,109.3
53.25,1139.9,1038.3,1129.7,988.0,1074.0,73.3
53.5,1094.0,1118.3,1125.8,1044.2,1095.6,36.9
53.75,1175.7,1129.1,1078.5,972.3,1088.9,87.3
54.0,1105.1,1099.1,1094.2,969.2,1066.9,65.3
54.25,1172.2,1069.8,1174.1,1041.8,1114.5,68.7
54.5,1147.4,1088.7,1085.8,976.4,1074.6,71.3
54.75,1108.9,1186.1,1072.7,1007.2,1093.7,74.6
55.0,1091.1,1065.5,1124.8,1066.8,1087.0,27.8
55.25,1111.8,1140.9,1115.1,996.2,1091.0,64.5
55.5,1079.0,1065.5,1166.8,975.9,1071.8,78.1
55.75,1067.9,1115.8,1169.1,1014.1,1091.7,66.2
56.0,1110.8,1145.4,1089.8,994.5,1085.1,64.6
56.25,1098.2,1138.1,1064.9,1000.4,1075.4,58.3
56.5,1120.2,1142.1,1075.1,1006.2,1085.9,60.0
56.75,1073.5,1054.3,1155.6,981.5,1066.2,71.6
57.0,1187.6,1062.7,1105.1,948.4,1075.9,99.6
57.25,1066.2,1151.9,1169.3,1055.3,1110.7,58.2
57.5,1100.6,1041.8,1107.9,1012.6,1065.7,46.2
57.75,1122.8,1087.9,1105.7,994.5,1077.7,57.3
58.0,1086.5,1091.5,1124.5,1047.7,1087.5,31.5
58.25,1156.8,1124.6,1113.3,1021.9,1104.2,57.8
58.5,1080.3,1122.6,1122.4,1023.6,1087.2,46.8
58.75,1071.4,1058.5,1132.7,1031.1,1073.4,43.0
59.0,1105.9,1112.6,1112.7,1008.5,1084.9,51.1
59.25,1054.5,1081.3,1148.0,939.2,1055.8,87.1
59.5,1159.1,1153.2,1133.7,1042.5,1122.1,54.2
59.75,1104.1,1116.4,1085.5,999.5,1076.4,52.8
60.0,1151.0,1117.1,1067.8,998.2,1083.5,66.3
60.25,1104.7,1065.8,1097.9,990.6,1064.7,52.3
60.5,1124.2,1085.0,1158.7,988.6,1089.1,73.5
60.75,1177.3,1083.7,1117.3,1020.2,1099.6,65.6
61.0,1090.8,1083.0,1131.9,971.2,1069.2,68.8
61.25,1130.5,1074.9,1149.5,983.8,1084.7,74.3
61.5,1112.2,1028.4,1139.1,1130.6,1102.6,50.7
61.75,1095.6,1071.9,1138.0,962.2,1066.9,75.0
62.0,1122.7,1105.6,1127.3,1044.8,1100.1,38.0
62.25,1078.8,1105.8,1112.6,991.3,1072.1,55.8
62.5,1118.1,1090.7,1165.6,983.6,1089.5,77.1
62.75,1081.6,1101.8,1162.3,1074.1,1105.0,40.0
63.0,1112.5,1092.3,1111.8,1014.5,1082.8,46.5
63.25,1115.1,1080.7,1088.1,1050.9,1083.7,26.4
63.5,1092.1,1134.4,1067.9,962.9,1064.3,73.0
63.75,1070.5,1077.4,1160.2,1042.5,1087.6,50.6
64.0,1083.0,1101.1,1129.9,1040.3,1088.6,37.5
64.25,1126.8,1145.9,1114.5,970.2,1089.4,80.5
64.5,1153.2,1124.2,1130.3,975.7,1095.9,81.1
64.75,1098.6,1085.9,1144.7,968.9,1074.5,74.8
65.0,1124.8,1070.7,1157.4,1027.4,1095.1,57.5
65.25,1107.2,1124.1,1175.8,975.9,1095.7,85.1
65.5,1150.9,1121.7,1159.2,1025.1,1114.2,61.5
65.75,1094.5,1088.5,1091.5,998.8,1068.3,46.4
66.0,1090.1,1111.8,1087.5,1014.2,1075.9,42.6
66.25,1068.1,1144.8,1143.1,992.7,1087.2,72.4
66.5,1086.5,1103.1,1098.4,1013.3,1075.3,42.0
66.75,1103.6,1129.6,1099.3,971.4,1076.0,71.0
67.0,1120.9,1083.8,1141.6,1056.1,1100.6,38.1
67.25,1164.3,1059.5,1136.1,978.5,1084.6,83.4
67.5,1022.0,1138.9,1132.3,1010.0,1075.8,69.3
67.75,1118.3,1145.6,1081.3,1045.1,1097.6,43.8
68.0,1022.3,1057.9,1127.8,1015.4,1055.9,51.5
68.25,1105.1,1089.9,1150.0,995.7,1085.2,64.8
68.5,1128.0,1097.4,1146.8,968.2,1085.1,80.6
68.75,1072.0,1121.4,1151.7,1070.8,1104.0,39.6
69.0,1119.5,1108.6,1179.9,1032.4,1110.1,60.6
69.25,1172.3,1093.6,1074.8,970.8,1077.9,82.9
69.5,1136.1,1141.8,1171.7,979.7,1107.3,86.5
69.75,1057.2,1039.7,1189.0,1008.0,1073.5,79.7
70.0,1071.5,1115.9,1141.2,991.2,1079.9,65.8
70.25,1179.3,1151.5,1109.7,1021.8,1115.6,68.8
70.5,1067.3,1100.2,1100.7,1038.8,1076.8,29.7
70.75,1084.5,1079.0,1161.4,990.2,1078.8,70.0
71.0,1087.5,1118.0,1154.6,1038.2,1099.6,49.3
71.25,1107.0,1109.6,1172.6,1014.5,1100.9,65.1
71.5,1221.0,1126.0,1097.9,1070.1,1128.7,65.6
71.75,1126.4,1123.2,1092.1,996.0,1084.4,60.9
72.0,1126.5,1113.1,1116.0,1083.2,1109.7,18.6
72.25,1095.8,1082.2,1092.2,1074.2,1086.1,9.8
72.5,1048.7,1083.7,1149.3,1031.7,1078.4,52.0
72.75,1143.7,1083.8,1113.5,1007.3,1087.1,58.5
73.0,1147.1,1150.9,1119.8,1056.6,1118.6,43.6
73.25,1186.2,1103.4,1190.9,1027.6,1127.0,77.5
73.5,1083.2,1092.8,1059.7,1043.9,1069.9,22.2
73.75,1102.6,1037.6,1110.8,1077.4,1082.1,32.9
74.0,1126.7,1130.1,1073.7,984.6,1078.8,67.9
74.25,1146.3,1135.8,1139.1,1069.0,1122.6,36.0
74.5,1118.4,1076.3,1096.9,1064.3,1089.0,23.8
74.75,1122.2,1123.2,1111.9,1130.5,1122.0,7.6
75.0,1158.7,1101.8,1186.3,1075.7,1130.6,50.8
75.25,1085.5,1060.7,1149.7,1070.4,1091.6,40.1
75.5,1087.6,1127.0,1134.5,1004.8,1088.5,59.4
75.75,1182.0,1088.8,1125.8,1022.0,1104.7,67.1
76.0,1121.2,1155.9,1171.1,1006.6,1113.7,74.4
76.25,1117.3,1105.7,1200.1,1046.4,1117.4,63.3
76.5,1097.3,1152.5,1104.6,1028.6,1095.8,51.0
76.75,1160.4,1124.2,1098.0,1043.9,1106.6,49.0
77.0,1075.0,1124.8,1127.6,1053.3,1095.2,36.9
77.25,1161.5,1109.5,1084.2,1049.2,1101.1,47.3
77.5,1111.1,1151.3,1129.6,1084.4,1119.1,28.4
77.75,1138.1,1031.7,1134.7,1019.6,1081.0,64.1
78.0,1060.0,1155.6,1115.4,1007.2,1084.6,64.8
78.25,1066.5,1096.8,1128.3,1057.4,1087.3,32.1
78.5,1147.5,1107.0,1148.5,1041.6,1111.1,50.2
78.75,1139.7,1109.6,1201.8,1050.1,1125.3,63.1
79.0,1126.3,1165.3,1152.8,1016.0,1115.1,68.0
79.25,1179.1,1133.1,1103.2,1076.1,1122.9,44.1
79.5,1143.1,1089.8,1149.7,1043.6,1106.6,49.8
79.75,1124.5,1149.8,1174.7,1037.5,1121.6,59.7
80.0,1099.6,1042.2,1083.7,1048.0,1068.4,27.8
80.25,1151.5,1240.0,1162.6,1028.7,1145.7,87.4
80.5,1100.5,1088.5,1085.6,1017.7,1073.1,37.5
80.75,1119.7,1149.6,1106.4,1052.4,1107.0,40.6
81.0,1086.6,1199.9,1157.9,1095.1,1134.9,53.8
81.25,1159.0,1097.8,1078.9,1019.3,1088.8,57.5
81.5,1100.2,1075.2,1137.0,1084.7,1099.3,27.2
81.75,1166.5,1143.6,1097.7,1121.5,1132.3,29.5
82.0,1076.6,1131.6,1140.0,988.3,1084.1,69.8
82.25,1140.2,1189.0,1148.7,1060.9,1134.7,53.6
82.5,1095.8,1113.3,1152.7,1018.2,1095.0,56.4
82.75,1089.5,1108.1,1153.2,1087.8,1109.7,30.4
83.0,1179.0,1134.0,1144.5,1046.9,1126.1,56.2
83.25,1137.4,1068.7,1190.8,1060.4,1114.3,61.6
83.5,1073.9,1104.0,1132.6,1046.4,1089.2,37.3
83.75,1144.9,1121.1,1170.4,1035.3,1117.9,58.6
84.0,1103.0,1121.2,1157.4,1068.0,1112.4,37.3
84.25,1073.2,1125.0,1104.6,1041.1,1086.0,36.7
84.5,1184.5,1153.0,1111.8,1021.2,1117.6,70.8
84.75,1143.5,1158.4,1095.9,1048.2,1111.5,49.9
85.0,1136.0,1120.1,1164.6,1029.1,1112.5,58.6
85.25,1059.3,1172.9,1135.8,1093.2,1115.3,49.5
85.5,1149.5,1080.0,1122.5,1095.7,1111.9,30.6
85.75,1196.2,1065.8,1118.4,952.2,1083.2,102.4
86.0,1129.5,1160.5,1138.8,1038.4,1116.8,53.8
86.25,1113.0,1141.4,1133.9,1053.3,1110.4,39.9
86.5,1074.4,1127.0,1046.3,1008.8,1064.1,49.8
86.75,1155.5,1138.8,1168.3,1093.5,1139.0,32.7
87.0,1085.1,1110.3,1224.2,971.0,1097.7,103.9
87.25,1142.6,1085.3,1110.6,1095.1,1108.4,25.1
87.5,1093.3,1132.9,1052.1,1023.6,1075.5,47.8
87.75,1146.5,1127.0,1149.5,1032.0,1113.8,55.4
88.0,1078.4,1154.0,1194.3,996.4,1105.8,87.3
88.25,1099.6,1156.1,1175.6,997.1,1107.1,80.1
88.5,1131.7,1209.1,1109.6,964.0,1103.6,102.4
88.75,1145.0,1144.6,1181.4,1060.9,1133.0,51.1
89.0,1085.2,1218.4,1128.5,1023.5,1113.9,81.9
89.25,1163.1,1152.8,1133.4,1032.8,1120.5,59.7
89.5,1190.1,1139.1,1143.7,1019.9,1123.2,72.6
89.75,1135.0,1159.1,1106.6,1068.0,1117.2,39.2
90.0,1150.6,1084.9,1173.9,1024.6,1108.5,67.5
90.25,1091.1,1100.6,1234.9,1009.2,1109.0,93.4
90.5,1177.7,1096.1,1137.9,1022.6,1108.6,66.3
90.75,1113.7,1150.5,1166.1,1030.2,1115.1,60.7
91.0,1189.6,1091.7,1143.7,1021.6,1111.7,72.2
91.25,1088.5,1162.3,1144.7,1046.7,1110.5,52.9
91.5,1112.6,1135.3,1192.8,994.7,1108.8,83.3
91.75,1130.7,1185.4,1178.7,1044.8,1134.9,64.8
92.0,1134.8,1100.8,1188.2,1038.2,1115.5,62.9
92.25,1061.1,1105.4,1168.6,1089.3,1106.1,45.5
92.5,1180.5,1095.1,1208.2,1026.0,1127.5,83.0
92.75,1163.2,1151.4,1151.3,1072.4,1134.6,41.8
93.0,1107.6,1147.0,1139.6,1016.3,1102.6,60.1
93.25,1152.0,1209.2,1088.1,1023.3,1118.1,80.3
93.5,1182.9,1136.9,1159.6,1022.8,1125.6,71.0
93.75,1116.5,1158.3,1109.4,1037.6,1105.4,50.1
94.0,1136.5,1109.6,1105.2,1032.1,1095.8,44.7
94.25,1138.9,1115.9,1196.8,1026.3,1119.5,70.8
94.5,1109.7,1167.9,1128.1,1028.6,1108.6,58.6
94.75,1191.8,1126.5,1120.2,1057.6,1124.0,54.9
95.0,1071.2,1141.3,1145.4,1102.5,1115.1,35.1
95.25,1135.5,1141.7,1166.0,1045.7,1122.2,52.7
95.5,1179.6,1068.1,1134.5,1048.5,1107.7,60.4
95.75,1147.4,1160.1,1144.2,1057.5,1127.3,47.0
96.0,1065.7,1086.5,1158.3,1008.9,1079.8,61.7
96.25,1155.8,1136.9,1237.5,1049.1,1144.8,77.3
96.5,1153.2,1210.1,1148.6,1065.1,1144.2,59.7
96.75,1146.1,1130.6,1189.5,1033.7,1125.0,65.8
97.0,1114.8,1117.5,1160.5,1062.1,1113.7,40.3
97.25,1124.9,1065.4,1133.3,1072.4,1099.0,35.0
97.5,1154.4,1090.8,1265.4,1037.8,1137.1,97.9
97.75,1128.9,1169.7,1134.8,1085.9,1129.8,34.4
98.0,1086.7,1130.5,1222.9,1079.7,1130.0,65.9
98.25,1135.8,1137.9,1105.8,1083.1,1115.6,26.1
98.5,1099.4,1094.2,1234.0,1045.7,1118.3,80.8
98.75,1124.1,1132.5,1142.0,1170.4,1142.2,20.1
99.0,1135.7,1106.5,1147.0,1067.6,1114.2,35.4
99.25,1125.0,1146.0,1176.0,1105.5,1138.1,30.2
99.5,1110.1,1079.0,1131.4,1027.2,1086.9,45.3
99.75,1122.5,1168.4,1151.8,1016.6,1114.8,68.2
100.0,1139.9,1138.2,1161.7,1041.3,1120.3,53.7
100.25,1169.9,1125.0,1149.0,1090.7,1133.7,34.0
100.5,1131.6,1171.1,1153.8,1042.0,1124.6,57.4
100.75,1173.6,1188.8,1184.0,1067.7,1153.5,57.6
101.0,1139.4,1088.0,1183.2,1047.0,1114.4,59.4
101.25,1060.7,1158.8,1107.3,1029.5,1089.1,56.4
101.5,1143.5,1102.1,1187.5,1078.3,1127.9,48.0
101.75,1156.1,1084.7,1232.3,1065.8,1134.7,75.8
102.0,1130.8,1148.2,1130.8,979.7,1097.4,78.9
102.25,1107.8,1130.0,1151.1,1120.8,1127.4,18.2
102.5,1065.6,1147.1,1114.3,1079.9,1101.7,36.5
102.75,1116.8,1139.7,1157.2,1072.7,1121.6,36.5
103.0,1112.3,1187.1,1190.7,1085.9,1144.0,53.0
103.25,1205.7,1134.3,1199.7,1089.1,1157.2,55.7
103.5,1103.7,1208.1,1168.2,1066.9,1136.7,63.4
103.75,1155.5,1183.7,1167.7,1046.1,1138.3,62.5
104.0,1121.8,1224.6,1201.4,1022.7,1142.6,91.3
104.25,1164.8,1130.1,1074.6,1013.0,1095.6,66.4
104.5,1191.7,1172.7,1170.2,1095.0,1157.4,42.7
104.75,1178.8,1111.4,1151.4,1064.9,1126.6,49.6
105.0,1179.2,1150.0,1228.8,1054.7,1153.2,73.2
105.25,1091.3,1173.4,1245.9,1066.7,1144.3,81.6
105.5,1222.7,1137.2,1175.0,1107.5,1160.6,49.7
105.75,1160.8,1118.1,1126.4,1134.8,1135.0,18.5
106.0,1111.3,1105.3,1271.3,1064.3,1138.0,91.2
106.25,1137.4,1196.3,1219.9,1083.4,1159.2,61.3
106.5,1098.9,1177.2,1137.2,1094.7,1127.0,38.5
106.75,1095.1,1188.0,1243.7,1097.5,1156.1,72.7
107.0,1209.8,1159.4,1208.6,1008.9,1146.7,94.8
107.25,1149.5,1201.9,1185.7,1182.4,1179.9,22.0
107.5,1196.6,1118.1,1142.0,1062.1,1129.7,55.8
107.75,1169.6,1171.2,1134.4,1118.1,1148.3,26.3
108.0,1158.9,1139.1,1132.5,1106.1,1134.1,21.8
108.25,1144.5,1143.9,1172.9,1005.5,1116.7,75.3
108.5,1147.7,1158.3,1209.0,1107.7,1155.7,41.7
108.75,1128.6,1167.4,1193.7,1091.9,1145.4,44.6
109.0,1126.1,1257.0,1128.8,1074.7,1146.6,77.7
109.25,1146.5,1123.7,1160.8,1047.0,1119.5,50.7
109.5,1137.7,1189.7,1201.4,1133.2,1165.5,35.1
109.75,1099.0,1244.9,1230.3,1116.3,1172.6,75.6
110.0,1112.9,1154.9,1157.5,1076.8,1125.5,38.4
110.25,1140.2,1210.7,1178.2,1068.5,1149.4,61.1
110.5,1185.4,1206.5,1146.7,1066.6,1151.3,61.7
110.75,1155.2,1193.8,1214.7,1127.5,1172.8,39.0
111.0,1161.0,1211.8,1159.2,1121.8,1163.4,37.0
111.25,1107.4,1190.3,1142.2,1122.4,1140.6,36.1
111.5,1220.6,1209.0,1202.1,1125.4,1189.3,43.3
111.75,1155.9,1212.2,1227.5,1020.4,1154.0,94.2
112.0,1157.5,1170.5,1116.5,1123.0,1141.9,26.2
112.25,1182.2,1122.1,1174.6,1093.7,1143.1,42.5
112.5,1134.4,1247.5,1226.2,1133.5,1185.4,60.0
112.75,1116.9,1184.0,1139.8,1079.7,1130.1,43.6
113.0,1183.1,1223.5,1144.0,1097.1,1161.9,54.1
113.25,1115.6,1169.0,1236.8,1082.1,1150.9,67.5
113.5,1151.3,1211.9,1206.2,1105.9,1168.8,50.1
113.75,1138.5,1106.8,1148.3,1100.3,1123.5,23.5
114.0,1202.9,1199.5,1209.1,1026.9,1159.6,88.6
114.25,1164.2,1200.8,1186.6,1074.5,1156.5,56.7
114.5,1217.9,1137.1,1199.8,1112.3,1166.8,50.2
114.75,1196.9,1197.5,1139.8,1025.1,1139.8,81.1
115.0,1214.7,1185.3,1163.3,1111.9,1168.8,43.4
115.25,1106.9,1193.6,1214.2,1103.5,1154.6,57.6
115.5,1197.2,1161.1,1145.9,1084.3,1147.1,47.1
115.75,1167.7,1149.0,1192.0,1108.3,1154.3,35.3
116.0,1177.2,1150.1,1205.9,1009.4,1135.6,87.2
116.25,1111.7,1137.7,1173.1,1040.9,1115.9,55.9
116.5,1169.5,1164.6,1190.0,1189.1,1178.3,13.2
116.75,1168.9,1196.4,1221.1,1100.6,1171.8,52.0
117.0,1176.0,1143.2,1213.5,1038.7,1142.8,75.1
117.25,1157.3,1107.2,1166.8,954.5,1096.4,98.2
117.5,1178.8,1188.1,1205.1,1145.9,1179.5,24.9
117.75,1166.8,1115.2,1213.4,1060.8,1139.1,65.8
118.0,1159.3,1177.8,1274.1,1130.0,1185.3,62.4
118.25,1111.8,1135.5,1117.7,1035.6,1100.1,44.2
118.5,1156.5,1151.4,1233.9,1101.4,1160.8,54.7
118.75,1184.9,1135.6,1189.0,1009.1,1129.7,83.9
119.0,1165.1,1199.5,1191.3,1134.1,1172.5,29.5
119.25,1205.6,1169.7,1197.7,1125.0,1174.5,36.4
119.5,1128.3,1174.6,1212.7,1131.2,1161.7,40.0
119.75,1228.8,1141.7,1171.1,1096.3,1159.5,55.5
120.0,1221.8,1180.8,1221.8,1092.9,1179.3,60.8
120.25,1075.0,1115.5,1156.4,1047.5,1098.6,47.6
120.5,1134.8,1142.2,1161.0,1158.8,1149.2,12.7
120.75,1217.7,1153.4,1215.8,993.1,1145.0,105.6
121.0,1171.6,1175.3,1119.3,1162.6,1157.2,25.8
121.25,1177.7,1169.3,1272.4,1138.0,1189.3,57.9
121.5,1120.2,1096.4,1183.1,1206.3,1151.5,51.7
121.75,1224.0,1232.0,1131.0,1056.4,1160.8,83.4
122.0,1171.8,1158.2,1134.2,1045.8,1127.5,56.6
122.25,1138.6,1189.2,1141.0,1113.4,1145.5,31.7
122.5,1134.0,1220.0,1247.9,1129.3,1182.8,60.2
122.75,1108.2,1180.2,1292.8,1099.2,1170.1,89.5
123.0,1126.9,1120.6,1176.8,1173.5,1149.4,29.8
123.25,1145.5,1193.6,1239.3,1097.6,1169.0,61.1
123.5,1212.5,1104.4,1194.8,1118.0,1157.4,54.1
123.75,1200.5,1129.4,1206.2,1057.3,1148.3,70.0
124.0,1140.9,1178.3,1196.2,1053.1,1142.1,63.6
124.25,1152.3,1163.4,1236.1,1110.8,1165.7,52.1
124.5,1157.4,1233.9,1203.5,1074.4,1167.3,69.5
124.75,1123.9,1188.5,1177.2,1175.3,1166.2,28.8
125.0,1198.5,1130.1,1201.6,1002.5,1133.2,93.2
125.25,1126.4,1226.6,1220.8,1180.1,1188.5,46.3
125.5,1175.0,1174.3,1247.0,1073.7,1167.5,71.2
125.75,1124.7,1133.4,1130.2,1087.7,1119.0,21.2
126.0,1180.0,1209.0,1227.3,1040.5,1164.2,84.7
126.25,1139.6,1172.3,1189.4,1030.3,1132.9,71.5
126.5,1155.4,1259.5,1264.2,1072.1,1187.8,92.0
126.75,1152.9,1127.3,1230.6,1116.9,1156.9,51.4
127.0,1118.4,1149.0,1256.7,1135.1,1164.8,62.5
127.25,1103.4,1131.4,1210.0,1080.1,1131.2,56.6
127.5,1214.7,1209.8,1226.1,1150.3,1200.2,34.0
127.75,1218.4,1194.9,1176.9,1139.7,1182.5,33.2
128.0,1211.7,1183.2,1177.4,1040.5,1153.2,76.6
128.25,1148.3,1186.2,1172.7,1035.3,1135.6,68.7
128.5,1150.7,1191.5,1228.8,1191.7,1190.7,31.9
128.75,1191.0,1145.5,1194.0,1103.0,1158.4,43.1
129.0,1194.4,1203.9,1243.1,1157.9,1199.8,35.0
129.25,1104.5,1220.2,1247.7,1091.4,1165.9,79.5
129.5,1160.5,1143.1,1157.0,1072.7,1133.3,41.1
129.75,1200.3,1205.6,1195.3,1092.7,1173.5,54.0
130.0,1213.7,1163.8,1174.3,1214.1,1191.5,26.3
130.25,1242.2,1167.0,1218.7,1038.9,1166.7,90.8
130.5,1146.6,1154.4,1186.8,1074.2,1140.5,47.5
130.75,1174.0,1143.1,1217.4,1073.4,1152.0,60.6
131.0,1201.0,1179.2,1175.4,1126.0,1170.4,31.7
131.25,1145.0,1194.2,1250.2,1106.0,1173.9,62.4
131.5,1149.5,1235.0,1289.5,1085.4,1189.8,90.4
131.75,1212.9,1219.3,1192.9,1125.4,1187.6,43.0
132.0,1176.1,1180.2,1272.0,1048.5,1169.2,91.9
132.25,1217.0,1161.9,1173.9,1101.3,1163.5,47.8
132.5,1206.8,1308.5,1253.7,1018.4,1196.8,126.0
132.75,1163.8,1179.1,1196.2,1210.7,1187.4,20.4
133.0,1127.9,1108.1,1238.0,1082.5,1139.1,68.5
133.25,1222.9,1219.5,1222.1,1064.9,1182.4,78.3
133.5,1175.6,1154.3,1163.9,1141.0,1158.7,14.6
133.75,1185.5,1223.9,1193.2,1055.6,1164.5,74.5
134.0,1203.8,1201.6,1244.9,1030.4,1170.2,95.3
134.25,1199.4,1148.5,1174.2,1193.4,1178.9,22.9
134.5,1193.8,1158.6,1214.0,1101.7,1167.0,49.2
134.75,1210.6,1188.2,1191.6,1130.2,1180.1,34.7
135.0,1151.3,1225.4,1100.8,1118.2,1148.9,55.1
135.25,1174.4,1233.7,1219.5,1191.8,1204.8,26.7
135.5,1162.2,1251.3,1194.5,1079.3,1171.8,71.8
135.75,1234.9,1153.5,1274.3,1151.4,1203.5,61.2
136.0,1137.2,1122.8,1186.2,1116.0,1140.5,31.7
136.25,1184.5,1243.7,1224.0,1069.9,1180.5,77.7
136.5,1166.5,1208.5,1195.1,1103.4,1168.4,46.7
136.75,1311.7,1189.7,1249.5,1106.2,1214.3,87.6
137.0,1146.5,1231.7,1211.0,1108.0,1174.3,57.2
137.25,1192.9,1215.6,1302.4,1047.9,1189.7,105.6
137.5,1200.7,1239.2,1188.0,1193.1,1205.3,23.3
137.75,1268.2,1287.6,1263.9,1084.0,1225.9,95.1
138.0,1146.6,1172.8,1260.7,1082.8,1165.7,73.7
138.25,1212.4,1183.5,1206.3,1200.8,1200.7,12.4
138.5,1213.1,1192.0,1201.3,1102.3,1177.2,50.6
138.75,1172.5,1155.0,1240.1,1136.0,1175.9,45.3
139.0,1221.7,1213.9,1212.6,1135.8,1196.0,40.3
139.25,1124.5,1142.4,1229.5,1179.3,1168.9,46.4
139.5,1136.6,1183.8,1193.8,1141.7,1164.0,29.0
139.75,1191.9,1196.0,1272.1,1162.6,1205.7,46.7
140.0,1225.0,1222.6,1237.9,1149.9,1208.8,39.9
140.25,1161.4,1180.0,1163.0,1176.2,1170.1,9.3
140.5,1199.0,1224.5,1258.4,1170.3,1213.0,37.5
140.75,1224.2,1233.2,1297.4,1085.1,1210.0,89.4
141.0,1279.3,1195.2,1224.3,1172.2,1217.7,46.3
141.25,1200.4,1229.4,1242.7,1094.0,1191.6,67.5
141.5,1189.4,1153.6,1189.4,1138.2,1167.7,25.9
141.75,1234.2,1154.2,1254.7,1097.5,1185.1,72.7
142.0,1205.0,1259.6,1238.6,1131.8,1208.7,56.0
142.25,1216.6,1209.9,1248.1,1108.1,1195.7,60.7
142.5,1170.3,1217.9,1233.2,1119.6,1185.3,51.3
142.75,1232.5,1278.8,1274.0,1144.4,1232.4,62.3
143.0,1175.3,1183.9,1166.8,1131.3,1164.3,23.1
143.25,1143.5,1305.5,1283.7,1102.4,1208.8,100.9
143.5,1216.5,1277.5,1241.0,1174.1,1227.3,43.4
143.75,1208.8,1198.6,1257.9,1180.6,1211.4,33.1
144.0,1161.9,1229.0,1200.8,1116.8,1177.2,48.7
144.25,1113.7,1174.0,1245.7,1149.7,1170.8,55.8
144.5,1198.4,1219.1,1185.9,1014.3,1154.5,94.4
144.75,1203.4,1184.1,1228.2,1173.9,1197.4,23.9
145.0,1182.9,1281.8,1316.1,1167.2,1237.0,73.2
145.25,1175.5,1161.0,1256.0,1171.4,1191.0,43.8
145.5,1162.7,1219.4,1208.3,1186.5,1194.2,25.1
145.75,1223.5,1288.3,1274.1,1181.4,1241.8,48.9
146.0,1202.3,1167.0,1300.7,1161.6,1207.9,64.4
146.25,1242.2,1192.1,1316.7,1184.9,1233.9,60.7
146.5,1145.6,1229.2,1204.1,1121.9,1175.2,49.9
146.75,1233.5,1276.6,1165.8,1168.5,1211.1,53.7
147.0,1103.9,1198.3,1220.0,1154.5,1169.2,51.3
147.25,1145.4,1271.9,1263.6,1110.3,1197.8,82.1
147.5,1228.3,1183.6,1178.6,1241.0,1207.9,31.4
147.75,1184.6,1286.9,1249.1,1170.5,1222.8,54.7
148.0,1172.2,1220.3,1186.8,1174.0,1188.3,22.3
148.25,1206.6,1300.8,1324.1,1198.8,1257.6,64.2
148.5,1224.8,1235.2,1264.6,1125.6,1212.5,60.4
148.75,1303.9,1240.9,1278.9,1206.2,1257.5,42.9
149.0,1218.7,1295.5,1290.8,1099.1,1226.0,91.6
149.25,1139.4,1150.3,1218.9,1191.9,1175.1,36.9
149.5,1170.0,1159.9,1295.7,1154.1,1194.9,67.5
149.75,1232.6,1265.8,1266.7,1093.3,1214.6,82.4
150.0,1169.0,1270.7,1252.7,1265.9,1239.6,47.7
150.25,1166.6,1268.7,1301.7,1160.2,1224.3,71.7
150.5,1271.4,1182.2,1251.1,1171.5,1219.0,49.6
150.75,1185.5,1227.7,1310.1,1166.0,1222.3,63.9
151.0,1225.1,1203.8,1250.5,1210.3,1222.4,20.7
151.25,1239.8,1235.1,1298.0,1131.5,1226.1,69.3
151.5,1192.2,1173.9,1221.2,1137.4,1181.2,35.1
151.75,1201.0,1263.4,1301.4,1187.5,1238.3,53.5
152.0,1188.0,1160.3,1278.2,1190.7,1204.3,51.1
152.25,1271.2,1213.8,1230.2,1203.7,1229.7,29.7
152.5,1238.8,1271.0,1251.1,1152.7,1228.4,52.2
152.75,1146.2,1248.2,1179.4,1260.4,1208.5,54.8
153.0,1159.2,1235.0,1348.4,1160.6,1225.8,89.0
153.25,1237.3,1217.9,1244.9,1180.8,1220.2,28.6
153.5,1328.4,1201.8,1244.0,1191.1,1241.3,62.4
153.75,1180.6,1209.6,1206.6,1248.2,1211.3,27.9
154.0,1287.9,1257.8,1289.6,1226.5,1265.5,29.8
154.25,1206.6,1313.0,1201.7,1183.6,1226.2,58.7
154.5,1208.5,1267.6,1285.3,1149.0,1227.6,61.8
154.75,1195.5,1209.2,1237.6,1302.9,1236.3,47.8
155.0,1233.9,1223.2,1367.0,1079.4,1225.9,117.6
155.25,1190.2,1318.5,1221.2,1155.0,1221.2,70.2
155.5,1229.7,1215.4,1266.4,1173.7,1221.3,38.3
155.75,1159.8,1264.9,1184.7,1192.2,1200.4,45.2
156.0,1197.4,1223.1,1265.6,1188.1,1218.6,34.7
156.25,1243.4,1219.2,1301.7,1234.4,1249.7,36.1
156.5,1255.8,1261.5,1342.5,1228.5,1272.1,49.1
156.75,1252.0,1217.3,1266.1,1208.8,1236.0,27.4
157.0,1260.9,1272.0,1273.0,1193.5,1249.8,38.0
157.25,1200.6,1185.2,1189.4,1262.1,1209.3,35.8
157.5,1214.2,1213.9,1333.0,1200.1,1240.3,62.2
157.75,1215.1,1135.1,1245.4,1234.7,1207.6,49.9
158.0,1211.2,1331.9,1272.3,1175.6,1247.7,68.9
158.25,1175.9,1237.0,1332.0,1187.6,1233.1,71.0
158.5,1289.4,1295.4,1206.4,1111.3,1225.6,86.4
158.75,1186.7,1285.7,1273.7,1212.6,1239.7,47.6
159.0,1255.5,1268.4,1227.7,1193.3,1236.2,33.3
159.25,1302.7,1177.8,1346.5,1219.1,1261.5,76.9
159.5,1220.6,1288.8,1280.4,1173.8,1240.9,54.1
159.75,1298.3,1182.8,1191.6,1165.1,1209.5,60.2
160.0,1226.4,1230.7,1180.6,1192.6,1207.6,24.8
160.25,1198.2,1302.4,1273.9,1208.5,1245.7,50.5
160.5,1241.7,1298.6,1240.5,1231.8,1253.2,30.7
160.75,1236.6,1298.6,1247.2,1159.3,1235.4,57.5
161.0,1195.9,1172.1,1272.7,1293.7,1233.6,58.7
161.25,1211.2,1328.5,1269.3,1288.4,1274.3,48.8
161.5,1246.7,1299.5,1197.8,1218.8,1240.7,44.0
161.75,1242.8,1204.4,1233.9,1275.8,1239.2,29.4
162.0,1261.0,1281.6,1292.4,1129.9,1241.2,75.3
162.25,1271.7,1201.8,1286.5,1182.4,1235.6,51.2
162.5,1288.5,1245.8,1352.4,1114.3,1250.3,100.7
162.75,1208.4,1302.2,1328.8,1300.9,1285.1,52.7
163.0,1323.0,1270.5,1266.5,1213.1,1268.3,44.9
163.25,1261.1,1287.8,1272.1,1145.8,1241.7,64.8
163.5,1258.0,1293.7,1247.1,1240.3,1259.8,23.8
163.75,1232.5,1236.0,1229.6,1280.3,1244.6,23.9
164.0,1128.8,1287.9,1223.6,1132.3,1193.2,76.9
164.25,1262.1,1234.5,1253.3,1177.3,1231.8,38.1
164.5,1205.4,1264.6,1320.5,1226.8,1254.3,50.5
164.75,1273.8,1258.9,1364.5,1199.3,1274.1,68.3
165.0,1259.3,1306.6,1311.4,1336.0,1303.3,32.1
165.25,1191.6,1196.2,1235.2,1191.9,1203.7,21.1
165.5,1264.0,1292.6,1262.1,1266.7,1271.3,14.3
165.75,1305.9,1186.0,1224.5,1249.6,1241.5,50.2
166.0,1252.4,1336.7,1224.1,1211.1,1256.1,56.4
166.25,1268.1,1371.0,1240.7,1262.3,1285.5,58.2
166.5,1257.9,1170.9,1306.0,1228.6,1240.8,56.5
166.75,1258.4,1233.0,1272.3,1216.4,1245.0,25.1
167.0,1238.9,1299.3,1334.3,1130.4,1250.7,89.4
167.25,1266.5,1215.3,1306.3,1317.8,1276.5,46.3
167.5,1256.8,1265.4,1352.0,1220.8,1273.7,55.6
167.75,1280.7,1263.5,1326.5,1109.1,1245.0,94.4
168.0,1283.9,1299.8,1365.9,1163.3,1278.2,84.4
168.25,1269.9,1377.7,1283.8,1198.8,1282.6,73.5
168.5,1167.6,1254.8,1257.1,1240.7,1230.1,42.3
168.75,1256.5,1193.6,1346.9,1208.0,1251.3,69.2
169.0,1308.9,1291.7,1241.0,1119.3,1240.2,85.6
169.25,1298.6,1302.5,1251.7,1135.5,1247.1,77.9
169.5,1242.0,1231.6,1340.1,1220.7,1258.6,55.0
169.75,1298.9,1212.0,1362.3,1201.1,1268.5,76.3
170.0,1252.9,1307.8,1298.7,1237.5,1274.2,34.3
170.25,1264.1,1271.5,1336.9,1125.6,1249.5,88.9
170.5,1192.6,1206.8,1317.2,1175.3,1223.0,64.1
170.75,1235.6,1244.6,1342.3,1181.8,1251.1,66.8
171.0,1249.5,1204.7,1301.4,1233.1,1247.2,40.6
171.25,1206.0,1287.3,1208.0,1218.2,1229.9,38.7
171.5,1253.0,1318.7,1284.7,1221.4,1269.5,41.8
171.75,1236.1,1273.8,1282.4,1229.2,1255.3,26.6
172.0,1261.6,1254.0,1281.4,1195.1,1248.0,37.1
172.25,1237.7,1246.6,1369.6,1243.7,1274.4,63.6
172.5,1272.0,1254.9,1286.3,1203.9,1254.3,35.9
172.75,1207.7,1225.2,1329.1,1289.9,1263.0,56.5
173.0,1279.1,1239.9,1248.1,1103.9,1217.8,77.7
173.25,1341.1,1255.2,1254.5,1320.6,1292.8,44.7
173.5,1227.0,1336.5,1225.6,1104.7,1223.5,94.7
173.75,1241.5,1337.8,1295.6,1265.7,1285.1,41.5
174.0,1215.4,1279.8,1316.2,1251.6,1265.7,42.7
174.25,1245.3,1271.7,1289.2,1118.9,1231.3,77.1
174.5,1322.3,1249.7,1321.8,1215.7,1277.4,53.4
174.75,1293.6,1218.0,1287.2,1196.1,1248.7,49.0
175.0,1263.3,1339.4,1283.9,1273.9,1290.1,33.9
175.25,1303.3,1310.1,1321.9,1187.7,1280.7,62.5
175.5,1250.0,1276.1,1258.8,1224.1,1252.2,21.7
175.75,1269.7,1275.4,1280.1,1279.6,1276.2,4.8
176.0,1302.2,1310.6,1227.7,1263.5,1276.0,38.2
176.25,1254.2,1325.2,1354.3,1150.5,1271.0,90.7
176.5,1270.5,1206.3,1282.7,1206.6,1241.5,40.8
176.75,1332.2,1274.8,1250.6,1210.0,1266.9,51.0
177.0,1119.3,1321.9,1252.1,1186.0,1219.8,87.0
177.25,1268.8,1292.6,1288.4,1242.4,1273.1,22.9
177.5,1247.2,1315.7,1213.8,1255.4,1258.0,42.4
177.75,1296.0,1299.3,1361.0,1163.5,1279.9,83.2
178.0,1219.9,1166.7,1247.5,1247.9,1220.5,38.2
178.25,1280.1,1243.2,1278.7,1273.3,1268.8,17.3
178.5,1280.0,1278.3,1290.1,1219.5,1267.0,32.1
178.75,1308.3,1369.0,1305.4,1210.8,1298.4,65.3
179.0,1269.9,1242.1,1302.9,1292.5,1276.8,27.0
179.25,1206.6,1269.0,1276.6,1172.1,1231.0,50.3
179.5,1289.6,1268.5,1280.6,1274.2,1278.2,9.0
179.75,1342.7,1259.3,1213.9,1184.5,1250.1,69.0
180.0,1217.0,1321.9,1262.4,1226.6,1257.0,47.5
180.25,1240.4,1307.3,1286.7,1148.9,1245.8,70.4
180.5,1292.5,1277.6,1283.8,1224.9,1269.7,30.5
180.75,1245.4,1285.4,1208.7,1220.0,1239.9,34.0
181.0,1257.9,1249.2,1251.7,1272.7,1257.9,10.6
181.25,1255.2,1191.6,1251.1,1301.1,1249.8,44.9
181.5,1265.3,1283.2,1253.2,1169.7,1242.9,50.3
181.75,1400.3,1281.1,1323.4,1265.7,1317.6,60.3
182.0,1201.1,1217.7,1370.4,1245.8,1258.8,76.7
182.25,1238.8,1348.5,1278.0,1226.7,1273.0,54.9
182.5,1330.0,1325.2,1256.1,1217.0,1282.1,55.0
182.75,1308.8,1332.4,1212.6,1166.5,1255.1,78.5
183.0,1241.2,1282.2,1250.4,1191.3,1241.3,37.7
183.25,1189.3,1252.0,1320.0,1165.0,1231.6,69.4
183.5,1292.7,1382.0,1328.6,1281.8,1321.3,45.2
183.75,1289.9,1271.8,1393.3,1235.6,1297.6,67.7
184.0,1229.7,1378.2,1195.7,1320.0,1280.9,83.4
184.25,1277.2,1326.9,1263.1,1205.4,1268.1,50.0
184.5,1328.6,1300.0,1265.7,1191.7,1271.5,59.1
184.75,1309.5,1324.7,1319.1,1176.1,1282.3,71.1
185.0,1267.3,1383.7,1280.1,1288.5,1304.9,53.2
185.25,1300.9,1274.2,1193.2,1231.6,1250.0,47.4
185.5,1275.7,1387.2,1236.4,1366.6,1316.5,72.1
185.75,1302.4,1294.2,1260.1,1354.8,1302.9,39.1
186.0,1257.6,1354.0,1268.4,1286.6,1291.6,43.2
186.25,1181.0,1295.1,1337.6,1285.3,1274.8,66.5
186.5,1331.9,1204.8,1202.9,1262.9,1250.6,60.9
186.75,1196.8,1298.5,1262.2,1237.1,1248.7,42.8
187.0,1311.0,1227.8,1358.4,1267.9,1291.3,56.2
187.25,1287.5,1359.5,1283.5,1170.1,1275.1,78.2
187.5,1319.5,1370.5,1281.7,1277.7,1312.3,43.1
187.75,1220.7,1358.0,1182.4,1350.7,1277.9,89.6
188.0,1243.2,1387.4,1358.4,1315.0,1326.0,62.7
188.25,1294.6,1260.7,1347.1,1205.6,1277.0,59.4
188.5,1332.8,1370.6,1327.7,1172.6,1300.9,87.6
188.75,1279.8,1301.7,1362.7,1284.9,1307.3,38.1
189.0,1255.4,1270.9,1350.2,1246.0,1280.6,47.5
189.25,1243.0,1290.1,1302.0,1248.1,1270.8,29.6
189.5,1239.3,1274.4,1307.4,1265.8,1271.7,28.1
189.75,1235.3,1310.1,1308.4,1269.8,1280.9,35.7
190.0,1310.5,1284.2,1233.0,1200.7,1257.1,49.5
190.25,1263.6,1205.0,1303.3,1284.5,1264.1,42.6
190.5,1215.7,1304.3,1286.8,1253.6,1265.1,39.1
190.75,1292.4,1221.8,1298.6,1264.8,1269.4,35.0
191.0,1219.6,1239.7,1269.1,1348.8,1269.3,56.7
191.25,1328.4,1324.6,1238.9,1234.2,1281.5,52.0
191.5,1281.2,1348.6,1310.7,1293.3,1308.4,29.4
191.75,1267.8,1265.9,1235.2,1348.4,1279.3,48.4
192.0,1293.6,1381.0,1291.5,1198.1,1291.0,74.7
192.25,1294.0,1317.7,1259.7,1331.2,1300.7,31.3
192.5,1280.4,1342.5,1318.2,1315.0,1314.1,25.6
192.75,1283.0,1266.0,1270.3,1254.7,1268.5,11.7
193.0,1312.4,1375.6,1354.7,1227.7,1317.6,65.4
193.25,1236.5,1305.2,1288.6,1344.4,1293.7,44.7
193.5,1265.3,1310.8,1358.9,1276.4,1302.9,42.1
193.75,1221.9,1354.6,1241.4,1212.7,1257.6,65.7
194.0,1363.6,1268.4,1300.9,1263.9,1299.2,46.0
194.25,1205.6,1245.3,1286.6,1237.1,1243.6,33.3
194.5,1245.1,1268.6,1273.5,1279.6,1266.7,15.1
194.75,1273.7,1333.9,1256.6,1304.7,1292.2,34.2
195.0,1299.1,1378.9,1337.8,1288.2,1326.0,41.2
195.25,1306.8,1317.9,1279.1,1366.9,1317.7,36.6
195.5,1342.9,1327.9,1271.3,1296.9,1309.7,32.0
195.75,1304.5,1245.2,1228.7,1352.3,1282.7,56.7
196.0,1259.6,1326.9,1406.0,1274.9,1316.8,66.1
196.25,1330.6,1347.3,1302.8,1345.9,1331.7,20.7
196.5,1345.1,1264.8,1294.3,1268.1,1293.1,37.1
196.75,1277.6,1212.8,1378.6,1310.1,1294.7,69.0
197.0,1276.2,1320.3,1222.2,1287.4,1276.5,40.8
197.25,1311.6,1372.9,1307.2,1298.2,1322.5,34.1
197.5,1299.6,1296.7,1327.1,1241.4,1291.2,35.9
197.75,1252.1,1297.9,1307.2,1288.3,1286.4,24.1
198.0,1297.0,1333.8,1241.8,1326.4,1299.8,41.8
198.25,1335.5,1361.8,1300.5,1241.3,1309.8,52.1
198.5,1297.6,1384.7,1342.3,1339.6,1341.0,35.6
198.75,1254.4,1335.4,1375.9,1198.3,1291.0,79.8
199.0,1308.5,1347.4,1290.6,1247.3,1298.4,41.5
199.25,1313.2,1331.5,1253.5,1282.2,1295.1,34.4
199.5,1298.2,1284.8,1325.1,1281.0,1297.3,20.0
199.75,1336.7,1318.3,1275.7,1244.8,1293.9,41.5
200.0,1242.4,1251.7,1290.7,1244.7,1257.4,22.6
200.25,1311.4,1270.5,1255.9,1167.0,1251.2,60.9
200.5,1348.0,1278.6,1299.3,1230.2,1289.0,48.8
200.75,1272.5,1304.8,1315.1,1311.9,1301.1,19.5
201.0,1276.9,1372.4,1194.6,1345.5,1297.3,79.4
201.25,1256.4,1380.0,1321.2,1301.4,1314.8,51.3
201.5,1225.7,1261.2,1290.0,1187.1,1241.0,44.6
201.75,1339.1,1269.5,1242.0,1284.9,1283.9,40.9
202.0,1263.6,1314.4,1254.8,1341.7,1293.6,41.4
202.25,1296.4,1357.5,1223.5,1328.9,1301.6,57.7
202.5,1337.4,1323.0,1275.3,1304.7,1310.1,26.8
202.75,1341.0,1299.4,1263.9,1301.3,1301.4,31.5
203.0,1361.9,1378.3,1272.0,1238.2,1312.6,68.2
203.25,1349.4,1352.2,1211.0,1243.6,1289.0,72.5
203.5,1310.4,1406.5,1393.3,1298.4,1352.2,55.6
203.75,1292.6,1282.0,1290.2,1217.8,1270.7,35.5
204.0,1296.3,1306.4,1237.8,1244.6,1271.3,35.1
204.25,1307.7,1280.4,1307.3,1303.3,1299.7,13.0
204.5,1315.1,1298.0,1281.1,1281.1,1293.8,16.2
204.75,1226.2,1391.3,1310.9,1182.2,1277.7,92.7
205.0,1224.1,1300.3,1286.7,1314.4,1281.4,39.8
205.25,1306.5,1262.3,1313.6,1309.2,1297.9,23.9
205.5,1277.7,1274.6,1301.6,1265.0,1279.7,15.6
205.75,1227.1,1371.0,1265.1,1265.5,1282.2,61.9
206.0,1359.5,1349.0,1425.4,1275.7,1352.4,61.3
206.25,1286.4,1331.5,1294.1,1318.9,1307.7,21.0
206.5,1244.3,1382.7,1262.5,1238.5,1282.0,67.9
206.75,1376.0,1310.5,1229.2,1212.4,1282.0,75.9
207.0,1188.2,1234.6,1334.2,1278.4,1258.8,62.3
207.25,1225.6,1280.7,1248.3,1231.8,1246.6,24.7
207.5,1211.8,1272.2,1319.3,1296.5,1274.9,46.3
207.75,1342.0,1293.9,1207.6,1311.3,1288.7,57.6
208.0,1314.4,1358.6,1255.3,1264.0,1298.1,48.0
208.25,1285.7,1333.5,1279.4,1388.7,1321.8,50.7
208.5,1287.2,1349.4,1237.2,1359.0,1308.2,57.0
208.75,1328.2,1349.7,1286.4,1230.3,1298.7,52.6
209.0,1373.9,1251.1,1298.6,1323.8,1311.9,51.2
209.25,1189.1,1279.5,1266.7,1217.9,1238.3,42.2
209.5,1279.2,1328.4,1299.4,1485.9,1348.2,94.0
209.75,1341.7,1272.2,1303.0,1188.7,1276.4,65.0
210.0,1290.5,1275.2,1287.2,1392.9,1311.5,54.7
210.25,1324.0,1240.9,1224.5,1312.5,1275.5,50.1
210.5,1268.9,1349.3,1292.7,1314.6,1306.4,34.1
210.75,1303.0,1378.6,1270.1,1373.8,1331.4,53.5
211.0,1325.2,1230.4,1325.8,1257.9,1284.8,48.3
211.25,1290.9,1258.6,1263.9,1230.4,1261.0,24.8
211.5,1311.6,1224.3,1305.9,1241.2,1270.7,44.5
211.75,1258.6,1387.2,1291.9,1291.4,1307.3,55.5
212.0,1272.4,1294.4,1348.4,1290.0,1301.3,32.8
212.25,1274.2,1314.9,1292.8,1312.5,1298.6,19.0
212.5,1416.8,1387.3,1305.7,1299.4,1352.3,58.8
212.75,1264.3,1301.9,1278.9,1220.9,1266.5,34.1
213.0,1338.5,1395.1,1299.6,1253.8,1321.8,59.9
213.25,1326.0,1281.7,1271.5,1302.4,1295.4,24.1
213.5,1313.0,1211.8,1215.5,1315.1,1263.8,58.0
213.75,1265.7,1377.8,1406.5,1326.0,1344.0,61.9
214.0,1223.3,1346.0,1373.7,1236.6,1294.9,76.0
214.25,1372.7,1205.1,1330.5,1267.5,1293.9,73.4
214.5,1274.8,1284.2,1301.2,1238.2,1274.6,26.6
214.75,1279.3,1329.2,1392.6,1392.4,1348.4,54.9
215.0,1269.9,1245.2,1225.3,1316.7,1264.3,39.4
215.25,1286.2,1278.0,1276.7,1327.0,1292.0,23.7
215.5,1351.5,1311.3,1346.9,1349.1,1339.7,19.1
215.75,1393.2,1279.2,1328.7,1370.0,1342.8,50.0
216.0,1371.6,1354.6,1375.1,1150.4,1312.9,108.7
216.25,1363.2,1336.1,1323.4,1407.3,1357.5,37.1
216.5,1282.5,1352.3,1479.1,1338.5,1363.1,83.0
216.75,1297.2,1279.7,1382.5,1288.1,1311.9,47.6
217.0,1276.3,1261.0,1394.2,1166.1,1274.4,93.6
217.25,1286.7,1265.2,1403.4,1378.1,1333.3,67.7
217.5,1383.6,1289.3,1290.1,1283.2,1311.5,48.1
217.75,1320.3,1341.9,1470.3,1283.4,1354.0,81.2
218.0,1244.3,1246.2,1238.6,1343.0,1268.0,50.1
218.25,1369.4,1276.5,1444.6,1239.6,1332.6,92.5
218.5,1299.3,1396.2,1413.1,1385.7,1373.6,50.8
218.75,1404.4,1427.0,1472.5,1304.4,1402.1,71.0
219.0,1306.0,1398.9,1337.0,1405.6,1361.9,48.4
219.25,1395.5,1326.8,1294.9,1348.8,1341.5,42.3
219.5,1295.6,1347.6,1290.6,1246.3,1295.0,41.5
219.75,1372.4,1352.0,1495.3,1203.1,1355.7,119.8
220.0,1237.3,1306.2,1375.4,1351.2,1317.5,60.7
220.25,1301.8,1334.4,1510.7,1235.0,1345.5,117.7
220.5,1310.4,1378.6,1415.1,1307.5,1352.9,52.9
220.75,1384.3,1326.9,1435.6,1408.9,1388.9,46.4
221.0,1376.6,1306.3,1289.3,1308.3,1320.1,38.6
221.25,1280.7,1397.9,1358.1,1416.1,1363.2,60.1
221.5,1289.1,1368.7,1512.4,1284.6,1363.7,106.4
221.75,1400.6,1399.5,1430.1,1423.6,1413.4,15.7
222.0,1284.5,1404.1,1394.4,1327.6,1352.6,56.8
222.25,1314.2,1315.2,1378.9,1343.4,1337.9,30.5
222.5,1425.3,1359.2,1373.9,1351.8,1377.5,33.1
222.75,1244.9,1362.8,1422.3,1271.2,1325.3,82.1
223.0,1387.5,1262.1,1339.9,1334.1,1330.9,51.7
223.25,1384.6,1339.6,1420.1,1200.8,1336.3,96.1
223.5,1313.3,1323.1,1431.1,1317.5,1346.2,56.7
223.75,1257.9,1391.2,1488.4,1276.7,1353.6,107.5
224.0,1284.6,1436.0,1426.4,1245.5,1348.1,97.3
224.25,1388.0,1352.2,1395.2,1396.5,1383.0,20.9
224.5,1304.3,1415.8,1346.2,1221.3,1321.9,81.3
224.75,1322.5,1340.1,1379.4,1269.4,1327.8,45.6
225.0,1366.5,1321.2,1424.3,1317.3,1357.3,49.9
225.25,1335.1,1406.2,1372.7,1290.3,1351.1,49.9
225.5,1325.8,1439.6,1529.7,1212.1,1376.8,137.9
225.75,1335.6,1447.4,1645.2,1252.3,1420.1,170.0
226.0,1400.9,1374.8,1332.9,1339.3,1362.0,31.8
226.25,1291.8,1382.7,1424.0,1357.3,1363.9,55.4
226.5,1392.5,1444.9,1538.1,1202.5,1394.5,141.4
226.75,1378.2,1393.8,1479.2,1316.5,1391.9,67.1
227.0,1384.8,1324.4,1588.5,1365.5,1415.8,117.8
227.25,1283.9,1325.0,1495.7,1291.9,1349.1,99.3
227.5,1332.0,1386.7,1452.5,1363.1,1383.6,51.1
227.75,1331.4,1442.2,1453.4,1346.7,1393.4,63.3
228.0,1355.2,1233.7,1517.9,1379.8,1371.7,116.6
228.25,1438.0,1484.8,1435.4,1330.4,1422.1,65.2
228.5,1297.8,1373.9,1461.4,1271.2,1351.1,85.5
228.75,1431.0,1416.8,1448.7,1322.0,1404.6,56.6
229.0,1300.2,1392.9,1398.1,1335.4,1356.6,47.1
229.25,1461.7,1531.1,1499.4,1292.7,1446.2,106.2
229.5,1380.5,1419.8,1532.2,1285.9,1404.6,101.9
229.75,1454.0,1550.9,1468.8,1390.4,1466.0,66.0
230.0,1373.6,1459.0,1541.6,1434.1,1452.1,69.6
230.25,1390.9,1406.3,1443.8,1352.2,1398.3,37.9
230.5,1275.6,1369.4,1560.4,1232.4,1359.5,145.7
230.75,1445.1,1417.1,1439.0,1331.8,1408.3,52.3
231.0,1333.7,1562.0,1571.4,1400.4,1466.9,118.5
231.25,1423.4,1480.3,1502.6,1286.3,1423.1,97.2
231.5,1442.1,1341.9,1462.6,1311.4,1389.5,74.1
231.75,1352.9,1406.0,1523.1,1374.7,1414.2,75.8
232.0,1319.2,1331.2,1481.7,1367.8,1375.0,74.1
232.25,1430.6,1409.5,1519.5,1358.0,1429.4,67.4
232.5,1441.3,1422.3,1573.4,1429.8,1466.7,71.6
232.75,1466.0,1464.0,1407.9,1411.0,1437.2,32.1
233.0,1477.8,1365.5,1460.4,1338.4,1410.5,68.9
233.25,1367.7,1477.4,1444.6,1418.7,1427.1,46.3
233.5,1432.6,1460.8,1589.5,1378.8,1465.4,89.5
233.75,1407.8,1491.9,1622.2,1339.5,1465.4,121.7
234.0,1369.2,1502.1,1544.6,1393.5,1452.4,84.4
234.25,1377.2,1401.3,1500.5,1367.7,1411.7,60.9
234.5,1492.3,1339.4,1439.4,1453.1,1431.0,65.1
234.75,1388.1,1590.8,1430.8,1504.2,1478.5,88.9
235.0,1458.8,1535.2,1438.9,1423.9,1464.2,49.5
235.25,1330.7,1352.3,1559.8,1410.5,1413.3,103.3
235.5,1396.7,1442.8,1553.7,1460.1,1463.3,65.9
235.75,1511.5,1559.9,1574.6,1483.0,1532.3,42.5
236.0,1420.2,1530.6,1416.6,1396.4,1440.9,60.7
236.25,1367.4,1595.1,1530.3,1405.9,1474.7,106.2
236.5,1530.7,1541.8,1424.8,1498.2,1498.9,52.7
236.75,1414.3,1511.8,1535.0,1461.0,1480.5,53.9
237.0,1434.2,1437.6,1606.2,1494.9,1493.2,80.3
237.25,1428.1,1455.4,1460.8,1450.0,1448.6,14.3
237.5,1422.6,1480.4,1474.8,1531.6,1477.3,44.6
237.75,1383.9,1653.4,1430.7,1527.1,1498.8,119.1
238.0,1517.6,1455.5,1510.2,1526.2,1502.4,31.9
238.25,1555.7,1471.4,1493.2,1525.9,1511.6,37.0
238.5,1517.8,1465.1,1458.4,1525.2,1491.6,34.7
238.75,1511.0,1455.0,1386.1,1567.6,1479.9,77.6
239.0,1527.9,1573.8,1393.1,1560.3,1513.8,82.7
239.25,1572.1,1565.7,1367.4,1568.8,1518.5,100.7
239.5,1513.9,1385.1,1409.5,1533.5,1460.5,74.1
239.75,1415.7,1676.8,1383.2,1549.2,1506.2,134.5
240.0,1587.3,1378.8,1372.4,1575.4,1478.5,118.9
240.25,1498.9,1498.8,1355.9,1605.6,1489.8,102.5
240.5,1360.9,1577.0,1505.0,1654.0,1524.2,124.7
240.75,1420.1,1462.1,1315.5,1604.5,1450.5,119.7
241.0,1552.0,1505.8,1347.7,1624.2,1507.4,117.1
241.25,1588.7,1538.5,1312.3,1655.5,1523.7,148.9
241.5,1442.2,1435.4,1336.3,1649.2,1465.8,131.5
241.75,1533.5,1539.5,1324.1,1693.5,1522.7,151.7
242.0,1525.2,1512.6,1261.0,1679.1,1494.5,173.1
242.25,1490.5,1461.4,1288.2,1678.8,1479.7,160.0
242.5,1509.1,1434.5,1249.9,1714.9,1477.1,192.4
242.75,1517.7,1461.5,1214.5,1697.3,1472.8,199.4
243.0,1436.3,1609.1,1193.7,1711.4,1487.6,226.5
243.25,1465.5,1456.9,1167.7,1731.6,1455.4,230.3
243.5,1416.6,1520.3,1172.6,1722.6,1458.0,228.8
243.75,1567.0,1570.3,1126.3,1728.1,1497.9,258.9
244.0,1396.9,1523.1,1128.5,1748.1,1449.1,258.5
244.25,1559.6,1538.3,1082.7,1761.2,1485.4,286.7
244.5,1453.6,1515.9,1063.6,1767.2,1450.1,291.2
244.75,1501.1,1462.5,1072.0,1763.5,1449.8,285.1
245.0,1531.2,1538.7,1016.1,1748.2,1458.5,311.7
245.25,1525.6,1536.5,994.9,1769.8,1456.7,327.8
245.5,1480.7,1533.2,962.7,1743.3,1430.0,331.5
245.75,1481.9,1485.2,946.0,1732.7,1411.5,331.8
246.0,1522.2,1442.4,928.1,1742.2,1408.7,344.6
246.25,1515.0,1443.4,909.5,1723.7,1397.9,346.6
246.5,1430.0,1528.9,866.0,1687.0,1378.0,357.3
246.75,1510.2,1371.3,841.8,1705.0,1357.1,369.8
247.0,1437.1,1440.1,808.4,1699.2,1346.2,379.0
247.25,1398.2,1436.3,815.5,1664.5,1328.6,361.7
247.5,1540.0,1432.3,787.8,1659.9,1355.0,389.4
247.75,1456.5,1406.7,752.4,1664.0,1319.9,394.4
248.0,1464.0,1370.1,722.2,1633.1,1297.4,398.6
248.25,1358.0,1345.7,705.9,1621.3,1257.7,389.2
248.5,1422.0,1387.7,665.8,1596.5,1268.0,411.7
248.75,1444.2,1314.7,649.4,1572.1,1245.1,410.8
249.0,1540.5,1360.2,631.2,1545.4,1269.3,434.1
249.25,1426.8,1303.8,604.8,1501.8,1209.3,411.1
249.5,1464.6,1294.6,584.1,1524.7,1217.0,433.0
249.75,1440.7,1267.1,554.9,1470.6,1183.3,428.5
250.0,1427.3,1259.4,527.8,1464.1,1169.7,437.1
250.25,1405.4,1210.2,504.1,1432.4,1138.0,434.1
250.5,1462.7,1202.5,475.3,1416.6,1139.3,456.9
250.75,1366.0,1148.8,453.0,1408.1,1094.0,442.2
251.0,1427.4,1161.0,431.3,1353.5,1093.3,455.4
251.25,1408.7,1095.1,411.7,1328.9,1061.1,452.9
251.5,1377.9,1120.0,395.4,1290.3,1045.9,446.7
251.75,1436.1,1085.2,370.7,1265.7,1039.4,468.3
252.0,1364.3,1041.1,354.0,1246.3,1001.4,451.8
252.25,1458.8,1007.6,337.9,1208.0,1003.1,480.3
252.5,1293.9,1009.4,320.0,1172.9,949.1,435.3
252.75,1355.7,1001.9,306.2,1150.0,953.4,455.2
253.0,1339.6,940.1,286.9,1116.8,920.9,453.1
253.25,1339.9,916.1,273.3,1069.4,899.7,452.9
253.5,1280.4,890.6,258.6,1053.9,870.9,438.3
253.75,1313.4,859.5,247.2,1002.8,855.7,447.7
254.0,1279.3,829.8,236.0,955.0,825.0,436.0
254.25,1297.2,796.7,220.1,940.1,813.5,448.1
254.5,1266.5,766.6,208.6,909.5,787.8,439.6
254.75,1259.7,745.6,199.4,863.8,767.1,437.7
255.0,1270.5,728.7,189.1,831.9,755.0,444.4
255.25,1253.7,700.8,181.4,805.3,735.3,440.3
255.5,1214.8,669.3,175.4,770.1,707.4,426.5
255.75,1235.4,638.2,165.3,769.2,702.0,440.2
256.0,1203.4,600.7,157.1,730.4,672.9,430.5
256.25,1159.0,570.8,148.3,684.4,640.6,415.5
256.5,1149.0,538.3,139.9,661.8,622.3,415.8
256.75,1155.0,504.5,132.4,625.6,604.4,422.9
257.0,1114.8,480.9,126.7,600.8,580.8,409.0
257.25,1125.6,448.9,119.5,571.6,566.4,418.8
257.5,1095.2,420.5,114.2,549.8,544.9,409.8
257.75,1121.9,398.0,108.5,524.6,538.2,426.3
258.0,1033.0,378.5,102.3,489.8,500.9,390.4
258.25,1043.5,355.3,,468.0,622.3,369.1
258.5,1030.4,343.8,,442.9,605.7,371.2
258.75,1009.9,316.9,,419.6,582.1,374.0
259.0,992.9,300.5,,387.1,560.2,377.2
259.25,998.5,281.9,,364.6,548.3,392.0
259.5,956.0,265.7,,345.8,522.5,377.5
259.75,930.8,250.1,,333.2,504.7,371.3
260.0,907.2,236.8,,305.5,483.2,368.8
260.25,900.6,221.8,,286.4,469.6,374.6
260.5,861.6,206.4,,269.7,445.9,361.4
260.75,835.6,196.8,,254.7,429.0,353.2
261.0,815.5,184.9,,237.1,412.5,350.0
261.25,790.1,170.6,,226.1,395.6,342.7
261.5,764.2,,,207.9,486.0,393.4
261.75,740.0,,,197.3,468.6,383.8
262.0,725.9,,,186.8,456.3,381.2
262.25,693.4,,,174.9,434.1,366.7
262.5,676.8,,,170.8,423.8,357.7
262.75,647.0,,,154.2,400.6,348.4
263.0,612.3,,,148.0,380.1,328.3
263.25,586.3,,,140.8,363.5,315.0
263.5,572.4,,,135.0,353.7,309.3
263.75,533.8,,,127.8,330.8,287.1
264.0,511.2,,,119.2,315.2,277.2
264.25,485.9,,,113.1,299.5,263.6
264.5,454.6,,,108.5,281.5,244.8
264.75,423.2,,,102.2,262.7,227.0
265.0,398.8,,,96.6,247.7,213.7
265.25,375.4,,,91.4,233.4,200.8
265.5,378.4,,,87.3,232.8,205.9
265.75,357.8,,,82.6,220.2,194.6
266.0,332.5,,,77.4,205.0,180.4
266.25,297.6,,,73.0,185.3,158.8
266.5,277.4,,,69.6,173.5,147.0
266.75,280.9,,,66.2,173.6,151.8
267.0,262.2,,,63.4,162.8,140.6
267.25,253.1,,,59.4,156.2,137.0
267.5,239.4,,,57.1,148.2,128.9
267.75,227.7,,,53.5,140.6,123.2
268.0,216.5,,,52.4,134.4,116.1
268.25,207.4,,,49.3,128.3,111.8
268.5,193.5,,,46.9,120.2,103.7
268.75,185.2,,,46.5,115.8,98.1
269.0,176.5,,,43.2,109.9,94.2
269.25,165.2,,,,165.2,
269.5,157.7,,,,157.7,