File: 01_Data/Black_PMMA/Cone/Black_PMMA_Cone_HF75Scan_230607_R4.csv
Names,Time,Stack TC,Smoke TC,Exh Press,Smoke Comp,Smoke Meas,CO Meter,CO2 Meter,O2 Meter,Sample Mass,Ext Coeff,Start Test,Flame Verif
Chan Gain,,500,500,1,1,1,1,1,1,1,1,1.0,1.0
Offset,,0,0,0.139256,0,0,0,0,0,0,0,0.0,0.0
Gain,,1,1,25.011,13.252,13.937,1,1,1,1.00107,1.04323,1.0,1.0
Units,sec,C,C,Pa,%,%,%,%,%,g,/m,,
Baseline,,52.659,53.9035,136.375,99.932,100.814,9.07455e-06,0.0528826,20.9367,-452.056,-0.0804151,,
4,0.75,48.3605,49.8202,136.893,100.257,101.026,0.000651829,0.0657237,20.9176,149.679,-0.069935,0.0,0.0
8,1.75,46.8531,48.6283,138.226,100.258,101.134,0.000592401,0.0632434,20.919,149.649,-0.0795675,0.0,0.0
12,2.75,46.8545,48.3395,133.791,100.27,101.057,0.000548524,0.0609054,20.9217,149.489,-0.0715302,0.0,0.0
16,3.75,47.1114,48.4781,136.273,100.269,101.135,0.000505956,0.0591116,20.924,149.569,-0.0787235,0.0,0.0
20,4.75,47.1737,48.4895,136.908,100.262,101.124,0.000471685,0.0572227,20.9266,149.569,-0.0783505,0.0,0.0
24,5.75,47.3189,48.781,136.568,100.255,101.101,0.000444062,0.0558087,20.9284,149.539,-0.0769356,0.0,0.0
28,6.75,47.2702,48.4858,135.738,100.244,101.07,0.000446605,0.0546521,20.9301,149.549,-0.0751228,0.0,0.0
32,7.75,47.7638,48.6068,136.323,100.227,101.093,0.000448274,0.0537918,20.9324,149.559,-0.0787521,0.0,0.0
36,8.75,47.6104,48.5746,135.977,100.226,101.089,0.000433083,0.0531221,20.9346,149.569,-0.0784044,0.0,0.0
40,9.75,47.6576,48.928,134.629,100.217,101.148,0.000398075,0.0526079,20.936,149.449,-0.0846049,0.0,0.0
44,10.75,47.8228,48.8869,125.627,100.212,99.9345,0.000359042,0.0522782,20.937,149.389,0.0254001,0.0,1.0
48,11.75,48.1682,48.7868,121.33,100.204,97.2617,0.000329816,0.0520806,20.9376,149.269,0.272739,0.0,1.0
52,12.75,49.1884,49.0181,108.001,100.192,95.6817,0.00032235,0.0521353,20.938,149.079,0.421518,0.0,1.0
56,13.75,49.8454,49.4977,111.34,100.192,93.0446,0.000355056,0.0522751,20.9382,148.899,0.677301,0.0,0.0
60,14.75,51.9307,50.5967,107.324,100.18,90.0266,0.000392802,0.0524674,20.9384,148.638,0.97795,0.0,1.0
64,15.75,54.7903,51.8203,102.657,100.157,90.1937,0.000408519,0.0527523,20.9379,148.388,0.958832,0.0,1.0
68,16.75,57.5915,53.3687,97.2358,100.141,89.6956,0.00039114,0.0541267,20.9374,148.168,1.0081,0.0,1.0
72,17.75,59.9958,55.1688,99.3409,100.131,90.1337,0.000368261,0.0618121,20.9366,147.918,0.962552,0.0,1.0
76,18.75,62.885,57.5817,91.7616,100.118,87.5112,0.000384006,0.0777806,20.9353,147.667,1.23158,0.0,1.0
80,19.75,65.8571,59.2128,94.6536,100.098,89.6357,0.000454764,0.117578,20.934,147.327,1.01023,0.0,1.0
84,20.75,66.9629,60.0292,103.193,100.09,88.1271,0.000696805,0.188483,20.9284,147.057,1.16482,0.0,0.0
88,21.75,69.6462,62.3152,95.8779,100.057,88.2355,0.00111337,0.312129,20.9027,146.776,1.15057,0.0,0.0
92,22.75,73.1843,64.6655,102.403,100.059,88.0943,0.00180252,0.455949,20.8125,146.526,1.16541,0.0,0.0
96,23.75,76.1646,67.3276,95.7092,100.046,88.6187,0.00261608,0.604756,20.6521,145.946,1.10991,0.0,0.0
100,24.75,78.7078,69.4867,95.639,100.02,87.9165,0.0035244,0.75099,20.4582,145.735,1.18034,0.0,0.0
104,25.75,82.0529,72.021,87.2316,100.009,83.9742,0.00428977,0.88335,20.2746,145.525,1.59914,0.0,0.0
108,26.75,84.7425,74.7519,87.9383,99.9898,84.8984,0.00527146,0.991502,20.1541,145.275,1.49724,0.0,0.0
112,27.75,87.9373,76.9284,89.7946,99.9664,87.054,0.00604453,1.09792,20.0077,144.984,1.26565,0.0,0.0
116,28.75,90.7878,79.6538,91.0754,99.955,86.023,0.00722543,1.21633,19.8643,144.664,1.37364,0.0,0.0
120,29.75,93.9538,82.2198,89.4893,99.917,84.7755,0.00842383,1.32476,19.7153,144.364,1.50383,0.0,0.0
124,30.75,96.7037,85.1671,86.4087,99.9029,83.4047,0.00955125,1.41852,19.5454,143.993,1.65172,0.0,0.0
128,31.75,99.748,87.7155,86.1217,99.8798,85.1953,0.0105825,1.49773,19.3657,143.573,1.45522,0.0,0.0
132,32.75,103.208,90.5687,80.2392,99.8701,85.3204,0.0114883,1.56391,19.2058,143.243,1.44091,0.0,0.0
136,33.75,105.152,93.3759,90.6831,99.8834,85.0018,0.0122584,1.62429,19.0803,142.902,1.47636,0.0,0.0
140,34.75,108.099,95.4075,78.2135,99.8968,84.79,0.0130703,1.70066,18.9815,142.582,1.50042,0.0,0.0
144,35.75,111.016,97.988,90.0954,99.9029,85.4994,0.0139173,1.78473,18.8952,142.232,1.42472,0.0,0.0
148,36.75,113.556,100.814,91.4067,99.9146,84.0975,0.0147381,1.86687,18.8038,141.851,1.57709,0.0,0.0
152,37.75,116.209,103.428,84.3983,99.9138,85.9294,0.0156911,1.93835,18.7013,141.531,1.37982,0.0,0.0
156,38.75,119.098,105.968,76.6312,99.9227,85.2889,0.016624,2.00047,18.5886,141.16,1.4491,0.0,0.0
160,39.75,121.191,108.637,83.7586,99.9344,84.0988,0.0175472,2.03928,18.5123,140.8,1.57876,0.0,0.0
164,40.75,123.688,111.277,83.5694,99.9611,83.1597,0.0187069,2.0903,18.4257,140.45,1.68397,0.0,0.0
168,41.75,125.719,113.506,78.7195,99.9566,83.628,0.0198361,2.13449,18.3449,140.069,1.63218,0.0,0.0
172,42.75,128.239,115.998,82.8252,99.9696,86.5559,0.0207225,2.17725,18.2662,139.779,1.31845,0.0,0.0
176,43.75,130.623,118.319,94.3605,99.9862,84.8402,0.0213737,2.22424,18.197,139.348,1.50319,0.0,0.0
180,44.75,132.604,120.807,77.2815,99.9947,85.6227,0.0218768,2.26633,18.1324,138.978,1.41994,0.0,0.0
184,45.75,134.301,122.985,90.1793,100.008,86.1646,0.0223014,2.29822,18.0693,138.638,1.36343,0.0,0.0
188,46.75,136.518,124.974,83.5236,100.029,86.678,0.0225552,2.31597,18.0245,138.337,1.31099,0.0,0.0
192,47.75,138.435,127.383,73.0476,100.045,84.8325,0.0228282,2.33307,17.9762,137.877,1.50941,0.0,0.0
196,48.75,140.503,129.345,74.8825,100.059,83.7977,0.0230216,2.35378,17.9382,137.517,1.62295,0.0,0.0
200,49.75,142.089,131.752,77.4517,100.078,82.8645,0.0231694,2.38044,17.9109,137.146,1.7272,0.0,0.0
204,50.75,144.264,133.269,81.7215,100.111,84.7691,0.0232823,2.40061,17.8924,136.816,1.52228,0.0,0.0
208,51.75,146.021,135.817,78.7569,100.117,84.3128,0.0234562,2.42142,17.872,136.425,1.57224,0.0,0.0
212,52.75,148.062,137.602,83.1335,100.131,84.7934,0.023601,2.43886,17.8366,136.105,1.52148,0.0,0.0
216,53.75,149.323,139.86,83.4594,100.162,82.0713,0.0236718,2.45327,17.8057,135.695,1.82291,0.0,0.0
220,54.75,151.601,142.176,84.973,100.185,83.4608,0.023682,2.46798,17.7814,135.294,1.67134,0.0,0.0
224,55.75,152.557,143.789,81.6192,100.199,84.0295,0.0235923,2.48275,17.7625,134.904,1.6105,0.0,0.0
228,56.75,154.179,145.752,89.0001,100.225,84.5173,0.0234666,2.4997,17.7436,134.573,1.55989,0.0,0.0
232,57.75,155.661,147.907,93.4858,100.241,84.9567,0.0233624,2.51731,17.728,134.223,1.51388,0.0,0.0
236,58.75,157.528,149.49,80.8727,100.268,85.271,0.023409,2.5362,17.7072,133.793,1.48256,0.0,0.0
240,59.75,158.464,151.399,83.8838,100.287,84.1971,0.0236648,2.55298,17.6852,133.462,1.60028,0.0,0.0
244,60.75,160.526,153.184,86.7873,100.324,83.4515,0.0240431,2.56937,17.659,133.052,1.68511,0.0,0.0
248,61.75,161.183,154.641,105.333,100.349,85.2582,0.0243368,2.58029,17.6417,132.691,1.49131,0.0,0.0
252,62.75,162.493,156.66,86.0004,100.357,84.4276,0.0247143,2.59492,17.6198,132.281,1.58164,0.0,0.0
256,63.75,164.212,158.242,80.0644,100.39,84.9342,0.0250674,2.61239,17.5985,131.931,1.52992,0.0,0.0
260,64.75,165.521,159.866,74.3658,100.418,85.0486,0.0253927,2.62898,17.5792,131.51,1.52022,0.0,0.0
264,65.75,166.653,161.987,78.7264,100.449,84.9644,0.0256513,2.63787,17.5609,131.21,1.53205,0.0,0.0
268,66.75,168.159,163.522,81.6215,100.465,83.759,0.0258429,2.64022,17.5407,130.859,1.66431,0.0,0.0
272,67.75,169.511,164.877,71.9118,100.494,82.5847,0.0259595,2.6419,17.5275,130.469,1.79613,0.0,0.0
276,68.75,170.824,166.619,77.1052,100.517,83.8262,0.0259504,2.64735,17.5188,130.059,1.66169,0.0,0.0
280,69.75,172.06,168.654,93.3897,100.539,83.7165,0.025853,2.65972,17.5131,129.708,1.67566,0.0,0.0
284,70.75,173.286,169.596,81.2215,100.592,84.9205,0.0256796,2.67705,17.5093,129.278,1.54984,0.0,0.0
288,71.75,174.555,171.547,73.7269,100.597,85.2676,0.0255134,2.69212,17.501,128.957,1.51292,0.0,0.0
292,72.75,175.048,172.995,89.1039,100.632,84.4514,0.025426,2.70523,17.4811,128.537,1.60414,0.0,0.0
296,73.75,176.455,173.833,81.897,100.648,84.2145,0.0253916,2.71687,17.4604,128.117,1.63131,0.0,0.0
300,74.75,177.454,175.525,79.6789,100.672,84.8325,0.0255858,2.72697,17.4434,127.706,1.56657,0.0,0.0
304,75.75,178.597,177.4,75.1077,100.713,81.1683,0.0258519,2.73708,17.4307,127.336,1.9743,0.0,0.0
308,76.75,178.974,178.557,86.3881,100.723,84.5756,0.0262305,2.74814,17.4177,127.005,1.59896,0.0,0.0
312,77.75,180.517,180.063,81.117,100.74,85.0758,0.0266279,2.75511,17.4033,126.675,1.54658,0.0,0.0
316,78.75,181.471,181.456,84.9097,100.75,84.6777,0.0269707,2.75372,17.391,126.265,1.59035,0.0,0.0
320,79.75,182.794,183.129,82.7839,100.772,84.3119,0.0271617,2.75195,17.3846,125.824,1.63198,0.0,0.0
324,80.75,183.649,183.985,80.5682,100.784,83.8649,0.0272213,2.75326,17.3787,125.444,1.68177,0.0,0.0
328,81.75,184.819,185.863,87.172,100.793,84.4723,0.0271073,2.75789,17.3697,125.093,1.61654,0.0,0.0
332,82.75,185.305,187.078,80.3583,100.809,84.4174,0.0269609,2.76445,17.3625,124.673,1.62388,0.0,0.0
336,83.75,186.163,189.058,83.0244,100.811,84.7338,0.0268025,2.77779,17.3577,124.262,1.58983,0.0,0.0
340,84.75,187.416,190.176,76.5755,100.813,83.3073,0.0267223,2.80082,17.3536,123.872,1.74538,0.0,0.0
344,85.75,188.114,191.631,83.7129,100.819,84.0435,0.026729,2.82667,17.3439,123.532,1.66545,0.0,0.0
348,86.75,189.557,192.925,90.2595,100.82,84.3353,0.0267979,2.84658,17.3197,123.151,1.63378,0.0,0.0
352,87.75,190.491,194.109,84.6624,100.823,85.0971,0.0269026,2.85745,17.2877,122.791,1.55175,0.0,0.0
356,88.75,191.66,195.302,72.8637,100.83,84.6675,0.0269968,2.86334,17.2656,122.36,1.59876,0.0,0.0
360,89.75,192.408,196.687,86.3637,100.823,85.2421,0.0271339,2.86741,17.2486,121.97,1.53624,0.0,0.0
364,90.75,193.269,198.115,75.2756,100.816,85.0205,0.027269,2.87143,17.2358,121.55,1.5594,0.0,0.0
368,91.75,193.855,199.095,82.1512,100.795,84.3187,0.0273964,2.87657,17.2267,121.119,1.6333,0.0,0.0
372,92.75,194.923,200.146,75.0688,100.797,84.8908,0.0275056,2.88333,17.2207,120.749,1.57164,0.0,0.0
376,93.75,195.247,201.809,76.2305,100.778,83.3681,0.0275822,2.89306,17.2154,120.378,1.73558,0.0,0.0
380,94.75,196.307,202.706,81.1398,100.755,83.5876,0.0276014,2.90041,17.2118,119.958,1.70936,0.0,0.0
384,95.75,196.775,203.671,88.1887,100.732,82.3312,0.0275748,2.90781,17.2004,119.607,1.84586,0.0,0.0
388,96.75,197.694,204.869,71.6203,100.713,83.1601,0.0273781,2.91316,17.1908,119.147,1.75253,0.0,0.0
392,97.75,198.553,205.795,80.0461,100.691,84.044,0.0272393,2.91203,17.1793,118.747,1.6538,0.0,0.0
396,98.75,198.702,206.962,83.0694,100.662,83.0023,0.0271537,2.91043,17.1728,118.376,1.76528,0.0,0.0
400,99.75,199.746,207.981,77.1372,100.641,83.756,0.0271693,2.91052,17.1686,118.036,1.68065,0.0,0.0
404,100.75,200.543,209.186,78.5386,100.607,83.8436,0.02732,2.91419,17.1652,117.575,1.66792,0.0,0.0
408,101.75,201.346,209.999,68.7313,100.564,84.6517,0.0274424,2.9182,17.1633,117.235,1.57624,0.0,0.0
412,102.75,202.144,211.488,72.4248,100.54,82.9904,0.0275839,2.92707,17.1616,116.764,1.75544,0.0,0.0
416,103.75,202.9,212.418,76.4701,100.52,81.1671,0.0276635,2.93722,17.1595,116.394,1.95694,0.0,0.0
420,104.75,203.101,213.416,76.5159,100.474,81.3329,0.0276995,2.94669,17.1558,116.004,1.93406,0.0,0.0
424,105.75,203.934,214.256,75.8679,100.418,82.1912,0.0277075,2.95796,17.1469,115.563,1.83295,0.0,0.0
428,106.75,204.653,215.415,77.999,100.397,81.4559,0.0277123,2.97198,17.1346,115.173,1.9132,0.0,0.0
432,107.75,205.364,216.37,74.4398,100.358,82.056,0.0277829,2.98734,17.1232,114.722,1.84249,0.0,0.0
436,108.75,205.711,217.45,76.264,100.356,83.0317,0.027931,3.00348,17.1081,114.302,1.73417,0.0,0.0
440,109.75,206.868,218.418,86.4927,100.343,82.5979,0.0282527,3.01383,17.0903,113.931,1.78089,0.0,0.0
444,110.75,207.577,219.327,72.0889,100.321,82.3835,0.0284914,3.01522,17.0778,113.511,1.80268,0.0,0.0
448,111.75,208.319,220.256,79.3981,100.292,83.4476,0.0288983,3.01394,17.0616,113.181,1.68261,0.0,0.0
452,112.75,209.01,221.316,81.7489,100.249,82.6344,0.0292605,3.01742,17.051,112.73,1.76832,0.0,0.0
456,113.75,209.365,221.918,79.5652,100.211,82.073,0.0295578,3.02656,17.0399,112.34,1.82716,0.0,0.0
460,114.75,210.342,223.193,75.4733,100.166,83.4795,0.0298554,3.03998,17.0295,111.879,1.66759,0.0,0.0
464,115.75,211.344,224.388,76.1801,100.113,82.4401,0.0301403,3.05404,17.0218,111.499,1.77742,0.0,0.0
468,116.75,211.443,225.261,66.2896,100.068,84.653,0.0303826,3.06824,17.0084,111.088,1.53087,0.0,0.0
472,117.75,212.463,226.282,81.1437,100.018,82.4856,0.0305517,3.08408,16.9962,110.708,1.76364,0.0,0.0
476,118.75,213.328,227.547,71.6478,99.9486,82.076,0.0306535,3.10451,16.983,110.288,1.80286,0.0,0.0
480,119.75,213.863,227.939,75.7809,99.9081,81.9246,0.0307061,3.12211,16.9685,109.887,1.81606,0.0,0.0
484,120.75,215.337,229.133,76.8541,99.8519,81.5877,0.0307406,3.13617,16.9537,109.487,1.84861,0.0,0.0
488,121.75,215.19,230.097,68.4611,99.8139,80.5525,0.030886,3.14879,16.9354,109.106,1.96198,0.0,0.0
492,122.75,216.2,230.729,81.5398,99.7451,82.0717,0.0310772,3.16287,16.9114,108.636,1.78469,0.0,0.0
496,123.75,216.175,231.529,76.2457,99.7132,80.3572,0.0312608,3.17281,16.8908,108.215,1.97495,0.0,0.0
500,124.75,216.654,232.615,76.1297,99.6529,82.6574,0.0313873,3.17639,16.8768,107.785,1.71116,0.0,0.0
504,125.75,217.776,233.567,82.2939,99.5959,80.7417,0.0313168,3.17452,16.8631,107.424,1.9205,0.0,0.0
508,126.75,218.107,233.716,82.152,99.5534,81.5503,0.0310649,3.17266,16.8528,106.974,1.82542,0.0,0.0
512,127.75,218.596,235.182,78.2417,99.5061,80.4921,0.0307101,3.17241,16.8462,106.524,1.94059,0.0,0.0
516,128.75,219.483,236.005,68.5512,99.4709,79.9209,0.0303696,3.17361,16.8424,106.063,2.00252,0.0,0.0
520,129.75,220.128,236.904,80.3926,99.437,82.0683,0.0301357,3.17827,16.8401,105.713,1.75675,0.0,0.0
524,130.75,221.235,238.202,66.3567,99.4111,80.4406,0.0300531,3.18373,16.8386,105.252,1.9377,0.0,0.0
528,131.75,221.562,238.505,70.2838,99.3739,81.0994,0.0300472,3.19213,16.8376,104.862,1.85963,0.0,0.0
532,132.75,221.949,239.225,83.1694,99.3407,79.8554,0.03021,3.19864,16.8354,104.411,1.99804,0.0,0.0
536,133.75,222.696,240.004,83.5297,99.3177,81.475,0.0302948,3.20863,16.8255,104.041,1.81217,0.0,0.0
540,134.75,223.948,240.916,77.4074,99.3088,80.114,0.0303706,3.22651,16.8156,103.55,1.96551,0.0,0.0
544,135.75,224.377,242.475,87.3476,99.2829,81.1543,0.0303966,3.24918,16.8071,103.17,1.84505,0.0,0.0
548,136.75,225.043,243.211,70.2968,99.2695,80.5589,0.0304006,3.26798,16.7919,102.709,1.91122,0.0,0.0
552,137.75,225.7,244.213,87.5254,99.2667,80.1922,0.0304058,3.27896,16.764,102.299,1.9527,0.0,0.0
556,138.75,226.286,244.075,69.877,99.2606,79.4785,0.0304543,3.28307,16.7416,101.889,2.03395,0.0,0.0
560,139.75,227.121,245.811,62.9449,99.2744,79.1213,0.0306145,3.29526,16.7245,101.428,2.07644,0.0,0.0
564,140.75,228.009,246.055,67.4001,99.2712,80.9523,0.0309123,3.31852,16.7066,101.048,1.86678,0.0,0.0
568,141.75,228.562,247.434,79.8095,99.2861,80.5967,0.0312684,3.34065,16.6925,100.607,1.90844,0.0,0.0
572,142.75,228.598,248.094,66.5811,99.2942,80.3985,0.0316599,3.35928,16.676,100.127,1.93172,0.0,0.0
576,143.75,230.045,249.296,82.0794,99.3249,78.6168,0.0321561,3.37212,16.6587,99.5461,2.13963,0.0,0.0
580,144.75,230.795,250.186,89.2993,99.348,79.5687,0.0326497,3.39549,16.6309,99.2958,2.03162,0.0,0.0
584,145.75,230.862,250.746,76.1488,99.3577,80.1569,0.0331096,3.41304,16.6103,98.7652,1.96511,0.0,0.0
588,146.75,231.616,251.601,65.6919,99.3896,77.9742,0.0335879,3.42655,16.5951,98.2947,2.2207,0.0,0.0
592,147.75,232.657,252.317,69.3862,99.4329,78.5858,0.0340036,3.44145,16.5686,97.9243,2.15319,0.0,0.0
596,148.75,232.649,253.372,62.2083,99.454,81.0271,0.0343663,3.45923,16.5434,97.4038,1.87516,0.0,0.0
600,149.75,233.345,253.957,72.7805,99.4875,79.6444,0.0346404,3.47358,16.5245,96.9833,2.03576,0.0,0.0
604,150.75,234.197,254.831,71.7745,99.5118,77.6675,0.0347992,3.47777,16.4966,96.5128,2.268,0.0,0.0
608,151.75,234.694,255.446,70.2838,99.5688,80.6813,0.034852,3.47666,16.4783,96.1124,1.92486,0.0,0.0
612,152.75,235.917,256.964,66.9429,99.6032,79.5359,0.0348037,3.4782,16.4663,95.6319,2.05886,0.0,0.0
616,153.75,236.49,257.476,73.5117,99.6408,80.1059,0.0346931,3.48861,16.4584,95.1714,1.99698,0.0,0.0
620,154.75,237.577,258.192,75.139,99.6974,79.8588,0.0345928,3.5081,16.4467,94.771,2.03045,0.0,0.0
624,155.75,238.191,259.108,77.931,99.7504,78.8835,0.034529,3.52898,16.4391,94.4006,2.14775,0.0,0.0
628,156.75,239.012,260.147,72.1454,99.8022,79.8724,0.0344724,3.5563,16.4178,93.89,2.0385,0.0,0.0
632,157.75,239.794,260.813,71.7294,99.8349,80.9365,0.0344259,3.58488,16.4019,93.5096,1.92038,0.0,0.0
636,158.75,240.322,261.922,69.3892,99.8794,80.8051,0.0343739,3.61294,16.3814,93.0191,1.93933,0.0,0.0
640,159.75,241.633,264.041,75.1077,99.9291,79.6584,0.0343295,3.63928,16.3523,92.5887,2.07468,0.0,0.0
644,160.75,242.642,264.079,73.5346,99.9655,79.7133,0.0343088,3.66702,16.3187,92.1682,2.07171,0.0,0.0
648,161.75,243.425,265.504,71.7638,100.014,81.2572,0.0343279,3.69146,16.2842,91.6577,1.90064,0.0,0.0
652,162.75,244.206,266.281,73.3232,100.045,80.1314,0.0343957,3.71235,16.2501,91.2372,2.03113,0.0,0.0
656,163.75,244.961,267.085,63.4853,100.102,78.9248,0.0344923,3.73515,16.215,90.7667,2.17515,0.0,0.0
660,164.75,245.553,268.137,83.3801,100.139,78.3021,0.0346598,3.75967,16.1863,90.2462,2.25104,0.0,0.0
664,165.75,245.727,269.032,75.329,100.162,79.3169,0.0349108,3.78977,16.1552,89.8558,2.13531,0.0,0.0
668,166.75,246.751,269.946,72.7179,100.197,78.7244,0.0351212,3.80419,16.143,89.3852,2.20713,0.0,0.0
672,167.75,247.312,270.43,68.5901,100.217,77.9036,0.035269,3.8157,16.1212,88.9047,2.3049,0.0,0.0
676,168.75,247.625,271.289,75.7351,100.257,80.6107,0.0351813,3.82348,16.0895,88.5143,1.99588,0.0,0.0
680,169.75,248.57,272.34,58.2218,100.287,81.321,0.0348748,3.82973,16.0652,88.0138,1.9184,0.0,0.0
684,170.75,249.218,273.068,70.1059,100.318,80.7796,0.0344111,3.83011,16.0452,87.4732,1.98234,0.0,0.0
688,171.75,250.179,274.14,70.5227,100.327,79.4326,0.0338875,3.82793,16.0321,87.2229,2.13707,0.0,0.0
692,172.75,250.335,274.869,68.3245,100.357,79.4866,0.0334421,3.8282,16.0275,86.7524,2.1335,0.0,0.0
696,173.75,250.895,275.641,70.2929,100.374,80.4967,0.0331689,3.83339,16.0205,86.1618,2.01953,0.0,0.0
700,174.75,251.477,276.078,70.154,100.41,79.8362,0.0330585,3.84958,16.0152,85.6613,2.09817,0.0,0.0
704,175.75,252.061,277.198,82.5282,100.419,79.3684,0.0331885,3.86874,16.0116,85.2709,2.1528,0.0,0.0
708,176.75,252.966,277.941,62.9029,100.439,80.091,0.0334498,3.89072,16.0047,84.7503,2.0717,0.0,0.0
712,177.75,253.618,278.981,72.1408,100.444,77.9278,0.033876,3.90893,15.9876,84.2898,2.32267,0.0,0.0
716,178.75,254.32,279.2,62.3755,100.464,77.8517,0.0342355,3.91191,15.9633,83.8794,2.3335,0.0,0.0
720,179.75,255.018,280.331,86.2836,100.461,77.3136,0.0344178,3.90556,15.9426,83.479,2.39666,0.0,0.0
724,180.75,255.425,281.067,70.6082,100.479,77.9401,0.0344044,3.89919,15.929,83.0385,2.32443,0.0,0.0
728,181.75,255.751,281.768,61.3519,100.465,77.8189,0.0342987,3.90452,15.9201,82.568,2.33746,0.0,0.0
732,182.75,256.417,282.279,64.9187,100.464,77.289,0.0342066,3.91652,15.9143,82.0174,2.39988,0.0,0.0
736,183.75,256.652,283.101,60.0429,100.454,77.5361,0.0341592,3.93514,15.9104,81.5669,2.36975,0.0,0.0
740,184.75,257.834,283.967,73.4369,100.461,78.3029,0.0341424,3.95658,15.9057,81.0464,2.28031,0.0,0.0
744,185.75,258.473,284.836,72.6973,100.454,77.1069,0.0341169,3.97575,15.894,80.6259,2.42054,0.0,0.0
748,186.75,258.996,285.811,67.9535,100.443,77.3736,0.0340509,3.98888,15.878,80.0453,2.38791,0.0,0.0
752,187.75,259.538,286.875,57.6356,100.429,75.6055,0.0338561,3.99745,15.8585,79.6949,2.59816,0.0,0.0
756,188.75,260.632,287.715,73.8559,100.429,76.0474,0.0336454,4.00676,15.8444,79.1844,2.54483,0.0,0.0
760,189.75,261.189,288.225,76.161,100.401,74.8476,0.0334082,4.02344,15.8285,78.7439,2.68782,0.0,0.0
764,190.75,261.19,289.019,74.5917,100.378,75.0781,0.033117,4.04699,15.8162,78.2934,2.65761,0.0,0.0
768,191.75,262.322,289.339,65.5576,100.367,75.8382,0.0328568,4.07869,15.8028,77.7629,2.56444,0.0,0.0
772,192.75,263.011,290.351,71.9454,100.339,75.3584,0.0326358,4.10516,15.7744,77.3524,2.61993,0.0,0.0
776,193.75,262.994,290.896,76.3419,100.33,73.8294,0.0324509,4.12508,15.7438,76.7418,2.80675,0.0,0.0
780,194.75,263.47,291.585,67.9505,100.289,73.3096,0.0323326,4.14172,15.7074,76.3113,2.86763,0.0,0.0
784,195.75,263.791,292.031,72.5438,100.27,75.2831,0.0322704,4.15027,15.6814,75.8508,2.62285,0.0,0.0
788,196.75,264.344,292.935,69.0801,100.239,73.7473,0.0322786,4.15507,15.6606,75.3903,2.80859,0.0,0.0
792,197.75,264.737,293.32,62.8548,100.222,74.0982,0.0323606,4.16515,15.6441,74.8998,2.76364,0.0,0.0
796,198.75,265.64,293.702,76.9258,100.197,74.327,0.0324929,4.176,15.6299,74.5194,2.73313,0.0,0.0
800,199.75,266.419,294.972,73.1125,100.168,73.5053,0.0326526,4.1835,15.6181,73.9288,2.8322,0.0,0.0
804,200.75,267.106,295.504,72.7522,100.135,74.2487,0.0328367,4.18542,15.6087,73.4383,2.73704,0.0,0.0
808,201.75,267.493,296.424,70.509,100.101,72.2204,0.0330294,4.18504,15.6007,72.9678,2.98741,0.0,0.0
812,202.75,268.038,297.115,75.7244,100.075,72.5398,0.0331532,4.1892,15.5929,72.5073,2.94466,0.0,0.0
816,203.75,268.581,297.852,67.8657,100.065,72.7333,0.0332072,4.20334,15.5846,71.9967,2.91939,0.0,0.0
820,204.75,269.023,298.439,62.9029,100.004,72.9243,0.0331638,4.22853,15.577,71.4561,2.88985,0.0,0.0
824,205.75,269.179,298.485,79.1889,99.9761,70.6739,0.0330515,4.25776,15.5692,71.0757,3.1741,0.0,0.0
828,206.75,270.245,299.556,62.2106,99.9453,71.2047,0.0328355,4.28939,15.5504,70.5752,3.10281,0.0,0.0
832,207.75,270.361,300.637,64.9546,99.9211,70.6926,0.0326109,4.30276,15.5326,70.0546,3.16664,0.0,0.0
836,208.75,271.13,300.939,68.0207,99.8883,70.0338,0.0322791,4.29674,15.4925,69.5541,3.24933,0.0,0.0
840,209.75,271.919,301.799,70.1464,99.864,69.2431,0.0319348,4.27744,15.4662,69.1136,3.35101,0.0,0.0
844,210.75,271.996,302.557,68.3153,99.8418,68.6915,0.0316616,4.26494,15.4489,68.6031,3.42216,0.0,0.0
848,211.75,273.06,303.432,70.1586,99.807,69.281,0.0315641,4.26936,15.4644,68.0625,3.34078,0.0,0.0
852,212.75,272.647,303.372,74.6757,99.7815,69.4549,0.0316127,4.27973,15.4746,67.6421,3.31549,0.0,0.0
856,213.75,273.849,304.058,66.3277,99.769,68.7417,0.0318366,4.31166,15.4815,67.1415,3.40881,0.0,0.0
860,214.75,273.778,305.032,66.1514,99.7391,67.7268,0.032139,4.34339,15.4866,66.651,3.54216,0.0,0.0
864,215.75,275.054,306.384,77.0968,99.7168,67.5435,0.032593,4.36853,15.4714,66.1505,3.56493,0.0,0.0
868,216.75,275.729,306.62,75.9549,99.699,67.6647,0.0329666,4.38455,15.4397,65.6299,3.54688,0.0,0.0
872,217.75,276.369,307.638,64.0211,99.6667,67.612,0.0332741,4.38923,15.4046,65.1194,3.55105,0.0,0.0
876,218.75,276.461,307.98,64.0471,99.6477,67.5116,0.0335146,4.38804,15.3736,64.6289,3.5629,0.0,0.0
880,219.75,277.161,308.326,71.0516,99.6812,67.3517,0.0337114,4.38805,15.3532,64.1684,3.58768,0.0,0.0
884,220.75,278.235,309.851,66.772,99.6849,65.8856,0.0338869,4.39988,15.3399,63.6578,3.78942,0.0,0.0
888,221.75,279.014,310.379,66.9597,99.7241,65.26,0.0340341,4.42154,15.3311,63.0972,3.88033,0.0,0.0
892,222.75,279.732,311.382,65.424,99.7484,64.1099,0.0342025,4.44323,15.3253,62.7368,4.04527,0.0,0.0
896,223.75,280.096,312.534,71.4134,99.7912,62.7004,0.034378,4.45875,15.3086,62.2063,4.25264,0.0,0.0
900,224.75,280.75,313.109,78.56,99.8131,63.1295,0.0345556,4.46066,15.2846,61.7158,4.19222,0.0,0.0
904,225.75,281.313,313.832,63.8089,99.8483,62.1929,0.0347082,4.45915,15.2688,61.2352,4.33223,0.0,0.0
908,226.75,281.423,314.38,66.9017,99.8705,60.857,0.0348299,4.4621,15.2585,60.7147,4.53298,0.0,0.0
912,227.75,281.69,314.972,62.9495,99.9109,61.7251,0.0348864,4.47716,15.2445,60.2842,4.40707,0.0,0.0
916,228.75,282.065,314.875,60.9894,99.9227,61.1501,0.0349087,4.49807,15.2295,59.7437,4.4938,0.0,0.0
920,229.75,282.877,316.048,69.029,99.9526,61.407,0.0349109,4.50453,15.2197,59.163,4.45817,0.0,0.0
924,230.75,283.167,316.658,52.5575,99.9874,61.0093,0.0349591,4.50088,15.21,58.6225,4.52081,0.0,0.0
928,231.75,283.96,317.097,53.9718,99.9943,60.9646,0.0350879,4.49025,15.2036,58.2721,4.52814,0.0,0.0
932,232.75,284.155,317.632,71.5226,100.014,59.1315,0.0352971,4.48019,15.1995,57.7115,4.80938,0.0,0.0
936,233.75,285.229,318.608,78.6897,100.031,59.6653,0.0355759,4.47538,15.2073,57.1209,4.7287,0.0,0.0
940,234.75,285.396,319.364,72.8568,100.052,58.8759,0.0358622,4.47719,15.2124,56.6203,4.85246,0.0,0.0
944,235.75,285.978,320.6,68.442,100.071,58.1745,0.0361607,4.48197,15.2158,56.1498,4.96383,0.0,0.0
948,236.75,286.33,321.055,70.5685,100.084,57.6956,0.0363864,4.50197,15.218,55.5992,5.04066,0.0,0.0
952,237.75,286.726,321.415,71.344,100.091,56.8258,0.0364993,4.53338,15.2194,55.0186,5.18037,0.0,0.0
956,238.75,286.84,321.405,62.1664,100.099,56.2061,0.0365112,4.56298,15.2177,54.478,5.28146,0.0,0.0
960,239.75,287.496,322.001,68.9259,100.112,55.147,0.0364623,4.59054,15.1857,53.8574,5.45664,0.0,0.0
964,240.75,287.94,322.772,70.5341,100.129,57.3485,0.0364303,4.62116,15.1509,53.467,5.10006,0.0,0.0
968,241.75,289.206,323.682,72.5965,100.16,54.1339,0.0364848,4.64853,15.1117,52.8864,5.63075,0.0,0.0
972,242.75,289.86,324.839,73.4399,100.176,53.7979,0.0366492,4.67199,15.0777,52.4759,5.68921,0.0,0.0
976,243.75,290.032,325.476,68.0298,100.181,53.9234,0.0370201,4.67965,15.0409,51.8853,5.66833,0.0,0.0
980,244.75,290.813,326.123,77.8845,100.207,52.892,0.0376361,4.68193,15.0121,51.4849,5.84739,0.0,0.0
984,245.75,290.962,326.817,73.8674,100.216,52.234,0.0383965,4.70246,14.9932,50.8742,5.9628,0.0,0.0
988,246.75,291.135,327.274,70.0861,100.237,50.5455,0.0394541,4.75875,14.9743,50.4437,6.26543,0.0,0.0
992,247.75,291.012,327.583,66.6949,100.245,53.04,0.0406396,4.83215,14.9546,49.9432,5.82537,0.0,0.0
996,248.75,290.817,327.762,71.6439,100.251,52.2684,0.0415944,4.90115,14.9254,49.5428,5.96001,0.0,0.0
1000,249.75,290.313,327.551,73.5094,100.259,52.1702,0.0421465,4.94512,14.8698,49.1824,5.97789,0.0,0.0
1004,250.75,289.738,327.251,69.274,100.266,52.7457,0.0424152,4.94256,14.8037,48.812,5.87821,0.0,0.0
1008,251.75,288.403,326.439,78.1967,100.255,52.4131,0.0425151,4.91818,14.7597,48.5617,5.93502,0.0,0.0
1012,252.75,287.152,326.058,80.6399,100.269,52.869,0.0426297,4.88937,14.7309,48.1713,5.85706,0.0,0.0
1016,253.75,285.346,324.68,83.8556,100.262,54.051,0.0428832,4.85299,14.7241,48.0011,5.65409,0.0,0.0
1020,254.75,283.248,323.362,85.3531,100.277,57.7572,0.0432803,4.79689,14.732,47.7409,5.04858,0.0,0.0
1024,255.75,280.475,321.666,90.5777,100.264,58.1966,0.0436443,4.72419,14.7436,47.5707,4.97798,0.0,0.0
1028,256.75,277.778,319.363,96.9908,100.258,61.1849,0.0438524,4.62201,14.7672,47.4506,4.51927,0.0,0.0
1032,257.75,274.151,316.773,101.365,100.247,62.6455,0.0436888,4.493,14.8103,47.4105,4.30235,0.0,0.0
1036,258.75,270.232,314.026,106.469,100.25,65.2153,0.0431112,4.31006,14.8576,47.3805,3.93475,0.0,0.0
1040,259.75,266.302,310.928,108.412,100.229,68.3614,0.042417,4.10209,14.9424,47.3605,3.50168,0.0,0.0
1044,260.75,261.545,306.77,112.422,100.234,70.6688,0.040762,3.83487,15.1135,47.3304,3.19831,0.0,0.0
1048,261.75,256.158,302.895,113.934,100.211,72.3301,0.0388017,3.57838,15.3457,47.2904,2.98364,0.0,0.0
1052,262.75,251.656,298.947,115.508,100.199,74.1211,0.0365256,3.28513,15.6505,47.2704,2.75866,0.0,0.0
1056,263.75,246.973,295.077,115.423,100.186,74.8991,0.0341786,2.98387,15.9835,47.2704,2.6619,0.0,0.0
1060,264.75,242.271,291.103,114.19,100.16,76.1402,0.0310736,2.70584,16.2631,47.3004,2.50921,0.0,0.0
1064,265.75,237.926,286.97,114.162,100.13,77.1656,0.0287053,2.32214,16.6639,47.2904,2.38398,0.0,0.0
1068,266.75,233.791,283.373,113.853,100.098,78.1009,0.0259324,1.9675,17.0387,47.3104,2.27085,0.0,0.0
1072,267.75,229.983,279.966,116.586,100.069,78.5441,0.0234559,1.63193,17.5276,47.2904,2.21637,0.0,0.0
1076,268.75,225.959,276.219,113.087,100.026,79.4738,0.0209895,1.34614,18.014,47.2804,2.10479,0.0,0.0
1080,269.75,222.14,272.232,116.628,100.01,80.2739,0.0187449,1.10219,18.4593,47.2704,2.01169,0.0,0.0
1084,270.75,218.1,268.733,120.838,99.9478,80.6813,0.0169411,0.894133,18.8225,47.3004,1.95962,0.0,0.0
1088,271.75,214.396,265.295,116.412,99.9134,81.7094,0.0153216,0.714858,19.1832,47.3204,1.84061,0.0,0.0
1092,272.75,211.232,262.138,116.321,99.9182,82.7029,0.0140307,0.578,19.52,47.3304,1.73045,0.0,0.0
1096,273.75,208.285,258.549,114.149,99.9324,82.9287,0.0128149,0.470186,19.8161,47.2704,1.70679,0.0,0.0
1100,274.75,205.259,255.492,116.892,99.9546,83.508,0.0117599,0.38655,20.0696,47.2704,1.64513,0.0,0.0
1104,275.75,202.069,252.281,116.12,100.002,83.9912,0.0108253,0.32166,20.2664,47.2503,1.59666,0.0,0.0
1108,276.75,199.337,249.235,116.447,100.005,85.0001,0.0101081,0.270109,20.4122,47.2503,1.48766,0.0,0.0
1112,277.75,196.779,246.248,117.408,100.044,85.9013,0.00932733,0.230977,20.5249,47.2604,1.39469,0.0,0.0
1116,278.75,193.713,242.963,116.703,100.087,86.2892,0.00861529,0.201189,20.6056,47.2303,1.35745,0.0,0.0
1120,279.75,191.223,240.392,117.696,100.109,86.6401,0.00790408,0.177371,20.6705,47.2003,1.32231,0.0,0.0
1124,280.75,188.96,237.345,117.618,100.138,87.1922,0.00724195,0.159232,20.7241,47.2303,1.26685,0.0,0.0
1128,281.75,186.518,234.793,118.779,100.161,87.8553,0.00659162,0.144781,20.764,47.2604,1.19959,0.0,0.0
1132,282.75,184.297,232.126,121.056,100.203,87.8468,0.00603842,0.133613,20.7958,47.2804,1.20428,0.0,0.0
1136,283.75,181.871,229.558,115.649,100.237,88.7804,0.00547406,0.123862,20.8181,47.2704,1.11072,0.0,0.0
1140,284.75,180.014,227.042,120.255,100.273,89.1317,0.00491951,0.116102,20.835,47.2804,1.07782,0.0,0.0
1144,285.75,176.47,222.642,116.96,100.306,89.5991,0.004394,0.109771,20.8488,47.2804,1.03295,0.0,0.0
1148,286.75,174.742,220.411,117.066,100.337,90.1308,0.00393284,0.104438,20.8603,47.3004,0.981685,0.0,0.0
1152,287.75,172.717,218.34,118.299,100.377,90.5795,0.00355956,0.099868,20.8707,47.2904,0.939891,0.0,0.0
1156,288.75,170.528,215.646,117.524,100.405,90.7849,0.00323224,0.0957732,20.8791,47.2904,0.921667,0.0,0.0
1160,289.75,168.699,213.492,116.438,100.456,91.0643,0.00296971,0.0922849,20.8857,47.2604,0.898222,0.0,0.0
1164,290.75,166.934,211.181,117.926,100.486,91.4259,0.00276834,0.0891912,20.8917,47.2403,0.864653,0.0,0.0
1168,291.75,165.324,208.624,118.827,100.528,91.5654,0.00253945,0.0864594,20.8955,47.2604,0.85453,0.0,0.0
1172,292.75,163.744,206.685,118.83,100.558,92.211,0.00228668,0.0841192,20.8987,47.2403,0.792992,0.0,0.0
1176,293.75,162.039,204.823,122.047,100.6,92.3446,0.00203653,0.0818385,20.902,47.2503,0.783537,0.0,0.0
1180,294.75,160.501,202.034,119.484,100.634,92.6512,0.00182434,0.0797039,20.9054,47.2804,0.756362,0.0,0.0
1184,295.75,159.076,200.446,121.654,100.659,93.2573,0.00166589,0.0777985,20.9084,47.2904,0.698901,0.0,0.0
1188,296.75,157.852,198.437,118.872,100.704,93.3998,0.00155517,0.0760703,20.9112,47.3104,0.68901,0.0,0.0
1192,297.75,156.04,196.665,120.363,100.733,93.7528,0.00147944,0.0744762,20.9138,47.3004,0.657132,0.0,0.0
1196,298.75,155.283,194.711,116.337,100.748,93.928,0.00138824,0.0729988,20.9155,47.3104,0.641477,0.0,0.0
1200,299.75,154.128,193.074,118.471,100.778,94.196,0.00129934,0.07168,20.9171,47.3204,0.618089,0.0,0.0
1204,300.75,152.31,190.878,120.183,100.791,94.3555,0.00121156,0.0705702,20.9187,47.2904,0.603819,0.0,0.0
1208,301.75,151.004,188.919,118.785,100.814,94.6541,0.00111354,0.0694711,20.9206,47.2804,0.577,0.0,0.0
1212,302.75,149.943,187.705,119.501,100.827,94.5129,0.00100273,0.0684578,20.9224,47.2604,0.5918,0.0,0.0
1216,303.75,148.302,185.921,121.131,100.852,94.9616,0.000884508,0.0675056,20.9238,47.2704,0.550731,0.0,0.0
1220,304.75,147.338,184.255,119.926,100.87,95.0432,0.000788424,0.06662,20.9254,47.2604,0.544481,0.0,0.0
1224,305.75,146.71,182.25,119.907,100.872,95.3431,0.000706999,0.0658731,20.9266,47.2503,0.515838,0.0,0.0
1228,306.75,145.905,180.733,118.063,100.881,95.5996,0.000672623,0.0649661,20.9276,47.2503,0.492062,0.0,0.0
1232,307.75,144.86,179.671,119.497,100.891,95.7208,0.000666768,0.0641963,20.9272,47.2704,0.48142,0.0,0.0
1236,308.75,143.488,177.63,121.239,100.869,96.0279,0.000653261,0.0636119,20.9269,47.3004,0.450091,0.0,0.0
1240,309.75,142.861,176.163,120.585,100.876,96.1631,0.000601622,0.0629824,20.9268,47.2904,0.437872,0.0,0.0
1244,310.75,142.095,174.766,118.41,100.869,96.3703,0.000527018,0.0623617,20.9275,47.2503,0.417558,0.0,0.0
1248,311.75,140.859,173.161,121.293,100.875,96.3226,0.000450526,0.0618362,20.928,47.2203,0.42256,0.0,0.0
1252,312.75,139.757,171.682,123.289,100.857,96.3652,0.000415557,0.0613857,20.9283,47.2003,0.416906,0.0,0.0
1256,313.75,138.905,170.475,118.394,100.842,96.7186,0.000427779,0.0608523,20.9285,47.2103,0.382007,0.0,0.0
1260,314.75,138.094,168.913,118.543,100.834,96.7535,0.00048223,0.0604231,20.9288,47.2103,0.378012,0.0,0.0
1264,315.75,137.186,167.353,117.812,100.799,96.9785,0.000560908,0.0600094,20.9297,47.2203,0.353598,0.0,0.0
1268,316.75,136.461,166.156,118.816,100.774,97.0814,0.000639162,0.0597116,20.9302,47.2403,0.341614,0.0,0.0
1272,317.75,135.69,164.949,120.474,100.755,97.0865,0.000687863,0.0593313,20.9305,47.2303,0.339408,0.0,0.0
1276,318.75,134.769,163.573,123.304,100.705,97.1728,0.000702179,0.0589362,20.9308,47.2503,0.326716,0.0,0.0
1280,319.75,134.195,162.007,120.483,100.682,97.1877,0.000668342,0.0585648,20.9317,47.2303,0.323257,0.0,0.0
1284,320.75,133.153,161.094,127.59,100.643,97.1507,0.000628213,0.0582183,20.9324,47.2103,0.323175,0.0,0.0
1288,321.75,132.397,159.643,119.345,100.609,97.5297,0.000615672,0.0579171,20.9328,47.2103,0.284423,0.0,0.0
1292,322.75,131.854,158.751,119.301,100.562,97.5016,0.0006165,0.0575876,20.9331,47.2003,0.282825,0.0,0.0
1296,323.75,130.978,157.324,118.741,100.507,97.6016,0.000615858,0.0572778,20.9332,47.2303,0.268443,0.0,0.0
1300,324.75,130.427,156.553,119.713,100.459,97.599,0.000596687,0.056969,20.9333,47.2303,0.2643,0.0,0.0
1304,325.75,129.363,155.151,120.313,100.412,97.7492,0.000550348,0.0567456,20.9334,47.2003,0.245922,0.0,0.0
1308,326.75,128.474,153.854,123.285,100.347,97.7623,0.000472717,0.0565497,20.9335,47.2203,0.238788,0.0,0.0
1312,327.75,128.153,152.784,123.737,100.301,97.7164,0.000382778,0.0563274,20.9335,47.2503,0.23892,0.0,0.0
1316,328.75,127.63,151.913,121.7,100.242,97.8483,0.000316888,0.0561344,20.9338,47.2403,0.221191,0.0,0.0
1320,329.75,126.689,150.394,120.479,100.186,97.8355,0.000285064,0.0560077,20.9345,47.2303,0.217289,0.0,0.0
1324,330.75,126.326,149.578,121.193,100.125,97.7691,0.000272755,0.0558982,20.935,47.2503,0.217918,0.0,0.0
1328,331.75,125.294,148.717,121.734,100.074,97.9155,0.000259081,0.0557867,20.9353,47.2403,0.199575,0.0,0.0
1332,332.75,125.249,147.381,121.59,100.017,98.0158,0.000240423,0.0556592,20.9358,47.2203,0.184983,0.0,0.0
1336,333.75,124.421,146.414,124.249,99.9538,98.1685,0.000222759,0.0555094,20.9362,47.2303,0.164927,0.0,0.0
1340,334.75,123.67,145.398,122.399,99.8988,98.0903,0.000220556,0.0553363,20.9364,47.2303,0.167188,0.0,0.0
1344,335.75,123.125,144.383,121.796,99.8458,98.1524,0.000225831,0.0551172,20.9365,47.2303,0.156542,0.0,0.0
1348,336.75,122.747,143.979,121.093,99.8054,98.0703,0.000239604,0.0550262,20.9366,47.2203,0.160492,0.0,0.0
1352,337.75,121.613,142.901,122.194,99.7387,98.1307,0.000255657,0.0549138,20.9364,47.2203,0.148737,0.0,0.0
1356,338.75,121.166,141.964,125.64,99.6917,98.1111,0.000270298,0.0547873,20.936,47.1903,0.146256,0.0,0.0
1360,339.75,120.835,141.091,122.131,99.6444,98.18,0.000281238,0.0547043,20.9363,47.2203,0.135487,0.0,0.0
1364,340.75,120.494,140.025,123.725,99.6,98.3442,0.000291669,0.0546498,20.9365,47.2103,0.116112,0.0,0.0
1368,341.75,119.632,139.053,121.588,99.5615,98.3493,0.000291629,0.0545691,20.9366,47.2203,0.112106,0.0,0.0
1372,342.75,119.489,138.273,124.894,99.5053,98.3871,0.000252499,0.0544643,20.9365,47.2003,0.103416,0.0,0.0
1376,343.75,118.878,137.395,121.602,99.4823,98.439,0.000170828,0.0543428,20.9363,47.2003,0.0964704,0.0,0.0
1380,344.75,117.87,136.32,121.006,99.46,98.4505,5.4064e-05,0.0542258,20.9362,47.1903,0.0933568,0.0,0.0
1384,345.75,117.387,135.621,125.543,99.4248,98.459,-1.53333e-05,0.0541652,20.9361,47.1903,0.0893281,0.0,0.0
1388,346.75,117.089,134.855,122.172,99.4143,98.4407,-5.08812e-05,0.0541092,20.9361,47.2003,0.0900605,0.0,0.0
1392,347.75,116.78,134.253,125.561,99.3909,98.599,2.16909e-05,0.054114,20.936,47.1803,0.0732045,0.0,0.0
1396,348.75,116.268,133.222,125.545,99.3783,98.5194,0.000148777,0.0541076,20.936,47.2003,0.0794348,0.0,0.0
1400,349.75,115.77,132.453,120.723,99.3868,98.6764,0.000271912,0.054077,20.936,47.1903,0.0656508,0.0,0.0
1404,350.75,115.174,131.571,123.012,99.3723,98.6517,0.000342976,0.0540513,20.936,47.2103,0.0665985,0.0,0.0
1408,351.75,114.753,130.998,124.95,99.3816,98.6551,0.000361912,0.0540345,20.9359,47.2003,0.0671389,0.0,0.0
1412,352.75,114.269,130.059,126.593,99.3832,98.6934,0.000321097,0.0539971,20.9359,47.2203,0.0637379,0.0,0.0
1416,353.75,114.051,129.573,123.355,99.399,98.8877,0.000251194,0.0539288,20.9356,47.1903,0.047186,0.0,0.0
1420,354.75,113.544,128.906,127.223,99.4188,98.9435,0.000172821,0.0538487,20.9354,47.1903,0.0438546,0.0,0.0
1424,355.75,113.173,128.123,123.235,99.4358,99.0481,9.82095e-05,0.0537961,20.9352,47.2203,0.0357464,0.0,0.0
1428,356.75,112.552,127.574,123.774,99.4633,99.0451,3.81489e-05,0.0537089,20.9351,47.2403,0.0385528,0.0,0.0
1432,357.75,112.241,127.014,124.495,99.4774,99.2735,9.43908e-06,0.0535462,20.935,47.2103,0.0187758,0.0,0.0
1436,358.75,111.597,125.921,122.86,99.5207,99.2072,3.3257e-07,0.0533604,20.935,47.2203,0.0288741,0.0,0.0
1440,359.75,111.634,125.364,119.445,99.5397,99.4347,-4.31317e-06,0.0531858,20.935,47.2103,0.00965588,0.0,0.0
1444,360.75,111.095,124.627,124.373,99.5919,99.4543,-1.84329e-05,0.0530505,20.9349,47.2203,0.01265,0.0,0.0
1448,361.75,110.545,123.69,124.772,99.6262,99.5674,-4.71967e-05,0.0530289,20.9349,47.2303,0.00540489,0.0,0.0
1452,362.75,109.48,123.497,125.549,99.6667,99.678,-9.12736e-05,0.0530883,20.9349,47.2203,-0.00103968,0.0,0.0
1456,363.75,109.975,122.948,122.938,99.7128,99.7648,-0.000156854,0.0531161,20.9349,47.2003,-0.00476901,0.0,0.0
1460,364.75,108.925,121.985,122.528,99.7609,99.9149,-0.000217937,0.0530782,20.9349,47.1903,-0.0141151,0.0,0.0
1464,365.75,108.86,121.234,122.677,99.8058,100.044,-0.000261065,0.0530534,20.9349,47.2103,-0.0218331,0.0,0.0
1468,366.75,108.85,120.592,127.004,99.8588,100.048,-0.000279848,0.0530371,20.9349,47.2103,-0.0173262,0.0,0.0
1472,367.75,108.209,120.107,124.199,99.9037,100.146,-0.000287077,0.053,20.9347,47.1903,-0.0221956,0.0,0.0
1476,368.75,107.914,119.742,123.546,99.9607,100.202,-0.000282655,0.0529549,20.9339,47.2103,-0.022025,0.0,0.0
1480,369.75,107.215,118.925,124.263,100.004,100.279,-0.000261261,0.0529198,20.9335,47.1803,-0.0251295,0.0,0.0
1484,370.75,107.404,118.33,124.765,100.065,100.442,-0.000201317,0.0527514,20.9332,47.1803,-0.0344372,0.0,0.0
1488,371.75,107.045,117.891,125.266,100.118,100.54,-0.00010536,0.0526018,20.9329,47.1903,-0.0385017,0.0,0.0
1492,372.75,106.526,116.939,123.189,100.162,100.589,1.81688e-05,0.0525451,20.9328,47.1803,-0.0388485,0.0,0.0
1496,373.75,105.765,116.633,126.011,100.222,100.662,0.00011667,0.0524755,20.9327,47.1803,-0.0400722,0.0,0.0
1500,374.75,105.052,116.427,126.475,100.264,100.817,0.000203002,0.0523944,20.9327,47.2003,-0.0503325,0.0,0.0
1504,375.75,104.959,115.566,127.309,100.321,100.823,0.000270157,0.0522167,20.9334,47.2503,-0.0457107,0.0,0.0
1508,376.75,105.196,114.929,126.693,100.382,100.956,0.000324949,0.0520043,20.9351,47.2303,-0.0521772,0.0,0.0
1512,377.75,104.731,114.448,127.626,100.404,101.116,0.000353928,0.0518482,20.9362,47.2403,-0.0645964,0.0,0.0
1516,378.75,103.82,114.217,123.45,100.445,101.117,0.000354575,0.0517458,20.9369,47.2503,-0.0610661,0.0,0.0
1520,379.75,103.938,113.397,124.539,100.477,101.181,0.000333969,0.0516785,20.9374,47.2203,-0.0638883,0.0,0.0
1524,380.75,103.482,113.028,127.111,100.506,101.186,0.000300921,0.0516345,20.9377,47.2103,-0.0616613,0.0,0.0
1528,381.75,103.156,112.538,122.648,100.548,101.376,0.000231079,0.0516209,20.9379,47.2003,-0.0750865,0.0,0.0
1532,382.75,102.92,112.342,125.891,100.561,101.405,0.000161777,0.0516263,20.938,47.2003,-0.0764818,0.0,0.0
1536,383.75,103.087,111.035,123.389,100.586,101.429,0.00010638,0.0515739,20.9381,47.1803,-0.0763113,0.0,0.0
1540,384.75,102.511,111.065,127.1,100.615,101.544,8.55235e-05,0.0513814,20.9381,47.2103,-0.0840946,0.0,0.0
1544,385.75,102.39,110.859,126.446,100.612,101.518,9.59447e-05,0.051231,20.9382,47.1903,-0.0820102,0.0,0.0
1548,386.75,101.849,110.077,124.246,100.622,101.578,0.00010115,0.051193,20.9382,47.2003,-0.086609,0.0,0.0
1552,387.75,101.25,109.802,123.953,100.629,101.72,9.92619e-05,0.0511371,20.9382,47.2103,-0.0986588,0.0,0.0
1556,388.75,101.271,109.129,122.941,100.629,101.702,7.63542e-05,0.0511094,20.939,47.2103,-0.0970534,0.0,0.0
1560,389.75,100.688,108.488,123.539,100.623,101.716,4.01968e-05,0.0510885,20.9396,47.2403,-0.0988292,0.0,0.0
1564,390.75,100.187,108.154,126.006,100.613,101.696,-2.93522e-05,0.0510047,20.9399,47.1903,-0.0979867,0.0,0.0
1568,391.75,100.759,107.661,125.612,100.594,101.651,-9.7897e-05,0.0508736,20.9402,47.1903,-0.0956985,0.0,0.0
1572,392.75,100.042,107.16,124.543,100.58,101.631,-0.000135994,0.0507494,20.9397,47.2003,-0.0951098,0.0,0.0
1576,393.75,99.918,106.916,123.824,100.577,101.694,-0.000149534,0.0506408,20.9392,47.2103,-0.101071,0.0,0.0
1580,394.75,99.4813,106.322,126.086,100.54,101.68,-0.000160949,0.0505323,20.9391,47.2203,-0.103196,0.0,0.0
1584,395.75,98.8935,106.014,124.639,100.513,101.723,-0.00016849,0.0504818,20.9396,47.2203,-0.109528,0.0,0.0
1588,396.75,99.0573,105.174,127.011,100.486,101.678,-0.000162566,0.0504127,20.94,47.2203,-0.1079,0.0,0.0
1592,397.75,98.3387,104.999,127.423,100.445,101.61,-0.000144054,0.0503639,20.9402,47.2003,-0.105569,0.0,0.0
1596,398.75,98.2065,104.513,126.568,100.406,101.63,-9.9407e-05,0.0503506,20.9401,47.1803,-0.110905,0.0,0.0
1600,399.75,98.3256,104.122,126.866,100.37,101.64,-3.60853e-05,0.0502136,20.9398,47.1703,-0.115067,0.0,0.0
1604,400.75,98.3193,103.62,125.349,100.333,101.51,2.67171e-05,0.0500677,20.9396,47.1502,-0.106738,0.0,0.0
1608,401.75,97.898,103.388,126.149,100.284,101.529,6.29423e-05,0.0498403,20.9395,47.1703,-0.112851,0.0,0.0
1612,402.75,97.341,102.904,127.624,100.243,101.467,7.48607e-05,0.0496289,20.9394,47.1803,-0.111056,0.0,0.0
1615,403.5,96.7561,103.089,128.524,100.211,101.522,7.20551e-05,0.049521,20.9394,47.1803,-0.118921,0.0,0.0