File: 01_Data/Black_PMMA/Cone/Black_PMMA_Cone_HF25Scan_221219_R5.csv
Names,Time,Stack TC,Smoke TC,Exh Press,Smoke Comp,Smoke Meas,CO Meter,CO2 Meter,O2 Meter,Sample Mass,Ext Coeff,Start Test,Flame Verif
Chan Gain,,500,500,1,1,1,1,1,1,1,1,1.0,1.0
Offset,,0,0,0.136404,0,0,0,0,0,0,0,0.0,0.0
Gain,,1,1,25.011,14.0546,13.8657,1,1,1,1.00087,1.04452,1.0,1.0
Units,sec,C,C,Pa,%,%,%,%,%,g,/m,,
Baseline,,17.4224,17.7858,175.32,106.466,107.218,0.000399926,0.0561475,20.9305,-443.837,-0.0644253,,
7,1.5,16.5627,17.0874,173.662,105.586,106.391,0.000340946,0.0590023,20.9313,156.987,-0.0696116,0.0,0.0
14,3.25,16.7071,17.3156,172.092,105.465,106.413,0.00027217,0.062664,20.9284,157.017,-0.0820087,0.0,0.0
21,5,16.9596,17.1133,172.438,105.34,106.116,0.000255132,0.0650619,20.923,156.987,-0.0672825,0.0,0.0
28,6.75,16.807,16.6199,175.131,105.223,106.067,0.000271779,0.0645894,20.9194,156.997,-0.0731594,0.0,0.0
35,8.5,16.5867,17.399,173.058,105.1,105.969,0.000254586,0.0630854,20.9182,156.987,-0.0754008,0.0,0.0
42,10.25,16.9208,17.2828,175.744,104.998,105.82,0.000208887,0.061631,20.9204,156.997,-0.0714536,0.0,0.0
49,12,16.8369,16.8749,174.549,104.899,105.735,0.000204341,0.0603009,20.923,156.997,-0.0727367,0.0,0.0
56,13.75,16.4034,17.2006,175.561,104.83,105.566,0.00025738,0.0595185,20.9243,156.997,-0.0641273,0.0,0.0
63,15.5,16.766,17.5066,174.643,104.731,105.599,0.000315992,0.0590056,20.9248,156.977,-0.0756558,0.0,0.0
70,17.25,16.9033,17.0417,170.248,104.696,105.569,0.000373053,0.0585039,20.9251,156.967,-0.0760517,0.0,0.0
77,19,16.8932,17.4179,175.304,104.645,105.564,0.000430323,0.0578835,20.9249,156.977,-0.0800786,0.0,0.0
84,20.75,16.9135,16.6335,174.494,104.65,105.456,0.000423518,0.0572591,20.9254,156.977,-0.0702962,0.0,0.0
91,22.5,16.6143,16.9003,179.592,104.629,105.492,0.000349763,0.0568742,20.9266,156.987,-0.0752973,0.0,0.0
98,24.25,17.0782,17.3808,174.712,104.654,105.548,0.000270979,0.0567613,20.9274,156.997,-0.0779325,0.0,0.0
105,26,16.8218,17.4028,170.807,104.698,105.635,0.000215804,0.0567112,20.9278,156.997,-0.0816665,0.0,0.0
112,27.75,16.6467,16.9479,173.915,104.749,105.475,0.000211512,0.0572775,20.928,156.987,-0.0633167,0.0,0.0
119,29.5,16.9731,17.2803,173.065,104.825,105.549,0.000316432,0.0590462,20.9274,156.997,-0.0630704,0.0,0.0
126,31.25,17.1089,17.5468,175.846,104.904,105.744,0.00036918,0.0621987,20.9254,157.007,-0.0730939,0.0,0.0
133,33,16.9814,17.0742,171.302,104.997,105.922,0.000332507,0.0642704,20.9232,156.997,-0.0803915,0.0,0.0
140,34.75,17.1753,17.23,170.151,105.071,106.036,0.000290183,0.0642419,20.9214,156.987,-0.0837589,0.0,0.0
147,36.5,17.0832,17.3935,179.249,105.171,105.958,0.000315926,0.0628973,20.9206,156.967,-0.0683185,0.0,0.0
154,38.25,17.1495,17.3563,176.579,105.246,106.147,0.00038486,0.0613781,20.9215,156.967,-0.0781605,0.0,0.0
161,40,17.3656,17.618,175.064,105.339,106.005,0.000403226,0.059974,20.923,156.967,-0.0577802,0.0,0.0
168,41.75,16.9498,17.5171,175.952,105.415,106.231,0.000355329,0.0588169,20.9245,156.967,-0.0706517,0.0,0.0
175,43.5,17.204,17.5264,178.097,105.494,106.389,0.000360633,0.0581703,20.9265,156.957,-0.0774351,0.0,0.0
182,45.25,17.2958,17.7139,180.812,105.556,106.422,0.000411701,0.0579047,20.9275,156.957,-0.0748761,0.0,0.0
189,47,17.4464,17.3582,175.749,105.611,106.438,0.00043018,0.0576436,20.9279,156.977,-0.0714613,0.0,0.0
196,48.75,17.3523,17.5226,174.034,105.692,106.562,0.000431003,0.0576159,20.9281,156.957,-0.0750969,0.0,0.0
203,50.5,16.7368,16.9133,175.698,105.738,106.734,0.000461346,0.0575242,20.9282,156.967,-0.0859147,0.0,0.0
210,52.25,16.9467,17.5018,177.415,105.782,106.638,0.000435257,0.05723,20.9283,156.967,-0.0738377,0.0,0.0
217,54,17.1126,17.5795,173.632,105.8,106.664,0.000376229,0.056939,20.9283,156.957,-0.0745688,0.0,0.0
224,55.75,17.0849,17.4362,173.429,105.858,106.598,0.000369414,0.0567358,20.9283,156.957,-0.0638469,0.0,0.0
231,57.5,16.8831,17.496,173.271,105.89,106.804,0.00039234,0.0564325,20.9283,156.957,-0.0787218,0.0,0.0
238,59.25,16.7042,17.635,173.003,105.918,106.641,0.00042837,0.0560103,20.9283,156.957,-0.0622868,0.0,0.0
245,61,16.8719,17.4437,170.914,105.941,106.73,0.000484559,0.0557278,20.9294,156.957,-0.0680621,0.0,0.0
252,62.75,16.5796,17.7643,173.869,105.986,106.763,0.000529219,0.0554298,20.9301,156.947,-0.0669271,0.0,0.0
259,64.5,16.8561,17.5785,178.865,106.029,106.884,0.000524562,0.0550856,20.9306,156.967,-0.0736015,0.0,0.0
266,66.25,17.7575,17.8077,174.02,106.075,106.868,0.000498571,0.0546382,20.9313,156.937,-0.0682932,0.0,0.0
273,68,16.8432,17.7951,174.398,106.099,107.003,0.000425485,0.0542462,20.9323,156.947,-0.0777122,0.0,0.0
280,69.75,17.1327,17.4049,182.824,106.113,106.946,0.000311256,0.0538907,20.9333,156.957,-0.0716704,0.0,0.0
287,71.5,17.5872,17.1539,174.055,106.165,106.901,0.000228763,0.0536231,20.9344,156.957,-0.0632359,0.0,0.0
294,73.25,17.5589,17.7839,175.707,106.196,107.012,0.000139419,0.0534144,20.9355,156.957,-0.0701421,0.0,0.0
301,75,17.5129,17.5844,175.257,106.234,106.92,6.67505e-05,0.0533006,20.9361,156.947,-0.0590564,0.0,0.0
308,76.75,17.8733,17.925,175.16,106.254,107.135,4.64546e-05,0.053334,20.9363,156.927,-0.0756112,0.0,0.0
315,78.5,17.39,17.6318,178.259,106.286,107.13,8.56639e-05,0.0534169,20.9365,156.917,-0.0724757,0.0,0.0
322,80.25,18.0358,18.2152,178.343,106.283,107.177,0.000105213,0.0534649,20.9365,156.957,-0.0767511,0.0,0.0
329,82,17.5178,18.0119,173.085,106.293,107.008,0.000133792,0.0535682,20.9362,156.957,-0.0614555,0.0,0.0
336,83.75,17.6618,18.1406,171.942,106.303,107.059,0.000171314,0.0537232,20.936,156.957,-0.0649155,0.0,0.0
343,85.5,17.7384,18.2401,178.601,106.309,107.034,0.000225778,0.05388,20.9358,156.947,-0.0622978,0.0,0.0
350,87.25,17.4199,17.8973,174.186,106.334,107.04,0.000257921,0.0539851,20.9359,156.937,-0.0605874,0.0,0.0
357,89,17.6736,17.9199,178.76,106.334,107.006,0.000238933,0.0542975,20.9356,156.927,-0.0577258,0.0,0.0
364,90.75,18.0766,18.0827,177.604,106.335,107.22,0.000129916,0.0546228,20.935,156.927,-0.0759669,0.0,0.0
371,92.5,17.755,18.0104,177.277,106.328,106.84,4.41342e-05,0.0550389,20.9351,156.937,-0.0439928,0.0,0.0
378,94.25,17.8248,18.0969,176.083,106.308,107.192,6.50585e-05,0.0552478,20.9347,156.907,-0.0759096,0.0,0.0
385,96,17.9925,18.0108,174.348,106.304,107.227,0.000107726,0.0553777,20.9337,156.907,-0.0791702,0.0,0.0
392,97.75,17.7528,17.2695,173.477,106.285,107.075,0.000112644,0.0554025,20.9332,156.897,-0.0678811,0.0,0.0
399,99.5,17.2213,17.7548,177.809,106.261,106.792,9.29146e-05,0.0554257,20.933,156.917,-0.045659,0.0,0.0
406,101.25,17.9812,17.8581,177.375,106.226,107.063,0.000137536,0.0553612,20.9329,156.907,-0.0719335,0.0,0.0
413,103,17.9466,18.2005,180.62,106.207,107.085,0.000220536,0.0552103,20.9325,156.897,-0.0754443,0.0,0.0
420,104.75,17.6245,18.3996,173.229,106.181,107.022,0.000306327,0.0549792,20.9331,156.887,-0.0722693,0.0,0.0
427,106.5,18.1784,18.5021,174.269,106.14,106.792,0.000395445,0.0549537,20.9337,156.877,-0.0560943,0.0,0.0
434,108.25,17.9704,17.9978,169.012,106.079,106.506,0.000433959,0.0551023,20.934,156.757,-0.0367784,0.0,1.0
441,110,18.1032,18.3904,160.618,106.041,104.648,0.000416535,0.0553677,20.9341,156.727,0.121178,0.0,1.0
448,111.75,18.6134,18.981,157.42,105.982,103.127,0.000401514,0.0559565,20.9332,156.537,0.250193,0.0,1.0
455,113.5,19.6457,19.2116,155.886,105.907,102.475,0.000445955,0.0570539,20.9323,156.397,0.30182,0.0,1.0
462,115.25,20.5928,18.7736,158.792,105.839,102.577,0.000514078,0.0625491,20.9312,156.196,0.28688,0.0,0.0
469,117,22.3507,21.1267,150.794,105.774,102.453,0.000628669,0.0846464,20.9277,155.996,0.292239,0.0,0.0
476,118.75,22.9101,22.9373,144.073,105.717,101.853,0.000829753,0.135376,20.9089,155.776,0.34119,0.0,0.0
483,120.5,25.1236,24.1538,143.661,105.615,101.516,0.00101297,0.196946,20.8533,155.526,0.362651,0.0,0.0
490,122.25,27.1729,25.6617,148.562,105.515,100.687,0.00118825,0.267239,20.7827,155.276,0.429179,0.0,0.0
497,124,28.769,27.4183,137.249,105.401,100.297,0.00155508,0.343414,20.6936,155.015,0.4548,0.0,0.0
504,125.75,30.3004,29.3007,143.346,105.318,100.481,0.00217853,0.420219,20.5959,154.765,0.430761,0.0,0.0
511,127.5,32.4508,31.1227,144.956,105.211,100.01,0.00288761,0.487461,20.4826,154.505,0.464514,0.0,0.0
518,129.25,33.7295,32.9714,145.825,105.117,99.3884,0.00333825,0.543048,20.3806,154.255,0.513456,0.0,0.0
525,131,35.4133,34.8598,142.655,105.007,99.3064,0.00356891,0.585418,20.3038,153.984,0.511451,0.0,0.0
532,132.75,36.6842,35.9521,141.525,104.907,98.7279,0.00375943,0.618563,20.2497,153.694,0.556215,0.0,0.0
539,134.5,38.6513,37.7413,140.398,104.838,99.1951,0.0040455,0.650784,20.1995,153.484,0.50693,0.0,0.0
546,136.25,40.0453,38.8636,140.118,104.755,98.8989,0.00430601,0.672516,20.1497,153.214,0.527055,0.0,0.0
553,138,40.9575,40.5601,146.898,104.687,99.0123,0.00454048,0.686377,20.1111,152.944,0.510626,0.0,0.0
560,139.75,42.1394,41.7736,140.729,104.629,99.2708,0.00472705,0.697695,20.088,152.683,0.481662,0.0,0.0
567,141.5,43.8589,43.5367,141.52,104.597,98.4926,0.0048439,0.70604,20.0698,152.413,0.550989,0.0,0.0
574,143.25,45.057,44.5839,134.377,104.588,98.4313,0.00489177,0.713058,20.0578,152.153,0.55591,0.0,0.0
581,145,45.8261,46.742,139.618,104.597,98.0018,0.00496677,0.718624,20.0476,151.873,0.596728,0.0,0.0
588,146.75,47.1619,47.9954,139.509,104.62,98.0868,0.00512097,0.72563,20.0384,151.622,0.590771,0.0,0.0
595,148.5,48.844,48.7286,137.697,104.661,97.4521,0.00523403,0.732062,20.0289,151.302,0.653897,0.0,0.0
602,150.25,49.4651,50.0993,143.97,104.729,98.7038,0.00527828,0.736675,20.0204,151.072,0.542894,0.0,0.0
609,152,50.5308,51.5767,144.111,104.794,98.2612,0.00530119,0.739135,20.0131,150.852,0.589738,0.0,0.0
616,153.75,50.9723,52.2997,138.27,104.888,98.4317,0.00534935,0.740222,20.009,150.601,0.582135,0.0,0.0
623,155.5,51.9667,53.3406,135.913,104.991,98.7812,0.00543685,0.74048,20.0071,150.301,0.558571,0.0,0.0
630,157.25,52.8459,54.4799,140.984,105.111,98.7626,0.00556091,0.741518,20.0054,150.051,0.570772,0.0,0.0
637,159,54.027,55.7014,146.64,105.232,98.4038,0.00563393,0.742455,20.0044,149.761,0.614698,0.0,0.0
644,160.75,54.7915,56.5019,141.276,105.345,98.1182,0.0056044,0.744987,20.0034,149.501,0.651184,0.0,0.0
651,162.5,56.1227,57.8791,141.366,105.464,98.5726,0.00552235,0.750063,20.0003,149.21,0.619172,0.0,0.0
658,164.25,56.985,58.8759,137.594,105.6,98.8841,0.0054747,0.755288,19.9945,148.98,0.602074,0.0,0.0
665,166,57.704,59.3769,138.748,105.716,99.2027,0.00546707,0.760964,19.9894,148.67,0.58264,0.0,0.0
672,167.75,58.0851,60.7205,138.719,105.812,98.5223,0.00543994,0.764672,19.9807,148.43,0.654061,0.0,0.0
679,169.5,58.9363,61.1637,143.81,105.902,99.0372,0.00546121,0.765701,19.9745,148.119,0.614016,0.0,0.0
686,171.25,59.9008,62.1703,147.18,105.959,99.3525,0.00553782,0.767006,19.9709,147.859,0.589869,0.0,0.0
693,173,60.7088,63.5591,141.501,106.01,99.6398,0.0055865,0.768067,19.9686,147.549,0.567822,0.0,0.0
700,174.75,61.1989,64.0989,139.211,106.038,98.557,0.00557467,0.768096,19.9675,147.289,0.670313,0.0,0.0
707,176.5,61.773,64.9261,142.52,106.038,99.3601,0.00553056,0.77038,19.967,146.988,0.595988,0.0,0.0
714,178.25,63.035,66.0141,136.028,106.001,99.4574,0.00549167,0.775133,19.9659,146.728,0.583867,0.0,0.0
721,180,63.5295,66.7444,139.519,105.963,98.345,0.00543474,0.77853,19.9629,146.488,0.683592,0.0,0.0
728,181.75,63.9289,67.5058,140.196,105.933,99.267,0.00540557,0.779692,19.9582,146.208,0.59553,0.0,0.0
735,183.5,64.8939,67.4767,134.805,105.876,98.4067,0.00551333,0.78256,19.9549,145.887,0.670305,0.0,0.0
742,185.25,65.4077,68.8737,141.203,105.806,98.0987,0.00568223,0.785977,19.9519,145.637,0.692981,0.0,0.0
749,187,66.3357,69.6984,142.795,105.734,97.8545,0.00577359,0.788898,19.9469,145.377,0.709571,0.0,0.0
756,188.75,66.4316,70.5584,140.962,105.681,98.8147,0.00575866,0.793599,19.9429,145.057,0.615537,0.0,0.0
763,190.5,67.4246,70.728,138.01,105.626,97.0687,0.00576245,0.799151,19.9355,144.776,0.774074,0.0,0.0
770,192.25,68.1579,71.7265,139.838,105.59,98.5587,0.00580642,0.801277,19.9278,144.486,0.631381,0.0,0.0
777,194,68.3716,72.6351,139.408,105.777,98.0073,0.00582284,0.801209,19.9229,144.226,0.698996,0.0,0.0
784,195.75,69.3491,73.4408,150.103,106.049,98.9513,0.00580666,0.800738,19.9215,143.966,0.634686,0.0,0.0
791,197.5,69.6644,73.7105,137.643,106.231,98.9661,0.00582647,0.804764,19.9211,143.665,0.649014,0.0,0.0
798,199.25,70.202,74.5017,134.485,106.37,98.5117,0.00594278,0.810217,19.9209,143.385,0.703202,0.0,0.0
805,201,70.3709,75.2028,135.703,106.43,99.1608,0.00607228,0.813769,19.9146,143.085,0.648235,0.0,0.0
812,202.75,70.2369,75.1743,138.118,106.462,99.8357,0.00614193,0.815174,19.9068,142.805,0.588814,0.0,0.0
819,204.5,71.6939,76.0022,135.507,106.443,98.7757,0.00613914,0.813298,19.9033,142.524,0.68499,0.0,0.0
826,206.25,71.834,76.8916,147.361,106.328,100.341,0.00612526,0.811832,19.9023,142.244,0.53104,0.0,0.0
833,208,72.6203,77.499,142.444,106.155,99.1049,0.00612092,0.816077,19.9023,141.964,0.629623,0.0,0.0
840,209.75,73.1386,78.1685,135.24,105.919,99.3588,0.00613511,0.822865,19.9009,141.704,0.585833,0.0,0.0
847,211.5,73.525,78.7588,141.365,105.95,98.8164,0.00610796,0.822055,19.8944,141.373,0.638629,0.0,0.0
854,213.25,73.6739,79.1542,136.446,106.054,98.3979,0.00609335,0.818417,19.892,141.103,0.686524,0.0,0.0
861,215,74.6636,79.9154,131.704,106.178,98.1626,0.00614386,0.819759,19.8938,140.833,0.719161,0.0,0.0
868,216.75,74.4128,80.3715,133.507,106.313,99.209,0.00615696,0.822435,19.894,140.533,0.633691,0.0,0.0
875,218.5,75.4159,80.8293,137.974,106.457,98.8595,0.00609756,0.823389,19.8911,140.252,0.67844,0.0,0.0
882,220.25,75.8611,81.715,141.661,106.59,99.4815,0.00601895,0.822579,19.8893,139.982,0.632333,0.0,0.0
889,222,76.0925,82.3604,140.929,106.689,99.746,0.00597233,0.824647,19.8884,139.672,0.616594,0.0,0.0
896,223.75,76.728,82.1936,129.772,106.747,99.2175,0.00596654,0.829052,19.8882,139.332,0.670206,0.0,0.0
903,225.5,77.0433,83.262,131.774,106.772,99.3034,0.00599906,0.833373,19.8865,139.031,0.664449,0.0,0.0
910,227.25,77.6683,83.5853,132.858,106.748,99.1426,0.00603065,0.83663,19.8825,138.731,0.677236,0.0,0.0
917,229,78.1641,84.1256,131.213,106.68,98.8104,0.00605397,0.83932,19.8794,138.461,0.702094,0.0,0.0
924,230.75,78.3074,84.7507,135.875,106.524,98.4871,0.00605272,0.841494,19.8746,138.171,0.718774,0.0,0.0
931,232.5,79.148,85.2854,131.357,106.337,98.8362,0.00606074,0.845623,19.872,137.87,0.670255,0.0,0.0
938,234.25,79.6176,85.901,134.035,106.112,98.295,0.00614471,0.854727,19.8664,137.54,0.701106,0.0,0.0
945,236,79.9518,86.3986,134.379,105.863,97.8791,0.00624882,0.863076,19.8585,137.25,0.718454,0.0,0.0
952,237.75,80.1499,86.9144,131.59,105.583,96.6409,0.00634024,0.871443,19.8442,136.95,0.810822,0.0,0.0
959,239.5,80.8914,87.4555,131.298,105.297,98.0852,0.00639797,0.876043,19.8322,136.649,0.650051,0.0,0.0
966,241.25,80.9901,87.6854,132.602,105.046,97.6155,0.00641023,0.8767,19.8236,136.369,0.672211,0.0,0.0
973,243,81.9944,88.5762,134.047,104.838,97.5905,0.00635158,0.876231,19.8201,136.039,0.656392,0.0,0.0
980,244.75,82.4329,88.9978,135.628,104.698,96.4082,0.00625546,0.881152,19.819,135.749,0.755841,0.0,0.0
987,246.5,82.8475,89.6058,138.155,104.628,95.1756,0.00620743,0.888356,19.8175,135.398,0.867548,0.0,0.0
994,248.25,83.2647,89.9989,121.965,104.641,96.2203,0.00616629,0.89635,19.8102,135.058,0.768721,0.0,0.0
1001,250,83.821,90.7046,123.436,104.764,96.679,0.00613368,0.902014,19.8002,134.798,0.73588,0.0,0.0
1008,251.75,84.4842,91.0456,135.268,104.922,96.2766,0.00614004,0.90369,19.7904,134.457,0.78793,0.0,0.0
1015,253.5,84.658,91.7376,131.999,105.139,96.6731,0.00617573,0.905631,19.7853,134.137,0.769168,0.0,0.0
1022,255.25,85.4251,92.2386,123.505,105.366,97.6925,0.00626626,0.910069,19.7821,133.817,0.69285,0.0,0.0
1029,257,85.4419,93.1297,128.476,105.595,97.2452,0.00646049,0.92114,19.7781,133.517,0.754754,0.0,0.0
1036,258.75,86.0216,93.3369,140.208,105.792,98.0987,0.00672516,0.930986,19.7667,133.226,0.691756,0.0,0.0
1043,260.5,86.4786,93.853,132.756,105.944,97.3374,0.00690099,0.935134,19.7527,132.866,0.776311,0.0,0.0
1050,262.25,87.4989,94.7324,137.167,106.043,97.1115,0.00697766,0.934689,19.746,132.556,0.80617,0.0,0.0
1057,264,87.2395,94.8408,128.06,106.046,98.3911,0.00701066,0.933522,19.7436,132.275,0.686451,0.0,0.0
1064,265.75,87.6289,95.3261,130.194,105.998,99.2607,0.00697465,0.935136,19.7429,131.965,0.601677,0.0,0.0
1071,267.5,88.1708,95.7928,132.473,105.91,97.6049,0.00695387,0.940058,19.7425,131.645,0.748241,0.0,0.0
1078,269.25,88.2631,95.9254,129.683,105.814,97.7661,0.00699628,0.942692,19.7405,131.335,0.724767,0.0,0.0
1085,271,88.9644,96.5344,134.856,105.671,97.3417,0.00710714,0.943709,19.7346,131.004,0.75229,0.0,0.0
1092,272.75,89.2653,97.0049,133.225,105.587,96.1895,0.0072486,0.945106,19.73,130.684,0.854101,0.0,0.0
1099,274.5,89.7101,97.5164,124.387,105.582,97.827,0.007263,0.946027,19.7275,130.324,0.699018,0.0,0.0
1106,276.25,89.865,97.4186,130.303,105.988,97.7322,0.00712397,0.944393,19.7263,130.023,0.743043,0.0,0.0
1113,278,90.0429,98.2858,134.904,106.279,97.822,0.00696545,0.945095,19.7257,129.673,0.759779,0.0,0.0
1120,279.75,90.7698,98.768,127.263,106.424,99.1722,0.00688144,0.950413,19.7255,129.403,0.646587,0.0,0.0
1127,281.5,91.2161,98.9234,128.896,106.44,99.3728,0.00686771,0.953965,19.7197,129.043,0.629478,0.0,0.0
1134,283.25,91.4801,99.4813,123.868,106.299,99.1985,0.00691082,0.956388,19.7147,128.742,0.633448,0.0,0.0
1141,285,92.21,100.003,133.538,106.008,98.4017,0.00694428,0.959478,19.7118,128.412,0.682205,0.0,0.0
1148,286.75,92.3802,100.534,122.939,105.959,97.2702,0.00697203,0.961645,19.7076,128.102,0.783981,0.0,0.0
1155,288.5,92.81,100.359,129.121,106.156,99.011,0.00696678,0.96385,19.7048,127.762,0.638422,0.0,0.0
1162,290.25,93.2742,101.373,129.663,106.363,97.4386,0.00698895,0.969945,19.7022,127.421,0.802966,0.0,0.0
1169,292,93.7156,101.683,131.935,106.565,99.1832,0.00705903,0.973782,19.6972,127.091,0.657712,0.0,0.0
1176,293.75,93.9726,102.363,125.957,106.722,97.7779,0.0071828,0.979007,19.6911,126.761,0.801946,0.0,0.0
1183,295.5,94.3975,102.708,129.485,106.789,99.2378,0.00719321,0.984976,19.6873,126.47,0.6719,0.0,0.0
1190,297.25,95.2645,103.134,131.113,106.758,98.8011,0.00705979,0.988967,19.6792,126.1,0.709659,0.0,0.0
1197,299,95.5504,103.85,125.888,106.623,99.0106,0.00696342,0.995262,19.6713,125.8,0.678652,0.0,0.0
1204,300.75,95.8721,104.144,130.797,106.372,96.7806,0.0070671,1.00318,19.6633,125.47,0.865788,0.0,0.0
1211,302.5,95.8471,104.179,126.64,106.035,97.4602,0.00723868,1.00767,19.6543,125.109,0.772627,0.0,0.0
1218,304.25,96.4783,104.688,127.546,105.694,96.6993,0.00739341,1.00507,19.6493,124.729,0.814924,0.0,0.0
1225,306,96.4532,105.157,127.577,105.309,97.5786,0.00748122,1.00153,19.6482,124.399,0.698533,0.0,0.0
1232,307.75,96.6581,105.292,128.032,104.987,94.5083,0.00748259,0.997417,19.6499,124.088,0.963401,0.0,0.0
1239,309.5,97.4702,105.922,132.124,104.758,96.3845,0.00740242,0.995365,19.652,123.738,0.763272,0.0,0.0
1246,311.25,98.0631,106.417,137.2,104.683,96.0583,0.00724508,0.999881,19.653,123.408,0.787845,0.0,0.0
1253,313,98.2306,106.838,122.353,104.733,96.7307,0.00721713,1.00717,19.6521,123.067,0.728287,0.0,0.0
1260,314.75,98.3231,107.155,137.785,104.91,97.2338,0.00731872,1.01586,19.6456,122.757,0.696201,0.0,0.0
1267,316.5,98.4243,107.379,125.415,105.169,96.6617,0.0074708,1.0255,19.6356,122.367,0.77283,0.0,0.0
1274,318.25,99.4839,107.92,130.433,105.439,96.1078,0.00754936,1.03375,19.6237,122.007,0.848997,0.0,0.0
1281,320,99.6447,108.102,123.988,105.714,97.9993,0.00748725,1.0391,19.6107,121.596,0.694284,0.0,0.0
1288,321.75,100.138,108.995,131.274,105.914,97.3963,0.00728278,1.04409,19.6017,121.326,0.768179,0.0,0.0
1295,323.5,100.858,109.077,133.75,106.033,96.9016,0.00707579,1.04633,19.5961,120.986,0.825142,0.0,0.0
1302,325.25,100.903,110.059,131.053,106.055,98.3268,0.00702036,1.0491,19.5897,120.655,0.69322,0.0,0.0
1309,327,101.434,110.412,131.019,105.977,98.2832,0.00716632,1.05406,19.586,120.315,0.690573,0.0,0.0
1316,328.75,101.509,110.414,127.535,105.839,96.4387,0.00746513,1.05928,19.5813,119.935,0.852214,0.0,0.0
1323,330.5,101.858,111.07,120.209,105.679,97.3556,0.00769278,1.06153,19.5752,119.604,0.751683,0.0,0.0
1330,332.25,101.953,110.926,129.009,105.541,97.3603,0.00772689,1.06439,19.569,119.274,0.739262,0.0,0.0
1337,334,102.667,111.671,125.754,105.596,97.2367,0.00765163,1.06499,19.5653,118.884,0.755626,0.0,0.0
1344,335.75,103.441,112.517,135.461,106.065,97.1826,0.0075931,1.06464,19.5631,118.553,0.801319,0.0,0.0
1351,337.5,103.565,112.357,126.37,106.339,97.6802,0.00762575,1.06644,19.562,118.173,0.778242,0.0,0.0
1358,339.25,104.06,112.962,132.108,106.406,96.346,0.00776958,1.0697,19.562,117.873,0.909978,0.0,0.0
1365,341,103.69,113.087,126.976,106.312,98.4199,0.00780221,1.07482,19.5606,117.473,0.706793,0.0,0.0
1372,342.75,104.566,113.36,126.886,106.041,97.1369,0.00769224,1.07997,19.5555,117.152,0.803589,0.0,0.0
1379,344.5,104.699,114.418,122.628,105.934,96.9926,0.00759473,1.07852,19.5515,116.772,0.807978,0.0,0.0
1386,346.25,105.157,114.19,126.326,106.125,96.8161,0.00756741,1.08252,19.5478,116.412,0.841119,0.0,0.0
1393,348,105.938,114.73,130.664,106.335,97.4652,0.00759047,1.0917,19.5442,116.031,0.798057,0.0,0.0
1400,349.75,106.008,114.998,133.821,106.558,96.9659,0.00771176,1.09875,19.5344,115.681,0.864316,0.0,0.0
1407,351.5,106.517,115.561,125.419,106.724,99.1278,0.00797657,1.10216,19.5237,115.361,0.676506,0.0,0.0
1414,353.25,106.724,116.021,128.656,106.771,96.583,0.00818511,1.10553,19.5178,115.02,0.918847,0.0,0.0
1421,355,107.621,116.677,133.813,106.727,98.1435,0.00830381,1.11236,19.5133,114.65,0.768193,0.0,0.0
1428,356.75,107.013,117.337,127.547,106.572,98.2565,0.00832908,1.12035,19.5039,114.28,0.744349,0.0,0.0
1435,358.5,108.146,117.152,125.241,106.348,97.6768,0.00827908,1.12305,19.4949,113.899,0.779262,0.0,0.0
1442,360.25,108.453,117.575,129.816,106.054,97.7462,0.00817751,1.12362,19.4888,113.529,0.747442,0.0,0.0
1449,362,108.65,118.093,130.787,105.721,96.4074,0.00798742,1.12556,19.4859,113.199,0.844972,0.0,0.0
1456,363.75,108.925,118.585,129.942,105.376,97.6188,0.0078976,1.13058,19.4844,112.818,0.700579,0.0,0.0
1463,365.5,109.239,118.662,128.275,105.116,96.5534,0.00803934,1.13047,19.481,112.478,0.778545,0.0,0.0
1470,367.25,109.682,118.828,126.962,104.873,97.4043,0.00829119,1.12433,19.4782,112.118,0.676886,0.0,0.0
1477,369,109.828,118.821,132.282,104.731,95.5217,0.00836832,1.11757,19.4836,111.768,0.843334,0.0,0.0
1484,370.75,110.387,119.409,115.279,104.683,95.6948,0.00826623,1.11681,19.4909,111.377,0.822507,0.0,0.0
1491,372.5,110.143,119.343,122.161,104.727,96.6972,0.0081263,1.12028,19.495,110.977,0.730929,0.0,0.0
1498,374.25,110.717,120.239,122.743,104.866,96.9101,0.00799352,1.12123,19.4948,110.647,0.722897,0.0,0.0
1505,376,111.266,120.586,128.171,105.06,96.1078,0.00786654,1.12582,19.4915,110.286,0.816064,0.0,0.0
1512,377.75,111.694,121.179,130.04,105.272,97.051,0.00784897,1.13339,19.4896,109.906,0.745005,0.0,0.0
1519,379.5,111.644,121.662,124.345,105.489,96.8043,0.00796525,1.1408,19.4791,109.526,0.787195,0.0,0.0
1526,381.25,112.145,121.752,127.099,105.699,97.4644,0.00808616,1.14525,19.4702,109.215,0.743127,0.0,0.0
1533,383,112.595,122.469,131.985,105.879,97.703,0.00817141,1.14643,19.4626,108.895,0.736358,0.0,0.0
1540,384.75,112.501,122.289,125.366,105.989,97.1229,0.00828726,1.15417,19.4582,108.475,0.800458,0.0,0.0
1547,386.5,113.084,122.953,124.732,106.043,96.8331,0.00860094,1.16485,19.4557,108.094,0.832478,0.0,0.0
1554,388.25,113.646,123.321,130.217,106.061,97.1601,0.00887748,1.16889,19.4433,107.714,0.8031,0.0,0.0
1561,390,113.559,123.832,124.282,106.014,96.9346,0.00890558,1.16751,19.4341,107.334,0.82039,0.0,0.0
1568,391.75,114.25,124.236,124.494,105.921,95.9787,0.00876867,1.16241,19.4319,106.893,0.903107,0.0,0.0
1575,393.5,114.391,124.498,129.076,105.799,95.9698,0.00856467,1.15795,19.4359,106.553,0.89345,0.0,0.0
1582,395.25,115.001,125.163,127.527,105.693,97.5109,0.00836592,1.1575,19.4402,106.143,0.738232,0.0,0.0
1589,397,115.36,125.277,126.547,105.603,96.9989,0.00824875,1.16177,19.4422,105.762,0.778657,0.0,0.0
1596,398.75,115.017,125.676,127.793,105.498,96.8483,0.00828385,1.17013,19.4411,105.392,0.783849,0.0,0.0
1603,400.5,115.59,125.86,126.8,105.531,96.6765,0.0084187,1.18466,19.4329,105.022,0.802912,0.0,0.0
1610,402.25,116.219,126.03,122.067,105.863,96.3503,0.00856542,1.19776,19.4137,104.671,0.862661,0.0,0.0
1617,404,116.379,126.995,132.083,106.116,96.7929,0.008626,1.20299,19.396,104.241,0.842617,0.0,0.0
1624,405.75,116.531,127.075,123.078,106.282,97.4978,0.00852689,1.20541,19.384,103.891,0.790447,0.0,0.0
1631,407.5,116.85,127.144,124.256,106.382,97.3941,0.00834153,1.20315,19.3778,103.45,0.808771,0.0,0.0
1638,409.25,117.349,127.493,122.499,106.385,96.4738,0.00823558,1.20208,19.3788,103.11,0.896024,0.0,0.0
1645,411,117.375,128.006,119.46,106.306,97.6658,0.00831653,1.20581,19.381,102.71,0.776707,0.0,0.0
1652,412.75,118.067,128.421,119.471,106.199,96.2301,0.00851056,1.21091,19.3805,102.349,0.903192,0.0,0.0
1659,414.5,118.392,129.185,125.32,105.998,95.6233,0.00879702,1.21691,19.3737,101.909,0.943779,0.0,0.0
1666,416.25,118.969,129.488,120.163,105.886,94.7486,0.00899287,1.22511,19.3677,101.549,1.01825,0.0,0.0
1673,418,118.964,129.976,125.374,105.975,96.0896,0.00901024,1.23369,19.3577,101.128,0.897204,0.0,0.0
1680,419.75,119.5,129.547,133.289,106.097,96.4391,0.00897859,1.23722,19.3461,100.748,0.874499,0.0,0.0
1687,421.5,119.314,129.673,120.232,106.229,96.2652,0.00896241,1.23887,19.3393,100.338,0.902438,0.0,0.0
1694,423.25,120.058,130.193,116.021,106.362,96.3333,0.00896283,1.24346,19.3348,99.9673,0.907417,0.0,0.0
1701,425,120.289,130.725,112.876,106.481,96.4535,0.00901923,1.25409,19.3302,99.5069,0.906224,0.0,0.0
1708,426.75,120.611,131.227,128.051,106.592,96.1653,0.00912567,1.26718,19.3184,99.1365,0.943192,0.0,0.0
1715,428.5,120.811,131.604,129.694,106.679,96.8525,0.00925959,1.27613,19.3006,98.7462,0.885432,0.0,0.0
1722,430.25,121.435,132.215,121.279,106.744,96.773,0.00936389,1.28176,19.2886,98.3559,0.898521,0.0,0.0
1729,432,122.095,132.335,112.794,106.771,95.4409,0.00943026,1.27918,19.2822,97.9455,1.02784,0.0,0.0
1736,433.75,122.098,132.877,122.762,106.762,96.4979,0.00944074,1.27466,19.2795,97.5552,0.926147,0.0,0.0
1743,435.5,122.303,133.168,123.677,106.744,97.6493,0.00945873,1.27623,19.28,97.1648,0.81596,0.0,0.0
1750,437.25,123.029,133.656,124.823,106.686,97.4978,0.00948158,1.28312,19.2808,96.7945,0.825177,0.0,0.0
1757,439,123.517,133.982,124.766,106.608,97.9307,0.00953872,1.29346,19.2777,96.3941,0.777917,0.0,0.0
1764,440.75,123.478,134.337,117.861,106.495,96.1848,0.00966746,1.30044,19.2657,95.9638,0.932965,0.0,0.0
1771,442.5,123.965,134.722,123.479,106.382,96.0579,0.00980646,1.30269,19.2571,95.5334,0.935355,0.0,0.0
1778,444.25,123.69,134.734,113.229,106.246,97.136,0.00984189,1.30051,19.253,95.1431,0.821368,0.0,0.0
1785,446,124.515,135.454,123.991,106.086,93.2469,0.00977585,1.29794,19.2534,94.8028,1.18199,0.0,0.0
1792,447.75,124.625,135.346,119.146,105.914,96.2631,0.00962768,1.29281,19.2545,94.4124,0.875408,0.0,0.0
1799,449.5,124.824,135.483,122.87,105.768,95.0169,0.00933104,1.28717,19.259,93.962,0.982134,0.0,0.0
1806,451.25,125.306,136.409,120.289,105.616,95.7705,0.0091172,1.2888,19.2642,93.4816,0.896622,0.0,0.0
1813,453,125.477,136.666,118.374,105.459,93.6091,0.00899503,1.29639,19.2673,93.1513,1.09211,0.0,0.0
1820,454.75,125.824,136.759,122.913,105.32,95.6267,0.00895271,1.3026,19.2632,92.741,0.88465,0.0,0.0
1827,456.5,126.294,137.478,130.217,105.177,93.07,0.00902923,1.30634,19.2554,92.2805,1.12052,0.0,0.0
1834,458.25,126.907,137.595,116.088,105.072,93.9569,0.00926764,1.31042,19.2472,91.8502,1.02442,0.0,0.0
1841,460,127.049,137.955,117.773,104.957,94.6424,0.00966869,1.31676,19.24,91.4498,0.947821,0.0,0.0
1848,461.75,127.211,137.87,116.193,104.874,93.4348,0.0100006,1.32263,19.2318,91.0595,1.05826,0.0,0.0
1855,463.5,127.519,138.513,112.45,104.819,93.5122,0.0101729,1.32642,19.2222,90.6191,1.04587,0.0,0.0
1862,465.25,128.093,139.33,114.381,104.746,92.4768,0.0102009,1.33623,19.2142,90.2288,1.14144,0.0,0.0
1869,467,128.412,139.439,114.772,104.752,93.5634,0.0101988,1.34633,19.2047,89.8084,1.03497,0.0,0.0
1876,468.75,128.759,139.818,118.096,104.731,93.9078,0.0101773,1.35207,19.1915,89.388,0.999424,0.0,0.0
1883,470.5,129.554,140.32,123.381,104.738,93.8494,0.0102781,1.36214,19.1824,88.9677,1.0058,0.0,0.0
1890,472.25,129.443,140.627,119.241,104.742,93.7174,0.0104766,1.37191,19.1693,88.5573,1.01904,0.0,0.0
1897,474,129.746,140.957,120.45,104.784,94.2811,0.0106175,1.37977,19.1565,88.157,0.967733,0.0,0.0
1904,475.75,129.505,141.45,112.645,104.832,92.7992,0.0106532,1.38406,19.1457,87.7266,1.11709,0.0,0.0
1911,477.5,130.141,141.188,117.393,104.875,91.9474,0.0106126,1.38887,19.1389,87.2962,1.20536,0.0,0.0
1918,479.25,130.666,141.83,119.299,104.926,94.5294,0.0104945,1.39053,19.137,86.7958,0.95607,0.0,0.0
1925,481,131.789,142.103,124.14,104.997,94.0386,0.0104142,1.38794,19.1345,86.4355,1.00995,0.0,0.0
1932,482.75,131.63,142.899,126.007,105.049,91.0575,0.0103548,1.38553,19.1334,86.0451,1.30964,0.0,0.0
1939,484.5,132.242,142.901,118.68,105.126,93.0129,0.0102626,1.38976,19.1334,85.5447,1.12166,0.0,0.0
1946,486.25,132.351,143.729,113.363,105.187,93.6903,0.0101591,1.40334,19.1317,85.1143,1.06051,0.0,0.0
1953,488,132.869,143.755,118.396,105.236,94.2349,0.0101006,1.41505,19.1161,84.7039,1.0117,0.0,0.0
1960,489.75,133.067,144.278,126.153,105.311,93.8719,0.0101076,1.41947,19.1019,84.2535,1.05356,0.0,0.0
1967,491.5,133.554,144.782,116.487,105.38,93.0882,0.0101849,1.42244,19.0935,83.8732,1.13635,0.0,0.0
1974,493.25,133.815,145.001,113.95,105.453,92.2199,0.0103003,1.42721,19.0888,83.3628,1.22862,0.0,0.0
1981,495,134.203,145.693,117.655,105.516,92.2783,0.0104297,1.43413,19.0823,82.9724,1.22826,0.0,0.0
1988,496.75,134.772,145.69,116.004,105.574,93.9091,0.0105654,1.4418,19.0736,82.512,1.07278,0.0,0.0
1995,498.5,135.232,145.962,118.506,105.621,93.5071,0.0106923,1.44878,19.0659,82.0616,1.11621,0.0,0.0
2002,500.25,135.49,146.291,119.828,105.664,91.4578,0.0107951,1.45398,19.0579,81.6213,1.32297,0.0,0.0
2009,502,135.936,147.649,109.194,105.699,92.9575,0.0110418,1.46309,19.0506,81.1709,1.17696,0.0,0.0
2016,503.75,136.781,147.872,113.642,105.768,93.4517,0.0113314,1.47264,19.0436,80.7105,1.13433,0.0,0.0
2023,505.5,136.608,147.712,123.726,105.801,94.4287,0.0115468,1.48002,19.0309,80.3001,1.04193,0.0,0.0
2030,507.25,137.527,148.414,118.061,105.844,93.2989,0.0116429,1.48141,19.0184,79.8697,1.15593,0.0,0.0
2037,509,137.112,149.052,116.39,105.875,93.954,0.0117876,1.4857,19.0124,79.4093,1.09446,0.0,0.0
2044,510.75,137.757,149.609,116.625,105.904,94.2121,0.0120341,1.49459,19.0096,78.9489,1.07188,0.0,0.0
2051,512.5,138.068,149.731,118.126,105.946,94.8007,0.0123441,1.50123,18.9991,78.5586,1.01845,0.0,0.0
2058,514.25,138.477,149.952,123.297,105.972,94.3957,0.0125154,1.50209,18.9914,78.0882,1.05994,0.0,0.0
2065,516,138.783,151.358,108.3,105.994,94.8917,0.012499,1.50411,18.9851,77.6378,1.01382,0.0,0.0
2072,517.75,139.067,151.114,119.253,106.007,95.0888,0.0123416,1.51152,18.9813,77.1874,0.995946,0.0,0.0
2079,519.5,140.131,151.694,110.585,106.029,93.7572,0.0122451,1.51455,18.9763,76.747,1.12706,0.0,0.0
2086,521.25,140.365,151.974,115.988,106.049,94.0428,0.0121312,1.51708,18.9723,76.3066,1.10085,0.0,0.0
2093,523,139.683,152.749,109.536,106.055,95.776,0.0120002,1.52526,18.9672,75.8462,0.934045,0.0,0.0
2100,524.75,141.125,152.939,116.457,106.057,94.1634,0.0119345,1.53263,18.9614,75.3858,1.08982,0.0,0.0
2107,526.5,141.283,153.282,112.86,106.056,95.3123,0.0119777,1.53644,18.9509,74.9054,0.978668,0.0,0.0
2114,528.25,141.107,153.801,114.053,106.075,94.7605,0.0120447,1.53547,18.9438,74.475,1.0335,0.0,0.0
2121,530,141.682,154.32,123.102,106.08,93.6595,0.0119872,1.5331,18.9411,74.0546,1.14095,0.0,0.0
2128,531.75,141.961,154.609,119.832,106.077,94.3581,0.0117072,1.53457,18.9422,73.5642,1.07267,0.0,0.0
2135,533.5,142.506,154.661,111.864,106.082,92.6456,0.0113781,1.53824,18.9428,73.1439,1.2409,0.0,0.0
2142,535.25,142.067,155.1,109.793,106.074,93.9662,0.01114,1.54223,18.9389,72.6234,1.11054,0.0,0.0
2149,537,143.058,155.22,126.385,106.085,91.991,0.0110484,1.54412,18.9341,72.203,1.30613,0.0,0.0
2156,538.75,143.423,155.189,120.581,106.077,92.3257,0.0111714,1.54534,18.9308,71.7426,1.27218,0.0,0.0
2163,540.5,143.736,155.575,114.522,106.081,91.4887,0.0115036,1.54938,18.9253,71.2022,1.35596,0.0,0.0
2170,542.25,144.065,156.642,114.944,106.065,91.8717,0.011946,1.55373,18.9214,70.7418,1.31624,0.0,0.0
2177,544,144.186,157.063,112.05,106.067,91.7401,0.0124906,1.56839,18.9159,70.3014,1.32956,0.0,0.0
2184,545.75,144.748,157.773,120.043,106.065,92.3972,0.0130238,1.59176,18.9086,69.7909,1.26401,0.0,0.0
2191,547.5,145.367,157.16,111.638,106.059,92.1332,0.0132766,1.61677,18.8832,69.3706,1.28968,0.0,0.0
2198,549.25,145.526,157.924,112.723,106.046,91.8399,0.0133639,1.63162,18.8489,68.8901,1.31781,0.0,0.0
2205,551,145.777,158.048,121.727,106.039,91.5162,0.0134811,1.63442,18.8252,68.4297,1.34957,0.0,0.0
2212,552.75,146.054,158.976,113.137,106.023,92.7192,0.0137615,1.63423,18.8134,67.9093,1.22847,0.0,0.0
2219,554.5,145.333,158.71,120.366,106.012,91.8551,0.0139487,1.63497,18.81,67.4589,1.31337,0.0,0.0
2226,556.25,146.754,159.012,110.597,105.994,91.0901,0.0139654,1.62935,18.8095,67.0585,1.38844,0.0,0.0
2233,558,146.912,159.073,112.556,105.973,92.1882,0.0139171,1.61979,18.8115,66.5381,1.27683,0.0,0.0
2240,559.75,146.661,160.047,111.802,105.976,91.8623,0.013877,1.60972,18.8216,66.0877,1.30953,0.0,0.0
2247,561.5,147.465,159.844,113.46,105.965,93.8236,0.0138739,1.60664,18.8336,65.6473,1.11497,0.0,0.0
2254,563.25,147.661,160.281,110.489,105.951,94.1596,0.0139497,1.60436,18.8408,65.2269,1.08103,0.0,0.0
2261,565,148.016,160.567,118.573,105.949,92.8432,0.013977,1.59764,18.8466,64.7465,1.20988,0.0,0.0
2268,566.75,147.691,161.52,117.002,105.926,92.734,0.0138386,1.59892,18.8502,64.3362,1.2187,0.0,0.0
2275,568.5,147.991,161.534,110.877,105.936,92.6376,0.0137408,1.60361,18.8519,63.8457,1.22909,0.0,0.0
2282,570.25,148.61,161.612,111.435,105.921,93.2096,0.0137354,1.59706,18.8509,63.4154,1.17134,0.0,0.0
2289,572,148.819,161.404,117.322,105.908,91.7489,0.0136509,1.58631,18.8501,62.965,1.31495,0.0,0.0
2296,573.75,148.789,161.381,121.604,105.907,93.191,0.0133868,1.57682,18.8604,62.5446,1.17199,0.0,0.0
2303,575.5,148.592,161.606,116.694,105.914,94.3344,0.0130147,1.57142,18.8736,62.1442,1.06081,0.0,0.0
2310,577.25,148.726,161.862,112.308,105.894,93.9337,0.012683,1.56327,18.8839,61.7539,1.09811,0.0,0.0
2317,579,148.108,161.801,114.827,105.878,92.4928,0.0124219,1.55361,18.8917,61.2935,1.23837,0.0,0.0
2324,580.75,148.204,161.276,117.813,105.866,93.4602,0.0122962,1.54539,18.9051,60.8731,1.14204,0.0,0.0
2331,582.5,147.82,160.899,111.26,105.857,94.5709,0.0124076,1.52588,18.9165,60.5228,1.03297,0.0,0.0
2338,584.25,147.449,160.48,124.197,105.859,93.3154,0.012593,1.49533,18.9349,60.1325,1.15557,0.0,0.0
2345,586,146.921,160.1,118.306,105.837,94.7165,0.0125781,1.45933,18.9623,59.7622,1.01717,0.0,0.0
2352,587.75,146.701,159.704,114.763,105.832,94.8785,0.0122834,1.42624,19.0057,59.3918,1.00106,0.0,0.0
2359,589.5,145.704,159.796,123.334,105.836,94.9551,0.0119064,1.39414,19.0545,59.0415,0.993962,0.0,0.0
2366,591.25,145.555,158.782,126.241,105.824,93.8321,0.0115227,1.3665,19.0942,58.7113,1.10197,0.0,0.0
2373,593,144.506,158.356,121.114,105.814,93.8126,0.0111717,1.3445,19.1311,58.461,1.10305,0.0,0.0
2380,594.75,143.679,157.187,120.899,105.802,95.6131,0.0109523,1.31521,19.1639,58.1408,0.927756,0.0,0.0
2387,596.5,142.858,156.32,124.883,105.784,94.4981,0.0108409,1.27767,19.1958,57.8305,1.03371,0.0,0.0
2394,598.25,141.008,155.132,132.37,105.79,96.0811,0.0107045,1.23221,19.2477,57.5202,0.882051,0.0,0.0
2401,600,140.795,153.688,126.127,105.777,93.6726,0.0105079,1.18204,19.3029,57.29,1.11347,0.0,0.0
2408,601.75,139.334,152.897,132.989,105.791,92.7814,0.0102358,1.13251,19.3681,57.0398,1.20228,0.0,0.0
2415,603.5,137.782,151.306,132.382,105.767,93.7039,0.0098962,1.08234,19.4373,56.7696,1.1096,0.0,0.0
2422,605.25,136.445,150.366,133.206,105.768,95.0359,0.00951571,1.04122,19.5007,56.5494,0.980335,0.0,0.0
2429,607,135.016,148.273,139.419,105.77,93.9912,0.00917903,0.99608,19.5558,56.3492,1.0818,0.0,0.0
2436,608.75,133.462,147.231,135.717,105.768,93.4356,0.00884793,0.94543,19.6116,56.179,1.13594,0.0,0.0
2443,610.5,132.089,145.399,136.575,105.77,93.4559,0.00861684,0.905372,19.677,55.9588,1.13413,0.0,0.0
2450,612.25,130.184,143.503,140.525,105.769,93.7657,0.00838776,0.864488,19.7477,55.8387,1.10367,0.0,0.0
2457,614,128.322,141.13,144.445,105.763,94.6289,0.00818272,0.818759,19.7956,55.7086,1.01922,0.0,0.0
2464,615.75,126.058,138.774,146.106,105.77,97.3971,0.00781394,0.768078,19.8359,55.5685,0.755624,0.0,0.0
2471,617.5,124.181,137.43,147.6,105.758,97.9345,0.00737798,0.709144,19.8947,55.4984,0.704205,0.0,0.0
2478,619.25,122.295,134.766,148.99,105.752,99.8556,0.00685066,0.653957,19.9802,55.3984,0.525656,0.0,0.0
2485,621,119.893,133.062,147.565,105.767,101.491,0.00640771,0.596321,20.0629,55.3383,0.378144,0.0,0.0
2492,622.75,117.859,131.037,151.957,105.758,102.793,0.00590732,0.538567,20.1411,55.2883,0.260603,0.0,0.0
2499,624.5,116.095,128.379,154.435,105.758,103.744,0.00539788,0.483329,20.2286,55.2783,0.176128,0.0,0.0
2506,626.25,113.725,126.03,156.346,105.747,104.202,0.00490836,0.432174,20.3072,55.2482,0.134853,0.0,0.0
2513,628,111.055,123.732,153.906,105.76,104.633,0.00433351,0.385576,20.3835,55.2382,0.0981673,0.0,0.0
2520,629.75,109.174,121.835,157.236,105.754,104.605,0.00373039,0.337102,20.4572,55.2382,0.100131,0.0,0.0
2527,631.5,106.99,119.219,158.748,105.773,104.78,0.00312839,0.290597,20.5253,55.2382,0.086434,0.0,0.0
2534,633.25,105.215,116.927,164.707,105.745,104.699,0.0026215,0.24666,20.5895,55.2082,0.0910519,0.0,0.0
2541,635,102.806,114.519,159.062,105.757,104.815,0.00209647,0.208116,20.6467,55.2082,0.0819892,0.0,0.0
2548,636.75,101.216,112.132,161.182,105.757,104.715,0.0016279,0.175238,20.6923,55.2282,0.0907588,0.0,0.0
2555,638.5,99.1108,109.995,165.062,105.766,104.685,0.00125549,0.143743,20.7384,55.2382,0.0941325,0.0,0.0
2562,640.25,96.8916,107.616,163.536,105.764,104.705,0.0008976,0.120043,20.7848,55.2382,0.0922047,0.0,0.0
2569,642,94.6763,105.576,165.607,105.751,104.698,0.000615455,0.101279,20.8248,55.2282,0.0917202,0.0,0.0
2576,643.75,93.3973,103.293,159.533,105.765,104.679,0.000417565,0.0876852,20.8572,55.2082,0.0945389,0.0,0.0
2583,645.5,91.1306,101.216,161.074,105.767,104.643,0.000304329,0.0789826,20.8789,55.2182,0.0978733,0.0,0.0
2590,647.25,90.2256,99.2803,162.761,105.798,104.622,0.00020955,0.0721792,20.8941,55.2182,0.102365,0.0,0.0
2597,649,87.9366,97.6443,160.649,105.784,104.585,0.000137977,0.0676583,20.904,55.2182,0.104475,0.0,0.0
2604,650.75,86.4709,96.2983,160.516,105.787,104.6,7.43072e-05,0.0646762,20.9103,55.2282,0.103437,0.0,0.0
2611,652.5,84.9431,93.8091,159.451,105.8,104.649,2.74899e-05,0.0628406,20.915,55.2182,0.100215,0.0,0.0
2618,654.25,84.2325,92.7815,162.411,105.803,104.653,1.75665e-05,0.0617707,20.9178,55.2082,0.100105,0.0,0.0
2625,656,82.4421,91.1679,164.073,105.797,104.636,9.40808e-05,0.060873,20.9198,55.2282,0.101104,0.0,0.0
2632,657.75,81.5961,89.3074,164.27,105.816,104.671,0.000123004,0.0601173,20.9207,55.2182,0.0996638,0.0,0.0
2639,659.5,80.4501,88.3469,165.055,105.838,104.716,6.79615e-05,0.0596724,20.9212,55.2282,0.0976691,0.0,0.0
2646,661.25,79.21,86.385,164.11,105.853,104.606,-1.28812e-05,0.0590692,20.9222,55.2282,0.1086,0.0,0.0
2653,663,77.9893,85.1229,160.478,105.881,104.544,-4.52832e-05,0.0583614,20.923,55.2382,0.116463,0.0,0.0
2660,664.75,76.797,84.0492,166.969,105.863,104.604,2.98404e-06,0.0576398,20.9245,55.2182,0.109565,0.0,0.0
2667,666.5,75.8168,82.5002,161.034,105.887,104.586,7.99708e-05,0.0567028,20.9257,55.2282,0.113275,0.0,0.0
2674,668.25,75.0332,81.5412,162.277,105.897,104.585,9.92485e-05,0.0557812,20.9271,55.2182,0.114239,0.0,0.0
2681,670,73.6017,80.1808,162.6,105.92,104.503,5.33575e-05,0.0551368,20.9288,55.2182,0.123475,0.0,0.0
2688,671.75,72.9301,79.0923,164.245,105.905,104.529,2.6686e-05,0.054699,20.9298,55.2182,0.119839,0.0,0.0
2695,673.5,71.3654,77.8177,168.287,105.937,104.582,1.26805e-05,0.0542742,20.9302,55.2182,0.117913,0.0,0.0
2702,675.25,70.831,76.4738,168.555,105.944,104.522,-4.93306e-05,0.0540571,20.9305,55.2082,0.123883,0.0,0.0
2709,677,70.1291,75.5608,162.78,105.959,104.537,-0.000113952,0.0540693,20.9306,55.2182,0.123809,0.0,0.0
2716,678.75,69.5806,74.4463,159.978,105.982,104.576,-9.49505e-05,0.0541843,20.9306,55.2082,0.1224,0.0,0.0
2723,680.5,68.6849,73.4893,162.447,105.984,104.542,-2.31489e-05,0.0543347,20.9298,55.2182,0.125515,0.0,0.0
2730,682.25,67.3989,72.1378,164.209,106.005,104.552,6.08936e-05,0.0546237,20.9291,55.2082,0.126478,0.0,0.0
2737,684,67.0714,71.2445,158.636,106.008,104.521,0.000149969,0.055151,20.9296,55.2082,0.129446,0.0,0.0
2744,685.75,66.2137,70.1144,165.613,106.014,104.571,0.000197414,0.0555592,20.9307,55.2082,0.125551,0.0,0.0
2751,687.5,65.0442,69.3636,166.036,106.01,104.533,0.000232917,0.0560468,20.9306,55.2182,0.128592,0.0,0.0
2758,689.25,64.6173,68.613,159.654,106.034,104.548,0.00025564,0.0563473,20.9301,55.2082,0.129295,0.0,0.0
2765,691,63.5625,67.2593,166.653,106.035,104.499,0.000213436,0.0565784,20.9297,55.2182,0.133673,0.0,0.0
2772,692.75,63.4185,67.2393,167.38,106.045,104.558,0.000157323,0.0567004,20.9292,55.2182,0.129369,0.0,0.0
2779,694.5,62.7235,66.0151,164.798,106.039,104.543,0.00015132,0.0567038,20.929,55.2182,0.130186,0.0,0.0
2786,696.25,61.8985,64.9002,161.202,106.051,104.547,0.000174627,0.0567725,20.9289,55.2182,0.130889,0.0,0.0
2793,698,61.4797,64.1896,164.054,106.067,104.57,0.00019213,0.0569347,20.9288,55.2182,0.130221,0.0,0.0
2800,699.75,60.435,62.9383,165.346,106.076,104.542,0.000180257,0.0571142,20.9288,55.2182,0.133484,0.0,0.0
2807,701.5,60.3705,63.0358,165.123,106.066,104.477,0.000133142,0.0572035,20.9288,55.2282,0.13827,0.0,0.0
2814,703.25,59.7639,62.0185,161.581,106.059,104.513,8.5685e-05,0.0573608,20.9292,55.2082,0.134598,0.0,0.0
2821,705,59.3095,60.5621,164.804,106.082,104.503,8.31324e-05,0.0575757,20.9295,55.2382,0.137378,0.0,0.0
2828,706.75,58.4231,60.9169,165.565,106.078,104.561,0.000122029,0.0576027,20.9292,55.2282,0.132,0.0,0.0
2835,708.5,57.3857,59.7438,164.395,106.075,104.556,0.000201606,0.0574983,20.9268,55.2282,0.132186,0.0,0.0
2842,710.25,57.4024,59.1429,165.459,106.062,104.468,0.000264398,0.0574718,20.9252,55.2182,0.138753,0.0,0.0
2849,712,56.8277,58.545,163.133,106.087,104.435,0.000291843,0.0572961,20.9244,55.2082,0.14376,0.0,0.0
2856,713.75,56.3456,58.0132,166.62,106.071,104.472,0.000222219,0.0571617,20.9241,55.2082,0.139197,0.0,0.0
2863,715.5,55.8783,57.308,166.795,106.064,104.472,0.000120703,0.0571356,20.9239,55.2382,0.138568,0.0,0.0
2870,717.25,55.6056,56.8057,161.876,106.058,104.43,0.00010434,0.0571533,20.9238,55.2282,0.141724,0.0,0.0
2877,719,55.2565,56.0873,164.985,106.043,104.44,0.000210891,0.0571883,20.9238,55.2382,0.13961,0.0,0.0
2884,720.75,54.736,55.9205,167.475,106.046,104.377,0.000319915,0.05709,20.9238,55.2282,0.145365,0.0,0.0
2891,722.5,54.537,54.8377,163.186,106.039,104.404,0.000304267,0.0570859,20.9237,55.2282,0.142432,0.0,0.0
2898,724.25,53.0672,53.822,172.237,106.011,104.371,0.000197678,0.0571022,20.9237,55.2282,0.142883,0.0,0.0
2905,726,52.9283,53.9473,164.18,106.008,104.36,7.09596e-05,0.0572474,20.9237,55.2082,0.143552,0.0,0.0
2912,727.75,52.4085,52.9395,163.791,105.998,104.389,-1.29955e-07,0.0573299,20.9237,55.2082,0.140174,0.0,0.0
2919,729.5,52.3332,52.5708,165.932,105.984,104.343,2.35039e-05,0.0573441,20.924,55.2082,0.142925,0.0,0.0
2926,731.25,51.2372,51.9943,167.395,105.97,104.355,0.000119307,0.057419,20.9252,55.2082,0.140698,0.0,0.0
2933,733,51.7563,52.1371,162.865,105.956,104.322,0.000205211,0.0573737,20.9255,55.2282,0.142446,0.0,0.0
2940,734.75,51.0471,50.9083,172.445,105.938,104.288,0.000251188,0.0572918,20.9253,55.2382,0.143825,0.0,0.0
2947,736.5,50.2386,50.9934,165.152,105.945,104.301,0.000221287,0.0571857,20.9251,55.2182,0.143303,0.0,0.0
2954,738.25,50.2929,50.3815,164.823,105.949,104.289,0.000157048,0.0570322,20.9251,55.2182,0.144715,0.0,0.0
2961,740,49.884,49.275,168.753,105.926,104.324,5.81375e-05,0.0568987,20.9255,55.2182,0.1397,0.0,0.0
2968,741.75,49.4966,49.7301,166.508,105.911,104.354,-3.12364e-05,0.0567931,20.9255,55.2182,0.135727,0.0,0.0
2975,743.5,49.5979,49.2209,164.055,105.903,104.319,-3.82306e-05,0.056592,20.9257,55.2282,0.138144,0.0,0.0
2982,745.25,48.732,48.1048,162.989,105.889,104.34,2.33209e-05,0.0565392,20.9266,55.2282,0.135061,0.0,0.0
2989,747,48.5803,47.7548,168.244,105.863,104.236,7.8039e-05,0.0563037,20.927,55.2082,0.14198,0.0,0.0
2996,748.75,48.5862,47.9101,166.098,105.839,104.18,7.86061e-05,0.0561891,20.9272,55.2182,0.144812,0.0,0.0
3003,750.5,48.0657,47.4781,165.174,105.838,104.303,5.09009e-05,0.056132,20.9281,55.2182,0.133802,0.0,0.0
3010,752.25,47.2739,46.6654,168.118,105.822,104.244,-1.78041e-07,0.0559318,20.9289,55.2182,0.137634,0.0,0.0
3017,754,47.6343,46.6777,165.884,105.806,104.188,9.98648e-06,0.0557814,20.9293,55.2182,0.14117,0.0,0.0
3024,755.75,47.1241,46.3718,166.111,105.786,104.192,6.42632e-05,0.0556546,20.929,55.2282,0.139089,0.0,0.0
3031,757.5,46.5263,45.6772,170.372,105.763,104.19,0.00015639,0.0554326,20.9289,55.1982,0.137269,0.0,0.0
3035,758.5,46.0724,45.9183,167.959,105.757,104.096,0.000173571,0.0553013,20.9289,55.2082,0.145052,0.0,0.0