File: 01_Data/Black_PMMA/Cone/Black_PMMA_HRRPUA_50.csv
Time after Ignition,Black_PMMA_R1,Black_PMMA_R2,Black_PMMA_R3,Black_PMMA_R4,Mean,Std. Dev.
0.0,26.1,19.1,33.9,12.1,22.8,9.4
0.5,30.6,33.6,54.0,21.0,34.8,13.9
1.0,46.3,54.0,68.8,33.5,50.7,14.8
1.5,59.0,80.7,80.0,49.9,67.4,15.4
2.0,78.0,111.2,103.6,66.7,89.9,21.0
2.5,95.6,132.2,122.6,80.8,107.8,23.7
3.0,119.6,165.8,152.8,103.3,135.4,28.9
3.5,140.7,187.8,170.3,119.1,154.5,30.5
4.0,173.8,215.7,201.9,135.7,181.8,35.3
4.5,203.9,251.2,233.5,153.3,210.5,42.8
5.0,234.7,273.9,267.9,174.8,237.8,45.4
5.5,268.9,299.4,282.1,199.4,262.4,43.8
6.0,293.9,319.7,320.5,214.1,287.1,50.2
6.5,334.3,362.5,345.6,233.2,318.9,58.3
7.0,355.1,390.2,368.0,262.3,343.9,56.3
7.5,381.2,416.4,372.4,285.2,363.8,55.7
8.0,393.5,434.0,404.5,301.3,383.3,57.3
8.5,436.8,458.1,428.2,325.3,412.1,59.2
9.0,451.3,483.7,432.4,346.4,428.5,58.6
9.5,473.2,510.4,442.2,365.3,447.8,61.7
10.0,489.9,522.3,471.0,376.3,464.9,62.8
10.5,513.5,532.0,476.0,400.6,480.5,58.2
11.0,530.7,552.2,493.2,424.5,500.2,56.0
11.5,541.7,567.5,506.6,430.8,511.7,59.4
12.0,557.1,584.7,516.0,440.4,524.6,62.8
12.5,564.6,588.3,529.9,467.1,537.5,52.7
13.0,598.9,575.4,549.3,459.6,545.8,60.9
13.5,598.5,601.0,541.9,487.0,557.1,54.1
14.0,625.9,591.8,563.0,500.4,570.3,53.2
14.5,601.9,624.4,587.7,505.9,580.0,51.6
15.0,620.3,617.1,597.0,522.4,589.2,45.7
15.5,635.6,628.1,607.1,522.7,598.4,51.9
16.0,661.3,655.6,601.2,533.3,612.8,59.5
16.5,649.7,653.9,611.6,547.6,615.7,49.2
17.0,655.0,652.6,621.2,535.9,616.2,55.7
17.5,641.1,672.6,613.8,573.1,625.1,42.2
18.0,658.2,679.1,637.3,562.3,634.2,50.9
18.5,660.8,679.9,635.5,570.3,636.6,47.8
19.0,655.6,710.3,629.3,559.5,638.7,62.7
19.5,676.4,682.6,652.4,602.4,653.5,36.5
20.0,662.9,702.3,638.5,592.6,649.1,45.9
20.5,702.0,713.5,650.4,589.2,663.8,56.8
21.0,709.7,702.0,667.4,605.0,671.0,47.7
21.5,708.7,691.4,659.9,602.1,665.5,46.9
22.0,717.3,705.3,657.8,605.1,671.4,51.1
22.5,700.5,723.1,679.8,635.9,684.8,37.1
23.0,691.1,720.4,682.9,595.8,672.5,53.6
23.5,717.0,700.3,663.6,596.1,669.3,53.6
24.0,704.3,708.9,684.6,620.5,679.6,40.8
24.5,739.9,724.9,679.7,624.7,692.3,51.8
25.0,698.5,707.7,692.3,634.5,683.3,33.1
25.5,700.9,706.4,687.0,628.7,680.7,35.7
26.0,716.0,734.0,691.8,617.7,689.9,51.1
26.5,728.1,719.1,702.8,643.9,698.5,37.8
27.0,742.0,741.9,681.5,670.6,709.0,38.3
27.5,755.0,729.9,681.0,641.4,701.9,50.7
28.0,703.4,738.5,689.9,668.2,700.0,29.5
28.5,705.1,739.7,679.1,649.5,693.3,38.3
29.0,729.0,728.6,705.1,665.7,707.1,29.8
29.5,760.0,757.1,693.2,656.8,716.8,50.5
30.0,747.9,729.4,697.9,641.6,704.2,46.6
30.5,731.4,740.4,695.2,665.5,708.1,34.5
31.0,764.1,728.0,687.6,658.2,709.5,46.3
31.5,738.4,737.5,676.7,669.3,705.5,37.6
32.0,757.2,743.2,706.1,664.0,717.6,41.7
32.5,758.2,759.1,695.7,641.1,713.5,56.7
33.0,748.7,742.7,699.6,656.8,711.9,42.8
33.5,763.1,757.8,689.3,652.4,715.7,53.9
34.0,746.6,758.8,697.5,658.2,715.3,46.4
34.5,756.3,746.9,723.9,686.6,728.4,31.0
35.0,750.9,742.7,697.6,677.3,717.1,35.4
35.5,773.6,749.1,735.3,677.8,733.9,40.6
36.0,754.7,744.6,707.4,683.3,722.5,33.1
36.5,762.0,728.1,713.2,701.8,726.3,26.2
37.0,768.5,743.8,710.1,707.9,732.6,29.0
37.5,751.8,763.7,704.8,716.2,734.1,28.1
38.0,742.2,737.0,710.5,675.2,716.2,30.6
38.5,747.4,774.9,739.7,730.0,748.0,19.3
39.0,762.0,745.8,721.5,690.6,730.0,31.1
39.5,759.8,713.4,723.8,668.9,716.5,37.5
40.0,752.6,739.3,736.9,701.9,732.7,21.6
40.5,788.0,756.0,726.4,675.4,736.4,47.9
41.0,774.1,739.1,730.7,742.8,746.7,19.0
41.5,749.4,760.8,699.0,711.3,730.1,29.6
42.0,758.8,760.4,705.6,711.2,734.0,29.7
42.5,791.9,754.7,750.4,694.3,747.8,40.3
43.0,751.9,772.9,754.8,708.1,746.9,27.5
43.5,761.8,749.1,718.4,719.0,737.1,21.9
44.0,752.1,745.0,762.5,706.2,741.4,24.6
44.5,785.3,788.0,728.9,708.6,752.7,40.1
45.0,756.5,783.1,724.0,721.6,746.3,29.2
45.5,800.5,760.0,726.1,689.3,744.0,47.5
46.0,750.7,745.0,738.1,704.3,734.5,20.8
46.5,737.0,774.2,739.5,722.9,743.4,21.8
47.0,782.9,764.3,732.3,730.8,752.6,25.4
47.5,769.4,758.8,744.8,729.7,750.7,17.2
48.0,764.7,772.9,728.7,710.7,744.2,29.5
48.5,762.6,769.6,766.5,733.5,758.0,16.6
49.0,750.3,770.4,754.6,717.3,748.1,22.3
49.5,762.5,761.0,744.9,691.8,740.1,33.2
50.0,756.9,743.3,726.0,707.6,733.4,21.4
50.5,767.8,765.0,748.0,719.3,750.0,22.3
51.0,774.7,770.3,738.2,690.5,743.4,38.9
51.5,756.6,780.3,733.9,677.2,737.0,44.1
52.0,765.9,803.1,761.1,724.5,763.6,32.2
52.5,789.1,744.2,733.4,737.1,750.9,25.8
53.0,789.5,779.6,740.9,733.5,760.9,27.8
53.5,792.6,785.2,733.7,705.6,754.3,41.7
54.0,763.6,775.6,720.0,722.2,745.3,28.4
54.5,765.7,755.2,744.6,738.0,750.9,12.2
55.0,795.2,764.5,754.4,712.9,756.8,34.0
55.5,758.9,763.1,752.4,679.6,738.5,39.5
56.0,792.4,758.7,766.7,712.0,757.5,33.6
56.5,781.8,769.7,746.9,716.3,753.7,28.8
57.0,766.2,813.9,716.9,697.7,748.7,52.2
57.5,764.6,764.9,738.1,694.3,740.5,33.3
58.0,796.3,760.7,721.1,731.8,752.5,33.7
58.5,797.3,772.8,730.8,734.0,758.7,32.0
59.0,778.3,774.8,732.5,735.2,755.2,24.7
59.5,771.8,759.9,741.1,716.8,747.4,24.0
60.0,784.0,786.8,730.9,699.7,750.4,42.5
60.5,802.5,783.5,741.2,743.8,767.8,30.2
61.0,773.3,795.5,724.4,733.6,756.7,33.5
61.5,795.7,754.6,749.2,714.4,753.5,33.3
62.0,766.3,772.9,745.8,717.0,750.5,25.1
62.5,802.0,765.9,705.0,732.4,751.3,42.0
63.0,761.4,795.0,741.8,742.1,760.1,25.0
63.5,765.7,795.0,732.1,731.1,756.0,30.6
64.0,804.4,781.9,769.1,751.8,776.8,22.1
64.5,810.3,797.6,763.6,745.5,779.2,29.9
65.0,765.0,794.4,785.4,708.6,763.4,38.5
65.5,792.0,825.7,757.8,743.3,779.7,36.8
66.0,786.8,767.2,740.3,740.1,758.6,22.7
66.5,792.0,762.1,764.1,709.5,756.9,34.4
67.0,768.2,777.7,772.9,726.5,761.3,23.6
67.5,811.6,778.0,758.9,719.5,767.0,38.4
68.0,798.4,774.3,741.2,746.1,765.0,26.6
68.5,789.1,779.9,736.0,729.1,758.5,30.4
69.0,814.4,785.1,731.5,734.9,766.4,40.3
69.5,797.1,780.7,769.5,732.4,769.9,27.4
70.0,804.1,771.4,726.9,749.9,763.1,32.8
70.5,783.1,804.6,747.9,724.8,765.1,35.6
71.0,811.9,789.8,794.8,722.1,779.6,39.5
71.5,790.6,796.6,770.4,737.1,773.7,26.9
72.0,793.7,784.0,778.2,723.3,769.8,31.7
72.5,817.0,783.2,774.6,741.6,779.1,31.0
73.0,784.5,779.3,746.0,740.4,762.6,22.6
73.5,801.3,794.5,750.7,737.4,771.0,31.7
74.0,769.8,799.7,796.8,722.8,772.3,35.6
74.5,782.6,792.9,769.7,733.7,769.8,25.8
75.0,783.8,819.2,756.1,748.2,776.8,32.1
75.5,781.9,792.3,765.1,750.5,772.4,18.5
76.0,798.3,771.8,746.0,735.2,762.8,28.2
76.5,788.4,803.4,791.7,762.7,786.5,17.2
77.0,805.1,787.0,772.4,761.8,781.6,18.8
77.5,790.9,799.8,764.1,777.5,783.1,15.6
78.0,779.8,827.4,759.8,764.4,782.9,30.9
78.5,818.4,828.6,799.8,777.9,806.2,22.3
79.0,815.2,812.0,745.8,772.9,786.5,33.2
79.5,815.5,764.9,780.0,768.0,782.1,23.2
80.0,791.6,796.6,767.7,765.3,780.3,16.1
80.5,791.2,813.9,744.8,747.7,774.4,33.8
81.0,798.0,854.4,765.7,761.4,794.9,42.9
81.5,806.5,830.7,736.5,778.4,788.0,40.4
82.0,834.2,789.9,733.2,735.7,773.2,48.3
82.5,795.8,795.2,781.1,764.5,784.1,14.7
83.0,843.2,773.9,758.2,767.4,785.7,38.9
83.5,799.7,779.1,800.5,740.1,779.9,28.3
84.0,804.7,807.6,753.3,791.9,789.4,25.0
84.5,827.1,833.0,786.5,771.9,804.6,30.0
85.0,835.0,796.0,783.7,765.6,795.1,29.4
85.5,826.4,793.0,778.5,742.8,785.2,34.6
86.0,805.9,803.6,786.7,765.8,790.5,18.6
86.5,806.7,792.5,792.7,758.6,787.6,20.5
87.0,784.1,784.6,760.8,764.2,773.4,12.7
87.5,814.0,785.2,766.6,765.1,782.7,22.8
88.0,809.9,831.0,793.4,788.3,805.7,19.3
88.5,829.5,794.3,777.4,797.1,799.6,21.7
89.0,795.4,792.6,775.1,763.0,781.5,15.3
89.5,827.1,815.5,759.2,782.4,796.1,31.0
90.0,794.2,836.2,814.0,764.2,802.2,30.5
90.5,835.6,782.1,812.2,753.0,795.7,35.9
91.0,793.7,793.0,789.7,740.1,779.1,26.1
91.5,795.6,807.9,810.6,756.4,792.6,25.0
92.0,824.9,803.1,767.3,760.0,788.8,30.6
92.5,828.8,812.8,791.6,739.2,793.1,39.0
93.0,835.7,808.4,773.1,782.8,800.0,28.1
93.5,828.1,838.5,807.5,748.2,805.6,40.4
94.0,837.5,797.4,805.9,804.8,811.4,17.8
94.5,817.0,825.4,794.3,782.2,804.7,20.0
95.0,816.1,802.0,821.5,805.6,811.3,9.0
95.5,832.5,781.3,779.4,781.8,793.7,25.8
96.0,851.2,815.1,801.8,789.7,814.4,26.6
96.5,793.0,816.2,815.6,794.0,804.7,12.9
97.0,846.9,815.3,788.5,800.0,812.7,25.3
97.5,829.2,842.9,779.6,758.2,802.5,40.1
98.0,809.4,817.2,794.7,786.4,801.9,13.9
98.5,814.2,800.3,804.8,779.5,799.7,14.7
99.0,829.9,843.1,793.3,784.8,812.8,28.1
99.5,807.9,856.7,794.7,769.4,807.2,36.7
100.0,823.2,850.3,789.1,760.6,805.8,39.2
100.5,836.3,834.8,793.7,780.4,811.3,28.5
101.0,795.1,832.3,806.4,782.7,804.1,21.1
101.5,827.9,791.3,798.6,789.3,801.8,17.9
102.0,793.4,838.1,799.6,778.9,802.5,25.2
102.5,825.1,842.3,809.1,812.2,822.2,15.1
103.0,811.8,831.6,836.3,751.4,807.8,39.1
103.5,835.5,844.0,789.4,785.5,813.6,30.4
104.0,796.7,822.4,840.5,824.8,821.1,18.2
104.5,817.6,834.5,811.0,761.2,806.1,31.5
105.0,857.3,819.9,817.3,816.8,827.8,19.7
105.5,811.0,826.8,827.5,766.3,807.9,28.7
106.0,853.3,847.5,785.2,769.1,813.8,42.8
106.5,802.3,844.3,838.2,771.1,814.0,34.1
107.0,845.7,813.8,792.7,796.8,812.3,24.1
107.5,854.0,842.3,811.2,785.1,823.2,31.2
108.0,826.3,824.1,790.6,800.9,810.5,17.5
108.5,849.7,848.4,825.6,765.9,822.4,39.3
109.0,845.9,828.4,818.8,810.6,825.9,15.2
109.5,838.0,851.0,808.1,787.6,821.2,28.7
110.0,845.6,867.6,804.3,789.0,826.6,36.3
110.5,828.7,857.5,837.2,791.0,828.6,27.8
111.0,862.9,856.4,809.7,809.2,834.6,29.1
111.5,824.8,842.5,791.6,814.6,818.4,21.2
112.0,811.7,836.5,811.5,841.2,825.2,15.9
112.5,808.7,828.1,819.5,823.3,819.9,8.3
113.0,866.2,827.7,783.6,799.7,819.3,36.2
113.5,825.3,846.7,815.8,810.4,824.6,16.0
114.0,847.2,852.5,835.6,773.0,827.1,36.7
114.5,862.1,845.0,814.3,771.9,823.3,39.6
115.0,838.6,825.9,825.6,782.3,818.1,24.6
115.5,843.1,830.1,820.6,789.9,820.9,22.7
116.0,838.4,842.3,784.2,791.6,814.1,30.5
116.5,846.2,838.3,796.3,795.6,819.1,26.9
117.0,892.8,851.5,816.6,798.0,839.7,41.8
117.5,883.1,842.2,803.6,855.8,846.2,33.1
118.0,822.3,837.5,813.2,766.2,809.8,30.7
118.5,821.6,854.8,838.5,808.6,830.9,20.1
119.0,822.1,823.5,816.4,787.6,812.4,16.8
119.5,845.4,870.4,806.9,799.8,830.6,33.2
120.0,846.5,881.5,793.0,824.7,836.4,37.2
120.5,835.3,836.1,822.8,814.8,827.2,10.3
121.0,837.1,859.9,813.4,809.9,830.1,23.3
121.5,833.2,854.2,792.9,812.8,823.3,26.4
122.0,825.5,835.5,799.3,787.3,811.9,22.4
122.5,842.1,838.0,799.6,822.2,825.5,19.3
123.0,862.4,881.6,831.9,834.3,852.6,23.8
123.5,855.6,830.9,808.3,799.3,823.5,25.2
124.0,861.8,824.2,808.5,832.9,831.8,22.4
124.5,823.4,849.0,798.1,862.5,833.2,28.5
125.0,841.5,867.9,793.5,807.2,827.5,33.7
125.5,823.6,833.4,805.5,835.0,824.4,13.6
126.0,877.7,826.1,833.9,822.2,840.0,25.6
126.5,865.4,853.7,809.3,849.7,844.5,24.4
127.0,843.6,843.6,830.7,833.9,837.9,6.7
127.5,843.4,859.8,790.8,814.0,827.0,30.7
128.0,845.0,879.7,800.9,829.5,838.8,32.8
128.5,816.2,854.4,846.0,814.0,832.6,20.6
129.0,869.1,900.7,844.3,857.0,867.8,24.2
129.5,856.9,823.7,761.6,829.6,818.0,40.2
130.0,874.9,865.0,798.6,835.3,843.4,34.3
130.5,883.1,849.3,807.0,830.5,842.5,32.1
131.0,855.9,839.4,820.0,836.6,838.0,14.7
131.5,864.7,860.1,835.8,842.2,850.7,13.9
132.0,896.3,861.8,805.1,852.7,854.0,37.6
132.5,877.2,886.3,851.3,844.9,864.9,20.0
133.0,893.1,862.2,792.3,825.6,843.3,43.8
133.5,837.8,879.0,819.9,817.5,838.6,28.5
134.0,902.4,874.1,831.2,831.5,859.8,34.9
134.5,812.8,842.5,817.2,826.1,824.7,13.1
135.0,856.9,868.7,850.5,834.8,852.7,14.1
135.5,863.2,835.7,823.9,814.1,834.3,21.2
136.0,857.4,844.3,815.7,853.3,842.7,18.8
136.5,858.6,830.7,858.4,871.5,854.8,17.2
137.0,831.7,871.6,794.8,835.8,833.5,31.4
137.5,903.1,874.2,838.9,868.9,871.3,26.3
138.0,814.8,867.3,868.5,862.4,853.3,25.7
138.5,822.3,865.9,859.4,847.6,848.8,19.2
139.0,834.1,868.0,817.8,854.9,843.7,22.2
139.5,920.1,890.3,830.4,850.4,872.8,40.2
140.0,885.9,830.4,819.4,846.6,845.6,29.2
140.5,886.2,870.0,852.3,859.6,867.1,14.7
141.0,861.6,869.9,858.6,809.3,849.8,27.5
141.5,849.4,864.4,812.1,834.4,840.1,22.3
142.0,873.6,882.5,869.1,824.6,862.4,25.9
142.5,873.4,881.1,873.9,804.3,858.2,36.1
143.0,876.7,876.2,850.6,838.2,860.4,19.2
143.5,874.2,864.5,841.5,839.3,854.9,17.2
144.0,893.3,866.1,819.3,869.4,862.0,30.9
144.5,881.9,868.8,867.4,828.9,861.7,22.9
145.0,870.2,832.8,895.2,854.8,863.3,26.3
145.5,883.9,871.9,838.4,859.0,863.3,19.5
146.0,866.4,895.8,832.2,890.4,871.2,29.0
146.5,889.5,877.7,851.9,829.6,862.2,26.8
147.0,887.9,870.3,829.9,894.6,870.7,29.1
147.5,882.3,874.4,842.2,889.2,872.0,20.8
148.0,898.1,889.1,811.1,850.7,862.3,39.8
148.5,858.0,872.4,849.5,861.3,860.3,9.5
149.0,883.6,914.3,887.5,809.8,873.8,44.8
149.5,835.1,875.2,844.3,848.2,850.7,17.2
150.0,887.9,879.3,852.7,903.9,880.9,21.4
150.5,868.4,875.3,826.6,891.2,865.4,27.6
151.0,862.0,866.8,842.7,914.4,871.5,30.4
151.5,887.4,908.8,881.0,866.9,886.0,17.5
152.0,879.4,877.2,832.0,863.6,863.1,21.8
152.5,885.8,848.6,853.9,863.3,862.9,16.4
153.0,868.7,906.6,866.4,856.7,874.6,22.0
153.5,898.0,893.6,836.0,909.8,884.3,33.0
154.0,855.4,880.1,856.3,869.6,865.3,11.8
154.5,876.0,897.4,858.8,887.2,879.9,16.5
155.0,880.9,887.3,847.1,880.2,873.9,18.1
155.5,863.9,897.8,849.8,858.3,867.4,21.1
156.0,890.1,902.7,835.6,922.4,887.7,37.2
156.5,866.9,920.3,902.8,895.8,896.4,22.2
157.0,872.5,905.2,912.2,871.2,890.2,21.5
157.5,855.0,897.1,852.4,863.6,867.0,20.6
158.0,884.5,934.1,872.2,875.7,891.6,28.8
158.5,881.9,907.1,821.1,886.9,874.3,37.1
159.0,880.2,869.7,853.4,873.7,869.2,11.4
159.5,865.2,903.4,865.3,927.7,890.4,30.7
160.0,898.0,889.6,890.3,936.0,903.5,22.0
160.5,901.3,910.5,868.7,907.4,897.0,19.2
161.0,877.1,862.8,865.1,887.0,873.0,11.2
161.5,873.8,924.2,861.4,879.2,884.7,27.4
162.0,873.6,911.1,908.3,886.9,895.0,17.9
162.5,887.3,898.7,806.5,869.5,865.5,41.2
163.0,857.3,914.5,849.1,901.9,880.7,32.3
163.5,889.0,911.0,888.6,903.3,898.0,11.1
164.0,862.1,872.4,848.8,903.6,871.7,23.4
164.5,957.3,885.9,859.7,907.2,902.5,41.3
165.0,905.2,899.6,887.6,907.1,899.8,8.8
165.5,902.7,913.6,877.7,841.5,883.9,32.0
166.0,902.9,907.4,891.5,883.2,896.2,11.0
166.5,913.7,923.3,878.9,872.3,897.1,25.2
167.0,944.3,919.2,858.1,946.3,917.0,41.1
167.5,917.8,937.1,850.7,897.6,900.8,37.1
168.0,890.2,900.8,865.3,896.4,888.2,15.9
168.5,914.9,891.9,864.4,915.4,896.7,24.1
169.0,952.6,948.1,900.6,957.4,939.7,26.3
169.5,916.9,984.3,874.3,917.1,923.1,45.5
170.0,916.9,903.9,907.1,902.3,907.5,6.6
170.5,917.4,933.3,874.5,945.8,917.7,31.1
171.0,911.9,908.0,874.5,877.6,893.0,19.7
171.5,899.1,952.1,902.6,937.8,922.9,26.2
172.0,904.4,924.4,868.9,918.0,903.9,24.8
172.5,896.1,902.4,923.0,899.8,905.3,12.1
173.0,925.0,893.3,880.4,914.3,903.3,20.1
173.5,945.6,928.5,879.4,917.7,917.8,28.1
174.0,929.8,953.9,895.0,889.7,917.1,30.3
174.5,931.4,916.4,870.7,920.8,909.8,26.8
175.0,879.6,918.5,900.6,952.8,912.8,31.0
175.5,938.3,966.0,865.4,904.4,918.5,43.5
176.0,923.3,932.6,865.0,919.6,910.1,30.6
176.5,908.1,958.1,910.2,956.5,933.2,27.8
177.0,943.2,941.1,914.3,953.7,938.1,16.8
177.5,915.8,961.2,931.9,927.8,934.2,19.3
178.0,939.8,911.4,885.9,970.4,926.9,36.4
178.5,947.0,891.2,889.3,924.3,913.0,27.8
179.0,925.6,942.1,883.0,950.9,925.4,30.2
179.5,934.2,901.6,886.5,946.0,917.1,27.7
180.0,894.5,952.2,913.1,918.5,919.6,24.1
180.5,918.4,939.5,899.7,934.8,923.1,18.0
181.0,964.7,947.2,882.6,891.5,921.5,40.6
181.5,919.5,919.3,888.3,963.5,922.7,31.0
182.0,889.1,916.4,870.0,915.9,897.8,22.5
182.5,929.4,945.8,876.5,899.6,912.8,30.9
183.0,897.7,910.4,900.7,919.1,907.0,9.7
183.5,887.1,942.4,874.7,926.9,907.8,32.1
184.0,940.3,972.5,880.2,959.4,938.1,40.8
184.5,938.6,923.1,866.1,977.3,926.3,46.1
185.0,968.6,925.6,903.0,944.6,935.5,27.9
185.5,926.4,922.2,883.8,946.9,919.9,26.3
186.0,941.7,944.6,890.5,935.2,928.0,25.3
186.5,963.0,919.5,872.5,954.3,927.3,41.1
187.0,979.1,918.6,886.1,921.8,926.4,38.7
187.5,949.6,940.3,888.2,970.3,937.1,34.9
188.0,897.4,907.3,900.5,919.3,906.1,9.7
188.5,926.3,927.9,891.6,955.1,925.2,26.0
189.0,918.0,929.9,894.1,976.1,929.5,34.4
189.5,992.9,959.8,944.2,935.7,958.1,25.2
190.0,948.8,932.2,920.7,932.7,933.6,11.6
190.5,932.2,935.2,915.4,884.8,916.9,23.1
191.0,939.6,957.0,923.0,901.0,930.2,23.9
191.5,934.5,979.2,924.3,979.2,954.3,29.1
192.0,948.1,977.6,899.1,966.5,947.8,34.7
192.5,976.0,923.0,905.2,942.0,936.5,30.3
193.0,925.2,980.2,898.0,983.8,946.8,42.2
193.5,958.3,944.7,936.1,909.4,937.1,20.6
194.0,958.3,968.9,895.2,939.0,940.4,32.5
194.5,964.9,968.4,897.7,928.7,939.9,33.4
195.0,989.5,936.6,919.4,927.1,943.2,31.7
195.5,914.4,978.6,909.7,996.4,949.8,44.2
196.0,960.4,973.0,889.7,1011.3,958.6,50.8
196.5,955.7,958.1,917.3,961.9,948.3,20.8
197.0,991.5,956.7,937.0,939.9,956.3,25.0
197.5,922.0,937.3,916.8,948.0,931.0,14.3
198.0,981.9,966.8,880.3,944.4,943.3,44.7
198.5,938.8,936.2,921.7,990.5,946.8,30.1
199.0,979.3,966.9,897.4,947.1,947.7,36.1
199.5,955.4,929.1,904.2,993.2,945.5,38.1
200.0,917.1,948.6,936.8,971.3,943.5,22.7
200.5,995.3,907.7,960.7,972.6,959.1,37.1
201.0,981.3,949.4,991.4,953.7,969.0,20.6
201.5,956.4,945.4,886.0,959.1,936.7,34.3
202.0,934.4,971.8,925.8,981.3,953.3,27.3
202.5,966.4,953.7,963.8,969.1,963.2,6.7
203.0,954.9,900.5,924.7,969.1,937.3,30.7
203.5,931.4,990.6,904.2,975.5,950.4,39.8
204.0,978.5,919.6,885.2,986.6,942.5,48.5
204.5,927.7,940.7,947.6,981.1,949.3,22.8
205.0,964.9,920.8,942.8,972.4,950.2,23.3
205.5,987.8,972.3,978.9,996.8,984.0,10.7
206.0,970.9,924.6,938.9,981.9,954.1,26.8
206.5,988.5,973.0,916.1,931.9,952.4,34.0
207.0,1027.9,976.9,952.3,950.3,976.8,36.1
207.5,1007.6,942.6,932.4,976.7,964.8,34.2
208.0,996.9,925.3,962.2,1001.7,971.5,35.5
208.5,952.8,987.1,947.3,968.5,963.9,17.9
209.0,973.8,974.5,911.1,1015.3,968.7,43.0
209.5,968.5,928.7,898.6,1024.4,955.1,54.4
210.0,1005.2,909.8,970.3,980.8,966.5,40.5
210.5,947.9,934.2,918.4,987.1,946.9,29.4
211.0,966.6,970.9,973.6,996.9,977.0,13.6
211.5,969.2,919.9,930.6,987.6,951.8,31.9
212.0,966.3,1021.5,923.0,997.1,977.0,42.5
212.5,976.9,986.9,963.2,980.3,976.8,10.0
213.0,945.5,976.1,936.6,928.6,946.7,20.8
213.5,975.5,921.3,1017.6,1061.1,993.9,59.7
214.0,974.6,959.6,951.6,983.9,967.4,14.6
214.5,969.7,962.5,965.7,1013.4,977.8,23.9
215.0,912.6,997.3,939.7,1005.6,963.8,45.0
215.5,964.5,996.5,943.8,1042.3,986.8,42.9
216.0,954.9,1016.1,919.0,1029.5,979.9,52.0
216.5,959.7,949.9,908.9,1006.6,956.3,40.1
217.0,988.4,977.5,963.4,1001.0,982.6,16.0
217.5,964.6,972.9,932.3,952.7,955.6,17.6
218.0,994.0,969.8,928.4,1007.5,974.9,34.7
218.5,936.5,947.6,973.2,992.3,962.4,25.2
219.0,941.7,1012.2,996.3,994.7,986.2,30.7
219.5,994.4,967.7,942.4,1010.8,978.8,30.1
220.0,979.5,1005.2,963.6,981.2,982.4,17.2
220.5,1003.5,989.8,942.1,960.7,974.0,27.8
221.0,1012.9,996.5,962.9,1061.1,1008.3,40.8
221.5,954.4,1049.0,934.5,1021.1,989.8,54.1
222.0,999.8,995.5,969.1,983.6,987.0,13.8
222.5,993.4,1002.1,966.6,977.3,984.8,15.9
223.0,980.1,964.6,970.2,997.5,978.1,14.4
223.5,949.3,1021.3,984.6,1036.6,997.9,39.1
224.0,1002.6,1004.9,938.2,1027.1,993.2,38.3
224.5,1050.1,1008.6,937.5,998.7,998.7,46.5
225.0,1036.6,994.2,960.5,994.7,996.5,31.1
225.5,999.0,1014.0,944.2,1050.6,1002.0,44.2
226.0,1010.8,1024.8,944.7,1018.4,999.7,37.1
226.5,983.1,1059.5,945.2,982.4,992.6,48.0
227.0,966.2,1019.1,969.8,1019.1,993.5,29.5
227.5,941.3,1055.6,920.3,1010.2,981.8,62.4
228.0,1018.4,1022.2,959.8,1029.8,1007.6,32.2
228.5,953.7,989.6,923.5,998.8,966.4,34.6
229.0,1022.2,1036.8,942.6,1006.3,1002.0,41.5
229.5,948.6,1005.6,967.6,967.7,972.4,23.9
230.0,993.4,966.4,912.3,989.2,965.3,37.3
230.5,1036.2,1049.4,908.3,995.6,997.3,63.7
231.0,975.7,943.2,935.4,1000.3,963.6,30.0
231.5,961.1,1008.3,962.8,1014.0,986.6,28.5
232.0,999.5,1036.1,963.6,1009.8,1002.3,30.0
232.5,1019.7,1027.0,961.0,946.7,988.6,40.7
233.0,1009.5,1070.0,986.9,978.2,1011.2,41.4
233.5,1018.4,1007.8,915.2,1014.4,989.0,49.3
234.0,988.9,1016.3,996.3,1044.5,1011.5,24.9
234.5,1001.0,984.7,947.6,1011.6,986.2,28.1
235.0,977.9,1001.2,980.6,1030.6,997.6,24.4
235.5,984.6,1051.4,1022.9,1029.7,1022.1,27.8
236.0,1008.5,1025.7,1027.2,974.8,1009.0,24.3
236.5,974.0,971.6,994.6,1043.4,995.9,33.3
237.0,1025.5,1009.6,1009.1,1041.4,1021.4,15.4
237.5,1028.5,964.4,961.0,1025.5,994.8,37.2
238.0,972.0,998.7,940.3,1000.3,977.8,28.2
238.5,953.0,1001.7,982.7,973.9,977.8,20.2
239.0,960.0,1025.7,1004.8,1038.1,1007.2,34.3
239.5,1009.2,1008.6,934.0,1030.6,995.6,42.3
240.0,997.7,997.9,991.3,1076.3,1015.8,40.5
240.5,982.2,1064.9,946.0,1012.5,1001.4,50.3
241.0,993.2,1005.0,948.8,1118.8,1016.5,72.4
241.5,973.0,1053.4,984.4,1056.8,1016.9,44.4
242.0,1014.8,1027.3,945.3,1026.8,1003.6,39.3
242.5,944.5,1026.1,967.7,1081.4,1004.9,61.5
243.0,1042.9,1052.7,990.8,1016.0,1025.6,27.9
243.5,998.6,1021.3,933.1,1085.0,1009.5,62.7
244.0,1015.5,1027.7,986.4,1016.1,1011.4,17.6
244.5,1008.9,1066.3,1007.9,1008.6,1022.9,28.9
245.0,1033.8,1028.7,919.5,1018.9,1000.2,54.2
245.5,1008.7,987.2,997.9,1063.4,1014.3,33.9
246.0,1063.2,1005.1,951.9,994.6,1003.7,45.8
246.5,1056.5,1029.8,941.9,1072.4,1025.1,58.2
247.0,1009.2,1026.9,963.1,1034.1,1008.3,31.9
247.5,1026.3,1041.6,954.5,1035.2,1014.4,40.4
248.0,1032.5,1024.7,952.2,1008.3,1004.4,36.2
248.5,1059.9,1024.7,1004.3,1026.0,1028.7,23.1
249.0,1030.2,1046.9,1003.6,1089.7,1042.6,36.1
249.5,1029.1,1000.3,996.3,1066.6,1023.1,32.5
250.0,1027.3,1069.9,1074.8,1029.5,1050.4,25.5
250.5,1011.9,1029.8,988.5,1077.1,1026.8,37.5
251.0,1044.5,1068.9,1011.5,1052.7,1044.4,24.2
251.5,1062.0,1096.9,1025.7,1051.6,1059.0,29.5
252.0,971.5,1037.0,1053.1,1034.2,1023.9,35.9
252.5,1043.4,1028.7,1017.0,1022.0,1027.8,11.5
253.0,1054.6,1094.6,1015.3,999.6,1041.0,42.6
253.5,1006.3,1057.4,1030.7,1122.8,1054.3,50.2
254.0,1064.8,1045.4,1041.5,964.8,1029.1,44.0
254.5,1011.6,1092.5,1013.4,1042.3,1040.0,37.8
255.0,1060.0,1113.1,1041.5,1016.9,1057.9,40.8
255.5,1062.8,1030.2,1033.3,1035.8,1040.5,15.0
256.0,1016.4,1091.1,1007.2,1050.0,1041.2,38.0
256.5,1046.4,1086.1,1033.4,1045.2,1052.8,23.0
257.0,1026.6,1068.1,1026.4,1046.4,1041.9,19.8
257.5,999.4,1064.2,1017.5,1033.5,1028.7,27.5
258.0,1081.4,1126.1,1047.0,1085.3,1085.0,32.4
258.5,1025.8,1011.5,1055.8,1063.4,1039.1,24.6
259.0,1027.0,1064.6,1021.5,1057.0,1042.5,21.4
259.5,1061.5,1061.7,1018.3,1026.8,1042.1,22.8
260.0,1093.1,1021.5,975.4,1030.9,1030.2,48.4
260.5,1054.8,1083.8,1021.2,1019.1,1044.7,30.7
261.0,1081.1,1029.1,1020.0,985.2,1028.9,39.6
261.5,1040.0,1053.3,1015.2,987.9,1024.1,28.8
262.0,1001.1,1007.4,1051.1,1063.8,1030.8,31.2
262.5,1078.9,1114.1,979.4,1014.1,1046.6,61.0
263.0,1051.6,1032.6,971.1,1077.4,1033.2,45.3
263.5,972.4,1027.5,967.9,1015.5,995.8,30.1
264.0,1061.5,1076.8,1007.5,1066.2,1053.0,31.0
264.5,1044.6,1067.5,1040.3,1091.0,1060.9,23.4
265.0,1038.4,1024.6,998.0,1053.5,1028.6,23.6
265.5,1016.2,1073.5,1020.9,1046.7,1039.3,26.4
266.0,1030.8,1092.2,1028.5,1000.7,1038.1,38.6
266.5,1041.6,1071.9,1079.1,1060.2,1063.2,16.4
267.0,1164.4,1035.2,1059.4,1021.9,1070.2,64.7
267.5,1067.4,1057.3,1033.4,1057.2,1053.8,14.4
268.0,1036.6,1036.6,1028.8,1056.5,1039.6,11.9
268.5,1094.7,1068.2,1000.5,1027.1,1047.6,42.0
269.0,992.5,1054.6,1052.7,1014.5,1028.6,30.3
269.5,975.1,1053.9,1006.6,1051.4,1021.8,37.9
270.0,1056.4,1060.1,1003.8,1057.6,1044.5,27.2
270.5,1038.8,1044.9,1003.9,1037.4,1031.3,18.5
271.0,1054.1,1065.5,1079.9,970.8,1042.6,49.0
271.5,1048.2,1082.6,1069.9,1029.6,1057.6,23.4
272.0,1083.2,1037.8,1001.3,1049.3,1042.9,33.8
272.5,1010.6,1053.8,1054.9,1036.1,1038.9,20.7
273.0,998.8,1087.7,1070.5,1052.9,1052.5,38.5
273.5,1068.9,1090.5,1045.1,1005.5,1052.5,36.4
274.0,1046.3,1050.1,1007.0,1065.9,1042.3,25.0
274.5,1061.8,1072.9,1076.6,1015.7,1056.8,28.1
275.0,1097.8,1095.3,1096.6,1016.1,1076.4,40.2
275.5,1035.7,1028.2,1067.4,1042.0,1043.3,17.0
276.0,1032.8,1048.4,1043.4,1077.8,1050.6,19.3
276.5,1041.4,1104.5,1023.4,1014.6,1046.0,40.6
277.0,1034.5,1041.2,1023.3,1046.7,1036.4,10.1
277.5,1063.4,1080.4,1051.6,988.2,1045.9,40.2
278.0,1086.2,1056.8,1091.4,953.0,1046.9,64.4
278.5,1075.1,1055.1,1108.0,1020.9,1064.8,36.5
279.0,1068.1,1103.3,1047.0,1020.2,1059.6,35.1
279.5,1076.4,1066.4,1036.2,1017.8,1049.2,27.0
280.0,1066.4,1089.7,1039.3,1033.7,1057.3,25.9
280.5,1079.8,1055.5,1003.1,988.0,1031.6,43.2
281.0,1087.1,998.8,1050.1,1023.3,1039.8,37.8
281.5,1017.9,1105.8,1080.2,1008.8,1053.2,47.3
282.0,1130.4,1083.4,1026.8,1027.9,1067.1,49.8
282.5,1040.1,1100.9,1076.2,981.7,1049.7,51.8
283.0,1071.0,1116.6,1008.4,1019.2,1053.8,50.0
283.5,1122.3,1108.7,1002.3,1021.1,1063.6,60.7
284.0,1042.1,1029.8,1040.1,1032.9,1036.2,5.8
284.5,1065.8,1087.4,1041.5,1020.6,1053.8,29.0
285.0,1142.5,1083.1,1028.2,1028.0,1070.4,54.6
285.5,1127.4,1127.3,1011.1,950.6,1054.1,88.1
286.0,1095.9,1087.6,1049.1,1012.5,1061.3,38.4
286.5,1203.5,1057.9,1032.8,1045.9,1085.0,79.7
287.0,1087.9,1070.0,1029.1,1060.1,1061.8,24.7
287.5,1154.2,1111.1,1024.4,1083.5,1093.3,54.4
288.0,1117.0,1113.4,1057.0,969.4,1064.2,68.9
288.5,1127.6,1123.9,1024.5,989.4,1066.3,70.1
289.0,1106.8,1108.4,1042.1,1071.4,1082.2,31.7
289.5,1035.4,1158.4,1032.7,1049.4,1069.0,60.1
290.0,1112.2,1120.0,1109.4,1026.4,1092.0,44.0
290.5,1028.7,1163.7,1072.1,1083.5,1087.0,56.3
291.0,1110.9,1083.9,1082.1,1072.0,1087.2,16.6
291.5,1049.0,1074.8,1045.7,1042.4,1053.0,14.8
292.0,1075.4,1106.1,1150.9,1031.8,1091.0,50.2
292.5,1072.9,1110.5,1031.3,1089.7,1076.1,33.6
293.0,1128.1,1051.3,1065.9,1059.3,1076.2,35.2
293.5,1057.4,1053.5,1096.2,1100.3,1076.8,24.8
294.0,1078.6,1058.8,1110.2,1013.8,1065.4,40.3
294.5,1085.4,1131.8,1008.8,1051.7,1069.4,52.1
295.0,1138.3,1078.7,1038.3,1079.2,1083.6,41.2
295.5,1120.9,1089.7,1012.5,1063.8,1071.7,45.9
296.0,1086.7,1063.5,1051.9,1084.1,1071.6,16.7
296.5,1123.5,1019.7,1092.1,1045.6,1070.2,46.4
297.0,1093.4,1087.3,1007.9,1103.7,1073.1,44.0
297.5,1112.1,1071.2,1082.4,1075.7,1085.4,18.4
298.0,1084.0,1094.3,1030.3,1032.5,1060.3,33.6
298.5,1151.1,1037.1,1072.4,1007.1,1066.9,62.2
299.0,1146.2,1092.9,1077.8,1046.5,1090.9,41.7
299.5,1034.2,1002.1,1116.4,995.3,1037.0,55.6
300.0,1113.8,1146.2,1073.0,1077.8,1102.7,34.3
300.5,1137.3,1138.1,1055.5,1033.0,1091.0,54.7
301.0,1097.9,1079.6,1066.6,1014.0,1064.5,36.0
301.5,1214.9,1124.0,1129.7,1098.3,1141.7,50.7
302.0,1096.0,1052.6,1142.7,1067.4,1089.7,39.7
302.5,1075.5,1128.8,1091.3,1068.6,1091.0,26.9
303.0,1062.5,1148.0,1164.4,1030.4,1101.3,65.1
303.5,1137.1,1062.1,1131.9,1084.5,1103.9,36.6
304.0,1101.3,1124.8,1077.7,1124.7,1107.1,22.5
304.5,1104.8,1127.7,1025.2,1052.9,1077.7,46.9
305.0,1120.1,1166.5,1039.7,1001.4,1081.9,75.0
305.5,1123.3,1103.2,1084.8,1085.5,1099.2,18.2
306.0,1177.3,1165.5,1072.6,1159.6,1143.8,48.0
306.5,1129.3,1082.0,1008.9,1140.1,1090.1,59.7
307.0,1105.4,1102.7,1103.8,1098.5,1102.6,3.0
307.5,1079.8,1159.2,1060.8,1089.8,1097.4,42.9
308.0,1129.6,1118.7,1104.0,1068.8,1105.3,26.5
308.5,1082.6,1101.2,1110.2,1048.8,1085.7,27.2
309.0,1178.1,1144.0,1084.6,1066.4,1118.3,51.9
309.5,1139.3,1125.0,1150.8,1111.8,1131.7,17.0
310.0,1141.8,1108.4,1132.2,1089.8,1118.0,23.5
310.5,1124.2,1066.3,1105.8,1050.8,1086.8,34.0
311.0,1156.4,1100.0,1012.6,1193.5,1115.7,78.7
311.5,1146.2,1110.5,1148.2,1021.9,1106.7,59.1
312.0,1171.2,1137.1,1090.5,1088.9,1121.9,39.7
312.5,1172.4,1150.0,1056.2,1035.2,1103.5,67.8
313.0,1081.2,1106.3,1103.0,1052.9,1085.8,24.6
313.5,1206.0,1114.1,1195.8,1033.9,1137.5,80.4
314.0,1164.7,1192.2,1090.0,1069.7,1129.1,58.6
314.5,1233.5,1129.2,1084.9,1063.4,1127.7,75.6
315.0,1152.4,1087.0,1205.6,1027.8,1118.2,77.3
315.5,1080.1,1111.0,1161.0,1052.5,1101.2,46.5
316.0,1159.5,1066.8,1152.8,1005.2,1096.1,73.8
316.5,1119.2,1099.6,1112.8,1043.0,1093.6,34.8
317.0,1150.4,1087.9,1078.0,1020.7,1084.3,53.1
317.5,1142.5,1088.8,1077.5,1036.0,1086.2,43.9
318.0,1161.8,1141.1,1092.1,1017.0,1103.0,64.4
318.5,1171.4,1247.3,1122.7,1006.6,1137.0,100.9
319.0,1195.2,1229.5,1122.5,1035.2,1145.6,86.1
319.5,1171.7,1093.9,1119.8,990.3,1093.9,76.3
320.0,1082.5,1086.3,1154.4,953.2,1069.1,84.0
320.5,1132.3,1174.2,1090.8,985.8,1095.8,80.8
321.0,1157.7,1082.8,1166.6,975.3,1095.6,88.6
321.5,1143.8,1104.1,1156.4,944.4,1087.2,97.8
322.0,1121.9,1093.1,1112.1,977.7,1076.2,66.7
322.5,1126.9,1031.4,1058.0,939.4,1038.9,77.6
323.0,1185.1,1031.6,1141.0,937.4,1073.8,111.5
323.5,1107.7,1059.4,1150.4,903.1,1055.2,108.0
324.0,1119.6,1069.2,1083.6,976.8,1062.3,60.8
324.5,1089.5,1042.0,1068.4,897.7,1024.4,86.7
325.0,1115.9,1044.9,1096.5,930.2,1046.9,83.4
325.5,1140.4,1049.6,1034.8,882.6,1026.8,106.9
326.0,1194.7,979.9,1038.7,885.2,1024.7,129.8
326.5,1147.1,979.9,1024.8,831.2,995.7,130.5
327.0,1209.6,1013.3,1002.4,840.9,1016.6,150.9
327.5,1134.4,965.3,1023.3,819.2,985.5,131.2
328.0,1151.5,942.7,1073.2,826.3,998.4,143.5
328.5,1181.0,989.8,1009.5,794.5,993.7,158.1
329.0,1155.0,975.0,999.5,808.8,984.6,141.7
329.5,1134.5,897.5,1010.4,752.6,948.7,162.7
330.0,1152.3,908.3,1002.2,717.9,945.2,181.8
330.5,1086.3,852.5,962.8,721.1,905.7,155.8
331.0,1149.0,876.0,997.8,674.8,924.4,200.4
331.5,1098.0,887.5,1008.1,655.0,912.2,191.9
332.0,1055.2,853.1,967.3,620.0,873.9,188.4
332.5,1068.9,840.2,973.8,586.9,867.5,209.2
333.0,1063.2,780.9,921.3,556.4,830.5,216.0
333.5,1090.4,776.4,920.6,522.3,827.4,240.5
334.0,1080.2,776.9,903.2,482.6,810.7,251.7
334.5,1050.0,741.6,910.9,456.1,789.7,255.6
335.0,1039.9,713.9,843.0,409.8,751.6,264.4
335.5,1037.7,712.4,841.7,374.0,741.4,279.1
336.0,956.5,697.8,799.8,336.9,697.8,263.1
336.5,979.1,662.5,773.3,300.7,678.9,284.2
337.0,963.1,648.5,754.5,292.1,664.5,280.6
337.5,957.4,633.5,721.4,262.5,643.7,288.6
338.0,962.1,612.2,670.8,232.4,619.4,299.9
338.5,917.5,600.0,640.9,203.9,590.6,293.8
339.0,896.8,574.9,615.0,184.0,567.7,293.2
339.5,871.8,567.1,565.6,,668.2,176.4
340.0,875.1,539.3,527.7,,647.4,197.3
340.5,841.8,501.8,498.2,,613.9,197.4
341.0,820.3,480.0,472.8,,591.0,198.6
341.5,801.0,435.3,449.3,,561.9,207.2
342.0,774.8,404.3,429.3,,536.1,207.0
342.5,740.2,371.4,398.5,,503.4,205.5
343.0,734.7,337.6,372.6,,481.6,219.8
343.5,687.8,303.7,336.7,,442.7,212.9
344.0,662.5,272.9,319.7,,418.4,212.7
344.5,658.7,251.4,292.7,,400.9,224.2
345.0,622.3,220.0,272.1,,371.5,218.8
345.5,600.3,201.0,242.3,,347.9,219.6
346.0,581.6,180.9,225.6,,329.4,219.5
346.5,574.5,160.2,204.1,,312.9,227.6
347.0,545.3,141.9,187.7,,291.6,220.9
347.5,514.0,,174.5,,344.3,240.1
348.0,493.5,,162.1,,327.8,234.3
348.5,466.4,,144.1,,305.2,227.9
349.0,448.7,,132.0,,290.3,223.9
349.5,421.1,,119.2,,270.2,213.5
350.0,386.1,,107.6,,246.9,196.9
350.5,354.7,,98.1,,226.4,181.4
351.0,328.2,,88.4,,208.3,169.6
351.5,302.6,,78.9,,190.8,158.2
352.0,281.6,,72.1,,176.8,148.1
352.5,258.8,,64.4,,161.6,137.5
353.0,239.6,,56.9,,148.3,129.2
353.5,219.8,,51.9,,135.9,118.7
354.0,201.7,,46.9,,124.3,109.5
354.5,181.5,,43.2,,112.3,97.9
355.0,166.3,,40.0,,103.2,89.3
355.5,149.6,,36.9,,93.3,79.7
356.0,133.0,,,,133.0,
356.5,119.6,,,,119.6,
357.0,106.4,,,,106.4,
357.5,96.0,,,,96.0,
358.0,85.0,,,,85.0,
358.5,75.7,,,,75.7,
359.0,67.3,,,,67.3,
359.5,60.2,,,,60.2,
360.0,54.5,,,,54.5,
360.5,49.0,,,,49.0,
361.0,43.1,,,,43.1,
361.5,38.7,,,,38.7,
362.0,34.8,,,,34.8,