File: 01_Data/Black_PMMA/Cone/Black_PMMA_Cone_HF25Scan_230606_R6.csv
Names,Time,Stack TC,Smoke TC,Exh Press,Smoke Comp,Smoke Meas,CO Meter,CO2 Meter,O2 Meter,Sample Mass,Ext Coeff,Start Test,Flame Verif
Chan Gain,,500,500,1,1,1,1,1,1,1,1,1.0,1.0
Offset,,0,0,0.137885,0,0,0,0,0,0,0,0.0,0.0
Gain,,1,1,25.011,13.2744,13.9915,1,1,1,1.00088,1.0504,1.0,1.0
Units,sec,C,C,Pa,%,%,%,%,%,g,/m,,
Baseline,,27.8309,28.2336,150.12,101.204,101.578,0.000855379,0.0481726,20.9428,-445.145,-0.03398,,
7,1.5,26.56,27.5994,152.496,100.298,100.685,0.000693511,0.0509304,20.9364,160.391,-0.0354713,0.0,0.0
14,3.25,27.103,27.1151,152.651,100.274,100.665,0.000597098,0.0501695,20.9364,160.481,-0.0357922,0.0,0.0
21,5,27.3227,27.7525,153.085,100.244,100.683,0.000565808,0.0495551,20.9365,160.461,-0.0402663,0.0,0.0
28,6.75,27.508,27.4609,149.478,100.201,100.566,0.000690742,0.0492731,20.9371,160.411,-0.0335375,0.0,0.0
35,8.5,27.2168,27.5388,150.686,100.15,100.546,0.000817119,0.0490721,20.9382,160.441,-0.0363927,0.0,0.0
42,10.25,27.7293,27.702,152.239,100.139,100.508,0.000920939,0.0489525,20.9387,160.481,-0.033839,0.0,0.0
49,12,27.1618,27.6131,158.066,100.1,100.47,0.000974523,0.0488842,20.939,160.421,-0.0340121,0.0,0.0
56,13.75,27.455,27.3745,152.891,100.055,100.469,0.000974283,0.0490735,20.9391,160.441,-0.0380348,0.0,0.0
63,15.5,27.2318,27.5585,148.421,100.003,100.389,0.000899564,0.0491617,20.9392,160.491,-0.0354857,0.0,0.0
70,17.25,27.5204,27.7468,147.079,99.9835,100.332,0.000686151,0.049389,20.9382,160.471,-0.0320224,0.0,0.0
77,19,27.8379,27.5067,147.187,99.9515,100.344,0.000497121,0.0493385,20.9376,160.481,-0.0361093,0.0,0.0
84,20.75,27.3335,27.5052,147.38,99.9094,100.384,0.00039303,0.0491514,20.9372,160.441,-0.0436786,0.0,0.0
91,22.5,27.277,27.7845,147.169,99.8802,100.253,0.000402076,0.0490176,20.9364,160.401,-0.0343291,0.0,0.0
98,24.25,27.1056,27.5873,151.505,99.8328,100.228,0.000472221,0.0489026,20.9366,160.431,-0.0363866,0.0,0.0
105,26,27.2763,27.6987,150.984,99.8235,100.185,0.000606118,0.0487529,20.9368,160.431,-0.0333204,0.0,0.0
112,27.75,27.619,27.777,149.815,99.7891,100.136,0.000725025,0.0487474,20.9368,160.441,-0.0319436,0.0,0.0
119,29.5,27.2029,27.9367,151.135,99.7648,100.152,0.000783181,0.0487194,20.9387,160.401,-0.0356803,0.0,0.0
126,31.25,27.3316,27.7403,150.482,99.7295,100.176,0.000725184,0.0486264,20.9398,160.471,-0.0411754,0.0,0.0
133,33,27.1626,27.3617,150.219,99.7275,100.136,0.000659605,0.0487298,20.9404,160.381,-0.0376703,0.0,0.0
140,34.75,27.1124,27.7186,148.588,99.704,100.085,0.000670466,0.0489934,20.9406,160.401,-0.0351643,0.0,0.0
147,36.5,27.2723,27.7129,149.261,99.6845,100.128,0.00074814,0.0492397,20.9407,160.471,-0.0408913,0.0,0.0
154,38.25,27.2044,27.5629,146.378,99.6635,100.06,0.000811432,0.0493674,20.9398,160.411,-0.0366286,0.0,0.0
161,40,27.442,27.9341,149.245,99.6529,100.036,0.000821741,0.0493937,20.9391,160.401,-0.0353616,0.0,0.0
168,41.75,27.2864,27.8423,150.241,99.6566,100.011,0.00081962,0.0492781,20.9399,160.311,-0.0327427,0.0,0.0
175,43.5,27.0893,27.5694,150.938,99.6534,100.048,0.000745878,0.0491189,20.9404,160.401,-0.0363849,0.0,0.0
182,45.25,27.5962,27.6722,151.441,99.6412,100.01,0.00062315,0.0490853,20.9406,160.401,-0.0340474,0.0,0.0
189,47,27.5698,27.8826,150.995,99.6201,100.011,0.000598491,0.0492853,20.9408,160.411,-0.0360354,0.0,0.0
196,48.75,27.4818,27.7476,150.037,99.627,100.044,0.000773962,0.049521,20.9408,160.281,-0.0384666,0.0,0.0
203,50.5,27.6088,27.8245,148.757,99.6197,100.091,0.0010357,0.0496719,20.9408,160.421,-0.0434656,0.0,0.0
210,52.25,27.9267,28.0133,150.853,99.6112,100.044,0.0011343,0.0496511,20.9413,160.441,-0.0399276,0.0,0.0
217,54,27.2715,28.104,149.564,99.5975,100.107,0.00107374,0.0493642,20.9418,160.401,-0.0469807,0.0,0.0
224,55.75,27.6959,27.7977,149.252,99.6007,100.013,0.00101923,0.0491684,20.942,160.421,-0.0381087,0.0,0.0
231,57.5,27.8357,28.1972,150.391,99.6003,100.098,0.00103133,0.0489461,20.9421,160.411,-0.0459717,0.0,0.0
238,59.25,27.6804,27.8293,149.394,99.6161,100.023,0.00102689,0.0487181,20.9421,160.401,-0.0375898,0.0,0.0
245,61,27.8382,27.8837,148.49,99.5983,99.9302,0.000993087,0.0485791,20.9422,160.391,-0.0306601,0.0,0.0
252,62.75,27.8415,27.8643,150.237,99.5922,99.9593,0.000962069,0.0485159,20.9422,160.381,-0.0338991,0.0,0.0
259,64.5,27.5351,28.2064,151.081,99.6128,99.9755,0.000988914,0.0484351,20.9422,160.371,-0.0334835,0.0,0.0
266,66.25,27.6601,28.2265,150.86,99.6108,99.9866,0.00106771,0.0483276,20.9433,160.371,-0.0346946,0.0,0.0
273,68,27.5732,28.1535,149.925,99.6092,100.015,0.0010654,0.0482312,20.9437,160.351,-0.0374795,0.0,0.0
280,69.75,28.0033,27.6722,145.746,99.6043,100.033,0.000901822,0.0481171,20.9437,160.321,-0.0395813,0.0,0.0
287,71.5,27.7378,27.756,147.954,99.6092,99.9716,0.000772242,0.0480554,20.9437,160.341,-0.0334664,0.0,0.0
294,73.25,27.7375,27.9487,149.387,99.612,100.007,0.000809852,0.0482511,20.9437,160.321,-0.0364698,0.0,0.0
301,75,27.463,27.7653,149.813,99.6128,99.9968,0.000870497,0.0489225,20.9431,160.341,-0.035451,0.0,0.0
308,76.75,27.2695,28.0229,153.282,99.6047,99.9405,0.000916099,0.0496048,20.9424,160.321,-0.0310051,0.0,0.0
315,78.5,27.4638,28.2322,146.241,99.6043,99.9221,0.000895652,0.0500956,20.9422,160.311,-0.0293499,0.0,0.0
322,80.25,27.8715,27.8412,150.514,99.6072,99.9785,0.000824186,0.0501808,20.9424,160.351,-0.0342833,0.0,0.0
329,82,27.8042,28.2477,149.788,99.6031,100.003,0.000808238,0.0500934,20.9426,160.321,-0.036901,0.0,0.0
336,83.75,27.9266,28.5887,148.497,99.6056,100.079,0.00081984,0.0502354,20.9427,160.331,-0.0436759,0.0,0.0
343,85.5,27.7923,28.5759,154.1,99.5958,99.9076,0.000863251,0.05082,20.9427,160.331,-0.0287978,0.0,0.0
350,87.25,28.0646,28.2772,150.526,99.6027,99.9815,0.000840259,0.0517888,20.9427,160.331,-0.0349713,0.0,0.0
357,89,27.9895,28.1763,146.702,99.5938,99.9802,0.00071569,0.0526134,20.9427,160.311,-0.0356775,0.0,0.0
364,90.75,27.9479,27.7459,147.285,99.5922,100.006,0.000600586,0.0539334,20.9418,160.301,-0.0382273,0.0,0.0
371,92.5,27.6668,28.0876,149.34,99.5723,99.9225,0.000513319,0.055469,20.9406,160.271,-0.0323503,0.0,0.0
378,94.25,27.419,28.0327,146.537,99.5816,99.9422,0.00042944,0.0564393,20.9388,160.271,-0.0332994,0.0,0.0
385,96,27.8737,28.1729,149.463,99.5638,99.9648,0.000361045,0.0564132,20.9359,160.241,-0.0370345,0.0,0.0
392,97.75,27.7257,28.192,147.876,99.5561,99.9251,0.000357395,0.055301,20.934,160.221,-0.0340865,0.0,0.0
399,99.5,27.841,28.1994,150.668,99.5424,99.9093,0.000414094,0.0538579,20.9336,160.201,-0.0339041,0.0,0.0
406,101.25,28.0867,28.3327,152.05,99.5468,99.9149,0.00049876,0.052431,20.9343,160.221,-0.0340033,0.0,0.0
413,103,27.8728,28.2358,149.203,99.5521,99.943,0.000581157,0.0513557,20.9353,160.161,-0.0361148,0.0,0.0
420,104.75,27.8944,28.4169,144.81,99.5703,100.119,0.000592549,0.0506291,20.9367,160.131,-0.0506319,0.0,1.0
427,106.5,27.9921,28.1682,137.024,99.5403,99.1138,0.000590365,0.0502815,20.9376,160.031,0.039564,0.0,1.0
434,108.25,29.1761,28.6677,138.244,99.5249,98.2812,0.000693448,0.0505197,20.9381,159.961,0.115871,0.0,1.0
441,110,28.8662,27.3558,132.83,99.5197,97.5771,0.000837189,0.0514554,20.9383,159.811,0.181631,0.0,1.0
448,111.75,30.8612,28.718,130.002,99.5245,98.1245,0.000889545,0.0593418,20.9373,159.571,0.130535,0.0,1.0
455,113.5,33.0111,29.7306,126.08,99.5257,97.9768,0.000933116,0.0949712,20.9367,159.35,0.144532,0.0,1.0
462,115.25,35.8086,31.4652,120.254,99.5104,97.8926,0.00115961,0.15274,20.9288,159.13,0.151021,0.0,0.0
469,117,37.8075,33.0207,121.625,99.5099,97.3363,0.00157587,0.237615,20.8883,158.86,0.2035,0.0,0.0
476,118.75,40.6058,34.9772,120.857,99.5217,97.309,0.00208242,0.323684,20.8209,158.61,0.207175,0.0,0.0
483,120.5,42.9599,36.5359,125.128,99.5164,96.9926,0.00270215,0.402845,20.7462,158.36,0.236695,0.0,0.0
490,122.25,44.8165,38.308,117.272,99.5071,96.3905,0.00334063,0.491102,20.6533,158.119,0.293204,0.0,0.0
497,124,47.5796,40.288,126.317,99.5039,96.6339,0.00392931,0.562706,20.5167,157.869,0.269668,0.0,0.0
504,125.75,48.7439,42.2152,123.509,99.5035,96.5113,0.00437645,0.621005,20.3935,157.589,0.281323,0.0,0.0
511,127.5,51.2979,44.0221,118.778,99.5201,96.1975,0.00475744,0.662384,20.2951,157.339,0.312872,0.0,0.0
518,129.25,53.1255,45.4587,126.069,99.5043,96.0707,0.00494627,0.69435,20.2183,157.088,0.323564,0.0,0.0
525,131,54.5998,47.3756,123.211,99.5047,96.6941,0.00499501,0.719942,20.157,156.798,0.264005,0.0,0.0
532,132.75,56.5218,48.7238,123.573,99.4998,96.5152,0.00504414,0.735742,20.1117,156.558,0.280619,0.0,0.0
539,134.5,57.3304,50.4221,116.257,99.5108,96.2065,0.00515125,0.745946,20.0713,156.288,0.31115,0.0,0.0
546,136.25,59.0674,52.4408,119.732,99.5152,95.993,0.00530574,0.752685,20.045,156.048,0.332032,0.0,0.0
553,138,60.7493,53.5419,118.694,99.5091,95.291,0.00545238,0.753984,20.026,155.747,0.399097,0.0,0.0
560,139.75,62.0707,55.0743,118.169,99.5014,95.408,0.00555746,0.752268,20.0156,155.527,0.387079,0.0,0.0
567,141.5,62.8802,55.6871,119.792,99.5172,95.4836,0.00565376,0.750312,20.0113,155.257,0.381246,0.0,0.0
574,143.25,64.098,57.783,121.735,99.5168,95.3179,0.00575106,0.749984,20.0115,155.037,0.397209,0.0,0.0
581,145,65.289,58.4833,117.075,99.5172,95.5664,0.00583277,0.75136,20.0127,154.756,0.373256,0.0,0.0
588,146.75,66.633,59.9297,118.877,99.5156,95.6202,0.00581691,0.757263,20.0133,154.506,0.36792,0.0,0.0
595,148.5,67.239,61.0837,118.395,99.5306,95.7317,0.00573651,0.766305,20.012,154.216,0.358574,0.0,0.0
602,150.25,68.6278,62.5689,116.108,99.5343,95.4669,0.00572854,0.774813,20.0037,153.976,0.384428,0.0,0.0
609,152,69.7488,63.589,120.709,99.5403,95.3854,0.00582194,0.780517,19.9911,153.715,0.392865,0.0,0.0
616,153.75,70.4371,64.443,114.941,99.5492,96.066,0.00590282,0.782336,19.981,153.435,0.328177,0.0,0.0
623,155.5,71.2154,65.6803,125.96,99.5541,95.9759,0.00592712,0.782692,19.9729,153.195,0.337272,0.0,0.0
630,157.25,71.9919,66.3569,116.796,99.5808,94.8359,0.00598187,0.780858,19.9686,152.945,0.449852,0.0,0.0
637,159,73.2548,67.9706,124.446,99.5796,94.9106,0.00608675,0.781121,19.9676,152.685,0.442482,0.0,0.0
644,160.75,73.5141,68.185,119.991,99.6039,94.101,0.0061915,0.781168,19.9671,152.404,0.523662,0.0,0.0
651,162.5,74.393,69.5826,118.24,99.6068,95.0878,0.00625729,0.779565,19.9673,152.104,0.427807,0.0,0.0
658,164.25,75.3042,70.7269,121.158,99.6218,95.1275,0.00626659,0.781699,19.9679,151.854,0.425345,0.0,0.0
665,166,76.1396,71.4106,125.364,99.6606,95.803,0.00630645,0.785974,19.9672,151.624,0.363744,0.0,0.0
672,167.75,76.8337,72.4502,113.693,99.6627,95.2885,0.00636922,0.790039,19.966,151.333,0.413551,0.0,0.0
679,169.5,77.6878,73.0131,120.599,99.6837,94.6843,0.0064636,0.795358,19.9629,151.083,0.474107,0.0,0.0
686,171.25,77.8631,74.2292,126.881,99.6967,93.9618,0.00653201,0.799064,19.9568,150.793,0.545879,0.0,0.0
693,173,78.7713,75.1672,127.674,99.7218,95.1868,0.00652769,0.80076,19.9486,150.543,0.428849,0.0,0.0
700,174.75,79.4849,76.0791,116.057,99.7429,95.2291,0.00648491,0.799482,19.9424,150.242,0.426703,0.0,0.0
707,176.5,79.689,76.5255,115.841,99.766,94.6809,0.00643199,0.80103,19.9392,149.972,0.482038,0.0,0.0
714,178.25,80.1874,77.7295,115.704,99.7972,94.215,0.00639263,0.804118,19.9377,149.682,0.530364,0.0,0.0
721,180,81.0786,78.0562,118.556,99.849,95.3542,0.00638249,0.810137,19.9361,149.452,0.424406,0.0,0.0
728,181.75,81.358,78.802,120.069,99.864,95.7893,0.00641035,0.811985,19.9318,149.191,0.383841,0.0,0.0
735,183.5,82.0884,79.789,121.495,99.8871,95.3218,0.00643704,0.811745,19.927,148.931,0.431057,0.0,0.0
742,185.25,82.005,80.4199,119.445,99.9146,95.3542,0.00648405,0.812291,19.9239,148.621,0.43046,0.0,0.0
749,187,82.9404,81.084,113.638,99.928,95.0032,0.00655261,0.812575,19.9222,148.381,0.465671,0.0,0.0
756,188.75,83.0031,81.9327,120.082,99.9754,94.8973,0.00658403,0.814155,19.9214,148.071,0.480317,0.0,0.0
763,190.5,84.102,82.247,126.116,100.004,94.9951,0.0065718,0.814147,19.9211,147.8,0.47344,0.0,0.0
770,192.25,84.0956,82.8374,125.417,100.038,94.1224,0.00658871,0.814671,19.9203,147.56,0.56162,0.0,0.0
777,194,84.4824,83.6597,114.022,100.062,95.5502,0.00662241,0.818458,19.9181,147.28,0.425092,0.0,0.0
784,195.75,84.9476,84.4197,116.049,100.112,95.8687,0.00660168,0.827026,19.9157,147.01,0.399089,0.0,0.0
791,197.5,85.6245,84.8428,117.263,100.155,95.2799,0.0065286,0.829919,19.911,146.729,0.459807,0.0,0.0
798,199.25,86.2178,85.5153,113.41,100.196,94.2714,0.00653376,0.829561,19.9031,146.429,0.561621,0.0,0.0
805,201,85.6633,86.4216,114.764,100.239,94.7906,0.00664928,0.83532,19.8973,146.169,0.514923,0.0,0.0
812,202.75,86.8204,86.4508,114.409,100.289,94.7317,0.00680064,0.838692,19.892,145.849,0.52527,0.0,0.0
819,204.5,86.8481,87.3439,117.806,100.338,95.2129,0.00688501,0.842828,19.8866,145.588,0.483048,0.0,0.0
826,206.25,87.7805,88.3364,118.443,100.377,94.7791,0.00689522,0.845842,19.8815,145.318,0.528733,0.0,0.0
833,208,87.8241,88.9332,119.892,100.422,94.8128,0.00693069,0.848953,19.8752,145.028,0.529581,0.0,0.0
840,209.75,88.0298,89.3693,117.661,100.455,95.911,0.00700366,0.848859,19.8706,144.748,0.426517,0.0,0.0
847,211.5,88.6706,89.9647,117.921,100.513,96.3282,0.00704582,0.851925,19.8678,144.457,0.391876,0.0,0.0
854,213.25,89.2699,90.0624,118.783,100.544,95.6634,0.00703153,0.856096,19.8654,144.177,0.458472,0.0,0.0
861,215,90.083,90.6789,116.222,100.573,96.8222,0.00700708,0.859045,19.8638,143.927,0.350199,0.0,0.0
868,216.75,89.6745,91.5267,118.079,100.598,95.6066,0.0070237,0.861602,19.8588,143.627,0.46888,0.0,0.0
875,218.5,90.4599,91.7001,112.283,100.632,95.4883,0.00705493,0.86363,19.8546,143.346,0.48344,0.0,0.0
882,220.25,90.9133,92.6456,114.021,100.659,94.75,0.0070386,0.864503,19.8506,143.026,0.557438,0.0,0.0
889,222,91.6302,93.5698,123.89,100.682,95.5489,0.00702034,0.864727,19.8478,142.766,0.482189,0.0,0.0
896,223.75,91.3563,93.4896,118.752,100.695,94.788,0.00704048,0.863791,19.8465,142.466,0.557007,0.0,0.0
903,225.5,91.8296,93.7561,115.205,100.706,95.4277,0.00709184,0.863915,19.846,142.165,0.49604,0.0,0.0
910,227.25,92.3549,94.3331,111.717,100.721,95.4985,0.0071172,0.868181,19.8462,141.845,0.490607,0.0,0.0
917,229,92.938,95.1589,115.271,100.727,95.867,0.00703464,0.873757,19.8448,141.565,0.455677,0.0,0.0
924,230.75,93.6006,95.6308,120.338,100.76,95.8645,0.00692071,0.884143,19.8417,141.295,0.458925,0.0,0.0
931,232.5,93.7643,96.0857,118.04,100.739,95.3072,0.00686566,0.893766,19.8356,140.964,0.510749,0.0,0.0
938,234.25,94.2549,96.7149,121.638,100.74,95.414,0.0068965,0.899256,19.824,140.704,0.50051,0.0,0.0
945,236,94.1295,96.826,109.418,100.724,96.1595,0.00697996,0.906304,19.8116,140.404,0.427313,0.0,0.0
952,237.75,94.9088,97.6237,123.687,100.72,95.7103,0.00713799,0.909103,19.8029,140.133,0.470122,0.0,0.0
959,239.5,95.6024,98.1573,114.296,100.702,94.645,0.00728253,0.909079,19.7936,139.793,0.571589,0.0,0.0
966,241.25,95.3533,98.426,113.524,100.679,94.981,0.00737652,0.908759,19.7887,139.483,0.536857,0.0,0.0
973,243,96.505,98.8902,111.223,100.668,94.7914,0.00746549,0.91083,19.7858,139.203,0.554191,0.0,0.0
980,244.75,96.8215,99.6909,111.169,100.642,95.6668,0.00755819,0.917919,19.7844,138.852,0.46716,0.0,0.0
987,246.5,97.4074,100.217,114.746,100.599,95.1967,0.00760194,0.9224,19.7815,138.592,0.508581,0.0,0.0
994,248.25,97.8619,100.397,107.814,100.567,94.4247,0.00757952,0.931781,19.7733,138.282,0.580675,0.0,0.0
1001,250,98.8526,101.767,118.008,100.54,96.0442,0.00759716,0.938232,19.7645,137.962,0.421489,0.0,0.0
1008,251.75,99.0462,101.526,108.626,100.497,94.7803,0.0076967,0.946992,19.7544,137.651,0.53961,0.0,0.0
1015,253.5,99.0564,102.404,111.562,100.429,95.645,0.00775191,0.953822,19.7466,137.351,0.449692,0.0,0.0
1022,255.25,100.201,103.207,120.674,100.368,94.5818,0.00772085,0.95717,19.7323,137.041,0.547076,0.0,0.0
1029,257,99.8018,103.41,110.192,100.314,94.595,0.00770019,0.955154,19.7243,136.721,0.540838,0.0,0.0
1036,258.75,100.542,103.541,113.647,100.258,95.3969,0.00768548,0.954577,19.7205,136.4,0.457924,0.0,0.0
1043,260.5,100.605,104.058,108.588,100.195,95.4511,0.00765716,0.961226,19.7197,136.11,0.446878,0.0,0.0
1050,262.25,100.999,104.311,112.058,100.129,94.0421,0.00765306,0.965631,19.7183,135.8,0.577873,0.0,0.0
1057,264,101.451,105.449,117.278,100.067,94.1087,0.00770184,0.967196,19.7121,135.469,0.565607,0.0,0.0
1064,265.75,102.134,105.438,109.964,100.02,93.7505,0.00775992,0.971315,19.708,135.179,0.596421,0.0,0.0
1071,267.5,102.654,106.522,117.177,99.9669,94.0515,0.00779015,0.97537,19.7051,134.869,0.56203,0.0,0.0
1078,269.25,103.082,106.562,115.523,99.9454,93.1685,0.00779881,0.977608,19.698,134.559,0.646966,0.0,0.0
1085,271,103.382,107.366,117.934,100.008,94.3491,0.00781112,0.982929,19.6927,134.218,0.536726,0.0,0.0
1092,272.75,103.76,107.531,117.975,100.127,94.1676,0.00787107,0.987811,19.6886,133.898,0.565396,0.0,0.0
1099,274.5,104.075,107.96,112.136,100.193,93.0489,0.00804201,0.98866,19.6833,133.608,0.681626,0.0,0.0
1106,276.25,104.323,108.214,115.871,100.265,93.4686,0.0082321,0.989328,19.6772,133.277,0.646784,0.0,0.0
1113,278,104.986,108.787,119.443,100.324,94.5212,0.00836307,0.990915,19.6746,132.967,0.549004,0.0,0.0
1120,279.75,105.003,109.379,115.731,100.392,94.2961,0.00835171,0.992915,19.6718,132.667,0.577178,0.0,0.0
1127,281.5,105.864,109.864,107.666,100.494,94.3145,0.00824995,0.997298,19.6684,132.367,0.584711,0.0,0.0
1134,283.25,105.924,110.032,118.195,100.548,94.9755,0.0081428,1.00638,19.6665,132.036,0.525337,0.0,0.0
1141,285,106.359,110.776,111.843,100.604,93.8739,0.00808705,1.01159,19.6617,131.726,0.637996,0.0,0.0
1148,286.75,106.854,111.139,124.946,100.63,93.6437,0.00811601,1.01515,19.6511,131.396,0.66295,0.0,0.0
1155,288.5,107.334,112.244,106.179,100.649,94.8581,0.00824166,1.02107,19.6426,131.076,0.545975,0.0,0.0
1162,290.25,108.072,112.121,108.16,100.644,95.4973,0.00837011,1.02299,19.6368,130.745,0.483687,0.0,0.0
1169,292,108.515,112.46,112.498,100.611,96.7799,0.00846235,1.02292,19.6307,130.455,0.357673,0.0,0.0
1176,293.75,108.109,113.003,113.286,100.562,95.8756,0.00851596,1.0233,19.6268,130.125,0.439689,0.0,0.0
1183,295.5,108.368,113.705,118.214,100.493,95.0536,0.00853099,1.0192,19.6255,129.814,0.51271,0.0,0.0
1190,297.25,109.085,113.487,105.349,100.4,95.034,0.00846397,1.01759,19.6258,129.474,0.506067,0.0,0.0
1197,299,109.155,113.724,107.038,100.268,95.5417,0.00834544,1.01566,19.6281,129.164,0.444921,0.0,0.0
1204,300.75,109.307,114.38,112.781,100.282,94.1915,0.0082868,1.00696,19.6296,128.834,0.577323,0.0,0.0
1211,302.5,109.383,114.848,108.981,100.342,95.5865,0.00828768,0.999623,19.634,128.483,0.447372,0.0,0.0
1218,304.25,110.329,115.056,113.468,100.412,94.7731,0.00827442,0.999557,19.6417,128.193,0.532512,0.0,0.0
1225,306,110.666,115.597,107.528,100.494,94.949,0.00830185,1.00945,19.65,127.883,0.523005,0.0,0.0
1232,307.75,110.391,115.292,109.892,100.566,95.7752,0.00833005,1.01321,19.6527,127.552,0.449746,0.0,0.0
1239,309.5,110.857,115.941,111.974,100.643,95.5946,0.00820619,1.01869,19.6457,127.242,0.474224,0.0,0.0
1246,311.25,110.779,116.058,108.752,100.739,95.9759,0.00806562,1.02778,19.6379,126.882,0.446293,0.0,0.0
1253,313,111.613,116.584,116.038,100.809,96.3978,0.00807,1.03162,19.6312,126.602,0.412253,0.0,0.0
1260,314.75,112.225,116.948,112.478,100.893,96.6792,0.008219,1.03106,19.622,126.261,0.393132,0.0,0.0
1267,316.5,112.074,117.126,106.97,100.964,95.9187,0.00832288,1.02724,19.6176,125.971,0.47233,0.0,0.0
1274,318.25,112.655,118.053,105.351,101.002,95.0489,0.00831718,1.02512,19.6165,125.591,0.559774,0.0,0.0
1281,320,112.519,118.204,115.283,101.066,96.0165,0.00827626,1.02952,19.6174,125.34,0.472291,0.0,0.0
1288,321.75,113.001,118.525,117.225,101.108,95.0434,0.00826916,1.03579,19.6179,125,0.569953,0.0,0.0
1295,323.5,113.488,119.038,119.424,101.151,95.6138,0.00831925,1.04149,19.6125,124.66,0.51869,0.0,0.0
1302,325.25,114.177,119.118,107.882,101.157,96.227,0.00831583,1.0479,19.6054,124.31,0.460344,0.0,0.0
1309,327,114.233,119.581,113.647,101.18,94.6629,0.00824067,1.05277,19.5991,124.009,0.613478,0.0,0.0
1316,328.75,114.357,120.243,104.67,101.18,95.0395,0.00828337,1.05318,19.5919,123.659,0.576894,0.0,0.0
1323,330.5,114.704,120.475,110.011,101.157,94.6531,0.00845775,1.05329,19.5874,123.319,0.612331,0.0,0.0
1330,332.25,115.215,120.728,110.943,101.134,94.3918,0.00860915,1.05544,19.5828,123.008,0.635738,0.0,0.0
1337,334,115.578,121.334,111.216,101.093,95.9558,0.00859967,1.0547,19.5806,122.678,0.480548,0.0,0.0
1344,335.75,115.52,121.197,116.551,101.06,96.2441,0.00842125,1.05677,19.5795,122.338,0.449886,0.0,0.0
1351,337.5,115.935,121.483,112.262,101.013,95.0464,0.00830084,1.06119,19.5774,121.988,0.561019,0.0,0.0
1358,339.25,116.166,121.673,113.474,100.95,94.8563,0.00838758,1.06591,19.5726,121.657,0.573656,0.0,0.0
1365,341,116.297,122.271,116.55,100.872,93.4904,0.00853993,1.07031,19.5691,121.277,0.700237,0.0,0.0
1372,342.75,116.691,122.458,113.68,100.801,93.8546,0.00869724,1.07078,19.5642,120.917,0.657932,0.0,0.0
1379,344.5,117.07,122.55,106.486,100.722,93.5062,0.00874856,1.07053,19.5581,120.576,0.684978,0.0,0.0
1386,346.25,117.424,123.508,106.225,100.641,93.0395,0.00874911,1.07803,19.5552,120.256,0.723593,0.0,0.0
1393,348,117.76,123.433,102.033,100.528,95.2526,0.00875987,1.08735,19.5534,119.936,0.496711,0.0,0.0
1400,349.75,118.23,124.144,107.533,100.425,95.7812,0.00891823,1.09929,19.5476,119.545,0.436281,0.0,0.0
1407,351.5,118.278,124.554,107.334,100.321,94.2244,0.0090909,1.1085,19.537,119.215,0.577679,0.0,0.0
1414,353.25,118.819,124.89,113.299,100.217,94.2663,0.00916114,1.11792,19.5219,118.855,0.564022,0.0,0.0
1421,355,119.614,125.391,111.091,100.137,94.9003,0.00915596,1.12532,19.509,118.544,0.494948,0.0,0.0
1428,356.75,119.863,125.746,108.129,100.034,94.8709,0.0091276,1.12824,19.4961,118.194,0.488299,0.0,0.0
1435,358.5,120.192,126.362,110.18,99.9637,93.0079,0.00904869,1.12846,19.4852,117.834,0.664537,0.0,0.0
1442,360.25,120.596,126.166,99.389,99.8988,92.6407,0.0089185,1.12751,19.4791,117.494,0.695012,0.0,0.0
1449,362,121.155,126.66,104.713,99.8356,93.8102,0.00886829,1.12814,19.4771,117.183,0.573589,0.0,0.0
1456,363.75,120.899,127.072,110.401,99.7664,93.0984,0.00894345,1.12753,19.4763,116.823,0.637373,0.0,0.0
1463,365.5,121.512,127.407,106.199,99.7068,92.7466,0.00909162,1.12891,19.477,116.523,0.666758,0.0,0.0
1470,367.25,121.935,127.66,103.408,99.6744,94.5698,0.00929569,1.13928,19.4768,116.112,0.484388,0.0,0.0
1477,369,121.628,127.994,107.661,99.6088,95.0741,0.00947662,1.14592,19.4747,115.772,0.429319,0.0,0.0
1484,370.75,122.434,128.717,106.633,99.5812,93.7479,0.00957942,1.1408,19.4679,115.432,0.556204,0.0,0.0
1491,372.5,122.325,128.608,108.744,99.5395,93.4118,0.0096159,1.13803,19.4631,115.081,0.58543,0.0,0.0
1498,374.25,122.532,128.942,106.159,99.5371,93.5912,0.00965419,1.13895,19.4629,114.711,0.567532,0.0,0.0
1505,376,123.319,129.047,101.614,99.5249,93.566,0.00964807,1.14231,19.4644,114.391,0.568888,0.0,0.0
1512,377.75,123.766,129.855,107.483,99.5197,94.1962,0.00953139,1.14247,19.4622,113.98,0.506545,0.0,0.0
1519,379.5,123.98,130.171,102.849,99.5128,94.2675,0.00947623,1.1421,19.4603,113.65,0.498936,0.0,0.0
1526,381.25,124.573,130.526,115.441,99.5314,93.9554,0.00954963,1.15022,19.4588,113.32,0.531219,0.0,0.0
1533,383,124.448,130.784,97.525,99.561,93.1885,0.00959414,1.16202,19.4575,112.99,0.609471,0.0,0.0
1540,384.75,124.749,131.17,107.975,99.5675,91.7107,0.00954624,1.17244,19.4484,112.579,0.75736,0.0,0.0
1547,386.5,125.375,131.44,111.254,99.6076,93.6787,0.00952802,1.17289,19.4332,112.199,0.565442,0.0,0.0
1554,388.25,125.392,132.047,108.499,99.6367,92.5412,0.00953937,1.1701,19.423,111.869,0.680705,0.0,0.0
1561,390,126.257,132.891,104.743,99.685,92.8662,0.00948795,1.17145,19.4186,111.478,0.652867,0.0,0.0
1568,391.75,126.616,132.675,105.457,99.7214,92.7505,0.00944453,1.17891,19.4185,111.128,0.667724,0.0,0.0
1575,393.5,126.854,133.748,98.886,99.7814,94.3329,0.00959361,1.19068,19.4166,110.748,0.517386,0.0,0.0
1582,395.25,126.582,133.457,108.032,99.8174,93.2611,0.00984608,1.20442,19.409,110.377,0.625998,0.0,0.0
1589,397,127.193,133.698,103.943,99.9013,92.952,0.010014,1.21358,19.3992,110.027,0.664328,0.0,0.0
1596,398.75,127.545,134.156,107.35,99.9406,94.3572,0.0100053,1.21009,19.3832,109.647,0.5297,0.0,0.0
1603,400.5,128.184,134.764,109.747,99.9896,94.8956,0.00979688,1.2037,19.3714,109.286,0.481789,0.0,0.0
1610,402.25,128.478,135.408,102.705,100.039,94.6629,0.00955774,1.1994,19.369,108.916,0.508928,0.0,0.0
1617,404,128.352,135.339,107.333,100.093,94.0916,0.00945381,1.20541,19.3716,108.536,0.569741,0.0,0.0
1624,405.75,128.811,135.61,103.652,100.154,93.6424,0.00949002,1.2124,19.3733,108.195,0.619426,0.0,0.0
1631,407.5,128.87,135.708,105.105,100.194,94.5528,0.00957911,1.21856,19.3671,107.835,0.533936,0.0,0.0
1638,409.25,129.291,136.037,116.863,100.253,95.0182,0.00966199,1.22487,19.3604,107.485,0.494168,0.0,0.0
1645,411,129.836,136.715,106.468,100.276,94.7274,0.00970667,1.2273,19.3518,107.024,0.524456,0.0,0.0
1652,412.75,130.694,136.824,106.12,100.327,92.0993,0.00965355,1.22749,19.3453,106.674,0.788391,0.0,0.0
1659,414.5,130.721,137.55,101.628,100.376,92.06,0.00957878,1.2296,19.3414,106.324,0.796898,0.0,0.0
1666,416.25,130.971,137.752,111.594,100.41,93.1864,0.00954696,1.23292,19.3391,105.943,0.687893,0.0,0.0
1673,418,131.234,138.11,105.662,100.432,95.1061,0.00956929,1.23765,19.337,105.583,0.502047,0.0,0.0
1680,419.75,131.849,138.319,106.494,100.474,93.0246,0.00961282,1.24574,19.3328,105.193,0.70978,0.0,0.0
1687,421.5,132.03,138.963,105.104,100.51,94.9904,0.00971771,1.25867,19.3281,104.782,0.520397,0.0,0.0
1694,423.25,133.097,139.306,97.0709,100.541,94.2359,0.00987432,1.27082,19.315,104.422,0.596734,0.0,0.0
1701,425,133.418,139.75,113.336,100.571,93.3709,0.0100488,1.279,19.2999,104.052,0.684456,0.0,0.0
1708,426.75,133.597,140.04,108.331,100.594,92.5959,0.0101845,1.27818,19.2867,103.651,0.763367,0.0,0.0
1715,428.5,133.361,139.988,109.457,100.632,93.8444,0.0102527,1.27947,19.2778,103.301,0.64341,0.0,0.0
1722,430.25,134.321,140.858,100.773,100.664,93.6476,0.010265,1.28844,19.2726,102.901,0.665761,0.0,0.0
1729,432,134.066,141.263,101.243,100.667,93.9678,0.0103119,1.29029,19.2701,102.51,0.634566,0.0,0.0
1736,433.75,135.011,141.368,106.932,100.68,95.1881,0.0103552,1.28345,19.2628,102.11,0.516826,0.0,0.0
1743,435.5,134.949,141.711,105.742,100.72,94.0459,0.0103385,1.29011,19.2592,101.73,0.631763,0.0,0.0
1750,437.25,135.622,141.631,105.313,100.718,94.7534,0.0103246,1.30357,19.2576,101.339,0.562444,0.0,0.0
1757,439,135.579,142.601,102.198,100.723,93.2073,0.0103409,1.30788,19.2489,100.979,0.714552,0.0,0.0
1764,440.75,135.747,142.486,104.228,100.718,94.1356,0.0103939,1.30763,19.2366,100.589,0.622797,0.0,0.0
1771,442.5,136.222,143.172,106.684,100.729,94.5276,0.0105102,1.30444,19.2307,100.178,0.58551,0.0,0.0
1778,444.25,136.111,143.295,106.517,100.714,93.0118,0.0106734,1.30346,19.2298,99.7579,0.733015,0.0,0.0
1785,446,136.926,143.816,106.384,100.718,94.4627,0.0107042,1.30681,19.23,99.3876,0.590764,0.0,0.0
1792,447.75,136.99,144.133,107.2,100.706,93.3828,0.0106177,1.3096,19.23,99.0473,0.695664,0.0,0.0
1799,449.5,137.671,144.722,104.136,100.688,95.09375,0.0105331,1.31084,19.2291,98.667,0.526743,0.0,0.0
1806,451.25,137.534,144.4,108.471,100.677,93.5165,0.0104287,1.31209,19.2284,98.2266,0.679854,0.0,0.0
1813,453,138.004,144.792,106.111,100.659,91.2039,0.0103293,1.31892,19.2261,97.8763,0.908905,0.0,0.0
1820,454.75,138.326,145.044,108.069,100.635,93.367,0.0102738,1.32973,19.2245,97.4659,0.69066,0.0,0.0
1827,456.5,138.313,145.622,103.913,100.615,93.417,0.0102436,1.33431,19.2122,97.0656,0.683988,0.0,0.0
1834,458.25,138.617,145.997,103.073,100.593,93.5007,0.0102449,1.32994,19.2017,96.6752,0.67366,0.0,0.0
1841,460,139.355,146.218,102.545,100.576,93.1659,0.0103019,1.32545,19.1961,96.3049,0.705148,0.0,0.0
1848,461.75,139.685,146.533,106.865,100.549,93.7543,0.0104494,1.33012,19.1978,95.9145,0.644653,0.0,0.0
1855,463.5,139.761,146.785,104.898,100.513,93.8256,0.0108036,1.33887,19.1998,95.4942,0.634418,0.0,0.0
1862,465.25,139.955,147.134,106.538,100.48,92.9499,0.0110724,1.34704,19.1976,95.1639,0.717779,0.0,0.0
1869,467,140.503,147.652,101.371,100.451,93.1113,0.011199,1.34733,19.19,94.7435,0.699118,0.0,0.0
1876,468.75,140.637,148.002,103.669,100.425,92.8585,0.0111792,1.34503,19.1792,94.3732,0.721751,0.0,0.0
1883,470.5,140.994,148.034,109.137,100.391,91.1962,0.0111725,1.34605,19.1745,93.9828,0.885062,0.0,0.0
1890,472.25,140.859,148.1,109.118,100.358,91.1377,0.0112262,1.34703,19.174,93.5725,0.887962,0.0,0.0
1897,474,141.145,148.792,106.373,100.333,93.218,0.0113346,1.35016,19.174,93.1921,0.67774,0.0,0.0
1904,475.75,141.553,149.163,107.002,100.299,92.8418,0.0115026,1.34987,19.1727,92.8018,0.711872,0.0,0.0
1911,477.5,141.899,149.442,107.311,100.265,93.9891,0.011686,1.34811,19.1711,92.3714,0.595579,0.0,0.0
1918,479.25,142.001,149.962,104.58,100.254,91.104,0.0117928,1.35752,19.1699,91.9711,0.881847,0.0,0.0
1925,481,142.707,150.297,99.7523,100.227,91.9136,0.0118568,1.36946,19.1691,91.5507,0.797873,0.0,0.0
1932,482.75,143.234,150.395,98.6524,100.202,90.7722,0.0119583,1.37184,19.159,91.1503,0.910658,0.0,0.0
1939,484.5,143.528,151.181,107.365,100.175,92.0972,0.0120711,1.37854,19.1476,90.74,0.77468,0.0,0.0
1946,486.25,143.995,151.25,103.322,100.17,92.9793,0.0121235,1.38266,19.1379,90.3396,0.686395,0.0,0.0
1953,488,144.571,151.739,104.735,100.137,91.3662,0.0121469,1.3883,19.1294,89.9393,0.84464,0.0,0.0
1960,489.75,144.189,152.078,105.376,100.101,91.5745,0.0122009,1.40029,19.1243,89.5289,0.820295,0.0,0.0
1967,491.5,144.794,152.568,93.1438,100.092,92.0421,0.0122411,1.41538,19.1173,89.0985,0.772513,0.0,0.0
1974,493.25,145.199,153.058,102.027,100.051,91.0241,0.0122176,1.42654,19.0984,88.6681,0.871253,0.0,0.0
1981,495,145.022,152.659,109.789,100.026,91.2795,0.0121732,1.43074,19.0849,88.2478,0.84313,0.0,0.0
1988,496.75,145.807,153.318,95.7489,100.016,91.0818,0.0121002,1.42461,19.0734,87.8975,0.862212,0.0,0.0
1995,498.5,146.256,153.943,95.9542,99.9969,91.8751,0.0120819,1.42214,19.0683,87.4271,0.780511,0.0,0.0
2002,500.25,146.693,154.519,104.825,99.9689,91.8235,0.0121456,1.42876,19.0689,87.0367,0.783118,0.0,0.0
2009,502,146.912,154.386,98.0983,99.9438,91.5036,0.0122443,1.43773,19.0692,86.5463,0.812952,0.0,0.0
2016,503.75,147.525,155.221,105.191,99.9345,90.2329,0.0122559,1.44327,19.0618,86.1559,0.940944,0.0,0.0
2023,505.5,147.8,155.227,105.266,99.9203,91.5536,0.0122015,1.45381,19.0521,85.6755,0.805756,0.0,0.0
2030,507.25,147.96,155.266,98.7028,99.9061,90.7496,0.0121249,1.46213,19.0439,85.2752,0.885723,0.0,0.0
2037,509,148.316,155.509,101.625,99.9539,92.3649,0.0120683,1.46507,19.0344,84.8648,0.727567,0.0,0.0
2044,510.75,149.108,156.492,94.8788,99.9969,91.9101,0.0120017,1.47521,19.0224,84.4745,0.777,0.0,0.0
2051,512.5,148.973,156.863,97.6136,100.024,90.2966,0.0119263,1.48515,19.0145,84.004,0.942664,0.0,0.0
2058,514.25,149.605,157.123,106.259,100.073,91.7731,0.0119452,1.50148,19.0027,83.6337,0.797766,0.0,0.0
2065,516,150.55,157.638,107.446,100.11,91.0955,0.0121644,1.51353,18.9924,83.1433,0.869447,0.0,0.0
2072,517.75,150.318,158.473,103.321,100.151,91.4708,0.0123973,1.51806,18.9736,82.7429,0.835326,0.0,0.0
2079,519.5,151.422,158.404,95.1665,100.178,90.8047,0.0125127,1.5225,18.9568,82.2625,0.905204,0.0,0.0
2086,521.25,151.538,159.311,103.226,100.218,91.2628,0.0126488,1.53108,18.9474,81.8722,0.862445,0.0,0.0
2093,523,152.246,159.372,95.0513,100.251,89.446,0.0127638,1.53835,18.9401,81.4218,1.05082,0.0,0.0
2100,524.75,152.766,160.516,99.9431,100.282,90.6279,0.0128488,1.54012,18.9272,80.9714,0.932656,0.0,0.0
2107,526.5,153.202,160.88,101.667,100.302,90.6612,0.0128733,1.54143,18.9205,80.511,0.931168,0.0,0.0
2114,528.25,154.059,161.06,96.9366,100.346,91.9618,0.0128434,1.55546,18.9156,80.0806,0.803906,0.0,0.0
2121,530,153.563,161.402,93.3217,100.378,91.7329,0.0128624,1.57349,18.9122,79.6202,0.829877,0.0,0.0
2128,531.75,154.919,162.477,108.196,100.405,91.6873,0.013142,1.57789,18.8987,79.1498,0.836922,0.0,0.0
2135,533.5,154.165,162.73,95.0329,100.435,90.5549,0.0137083,1.59116,18.8793,78.7294,0.954141,0.0,0.0
2142,535.25,155.137,163.141,98.3906,100.456,89.9507,0.014208,1.60647,18.8665,78.259,1.01779,0.0,0.0
2149,537,155.4,163.673,103.652,100.492,89.4896,0.0143812,1.60354,18.8558,77.8286,1.06838,0.0,0.0
2156,538.75,155.366,163.656,99.5324,100.529,91.3969,0.014214,1.59506,18.8492,77.3982,0.877516,0.0,0.0
2163,540.5,155.802,163.946,98.528,100.529,89.4703,0.0139292,1.59549,18.8461,76.9278,1.07378,0.0,0.0
2170,542.25,156.54,164.486,101.465,100.535,89.589,0.0137704,1.60386,18.8445,76.4774,1.06212,0.0,0.0
2177,544,156.566,165.166,98.7402,100.574,90.4003,0.0138484,1.60476,18.8422,76.027,0.982621,0.0,0.0
2184,545.75,157.571,165.415,95.1329,100.573,91.6834,0.0140587,1.60887,18.8341,75.5966,0.852724,0.0,0.0
2191,547.5,157.293,165.975,104.301,100.575,87.2218,0.0143126,1.62017,18.828,75.1462,1.31253,0.0,0.0
2198,549.25,157.849,166.039,103.289,100.585,88.6872,0.0145338,1.62777,18.8226,74.6858,1.15998,0.0,0.0
2205,551,158.333,166.385,102.834,100.588,92.5143,0.014628,1.63494,18.8086,74.2354,0.77093,0.0,0.0
2212,552.75,158.796,166.819,94.1498,100.592,91.1659,0.0146695,1.6405,18.7973,73.745,0.906587,0.0,0.0
2219,554.5,158.94,167.278,94.172,100.583,91.475,0.0148176,1.64386,18.7868,73.2646,0.874615,0.0,0.0
2226,556.25,159.613,168.526,92.8156,100.575,90.7936,0.0152353,1.65458,18.7796,72.8342,0.942774,0.0,0.0
2233,558,159.905,168.308,108.692,100.553,91.914,0.0160499,1.68031,18.7753,72.3638,0.827724,0.0,0.0
2240,559.75,160.059,168.443,100.54,100.542,89.9891,0.0164622,1.6939,18.7669,71.9234,1.02173,0.0,0.0
2247,561.5,160.155,168.71,94.7925,100.529,88.6983,0.0161905,1.6875,18.7406,71.433,1.15366,0.0,0.0
2254,563.25,160.219,169.328,99.5424,100.526,88.8892,0.0156473,1.67308,18.7266,71.0326,1.1336,0.0,0.0
2261,565,160.77,169.452,97.5426,100.507,90.3363,0.0152499,1.6616,18.7251,70.5422,0.983062,0.0,0.0
2268,566.75,160.795,169.7,95.6237,100.476,90.7876,0.0150962,1.65866,18.7353,70.0818,0.934284,0.0,0.0
2275,568.5,160.76,169.998,94.7681,100.453,90.2509,0.0151043,1.65282,18.7441,69.6314,0.986799,0.0,0.0
2282,570.25,161.222,170.496,92.8515,100.421,89.3931,0.0152272,1.64819,18.7518,69.221,1.0719,0.0,0.0
2289,572,161.213,170.253,98.2563,100.384,90.8679,0.0154644,1.64693,18.7603,68.7806,0.917703,0.0,0.0
2296,573.75,161.633,171.121,95.3963,100.355,91.5182,0.0156573,1.64863,18.7658,68.3603,0.849357,0.0,0.0
2303,575.5,161.246,171.394,94.9452,100.315,89.4507,0.0158183,1.64504,18.7677,67.9199,1.05621,0.0,0.0
2310,577.25,161.823,170.726,104.585,100.27,89.7778,0.0159515,1.63602,18.7681,67.4795,1.01838,0.0,0.0
2317,579,161.252,171.719,93.6293,100.233,90.1364,0.0158343,1.62251,18.7708,67.0491,0.978253,0.0,0.0
2324,580.75,161.712,171.234,106.016,100.176,91.7364,0.0153144,1.60315,18.7789,66.6187,0.810923,0.0,0.0
2331,582.5,161.635,171.323,95.1673,100.193,91.0762,0.014662,1.58572,18.7925,66.1583,0.879031,0.0,0.0
2338,584.25,161.601,171.357,97.8158,100.216,92.443,0.0140241,1.57968,18.8144,65.7179,0.743942,0.0,0.0
2345,586,161.677,171.822,96.7686,100.247,92.7744,0.0137711,1.57883,18.8374,65.3276,0.713769,0.0,0.0
2352,587.75,161.133,171.567,92.1279,100.258,92.5216,0.0138513,1.58244,18.85,64.9673,0.73995,0.0,0.0
2359,589.5,162.116,172.222,100.779,100.285,91.3704,0.0140159,1.58229,18.8545,64.5069,0.857769,0.0,0.0
2366,591.25,161.89,171.962,108.244,100.325,92.8636,0.0140775,1.58376,18.8547,64.1065,0.712093,0.0,0.0
2373,593,160.815,171.57,97.2045,100.347,91.7496,0.0139359,1.56926,18.8543,63.6661,0.825342,0.0,0.0
2380,594.75,161.329,171.74,103.747,100.371,92.092,0.0136136,1.55417,18.8568,63.3258,0.793173,0.0,0.0
2387,596.5,160.66,170.773,102.96,100.38,90.1253,0.0132498,1.54246,18.8738,62.8754,0.992933,0.0,0.0
2394,598.25,160.839,171.852,100.258,100.432,89.7714,0.0129533,1.5273,18.8917,62.5051,1.03399,0.0,0.0
2401,600,160.28,170.807,100.169,100.458,91.8999,0.0126544,1.49727,18.9034,62.0447,0.820447,0.0,0.0
2408,601.75,160.053,170.932,97.4892,100.474,92.5203,0.0123253,1.47783,18.9273,61.6844,0.759864,0.0,0.0
2415,603.5,159.885,171.361,101.837,100.513,93.0041,0.0121104,1.46932,18.9621,61.3341,0.71545,0.0,0.0
2422,605.25,159.061,170.782,100.515,100.536,91.2227,0.0120396,1.4673,18.9825,61.0038,0.895689,0.0,0.0
2429,607,159.083,170.395,98.4402,100.581,90.4204,0.0121594,1.47394,18.9965,60.5934,0.98128,0.0,0.0
2436,608.75,157.813,169.508,100.587,100.598,90.6693,0.0124113,1.45744,19.0032,60.2131,0.957432,0.0,0.0
2443,610.5,157.292,168.744,109.382,100.624,92.6292,0.0126195,1.43066,19.0064,59.9128,0.762761,0.0,0.0
2450,612.25,156.884,168.593,109.005,100.646,91.4729,0.0126205,1.39731,19.0158,59.5825,0.880581,0.0,0.0
2457,614,155.408,167.693,112.055,100.684,92.8474,0.0124894,1.36426,19.0494,59.2022,0.74661,0.0,0.0
2464,615.75,154.798,167.19,116.289,100.717,94.3277,0.012362,1.33568,19.0866,58.982,0.603861,0.0,0.0
2471,617.5,153.081,165.91,112.484,100.754,94.651,0.0122358,1.30486,19.1369,58.7017,0.575713,0.0,0.0
2478,619.25,150.851,164.981,112.599,100.772,92.1399,0.0120582,1.27127,19.1791,58.4715,0.825169,0.0,0.0
2485,621,149.22,162.994,120.225,100.815,94.8495,0.011802,1.21451,19.2161,58.3014,0.562035,0.0,0.0
2492,622.75,146.35,161.034,121.594,100.843,95.2176,0.0114734,1.14518,19.2699,58.1312,0.528865,0.0,0.0
2499,624.5,144.087,159.437,123.84,100.863,95.3393,0.0110409,1.08477,19.354,58.0111,0.518911,0.0,0.0
2506,626.25,140.768,156.925,126.176,100.88,97.8482,0.0105734,1.00188,19.4208,57.9611,0.281195,0.0,0.0
2513,628,137.64,154.365,129.88,100.912,101.301,0.0101426,0.914723,19.479,57.891,-0.0354388,0.0,0.0
2520,629.75,134.216,151.934,133.078,100.938,102.531,0.00978265,0.812006,19.571,57.831,-0.144324,0.0,0.0
2527,631.5,130.32,149.107,133.681,100.964,102.749,0.0093104,0.700269,19.6984,57.891,-0.161432,0.0,0.0
2534,633.25,127.114,146.021,134.694,100.982,102.875,0.00863557,0.582964,19.8423,57.861,-0.171132,0.0,0.0
2541,635,123.804,143.183,135.964,100.993,103.001,0.00768647,0.464213,19.9964,57.871,-0.181335,0.0,0.0
2548,636.75,120.5,140.206,138.585,101.022,102.952,0.00661077,0.356374,20.162,57.851,-0.174354,0.0,0.0
2555,638.5,116.751,136.356,135.825,101.055,102.949,0.00544486,0.267055,20.3397,57.811,-0.171133,0.0,0.0
2562,640.25,112.983,133.17,136.788,101.064,102.867,0.00433578,0.200978,20.478,57.851,-0.162905,0.0,0.0
2569,642,109.927,130.057,139.935,101.059,103.051,0.00337158,0.15516,20.6016,57.821,-0.17993,0.0,0.0
2576,643.75,107.196,128.018,139.883,101.091,103.092,0.00268537,0.121449,20.7004,57.831,-0.180602,0.0,0.0
2583,645.5,105.188,125.741,135.493,101.099,103.112,0.00228115,0.0982525,20.7728,57.821,-0.181694,0.0,0.0
2590,647.25,102.605,122.69,141.631,101.104,103.147,0.0019524,0.0832922,20.8219,57.7509,-0.184341,0.0,0.0
2597,649,100.415,120.471,141.029,101.102,103.098,0.00159777,0.0745791,20.8597,57.831,-0.180177,0.0,0.0
2604,650.75,98.5544,118.276,133.374,101.113,103.07,0.00135324,0.0699755,20.8841,57.811,-0.176625,0.0,0.0
2611,652.5,96.5717,116.458,137.86,101.119,103.083,0.00128341,0.0670477,20.8985,57.871,-0.177253,0.0,0.0
2618,654.25,94.9621,114.376,138.301,101.125,103.048,0.00134256,0.0646899,20.9069,57.831,-0.173569,0.0,0.0
2625,656,93.5872,112.146,136.128,101.117,103.022,0.00141716,0.0628615,20.9132,57.861,-0.171941,0.0,0.0
2632,657.75,91.7724,110.502,137.272,101.107,103.119,0.0013926,0.0609936,20.9175,57.841,-0.181491,0.0,0.0
2639,659.5,89.9743,108.878,138.364,101.125,103.033,0.0013226,0.0594345,20.9202,57.841,-0.172196,0.0,0.0
2646,661.25,88.5835,107.04,142.765,101.111,102.969,0.00131301,0.0578353,20.9215,57.871,-0.167832,0.0,0.0
2653,663,86.8782,105.158,137.688,101.115,103.041,0.00129262,0.0563851,20.9233,57.871,-0.173806,0.0,0.0
2660,664.75,85.4785,103.313,140.8,101.091,102.978,0.00119411,0.0552311,20.9242,57.871,-0.170407,0.0,0.0
2667,666.5,84.7867,101.9,139.416,101.091,102.967,0.00109893,0.0544455,20.9252,57.871,-0.169412,0.0,0.0
2674,668.25,83.5755,100.019,141.59,101.087,102.958,0.00106596,0.0538912,20.9266,57.891,-0.168906,0.0,0.0
2681,670,82.2861,98.2993,138.332,101.076,102.908,0.00110773,0.0534899,20.9273,57.891,-0.165581,0.0,0.0
2688,671.75,81.1426,97.4851,139.096,101.078,102.819,0.00115679,0.0533039,20.9277,57.861,-0.157402,0.0,0.0
2695,673.5,79.8894,95.7592,141.09,101.049,102.962,0.00115819,0.0531506,20.9278,57.871,-0.172796,0.0,0.0
2702,675.25,78.8493,94.3295,139.284,101.031,102.876,0.00114298,0.0531461,20.9291,57.881,-0.166736,0.0,0.0
2709,677,78.1509,93.1386,140.02,101.023,102.741,0.00111286,0.0531634,20.9291,57.891,-0.155383,0.0,0.0
2716,678.75,77.164,91.7714,138.543,101,102.815,0.00104991,0.0531666,20.9296,57.871,-0.164076,0.0,0.0
2723,680.5,76.0052,90.5306,139.482,100.994,102.692,0.000946852,0.0532627,20.9298,57.851,-0.153602,0.0,0.0
2730,682.25,74.9278,89.1371,140.739,100.97,102.804,0.000867714,0.0532821,20.9299,57.841,-0.165853,0.0,0.0
2737,684,74.4171,87.8368,140.826,100.965,102.638,0.000902795,0.0529506,20.93,57.851,-0.151435,0.0,0.0
2744,685.75,73.7398,86.6315,141.175,100.938,102.717,0.00103078,0.0525613,20.93,57.851,-0.160965,0.0,0.0
2751,687.5,72.6155,85.7425,138.735,100.917,102.681,0.00115593,0.0520021,20.9311,57.851,-0.159707,0.0,0.0
2758,689.25,72.148,84.3057,142.416,100.896,102.648,0.00120659,0.0516297,20.9318,57.851,-0.158641,0.0,0.0
2765,691,71.5977,82.9583,138.772,100.882,102.613,0.00105364,0.051257,20.9321,57.831,-0.156717,0.0,0.0
2772,692.75,70.5666,82.4064,141.673,100.844,102.545,0.000765374,0.051001,20.9323,57.841,-0.154098,0.0,0.0
2779,694.5,70.1503,80.8897,142.764,100.805,102.454,0.000565998,0.0507366,20.9336,57.831,-0.149477,0.0,0.0
2786,696.25,69.0923,80.2883,138.682,100.765,102.547,0.000514466,0.0504781,20.9342,57.831,-0.161473,0.0,0.0
2793,698,68.692,79.1879,139.714,100.748,102.443,0.000665202,0.0503288,20.9342,57.841,-0.15374,0.0,0.0
2800,699.75,67.291,77.77,138.43,100.712,102.37,0.000837428,0.0502987,20.934,57.811,-0.150429,0.0,0.0
2807,701.5,67.4125,77.0085,141.326,100.673,102.294,0.000906523,0.0501958,20.934,57.831,-0.147184,0.0,0.0
2814,703.25,66.959,76.3484,144.888,100.625,102.246,0.000852804,0.0499947,20.9339,57.811,-0.147249,0.0,0.0
2821,705,66.6897,75.8084,137.622,100.596,102.214,0.000783191,0.0500686,20.9339,57.831,-0.146959,0.0,0.0
2828,706.75,65.6877,74.7632,143.978,100.562,102.244,0.000738003,0.0499908,20.9347,57.851,-0.152922,0.0,0.0
2835,708.5,65.0949,74.0138,141.664,100.523,102.075,0.000732721,0.0497374,20.9355,57.851,-0.141158,0.0,0.0
2842,710.25,65.0106,73.165,137.759,100.481,102.067,0.00072768,0.0496162,20.9359,57.861,-0.144327,0.0,0.0
2849,712,64.7671,72.6524,139.396,100.436,102.034,0.000657272,0.0494994,20.9361,57.841,-0.145408,0.0,0.0
2856,713.75,63.8449,71.5153,140.924,100.409,102.057,0.00052343,0.0494336,20.9362,57.861,-0.15002,0.0,0.0
2863,715.5,63.2084,70.7216,141.998,100.382,101.933,0.00043707,0.0493827,20.9362,57.841,-0.141286,0.0,0.0
2870,717.25,62.383,69.9721,138.686,100.308,101.917,0.000520416,0.049367,20.9362,57.841,-0.14659,0.0,0.0
2877,719,61.9612,69.1079,143.291,100.261,101.706,0.000695382,0.0493823,20.9362,57.841,-0.131853,0.0,0.0
2884,720.75,62.1939,68.5291,138.759,100.225,101.815,0.000890103,0.0494756,20.9356,57.831,-0.144951,0.0,0.0
2891,722.5,61.1559,68.1892,138.965,100.187,101.788,0.00101081,0.0495096,20.935,57.821,-0.146018,0.0,0.0
2898,724.25,61.4131,67.6434,139.387,100.131,101.685,0.00104936,0.0495471,20.9348,57.811,-0.141915,0.0,0.0
2905,726,60.5281,66.6457,139.759,100.068,101.516,0.00106192,0.0495718,20.9353,57.811,-0.132361,0.0,0.0
2912,727.75,60.0294,66.0459,142.908,100.015,101.547,0.0010429,0.0493655,20.9361,57.8009,-0.140078,0.0,0.0
2919,729.5,59.5705,65.2158,140.548,99.9868,101.506,0.00101244,0.0491743,20.9366,57.8009,-0.138933,0.0,0.0
2926,731.25,59.4988,64.9316,142.287,99.9244,101.423,0.000937944,0.0491606,20.9367,57.821,-0.137161,0.0,0.0
2933,733,58.8004,64.3862,137.576,99.8664,101.385,0.000847708,0.0494261,20.9368,57.821,-0.139012,0.0,0.0
2940,734.75,59.0644,63.8433,139.746,99.7968,101.311,0.00082431,0.0497632,20.9369,57.821,-0.138767,0.0,0.0
2947,736.5,58.6548,63.4761,140.213,99.7615,101.246,0.000862124,0.0499072,20.9369,57.8009,-0.136077,0.0,0.0
2954,738.25,58.2277,63.0516,141.536,99.7283,101.158,0.000899633,0.0501201,20.9369,57.821,-0.131176,0.0,0.0
2961,740,57.6252,62.1707,140.22,99.6712,101.125,0.000855456,0.0504879,20.9358,57.8009,-0.133461,0.0,0.0
2968,741.75,57.6762,61.7795,144.414,99.6266,101.141,0.000817653,0.0508527,20.9352,57.7909,-0.138981,0.0,0.0
2975,743.5,57.3761,61.6895,140.419,99.5954,101.086,0.000811745,0.0509491,20.9348,57.8009,-0.136847,0.0,0.0
2982,745.25,56.9516,60.4135,142.778,99.5772,100.976,0.000735897,0.0512516,20.9347,57.811,-0.128526,0.0,0.0
2989,747,56.8698,60.0648,142.173,99.5565,100.971,0.000615862,0.0514418,20.9346,57.821,-0.12997,0.0,0.0
2996,748.75,55.9025,59.8184,144.273,99.5448,101.067,0.000555712,0.0518839,20.9346,57.811,-0.139821,0.0,0.0
3003,750.5,56.0145,59.0652,145.53,99.5411,101.013,0.000575012,0.0524221,20.9346,57.821,-0.135214,0.0,0.0
3010,752.25,56.0835,58.7786,142.186,99.5598,100.943,0.000675184,0.0527986,20.9346,57.811,-0.127098,0.0,0.0
3017,754,55.3822,58.1741,145.308,99.5764,100.995,0.000723262,0.0526752,20.9346,57.8009,-0.130354,0.0,0.0
3024,755.75,54.8615,57.8684,142.703,99.5966,100.989,0.000726256,0.0521144,20.9346,57.811,-0.127935,0.0,0.0
3031,757.5,55.0739,57.5195,142.633,99.6181,100.953,0.000699087,0.0515751,20.9346,57.811,-0.122676,0.0,0.0