File: 01_Data/Black_PMMA/Cone/Black_PMMA_HRRPUA_25.csv
Time after Ignition,Black_PMMA_R1,Black_PMMA_R2,Black_PMMA_R3,Black_PMMA_R4,Black_PMMA_R5,Black_PMMA_R6,Mean,Std. Dev.
0.0,19.0,15.0,9.3,18.0,-1.9,3.3,10.5,8.4
0.75,25.2,22.2,13.1,29.1,-1.9,3.0,15.1,12.5
1.5,36.2,35.6,29.5,42.4,-1.9,2.8,24.1,18.8
2.25,48.2,51.1,45.8,65.7,-1.9,2.6,35.3,27.9
3.0,60.7,69.8,55.0,90.8,-1.7,2.5,46.1,37.5
3.75,74.0,92.8,71.2,112.3,-1.4,2.4,58.5,47.3
4.5,86.8,117.9,88.2,134.7,-1.3,2.3,71.4,57.9
5.25,99.9,141.9,109.5,151.8,-1.1,2.3,84.1,67.5
6.0,112.9,162.3,133.6,169.5,-0.7,2.3,96.6,77.0
6.75,128.3,185.5,158.3,183.5,-0.5,2.6,109.6,86.6
7.5,141.9,204.6,179.1,197.0,-0.2,2.8,120.9,95.1
8.25,154.8,223.4,207.5,219.7,0.2,2.9,134.8,106.1
9.0,166.1,255.0,228.2,244.2,1.4,3.0,149.6,118.3
9.75,176.8,263.9,244.4,275.4,3.8,3.4,161.3,126.8
10.5,190.2,293.8,267.9,301.1,7.5,4.1,177.4,138.6
11.25,200.7,307.4,279.3,318.5,16.4,11.1,188.9,141.8
12.0,212.6,329.5,295.6,337.0,29.0,18.5,203.7,146.2
12.75,221.6,338.7,309.4,351.6,42.6,29.4,215.6,146.3
13.5,226.0,353.3,327.7,361.3,59.3,45.9,228.9,144.9
14.25,234.9,368.5,341.3,375.9,73.6,57.0,241.9,145.9
15.0,242.7,372.7,352.3,379.8,90.7,69.9,251.4,141.6
15.75,250.6,382.7,366.7,377.7,114.1,82.9,262.4,136.4
16.5,269.3,388.0,379.7,388.1,125.0,103.6,275.6,133.0
17.25,276.2,389.2,400.5,411.5,146.5,121.6,290.9,131.1
18.0,278.2,399.0,404.2,407.8,170.4,142.0,300.3,122.1
18.75,281.5,405.7,418.5,421.8,194.0,167.5,314.8,116.5
19.5,292.4,415.6,424.3,416.9,217.0,200.3,327.8,104.6
20.25,297.6,410.8,453.7,421.1,238.3,226.3,341.3,99.6
21.0,305.3,434.2,431.0,425.0,262.9,247.8,351.0,88.7
21.75,306.2,443.7,448.8,419.7,273.7,260.2,358.7,88.1
22.5,311.6,431.1,451.7,427.8,283.2,276.1,363.6,81.6
23.25,321.2,437.7,453.4,437.3,305.6,295.6,375.1,74.8
24.0,321.9,442.2,458.5,431.4,316.3,305.0,379.2,71.7
24.75,331.1,443.2,453.9,436.9,322.3,335.5,387.2,63.4
25.5,334.9,434.4,462.5,430.7,332.4,336.6,388.6,60.1
26.25,337.0,444.5,454.4,431.9,336.8,358.5,393.8,55.5
27.0,335.6,447.1,465.3,424.0,352.4,366.3,398.4,54.0
27.75,341.2,444.7,470.6,440.4,366.9,370.7,405.7,52.6
28.5,335.6,443.7,467.3,437.3,379.6,381.1,407.4,49.8
29.25,349.6,441.6,462.2,428.8,379.6,387.0,408.1,42.8
30.0,354.0,458.6,474.8,423.8,391.5,384.1,414.5,46.4
30.75,352.4,451.5,466.6,429.7,388.1,398.8,414.5,42.7
31.5,352.0,444.9,475.6,429.7,400.1,397.3,416.6,43.1
32.25,350.6,447.9,468.4,430.8,400.8,393.0,415.2,42.5
33.0,351.0,446.7,463.2,438.2,403.0,407.3,418.2,40.3
33.75,355.6,459.6,481.6,429.1,395.7,399.6,420.2,46.0
34.5,372.6,454.5,471.7,430.7,408.6,412.7,425.1,35.3
35.25,361.4,451.2,481.3,427.3,395.8,408.6,420.9,42.3
36.0,361.4,444.4,477.0,431.2,407.0,414.8,422.6,38.9
36.75,362.1,448.8,462.0,439.1,408.8,419.7,423.4,35.7
37.5,370.3,454.4,490.8,436.1,414.9,417.8,430.7,40.7
38.25,374.5,444.8,463.9,433.6,407.4,416.6,423.5,31.3
39.0,360.7,448.7,489.6,433.8,406.3,414.7,425.6,43.4
39.75,367.9,466.0,476.1,434.9,415.2,413.6,428.9,39.5
40.5,368.7,451.4,481.6,429.6,411.3,406.0,424.8,39.1
41.25,378.9,455.7,479.2,424.3,417.8,413.0,428.1,35.0
42.0,374.6,466.8,471.9,428.1,414.0,407.7,427.2,37.1
42.75,369.5,462.0,480.0,436.7,421.8,405.6,429.2,39.7
43.5,379.3,456.3,478.2,442.1,416.7,413.4,431.0,35.2
44.25,382.9,461.0,481.6,429.7,420.9,420.0,432.7,34.6
45.0,385.4,454.6,462.9,437.5,418.1,416.1,429.1,28.5
45.75,378.2,458.2,476.0,437.0,419.7,406.2,429.2,35.5
46.5,390.1,473.6,482.1,435.5,408.3,422.7,435.4,36.3
47.25,385.8,470.6,468.0,450.7,431.7,423.5,438.4,31.9
48.0,376.5,466.4,471.4,426.3,425.7,431.1,432.9,34.3
48.75,393.8,459.1,464.9,437.3,420.1,417.0,432.0,27.1
49.5,378.8,459.0,493.3,440.2,423.4,427.2,437.0,38.3
50.25,385.8,463.5,478.2,445.6,410.7,435.8,436.6,34.0
51.0,385.6,477.5,472.9,437.9,432.3,435.1,440.2,33.3
51.75,384.9,466.0,479.3,426.4,420.1,425.2,433.6,34.1
52.5,383.3,474.0,477.0,430.0,415.9,432.1,435.4,35.7
53.25,390.7,463.7,475.7,441.9,429.4,422.5,437.3,30.5
54.0,379.9,464.0,483.3,446.4,417.5,439.8,438.5,36.3
54.75,394.7,460.6,485.2,443.5,429.4,409.0,437.1,33.3
55.5,381.8,452.0,479.4,433.9,421.8,421.6,431.7,32.8
56.25,395.4,471.7,460.5,435.6,421.3,425.7,435.0,27.7
57.0,392.4,458.7,486.5,433.2,431.8,425.3,438.0,31.9
57.75,396.8,456.5,480.0,449.8,437.9,431.4,442.1,27.9
58.5,391.9,453.0,479.9,433.0,432.2,438.4,438.1,28.9
59.25,388.2,453.8,474.5,446.0,430.8,411.3,434.1,31.0
60.0,386.9,467.9,474.6,440.9,439.7,425.5,439.2,31.6
60.75,386.2,463.8,477.8,438.0,435.9,424.2,437.7,32.0
61.5,390.7,456.3,484.6,441.9,438.4,433.4,440.9,30.8
62.25,404.1,463.7,481.7,447.3,438.3,412.8,441.3,29.6
63.0,396.5,460.3,470.8,447.7,437.6,410.1,437.2,28.9
63.75,403.0,469.0,476.8,459.3,432.4,418.7,443.2,29.6
64.5,389.2,452.7,479.4,441.7,434.7,423.0,436.8,30.2
65.25,405.6,461.9,477.1,439.2,437.6,420.8,440.4,26.1
66.0,403.0,444.4,469.6,449.0,436.9,437.1,440.0,21.8
66.75,409.8,459.1,484.7,464.5,433.0,439.5,448.4,26.4
67.5,398.0,464.5,479.0,447.5,444.6,431.9,444.2,28.0
68.25,417.6,459.8,481.2,445.5,441.0,420.7,444.3,24.0
69.0,402.0,457.9,483.0,450.9,433.7,428.6,442.7,27.8
69.75,400.1,462.5,485.6,449.8,427.4,438.6,444.0,29.5
70.5,405.2,465.6,471.4,450.4,444.1,438.4,445.8,23.5
71.25,399.8,468.6,466.5,448.5,427.9,443.2,442.4,25.8
72.0,402.3,452.4,472.1,438.6,434.0,426.2,437.6,23.7
72.75,399.0,481.0,483.0,448.3,433.7,433.4,446.4,32.0
73.5,404.1,467.0,492.5,451.2,422.4,427.4,444.1,32.4
74.25,409.9,455.9,472.9,448.9,425.7,433.6,441.2,22.6
75.0,396.9,457.9,473.4,446.8,441.1,429.4,440.9,26.2
75.75,407.3,464.5,486.1,437.8,432.6,428.8,442.9,28.1
76.5,412.1,479.6,479.6,459.6,432.6,436.2,450.0,27.5
77.25,423.9,467.0,493.4,441.5,440.2,436.0,450.4,25.4
78.0,414.0,468.7,476.7,441.2,434.0,425.6,443.4,24.6
78.75,418.6,455.4,481.5,448.2,439.7,429.8,445.5,21.9
79.5,416.2,463.3,475.2,445.7,437.2,438.7,446.1,20.8
80.25,410.0,462.4,492.6,450.9,443.5,433.2,448.8,27.8
81.0,414.0,471.3,484.7,437.6,438.3,421.6,444.6,27.9
81.75,423.6,470.6,467.5,455.9,438.4,443.4,449.9,18.1
82.5,422.8,474.4,478.7,445.5,441.1,427.2,448.3,23.5
83.25,423.9,478.0,491.2,451.5,456.8,427.7,454.9,26.7
84.0,415.6,480.5,480.6,448.2,432.5,430.2,447.9,27.3
84.75,415.7,469.0,490.3,445.9,447.2,432.8,450.2,26.4
85.5,416.5,473.9,492.8,429.3,439.5,442.0,449.0,28.7
86.25,411.3,473.5,482.3,460.2,448.0,440.0,452.5,25.5
87.0,426.0,466.3,497.2,443.5,441.2,431.3,450.9,26.6
87.75,417.3,467.9,501.3,454.6,465.0,448.9,459.2,27.4
88.5,418.4,475.1,491.9,446.4,462.2,433.0,454.5,27.3
89.25,419.9,481.4,479.8,459.7,453.4,433.5,454.6,24.6
90.0,416.4,472.6,498.5,459.7,444.2,438.7,455.0,28.6
90.75,415.3,470.8,488.0,445.7,449.7,430.9,450.0,26.3
91.5,407.9,475.4,477.7,450.6,451.9,437.1,450.1,25.9
92.25,420.8,470.8,484.1,455.3,449.9,435.6,452.8,23.0
93.0,409.6,468.2,479.6,457.6,444.5,437.0,449.4,24.9
93.75,418.0,479.4,490.8,458.0,448.4,439.2,455.6,26.6
94.5,430.5,466.4,498.6,453.0,452.8,445.1,457.7,23.2
95.25,422.0,474.1,475.9,443.3,442.2,438.4,449.3,21.3
96.0,435.3,469.5,489.2,462.1,446.2,440.3,457.1,20.4
96.75,411.2,474.1,471.8,457.5,460.2,442.3,452.8,23.4
97.5,420.9,469.2,481.3,472.1,448.9,452.2,457.4,21.7
98.25,428.2,471.6,469.7,461.2,467.7,438.7,456.2,18.3
99.0,427.0,468.2,477.7,465.6,450.3,448.6,456.2,18.1
99.75,437.4,478.3,477.8,465.1,448.8,446.9,459.0,17.2
100.5,429.4,474.8,477.0,452.4,455.3,433.6,453.8,19.9
101.25,437.4,477.9,483.2,465.3,447.7,453.0,460.7,17.9
102.0,423.9,489.1,477.7,475.2,455.7,450.4,462.0,23.6
102.75,432.6,477.8,480.1,469.0,452.4,433.3,457.5,21.4
103.5,433.4,476.1,476.0,467.4,460.4,455.5,461.5,16.0
104.25,424.7,476.3,467.9,472.2,452.2,451.0,457.4,19.1
105.0,427.6,483.8,481.6,475.2,449.7,450.0,461.3,22.4
105.75,428.9,477.5,470.3,469.9,453.2,460.6,460.1,17.5
106.5,413.6,490.6,487.8,460.9,463.8,456.5,462.2,27.8
107.25,428.8,478.8,471.6,471.9,446.8,460.2,459.7,18.8
108.0,426.6,474.8,478.1,480.0,440.5,440.5,456.8,23.5
108.75,429.4,492.1,469.2,478.8,447.0,456.5,462.2,22.6
109.5,427.2,478.4,481.5,476.9,456.4,448.4,461.5,21.4
110.25,420.4,472.5,482.1,475.0,447.2,455.9,458.8,22.9
111.0,429.5,487.8,473.6,483.7,447.0,450.7,462.1,23.2
111.75,429.0,475.9,479.5,483.4,451.0,461.8,463.4,20.8
112.5,433.7,482.5,478.5,486.9,455.2,453.1,465.0,20.9
113.25,441.5,485.8,482.0,489.4,453.2,455.4,467.9,20.3
114.0,437.4,491.8,486.8,477.6,460.6,447.5,467.0,22.0
114.75,431.0,489.1,481.2,486.2,448.6,453.2,464.9,23.9
115.5,430.6,484.5,494.3,495.0,439.4,449.8,465.6,29.0
116.25,431.3,487.0,479.6,491.6,467.2,454.7,468.6,22.7
117.0,437.0,492.4,495.9,476.8,459.4,460.4,470.3,22.4
117.75,437.6,487.7,476.3,474.0,445.6,451.1,462.0,20.0
118.5,439.9,490.5,469.1,499.6,449.7,450.3,466.5,24.2
119.25,449.0,486.5,486.1,485.5,448.7,463.0,469.8,18.5
120.0,428.8,495.1,485.3,490.7,461.4,461.5,470.5,25.0
120.75,445.0,487.1,490.3,480.6,461.9,459.1,470.7,18.0
121.5,441.2,505.9,487.7,488.4,453.4,450.2,471.1,26.2
122.25,442.8,485.8,498.0,480.0,444.5,457.9,468.2,23.0
123.0,446.3,497.2,492.3,489.3,468.0,445.9,473.2,23.2
123.75,450.1,496.5,481.3,478.7,453.7,453.3,468.9,19.2
124.5,444.0,504.2,479.4,485.9,449.6,455.9,469.8,23.7
125.25,448.1,492.0,487.2,487.5,463.4,451.8,471.7,19.6
126.0,448.7,506.8,495.4,481.5,459.7,472.4,477.4,21.8
126.75,458.9,510.7,494.0,497.6,472.6,448.9,480.5,24.1
127.5,454.1,502.6,486.2,500.2,460.6,461.7,477.6,21.4
128.25,452.7,507.4,491.4,496.7,458.3,469.6,479.4,22.3
129.0,454.8,510.6,474.5,494.4,461.0,468.6,477.3,21.2
129.75,470.5,492.7,506.0,480.0,460.9,476.1,481.0,16.1
130.5,441.1,506.7,493.9,482.8,462.9,466.9,475.7,23.6
131.25,445.1,509.3,493.5,484.2,468.8,462.6,477.3,23.1
132.0,449.6,485.9,492.4,507.1,463.2,461.1,476.6,22.0
132.75,458.8,501.8,494.5,505.5,485.9,463.6,485.0,19.7
133.5,466.5,491.9,503.4,494.9,481.8,474.3,485.5,13.8
134.25,457.4,512.1,507.7,486.5,475.7,465.9,484.2,22.2
135.0,463.7,496.4,506.6,497.4,474.1,472.9,485.2,17.1
135.75,460.4,511.1,493.1,506.1,480.3,479.8,488.5,18.8
136.5,474.9,504.9,486.1,507.5,472.1,466.8,485.4,17.3
137.25,462.2,502.5,506.6,488.8,472.6,485.2,486.3,17.0
138.0,459.9,514.3,503.6,513.4,465.2,477.7,489.0,24.5
138.75,450.5,499.7,498.4,519.5,484.5,467.3,486.6,24.8
139.5,457.7,503.8,525.7,506.2,483.5,468.9,491.0,25.5
140.25,488.4,500.1,499.0,521.5,455.3,469.3,489.0,23.7
141.0,471.0,504.7,502.2,510.4,465.7,480.9,489.1,19.0
141.75,469.1,517.1,497.2,510.5,495.6,481.9,495.2,17.7
142.5,468.7,505.0,514.5,493.9,494.9,472.9,491.7,17.9
143.25,468.7,496.6,511.2,510.5,495.9,473.9,492.8,18.0
144.0,469.3,512.7,512.8,514.9,486.3,478.2,495.7,20.2
144.75,466.2,508.9,528.9,504.6,484.5,480.1,495.5,22.8
145.5,471.7,494.0,519.1,528.6,483.0,490.3,497.8,21.8
146.25,484.3,507.9,520.4,480.8,487.0,482.2,493.8,16.4
147.0,483.0,517.9,525.5,507.4,486.1,468.5,498.1,22.3
147.75,495.6,513.3,523.9,505.2,477.8,488.0,500.6,16.9
148.5,481.4,514.3,519.5,518.0,482.5,491.9,501.3,18.0
149.25,491.0,520.2,521.7,506.8,491.2,483.9,502.5,16.2
150.0,480.6,516.9,529.2,498.5,478.0,475.2,496.4,22.5
150.75,473.2,488.2,526.1,509.9,504.8,508.2,501.7,18.5
151.5,477.7,519.0,516.6,501.6,490.9,495.8,500.3,15.7
152.25,494.2,510.8,517.9,510.4,494.7,499.9,504.6,9.8
153.0,488.3,499.4,514.2,511.5,503.2,507.5,504.0,9.4
153.75,481.6,511.3,515.6,510.4,504.4,481.7,500.8,15.3
154.5,491.9,519.5,513.3,516.0,495.4,492.0,504.7,12.9
155.25,481.6,519.4,499.3,516.2,507.7,500.4,504.1,13.7
156.0,483.1,509.2,527.8,509.1,490.9,486.7,501.1,17.2
156.75,492.1,521.6,527.1,510.8,494.3,500.2,507.7,14.5
157.5,497.1,506.0,519.3,513.5,476.4,484.4,499.5,16.7
158.25,490.1,534.4,511.4,511.9,491.9,495.3,505.8,17.0
159.0,487.1,511.9,496.6,503.6,518.3,502.4,503.3,11.0
159.75,478.3,516.8,516.0,491.9,492.2,504.9,500.0,15.2
160.5,502.9,517.9,512.7,514.6,498.7,496.8,507.3,8.9
161.25,486.6,519.0,520.0,496.1,494.6,493.3,501.6,14.2
162.0,488.9,509.9,520.1,506.3,499.2,490.7,502.5,12.0
162.75,488.4,498.6,526.5,501.0,498.9,500.0,502.2,12.7
163.5,490.5,521.2,515.2,495.6,500.0,499.8,503.7,11.9
164.25,483.7,514.7,522.5,497.2,496.1,494.3,501.4,14.4
165.0,490.4,527.0,514.7,504.0,523.6,494.3,509.0,15.2
165.75,483.9,537.2,515.6,517.9,510.3,503.1,511.3,17.6
166.5,497.9,516.5,523.4,506.1,488.6,516.2,508.1,13.1
167.25,488.2,529.3,517.6,521.9,510.6,519.5,514.5,14.2
168.0,475.0,516.8,525.6,529.4,509.2,524.3,513.4,20.1
168.75,490.1,515.1,510.7,516.6,509.2,502.8,507.4,9.8
169.5,491.1,516.4,514.6,510.9,503.2,526.7,510.5,12.2
170.25,504.2,538.4,522.6,519.0,505.9,511.3,516.9,12.8
171.0,497.2,525.9,516.3,530.3,507.2,497.0,512.3,14.2
171.75,502.0,531.1,529.0,524.4,494.3,517.2,516.3,15.1
172.5,502.1,522.1,526.3,535.4,508.5,516.2,518.4,12.1
173.25,500.6,538.4,519.0,523.8,497.7,509.5,514.8,15.3
174.0,517.3,531.0,524.0,530.2,499.5,505.7,518.0,13.0
174.75,502.8,531.1,535.1,538.6,496.4,513.6,519.6,17.8
175.5,510.8,539.6,535.5,536.3,506.8,521.1,525.0,14.1
176.25,504.0,530.5,524.3,519.3,504.3,523.5,517.6,11.0
177.0,521.2,537.0,531.6,524.9,510.9,500.9,521.1,13.3
177.75,504.0,535.9,528.6,528.1,506.4,514.3,519.6,13.1
178.5,498.5,542.1,537.7,537.1,508.3,516.6,523.4,18.1
179.25,489.1,530.8,532.3,524.2,490.1,517.1,513.9,19.6
180.0,502.7,533.8,527.6,539.0,508.2,508.1,519.9,15.4
180.75,508.5,538.9,535.4,518.2,517.7,504.4,520.5,14.0
181.5,500.8,534.1,531.6,534.8,497.6,493.9,515.5,19.9
182.25,497.1,548.3,520.1,540.4,506.6,546.1,526.4,21.7
183.0,513.3,539.9,516.6,528.4,519.0,524.7,523.7,9.7
183.75,501.3,519.3,531.6,519.0,500.5,525.9,516.3,12.8
184.5,517.6,546.1,528.2,516.7,515.9,529.9,525.7,11.7
185.25,504.2,518.5,515.2,528.1,516.5,501.7,514.0,9.7
186.0,510.0,547.7,542.0,530.2,506.9,526.5,527.2,16.5
186.75,497.5,512.8,536.0,537.8,508.9,527.1,520.0,16.2
187.5,497.0,523.7,522.2,524.4,511.5,525.0,517.3,11.2
188.25,499.7,548.0,549.2,547.6,536.4,525.1,534.3,19.4
189.0,507.7,531.0,540.1,525.5,518.1,538.4,526.8,12.4
189.75,505.1,544.8,538.0,537.4,525.4,512.3,527.2,15.8
190.5,500.7,531.0,546.0,530.7,511.3,525.1,524.1,16.0
191.25,513.1,534.1,535.1,521.8,532.3,523.9,526.7,8.6
192.0,503.0,530.9,532.9,529.6,515.6,519.7,522.0,11.5
192.75,510.0,529.1,539.3,532.0,522.7,509.5,523.8,12.1
193.5,515.3,528.6,540.7,535.9,536.6,508.0,527.5,13.1
194.25,516.3,540.5,538.7,536.9,524.5,515.9,528.8,11.3
195.0,516.2,537.4,537.7,531.5,525.9,517.6,527.7,9.4
195.75,512.4,538.3,539.1,541.9,531.4,526.9,531.7,10.9
196.5,509.1,544.4,549.3,532.9,536.1,531.7,533.9,13.9
197.25,505.3,536.9,531.9,540.5,521.0,525.2,526.8,12.8
198.0,514.7,561.9,550.0,554.0,521.9,514.9,536.2,21.4
198.75,520.2,549.5,568.1,565.8,537.7,525.7,544.5,20.1
199.5,501.9,542.3,549.4,574.6,535.3,515.7,536.5,25.6
200.25,512.1,538.3,554.1,549.8,519.5,503.1,529.5,20.9
201.0,524.4,553.4,534.6,556.0,514.7,517.1,533.4,17.9
201.75,538.0,528.6,551.9,548.9,506.2,513.4,531.2,18.6
202.5,512.1,547.3,548.4,563.9,543.2,521.2,539.4,19.2
203.25,524.7,546.9,544.6,554.5,538.0,509.1,536.3,16.7
204.0,509.6,538.5,546.6,573.5,520.4,517.5,534.4,23.6
204.75,510.7,546.4,555.6,552.9,527.4,506.2,533.2,21.6
205.5,521.2,543.7,536.6,536.6,518.0,516.3,528.7,11.6
206.25,516.9,553.8,556.6,560.8,523.7,528.0,540.0,19.2
207.0,515.3,561.0,535.4,535.2,531.9,507.6,531.1,18.6
207.75,535.6,551.4,548.6,548.2,522.3,513.5,536.6,15.7
208.5,550.7,549.8,547.1,540.9,521.0,530.8,540.0,11.9
209.25,541.7,545.0,550.5,548.6,535.8,517.7,539.9,12.0
210.0,548.6,552.0,553.6,546.6,525.6,520.3,541.1,14.4
210.75,549.8,547.2,553.8,561.0,538.5,515.5,544.3,16.0
211.5,527.3,549.7,543.1,555.8,546.2,518.6,540.1,14.2
212.25,530.6,558.8,546.8,559.8,537.8,532.4,544.4,12.9
213.0,536.0,562.5,554.7,553.0,546.3,519.7,545.3,15.4
213.75,549.0,562.8,564.2,569.5,545.4,510.7,550.2,21.5
214.5,527.2,572.1,569.3,563.8,529.3,527.3,548.2,22.3
215.25,539.2,548.7,553.9,540.9,523.2,537.4,540.6,10.5
216.0,539.3,564.1,550.7,564.2,543.6,521.1,547.2,16.4
216.75,551.0,568.5,565.2,556.1,545.1,521.3,551.2,17.0
217.5,530.3,573.0,543.7,563.8,548.7,528.7,548.0,17.8
218.25,555.2,565.8,565.7,563.1,537.7,529.3,552.8,15.7
219.0,534.1,538.3,588.7,583.7,550.2,544.7,556.6,23.6
219.75,548.4,562.2,561.4,582.0,554.2,519.3,554.6,20.7
220.5,550.0,553.3,563.7,566.8,557.0,524.1,552.5,15.3
221.25,536.5,568.3,559.5,559.2,562.0,526.6,552.0,16.5
222.0,535.8,559.0,577.5,570.0,529.9,548.3,553.4,18.8
222.75,527.1,559.4,576.9,553.8,558.2,520.7,549.3,21.3
223.5,532.3,556.2,585.5,576.5,547.4,528.6,554.4,23.1
224.25,521.6,560.8,555.3,572.8,552.3,517.0,546.6,22.3
225.0,546.5,583.8,580.6,575.6,537.0,541.6,560.8,21.4
225.75,534.7,559.2,559.4,569.2,530.9,542.5,549.3,15.4
226.5,552.1,566.3,572.9,573.8,535.6,522.1,553.8,21.3
227.25,533.4,558.0,576.1,558.1,544.6,527.3,549.6,18.1
228.0,540.2,578.2,576.7,561.0,549.3,518.9,554.1,22.8
228.75,548.6,567.1,553.1,552.9,544.4,528.5,549.1,12.7
229.5,541.9,565.5,569.8,570.1,548.1,536.5,555.3,14.9
230.25,547.0,570.6,574.9,581.2,533.5,523.5,555.1,23.9
231.0,551.1,566.3,583.2,589.3,544.4,530.4,560.7,22.9
231.75,537.3,577.9,571.0,561.4,541.9,537.7,554.6,17.9
232.5,541.0,571.7,551.1,581.5,553.4,519.7,553.1,22.0
233.25,544.5,568.7,569.5,582.1,565.5,537.3,561.3,16.9
234.0,547.6,580.3,579.4,587.2,551.8,555.6,567.0,17.2
234.75,554.6,565.5,579.6,572.2,551.1,544.6,561.3,13.4
235.5,543.2,589.6,588.3,585.1,566.0,539.0,568.5,22.9
236.25,547.4,560.5,586.8,574.0,553.6,546.3,561.4,16.1
237.0,563.1,581.2,586.0,576.9,560.9,515.0,563.8,25.9
237.75,551.5,580.6,576.2,573.0,569.4,527.8,563.1,20.0
238.5,557.7,580.2,596.1,566.9,545.6,545.2,565.3,20.1
239.25,565.3,588.5,595.2,569.6,559.0,571.7,574.9,14.0
240.0,559.9,590.2,574.4,579.9,562.7,532.4,566.6,20.1
240.75,547.5,565.5,578.6,584.4,548.4,544.0,561.4,17.3
241.5,561.7,593.0,592.9,596.7,554.5,535.3,572.3,25.5
242.25,546.2,591.7,596.2,562.3,565.1,526.2,564.6,26.7
243.0,565.9,592.2,582.0,573.4,559.6,540.8,569.0,18.0
243.75,563.0,585.4,600.5,570.0,577.8,550.7,574.6,17.5
244.5,563.5,575.0,591.2,576.9,557.9,528.6,565.5,21.5
245.25,552.0,587.1,579.2,573.2,568.1,538.1,566.3,18.2
246.0,568.1,579.4,577.2,584.0,548.5,550.5,567.9,15.2
246.75,541.1,582.7,591.0,590.8,559.2,528.9,565.6,26.7
247.5,563.5,602.7,603.6,583.6,567.1,541.8,577.0,24.2
248.25,565.4,574.8,583.9,592.7,561.0,550.5,571.4,15.5
249.0,570.5,584.3,592.8,587.7,559.0,549.4,573.9,17.3
249.75,577.1,586.4,568.6,595.0,567.8,540.2,572.5,19.0
250.5,560.0,587.6,602.5,563.3,568.3,560.7,573.8,17.4
251.25,558.6,606.2,601.7,573.3,568.1,564.2,578.7,20.2
252.0,588.2,602.8,579.2,594.1,569.5,576.1,585.0,12.3
252.75,551.8,586.4,576.4,602.6,584.9,554.7,576.1,19.7
253.5,572.5,592.4,576.2,605.5,582.4,567.7,582.8,14.0
254.25,558.0,572.8,596.5,604.7,582.0,568.8,580.5,17.6
255.0,562.6,587.6,614.1,587.0,566.7,583.3,583.5,18.4
255.75,564.4,570.4,599.3,618.1,582.4,540.4,579.2,27.3
256.5,566.4,607.0,596.4,607.3,575.1,567.1,586.6,19.3
257.25,575.5,608.4,600.1,605.1,566.8,571.9,587.9,18.5
258.0,549.7,598.0,595.8,605.4,592.1,575.5,586.1,20.4
258.75,559.4,590.8,585.5,606.2,553.4,565.9,576.9,20.5
259.5,568.2,603.0,583.9,600.2,580.9,558.2,582.4,17.5
260.25,582.6,596.8,580.3,585.6,575.6,548.8,578.3,16.1
261.0,568.0,600.6,599.0,587.7,587.3,558.8,583.6,16.8
261.75,553.6,597.8,604.2,591.8,556.9,573.3,579.6,21.5
262.5,549.1,585.1,593.3,587.2,574.6,552.6,573.6,18.7
263.25,547.0,585.2,598.4,602.9,561.7,555.9,575.2,23.5
264.0,586.3,606.5,605.2,591.8,570.6,559.4,586.6,18.8
264.75,576.1,602.8,589.8,604.5,564.3,575.5,585.5,16.2
265.5,575.9,607.5,589.9,603.5,560.1,576.2,585.5,18.2
266.25,587.6,606.0,607.5,581.4,560.8,562.6,584.3,20.2
267.0,569.7,583.9,605.3,586.0,561.0,580.6,581.1,15.2
267.75,568.3,581.5,615.6,609.6,557.6,568.3,583.5,23.8
268.5,558.8,615.3,624.5,599.2,570.1,557.7,587.6,29.3
269.25,558.3,607.4,615.5,592.4,583.6,571.3,588.1,21.6
270.0,562.1,604.4,626.3,621.3,571.0,570.8,592.7,28.2
270.75,574.4,601.4,609.0,609.9,562.9,563.9,586.9,22.3
271.5,562.3,619.2,604.0,602.7,569.7,549.9,584.6,27.6
272.25,564.9,629.0,607.3,598.8,583.2,561.3,590.7,26.0
273.0,584.2,626.9,605.1,613.6,572.1,561.4,593.9,25.4
273.75,564.7,603.8,638.8,625.1,571.6,555.0,593.2,34.5
274.5,558.2,600.0,606.7,594.1,594.2,571.7,587.5,18.6
275.25,570.0,587.8,626.2,614.7,596.8,567.9,593.9,23.5
276.0,559.7,611.8,597.0,634.2,592.2,580.5,595.9,25.6
276.75,562.6,590.9,614.7,628.2,579.4,587.4,593.8,23.9
277.5,560.5,607.4,606.5,586.8,578.0,544.8,580.7,25.0
278.25,570.2,594.4,627.7,623.1,578.0,574.5,594.7,25.2
279.0,579.5,598.8,615.3,605.0,567.0,567.5,588.9,20.4
279.75,581.6,601.8,607.3,611.6,589.1,556.1,591.3,20.6
280.5,596.1,621.9,610.7,614.6,573.3,584.6,600.2,18.8
281.25,575.5,625.1,621.7,616.2,560.8,576.5,596.0,28.1
282.0,586.1,620.8,607.5,613.4,585.3,585.7,599.8,16.0
282.75,563.2,616.8,635.6,588.4,592.0,572.2,594.7,27.2
283.5,600.3,610.8,624.0,633.0,596.7,586.3,608.5,17.6
284.25,597.7,593.9,616.4,605.4,559.4,578.5,591.9,20.3
285.0,576.0,610.2,612.3,608.3,580.3,589.9,596.2,16.2
285.75,593.5,601.4,619.4,617.0,585.3,565.0,596.9,20.5
286.5,597.8,611.2,625.5,627.6,578.8,594.3,605.9,19.1
287.25,585.2,619.4,634.7,601.4,589.4,574.7,600.8,22.6
288.0,605.6,619.6,600.3,609.6,574.2,586.6,599.3,16.4
288.75,591.5,606.7,620.4,631.6,583.3,582.8,602.7,20.3
289.5,585.4,623.5,615.4,608.1,582.6,589.4,600.8,17.2
290.25,578.9,598.0,610.6,600.6,594.2,588.6,595.1,10.8
291.0,576.4,608.1,623.9,619.7,580.5,588.1,599.4,20.5
291.75,577.6,615.5,631.2,613.9,588.3,557.8,597.4,27.5
292.5,574.7,610.8,636.0,630.7,590.1,577.2,603.3,26.7
293.25,603.6,629.4,615.2,628.0,566.8,583.7,604.4,25.1
294.0,588.7,614.0,628.8,636.2,600.1,590.8,609.8,19.9
294.75,604.6,604.7,627.9,616.8,597.4,601.7,608.9,11.4
295.5,582.5,634.6,625.8,641.3,597.0,605.6,614.5,23.1
296.25,593.3,615.6,624.2,617.7,601.4,579.5,605.3,17.0
297.0,611.0,626.8,621.4,619.5,570.9,599.0,608.1,20.7
297.75,603.5,615.8,633.3,655.4,599.1,583.7,615.1,25.8
298.5,595.9,633.0,623.7,629.0,580.2,586.3,608.0,23.2
299.25,593.3,625.0,635.6,642.2,597.6,585.5,613.2,24.0
300.0,622.5,634.1,628.8,624.8,623.0,600.5,622.3,11.5
300.75,592.9,633.7,629.1,633.4,611.2,616.5,619.5,16.0
301.5,612.8,616.0,625.8,622.5,614.1,592.4,613.9,11.7
302.25,598.1,641.8,624.3,635.8,612.0,604.7,619.4,17.4
303.0,604.0,623.1,630.5,657.2,590.7,590.9,616.1,26.0
303.75,617.9,638.8,638.1,628.4,610.3,584.8,619.7,20.5
304.5,621.4,622.8,620.8,652.2,590.3,586.8,615.7,24.2
305.25,608.0,614.2,629.3,636.0,593.0,600.5,613.5,16.6
306.0,610.9,629.3,625.3,622.5,586.2,601.3,612.6,16.5
306.75,605.9,631.4,635.7,624.6,586.6,590.0,612.4,21.2
307.5,603.5,612.4,615.0,614.5,606.1,596.1,607.9,7.4
308.25,631.6,629.9,640.8,598.8,596.1,600.3,616.3,19.9
309.0,601.2,615.4,624.8,627.4,597.7,584.3,608.5,16.9
309.75,616.2,610.0,618.2,640.2,594.6,597.0,612.7,16.6
310.5,618.4,623.2,624.4,642.2,610.4,591.2,618.3,16.9
311.25,603.6,650.4,621.4,649.0,607.7,583.6,619.3,26.5
312.0,609.2,637.5,610.1,624.7,605.3,564.3,608.5,24.8
312.75,647.4,629.8,641.2,609.6,603.8,579.3,618.5,25.7
313.5,627.0,617.4,634.0,629.2,606.6,601.7,619.3,13.0
314.25,620.4,638.2,648.3,643.2,607.3,585.1,623.7,24.3
315.0,609.2,643.0,633.1,626.4,618.4,610.7,623.5,13.2
315.75,636.9,613.2,620.2,624.6,619.9,597.0,618.6,13.2
316.5,619.7,604.8,643.9,653.9,613.2,608.5,624.0,20.2
317.25,615.6,645.1,640.8,644.6,619.5,586.3,625.3,23.0
318.0,625.0,634.7,647.1,640.5,601.5,622.5,628.5,16.1
318.75,632.5,625.9,631.4,636.7,632.9,583.0,623.7,20.3
319.5,600.8,625.3,674.4,665.4,611.6,619.0,632.7,30.0
320.25,634.1,633.8,653.0,647.6,610.4,603.3,630.3,19.8
321.0,625.6,631.0,664.3,639.8,644.0,607.3,635.3,19.1
321.75,648.5,655.0,658.3,638.9,632.3,618.6,641.9,15.0
322.5,617.2,630.3,626.4,632.7,620.2,610.7,622.9,8.4
323.25,611.7,649.7,630.3,623.5,631.8,619.9,627.8,13.0
324.0,630.6,678.6,641.3,650.3,605.8,632.6,639.9,24.1
324.75,638.7,666.5,640.7,657.0,628.6,591.4,637.1,26.2
325.5,642.2,630.4,655.6,615.6,637.4,621.0,633.7,14.6
326.25,647.6,657.4,662.3,622.8,613.0,617.1,636.7,21.6
327.0,639.4,656.5,638.2,646.2,629.2,620.9,638.4,12.5
327.75,636.0,647.8,648.8,631.6,626.5,618.9,634.9,11.8
328.5,628.7,643.3,665.0,646.5,619.5,621.0,637.3,17.6
329.25,630.6,673.2,639.1,632.8,637.1,629.5,640.4,16.5
330.0,629.1,647.0,656.4,641.9,606.0,628.9,634.9,17.7
330.75,613.6,650.7,629.6,636.4,639.2,626.0,632.6,12.6
331.5,623.1,664.4,651.9,641.2,622.2,611.9,635.8,20.1
332.25,652.8,654.2,643.0,632.7,624.4,610.9,636.4,17.0
333.0,652.4,651.0,663.7,625.0,640.4,612.8,640.9,19.0
333.75,624.1,634.9,656.1,654.9,639.4,616.2,637.6,16.1
334.5,639.4,640.5,636.1,659.9,641.7,619.8,639.6,12.8
335.25,635.1,658.8,641.7,626.1,637.5,643.4,640.4,10.9
336.0,644.3,656.5,658.1,631.8,658.1,608.6,642.9,19.8
336.75,597.8,657.2,662.7,653.0,622.7,628.9,637.1,25.0
337.5,628.3,665.9,642.4,674.3,630.0,643.2,647.4,18.8
338.25,648.5,651.4,661.9,668.5,627.3,625.5,647.2,17.6
339.0,634.0,670.7,624.2,652.8,633.3,651.6,644.4,17.1
339.75,646.1,646.2,653.4,652.0,630.8,639.3,644.6,8.4
340.5,642.0,672.0,661.3,655.9,643.8,631.2,651.0,14.8
341.25,628.0,671.4,658.6,680.2,632.3,614.7,647.5,26.3
342.0,627.9,654.4,629.9,698.4,658.0,628.6,649.5,27.5
342.75,651.6,658.8,650.7,671.3,631.8,622.7,647.8,17.8
343.5,639.9,671.1,659.3,654.4,643.3,636.5,650.8,13.2
344.25,654.8,659.6,675.0,669.2,640.8,610.5,651.7,23.4
345.0,648.1,683.1,645.6,664.8,623.4,631.2,649.4,21.9
345.75,652.4,662.4,682.2,651.3,635.5,625.4,651.5,20.0
346.5,655.1,656.5,632.0,653.4,651.1,616.5,644.1,16.2
347.25,654.3,673.8,665.7,676.1,639.8,618.4,654.7,22.3
348.0,652.5,694.2,666.2,667.8,642.5,643.5,661.1,19.5
348.75,679.5,666.9,667.1,663.1,600.7,641.6,653.2,28.5
349.5,658.3,682.3,662.3,654.5,653.1,598.7,651.5,28.0
350.25,646.4,663.6,652.5,675.3,623.5,644.1,650.9,17.8
351.0,663.4,671.7,662.3,656.5,650.7,636.0,656.8,12.4
351.75,682.3,678.2,641.8,689.5,636.1,621.9,658.3,28.4
352.5,646.3,709.2,663.0,635.4,649.3,644.1,657.9,26.7
353.25,653.1,675.4,664.1,666.5,615.3,648.2,653.8,21.2
354.0,656.1,692.8,664.8,664.4,634.0,638.8,658.5,21.2
354.75,655.6,692.8,695.7,670.8,638.2,615.2,661.4,31.5
355.5,654.7,708.6,646.2,694.7,622.0,636.7,660.5,34.0
356.25,672.7,682.5,674.3,653.9,622.7,660.0,661.0,21.4
357.0,658.5,677.3,681.9,695.4,658.4,639.9,668.6,20.0
357.75,664.3,676.3,678.1,677.6,639.4,657.8,665.6,15.3
358.5,655.6,673.1,684.8,669.5,628.2,627.1,656.4,24.1
359.25,657.1,675.6,668.2,660.8,656.0,644.2,660.3,10.8
360.0,649.7,683.2,677.3,645.6,640.7,657.7,659.0,17.5
360.75,655.0,707.9,679.8,682.5,647.5,648.0,670.1,24.1
361.5,655.6,687.1,667.1,665.6,637.3,636.0,658.1,19.5
362.25,661.7,706.7,674.9,661.0,636.4,666.2,667.8,22.9
363.0,661.4,676.1,664.9,678.3,633.0,653.4,661.2,16.6
363.75,663.6,685.1,676.0,679.1,646.5,644.4,665.8,17.2
364.5,676.4,695.4,679.9,673.0,664.3,668.4,676.3,10.9
365.25,661.1,685.9,679.9,700.1,691.4,651.2,678.3,18.6
366.0,669.9,685.3,664.7,680.8,665.8,663.4,671.7,9.2
366.75,680.4,687.7,666.4,671.8,659.7,634.0,666.6,18.8
367.5,651.7,696.6,654.5,656.6,690.0,664.4,669.0,19.4
368.25,673.1,692.6,644.5,699.1,689.5,648.4,674.5,23.4
369.0,677.9,705.1,683.4,658.4,673.5,647.9,674.4,20.0
369.75,671.3,684.4,693.3,682.4,670.6,659.0,676.8,12.2
370.5,683.8,698.1,688.0,672.0,638.9,666.6,674.5,20.8
371.25,677.5,689.3,638.0,678.8,668.9,657.1,668.3,18.3
372.0,675.9,679.4,667.1,671.6,670.7,653.5,669.7,9.0
372.75,672.4,709.6,676.5,671.0,669.0,640.2,673.1,22.1
373.5,688.6,672.2,685.8,667.2,659.2,653.9,671.2,14.0
374.25,669.7,682.0,688.8,703.3,655.7,642.5,673.7,22.3
375.0,666.4,700.1,665.3,691.0,667.2,665.4,675.9,15.5
375.75,679.9,711.9,674.7,684.7,670.3,657.8,679.9,18.2
376.5,670.5,689.9,672.4,702.5,667.2,634.8,672.9,23.1
377.25,702.4,683.6,680.0,682.0,673.3,654.4,679.3,15.6
378.0,670.8,684.8,676.6,679.3,697.9,626.8,672.7,24.3
378.75,708.6,703.2,682.4,681.8,650.5,637.0,677.3,28.4
379.5,699.2,698.6,683.6,683.2,689.5,633.5,681.3,24.4
380.25,688.3,696.9,695.3,688.5,638.2,620.6,671.3,33.1
381.0,696.0,709.1,679.5,673.0,667.4,650.5,679.2,20.9
381.75,672.4,685.6,710.1,706.3,698.8,656.0,688.2,21.0
382.5,682.2,681.7,672.9,693.0,680.1,633.2,673.8,20.9
383.25,680.5,685.0,710.9,676.4,678.5,654.8,681.0,18.0
384.0,692.5,705.1,692.0,697.8,661.8,672.9,687.0,16.3
384.75,677.8,699.1,711.7,694.4,676.5,638.3,683.0,25.6
385.5,677.8,686.4,713.0,700.8,641.8,628.4,674.7,33.2
386.25,686.0,706.2,694.2,678.6,671.7,661.7,683.1,16.0
387.0,665.5,718.4,699.3,682.2,680.9,629.2,679.3,30.5
387.75,676.7,700.4,676.1,700.3,685.8,653.8,682.2,17.6
388.5,685.0,710.8,711.1,677.5,659.7,640.1,680.7,28.1
389.25,691.4,694.6,694.8,700.9,674.5,640.3,682.7,22.6
390.0,689.6,695.5,713.7,716.1,693.4,640.7,691.5,27.2
390.75,681.8,699.0,703.1,725.5,655.7,667.1,688.7,25.6
391.5,692.7,697.0,709.5,701.7,687.3,695.4,697.2,7.7
392.25,695.1,704.4,689.8,711.5,694.8,651.9,691.3,20.8
393.0,707.1,695.5,695.5,705.3,686.6,662.9,692.1,16.2
393.75,678.8,687.3,719.2,719.0,659.4,680.2,690.7,23.9
394.5,701.0,705.2,688.1,746.8,679.1,673.9,699.0,26.4
395.25,699.2,706.8,691.5,725.4,692.2,686.0,700.2,14.3
396.0,718.8,697.4,710.8,740.3,686.3,662.5,702.7,27.0
396.75,691.0,712.3,724.6,729.4,685.9,682.7,704.3,20.4
397.5,693.5,687.4,680.4,711.3,714.9,660.4,691.3,20.3
398.25,694.8,720.2,720.2,720.5,699.6,674.4,704.9,18.8
399.0,713.9,689.5,709.3,701.6,696.2,666.3,696.1,17.1
399.75,691.0,698.6,709.1,696.2,677.8,658.7,688.6,17.8
400.5,697.0,724.0,723.3,711.5,708.9,671.7,706.1,19.6
401.25,706.0,730.1,721.4,733.4,699.3,652.5,707.1,29.9
402.0,718.1,694.4,691.7,734.4,671.9,688.5,699.8,22.5
402.75,677.8,723.5,700.0,746.7,700.6,670.2,703.1,28.5
403.5,710.9,717.1,719.3,722.6,716.8,661.3,708.0,23.2
404.25,688.2,722.0,725.8,713.8,714.3,677.6,706.9,19.5
405.0,692.3,713.1,711.5,716.5,700.3,684.5,703.1,12.8
405.75,701.8,748.5,725.5,723.8,709.3,697.7,717.8,18.8
406.5,698.7,748.5,739.1,724.6,722.8,697.3,721.8,20.7
407.25,692.5,720.9,706.2,721.0,722.9,689.1,708.8,15.2
408.0,703.9,721.7,733.5,716.0,682.6,675.7,705.6,22.7
408.75,724.2,735.3,735.4,720.4,713.5,655.7,714.1,29.9
409.5,688.2,732.3,727.8,710.2,675.3,659.6,698.9,29.3
410.25,697.9,734.7,719.8,727.1,701.4,688.7,711.6,18.2
411.0,716.3,700.7,729.8,726.8,709.3,686.9,711.6,16.2
411.75,717.4,743.3,743.1,752.7,698.4,661.9,719.5,34.6
412.5,714.0,711.8,733.8,734.1,729.9,712.5,722.7,11.0
413.25,704.6,692.4,713.1,698.7,709.5,708.2,704.4,7.7
414.0,705.0,736.5,745.6,730.0,708.1,699.0,720.7,19.1
414.75,719.1,701.1,720.3,735.2,697.7,714.9,714.7,13.7
415.5,678.6,733.3,746.1,702.0,716.4,676.1,708.8,28.6
416.25,718.3,730.5,698.6,728.0,718.4,708.3,717.0,12.0
417.0,721.3,721.9,726.7,720.1,716.1,655.7,710.3,27.0
417.75,703.5,724.5,734.2,687.6,693.2,684.2,704.5,20.5
418.5,694.5,719.1,748.4,717.2,706.4,688.9,712.4,21.3
419.25,706.6,713.4,751.5,703.0,713.5,741.8,721.6,20.0
420.0,709.3,715.8,737.1,728.8,694.7,709.6,715.9,15.2
420.75,712.0,739.3,719.1,713.5,707.5,701.0,715.4,13.2
421.5,710.4,720.8,723.6,729.2,743.4,721.8,724.9,11.0
422.25,691.7,755.0,752.7,718.3,707.1,680.4,717.6,31.0
423.0,692.5,720.8,746.2,707.7,728.2,687.0,713.7,22.4
423.75,727.8,712.2,748.4,727.9,730.4,702.4,724.9,15.9
424.5,731.7,703.3,726.0,738.0,710.3,722.7,722.0,13.1
425.25,715.5,711.1,732.6,695.0,717.4,712.0,713.9,12.1
426.0,735.6,754.0,721.3,740.8,677.9,711.6,723.5,26.8
426.75,691.1,722.7,750.6,700.8,743.4,757.3,727.7,27.3
427.5,720.3,701.2,721.8,742.6,693.2,702.7,713.6,18.1
428.25,696.2,729.7,721.3,703.6,709.0,730.2,715.0,14.2
429.0,721.4,743.4,739.9,693.8,752.1,707.3,726.3,22.7
429.75,731.0,727.4,707.2,711.0,680.9,710.3,711.3,17.9
430.5,732.5,764.2,729.5,691.2,718.8,706.2,723.7,25.0
431.25,721.9,733.3,742.7,717.6,707.3,728.0,725.1,12.4
432.0,708.8,737.0,714.8,755.2,717.9,740.4,729.0,17.9
432.75,732.4,752.8,732.2,735.9,701.6,740.2,732.5,17.0
433.5,745.8,748.8,721.2,722.5,721.5,722.8,730.4,13.1
434.25,712.7,772.6,741.2,725.4,720.8,733.0,734.3,21.2
435.0,714.1,757.8,710.1,763.8,732.8,713.4,732.0,23.7
435.75,732.4,773.9,735.4,733.0,723.3,734.8,738.8,17.7
436.5,772.0,750.1,748.9,699.8,730.1,722.4,737.2,25.2
437.25,708.8,796.4,737.5,726.2,733.9,751.9,742.4,30.0
438.0,725.8,780.4,757.3,729.7,737.5,747.7,746.4,20.3
438.75,723.7,773.3,706.0,725.1,717.0,703.9,724.9,25.3
439.5,749.5,768.2,751.6,710.9,722.2,731.4,739.0,21.2
440.25,736.2,775.3,757.4,719.3,735.2,713.6,739.5,23.3
441.0,724.2,778.7,736.9,710.1,756.3,717.1,737.2,26.1
441.75,754.0,795.5,729.6,729.5,749.6,702.6,743.5,31.3
442.5,768.6,762.6,734.5,728.0,741.7,736.2,745.3,16.5
443.25,731.9,792.6,742.1,727.5,769.6,724.6,748.0,27.3
444.0,744.8,742.5,743.1,710.4,722.1,725.7,731.4,14.2
444.75,762.0,795.6,756.7,729.7,750.2,753.6,758.0,21.5
445.5,757.9,779.8,758.4,732.2,732.0,722.8,747.2,21.7
446.25,730.3,771.1,765.6,749.8,766.8,725.0,751.4,19.9
447.0,754.2,756.4,746.6,753.8,756.1,728.2,749.2,10.9
447.75,736.7,764.6,746.5,731.7,724.5,741.4,740.9,13.9
448.5,783.3,761.8,754.2,727.7,744.9,718.8,748.5,23.5
449.25,735.5,753.6,767.3,736.3,760.2,732.3,747.5,14.8
450.0,749.7,779.8,741.3,754.4,748.2,730.4,750.6,16.5
450.75,747.3,749.7,760.7,732.7,724.1,734.8,741.5,13.4
451.5,760.4,764.1,752.6,709.3,757.0,767.6,751.8,21.5
452.25,772.1,753.3,755.5,723.5,760.6,767.9,755.5,17.2
453.0,772.5,766.2,744.9,711.0,748.5,730.1,745.5,22.8
453.75,723.6,782.8,745.2,742.3,744.9,777.4,752.7,22.7
454.5,743.5,770.4,769.9,727.3,715.5,762.4,748.2,23.2
455.25,729.1,766.0,765.9,737.3,730.8,760.4,748.3,17.7
456.0,746.9,740.1,767.8,739.9,762.0,743.1,750.0,12.0
456.75,754.6,784.6,746.4,725.7,733.6,783.8,754.8,24.9
457.5,746.4,772.9,761.7,736.8,752.6,754.7,754.2,12.4
458.25,729.6,756.3,760.9,693.7,738.4,769.5,741.4,27.6
459.0,747.9,778.9,760.8,705.9,739.8,762.6,749.3,25.1
459.75,755.9,776.5,760.5,740.3,703.3,785.9,753.7,29.4
460.5,747.7,792.1,757.0,726.5,728.0,762.1,752.3,24.4
461.25,750.5,768.0,762.4,709.4,752.4,793.1,756.0,27.5
462.0,731.0,751.9,772.0,688.6,743.7,770.8,743.0,31.0
462.75,757.6,758.7,737.9,704.8,743.6,738.2,740.1,19.6
463.5,757.0,762.3,766.4,723.2,742.0,751.6,750.4,15.8
464.25,762.7,773.4,752.0,710.7,726.5,743.6,744.8,23.2
465.0,762.5,761.6,782.8,704.5,720.4,755.3,747.8,29.4
465.75,732.3,734.8,742.4,707.0,758.7,734.6,735.0,16.8
466.5,744.3,761.1,725.3,718.5,730.4,755.7,739.2,17.2
467.25,766.1,741.8,769.5,720.0,730.2,737.4,744.2,19.8
468.0,760.0,753.9,750.4,729.6,712.4,750.2,742.8,18.0
468.75,735.5,747.0,748.5,674.3,717.5,769.2,732.0,33.0
469.5,754.2,759.3,755.6,705.6,741.7,734.2,741.8,20.1
470.25,745.5,749.3,761.2,710.7,732.8,746.6,741.0,17.4
471.0,765.5,727.9,753.2,722.2,727.1,737.6,739.0,17.1
471.75,702.9,719.9,754.7,708.8,708.3,757.0,725.3,24.3
472.5,768.8,712.6,783.5,732.8,746.1,737.9,747.0,25.6
473.25,741.8,757.2,745.8,710.5,736.8,757.1,741.5,17.3
474.0,755.1,732.9,743.6,703.4,719.1,746.5,733.4,19.2
474.75,745.0,732.5,737.1,694.6,726.0,755.4,731.8,20.9
475.5,726.0,725.3,750.9,690.7,724.5,765.8,730.5,25.8
476.25,715.0,705.9,762.5,678.7,741.4,775.2,729.8,36.5
477.0,723.6,716.6,757.9,709.6,705.4,748.2,726.9,21.4
477.75,696.0,702.7,748.4,719.5,690.3,730.8,714.6,22.4
478.5,737.6,728.5,741.1,682.6,709.6,736.3,722.6,22.6
479.25,747.5,715.7,733.2,698.4,704.5,719.1,719.7,18.2
480.0,703.6,718.3,731.8,705.1,694.1,717.9,711.8,13.5
480.75,719.2,721.2,719.4,685.9,675.9,740.6,710.4,24.4
481.5,711.2,725.7,739.3,690.4,697.5,721.4,714.3,18.3
482.25,678.3,731.5,742.0,687.3,687.1,706.1,705.4,26.2
483.0,708.2,677.9,716.1,702.2,689.6,725.4,703.2,17.4
483.75,704.0,724.6,723.0,686.3,691.0,726.1,709.2,17.9
484.5,712.7,714.8,722.6,703.4,670.5,719.6,707.3,19.2
485.25,715.4,698.9,710.6,699.4,670.7,728.7,703.9,19.7
486.0,727.2,694.3,730.8,678.7,673.4,734.9,706.5,27.8
486.75,718.7,707.4,705.6,720.2,653.2,756.8,710.3,33.5
487.5,731.6,704.6,714.1,715.1,657.7,706.7,705.0,25.0
488.25,727.9,686.9,707.2,691.9,650.4,732.0,699.4,30.2
489.0,696.2,683.1,727.5,684.3,656.0,749.3,699.4,33.7
489.75,726.9,684.2,718.9,678.9,661.0,721.2,698.5,27.3
490.5,731.8,685.1,703.8,669.5,640.2,731.3,693.6,36.0
491.25,712.5,662.7,691.9,658.9,620.5,735.9,680.4,41.5
492.0,712.4,711.2,718.6,651.5,618.4,732.6,690.8,45.2
492.75,694.0,649.4,688.1,642.7,621.1,713.8,668.2,35.7
493.5,729.8,682.1,692.6,642.2,614.2,714.7,679.3,43.8
494.25,708.3,661.8,721.2,634.5,604.8,722.1,675.5,49.4
495.0,696.8,693.6,692.7,626.5,597.1,709.0,669.3,45.9
495.75,698.2,675.7,693.8,631.5,593.1,735.8,671.4,51.2
496.5,698.6,657.2,694.4,654.2,575.3,709.7,664.9,49.4
497.25,702.6,662.5,690.6,606.6,563.3,695.6,653.5,56.5
498.0,688.9,642.6,676.1,601.9,570.2,723.3,650.5,57.1
498.75,701.3,660.8,687.0,622.7,550.7,702.0,654.1,58.9
499.5,677.3,669.9,694.9,596.5,554.4,711.1,650.7,61.5
500.25,702.4,649.7,686.4,589.6,529.1,716.8,645.7,73.1
501.0,705.0,623.4,670.6,590.4,525.5,713.1,638.0,72.6
501.75,686.1,631.0,670.1,579.0,527.7,677.9,628.6,63.4
502.5,654.6,610.8,678.6,583.6,504.3,676.6,618.1,67.2
503.25,682.7,561.2,665.9,567.6,502.0,693.7,612.2,79.0
504.0,695.5,592.9,669.5,555.9,501.6,690.4,617.7,79.9
504.75,678.4,560.4,665.8,563.7,485.5,686.3,606.7,82.0
505.5,676.4,541.8,654.1,524.3,477.2,698.7,595.4,92.3
506.25,639.0,533.1,643.3,527.4,475.2,683.1,583.5,82.5
507.0,661.2,506.6,613.1,527.6,468.5,692.7,578.3,90.5
507.75,672.4,494.8,614.8,509.6,460.3,707.0,576.5,102.3
508.5,680.9,481.6,609.7,499.6,452.2,696.0,570.0,106.2
509.25,670.9,463.1,599.8,492.6,446.3,659.9,555.4,100.6
510.0,665.4,445.9,590.2,483.3,431.9,674.0,548.4,109.1
510.75,654.9,430.3,579.1,475.0,418.1,681.5,539.8,114.8
511.5,668.1,399.5,554.4,455.7,400.5,663.2,523.6,123.7
512.25,660.1,371.6,535.3,447.7,387.2,673.7,512.6,132.7
513.0,656.4,339.2,514.9,447.5,371.1,677.5,501.1,142.4
513.75,639.0,314.9,517.7,424.7,362.3,661.3,486.6,143.9
514.5,643.0,287.8,487.6,419.1,351.2,659.5,474.7,152.3
515.25,644.0,264.7,459.9,410.8,337.4,663.3,463.3,161.7
516.0,627.7,241.9,444.4,409.8,320.8,662.2,451.1,166.3
516.75,624.9,222.2,414.3,389.6,311.9,667.4,438.4,174.9
517.5,608.1,202.9,399.5,376.4,285.6,653.6,421.0,177.4
518.25,606.5,182.0,386.9,362.5,277.9,659.4,412.5,186.0
519.0,604.2,162.9,369.6,351.3,266.7,647.4,400.4,189.8
519.75,621.1,146.8,347.2,317.0,248.9,641.0,387.0,201.3
520.5,600.2,131.2,322.7,298.5,233.4,640.6,371.1,204.6
521.25,587.8,121.2,302.4,278.6,225.6,624.7,356.7,203.4
522.0,583.6,109.9,282.7,254.2,213.3,623.3,344.5,209.3
522.75,588.6,100.1,255.8,236.8,197.2,620.5,333.2,217.2
523.5,589.2,91.9,237.2,218.0,184.4,604.9,320.9,219.7
524.25,603.0,82.9,210.6,195.9,175.1,600.7,311.4,229.4
525.0,578.4,75.7,199.3,181.3,159.7,588.8,297.2,225.9
525.75,569.2,67.0,185.5,166.5,148.3,565.8,283.7,223.5
526.5,569.4,58.3,168.9,151.7,138.4,545.0,271.9,224.3
527.25,542.9,51.3,158.3,134.8,128.5,519.2,255.9,216.3
528.0,556.1,45.4,145.7,122.1,118.3,505.4,248.8,221.5
528.75,541.1,39.9,131.2,111.3,110.4,472.3,234.4,214.3
529.5,521.2,35.8,120.1,102.0,101.4,453.6,222.3,208.4
530.25,511.2,31.3,108.6,89.6,93.9,421.5,209.4,202.8
531.0,514.0,26.9,97.9,81.8,,389.6,222.0,215.9
531.75,509.5,23.1,87.3,72.3,,358.5,210.1,212.5
532.5,488.5,19.6,79.0,63.8,,330.7,196.3,203.7
533.25,481.7,15.5,70.8,55.6,,305.4,185.8,200.6
534.0,471.9,12.6,64.6,48.8,,,149.4,216.0
534.75,458.6,10.0,59.1,43.3,,,142.8,211.6
535.5,465.1,8.1,55.6,38.4,,,141.8,216.4
536.25,457.6,6.5,48.9,33.2,,,136.6,214.7
537.0,435.8,5.2,43.8,29.7,,,128.6,205.4
537.75,427.0,3.9,38.9,26.1,,,124.0,202.5
538.5,419.4,2.8,34.4,22.6,,,119.8,200.2
539.25,418.4,1.8,30.6,,,,150.3,232.6
540.0,406.1,1.1,27.6,,,,144.9,226.6
540.75,394.7,0.6,24.9,,,,140.1,220.9
541.5,392.7,0.2,22.8,,,,138.6,220.3
542.25,394.6,-0.0,20.5,,,,138.4,222.1
543.0,375.7,-0.2,18.0,,,,131.2,212.0
543.75,368.9,-0.4,15.7,,,,128.1,208.7
544.5,359.9,-0.6,13.7,,,,124.3,204.1
545.25,348.1,-0.9,12.3,,,,119.8,197.8
546.0,335.0,-0.6,10.5,,,,114.9,190.7
546.75,322.8,-0.4,,,,,161.2,228.6
547.5,305.3,-0.3,,,,,152.5,216.1
548.25,289.7,-0.2,,,,,144.7,205.0
549.0,276.5,-0.1,,,,,138.2,195.6
549.75,256.6,,,,,,256.6,
550.5,241.0,,,,,,241.0,
551.25,231.8,,,,,,231.8,
552.0,222.9,,,,,,222.9,
552.75,211.8,,,,,,211.8,
553.5,201.4,,,,,,201.4,
554.25,189.8,,,,,,189.8,
555.0,181.9,,,,,,181.9,
555.75,170.6,,,,,,170.6,
556.5,160.9,,,,,,160.9,
557.25,149.9,,,,,,149.9,
558.0,137.4,,,,,,137.4,
558.75,125.2,,,,,,125.2,
559.5,117.3,,,,,,117.3,
560.25,109.6,,,,,,109.6,
561.0,101.5,,,,,,101.5,
561.75,92.7,,,,,,92.7,
562.5,86.5,,,,,,86.5,
563.25,79.4,,,,,,79.4,
564.0,73.1,,,,,,73.1,
564.75,67.4,,,,,,67.4,
565.5,62.9,,,,,,62.9,
566.25,59.5,,,,,,59.5,
567.0,55.9,,,,,,55.9,
567.75,53.2,,,,,,53.2,
568.5,50.7,,,,,,50.7,
569.25,47.9,,,,,,47.9,
570.0,43.6,,,,,,43.6,
570.75,41.3,,,,,,41.3,
571.5,38.4,,,,,,38.4,
572.25,37.2,,,,,,37.2,
573.0,33.2,,,,,,33.2,
573.75,32.1,,,,,,32.1,
574.5,30.0,,,,,,30.0,
575.25,28.2,,,,,,28.2,
576.0,26.5,,,,,,26.5,
576.75,24.1,,,,,,24.1,
577.5,22.2,,,,,,22.2,
578.25,19.4,,,,,,19.4,
579.0,17.6,,,,,,17.6,
579.75,15.6,,,,,,15.6,
580.5,14.3,,,,,,14.3,
581.25,13.0,,,,,,13.0,
582.0,11.6,,,,,,11.6,
582.75,10.5,,,,,,10.5,
583.5,9.7,,,,,,9.7,
584.25,8.6,,,,,,8.6,
585.0,8.0,,,,,,8.0,
585.75,7.1,,,,,,7.1,
586.5,6.7,,,,,,6.7,
587.25,6.1,,,,,,6.1,
588.0,5.2,,,,,,5.2,
588.75,4.4,,,,,,4.4,
589.5,3.8,,,,,,3.8,
590.25,3.4,,,,,,3.4,
591.0,3.0,,,,,,3.0,
591.75,2.3,,,,,,2.3,
592.5,1.6,,,,,,1.6,
593.25,1.0,,,,,,1.0,
594.0,0.3,,,,,,0.3,
594.75,-0.2,,,,,,-0.2,