File: 01_Data/Composite_Deck_Board/Cone/Composite_Deck_Board_Cone_HF50Scan_221209_R3.csv
Names,Time,Stack TC,Smoke TC,Exh Press,Smoke Comp,Smoke Meas,CO Meter,CO2 Meter,O2 Meter,Sample Mass,Ext Coeff,Start Test,Flame Verif
Chan Gain,,500,500,1,1,1,1,1,1,1,1,1.0,1.0
Offset,,0,0,0.136389,0,0,0,0,0,0,0,0.0,0.0
Gain,,1,1,25.011,14.2696,296.664,1,1,1,1.0009,1.04656,1.0,1.0
Units,sec,C,C,Pa,%,%,%,%,%,g,/m,,
Baseline,,35.0454,36.1877,155.243,106.186,115.499,0.00067381,0.07153,20.9423,-444.798,-0.771646,,
15,3.5,32.3618,34.1077,158.706,107.166,116.744,0.000333813,0.078616,20.9337,199.128,-0.785879,0.0,0.0
30,7.25,32.6304,33.8573,154.726,107.127,116.382,0.000583226,0.0771001,20.9358,199.118,-0.760752,0.0,0.0
45,11,33.0783,34.3182,155.315,107.039,115.486,0.000594387,0.0751211,20.9381,199.088,-0.697282,0.0,0.0
60,14.75,32.7442,34.1329,156.601,106.873,116.255,0.000823168,0.0739908,20.9384,199.088,-0.772532,0.0,0.0
75,18.5,32.7095,34.0036,153.898,106.644,113.25,0.00164285,0.0746735,20.9337,199.048,-0.551714,0.0,0.0
90,22.25,33.1928,33.9739,157.471,106.331,113.82,0.00324703,0.0780148,20.9223,198.978,-0.624865,0.0,0.0
105,26,33.0763,34.1002,151.579,106.277,117.315,0.00394959,0.0921399,20.8983,198.898,-0.907114,0.0,0.0
120,29.75,33.7834,34.8726,146.537,106.373,121.742,0.00333957,0.138679,20.8245,198.778,-1.23891,0.0,1.0
135,33.5,35.3626,35.7352,130.392,106.48,123.462,0.00373184,0.25753,20.6649,198.498,-1.35847,0.0,0.0
150,37.25,40.0642,39.6977,120.058,106.62,128.541,0.00598675,0.50586,20.2416,198.017,-1.71653,0.0,0.0
165,41,47.8154,47.1947,117.309,106.759,130.578,0.00962976,0.803512,19.8131,197.437,-1.84888,0.0,0.0
180,44.75,57.4221,56.9819,108.46,106.854,127.129,0.0129064,1.10786,19.3168,196.716,-1.59499,0.0,0.0
195,48.5,67.6786,67.6933,103.144,106.901,128.858,0.0156141,1.34699,18.9283,195.896,-1.71494,0.0,0.0
210,52.25,78.5257,79.6184,104.425,106.92,134.371,0.0169066,1.48758,18.7215,195.115,-2.09793,0.0,0.0
225,56,86.9749,89.7171,110.69,106.893,127.237,0.0169488,1.52037,18.6857,194.234,-1.59946,0.0,0.0
240,59.75,94.4883,98.3427,105.748,106.818,131.918,0.0165507,1.48995,18.7371,193.483,-1.93759,0.0,0.0
255,63.5,99.8848,105.778,108.348,106.693,128.423,0.0153579,1.41213,18.872,192.743,-1.70182,0.0,0.0
270,67.25,103.454,110.952,107.774,106.535,137.042,0.014483,1.30826,19.0414,192.002,-2.31176,0.0,0.0
285,71,106.352,114.632,114.21,106.373,132.742,0.0132663,1.19878,19.2437,191.291,-2.03303,0.0,0.0
300,74.75,107.541,117.449,112.968,106.224,129.845,0.0118358,1.09209,19.4044,190.641,-1.84335,0.0,0.0
315,78.5,108.08,118.856,115.791,106.075,129.781,0.0105435,0.983925,19.5774,190,-1.85171,0.0,0.0
330,82.25,107.986,119.369,122.238,105.962,131.329,0.00959965,0.908609,19.6987,189.48,-1.97034,0.0,0.0
345,86,107.035,119.198,126.863,105.831,124.422,0.00918409,0.8528,19.7768,188.939,-1.48571,0.0,0.0
360,89.75,106.561,118.986,120.916,105.77,130.931,0.00900424,0.802133,19.8547,188.419,-1.95911,0.0,0.0
375,93.5,105.754,118.474,122.906,105.751,132.099,0.00856581,0.766248,19.9109,187.918,-2.04233,0.0,0.0
390,97.25,104.743,117.818,123.886,105.721,125.988,0.00804434,0.74069,19.9465,187.398,-1.61003,0.0,0.0
405,101,103.902,117.227,128.938,105.712,132.923,0.00788801,0.714136,19.9888,186.917,-2.10274,0.0,0.0
420,104.75,103.06,116.38,120.719,105.68,128.668,0.00759669,0.69179,20.0247,186.467,-1.80685,0.0,0.0
435,108.5,102.083,115.589,132.543,105.688,128.125,0.00768753,0.672758,20.047,186.027,-1.76729,0.0,0.0
450,112.25,101.081,114.405,127.3,105.713,127.69,0.007812,0.651314,20.0852,185.566,-1.73394,0.0,0.0
465,116,99.5593,112.906,128.166,105.739,124.874,0.00755637,0.633019,20.1114,185.116,-1.52702,0.0,0.0
480,119.75,98.5439,112.132,129.222,105.776,129.401,0.00758065,0.618375,20.1341,184.645,-1.85067,0.0,0.0
495,123.5,97.7671,111.109,125.647,105.81,133.14,0.00738432,0.606535,20.1528,184.225,-2.10926,0.0,0.0
510,127.25,97.2993,109.936,132.891,105.884,128.948,0.00699858,0.593144,20.1745,183.805,-1.80917,0.0,0.0
525,131,96.0936,108.738,128.14,105.996,128.469,0.00671653,0.580748,20.1894,183.404,-1.76524,0.0,0.0
540,134.75,94.7013,107.76,135.158,106.072,126.069,0.00650068,0.56342,20.2183,183.024,-1.58558,0.0,0.0
555,138.5,93.8167,106.817,130.126,106.177,132.479,0.00645291,0.547439,20.2387,182.574,-2.03175,0.0,0.0
570,142.25,92.8244,105.663,130.969,106.292,130.225,0.00677725,0.548951,20.2364,182.203,-1.86425,0.0,0.0
585,146,92.1407,104.303,131.031,106.429,130.922,0.0070457,0.546448,20.2392,181.813,-1.90146,0.0,0.0
600,149.75,91.5089,103.811,128.757,106.586,135.431,0.00688907,0.540808,20.2491,181.453,-2.19878,0.0,0.0
615,153.5,90.0415,102.339,129.501,106.688,128.903,0.00652366,0.525559,20.271,181.032,-1.73651,0.0,0.0
630,157.25,89.5783,101.455,132.978,106.807,130.614,0.00642127,0.51794,20.2821,180.582,-1.84731,0.0,0.0
645,161,88.7974,100.279,132.14,106.868,128.487,0.00659059,0.515086,20.2898,180.231,-1.6913,0.0,0.0
660,164.75,87.9993,99.8961,132.837,106.913,133.149,0.00666675,0.51227,20.2927,179.861,-2.01464,0.0,0.0
675,168.5,87.7827,99.0821,129.044,106.914,132.244,0.00648483,0.51136,20.2945,179.481,-1.95197,0.0,0.0
690,172.25,87.3059,98.2313,133.251,106.838,130.497,0.00637303,0.50393,20.3068,179.11,-1.83641,0.0,0.0
705,176,86.4558,96.7944,135.417,106.709,131.764,0.00630522,0.494762,20.3195,178.77,-1.93623,0.0,0.0
720,179.75,85.7585,96.3579,129.329,106.531,128.659,0.00642453,0.488874,20.3295,178.41,-1.73258,0.0,0.0
735,183.5,85.081,95.5236,133.22,106.428,130.524,0.00638095,0.488447,20.3281,178.04,-1.87356,0.0,0.0
750,187.25,84.932,94.9731,134.991,106.315,129.664,0.00617042,0.492962,20.3244,177.659,-1.8226,0.0,0.0
765,191,84.5239,94.3978,136.179,106.33,130.488,0.00603616,0.486797,20.3309,177.299,-1.87947,0.0,0.0
780,194.75,84.1889,93.651,129.591,106.724,132.307,0.00622838,0.483936,20.3351,176.949,-1.97265,0.0,0.0
795,198.5,83.9483,93.6758,139.046,106.972,133.131,0.00633947,0.478524,20.342,176.628,-2.00835,0.0,0.0
810,202.25,83.5575,92.9044,130.437,107.132,132.543,0.00636483,0.475641,20.3488,176.238,-1.95397,0.0,0.0
825,206,83.3356,92.8359,129.74,107.167,134.725,0.00648617,0.473563,20.3502,175.888,-2.10085,0.0,0.0
840,209.75,83.3697,92.2401,140.339,107.075,134.743,0.00629115,0.473744,20.3505,175.507,-2.10995,0.0,0.0
855,213.5,82.7652,91.3397,132.699,106.872,131.538,0.00605178,0.472025,20.3536,175.157,-1.90641,0.0,0.0
870,217.25,82.4744,90.9925,130.14,106.68,130.714,0.00590386,0.472155,20.3548,174.857,-1.86524,0.0,0.0
885,221,82.2385,90.8651,134.641,106.855,130.46,0.00598504,0.471658,20.3562,174.456,-1.83233,0.0,0.0
900,224.75,82.1704,90.6278,132.24,107.067,129.057,0.00608512,0.471289,20.356,174.086,-1.71484,0.0,0.0
915,228.5,81.5027,90.4205,129.471,107.259,131.076,0.00604553,0.468929,20.3581,173.746,-1.84093,0.0,0.0
930,232.25,81.6317,89.6395,133.073,107.447,130.279,0.00573481,0.468441,20.3599,173.355,-1.76891,0.0,0.0
945,236,81.7068,89.6032,131.671,107.547,131.846,0.00570492,0.465873,20.3635,173.005,-1.87007,0.0,0.0
960,239.75,81.035,89.1226,131.166,107.594,128.432,0.00601737,0.46208,20.3683,172.655,-1.62527,0.0,0.0
975,243.5,81.1562,89.1954,134.139,107.574,130.578,0.00619796,0.463581,20.3663,172.324,-1.77905,0.0,0.0
990,247.25,80.8817,88.5323,132.349,107.448,130.868,0.00620035,0.465592,20.3628,171.974,-1.81021,0.0,0.0
1005,251,80.7322,88.5412,138.89,107.209,130.017,0.00623926,0.458688,20.3715,171.594,-1.77077,0.0,0.0
1020,254.75,80.6987,88.0019,135.263,106.885,131.176,0.00591415,0.458569,20.3728,171.253,-1.88001,0.0,0.0
1035,258.5,80.1415,87.7702,135.807,106.519,127.79,0.00588899,0.459357,20.3704,170.893,-1.67141,0.0,0.0
1050,262.25,80.1918,87.6592,136.131,106.163,128.55,0.00614598,0.461601,20.3682,170.543,-1.75659,0.0,0.0
1065,266,80.0406,87.6264,131.121,105.855,130.343,0.00622878,0.460357,20.3694,170.213,-1.91042,0.0,0.0
1080,269.75,79.8558,87.4254,130.679,105.665,129.971,0.00615061,0.457018,20.3721,169.862,-1.90069,0.0,0.0
1095,273.5,79.8812,87.2481,132.527,105.636,129.555,0.00620105,0.456032,20.3759,169.492,-1.8738,0.0,0.0
1110,277.25,79.856,87.3417,134.503,105.809,129.483,0.00589144,0.454408,20.3781,169.172,-1.85365,0.0,0.0
1125,281,79.56,86.737,131.472,106.113,131.474,0.0055452,0.454778,20.3769,168.771,-1.96742,0.0,0.0
1140,284.75,79.5497,86.7265,134.163,106.448,129.745,0.00602702,0.454605,20.376,168.481,-1.81695,0.0,0.0
1155,288.5,79.5007,86.6391,134.428,106.746,133.195,0.00630379,0.454546,20.3739,168.101,-2.03217,0.0,0.0
1170,292.25,79.383,86.1752,131.047,106.927,128.93,0.00620583,0.451172,20.3804,167.76,-1.71789,0.0,0.0
1185,296,79.371,86.2334,128.774,106.954,127.572,0.00614384,0.448326,20.3835,167.45,-1.61833,0.0,0.0
1200,299.75,78.9975,86.2633,130.699,106.854,128.65,0.00623314,0.450465,20.3818,167.13,-1.70417,0.0,0.0
1215,303.5,78.7377,85.8432,135.99,106.609,131.085,0.00614635,0.450208,20.3837,166.739,-1.89738,0.0,0.0
1230,307.25,78.8457,85.6297,134.126,106.382,129.347,0.00584923,0.450461,20.3847,166.409,-1.79439,0.0,0.0
1245,311,78.8076,85.6223,133.205,106.336,128.079,0.00582107,0.447097,20.388,166.079,-1.70793,0.0,0.0
1260,314.75,78.6896,85.0974,133.455,106.848,131.954,0.005788,0.443542,20.3929,165.729,-1.93752,0.0,0.0
1275,318.5,78.7942,85.2064,134.558,107.132,131.293,0.00617187,0.443835,20.3928,165.378,-1.86699,0.0,0.0
1290,322.25,78.664,85.2258,131.908,107.122,130.795,0.00644271,0.446069,20.3905,165.018,-1.83296,0.0,0.0
1305,326,78.4322,84.8149,134.633,106.799,132.407,0.00629682,0.44557,20.3923,164.648,-1.97312,0.0,0.0
1320,329.75,78.4606,85.0736,132.879,106.811,128.586,0.00598925,0.444221,20.3936,164.357,-1.70328,0.0,0.0
1335,333.5,78.5446,84.9274,136.196,107.132,131.293,0.00613395,0.44464,20.3925,164.017,-1.86703,0.0,0.0
1350,337.25,78.6322,84.6332,132.727,107.448,129.446,0.00629215,0.443005,20.3966,163.667,-1.70992,0.0,0.0
1365,341,78.2564,84.8091,136.019,107.598,133.421,0.00612584,0.439094,20.4029,163.326,-1.97476,0.0,0.0
1380,344.75,78.272,84.6882,132.378,107.544,131.085,0.00576544,0.437161,20.4068,162.936,-1.81722,0.0,0.0
1395,348.5,78.1037,84.7692,136.383,107.26,130.379,0.0058908,0.437311,20.407,162.596,-1.7919,0.0,0.0
1410,352.25,78.0601,84.5054,131.622,106.758,130.451,0.0055593,0.437859,20.4061,162.325,-1.84008,0.0,0.0
1425,356,77.9113,84.7586,137.538,106.224,127.636,0.00574156,0.43627,20.407,161.985,-1.68582,0.0,0.0
1440,359.75,77.8068,84.2286,133.8,105.8,128.722,0.00597343,0.434719,20.408,161.625,-1.80029,0.0,0.0
1455,363.5,77.6477,84.0899,134.021,105.67,131.275,0.00586004,0.436617,20.4041,161.295,-1.99189,0.0,0.0
1470,367.25,77.5653,83.8591,134.603,105.816,128.423,0.00584487,0.438323,20.4026,160.934,-1.7776,0.0,0.0
1485,371,77.8516,83.4997,136.415,106.173,129.962,0.005708,0.435995,20.4067,160.634,-1.856,0.0,0.0
1500,374.75,77.669,83.9467,128.709,106.587,125.372,0.00581903,0.433905,20.4085,160.274,-1.49023,0.0,0.0
1515,378.5,77.7501,83.8473,129.97,106.895,131.963,0.00572393,0.433328,20.4083,159.943,-1.93411,0.0,0.0
1530,382.25,77.7329,83.7141,132.504,107.011,133.303,0.0056632,0.433369,20.4084,159.633,-2.01684,0.0,0.0
1545,386,78.0071,83.9927,130.104,106.848,131.04,0.00585557,0.433224,20.4112,159.293,-1.87369,0.0,0.0
1560,389.75,77.5195,84.0773,137.279,106.513,131.556,0.00572142,0.432184,20.4148,158.982,-1.93855,0.0,0.0
1575,393.5,77.7537,84.0182,130.299,106.299,134.417,0.00533557,0.430919,20.4165,158.632,-2.15453,0.0,0.0
1590,397.25,78.0186,83.9721,130.701,106.727,129.311,0.00571506,0.433827,20.4134,158.312,-1.76207,0.0,0.0
1605,401,77.703,83.4581,132.567,107.106,128.505,0.00583159,0.432547,20.4141,158.012,-1.67215,0.0,0.0
1620,404.75,77.7748,83.687,133.535,107.046,130.832,0.0057848,0.432886,20.4129,157.641,-1.84208,0.0,0.0
1635,408.5,77.5528,83.7468,136.041,106.651,132.669,0.00581715,0.432983,20.4126,157.231,-2.00408,0.0,0.0
1650,412.25,77.5959,83.6108,132.77,106.952,128.061,0.00567544,0.433108,20.4123,156.931,-1.65367,0.0,0.0
1665,416,77.4106,83.509,133.581,107.278,130.822,0.00602228,0.432366,20.4132,156.55,-1.82152,0.0,0.0
1680,419.75,77.6083,83.7053,134.08,107.533,132.706,0.00627024,0.433716,20.4098,156.23,-1.93099,0.0,0.0
1695,423.5,77.5294,83.5427,131.208,107.577,130.976,0.00622725,0.433997,20.4072,155.88,-1.80679,0.0,0.0
1710,427.25,77.7695,83.7212,134.787,107.444,130.65,0.00588212,0.435571,20.4051,155.529,-1.79525,0.0,0.0
1725,431,77.4213,83.5742,132.152,107.125,130.46,0.00572184,0.435509,20.4073,155.139,-1.80916,0.0,0.0
1740,434.75,77.4195,83.2374,132.037,106.731,128.849,0.00570155,0.434813,20.4107,154.809,-1.72893,0.0,0.0
1755,438.5,77.16,82.9617,133.026,106.307,127.934,0.00548339,0.432844,20.4131,154.488,-1.70006,0.0,0.0
1770,442.25,77.2806,83.2629,130.087,105.964,130.451,0.00542102,0.43591,20.4105,154.148,-1.90856,0.0,0.0
1785,446,77.5267,83.4314,141.281,105.768,129.347,0.00567959,0.433823,20.4119,153.808,-1.84757,0.0,0.0
1800,449.75,77.395,82.9297,132.261,105.695,127.464,0.00561572,0.432319,20.4144,153.498,-1.71925,0.0,0.0
1815,453.5,77.4083,83.4185,133.717,105.747,130.732,0.00544334,0.4322,20.415,153.147,-1.94713,0.0,0.0
1830,457.25,76.8747,82.7923,134.664,105.875,127.681,0.00531974,0.430621,20.4173,152.787,-1.71924,0.0,0.0
1845,461,77.2155,82.9646,138.196,106.048,129.012,0.00513517,0.430418,20.4202,152.447,-1.79945,0.0,0.0
1860,464.75,77.286,82.7503,137.383,106.26,130.786,0.00509411,0.429586,20.4201,152.106,-1.90652,0.0,0.0
1875,468.5,76.7228,82.3014,138.298,106.484,131.266,0.00522233,0.429705,20.4191,151.746,-1.92079,0.0,0.0
1890,472.25,77.1538,82.8131,142.194,106.647,128.885,0.00511473,0.431076,20.4181,151.366,-1.73874,0.0,0.0
1905,476,76.917,82.5454,139.712,106.8,128.795,0.00501844,0.432392,20.4169,151.075,-1.7191,0.0,0.0
1920,479.75,76.9913,82.451,134.303,106.886,130.696,0.00505919,0.429611,20.4208,150.785,-1.84626,0.0,0.0
1935,483.5,77.0187,82.9699,136.945,106.946,127.817,0.00509615,0.427715,20.4221,150.445,-1.63661,0.0,0.0
1950,487.25,76.5809,82.457,131.344,106.993,129.274,0.00533714,0.428044,20.4213,150.074,-1.73667,0.0,0.0
1965,491,76.7356,82.3373,132.725,107.001,132.343,0.00514358,0.42953,20.4208,149.714,-1.95137,0.0,0.0
1980,494.75,76.5965,82.3552,135.004,106.974,129.202,0.00544185,0.429885,20.4205,149.394,-1.73317,0.0,0.0
1995,498.5,76.9453,82.3667,136.557,106.91,129.627,0.00557123,0.430601,20.4191,149.034,-1.76885,0.0,0.0
2010,502.25,76.9059,82.788,137.287,106.849,129.646,0.00534527,0.429762,20.4205,148.683,-1.77537,0.0,0.0
2025,506,77.0859,82.5544,138.266,106.789,130.506,0.00545489,0.430826,20.4178,148.333,-1.8412,0.0,0.0
2040,509.75,77.0893,82.3303,132.14,106.698,132.878,0.00543317,0.435408,20.4116,148.003,-2.01443,0.0,0.0
2055,513.5,76.897,82.4475,136.525,106.59,130.306,0.00529925,0.435315,20.4104,147.662,-1.84431,0.0,0.0
2070,517.25,76.9804,82.1832,135.403,106.483,129.845,0.00524649,0.436208,20.4096,147.312,-1.82091,0.0,0.0
2085,521,76.719,82.3883,136.286,106.396,132.479,0.00526349,0.436806,20.4087,146.952,-2.01283,0.0,0.0
2100,524.75,76.9631,82.7176,135.1,106.355,130.107,0.00497467,0.435586,20.4096,146.631,-1.85058,0.0,0.0
2115,528.5,76.7829,82.232,138.839,106.319,130.795,0.0047222,0.436176,20.4099,146.291,-1.90204,0.0,0.0
2130,532.25,76.9243,82.3942,138.52,106.271,130.886,0.00498692,0.43725,20.4069,145.961,-1.91261,0.0,0.0
2145,536,76.7555,82.4232,136.168,106.235,127.781,0.00485361,0.440653,20.4039,145.58,-1.69522,0.0,0.0
2160,539.75,76.8154,82.4657,132.851,106.352,129.944,0.00497377,0.443999,20.4002,145.23,-1.8393,0.0,0.0
2175,543.5,77.3046,82.4711,132.978,106.468,130.261,0.00509754,0.442622,20.4011,144.91,-1.85162,0.0,0.0
2190,547.25,77.2253,82.6029,130.811,106.561,127.509,0.0055996,0.442748,20.4025,144.54,-1.64754,0.0,0.0
2205,551,77.2472,82.8082,135.231,106.7,129.12,0.00580425,0.441301,20.4029,144.229,-1.75088,0.0,0.0
2220,554.75,77.204,82.5625,133.198,106.802,130.515,0.00576406,0.443922,20.3995,143.889,-1.84072,0.0,0.0
2235,558.5,77.153,82.328,137.263,106.874,130.451,0.00594314,0.450256,20.3931,143.499,-1.83012,0.0,0.0
2250,562.25,77.4305,83.0444,133.03,106.948,132.235,0.00600917,0.449797,20.3913,143.128,-1.94839,0.0,0.0
2265,566,77.3883,82.9554,136.176,106.997,134.009,0.00557491,0.452781,20.386,142.788,-2.06654,0.0,0.0
2280,569.75,77.7658,83.1115,134.616,107.036,129.555,0.00543417,0.453355,20.3869,142.448,-1.75292,0.0,0.0
2295,573.5,77.8098,83.2155,127.105,107.05,128.967,0.00539883,0.454692,20.3856,142.087,-1.70986,0.0,0.0
2310,577.25,77.7553,83.3799,128.905,107.062,132.199,0.00507396,0.455066,20.3844,141.747,-1.93609,0.0,0.0
2325,581,77.4231,83.2661,134.736,107.08,132.76,0.00484661,0.455364,20.3811,141.367,-1.97345,0.0,0.0
2340,584.75,78.1366,83.603,129.873,107.083,132.452,0.00494435,0.461656,20.373,140.996,-1.95188,0.0,0.0
2355,588.5,78.6307,83.3899,132.337,107.082,128.795,0.00529178,0.462346,20.3696,140.626,-1.69492,0.0,0.0
2370,592.25,78.1088,83.534,136.121,107.075,127.998,0.00568907,0.46265,20.3685,140.296,-1.63855,0.0,0.0
2385,596,78.8078,83.7917,133.228,107.084,130.089,0.00566271,0.463566,20.3682,139.895,-1.78659,0.0,0.0
2400,599.75,78.3131,83.9424,131.716,107.078,131.393,0.00534239,0.46161,20.3715,139.535,-1.87858,0.0,0.0
2415,603.5,78.9253,83.7362,136.254,107.074,131.61,0.00564003,0.465179,20.366,139.175,-1.89416,0.0,0.0
2430,607.25,78.4643,84.1321,132.401,107.088,130.288,0.00561628,0.469671,20.3586,138.804,-1.80022,0.0,0.0
2445,611,78.3264,84.4873,133.906,107.055,132.298,0.0055404,0.470192,20.3578,138.454,-1.9436,0.0,0.0
2460,614.75,78.6824,84.4883,132.402,107.067,131.818,0.00555717,0.469392,20.3582,138.094,-1.90923,0.0,0.0
2475,618.5,79.3374,84.84,135.727,107.082,132.534,0.00534929,0.473668,20.3513,137.733,-1.95764,0.0,0.0
2490,622.25,79.4091,85.3331,133.559,107.086,133.638,0.00563056,0.475599,20.3483,137.363,-2.03349,0.0,0.0
2505,626,79.4792,85.3342,133.908,107.087,134.426,0.00588806,0.474165,20.3517,137.023,-2.08733,0.0,0.0
2520,629.75,80.1103,85.0306,133.704,107.078,132.778,0.00572285,0.47055,20.3554,136.592,-1.97485,0.0,0.0
2535,633.5,79.8799,85.1393,132.102,107.068,132.76,0.00577308,0.473007,20.3509,136.262,-1.97446,0.0,0.0
2550,637.25,79.8146,85.1886,133.529,107.073,129.474,0.00566587,0.478288,20.3445,135.892,-1.74394,0.0,0.0
2565,641,79.0224,85.6908,134.635,107.091,130.859,0.00564187,0.477851,20.3451,135.551,-1.84014,0.0,0.0
2580,644.75,79.8205,85.6586,128.195,107.065,132.814,0.00579485,0.47857,20.3441,135.181,-1.97852,0.0,0.0
2595,648.5,80.2723,86.1299,134.964,107.066,133.62,0.00584387,0.479467,20.3416,134.781,-2.03393,0.0,0.0
2610,652.25,80.4926,86.2959,130.797,107.052,130.325,0.00577419,0.480306,20.341,134.43,-1.80587,0.0,0.0
2625,656,80.2884,86.1827,128.096,107.076,130.605,0.00573647,0.479263,20.3421,134.08,-1.82357,0.0,0.0
2640,659.75,80.7943,86.6935,133.458,107.062,133.013,0.00551451,0.481014,20.3386,133.69,-1.9925,0.0,0.0
2655,663.5,81.0485,86.5117,133.705,107.046,131.701,0.00542581,0.480831,20.3372,133.349,-1.90286,0.0,0.0
2670,667.25,81.2984,86.6589,133.149,107.013,131.148,0.00543338,0.480996,20.3383,132.989,-1.86709,0.0,0.0
2685,671,81.0963,86.5712,133.065,106.984,133.104,0.00538128,0.483068,20.3339,132.619,-2.00543,0.0,0.0
2700,674.75,81.7405,87.5688,130.605,106.954,131.139,0.00557318,0.483691,20.3336,132.279,-1.87153,0.0,0.0
2715,678.5,81.7046,86.4182,134.023,106.924,130.125,0.00593217,0.482444,20.3343,131.908,-1.80285,0.0,0.0
2730,682.25,81.1751,86.9663,135.517,106.876,130.632,0.00616283,0.481967,20.3347,131.528,-1.84267,0.0,0.0
2745,686,81.4914,87.5208,135.825,106.817,129.546,0.00605241,0.480591,20.3336,131.127,-1.77105,0.0,0.0
2760,689.75,81.5438,87.4895,129.478,106.734,129.953,0.0057914,0.483358,20.3305,130.797,-1.80703,0.0,0.0
2775,693.5,81.5718,87.4954,135.672,106.664,128.559,0.00601377,0.484294,20.3315,130.437,-1.71403,0.0,0.0
2790,697.25,81.3561,87.8127,134.026,106.565,130.288,0.0058785,0.48302,20.3328,130.057,-1.8452,0.0,0.0
2805,701,82.1091,88.101,129.904,106.502,130.216,0.00563115,0.484322,20.3291,129.696,-1.8455,0.0,0.0
2820,704.75,81.4398,87.7204,131.879,106.407,130.75,0.00564004,0.486539,20.3263,129.286,-1.89127,0.0,0.0
2835,708.5,81.9913,87.8349,134.659,106.306,129.419,0.0056996,0.48694,20.323,128.926,-1.80611,0.0,0.0
2850,712.25,81.7593,87.7214,130.619,106.24,129.12,0.00556786,0.488721,20.3218,128.565,-1.79057,0.0,0.0
2865,716,81.7748,88.3762,135.201,106.267,131.429,0.00559425,0.48618,20.3247,128.235,-1.95093,0.0,0.0
2880,719.75,82.5398,87.6376,135.112,106.303,130.696,0.0056541,0.483605,20.3286,127.835,-1.89648,0.0,0.0
2895,723.5,82.1713,88.1356,132.672,106.329,130.75,0.00585784,0.483374,20.331,127.484,-1.898,0.0,0.0
2910,727.25,82.4037,88.2551,132.152,106.382,130.524,0.00586249,0.481969,20.3342,127.114,-1.87755,0.0,0.0
2925,731,81.8989,88.2256,136.408,106.426,132.588,0.00581316,0.480177,20.3368,126.754,-2.01776,0.0,0.0
2940,734.75,82.4857,88.0947,129.648,106.5,130.497,0.00572729,0.482754,20.3345,126.373,-1.86546,0.0,0.0
2955,738.5,82.0972,88.5993,128.943,106.598,129.736,0.00566891,0.484035,20.3326,126.023,-1.8034,0.0,0.0
2970,742.25,82.2639,88.6017,129.757,106.673,134.091,0.00581778,0.48408,20.3326,125.643,-2.1,0.0,0.0
2985,746,82.5411,88.9025,129.937,106.732,133.276,0.00554337,0.482426,20.3336,125.292,-2.03898,0.0,0.0
3000,749.75,82.535,88.6102,130.081,106.809,132.262,0.00548465,0.483328,20.333,124.922,-1.96224,0.0,0.0
3015,753.5,82.397,88.7554,135.571,106.89,133.738,0.00575321,0.481845,20.3321,124.562,-2.05715,0.0,0.0
3030,757.25,82.4677,88.6528,131.213,106.929,131.809,0.00585172,0.479816,20.3344,124.231,-1.92041,0.0,0.0
3045,761,82.0804,88.7822,132.217,106.964,131.9,0.00604989,0.477864,20.3366,123.851,-1.92372,0.0,0.0
3060,764.75,82.3859,88.7677,131.362,106.983,130.143,0.00592643,0.479495,20.3348,123.511,-1.79905,0.0,0.0
3075,768.5,82.1823,88.2714,131.47,106.991,132.307,0.00563633,0.478438,20.3344,123.16,-1.94972,0.0,0.0
3090,772.25,82.2886,88.1323,136.957,106.998,132.362,0.0055737,0.479445,20.3349,122.79,-1.95292,0.0,0.0
3105,776,82.0851,88.8779,136.372,106.954,129.211,0.00569224,0.479881,20.3328,122.41,-1.7355,0.0,0.0
3120,779.75,82.7789,88.5233,132.93,106.914,130.741,0.00570523,0.481571,20.3308,122.059,-1.84705,0.0,0.0
3135,783.5,82.4283,88.5032,132.398,106.846,130.225,0.00569255,0.480407,20.331,121.689,-1.81654,0.0,0.0
3150,787.25,82.7115,88.2341,135.636,106.782,133.593,0.00578834,0.481187,20.3301,121.339,-2.05644,0.0,0.0
3165,791,82.5918,88.4053,133.068,106.726,129.682,0.00566281,0.479654,20.3299,120.988,-1.78846,0.0,0.0
3180,794.75,82.5262,88.5997,131.796,106.621,128.061,0.00556267,0.482149,20.3274,120.608,-1.68212,0.0,0.0
3195,798.5,82.1092,87.7722,128.683,106.504,130.524,0.00569457,0.480909,20.3292,120.288,-1.86707,0.0,0.0
3210,802.25,82.308,88.2767,130.684,106.399,129.709,0.00586156,0.479853,20.3323,119.887,-1.81859,0.0,0.0
3225,806,82.2434,88.3414,133.842,106.284,131.067,0.00593033,0.476533,20.3375,119.517,-1.92409,0.0,0.0
3240,809.75,81.6067,87.9643,130.953,106.17,128.939,0.00591082,0.474622,20.3416,119.187,-1.78379,0.0,0.0
3255,813.5,82.3152,87.9463,132.57,106.038,129.863,0.00580798,0.473584,20.3426,118.836,-1.86068,0.0,0.0
3270,817.25,81.8863,88.0195,128.157,105.912,129.944,0.00572438,0.472727,20.3424,118.466,-1.87738,0.0,0.0
3285,821,81.9179,88.7459,132.619,105.834,131.483,0.00566968,0.469321,20.3474,118.146,-1.99223,0.0,0.0
3300,824.75,82.2866,88.0791,131.971,105.745,130.641,0.00596851,0.469695,20.3467,117.826,-1.94096,0.0,0.0
3315,828.5,82.3535,88.4869,129.486,105.71,130.306,0.00598689,0.46948,20.3469,117.445,-1.92042,0.0,0.0
3330,832.25,82.0681,88.708,131.89,105.694,129.673,0.00577603,0.468688,20.3485,117.135,-1.87706,0.0,0.0
3345,836,82.4152,88.2696,127.735,105.697,128.686,0.00542416,0.464027,20.3543,116.785,-1.80667,0.0,0.0
3360,839.75,82.2489,88.3675,135.142,105.714,131.058,0.00507612,0.460758,20.3599,116.424,-1.97287,0.0,0.0
3375,843.5,82.3053,88.2195,131.114,105.785,128.84,0.00528598,0.459867,20.3613,116.094,-1.81004,0.0,0.0
3390,847.25,82.0327,88.1789,135.248,105.858,129.292,0.0056826,0.457466,20.3631,115.774,-1.83585,0.0,0.0
3405,851,82.1354,87.7941,135.746,105.967,126.441,0.00549005,0.457593,20.3638,115.463,-1.6217,0.0,0.0
3420,854.75,81.3254,88.0467,129.696,106.078,131.882,0.0051775,0.453654,20.3689,115.113,-1.99887,0.0,0.0
3435,858.5,81.2204,87.2658,134.645,106.184,127.274,0.00519503,0.453535,20.3687,114.773,-1.66313,0.0,0.0
3450,862.25,81.5864,87.7583,132.161,106.33,129.102,0.00537707,0.454357,20.3666,114.433,-1.78153,0.0,0.0
3465,866,81.3876,86.6059,136.338,106.503,128.269,0.00549069,0.454679,20.365,114.082,-1.7072,0.0,0.0
3480,869.75,81.1625,86.8947,131.616,106.657,131.855,0.0053135,0.452856,20.3688,113.802,-1.947,0.0,0.0
3495,873.5,81.2706,86.9414,135.001,106.805,131.891,0.00511821,0.449664,20.3741,113.432,-1.93678,0.0,0.0
3510,877.25,80.7419,87.3769,133.184,106.955,130.37,0.00521398,0.451454,20.3726,113.111,-1.81739,0.0,0.0
3525,881,80.9161,86.6187,131.297,107.081,130.813,0.00511709,0.45126,20.3713,112.771,-1.83778,0.0,0.0
3540,884.75,80.912,86.5895,133.123,107.213,128.822,0.00528969,0.450033,20.3731,112.451,-1.68562,0.0,0.0
3555,888.5,81.0534,86.6768,132.465,107.325,131.945,0.00537726,0.446909,20.3768,112.12,-1.89598,0.0,0.0
3570,892.25,80.9516,86.1753,134.267,107.41,129.79,0.00555524,0.447203,20.3758,111.82,-1.73752,0.0,0.0
3585,896,80.7036,86.4778,133.791,107.483,133.611,0.00549129,0.447308,20.3746,111.52,-1.99761,0.0,0.0
3600,899.75,80.8058,86.3907,130.639,107.539,132.461,0.00548282,0.447872,20.3732,111.18,-1.91354,0.0,0.0
3615,903.5,80.697,86.4067,134.919,107.579,128.224,0.00539283,0.447073,20.3744,110.859,-1.61163,0.0,0.0
3630,907.25,80.2147,85.9843,130.789,107.585,130.587,0.00545265,0.444409,20.3777,110.549,-1.77875,0.0,0.0
3645,911,80.3012,86.0531,137.25,107.561,131.565,0.00537769,0.443829,20.3781,110.199,-1.84928,0.0,0.0
3660,914.75,80.3643,85.8034,136.402,107.522,130.325,0.00537048,0.440461,20.3806,109.908,-1.76567,0.0,0.0
3675,918.5,80.2052,86.0084,130.144,107.48,131.773,0.00526716,0.440887,20.3811,109.588,-1.87071,0.0,0.0
3690,922.25,80.2214,86.2933,136.773,107.41,129.854,0.00517624,0.43799,20.3852,109.288,-1.742,0.0,0.0
3705,926,80.1829,85.7305,133.18,107.323,128.985,0.00525556,0.438635,20.3847,109.008,-1.68784,0.0,0.0
3720,929.75,80.2109,85.3032,132.638,107.225,128.795,0.00536174,0.437354,20.3861,108.687,-1.68268,0.0,0.0
3735,933.5,79.8443,85.6909,136.264,107.114,129.926,0.0051321,0.436513,20.3878,108.327,-1.77243,0.0,0.0
3750,937.25,79.6395,85.5021,132.353,107.002,130.578,0.00514998,0.434368,20.3926,108.067,-1.82801,0.0,0.0
3765,941,79.7088,85.4656,136.041,106.915,130.397,0.00513159,0.430603,20.399,107.727,-1.82271,0.0,0.0
3780,944.75,79.6188,85.0219,135.409,106.809,128.369,0.00496952,0.428473,20.4012,107.426,-1.68798,0.0,0.0
3795,948.5,79.3387,84.9747,138.367,106.723,130.27,0.00493689,0.427657,20.4016,107.136,-1.83036,0.0,0.0
3810,952.25,79.5129,84.9597,132.042,106.651,129.754,0.00475312,0.42663,20.4035,106.826,-1.8001,0.0,0.0
3825,956,79.2082,84.2851,134.372,106.695,127.21,0.00481052,0.426092,20.406,106.535,-1.61454,0.0,0.0
3840,959.75,79.1524,84.2716,134.682,106.881,127.681,0.0050453,0.422792,20.4097,106.285,-1.63246,0.0,0.0
3855,963.5,78.968,84.1502,134.819,106.993,130.578,0.00504024,0.420128,20.4126,105.945,-1.82875,0.0,0.0
3870,967.25,78.4204,83.799,131.898,107.053,128.967,0.00484227,0.420499,20.4119,105.675,-1.70967,0.0,0.0
3885,971,78.7045,84.1228,132.823,107.088,126.386,0.00499856,0.419013,20.4128,105.374,-1.52111,0.0,0.0
3900,974.75,78.6025,84.0735,132.62,107.107,129.546,0.00508722,0.418773,20.4131,105.084,-1.74616,0.0,0.0
3915,978.5,78.2398,84.0056,137.44,107.092,127.59,0.00505106,0.418106,20.4141,104.804,-1.60783,0.0,0.0
3930,982.25,78.2765,83.2498,131.09,107.047,131.103,0.00528614,0.416693,20.416,104.504,-1.86104,0.0,0.0
3945,986,77.7119,82.9931,137.434,106.965,129.392,0.00523636,0.414959,20.4198,104.203,-1.74742,0.0,0.0
3960,989.75,77.7201,83.0541,134.902,106.87,125.807,0.00495485,0.414316,20.4214,103.933,-1.49765,0.0,0.0
3975,993.5,77.3834,83.009,133.057,106.732,128.097,0.00486945,0.412594,20.4235,103.653,-1.67512,0.0,0.0
3990,997.25,77.3511,82.896,131.204,106.587,127.672,0.00510481,0.412123,20.424,103.363,-1.65706,0.0,0.0
4005,1001,77.3274,82.755,136.328,106.43,126.739,0.00502987,0.409945,20.4275,103.062,-1.60327,0.0,0.0
4020,1004.75,77.5216,82.3873,134.123,106.292,127.944,0.00498043,0.410364,20.4267,102.792,-1.70203,0.0,0.0
4035,1008.5,77.3694,82.2804,133.806,106.25,129.827,0.00505113,0.410756,20.424,102.492,-1.83978,0.0,0.0
4050,1012.25,77.1034,81.941,132.24,106.299,128.288,0.00466854,0.408481,20.426,102.232,-1.72608,0.0,0.0
4065,1016,77.1886,82.1992,134.676,106.351,126.332,0.00465933,0.407496,20.4257,101.961,-1.58059,0.0,0.0
4080,1019.75,76.936,81.9686,136.604,106.397,127.337,0.00480325,0.408848,20.4259,101.691,-1.64931,0.0,0.0
4095,1023.5,76.837,81.3295,140.645,106.46,130.488,0.00492525,0.404904,20.4302,101.391,-1.86827,0.0,0.0
4110,1027.25,75.8804,81.7415,132.207,106.531,127.328,0.00486921,0.404178,20.4311,101.111,-1.63716,0.0,0.0
4125,1031,76.7225,81.912,132.814,106.62,127.771,0.00476278,0.405052,20.4282,100.85,-1.66136,0.0,0.0
4140,1034.75,76.7972,81.2737,133.581,106.707,128.423,0.00466934,0.406426,20.4257,100.57,-1.70058,0.0,0.0
4155,1038.5,76.5919,81.6874,131.005,106.769,126.984,0.00446029,0.40505,20.427,100.31,-1.59182,0.0,0.0
4170,1042.25,76.8619,80.7016,137.566,106.823,125.544,0.0046462,0.401914,20.4301,100.06,-1.48248,0.0,0.0
4185,1046,76.1728,81.2225,135.847,106.875,128.043,0.00475333,0.404329,20.4275,99.7193,-1.65891,0.0,0.0
4200,1049.75,76.3884,81.048,133.994,106.916,129.229,0.00485411,0.404309,20.4255,99.4791,-1.74004,0.0,0.0
4215,1053.5,76.3527,80.6528,134.735,106.971,125.463,0.00482836,0.403138,20.4266,99.2189,-1.4638,0.0,0.0
4230,1057.25,76.2696,80.8089,135.756,106.98,126.748,0.00466766,0.403731,20.4268,98.9387,-1.55661,0.0,0.0
4245,1061,76.0472,80.7771,132.114,106.961,126.386,0.00463494,0.40281,20.4269,98.6784,-1.53202,0.0,0.0
4260,1064.75,76.0045,80.8135,137.13,106.95,126.314,0.00501541,0.400963,20.4284,98.4182,-1.52766,0.0,0.0
4275,1068.5,76.0446,80.7305,131.032,106.937,128.55,0.00513826,0.401846,20.4265,98.1379,-1.68992,0.0,0.0
4290,1072.25,75.1759,80.9118,138.772,106.926,126.35,0.00504612,0.402268,20.425,97.8777,-1.53234,0.0,0.0
4305,1076,76.1631,80.7801,138.045,106.887,128.451,0.00488931,0.400271,20.4254,97.6275,-1.68707,0.0,0.0
4320,1079.75,75.8579,80.394,133.239,106.832,128.541,0.00466321,0.400557,20.4256,97.3572,-1.69825,0.0,0.0
4335,1083.5,75.7277,80.5866,139.288,106.774,125.028,0.00470919,0.399327,20.4281,97.107,-1.44889,0.0,0.0
4350,1087.25,75.5902,80.2936,136.486,106.712,125.182,0.00482121,0.397359,20.4296,96.8268,-1.46554,0.0,0.0
4365,1091,75.0361,80.1383,133.43,106.667,126.015,0.00492236,0.398313,20.4266,96.5865,-1.53028,0.0,0.0
4380,1094.75,75.4791,80.2762,131.975,106.589,126.323,0.00480926,0.396634,20.4292,96.3663,-1.55935,0.0,0.0
4395,1098.5,76.021,80.2243,138.317,106.514,123.399,0.00465989,0.396136,20.4301,96.0761,-1.35087,0.0,0.0
4410,1102.25,75.4508,80.0176,131,106.426,125.064,0.00453201,0.394889,20.4301,95.8459,-1.48148,0.0,0.0
4425,1106,75.3574,80.021,134.387,106.36,125.943,0.00463891,0.393234,20.4324,95.5856,-1.55143,0.0,0.0
4440,1109.75,75.02,79.9534,134.795,106.282,124.947,0.00459182,0.390809,20.4355,95.3254,-1.48532,0.0,0.0
4455,1113.5,75.3134,80.0489,137.05,106.201,124.883,0.00422223,0.388991,20.4374,95.0852,-1.48762,0.0,0.0
4470,1117.25,74.9668,79.8356,134.75,106.117,126.667,0.00415038,0.388563,20.4395,94.815,-1.62511,0.0,0.0
4485,1121,74.7026,79.6726,136.315,106.018,124.766,0.00413026,0.387248,20.4407,94.6248,-1.49486,0.0,0.0
4500,1124.75,74.3572,79.4826,138.545,105.954,126.975,0.00436081,0.387222,20.4413,94.3545,-1.66145,0.0,0.0
4515,1128.5,74.6304,78.9154,134.577,105.876,128.604,0.00455407,0.382899,20.4463,94.1243,-1.78536,0.0,0.0
4530,1132.25,74.3613,79.5175,133.283,105.806,123.788,0.00462555,0.382019,20.4471,93.8941,-1.44098,0.0,0.0
4545,1136,74.4012,78.9355,133.505,105.748,124.983,0.0045218,0.382889,20.4463,93.6139,-1.53425,0.0,0.0
4560,1139.75,74.2592,78.8917,138.261,105.695,123.218,0.0044752,0.379938,20.4492,93.4337,-1.40822,0.0,0.0
4575,1143.5,74.2958,78.9724,132.972,105.662,125.128,0.00427626,0.376738,20.4532,93.1835,-1.55229,0.0,0.0
4590,1147.25,74.2366,78.5508,131.616,105.655,124.096,0.00433419,0.376701,20.4545,92.9433,-1.47686,0.0,0.0
4605,1151,74.2823,78.6508,133.548,105.66,127.527,0.00440543,0.375806,20.4562,92.7031,-1.72684,0.0,0.0
4620,1154.75,74.152,78.7522,136.925,105.679,126.622,0.0041329,0.374237,20.4576,92.4929,-1.6598,0.0,0.0
4635,1158.5,74.2018,78.2609,135.106,105.72,124.159,0.00405401,0.371165,20.462,92.2627,-1.47591,0.0,0.0
4650,1162.25,73.576,78.204,134.382,105.798,123.869,0.0041451,0.370182,20.4633,92.0425,-1.44774,0.0,0.0
4665,1166,73.6932,78.2053,135.505,105.89,125.137,0.00428942,0.367152,20.4663,91.8523,-1.53315,0.0,0.0
4680,1169.75,73.8951,77.8984,136.755,105.984,127.753,0.00400496,0.366269,20.4695,91.6121,-1.71501,0.0,0.0
4695,1173.5,73.4231,78.4222,137.624,106.09,125.825,0.00380317,0.365645,20.4706,91.4119,-1.56622,0.0,0.0
4710,1177.25,73.7212,77.8814,134.272,106.178,126.884,0.00387365,0.362201,20.4766,91.1817,-1.63553,0.0,0.0
4725,1181,73.1352,77.6855,143.283,106.283,126.631,0.00369774,0.35976,20.4798,90.9915,-1.60814,0.0,0.0
4740,1184.75,73.2122,77.2697,137.645,106.342,124.892,0.00347835,0.356844,20.4838,90.7713,-1.47617,0.0,0.0
4755,1188.5,72.9607,77.7001,136.696,106.364,125.074,0.00335457,0.354737,20.4865,90.5912,-1.48755,0.0,0.0
4770,1192.25,73.0415,77.3835,140.992,106.365,126.939,0.00353055,0.352621,20.4893,90.391,-1.62332,0.0,0.0
4785,1196,72.6975,77.1627,136.417,106.345,126.685,0.0036449,0.349211,20.4951,90.1908,-1.6067,0.0,0.0
4800,1199.75,72.4224,76.9931,134.271,106.327,128.034,0.00329573,0.347024,20.4989,90.0006,-1.70552,0.0,0.0
4815,1203.5,72.2679,76.4368,135.429,106.309,129.872,0.003082,0.34276,20.5066,89.7905,-1.83786,0.0,0.0
4830,1207.25,72.1586,76.1516,137.979,106.277,125.517,0.00320202,0.339179,20.5117,89.5803,-1.52754,0.0,0.0
4845,1211,72.0171,76.2139,134.722,106.213,126.884,0.00280944,0.334326,20.5179,89.4201,-1.63252,0.0,0.0
4860,1214.75,71.7405,75.8699,144.773,106.125,125.97,0.00279994,0.333955,20.5204,89.2299,-1.57373,0.0,0.0
4875,1218.5,71.5135,75.7119,136.064,106.034,127.092,0.0030197,0.329916,20.5286,89.0298,-1.66306,0.0,0.0
4890,1222.25,71.4837,75.8507,136.03,105.93,127.102,0.00312336,0.327853,20.5324,88.8596,-1.67276,0.0,0.0
4905,1226,71.086,75.2903,138.353,105.849,126.097,0.00321018,0.325795,20.5361,88.6995,-1.60687,0.0,0.0
4920,1229.75,70.6106,75.5686,137.617,105.764,128.297,0.00277778,0.322006,20.5417,88.5293,-1.77303,0.0,0.0
4935,1233.5,70.7044,75.5202,138.955,105.689,125.59,0.00263111,0.320291,20.5438,88.3291,-1.58376,0.0,0.0
4950,1237.25,70.6688,74.7764,135.646,105.661,126.377,0.00266448,0.319063,20.5451,88.139,-1.64361,0.0,0.0
4965,1241,70.4257,74.6301,137.376,105.652,125.608,0.00272786,0.316627,20.5474,87.9588,-1.58834,0.0,0.0
4980,1244.75,69.9337,74.7585,139.079,105.657,127.98,0.00287341,0.314765,20.5516,87.7686,-1.75959,0.0,0.0
4995,1248.5,70.5283,74.4042,142.108,105.701,126.767,0.00270242,0.312342,20.5558,87.6285,-1.66837,0.0,0.0
5010,1252.25,69.6495,74.0404,136.496,105.751,127.255,0.00284254,0.30998,20.5589,87.4684,-1.69936,0.0,0.0
5025,1256,68.9787,73.7979,141.738,105.853,129.302,0.0028163,0.309107,20.5604,87.3383,-1.83691,0.0,0.0
5040,1259.75,69.5409,73.7529,142.319,105.995,127.735,0.00295634,0.307594,20.5617,87.1381,-1.71273,0.0,0.0
5055,1263.5,68.9334,73.8392,135.779,106.139,127.111,0.00284398,0.306768,20.5627,86.9579,-1.65524,0.0,0.0
5070,1267.25,68.8579,73.315,140.733,106.304,126.839,0.00268065,0.305137,20.5654,86.8078,-1.62142,0.0,0.0
5085,1271,68.9823,72.85,137.776,106.468,128.143,0.00267187,0.30273,20.5695,86.6877,-1.70109,0.0,0.0
5100,1274.75,68.7695,72.2573,138.548,106.64,126.812,0.00254822,0.300217,20.5728,86.5175,-1.59047,0.0,0.0
5115,1278.5,68.424,72.9738,140.373,106.813,129.184,0.00248115,0.299935,20.5739,86.3674,-1.74569,0.0,0.0
5130,1282.25,68.743,72.4831,136.914,106.925,127.663,0.00257852,0.297911,20.5771,86.1972,-1.62738,0.0,0.0
5145,1286,68.5666,72.4696,142.112,106.976,128.595,0.00258813,0.296452,20.5793,86.0871,-1.68979,0.0,0.0
5160,1289.75,67.9567,71.9685,139.721,106.956,128.387,0.00259489,0.296875,20.5798,85.8469,-1.67659,0.0,0.0
5175,1293.5,68.2315,71.9396,138.486,106.899,130.605,0.00230597,0.294863,20.5834,85.7268,-1.83874,0.0,0.0
5190,1297.25,68.1202,71.7858,140.754,106.77,127.237,0.0020885,0.291748,20.587,85.5667,-1.61001,0.0,0.0
5205,1301,67.565,71.8644,138.991,106.583,129.184,0.00219351,0.289092,20.5904,85.4265,-1.76547,0.0,0.0
5220,1304.75,67.3947,71.5974,145.028,106.402,131.103,0.0024991,0.287441,20.5929,85.2964,-1.91648,0.0,0.0
5235,1308.5,67.1737,70.847,141.862,106.277,127.373,0.00246561,0.287337,20.5932,85.1363,-1.66229,0.0,0.0
5250,1312.25,66.9429,70.3436,141.368,106.447,126.106,0.00209334,0.286039,20.5938,85.0062,-1.55578,0.0,0.0
5265,1316,66.8708,70.5429,140.932,106.79,129.311,0.00202778,0.282486,20.5985,84.866,-1.75671,0.0,0.0
5280,1319.75,66.8438,70.7639,142.085,107.013,127.762,0.00209098,0.280764,20.6018,84.6959,-1.62699,0.0,0.0
5295,1323.5,66.6792,70.4029,142.28,107.115,127.228,0.00230217,0.278718,20.6056,84.5357,-1.57976,0.0,0.0
5310,1327.25,66.1862,69.8441,141.28,107.092,129.374,0.00248752,0.278231,20.6069,84.4256,-1.73527,0.0,0.0
5325,1331,66.0661,69.6213,141.45,106.957,128.288,0.00247858,0.277861,20.6071,84.2855,-1.66943,0.0,0.0
5340,1334.75,65.5887,69.2631,138.701,106.691,128.604,0.0022824,0.274499,20.6138,84.1554,-1.71491,0.0,0.0
5355,1338.5,65.7121,69.445,142.337,106.763,129.12,0.00204698,0.275006,20.6142,83.9953,-1.74553,0.0,0.0
5370,1342.25,65.9525,69.4609,140.336,106.932,129.13,0.00193131,0.272975,20.616,83.8651,-1.73158,0.0,0.0
5385,1346,65.6865,69.2377,139.431,107.135,131.167,0.00210779,0.270146,20.6194,83.745,-1.8579,0.0,0.0
5400,1349.75,65.146,68.4084,140.745,107.34,128.423,0.00236974,0.269563,20.6207,83.6249,-1.64631,0.0,0.0
5415,1353.5,65.092,68.6275,139.185,107.496,128.668,0.00226187,0.269043,20.6215,83.5048,-1.65041,0.0,0.0
5430,1357.25,64.6912,68.1755,136.907,107.583,128.125,0.00214896,0.267733,20.6243,83.3847,-1.6042,0.0,0.0
5445,1361,65.1618,67.6745,145.341,107.583,132.371,0.00228031,0.268007,20.626,83.1845,-1.90351,0.0,0.0
5460,1364.75,64.4754,68.271,140.495,107.458,128.242,0.00213429,0.26548,20.6291,83.1145,-1.62331,0.0,0.0
5475,1368.5,64.7647,68.39,144.902,107.224,127.971,0.00198927,0.263646,20.6318,82.9543,-1.6238,0.0,0.0
5490,1372.25,64.2165,67.9963,141.119,106.94,127.998,0.00225151,0.262456,20.6328,82.8442,-1.65009,0.0,0.0
5505,1376,64.1081,67.3801,143.833,106.578,127.002,0.002284,0.261017,20.6347,82.7241,-1.60958,0.0,0.0
5520,1379.75,64.2888,67.4698,143.683,106.212,128.396,0.00239783,0.259852,20.6373,82.614,-1.74138,0.0,0.0
5535,1383.5,63.3983,67.4721,139.056,105.887,128.541,0.0023776,0.258243,20.6399,82.5039,-1.77985,0.0,0.0
5550,1387.25,63.8863,67.1454,143.589,105.719,125.273,0.00233268,0.253499,20.6467,82.3938,-1.55796,0.0,0.0
5565,1391,63.3828,66.5674,136.658,105.717,126.73,0.00227321,0.252977,20.6491,82.2237,-1.66431,0.0,0.0
5580,1394.75,63.402,66.1404,141.759,105.871,128.097,0.00214761,0.252514,20.6508,82.1136,-1.74951,0.0,0.0
5595,1398.5,62.9448,66.5952,143.954,106.143,128.061,0.00212116,0.249186,20.657,81.9935,-1.72331,0.0,0.0
5610,1402.25,62.636,66.0605,138.717,106.451,126.649,0.00211384,0.24637,20.6601,81.8734,-1.59491,0.0,0.0
5625,1406,62.256,65.6954,144.898,106.738,128.84,0.00210539,0.24507,20.6619,81.7533,-1.72768,0.0,0.0
5640,1409.75,62.494,65.7675,144.998,106.955,127.554,0.00209705,0.243938,20.6643,81.6832,-1.61699,0.0,0.0
5655,1413.5,61.8511,65.4335,140.005,106.995,128.333,0.00210162,0.243359,20.6664,81.5831,-1.66938,0.0,0.0
5670,1417.25,61.7707,65.227,141.284,106.891,128.776,0.0019507,0.240873,20.6711,81.433,-1.71003,0.0,0.0
5685,1421,61.7727,65.0147,140.638,106.646,129.492,0.00196602,0.238843,20.6744,81.3329,-1.78192,0.0,0.0
5700,1424.75,61.4079,64.427,140.678,106.365,126.767,0.0018999,0.236475,20.6772,81.2128,-1.61083,0.0,0.0
5715,1428.5,61.0973,64.7304,143.726,106.375,126.106,0.00185767,0.233497,20.6814,81.1027,-1.56206,0.0,0.0
5730,1432.25,60.7922,63.5266,142.21,106.82,127.427,0.0020048,0.232442,20.6839,81.0126,-1.61942,0.0,0.0
5745,1436,60.6365,63.6724,143.834,107.09,129.51,0.00186354,0.232907,20.6839,80.8825,-1.74505,0.0,0.0
5760,1439.75,59.9954,63.4035,141.374,106.978,128.441,0.00203893,0.231528,20.6872,80.8024,-1.67864,0.0,0.0
5775,1443.5,59.8358,63.4955,142.898,106.65,127.925,0.00240172,0.229184,20.6912,80.7123,-1.66987,0.0,0.0
5790,1447.25,60.0444,63.4085,144.39,106.961,127.373,0.00239665,0.227809,20.694,80.5922,-1.60339,0.0,0.0
5805,1451,59.7204,62.5456,143.777,107.314,128.795,0.00215311,0.22449,20.6997,80.4821,-1.67504,0.0,0.0
5820,1454.75,59.3227,62.5011,144.985,107.538,129.329,0.00206234,0.221839,20.7052,80.402,-1.69387,0.0,0.0
5835,1458.5,59.0515,62.2863,146.282,107.546,128.785,0.00221666,0.220841,20.7072,80.322,-1.65452,0.0,0.0
5850,1462.25,58.9863,62.2433,142.814,107.306,127.228,0.00214591,0.220341,20.7077,80.2219,-1.56339,0.0,0.0
5865,1466,58.3879,61.9322,141.967,106.88,126.531,0.00212547,0.219035,20.7103,80.1318,-1.54945,0.0,0.0
5880,1469.75,58.5864,61.0132,146.643,106.337,126.413,0.00240405,0.217123,20.715,80.0517,-1.58767,0.0,0.0
5895,1473.5,57.8559,61.6201,144.418,105.902,125.01,0.00244014,0.213813,20.7213,79.9717,-1.52283,0.0,0.0
5910,1477.25,57.5889,60.8209,145.633,105.721,127.047,0.00255493,0.210712,20.7265,79.8916,-1.6869,0.0,0.0
5925,1481,57.5447,60.9209,142.332,105.833,125.87,0.00259335,0.209038,20.7294,79.7615,-1.59174,0.0,0.0
5940,1484.75,57.0687,59.8691,143.323,106.166,126.567,0.00252953,0.206723,20.7326,79.7114,-1.61363,0.0,0.0
5955,1488.5,56.553,60.0382,145.013,106.544,127.111,0.00257028,0.20417,20.7371,79.6013,-1.62036,0.0,0.0
5970,1492.25,56.4044,59.678,143.167,106.863,126.585,0.00257681,0.201024,20.743,79.5613,-1.55485,0.0,0.0
5985,1496,56.5172,59.4436,146.871,107.025,127.31,0.00272086,0.198814,20.7478,79.4812,-1.59336,0.0,0.0
6000,1499.75,56.1124,59.1175,149.347,106.967,125.001,0.00279967,0.196919,20.7522,79.3811,-1.43029,0.0,0.0
6015,1503.5,55.6375,58.5502,148.068,106.755,125.128,0.00294003,0.194671,20.7566,79.3211,-1.45785,0.0,0.0
6030,1507.25,55.3856,58.0484,144.747,106.446,124.241,0.00297574,0.191504,20.762,79.231,-1.41911,0.0,0.0
6045,1511,54.9208,57.5726,144.921,106.257,124.476,0.00305103,0.187678,20.769,79.1609,-1.45277,0.0,0.0
6060,1514.75,54.6823,57.539,148.221,106.57,124.467,0.00318417,0.185185,20.7739,79.0608,-1.42512,0.0,0.0
6075,1518.5,54.225,56.6877,145.471,106.935,124.947,0.00334957,0.18314,20.776,78.9607,-1.42907,0.0,0.0
6090,1522.25,54.0872,56.4382,147.994,107.072,124.449,0.00355163,0.180462,20.7809,78.9107,-1.38068,0.0,0.0
6105,1526,53.2129,56.4432,151.865,106.925,124.213,0.00376381,0.178163,20.7841,78.8106,-1.37585,0.0,0.0
6120,1529.75,52.8056,55.941,148.325,106.604,123.833,0.00381057,0.175819,20.7889,78.7706,-1.37534,0.0,0.0
6135,1533.5,52.7303,55.7067,148.061,106.782,124.114,0.00420609,0.174334,20.7912,78.7305,-1.38079,0.0,0.0
6150,1537.25,52.3653,54.6817,148.842,107.045,124.811,0.004746,0.172385,20.7958,78.6304,-1.40967,0.0,0.0
6165,1541,52.1822,54.4044,146.442,107.285,124.322,0.00492843,0.170573,20.8006,78.5704,-1.35304,0.0,0.0
6180,1544.75,51.7424,54.0994,148.714,107.467,124.883,0.0051163,0.169497,20.8032,78.5003,-1.37887,0.0,0.0
6195,1548.5,50.9514,53.7284,155.117,107.54,124.286,0.00533187,0.16767,20.8063,78.4203,-1.32856,0.0,0.0
6210,1552.25,50.5047,53.1231,150.91,107.564,124.73,0.00570956,0.165349,20.8107,78.3802,-1.35926,0.0,0.0
6225,1556,50.4703,53.1346,149.35,107.481,125.39,0.00626109,0.163891,20.8138,78.3002,-1.41488,0.0,0.0
6240,1559.75,50.5333,52.5319,151.936,107.352,122.892,0.00655657,0.160317,20.82,78.2501,-1.24107,0.0,0.0
6255,1563.5,49.841,52.3959,149.412,107.174,124.693,0.00696948,0.157699,20.8243,78.1801,-1.38996,0.0,0.0
6270,1567.25,49.6496,51.7677,147.236,106.966,124.548,0.00716723,0.155767,20.8279,78.13,-1.3971,0.0,0.0
6285,1571,49.34,51.0833,151.592,106.748,122.747,0.00747271,0.153649,20.8316,78.09,-1.28204,0.0,0.0
6300,1574.75,48.6695,50.5699,151.83,106.531,122.285,0.00799507,0.15145,20.8367,78.0399,-1.26614,0.0,0.0
6315,1578.5,48.3336,50.5243,153.217,106.381,122.539,0.00814384,0.149289,20.839,77.9899,-1.29807,0.0,0.0
6330,1582.25,47.5993,49.9684,151.781,106.41,123.426,0.00825529,0.148797,20.8413,77.9098,-1.36183,0.0,0.0
6345,1586,47.4458,49.4471,151.632,106.315,121.271,0.00839419,0.148424,20.8417,77.8498,-1.2083,0.0,0.0
6360,1589.75,47.2705,48.9153,148.561,106.195,121.47,0.00856351,0.149926,20.84,77.8097,-1.23375,0.0,0.0
6375,1593.5,47.0702,48.8338,152.521,106.082,119.569,0.00879518,0.150477,20.8392,77.7597,-1.09872,0.0,0.0
6390,1597.25,46.6528,48.7084,152.189,106.21,121.027,0.00877853,0.149865,20.839,77.6996,-1.19884,0.0,0.0
6405,1601,46.6329,48.1349,149.072,106.228,120.456,0.00883513,0.148887,20.8418,77.6596,-1.15393,0.0,0.0
6420,1604.75,46.0497,47.8959,146.76,106.123,120.891,0.00867871,0.147581,20.8432,77.6196,-1.19607,0.0,0.0
6435,1608.5,45.5909,47.8451,152.028,106.031,121.153,0.00851737,0.146984,20.8435,77.5595,-1.22394,0.0,0.0
6450,1612.25,45.4623,47.2174,152.298,105.968,120.945,0.00860254,0.146998,20.8436,77.4994,-1.21361,0.0,0.0
6465,1616,45.529,46.9493,149.604,105.928,121.135,0.00866868,0.147209,20.8436,77.4594,-1.2315,0.0,0.0
6480,1619.75,45.465,46.7357,150.473,105.898,120.311,0.00870289,0.146859,20.8436,77.3893,-1.17146,0.0,0.0
6495,1623.5,45.2471,46.7197,156.022,105.845,121.742,0.00877768,0.145417,20.8454,77.3393,-1.28457,0.0,0.0
6510,1627.25,45.3473,46.0414,149.196,105.831,120.384,0.00859073,0.145575,20.8458,77.2792,-1.18284,0.0,0.0
6525,1631,45.057,46.7269,154.575,105.823,119.786,0.00860417,0.144968,20.8476,77.2092,-1.13784,0.0,0.0
6540,1634.75,44.5271,46.2627,150.186,105.814,120.9,0.00865277,0.145272,20.8461,77.1792,-1.22354,0.0,0.0
6555,1638.5,44.5382,46.2356,153.016,105.819,120.456,0.00864807,0.145446,20.8455,77.1391,-1.18934,0.0,0.0
6570,1642.25,44.6411,46.0226,148.577,105.79,119.569,0.00864958,0.145314,20.8453,77.0991,-1.124,0.0,0.0
6585,1646,44.0971,46.0233,155.793,105.772,120.148,0.00904319,0.146233,20.8449,77.029,-1.16997,0.0,0.0
6600,1649.75,44.1916,45.4442,150.032,105.795,119.995,0.00908948,0.146942,20.8434,76.999,-1.15616,0.0,0.0
6615,1653.5,43.604,44.5184,148.153,105.826,119.804,0.00885559,0.146458,20.843,76.9389,-1.13896,0.0,0.0
6630,1657.25,43.1917,44.7936,151.504,105.805,119.714,0.00870668,0.146048,20.8438,76.8789,-1.13379,0.0,0.0
6645,1661,43.1749,44.4192,146.791,105.793,119.343,0.0085921,0.145389,20.8457,76.8589,-1.10634,0.0,0.0
6660,1664.75,42.976,44.2858,148.272,105.794,120.655,0.00856306,0.144659,20.8464,76.7888,-1.20674,0.0,0.0
6675,1668.5,42.9459,44.3109,154.929,105.799,119.804,0.00875338,0.144315,20.8466,76.7388,-1.14134,0.0,0.0
6690,1672.25,43.0198,44.0504,149.232,105.83,120.094,0.00870062,0.144605,20.8466,76.6887,-1.16079,0.0,0.0
6705,1676,42.5692,44.019,150.871,105.842,119.976,0.00876246,0.144888,20.8466,76.6187,-1.15077,0.0,0.0
6720,1679.75,42.2523,43.9307,151.404,105.855,119.08,0.00886293,0.144642,20.8466,76.5686,-1.08076,0.0,0.0
6735,1683.5,42.4681,43.9877,150.489,105.87,119.705,0.00875462,0.144122,20.8466,76.5186,-1.12751,0.0,0.0
6750,1687.25,42.3439,44.0315,152.33,105.893,119.334,0.00903643,0.1442,20.8452,76.4985,-1.097,0.0,0.0
6765,1691,42.4078,44.0406,152.7,105.94,121.144,0.00906567,0.144297,20.8451,76.4385,-1.23113,0.0,0.0
6780,1694.75,42.5306,43.5321,151.878,106,119.116,0.00895223,0.144809,20.8469,76.4085,-1.07102,0.0,0.0
6795,1698.5,42.8059,43.9171,153.493,106.059,118.953,0.00888501,0.144614,20.8472,76.3484,-1.05329,0.0,0.0
6810,1702.25,42.0768,43.7529,153.301,106.098,119.741,0.0089593,0.144506,20.8465,76.2884,-1.11052,0.0,0.0
6825,1706,41.149,43.1246,153.421,106.183,119.868,0.00910069,0.143934,20.8461,76.2383,-1.11289,0.0,0.0
6840,1709.75,42.1124,43.2597,150.626,106.305,119.714,0.00908555,0.143807,20.846,76.2183,-1.09059,0.0,0.0
6855,1713.5,41.8291,43.3317,151.184,106.409,120.085,0.00913859,0.143353,20.8459,76.1682,-1.10996,0.0,0.0
6870,1717.25,41.8899,43.0984,153.878,106.515,120.447,0.00916212,0.14401,20.8472,76.1182,-1.12851,0.0,0.0
6885,1721,41.7985,43.0249,152.069,106.652,121.09,0.00930303,0.143579,20.8474,76.0782,-1.1656,0.0,0.0
6900,1724.75,41.6955,42.6099,150.451,106.821,121.172,0.00929237,0.143332,20.8479,76.0081,-1.15724,0.0,0.0
6915,1728.5,41.6694,43.3463,150.118,106.997,121.47,0.00937508,0.142303,20.8486,75.9681,-1.1647,0.0,0.0
6930,1732.25,41.5605,43.0117,156.119,107.148,120.493,0.00930858,0.141918,20.8491,75.928,-1.07759,0.0,0.0
6945,1736,41.2943,43.0934,152.856,107.286,122.167,0.00937193,0.141226,20.8493,75.888,-1.1925,0.0,0.0
6960,1739.75,41.5956,42.2083,150.353,107.405,121.289,0.00966572,0.141947,20.8493,75.8179,-1.11607,0.0,0.0
6975,1743.5,41.7859,43.0318,151.727,107.513,122.376,0.00965301,0.142184,20.8482,75.7479,-1.18874,0.0,0.0
6990,1747.25,40.9981,42.4736,148.929,107.588,121.814,0.00963821,0.142595,20.8473,75.7279,-1.14007,0.0,0.0
7005,1751,41.3404,43.1425,153.344,107.624,121.289,0.00952693,0.142108,20.8481,75.6778,-1.0974,0.0,0.0
7020,1754.75,41.2221,42.7643,150.021,107.613,122.095,0.00972728,0.142212,20.8482,75.6378,-1.15911,0.0,0.0
7035,1758.5,41.3672,42.3087,152.866,107.563,122.747,,0.142847,,75.6077,-1.2122,0.0,0.0
7050,1762.25,41.2618,42.1736,152.592,107.477,121.796,,,,75.5777,-1.14818,0.0,0.0
7065,1766,41.2684,42.4909,152.845,107.381,119.922,,,,75.5177,-1.01402,0.0,0.0
7078,1769.25,41.1631,42.6341,150.2,107.257,122.765,,,,75.4876,-1.23975,0.0,0.0