File: 01_Data/Composite_Deck_Board/Cone/Composite_Deck_Board_HRRPUA_50.csv
Time after Ignition,Composite_Deck_Board_R1,Composite_Deck_Board_R2,Composite_Deck_Board_R3,Mean,Std. Dev.
0.0,14.0,21.4,23.9,19.8,5.1
1.25,22.1,31.3,32.6,28.7,5.7
2.5,33.2,43.4,46.9,41.2,7.1
3.75,51.3,58.6,64.1,58.0,6.4
5.0,83.4,75.6,82.2,80.4,4.3
6.25,134.3,108.9,104.1,115.8,16.2
7.5,185.6,143.8,151.3,160.2,22.3
8.75,252.4,203.4,216.2,224.0,25.4
10.0,300.5,267.7,273.4,280.5,17.5
11.25,353.8,309.7,313.7,325.8,24.4
12.5,435.1,367.2,378.7,393.7,36.4
13.75,487.7,431.1,430.7,449.9,32.8
15.0,560.7,472.3,476.7,503.2,49.8
16.25,612.7,520.5,535.2,556.1,49.5
17.5,662.3,611.1,579.7,617.7,41.7
18.75,663.2,640.0,611.7,638.3,25.8
20.0,718.2,678.0,691.4,695.9,20.5
21.25,771.7,702.0,713.8,729.2,37.3
22.5,794.1,735.8,778.9,769.6,30.2
23.75,778.4,814.4,757.3,783.4,28.8
25.0,833.4,803.5,802.7,813.2,17.5
26.25,863.3,804.9,779.1,815.8,43.2
27.5,796.2,821.7,792.8,803.6,15.8
28.75,807.0,831.8,839.2,826.0,16.9
30.0,823.0,840.0,805.2,822.7,17.4
31.25,788.9,831.8,793.7,804.8,23.5
32.5,815.0,808.5,793.4,805.7,11.1
33.75,784.9,797.9,785.0,789.3,7.5
35.0,758.2,771.4,746.1,758.6,12.6
36.25,720.4,757.1,739.7,739.1,18.4
37.5,727.4,717.5,736.9,727.2,9.7
38.75,687.8,718.6,704.9,703.8,15.4
40.0,686.9,696.8,719.5,701.1,16.7
41.25,656.7,695.7,684.3,678.9,20.0
42.5,635.0,661.5,648.7,648.4,13.2
43.75,634.9,647.0,628.7,636.9,9.3
45.0,596.4,614.4,611.8,607.5,9.7
46.25,577.2,622.3,597.9,599.1,22.6
47.5,568.3,587.9,573.0,576.4,10.3
48.75,556.0,563.6,564.7,561.4,4.7
50.0,549.8,532.4,532.4,538.2,10.1
51.25,519.3,535.6,521.5,525.5,8.8
52.5,505.0,520.7,522.4,516.0,9.6
53.75,489.0,504.3,488.8,494.0,8.9
55.0,475.8,489.2,490.2,485.0,8.0
56.25,465.1,477.5,472.5,471.7,6.3
57.5,450.0,454.4,458.4,454.2,4.2
58.75,436.5,449.2,444.8,443.5,6.5
60.0,436.9,436.0,445.0,439.3,5.0
61.25,417.1,426.1,437.8,427.0,10.4
62.5,417.7,436.6,433.2,429.1,10.1
63.75,416.1,413.1,413.4,414.2,1.7
65.0,413.4,410.1,401.7,408.4,6.0
66.25,403.7,410.8,403.4,405.9,4.2
67.5,387.4,402.1,397.9,395.8,7.6
68.75,387.7,405.5,384.9,392.7,11.2
70.0,383.0,408.3,390.0,393.8,13.0
71.25,381.9,394.5,392.4,389.6,6.8
72.5,381.2,395.9,382.7,386.6,8.1
73.75,376.3,381.1,373.8,377.1,3.7
75.0,371.0,373.2,365.2,369.8,4.2
76.25,372.1,371.7,373.1,372.3,0.7
77.5,365.1,353.6,363.2,360.6,6.1
78.75,364.2,367.9,358.1,363.4,5.0
80.0,360.0,357.6,362.7,360.1,2.5
81.25,359.6,351.1,361.6,357.4,5.6
82.5,349.0,356.4,354.2,353.2,3.8
83.75,346.7,351.9,350.1,349.6,2.7
85.0,345.9,340.4,345.3,343.9,3.0
86.25,342.9,330.3,334.9,336.0,6.3
87.5,340.1,344.5,337.8,340.8,3.4
88.75,337.0,337.9,337.4,337.4,0.5
90.0,336.3,337.1,326.8,333.4,5.7
91.25,332.4,332.3,332.3,332.3,0.1
92.5,324.3,332.8,331.3,329.5,4.5
93.75,332.4,335.6,322.2,330.1,7.0
95.0,324.1,319.4,318.6,320.7,2.9
96.25,315.3,329.2,323.5,322.7,7.0
97.5,321.3,317.0,317.0,318.4,2.5
98.75,317.5,313.8,311.1,314.1,3.2
100.0,311.3,312.2,313.8,312.4,1.3
101.25,310.3,316.0,303.0,309.8,6.5
102.5,314.7,307.6,310.8,311.0,3.5
103.75,302.8,306.2,306.4,305.1,2.0
105.0,308.5,300.5,302.5,303.8,4.2
106.25,300.3,299.4,302.0,300.6,1.3
107.5,308.1,299.6,299.5,302.4,4.9
108.75,293.4,294.4,293.4,293.7,0.6
110.0,302.7,290.6,292.4,295.2,6.5
111.25,302.7,293.5,289.0,295.1,7.0
112.5,291.3,295.3,280.8,289.1,7.5
113.75,292.6,293.4,287.4,291.1,3.3
115.0,290.9,290.0,292.4,291.1,1.2
116.25,292.6,289.8,289.3,290.5,1.8
117.5,289.9,293.2,287.2,290.1,3.0
118.75,292.4,289.5,287.3,289.8,2.6
120.0,285.6,285.5,282.9,284.7,1.5
121.25,287.6,285.1,287.3,286.7,1.4
122.5,279.5,283.6,286.7,283.3,3.6
123.75,279.0,282.7,283.0,281.6,2.2
125.0,283.9,274.4,285.5,281.3,6.0
126.25,283.2,278.3,277.9,279.8,2.9
127.5,276.6,275.7,279.2,277.2,1.8
128.75,278.9,276.1,272.1,275.7,3.4
130.0,269.3,278.0,272.8,273.4,4.4
131.25,273.7,269.7,270.0,271.1,2.2
132.5,272.3,274.4,271.2,272.6,1.7
133.75,270.3,271.2,264.8,268.8,3.5
135.0,270.8,274.3,268.0,271.0,3.2
136.25,267.8,276.9,269.4,271.4,4.9
137.5,270.8,269.1,265.0,268.3,3.0
138.75,270.9,272.2,273.4,272.2,1.3
140.0,264.0,266.6,264.3,265.0,1.5
141.25,268.6,263.6,265.2,265.8,2.6
142.5,268.4,265.3,264.7,266.1,2.0
143.75,264.5,267.3,262.9,264.9,2.2
145.0,263.7,268.5,262.0,264.7,3.4
146.25,265.3,257.1,266.0,262.8,4.9
147.5,260.5,256.2,262.1,259.6,3.1
148.75,261.5,253.8,258.0,257.8,3.9
150.0,261.9,257.9,256.6,258.8,2.8
151.25,264.8,256.2,257.9,259.7,4.6
152.5,261.5,264.7,252.8,259.7,6.2
153.75,265.3,259.7,260.4,261.8,3.1
155.0,255.2,260.4,258.2,258.0,2.6
156.25,264.0,257.7,252.8,258.2,5.6
157.5,254.7,259.6,251.4,255.2,4.1
158.75,262.1,256.0,257.2,258.4,3.2
160.0,264.2,264.1,255.3,261.2,5.1
161.25,258.5,253.8,256.6,256.3,2.4
162.5,261.3,257.9,259.3,259.5,1.7
163.75,260.9,255.1,250.1,255.4,5.4
165.0,259.5,251.1,253.5,254.7,4.3
166.25,261.2,254.3,254.0,256.5,4.1
167.5,257.0,253.6,253.8,254.8,1.9
168.75,256.0,253.1,252.0,253.7,2.1
170.0,257.1,253.6,251.9,254.2,2.6
171.25,256.4,250.0,248.1,251.5,4.4
172.5,252.2,250.4,251.7,251.4,0.9
173.75,260.9,253.6,244.9,253.1,8.0
175.0,253.0,245.1,249.2,249.1,3.9
176.25,256.5,250.9,253.6,253.6,2.8
177.5,251.5,250.2,249.7,250.4,0.9
178.75,253.4,246.5,247.5,249.1,3.8
180.0,250.9,248.8,251.2,250.3,1.3
181.25,259.2,250.7,247.3,252.4,6.1
182.5,250.4,249.2,247.4,249.0,1.5
183.75,251.5,244.7,243.2,246.5,4.4
185.0,254.8,246.6,246.8,249.4,4.6
186.25,249.2,250.6,242.6,247.5,4.2
187.5,253.7,245.7,245.1,248.2,4.8
188.75,252.4,249.5,247.0,249.7,2.7
190.0,251.1,248.7,243.6,247.8,3.8
191.25,254.9,249.7,246.8,250.4,4.1
192.5,255.7,251.7,248.7,252.0,3.5
193.75,251.2,248.6,245.6,248.4,2.8
195.0,250.0,247.1,247.9,248.3,1.5
196.25,246.1,243.1,241.6,243.6,2.3
197.5,252.6,248.7,245.9,249.1,3.4
198.75,249.4,244.4,249.9,247.9,3.0
200.0,244.4,248.4,249.1,247.3,2.5
201.25,248.4,247.6,249.3,248.4,0.8
202.5,251.6,244.9,243.1,246.5,4.5
203.75,248.8,247.1,243.9,246.6,2.5
205.0,244.4,249.7,241.7,245.3,4.0
206.25,246.4,246.8,241.5,244.9,2.9
207.5,247.3,247.8,247.4,247.5,0.2
208.75,246.9,244.4,242.9,244.7,2.0
210.0,250.5,246.4,237.3,244.7,6.7
211.25,246.8,240.7,239.4,242.3,3.9
212.5,253.5,239.2,243.2,245.3,7.4
213.75,248.6,246.0,240.5,245.0,4.1
215.0,247.9,242.4,241.1,243.8,3.6
216.25,245.6,237.4,244.8,242.6,4.5
217.5,247.9,245.5,242.0,245.2,3.0
218.75,246.2,245.8,245.1,245.7,0.6
220.0,246.3,242.5,247.6,245.5,2.6
221.25,246.7,241.7,241.9,243.5,2.8
222.5,242.8,236.5,239.1,239.5,3.2
223.75,248.2,242.8,240.8,243.9,3.8
225.0,246.0,240.9,241.5,242.8,2.8
226.25,249.3,242.5,239.4,243.7,5.1
227.5,243.0,238.4,237.7,239.7,2.9
228.75,245.8,239.7,241.3,242.3,3.1
230.0,243.7,243.3,240.8,242.6,1.6
231.25,245.4,240.2,240.2,241.9,3.0
232.5,246.5,238.0,240.8,241.8,4.4
233.75,243.8,246.1,244.8,244.9,1.2
235.0,248.7,238.8,238.4,242.0,5.8
236.25,244.9,238.7,238.4,240.6,3.7
237.5,241.9,237.6,241.5,240.3,2.4
238.75,242.5,240.9,242.2,241.9,0.9
240.0,245.7,240.4,241.4,242.5,2.8
241.25,241.3,240.6,241.3,241.1,0.4
242.5,241.3,240.7,240.9,240.9,0.3
243.75,242.5,237.9,241.1,240.5,2.4
245.0,241.0,238.5,237.5,239.0,1.8
246.25,247.8,238.2,239.9,242.0,5.2
247.5,243.8,238.3,237.7,239.9,3.4
248.75,243.4,241.1,238.3,240.9,2.6
250.0,243.3,240.0,244.0,242.4,2.2
251.25,244.1,237.3,238.4,239.9,3.7
252.5,245.5,237.0,235.5,239.4,5.4
253.75,243.2,237.0,242.8,241.0,3.5
255.0,246.9,238.1,239.7,241.6,4.7
256.25,242.8,238.7,235.0,238.8,3.9
257.5,241.1,239.8,233.8,238.2,3.9
258.75,239.4,235.2,240.4,238.3,2.8
260.0,239.4,239.5,239.7,239.5,0.1
261.25,239.7,236.4,234.8,237.0,2.5
262.5,242.1,236.4,236.3,238.3,3.3
263.75,242.7,233.7,238.7,238.4,4.5
265.0,242.3,236.4,235.7,238.2,3.6
266.25,242.6,233.6,237.5,237.9,4.5
267.5,241.6,235.3,234.9,237.3,3.8
268.75,241.9,233.8,235.3,237.0,4.4
270.0,239.8,235.5,235.7,237.0,2.4
271.25,238.2,235.6,239.3,237.7,1.9
272.5,242.5,231.8,233.9,236.1,5.6
273.75,240.0,235.3,233.9,236.4,3.2
275.0,240.8,235.2,239.8,238.6,2.9
276.25,236.7,234.6,236.0,235.8,1.1
277.5,238.3,234.7,238.1,237.0,2.0
278.75,237.3,242.5,233.1,237.6,4.7
280.0,240.1,236.6,236.2,237.6,2.2
281.25,240.1,237.4,235.8,237.8,2.2
282.5,243.9,239.7,232.5,238.7,5.8
283.75,238.1,233.2,235.9,235.7,2.4
285.0,242.0,239.7,236.2,239.3,2.9
286.25,240.0,241.6,234.8,238.8,3.5
287.5,239.6,235.6,234.0,236.4,2.9
288.75,238.8,238.4,233.4,236.9,3.0
290.0,238.4,238.2,234.8,237.2,2.0
291.25,239.7,235.6,230.3,235.2,4.7
292.5,237.2,239.7,233.9,236.9,2.9
293.75,235.8,235.8,232.7,234.8,1.8
295.0,237.7,238.4,231.4,235.8,3.9
296.25,235.0,238.9,232.5,235.4,3.2
297.5,242.5,234.7,229.6,235.6,6.5
298.75,235.8,238.8,233.4,236.0,2.7
300.0,240.7,235.5,232.5,236.2,4.1
301.25,233.5,236.5,233.0,234.4,1.9
302.5,239.2,236.0,230.8,235.3,4.2
303.75,238.2,236.6,229.5,234.8,4.6
305.0,234.6,236.4,236.4,235.8,1.0
306.25,238.4,238.9,234.3,237.2,2.5
307.5,236.6,234.3,234.7,235.2,1.2
308.75,238.5,239.9,228.5,235.6,6.2
310.0,234.6,234.2,239.7,236.2,3.1
311.25,233.9,243.0,233.3,236.7,5.5
312.5,236.1,238.5,230.6,235.1,4.0
313.75,234.9,235.6,231.0,233.8,2.5
315.0,233.4,238.2,222.3,231.3,8.2
316.25,236.5,237.0,227.6,233.7,5.3
317.5,234.5,233.7,227.5,231.9,3.8
318.75,233.4,237.6,227.7,232.9,4.9
320.0,232.3,233.4,222.7,229.5,5.9
321.25,237.0,236.9,224.7,232.9,7.1
322.5,233.4,236.8,225.6,231.9,5.8
323.75,236.0,232.9,227.9,232.3,4.1
325.0,238.9,233.9,229.6,234.1,4.7
326.25,234.0,235.4,225.9,231.8,5.1
327.5,233.4,231.2,226.1,230.2,3.7
328.75,231.1,236.9,231.3,233.1,3.3
330.0,230.8,233.9,228.2,231.0,2.8
331.25,233.6,234.7,226.2,231.5,4.6
332.5,236.8,234.3,227.7,232.9,4.7
333.75,242.2,236.4,226.4,235.0,8.0
335.0,234.9,235.6,226.5,232.3,5.0
336.25,236.8,234.0,227.8,232.9,4.6
337.5,242.4,236.8,233.4,237.5,4.5
338.75,237.7,234.0,232.0,234.6,2.9
340.0,233.9,235.3,226.5,231.9,4.7
341.25,236.9,231.6,227.8,232.1,4.6
342.5,231.8,237.0,226.7,231.9,5.2
343.75,237.7,233.1,226.3,232.4,5.7
345.0,240.3,236.4,228.0,234.9,6.3
346.25,236.9,234.1,226.2,232.4,5.5
347.5,233.4,233.8,226.3,231.2,4.2
348.75,237.9,237.2,228.7,234.6,5.1
350.0,231.2,241.1,227.6,233.3,7.0
351.25,233.3,236.3,223.2,230.9,6.8
352.5,232.1,237.0,224.1,231.1,6.6
353.75,237.6,242.0,228.5,236.0,6.9
355.0,236.4,233.8,225.9,232.0,5.5
356.25,235.9,233.8,225.1,231.6,5.7
357.5,237.6,238.3,227.2,234.4,6.2
358.75,240.7,231.5,223.6,231.9,8.5
360.0,237.6,234.3,224.9,232.3,6.6
361.25,234.8,235.5,222.2,230.8,7.5
362.5,234.5,230.4,227.6,230.9,3.5
363.75,238.1,237.4,225.1,233.5,7.3
365.0,234.7,236.8,223.6,231.7,7.1
366.25,236.7,234.9,222.6,231.4,7.7
367.5,234.6,233.2,224.3,230.7,5.6
368.75,235.1,235.0,217.2,229.1,10.3
370.0,238.8,239.5,225.2,234.5,8.1
371.25,235.3,234.6,225.3,231.7,5.6
372.5,235.4,236.9,226.6,232.9,5.6
373.75,235.7,229.8,224.8,230.1,5.5
375.0,235.9,231.3,223.6,230.3,6.2
376.25,234.2,231.9,224.5,230.2,5.1
377.5,239.5,232.6,224.8,232.3,7.4
378.75,235.0,238.0,227.0,233.4,5.7
380.0,237.9,235.0,226.4,233.1,6.0
381.25,232.4,236.0,222.9,230.4,6.8
382.5,237.8,236.6,221.8,232.1,8.9
383.75,233.0,238.6,223.4,231.7,7.7
385.0,232.9,237.3,224.5,231.6,6.5
386.25,230.1,238.4,226.7,231.7,6.0
387.5,237.3,235.8,224.9,232.6,6.7
388.75,236.7,236.7,226.0,233.1,6.2
390.0,235.6,236.6,227.8,233.3,4.8
391.25,238.8,239.2,229.2,235.8,5.6
392.5,239.1,239.6,225.9,234.9,7.7
393.75,237.5,232.4,224.0,231.3,6.8
395.0,236.0,234.9,225.1,232.0,6.0
396.25,238.9,238.3,227.1,234.7,6.6
397.5,237.4,235.5,226.5,233.1,5.8
398.75,239.8,239.6,226.8,235.4,7.4
400.0,236.9,236.3,227.5,233.6,5.3
401.25,233.5,241.2,225.8,233.5,7.7
402.5,234.1,230.9,227.6,230.8,3.3
403.75,236.5,238.0,226.7,233.7,6.2
405.0,237.2,238.2,227.2,234.2,6.1
406.25,237.1,241.7,228.4,235.7,6.7
407.5,237.5,241.1,229.8,236.1,5.8
408.75,239.5,240.0,227.1,235.6,7.3
410.0,237.7,234.7,224.2,232.2,7.1
411.25,239.5,239.0,224.7,234.4,8.4
412.5,233.7,237.6,223.8,231.7,7.1
413.75,243.9,244.5,227.9,238.8,9.5
415.0,241.9,239.6,222.7,234.7,10.5
416.25,243.2,237.6,222.4,234.4,10.8
417.5,240.9,238.8,229.0,236.2,6.4
418.75,236.9,243.0,223.3,234.4,10.1
420.0,236.4,236.0,221.2,231.2,8.6
421.25,234.3,240.0,223.4,232.6,8.5
422.5,237.0,240.4,222.8,233.4,9.3
423.75,237.0,239.1,224.8,233.6,7.7
425.0,244.5,237.2,225.2,235.6,9.7
426.25,239.8,234.1,219.6,231.2,10.4
427.5,236.7,240.0,223.4,233.3,8.8
428.75,242.0,239.6,223.0,234.9,10.3
430.0,235.6,236.5,222.8,231.6,7.6
431.25,240.6,236.3,223.8,233.6,8.8
432.5,237.1,237.7,223.7,232.8,7.9
433.75,238.4,240.4,224.3,234.4,8.8
435.0,235.1,238.8,219.3,231.1,10.4
436.25,241.0,238.9,223.0,234.3,9.8
437.5,239.4,239.5,218.0,232.3,12.4
438.75,236.7,242.5,218.3,232.5,12.7
440.0,235.4,237.9,221.8,231.7,8.7
441.25,236.7,240.3,226.6,234.5,7.1
442.5,240.9,237.2,221.5,233.2,10.3
443.75,242.1,240.5,221.5,234.7,11.5
445.0,239.5,238.5,224.2,234.0,8.5
446.25,237.4,239.6,223.2,233.4,8.9
447.5,236.9,241.8,226.1,234.9,8.0
448.75,241.8,234.9,222.0,232.9,10.0
450.0,239.9,241.3,223.0,234.7,10.2
451.25,237.1,235.7,221.0,231.3,8.9
452.5,235.4,238.5,221.9,231.9,8.8
453.75,242.7,235.8,222.2,233.6,10.5
455.0,239.6,237.8,221.2,232.9,10.2
456.25,237.4,235.0,222.7,231.7,7.9
457.5,239.7,235.3,222.6,232.5,8.8
458.75,239.4,242.1,221.2,234.2,11.4
460.0,239.1,238.9,223.4,233.8,9.0
461.25,242.4,238.6,221.1,234.0,11.3
462.5,241.5,238.4,225.5,235.1,8.5
463.75,238.2,235.7,220.5,231.5,9.6
465.0,238.2,234.8,225.5,232.8,6.6
466.25,239.8,243.9,222.8,235.5,11.2
467.5,240.5,237.6,220.0,232.7,11.1
468.75,241.7,239.8,223.3,234.9,10.1
470.0,240.9,239.9,222.1,234.3,10.6
471.25,237.4,241.7,222.6,233.9,10.0
472.5,239.0,240.0,219.6,232.9,11.5
473.75,238.6,240.4,221.5,233.5,10.5
475.0,237.8,242.9,220.8,233.8,11.6
476.25,238.4,245.1,226.6,236.7,9.4
477.5,238.0,243.9,223.9,235.3,10.3
478.75,242.8,239.5,224.2,235.5,9.9
480.0,241.2,238.7,224.0,234.6,9.3
481.25,241.4,241.1,224.1,235.5,9.9
482.5,239.1,241.5,225.4,235.3,8.7
483.75,241.5,239.4,228.1,236.3,7.2
485.0,240.4,241.4,227.3,236.4,7.8
486.25,241.4,241.8,228.7,237.3,7.5
487.5,235.8,243.7,221.1,233.6,11.5
488.75,241.2,244.4,222.8,236.1,11.7
490.0,243.4,242.6,226.3,237.4,9.7
491.25,242.9,245.0,223.7,237.2,11.7
492.5,237.0,240.6,229.1,235.6,5.9
493.75,242.0,244.4,228.8,238.4,8.4
495.0,247.0,242.1,222.1,237.1,13.2
496.25,242.7,242.1,224.6,236.5,10.2
497.5,241.1,241.5,227.1,236.6,8.2
498.75,239.5,243.0,224.6,235.7,9.7
500.0,245.2,246.9,226.0,239.4,11.6
501.25,240.6,242.2,226.8,236.6,8.5
502.5,242.2,245.7,229.3,239.1,8.6
503.75,240.7,246.9,229.2,238.9,9.0
505.0,241.2,245.2,229.5,238.6,8.2
506.25,238.5,246.3,227.6,237.5,9.4
507.5,239.7,240.6,231.9,237.4,4.8
508.75,242.0,243.4,227.7,237.7,8.7
510.0,241.1,241.3,226.5,236.3,8.5
511.25,245.4,240.8,230.4,238.9,7.7
512.5,244.1,244.4,227.5,238.7,9.7
513.75,241.3,248.6,228.5,239.5,10.2
515.0,242.1,245.0,231.1,239.4,7.3
516.25,240.4,243.5,228.6,237.5,7.8
517.5,240.3,243.3,227.7,237.1,8.3
518.75,245.8,243.9,230.0,239.9,8.6
520.0,249.1,246.3,228.0,241.1,11.4
521.25,239.4,254.8,228.1,240.8,13.4
522.5,240.3,247.9,227.4,238.6,10.4
523.75,241.8,248.1,227.1,239.0,10.8
525.0,248.8,250.6,230.0,243.1,11.4
526.25,242.7,248.8,234.1,241.9,7.4
527.5,244.4,249.4,228.7,240.8,10.8
528.75,247.5,246.9,234.1,242.9,7.6
530.0,249.3,253.3,231.3,244.6,11.7
531.25,244.8,252.7,234.5,244.0,9.1
532.5,246.4,254.9,235.0,245.5,10.0
533.75,250.5,250.2,230.6,243.8,11.4
535.0,251.9,253.0,234.2,246.4,10.5
536.25,250.5,252.7,236.0,246.4,9.1
537.5,246.1,253.7,235.2,245.0,9.3
538.75,246.1,255.5,236.4,246.0,9.5
540.0,249.2,253.0,234.0,245.4,10.0
541.25,253.5,251.6,236.7,247.2,9.2
542.5,251.7,251.6,232.1,245.1,11.3
543.75,247.8,256.3,232.7,245.6,11.9
545.0,252.5,251.9,232.2,245.5,11.6
546.25,250.4,256.3,233.8,246.8,11.7
547.5,253.8,259.7,233.4,249.0,13.8
548.75,252.9,255.3,233.3,247.1,12.1
550.0,251.8,252.5,238.5,247.6,7.9
551.25,254.3,254.8,235.5,248.2,11.0
552.5,255.8,261.6,240.5,252.7,10.9
553.75,251.8,260.9,237.0,249.9,12.1
555.0,253.8,256.9,235.1,248.6,11.8
556.25,252.7,260.6,235.8,249.7,12.7
557.5,251.8,259.5,244.6,252.0,7.4
558.75,250.9,257.1,240.8,249.6,8.2
560.0,256.3,264.4,239.3,253.4,12.8
561.25,254.4,260.8,240.8,252.0,10.2
562.5,252.5,258.7,243.7,251.6,7.5
563.75,256.3,258.8,243.4,252.8,8.3
565.0,252.1,254.3,242.8,249.7,6.1
566.25,259.3,263.5,242.6,255.1,11.1
567.5,257.3,260.0,243.3,253.5,9.0
568.75,249.7,261.7,243.2,251.5,9.4
570.0,253.2,260.9,240.4,251.5,10.3
571.25,255.7,261.2,243.7,253.5,9.0
572.5,252.7,261.6,239.4,251.2,11.2
573.75,256.1,262.1,243.1,253.8,9.7
575.0,254.0,262.6,238.1,251.6,12.4
576.25,252.6,264.0,239.3,252.0,12.4
577.5,253.7,261.8,244.6,253.3,8.6
578.75,255.8,265.1,245.0,255.3,10.1
580.0,252.9,263.3,246.4,254.2,8.6
581.25,259.4,262.5,250.5,257.5,6.2
582.5,246.6,262.4,247.6,252.2,8.8
583.75,251.0,259.9,244.5,251.8,7.7
585.0,251.5,267.3,250.5,256.4,9.4
586.25,254.6,264.1,248.1,255.6,8.1
587.5,249.9,265.7,248.9,254.8,9.4
588.75,254.5,263.1,239.8,252.5,11.8
590.0,257.6,261.2,248.1,255.6,6.8
591.25,251.0,261.9,247.5,253.5,7.5
592.5,257.9,269.5,247.5,258.3,11.0
593.75,252.6,261.5,250.5,254.9,5.9
595.0,254.0,262.9,251.0,255.9,6.2
596.25,256.9,266.7,248.3,257.3,9.2
597.5,251.7,264.6,250.4,255.6,7.8
598.75,250.3,263.9,248.3,254.2,8.5
600.0,253.0,262.6,244.4,253.3,9.1
601.25,257.0,265.1,248.0,256.7,8.6
602.5,250.4,270.2,247.8,256.1,12.2
603.75,256.4,267.1,245.9,256.5,10.6
605.0,254.4,268.0,248.3,256.9,10.1
606.25,255.9,261.9,249.5,255.8,6.2
607.5,256.5,265.5,247.4,256.5,9.0
608.75,254.9,261.1,248.8,254.9,6.1
610.0,256.4,260.5,248.1,255.0,6.3
611.25,256.6,261.2,247.9,255.2,6.7
612.5,256.6,265.3,253.0,258.3,6.3
613.75,251.7,265.7,251.1,256.2,8.3
615.0,252.2,263.3,250.1,255.2,7.1
616.25,253.5,266.0,252.0,257.2,7.7
617.5,255.0,267.5,251.9,258.1,8.2
618.75,255.2,259.6,248.6,254.5,5.5
620.0,254.2,261.8,252.2,256.1,5.0
621.25,256.4,262.9,248.9,256.1,7.0
622.5,255.9,260.9,248.7,255.2,6.2
623.75,254.4,264.0,253.1,257.2,5.9
625.0,260.5,265.9,254.2,260.2,5.8
626.25,256.4,265.0,247.1,256.2,8.9
627.5,253.0,266.0,249.6,256.2,8.7
628.75,259.6,264.9,250.1,258.2,7.5
630.0,256.4,263.7,251.7,257.3,6.1
631.25,255.5,263.1,251.3,256.6,6.0
632.5,253.8,263.2,254.3,257.1,5.3
633.75,257.0,263.9,254.7,258.5,4.8
635.0,252.3,264.3,255.2,257.3,6.3
636.25,251.6,266.2,251.9,256.6,8.3
637.5,254.3,267.2,255.5,259.0,7.1
638.75,257.9,264.3,253.4,258.5,5.4
640.0,256.2,267.9,254.4,259.5,7.3
641.25,250.6,269.5,251.6,257.2,10.6
642.5,253.6,268.6,254.8,259.0,8.3
643.75,260.2,266.1,259.6,262.0,3.6
645.0,257.8,264.0,254.4,258.7,4.8
646.25,256.1,261.4,253.2,256.9,4.2
647.5,259.9,265.9,255.6,260.5,5.1
648.75,259.3,267.3,254.1,260.3,6.6
650.0,259.7,264.2,253.9,259.2,5.2
651.25,260.3,269.9,253.7,261.3,8.1
652.5,257.8,265.4,255.7,259.6,5.1
653.75,258.4,266.1,251.5,258.6,7.3
655.0,253.3,267.8,254.6,258.6,8.1
656.25,256.4,262.4,253.3,257.4,4.6
657.5,259.3,263.4,250.2,257.6,6.7
658.75,256.1,267.1,251.5,258.2,8.0
660.0,259.2,263.8,258.2,260.4,3.0
661.25,257.7,267.5,255.0,260.1,6.5
662.5,257.4,275.1,254.6,262.4,11.1
663.75,260.1,267.3,257.6,261.7,5.0
665.0,255.4,267.9,254.5,259.3,7.5
666.25,257.6,267.1,255.2,260.0,6.3
667.5,258.0,261.9,259.6,259.8,2.0
668.75,257.5,269.5,258.2,261.7,6.7
670.0,261.7,265.8,253.4,260.3,6.3
671.25,261.5,265.5,253.4,260.1,6.1
672.5,258.9,269.7,260.5,263.0,5.8
673.75,260.4,267.9,258.6,262.3,4.9
675.0,259.5,263.9,256.2,259.9,3.9
676.25,263.1,267.0,258.7,263.0,4.1
677.5,260.2,264.7,258.7,261.2,3.1
678.75,260.1,265.9,253.4,259.8,6.3
680.0,257.5,275.0,258.8,263.8,9.8
681.25,260.2,264.3,261.1,261.9,2.1
682.5,256.5,264.9,260.5,260.6,4.2
683.75,256.9,267.1,261.6,261.8,5.1
685.0,261.0,266.9,261.2,263.0,3.4
686.25,263.6,266.8,260.1,263.5,3.4
687.5,259.4,265.5,261.4,262.1,3.1
688.75,257.6,257.8,255.2,256.9,1.5
690.0,261.2,268.3,259.2,262.9,4.8
691.25,259.4,262.3,258.7,260.1,1.9
692.5,258.9,268.7,258.9,262.2,5.7
693.75,264.5,268.0,253.1,261.9,7.8
695.0,259.0,266.3,257.1,260.8,4.8
696.25,257.7,261.5,253.5,257.6,4.0
697.5,258.1,263.0,253.7,258.2,4.7
698.75,258.2,265.3,258.7,260.8,4.0
700.0,260.2,267.7,254.1,260.7,6.8
701.25,260.1,266.0,255.0,260.4,5.5
702.5,260.4,263.8,254.6,259.6,4.6
703.75,263.9,268.1,254.7,262.2,6.9
705.0,264.3,266.8,255.8,262.3,5.8
706.25,265.6,263.8,254.9,261.4,5.7
707.5,260.8,263.5,251.4,258.5,6.3
708.75,258.0,265.3,258.1,260.5,4.2
710.0,265.4,260.7,247.3,257.8,9.4
711.25,261.0,267.3,254.1,260.8,6.6
712.5,258.6,263.8,262.3,261.6,2.7
713.75,261.5,269.0,255.3,261.9,6.9
715.0,258.3,266.2,252.7,259.1,6.7
716.25,261.9,264.6,256.7,261.1,4.0
717.5,264.0,268.4,252.2,261.5,8.4
718.75,262.1,265.4,255.9,261.1,4.8
720.0,260.0,264.5,256.0,260.2,4.2
721.25,261.3,261.7,253.7,258.9,4.5
722.5,263.6,265.1,259.2,262.7,3.1
723.75,268.8,262.6,254.0,261.8,7.4
725.0,267.4,260.7,249.8,259.3,8.9
726.25,262.4,264.5,257.0,261.3,3.9
727.5,267.3,260.8,256.0,261.4,5.6
728.75,262.2,267.9,252.8,261.0,7.6
730.0,262.0,263.4,253.4,259.6,5.4
731.25,268.7,261.0,259.2,263.0,5.0
732.5,266.3,261.3,252.5,260.0,7.0
733.75,262.1,261.9,251.2,258.4,6.2
735.0,268.1,255.2,254.4,259.2,7.6
736.25,263.1,259.4,254.4,259.0,4.4
737.5,266.1,257.8,252.9,258.9,6.7
738.75,264.3,260.5,254.8,259.9,4.8
740.0,264.1,258.7,254.0,258.9,5.0
741.25,264.3,255.1,253.9,257.8,5.7
742.5,259.9,257.4,253.1,256.8,3.4
743.75,263.7,262.6,254.8,260.4,4.8
745.0,266.0,256.9,251.3,258.1,7.4
746.25,264.7,262.0,251.7,259.5,6.9
747.5,262.7,261.1,256.3,260.0,3.3
748.75,261.8,257.2,255.1,258.0,3.4
750.0,261.2,266.1,256.4,261.2,4.9
751.25,262.2,259.5,256.3,259.3,3.0
752.5,257.5,259.3,254.1,257.0,2.6
753.75,257.5,260.4,257.5,258.4,1.7
755.0,263.7,253.2,258.7,258.5,5.3
756.25,253.4,256.1,256.9,255.5,1.8
757.5,257.4,251.9,265.0,258.1,6.6
758.75,256.6,256.1,255.2,256.0,0.7
760.0,253.0,251.8,254.0,252.9,1.1
761.25,254.6,253.1,253.2,253.6,0.8
762.5,255.4,250.7,257.9,254.7,3.6
763.75,262.5,255.3,257.5,258.4,3.7
765.0,251.7,253.5,254.5,253.3,1.4
766.25,250.5,246.3,254.3,250.4,4.0
767.5,247.1,254.2,253.5,251.6,3.9
768.75,251.6,252.5,261.8,255.3,5.6
770.0,247.7,243.6,255.4,248.9,6.0
771.25,245.2,248.0,255.0,249.4,5.0
772.5,244.5,247.7,257.6,249.9,6.8
773.75,247.7,251.1,252.1,250.3,2.3
775.0,253.5,248.3,258.6,253.5,5.2
776.25,251.3,248.0,256.6,252.0,4.3
777.5,244.4,244.8,254.3,247.8,5.6
778.75,246.7,242.9,250.8,246.8,4.0
780.0,243.4,243.4,253.3,246.7,5.7
781.25,242.8,242.5,252.2,245.8,5.5
782.5,240.7,244.8,249.6,245.0,4.4
783.75,246.7,238.7,252.8,246.1,7.1
785.0,241.6,244.2,251.8,245.9,5.3
786.25,244.7,246.0,250.7,247.1,3.2
787.5,241.9,246.9,250.9,246.6,4.5
788.75,239.7,241.2,251.3,244.1,6.3
790.0,242.7,241.6,247.3,243.9,3.0
791.25,242.0,245.7,253.6,247.1,5.9
792.5,243.3,243.4,249.7,245.5,3.7
793.75,242.2,243.3,254.9,246.8,7.0
795.0,244.7,241.0,247.6,244.5,3.3
796.25,242.2,241.8,246.2,243.4,2.4
797.5,242.2,236.3,244.8,241.1,4.4
798.75,241.1,241.4,249.6,244.0,4.8
800.0,249.1,243.6,250.1,247.6,3.5
801.25,240.2,241.6,253.3,245.0,7.2
802.5,240.1,243.1,246.4,243.2,3.2
803.75,243.9,237.8,250.2,244.0,6.2
805.0,239.8,241.4,247.9,243.1,4.3
806.25,236.6,243.3,246.6,242.2,5.1
807.5,235.8,241.0,250.4,242.4,7.4
808.75,239.2,243.5,243.7,242.1,2.6
810.0,238.6,245.0,251.2,245.0,6.3
811.25,236.6,240.4,246.6,241.2,5.0
812.5,235.5,242.1,243.8,240.5,4.4
813.75,236.8,244.5,243.5,241.6,4.2
815.0,239.8,240.3,245.4,241.8,3.1
816.25,237.8,242.9,242.4,241.0,2.8
817.5,238.3,240.7,240.0,239.7,1.2
818.75,237.4,240.0,244.7,240.7,3.7
820.0,241.9,241.9,239.8,241.2,1.2
821.25,242.4,245.6,240.6,242.9,2.6
822.5,242.2,243.0,242.7,242.6,0.4
823.75,239.4,240.5,242.3,240.7,1.5
825.0,244.0,240.8,242.7,242.5,1.6
826.25,242.5,240.0,240.2,240.9,1.4
827.5,246.7,245.4,240.9,244.4,3.0
828.75,240.5,243.0,239.6,241.0,1.7
830.0,240.4,244.4,242.6,242.5,2.0
831.25,243.6,249.0,240.0,244.2,4.6
832.5,240.5,246.6,241.0,242.7,3.4
833.75,242.9,246.4,238.0,242.4,4.2
835.0,237.4,243.8,239.2,240.1,3.3
836.25,239.0,244.8,244.9,242.9,3.4
837.5,245.9,249.9,245.6,247.2,2.4
838.75,245.0,244.5,243.7,244.4,0.7
840.0,241.6,244.7,244.4,243.6,1.7
841.25,243.0,248.6,244.1,245.2,3.0
842.5,242.7,247.9,244.6,245.0,2.6
843.75,240.0,244.6,238.5,241.1,3.2
845.0,238.4,249.7,239.7,242.6,6.2
846.25,244.8,246.3,242.0,244.4,2.2
847.5,242.0,246.0,238.6,242.2,3.7
848.75,240.3,241.6,244.0,242.0,1.9
850.0,244.6,253.1,240.2,246.0,6.5
851.25,245.4,245.5,240.3,243.7,2.9
852.5,241.2,244.8,235.7,240.6,4.6
853.75,242.8,247.4,239.6,243.3,3.9
855.0,243.7,243.4,239.2,242.1,2.5
856.25,243.0,243.6,239.7,242.1,2.1
857.5,237.3,246.5,241.5,241.7,4.6
858.75,241.9,247.9,242.4,244.1,3.3
860.0,242.9,246.9,236.2,242.0,5.4
861.25,237.2,244.3,236.9,239.5,4.2
862.5,241.1,248.2,236.0,241.8,6.1
863.75,236.8,246.6,235.9,239.8,5.9
865.0,236.6,245.8,239.1,240.5,4.8
866.25,235.9,244.2,236.9,239.0,4.5
867.5,235.9,243.1,240.9,240.0,3.7
868.75,236.6,244.4,235.6,238.8,4.8
870.0,239.3,246.6,238.8,241.6,4.3
871.25,240.7,247.7,239.6,242.7,4.4
872.5,239.9,240.8,239.9,240.2,0.5
873.75,237.5,242.4,239.5,239.8,2.5
875.0,239.7,240.6,238.6,239.6,1.0
876.25,239.5,244.6,236.6,240.2,4.1
877.5,238.1,239.3,237.7,238.4,0.8
878.75,236.3,240.9,243.2,240.1,3.5
880.0,235.8,244.7,238.7,239.8,4.5
881.25,233.7,244.6,234.5,237.6,6.1
882.5,239.3,242.0,236.7,239.3,2.7
883.75,235.4,243.3,239.1,239.3,4.0
885.0,239.2,240.8,238.6,239.5,1.1
886.25,234.0,241.7,242.4,239.4,4.7
887.5,237.1,238.0,237.3,237.4,0.5
888.75,238.7,242.6,234.9,238.7,3.9
890.0,236.2,239.9,237.7,237.9,1.9
891.25,235.2,239.3,239.1,237.9,2.3
892.5,238.0,237.7,235.5,237.0,1.4
893.75,238.8,237.0,237.0,237.6,1.0
895.0,238.0,237.3,234.7,236.7,1.7
896.25,238.0,236.6,234.8,236.4,1.6
897.5,235.5,239.5,233.6,236.2,3.0
898.75,236.3,243.5,238.0,239.3,3.7
900.0,233.3,236.5,238.2,236.0,2.5
901.25,233.5,239.4,231.8,234.9,4.0
902.5,235.8,242.8,232.2,236.9,5.4
903.75,232.7,239.6,233.2,235.2,3.9
905.0,235.0,246.2,238.6,239.9,5.7
906.25,234.9,243.2,229.0,235.7,7.1
907.5,235.3,240.5,235.6,237.2,2.9
908.75,233.6,239.6,234.1,235.8,3.3
910.0,233.1,244.0,230.7,235.9,7.1
911.25,232.1,240.6,233.2,235.3,4.6
912.5,236.8,243.2,229.2,236.4,7.0
913.75,231.7,243.6,230.8,235.4,7.1
915.0,237.0,241.3,227.4,235.2,7.1
916.25,233.7,241.4,231.0,235.4,5.4
917.5,229.9,241.6,226.9,232.8,7.7
918.75,232.1,247.5,228.3,235.9,10.1
920.0,230.7,241.9,232.5,235.1,6.0
921.25,233.9,244.5,230.4,236.3,7.4
922.5,227.9,238.9,222.5,229.8,8.4
923.75,232.8,241.5,226.8,233.7,7.4
925.0,228.7,237.7,231.2,232.5,4.6
926.25,232.5,242.9,229.6,235.0,6.9
927.5,230.1,243.4,229.9,234.5,7.7
928.75,230.4,242.4,228.5,233.8,7.5
930.0,233.9,238.6,227.5,233.3,5.6
931.25,235.0,241.9,230.6,235.8,5.7
932.5,233.6,243.1,223.7,233.5,9.7
933.75,238.1,241.3,225.3,234.9,8.5
935.0,231.1,241.7,227.4,233.4,7.5
936.25,230.4,241.5,228.9,233.6,6.9
937.5,229.4,241.5,229.3,233.4,7.0
938.75,228.0,241.3,227.9,232.4,7.7
940.0,234.7,241.4,224.3,233.5,8.6
941.25,231.6,241.4,225.4,232.8,8.1
942.5,233.1,237.2,222.4,230.9,7.6
943.75,230.7,240.6,230.0,233.8,5.9
945.0,232.6,241.6,222.1,232.1,9.8
946.25,226.6,245.9,226.5,233.0,11.1
947.5,231.9,243.8,226.1,233.9,9.0
948.75,231.4,244.3,224.3,233.3,10.2
950.0,230.9,245.5,225.4,233.9,10.4
951.25,230.7,243.0,228.0,233.9,8.0
952.5,233.2,239.2,225.1,232.5,7.1
953.75,230.5,243.1,226.7,233.4,8.6
955.0,233.9,245.0,220.6,233.2,12.2
956.25,234.4,241.9,223.4,233.3,9.3
957.5,240.6,239.0,222.8,234.1,9.8
958.75,233.4,242.5,222.6,232.8,9.9
960.0,230.4,243.6,223.5,232.5,10.2
961.25,230.6,238.5,221.5,230.2,8.5
962.5,231.4,237.0,222.9,230.4,7.1
963.75,229.2,241.4,222.6,231.1,9.6
965.0,234.9,235.4,222.3,230.9,7.4
966.25,233.1,239.0,222.0,231.4,8.6
967.5,228.4,242.3,222.5,231.1,10.2
968.75,231.8,242.6,219.9,231.4,11.3
970.0,235.5,239.8,223.5,233.0,8.5
971.25,232.4,242.7,218.8,231.3,12.0
972.5,238.7,244.2,222.0,235.0,11.6
973.75,229.8,240.8,217.1,229.2,11.8
975.0,231.9,238.7,223.3,231.3,7.7
976.25,233.2,240.7,218.5,230.8,11.3
977.5,227.8,239.6,217.6,228.3,11.0
978.75,232.6,240.1,220.7,231.1,9.8
980.0,231.7,239.3,220.4,230.5,9.5
981.25,229.1,245.7,218.4,231.1,13.8
982.5,231.3,241.2,222.7,231.8,9.3
983.75,227.0,241.1,221.5,229.9,10.1
985.0,229.1,235.8,222.0,229.0,6.9
986.25,230.9,236.9,217.5,228.5,9.9
987.5,231.7,237.6,221.9,230.4,7.9
988.75,231.4,244.3,219.4,231.7,12.4
990.0,230.1,236.3,218.9,228.4,8.8
991.25,227.6,239.0,219.6,228.7,9.8
992.5,230.6,240.5,220.2,230.5,10.1
993.75,229.0,238.6,216.9,228.2,10.9
995.0,230.3,238.0,218.4,228.9,9.9
996.25,228.2,241.6,220.0,229.9,10.9
997.5,231.7,238.8,223.4,231.3,7.7
998.75,230.7,236.6,217.6,228.3,9.7
1000.0,227.6,238.6,219.3,228.5,9.7
1001.25,228.1,234.8,216.0,226.3,9.5
1002.5,228.6,239.4,216.6,228.2,11.4
1003.75,228.5,234.2,218.7,227.1,7.8
1005.0,232.3,231.9,219.7,228.0,7.2
1006.25,226.5,234.7,219.2,226.8,7.7
1007.5,232.2,233.0,222.9,229.3,5.6
1008.75,225.9,234.6,218.3,226.3,8.2
1010.0,224.4,234.8,219.5,226.2,7.8
1011.25,228.2,239.7,220.4,229.4,9.7
1012.5,231.4,233.8,220.4,228.5,7.1
1013.75,225.7,231.3,221.9,226.3,4.7
1015.0,230.1,235.5,220.3,228.6,7.7
1016.25,228.9,234.8,217.5,227.0,8.8
1017.5,226.3,231.5,220.4,226.1,5.5
1018.75,225.0,232.9,221.9,226.6,5.7
1020.0,227.2,235.2,221.5,228.0,6.9
1021.25,232.3,232.2,216.9,227.2,8.9
1022.5,225.7,229.7,219.4,224.9,5.2
1023.75,226.3,235.4,220.0,227.2,7.8
1025.0,231.9,233.1,220.8,228.6,6.8
1026.25,229.3,233.3,221.1,227.9,6.2
1027.5,229.5,232.3,222.7,228.2,4.9
1028.75,229.5,229.2,217.9,225.5,6.7
1030.0,231.4,231.6,217.8,227.0,7.9
1031.25,230.5,231.1,220.5,227.4,5.9
1032.5,229.8,230.4,220.4,226.9,5.6
1033.75,233.0,230.0,220.2,227.7,6.7
1035.0,229.8,236.2,219.4,228.5,8.5
1036.25,236.1,231.4,220.7,229.4,7.9
1037.5,226.9,228.3,217.0,224.1,6.1
1038.75,229.3,230.4,217.7,225.8,7.0
1040.0,233.5,229.5,217.9,227.0,8.1
1041.25,229.5,232.8,224.1,228.8,4.4
1042.5,226.0,225.9,221.0,224.3,2.8
1043.75,228.2,232.0,219.7,226.7,6.3
1045.0,224.9,235.0,222.9,227.6,6.5
1046.25,224.1,228.9,221.1,224.7,3.9
1047.5,230.7,226.6,217.4,224.9,6.8
1048.75,227.5,229.1,221.4,226.0,4.0
1050.0,226.8,228.7,218.2,224.5,5.6
1051.25,230.9,230.7,217.8,226.5,7.5
1052.5,227.0,234.7,220.2,227.3,7.2
1053.75,226.0,231.0,221.9,226.3,4.6
1055.0,225.0,235.5,222.2,227.6,7.0
1056.25,225.9,232.9,220.2,226.3,6.3
1057.5,226.7,233.3,217.0,225.6,8.2
1058.75,224.0,230.5,224.5,226.3,3.6
1060.0,226.7,230.2,217.1,224.7,6.8
1061.25,223.8,236.5,220.1,226.8,8.6
1062.5,225.0,229.5,219.3,224.6,5.1
1063.75,222.0,225.9,216.4,221.4,4.8
1065.0,221.8,231.7,220.7,224.7,6.1
1066.25,223.1,230.8,222.6,225.5,4.6
1067.5,222.1,226.4,218.3,222.3,4.0
1068.75,221.2,231.5,220.0,224.2,6.3
1070.0,219.7,229.5,225.2,224.8,4.9
1071.25,221.8,229.3,219.9,223.7,4.9
1072.5,222.0,227.9,217.7,222.5,5.1
1073.75,224.5,226.9,221.0,224.1,2.9
1075.0,220.4,228.8,223.2,224.1,4.3
1076.25,217.5,228.0,217.4,221.0,6.1
1077.5,219.5,226.2,222.5,222.7,3.4
1078.75,219.6,227.2,217.8,221.5,5.0
1080.0,224.4,229.6,221.8,225.3,4.0
1081.25,221.5,229.1,219.6,223.4,5.0
1082.5,222.3,229.5,220.6,224.1,4.7
1083.75,222.8,224.0,214.6,220.5,5.1
1085.0,224.1,228.4,217.7,223.4,5.4
1086.25,222.7,226.2,217.7,222.2,4.3
1087.5,220.5,231.3,217.6,223.1,7.2
1088.75,220.3,230.1,219.5,223.3,5.9
1090.0,218.9,228.3,214.1,220.5,7.2
1091.25,220.6,228.3,215.3,221.4,6.5
1092.5,218.5,230.1,217.1,221.9,7.1
1093.75,218.0,226.6,216.0,220.2,5.6
1095.0,221.2,230.6,217.6,223.1,6.7
1096.25,218.9,234.3,215.6,222.9,10.0
1097.5,218.1,230.7,215.1,221.3,8.2
1098.75,219.3,226.9,213.9,220.0,6.5
1100.0,218.2,228.1,211.4,219.2,8.4
1101.25,220.5,226.7,211.2,219.5,7.8
1102.5,219.3,227.6,209.1,218.7,9.3
1103.75,219.3,229.1,214.0,220.8,7.7
1105.0,217.1,223.1,210.4,216.8,6.4
1106.25,217.3,225.0,215.0,219.1,5.3
1107.5,215.8,223.4,212.3,217.2,5.7
1108.75,217.5,224.7,215.0,219.0,5.0
1110.0,214.2,224.0,216.0,218.1,5.2
1111.25,215.5,224.6,216.9,219.0,4.9
1112.5,215.6,224.1,213.2,217.6,5.7
1113.75,216.6,217.1,212.4,215.4,2.5
1115.0,214.6,222.5,209.9,215.7,6.4
1116.25,215.4,222.7,209.7,215.9,6.5
1117.5,214.9,221.9,208.9,215.2,6.5
1118.75,213.5,217.1,209.4,213.3,3.8
1120.0,215.3,220.7,208.1,214.7,6.3
1121.25,213.2,219.5,214.5,215.8,3.4
1122.5,213.9,221.2,211.8,215.6,4.9
1123.75,213.1,218.3,208.0,213.1,5.2
1125.0,209.0,217.2,209.7,212.0,4.5
1126.25,210.5,220.2,210.8,213.8,5.5
1127.5,210.0,217.1,208.5,211.9,4.6
1128.75,210.7,219.2,204.8,211.6,7.3
1130.0,210.7,218.3,207.1,212.0,5.7
1131.25,205.8,217.2,209.2,210.7,5.9
1132.5,206.4,218.6,205.9,210.3,7.2
1133.75,207.9,214.5,206.0,209.5,4.4
1135.0,208.4,217.1,203.4,209.6,6.9
1136.25,208.8,213.7,207.3,209.9,3.3
1137.5,204.7,212.2,206.0,207.6,4.0
1138.75,201.9,217.0,204.0,207.6,8.2
1140.0,203.6,222.3,205.4,210.4,10.3
1141.25,203.7,214.4,204.8,207.6,5.9
1142.5,203.5,217.0,202.7,207.7,8.1
1143.75,202.5,215.5,205.8,207.9,6.8
1145.0,203.4,213.2,206.3,207.6,5.0
1146.25,200.2,212.5,203.7,205.5,6.3
1147.5,198.9,213.3,201.2,204.5,7.8
1148.75,197.7,213.1,205.8,205.5,7.7
1150.0,197.9,209.7,200.6,202.7,6.2
1151.25,199.0,212.6,196.5,202.7,8.6
1152.5,199.2,208.1,198.8,202.0,5.3
1153.75,196.8,208.4,202.4,202.5,5.8
1155.0,196.4,210.7,199.2,202.1,7.6
1156.25,192.3,211.4,200.1,201.2,9.6
1157.5,192.2,212.6,200.9,201.9,10.2
1158.75,195.5,207.1,202.1,201.6,5.8
1160.0,191.5,208.3,197.8,199.2,8.5
1161.25,192.0,205.3,195.1,197.5,7.0
1162.5,188.7,207.2,195.4,197.1,9.4
1163.75,191.2,204.0,194.3,196.5,6.7
1165.0,189.7,205.9,192.9,196.2,8.6
1166.25,190.6,205.2,194.8,196.9,7.5
1167.5,186.5,208.2,195.7,196.8,10.9
1168.75,190.6,202.0,192.9,195.2,6.1
1170.0,188.4,203.7,193.4,195.1,7.8
1171.25,192.7,204.5,190.7,196.0,7.5
1172.5,186.8,204.3,191.0,194.0,9.1
1173.75,185.5,200.5,193.7,193.2,7.6
1175.0,186.7,200.3,191.1,192.7,6.9
1176.25,185.0,205.2,187.9,192.7,10.9
1177.5,186.0,196.8,188.9,190.6,5.6
1178.75,185.3,200.8,190.2,192.1,7.9
1180.0,184.4,197.3,187.1,189.6,6.8
1181.25,186.1,197.1,186.2,189.8,6.3
1182.5,182.7,201.3,186.6,190.2,9.8
1183.75,183.1,195.7,185.0,188.0,6.8
1185.0,181.8,197.3,184.2,187.8,8.3
1186.25,181.1,194.3,185.0,186.8,6.8
1187.5,182.1,196.9,183.2,187.4,8.3
1188.75,182.5,195.5,183.2,187.1,7.3
1190.0,180.6,197.0,181.1,186.2,9.4
1191.25,176.9,197.8,181.1,185.3,11.0
1192.5,177.8,193.4,176.3,182.5,9.5
1193.75,178.6,193.7,182.4,184.9,7.8
1195.0,176.4,191.8,176.1,181.4,9.0
1196.25,179.2,193.6,175.7,182.8,9.5
1197.5,175.9,187.5,177.1,180.2,6.4
1198.75,174.9,191.3,175.3,180.5,9.4
1200.0,174.7,191.0,175.4,180.4,9.2
1201.25,178.7,189.5,173.0,180.4,8.4
1202.5,174.9,190.8,171.6,179.1,10.2
1203.75,173.6,189.1,173.3,178.7,9.1
1205.0,172.7,191.4,173.6,179.2,10.6
1206.25,175.2,188.8,174.0,179.4,8.2
1207.5,174.0,186.1,172.8,177.6,7.3
1208.75,172.7,186.9,172.0,177.2,8.4
1210.0,173.1,187.5,172.2,177.6,8.6
1211.25,170.3,185.9,171.1,175.8,8.8
1212.5,169.4,188.2,174.1,177.2,9.8
1213.75,167.2,188.1,171.5,175.6,11.0
1215.0,168.1,186.6,172.1,175.6,9.7
1216.25,167.6,184.2,170.5,174.1,8.9
1217.5,169.4,182.2,171.3,174.3,6.9
1218.75,167.3,183.8,170.2,173.8,8.8
1220.0,168.1,183.8,172.3,174.7,8.1
1221.25,165.3,183.7,168.1,172.4,10.0
1222.5,165.4,182.7,169.3,172.5,9.0
1223.75,165.9,183.0,167.3,172.1,9.5
1225.0,168.5,183.5,170.6,174.2,8.1
1226.25,165.7,180.3,167.0,171.0,8.0
1227.5,166.4,179.7,167.2,171.1,7.4
1228.75,165.8,181.0,169.0,171.9,8.0
1230.0,166.0,180.7,167.7,171.5,8.0
1231.25,162.8,176.7,169.1,169.5,7.0
1232.5,163.4,177.9,167.7,169.7,7.5
1233.75,164.3,182.4,164.7,170.5,10.3
1235.0,162.9,177.3,167.2,169.1,7.4
1236.25,160.1,178.3,165.2,167.9,9.4
1237.5,158.1,180.6,166.3,168.3,11.4
1238.75,161.4,178.0,164.4,167.9,8.9
1240.0,158.0,178.6,164.4,167.0,10.5
1241.25,157.7,177.7,167.9,167.8,10.0
1242.5,157.7,175.3,164.1,165.7,8.9
1243.75,157.1,178.0,164.2,166.4,10.6
1245.0,157.6,178.5,161.7,165.9,11.1
1246.25,159.7,175.4,163.6,166.2,8.2
1247.5,160.0,175.1,162.8,165.9,8.0
1248.75,157.6,175.6,164.0,165.7,9.2
1250.0,158.6,174.3,163.4,165.5,8.1
1251.25,157.0,173.6,161.4,164.0,8.6
1252.5,153.9,175.3,160.0,163.1,11.0
1253.75,157.6,170.9,161.1,163.2,6.9
1255.0,154.9,169.1,160.5,161.5,7.2
1256.25,156.0,170.0,157.9,161.3,7.6
1257.5,155.8,170.2,161.0,162.3,7.3
1258.75,154.6,170.4,159.8,161.6,8.1
1260.0,154.8,167.7,159.5,160.7,6.5
1261.25,154.9,167.6,161.7,161.4,6.3
1262.5,155.2,169.6,159.6,161.4,7.4
1263.75,153.6,166.5,161.7,160.6,6.5
1265.0,153.4,165.6,159.1,159.4,6.1
1266.25,152.3,169.0,159.4,160.2,8.4
1267.5,154.2,166.9,157.1,159.4,6.6
1268.75,153.1,165.7,157.8,158.8,6.4
1270.0,152.2,167.9,157.3,159.1,8.0
1271.25,154.0,166.2,155.9,158.7,6.6
1272.5,152.4,164.5,156.2,157.7,6.2
1273.75,153.4,163.5,155.3,157.4,5.4
1275.0,152.2,166.0,154.8,157.7,7.3
1276.25,151.6,163.7,156.1,157.1,6.1
1277.5,152.6,164.2,153.2,156.7,6.6
1278.75,149.6,165.1,155.4,156.7,7.8
1280.0,150.8,165.7,152.7,156.4,8.1
1281.25,148.9,164.0,151.3,154.7,8.1
1282.5,148.9,164.3,152.4,155.2,8.0
1283.75,148.9,164.9,154.3,156.0,8.1
1285.0,149.8,164.7,152.4,155.6,8.0
1286.25,148.2,164.4,153.6,155.4,8.2
1287.5,147.6,161.3,154.0,154.3,6.9
1288.75,148.9,162.7,149.6,153.7,7.8
1290.0,149.1,160.4,152.2,153.9,5.8
1291.25,146.5,161.6,149.1,152.4,8.1
1292.5,149.7,160.0,152.3,154.0,5.3
1293.75,148.2,161.4,149.6,153.1,7.2
1295.0,148.2,158.6,150.3,152.3,5.5
1296.25,146.5,160.4,148.4,151.8,7.5
1297.5,149.0,160.8,149.2,153.0,6.8
1298.75,145.4,159.2,148.6,151.1,7.2
1300.0,146.5,161.3,145.6,151.1,8.8
1301.25,143.7,162.0,147.6,151.1,9.6
1302.5,144.3,157.2,146.4,149.3,6.9
1303.75,145.2,159.1,146.8,150.4,7.6
1305.0,143.5,156.5,148.1,149.4,6.6
1306.25,143.7,157.9,147.6,149.7,7.3
1307.5,140.9,157.3,144.4,147.5,8.7
1308.75,141.5,155.5,145.7,147.6,7.1
1310.0,142.8,159.2,144.7,148.9,8.9
1311.25,141.8,154.6,145.1,147.2,6.7
1312.5,141.7,155.9,146.7,148.1,7.2
1313.75,139.5,156.2,146.1,147.2,8.4
1315.0,139.4,153.1,146.2,146.3,6.9
1316.25,139.3,153.6,143.5,145.4,7.3
1317.5,139.5,152.7,143.7,145.3,6.7
1318.75,139.4,151.5,144.2,145.0,6.1
1320.0,139.5,152.4,144.1,145.3,6.5
1321.25,138.5,150.4,141.4,143.4,6.2
1322.5,137.9,150.0,142.7,143.5,6.1
1323.75,134.9,149.2,140.7,141.6,7.2
1325.0,134.2,148.5,143.8,142.2,7.3
1326.25,136.8,150.9,141.8,143.2,7.1
1327.5,137.6,150.3,143.0,143.6,6.4
1328.75,138.5,148.9,141.2,142.8,5.4
1330.0,136.7,147.4,142.4,142.2,5.3
1331.25,137.6,148.2,138.1,141.3,6.0
1332.5,134.9,146.7,139.3,140.3,6.0
1333.75,136.2,147.8,141.8,141.9,5.8
1335.0,134.3,146.2,138.1,139.5,6.1
1336.25,133.8,145.1,138.8,139.2,5.7
1337.5,134.3,146.3,139.3,140.0,6.0
1338.75,134.2,146.0,139.7,140.0,5.9
1340.0,132.7,144.7,139.0,138.8,6.0
1341.25,129.8,145.5,138.8,138.0,7.9
1342.5,131.8,142.3,138.4,137.5,5.3
1343.75,131.7,143.4,136.7,137.3,5.9
1345.0,130.0,142.8,136.8,136.5,6.4
1346.25,131.1,141.2,137.0,136.4,5.1
1347.5,130.3,141.3,136.9,136.2,5.5
1348.75,131.3,144.0,137.8,137.7,6.3
1350.0,127.6,140.0,136.8,134.8,6.5
1351.25,129.5,139.0,137.5,135.4,5.1
1352.5,128.1,141.1,135.4,134.9,6.5
1353.75,128.2,140.7,135.1,134.6,6.3
1355.0,128.2,137.5,136.0,133.9,5.0
1356.25,129.0,140.5,136.2,135.2,5.8
1357.5,128.0,136.7,133.6,132.8,4.4
1358.75,126.9,136.9,134.7,132.8,5.2
1360.0,125.7,136.6,132.4,131.5,5.5
1361.25,124.5,136.1,129.7,130.1,5.8
1362.5,124.0,136.8,131.9,130.9,6.5
1363.75,126.4,134.3,129.7,130.1,4.0
1365.0,123.0,133.5,132.0,129.5,5.7
1366.25,122.9,133.0,131.0,129.0,5.3
1367.5,124.5,132.6,129.9,129.0,4.1
1368.75,124.6,130.8,128.4,127.9,3.1
1370.0,125.5,130.8,129.2,128.5,2.8
1371.25,121.9,131.2,128.6,127.2,4.8
1372.5,122.1,130.2,127.8,126.7,4.1
1373.75,119.9,129.8,126.7,125.5,5.1
1375.0,120.8,128.9,126.5,125.4,4.2
1376.25,120.2,127.3,126.3,124.6,3.9
1377.5,118.1,129.3,126.5,124.6,5.8
1378.75,117.5,129.7,124.9,124.0,6.1
1380.0,118.2,127.1,126.1,123.8,4.9
1381.25,116.3,126.9,127.1,123.4,6.2
1382.5,114.6,125.6,125.0,121.7,6.2
1383.75,115.7,124.7,123.9,121.5,5.0
1385.0,115.3,124.3,125.7,121.8,5.6
1386.25,113.8,125.9,124.6,121.4,6.6
1387.5,113.9,123.8,122.4,120.0,5.3
1388.75,114.9,124.2,122.8,120.6,5.0
1390.0,113.8,124.2,123.4,120.5,5.8
1391.25,112.5,121.0,122.5,118.7,5.4
1392.5,112.5,120.6,119.7,117.6,4.5
1393.75,111.1,122.7,120.5,118.1,6.2
1395.0,111.0,123.6,122.8,119.1,7.1
1396.25,109.2,120.4,123.5,117.7,7.5
1397.5,107.2,118.1,120.8,115.4,7.2
1398.75,107.4,119.9,118.4,115.2,6.9
1400.0,106.1,118.1,119.9,114.7,7.5
1401.25,106.4,118.1,118.0,114.2,6.8
1402.5,105.5,117.3,117.0,113.3,6.7
1403.75,103.6,117.4,116.7,112.5,7.8
1405.0,100.9,117.9,119.5,112.7,10.3
1406.25,101.6,115.0,117.3,111.3,8.5
1407.5,99.9,113.8,116.6,110.1,8.9
1408.75,99.3,114.9,115.9,110.0,9.3
1410.0,98.6,114.6,117.2,110.1,10.0
1411.25,97.2,113.3,114.5,108.3,9.7
1412.5,96.6,112.0,115.5,108.1,10.1
1413.75,95.3,111.2,114.9,107.1,10.4
1415.0,94.6,111.0,114.8,106.8,10.8
1416.25,94.4,109.8,114.0,106.0,10.3
1417.5,92.9,108.1,112.0,104.3,10.1
1418.75,92.1,107.1,113.3,104.2,10.9
1420.0,91.5,103.6,111.1,102.1,9.9
1421.25,92.3,103.8,111.4,102.5,9.6
1422.5,88.9,103.0,111.9,101.3,11.6
1423.75,87.5,103.8,111.0,100.8,12.1
1425.0,88.2,103.1,107.4,99.5,10.1
1426.25,86.0,101.9,108.4,98.8,11.5
1427.5,86.2,99.4,108.2,97.9,11.1
1428.75,84.1,98.6,107.9,96.9,12.0
1430.0,83.3,97.7,108.0,96.4,12.4
1431.25,82.7,98.0,106.4,95.7,12.0
1432.5,80.7,97.2,107.4,95.1,13.5
1433.75,80.8,96.6,105.2,94.2,12.4
1435.0,78.8,94.8,106.7,93.4,14.0
1436.25,77.8,94.2,107.3,93.1,14.8
1437.5,76.5,95.0,105.9,92.5,14.8
1438.75,76.2,95.6,106.3,92.7,15.3
1440.0,76.4,92.6,106.2,91.7,14.9
1441.25,73.4,92.7,104.7,90.3,15.8
1442.5,73.9,91.8,106.2,90.6,16.2
1443.75,71.0,90.9,103.2,88.4,16.3
1445.0,71.3,89.8,103.6,88.2,16.2
1446.25,70.2,90.5,101.3,87.4,15.8
1447.5,70.2,89.3,99.1,86.2,14.7
1448.75,68.8,88.8,100.2,85.9,15.9
1450.0,67.4,86.2,99.6,84.4,16.2
1451.25,66.7,86.8,97.2,83.6,15.5
1452.5,65.7,86.0,98.0,83.3,16.3
1453.75,64.7,84.9,98.0,82.5,16.8
1455.0,63.9,84.2,98.6,82.2,17.4
1456.25,63.2,83.7,96.3,81.1,16.7
1457.5,62.9,82.7,96.6,80.8,16.9
1458.75,62.0,82.3,96.0,80.1,17.1
1460.0,61.7,81.5,95.3,79.5,16.9
1461.25,61.9,81.2,94.7,79.3,16.5
1462.5,61.2,80.3,92.8,78.1,15.9
1463.75,59.5,78.4,91.4,76.4,16.1
1465.0,59.1,78.3,93.2,76.9,17.1
1466.25,60.1,77.8,91.4,76.4,15.7
1467.5,58.3,77.4,91.6,75.7,16.7
1468.75,57.4,75.5,89.2,74.0,16.0
1470.0,57.1,76.9,88.4,74.1,15.9
1471.25,55.0,75.4,88.2,72.9,16.7
1472.5,53.6,74.5,87.8,72.0,17.2
1473.75,53.9,73.9,88.8,72.2,17.5
1475.0,51.4,73.2,86.1,70.2,17.5
1476.25,52.2,72.4,85.4,70.0,16.7
1477.5,51.5,73.5,86.1,70.4,17.5
1478.75,50.7,72.5,84.4,69.2,17.1
1480.0,49.6,71.8,84.8,68.7,17.8
1481.25,49.5,71.3,83.1,68.0,17.0
1482.5,48.7,70.4,82.0,67.0,16.9
1483.75,48.1,69.3,80.3,65.9,16.4
1485.0,48.2,69.6,81.2,66.3,16.7
1486.25,47.8,68.2,78.8,64.9,15.7
1487.5,46.7,66.5,79.7,64.3,16.6
1488.75,46.6,65.3,77.3,63.1,15.5
1490.0,46.5,64.3,77.6,62.8,15.6
1491.25,45.8,64.5,77.0,62.5,15.7
1492.5,46.6,64.2,76.3,62.3,15.0
1493.75,46.3,64.0,76.2,62.1,15.0
1495.0,46.6,64.4,75.0,62.0,14.3
1496.25,46.6,63.4,74.4,61.5,14.0
1497.5,46.8,62.5,74.4,61.3,13.9
1498.75,46.7,62.3,74.2,61.1,13.8
1500.0,45.9,61.6,73.9,60.5,14.0
1501.25,46.4,60.7,71.2,59.4,12.4
1502.5,46.0,60.5,72.8,59.8,13.4
1503.75,46.2,59.9,71.2,59.1,12.5
1505.0,46.3,59.6,70.6,58.9,12.2
1506.25,46.4,60.2,71.0,59.2,12.3
1507.5,46.1,60.3,70.8,59.1,12.4
1508.75,46.3,59.5,70.2,58.7,12.0
1510.0,47.3,59.5,68.8,58.5,10.8
1511.25,46.6,59.7,67.7,58.0,10.7
1512.5,46.5,59.2,66.7,57.5,10.2
1513.75,47.1,60.1,66.8,58.0,10.0
1515.0,46.6,59.9,66.3,57.6,10.1
1516.25,47.9,59.9,65.1,57.7,8.8
1517.5,47.4,59.2,65.8,57.5,9.3
1518.75,47.4,60.7,64.2,57.4,8.8
1520.0,47.6,61.3,64.7,57.9,9.1
1521.25,46.8,60.3,63.6,56.9,8.9
1522.5,47.2,62.0,63.0,57.4,8.9
1523.75,48.1,62.7,62.9,57.9,8.5
1525.0,47.4,61.8,61.5,56.9,8.2
1526.25,47.4,60.8,60.5,56.2,7.7
1527.5,47.4,60.0,61.2,56.2,7.7
1528.75,47.5,60.6,60.2,56.1,7.5
1530.0,49.1,60.3,60.7,56.7,6.6
1531.25,47.9,59.3,59.8,55.7,6.7
1532.5,48.5,59.6,58.0,55.4,6.0
1533.75,47.2,59.5,57.6,54.8,6.6
1535.0,47.3,58.8,55.9,54.0,6.0
1536.25,46.5,59.6,55.2,53.8,6.7
1537.5,47.4,59.3,55.7,54.1,6.1
1538.75,47.5,58.9,55.1,53.8,5.8
1540.0,47.8,59.3,55.1,54.0,5.8
1541.25,48.2,58.9,53.7,53.6,5.3
1542.5,48.3,57.9,52.6,52.9,4.8
1543.75,47.8,59.1,52.2,53.1,5.7
1545.0,47.4,58.3,51.9,52.6,5.5
1546.25,47.9,56.8,51.5,52.1,4.5
1547.5,47.0,56.7,50.3,51.3,5.0
1548.75,46.9,56.5,49.3,50.9,5.0
1550.0,47.2,57.1,49.0,51.1,5.3
1551.25,46.9,56.9,48.7,50.9,5.3
1552.5,46.9,57.3,48.6,50.9,5.6
1553.75,47.0,57.4,48.1,50.8,5.7
1555.0,46.2,56.4,47.5,50.0,5.6
1556.25,45.7,56.0,47.8,49.8,5.4
1557.5,45.3,56.1,48.8,50.1,5.5
1558.75,46.0,56.0,47.7,49.9,5.3
1560.0,45.5,56.1,47.3,49.6,5.7
1561.25,45.8,56.2,47.5,49.8,5.6
1562.5,46.3,55.5,47.8,49.9,4.9
1563.75,46.3,55.8,48.4,50.2,5.0
1565.0,46.2,56.3,49.1,50.5,5.2
1566.25,45.7,56.0,48.1,49.9,5.4
1567.5,46.3,55.6,49.0,50.3,4.8
1568.75,45.9,55.7,49.1,50.3,5.0
1570.0,45.5,56.1,49.1,50.2,5.4
1571.25,45.6,56.1,48.4,50.0,5.5
1572.5,45.2,55.8,48.4,49.8,5.4
1573.75,45.1,55.2,48.4,49.6,5.1
1575.0,45.1,55.9,47.9,49.6,5.6
1576.25,45.1,55.0,47.1,49.0,5.2
1577.5,45.0,55.2,47.4,49.2,5.3
1578.75,44.8,56.0,47.1,49.3,5.9
1580.0,44.4,55.3,46.7,48.8,5.8
1581.25,44.0,56.1,47.3,49.1,6.2
1582.5,45.0,55.2,47.3,49.2,5.4
1583.75,45.0,55.4,46.9,49.1,5.6
1585.0,45.1,55.8,47.3,49.4,5.6
1586.25,44.7,55.3,47.3,49.1,5.5
1587.5,44.4,55.6,46.7,48.9,5.9
1588.75,44.9,56.1,47.2,49.4,5.9
1590.0,44.2,56.0,46.4,48.9,6.3
1591.25,44.5,56.1,47.3,49.3,6.0
1592.5,44.6,56.2,47.6,49.5,6.0
1593.75,45.3,54.7,46.5,48.8,5.1
1595.0,44.9,,46.7,45.8,1.3
1596.25,45.1,,46.6,45.9,1.0
1597.5,45.2,,46.1,45.7,0.6
1598.75,45.2,,45.8,45.5,0.5
1600.0,44.8,,46.2,45.5,1.0
1601.25,45.3,,45.6,45.5,0.2
1602.5,45.8,,45.5,45.7,0.3
1603.75,45.9,,45.2,45.6,0.5
1605.0,46.3,,44.6,45.5,1.2
1606.25,45.8,,45.3,45.5,0.4
1607.5,45.9,,45.2,45.6,0.5
1608.75,46.2,,45.3,45.8,0.7
1610.0,47.5,,46.2,46.8,0.9
1611.25,46.6,,45.7,46.2,0.7
1612.5,47.5,,45.6,46.5,1.3
1613.75,47.3,,46.1,46.7,0.9
1615.0,47.4,,45.7,46.6,1.2
1616.25,47.1,,46.6,46.9,0.4
1617.5,47.8,,45.9,46.8,1.3
1618.75,46.9,,45.6,46.2,0.9
1620.0,47.2,,46.4,46.8,0.6
1621.25,48.0,,46.7,47.4,0.9
1622.5,48.1,,47.2,47.7,0.6
1623.75,47.8,,,47.8,
1625.0,47.4,,,47.4,
1626.25,47.3,,,47.3,
1627.5,47.6,,,47.6,
1628.75,48.6,,,48.6,
1630.0,48.4,,,48.4,
1631.25,49.0,,,49.0,
1632.5,49.3,,,49.3,
1633.75,49.6,,,49.6,
1635.0,48.6,,,48.6,
1636.25,48.9,,,48.9,
1637.5,48.2,,,48.2,
1638.75,48.5,,,48.5,
1640.0,48.5,,,48.5,
1641.25,47.7,,,47.7,
1642.5,48.0,,,48.0,
1643.75,47.9,,,47.9,
1645.0,47.1,,,47.1,
1646.25,47.2,,,47.2,
1647.5,47.2,,,47.2,