File: 01_Data/Composite_Deck_Board/Cone/Composite_Deck_Board_Cone_HF75Scan_221209_R1.csv
Names,Time,Stack TC,Smoke TC,Exh Press,Smoke Comp,Smoke Meas,CO Meter,CO2 Meter,O2 Meter,Sample Mass,Ext Coeff,Start Test,Flame Verif
Chan Gain,,500,500,1,1,1,1,1,1,1,1,1.0,1.0
Offset,,0,0,0.136389,0,0,0,0,0,0,0,0.0,0.0
Gain,,1,1,25.011,14.2696,296.664,1,1,1,1.0009,1.04656,1.0,1.0
Units,sec,C,C,Pa,%,%,%,%,%,g,/m,,
Baseline,,40.2158,42.4819,151.592,106.881,121.578,0.000971013,0.0678724,20.9481,-445.583,-1.18256,,
11,2.5,38.1574,40.4278,151.771,105.889,120.601,0.00125593,0.071433,20.944,197.937,-1.19433,0.0,0.0
22,5.25,37.9116,40.576,153.355,106.141,122.149,0.00107694,0.0730226,20.9414,197.907,-1.28963,0.0,0.0
33,8,38.8213,40.6107,150.366,106.376,120.538,0.00153066,0.0748523,20.9386,197.857,-1.14739,0.0,0.0
44,10.75,38.0265,40.6712,148.134,106.598,122.593,0.00265454,0.0803889,20.9233,197.807,-1.28348,0.0,0.0
55,13.5,38.776,40.8767,140.607,106.776,128.451,0.0034449,0.120168,20.8606,197.727,-1.69665,0.0,1.0
66,16.25,40.2886,42.0028,130.989,106.89,126.875,0.00501443,0.263757,20.6186,197.457,-1.57356,0.0,1.0
77,19,43.6633,44.7088,107.532,106.925,123.734,0.00887547,0.507533,20.301,197.087,-1.34035,0.0,0.0
88,21.75,51.3736,51.5036,111.16,106.851,125.988,0.0157639,0.956553,19.6702,196.406,-1.5125,0.0,0.0
99,24.5,62.583,61.8805,87.0292,106.709,132.914,0.024103,1.52778,18.6651,195.565,-2.01599,0.0,0.0
110,27.25,76.4397,76.4177,83.7281,106.501,128.568,0.0334844,2.18103,17.7193,194.755,-1.72871,0.0,0.0
121,30,91.9956,94.2534,79.008,106.365,136.861,0.0391023,2.67089,16.9677,193.794,-2.31423,0.0,0.0
132,32.75,106.656,110.971,83.148,106.261,136.897,0.0397364,2.88398,16.6906,192.913,-2.32572,0.0,0.0
143,35.5,117.15,125.118,86.8025,106.696,137.676,0.0364148,2.75655,16.9459,192.092,-2.34024,0.0,0.0
154,38.25,124.173,134.799,89.7885,107.032,129.238,0.0312927,2.41589,17.4337,191.381,-1.73078,0.0,0.0
165,41,128.015,140.771,103.025,107.166,136.3,0.0263858,2.07004,17.9312,190.691,-2.20768,0.0,0.0
176,43.75,130.243,144.403,111.965,107.072,127.645,0.0224862,1.79059,18.3338,190.07,-1.61341,0.0,0.0
187,46.5,131.797,147.512,106.465,106.724,128.985,0.0195258,1.58346,18.6621,189.48,-1.7392,0.0,0.0
198,49.25,131.833,149.075,101.486,106.828,137.957,0.017548,1.43449,18.9007,188.839,-2.34755,0.0,0.0
209,52,132.317,149.468,107.335,107.098,132.86,0.0161943,1.3172,19.0895,188.259,-1.97877,0.0,0.0
220,54.75,132.64,150.598,108.344,107.381,137.558,0.0151752,1.22984,19.2177,187.728,-2.27368,0.0,0.0
231,57.5,132.637,151.041,116.004,107.556,133.692,0.0144803,1.16695,19.3131,187.238,-1.99699,0.0,0.0
242,60.25,131.712,150.72,116.554,107.587,134.77,0.01352,1.11943,19.3891,186.677,-2.06808,0.0,0.0
253,63,131.434,150.897,115.064,107.425,133.665,0.0128496,1.06413,19.4749,186.207,-2.00632,0.0,0.0
264,65.75,130.851,150.321,116.009,107.109,131.013,0.0125185,1.01576,19.54,185.706,-1.84936,0.0,0.0
275,68.5,130.211,149.832,120.781,106.679,133.711,0.0122818,0.976155,19.59,185.266,-2.07344,0.0,0.0
286,71.25,129.344,149.079,118.298,106.228,126.495,0.0120119,0.943981,19.639,184.816,-1.60303,0.0,0.0
297,74,128.615,148.42,119.571,105.869,130.723,0.0116295,0.911428,19.6917,184.365,-1.93596,0.0,0.0
308,76.75,127.461,147.262,117.562,105.644,135.892,0.0111268,0.881812,19.7334,183.975,-2.31151,0.0,0.0
319,79.5,126.313,146.4,120.216,105.657,133.638,0.0108145,0.855252,19.7732,183.514,-2.15681,0.0,0.0
330,82.25,125.432,145.505,121.854,105.819,132.615,0.0106418,0.831455,19.8055,183.094,-2.07215,0.0,0.0
341,85,124.395,144.164,122.57,106.109,128.36,0.0104692,0.809615,19.8391,182.704,-1.74771,0.0,0.0
352,87.75,123.153,142.891,115.009,106.439,131.366,0.0104036,0.790115,19.8666,182.253,-1.93169,0.0,0.0
363,90.5,122.584,141.967,114.504,106.714,131.846,0.0103799,0.774871,19.8847,181.873,-1.94142,0.0,0.0
374,93.25,121.219,141.18,120.506,106.905,130.741,0.0103609,0.758669,19.9119,181.523,-1.84779,0.0,0.0
385,96,120.057,139.693,118.811,106.969,130.641,0.0102714,0.746107,19.9331,181.082,-1.83534,0.0,0.0
396,98.75,118.884,138.207,119.179,106.878,131.538,0.0101835,0.731159,19.9571,180.772,-1.90588,0.0,0.0
407,101.5,117.829,137.013,124.758,106.685,129.655,0.010158,0.717762,19.9761,180.342,-1.79009,0.0,0.0
418,104.25,117.396,136.467,126.131,106.481,129.745,0.0101635,0.705138,19.9919,179.941,-1.81409,0.0,0.0
429,107,116.286,134.95,126.558,106.333,127.98,0.0102204,0.694834,20.0087,179.511,-1.70109,0.0,0.0
440,109.75,115.328,133.812,121.768,106.328,126.006,0.0101731,0.68491,20.022,179.211,-1.55883,0.0,0.0
451,112.5,114.685,132.719,124.384,106.744,134.027,0.009985,0.676824,20.0319,178.82,-2.08955,0.0,0.0
462,115.25,113.643,131.607,118.275,107.016,129.374,0.00966401,0.670912,20.0416,178.48,-1.74176,0.0,0.0
473,118,112.633,130.477,126.924,107.125,132.181,0.00926244,0.664354,20.0534,178.11,-1.92945,0.0,0.0
484,120.75,112.079,129.945,123.028,107.085,131.32,0.00904334,0.655891,20.0673,177.779,-1.87292,0.0,0.0
495,123.5,111.37,129.163,130.241,106.863,132.923,0.00923584,0.647595,20.0796,177.429,-2.00333,0.0,0.0
506,126.25,110.53,127.454,122.532,106.679,130.759,0.00957955,0.643477,20.0852,177.089,-1.86849,0.0,0.0
517,129,109.937,126.748,126.298,106.863,123.797,0.00968854,0.639368,20.0904,176.738,-1.3504,0.0,0.0
528,131.75,109.306,125.634,122.434,107.079,131.438,0.00966536,0.636901,20.0935,176.388,-1.88167,0.0,0.0
539,134.5,109.039,125.326,123.469,107.289,125.753,0.00950488,0.635347,20.0957,176.008,-1.45773,0.0,0.0
550,137.25,108.236,124.229,125.059,107.459,134.634,0.00945907,0.633064,20.098,175.637,-2.06968,0.0,0.0
561,140,107.756,123.428,123.724,107.543,130.949,0.00946963,0.634443,20.0965,175.337,-1.80782,0.0,0.0
572,142.75,107.141,122.671,125.864,107.576,130.026,0.00938317,0.631955,20.0993,174.977,-1.74003,0.0,0.0
583,145.5,106.91,122.807,124.222,107.533,127.446,0.00925929,0.626644,20.1063,174.616,-1.55962,0.0,0.0
594,148.25,106.55,121.68,121.06,107.415,132.153,0.00932263,0.620991,20.1144,174.316,-1.90278,0.0,0.0
605,151,105.58,121.054,128.896,107.221,130.207,0.00962023,0.616528,20.1212,173.936,-1.78314,0.0,0.0
616,153.75,105.366,120.251,122.756,106.993,129.292,0.00968717,0.614902,20.123,173.586,-1.738,0.0,0.0
627,156.5,105.738,119.807,126.502,106.729,133.321,0.00962506,0.614319,20.1239,173.265,-2.04236,0.0,0.0
638,159.25,104.795,119.03,123.91,106.477,129.6,0.00970235,0.609319,20.1307,172.905,-1.80421,0.0,0.0
649,162,104.965,119.152,120.521,106.227,132.977,0.00957403,0.605322,20.1372,172.545,-2.06186,0.0,0.0
660,164.75,104.26,118.458,123.542,105.998,127.98,0.00929368,0.599711,20.1456,172.244,-1.73005,0.0,0.0
671,167.5,103.507,117.825,124.19,105.826,131.483,0.00911179,0.595352,20.1523,171.894,-1.99287,0.0,0.0
682,170.25,103.045,116.837,128.28,105.697,123.136,0.00898383,0.593128,20.1561,171.634,-1.40196,0.0,0.0
693,173,102.965,116.443,125.846,105.653,124.793,0.00898983,0.592909,20.1573,171.253,-1.52851,0.0,0.0
704,175.75,102.826,115.838,130.128,105.653,125.037,0.0089432,0.591481,20.1577,170.963,-1.5464,0.0,0.0
715,178.5,102.491,116.086,121.104,105.702,128.758,0.00900609,0.591323,20.159,170.603,-1.81138,0.0,0.0
726,181.25,102.586,115.371,125.867,105.801,131.239,0.0091893,0.589791,20.162,170.293,-1.97798,0.0,0.0
737,184,102.582,115.212,128.522,105.929,124.232,0.00926851,0.588262,20.1648,169.972,-1.46317,0.0,0.0
748,186.75,102.18,114.751,126.561,106.076,128.604,0.00931358,0.587275,20.1668,169.652,-1.76797,0.0,0.0
759,189.5,102.043,113.904,124.766,106.224,129.193,0.00934856,0.586671,20.1688,169.332,-1.79707,0.0,0.0
770,192.25,101.318,114.021,128.059,106.363,129.881,0.00928436,0.583982,20.174,168.971,-1.83384,0.0,0.0
781,195,101.232,113.331,120.745,106.495,127.056,0.0091749,0.582256,20.1758,168.671,-1.62064,0.0,0.0
792,197.75,101.245,113.475,123.787,106.637,123.58,0.0091042,0.581007,20.1764,168.311,-1.35371,0.0,0.0
803,200.5,100.521,112.639,128.967,106.753,131.547,0.0091185,0.580465,20.1766,167.991,-1.91726,0.0,0.0
814,203.25,100.646,112.509,123.978,106.841,128.74,0.00916934,0.58062,20.1767,167.67,-1.71168,0.0,0.0
825,206,100.341,112.336,126.394,106.914,132.733,0.00906243,0.578752,20.179,167.32,-1.98581,0.0,0.0
836,208.75,100.438,112.041,124.814,106.946,129.492,0.00898875,0.577388,20.181,167.04,-1.75613,0.0,0.0
847,211.5,100.387,111.368,122.551,106.972,129.148,0.00884144,0.577219,20.1817,166.699,-1.72946,0.0,0.0
858,214.25,100.876,111.492,132.391,106.968,130.687,0.00880953,0.578419,20.1804,166.359,-1.83856,0.0,0.0
869,217,100.037,111.271,124.832,106.947,128.876,0.00915489,0.577858,20.1821,166.029,-1.71227,0.0,0.0
880,219.75,99.6494,110.996,121.72,106.922,128.541,0.00921626,0.575705,20.1827,165.668,-1.69054,0.0,0.0
891,222.5,100.113,110.828,122.051,106.896,133.285,0.00907566,0.576462,20.1808,165.388,-2.02546,0.0,0.0
902,225.25,100.076,110.645,127.943,106.841,129.464,0.00909258,0.575171,20.1824,165.058,-1.76318,0.0,0.0
913,228,99.1578,109.826,123.97,106.769,130.153,0.00911454,0.573324,20.1843,164.738,-1.81805,0.0,0.0
924,230.75,99.4245,110.147,128.778,106.697,127.98,0.00918889,0.572742,20.1873,164.457,-1.66972,0.0,0.0
935,233.5,99.5903,110.244,131.57,106.621,128.659,0.009286,0.57183,20.189,164.087,-1.72485,0.0,0.0
946,236.25,99.2385,109.65,123.466,106.551,127.427,0.0091513,0.575358,20.1844,163.727,-1.64254,0.0,0.0
957,239,99.2489,109.684,128.417,106.484,131.402,0.00887809,0.576248,20.184,163.466,-1.93032,0.0,0.0
968,241.75,99.2099,109.72,128.748,106.42,126.078,0.00902818,0.572503,20.1883,163.136,-1.55614,0.0,0.0
979,244.5,99.1865,109.796,127.1,106.366,128.713,0.00919159,0.570273,20.1914,162.836,-1.75069,0.0,0.0
990,247.25,99.3692,109.165,125.103,106.341,125.997,0.00910371,0.568191,20.1938,162.506,-1.55708,0.0,0.0
1001,250,99.2039,109.484,123.667,106.316,129.419,0.00893459,0.566892,20.195,162.175,-1.80521,0.0,0.0
1012,252.75,99.6699,109.251,125.891,106.302,128.36,0.00882156,0.572608,20.1908,161.845,-1.73096,0.0,0.0
1023,255.5,99.4446,109.174,127.294,106.247,131.692,0.00896477,0.573807,20.1897,161.535,-1.97102,0.0,0.0
1034,258.25,99.1938,109.074,123.302,106.247,128.541,0.00909059,0.56878,20.1919,161.234,-1.74872,0.0,0.0
1045,261,98.915,108.371,124.253,106.334,125.807,0.00914725,0.56655,20.1944,160.864,-1.54382,0.0,0.0
1056,263.75,99.2893,108.866,128.111,106.426,125.499,0.00919483,0.568688,20.1929,160.554,-1.51332,0.0,0.0
1067,266.5,99.4363,108.082,124.914,106.497,127.663,0.00941332,0.567995,20.193,160.214,-1.66413,0.0,0.0
1078,269.25,99.3527,108.568,122.333,106.585,127.953,0.00948506,0.567071,20.1936,159.903,-1.6774,0.0,0.0
1089,272,98.8587,108.362,124.961,106.684,129.799,0.00945801,0.568988,20.1903,159.543,-1.80046,0.0,0.0
1100,274.75,99.0366,108.342,124.441,106.776,132.751,0.00942773,0.570311,20.1879,159.263,-1.99892,0.0,0.0
1111,277.5,98.5929,108.055,126.997,106.84,132.144,0.00940102,0.568787,20.192,158.912,-1.95138,0.0,0.0
1122,280.25,98.9699,107.921,126.281,106.876,131.529,0.00927834,0.568689,20.1938,158.592,-1.90544,0.0,0.0
1133,283,98.7791,108.307,128.373,106.922,129.166,0.00927095,0.565629,20.1982,158.272,-1.73505,0.0,0.0
1144,285.75,98.9474,108.645,123.416,106.965,127.726,0.00936834,0.56234,20.2037,157.972,-1.6285,0.0,0.0
1155,288.5,99.1636,108.481,125.269,107.01,131.148,0.00950546,0.562208,20.2031,157.631,-1.86731,0.0,0.0
1166,291.25,99.1608,108.373,124.173,107.054,130.388,0.00950674,0.563805,20.2005,157.301,-1.81015,0.0,0.0
1177,294,99.2349,107.693,128.774,107.062,129.609,0.00961093,0.562396,20.1997,156.981,-1.75453,0.0,0.0
1188,296.75,98.9588,107.987,124.434,107.072,130.732,0.00948848,0.563224,20.1994,156.67,-1.83285,0.0,0.0
1199,299.5,98.7442,107.62,128.148,107.084,131.474,0.00920568,0.561635,20.201,156.32,-1.88382,0.0,0.0
1210,302.25,98.6591,107.678,125.759,107.103,129.13,0.00920021,0.560973,20.2035,155.99,-1.71693,0.0,0.0
1221,305,98.377,108.543,124.791,107.101,129.646,0.00927904,0.559165,20.2042,155.7,-1.7537,0.0,0.0
1232,307.75,99.2509,107.472,125.918,107.107,132.823,0.00910996,0.558218,20.2053,155.349,-1.97552,0.0,0.0
1243,310.5,99.0684,108.014,131.195,107.095,129.836,0.00903065,0.557629,20.2066,155.039,-1.76771,0.0,0.0
1254,313.25,98.5912,107.486,125.517,107.104,132.588,0.00911115,0.553921,20.2109,154.769,-1.9595,0.0,0.0
1265,316,98.5453,107.648,124.966,107.112,127.934,0.00913457,0.546385,20.2236,154.418,-1.63083,0.0,0.0
1276,318.75,98.8938,106.813,124.672,107.103,128.315,0.00903374,0.537301,20.2385,154.158,-1.65886,0.0,0.0
1287,321.5,98.5435,106.679,125.701,107.079,131.719,0.00867018,0.526377,20.2551,153.818,-1.90129,0.0,0.0
1298,324.25,98.0573,106.965,126.702,107.084,132.271,0.00841556,0.517457,20.2693,153.558,-1.93925,0.0,0.0
1309,327,97.362,106.55,128.147,107.085,131.655,0.00809679,0.509675,20.2821,153.237,-1.89635,0.0,0.0
1320,329.75,96.7789,105.72,128.885,107.081,131.574,0.00754747,0.501905,20.2983,152.967,-1.891,0.0,0.0
1331,332.5,96.4008,105.83,128.401,107.069,132.986,0.00707545,0.496004,20.3085,152.697,-1.99006,0.0,0.0
1342,335.25,96.7614,105.328,126.417,107.055,134.018,0.00683828,0.492533,20.3154,152.367,-2.06223,0.0,0.0
1353,338,96.7615,105.224,132.327,107.056,136.408,0.00671541,0.491331,20.3203,152.096,-2.22444,0.0,0.0
1364,340.75,96.2911,105.046,123.663,107.06,139.233,0.00649855,0.489514,20.3238,151.786,-2.41222,0.0,0.0
1375,343.5,95.8899,104.163,126.381,107.064,136.318,0.00650776,0.490979,20.3216,151.526,-2.21767,0.0,0.0
1386,346.25,95.6542,104.17,125.136,107.063,135.865,0.00652468,0.493518,20.3197,151.236,-2.18721,0.0,0.0
1397,349,95.557,104.044,128.615,107.057,138.111,0.00629903,0.495807,20.3173,150.905,-2.3382,0.0,0.0
1408,351.75,95.3661,103.711,124.807,107.05,135.023,0.00614261,0.503426,20.3049,150.625,-2.13118,0.0,0.0
1419,354.5,95.7206,103.907,123.406,107.068,131.791,0.00631143,0.509986,20.294,150.345,-1.90723,0.0,0.0
1430,357.25,95.2051,103.411,128.614,107.065,133.828,0.00666911,0.515121,20.2845,150.034,-2.04834,0.0,0.0
1441,360,95.6931,103.362,126.96,107.058,136.092,0.00685125,0.521838,20.2736,149.724,-2.20286,0.0,0.0
1452,362.75,95.9241,103.696,124.511,107.054,139.957,0.00669018,0.528882,20.262,149.414,-2.46034,0.0,0.0
1463,365.5,95.9961,103.699,123.393,107.051,133.013,0.00680283,0.533267,20.2542,149.124,-1.99347,0.0,0.0
1474,368.25,96.1024,103.8,124.122,107.056,137.033,0.00730523,0.540635,20.2429,148.783,-2.26638,0.0,0.0
1485,371,96.2801,104.199,122.756,107.055,135.793,0.00760195,0.546732,20.2324,148.443,-2.18298,0.0,0.0
1496,373.75,96.4695,104.298,127.759,107.047,134.263,0.00753641,0.551938,20.2234,148.153,-2.07959,0.0,0.0
1507,376.5,96.5905,105.008,128.046,107.067,134.543,0.00760918,0.556189,20.2167,147.852,-2.09708,0.0,0.0
1518,379.25,96.7832,104.903,126.04,107.071,134.924,0.00767895,0.559313,20.2079,147.532,-2.12262,0.0,0.0
1529,382,96.9981,105.21,122.453,107.077,132.271,0.00764916,0.563817,20.1993,147.182,-1.93984,0.0,0.0
1540,384.75,97.2797,105.297,127.441,107.054,134.453,0.00774318,0.569123,20.1893,146.902,-2.09199,0.0,0.0
1551,387.5,98.1718,105.839,128.126,107.072,135.232,0.00782755,0.573856,20.1827,146.581,-2.14346,0.0,0.0
1562,390.25,98.0778,105.888,124.759,107.07,133.575,0.0077974,0.576061,20.1773,146.221,-2.03052,0.0,0.0
1573,393,98.1465,106.086,125.545,107.083,133.176,0.00787642,0.579061,20.1731,145.931,-2.00194,0.0,0.0
1584,395.75,98.5197,105.987,120.696,107.089,136.2,0.00809386,0.580171,20.1713,145.59,-2.20757,0.0,0.0
1595,398.5,98.6548,106.786,129.212,107.082,129.302,0.00805874,0.583897,20.1668,145.25,-1.73095,0.0,0.0
1606,401.25,98.9607,106.921,124.641,107.081,134.806,0.00803493,0.586349,20.1631,144.93,-2.11375,0.0,0.0
1617,404,99.8155,107.317,125.527,107.106,134.254,0.00796496,0.589298,20.1576,144.62,-2.07393,0.0,0.0
1628,406.75,99.6971,107.304,121.64,107.113,135.114,0.00795939,0.59135,20.1541,144.279,-2.13196,0.0,0.0
1639,409.5,99.6158,108.098,125.989,107.098,134.652,0.00808983,0.592712,20.1526,143.959,-2.10184,0.0,0.0
1650,412.25,100.075,107.441,123.118,107.097,133.032,0.008146,0.593849,20.1501,143.639,-1.9908,0.0,0.0
1661,415,100.528,108.495,121.877,107.091,136.807,0.00814443,0.596387,20.1468,143.298,-2.24822,0.0,0.0
1672,417.75,100.754,108.584,122.09,107.089,133.937,0.00815117,0.598916,20.143,142.998,-2.0537,0.0,0.0
1683,420.5,101.113,108.51,125.978,107.091,135.72,0.00812396,0.602247,20.1374,142.668,-2.17502,0.0,0.0
1694,423.25,101.793,108.809,122.386,107.074,132.869,0.00805617,0.603269,20.1354,142.358,-1.98149,0.0,0.0
1705,426,101.831,109.67,126.088,107.06,134.435,0.00818101,0.604963,20.1331,142.037,-2.0903,0.0,0.0
1716,428.75,101.338,109.219,128.174,107.065,134.082,0.00824421,0.606525,20.1303,141.687,-2.06567,0.0,0.0
1727,431.5,101.505,109.924,120.355,107.059,139.106,0.00819441,0.608803,20.1279,141.347,-2.40397,0.0,0.0
1738,434.25,102.186,110.183,121.741,107.037,138.654,0.00816321,0.610378,20.1236,141.026,-2.37588,0.0,0.0
1749,437,102.512,110.433,124.361,107.006,132.977,0.00798041,0.613682,20.1199,140.676,-1.99481,0.0,0.0
1760,439.75,102.57,110.419,123.756,107,136.209,0.00788344,0.616836,20.1171,140.336,-2.21584,0.0,0.0
1771,442.5,102.356,111.03,127.913,106.976,134.679,0.00798131,0.617138,20.1157,140.035,-2.11419,0.0,0.0
1782,445.25,102.748,110.705,124.743,106.959,137.531,0.0082105,0.614743,20.1174,139.715,-2.30797,0.0,0.0
1793,448,103.019,111.324,117.454,106.936,134.335,0.008418,0.613474,20.119,139.375,-2.09407,0.0,0.0
1804,450.75,103.226,111.672,124.085,106.906,138.473,0.00834681,0.61387,20.1191,139.055,-2.37517,0.0,0.0
1815,453.5,103.048,111.678,118.293,106.862,143.552,0.0082321,0.616154,20.1156,138.724,-2.7096,0.0,0.0
1826,456.25,103.278,111.704,125.627,106.846,133.059,0.00824013,0.617111,20.1136,138.384,-2.01416,0.0,0.0
1837,459,103.4,112.125,124.61,106.813,137.667,0.00801519,0.615975,20.1152,138.054,-2.3296,0.0,0.0
1848,461.75,103.792,112.18,121.796,106.753,131.809,0.00807507,0.612848,20.1189,137.743,-1.93556,0.0,0.0
1859,464.5,103.887,112.214,123.188,106.7,135.892,0.00842726,0.610825,20.1217,137.393,-2.22016,0.0,0.0
1870,467.25,103.709,112.103,124.04,106.646,136.119,0.00858795,0.611582,20.1213,137.043,-2.24012,0.0,0.0
1881,470,103.649,112.308,127.317,106.605,135.956,0.00848601,0.612802,20.121,136.733,-2.23269,0.0,0.0
1892,472.75,104.224,112.916,123.457,106.558,132.162,0.00838606,0.612,20.1208,136.402,-1.97695,0.0,0.0
1903,475.5,104.203,112.869,122.981,106.503,136.028,0.00828499,0.609941,20.1224,136.072,-2.24636,0.0,0.0
1914,478.25,104.426,112.996,124.46,106.478,133.611,0.00839254,0.607596,20.1261,135.782,-2.08385,0.0,0.0
1925,481,104.113,112.941,122.324,106.459,136.562,0.00841476,0.607256,20.1272,135.411,-2.28609,0.0,0.0
1936,483.75,104.522,113.356,123.956,106.454,136.418,0.00837224,0.60647,20.1286,135.061,-2.27676,0.0,0.0
1947,486.5,104.613,113.069,123.074,106.414,131.502,0.00824526,0.604181,20.1319,134.721,-1.94332,0.0,0.0
1958,489.25,104.863,112.507,121.902,106.396,132.398,0.0081944,0.604558,20.1326,134.39,-2.00718,0.0,0.0
1969,492,104.105,112.868,121.889,106.386,133.231,0.00812877,0.605,20.1322,134.09,-2.06562,0.0,0.0
1980,494.75,104.04,113.07,119.841,106.361,136.11,0.00808059,0.604652,20.1333,133.77,-2.26406,0.0,0.0
1991,497.5,103.979,113.009,126.423,106.345,134.652,0.00798146,0.603658,20.1358,133.45,-2.16661,0.0,0.0
2002,500.25,104.88,112.561,125.646,106.31,131.194,0.00814166,0.602176,20.1378,133.089,-1.93079,0.0,0.0
2013,503,104.422,113.024,121.271,106.301,131.701,0.00842314,0.600295,20.1392,132.769,-1.96695,0.0,0.0
2024,505.75,104.456,112.97,123.919,106.259,132.353,0.00848342,0.600208,20.1396,132.449,-2.01592,0.0,0.0
2035,508.5,104.12,113.261,123.273,106.257,132.742,0.00851286,0.602151,20.1357,132.148,-2.043,0.0,0.0
2046,511.25,104.277,113.246,122.707,106.235,134.236,0.008547,0.604421,20.1325,131.788,-2.14765,0.0,0.0
2057,514,104.597,113.112,130.226,106.225,139.315,0.00859018,0.605498,20.1311,131.518,-2.48946,0.0,0.0
2068,516.75,104.498,113.116,122.271,106.237,134.381,0.0085231,0.604997,20.1301,131.168,-2.15736,0.0,0.0
2079,519.5,104.697,113.294,128.631,106.254,129.863,0.00861899,0.60533,20.1297,130.837,-1.84204,0.0,0.0
2090,522.25,104.952,113.515,123.925,106.264,135.476,0.00875729,0.604193,20.1303,130.497,-2.22964,0.0,0.0
2101,525,104.629,113.214,126.116,106.277,133.828,0.00887788,0.601155,20.134,130.197,-2.11613,0.0,0.0
2112,527.75,104.755,113.348,124.479,106.279,134.96,0.0088662,0.598885,20.1357,129.866,-2.19325,0.0,0.0
2123,530.5,105.076,113.274,121.783,106.295,133.041,0.00860258,0.59901,20.1376,129.546,-2.06044,0.0,0.0
2134,533.25,104.865,113.114,121.907,106.309,133.303,0.00815784,0.598067,20.1403,129.196,-2.07726,0.0,0.0
2145,536,104.531,113.43,127.607,106.34,133.421,0.00776953,0.597227,20.1411,128.895,-2.08273,0.0,0.0
2156,538.75,104.625,113.29,124.972,106.352,137.205,0.00766439,0.597625,20.1416,128.585,-2.33848,0.0,0.0
2167,541.5,104.407,113.262,121.77,106.371,134.761,0.00777761,0.594665,20.1456,128.245,-2.17176,0.0,0.0
2178,544.25,104.763,114.047,123.216,106.386,132.688,0.0080655,0.59079,20.1509,127.935,-2.02815,0.0,0.0
2189,547,104.364,112.74,126.752,106.413,134.181,0.00827408,0.587815,20.1554,127.634,-2.12863,0.0,0.0
2200,549.75,104.395,112.981,123.948,106.443,135.232,0.00823768,0.585798,20.1593,127.304,-2.19757,0.0,0.0
2211,552.5,104.498,113.084,124.096,106.46,133.276,0.00828313,0.584612,20.1615,126.994,-2.06242,0.0,0.0
2222,555.25,104.601,112.895,123.604,106.509,131.583,0.00833467,0.584226,20.1626,126.653,-1.94082,0.0,0.0
2233,558,104.014,112.739,124.825,106.548,131.836,0.00832816,0.58641,20.1602,126.343,-1.95511,0.0,0.0
2244,560.75,104.571,113.547,119.568,106.592,130.207,0.00831442,0.585511,20.16,126.033,-1.8371,0.0,0.0
2255,563.5,104.286,112.964,121.006,106.62,134.634,0.00842535,0.582783,20.1616,125.703,-2.14169,0.0,0.0
2266,566.25,103.944,113.123,125.226,106.654,134.788,0.00826156,0.582722,20.1623,125.392,-2.14925,0.0,0.0
2277,569,104.657,112.91,118.917,106.69,134.326,0.00800858,0.581526,20.1626,125.092,-2.11464,0.0,0.0
2288,571.75,103.993,113.061,123.227,106.733,133.593,0.00778421,0.581031,20.163,124.782,-2.06071,0.0,0.0
2299,574.5,104.271,113.265,124.364,106.767,135.222,0.00765667,0.580282,20.165,124.472,-2.16906,0.0,0.0
2310,577.25,104.42,112.548,121.4,106.794,134.58,0.00780491,0.577645,20.1695,124.141,-2.12299,0.0,0.0
2321,580,104.181,112.548,124.901,106.821,132.724,0.00809654,0.574812,20.1753,123.851,-1.99315,0.0,0.0
2332,582.75,104.033,112.778,124.898,106.85,133.991,0.00838662,0.571382,20.1813,123.521,-2.07797,0.0,0.0
2343,585.5,103.974,112.938,129.162,106.882,135.512,0.00843127,0.569859,20.1845,123.26,-2.17883,0.0,0.0
2354,588.25,104.168,112.868,123.714,106.896,135.603,0.0083234,0.568763,20.1865,122.95,-2.18372,0.0,0.0
2365,591,104.407,112.733,124.885,106.915,133.158,0.00830646,0.567044,20.1885,122.64,-2.01508,0.0,0.0
2376,593.75,104.106,112.734,124.781,106.927,134.616,0.00819652,0.566665,20.1918,122.31,-2.11405,0.0,0.0
2387,596.5,103.264,112.173,124.995,106.929,131.692,0.00816893,0.562389,20.197,121.969,-1.91221,0.0,0.0
2398,599.25,103.583,112.264,123.798,106.951,133.43,0.00814146,0.559778,20.2004,121.689,-2.03072,0.0,0.0
2409,602,103.083,110.93,123.241,106.948,135.548,0.00796932,0.557889,20.2021,121.379,-2.1756,0.0,0.0
2420,604.75,103.156,111.755,124.833,106.947,132.461,0.00796312,0.556073,20.2054,121.119,-1.9642,0.0,0.0
2431,607.5,103.1,111.785,124.859,106.948,130.705,0.00790135,0.555021,20.2079,120.748,-1.84155,0.0,0.0
2442,610.25,103.2,111.542,127.06,106.942,136.092,0.00765659,0.55386,20.2093,120.468,-2.21284,0.0,0.0
2453,613,103.118,111.25,122.73,106.953,131.429,0.00763986,0.552774,20.2116,120.158,-1.89187,0.0,0.0
2464,615.75,102.694,111.05,122.909,106.926,134.009,0.00773767,0.549149,20.2164,119.857,-2.07263,0.0,0.0
2475,618.5,102.861,111.153,123.676,106.887,132.479,0.00767584,0.547651,20.2186,119.587,-1.97062,0.0,0.0
2486,621.25,102.505,111.222,121.438,106.862,135.72,0.00758776,0.547228,20.2194,119.277,-2.19461,0.0,0.0
2497,624,102.419,111.088,128.385,106.835,135.204,0.00763273,0.546783,20.2196,118.957,-2.16199,0.0,0.0
2508,626.75,102.222,110.77,126.009,106.813,137.051,0.00755761,0.546573,20.2206,118.646,-2.28846,0.0,0.0
2519,629.5,102.298,110.777,122.319,106.77,129.555,0.00746897,0.547267,20.2201,118.376,-1.77573,0.0,0.0
2530,632.25,102.104,110.45,125.069,106.713,132.905,0.00763251,0.548067,20.2192,118.076,-2.01503,0.0,0.0
2541,635,102.351,110.545,125.979,106.661,131.112,0.00771566,0.548546,20.2164,117.766,-1.89479,0.0,0.0
2552,637.75,101.975,110.613,125.611,106.628,134.706,0.00770084,0.549368,20.2148,117.485,-2.14595,0.0,0.0
2563,640.5,101.604,110.233,126.371,106.567,130.497,0.00789544,0.550304,20.213,117.215,-1.85968,0.0,0.0
2574,643.25,101.903,110.12,124.046,106.508,131.013,0.00801429,0.551997,20.2105,116.895,-1.90101,0.0,0.0
2585,646,101.997,109.957,124.485,106.443,134.444,0.00806361,0.550808,20.2113,116.544,-2.14398,0.0,0.0
2596,648.75,101.714,109.792,123.984,106.388,133.077,0.00805156,0.550316,20.2116,116.264,-2.05486,0.0,0.0
2607,651.5,101.748,110.158,125.196,106.352,133.276,0.00800364,0.54929,20.2117,115.954,-2.07174,0.0,0.0
2618,654.25,101.804,109.825,121.839,106.293,132.307,0.007905,0.547856,20.2141,115.674,-2.00985,0.0,0.0
2629,657,101.883,109.887,124.685,106.23,130.868,0.00796525,0.545795,20.2169,115.393,-1.91487,0.0,0.0
2640,659.75,102.161,110.283,122.701,106.177,132.135,0.00803498,0.544924,20.2197,115.053,-2.00791,0.0,0.0
2651,662.5,101.935,110.098,122.579,106.136,131.556,0.0078846,0.543899,20.2206,114.793,-1.97115,0.0,0.0
2662,665.25,101.602,109.79,122.154,106.101,130.488,0.00784544,0.542983,20.2209,114.493,-1.89927,0.0,0.0
2673,668,101.742,109.647,124.063,106.038,134.553,0.00763357,0.541705,20.2226,114.212,-2.18632,0.0,0.0
2684,670.75,101.274,109.301,124.232,105.991,132.434,0.0075485,0.541009,20.2252,113.912,-2.04478,0.0,0.0
2695,673.5,101.611,109.196,123.813,105.929,128.921,0.00754844,0.539429,20.2274,113.602,-1.80334,0.0,0.0
2706,676.25,101.531,109.241,125.431,105.891,133.883,0.00760573,0.538755,20.2295,113.332,-2.15329,0.0,0.0
2717,679,101.344,109.126,127.619,105.863,127.663,0.00771483,0.539063,20.2312,113.031,-1.71895,0.0,0.0
2728,681.75,101.424,108.987,125.811,105.81,130.587,0.00766751,0.535164,20.2362,112.751,-1.93148,0.0,0.0
2739,684.5,101.433,108.975,122.267,105.765,130.08,0.00750757,0.531123,20.2413,112.451,-1.89973,0.0,0.0
2750,687.25,100.82,108.802,123.676,105.731,131.248,0.00747231,0.5294,20.2447,112.191,-1.9847,0.0,0.0
2761,690,101.105,108.844,129.57,105.717,132.751,0.0074633,0.527546,20.2469,111.89,-2.0904,0.0,0.0
2772,692.75,101.002,108.591,125.797,105.691,129.492,0.00760694,0.526821,20.2492,111.63,-1.8645,0.0,0.0
2783,695.5,100.824,108.68,126.327,105.653,133.303,0.00764112,0.525624,20.2501,111.33,-2.13411,0.0,0.0
2794,698.25,100.76,108.22,127.238,105.643,128.306,0.00762191,0.524978,20.2504,111.039,-1.78415,0.0,0.0
2805,701,100.428,107.72,125.275,105.641,127.382,0.00773045,0.525064,20.2489,110.779,-1.71803,0.0,0.0
2816,703.75,100.431,107.845,125.411,105.644,128.849,0.00778213,0.526279,20.2468,110.459,-1.8229,0.0,0.0
2827,706.5,100.2,107.748,128.537,105.647,131.981,0.00777684,0.526087,20.2476,110.159,-2.04311,0.0,0.0
2838,709.25,99.8807,107.372,123.085,105.638,131.999,0.00757591,0.524587,20.248,109.898,-2.04517,0.0,0.0
2849,712,100.351,107.851,125.123,105.656,130.388,0.0074674,0.525685,20.2449,109.618,-1.93085,0.0,0.0
2860,714.75,100.448,107.733,125.569,105.672,129.935,0.0076347,0.527179,20.2426,109.368,-1.89752,0.0,0.0
2871,717.5,99.621,107.769,128.855,105.704,130.08,0.00777476,0.526552,20.2424,109.088,-1.90503,0.0,0.0
2882,720.25,100.212,107.636,123.074,105.722,129.021,0.00762301,0.526818,20.2416,108.818,-1.82838,0.0,0.0
2893,723,99.8883,107.127,121.67,105.766,133.131,0.00756409,0.527952,20.2406,108.537,-2.11246,0.0,0.0
2904,725.75,99.7038,107.195,128.235,105.79,130.913,0.00769251,0.527309,20.2401,108.197,-1.9561,0.0,0.0
2915,728.5,100.011,107.082,126.788,105.852,125.744,0.00809568,0.528892,20.2372,107.927,-1.58091,0.0,0.0
2926,731.25,99.6901,107.005,128.151,105.902,128.07,0.0082367,0.530036,20.2342,107.636,-1.74488,0.0,0.0
2937,734,99.5646,107.228,122.135,105.946,129.102,0.00800913,0.529727,20.234,107.396,-1.81472,0.0,0.0
2948,736.75,99.9133,107.331,122.943,106.007,128.804,0.00785897,0.528236,20.2344,107.096,-1.78821,0.0,0.0
2959,739.5,99.5559,107.126,123.561,106.048,127.934,0.00790226,0.528154,20.2344,106.776,-1.72243,0.0,0.0
2970,742.25,99.4484,106.809,126.215,106.124,128.632,0.00813961,0.527413,20.2342,106.515,-1.7658,0.0,0.0
2981,745,99.1669,106.98,124.677,106.193,128.65,0.00831196,0.525946,20.2362,106.225,-1.7611,0.0,0.0
2992,747.75,99.2437,106.894,127.426,106.25,128.306,0.00829622,0.523351,20.2379,105.945,-1.73163,0.0,0.0
3003,750.5,99.0089,106.596,125.195,106.336,129.962,0.00809103,0.525888,20.2359,105.675,-1.84196,0.0,0.0
3014,753.25,99.502,106.628,131.485,106.416,127.618,0.00804829,0.525507,20.2347,105.414,-1.66786,0.0,0.0
3025,756,99.5812,106.587,121.302,106.505,131.846,0.00801776,0.52615,20.2337,105.124,-1.95945,0.0,0.0
3036,758.75,98.7235,106.501,126.446,106.566,130.279,0.00791308,0.52652,20.2329,104.814,-1.84445,0.0,0.0
3047,761.5,99.4495,106.688,128.059,106.632,128.378,0.00793931,0.525287,20.2346,104.584,-1.70383,0.0,0.0
3058,764.25,99.2263,106.322,121.578,106.717,127.473,0.00819203,0.52359,20.2372,104.313,-1.63155,0.0,0.0
3069,767,99.3199,106.421,124.95,106.8,131.674,0.00841875,0.522484,20.2383,104.033,-1.92206,0.0,0.0
3080,769.75,99.0637,106.64,122.645,106.857,131.846,0.00858667,0.521535,20.2404,103.763,-1.92918,0.0,0.0
3091,772.5,98.8542,106.377,126.776,106.915,130.451,0.00852092,0.519335,20.2429,103.503,-1.82661,0.0,0.0
3102,775.25,98.9445,106.126,123.002,106.971,130.116,0.00814377,0.517544,20.2442,103.243,-1.79814,0.0,0.0
3113,778,98.9264,106.25,130.083,107.033,126.866,0.00794817,0.517915,20.2434,102.972,-1.56061,0.0,0.0
3124,780.75,98.5204,105.91,123.54,107.103,129.365,0.00799495,0.516461,20.2466,102.702,-1.73365,0.0,0.0
3135,783.5,98.7649,105.952,124.706,107.14,129.292,0.00809129,0.516527,20.2454,102.432,-1.72538,0.0,0.0
3146,786.25,98.7805,105.649,126.423,107.174,130.216,0.00801113,0.517824,20.2449,102.132,-1.7878,0.0,0.0
3157,789,98.648,105.863,125.123,107.213,129.754,0.00798211,0.514506,20.248,101.871,-1.7518,0.0,0.0
3168,791.75,98.6942,105.517,124.608,107.241,126.269,0.00807334,0.512004,20.2499,101.611,-1.49947,0.0,0.0
3179,794.5,98.8134,105.737,123.489,107.263,127.165,0.00812815,0.512622,20.2491,101.351,-1.5625,0.0,0.0
3190,797.25,98.5617,105.797,130.305,107.264,132.063,0.00813133,0.511314,20.2516,101.091,-1.90938,0.0,0.0
3201,800,98.4985,105.779,131.453,107.241,129.229,0.00807578,0.508369,20.2551,100.84,-1.71222,0.0,0.0
3212,802.75,98.3362,105.832,123.405,107.24,131.945,0.007919,0.50578,20.2584,100.58,-1.90324,0.0,0.0
3223,805.5,98.676,105.882,120.58,107.222,132.416,0.00765513,0.50413,20.2609,100.34,-1.93743,0.0,0.0
3234,808.25,98.1374,105.454,129.022,107.205,132.479,0.0076757,0.504044,20.2608,100.06,-1.94332,0.0,0.0
3245,811,97.8354,105.066,126.603,107.166,127.482,0.00779353,0.502819,20.2619,99.7994,-1.59363,0.0,0.0
3256,813.75,97.9149,104.862,126.014,107.143,127.889,0.00766493,0.500009,20.2659,99.5692,-1.62489,0.0,0.0
3267,816.5,97.8013,104.825,121.571,107.105,129.745,0.00749847,0.497857,20.2699,99.2489,-1.76045,0.0,0.0
3278,819.25,97.8814,104.917,121.468,107.061,133.357,0.00736518,0.494945,20.2745,99.0187,-2.01628,0.0,0.0
3289,822,97.9507,104.506,131.012,106.996,131.203,0.0072136,0.492098,20.2807,98.7885,-1.87231,0.0,0.0
3300,824.75,97.7804,104.85,130.217,106.898,133.457,0.00704692,0.488651,20.2865,98.5483,-2.03715,0.0,0.0
3311,827.5,97.8208,104.935,127.331,106.816,129.528,0.00700109,0.486754,20.2896,98.2881,-1.76988,0.0,0.0
3322,830.25,97.5847,104.401,128.625,106.727,127.183,0.00717986,0.484484,20.2928,98.0879,-1.6098,0.0,0.0
3333,833,97.2872,104.244,126.443,106.594,131.827,0.00720605,0.481763,20.2972,97.8277,-1.95054,0.0,0.0
3344,835.75,97.2985,104.103,126.344,106.449,129.881,0.00705937,0.480967,20.2997,97.5975,-1.82644,0.0,0.0
3355,838.5,96.925,104.396,128.886,106.31,129.564,0.00706606,0.477526,20.3046,97.3572,-1.816,0.0,0.0
3366,841.25,97.0482,104.088,126.72,106.19,132.135,0.00702784,0.476253,20.3075,97.117,-2.00682,0.0,0.0
3377,844,96.7834,103.906,129.743,106.055,129.818,0.00676494,0.474417,20.3098,96.8167,-1.85601,0.0,0.0
3388,846.75,96.3604,103.488,124.919,105.929,127.925,0.00668519,0.472725,20.3115,96.5765,-1.73211,0.0,0.0
3399,849.5,96.4081,103.599,127.535,105.822,132.253,0.00686212,0.470682,20.3134,96.3363,-2.04686,0.0,0.0
3410,852.25,96.2394,103.318,128.186,105.72,129.618,0.00692411,0.467779,20.3169,96.1261,-1.87098,0.0,0.0
3421,855,96.465,103.341,122.898,105.667,130.85,0.00677746,0.467522,20.3179,95.8659,-1.96239,0.0,0.0
3432,857.75,96.4968,103.061,125.686,105.648,130.08,0.00647303,0.466439,20.32,95.6557,-1.90983,0.0,0.0
3443,860.5,95.7853,102.779,126.59,105.657,130.397,0.00636458,0.4635,20.3219,95.4155,-1.93137,0.0,0.0
3454,863.25,95.5179,102.53,125.168,105.69,132.642,0.00649736,0.464656,20.3228,95.1753,-2.0853,0.0,0.0
3465,866,95.9486,102.493,127.494,105.768,127.409,0.00671471,0.46176,20.3268,94.9751,-1.70894,0.0,0.0
3476,868.75,95.6094,102.497,126.574,105.91,132.57,0.00677008,0.458824,20.3303,94.7149,-2.0612,0.0,0.0
3487,871.5,95.5306,102.097,127.895,106.053,130.424,0.00677171,0.454912,20.336,94.4746,-1.89899,0.0,0.0
3498,874.25,95.3353,101.853,125.435,106.207,133.122,0.00668748,0.45114,20.3418,94.2945,-2.07359,0.0,0.0
3509,877,94.7196,101.342,127.73,106.359,132.688,0.00644382,0.448772,20.3452,94.0643,-2.03044,0.0,0.0
3520,879.75,95.0327,101.434,123.728,106.534,132.425,0.00641795,0.447113,20.3473,93.8541,-1.99716,0.0,0.0
3531,882.5,94.7358,101.271,127.338,106.699,126.051,0.00633198,0.446423,20.3484,93.5638,-1.53011,0.0,0.0
3542,885.25,94.1082,101.28,132.184,106.834,130.94,0.00633593,0.445434,20.3499,93.3536,-1.86783,0.0,0.0
3553,888,94.4759,100.889,127.035,106.919,131.293,0.0062301,0.442023,20.3545,93.1635,-1.88529,0.0,0.0
3564,890.75,94.0094,100.571,129.061,106.954,130.542,0.00599713,0.438363,20.3591,92.9133,-1.82961,0.0,0.0
3575,893.5,94.0478,100.662,131.396,106.961,132.552,0.00595055,0.436454,20.3617,92.6931,-1.96928,0.0,0.0
3586,896.25,93.8183,100.444,127.11,106.926,131.257,0.00582481,0.435256,20.3642,92.4929,-1.88216,0.0,0.0
3597,899,93.8836,100.096,126.23,106.831,134.127,0.00558746,0.43429,20.3664,92.2727,-2.08892,0.0,0.0
3608,901.75,93.3598,100.09,128.615,106.68,132.706,0.0055095,0.431139,20.3691,92.0525,-2.00403,0.0,0.0
3619,904.5,93.4945,99.5609,129.839,106.493,133.52,0.00575461,0.429224,20.3722,91.8323,-2.07636,0.0,0.0
3630,907.25,93.1005,99.8625,127.214,106.377,130.171,0.00608509,0.43122,20.3688,91.6621,-1.85309,0.0,0.0
3641,910,93.353,99.7689,129.365,106.291,130.162,0.00617979,0.430872,20.3685,91.472,-1.8599,0.0,0.0
3652,912.75,92.8867,99.505,130.854,106.406,130.641,0.0059884,0.430109,20.3677,91.2117,-1.88372,0.0,0.0
3663,915.5,92.9251,99.2719,126.899,106.693,127.12,0.00578574,0.430231,20.3685,91.0116,-1.60819,0.0,0.0
3674,918.25,92.8307,98.9059,129.315,106.936,133.321,0.00565768,0.428088,20.3719,90.8114,-2.02455,0.0,0.0
3685,921,92.4532,98.8534,127.217,107.087,126.631,0.00564614,0.425218,20.3746,90.5812,-1.53896,0.0,0.0
3696,923.75,92.6879,98.5089,131.014,107.115,127.364,0.00570842,0.422984,20.3769,90.361,-1.58955,0.0,0.0
3707,926.5,92.0818,98.5563,127.736,106.988,131.782,0.00579871,0.421506,20.3778,90.1908,-1.91351,0.0,0.0
3718,929.25,92.0291,98.44,127.721,106.734,133.131,0.00584323,0.421576,20.3781,89.9706,-2.02878,0.0,0.0
3729,932,91.5844,98.2596,129.045,106.719,130.397,0.00589025,0.421932,20.3767,89.8005,-1.83962,0.0,0.0
3740,934.75,91.807,98.0182,128.622,106.904,129.139,0.00580405,0.422419,20.3761,89.5703,-1.73465,0.0,0.0
3751,937.5,91.8745,98.4531,128.949,107.105,129.691,0.00555607,0.420757,20.3775,89.3801,-1.75657,0.0,0.0
3762,940.25,91.6132,97.9183,126.249,107.277,131.827,0.00541805,0.419251,20.378,89.1799,-1.89188,0.0,0.0
3773,943,91.2958,97.4791,131.134,107.442,129.908,0.00541798,0.41787,20.3788,88.9497,-1.74309,0.0,0.0
3784,945.75,91.6131,97.7382,128.013,107.544,132.316,0.00540961,0.417257,20.3802,88.8096,-1.90305,0.0,0.0
3795,948.5,91.385,97.349,127.732,107.592,128.161,0.00556595,0.41609,20.3821,88.5994,-1.60602,0.0,0.0
3806,951.25,91.4809,97.2901,130.008,107.533,132.09,0.00571541,0.414619,20.3834,88.3992,-1.8883,0.0,0.0
3817,954,91.0247,96.9643,129.77,107.401,132.932,0.00576199,0.414371,20.3839,88.189,-1.95783,0.0,0.0
3828,956.75,90.9362,96.9833,133.123,107.214,132.742,0.00572049,0.413582,20.3841,88.0489,-1.96071,0.0,0.0
3839,959.5,91.2041,96.8683,126.547,106.98,130.578,0.00553813,0.412868,20.3841,87.8587,-1.82991,0.0,0.0
3850,962.25,91.0234,97.0837,126.944,106.719,128.423,0.00523115,0.411357,20.3865,87.6485,-1.69957,0.0,0.0
3861,965,90.8535,96.6363,129.316,106.43,128.17,0.00505394,0.407858,20.3921,87.4684,-1.7063,0.0,0.0
3872,967.75,90.7745,96.703,129.131,106.155,129.718,0.00516004,0.404664,20.3962,87.2982,-1.8403,0.0,0.0
3883,970.5,90.2304,96.2299,129.181,105.924,128.097,0.00503806,0.402529,20.3987,87.108,-1.74487,0.0,0.0
3894,973.25,90.7636,96.5034,132.278,105.765,128.097,0.00471173,0.401611,20.4011,86.9179,-1.75869,0.0,0.0
3905,976,90.2335,96.2537,130.254,105.69,126.54,0.00445701,0.399653,20.4036,86.7477,-1.65291,0.0,0.0
3916,978.75,90.1708,96.1672,127.467,105.697,127.364,0.00438468,0.396723,20.4071,86.5576,-1.71184,0.0,0.0
3927,981.5,89.9438,95.9471,129.524,105.785,129.139,0.00443906,0.394979,20.4103,86.3974,-1.83123,0.0,0.0
3938,984.25,90.209,95.8151,128.374,105.939,129.13,0.00466612,0.393152,20.4128,86.2072,-1.81725,0.0,0.0
3949,987,89.3548,95.1553,131.334,106.159,132.19,0.00484712,0.392191,20.4148,86.0671,-2.01327,0.0,0.0
3960,989.75,89.4052,95.1789,126.839,106.393,131.167,0.00494084,0.390199,20.4178,85.877,-1.92167,0.0,0.0
3971,992.5,89.2886,94.9001,131.434,106.622,128.731,0.00504274,0.388136,20.4204,85.6968,-1.72987,0.0,0.0
3982,995.25,88.8766,94.8318,128.009,106.811,129.501,0.00512561,0.386399,20.4221,85.5066,-1.76837,0.0,0.0
3993,998,89.3548,95.1373,127.761,106.94,130.089,0.00490856,0.384949,20.4254,85.3365,-1.79888,0.0,0.0
4004,1000.75,88.3959,94.3457,129.209,107.009,129.79,0.00460172,0.382321,20.429,85.1763,-1.77187,0.0,0.0
4015,1003.5,88.4054,94.3818,133.482,106.973,127.862,0.00458373,0.380321,20.4308,85.0262,-1.63758,0.0,0.0
4026,1006.25,88.7112,94.2154,129.811,106.854,128.387,0.00456141,0.379774,20.43,84.8861,-1.68541,0.0,0.0
4037,1009,88.5772,94.3536,128.29,106.678,133.204,0.00439175,0.379231,20.4316,84.7459,-2.03864,0.0,0.0
4048,1011.75,88.1662,93.8445,130.614,106.488,129.111,0.0041332,0.376779,20.4352,84.5357,-1.7685,0.0,0.0
4059,1014.5,87.7518,93.7416,129.506,106.342,129.926,0.00404034,0.374526,20.4375,84.3956,-1.83888,0.0,0.0
4070,1017.25,88.1241,93.8805,131.627,106.301,129.446,0.00410561,0.371278,20.4435,84.2655,-1.80849,0.0,0.0
4081,1020,87.6977,93.3738,131.651,106.581,131.71,0.00417009,0.368153,20.4482,84.0853,-1.94347,0.0,0.0
4092,1022.75,87.6693,93.5132,131.292,106.898,129.401,0.00419294,0.36473,20.4532,83.9352,-1.75386,0.0,0.0
4103,1025.5,87.3574,93.1521,132.94,107.077,131.257,0.00412443,0.361819,20.4578,83.7651,-1.86916,0.0,0.0
4114,1028.25,87.3054,92.6819,128.835,107.064,131.293,0.00406285,0.358386,20.4626,83.6449,-1.87289,0.0,0.0
4125,1031,87.0444,92.5706,128.273,106.863,128.84,0.00408899,0.354265,20.4687,83.4948,-1.7169,0.0,0.0
4136,1033.75,86.9255,92.0013,133.06,106.644,128.333,0.00405162,0.350085,20.4762,83.3747,-1.69958,0.0,0.0
4147,1036.5,86.5648,92.0946,126.986,106.843,132.153,0.00400179,0.348489,20.4797,83.2246,-1.95174,0.0,0.0
4158,1039.25,86.1574,91.8939,131.115,107.094,131.909,0.00403537,0.347211,20.4821,83.1045,-1.91326,0.0,0.0
4169,1042,86.1671,91.6741,129.005,107.309,131.683,0.00402033,0.345929,20.4834,82.9743,-1.87903,0.0,0.0
4180,1044.75,85.7974,91.3597,132.785,107.48,131.085,0.00398529,0.343396,20.4879,82.8442,-1.82269,0.0,0.0
4191,1047.5,85.8401,91.0347,133.075,107.569,132.497,0.00397548,0.340015,20.4917,82.6741,-1.91349,0.0,0.0
4202,1050.25,85.1663,90.6731,132.632,107.56,129.99,0.0038798,0.337715,20.4945,82.5139,-1.73877,0.0,0.0
4213,1053,85.3717,90.7039,129.316,107.402,129.627,0.00394783,0.33407,20.4996,82.3838,-1.7267,0.0,0.0
4224,1055.75,84.9744,90.1738,133.52,107.131,128.342,0.00397242,0.331231,20.503,82.2237,-1.65841,0.0,0.0
4235,1058.5,84.0988,89.6731,129.51,106.793,131.103,0.00382511,0.327872,20.5084,82.1236,-1.8828,0.0,0.0
4246,1061.25,84.3832,89.7786,132.225,106.421,129.51,0.00372206,0.326083,20.5115,82.0435,-1.80257,0.0,0.0
4257,1064,84.0707,89.2789,133.44,106.11,128.785,0.00363681,0.324327,20.5159,81.9334,-1.77794,0.0,0.0
4268,1066.75,83.7759,89.0839,130.479,105.833,128.079,0.00357582,0.321694,20.5209,81.7733,-1.7515,0.0,0.0
4279,1069.5,83.5853,88.9296,134.6,105.732,128.052,0.00342174,0.318659,20.5251,81.6732,-1.75828,0.0,0.0
4290,1072.25,83.3727,88.8181,136.877,105.787,129.012,0.00324623,0.315773,20.5286,81.493,-1.82206,0.0,0.0
4301,1075,82.8825,88.1494,135,105.974,129.392,0.00325548,0.313016,20.5318,81.3929,-1.83292,0.0,0.0
4312,1077.75,83.042,88.265,128.053,106.281,129.12,0.0032527,0.311251,20.5348,81.2728,-1.78707,0.0,0.0
4323,1080.5,82.7189,87.8093,132.42,106.564,127.328,0.00328805,0.30921,20.5382,81.1827,-1.63424,0.0,0.0
4334,1083.25,82.2772,87.871,135.175,106.805,129.428,0.00336383,0.308028,20.5411,81.0626,-1.76372,0.0,0.0
4345,1086,81.9509,87.1611,134.182,106.971,130.234,0.00316928,0.306372,20.5442,80.9425,-1.80648,0.0,0.0
4356,1088.75,81.3631,86.6693,134.256,107.035,128.568,0.00312004,0.303469,20.5485,80.8324,-1.6828,0.0,0.0
4367,1091.5,81.4965,86.5237,132.763,106.969,129.03,0.00328535,0.301044,20.5534,80.7223,-1.72135,0.0,0.0
4378,1094.25,81.3797,86.3027,132.553,106.788,131.013,0.00333187,0.299441,20.5564,80.6122,-1.87687,0.0,0.0
4389,1097,80.9449,86.1757,135.952,106.549,129.455,0.00318738,0.297913,20.5582,80.5221,-1.78768,0.0,0.0
4400,1099.75,80.9304,86.0423,135.229,106.341,129.618,0.00300947,0.295261,20.5621,80.4221,-1.81722,0.0,0.0
4411,1102.5,80.9402,85.7187,133.739,106.336,128.568,0.00290829,0.292958,20.5664,80.342,-1.74291,0.0,0.0
4422,1105.25,80.4265,85.4233,136.393,106.612,128.134,0.00284397,0.291281,20.5686,80.2319,-1.6881,0.0,0.0
4433,1108,80.44,85.2093,138.116,106.935,129.546,0.00278776,0.288896,20.5753,80.0918,-1.76091,0.0,0.0
4444,1110.75,80.4123,85.0201,138.17,107.069,128.152,0.0026874,0.285261,20.5804,80.0017,-1.6501,0.0,0.0
4455,1113.5,79.8461,84.631,138.01,107.02,127.934,0.00270641,0.283073,20.5868,79.9717,-1.63871,0.0,0.0
4466,1116.25,79.8038,84.4081,135.58,106.783,130.506,0.0026945,0.28116,20.5892,79.8716,-1.84176,0.0,0.0
4477,1119,79.546,84.2323,134.791,106.707,128.26,0.00263969,0.279725,20.5919,79.7314,-1.68897,0.0,0.0
4488,1121.75,79.0399,83.9371,135.036,106.902,130.134,0.00259039,0.277628,20.5959,79.6313,-1.80533,0.0,0.0
4499,1124.5,78.8526,83.7763,136.19,107.137,129.483,0.00260632,0.274205,20.601,79.5313,-1.73913,0.0,0.0
4510,1127.25,78.4446,83.4119,136.497,107.354,128.957,0.00260267,0.271067,20.6067,79.4011,-1.68322,0.0,0.0
4521,1130,78.07,82.7951,138.864,107.506,130.216,0.00253579,0.267555,20.6103,79.3111,-1.75942,0.0,0.0
4532,1132.75,77.9156,82.5979,138.133,107.587,129.446,0.00259308,0.264209,20.6145,79.211,-1.69809,0.0,0.0
4543,1135.5,77.7424,82.3483,140.062,107.565,130.605,0.00278662,0.262424,20.6185,79.1609,-1.78174,0.0,0.0
4554,1138.25,77.952,82.3716,137.908,107.461,130.18,0.00291687,0.262193,20.6213,79.0708,-1.7607,0.0,0.0
4565,1141,77.1282,81.8849,134.399,107.293,130.533,0.0027945,0.260201,20.6245,78.9307,-1.79986,0.0,0.0
4576,1143.75,77.0374,81.3876,137.485,107.066,130.162,0.00254464,0.256568,20.6299,78.9107,-1.79323,0.0,0.0
4587,1146.5,76.5397,80.9924,135.021,106.798,130.768,0.00239434,0.253323,20.6357,78.8406,-1.8589,0.0,0.0
4598,1149.25,76.5289,80.741,136.418,106.532,128.704,0.00240125,0.250251,20.6419,78.7405,-1.73574,0.0,0.0
4609,1152,76.2745,81.0499,138.609,106.287,128.822,0.00234036,0.246914,20.6482,78.6605,-1.76528,0.0,0.0
4620,1154.75,76.2901,80.6458,138.15,106.099,129.51,0.00229659,0.244287,20.6542,78.4103,-1.83045,0.0,0.0
4631,1157.5,75.3514,79.7832,135.851,105.934,126.948,0.00228281,0.241073,20.6614,78.5003,-1.66122,0.0,0.0
4642,1160.25,75.1069,79.5078,135.197,105.826,128.686,0.00229129,0.237629,20.6673,78.4002,-1.79551,0.0,0.0
4653,1163,74.2061,78.6567,138.545,105.766,127.355,0.00227056,0.233646,20.6746,78.2902,-1.70526,0.0,0.0
4664,1165.75,74.013,78.204,140.962,105.785,128.324,0.00237489,0.229727,20.6819,78.2101,-1.77316,0.0,0.0
4675,1168.5,73.9394,78.0483,144.748,105.825,127.509,0.00260369,0.226589,20.6873,78.1801,-1.7112,0.0,0.0
4686,1171.25,73.828,78.0659,134.167,105.9,129.012,0.00264142,0.222838,20.694,78.07,-1.81224,0.0,0.0
4697,1174,73.3079,77.4622,139.946,105.996,127.183,0.00251007,0.218699,20.7014,77.9999,-1.67291,0.0,0.0
4708,1176.75,72.9743,77.1168,139.597,106.126,128.007,0.00257249,0.212571,20.7129,77.9098,-1.72088,0.0,0.0
4719,1179.5,72.3161,76.5745,139.54,106.265,128.007,0.00265328,0.206626,20.7236,77.8998,-1.70887,0.0,0.0
4730,1182.25,71.8498,76.2975,139.149,106.388,128.921,0.00274684,0.20118,20.7352,77.8197,-1.76365,0.0,0.0
4741,1185,71.6542,75.5109,140.092,106.5,129.537,0.00285899,0.195675,20.7456,77.7797,-1.79773,0.0,0.0
4752,1187.75,70.6923,74.7369,146.786,106.607,128.487,0.00302937,0.190809,20.7559,77.7297,-1.71373,0.0,0.0
4763,1190.5,69.758,73.794,141.339,106.701,128.423,0.00309032,0.185945,20.765,77.6596,-1.70111,0.0,0.0
4774,1193.25,69.5397,73.6199,142.242,106.794,128.052,0.00330167,0.181796,20.7734,77.5695,-1.66652,0.0,0.0
4785,1196,68.9818,72.6075,142.9,106.848,127.102,0.00362077,0.177828,20.7813,77.5495,-1.59347,0.0,0.0
4796,1198.75,68.7034,72.3688,140.673,106.893,127.59,0.00391906,0.174125,20.7884,77.5295,-1.62487,0.0,0.0
4807,1201.5,68.3208,72.1067,143.79,106.941,127.5,0.00431286,0.170898,20.7957,77.4494,-1.61424,0.0,0.0
4818,1204.25,67.718,71.2315,140.883,106.988,126.703,0.0046141,0.16836,20.8029,77.4494,-1.55265,0.0,0.0
4829,1207,67.2776,71.1668,139.818,107.027,129.519,0.00510234,0.167348,20.8082,77.4294,-1.75114,0.0,0.0
4840,1209.75,66.8102,70.0176,146.82,107.044,129.464,0.00565626,0.167082,20.8102,77.3593,-1.74576,0.0,0.0
4851,1212.5,66.132,69.6082,145.36,107.054,128.659,0.00586743,0.167011,20.8108,77.3293,-1.68758,0.0,0.0
4862,1215.25,65.5974,69.1738,147.12,107.067,127.364,0.00578425,0.169062,20.8097,77.2692,-1.59366,0.0,0.0
4873,1218,64.5844,67.6536,140.052,107.072,129.22,0.00590405,0.171114,20.8075,77.2292,-1.72606,0.0,0.0
4884,1220.75,64.0398,67.1637,146.228,107.082,126.93,0.0061048,0.17245,20.8067,77.2392,-1.56101,0.0,0.0
4895,1223.5,63.3876,66.1788,144.574,107.077,126.712,0.00620656,0.172948,20.8049,77.1491,-1.54565,0.0,0.0
4906,1226.25,62.9694,66.6137,142.578,107.085,128.469,0.00598939,0.172024,20.8051,77.1091,-1.67136,0.0,0.0
4917,1229,62.8375,65.7055,147.435,107.077,127.056,0.00564779,0.170673,20.8079,77.059,-1.57054,0.0,0.0
4928,1231.75,62.2719,65.2767,141.758,107.094,127.871,0.00560215,0.168834,20.811,77.019,-1.62777,0.0,0.0
4939,1234.5,61.9331,64.9676,143.673,107.087,127.762,0.00566273,0.167159,20.8143,76.9489,-1.62061,0.0,0.0
4950,1237.25,61.7512,64.7846,144.704,107.08,127.726,0.00567781,0.165641,20.8165,76.9489,-1.6186,0.0,0.0
4961,1240,61.4926,64.1547,145.397,107.097,129.066,0.00558528,0.164166,20.8176,76.8489,-1.71295,0.0,0.0
4972,1242.75,60.7215,63.653,145.893,107.094,127.274,0.00553062,0.163891,20.8181,76.8188,-1.58485,0.0,0.0
4983,1245.5,60.8997,63.2758,145.25,107.099,128.324,0.00562871,0.16312,20.8196,76.7888,-1.65984,0.0,0.0
4994,1248.25,60.677,63.1283,147.062,107.083,126.739,0.00572716,0.162877,20.8197,76.7588,-1.54714,0.0,0.0
5005,1251,60.5259,62.4631,143.96,107.085,127.572,0.00566239,0.162813,20.8203,76.6987,-1.60708,0.0,0.0
5016,1253.75,59.8612,62.5762,144.697,107.097,128.387,0.00545905,0.16292,20.8205,76.6587,-1.66456,0.0,0.0
5027,1256.5,59.4963,62.0751,144.586,107.09,127.174,0.00530283,0.162458,20.8206,76.6187,-1.578,0.0,0.0
5038,1259.25,59.7269,62.2569,144.67,107.1,127.183,0.00526394,0.161902,20.8204,76.5586,-1.5778,0.0,0.0
5049,1262,59.4147,61.3629,145.707,107.089,128.333,0.00522251,0.161559,20.8206,76.5286,-1.66131,0.0,0.0
5060,1264.75,59.2743,61.2329,144.199,107.094,127.708,0.00525622,0.160999,20.8216,76.5186,-1.6161,0.0,0.0
5071,1267.5,59.1368,61.0824,140.798,107.082,127.437,0.00527628,0.160963,20.8213,76.4585,-1.5976,0.0,0.0
5082,1270.25,59.2993,60.6199,140.456,107.106,126.576,0.0052768,0.161302,20.8199,76.4285,-1.53335,0.0,0.0
5093,1273,58.6815,61.0641,146.63,107.093,127.038,0.00531071,0.161535,20.8193,76.3884,-1.56793,0.0,0.0
5104,1275.75,58.56,60.6325,145.808,107.076,126.613,0.00537081,0.161146,20.8194,76.3384,-1.53855,0.0,0.0
5115,1278.5,58.4284,60.426,144.751,107.057,127.699,0.00531177,0.160369,20.8208,76.2884,-1.61859,0.0,0.0
5126,1281.25,58.1112,60.1546,144.274,107.065,126.441,0.00527676,0.160012,20.8226,76.2483,-1.52704,0.0,0.0
5137,1284,58.1958,59.9759,143.818,107.065,126.042,0.00534521,0.160096,20.8234,76.1883,-1.49807,0.0,0.0
5148,1286.75,57.9705,60.0817,143.929,107.037,126.64,0.00537858,0.160146,20.8228,76.1682,-1.54392,0.0,0.0
5159,1289.5,57.436,59.2842,142.732,107.028,125.825,0.00538319,0.159906,20.8219,76.0982,-1.48537,0.0,0.0
5170,1292.25,57.1499,58.9512,146.204,107.009,126.83,0.00540844,0.160126,20.8222,76.0581,-1.56004,0.0,0.0
5181,1295,57.3206,59.3661,141.584,106.994,126.341,0.00528182,0.160239,20.8228,76.0181,-1.52586,0.0,0.0
5192,1297.75,57.1022,59.1934,145.636,106.986,125.671,0.00525827,0.159935,20.823,75.9881,-1.47772,0.0,0.0
5203,1300.5,57.1418,58.9198,143.167,106.956,125.608,0.00539958,0.159482,20.8231,75.928,-1.47567,0.0,0.0
5214,1303.25,56.9776,58.8484,148.671,106.912,126.776,0.00550613,0.159475,20.8236,75.898,-1.56444,0.0,0.0
5225,1306,56.9067,58.5289,145.981,106.876,126.73,0.00547101,0.159375,20.8234,75.858,-1.56427,0.0,0.0
5236,1308.75,56.8512,58.6927,147.655,106.838,126.35,0.00539238,0.159707,20.8222,75.838,-1.53994,0.0,0.0
5247,1311.5,56.6263,58.5548,145.255,106.785,125.427,0.00536995,0.159272,20.8222,75.7779,-1.47712,0.0,0.0
5258,1314.25,56.6762,57.8496,142.412,106.74,126.694,0.00533194,0.158921,20.8234,75.7479,-1.57336,0.0,0.0
5269,1317,56.4714,58.4692,147.687,106.685,125.825,0.00546506,0.159183,20.8238,75.7078,-1.51485,0.0,0.0
5280,1319.75,56.3944,57.8963,142.289,106.64,125.716,0.00567403,0.159746,20.8226,75.6878,-1.51082,0.0,0.0
5291,1322.5,56.1482,57.9182,146.177,106.58,125.544,0.00559479,0.159897,20.8222,75.6478,-1.50342,0.0,0.0
5302,1325.25,55.9484,57.8069,147.001,106.527,125.716,0.00548361,0.159632,20.8224,75.6178,-1.52049,0.0,0.0
5313,1328,55.9273,57.3971,147.778,106.428,124.73,,0.15971,,75.6178,-1.45671,0.0,0.0
5324,1330.75,56.0429,57.841,142.312,106.344,125.952,,,,75.5177,-1.55352,0.0,0.0
5335,1333.5,55.9776,57.2383,146.634,106.272,125.001,,,,75.4977,-1.49013,0.0,0.0
5346,1336.25,55.8695,57.2906,145.308,106.199,124.449,,,,75.4776,-1.45581,0.0,0.0
5348,1336.75,55.1977,57.0508,145.661,106.176,125.816,,,,75.4876,-1.5581,0.0,0.0