File: 01_Data/Composite_Deck_Board/Cone/Composite_Deck_Board_Cone_HF25Scan_221209_R1.csv
Names,Time,Stack TC,Smoke TC,Exh Press,Smoke Comp,Smoke Meas,CO Meter,CO2 Meter,O2 Meter,Sample Mass,Ext Coeff,Start Test,Flame Verif
Chan Gain,,500,500,1,1,1,1,1,1,1,1,1.0,1.0
Offset,,0,0,0.13786,0,0,0,0,0,0,0,0.0,0.0
Gain,,1,1,25.011,13.9274,292.346,1,1,1,1.00091,1.04463,1.0,1.0
Units,sec,C,C,Pa,%,%,%,%,%,g,/m,,
Baseline,,22.9948,23.5572,162.611,103.538,101.547,-0.000319877,0.0653036,20.9384,-444.155,0.177978,,
22,5.25,20.9603,21.0848,163.627,104.826,102.599,-0.000408067,0.0692653,20.934,197.229,0.196716,0.0,0.0
44,10.75,20.6403,21.5646,161.467,104.865,102.689,-0.000446569,0.0712697,20.9307,197.229,0.192168,0.0,0.0
66,16.25,20.5077,21.3319,161.633,104.889,102.724,-0.00054547,0.070327,20.9329,197.229,0.191102,0.0,0.0
88,21.75,21.3809,21.1154,160.668,104.915,102.608,-0.000356431,0.0710988,20.9324,197.219,0.203718,0.0,0.0
110,27.25,20.9409,21.736,160.779,104.882,102.876,-0.000406788,0.0718424,20.9326,197.229,0.176951,0.0,0.0
132,32.75,20.8967,21.4931,161.305,104.892,102.742,-0.000446784,0.0695611,20.9341,197.209,0.189732,0.0,0.0
154,38.25,21.045,21.3379,160.274,104.86,102.358,-0.000485228,0.0674461,20.9369,197.199,0.221265,0.0,0.0
176,43.75,20.8947,21.3712,160.123,104.863,102.59,-0.000831824,0.0669842,20.9371,197.199,0.200744,0.0,0.0
198,49.25,20.9557,21.7371,165.085,104.827,102.724,-0.000681833,0.0683152,20.9369,197.169,0.185716,0.0,0.0
220,54.75,21.5587,21.4798,164.763,104.815,102.573,-0.000545556,0.0699664,20.9356,197.169,0.198141,0.0,0.0
242,60.25,21.4437,21.7775,162.122,104.771,101.564,-0.000230621,0.0699293,20.9339,197.139,0.284823,0.0,0.0
264,65.75,20.8646,21.725,161.658,104.73,101.654,0.000132511,0.0683976,20.9337,197.129,0.273206,0.0,0.0
286,71.25,21.2665,21.705,163.685,104.675,101.805,0.00012606,0.0675219,20.933,197.109,0.254709,0.0,0.0
308,76.75,20.9188,21.72,164.675,104.597,102.314,0.000505363,0.0674555,20.9328,197.099,0.202238,0.0,0.0
330,82.25,21.4643,22.2378,164.037,104.546,101.564,0.000493098,0.0682098,20.9327,197.069,0.265136,0.0,0.0
352,87.75,21.1019,22.0031,166.595,104.474,101.921,0.000451765,0.0680151,20.9345,197.048,0.226697,0.0,0.0
374,93.25,21.5351,22.1781,159.098,104.406,101.002,0.000402885,0.0685713,20.9325,197.038,0.303723,0.0,0.0
396,98.75,21.1704,22.1185,165.814,104.349,100.36,8.2466e-05,0.0719278,20.9294,197.008,0.35715,0.0,0.0
418,104.25,21.5865,22.04,162.445,104.277,100.815,0.000109081,0.071903,20.9281,196.968,0.309352,0.0,0.0
440,109.75,21.4078,21.8462,162.949,104.238,101.243,0.000636764,0.0736162,20.928,196.948,0.267111,0.0,0.0
462,115.25,21.7684,22.2507,158.51,104.18,100.869,0.000544089,0.0744732,20.9294,196.898,0.296043,0.0,0.0
484,120.75,21.6068,22.4318,160.046,104.159,100.155,0.000414314,0.0722341,20.932,196.888,0.359206,0.0,0.0
506,126.25,21.1948,21.879,164.092,104.112,100.824,0.000564313,0.0715752,20.9325,196.858,0.294038,0.0,0.0
528,131.75,21.2431,22.8035,159.338,104.077,100.199,0.000516875,0.0716313,20.9333,196.798,0.347943,0.0,0.0
550,137.25,21.7703,22.2299,160.825,104.039,99.2269,0.000191032,0.07185,20.9338,196.758,0.433979,0.0,0.0
572,142.75,22.2082,22.7903,160.915,104.01,100.03,0.000291113,0.0715458,20.932,196.738,0.357544,0.0,0.0
594,148.25,21.3515,22.5981,164.399,104.137,99.3518,0.000492148,0.0713876,20.9316,196.678,0.43106,0.0,0.0
616,153.75,21.4218,22.1771,161.596,104.24,99.8336,0.000438241,0.0694488,20.9353,196.628,0.39574,0.0,0.0
638,159.25,21.7731,22.6085,165.063,104.365,98.8165,0.000455255,0.0683532,20.9367,196.568,0.500589,0.0,0.0
660,164.75,21.8701,22.5494,162.915,104.4,99.5303,0.000775143,0.0682907,20.9385,196.538,0.4377,0.0,0.0
682,170.25,21.3944,22.3802,160.407,104.405,103.144,0.000822497,0.0704558,20.931,196.458,0.111418,0.0,1.0
704,175.75,21.5092,22.3882,146.644,104.398,108.577,0.00115487,0.148915,20.8129,196.248,-0.359634,0.0,1.0
726,181.25,26.871,26.2416,130.272,104.33,108.684,0.00468677,0.422332,20.3111,195.657,-0.374673,0.0,1.0
748,186.75,37.0298,34.5508,123.453,104.221,108.853,0.0105557,0.817936,19.6884,194.706,-0.398479,0.0,0.0
770,192.25,47.4935,45.8643,116.366,104.054,113.163,0.0127227,1.05054,19.3652,193.665,-0.768932,0.0,0.0
792,197.75,57.3887,55.5914,122.28,104.035,117.659,0.012657,1.12595,19.2937,192.624,-1.12772,0.0,0.0
814,203.25,63.6732,64.4149,123.674,104.134,110.647,0.0116233,1.04381,19.4445,191.664,-0.555909,0.0,0.0
836,208.75,67.7181,69.6518,127.903,104.245,114.938,0.00959375,0.896682,19.6777,190.873,-0.894791,0.0,0.0
858,214.25,69.3334,72.676,130.469,104.407,115,0.00794926,0.763947,19.8879,190.162,-0.885583,0.0,0.0
880,219.75,69.7116,73.4016,138.371,104.586,118.025,0.00635575,0.658713,20.0642,189.542,-1.10773,0.0,0.0
902,225.25,68.6943,74.0213,144.554,104.745,116.035,0.0056639,0.580814,20.1823,188.941,-0.937995,0.0,0.0
924,230.75,67.9007,74.0376,146.736,104.838,114.84,0.00471259,0.532288,20.2592,188.441,-0.83503,0.0,0.0
946,236.25,66.7288,73.2537,139.181,104.861,118.221,0.00418268,0.501052,20.3058,187.91,-1.09886,0.0,0.0
968,241.75,65.6181,72.3714,139.804,104.761,117.124,0.0039171,0.482091,20.3344,187.36,-1.02217,0.0,0.0
990,247.25,64.6402,71.927,139.91,104.453,118.426,0.00357684,0.472588,20.3454,186.889,-1.15051,0.0,0.0
1012,252.75,63.96,71.2683,137.027,103.981,115.464,0.00350106,0.461468,20.3636,186.359,-0.959929,0.0,0.0
1034,258.25,63.3139,70.5968,140.676,103.414,117.195,0.00372101,0.451544,20.3785,185.848,-1.14637,0.0,0.0
1056,263.75,62.5324,69.5157,143.714,102.963,115.518,0.00364275,0.442118,20.3917,185.358,-1.05433,0.0,0.0
1078,269.25,62.1702,69.1689,142.85,102.768,115.482,0.00290527,0.440716,20.3928,184.897,-1.06887,0.0,0.0
1100,274.75,61.3675,68.6069,141.953,102.898,114.813,0.00309468,0.436692,20.3987,184.387,-1.004,0.0,0.0
1122,280.25,60.5522,67.8652,145.165,103.28,115.67,0.00299218,0.434122,20.4051,183.917,-1.03817,0.0,0.0
1144,285.75,60.292,67.218,143.338,103.739,116.044,0.00300788,0.424815,20.4177,183.466,-1.02714,0.0,0.0
1166,291.25,59.8786,66.6938,151.243,104.095,116.437,0.00304574,0.420377,20.4231,183.006,-1.02671,0.0,0.0
1188,296.75,59.3967,66.4407,148.025,104.144,116.669,0.00308905,0.412762,20.4352,182.515,-1.04069,0.0,0.0
1210,302.25,59.2316,65.5728,143.818,103.972,117.704,0.00308702,0.409874,20.442,182.095,-1.13669,0.0,0.0
1232,307.75,58.498,65.3665,140.033,103.724,117.106,0.00320403,0.407244,20.4464,181.655,-1.11194,0.0,0.0
1254,313.25,58.1731,65.2142,144.962,104.107,114.492,0.00285344,0.401142,20.4572,181.214,-0.871271,0.0,0.0
1276,318.75,57.6955,64.1651,143.165,104.556,117.954,0.00283409,0.392745,20.4696,180.754,-1.10483,0.0,0.0
1298,324.25,57.6902,63.6987,139.47,104.313,118.07,0.00270759,0.388399,20.4769,180.353,-1.13517,0.0,0.0
1320,329.75,57.5337,63.2428,143.002,104.18,117.838,0.00277899,0.390358,20.4724,179.923,-1.12881,0.0,0.0
1342,335.25,56.7075,63.5205,144.905,104.611,116.348,0.00272218,0.384157,20.4825,179.483,-0.974341,0.0,0.0
1364,340.75,57.0602,62.3325,143.227,104.9,117.838,0.00281419,0.375468,20.4965,179.072,-1.0657,0.0,0.0
1386,346.25,56.2232,62.1604,142.737,104.683,118.748,0.00269152,0.371123,20.5028,178.652,-1.15518,0.0,0.0
1408,351.75,56.4014,61.3342,147.159,104.003,114.777,0.0025538,0.36671,20.5093,178.231,-0.903301,0.0,0.0
1430,357.25,55.65,60.9916,146.923,103.207,114.661,0.0023983,0.366812,20.5082,177.831,-0.964447,0.0,0.0
1452,362.75,55.6899,60.8154,143.852,102.814,114.09,0.00278489,0.367604,20.5059,177.431,-0.953674,0.0,0.0
1474,368.25,55.1577,60.6109,145.591,103.098,114.251,0.00281235,0.367762,20.5051,177.01,-0.941255,0.0,0.0
1496,373.75,55.0001,60.417,145.635,103.724,115.286,0.00244611,0.363402,20.5113,176.58,-0.968372,0.0,0.0
1518,379.25,54.8498,59.6713,139.407,104.149,116.928,0.00267789,0.361927,20.5134,176.21,-1.06053,0.0,0.0
1540,384.75,54.6428,59.8694,142.965,104.09,116.954,0.00238383,0.360755,20.5172,175.809,-1.06779,0.0,0.0
1562,390.25,54.5322,59.7076,144.761,103.758,113.939,0.00220358,0.360328,20.5183,175.389,-0.857734,0.0,0.0
1584,395.75,54.9459,59.0227,144.072,104.119,116.33,0.00221728,0.357572,20.5216,175.009,-1.01615,0.0,0.0
1606,401.25,54.2257,59.3283,150.288,104.541,117.026,0.002288,0.352876,20.5304,174.608,-1.03373,0.0,0.0
1628,406.75,54.3586,58.8562,141.916,104.048,116.517,0.00207096,0.350505,20.5332,174.228,-1.03718,0.0,0.0
1650,412.25,53.895,58.2758,148.068,104.566,116.945,0.0020765,0.350132,20.5338,173.817,-1.02532,0.0,0.0
1672,417.75,54.0499,58.3523,144.556,104.905,116.25,0.00192233,0.351042,20.5342,173.447,-0.940918,0.0,0.0
1694,423.25,53.9425,58.4189,145.862,104.578,116.232,0.00206115,0.351662,20.532,173.037,-0.968106,0.0,0.0
1716,428.75,53.5643,58.2388,145.226,103.653,114.545,0.00189165,0.350059,20.5334,172.656,-0.915597,0.0,0.0
1738,434.25,53.7938,58.144,143.655,102.928,114.046,0.0014297,0.348482,20.5352,172.256,-0.939944,0.0,0.0
1760,439.75,53.6181,57.792,145.03,103.076,114.082,0.00152194,0.344409,20.5409,171.896,-0.929614,0.0,0.0
1782,445.25,53.5371,57.6508,146.004,103.823,114.358,0.00163324,0.339971,20.5467,171.505,-0.885579,0.0,0.0
1804,450.75,53.7136,57.6841,145.971,104.224,117.061,0.00175971,0.340515,20.5463,171.065,-1.06436,0.0,0.0
1826,456.25,53.8067,57.4221,145.111,103.948,115.955,0.0018011,0.341332,20.5452,170.765,-1.00164,0.0,0.0
1848,461.75,53.2029,57.3497,148.318,103.696,115.188,0.00183369,0.339093,20.5504,170.344,-0.963084,0.0,0.0
1870,467.25,53.3789,57.624,147.807,104.521,115.366,0.00200394,0.338418,20.5527,169.964,-0.904654,0.0,0.0
1892,472.75,53.0715,57.5955,146.268,104.029,116.74,0.00175017,0.336073,20.5548,169.604,-1.05635,0.0,0.0
1914,478.25,53.4278,57.5227,147.4,104.544,116.847,0.00153574,0.334784,20.5566,169.243,-1.01949,0.0,0.0
1936,483.75,52.6808,57.3767,147.625,104.918,117.115,0.00142894,0.329606,20.5623,168.893,-1.00773,0.0,0.0
1958,489.25,53.0625,57.0035,141.729,104.573,115.696,0.00137603,0.327414,20.5662,168.493,-0.926291,0.0,0.0
1980,494.75,52.7985,56.7827,149.847,103.736,114.465,0.00141814,0.326302,20.5669,168.112,-0.901884,0.0,0.0
2002,500.25,52.8047,56.2821,144.591,103.033,114.153,0.00160631,0.329018,20.5627,167.712,-0.939125,0.0,0.0
2024,505.75,52.4096,56.415,148.496,102.95,114.465,0.001512,0.331889,20.5586,167.352,-0.971568,0.0,0.0
2046,511.25,53.0774,56.27,144.424,103.373,115.215,0.00153052,0.332585,20.5586,166.941,-0.993802,0.0,0.0
2068,516.75,52.6327,56.5701,145.736,103.86,115.803,0.00128096,0.331422,20.5605,166.611,-0.997477,0.0,0.0
2090,522.25,53.0027,56.3737,143.04,104.195,114.769,0.00145612,0.332057,20.5612,166.191,-0.885677,0.0,0.0
2112,527.75,52.6148,56.2326,145.45,104.215,115.58,0.00163304,0.331352,20.5656,165.83,-0.948514,0.0,0.0
2134,533.25,52.6767,56.6595,146.797,103.956,115,0.001965,0.330536,20.5667,165.43,-0.92521,0.0,0.0
2156,538.75,52.6336,56.5417,142.207,103.721,116.651,0.00165295,0.328715,20.5683,165.07,-1.07649,0.0,0.0
2178,544.25,52.4382,56.4055,148.493,103.731,114.483,0.00154676,0.327592,20.5704,164.689,-0.903726,0.0,0.0
2200,549.75,52.5361,56.2542,146.596,104.288,115.875,0.00138344,0.328318,20.5679,164.309,-0.965363,0.0,0.0
2222,555.25,52.6648,56.2338,143.434,104.501,116.803,0.00113688,0.328418,20.5677,163.908,-1.01976,0.0,0.0
2244,560.75,52.3992,55.8774,146.965,104.434,117.052,0.00108113,0.328115,20.569,163.548,-1.04522,0.0,0.0
2266,566.25,52.4683,55.8653,145.279,104.095,113.743,0.00143971,0.329455,20.5662,163.148,-0.812179,0.0,0.0
2288,571.75,52.2102,56.1295,140.665,104.14,114.679,0.00148468,0.330699,20.5647,162.787,-0.883374,0.0,0.0
2310,577.25,52.5261,55.917,145.28,104.373,115.821,0.00158317,0.331252,20.5634,162.387,-0.953663,0.0,0.0
2332,582.75,52.8207,56.1493,143.43,104.589,115.607,0.00162548,0.330889,20.5636,162.017,-0.91777,0.0,0.0
2354,588.25,52.3278,55.8356,146.376,104.784,115.919,0.0012453,0.329533,20.5671,161.636,-0.925448,0.0,0.0
2376,593.75,52.3888,55.8391,144.557,104.877,116.285,0.00109099,0.329584,20.5675,161.266,-0.946219,0.0,0.0
2398,599.25,52.7292,55.9239,142.146,104.911,115.964,0.00128149,0.329567,20.5663,160.896,-0.917867,0.0,0.0
2420,604.75,52.2275,56.1274,147.817,104.84,114.492,0.00138877,0.329577,20.5667,160.475,-0.807001,0.0,0.0
2442,610.25,52.5993,55.9813,142.21,104.705,115.634,0.00128815,0.328334,20.5692,160.125,-0.909805,0.0,0.0
2464,615.75,52.4894,55.8024,151.269,104.504,115.794,0.00125437,0.328628,20.5704,159.775,-0.940096,0.0,0.0
2486,621.25,52.5187,55.9082,149.796,104.229,113.957,0.00145968,0.327521,20.5691,159.394,-0.817672,0.0,0.0
2508,626.75,52.6274,55.6793,146.923,103.976,113.787,0.00153261,0.327556,20.5695,158.994,-0.826217,0.0,0.0
2530,632.25,52.3742,55.7568,144.199,103.706,114.563,0.0016873,0.32643,20.5703,158.634,-0.912366,0.0,0.0
2552,637.75,52.1761,55.7285,149.809,103.463,114.421,0.00158405,0.329209,20.5647,158.213,-0.922448,0.0,0.0
2574,643.25,52.1836,55.8185,143.373,103.237,112.458,0.00163023,0.331875,20.5602,157.873,-0.783905,0.0,0.0
2596,648.75,52.035,55.8736,146.542,103.076,112.556,0.00159752,0.332604,20.5586,157.433,-0.806208,0.0,0.0
2618,654.25,52.2315,55.7086,145.372,102.985,114.376,0.00165635,0.334111,20.5569,157.072,-0.961284,0.0,0.0
2640,659.75,52.3932,55.7698,145.9,102.939,113.662,0.00166709,0.334637,20.5562,156.702,-0.908008,0.0,0.0
2662,665.25,52.4164,55.8548,147.98,102.972,113.064,0.00106441,0.334541,20.5586,156.322,-0.856815,0.0,0.0
2684,670.75,52.269,55.8048,146.208,103.049,114.385,0.0012269,0.334763,20.5588,155.941,-0.956328,0.0,0.0
2706,676.25,52.5659,55.9053,141.622,103.133,113.76,0.00132908,0.334669,20.5596,155.551,-0.898718,0.0,0.0
2728,681.75,52.3827,56.0025,148.557,103.247,115.5,0.00150885,0.333934,20.561,155.171,-1.02768,0.0,0.0
2750,687.25,53.0062,55.8924,144.856,103.383,113.234,0.00137545,0.333159,20.5625,154.78,-0.834041,0.0,0.0
2772,692.75,52.7592,56.0466,143.039,103.489,114.403,0.00150358,0.334435,20.5615,154.4,-0.91876,0.0,0.0
2794,698.25,52.8126,55.8274,151.26,103.602,113.805,0.00164221,0.335076,20.5614,154.01,-0.860751,0.0,0.0
2816,703.75,52.8808,55.947,145.622,103.716,114.653,0.00138003,0.334031,20.5635,153.639,-0.918598,0.0,0.0
2838,709.25,52.8497,56.1179,148.426,103.833,115.099,0.00137219,0.334776,20.5625,153.229,-0.943861,0.0,0.0
2860,714.75,52.8205,56.0739,147.971,103.911,114.849,0.000997968,0.336387,20.5611,152.848,-0.917089,0.0,0.0
2882,720.25,53.0576,56.1707,149.29,103.979,116.58,0.00105657,0.336367,20.561,152.478,-1.04812,0.0,0.0
2904,725.75,52.9698,56.4779,147.308,104.028,114.831,0.00123229,0.337409,20.5589,152.078,-0.905326,0.0,0.0
2926,731.25,52.9194,56.4615,148.168,104.081,115.036,0.00117498,0.337561,20.5575,151.687,-0.917082,0.0,0.0
2948,736.75,53.184,56.1687,146.301,104.141,114.545,0.00116774,0.339216,20.5542,151.307,-0.8726,0.0,0.0
2970,742.25,53.568,55.9406,143.658,104.2,114.983,0.0013116,0.338929,20.5537,150.937,-0.902271,0.0,0.0
2992,747.75,53.1268,56.6184,147.01,104.23,115.625,0.00151399,0.338354,20.553,150.516,-0.950742,0.0,0.0
3014,753.25,53.5333,56.0282,147.283,104.255,118.284,0.00141381,0.341074,20.5506,150.116,-1.15682,0.0,0.0
3036,758.75,53.4626,56.4144,148.539,104.274,113.983,0.00157902,0.34091,20.5509,149.736,-0.815864,0.0,0.0
3058,764.25,53.4659,56.7668,143.192,104.266,115.616,0.00113727,0.34106,20.5509,149.355,-0.946822,0.0,0.0
3080,769.75,53.3662,56.9634,145.183,104.276,115.491,0.00113692,0.341317,20.5509,148.945,-0.936095,0.0,0.0
3102,775.25,53.6434,56.4653,146.57,104.269,116.044,0.00133355,0.341459,20.5509,148.545,-0.980477,0.0,0.0
3124,780.75,53.441,57.1117,146.481,104.258,116.125,0.00118363,0.341285,20.5505,148.174,-0.987749,0.0,0.0
3146,786.25,53.3134,56.9431,147.684,104.251,114.135,0.00137676,0.342956,20.5485,147.774,-0.830028,0.0,0.0
3168,791.75,53.3038,56.4946,144.578,104.251,115.687,0.00120094,0.342494,20.5474,147.363,-0.953785,0.0,0.0
3190,797.25,53.7045,56.8622,148.648,104.251,115.17,0.00138878,0.343345,20.5479,146.973,-0.912706,0.0,0.0
3212,802.75,53.9167,56.6203,143.953,104.219,116.223,0.00128832,0.344344,20.5468,146.573,-0.998927,0.0,0.0
3234,808.25,54.065,56.8803,142.08,104.223,115.42,0.00147459,0.344398,20.5465,146.172,-0.935101,0.0,0.0
3256,813.75,53.7296,57.2304,142.974,104.201,114.795,0.00148089,0.344294,20.5465,145.752,-0.887253,0.0,0.0
3278,819.25,53.9014,57.1647,144.446,104.202,115.108,0.00137768,0.344117,20.5465,145.352,-0.91207,0.0,0.0
3300,824.75,53.9548,57.1606,146.799,104.204,117.284,0.00152721,0.344618,20.5453,144.961,-1.0836,0.0,0.0
3322,830.25,53.8097,57.356,144.338,104.227,115.054,0.00113988,0.347076,20.5409,144.581,-0.90564,0.0,0.0
3344,835.75,53.6893,57.7291,145.685,104.233,114.162,0.00100069,0.346613,20.5422,144.181,-0.833783,0.0,0.0
3366,841.25,54.0713,57.4139,142.496,104.23,114.822,0.0014116,0.345895,20.5427,143.81,-0.886886,0.0,0.0
3388,846.75,53.769,57.6334,143.667,104.251,115.179,0.00140315,0.346717,20.5424,143.43,-0.913453,0.0,0.0
3410,852.25,54.5245,57.2109,144.458,104.251,114.715,0.0012813,0.346695,20.5425,143.04,-0.876432,0.0,0.0
3432,857.75,54.5599,57.317,143.476,104.268,116.606,0.00157709,0.345554,20.5425,142.619,-1.02479,0.0,0.0
3454,863.25,54.1247,57.7572,146.084,104.288,116.25,0.00142703,0.347522,20.5416,142.219,-0.995022,0.0,0.0
3476,868.75,54.2511,57.3858,150.157,104.272,115.339,0.00155372,0.345821,20.5427,141.818,-0.924391,0.0,0.0
3498,874.25,54.0974,57.7801,143.269,104.274,114.661,0.00140606,0.348165,20.5413,141.428,-0.870175,0.0,0.0
3520,879.75,54.3332,57.6047,145.905,104.248,114.876,0.00120716,0.347494,20.5407,141.028,-0.889513,0.0,0.0
3542,885.25,54.3894,57.3353,144.021,104.251,115.893,0.00111059,0.350228,20.5385,140.647,-0.970061,0.0,0.0
3564,890.75,54.3962,57.5717,144.659,104.224,116.232,0.00123421,0.349722,20.5366,140.227,-0.999182,0.0,0.0
3586,896.25,54.463,57.8048,144.769,104.201,115.589,0.00100405,0.350486,20.537,139.797,-0.950418,0.0,0.0
3608,901.75,54.5991,57.4166,146.153,104.158,115.054,0.000990796,0.349918,20.5371,139.416,-0.911733,0.0,0.0
3630,907.25,54.2456,57.9412,143.643,104.121,115.072,0.00128131,0.349891,20.5345,139.016,-0.916408,0.0,0.0
3652,912.75,54.8995,57.6945,137.772,104.048,118.052,0.00121639,0.352044,20.5324,138.606,-1.15708,0.0,0.0
3674,918.25,54.7412,58.1871,148.432,103.971,115.447,0.00136357,0.351415,20.5337,138.235,-0.959374,0.0,0.0
3696,923.75,54.8364,58.0732,143.037,103.877,117.472,0.00109084,0.351475,20.5326,137.825,-1.12705,0.0,0.0
3718,929.25,54.4915,58.2424,150.244,103.765,114.813,0.00139912,0.351901,20.5306,137.394,-0.927106,0.0,0.0
3740,934.75,54.6913,58.3551,145.073,103.688,114.76,0.00151603,0.352192,20.5296,136.994,-0.929667,0.0,0.0
3762,940.25,54.7293,58.4328,146.049,103.603,115.42,0.00161552,0.352929,20.5297,136.574,-0.989747,0.0,0.0
3784,945.75,54.9837,57.9934,143.603,103.51,115.875,0.00141191,0.353362,20.5299,136.183,-1.034,0.0,0.0
3806,951.25,55.0598,58.5581,145.997,103.435,114.537,0.00113212,0.353309,20.5297,135.803,-0.934216,0.0,0.0
3828,956.75,55.1005,58.5987,146.248,103.328,115.313,0.00111612,0.353107,20.5303,135.413,-1.0056,0.0,0.0
3850,962.25,55.2116,58.7258,146.064,103.231,115.027,0.0013814,0.351512,20.533,134.992,-0.991519,0.0,0.0
3872,967.75,54.8891,58.326,142.421,103.128,116.392,0.0014773,0.35191,20.5334,134.582,-1.10872,0.0,0.0
3894,973.25,55.1187,58.3034,144.15,103.072,113.76,0.00152328,0.351256,20.5335,134.202,-0.90412,0.0,0.0
3916,978.75,56.1431,58.1607,147.177,103.008,114.697,0.000982159,0.351841,20.5328,133.801,-0.984976,0.0,0.0
3938,984.25,55.294,58.5433,144.307,102.979,114.421,0.00120407,0.351078,20.535,133.401,-0.965462,0.0,0.0
3960,989.75,54.9329,58.8141,145.607,102.971,113.778,0.00132696,0.350853,20.536,132.98,-0.914555,0.0,0.0
3982,995.25,55.076,58.2858,143.011,102.949,114.117,0.00132251,0.350929,20.5363,132.6,-0.943748,0.0,0.0
4004,1000.75,55.5755,57.7395,146.71,102.964,114.554,0.00138615,0.351171,20.5353,132.18,-0.977422,0.0,0.0
4026,1006.25,55.2952,58.4973,144.925,102.974,114.073,0.00107904,0.353743,20.5319,131.739,-0.937971,0.0,0.0
4048,1011.75,55.2904,58.4321,145.871,103.014,114.385,0.00101909,0.352706,20.5305,131.369,-0.959466,0.0,0.0
4070,1017.25,55.2221,58.7849,142.354,103.065,114.278,0.00125795,0.354612,20.529,130.949,-0.946349,0.0,0.0
4092,1022.75,55.236,58.7826,143.285,103.146,115.179,0.00100049,0.355584,20.5275,130.538,-1.01107,0.0,0.0
4114,1028.25,55.2314,58.7338,145.741,103.24,114.501,0.00101067,0.355029,20.5272,130.158,-0.948623,0.0,0.0
4136,1033.75,55.3977,58.8866,146.391,103.34,113.511,0.00123929,0.355496,20.5272,129.738,-0.860201,0.0,0.0
4158,1039.25,55.5149,58.7328,144.374,103.498,117.311,0.00117791,0.355055,20.5277,129.357,-1.14798,0.0,0.0
4180,1044.75,55.6448,58.6492,145.111,103.657,115.777,0.00118921,0.354694,20.5289,128.927,-1.01326,0.0,0.0
4202,1050.25,55.6232,58.9999,144.63,103.833,117.044,0.00119302,0.354992,20.5267,128.526,-1.09745,0.0,0.0
4224,1055.75,55.5294,58.9518,144.932,104.004,114.501,0.00130347,0.35545,20.5272,128.126,-0.881081,0.0,0.0
4246,1061.25,55.4894,59.0355,146.5,104.164,115.116,0.00159573,0.355579,20.5272,127.736,-0.916144,0.0,0.0
4268,1066.75,55.5932,59.1595,145.927,104.341,116.035,0.00154418,0.355098,20.5264,127.315,-0.973424,0.0,0.0
4290,1072.25,55.5261,59.2619,142.629,104.473,115.224,0.00117711,0.355495,20.525,126.915,-0.89752,0.0,0.0
4312,1077.75,55.7507,58.8903,140.945,104.624,118.819,0.00140255,0.354706,20.5281,126.535,-1.16586,0.0,0.0
4334,1083.25,55.7644,59.0452,148.228,104.721,116.151,0.00151753,0.354899,20.5282,126.134,-0.949306,0.0,0.0
4356,1088.75,55.7369,59.3459,141.755,104.826,116.776,0.00110654,0.354664,20.5292,125.734,-0.989262,0.0,0.0
4378,1094.25,55.8585,59.0097,144.35,104.869,115.402,0.00131649,0.353184,20.5285,125.314,-0.877021,0.0,0.0
4400,1099.75,55.4021,59.3133,146.241,104.896,116,0.00139007,0.354089,20.527,124.943,-0.921986,0.0,0.0
4422,1105.25,55.5592,59.0611,151.114,104.918,115.759,0.00147466,0.354296,20.5275,124.523,-0.901044,0.0,0.0
4444,1110.75,55.7586,59.0409,145.195,104.917,116.963,0.0010811,0.354959,20.5269,124.122,-0.996004,0.0,0.0
4466,1116.25,55.8566,59.1122,148.796,104.931,116.642,0.00116524,0.354082,20.5288,123.712,-0.969546,0.0,0.0
4488,1121.75,55.472,58.9328,144.278,104.904,116.258,0.00129972,0.352003,20.531,123.332,-0.941733,0.0,0.0
4510,1127.25,55.6231,59.4014,143.517,104.903,116.241,0.000932986,0.354712,20.5266,122.931,-0.940363,0.0,0.0
4532,1132.75,55.6505,59.1933,144.266,104.876,116.606,0.00115809,0.355626,20.5243,122.541,-0.971531,0.0,0.0
4554,1138.25,55.521,59.1142,148.751,104.841,115.348,0.00151744,0.35507,20.5256,122.121,-0.875183,0.0,0.0
4576,1143.75,55.4094,59.4073,144.64,104.791,116.303,0.0016337,0.354758,20.5258,121.71,-0.955129,0.0,0.0
4598,1149.25,55.4991,58.6184,148.361,104.719,116.009,0.00128341,0.353808,20.5267,121.32,-0.938224,0.0,0.0
4620,1154.75,55.1681,59.0649,143.939,104.665,116.134,0.00115089,0.353502,20.528,120.93,-0.952809,0.0,0.0
4642,1160.25,55.3766,59.2155,144.409,104.545,115.447,0.000739515,0.351498,20.5307,120.549,-0.908905,0.0,0.0
4664,1165.75,55.6535,58.8152,143.005,104.45,116.812,0.00111246,0.352062,20.5297,120.189,-1.02493,0.0,0.0
4686,1171.25,55.3222,58.9127,143.459,104.344,115.277,0.00108366,0.352595,20.5271,119.799,-0.913117,0.0,0.0
4708,1176.75,55.734,58.8809,145.115,104.228,116.481,0.00128812,0.352199,20.5268,119.378,-1.01856,0.0,0.0
4730,1182.25,55.4641,59.0838,146.139,104.131,116.018,0.00114199,0.351516,20.5268,118.998,-0.99051,0.0,0.0
4752,1187.75,55.5967,58.997,148.105,104.044,114.992,0.00121125,0.351931,20.5268,118.647,-0.916785,0.0,0.0
4774,1193.25,55.4961,58.6875,142.557,104.133,115.108,0.00107716,0.350423,20.5286,118.257,-0.918127,0.0,0.0
4796,1198.75,55.5926,59.0812,148.143,104.311,115.955,0.00124474,0.348655,20.5312,117.847,-0.969731,0.0,0.0
4818,1204.25,55.6134,58.8429,145.618,104.433,116.018,0.00150545,0.348586,20.5323,117.476,-0.963956,0.0,0.0
4840,1209.75,55.6108,58.6505,145.239,104.484,115.375,0.00145549,0.351199,20.5288,117.106,-0.908604,0.0,0.0
4862,1215.25,55.4075,58.9184,144.882,104.521,116.526,0.00129316,0.350382,20.5277,116.706,-0.99628,0.0,0.0
4884,1220.75,55.7459,58.7736,142.975,104.512,116.214,0.000944572,0.350251,20.5289,116.295,-0.972548,0.0,0.0
4906,1226.25,55.315,59.2691,144.936,104.454,117.151,0.00109388,0.348911,20.5304,115.915,-1.05115,0.0,0.0
4928,1231.75,55.6949,59.173,144.92,104.356,115.366,0.00129542,0.349542,20.5298,115.555,-0.919086,0.0,0.0
4950,1237.25,55.5812,59.1787,144.805,104.231,115.09,0.00118024,0.349916,20.5305,115.184,-0.908108,0.0,0.0
4972,1242.75,55.5363,59.3266,143.287,104.088,116.223,0.000992397,0.349319,20.531,114.774,-1.01044,0.0,0.0
4994,1248.25,55.8697,58.7678,144.15,103.915,115.759,0.000985462,0.347059,20.5329,114.444,-0.989073,0.0,0.0
5016,1253.75,55.9581,59.1959,141.094,103.697,113.475,0.00121702,0.34675,20.5333,114.023,-0.825716,0.0,0.0
5038,1259.25,55.6235,58.8766,144.809,103.631,115.545,0.00121465,0.346747,20.5332,113.663,-0.997216,0.0,0.0
5060,1264.75,55.6441,59.137,145.968,103.677,113.484,0.00134095,0.345438,20.534,113.273,-0.828201,0.0,0.0
5082,1270.25,55.8851,58.5845,143.69,103.754,115.027,0.00134417,0.343697,20.5349,112.972,-0.945193,0.0,0.0
5104,1275.75,55.2484,59.0127,144.125,103.808,114.153,0.00133407,0.342661,20.537,112.602,-0.870472,0.0,0.0
5126,1281.25,55.5177,59.2197,141.896,103.876,115.866,0.00104587,0.342742,20.5364,112.242,-1.00099,0.0,0.0
5148,1286.75,55.2747,58.8933,140.088,103.956,114.153,0.00123726,0.339602,20.5416,111.881,-0.857462,0.0,0.0
5170,1292.25,54.8882,58.8313,146.826,104.001,115.116,0.000950016,0.335847,20.5447,111.521,-0.930514,0.0,0.0
5192,1297.75,54.9684,58.6728,147.064,104.1,116.258,0.00114951,0.336082,20.5436,111.171,-1.01221,0.0,0.0
5214,1303.25,54.7592,58.7494,146.57,104.151,114.876,0.0013888,0.332654,20.5486,110.85,-0.898071,0.0,0.0
5236,1308.75,54.9502,58.2809,143.372,104.21,115.803,0.00161272,0.333156,20.5477,110.49,-0.966591,0.0,0.0
5258,1314.25,55.2051,57.4446,146.736,104.247,114.51,0.00135742,0.331397,20.5501,110.15,-0.860399,0.0,0.0
5280,1319.75,54.7305,57.7833,143.25,104.261,115.009,0.00133381,0.329469,20.554,109.759,-0.89906,0.0,0.0
5302,1325.25,54.6346,57.8039,145.814,104.24,113.725,0.0012557,0.328232,20.5542,109.449,-0.797954,0.0,0.0
5324,1330.75,54.2273,58.0098,142.784,104.19,115.054,0.00133618,0.327925,20.5545,109.129,-0.908891,0.0,0.0
5346,1336.25,54.0987,57.6398,145.747,104.133,114.215,0.00145467,0.327289,20.555,108.749,-0.846828,0.0,0.0
5368,1341.75,54.4513,57.3824,143.317,104.047,114.215,0.00107327,0.327356,20.5551,108.418,-0.854386,0.0,0.0
5390,1347.25,54.468,57.3283,146.894,103.965,114.528,0.00151895,0.328686,20.5538,108.098,-0.886631,0.0,0.0
5412,1352.75,54.263,57.5801,145.312,103.875,115.099,0.00147954,0.327477,20.5561,107.728,-0.940185,0.0,0.0
5434,1358.25,54.5827,57.088,145.733,103.742,115,0.00104815,0.326692,20.5558,107.417,-0.944074,0.0,0.0
5456,1363.75,54.264,57.3721,145.81,103.622,113.743,0.00109171,0.326333,20.5554,107.087,-0.853917,0.0,0.0
5478,1369.25,54.0004,57.3268,146.763,103.494,112.672,0.00117396,0.322778,20.5596,106.797,-0.778577,0.0,0.0
5500,1374.75,53.871,57.096,144.262,103.35,112.725,0.00138772,0.321668,20.5614,106.486,-0.795659,0.0,0.0
5522,1380.25,53.4772,57.1713,148.025,103.215,113.18,0.00127331,0.319144,20.566,106.146,-0.844564,0.0,0.0
5544,1385.75,53.8901,56.8249,148.877,103.11,112.547,0.00135487,0.317521,20.5681,105.836,-0.802459,0.0,0.0
5566,1391.25,53.5451,56.4319,143.56,103.012,112.154,0.00144095,0.316688,20.5694,105.486,-0.779209,0.0,0.0
5588,1396.75,53.6979,57.0588,151.343,102.965,111.164,0.00120005,0.315136,20.5708,105.185,-0.702061,0.0,0.0
5610,1402.25,53.4136,56.6748,144.352,102.924,114.126,0.00115259,0.313986,20.5716,104.885,-0.946696,0.0,0.0
5632,1407.75,53.4109,56.5143,141.604,102.926,111.905,0.00127155,0.312784,20.5717,104.595,-0.76638,0.0,0.0
5654,1413.25,53.2589,56.4541,146.007,102.971,110.736,0.00116563,0.312537,20.5697,104.284,-0.666162,0.0,0.0
5676,1418.75,53.3597,56.3307,145.024,103.023,113.1,0.00123167,0.31174,20.5722,103.994,-0.85517,0.0,0.0
5698,1424.25,53.188,56.2182,149.753,103.106,112.458,0.00128264,0.309909,20.5748,103.704,-0.795608,0.0,0.0
5720,1429.75,53.4843,55.5652,144.688,103.207,111.628,0.00138798,0.309164,20.5775,103.384,-0.718764,0.0,0.0
5742,1435.25,52.6901,56.3961,142.939,103.332,112.128,0.00149814,0.306844,20.5808,103.123,-0.748559,0.0,0.0
5764,1440.75,52.3952,55.6255,143.84,103.477,112.047,0.00147028,0.306009,20.582,102.843,-0.729114,0.0,0.0
5786,1446.25,52.6216,55.6439,145.014,103.596,114.206,0.00149682,0.305632,20.582,102.523,-0.893509,0.0,0.0
5808,1451.75,53.0093,55.2632,149.236,103.75,112.279,0.00137912,0.302951,20.5847,102.233,-0.72397,0.0,0.0
5830,1457.25,52.3524,55.6479,148.167,103.931,112.529,0.00139935,0.301341,20.5861,101.952,-0.728319,0.0,0.0
5852,1462.75,52.7692,54.96,147.336,104.101,112.708,0.00116695,0.302531,20.5846,101.692,-0.727898,0.0,0.0
5874,1468.25,52.5203,54.8971,145.634,104.255,113.288,0.000938016,0.301287,20.5855,101.412,-0.761392,0.0,0.0
5896,1473.75,52.3312,54.8055,143.086,104.389,113.056,0.000968244,0.29959,20.5882,101.132,-0.730812,0.0,0.0
5918,1479.25,52.4226,54.5887,144.559,104.526,113.573,0.000930525,0.299552,20.588,100.851,-0.760689,0.0,0.0
5940,1484.75,52.0055,54.6677,148.805,104.643,113.35,0.000791805,0.29914,20.5887,100.551,-0.732435,0.0,0.0
5962,1490.25,51.7773,54.6419,147.097,104.768,113.421,0.00104092,0.298109,20.5878,100.291,-0.727229,0.0,0.0
5984,1495.75,51.5265,54.9445,147.489,104.851,112.583,0.0010314,0.296781,20.5887,100.021,-0.651977,0.0,0.0
6006,1501.25,51.8035,54.4071,145.363,104.907,113.618,0.000851971,0.295586,20.5906,99.7604,-0.730924,0.0,0.0
6028,1506.75,51.7049,54.3204,143.85,104.917,114.51,0.000963367,0.295592,20.5897,99.4901,-0.801707,0.0,0.0
6050,1512.25,51.9165,54.0507,147.284,104.911,114.519,0.00092537,0.292961,20.5931,99.2599,-0.802941,0.0,0.0
6072,1517.75,51.365,54.4736,150.684,104.896,112.815,0.00127097,0.292866,20.5965,98.9496,-0.666864,0.0,0.0
6094,1523.25,51.3021,54.3636,146.894,104.869,112.948,0.00102495,0.291624,20.5983,98.7495,-0.680141,0.0,0.0
6116,1528.75,51.2765,54.3116,148.04,104.804,114.697,0.00127602,0.290294,20.5994,98.4692,-0.826568,0.0,0.0
6138,1534.25,50.9249,54.0123,145.674,104.717,112.993,0.00115708,0.289514,20.6003,98.219,-0.696991,0.0,0.0
6160,1539.75,51.0858,53.5119,152.004,104.661,112.734,0.00107658,0.288253,20.6022,97.9587,-0.680896,0.0,0.0
6182,1545.25,50.8702,53.8116,145.842,104.594,112.27,0.00115507,0.286884,20.6024,97.7285,-0.649026,0.0,0.0
6204,1550.75,50.7206,53.7523,142.699,104.54,111.699,0.00129191,0.286938,20.6035,97.4683,-0.607035,0.0,0.0
6226,1556.25,50.8341,53.8641,150.466,104.508,112.413,0.00135793,0.283826,20.6072,97.2481,-0.668195,0.0,0.0
6248,1561.75,50.9138,52.8678,148.825,104.444,112.627,0.00128233,0.28029,20.6123,96.9979,-0.691262,0.0,0.0
6270,1567.25,50.4221,52.8684,150.25,104.391,111.557,0.00116323,0.279506,20.6116,96.7476,-0.608366,0.0,0.0
6292,1572.75,50.4965,52.6519,150.789,104.33,111.922,0.000867804,0.276209,20.6144,96.5575,-0.643699,0.0,0.0
6314,1578.25,49.9229,52.6653,147.931,104.277,112.877,0.000770314,0.275642,20.6147,96.2672,-0.726231,0.0,0.0
6336,1583.75,49.8518,52.6578,145.132,104.223,111.905,0.00113782,0.276749,20.6123,96.067,-0.651613,0.0,0.0
6358,1589.25,49.582,52.7162,147.948,104.165,112.342,0.00130879,0.275572,20.615,95.8368,-0.692499,0.0,0.0
6380,1594.75,49.972,51.9967,150.901,104.106,112.681,0.00106372,0.274654,20.6184,95.6266,-0.725272,0.0,0.0
6402,1600.25,49.3678,52.2647,145.207,104.058,112.895,0.000909241,0.272782,20.6199,95.4064,-0.746897,0.0,0.0
6424,1605.75,49.7413,51.8579,149.486,104.022,111.896,0.000699152,0.271128,20.6207,95.1462,-0.668575,0.0,0.0
6446,1611.25,49.184,51.9676,146.392,104.144,111.521,0.000578641,0.269403,20.6255,94.936,-0.627173,0.0,0.0
6468,1616.75,49.5439,51.3904,149.199,104.253,112.065,0.000688984,0.267996,20.6292,94.7058,-0.662138,0.0,0.0
6490,1622.25,49.1043,51.5512,149.705,104.332,112.44,0.000765105,0.266494,20.6307,94.5256,-0.685818,0.0,0.0
6512,1627.75,48.9949,51.603,145.283,104.398,113.288,0.000953781,0.26538,20.6319,94.3355,-0.748811,0.0,0.0
6534,1633.25,48.7963,51.3796,149.305,104.453,113.796,0.00109173,0.263036,20.6334,94.0852,-0.785004,0.0,0.0
6556,1638.75,48.7711,51.0146,149.66,104.5,113.296,0.000904022,0.261309,20.6374,93.8851,-0.74062,0.0,0.0
6578,1644.25,48.7827,50.6862,146.532,104.532,112.431,0.000907873,0.258946,20.6403,93.6749,-0.667525,0.0,0.0
6600,1649.75,48.1394,50.8389,150.535,104.536,112.913,0.000908305,0.259087,20.6393,93.4747,-0.706372,0.0,0.0
6622,1655.25,48.5021,50.6027,148.627,104.521,114.073,0.0008521,0.258061,20.6409,93.2845,-0.801321,0.0,0.0
6644,1660.75,47.7056,51.0846,150.802,104.475,111.931,0.000553971,0.256666,20.6438,93.0743,-0.631709,0.0,0.0
6666,1666.25,48.2625,50.2925,150.754,104.406,111.878,0.000814525,0.255547,20.6463,92.9042,-0.633404,0.0,0.0
6688,1671.75,47.7024,50.1324,146.59,104.328,112.734,0.000865262,0.253089,20.6485,92.714,-0.710079,0.0,0.0
6710,1677.25,47.5713,50.2426,149.873,104.227,111.253,0.00066811,0.250437,20.6518,92.5438,-0.59779,0.0,0.0
6732,1682.75,47.7684,50.1539,147.24,104.139,111.316,0.000704064,0.249785,20.6529,92.3136,-0.610671,0.0,0.0
6754,1688.25,47.2629,49.562,149.886,104.025,110.673,0.000521881,0.248244,20.6555,92.1335,-0.567668,0.0,0.0
6776,1693.75,47.1805,49.6425,148.823,103.886,110.638,0.000681939,0.246719,20.6562,91.9533,-0.577001,0.0,0.0
6798,1699.25,47.509,49.3122,151.872,103.731,110.129,0.00100564,0.244596,20.6583,91.8032,-0.548442,0.0,0.0
6820,1704.75,47.3403,49.4603,144.789,103.624,112.181,0.000985197,0.24421,20.6609,91.633,-0.727075,0.0,0.0
6842,1710.25,47.036,49.1195,151.838,103.663,110.433,0.000642293,0.242639,20.6624,91.4328,-0.579656,0.0,0.0
6864,1715.75,46.7888,48.6832,150.125,103.711,111.039,0.000872067,0.241887,20.6637,91.2627,-0.625652,0.0,0.0
6886,1721.25,46.2607,49.0336,149.598,103.767,110.781,0.000719084,0.241307,20.6639,91.1226,-0.59932,0.0,0.0
6908,1726.75,46.2516,48.6753,147.4,103.824,111.066,0.000485623,0.24112,20.6627,90.9424,-0.617839,0.0,0.0
6930,1732.25,46.2778,48.5149,149.382,103.898,110.879,0.000813636,0.240526,20.6632,90.7622,-0.595881,0.0,0.0
6952,1737.75,45.9618,48.3194,148.923,103.964,111.396,0.000801263,0.238844,20.6653,90.5821,-0.6327,0.0,0.0
6974,1743.25,45.6348,47.738,147.052,104.032,110.352,0.000728796,0.236381,20.6699,90.4219,-0.540474,0.0,0.0
6996,1748.75,45.9848,48.0018,145.952,104.116,111.209,0.000856938,0.236414,20.6698,90.2418,-0.603873,0.0,0.0
7018,1754.25,45.7113,47.8722,147.521,104.17,111.699,0.000686792,0.236985,20.6692,90.0916,-0.639467,0.0,0.0
7040,1759.75,45.6142,47.842,151.787,104.225,112.226,0.000612753,0.237575,20.6692,89.9115,-0.677763,0.0,0.0
7062,1765.25,45.6569,47.5558,154.514,104.224,111.236,0.000344102,0.234654,20.6735,89.7413,-0.596582,0.0,0.0
7084,1770.75,45.4194,47.8505,149.872,104.229,111.815,0.000355513,0.23517,20.6752,89.5711,-0.643819,0.0,0.0
7106,1776.25,45.2149,47.6567,149.193,104.175,110.174,0.000398941,0.233461,20.6755,89.411,-0.513075,0.0,0.0
7128,1781.75,44.9579,47.4727,155.958,104.112,111.128,0.0005051,0.233187,20.6771,89.2308,-0.597666,0.0,0.0
7150,1787.25,45.2651,47.3587,147.649,104.07,111.12,0.000259972,0.233269,20.6768,89.0707,-0.600598,0.0,0.0
7172,1792.75,45.1599,47.1677,152.217,103.988,112.69,0.000607107,0.232088,20.6785,88.9306,-0.736366,0.0,0.0
7194,1798.25,44.7786,47.2716,150.558,103.913,111.842,0.000698266,0.231173,20.6804,88.7704,-0.673856,0.0,0.0
7216,1803.75,45.1001,47.0739,146.738,103.805,110.424,0.000764066,0.231144,20.6807,88.6503,-0.566376,0.0,0.0
7238,1809.25,45.0081,46.9703,152.188,103.71,109.692,0.000851589,0.229795,20.682,88.4501,-0.513873,0.0,0.0
7260,1814.75,44.5125,46.6101,151.719,103.605,109.576,0.00082871,0.228806,20.683,88.29,-0.513422,0.0,0.0
7282,1820.25,44.8163,46.5608,149.464,103.494,111.378,0.000823356,0.229579,20.6821,88.1499,-0.672797,0.0,0.0
7304,1825.75,44.6622,46.4544,154.802,103.384,109.05,0.000869923,0.229075,20.683,87.9897,-0.488865,0.0,0.0
7326,1831.25,44.3542,46.3647,150.436,103.277,110.95,0.000966748,0.229063,20.6813,87.8296,-0.65671,0.0,0.0
7348,1836.75,44.0662,46.7073,146.278,103.202,111.155,0.000820121,0.228745,20.6822,87.6694,-0.680243,0.0,0.0
7370,1842.25,44.5276,46.0442,148.896,103.097,111.949,0.000821429,0.228645,20.6841,87.5093,-0.75487,0.0,0.0
7392,1847.75,44.3086,46.2377,150.132,103.008,110.397,0.000892361,0.228017,20.6854,87.3792,-0.634775,0.0,0.0
7414,1853.25,43.7779,45.8693,148.346,102.952,109.38,0.000789911,0.225538,20.6886,87.209,-0.554955,0.0,0.0
7436,1858.75,43.9422,45.9134,148.476,102.899,110.299,0.000698322,0.225826,20.6889,87.0589,-0.636386,0.0,0.0
7458,1864.25,43.9991,45.4184,149.333,102.875,108.363,0.000880223,0.22551,20.6885,86.8987,-0.4762,0.0,0.0
7480,1869.75,44.036,45.9788,150.316,102.87,108.613,0.000808878,0.224979,20.6892,86.7486,-0.497791,0.0,0.0
7502,1875.25,43.7484,45.9067,153.123,102.895,108.381,0.00103051,0.224979,20.6908,86.6085,-0.475929,0.0,0.0
7524,1880.75,43.6808,45.5113,150.269,102.949,109.995,0.00107739,0.224494,20.6918,86.4483,-0.606686,0.0,0.0
7546,1886.25,43.5691,45.5171,154.8,103.016,109.121,0.000866236,0.223256,20.691,86.3182,-0.527581,0.0,0.0
7568,1891.75,43.219,45.4153,152.049,103.141,108.8,0.000992051,0.223767,20.6909,86.1581,-0.489461,0.0,0.0
7590,1897.25,43.0514,45.4543,150.91,103.277,109.094,0.000733724,0.222554,20.6922,86.0079,-0.502149,0.0,0.0
7612,1902.75,43.0178,45.3569,151.255,103.44,108.425,0.00076109,0.222325,20.6923,85.8478,-0.43134,0.0,0.0
7634,1908.25,42.7524,45.466,151.715,103.622,111.12,0.000885477,0.221029,20.6949,85.7076,-0.640091,0.0,0.0
7656,1913.75,42.7807,44.7551,150.655,103.81,109.496,0.00125354,0.220877,20.6965,85.5875,-0.48864,0.0,0.0
7678,1919.25,42.4669,44.982,150.72,103.965,109.3,0.00110905,0.220348,20.6973,85.4374,-0.458553,0.0,0.0
7700,1924.75,43.1979,44.0211,150.981,104.143,109.951,0.000696993,0.21911,20.6987,85.2672,-0.497273,0.0,0.0
7722,1930.25,42.622,44.221,148.749,104.321,109.442,0.000672427,0.217403,20.7022,85.1271,-0.439136,0.0,0.0
7744,1935.75,42.6433,44.4621,152.186,104.456,110.852,0.00105825,0.217178,20.702,84.987,-0.54458,0.0,0.0
7766,1941.25,42.8157,44.4902,151.333,104.604,109.487,0.00128256,0.214929,20.7054,84.8268,-0.41804,0.0,0.0
7788,1946.75,42.5803,43.9001,149.126,104.706,110.95,0.000853297,0.214938,20.7069,84.6967,-0.530792,0.0,0.0
7810,1952.25,42.0565,44.1643,159.416,104.793,110.611,0.00084105,0.212931,20.712,84.5666,-0.495127,0.0,0.0
7832,1957.75,42.2279,43.8334,149.116,104.86,110.236,0.000661085,0.211727,20.7122,84.4165,-0.458198,0.0,0.0
7854,1963.25,42.1429,43.7661,148.346,104.879,110.763,0.000747548,0.210678,20.7141,84.2864,-0.500178,0.0,0.0
7876,1968.75,42.1565,43.5511,151.108,104.906,110.682,0.00108746,0.210622,20.7137,84.1562,-0.491156,0.0,0.0
7898,1974.25,41.5664,43.6706,150.379,104.893,109.389,0.000747434,0.20893,20.7154,83.9961,-0.384576,0.0,0.0
7920,1979.75,41.8964,43.2482,148.459,104.882,110.263,0.000937762,0.208662,20.7158,83.866,-0.458455,0.0,0.0
7942,1985.25,41.0945,43.2961,156.186,104.83,109.906,0.000849173,0.207178,20.7187,83.7559,-0.433281,0.0,0.0
7964,1990.75,41.0675,43.2512,152.532,104.77,109.38,0.0012049,0.206393,20.7193,83.5957,-0.394528,0.0,0.0
7986,1996.25,41.2141,43.3323,155.011,104.672,109.737,0.00099397,0.20525,20.7226,83.4756,-0.433005,0.0,0.0
8008,2001.75,41.0993,43.014,155.08,104.557,109.924,0.00131892,0.203423,20.7253,83.3455,-0.458652,0.0,0.0
8030,2007.25,40.5828,42.7794,154.476,104.472,109.308,0.0012353,0.202384,20.7279,83.1954,-0.414643,0.0,0.0
8052,2012.75,40.9794,42.3203,154.408,104.363,109.433,0.00144291,0.201637,20.7302,83.0753,-0.434694,0.0,0.0
8074,2018.25,40.6802,42.5718,156.938,104.283,109.255,0.0016308,0.200601,20.731,82.9251,-0.426834,0.0,0.0
8096,2023.75,40.7402,42.4473,148.045,104.203,109.862,0.00103585,0.198822,20.7344,82.815,-0.484562,0.0,0.0
8118,2029.25,40.4178,42.2087,154.326,104.146,108.907,0.00134429,0.199653,20.7331,82.6649,-0.409601,0.0,0.0
8140,2034.75,40.3126,42.0516,149.921,104.081,109.05,0.00135655,0.19723,20.7351,82.5548,-0.427289,0.0,0.0
8162,2040.25,40.2265,41.7395,153.167,104.036,108.577,0.00136202,0.195889,20.738,82.4447,-0.391438,0.0,0.0
8184,2045.75,39.9557,41.725,157.479,104.031,108.015,0.0017527,0.194856,20.7407,82.2945,-0.344365,0.0,0.0
8206,2051.25,39.8658,41.0293,152.797,104.153,109.933,0.0015111,0.192863,20.742,82.1744,-0.494888,0.0,0.0
8228,2056.75,39.4935,41.2783,152.575,104.259,107.756,0.00136013,0.193353,20.7428,82.0443,-0.302307,0.0,0.0
8250,2062.25,39.5583,40.6402,153.988,104.333,108.282,0.00207144,0.192275,20.747,81.9642,-0.3405,0.0,0.0
8272,2067.75,39.3722,40.9265,154.911,104.402,108.889,0.00218486,0.191215,20.7494,81.7941,-0.385651,0.0,0.0
8294,2073.25,39.4406,40.472,152.773,104.451,108.577,0.00201166,0.189913,20.7493,81.664,-0.355009,0.0,0.0
8316,2078.75,39.1054,40.5081,154.322,104.485,109.585,0.00214146,0.188072,20.7526,81.5639,-0.436718,0.0,0.0
8338,2084.25,38.5241,40.7559,151.496,104.529,108.684,0.00200464,0.186418,20.7548,81.4438,-0.357219,0.0,0.0
8360,2089.75,38.6054,40.3231,154.783,104.54,108.684,0.00186,0.186757,20.754,81.3637,-0.356176,0.0,0.0
8382,2095.25,38.806,39.9602,153.416,104.54,108.532,0.00186755,0.1852,20.757,81.2336,-0.343454,0.0,0.0
8404,2100.75,38.2738,39.8697,153.604,104.504,108.274,0.00193013,0.184695,20.7587,81.1135,-0.324713,0.0,0.0
8426,2106.25,38.5899,39.6176,152.875,104.445,108.479,0.00216057,0.183518,20.7583,81.0034,-0.347246,0.0,0.0
8448,2111.75,37.7912,39.9096,152.894,104.356,107.471,0.00214207,0.181728,20.762,80.8833,-0.269483,0.0,0.0
8470,2117.25,37.7088,39.1445,156.585,104.236,107.997,0.00238727,0.180089,20.7639,80.7732,-0.324824,0.0,0.0
8492,2122.75,37.4328,39.2388,155.494,104.088,106.543,0.00235879,0.180626,20.7643,80.6631,-0.213607,0.0,0.0
8514,2128.25,37.5331,38.8751,153.839,103.906,107.703,0.0025046,0.178277,20.768,80.5229,-0.328812,0.0,0.0
8536,2133.75,37.0116,38.9227,156.088,103.719,107.346,0.00261888,0.176796,20.7693,80.4429,-0.314944,0.0,0.0
8558,2139.25,36.6827,38.5509,154.554,103.642,106.213,0.00253073,0.17607,20.7707,80.3428,-0.224469,0.0,0.0
8580,2144.75,36.7595,38.7904,154.242,103.676,106.543,0.00236051,0.173936,20.7779,80.2127,-0.2499,0.0,0.0
8602,2150.25,36.4538,38.3762,151.97,103.69,106.427,0.00260302,0.170804,20.7824,80.1026,-0.238754,0.0,0.0
8624,2155.75,36.4426,38.0322,152.501,103.711,106.15,0.00292269,0.169203,20.785,80.0125,-0.213032,0.0,0.0
8646,2161.25,35.7694,37.7692,152.789,103.772,105.927,0.00266764,0.168364,20.7852,79.9024,-0.188352,0.0,0.0
8668,2166.75,36.2307,37.005,154.793,103.829,106.578,0.00284968,0.167529,20.7866,79.8123,-0.239492,0.0,0.0
8690,2172.25,35.4896,37.5497,154.629,103.864,107.132,0.00301385,0.164731,20.7922,79.7222,-0.283814,0.0,0.0
8712,2177.75,35.1492,37.1143,157.647,103.914,106.962,0.00327992,0.16444,20.7932,79.6121,-0.264918,0.0,0.0
8734,2183.25,35.2076,37.0277,154.427,103.958,106.81,0.00337494,0.164549,20.7946,79.5521,-0.248017,0.0,0.0
8756,2188.75,35.4923,36.40625,155.416,104,108.247,0.00338893,0.16374,20.795,79.4019,-0.366756,0.0,0.0
8778,2194.25,35.1687,36.5405,156.085,104.049,106.998,0.00336601,0.161969,20.7987,79.3118,-0.256101,0.0,0.0
8800,2199.75,34.771,36.5096,152.964,104.093,107.515,0.00351297,0.160955,20.8004,79.2118,-0.29638,0.0,0.0
8822,2205.25,34.2858,36.0985,155.438,104.146,108.166,0.00327992,0.160032,20.8019,79.1517,-0.347082,0.0,0.0
8844,2210.75,34.0368,35.9008,157.048,104.167,107.256,0.00352597,0.158877,20.8026,79.0316,-0.267832,0.0,0.0
8866,2216.25,34.0648,35.9555,157.482,104.185,106.436,0.00370436,0.158164,20.8045,78.9315,-0.195867,0.0,0.0
8888,2221.75,34.6216,35.0498,157.047,104.19,106.543,0.00393858,0.156755,20.8079,78.8414,-0.204594,0.0,0.0
8910,2227.25,33.7026,35.3815,155.833,104.185,106.311,0.00379406,0.15533,20.8095,78.7313,-0.18507,0.0,0.0
8932,2232.75,33.8266,34.688,155.457,104.161,105.767,0.00369419,0.154603,20.8095,78.6312,-0.140172,0.0,0.0
8954,2238.25,33.748,34.5121,159.213,104.144,106.516,0.00367053,0.15445,20.8112,78.5712,-0.206404,0.0,0.0
8976,2243.75,33.228,34.8837,156.447,104.059,107.024,0.00402435,0.153972,20.8123,78.4411,-0.257532,0.0,0.0
8998,2249.25,33.2998,34.4986,157.52,103.979,106.07,0.00412582,0.152081,20.8155,78.381,-0.182432,0.0,0.0
9020,2254.75,32.9561,34.434,153.105,103.888,106.677,0.00423636,0.151061,20.818,78.2709,-0.242712,0.0,0.0
9042,2260.25,32.5702,33.9498,154.5,103.816,105.579,0.00421521,0.150058,20.8197,78.1908,-0.154337,0.0,0.0
9064,2265.75,33.228,34.0524,156.37,103.731,107.149,0.0041815,0.150382,20.8196,78.1208,-0.297123,0.0,0.0
9086,2271.25,33.3005,33.3305,155.644,103.665,105.32,0.00406059,0.149814,20.8204,78.0407,-0.145144,0.0,0.0
9108,2276.75,32.3685,33.6208,157.978,103.612,104.946,0.00415292,0.148335,20.825,77.9306,-0.117182,0.0,0.0
9130,2282.25,32.2142,33.5807,157.802,103.567,105.436,0.00402116,0.146607,20.8251,77.8505,-0.163951,0.0,0.0
9152,2287.75,32.1161,33.5517,154.776,103.522,105.615,0.00440652,0.146472,20.825,77.7704,-0.183394,0.0,0.0
9174,2293.25,32.6296,32.7991,156.86,103.487,106.293,0.00436123,0.145385,20.8275,77.6804,-0.245159,0.0,0.0
9196,2298.75,32.2609,32.5835,155.502,103.448,104.946,0.0045698,0.143597,20.831,77.5903,-0.131703,0.0,0.0
9218,2304.25,32.1137,32.4964,155.582,103.432,105.196,0.00454809,0.142761,20.8326,77.5202,-0.154883,0.0,0.0
9240,2309.75,31.8772,32.8032,155.112,103.385,105.543,0.0045644,0.141313,20.8345,77.4301,-0.189322,0.0,0.0
9262,2315.25,31.1749,32.2666,156.035,103.395,105.294,0.00479912,0.140721,20.8351,77.3401,-0.166779,0.0,0.0
9284,2320.75,31.1641,32.5574,161.443,103.428,105.374,0.00510781,0.139123,20.8368,77.28,-0.170827,0.0,0.0
9306,2326.25,31.326,32.2059,159.02,103.508,106.106,0.00502741,0.138766,20.8374,77.22,-0.227149,0.0,0.0
9328,2331.75,31.4637,32.0373,155.203,103.577,106.007,0.00503931,0.137538,20.8383,77.1199,-0.212539,0.0,0.0
9350,2337.25,30.8599,31.8723,157.778,103.656,105.811,0.00537302,0.136472,20.8396,77.0398,-0.188527,0.0,0.0
9372,2342.75,30.4371,31.6167,159.484,103.798,105.731,0.00592805,0.13514,20.8429,76.9797,-0.169105,0.0,0.0
9394,2348.25,30.427,31.6637,159.569,103.922,106.311,0.00624269,0.133159,20.8457,76.9097,-0.20824,0.0,0.0
9416,2353.75,30.1247,31.3692,156.745,104.067,105.856,0.00645561,0.132146,20.8484,76.8396,-0.156202,0.0,0.0
9438,2359.25,29.9839,31.5335,156.96,104.147,106.445,0.00641102,0.129675,20.8523,76.7896,-0.199925,0.0,0.0
9460,2364.75,29.9653,30.9696,154.472,104.176,105.838,0.00673382,0.128854,20.8542,76.7195,-0.145044,0.0,0.0
9482,2370.25,29.9476,30.6302,159.036,104.112,105.856,0.00722793,0.126981,20.8565,76.6694,-0.152162,0.0,0.0
9504,2375.75,29.4764,31.0163,157.389,103.977,105.517,0.00726301,0.125094,20.8588,76.6094,-0.134671,0.0,0.0
9526,2381.25,29.8512,30.3415,156.988,103.871,105.428,0.00754046,0.122697,20.8632,76.5493,-0.136326,0.0,0.0
9548,2386.75,29.2678,31.101,154.839,103.695,105.49,0.00803794,0.123099,20.8632,76.4492,-0.157289,0.0,0.0
9570,2392.25,29.3641,30.6576,159.573,103.648,104.964,0.0079456,0.123024,20.8633,76.3992,-0.115546,0.0,0.0
9592,2397.75,29.005,30.2193,156.654,104.151,105.169,0.00765024,0.121162,20.8645,76.3291,-0.0891344,0.0,0.0
9614,2403.25,29.2296,29.7006,159.714,104.464,105.945,0.00831622,0.11941,20.8683,76.2591,-0.128997,0.0,0.0
9636,2408.75,28.799,29.538,159.225,104.522,105.74,0.00888573,0.119097,20.8681,76.209,-0.106125,0.0,0.0
9658,2414.25,28.5003,29.9724,157.536,104.311,106.338,0.0087105,0.118483,20.8707,76.159,-0.176355,0.0,0.0
9680,2419.75,27.9347,29.2234,158.609,104.028,105.267,0.00958251,0.116517,20.8739,76.0389,-0.108494,0.0,0.0
9702,2425.25,27.6682,28.6336,154.868,104.262,106.114,0.00955989,0.11497,20.8766,75.9688,-0.16141,0.0,0.0
9724,2430.75,27.6056,28.6284,160.055,104.551,105.918,0.00930366,0.114726,20.876,75.9288,-0.119078,0.0,0.0
9746,2436.25,27.4761,28.1526,161.896,104.803,105.294,0.0090153,0.114986,20.8771,75.8887,-0.0427883,0.0,0.0
9768,2441.75,27.2526,27.911,158.81,104.895,105.704,0.00940823,0.114203,20.8784,75.7987,-0.0704106,0.0,0.0
9790,2447.25,27.4372,28.2297,157.611,104.752,106.043,0.00974644,0.114555,20.8781,75.7186,-0.112237,0.0,0.0
9812,2452.75,27.1073,28.0296,157.536,104.351,104.526,0.00986678,0.114703,20.877,75.6786,-0.0154339,0.0,0.0
9834,2458.25,27.0081,27.5297,162.093,103.755,104.054,0.00940363,0.113965,20.8776,75.6085,-0.02629,0.0,0.0
9856,2463.75,26.8734,27.6813,160.671,103.173,102.938,0.00889202,0.113179,20.879,75.5484,0.0208416,0.0,0.0
9878,2469.25,26.4039,27.2364,157.269,102.881,103.536,0.00881792,0.113322,20.8785,75.4984,-0.0581483,0.0,0.0
9900,2474.75,26.4195,27.3876,163.106,102.961,103.411,0.00906322,0.113514,20.8786,75.4483,-0.040011,0.0,0.0
9922,2480.25,26.311,27.2777,153.958,103.369,104.196,0.00896101,0.113563,20.8802,75.3983,-0.0730375,0.0,0.0
9944,2485.75,26.4221,27.3932,161.087,103.851,103.456,0.00914159,0.111885,20.8822,75.3282,0.0349447,0.0,0.0
9966,2491.25,26.8296,27.2367,162.772,104.161,104.669,0.00915018,0.112932,20.8806,75.2482,-0.044601,0.0,0.0
9988,2496.75,25.9173,27.0668,159.259,104.172,104.107,0.00906859,0.112569,20.8814,75.1981,0.00571129,0.0,0.0
10010,2502.25,26.1511,27.1631,161.948,103.887,103.92,0.00852226,0.112681,20.8801,75.118,-0.00290451,0.0,0.0
10032,2507.75,25.9707,26.7521,158.967,103.633,104.517,0.0088488,0.11261,20.88,75.098,-0.0779095,0.0,0.0
10054,2513.25,25.7785,26.2311,159.249,104.326,105.017,0.00891143,0.112714,20.8819,75.018,-0.0605149,0.0,0.0
10076,2518.75,26.0356,27.2301,155.967,104.5,105.436,0.00871246,0.112276,20.8823,74.9679,-0.081737,0.0,0.0
10098,2524.25,25.9839,26.9464,160.181,104.036,104.607,0.00886827,0.112201,20.8816,74.9479,-0.0501317,0.0,0.0
10120,2529.75,25.5301,26.76,162.815,104.457,104.473,,0.11216,,74.8478,-0.00137648,0.0,0.0
10142,2535.25,25.6031,26.5779,158.421,104.868,106.391,,,,74.7878,-0.13211,0.0,0.0
10153,2538,25.5568,26.8575,157.297,104.905,105.677,,,,74.7777,-0.0672365,0.0,0.0