File: 01_Data/Composite_Deck_Board/Cone/Composite_Deck_Board_Cone_HF25Scan_221209_R2.csv
Names,Time,Stack TC,Smoke TC,Exh Press,Smoke Comp,Smoke Meas,CO Meter,CO2 Meter,O2 Meter,Sample Mass,Ext Coeff,Start Test,Flame Verif
Chan Gain,,500,500,1,1,1,1,1,1,1,1,1.0,1.0
Offset,,0,0,0.13786,0,0,0,0,0,0,0,0.0,0.0
Gain,,1,1,25.011,13.9274,292.346,1,1,1,1.00091,1.04463,1.0,1.0
Units,sec,C,C,Pa,%,%,%,%,%,g,/m,,
Baseline,,22.5753,23.2638,162.604,104.09,100.668,-0.000275746,0.0655686,20.944,-444.125,0.306422,,
21,5,20.1383,21.1809,164.186,103.392,99.9942,-0.000635861,0.0793451,20.9261,194.646,0.306167,0.0,0.0
42,10.25,20.7191,21.2168,165.87,103.199,99.7712,-0.000659715,0.0750359,20.9328,194.676,0.309512,0.0,0.0
63,15.5,20.9218,20.8141,162.321,103.038,99.1199,-0.0004877,0.0692934,20.9402,194.686,0.355286,0.0,0.0
84,20.75,20.6152,21.8895,161.692,102.963,99.9496,-0.000184987,0.0662808,20.9444,194.656,0.272206,0.0,0.0
105,26,20.1151,21.2579,164.359,102.939,99.9228,-9.95305e-05,0.0657299,20.9457,194.656,0.272542,0.0,0.0
126,31.25,20.3779,21.7237,162.644,103.032,99.2448,-0.000374545,0.0661077,20.9465,194.636,0.343217,0.0,0.0
147,36.5,20.7184,21.2252,163.167,103.173,100.503,-0.000503702,0.0659782,20.9481,194.646,0.240301,0.0,0.0
168,41.75,20.4058,20.8307,158.849,103.392,101.386,-0.00051854,0.0657307,20.9458,194.646,0.179579,0.0,0.0
189,47,20.034,20.6473,162.713,103.665,100.922,-0.00050942,0.0656058,20.9424,194.616,0.245683,0.0,0.0
210,52.25,20.4747,21.3881,161.978,103.951,101.868,-0.000662762,0.0654591,20.9419,194.586,0.185541,0.0,0.0
231,57.5,20.7494,20.851,163.428,104.263,101.555,-0.000300802,0.0653989,20.9409,194.586,0.241096,0.0,0.0
252,62.75,20.7416,21.7913,161.551,104.546,101.279,3.62693e-05,0.0657407,20.9397,194.566,0.290893,0.0,0.0
273,68,20.7192,21.0621,159.276,104.747,101.315,0.000241997,0.0658994,20.9403,194.546,0.305269,0.0,0.0
294,73.25,21.1423,21.1225,160.511,104.885,101.502,0.000343043,0.0657355,20.9404,194.526,0.300416,0.0,0.0
315,78.5,20.6542,21.39,162.654,104.918,101.475,0.00034061,0.0656455,20.9404,194.526,0.305766,0.0,0.0
336,83.75,21.101,21.6091,160.716,104.859,101.234,0.00026776,0.0653688,20.9397,194.496,0.322382,0.0,0.0
357,89,21.0702,21.3827,161.551,104.742,100.761,0.00028681,0.0654978,20.9401,194.476,0.35499,0.0,0.0
378,94.25,20.9157,21.7895,160.844,104.565,100.601,0.000281708,0.0655491,20.9388,194.446,0.35416,0.0,0.0
399,99.5,20.809,21.836,162.352,104.36,100.021,0.000529484,0.0657464,20.9382,194.416,0.389127,0.0,0.0
420,104.75,20.9273,21.7085,161.672,104.163,100.431,0.000295945,0.066364,20.9381,194.416,0.334347,0.0,0.0
441,110,21.8558,21.6405,161.722,104.035,100.315,0.000173053,0.0673546,20.938,194.366,0.3336,0.0,0.0
462,115.25,21.4648,21.9879,162.327,104.236,100.351,0.000328366,0.068105,20.9381,194.336,0.348031,0.0,0.0
483,120.5,21.0797,21.9729,162.335,104.443,100.182,0.000534661,0.0680957,20.9385,194.306,0.381738,0.0,0.0
504,125.75,21.4646,22.065,159.642,104.516,99.2805,0.000313602,0.067822,20.9394,194.276,0.470944,0.0,0.0
525,131,21.3054,22.2031,164.357,104.492,101.056,0.000436657,0.0675969,20.9396,194.226,0.306438,0.0,0.0
546,136.25,21.233,22.0913,159.946,104.355,100.003,0.000335084,0.0677944,20.9395,194.196,0.390352,0.0,0.0
567,141.5,21.4304,22.0051,164.606,104.123,98.6738,0.000559801,0.0678601,20.9409,194.146,0.492576,0.0,0.0
588,146.75,21.4979,21.8345,162.19,103.768,98.5221,0.000579004,0.0677042,20.9403,194.106,0.475386,0.0,0.0
609,152,21.0369,22.3683,159.394,103.636,98.192,0.000399013,0.0676071,20.9386,194.066,0.494497,0.0,0.0
630,157.25,21.5319,22.293,160.676,103.75,102.216,0.000662985,0.084789,20.9193,193.966,0.13652,0.0,1.0
651,162.5,22.1848,22.6194,146.928,103.851,105.767,0.00142284,0.187951,20.7646,193.705,-0.16747,0.0,1.0
672,167.75,27.8495,26.883,124.104,103.968,112.841,0.00404875,0.488872,20.2751,193.115,-0.750452,0.0,0.0
693,173,37.1787,35.4762,126.312,104.114,118.685,0.00604067,0.763399,19.8299,192.304,-1.20028,0.0,0.0
714,178.25,47.3947,46.0951,123.275,104.209,115.821,0.00745583,0.937283,19.5779,191.503,-0.968078,0.0,0.0
735,183.5,56.2992,55.866,123.9,104.247,116.847,0.00783428,0.980815,19.5254,190.653,-1.0456,0.0,0.0
756,188.75,62.6431,63.5436,128.628,104.252,112.502,0.00763626,0.941982,19.5907,189.842,-0.697889,0.0,0.0
777,194,67.5363,69.5038,132.787,104.178,116.999,0.00685801,0.855399,19.7337,189.121,-1.06351,0.0,0.0
798,199.25,69.6223,72.824,134.329,104.085,114.376,0.00558233,0.746162,19.914,188.441,-0.863967,0.0,0.0
819,204.5,70.5219,75.2981,131.895,103.97,115.206,0.00479659,0.659995,20.039,187.87,-0.940309,0.0,0.0
840,209.75,70.494,75.958,131.602,103.827,116.241,0.00427865,0.59564,20.1526,187.34,-1.03489,0.0,0.0
861,215,69.9537,76.3212,138.229,103.676,113.725,0.00369695,0.550673,20.2222,186.779,-0.847745,0.0,0.0
882,220.25,69.8376,76.0833,137.253,103.535,114.724,0.00340725,0.518868,20.2742,186.299,-0.940311,0.0,0.0
903,225.5,69.0367,75.8913,137.33,103.366,114.751,0.00326656,0.497122,20.3039,185.798,-0.957434,0.0,0.0
924,230.75,67.7183,75.4109,142.153,103.191,115.268,0.00337368,0.481691,20.3289,185.348,-1.01416,0.0,0.0
945,236,67.2967,74.5466,138.801,103.074,114.296,0.00343936,0.468688,20.35,184.847,-0.946948,0.0,0.0
966,241.25,66.4366,74.5131,135.868,102.974,113.662,0.00330629,0.459058,20.3645,184.377,-0.904945,0.0,0.0
987,246.5,66.2925,73.7928,136.863,102.908,113.876,0.00310242,0.449804,20.3778,183.947,-0.928092,0.0,0.0
1008,251.75,65.0652,73.1901,140.313,102.941,113.68,0.0028336,0.438634,20.3956,183.506,-0.909295,0.0,0.0
1029,257,64.4584,72.2438,144.367,103.04,112.948,0.00296083,0.428974,20.4119,183.036,-0.841323,0.0,0.0
1050,262.25,63.9178,71.6921,139.794,103.219,115.447,0.00278783,0.422708,20.4224,182.605,-1.02588,0.0,0.0
1071,267.5,62.9144,71.1743,139.577,103.452,114.483,0.00263526,0.419342,20.4263,182.185,-0.928427,0.0,0.0
1092,272.75,63.014,70.5143,144.124,103.712,114.287,0.00252387,0.415137,20.4314,181.765,-0.889729,0.0,0.0
1113,278,62.1799,69.8075,138.871,103.976,115.919,0.00270022,0.408404,20.4431,181.384,-0.99638,0.0,0.0
1134,283.25,62.0866,68.1446,144.767,104.224,113.011,0.00236724,0.403877,20.4504,180.934,-0.741683,0.0,0.0
1155,288.5,61.3162,68.7914,139.53,104.411,114.501,0.00255833,0.400124,20.4566,180.514,-0.845313,0.0,0.0
1176,293.75,61.0358,68.5554,143.701,104.583,115.197,0.00241604,0.396768,20.4609,180.133,-0.885742,0.0,0.0
1197,299,61.2492,67.1124,140.74,104.711,114.617,0.00266835,0.39217,20.4657,179.723,-0.828293,0.0,0.0
1218,304.25,60.004,67.2666,141.797,104.803,117.231,0.00269585,0.388205,20.4734,179.332,-1.0269,0.0,0.0
1239,309.5,59.4473,66.5022,144.294,104.873,112.824,0.00245158,0.38486,20.4793,178.932,-0.669631,0.0,0.0
1260,314.75,58.7992,65.7349,143.548,104.902,115.563,0.00271564,0.380946,20.4841,178.502,-0.886904,0.0,0.0
1281,320,58.7248,65.3117,148.977,104.927,116.526,0.00249638,0.375879,20.4924,178.101,-0.9608,0.0,0.0
1302,325.25,58.235,64.6646,146.474,104.917,116.214,0.00205986,0.372925,20.4985,177.741,-0.937102,0.0,0.0
1323,330.5,57.9708,64.4846,148.35,104.895,114.313,0.00223387,0.370246,20.5017,177.351,-0.787955,0.0,0.0
1344,335.75,58.0084,64.0804,147.6,104.862,115.687,0.00226493,0.36822,20.5038,176.96,-0.900294,0.0,0.0
1365,341,57.2726,63.3635,145.843,104.806,114.251,0.00229225,0.367161,20.506,176.62,-0.790711,0.0,0.0
1386,346.25,57.234,63.1326,143.517,104.748,114.617,0.00221431,0.364118,20.5116,176.25,-0.82502,0.0,0.0
1407,351.5,56.9524,62.7665,141.947,104.67,115.794,0.00209069,0.362264,20.516,175.839,-0.925536,0.0,0.0
1428,356.75,56.8294,62.759,147.034,104.579,115.384,0.00237863,0.359702,20.5215,175.469,-0.901004,0.0,0.0
1449,362,56.7148,62.227,142.577,104.463,113.992,0.00244777,0.357497,20.5232,175.079,-0.799937,0.0,0.0
1470,367.25,56.3786,61.9505,144.824,104.351,113.85,0.00235173,0.353744,20.5272,174.728,-0.798304,0.0,0.0
1491,372.5,55.857,61.2097,140.213,104.233,116.125,0.00244807,0.350956,20.5318,174.358,-0.989953,0.0,0.0
1512,377.75,55.9553,61.3311,146.474,104.125,113.992,0.00252636,0.348221,20.5359,173.988,-0.829663,0.0,0.0
1533,383,55.6056,60.6724,144.471,104.036,114.073,0.00225016,0.347354,20.5379,173.607,-0.843936,0.0,0.0
1554,388.25,55.3657,60.6266,140.226,104.18,113.814,0.00197272,0.347397,20.5388,173.237,-0.810485,0.0,0.0
1575,393.5,55.5392,60.3659,144.021,104.356,112.761,0.001893,0.343528,20.5458,172.847,-0.709866,0.0,0.0
1596,398.75,54.8948,60.2585,148.724,104.495,115.384,0.00180055,0.338531,20.5532,172.486,-0.908307,0.0,0.0
1617,404,55.0687,60.1058,148.368,104.541,114.635,0.00178613,0.339438,20.5523,172.126,-0.844609,0.0,0.0
1638,409.25,54.5079,59.3383,146.053,104.515,115.536,0.00203646,0.339686,20.5521,171.806,-0.91863,0.0,0.0
1659,414.5,54.8487,59.3789,146.885,104.482,116.41,0.00189169,0.340899,20.549,171.435,-0.990621,0.0,0.0
1680,419.75,54.6343,59.4307,149.89,104.373,112.36,0.0016417,0.343371,20.545,171.065,-0.675689,0.0,0.0
1701,425,54.5782,59.0159,145.318,104.203,113.261,0.00184612,0.342981,20.544,170.685,-0.763748,0.0,0.0
1722,430.25,54.5509,59.2373,144.686,104.003,113.974,0.0020734,0.342505,20.5454,170.334,-0.83897,0.0,0.0
1743,435.5,54.5784,59.2546,152.204,103.741,113.448,0.00202572,0.343498,20.5455,169.954,-0.819611,0.0,0.0
1764,440.75,54.7319,59.1209,145.068,103.63,114.465,0.00205124,0.342433,20.5468,169.574,-0.911238,0.0,0.0
1785,446,54.5362,59.0993,142.789,103.697,115.919,0.00170941,0.340667,20.5496,169.203,-1.02102,0.0,0.0
1806,451.25,54.4686,58.8992,147.357,103.78,114.305,0.00168407,0.33545,20.5562,168.843,-0.885116,0.0,0.0
1827,456.5,53.9861,58.5795,145.965,103.858,113.876,0.00150048,0.334071,20.5613,168.483,-0.843856,0.0,0.0
1848,461.75,54.1269,58.4508,144.759,103.948,112.511,0.00156148,0.330299,20.569,168.112,-0.725367,0.0,0.0
1869,467,53.8965,58.2252,146.018,104.039,113.894,0.00159741,0.328005,20.5719,167.772,-0.829367,0.0,0.0
1890,472.25,53.8565,58.0662,144.169,104.131,115.884,0.00159567,0.326979,20.5735,167.402,-0.979934,0.0,0.0
1911,477.5,53.368,57.9234,146.5,104.18,116.009,0.00155028,0.32653,20.5737,167.041,-0.985468,0.0,0.0
1932,482.75,53.8836,57.8153,143.299,104.225,116.517,0.00183922,0.325983,20.5733,166.681,-1.02162,0.0,0.0
1953,488,53.4541,57.5352,143.395,104.223,114.18,0.00153518,0.328291,20.5715,166.341,-0.836113,0.0,0.0
1974,493.25,53.051,57.1181,144.902,104.178,115.482,0.00137398,0.326556,20.5712,166,-0.943982,0.0,0.0
1995,498.5,52.9255,57.2048,147.742,104.108,113.493,0.00162501,0.324768,20.5732,165.66,-0.790909,0.0,0.0
2016,503.75,53.1243,56.9275,144.123,104.038,114.474,0.00183771,0.324316,20.5749,165.26,-0.875981,0.0,0.0
2037,509,53.1437,57.0487,145.925,103.933,114.751,0.00169783,0.324104,20.5756,164.939,-0.907307,0.0,0.0
2058,514.25,52.9583,56.8063,143.497,103.815,113.323,0.00153567,0.322901,20.5772,164.579,-0.803062,0.0,0.0
2079,519.5,52.8329,56.7398,141.605,103.7,114.251,0.0015661,0.320916,20.5823,164.239,-0.887881,0.0,0.0
2100,524.75,52.669,56.3745,142.807,103.589,114.528,0.00160102,0.320435,20.5817,163.868,-0.919845,0.0,0.0
2121,530,52.8665,56.4215,147.78,103.535,112.154,0.00142914,0.321652,20.5778,163.508,-0.732747,0.0,0.0
2142,535.25,52.5722,56.387,146.063,103.444,114.064,0.0013745,0.322535,20.5765,163.178,-0.895518,0.0,0.0
2163,540.5,52.5338,56.1629,149.773,103.372,114.171,0.00154589,0.321138,20.5778,162.838,-0.91048,0.0,0.0
2184,545.75,52.6005,56.4111,148.437,103.305,113.582,0.00192659,0.320895,20.5767,162.507,-0.869014,0.0,0.0
2205,551,52.6309,56.4192,143.939,103.217,114.358,0.00190122,0.320738,20.5792,162.147,-0.939267,0.0,0.0
2226,556.25,52.6159,56.3574,148.955,103.135,113.546,0.00159035,0.322408,20.5782,161.777,-0.881266,0.0,0.0
2247,561.5,52.4141,55.9419,145.865,103.044,114.162,0.00139521,0.32456,20.5739,161.456,-0.938858,0.0,0.0
2268,566.75,52.3221,56.1272,147.558,102.982,113.627,0.00170009,0.325608,20.5726,161.086,-0.901348,0.0,0.0
2289,572,52.6605,56.1583,147.284,102.926,115.598,0.00164484,0.325962,20.5713,160.726,-1.06395,0.0,0.0
2310,577.25,52.5956,56.1986,142.419,102.884,114.278,0.00186083,0.325024,20.5735,160.385,-0.962423,0.0,0.0
2331,582.5,52.8468,56.2047,143.092,102.877,112.681,0.00175952,0.325094,20.5739,160.015,-0.834147,0.0,0.0
2352,587.75,52.6375,56.0927,146.952,102.879,113.876,0.00167535,0.324553,20.574,159.665,-0.930629,0.0,0.0
2373,593,52.3921,55.9126,148.094,102.922,113.163,0.00157024,0.32601,20.5719,159.334,-0.869192,0.0,0.0
2394,598.25,52.3983,55.7625,142.841,102.966,113.082,0.00139685,0.325655,20.5728,158.964,-0.858791,0.0,0.0
2415,603.5,52.6578,55.8004,143.28,103.027,114.278,0.00148401,0.325054,20.5751,158.624,-0.949713,0.0,0.0
2436,608.75,52.6196,56.1192,143.621,103.11,114.483,0.00152115,0.324969,20.5751,158.263,-0.958784,0.0,0.0
2457,614,52.4065,55.8266,142.289,103.221,114.474,0.00144489,0.324903,20.5758,157.913,-0.948216,0.0,0.0
2478,619.25,52.6207,56.1275,148.812,103.342,114.653,0.00151909,0.325699,20.5719,157.573,-0.951703,0.0,0.0
2499,624.5,52.7499,55.4918,147.068,103.482,113.948,0.0014375,0.324699,20.5719,157.212,-0.882807,0.0,0.0
2520,629.75,52.7901,56.2217,145.231,103.672,114.331,0.0015107,0.326241,20.5708,156.812,-0.896799,0.0,0.0
2541,635,52.3656,56.0495,146.436,103.872,116.731,0.00143364,0.324986,20.574,156.502,-1.06948,0.0,0.0
2562,640.25,52.4683,55.834,146.707,104.038,117.615,0.0016271,0.324208,20.5755,156.151,-1.12398,0.0,0.0
2583,645.5,52.4383,55.8982,145.517,104.227,116.499,0.00149488,0.325603,20.5739,155.781,-1.02,0.0,0.0
2604,650.75,52.8764,56.0589,147.839,104.37,115.91,0.00138086,0.3257,20.5753,155.421,-0.961054,0.0,0.0
2625,656,52.4912,55.7638,146.388,104.511,114.947,0.00141159,0.325738,20.5737,155.05,-0.872182,0.0,0.0
2646,661.25,52.6266,55.6721,142.423,104.658,117.445,0.00163355,0.326157,20.5732,154.7,-1.05631,0.0,0.0
2667,666.5,52.7082,56.007,145.42,104.764,115.705,0.0012067,0.325414,20.575,154.34,-0.910291,0.0,0.0
2688,671.75,52.6741,55.9819,145.762,104.842,116.321,0.00153009,0.325679,20.5765,154,-0.952076,0.0,0.0
2709,677,52.5221,55.7446,147.35,104.89,116.169,0.00147652,0.327169,20.5724,153.639,-0.935886,0.0,0.0
2730,682.25,52.4702,55.8151,149.479,104.913,116.142,0.00127879,0.33099,20.5677,153.279,-0.931807,0.0,0.0
2751,687.5,52.7779,56.0385,139.958,104.885,117.035,0.00128039,0.330018,20.568,152.889,-1.00434,0.0,0.0
2772,692.75,52.8524,56.0112,146.371,104.869,116.687,0.00150646,0.332366,20.5658,152.538,-0.978507,0.0,0.0
2793,698,52.7403,56.2069,150.189,104.818,117.909,0.00153322,0.332573,20.5639,152.178,-1.07845,0.0,0.0
2814,703.25,52.9883,56.3706,145.223,104.73,118.186,0.00129251,0.332931,20.5638,151.828,-1.10758,0.0,0.0
2835,708.5,53.1345,56.3295,145.878,104.637,116.847,0.00124921,0.332985,20.5631,151.457,-1.01133,0.0,0.0
2856,713.75,53.0263,56.273,147.361,104.545,115.348,0.00132328,0.333852,20.5641,151.137,-0.901112,0.0,0.0
2877,719,53.0357,56.6699,147.896,104.435,116.16,0.0016684,0.333319,20.5636,150.747,-0.975075,0.0,0.0
2898,724.25,53.3915,56.7248,142.895,104.337,116.232,0.0016944,0.333445,20.5642,150.356,-0.989247,0.0,0.0
2919,729.5,52.9428,56.4721,149.434,104.26,117.338,0.00164547,0.334309,20.5645,150.006,-1.08281,0.0,0.0
2940,734.75,53.3602,56.341,148.622,104.178,115.09,0.00153488,0.334508,20.5643,149.646,-0.912743,0.0,0.0
2961,740,53.1818,56.5827,145.133,104.117,116.401,0.00153454,0.33551,20.5618,149.285,-1.022,0.0,0.0
2982,745.25,53.342,56.5968,146.303,104.067,117.044,0.00153424,0.336314,20.5596,148.925,-1.07684,0.0,0.0
3003,750.5,53.4349,56.6692,142.755,104.018,116.232,0.0016138,0.337566,20.5589,148.555,-1.01736,0.0,0.0
3024,755.75,53.652,56.9875,140.597,104.141,115.946,0.00135348,0.337233,20.5593,148.174,-0.983974,0.0,0.0
3045,761,53.4598,56.8809,150.13,104.274,114.938,0.00135147,0.335685,20.5613,147.814,-0.892289,0.0,0.0
3066,766.25,53.6427,57.0252,149.17,104.379,115.91,0.00136264,0.339942,20.5567,147.424,-0.960234,0.0,0.0
3087,771.5,53.6081,56.8934,142.036,104.447,116.901,0.00145127,0.339057,20.5573,147.033,-1.03219,0.0,0.0
3108,776.75,53.7813,57.0841,145.97,104.506,116.196,0.00142833,0.339386,20.5576,146.673,-0.971664,0.0,0.0
3129,782,54.0272,57.4358,146.852,104.54,117.864,0.00129342,0.338871,20.5564,146.303,-1.09924,0.0,0.0
3150,787.25,53.9148,57.6282,148.516,104.54,117.57,0.00152702,0.338621,20.5567,145.952,-1.07636,0.0,0.0
3171,792.5,53.9336,57.3494,146.968,104.55,118.828,0.00163111,0.339211,20.5571,145.562,-1.17299,0.0,0.0
3192,797.75,54.253,57.2268,141.913,104.533,117.267,0.0015103,0.340348,20.5551,145.161,-1.05328,0.0,0.0
3213,803,54.1564,57.2438,141.683,104.463,118.266,0.00152439,0.34018,20.5545,144.831,-1.13718,0.0,0.0
3234,808.25,53.7254,57.2045,148.239,104.414,116.151,0.00157005,0.340642,20.554,144.421,-0.976161,0.0,0.0
3255,813.5,53.7391,57.8195,144.84,104.331,118.186,0.00151739,0.339774,20.5555,144.04,-1.14253,0.0,0.0
3276,818.75,54.5149,57.4957,146.998,104.227,115.919,0.00145762,0.339522,20.5577,143.68,-0.974307,0.0,0.0
3297,824,54.3708,57.4798,147.305,104.115,115.964,0.00108357,0.340481,20.5563,143.31,-0.987703,0.0,0.0
3318,829.25,54.0866,57.9619,145.317,104.013,117.302,0.0013639,0.340864,20.5561,142.97,-1.10179,0.0,0.0
3339,834.5,54.3889,57.9158,144.521,103.906,114.474,0.00145022,0.33955,20.5578,142.569,-0.887556,0.0,0.0
3360,839.75,54.2104,56.8851,146.728,103.761,115.188,0.00177751,0.341579,20.555,142.209,-0.957339,0.0,0.0
3381,845,54.2857,58.165,141.888,103.651,114.706,0.00166672,0.34245,20.5526,141.788,-0.928623,0.0,0.0
3402,850.25,54.0403,57.7106,145.702,103.673,114.59,0.00128293,0.341282,20.5526,141.458,-0.917474,0.0,0.0
3423,855.5,54.0279,58.0252,143.172,103.679,114.742,0.00141681,0.342311,20.5521,141.058,-0.928994,0.0,0.0
3444,860.75,54.2347,57.8889,144.275,103.707,115.277,0.00156043,0.341432,20.5519,140.667,-0.969165,0.0,0.0
3465,866,54.6152,57.8252,146.632,103.754,115.473,0.00159065,0.342116,20.5507,140.287,-0.980624,0.0,0.0
3486,871.25,53.8689,57.8325,141.621,103.775,115.027,0.00165988,0.343493,20.5489,139.917,-0.943354,0.0,0.0
3507,876.5,54.3834,57.6808,147.888,103.83,116.035,0.00175902,0.343699,20.5486,139.556,-1.0184,0.0,0.0
3528,881.75,54.2846,58.1857,142.003,103.864,116.08,0.00150147,0.345466,20.5466,139.136,-1.01896,0.0,0.0
3549,887,54.4867,57.594,145.808,103.88,115.58,0.0016593,0.344637,20.5486,138.786,-0.977973,0.0,0.0
3570,892.25,54.1368,58.0529,142.125,103.93,115,0.00162397,0.344756,20.5491,138.425,-0.927533,0.0,0.0
3591,897.5,54.343,58.0721,146.114,103.956,114.92,0.00168738,0.345835,20.5479,138.015,-0.91881,0.0,0.0
3612,902.75,54.427,58.1793,150.046,103.978,116.883,0.00173016,0.347696,20.5442,137.655,-1.07208,0.0,0.0
3633,908,54.1671,58.0728,144.253,104.013,116.945,0.00169258,0.3456,20.5456,137.244,-1.07383,0.0,0.0
3654,913.25,54.9991,58.3499,143.428,104.033,117.954,0.00174329,0.347887,20.5424,136.884,-1.15073,0.0,0.0
3675,918.5,54.8499,58.0568,144.095,104.036,116.553,0.00159903,0.348191,20.5421,136.484,-1.04104,0.0,0.0
3696,923.75,54.6235,58.7376,148.769,104.081,115.732,0.00149287,0.348743,20.5422,136.093,-0.972273,0.0,0.0
3717,929,55.1179,58.2079,149.495,104.112,115.625,0.00143298,0.349921,20.5408,135.713,-0.961136,0.0,0.0
3738,934.25,55.2847,58.3715,142.695,104.135,116.053,0.00146621,0.349669,20.5407,135.343,-0.992992,0.0,0.0
3759,939.5,54.6124,58.4509,142.131,104.179,116.481,0.0013848,0.349456,20.5395,134.982,-1.02285,0.0,0.0
3780,944.75,54.8801,58.5696,144.714,104.186,117.017,0.00129876,0.348587,20.5416,134.582,-1.06423,0.0,0.0
3801,950,54.874,58.5207,142.318,104.185,117.784,0.00128816,0.349788,20.5421,134.182,-1.1242,0.0,0.0
3822,955.25,55.2279,58.437,144.497,104.197,116.945,0.00134085,0.349778,20.5432,133.801,-1.05767,0.0,0.0
3843,960.5,55.4869,58.7062,139.877,104.196,115.455,0.00153715,0.348233,20.5444,133.431,-0.940251,0.0,0.0
3864,965.75,54.9806,58.6758,145.705,104.198,116.321,0.00143045,0.348941,20.5429,133.031,-1.00853,0.0,0.0
3885,971,55.1789,59.0345,143.603,104.188,117.418,0.00138249,0.350345,20.5409,132.66,-1.09543,0.0,0.0
3906,976.25,55.3119,59.0063,143.514,104.191,117.588,0.00139029,0.35068,20.5386,132.28,-1.10839,0.0,0.0
3927,981.5,55.3284,58.5873,144.536,104.183,116.232,0.00152031,0.350166,20.5404,131.849,-1.00281,0.0,0.0
3948,986.75,55.4199,59.2306,143.517,104.182,115.429,0.00143176,0.349711,20.5411,131.499,-0.93936,0.0,0.0
3969,992,55.6102,59.3177,142.739,104.174,116.82,0.00127947,0.348793,20.5425,131.109,-1.04993,0.0,0.0
3990,997.25,55.4886,59.2391,143.801,104.182,117.49,0.00135127,0.34859,20.5414,130.738,-1.10152,0.0,0.0
4011,1002.5,55.4871,58.9003,142.772,104.164,117.9,0.00143564,0.351654,20.5394,130.348,-1.13508,0.0,0.0
4032,1007.75,55.2431,59.1758,142.992,104.183,117.677,0.00147669,0.352368,20.5361,129.958,-1.11605,0.0,0.0
4053,1013,56.2666,59.5859,143.682,104.184,116.214,0.00150043,0.351447,20.5399,129.577,-1.00133,0.0,0.0
4074,1018.25,55.3791,59.5589,141.867,104.181,116.214,0.00148323,0.351755,20.5403,129.187,-1.00159,0.0,0.0
4095,1023.5,55.8194,59.4058,143.79,104.182,117.418,0.001356,0.352303,20.5393,128.797,-1.09595,0.0,0.0
4116,1028.75,56.0647,59.1474,137.24,104.182,116.58,0.00169506,0.353124,20.5373,128.416,-1.03027,0.0,0.0
4137,1034,56.0181,60.1896,143.643,104.173,116.82,0.00172994,0.354181,20.5346,128.046,-1.05001,0.0,0.0
4158,1039.25,55.4922,59.5377,145.864,104.198,117.543,0.00120926,0.351839,20.5361,127.656,-1.10428,0.0,0.0
4179,1044.5,55.9517,59.804,142.932,104.196,118.453,0.00134722,0.352089,20.5374,127.305,-1.17513,0.0,0.0
4200,1049.75,55.8157,59.7402,141.33,104.184,118.186,0.00161196,0.354175,20.5337,126.895,-1.15545,0.0,0.0
4221,1055,55.5859,60.2552,148.869,104.154,118.177,0.00145672,0.354643,20.5333,126.525,-1.15745,0.0,0.0
4242,1060.25,55.8046,59.9293,144.687,104.106,119.586,0.0013838,0.354112,20.5303,126.144,-1.27033,0.0,0.0
4263,1065.5,56.359,60.099,143.395,104.001,117.838,0.00155762,0.355777,20.5297,125.764,-1.1446,0.0,0.0
4284,1070.75,56.1581,59.873,145.461,103.936,115.411,0.00143352,0.353879,20.5327,125.374,-0.959614,0.0,0.0
4305,1076,56.4795,59.9399,143.07,103.812,118.542,0.00135786,0.354389,20.5328,124.993,-1.21589,0.0,0.0
4326,1081.25,56.6853,59.5671,147.103,103.669,117.32,0.00163591,0.355415,20.5315,124.643,-1.13353,0.0,0.0
4347,1086.5,56.3882,60.297,141.196,103.617,119.051,0.00139928,0.354272,20.5329,124.303,-1.27235,0.0,0.0
4368,1091.75,56.3587,60.5778,138.162,104.106,119.015,0.00137233,0.355137,20.5315,123.872,-1.22644,0.0,0.0
4389,1097,56.895,60.3222,139.357,104.422,116.919,0.00158061,0.353818,20.533,123.482,-1.03578,0.0,0.0
4410,1102.25,56.4392,60.7509,142.544,104.526,117.097,0.00194123,0.35403,20.5336,123.122,-1.04066,0.0,0.0
4431,1107.5,57.1288,60.1735,143.067,104.369,118.935,0.00180283,0.351601,20.5345,122.721,-1.19713,0.0,0.0
4452,1112.75,56.8731,60.7208,143.542,103.995,118.605,0.00139618,0.355442,20.53,122.321,-1.20456,0.0,0.0
4473,1118,56.9115,60.4902,145.614,104.22,118.275,0.00128888,0.354575,20.5299,121.94,-1.15919,0.0,0.0
4494,1123.25,57.0655,60.6364,147.025,104.482,116.785,0.00133824,0.354495,20.5301,121.58,-1.02003,0.0,0.0
4515,1128.5,57.0709,60.2536,142.146,104.742,118.337,0.00168042,0.353098,20.5319,121.22,-1.11825,0.0,0.0
4536,1133.75,57.1137,60.8537,140.067,104.883,118.828,0.00145995,0.354493,20.5309,120.839,-1.14383,0.0,0.0
4557,1139,57.2921,60.9747,141.748,104.829,117.954,0.00158939,0.352819,20.5325,120.509,-1.08091,0.0,0.0
4578,1144.25,57.0599,60.2575,140.122,104.536,119.051,0.00156734,0.354812,20.5293,120.049,-1.1914,0.0,0.0
4599,1149.5,57.2711,60.6168,142.622,104.078,119.667,0.00189308,0.357287,20.5256,119.698,-1.27888,0.0,0.0
4620,1154.75,56.9818,61.0074,145.838,103.595,117.748,0.00182963,0.353309,20.5312,119.308,-1.17345,0.0,0.0
4641,1160,57.3973,60.7091,146.457,103.158,117.811,0.00153962,0.350991,20.5339,118.938,-1.21704,0.0,0.0
4662,1165.25,57.8604,60.3733,142.641,102.895,117.365,0.00149671,0.35083,20.5357,118.567,-1.20568,0.0,0.0
4683,1170.5,56.8804,61.3693,144.936,102.909,116.713,0.00123862,0.346045,20.5378,118.217,-1.15344,0.0,0.0
4704,1175.75,57.2859,60.7741,146.545,103.17,115.108,0.0012655,0.352735,20.5346,117.837,-1.00331,0.0,0.0
4725,1181,57.6447,61.0531,141.212,103.576,118.917,0.00139,0.350538,20.5352,117.456,-1.26569,0.0,0.0
4746,1186.25,57.4519,60.8399,146.028,104,119.078,0.00143379,0.345911,20.5415,117.076,-1.2406,0.0,0.0
4767,1191.5,57.1883,60.7119,144.357,104.212,119.122,0.00135553,0.346968,20.5394,116.756,-1.2254,0.0,0.0
4788,1196.75,57.4375,61.0611,142.382,104.173,118.605,0.00149063,0.347537,20.5371,116.405,-1.18888,0.0,0.0
4809,1202,57.1543,60.9575,144.309,103.931,117.757,0.00133158,0.344885,20.543,116.015,-1.14453,0.0,0.0
4830,1207.25,56.9546,61.455,147.94,103.679,118.908,0.0015546,0.345288,20.5423,115.675,-1.25587,0.0,0.0
4851,1212.5,57.4667,60.8771,145.113,104.09,119.515,0.00128036,0.343025,20.5445,115.314,-1.26621,0.0,0.0
4872,1217.75,57.1184,61.1013,140.361,104.541,118.694,0.00135212,0.342828,20.5437,114.954,-1.16348,0.0,0.0
4893,1223,57.1753,60.671,145.883,104.38,118.569,0.00154028,0.342111,20.5446,114.604,-1.16793,0.0,0.0
4914,1228.25,56.4597,61.4344,149.979,104.146,117.659,0.00148494,0.338606,20.5466,114.284,-1.11795,0.0,0.0
4935,1233.5,56.6952,61.0845,143.972,104.585,120.933,0.0017308,0.341385,20.5451,113.913,-1.33092,0.0,0.0
4956,1238.75,57.0073,60.3872,144.678,104.899,118.739,0.00177358,0.340767,20.544,113.563,-1.13558,0.0,0.0
4977,1244,56.3114,60.8731,146.237,104.785,118.551,0.00155605,0.341075,20.542,113.223,-1.13106,0.0,0.0
4998,1249.25,56.7044,60.6248,144.685,104.243,117.07,0.00169107,0.337095,20.5466,112.902,-1.06345,0.0,0.0
5019,1254.5,56.921,60.0304,147.482,103.46,117.632,0.00140899,0.336619,20.5466,112.562,-1.17635,0.0,0.0
5040,1259.75,56.3334,60.5189,148.252,102.953,117.302,0.00150864,0.336412,20.5461,112.212,-1.19562,0.0,0.0
5061,1265,56.7735,60.0054,142.7,103.036,119.185,0.00166508,0.336912,20.546,111.911,-1.33413,0.0,0.0
5082,1270.25,57.0881,59.7856,147.297,103.55,116.687,0.00156313,0.336792,20.5455,111.581,-1.09444,0.0,0.0
5103,1275.5,56.6588,59.9098,141.916,104.088,119.542,0.00143482,0.335633,20.5472,111.221,-1.26845,0.0,0.0
5124,1280.75,56.6048,59.6984,144.984,104.239,117.989,0.00150239,0.33435,20.5475,110.92,-1.13544,0.0,0.0
5145,1286,56.0479,60.0794,148.094,103.932,118.507,0.00134583,0.334622,20.5478,110.56,-1.20252,0.0,0.0
5166,1291.25,56.0726,59.8862,141.687,103.62,116.339,0.00155875,0.3333,20.5503,110.27,-1.06091,0.0,0.0
5187,1296.5,56.18,60.3716,141.867,104.425,116.58,0.00151566,0.331033,20.5529,109.95,-1.00891,0.0,0.0
5208,1301.75,56.1878,59.9395,147.885,104.36,116.66,0.00138402,0.329342,20.5557,109.649,-1.02097,0.0,0.0
5229,1307,56.3294,60.0078,146.448,104.26,118.275,0.00131787,0.328327,20.558,109.299,-1.15575,0.0,0.0
5250,1312.25,56.0879,59.9136,143.892,104.752,118.444,0.00135326,0.328004,20.5561,108.969,-1.12568,0.0,0.0
5271,1317.5,55.6477,59.2574,140.129,104.909,118.712,0.00126075,0.3263,20.5583,108.668,-1.13262,0.0,0.0
5292,1322.75,56.0226,59.6305,141.025,104.447,119.452,0.00131553,0.323432,20.5615,108.368,-1.23008,0.0,0.0
5313,1328,56.0531,59.6932,144.848,103.658,116.731,0.00144731,0.323308,20.5622,108.088,-1.08843,0.0,0.0
5334,1333.25,55.8329,59.7059,146.782,103.05,115.125,0.00147064,0.322179,20.5623,107.758,-1.01535,0.0,0.0
5355,1338.5,55.0869,59.5056,146.007,103.027,114.465,0.00138856,0.320361,20.5653,107.407,-0.964724,0.0,0.0
5376,1343.75,55.3419,59.3686,144.398,103.49,115.509,0.00128746,0.317998,20.5678,107.107,-1.0068,0.0,0.0
5397,1349,55.5065,59.0345,148.606,104.025,113.778,0.00140453,0.31899,20.5665,106.837,-0.821229,0.0,0.0
5418,1354.25,56.2114,59.2338,146.768,104.269,114.777,0.0012811,0.317391,20.5695,106.557,-0.879851,0.0,0.0
5439,1359.5,55.0327,58.8777,144.788,104.147,115.714,0.00141933,0.315926,20.5708,106.256,-0.965062,0.0,0.0
5460,1364.75,55.103,58.717,142.663,103.834,116.847,0.00132995,0.313786,20.5739,105.956,-1.08199,0.0,0.0
5481,1370,54.8361,58.318,143.966,103.625,114.92,0.00177436,0.313854,20.5738,105.646,-0.948079,0.0,0.0
5502,1375.25,54.9621,58.8898,143.253,104.197,114.938,0.00173042,0.313447,20.5757,105.335,-0.899014,0.0,0.0
5523,1380.5,54.9017,58.0979,142.967,104.504,115.018,0.00124062,0.310904,20.5792,105.065,-0.878465,0.0,0.0
5544,1385.75,54.4878,58.3711,142.418,104.37,115.09,0.00139006,0.310316,20.5775,104.795,-0.895934,0.0,0.0
5565,1391,54.2946,57.5314,142.157,104.031,114.01,0.0011799,0.308217,20.5786,104.515,-0.839368,0.0,0.0
5586,1396.25,54.4816,57.997,144.44,104.306,115.348,0.00131103,0.307973,20.5791,104.234,-0.922111,0.0,0.0
5607,1401.5,54.1853,57.5449,144.198,104.614,114.26,0.00166858,0.307547,20.58,103.934,-0.808202,0.0,0.0
5628,1406.75,54.2455,57.8536,144.458,104.815,116.794,0.00155153,0.308532,20.5809,103.684,-0.991591,0.0,0.0
5649,1412,54.0335,57.2358,153.805,104.917,114.608,0.00155934,0.306359,20.5845,103.394,-0.809594,0.0,0.0
5670,1417.25,54.2803,57.6384,147.646,104.897,117.65,0.00154721,0.302969,20.5914,103.143,-1.05141,0.0,0.0
5691,1422.5,53.573,57.0763,146.083,104.76,114.233,0.00108891,0.302212,20.5925,102.833,-0.793294,0.0,0.0
5712,1427.75,53.5562,56.927,144.758,104.555,113.216,0.0012435,0.300827,20.5917,102.583,-0.729317,0.0,0.0
5733,1433,53.3089,56.5991,144.922,104.285,115.054,0.00178164,0.299761,20.5943,102.353,-0.900485,0.0,0.0
5754,1438.25,53.5685,56.7407,144.324,104.003,114.162,0.0015733,0.3002,20.593,102.072,-0.853983,0.0,0.0
5775,1443.5,53.2909,56.3499,146.142,103.75,112.779,0.00123564,0.297592,20.5957,101.812,-0.764692,0.0,0.0
5796,1448.75,52.9924,56.7417,143.359,103.537,114.162,0.001215,0.29667,20.5971,101.562,-0.895194,0.0,0.0
5817,1454,52.7519,56.2613,147.711,103.353,113.662,0.00124686,0.295453,20.5991,101.292,-0.871231,0.0,0.0
5838,1459.25,52.9426,56.334,149.516,103.217,112.913,0.0011606,0.293573,20.6014,101.052,-0.822755,0.0,0.0
5859,1464.5,52.8156,55.681,143.228,103.112,113.475,0.00124812,0.29261,20.6022,100.771,-0.877505,0.0,0.0
5880,1469.75,52.6404,55.7875,146.198,103.042,113.43,0.00132333,0.291216,20.6037,100.541,-0.880175,0.0,0.0
5901,1475,52.4182,55.492,148.158,102.991,112.618,0.00140113,0.288299,20.6073,100.271,-0.818889,0.0,0.0
5922,1480.25,52.5063,55.4695,147.001,103.001,111.512,0.00126466,0.288061,20.6066,100.031,-0.727483,0.0,0.0
5943,1485.5,52.0803,55.4098,146.5,103.001,112.663,0.00131857,0.285628,20.6086,99.7904,-0.821648,0.0,0.0
5964,1490.75,52.0405,55.584,143.288,103.002,111.566,0.00100286,0.284691,20.6094,99.5502,-0.731805,0.0,0.0
5985,1496,51.7755,55.2444,143.849,103.042,111.735,0.00102052,0.282939,20.6111,99.32,-0.742201,0.0,0.0
6006,1501.25,51.5259,54.7205,150.348,103.065,111.075,0.000952013,0.281853,20.6151,99.0697,-0.685857,0.0,0.0
6027,1506.5,51.4916,54.4136,147.456,103.1,112.065,0.000862042,0.281001,20.6167,98.8596,-0.764018,0.0,0.0
6048,1511.75,51.5629,54.7962,145.801,103.143,113.377,0.00111484,0.279973,20.6172,98.6093,-0.866896,0.0,0.0
6069,1517,51.3862,54.5787,144.137,103.2,112.895,0.00116602,0.280433,20.617,98.4091,-0.82274,0.0,0.0
6090,1522.25,51.2353,54.2983,152.468,103.232,111.227,0.000981027,0.278508,20.6192,98.1889,-0.683521,0.0,0.0
6111,1527.5,51.4453,54.0078,148.54,103.27,111.334,0.0010352,0.277034,20.6204,97.9587,-0.688942,0.0,0.0
6132,1532.75,50.6527,53.676,142.325,103.293,113.921,0.00106858,0.278891,20.6181,97.7185,-0.89738,0.0,0.0
6153,1538,50.9155,53.8018,148.219,103.332,112.19,0.00111558,0.277499,20.6194,97.5083,-0.753699,0.0,0.0
6174,1543.25,51.1377,53.5694,147.796,103.367,110.468,0.000995949,0.273741,20.624,97.3082,-0.608804,0.0,0.0
6195,1548.5,50.5483,52.9585,150.431,103.409,111.271,0.0010529,0.270661,20.6294,97.0679,-0.671438,0.0,0.0
6216,1553.75,50.853,52.9517,144.955,103.435,112.27,0.00124311,0.268713,20.6318,96.8477,-0.751063,0.0,0.0
6237,1559,50.4589,52.6715,148.473,103.492,112.44,0.0011802,0.266099,20.6365,96.6576,-0.759882,0.0,0.0
6258,1564.25,49.7581,53.03,147.304,103.547,112.101,0.000864084,0.264037,20.6386,96.4374,-0.727319,0.0,0.0
6279,1569.5,50.0356,52.5323,145.065,103.613,111.548,0.000717044,0.263205,20.6394,96.2572,-0.676201,0.0,0.0
6300,1574.75,49.4972,52.3785,145.894,103.67,112.199,0.000736623,0.26138,20.6404,96.067,-0.724474,0.0,0.0
6321,1580,49.7727,52.4015,148.615,103.702,113.493,0.000935386,0.260381,20.6414,95.8568,-0.826706,0.0,0.0
6342,1585.25,49.6651,52.1521,147.971,103.73,112.101,0.0009844,0.258663,20.6453,95.6767,-0.711198,0.0,0.0
6363,1590.5,49.4248,51.6344,152.277,103.731,111.905,0.00116323,0.258579,20.6464,95.4765,-0.694989,0.0,0.0
6384,1595.75,48.8275,51.1722,144.201,103.76,111.896,0.00094545,0.257713,20.6477,95.2863,-0.691706,0.0,0.0
6405,1601,48.999,51.4825,149.76,103.769,111.726,0.000966294,0.254672,20.6525,95.0861,-0.676988,0.0,0.0
6426,1606.25,48.5874,50.946,148.705,103.767,111.503,0.00099749,0.253984,20.6534,94.886,-0.658938,0.0,0.0
6447,1611.5,48.4054,51.4395,147.782,103.798,109.969,0.00108741,0.252998,20.6533,94.7358,-0.52914,0.0,0.0
6468,1616.75,48.3573,51.2204,149.987,103.835,110.379,0.00114123,0.254034,20.6509,94.5256,-0.560047,0.0,0.0
6489,1622,48.4022,50.3353,146.211,103.816,112.092,0.00101136,0.251716,20.6517,94.3254,-0.702812,0.0,0.0
6510,1627.25,48.5636,50.3461,151.059,103.828,112.324,0.000936503,0.250924,20.6534,94.1853,-0.720743,0.0,0.0
6531,1632.5,47.5286,50.5567,146.774,103.844,112.27,0.00083285,0.249306,20.6556,94.0052,-0.714949,0.0,0.0
6552,1637.75,48.0623,50.484,149.004,103.836,111.682,0.000719772,0.246953,20.6584,93.825,-0.667438,0.0,0.0
6573,1643,47.6463,50.3049,146.925,103.847,112.806,0.000658952,0.246675,20.6608,93.6348,-0.758235,0.0,0.0
6594,1648.25,47.6643,50.122,148.791,103.835,110.986,0.000814874,0.245669,20.6616,93.4847,-0.610312,0.0,0.0
6615,1653.5,47.891,50.2274,151.927,103.799,110.37,0.000858262,0.244579,20.6637,93.3045,-0.562495,0.0,0.0
6636,1658.75,47.0002,49.3108,152.552,103.787,112.11,0.000731206,0.243405,20.6641,93.1244,-0.706821,0.0,0.0
6657,1664,47.3067,50.0109,149.101,103.785,111.485,0.000711883,0.241845,20.666,92.9642,-0.655821,0.0,0.0
6678,1669.25,46.7925,49.5944,153.338,103.753,111.048,0.00109045,0.24068,20.6678,92.8241,-0.622671,0.0,0.0
6699,1674.5,47.2874,49.2547,146.615,103.744,111.378,0.000946477,0.240386,20.668,92.6439,-0.65062,0.0,0.0
6720,1679.75,47.3944,49.1309,151.341,103.721,110.486,0.000741191,0.239036,20.67,92.5038,-0.578988,0.0,0.0
6741,1685,46.8506,49.1366,150.746,103.677,110.888,0.000814302,0.238984,20.6709,92.3236,-0.616094,0.0,0.0
6762,1690.25,46.4881,49.1775,145.723,103.645,110.102,0.000544716,0.237526,20.6719,92.1735,-0.553839,0.0,0.0
6783,1695.5,46.7527,48.5372,151.527,103.606,109.755,0.00085198,0.236979,20.6733,91.9833,-0.528256,0.0,0.0
6804,1700.75,46.2053,48.5589,152.37,103.547,110.29,0.000765618,0.236663,20.6748,91.8332,-0.578103,0.0,0.0
6825,1706,46.4646,48.5247,147.609,103.49,111.262,0.000690173,0.236061,20.6751,91.7031,-0.663588,0.0,0.0
6846,1711.25,46.3469,48.7388,149.741,103.422,110.923,0.000894544,0.235198,20.6768,91.5429,-0.641609,0.0,0.0
6867,1716.5,46.1018,48.5372,148.91,103.346,109.603,0.00100743,0.234925,20.6776,91.3728,-0.538619,0.0,0.0
6888,1721.75,46.1515,48.2552,149.897,103.301,109.888,0.000918393,0.233155,20.6797,91.2026,-0.566453,0.0,0.0
6909,1727,45.7216,47.9608,150.26,103.231,110.593,0.000696517,0.234139,20.6787,91.0625,-0.631261,0.0,0.0
6930,1732.25,45.7417,47.9262,148.851,103.164,110.334,0.000647437,0.234148,20.6787,90.9023,-0.615724,0.0,0.0
6951,1737.5,45.8862,48.0601,153.189,103.102,109.79,0.000741085,0.232924,20.6819,90.7522,-0.575927,0.0,0.0
6972,1742.75,45.8664,47.3054,147.09,103.071,110.656,0.000954705,0.232079,20.6816,90.6121,-0.650669,0.0,0.0
6993,1748,45.5921,47.716,152.227,103.041,109.487,0.000702461,0.231846,20.6824,90.4519,-0.555978,0.0,0.0
7014,1753.25,45.5932,47.6769,152.713,103.019,109.398,0.00052906,0.231993,20.6804,90.2818,-0.550511,0.0,0.0
7035,1758.5,45.5505,47.5175,151.349,102.998,109.888,0.000636351,0.230026,20.6814,90.1517,-0.593374,0.0,0.0
7056,1763.75,45.5117,47.2609,151.746,102.997,108.853,0.000482782,0.229556,20.6828,89.9615,-0.506779,0.0,0.0
7077,1769,44.8858,47.3558,150.619,102.978,109.407,0.000714301,0.229659,20.6837,89.8214,-0.554927,0.0,0.0
7098,1774.25,44.894,47.1165,145.597,103.004,108.773,0.000692231,0.229351,20.6842,89.6812,-0.499374,0.0,0.0
7119,1779.5,45.0063,46.8879,149.167,103.024,110.343,0.000391924,0.229285,20.6873,89.5511,-0.62897,0.0,0.0
7140,1784.75,44.6926,47.0933,148.924,103.047,110.263,0.000546483,0.229353,20.6867,89.401,-0.620221,0.0,0.0
7161,1790,45.0285,47.3073,151.795,103.082,109.781,0.000621108,0.22869,20.688,89.2208,-0.576996,0.0,0.0
7182,1795.25,44.8743,46.7087,150.94,103.13,108.943,0.000711982,0.22803,20.6888,89.0807,-0.502458,0.0,0.0
7203,1800.5,44.7941,46.8408,152.399,103.19,107.943,0.00059049,0.22833,20.6867,88.9306,-0.412699,0.0,0.0
7224,1805.75,44.4223,46.7938,149.501,103.262,108.952,0.000456203,0.227269,20.6864,88.8004,-0.491433,0.0,0.0
7245,1811,44.8238,46.8465,147.299,103.32,109.121,0.000654728,0.226281,20.6879,88.6503,-0.500588,0.0,0.0
7266,1816.25,44.394,46.5196,150.817,103.397,109.755,0.000934625,0.226141,20.6895,88.5102,-0.546807,0.0,0.0
7287,1821.5,44.4089,46.779,148.912,103.493,109.317,0.000874187,0.225525,20.6898,88.35,-0.501689,0.0,0.0
7308,1826.75,44.4383,46.4706,150.962,103.611,110.995,0.000797909,0.225198,20.6909,88.2099,-0.6308,0.0,0.0
7329,1832,44.7523,46.4388,153.242,103.741,109.621,0.000670479,0.223805,20.6921,88.0598,-0.505167,0.0,0.0
7350,1837.25,44.2102,46.2308,147.593,103.874,110.513,0.000735378,0.224957,20.6923,87.9196,-0.567737,0.0,0.0
7371,1842.5,44.5335,45.7161,152.288,104.024,109.353,0.000654843,0.223012,20.694,87.7795,-0.457797,0.0,0.0
7392,1847.75,44.0484,45.8039,150.684,104.171,110.531,0.000823756,0.222588,20.6953,87.6394,-0.543045,0.0,0.0
7413,1853,43.6819,45.8638,150.08,104.317,111.128,0.00099598,0.222214,20.6975,87.4692,-0.579615,0.0,0.0
7434,1858.25,43.8394,45.9648,147.756,104.465,110.317,0.000807417,0.222391,20.6959,87.3391,-0.49944,0.0,0.0
7455,1863.5,44.2869,44.5318,150.745,104.609,111.378,0.00106824,0.221437,20.6968,87.219,-0.574577,0.0,0.0
7476,1868.75,43.4048,45.5394,152.208,104.733,108.363,0.000938868,0.220458,20.6956,87.0789,-0.312196,0.0,0.0
7497,1874,43.4517,45.4947,148.027,104.833,110.192,0.00104779,0.22104,20.6937,86.9488,-0.45683,0.0,0.0
7518,1879.25,43.6063,45.775,150.976,104.895,110.147,0.00106872,0.221228,20.6954,86.7686,-0.447734,0.0,0.0
7539,1884.5,43.5461,44.9686,147.661,104.915,109.389,0.0010127,0.22055,20.6978,86.6385,-0.382645,0.0,0.0
7560,1889.75,42.9314,45.5345,151.901,104.937,109.389,0.00086991,0.219713,20.6979,86.5184,-0.380715,0.0,0.0
7581,1895,42.96,44.8284,150.024,104.886,109.621,0.000851148,0.219314,20.7,86.3582,-0.404544,0.0,0.0
7602,1900.25,42.5241,44.7682,151.31,104.806,109.121,0.000729267,0.218034,20.7008,86.2381,-0.369705,0.0,0.0
7623,1905.5,42.778,44.513,155.987,104.747,108.006,0.00123134,0.217523,20.7029,86.078,-0.280777,0.0,0.0
7644,1910.75,42.5082,44.6622,152.807,104.633,108.729,0.00120457,0.216508,20.7039,85.9679,-0.351855,0.0,0.0
7665,1916,42.4438,44.7373,153.367,104.54,109.737,0.001107,0.215788,20.707,85.8578,-0.444548,0.0,0.0
7686,1921.25,42.2488,44.6423,153.424,104.447,108.514,0.00088048,0.213592,20.7097,85.7277,-0.350072,0.0,0.0
7707,1926.5,42.1999,44.5595,150.299,104.36,108.88,0.000792053,0.213066,20.7104,85.5575,-0.38852,0.0,0.0
7728,1931.75,42.7662,44.1689,149.353,104.268,108.845,0.000754512,0.214386,20.7082,85.4374,-0.393655,0.0,0.0
7749,1937,42.2073,44.2211,151.35,104.169,108.202,0.000962782,0.214218,20.7112,85.2873,-0.348123,0.0,0.0
7770,1942.25,42.1786,44.3736,149.943,104.082,108.193,0.00143913,0.213188,20.7116,85.1471,-0.354998,0.0,0.0
7791,1947.5,41.8208,44.2092,150.772,103.999,108.559,0.00128597,0.211662,20.7149,84.997,-0.393188,0.0,0.0
7812,1952.75,42.0385,44.0435,148.502,104.183,107.631,0.00123665,0.21099,20.7168,84.8669,-0.298331,0.0,0.0
7833,1958,41.6445,44.0914,152.004,104.341,107.132,0.00146982,0.211225,20.715,84.7368,-0.241875,0.0,0.0
7854,1963.25,41.8285,43.5887,156.358,104.454,107.444,0.00139486,0.210318,20.7151,84.6066,-0.258621,0.0,0.0
7875,1968.5,41.5697,43.3749,150.534,104.497,107.908,0.00148372,0.208824,20.7169,84.4765,-0.294337,0.0,0.0
7896,1973.75,41.3208,43.2509,152.152,104.489,108.184,0.00155702,0.208595,20.7186,84.3364,-0.318464,0.0,0.0
7917,1979,41.1529,43.9605,154.424,104.404,106.498,0.00171698,0.206976,20.7203,84.2063,-0.181973,0.0,0.0
7938,1984.25,41.4087,43.4072,155.612,104.278,108.559,0.00150065,0.206672,20.722,84.0862,-0.368692,0.0,0.0
7959,1989.5,41.0592,42.7654,153.94,104.083,107.943,0.00166489,0.20573,20.7255,83.9761,-0.333741,0.0,0.0
7980,1994.75,40.3496,42.9208,148.309,103.862,107.524,0.00176045,0.204413,20.7275,83.8059,-0.317554,0.0,0.0
8001,2000,41.1605,42.7821,151.159,103.652,106.507,0.00144516,0.203509,20.7278,83.6858,-0.249008,0.0,0.0
8022,2005.25,40.8036,42.775,153.965,103.668,107.069,0.00153455,0.202489,20.7295,83.5457,-0.295773,0.0,0.0
8043,2010.5,40.6895,42.6165,151.621,103.733,106.793,0.00175505,0.20141,20.7314,83.4356,-0.266327,0.0,0.0
8064,2015.75,40.5649,42.0666,152.401,103.798,107.747,0.00181128,0.200667,20.731,83.3255,-0.342207,0.0,0.0
8085,2021,40.541,42.0191,153.152,103.877,106.623,0.00159202,0.200743,20.7308,83.1854,-0.239051,0.0,0.0
8106,2026.25,40.1084,42.1001,152.871,103.97,107.185,0.00163598,0.199327,20.7327,83.0652,-0.279059,0.0,0.0
8127,2031.5,40.4779,41.6407,151.869,104.06,106.917,0.00159395,0.196849,20.739,82.9351,-0.248211,0.0,0.0
8148,2036.75,39.8319,41.7987,153.572,104.158,106.998,0.0017802,0.196345,20.7395,82.815,-0.246448,0.0,0.0
8169,2042,39.2957,41.5523,151.304,104.213,105.472,0.00213582,0.194481,20.7433,82.7149,-0.110068,0.0,0.0
8190,2047.25,39.4827,40.953,152.351,104.249,107.123,0.00182687,0.192755,20.7461,82.5948,-0.24914,0.0,0.0
8211,2052.5,38.9362,41.122,157.837,104.264,106.596,0.00176631,0.189587,20.7498,82.4647,-0.202732,0.0,0.0
8232,2057.75,38.8736,40.6189,152.999,104.274,106.641,0.00198538,0.188855,20.7535,82.3546,-0.205632,0.0,0.0
8253,2063,38.7508,40.681,155.531,104.257,106.248,0.00192996,0.187156,20.7559,82.2545,-0.173407,0.0,0.0
8274,2068.25,38.7654,40.4858,152.141,104.233,106.222,0.00203542,0.1854,20.7604,82.1344,-0.173154,0.0,0.0
8295,2073.5,38.5696,40.3974,151.201,104.18,108.015,0.00229434,0.184778,20.7612,82.0443,-0.331234,0.0,0.0
8316,2078.75,38.2356,39.9402,153.473,104.101,106.311,0.00249781,0.183613,20.7605,81.9342,-0.192438,0.0,0.0
8337,2084,38.124,39.7302,158.328,103.999,106.114,0.00255998,0.180765,20.7661,81.8141,-0.184487,0.0,0.0
8358,2089.25,37.5719,39.5443,153.462,103.916,105.57,0.00256093,0.178183,20.7705,81.684,-0.144713,0.0,0.0
8379,2094.5,37.317,39.3509,153.641,103.812,105.713,0.00264442,0.176107,20.774,81.5939,-0.166282,0.0,0.0
8400,2099.75,37.3226,38.7496,153.894,103.71,105.392,0.00280557,0.174094,20.7761,81.4938,-0.147371,0.0,0.0
8421,2105,36.9595,38.7675,156.261,103.616,105.561,0.00269409,0.172047,20.7801,81.4037,-0.170438,0.0,0.0
8442,2110.25,37.2439,38.0623,150.293,103.482,105.445,0.00290253,0.171899,20.7818,81.3037,-0.172213,0.0,0.0
8463,2115.5,36.5493,38.0546,152.777,103.373,105.231,0.00328694,0.170027,20.785,81.2036,-0.163301,0.0,0.0
8484,2120.75,36.1547,37.8026,154.694,103.277,104.955,0.00339412,0.167542,20.7889,81.1035,-0.14763,0.0,0.0
8505,2126,36.307,37.4561,160.98,103.189,104.17,0.00348743,0.165769,20.7941,81.0034,-0.0866352,0.0,0.0
8526,2131.25,35.8379,37.4132,155.102,103.106,104.687,0.00367552,0.164339,20.7963,80.9133,-0.139404,0.0,0.0
8547,2136.5,35.6912,37.3459,153.381,103.045,104.91,0.00341458,0.164444,20.7977,80.8132,-0.164348,0.0,0.0
8568,2141.75,35.7773,37.1303,153.035,103,104.366,0.00367343,0.16278,20.7987,80.7031,-0.120733,0.0,0.0
8589,2147,35.6949,36.2184,157.54,102.957,104.839,0.00360361,0.160414,20.8008,80.613,-0.165977,0.0,0.0
8610,2152.25,34.5734,36.5512,157.276,102.966,104.464,0.00349813,0.159667,20.8027,80.533,-0.132371,0.0,0.0
8631,2157.5,34.7844,36.2386,154.232,103.005,104.705,0.00349866,0.158524,20.8032,80.4529,-0.149961,0.0,0.0
8652,2162.75,34.5948,35.9446,157.673,103.048,103.304,0.00386324,0.156298,20.8072,80.3628,-0.022768,0.0,0.0
8673,2168,34.3274,35.7164,157.068,103.138,104.098,0.004023,0.1559,20.8102,80.2527,-0.0848848,0.0,0.0
8694,2173.25,34.2421,35.2377,157.234,103.219,103.92,0.00422903,0.155501,20.8123,80.1826,-0.0620297,0.0,0.0
8715,2178.5,33.6561,35.1463,158.456,103.316,103.429,0.00448715,0.15343,20.8151,80.0725,-0.0100602,0.0,0.0
8736,2183.75,33.972,34.9694,154.957,103.419,103.857,0.00466498,0.153028,20.8173,80.0025,-0.0387285,0.0,0.0
8757,2189,33.0806,34.8664,157.518,103.531,103.839,0.0045136,0.151867,20.818,79.9224,-0.0272551,0.0,0.0
8778,2194.25,33.0199,34.7654,155.549,103.605,106.623,0.00473529,0.150758,20.8183,79.8123,-0.263078,0.0,0.0
8799,2199.5,32.6337,34.7125,152.496,103.694,103.367,0.00447551,0.14985,20.8207,79.7422,0.0290011,0.0,0.0
8820,2204.75,32.5343,34.0995,156.737,103.769,103.679,0.00473458,0.148889,20.821,79.6421,0.00796971,0.0,0.0
8841,2210,32.4571,33.8633,157.295,103.834,104.687,0.0046565,0.148494,20.8223,79.5721,-0.0749999,0.0,0.0
8862,2215.25,32.2878,33.6373,154.304,103.908,104.259,0.00444134,0.14735,20.8245,79.482,-0.0308391,0.0,0.0
8883,2220.5,32.1343,33.4824,157.56,103.987,104.714,0.00473672,0.146805,20.8268,79.4119,-0.0638115,0.0,0.0
8904,2225.75,32.3076,33.1341,163.238,104.091,104.491,0.00484685,0.146492,20.8266,79.3118,-0.0351382,0.0,0.0
8925,2231,32.046,33.3001,153.057,104.197,104.758,0.00489954,0.146438,20.8265,79.2418,-0.0491932,0.0,0.0
8946,2236.25,32.0396,33.2352,157.293,104.334,104.633,0.00517913,0.144927,20.8277,79.1817,-0.0262708,0.0,0.0
8967,2241.5,31.3867,33.4377,158.922,104.442,105.526,0.005236,0.143606,20.8291,79.0816,-0.0945955,0.0,0.0
8988,2246.75,32.0634,32.7117,152.442,104.565,104.99,0.00532874,0.143035,20.8307,79.0316,-0.0371857,0.0,0.0
9009,2252,31.5317,32.5567,161.473,104.667,104.143,0.00511135,0.141178,20.8343,78.9215,0.0459866,0.0,0.0
9030,2257.25,31.4991,32.4957,157.727,104.74,105.329,0.00537015,0.139774,20.8367,78.8614,-0.0514317,0.0,0.0
9051,2262.5,31.0129,32.2155,157.611,104.811,105.463,0.00583329,0.138515,20.8382,78.7714,-0.0568221,0.0,0.0
9072,2267.75,30.9209,32.1448,156.992,104.875,105.017,0.0062008,0.136803,20.8403,78.7113,-0.0124089,0.0,0.0
9093,2273,30.7566,31.9838,158.289,104.907,104.375,0.00606929,0.134843,20.8427,78.6513,0.0465985,0.0,0.0
9114,2278.25,30.4431,31.8626,161.326,104.922,105.204,0.00646361,0.133292,20.8456,78.5612,-0.0246578,0.0,0.0
9135,2283.5,30.4995,31.3033,160.674,104.929,104.009,0.00678572,0.131324,20.8489,78.5011,0.0806993,0.0,0.0
9156,2288.75,29.9963,30.9778,156.982,104.91,103.982,0.00698213,0.130181,20.8497,78.4711,0.0813868,0.0,0.0
9177,2294,29.8808,30.9436,158.366,104.839,104.036,0.00705386,0.128895,20.8519,78.381,0.0704688,0.0,0.0
9198,2299.25,29.7046,30.5211,159.019,104.742,104.009,0.0072635,0.127374,20.8539,78.321,0.0643162,0.0,0.0
9219,2304.5,29.4642,30.1951,157.541,104.606,105.035,0.00766452,0.125957,20.8565,78.2609,-0.0375406,0.0,0.0
9240,2309.75,29.0064,30.4341,159.448,104.434,103.492,0.00803542,0.124321,20.8574,78.1808,0.0830952,0.0,0.0
9261,2315,28.2965,29.8917,160.729,104.309,103.286,0.00848121,0.121667,20.862,78.1108,0.0902737,0.0,0.0
9282,2320.25,28.282,29.2574,161.802,104.175,102.733,0.00909332,0.120975,20.863,78.0507,0.127711,0.0,0.0
9303,2325.5,28.5509,29.2375,161.716,104.064,102.528,0.00950028,0.120198,20.865,77.9706,0.136307,0.0,0.0
9324,2330.75,27.7254,29.254,159.802,104.115,102.019,0.00952601,0.118353,20.8677,77.9306,0.186284,0.0,0.0
9345,2336,27.7772,29.107,160.006,104.327,103.92,0.00966068,0.117736,20.87,77.8505,0.0358533,0.0,0.0
9366,2341.25,27.4891,28.7849,155.3,104.459,103.813,0.00988667,0.116727,20.8719,77.7905,0.0569002,0.0,0.0
9387,2346.5,27.2132,28.6688,159.91,104.519,103.715,0.00980728,0.115535,20.8746,77.7204,0.0707864,0.0,0.0
9408,2351.75,27.0328,28.1573,156.706,104.512,103.188,0.00990009,0.114483,20.8752,77.6804,0.116851,0.0,0.0
9429,2357,27.1935,27.9427,161.916,104.404,102.733,0.00958173,0.11457,20.8767,77.6203,0.14784,0.0,0.0
9450,2362.25,27.2383,27.5126,161.897,104.245,103.813,0.00941099,0.114215,20.8789,77.5703,0.0380521,0.0,0.0
9471,2367.5,26.249,26.792,163.736,104.01,103.732,0.00936179,0.113812,20.8793,77.5202,0.0244963,0.0,0.0
9492,2372.75,26.3995,27.2529,155.267,103.67,102.216,0.00975086,0.114191,20.8793,77.4602,0.129459,0.0,0.0
9513,2378,26.1364,26.963,155.522,103.66,102.546,0.00967474,0.113844,20.8781,77.4101,0.0990493,0.0,0.0
9534,2383.25,25.5673,26.3549,159.882,103.748,102.118,0.00933284,0.113338,20.8791,77.3301,0.145171,0.0,0.0
9555,2388.5,26.0978,26.6438,158.972,103.851,103.019,0.00931474,0.112659,20.8799,77.28,0.0737473,0.0,0.0
9576,2393.75,25.4176,26.1448,158.169,103.923,103.536,0.00950244,0.112991,20.8794,77.2099,0.0341339,0.0,0.0
9597,2399,25.5412,26.249,157.564,104.055,103.144,0.00974894,0.113215,20.8787,77.1599,0.0806289,0.0,0.0
9618,2404.25,25.7602,26.4996,160.236,104.154,104.517,0.00944707,0.113194,20.8783,77.1299,-0.0319494,0.0,0.0
9639,2409.5,25.4804,26.8851,163.27,104.231,103.019,0.00930059,0.112087,20.8807,77.0598,0.107214,0.0,0.0
9660,2414.75,25.1459,25.9642,157.666,104.246,103.215,0.00958283,0.11242,20.8809,77.0098,0.0910795,0.0,0.0
9681,2420,25.7939,25.7623,162.029,104.25,103.661,0.00954728,0.112666,20.8823,76.9497,0.0518985,0.0,0.0
9702,2425.25,25.3347,26.0514,158.218,104.186,104.17,0.00929259,0.111803,20.8817,76.8997,0.00148659,0.0,0.0
9723,2430.5,25.39,25.8142,161.32,104.107,103.322,0.00911263,0.11182,20.8814,76.8696,0.0693924,0.0,0.0
9744,2435.75,25.4554,26.0621,156.224,103.971,103.384,0.00915836,0.11178,20.882,76.7996,0.0518007,0.0,0.0
9765,2441,25.4179,25.6111,162.483,103.801,103.34,0.00923629,0.111201,20.883,76.7495,0.0408354,0.0,0.0
9786,2446.25,25.2379,25.8568,160.922,103.617,101.814,0.0093084,0.111263,20.8838,76.6895,0.160824,0.0,0.0
9807,2451.5,24.7832,25.7072,157.28,103.437,102.742,0.00930068,0.110986,20.8825,76.6294,0.0617428,0.0,0.0
9828,2456.75,24.6554,25.504,160.021,103.242,102.778,0.00937437,0.111209,20.8815,76.5794,0.0412998,0.0,0.0
9849,2462,25.2547,25.46,155.885,103.093,102.822,0.00923704,0.110732,20.8814,76.5293,0.0240725,0.0,0.0
9870,2467.25,25.176,25.487,158.879,102.995,102.171,0.00916749,0.110336,20.8834,76.4593,0.0735675,0.0,0.0
9891,2472.5,25.1254,25.8969,157.157,102.927,101.787,,0.111022,,76.4292,0.102024,0.0,0.0
9912,2477.75,25.099,25.5128,157.578,102.925,102.421,,,,76.3592,0.0450236,0.0,0.0
9933,2483,24.3391,25.2453,159.982,102.956,101.582,,,,76.2991,0.12309,0.0,0.0