File: 01_Data/Composite_Deck_Board/Cone/Composite_Deck_Board_Cone_HF25Scan_221209_R3.csv
Names,Time,Stack TC,Smoke TC,Exh Press,Smoke Comp,Smoke Meas,CO Meter,CO2 Meter,O2 Meter,Sample Mass,Ext Coeff,Start Test,Flame Verif
Chan Gain,,500,500,1,1,1,1,1,1,1,1,1.0,1.0
Offset,,0,0,0.136389,0,0,0,0,0,0,0,0.0,0.0
Gain,,1,1,25.011,14.2696,296.664,1,1,1,1.0009,1.04656,1.0,1.0
Units,sec,C,C,Pa,%,%,%,%,%,g,/m,,
Baseline,,15.0973,15.8994,165.536,106.398,106.403,0.00115394,0.0709541,20.9388,-442.873,-0.000423558,,
22,5.25,15.22,15.5657,160.759,106.709,108.198,0.00110286,0.0831949,20.9279,200.8,-0.127201,0.0,0.0
44,10.75,15.194,16.0056,164.223,105.892,107.564,0.00095175,0.08242,20.9299,200.78,-0.143862,0.0,0.0
66,16.25,15.0824,16.1117,170.928,105.093,105.708,0.000905787,0.075375,20.9387,200.77,-0.0535435,0.0,0.0
88,21.75,15.2169,15.5672,163.632,104.992,105.509,0.000882149,0.073487,20.9408,200.77,-0.0450967,0.0,0.0
110,27.25,15.2776,15.9277,166.366,105.557,107.41,0.000864709,0.0731573,20.941,200.76,-0.159758,0.0,0.0
132,32.75,15.2222,16.1997,165.065,106.184,107.528,0.00110356,0.0754436,20.9392,200.78,-0.115473,0.0,0.0
154,38.25,15.6948,16.1668,163.624,106.249,106.93,0.000943099,0.0766836,20.9391,200.77,-0.0586708,0.0,0.0
176,43.75,15.592,16.1066,163.03,105.849,107.329,0.000566526,0.0720735,20.9438,200.74,-0.127451,0.0,0.0
198,49.25,15.7218,15.9928,168.307,106.311,107.528,0.00049093,0.0711926,20.9461,200.72,-0.104524,0.0,0.0
220,54.75,15.6548,16.1953,167.693,106.569,107.437,0.000517504,0.0705781,20.9463,200.72,-0.0744817,0.0,0.0
242,60.25,15.4402,16.4556,164.009,106.294,107.854,0.00105224,0.0693713,20.9468,200.7,-0.133775,0.0,0.0
264,65.75,15.9327,16.4989,160.001,106.885,107.302,0.00120098,0.068655,20.9468,200.67,-0.0357128,0.0,0.0
286,71.25,16.0748,16.2423,163.328,106.925,107.374,0.00131016,0.0684507,20.9468,200.65,-0.038467,0.0,0.0
308,76.75,15.7283,16.719,166.793,106.123,106.251,0.00192239,0.0681688,20.9468,200.6,-0.0110709,0.0,0.0
330,82.25,16.1454,16.7161,165.301,105.209,106.098,0.00158594,0.067845,20.9467,200.61,-0.077215,0.0,0.0
352,87.75,16.116,16.9543,168.572,104.99,105.183,0.00136155,0.0676286,20.9464,200.59,-0.0168843,0.0,0.0
374,93.25,15.6834,16.8276,165.644,105.443,105.446,0.0014708,0.0683778,20.945,200.56,-0.000255541,0.0,0.0
396,98.75,16.2093,17.2926,162.797,106.053,106.767,0.00151668,0.0712243,20.9427,200.55,-0.0616544,0.0,0.0
418,104.25,16.3635,16.9173,164.871,106.315,106.442,0.00167305,0.0720566,20.9421,200.52,-0.0108846,0.0,0.0
440,109.75,16.8559,16.83,170.889,106.191,106.007,0.00146809,0.0718673,20.9416,200.49,0.0159116,0.0,0.0
462,115.25,16.5279,16.9478,167.073,105.874,106.27,0.00151304,0.0717098,20.943,200.45,-0.0342072,0.0,0.0
484,120.75,16.6527,17.1091,165.572,105.662,105.69,0.00147376,0.0712204,20.9434,200.41,-0.00242382,0.0,0.0
506,126.25,16.4507,17.3588,165.873,106.284,105.645,0.00151911,0.0719116,20.9422,200.37,0.0553801,0.0,0.0
528,131.75,16.6041,17.909,166.047,106.564,105.636,0.00148649,0.071785,20.9414,200.319,0.0803589,0.0,0.0
550,137.25,16.8472,17.2944,164.731,106.535,106.125,0.00159189,0.0721814,20.94,200.279,0.035455,0.0,0.0
572,142.75,16.9611,17.5938,164.754,106.208,105.763,0.00178057,0.0724827,20.9391,200.219,0.0386116,0.0,0.0
594,148.25,16.7169,18.1342,163.887,106.202,104.676,0.00179838,0.0720152,20.9416,200.169,0.132835,0.0,0.0
616,153.75,17.0598,17.8474,162.702,106.4,106.052,0.0016125,0.0719835,20.9432,200.129,0.0300451,0.0,0.0
638,159.25,16.7698,18.0121,163.304,106.614,105.228,0.00187014,0.0718676,20.9431,200.069,0.120108,0.0,0.0
660,164.75,17.0094,17.8182,164.955,106.781,104.749,0.00205144,0.0718439,20.9428,200.009,0.176415,0.0,0.0
682,170.25,17.1903,17.6525,163.535,106.907,105.744,0.00200983,0.0727035,20.9428,199.939,0.100399,0.0,0.0
704,175.75,17.8321,18.2941,153.558,106.964,113.204,0.00244533,0.158158,20.8011,199.749,-0.520533,0.0,1.0
726,181.25,21.5771,21.3059,143.074,106.994,111.656,0.00645214,0.433731,20.3156,199.188,-0.391541,0.0,0.0
748,186.75,30.1948,28.5423,119.698,106.966,119.922,0.011904,0.827632,19.7204,198.238,-1.04956,0.0,0.0
770,192.25,42.6768,40.3713,115.53,106.898,119.18,0.0136296,1.0663,19.3942,197.227,-0.998463,0.0,0.0
792,197.75,52.3203,51.2206,120.899,106.763,115.694,0.0136391,1.09159,19.3566,196.236,-0.737568,0.0,0.0
814,203.25,58.8718,59.5497,122.47,106.59,119.243,0.0124094,0.995888,19.5057,195.365,-1.02982,0.0,0.0
836,208.75,63.1291,65.4901,124.679,106.37,116.283,0.011491,0.861453,19.7311,194.564,-0.817983,0.0,0.0
858,214.25,65.3319,68.8946,134.465,106.176,114.834,0.0102208,0.743932,19.9161,193.834,-0.719644,0.0,0.0
880,219.75,65.2641,69.9709,135.632,105.972,115.83,0.00835142,0.643255,20.0808,193.193,-0.816591,0.0,0.0
902,225.25,65.0758,70.6934,143.211,105.767,116.174,0.00740735,0.57938,20.1843,192.593,-0.861566,0.0,0.0
924,230.75,64.2204,70.1982,134.432,105.597,115.341,0.00637589,0.539497,20.2463,192.012,-0.810263,0.0,0.0
946,236.25,62.7277,70.0246,144.183,105.465,113.223,0.00555017,0.507565,20.299,191.452,-0.651593,0.0,0.0
968,241.75,62.6413,69.1694,143.038,105.393,113.503,0.0051707,0.492062,20.3264,190.921,-0.680616,0.0,0.0
990,247.25,62.0337,68.1818,142.343,105.32,113.494,0.00550159,0.47582,20.349,190.401,-0.686182,0.0,0.0
1012,252.75,60.8356,68.3648,139.592,105.291,113.549,0.00520186,0.461381,20.3713,189.89,-0.693119,0.0,0.0
1034,258.25,59.838,67.3369,141.277,105.234,113.684,0.00498497,0.455811,20.3799,189.38,-0.709067,0.0,0.0
1056,263.75,59.0871,66.7637,147.205,105.196,112.362,0.00495943,0.450792,20.3825,188.859,-0.605008,0.0,0.0
1078,269.25,58.0647,65.9998,144.241,105.154,113.032,0.00522916,0.45089,20.3818,188.359,-0.663308,0.0,0.0
1100,274.75,57.8249,65.2809,146.624,105.1,113.974,0.00522016,0.451344,20.3826,187.858,-0.744103,0.0,0.0
1122,280.25,57.6825,64.9473,140.465,105.072,112.906,0.00501266,0.448242,20.3865,187.348,-0.660119,0.0,0.0
1144,285.75,57.3069,64.646,144.397,105.03,114.508,0.00502135,0.444323,20.3933,186.847,-0.793153,0.0,0.0
1166,291.25,56.6161,64.2053,141.799,105.022,113.141,0.00494272,0.436764,20.4049,186.377,-0.683578,0.0,0.0
1188,296.75,56.703,63.5416,136.426,105.021,112.752,0.004588,0.430821,20.414,185.907,-0.652049,0.0,0.0
1210,302.25,55.9062,63.4211,140.973,105.015,114.508,0.00450901,0.424358,20.4252,185.426,-0.794523,0.0,0.0
1232,307.75,55.556,62.466,139.164,105.019,114.246,0.00423852,0.419616,20.4328,184.936,-0.773031,0.0,0.0
1254,313.25,55.0328,61.7559,140.993,105.019,114.834,0.00391767,0.417645,20.4363,184.475,-0.820273,0.0,0.0
1276,318.75,54.8726,61.5796,149.118,105.061,116.093,0.0035763,0.412774,20.445,184.025,-0.916639,0.0,0.0
1298,324.25,54.5416,61.0978,142.161,105.081,114.155,0.00360976,0.405431,20.4535,183.564,-0.760349,0.0,0.0
1320,329.75,53.9887,60.8741,142.851,105.146,114.888,0.00362803,0.40209,20.4595,183.124,-0.813468,0.0,0.0
1342,335.25,54.0347,60.4015,138.625,105.217,114.725,0.0038518,0.39995,20.4638,182.694,-0.79428,0.0,0.0
1364,340.75,53.946,59.8031,149.488,105.307,116.246,0.00387308,0.397924,20.4674,182.243,-0.907289,0.0,0.0
1386,346.25,53.3355,59.6408,147.302,105.436,115.893,0.00367516,0.393348,20.4743,181.803,-0.868132,0.0,0.0
1408,351.75,53.3786,59.5593,141.052,105.588,118.609,0.00341488,0.390017,20.4775,181.383,-1.06761,0.0,0.0
1430,357.25,53.2893,59.2614,146.169,105.748,117.604,0.00343204,0.384852,20.485,180.932,-0.975613,0.0,0.0
1452,362.75,53.2553,58.5787,142.146,105.903,115.939,0.00318443,0.382139,20.4887,180.532,-0.831198,0.0,0.0
1474,368.25,53.0968,58.2233,148.333,106.086,118.709,0.00362912,0.382826,20.4901,180.091,-1.0321,0.0,0.0
1496,373.75,52.8676,58.3272,140.887,106.248,117.623,0.00349046,0.380083,20.4936,179.691,-0.933654,0.0,0.0
1518,379.25,52.6781,57.8477,148.116,106.399,116.835,0.00356309,0.375614,20.5011,179.271,-0.859,0.0,0.0
1540,384.75,52.4976,57.5509,143.972,106.556,118.374,0.00295103,0.373787,20.5031,178.86,-0.965553,0.0,0.0
1562,390.25,52.0661,57.6353,144.238,106.661,118.519,0.00315481,0.373755,20.503,178.44,-0.96778,0.0,0.0
1584,395.75,52.2051,57.3652,147.389,106.761,118.528,0.00307667,0.371172,20.5059,178.04,-0.959864,0.0,0.0
1606,401.25,51.9759,57.6311,142.82,106.832,117.776,0.00323937,0.368791,20.5095,177.639,-0.895377,0.0,0.0
1628,406.75,51.7207,56.6556,148.032,106.899,117.36,0.00327556,0.365198,20.5151,177.239,-0.857133,0.0,0.0
1650,412.25,51.3368,56.5824,142.874,106.937,118.591,0.00346038,0.361612,20.5201,176.818,-0.949618,0.0,0.0
1672,417.75,51.2562,56.1205,149.539,106.966,116.772,0.00332364,0.361871,20.5207,176.448,-0.805153,0.0,0.0
1694,423.25,51.096,56.4917,145.106,106.98,119.949,0.0028663,0.360823,20.5227,176.038,-1.05045,0.0,0.0
1716,428.75,51.1709,56.0948,147.333,106.977,118.392,0.00282082,0.358631,20.5267,175.647,-0.930748,0.0,0.0
1738,434.25,51.3384,55.7331,145.949,107.002,118.03,0.00300131,0.356642,20.5287,175.217,-0.900495,0.0,0.0
1760,439.75,50.7585,55.7085,143.095,106.989,120.755,0.0030066,0.356748,20.5297,174.847,-1.11116,0.0,0.0
1782,445.25,51.1619,55.7077,145.565,106.998,119.931,0.00279011,0.356574,20.5278,174.456,-1.04753,0.0,0.0
1804,450.75,50.8465,55.4465,146.7,106.956,118.981,0.00272448,0.355693,20.5324,174.066,-0.978098,0.0,0.0
1826,456.25,50.9912,55.3916,144.113,106.899,118.048,0.00307669,0.355395,20.5338,173.686,-0.910762,0.0,0.0
1848,461.75,51.0612,55.5953,147.622,106.828,118.274,0.00293876,0.352985,20.5351,173.305,-0.934407,0.0,0.0
1870,467.25,50.7646,55.2848,144.091,106.761,118.917,0.00272531,0.350297,20.5382,172.895,-0.98993,0.0,0.0
1892,472.75,51.1622,54.8235,149.235,106.644,118.51,0.00269557,0.350206,20.5389,172.515,-0.968503,0.0,0.0
1914,478.25,50.8285,54.7011,144.903,106.507,116.735,0.00248191,0.350229,20.5392,172.124,-0.841821,0.0,0.0
1936,483.75,50.5416,54.7657,145.229,106.396,118.003,0.00258424,0.347617,20.5424,171.734,-0.950499,0.0,0.0
1958,489.25,50.5759,54.0404,146.574,106.264,118.827,0.00287222,0.348259,20.5432,171.384,-1.02584,0.0,0.0
1980,494.75,50.7288,55.1487,151.291,106.158,117.84,0.00258982,0.346905,20.5437,170.963,-0.958389,0.0,0.0
2002,500.25,50.4192,55.2008,146.984,106.078,117.396,0.00241464,0.344223,20.5462,170.613,-0.930695,0.0,0.0
2024,505.75,50.464,54.2182,144.882,106.207,118.827,0.00286988,0.343836,20.5461,170.213,-1.03069,0.0,0.0
2046,511.25,49.9808,54.0471,151.338,106.396,117.849,0.0031427,0.343239,20.5478,169.832,-0.938518,0.0,0.0
2068,516.75,50.0915,54.2223,151.703,106.52,119.632,0.00298391,0.342396,20.5487,169.442,-1.06575,0.0,0.0
2090,522.25,50.4841,54.2106,143.738,106.581,118.899,0.0026562,0.340975,20.5541,169.051,-1.00409,0.0,0.0
2112,527.75,50.1119,54.1855,151.438,106.571,117.568,0.00262322,0.341338,20.5531,168.671,-0.901574,0.0,0.0
2134,533.25,50.0927,54.4391,145.488,106.493,117.958,0.00233689,0.339462,20.5556,168.301,-0.93864,0.0,0.0
2156,538.75,50.0979,53.9992,150.934,106.387,117.414,0.00253235,0.339657,20.5554,167.93,-0.90543,0.0,0.0
2178,544.25,50.0387,53.9828,151.839,106.179,119.596,0.00242459,0.338494,20.5585,167.56,-1.09244,0.0,0.0
2200,549.75,50.0219,54.1957,146.088,105.949,116.708,0.00259529,0.33998,20.5569,167.18,-0.887893,0.0,0.0
2222,555.25,49.6027,53.7565,145.269,105.676,116.808,0.00245957,0.337366,20.5598,166.789,-0.919413,0.0,0.0
2244,560.75,50.4768,53.6798,149.119,105.672,116.826,0.0026605,0.337228,20.5598,166.429,-0.921176,0.0,0.0
2266,566.25,50.1856,53.6194,144.381,105.723,117.052,0.00278508,0.341255,20.556,166.069,-0.934519,0.0,0.0
2288,571.75,50.5928,53.9564,146.571,105.815,118.673,0.00256422,0.340175,20.5549,165.678,-1.05281,0.0,0.0
2310,577.25,49.9199,53.8939,148.516,105.932,116.762,0.00236087,0.340514,20.5555,165.268,-0.893674,0.0,0.0
2332,582.75,50.2277,53.75,145.84,106.052,116.889,0.0025771,0.341859,20.5541,164.878,-0.893186,0.0,0.0
2354,588.25,49.8712,53.6222,145.44,106.185,115.911,0.00261934,0.341928,20.553,164.497,-0.804581,0.0,0.0
2376,593.75,50.0035,53.9731,145.714,106.258,117.487,0.00285663,0.341552,20.5518,164.137,-0.922221,0.0,0.0
2398,599.25,50.2001,53.7473,145.478,106.298,116.699,0.0030912,0.340975,20.5529,163.747,-0.857044,0.0,0.0
2420,604.75,50.51,53.6776,149.351,106.291,118.836,0.00294128,0.341998,20.5515,163.346,-1.02413,0.0,0.0
2442,610.25,49.8919,53.6355,143.663,106.261,117.125,0.00267378,0.341353,20.5531,162.966,-0.893616,0.0,0.0
2464,615.75,50.4716,54.3245,145.648,106.244,117.197,0.00270271,0.339087,20.5562,162.606,-0.900759,0.0,0.0
2486,621.25,50.2807,53.9782,142.042,106.185,118.347,0.00248522,0.339657,20.557,162.225,-0.995505,0.0,0.0
2508,626.75,49.7602,53.5953,149.053,106.162,116.093,0.00276005,0.338808,20.5568,161.865,-0.820943,0.0,0.0
2530,632.25,50.1506,53.7054,148.82,106.089,116.88,0.00263005,0.338865,20.5584,161.465,-0.889347,0.0,0.0
2552,637.75,50.3827,53.7837,149.854,106.022,116.581,0.00273551,0.337904,20.5619,161.064,-0.87158,0.0,0.0
2574,643.25,50.455,54.0284,147.583,105.932,117.17,0.00236989,0.338533,20.5625,160.684,-0.92565,0.0,0.0
2596,648.75,51.0034,53.1747,144.025,105.788,117.559,0.0024686,0.336528,20.5646,160.304,-0.968526,0.0,0.0
2618,654.25,50.5682,54.3079,146.306,105.626,117.614,0.00246639,0.334665,20.5681,159.913,-0.986836,0.0,0.0
2640,659.75,50.3986,53.6889,145.074,105.421,117.55,0.00231079,0.333627,20.5691,159.543,-0.999769,0.0,0.0
2662,665.25,49.5334,54.1806,149.176,105.252,116.011,0.00241675,0.335289,20.5663,159.153,-0.893541,0.0,0.0
2684,670.75,50.2919,53.5306,151.115,105.095,115.984,0.00234338,0.33635,20.5642,158.792,-0.905037,0.0,0.0
2706,676.25,50.5303,54.2111,145.606,104.974,116.265,0.00232166,0.339039,20.5599,158.372,-0.937844,0.0,0.0
2728,681.75,50.3414,54.195,144.066,104.934,117.342,0.00228539,0.34272,20.5539,158.002,-1.02599,0.0,0.0
2750,687.25,50.8491,53.727,145.117,104.995,116.174,0.00244168,0.344653,20.5485,157.621,-0.928789,0.0,0.0
2772,692.75,50.1201,53.9574,147.842,105.19,117.324,0.00263976,0.345943,20.5477,157.221,-1.00223,0.0,0.0
2794,698.25,51.1262,54.0142,147.978,105.444,117.088,0.00277626,0.347537,20.5444,156.841,-0.961667,0.0,0.0
2816,703.75,50.6523,53.9332,142.79,105.753,118.8,0.00230842,0.349203,20.543,156.46,-1.06798,0.0,0.0
2838,709.25,50.8397,54.0522,142.153,106.107,119.343,0.00254734,0.349182,20.5421,156.02,-1.07914,0.0,0.0
2860,714.75,51.481,54.6882,142.262,106.442,118.691,0.00272223,0.3492,20.5423,155.679,-0.999929,0.0,0.0
2882,720.25,51.0213,54.3098,142.665,106.724,119.017,0.00271491,0.350943,20.5403,155.269,-1.0008,0.0,0.0
2904,725.75,50.9186,54.5039,148.168,106.882,118.03,0.00286768,0.352361,20.5384,154.849,-0.910849,0.0,0.0
2926,731.25,51.3262,54.9759,147.027,107,119.841,0.00241832,0.352,20.5394,154.468,-1.04048,0.0,0.0
2948,736.75,51.431,55.1084,141.759,106.975,121.045,0.00234684,0.352494,20.5395,154.078,-1.13436,0.0,0.0
2970,742.25,51.5286,55.029,147.509,106.875,119.515,0.00245913,0.352649,20.5381,153.668,-1.02614,0.0,0.0
2992,747.75,51.8378,54.8646,148.674,106.686,118.8,0.00253654,0.355712,20.5364,153.277,-0.987283,0.0,0.0
3014,753.25,51.7923,55.2611,146.237,106.469,120.483,0.003014,0.359349,20.5334,152.857,-1.13522,0.0,0.0
3036,758.75,51.9867,55.8059,148.312,106.256,118.093,0.00307139,0.360169,20.5323,152.447,-0.969685,0.0,0.0
3058,764.25,52.5423,55.5075,143.235,106.085,118.99,0.00283958,0.359683,20.5324,152.056,-1.0539,0.0,0.0
3080,769.75,52.0655,55.9344,145.895,106.352,119.75,0.00300421,0.360511,20.5314,151.636,-1.08927,0.0,0.0
3102,775.25,52.2621,55.6682,144.853,106.55,120.085,0.00283418,0.360264,20.5332,151.225,-1.09783,0.0,0.0
3124,780.75,52.5028,56.3122,143.138,106.606,118.863,0.00271472,0.360397,20.531,150.805,-0.999076,0.0,0.0
3146,786.25,52.5571,55.8652,138.496,106.507,118.564,0.0025433,0.361806,20.5292,150.405,-0.984527,0.0,0.0
3168,791.75,53.1925,55.7796,149.176,106.257,117.55,0.00242072,0.362134,20.5284,149.994,-0.927209,0.0,0.0
3190,797.25,52.5206,55.6121,145.833,105.907,117.767,0.00250147,0.363406,20.5255,149.584,-0.9745,0.0,0.0
3212,802.75,52.6933,56.489,144.133,105.664,117.813,0.00271065,0.36099,20.5287,149.174,-0.999077,0.0,0.0
3234,808.25,52.8672,56.8024,147.834,105.758,120.203,0.00269994,0.362856,20.5257,148.763,-1.17529,0.0,0.0
3256,813.75,53.0212,56.1311,138.292,105.858,119.451,0.00266375,0.361492,20.5269,148.353,-1.10907,0.0,0.0
3278,819.25,53.1084,56.4554,145.427,105.958,117.867,0.00291364,0.363525,20.5265,147.943,-0.977806,0.0,0.0
3300,824.75,53.2653,56.5283,145.898,106.033,117.514,0.00264353,0.363641,20.5252,147.522,-0.943815,0.0,0.0
3322,830.25,52.9831,57.0491,140.907,106.122,119.406,0.00251925,0.363865,20.5234,147.132,-1.08277,0.0,0.0
3344,835.75,53.2928,56.8429,144.956,106.21,119.352,0.0024541,0.363156,20.5239,146.701,-1.07091,0.0,0.0
3366,841.25,53.1376,57.019,143.201,106.246,119.017,0.00254391,0.365239,20.5234,146.271,-1.04206,0.0,0.0
3388,846.75,52.9597,57.1225,142.613,106.296,118.962,0.00238558,0.36433,20.5247,145.861,-1.0335,0.0,0.0
3410,852.25,53.6554,57.1372,148.506,106.274,119.651,0.00241222,0.36781,20.5214,145.44,-1.0884,0.0,0.0
3432,857.75,53.2038,56.6012,147.889,106.242,117.722,0.00281095,0.367579,20.5196,145.04,-0.94195,0.0,0.0
3454,863.25,53.8124,56.8474,148.622,106.171,117.958,0.00291118,0.367285,20.5197,144.59,-0.966424,0.0,0.0
3476,868.75,53.8437,57.2544,139.268,106.061,120.683,0.00270873,0.366111,20.5229,144.199,-1.18567,0.0,0.0
3498,874.25,53.8709,57.1669,148.168,105.918,118.256,0.00273204,0.367828,20.5198,143.779,-1.01159,0.0,0.0
3520,879.75,53.9942,57.2649,141.85,105.718,121.588,0.00274553,0.365386,20.5215,143.358,-1.28395,0.0,0.0
3542,885.25,54.0658,57.3066,139.266,105.507,117.469,0.00249013,0.366208,20.5215,142.938,-0.985937,0.0,0.0
3564,890.75,54.014,57.1724,146.081,105.287,119.234,0.00240408,0.368404,20.5184,142.538,-1.142,0.0,0.0
3586,896.25,53.716,57.6225,142.232,105.103,116.898,0.00260889,0.367566,20.518,142.097,-0.976483,0.0,0.0
3608,901.75,54.0672,57.1843,143.067,104.949,117.704,0.00286228,0.368185,20.5184,141.717,-1.05294,0.0,0.0
3630,907.25,53.9183,57.8484,142.419,104.894,116.88,0.00281687,0.366922,20.5179,141.287,-0.9933,0.0,0.0
3652,912.75,54.408,57.3761,142.338,104.953,117.487,0.00263927,0.364045,20.5229,140.866,-1.03568,0.0,0.0
3674,918.25,53.6873,57.8428,141.805,105.075,120.176,0.00252059,0.364145,20.5225,140.466,-1.23276,0.0,0.0
3696,923.75,54.1266,57.2642,144.722,105.297,118.084,0.00245598,0.362752,20.5254,140.045,-1.05221,0.0,0.0
3718,929.25,54.0312,57.5796,140.877,105.527,119.125,0.00246441,0.36287,20.5268,139.655,-1.11273,0.0,0.0
3740,934.75,54.2163,57.9855,144.632,105.773,119.515,0.00245532,0.361793,20.5275,139.225,-1.12134,0.0,0.0
3762,940.25,53.8139,57.8826,141.971,106.018,118.709,0.00283874,0.364128,20.5244,138.804,-1.03798,0.0,0.0
3784,945.75,54.3659,57.8212,143.037,106.262,119.995,0.0027488,0.365448,20.5223,138.394,-1.11578,0.0,0.0
3806,951.25,54.2478,57.6547,141.304,106.49,119.307,0.00284697,0.364488,20.5242,138.004,-1.04333,0.0,0.0
3828,956.75,54.2812,57.8704,140.736,106.629,121.244,0.00258776,0.36468,20.5222,137.583,-1.17917,0.0,0.0
3850,962.25,53.873,56.925,144.035,106.784,122.692,0.00270729,0.364564,20.5219,137.173,-1.27487,0.0,0.0
3872,967.75,54.5197,58.0173,145.131,106.89,120.619,0.00292469,0.36465,20.5219,136.753,-1.10936,0.0,0.0
3894,973.25,54.5131,57.6623,144.19,106.97,120.574,0.0031467,0.365591,20.5201,136.352,-1.09899,0.0,0.0
3916,978.75,54.6111,58.2928,143.923,107.004,120.42,0.00291579,0.364518,20.5227,135.942,-1.08435,0.0,0.0
3938,984.25,54.8825,57.9222,146.452,106.972,121.117,0.00258057,0.363685,20.5253,135.521,-1.14015,0.0,0.0
3960,989.75,54.5229,57.8825,146.867,106.921,119.252,0.00243822,0.362586,20.5266,135.131,-1.00202,0.0,0.0
3982,995.25,54.1659,58.0483,143.919,106.822,121.172,0.00251479,0.362729,20.5246,134.721,-1.15709,0.0,0.0
4004,1000.75,54.3528,57.7859,144.871,106.723,121.344,0.00258867,0.361022,20.5281,134.3,-1.17869,0.0,0.0
4026,1006.25,53.623,58.3609,140.646,106.608,121.814,0.00248707,0.362368,20.5275,133.89,-1.22409,0.0,0.0
4048,1011.75,54.1656,58.013,138.11,106.464,118.972,0.00253365,0.363979,20.5264,133.49,-1.0197,0.0,0.0
4070,1017.25,54.2688,58.1451,142.79,106.322,120.538,0.00275667,0.362399,20.5266,133.079,-1.15209,0.0,0.0
4092,1022.75,54.4192,57.9156,143.154,106.19,119.497,0.00280858,0.363584,20.524,132.669,-1.08381,0.0,0.0
4114,1028.25,54.3966,58.1669,138.565,106.102,120.502,0.00297908,0.364638,20.5204,132.258,-1.16834,0.0,0.0
4136,1033.75,54.4157,58.2856,142.522,106.239,119.995,0.0027322,0.363678,20.5212,131.848,-1.11773,0.0,0.0
4158,1039.25,54.7227,58.5749,140.323,106.464,121.534,0.00285208,0.363762,20.5205,131.448,-1.21534,0.0,0.0
4180,1044.75,54.5502,57.7887,145.244,106.578,120.293,0.002748,0.36284,20.5206,131.057,-1.11137,0.0,0.0
4202,1050.25,54.4781,58.0644,141.351,106.618,121.199,0.00276656,0.362662,20.5212,130.657,-1.17668,0.0,0.0
4224,1055.75,54.7433,58.5086,142.076,106.605,119.651,0.00279186,0.358814,20.5281,130.227,-1.05982,0.0,0.0
4246,1061.25,54.8304,58.5442,144.641,106.565,120.339,0.00264691,0.35893,20.528,129.826,-1.11588,0.0,0.0
4268,1066.75,54.2737,57.8865,147.958,106.543,118.926,0.00304006,0.359572,20.5271,129.466,-1.00945,0.0,0.0
4290,1072.25,54.512,58.0904,140.933,106.53,119.641,0.00281873,0.359392,20.528,129.056,-1.06558,0.0,0.0
4312,1077.75,54.8048,58.3774,146.865,106.542,120.447,0.00254649,0.356546,20.5329,128.675,-1.12619,0.0,0.0
4334,1083.25,54.3649,58.4252,140.34,106.568,120.393,0.00245457,0.354167,20.5372,128.265,-1.11979,0.0,0.0
4356,1088.75,54.7365,58.5372,146.107,106.602,119.415,0.00249349,0.35441,20.5361,127.865,-1.04201,0.0,0.0
4378,1094.25,54.9543,58.3854,140.558,106.625,119.913,0.00225821,0.35305,20.5383,127.504,-1.07818,0.0,0.0
4400,1099.75,54.4024,58.0635,143.804,106.58,120.483,0.0025938,0.352455,20.5403,127.104,-1.12568,0.0,0.0
4422,1105.25,54.54,58.341,139.038,106.458,121.506,0.00279562,0.353351,20.5377,126.704,-1.21378,0.0,0.0
4444,1110.75,55.1831,58.3974,143.204,106.202,121.733,0.00289449,0.351844,20.539,126.303,-1.25301,0.0,0.0
4466,1116.25,55.0478,58.1828,143.691,106.158,119.524,0.00259729,0.351453,20.542,125.953,-1.08869,0.0,0.0
4488,1121.75,54.8744,58.2847,144.089,106.347,121.199,0.00250153,0.348792,20.5445,125.573,-1.20007,0.0,0.0
4510,1127.25,54.8943,58.3121,142.228,106.602,122.276,0.00257917,0.351826,20.5407,125.172,-1.25939,0.0,0.0
4532,1132.75,55.2041,58.542,147.69,106.822,121.814,0.00254958,0.351224,20.5413,124.782,-1.20566,0.0,0.0
4554,1138.25,55.3005,58.3793,145.746,106.964,121.47,0.00267965,0.348785,20.5434,124.421,-1.16751,0.0,0.0
4576,1143.75,54.9786,58.203,145.584,106.977,121.054,0.00255832,0.348947,20.5417,124.031,-1.13486,0.0,0.0
4598,1149.25,55.22,58.2518,148.748,106.762,122.991,0.0025052,0.346832,20.543,123.641,-1.2991,0.0,0.0
4620,1154.75,55.1415,58.519,144.424,106.355,122.765,0.00279341,0.346445,20.5443,123.25,-1.31727,0.0,0.0
4642,1160.25,55.2788,58.3441,146.81,105.826,121.126,0.00270026,0.345463,20.5443,122.94,-1.23973,0.0,0.0
4664,1165.75,55.0824,58.6278,146.277,105.315,118.691,0.00282729,0.343678,20.5512,122.54,-1.09769,0.0,0.0
4686,1171.25,54.4471,58.5053,144.546,104.979,119.297,0.0027033,0.342217,20.5529,122.169,-1.17384,0.0,0.0
4708,1176.75,54.8622,58.3769,146.059,104.927,119.207,0.00261876,0.343353,20.5508,121.769,-1.1714,0.0,0.0
4730,1182.25,55.1095,58.0208,146.117,105.174,120.221,0.00247402,0.343044,20.5507,121.379,-1.22754,0.0,0.0
4752,1187.75,54.9109,58.314,149.49,105.586,119.062,0.00245812,0.341118,20.5511,121.028,-1.10277,0.0,0.0
4774,1193.25,54.4081,58.5138,143.629,105.976,120.375,0.00230987,0.339745,20.5525,120.658,-1.16957,0.0,0.0
4796,1198.75,55.0036,58.2738,146.959,106.236,121.226,0.00244475,0.340557,20.5515,120.318,-1.21176,0.0,0.0
4818,1204.25,54.5221,57.7459,146.962,106.275,121.316,0.00283605,0.339798,20.5523,119.927,-1.21519,0.0,0.0
4840,1209.75,54.4799,57.9347,144.378,106.094,121.153,0.00278928,0.338244,20.5566,119.587,-1.21855,0.0,0.0
4862,1215.25,54.4609,58.0057,145.501,105.839,120.882,0.00264513,0.335838,20.5609,119.227,-1.22005,0.0,0.0
4884,1220.75,54.3599,57.6665,145.784,105.794,122.195,0.00272591,0.335362,20.5618,118.867,-1.32306,0.0,0.0
4906,1226.25,54.7248,57.6454,143.605,106.492,121.009,0.00241762,0.335162,20.5624,118.506,-1.17319,0.0,0.0
4928,1231.75,54.7031,57.338,143.303,106.586,121.398,0.00222975,0.33443,20.563,118.156,-1.19457,0.0,0.0
4950,1237.25,53.7448,57.6249,144.301,106.08,119.804,0.00233139,0.331905,20.566,117.796,-1.11696,0.0,0.0
4972,1242.75,54.1997,57.1681,148.927,106.418,120.827,0.00225704,0.332527,20.565,117.445,-1.16579,0.0,0.0
4994,1248.25,53.8706,57.1723,143.644,106.831,120.628,0.00252395,0.329799,20.569,117.095,-1.11506,0.0,0.0
5016,1253.75,54.0056,57.0465,145.668,106.986,121.172,0.00256965,0.327709,20.5704,116.735,-1.14307,0.0,0.0
5038,1259.25,53.7269,56.8991,149.174,106.734,120.375,0.00256576,0.329162,20.5696,116.414,-1.10413,0.0,0.0
5060,1264.75,53.4652,56.7173,148.607,106.078,119.986,0.00252057,0.327815,20.5698,116.044,-1.13101,0.0,0.0
5082,1270.25,53.4364,56.7473,150.97,105.38,119.107,0.00251137,0.330107,20.5672,115.724,-1.12411,0.0,0.0
5104,1275.75,53.8732,56.6639,143.71,104.952,119.795,0.00221101,0.328588,20.5684,115.393,-1.21444,0.0,0.0
5126,1281.25,53.245,56.9036,145.22,105.109,118.075,0.00221001,0.32881,20.5664,115.033,-1.06788,0.0,0.0
5148,1286.75,53.4901,57.2696,143.08,105.679,119.234,0.00249323,0.32743,20.5694,114.723,-1.10793,0.0,0.0
5170,1292.25,54.0149,57.2603,147.575,106.192,120.864,0.00233127,0.325918,20.5713,114.362,-1.18809,0.0,0.0
5192,1297.75,53.4734,56.3073,148.745,106.26,117.532,0.00229182,0.324151,20.5735,114.032,-0.925607,0.0,0.0
5214,1303.25,53.539,56.7807,144.974,105.88,119.288,0.00239943,0.321997,20.5776,113.702,-1.09461,0.0,0.0
5236,1308.75,53.4189,56.5271,144.955,105.899,119.207,0.00232542,0.320911,20.5801,113.372,-1.08671,0.0,0.0
5258,1314.25,53.009,56.6304,145.567,106.57,120.837,0.00208462,0.320419,20.5817,113.071,-1.15341,0.0,0.0
5280,1319.75,52.7579,56.5263,142.664,106.223,120.511,0.00234745,0.318941,20.5838,112.751,-1.15852,0.0,0.0
5302,1325.25,52.7671,56.5139,144.54,106.45,121.516,0.0024946,0.317566,20.5821,112.441,-1.21514,0.0,0.0
5324,1330.75,52.4771,55.9476,143.494,106.925,121.298,0.0024469,0.317798,20.5804,112.08,-1.15782,0.0,0.0
5346,1336.25,52.845,55.7109,140.587,106.831,119.705,0.00260996,0.315706,20.5823,111.8,-1.04455,0.0,0.0
5368,1341.75,53.1831,56.2695,146.416,106.068,119.587,0.00240135,0.315925,20.5825,111.46,-1.10135,0.0,0.0
5390,1347.25,53.3315,56.2411,143.712,105.216,118.845,0.0024881,0.312942,20.5869,111.16,-1.11817,0.0,0.0
5412,1352.75,52.8852,55.804,148.826,104.998,116.59,0.00247858,0.311594,20.5896,110.859,-0.961449,0.0,0.0
5434,1358.25,53.0949,56.0637,140.986,105.446,117.84,0.00251174,0.309792,20.5912,110.539,-1.02017,0.0,0.0
5456,1363.75,53.0313,55.8292,147.692,106.056,118.274,0.00233702,0.307007,20.5943,110.239,-1.001,0.0,0.0
5478,1369.25,52.6345,55.536,141.949,106.293,118.962,0.00229072,0.307045,20.5965,109.938,-1.0338,0.0,0.0
5500,1374.75,52.1084,55.7316,144.624,106.17,117.958,0.00236987,0.306343,20.5972,109.608,-0.966499,0.0,0.0
5522,1380.25,52.4077,55.7971,146.594,105.821,116.31,0.00233541,0.305072,20.5999,109.338,-0.867643,0.0,0.0
5544,1385.75,51.7054,55.2542,149.438,105.657,116.545,0.00225643,0.30408,20.5999,109.038,-0.90042,0.0,0.0
5566,1391.25,52.4581,55.4987,143.255,106.301,117.958,0.00229411,0.302638,20.6009,108.737,-0.955172,0.0,0.0
5588,1396.75,52.0405,55.1319,148.242,106.536,117.967,0.00223683,0.299734,20.6047,108.447,-0.935667,0.0,0.0
5610,1402.25,51.7956,55.2279,151.465,106.438,117.876,0.00226922,0.299288,20.606,108.147,-0.937064,0.0,0.0
5632,1407.75,51.3349,54.7501,145.708,106.082,118.166,0.00245519,0.300368,20.6052,107.867,-0.9903,0.0,0.0
5654,1413.25,50.7434,54.0833,154.649,106.192,116.156,0.00217897,0.298576,20.6077,107.566,-0.823356,0.0,0.0
5676,1418.75,51.3029,54.488,145.814,106.421,117.822,0.00227627,0.297612,20.6086,107.286,-0.93426,0.0,0.0
5698,1424.25,50.936,54.3169,145.734,106.631,117.46,0.00261074,0.29699,20.6098,106.986,-0.887911,0.0,0.0
5720,1429.75,51.2065,53.9691,148.226,106.779,119.596,0.00246841,0.297294,20.6076,106.706,-1.04067,0.0,0.0
5742,1435.25,51.259,53.7293,150.02,106.811,118.22,0.00242453,0.296645,20.6073,106.435,-0.931649,0.0,0.0
5764,1440.75,51.2158,53.5903,148.147,106.892,118.501,0.00227722,0.297255,20.6058,106.145,-0.946534,0.0,0.0
5786,1446.25,50.4734,53.778,149.382,106.936,118.546,0.00225186,0.296318,20.6063,105.875,-0.946189,0.0,0.0
5808,1451.75,50.8823,53.8844,147.191,106.99,116.69,0.00209974,0.295176,20.6089,105.595,-0.796764,0.0,0.0
5830,1457.25,50.9064,53.6917,148.801,106.997,116.12,0.00223993,0.293159,20.6099,105.324,-0.751109,0.0,0.0
5852,1462.75,50.1159,53.7092,148.899,107.001,117.007,0.00225215,0.292194,20.6103,105.034,-0.820688,0.0,0.0
5874,1468.25,50.0629,53.3202,147.376,107.026,117.822,0.0022391,0.291894,20.6102,104.754,-0.882229,0.0,0.0
5896,1473.75,50.2156,53.0297,149.271,107.015,116.283,0.00200117,0.29201,20.6108,104.494,-0.762452,0.0,0.0
5918,1479.25,50.1702,52.946,146.357,106.979,117.17,0.00217034,0.289483,20.6133,104.243,-0.835297,0.0,0.0
5940,1484.75,50.3272,53.1282,148.884,106.931,115.278,0.00219005,0.290183,20.6126,103.973,-0.689982,0.0,0.0
5962,1490.25,50.009,52.9462,150.405,106.855,116.464,0.00235652,0.289244,20.6151,103.703,-0.790494,0.0,0.0
5984,1495.75,49.8476,53.1319,147.504,106.759,117.025,0.00242135,0.288049,20.6182,103.453,-0.842906,0.0,0.0
6006,1501.25,49.3028,52.8654,146.403,106.642,116.464,0.00238794,0.286518,20.6181,103.182,-0.808807,0.0,0.0
6028,1506.75,49.5739,52.4041,147.409,106.492,116.129,0.00229574,0.28644,20.6157,102.942,-0.795307,0.0,0.0
6050,1512.25,49.5907,52.4014,140.843,106.356,115.812,0.00225081,0.28469,20.6193,102.682,-0.781943,0.0,0.0
6072,1517.75,49.5308,52.1113,146.227,106.22,115.839,0.00226511,0.284472,20.6212,102.462,-0.795831,0.0,0.0
6094,1523.25,49.4759,52.1485,154.939,106.076,115.006,0.00216071,0.280971,20.6255,102.202,-0.742049,0.0,0.0
6116,1528.75,48.8993,51.7323,151.219,105.952,113.558,0.0021163,0.279507,20.6281,101.911,-0.636394,0.0,0.0
6138,1534.25,49.1263,51.9114,147.35,105.815,114.599,0.00224587,0.280537,20.6258,101.701,-0.732111,0.0,0.0
6160,1539.75,48.5489,51.6274,150.811,105.703,115.604,0.00216508,0.278728,20.6265,101.441,-0.821941,0.0,0.0
6182,1545.25,48.4935,51.4495,147.132,105.653,114.418,0.0022226,0.278036,20.6259,101.231,-0.73166,0.0,0.0
6204,1550.75,48.7874,50.5553,148.141,105.56,113.911,0.00223606,0.277057,20.6273,100.98,-0.698954,0.0,0.0
6226,1556.25,48.246,51.189,149.062,105.516,114.662,0.00223051,0.276916,20.6281,100.72,-0.763141,0.0,0.0
6248,1561.75,48.5238,51.1301,145.907,105.434,113.159,0.00207444,0.274433,20.63,100.51,-0.649107,0.0,0.0
6270,1567.25,48.3241,50.3752,144.844,105.377,114.599,0.00212341,0.27436,20.6299,100.26,-0.770122,0.0,0.0
6292,1572.75,48.4604,51.1183,148.234,105.32,114.454,0.00220062,0.273057,20.6326,100.04,-0.763481,0.0,0.0
6314,1578.25,48.1622,50.2132,152.78,105.274,114.282,0.00228698,0.271829,20.6358,99.8194,-0.753736,0.0,0.0
6336,1583.75,47.5,50.5398,145.132,105.229,113.25,0.00213725,0.270709,20.6368,99.5892,-0.674363,0.0,0.0
6358,1589.25,47.7959,50.1311,151.691,105.191,113.241,0.00218297,0.269136,20.6397,99.379,-0.676935,0.0,0.0
6380,1594.75,47.9474,50.534,153.111,105.184,113.313,0.00232128,0.267022,20.6405,99.1488,-0.683375,0.0,0.0
6402,1600.25,47.6806,49.9927,145.817,105.188,113.965,0.00216011,0.26601,20.6389,98.9387,-0.735693,0.0,0.0
6424,1605.75,47.8782,50.5506,149.675,105.184,113.594,0.00218341,0.264628,20.6401,98.7385,-0.706161,0.0,0.0
6446,1611.25,47.431,49.7094,147.429,105.173,113.838,0.00224883,0.265155,20.6396,98.5283,-0.726846,0.0,0.0
6468,1616.75,47.5448,49.517,151.754,105.155,112.815,0.00222736,0.262831,20.6444,98.3281,-0.645492,0.0,0.0
6490,1622.25,46.3221,49.1433,151.263,105.161,113.965,0.00203632,0.261841,20.6459,98.0979,-0.738087,0.0,0.0
6512,1627.75,46.8582,49.355,146.792,105.156,113.567,0.00183983,0.260798,20.6461,97.8877,-0.706399,0.0,0.0
6534,1633.25,46.8671,49.3578,150.162,105.181,111.738,0.00228222,0.25937,20.6496,97.6975,-0.555195,0.0,0.0
6556,1638.75,46.3632,49.0014,148.637,105.207,112.707,0.00245004,0.257964,20.6514,97.5074,-0.632161,0.0,0.0
6578,1644.25,46.5385,49.2534,149.919,105.233,112.942,0.00255044,0.25482,20.6558,97.3072,-0.649035,0.0,0.0
6600,1649.75,46.2997,48.3505,146.372,105.27,113.594,0.00234064,0.253556,20.6588,97.097,-0.6986,0.0,0.0
6622,1655.25,46.33,48.4694,148.031,105.322,113.105,0.00218507,0.254274,20.6581,96.8968,-0.654487,0.0,0.0
6644,1660.75,46.2662,49.0732,152.114,105.397,112.507,0.00207261,0.252507,20.6592,96.7066,-0.599332,0.0,0.0
6666,1666.25,46.3494,48.5865,150.195,105.46,112.082,0.00199938,0.250997,20.6623,96.5265,-0.559085,0.0,0.0
6688,1671.75,45.6233,48.6416,148.177,105.525,112.571,0.00219919,0.249214,20.6611,96.3463,-0.593357,0.0,0.0
6710,1677.25,45.4954,47.9441,150.657,105.58,112.381,0.00194883,0.249217,20.6625,96.1662,-0.573029,0.0,0.0
6732,1682.75,45.7148,47.475,145.38,105.62,112.96,0.00215171,0.246798,20.6665,95.986,-0.616795,0.0,0.0
6754,1688.25,45.0974,47.8313,147.504,105.692,113.929,0.00213294,0.245549,20.6681,95.8159,-0.688906,0.0,0.0
6776,1693.75,45.3494,47.3896,149.912,105.79,113.757,0.00215984,0.244395,20.6702,95.6257,-0.666567,0.0,0.0
6798,1699.25,44.7512,47.3625,149.219,105.935,112.634,0.00243781,0.24418,20.6708,95.4355,-0.562906,0.0,0.0
6820,1704.75,45.394,47.3754,146.366,106.059,113.693,0.00221576,0.242745,20.6722,95.2453,-0.638126,0.0,0.0
6842,1710.25,44.9193,46.9975,151.471,106.208,113.567,0.00213734,0.240555,20.6754,95.0952,-0.614966,0.0,0.0
6864,1715.75,44.5895,46.6991,153.017,106.351,113.032,0.00233244,0.238776,20.6791,94.9351,-0.559385,0.0,0.0
6886,1721.25,44.2989,46.4909,149.383,106.504,112.679,0.00255599,0.237747,20.6808,94.7649,-0.517478,0.0,0.0
6908,1726.75,44.0276,46.5318,148.687,106.643,113.874,0.00207545,0.236994,20.681,94.5948,-0.602326,0.0,0.0
6930,1732.25,44.1398,46.5321,149.232,106.747,113.105,0.00215491,0.236097,20.681,94.4346,-0.531122,0.0,0.0
6952,1737.75,44.106,46.2019,154.883,106.841,112.625,0.00206583,0.235323,20.682,94.2544,-0.484007,0.0,0.0
6974,1743.25,44.0397,46.0957,154.386,106.921,112.417,0.00211497,0.233744,20.6848,94.1143,-0.460173,0.0,0.0
6996,1748.75,44.2554,46.2695,149.688,106.979,113.413,0.00208467,0.232284,20.6868,93.9442,-0.53617,0.0,0.0
7018,1754.25,43.8466,45.916,152.448,107.004,114.209,0.00211813,0.231448,20.689,93.804,-0.59823,0.0,0.0
7040,1759.75,43.546,45.5015,150.518,107.02,113.295,0.00237613,0.232173,20.69,93.6439,-0.523051,0.0,0.0
7062,1765.25,43.2478,45.094,150.104,107.036,114.716,0.00230415,0.229786,20.6917,93.4738,-0.636203,0.0,0.0
7084,1770.75,43.2231,45.1883,151.972,107.02,113.132,0.00238093,0.229466,20.6924,93.3136,-0.509912,0.0,0.0
7106,1776.25,42.9231,45.0744,148.658,107.028,114.662,0.00218144,0.227973,20.6943,93.1635,-0.63249,0.0,0.0
7128,1781.75,43.0238,44.9954,153.133,106.99,112.172,0.00206693,0.227576,20.6947,93.0133,-0.434246,0.0,0.0
7150,1787.25,42.7463,44.9186,148.953,106.935,113.902,0.00198055,0.22661,20.6977,92.8732,-0.579396,0.0,0.0
7172,1792.75,42.6587,44.4791,152.708,106.831,112.48,0.00200517,0.226745,20.6964,92.7231,-0.473053,0.0,0.0
7194,1798.25,42.8658,44.4875,145.903,106.697,112.498,0.00211241,0.226742,20.6969,92.5729,-0.486026,0.0,0.0
7216,1803.75,43.0229,44.0225,151.312,106.561,113.603,0.00223175,0.225957,20.6984,92.4228,-0.587455,0.0,0.0
7238,1809.25,42.5971,44.406,150.183,106.407,112.462,0.00254772,0.22628,20.6968,92.2727,-0.508096,0.0,0.0
7260,1814.75,41.9899,44.2627,149.709,106.293,112.652,0.00236076,0.224462,20.6999,92.1225,-0.533413,0.0,0.0
7282,1820.25,41.7918,44.1005,151.007,106.173,111.131,0.00222855,0.223462,20.7002,91.9724,-0.418969,0.0,0.0
7304,1825.75,41.8991,43.9002,151.149,106.112,113.204,0.00213901,0.223667,20.7017,91.8223,-0.59393,0.0,0.0
7326,1831.25,42.1118,43.9379,151.972,106.288,112.507,0.00221731,0.222785,20.7014,91.6821,-0.522015,0.0,0.0
7348,1836.75,41.7283,43.4075,153.027,106.425,112.525,0.00230345,0.222267,20.7018,91.532,-0.51169,0.0,0.0
7370,1842.25,41.7011,43.6451,147.12,106.546,113.947,0.002313,0.221926,20.7031,91.3919,-0.616528,0.0,0.0
7392,1847.75,41.5099,43.6443,158.825,106.599,113.087,0.0022684,0.220745,20.7032,91.2618,-0.542356,0.0,0.0
7414,1853.25,41.3812,43.3819,149.418,106.581,111.828,0.00223527,0.219917,20.7047,91.1116,-0.4412,0.0,0.0
7436,1858.75,41.7059,43.5668,154.851,106.445,112.181,0.00227246,0.220061,20.7052,90.9715,-0.481851,0.0,0.0
7458,1864.25,41.5203,43.5047,150.613,106.172,113.042,0.00228026,0.220005,20.7048,90.8214,-0.575545,0.0,0.0
7480,1869.75,41.4565,43.7603,152.774,105.811,112.833,0.00208814,0.219608,20.7056,90.6712,-0.589887,0.0,0.0
7502,1875.25,41.1554,42.8849,156.097,105.744,111.729,0.00200875,0.217738,20.7085,90.5211,-0.505399,0.0,0.0
7524,1880.75,41.5729,43.1681,151.279,105.854,111.014,0.00205507,0.217123,20.71,90.401,-0.436883,0.0,0.0
7546,1886.25,40.9397,42.9931,149.909,105.961,111.629,0.00224352,0.216488,20.7118,90.2509,-0.478367,0.0,0.0
7568,1891.75,40.5846,42.9585,151.859,106.156,112.028,0.00265487,0.216456,20.7125,90.1208,-0.494257,0.0,0.0
7590,1897.25,40.4446,42.5269,152.44,106.289,111.312,0.00244125,0.214856,20.7144,89.9706,-0.423942,0.0,0.0
7612,1902.75,40.3637,42.1102,151.157,106.362,110.507,0.00238898,0.213951,20.7168,89.8705,-0.350892,0.0,0.0
7634,1908.25,40.7517,42.4222,149.719,106.377,111.656,0.00240819,0.214291,20.7161,89.7204,-0.444677,0.0,0.0
7656,1913.75,40.7659,42.0275,152.232,106.328,112.607,0.0020766,0.213873,20.7164,89.5803,-0.526753,0.0,0.0
7678,1919.25,40.6891,42.245,153.274,106.234,110.47,0.00203449,0.212131,20.7189,89.4602,-0.358978,0.0,0.0
7700,1924.75,40.1895,41.7773,150.774,106.077,112.009,0.00207016,0.212214,20.7186,89.3,-0.499554,0.0,0.0
7722,1930.25,39.7642,42.0202,148.984,105.89,111.62,0.00229389,0.211578,20.72,89.1699,-0.483849,0.0,0.0
7744,1935.75,39.9935,41.7363,153.649,105.65,109.574,0.00276454,0.210763,20.7215,89.0298,-0.334756,0.0,0.0
7766,1941.25,39.7293,41.7058,153.212,105.411,110.67,0.00289651,0.210648,20.7228,88.8896,-0.446917,0.0,0.0
7788,1946.75,40.1479,41.956,156.342,105.213,110.027,0.00251962,0.210409,20.7222,88.7795,-0.410711,0.0,0.0
7810,1952.25,39.7996,41.4281,152.575,105.061,109.13,0.00251438,0.20981,20.722,88.6194,-0.348892,0.0,0.0
7832,1957.75,39.6611,41.4268,152.758,105.035,108.714,0.00246431,0.209433,20.7224,88.4993,-0.316074,0.0,0.0
7854,1963.25,39.5301,41.4193,154.187,105.104,110.135,0.00255917,0.208079,20.7245,88.3792,-0.429276,0.0,0.0
7876,1968.75,39.0313,40.7202,153.354,105.296,110.525,0.0028397,0.207977,20.7251,88.2391,-0.444872,0.0,0.0
7898,1974.25,39.4756,41.4484,150.447,105.576,109.71,0.00290664,0.206349,20.7287,88.119,-0.352562,0.0,0.0
7920,1979.75,38.9784,40.6972,151.32,105.923,110.099,0.00294849,0.205115,20.73,87.9888,-0.355025,0.0,0.0
7942,1985.25,39.152,40.9019,151.111,106.282,110.289,0.00230265,0.204623,20.7315,87.8787,-0.33978,0.0,0.0
7964,1990.75,38.7347,40.3899,151.582,106.559,110.805,0.00247256,0.205533,20.7301,87.7386,-0.358742,0.0,0.0
7986,1996.25,38.7953,40.6736,150.133,106.822,110.697,0.00263636,0.205493,20.7295,87.5985,-0.327068,0.0,0.0
8008,2001.75,38.8861,40.3504,154.093,106.982,110.995,0.00274254,0.204588,20.7315,87.4684,-0.338086,0.0,0.0
8030,2007.25,38.2023,40.2766,151.217,107.052,112.009,0.00258711,0.20266,20.7338,87.3583,-0.415558,0.0,0.0
8052,2012.75,38.3937,40.5364,153.614,107.019,110.027,0.00254683,0.202023,20.736,87.2081,-0.254438,0.0,0.0
8074,2018.25,38.3216,40.4034,149.803,106.917,110.733,0.00263219,0.200513,20.7369,87.088,-0.321953,0.0,0.0
8096,2023.75,38.4957,40.1007,154.555,106.731,110.986,0.0026441,0.200806,20.7359,86.9679,-0.358887,0.0,0.0
8118,2029.25,38.0573,40.013,158.643,106.499,111.792,0.00296898,0.200749,20.7358,86.8478,-0.445319,0.0,0.0
8140,2034.75,38.0859,39.7945,152.163,106.306,110.117,0.00293178,0.199945,20.7377,86.7377,-0.323382,0.0,0.0
8162,2040.25,37.4286,39.3687,149.68,106.134,110.896,0.00281208,0.198094,20.7407,86.6276,-0.40293,0.0,0.0
8184,2045.75,37.5817,39.4276,152.366,106.398,109.257,0.00260344,0.19671,20.7436,86.4975,-0.243427,0.0,0.0
8206,2051.25,37.5625,39.4996,149.722,106.604,109.013,0.00281549,0.197132,20.7422,86.3774,-0.20511,0.0,0.0
8228,2056.75,37.7921,39.4639,156.416,106.643,110.805,0.00307999,0.195727,20.7438,86.2473,-0.351467,0.0,0.0
8250,2062.25,37.2613,38.9081,155.306,106.547,109.013,0.00310842,0.194887,20.7477,86.1372,-0.210062,0.0,0.0
8272,2067.75,36.9824,38.5149,149.347,106.292,110.832,0.00279391,0.194001,20.7498,86.0171,-0.384019,0.0,0.0
8294,2073.25,36.8971,38.5489,154.224,105.945,109.402,0.00308473,0.193828,20.7477,85.947,-0.294751,0.0,0.0
8316,2078.75,36.7451,38.5074,152.711,105.734,108.949,0.00348161,0.194746,20.7474,85.8169,-0.274968,0.0,0.0
8338,2084.25,36.9521,38.6653,153.675,105.839,109.357,0.00329682,0.192339,20.7499,85.6768,-0.300164,0.0,0.0
8360,2089.75,36.8767,38.4917,154.524,105.969,109.828,0.00311422,0.192195,20.752,85.5567,-0.328313,0.0,0.0
8382,2095.25,36.5325,38.282,154.839,106.102,109.809,0.0029713,0.190156,20.755,85.4366,-0.315262,0.0,0.0
8404,2100.75,36.8194,37.8794,156.093,106.264,109.592,0.00320056,0.191289,20.7535,85.3365,-0.283149,0.0,0.0
8426,2106.25,36.5266,38.1107,156.985,106.338,107.935,0.0030005,0.190909,20.7541,85.2264,-0.13691,0.0,0.0
8448,2111.75,36.4284,38.056,152.741,106.353,109.909,0.0034136,0.189618,20.7576,85.0962,-0.301908,0.0,0.0
8470,2117.25,36.4386,37.7722,151.028,106.289,108.288,0.00351304,0.188667,20.7589,84.9962,-0.171104,0.0,0.0
8492,2122.75,35.9681,37.7427,152.005,106.156,108.605,0.003386,0.188772,20.7572,84.8761,-0.209444,0.0,0.0
8514,2128.25,36.088,37.5517,156.301,105.933,109.004,0.00346871,0.189467,20.7572,84.766,-0.262282,0.0,0.0
8536,2133.75,35.777,37.2366,152.636,105.684,107.908,0.00345528,0.18833,20.7596,84.6559,-0.191204,0.0,0.0
8558,2139.25,35.446,37.0418,154.84,105.455,107.872,0.00350169,0.185058,20.7628,84.5458,-0.208041,0.0,0.0
8580,2144.75,35.4034,36.7528,154.583,105.216,108.913,0.00358657,0.18166,20.768,84.4256,-0.317058,0.0,0.0
8602,2150.25,35.2079,36.8836,156.68,105.061,108.225,0.00386156,0.181722,20.7696,84.3556,-0.272376,0.0,0.0
8624,2155.75,35.1754,36.4358,153.678,105.002,107.256,0.00403279,0.180529,20.7715,84.2255,-0.195009,0.0,0.0
8646,2161.25,35.0575,36.705,154.401,105.066,108.035,0.00433721,0.179646,20.7728,84.1154,-0.255778,0.0,0.0
8668,2166.75,34.7826,36.2794,156.754,105.255,108.497,0.00442095,0.179054,20.7748,84.0253,-0.278469,0.0,0.0
8690,2172.25,34.4373,35.6949,155.811,105.535,108.995,0.00409771,0.177355,20.7777,83.9252,-0.296077,0.0,0.0
8712,2177.75,34.2713,35.9331,156.156,105.859,108.343,0.00382684,0.1764,20.7791,83.8051,-0.212868,0.0,0.0
8734,2183.25,34.6969,35.8322,157.247,106.203,108.741,0.00407578,0.175179,20.7793,83.705,-0.21685,0.0,0.0
8756,2188.75,34.3284,35.8724,157.181,106.557,108.488,0.00421322,0.174342,20.7813,83.6049,-0.164871,0.0,0.0
8778,2194.25,34.1242,35.4711,154.697,106.797,108.696,0.00421769,0.173224,20.7828,83.5048,-0.161789,0.0,0.0
8800,2199.75,34.0205,35.3451,159.863,106.976,109.637,0.0042693,0.171563,20.7873,83.4047,-0.225559,0.0,0.0
8822,2205.25,33.6725,35.3731,159.024,107.051,108.533,0.00459544,0.17133,20.7901,83.2946,-0.126217,0.0,0.0
8844,2210.75,33.8999,35.298,155.026,107.018,108.696,0.00458575,0.169718,20.7908,83.2146,-0.142829,0.0,0.0
8866,2216.25,33.407,34.7021,155.001,106.915,109.076,0.0044271,0.169397,20.7909,83.1245,-0.183746,0.0,0.0
8888,2221.75,33.3262,34.707,155.638,106.719,108.714,0.00470216,0.167461,20.7938,83.0044,-0.170058,0.0,0.0
8910,2227.25,33.1531,34.3454,159.392,106.507,108.261,0.0048588,0.166305,20.7945,82.9243,-0.150014,0.0,0.0
8932,2232.75,33.0973,34.5261,155.087,106.304,109.067,0.00489102,0.163686,20.7981,82.8442,-0.235558,0.0,0.0
8954,2238.25,32.4918,33.9348,157.422,106.154,107.926,0.00533002,0.163539,20.7991,82.7542,-0.152018,0.0,0.0
8976,2243.75,32.1794,33.6869,157.628,106.381,107.356,0.00516496,0.162437,20.8008,82.6541,-0.0837739,0.0,0.0
8998,2249.25,32.3521,33.3849,153.716,106.591,108.614,0.00501357,0.160897,20.8023,82.564,-0.172665,0.0,0.0
9020,2254.75,32.0285,33.2102,159.755,106.667,107.401,0.00517197,0.160236,20.8044,82.4739,-0.062987,0.0,0.0
9042,2260.25,31.9727,33.1904,158.288,106.563,108.424,0.00538408,0.158129,20.8074,82.3838,-0.158944,0.0,0.0
9064,2265.75,31.9369,33.2609,158.025,106.384,107.021,0.00532186,0.157814,20.8078,82.2837,-0.0547836,0.0,0.0
9086,2271.25,32.0834,33.2694,154.126,106.065,107.456,0.00558546,0.156227,20.81,82.2137,-0.119572,0.0,0.0
9108,2276.75,31.2867,32.7298,154.088,105.724,107.111,0.00581758,0.156079,20.8122,82.1036,-0.119655,0.0,0.0
9130,2282.25,31.5065,32.1231,155.951,105.815,106.831,0.00577295,0.155056,20.8132,82.0335,-0.0877076,0.0,0.0
9152,2287.75,31.5083,32.578,158.771,105.923,107.066,0.00574796,0.152744,20.8166,81.9334,-0.0985861,0.0,0.0
9174,2293.25,31.2217,32.3982,156.847,106.046,107.311,0.00578228,0.152181,20.8171,81.8533,-0.10881,0.0,0.0
9196,2298.75,30.7908,32.2678,154.981,106.157,107.926,0.0056997,0.151069,20.8196,81.7633,-0.151755,0.0,0.0
9218,2304.25,30.9761,32.09,156.833,106.28,107.637,0.00604086,0.150684,20.8211,81.6832,-0.116428,0.0,0.0
9240,2309.75,30.3706,32.0053,157.557,106.334,107.347,0.00622794,0.149677,20.8217,81.6131,-0.0870215,0.0,0.0
9262,2315.25,30.481,31.3415,159.525,106.332,106.795,0.00637604,0.149477,20.8238,81.5331,-0.0398578,0.0,0.0
9284,2320.75,30.5539,31.3695,157.76,106.252,106.749,0.00654635,0.148373,20.8272,81.443,-0.0428491,0.0,0.0
9306,2326.25,30.3953,31.3851,159.633,106.134,106.378,0.00631324,0.147906,20.8286,81.3529,-0.0210735,0.0,0.0
9328,2331.75,30.13,30.7325,155.964,105.943,106.614,0.00612305,0.147819,20.8287,81.2828,-0.0579158,0.0,0.0
9350,2337.25,29.8493,30.802,160.131,105.719,106.65,0.00623102,0.147753,20.828,81.2028,-0.0804878,0.0,0.0
9372,2342.75,30.0177,30.8802,155.487,105.496,106.369,0.00623588,0.14658,20.8281,81.1127,-0.0756402,0.0,0.0
9394,2348.25,29.516,30.5034,157.396,105.279,105.581,0.00670374,0.145179,20.8299,81.0426,-0.0263373,0.0,0.0
9416,2353.75,29.2685,30.1735,158.963,105.156,104.649,0.00659773,0.144886,20.8309,80.9826,0.0443889,0.0,0.0
9438,2359.25,29.1256,30.297,158.033,105.063,106.758,0.00655736,0.143267,20.8325,80.8825,-0.146924,0.0,0.0
9460,2364.75,29.1929,30.0049,155.5,105.012,105.681,0.00684595,0.142663,20.8348,80.8024,-0.0583387,0.0,0.0
9482,2370.25,29.0987,29.837,156.639,104.991,105.464,0.00679002,0.142042,20.837,80.7323,-0.0412714,0.0,0.0
9504,2375.75,29.1781,30.1613,158.889,104.979,105.591,0.00667691,0.141025,20.8387,80.6823,-0.0533256,0.0,0.0
9526,2381.25,28.889,29.8409,155.333,104.99,106.179,0.00686873,0.139595,20.8413,80.6322,-0.103357,0.0,0.0
9548,2386.75,28.3846,29.6422,158.553,105.02,105.871,0.00695148,0.138386,20.8449,80.5322,-0.0741154,0.0,0.0
9570,2392.25,28.9457,29.7321,156.781,105.073,106.949,0.00677108,0.136351,20.8479,80.4521,-0.162383,0.0,0.0
9592,2397.75,28.5998,29.5101,160.784,105.145,106.505,0.00687591,0.134477,20.8503,80.412,-0.117987,0.0,0.0
9614,2403.25,28.8904,29.7207,156.482,105.244,107.284,0.00699972,0.133524,20.8519,80.322,-0.17619,0.0,0.0
9636,2408.75,28.7564,29.6651,159.189,105.37,106.007,0.00686585,0.133075,20.8532,80.2619,-0.0553286,0.0,0.0
9658,2414.25,28.64,29.2959,153.448,105.525,107.238,0.00735697,0.131678,20.8557,80.1919,-0.147885,0.0,0.0
9680,2419.75,27.9617,29.0378,160.286,105.707,107.329,0.00750814,0.130164,20.8578,80.1218,-0.13981,0.0,0.0
9702,2425.25,28.7704,29.751,159.015,105.874,107.709,0.0077036,0.129868,20.8583,80.0517,-0.157765,0.0,0.0
9724,2430.75,28.5539,29.5454,158.195,106.031,108.705,0.00771396,0.130514,20.8584,79.9817,-0.228635,0.0,0.0
9746,2436.25,28.7363,29.7637,158.941,106.187,108.116,0.00786005,0.128508,20.8597,79.8916,-0.165352,0.0,0.0
9768,2441.75,28.633,29.4274,160.629,106.292,108.804,0.00830455,0.126998,20.8632,79.8415,-0.214485,0.0,0.0
9790,2447.25,28.3816,29.358,164.526,106.328,107.247,0.0089151,0.123565,20.868,79.7715,-0.0789898,0.0,0.0
9812,2452.75,28.043,29.0695,159.247,106.299,107.311,0.00902898,0.121721,20.8708,79.6914,-0.0869325,0.0,0.0
9834,2458.25,27.6816,28.9147,158.885,106.189,106.405,0.00930291,0.121903,20.8715,79.6213,-0.01871,0.0,0.0
9856,2463.75,27.5574,28.7862,164.64,106.03,106.777,0.00951459,0.121667,20.8716,79.5513,-0.0643932,0.0,0.0
9878,2469.25,27.475,28.6752,159.195,105.878,106.831,0.00933319,0.122159,20.8716,79.4912,-0.0822312,0.0,0.0
9900,2474.75,27.0601,28.3133,163.552,105.732,106.894,0.00935839,0.121622,20.8723,79.4212,-0.100332,0.0,0.0
9922,2480.25,27.323,28.3232,159.593,106.17,107.501,0.009707,0.120777,20.8743,79.3411,-0.114359,0.0,0.0
9944,2485.75,26.6287,27.3625,157.122,106.56,108.397,0.0097894,0.119987,20.8765,79.291,-0.156944,0.0,0.0
9966,2491.25,27.2952,28.2606,158.624,106.667,107.03,0.009562,0.121535,20.8749,79.221,-0.0311661,0.0,0.0
9988,2496.75,27.2214,28.1329,161.058,106.527,108.325,0.00946603,0.122488,20.8746,79.191,-0.15366,0.0,0.0
10010,2502.25,26.6461,27.7735,161.035,106.143,108.225,0.00974093,0.120552,20.8765,79.0909,-0.178301,0.0,0.0
10032,2507.75,26.5562,27.6687,158.325,106.355,106.758,0.00996049,0.118551,20.8787,79.0308,-0.0347147,0.0,0.0
10054,2513.25,25.5472,26.9675,161.133,106.664,107.691,0.0100133,0.117864,20.8789,78.9607,-0.0879424,0.0,0.0
10076,2518.75,25.8166,26.9625,160.337,106.931,107.854,0.0097317,0.121097,20.8754,78.9307,-0.0789152,0.0,0.0
10098,2524.25,25.6362,26.6799,158.402,107.047,108.252,0.00970984,0.121691,20.8746,78.8306,-0.102745,0.0,0.0
10120,2529.75,25.0371,25.7837,159.047,106.868,107.972,0.00983813,0.120217,20.8755,78.7706,-0.0943498,0.0,0.0
10142,2535.25,25.698,26.2727,158.842,106.387,107.781,0.00970368,0.11858,20.8768,78.7205,-0.119562,0.0,0.0
10164,2540.75,25.5569,26.1693,156.063,105.729,106.659,0.00999589,0.117926,20.8798,78.6705,-0.0803973,0.0,0.0
10186,2546.25,25.1723,26.4878,160.374,105.172,106.749,0.00987023,0.117663,20.8799,78.6104,-0.136676,0.0,0.0
10208,2551.75,25.634,26.0805,159.17,105.002,105.998,0.00965815,0.117165,20.8807,78.5404,-0.0866227,0.0,0.0
10230,2557.25,25.4788,26.3794,162.715,105.218,106.116,0.0094854,0.116796,20.8815,78.4803,-0.077945,0.0,0.0
10252,2562.75,25.1967,26.0491,160.104,105.691,106.641,0.00946722,0.117,20.8815,78.4103,-0.082166,0.0,0.0
10274,2568.25,25.0426,26.123,161.549,106.182,107.845,0.00982402,0.117149,20.8803,78.3602,-0.142637,0.0,0.0
10296,2573.75,24.9676,25.7297,156.109,106.362,107.664,0.00988166,0.117215,20.8808,78.3102,-0.111675,0.0,0.0
10318,2579.25,24.804,25.886,159.186,106.18,107.338,0.00985407,0.117211,20.8809,78.2601,-0.0995281,0.0,0.0
10340,2584.75,25.0575,25.9205,159.653,105.834,106.577,0.00959546,0.116902,20.8822,78.1901,-0.0642356,0.0,0.0
10362,2590.25,24.8266,25.7229,159.319,106.118,106.912,0.0096516,0.11649,20.8826,78.12,-0.0684492,0.0,0.0
10384,2595.75,24.3382,25.443,159.31,106.626,107.981,0.00980452,0.116877,20.8826,78.0599,-0.115904,0.0,0.0
10406,2601.25,24.4539,25.6569,158.352,106.299,107.41,0.00952273,0.116567,20.8826,78.0199,-0.0954854,0.0,0.0
10428,2606.75,24.1965,25.3215,159.065,106.451,106.939,0.00950669,0.116437,20.8817,77.9699,-0.0420063,0.0,0.0
10450,2612.25,24.7952,25.2752,162.996,106.949,108.189,0.00957609,0.116089,20.8825,77.8998,-0.105775,0.0,0.0
10472,2617.75,24.9618,25.7375,157.278,106.979,107.202,0.00979669,0.116956,20.8812,77.8598,-0.0191135,0.0,0.0
10494,2623.25,24.5309,25.3053,162.575,106.381,107.709,,,,77.7797,-0.11388,0.0,0.0
10516,2628.75,24.8403,25.6629,157.857,105.541,105.817,,,,77.7297,-0.0239505,0.0,0.0