File: 01_Data/Composite_Deck_Board/Cone/Composite_Deck_Board_Cone_HF50Scan_221209_R2.csv
Names,Time,Stack TC,Smoke TC,Exh Press,Smoke Comp,Smoke Meas,CO Meter,CO2 Meter,O2 Meter,Sample Mass,Ext Coeff,Start Test,Flame Verif
Chan Gain,,500,500,1,1,1,1,1,1,1,1,1.0,1.0
Offset,,0,0,0.136389,0,0,0,0,0,0,0,0.0,0.0
Gain,,1,1,25.011,14.2696,296.664,1,1,1,1.0009,1.04656,1.0,1.0
Units,sec,C,C,Pa,%,%,%,%,%,g,/m,,
Baseline,,34.7624,36.2979,155.14,106.89,111.956,0.00078309,0.0644066,20.9565,-444.361,-0.425004,,
15,3.5,33.0185,34.5984,150.143,107.532,112.833,0.000980093,0.0732606,20.9468,200.97,-0.441774,0.0,0.0
30,7.25,33.4328,34.5718,153.485,107.451,112.725,0.00110221,0.0699146,20.95,200.96,-0.439847,0.0,0.0
45,11,32.9449,34.5294,154.634,107.335,112.308,0.000962031,0.0675415,20.9528,200.96,-0.41577,0.0,0.0
60,14.75,32.754,34.7986,151.024,107.182,111.702,0.000960209,0.0672563,20.9518,200.95,-0.379135,0.0,0.0
75,18.5,33.0672,34.8372,156.095,106.965,109.791,0.00181676,0.0680792,20.9494,200.91,-0.239447,0.0,0.0
90,22.25,32.8621,34.7733,152.565,106.693,111.041,0.00317624,0.073283,20.9361,200.82,-0.366713,0.0,0.0
105,26,33.4779,34.9493,149.45,106.419,113.702,0.00341988,0.0924545,20.9031,200.76,-0.607699,0.0,1.0
120,29.75,34.2449,35.6016,139.256,106.142,117.912,0.00294768,0.146834,20.8146,200.64,-0.965461,0.0,1.0
135,33.5,35.9729,36.6741,125.543,105.904,120.574,0.00406082,0.288182,20.5423,200.309,-1.19098,0.0,0.0
150,37.25,41.5353,41.1766,127.008,105.721,116.835,0.00667647,0.555266,20.112,199.769,-0.917689,0.0,0.0
165,41,50.023,49.6045,113.22,105.608,124.105,0.01052,0.860383,19.6335,199.118,-1.48162,0.0,0.0
180,44.75,60.266,59.0585,105.582,105.576,126.024,0.0143458,1.15496,19.1992,198.328,-1.62531,0.0,0.0
195,48.5,70.947,70.8253,98.3852,105.652,123.199,0.0175801,1.38698,18.8671,197.497,-1.41062,0.0,0.0
210,52.25,81.3419,82.8151,101.836,105.831,126.613,0.0190245,1.52868,18.6562,196.626,-1.64592,0.0,0.0
225,56,90.5302,93.7187,98.0746,106.065,129.99,0.0184707,1.54924,18.6555,195.906,-1.8673,0.0,0.0
240,59.75,97.2422,101.923,111.752,106.31,123.634,0.0174781,1.48442,18.7698,195.105,-1.38594,0.0,0.0
255,63.5,102.101,108.826,111.653,106.531,127.21,0.0160813,1.39106,18.9421,194.304,-1.62863,0.0,0.0
270,67.25,105.453,113.654,105.862,106.748,126.911,0.0144381,1.27526,19.1148,193.613,-1.58838,0.0,0.0
285,71,107.703,116.611,106.335,106.875,124.874,0.0130225,1.17392,19.2777,192.983,-1.42894,0.0,0.0
300,74.75,109.252,118.849,112.479,106.93,125.689,0.0116563,1.06959,19.4542,192.342,-1.4839,0.0,0.0
315,78.5,109.328,120.372,119.607,106.859,126.839,0.0106325,0.971231,19.6154,191.742,-1.57359,0.0,0.0
330,82.25,108.467,120.943,119.641,106.697,124.639,0.00977582,0.892543,19.7318,191.191,-1.42689,0.0,0.0
345,86,107.863,120.2,119.677,106.462,127.817,0.00936218,0.836122,19.8202,190.651,-1.67827,0.0,0.0
360,89.75,107.501,120.107,123.602,106.305,127.545,0.00887027,0.795018,19.8785,190.13,-1.67231,0.0,0.0
375,93.5,106.253,119.386,125.478,106.318,126.196,0.00847593,0.765162,19.9179,189.61,-1.57353,0.0,0.0
390,97.25,105.203,118.789,126.691,106.803,131.139,0.00810413,0.736992,19.9627,189.119,-1.88448,0.0,0.0
405,101,104.63,117.982,127.546,107.076,123.562,0.00787978,0.706391,20.0053,188.599,-1.31466,0.0,0.0
420,104.75,103.174,116.868,126.588,107.068,125.2,0.00761482,0.678195,20.0489,188.129,-1.43628,0.0,0.0
435,108.5,102.11,116.231,122.197,106.759,126.205,0.0073244,0.658783,20.0784,187.678,-1.53618,0.0,0.0
450,112.25,100.703,115.602,123.936,106.772,126.314,0.00733061,0.642659,20.1031,187.248,-1.54299,0.0,0.0
465,116,99.8472,114.193,129.655,107.101,125.78,0.00738761,0.627327,20.1224,186.807,-1.47587,0.0,0.0
480,119.75,99.0157,112.921,133.269,107.39,123.625,0.00753717,0.61072,20.1469,186.377,-1.29248,0.0,0.0
495,123.5,97.8535,111.862,129.768,107.546,125.49,0.00734409,0.595836,20.1684,185.957,-1.41655,0.0,0.0
510,127.25,96.5801,111.013,126.325,107.497,126.613,0.00730402,0.583424,20.1891,185.516,-1.50251,0.0,0.0
525,131,96.1424,109.753,131.105,107.219,124.069,0.00711617,0.572474,20.2061,185.116,-1.34001,0.0,0.0
540,134.75,95.1469,108.488,122.47,106.759,124.594,0.00720323,0.562108,20.2208,184.766,-1.4182,0.0,0.0
555,138.5,93.9152,107.869,127.655,106.233,126.694,0.00692022,0.555359,20.2289,184.325,-1.61702,0.0,0.0
570,142.25,93.124,106.698,124.301,105.802,122.747,0.00673322,0.551113,20.2385,183.895,-1.36382,0.0,0.0
585,146,92.8398,105.498,132.691,105.629,123.643,0.00631564,0.54094,20.257,183.514,-1.44562,0.0,0.0
600,149.75,91.8851,104.599,126.689,105.748,124.186,0.00628295,0.531014,20.2699,183.134,-1.47554,0.0,0.0
615,153.5,91.0167,103.619,130.67,106.117,123.172,0.00652842,0.524618,20.2795,182.734,-1.36827,0.0,0.0
630,157.25,90.4289,102.493,129.541,106.514,124.784,0.0063164,0.517999,20.2884,182.383,-1.45327,0.0,0.0
645,161,89.4675,101.716,132.337,106.841,126.64,0.0060113,0.513601,20.2951,181.993,-1.56066,0.0,0.0
660,164.75,88.8092,101.503,136.299,106.949,123.308,0.00593008,0.506972,20.3035,181.653,-1.30664,0.0,0.0
675,168.5,88.585,99.9516,129.289,106.868,127.708,0.00592145,0.498711,20.3176,181.262,-1.63546,0.0,0.0
690,172.25,87.8617,99.4111,126.194,106.623,125.798,0.00586225,0.492025,20.326,180.912,-1.51819,0.0,0.0
705,176,87.1149,98.3512,135.774,106.358,124.494,0.00597823,0.489395,20.3311,180.532,-1.44545,0.0,0.0
720,179.75,86.8377,97.9253,127.236,106.221,123.969,0.0060763,0.488866,20.3321,180.161,-1.41846,0.0,0.0
735,183.5,86.114,96.892,130.427,106.654,124.73,0.00595487,0.486672,20.3339,179.801,-1.43723,0.0,0.0
750,187.25,85.7004,96.6095,130.495,107.005,121.334,0.00589962,0.48568,20.336,179.441,-1.15376,0.0,0.0
765,191,85.4402,95.9003,129.568,107.082,126.712,0.00600204,0.482574,20.3403,179.09,-1.54528,0.0,0.0
780,194.75,85.5326,95.2165,131.121,106.956,125.354,0.00604453,0.47888,20.3455,178.7,-1.45719,0.0,0.0
795,198.5,84.9749,95.0636,133.274,106.645,122.756,0.00615912,0.474475,20.353,178.38,-1.29159,0.0,0.0
810,202.25,84.2959,94.6827,132.401,106.739,123.462,0.00627046,0.469406,20.3592,177.979,-1.33616,0.0,0.0
825,206,83.4877,93.9249,129.013,106.951,125.997,0.00633744,0.467049,20.364,177.619,-1.50456,0.0,0.0
840,209.75,83.1717,93.1221,132.778,107.163,123.408,0.00606672,0.465732,20.3628,177.269,-1.29575,0.0,0.0
855,213.5,83.25,91.9503,133.21,107.357,124.349,0.00587584,0.466815,20.3605,176.909,-1.3489,0.0,0.0
870,217.25,82.8165,91.5421,132.752,107.46,124.195,0.00586728,0.4661,20.3617,176.558,-1.32871,0.0,0.0
885,221,82.514,91.7803,133.643,107.545,121.072,0.00603415,0.465844,20.3621,176.248,-1.08766,0.0,0.0
900,224.75,82.8558,91.1633,137.38,107.526,122.683,0.00614461,0.464199,20.3652,175.878,-1.21061,0.0,0.0
915,228.5,82.538,90.4625,128.768,107.475,122.711,0.00595416,0.461648,20.3702,175.517,-1.21703,0.0,0.0
930,232.25,82.1031,90.4839,130.966,107.351,125.744,0.00577955,0.460534,20.3723,175.157,-1.45178,0.0,0.0
945,236,81.7499,90.3579,135.462,107.194,125.291,0.00593602,0.45799,20.3758,174.837,-1.43213,0.0,0.0
960,239.75,82.0574,89.7779,132.662,107.035,123.236,0.00614553,0.454547,20.3801,174.446,-1.29392,0.0,0.0
975,243.5,81.1634,89.3129,131.524,106.87,122.249,0.00601902,0.452676,20.3829,174.126,-1.23428,0.0,0.0
990,247.25,81.1987,88.9838,132.714,106.671,124.06,0.00574353,0.451874,20.3837,173.746,-1.38637,0.0,0.0
1005,251,80.7688,88.8102,134.728,106.493,118.084,0.00562437,0.453909,20.3806,173.405,-0.948536,0.0,0.0
1020,254.75,80.7904,88.0354,132.397,106.328,121.38,0.00585663,0.453473,20.3811,173.085,-1.21547,0.0,0.0
1035,258.5,80.2407,88.2327,128.432,106.198,123.209,0.00591204,0.451725,20.3848,172.745,-1.36393,0.0,0.0
1050,262.25,80.2115,87.77,136.824,106.077,123.417,0.00573246,0.450719,20.3883,172.414,-1.3899,0.0,0.0
1065,266,80.1488,87.4779,129.586,105.972,120.583,0.00590938,0.449514,20.389,172.044,-1.18574,0.0,0.0
1080,269.75,80.1129,86.9676,133.406,105.895,120.601,0.00596698,0.448535,20.389,171.694,-1.19384,0.0,0.0
1095,273.5,80.2572,86.7536,131.64,105.831,123.326,0.00603836,0.44706,20.3903,171.384,-1.40448,0.0,0.0
1110,277.25,79.9064,86.9194,134.845,105.807,120.818,0.00587415,0.447483,20.3914,171.053,-1.21796,0.0,0.0
1125,281,79.496,86.5965,135.73,105.781,121.126,0.00568823,0.446096,20.394,170.703,-1.24358,0.0,0.0
1140,284.75,79.6738,86.4191,134.462,105.747,122.919,0.00593107,0.445278,20.3954,170.373,-1.3814,0.0,0.0
1155,288.5,79.5532,86.2719,135.948,105.71,119.035,0.00606316,0.443159,20.3987,170.032,-1.08989,0.0,0.0
1170,292.25,78.7704,86.3311,136.6,105.684,121.787,0.0059887,0.441057,20.401,169.662,-1.30197,0.0,0.0
1185,296,78.812,85.9923,131.679,105.688,120.945,0.00587383,0.441371,20.3999,169.332,-1.2379,0.0,0.0
1200,299.75,78.7996,85.5923,133.409,105.679,119.976,0.00578728,0.443583,20.3972,168.961,-1.16491,0.0,0.0
1215,303.5,78.7056,85.3396,134.65,105.692,120.945,0.00594759,0.444131,20.3935,168.611,-1.23756,0.0,0.0
1230,307.25,78.763,85.5909,133.724,105.662,120.203,0.00607107,0.444595,20.3927,168.271,-1.18365,0.0,0.0
1245,311,78.2358,85.69,134.947,105.663,120.601,0.00631117,0.443144,20.3936,167.95,-1.21398,0.0,0.0
1260,314.75,78.6126,84.58,135.056,105.667,119.696,0.00608775,0.440961,20.3958,167.62,-1.14447,0.0,0.0
1275,318.5,78.336,84.933,134.119,105.66,118.175,0.0057123,0.44017,20.397,167.25,-1.02767,0.0,0.0
1290,322.25,78.1574,84.7572,133.736,105.684,121.47,0.005979,0.438978,20.3973,166.9,-1.27801,0.0,0.0
1305,326,78.2968,84.6367,132.011,105.663,118.229,0.00625332,0.439678,20.3994,166.549,-1.03159,0.0,0.0
1320,329.75,77.9717,84.8691,133.503,105.674,120.737,0.00600385,0.440507,20.3969,166.239,-1.22337,0.0,0.0
1335,333.5,77.8811,84.7549,131.64,105.705,120.764,0.00610847,0.440762,20.3972,165.919,-1.22267,0.0,0.0
1350,337.25,78.2419,84.1985,136.26,105.735,120.873,0.00610837,0.44163,20.3978,165.558,-1.22832,0.0,0.0
1365,341,78.1919,84.1602,134.239,105.757,120.891,0.0059272,0.441073,20.3992,165.238,-1.2278,0.0,0.0
1380,344.75,77.5378,84.4861,130.572,105.799,120.185,0.00585689,0.440462,20.4005,164.898,-1.17043,0.0,0.0
1395,348.5,78.2468,83.7616,133.294,105.856,119.469,0.00586381,0.437061,20.4029,164.537,-1.11069,0.0,0.0
1410,352.25,77.6952,84.1034,136.604,105.921,117.224,0.00581754,0.437898,20.4036,164.227,-0.930812,0.0,0.0
1425,356,77.5334,83.7903,136.647,106.016,121.597,0.00587547,0.436133,20.4047,163.847,-1.25885,0.0,0.0
1440,359.75,77.4541,83.6331,127.624,106.133,120.112,0.0059149,0.438065,20.402,163.507,-1.13596,0.0,0.0
1455,363.5,77.215,83.6155,137.821,106.212,121.624,0.00589361,0.438979,20.4019,163.156,-1.24391,0.0,0.0
1470,367.25,77.2436,83.5208,135.673,106.352,120.266,0.00564322,0.438394,20.4028,162.826,-1.12871,0.0,0.0
1485,371,77.3906,83.5461,130.394,106.463,119.913,0.00578191,0.439968,20.4005,162.516,-1.09218,0.0,0.0
1500,374.75,77.3989,83.7159,137.222,106.571,120.33,0.00581656,0.441652,20.3999,162.155,-1.11466,0.0,0.0
1515,378.5,77.5723,83.4902,131.534,106.642,121.57,0.00577627,0.439992,20.4026,161.815,-1.20269,0.0,0.0
1530,382.25,77.7918,83.1419,138.035,106.746,122.991,0.0057619,0.438144,20.4054,161.455,-1.30049,0.0,0.0
1545,386,77.4124,83.1731,136.776,106.794,120.755,0.00591425,0.438109,20.4043,161.094,-1.12788,0.0,0.0
1560,389.75,77.211,83.3607,133.507,106.885,126.857,0.00605142,0.439114,20.4039,160.764,-1.5727,0.0,0.0
1575,393.5,77.4904,82.9182,134.661,106.959,122.321,0.00605545,0.440711,20.4023,160.414,-1.23205,0.0,0.0
1590,397.25,77.325,83.0946,132.856,107.034,119.189,0.00621935,0.440062,20.4019,160.083,-0.9875,0.0,0.0
1605,401,77.4402,83.0454,136.89,107.106,122.991,0.00618571,0.439617,20.4032,159.713,-1.2696,0.0,0.0
1620,404.75,77.4414,83.1493,133.529,107.187,121.289,0.00604276,0.43995,20.402,159.373,-1.13473,0.0,0.0
1635,408.5,77.6694,83.2703,132.878,107.256,120.565,0.00596555,0.441527,20.4,159.042,-1.07386,0.0,0.0
1650,412.25,77.5315,83.5726,133.326,107.295,124.883,0.00600693,0.441745,20.3977,158.692,-1.39358,0.0,0.0
1665,416,78.0486,83.3137,141.29,107.351,121.597,0.00571207,0.441704,20.3982,158.342,-1.14395,0.0,0.0
1680,419.75,77.3506,83.578,133.734,107.381,122.593,0.00552145,0.440664,20.399,158.032,-1.2163,0.0,0.0
1695,423.5,77.2878,83.3229,136.516,107.427,122.358,0.00552446,0.444058,20.3948,157.651,-1.19471,0.0,0.0
1710,427.25,77.416,83.3264,134.974,107.476,121.597,0.00561154,0.445138,20.3933,157.321,-1.13327,0.0,0.0
1725,431,77.154,83.2961,132.791,107.509,123.29,0.00563025,0.445901,20.3929,156.941,-1.25734,0.0,0.0
1740,434.75,77.1353,83.3831,135.232,107.52,121.099,0.00559588,0.445379,20.3936,156.61,-1.09181,0.0,0.0
1755,438.5,77.9134,83.3472,134.026,107.53,122.656,0.00567271,0.445556,20.3931,156.27,-1.20828,0.0,0.0
1770,442.25,77.7857,83.4058,136.655,107.524,120.076,0.00570875,0.446424,20.3921,155.92,-1.01359,0.0,0.0
1785,446,77.5072,83.4074,137.515,107.524,124.277,0.00584311,0.446008,20.3919,155.549,-1.3293,0.0,0.0
1800,449.75,77.7038,83.4001,139.998,107.511,122.765,0.00575103,0.44636,20.3917,155.199,-1.21801,0.0,0.0
1815,453.5,77.6954,83.5532,129.623,107.487,121.298,0.00575499,0.445801,20.392,154.879,-1.10976,0.0,0.0
1830,457.25,77.4733,83.2414,132.419,107.457,122.43,0.00577915,0.446859,20.3912,154.528,-1.19754,0.0,0.0
1845,461,78.0414,83.17,128.051,107.415,124.141,0.00565948,0.446632,20.391,154.128,-1.3286,0.0,0.0
1860,464.75,78.1451,83.3707,133.352,107.374,124.114,0.00549943,0.445868,20.3927,153.798,-1.33002,0.0,0.0
1875,468.5,77.9417,83.3975,134.106,107.312,125.309,0.00550646,0.446661,20.3915,153.478,-1.42332,0.0,0.0
1890,472.25,77.8898,83.9621,133.146,107.259,126.033,0.00530162,0.447188,20.3912,153.127,-1.48077,0.0,0.0
1905,476,78.0346,83.3379,131.68,107.185,125.988,0.00536969,0.446591,20.394,152.757,-1.48377,0.0,0.0
1920,479.75,77.921,83.3783,137.348,107.092,124.15,0.00536658,0.446236,20.3958,152.447,-1.35689,0.0,0.0
1935,483.5,77.8119,83.4217,131.542,107.034,122.511,0.00541647,0.448178,20.3948,152.056,-1.23992,0.0,0.0
1950,487.25,77.634,83.6415,130.419,106.95,124.223,0.00523057,0.447967,20.3934,151.696,-1.37439,0.0,0.0
1965,491,77.883,83.0821,130.191,106.868,124.304,0.00551466,0.448779,20.3907,151.356,-1.38747,0.0,0.0
1980,494.75,77.6794,83.5416,136.279,106.797,122.81,0.00572792,0.449856,20.388,150.985,-1.28254,0.0,0.0
1995,498.5,78.2969,83.3744,137.811,106.714,122.783,0.00587093,0.449918,20.3863,150.645,-1.28767,0.0,0.0
2010,502.25,77.8244,83.5341,134.042,106.659,120.909,0.00575603,0.451581,20.3845,150.315,-1.15119,0.0,0.0
2025,506,77.6812,84.0072,136.617,106.607,122.231,0.0054951,0.451902,20.3845,149.924,-1.2555,0.0,0.0
2040,509.75,77.6382,83.948,132.504,106.67,121.307,0.00535762,0.451486,20.3848,149.564,-1.18048,0.0,0.0
2055,513.5,77.9667,83.7014,133.513,106.797,122.475,0.00561505,0.451934,20.3839,149.244,-1.25754,0.0,0.0
2070,517.25,78.1599,83.7554,131.066,106.932,123.58,0.00582424,0.45216,20.3845,148.853,-1.32829,0.0,0.0
2085,521,77.9037,83.6501,132.456,107.002,122.222,0.00569198,0.451307,20.3848,148.523,-1.22091,0.0,0.0
2100,524.75,78.1941,83.361,132.768,107.05,124.902,0.00587952,0.452898,20.3823,148.163,-1.41584,0.0,0.0
2115,528.5,78.3475,83.2328,132.375,107.06,123.317,0.00582365,0.454954,20.3777,147.812,-1.29786,0.0,0.0
2130,532.25,78.2791,83.3286,134.612,107.03,123.679,0.00565107,0.456338,20.3768,147.442,-1.32728,0.0,0.0
2145,536,78.2781,83.3248,134.972,106.943,124.82,0.00559838,0.459497,20.3742,147.092,-1.41904,0.0,0.0
2160,539.75,78.4877,83.671,130.987,106.811,124.467,0.0056408,0.459745,20.3734,146.681,-1.4044,0.0,0.0
2175,543.5,78.5481,83.57,131.705,106.653,124.06,0.00571389,0.462512,20.3704,146.361,-1.38786,0.0,0.0
2190,547.25,78.6679,83.9071,128.69,106.427,124.304,0.00562131,0.464595,20.3673,145.991,-1.42541,0.0,0.0
2205,551,78.9077,83.9519,134.738,106.245,126.631,0.00571369,0.465229,20.3665,145.63,-1.61138,0.0,0.0
2220,554.75,78.7369,84.3225,134.982,106.225,123.009,0.00581681,0.466994,20.3643,145.26,-1.34678,0.0,0.0
2235,558.5,79.1001,83.9183,133.121,106.302,125.336,0.00557157,0.469566,20.3586,144.89,-1.51214,0.0,0.0
2250,562.25,79.0042,84.6914,134.233,106.386,127.4,0.00561827,0.472011,20.355,144.509,-1.65485,0.0,0.0
2265,566,78.7542,84.8625,131.886,106.509,121.787,0.00555387,0.473622,20.3532,144.169,-1.23056,0.0,0.0
2280,569.75,79.3767,84.7104,133.39,106.629,125.852,0.00559896,0.474324,20.3521,143.809,-1.52166,0.0,0.0
2295,573.5,79.4001,85.1273,136.103,106.729,125.01,0.00579402,0.476341,20.3484,143.449,-1.45142,0.0,0.0
2310,577.25,79.5378,85.1315,134.046,106.828,125.363,0.00588302,0.480871,20.342,143.048,-1.46885,0.0,0.0
2325,581,79.7006,85.3018,127.319,106.884,122.575,0.00613108,0.482947,20.3388,142.698,-1.25752,0.0,0.0
2340,584.75,79.5642,85.4707,133.107,106.918,122.484,0.00624324,0.482904,20.3381,142.298,-1.24779,0.0,0.0
2355,588.5,80.0324,85.3345,135.169,106.935,124.322,0.00609706,0.483874,20.3368,141.897,-1.38309,0.0,0.0
2370,592.25,80.0226,85.1737,136.886,106.912,123.924,0.00597958,0.485856,20.3307,141.527,-1.35561,0.0,0.0
2385,596,80.2443,85.5688,130.848,106.869,123.326,0.00631527,0.487088,20.3296,141.146,-1.3149,0.0,0.0
2400,599.75,80.2873,86.105,130.259,106.828,125.916,0.00638719,0.487269,20.3295,140.786,-1.50917,0.0,0.0
2415,603.5,80.369,86.2573,132.336,106.74,122.72,0.00628587,0.487878,20.3293,140.386,-1.28075,0.0,0.0
2430,607.25,80.7036,86.0783,132.153,106.645,120.954,0.00631393,0.488294,20.3287,140.066,-1.15582,0.0,0.0
2445,611,80.6032,86.2744,132.591,106.533,119.741,0.00651734,0.487957,20.3279,139.665,-1.07296,0.0,0.0
2460,614.75,80.4823,85.9537,136.113,106.425,124.521,0.0063932,0.49074,20.325,139.245,-1.44167,0.0,0.0
2475,618.5,80.7485,86.693,133.362,106.323,125.318,0.00603651,0.491321,20.3256,138.884,-1.50901,0.0,0.0
2490,622.25,80.4943,86.5502,133.449,106.219,123.308,0.00605036,0.489266,20.3276,138.484,-1.36954,0.0,0.0
2505,626,81.0119,86.7953,135.026,106.089,125.653,0.00603865,0.491264,20.3258,138.114,-1.55373,0.0,0.0
2520,629.75,81.5727,86.4138,127.129,105.992,124.567,0.00598134,0.490194,20.3254,137.713,-1.48242,0.0,0.0
2535,633.5,81.3415,87.1121,132.5,105.879,122.711,0.00588113,0.490902,20.3253,137.373,-1.35438,0.0,0.0
2550,637.25,81.4327,86.9242,132.378,105.805,121.905,0.0059595,0.490281,20.3253,136.973,-1.30029,0.0,0.0
2565,641,81.4251,87.0651,130.603,105.714,124.032,0.0060191,0.490544,20.3264,136.622,-1.46703,0.0,0.0
2580,644.75,81.2723,87.2587,133.674,105.657,123.607,0.00637698,0.488135,20.3287,136.222,-1.44047,0.0,0.0
2595,648.5,80.923,87.3335,136.106,105.607,123.218,0.00625245,0.489481,20.3271,135.852,-1.41583,0.0,0.0
2610,652.25,81.2223,87.0471,136.884,105.603,123.027,0.0060323,0.490314,20.3258,135.461,-1.40207,0.0,0.0
2625,656,81.4991,87.449,133.865,105.614,121.461,0.00572221,0.491335,20.323,135.091,-1.28346,0.0,0.0
2640,659.75,81.2976,87.4485,128.329,105.637,123.281,0.0056004,0.492048,20.3215,134.701,-1.41801,0.0,0.0
2655,663.5,81.5551,87.0308,129.545,105.667,123.353,0.00567635,0.490554,20.3215,134.34,-1.42075,0.0,0.0
2670,667.25,81.8881,86.5152,132.795,105.73,121.733,0.00589843,0.49152,20.3203,133.95,-1.29386,0.0,0.0
2685,671,81.2229,87.4151,128.68,105.842,125.119,0.00597438,0.492573,20.3188,133.56,-1.53605,0.0,0.0
2700,674.75,81.779,87.603,130.157,105.933,122.629,0.00600159,0.492181,20.3189,133.199,-1.34361,0.0,0.0
2715,678.5,81.6716,87.8715,128.038,106.074,121.624,0.00609637,0.49231,20.3194,132.819,-1.25588,0.0,0.0
2730,682.25,82.0191,87.6289,129.343,106.174,122.312,0.00634912,0.492281,20.3193,132.439,-1.29897,0.0,0.0
2745,686,81.6858,88.1562,130.733,106.307,123.326,0.00641528,0.493321,20.3165,132.048,-1.36332,0.0,0.0
2760,689.75,82.5171,87.5207,129.656,106.451,123.19,0.00633161,0.495388,20.3152,131.668,-1.34077,0.0,0.0
2775,693.5,82.261,87.8212,131.25,106.608,125.925,0.00626664,0.492124,20.3188,131.268,-1.52871,0.0,0.0
2790,697.25,81.7606,88.1224,132.92,106.743,123.073,0.0063204,0.490475,20.3213,130.897,-1.30679,0.0,0.0
2805,701,82.3064,88.2149,130.424,106.865,123.516,0.00630618,0.492328,20.3188,130.527,-1.32942,0.0,0.0
2820,704.75,82.3348,88.0155,133.9,106.969,123.435,0.00613415,0.493107,20.3176,130.157,-1.31439,0.0,0.0
2835,708.5,82.7032,88.0157,135.362,107.104,127.092,0.00610692,0.49133,20.3199,129.776,-1.57092,0.0,0.0
2850,712.25,82.8752,87.7823,133.069,107.21,120.719,0.006169,0.4891,20.3237,129.406,-1.08945,0.0,0.0
2865,716,81.8701,88.2114,129.604,107.311,123.136,0.00625289,0.487991,20.324,129.026,-1.26285,0.0,0.0
2880,719.75,82.3701,88.4579,129.121,107.373,126.169,0.00634846,0.489768,20.3211,128.655,-1.48093,0.0,0.0
2895,723.5,82.313,88.4081,128.59,107.43,125.146,0.00623979,0.493016,20.316,128.285,-1.40128,0.0,0.0
2910,727.25,82.4529,88.3615,129.222,107.477,125.553,0.00632347,0.492763,20.3167,127.905,-1.4271,0.0,0.0
2925,731,82.5865,88.2059,136.209,107.519,126.613,0.0064967,0.489851,20.3208,127.554,-1.50062,0.0,0.0
2940,734.75,82.9037,88.1914,130.88,107.532,126.54,0.00637695,0.487799,20.3221,127.164,-1.49432,0.0,0.0
2955,738.5,82.4552,88.0292,130.945,107.55,126.776,0.00622169,0.487134,20.3225,126.784,-1.50979,0.0,0.0
2970,742.25,82.6353,87.9843,134.145,107.544,124.051,0.0060844,0.485131,20.324,126.423,-1.31086,0.0,0.0
2985,746,82.1345,88.701,132.298,107.536,126.948,0.00602755,0.487845,20.3223,126.033,-1.52343,0.0,0.0
3000,749.75,82.5196,88.6532,132.397,107.53,125.037,0.00594778,0.485944,20.3248,125.683,-1.38479,0.0,0.0
3015,753.5,82.5543,88.6835,132.167,107.496,124.259,0.00616257,0.485,20.3277,125.332,-1.33035,0.0,0.0
3030,757.25,82.7031,88.0551,131.613,107.46,125.155,0.0060634,0.482977,20.3317,124.982,-1.39938,0.0,0.0
3045,761,82.3329,88.481,131.627,107.409,122.756,0.00599061,0.480199,20.3346,124.622,-1.22604,0.0,0.0
3060,764.75,82.6513,88.1283,133.219,107.384,122.113,0.00609902,0.478479,20.3357,124.251,-1.17996,0.0,0.0
3075,768.5,82.5474,88.1961,131.793,107.335,124.784,0.00603207,0.479335,20.3356,123.921,-1.38279,0.0,0.0
3090,772.25,82.1042,88.1904,132.818,107.282,121.932,0.00594806,0.477725,20.3366,123.521,-1.17513,0.0,0.0
3105,776,82.2503,88.4011,134.19,107.233,124.376,0.00607151,0.476397,20.3385,123.15,-1.36156,0.0,0.0
3120,779.75,82.4819,88.0732,133.101,107.156,124.259,0.005889,0.471544,20.3451,122.83,-1.3594,0.0,0.0
3135,783.5,82.2602,87.9849,132.705,107.116,126.015,0.00575114,0.467467,20.3505,122.46,-1.49172,0.0,0.0
3150,787.25,82.0855,87.7777,139.021,107.073,123.743,0.00592773,0.467739,20.3533,122.079,-1.32836,0.0,0.0
3165,791,81.5956,87.7132,136.427,107.012,125.381,0.00592035,0.462906,20.3616,121.779,-1.45436,0.0,0.0
3180,794.75,81.6628,87.6305,127.624,106.941,125.753,0.00587049,0.46122,20.3647,121.399,-1.48759,0.0,0.0
3195,798.5,81.7634,87.5169,130.06,106.862,123.417,0.0056744,0.459249,20.3679,121.099,-1.3222,0.0,0.0
3210,802.25,81.0411,87.4341,131.173,106.787,122.222,0.00572919,0.456632,20.3732,120.718,-1.23931,0.0,0.0
3225,806,81.371,87.1386,136.158,106.736,126.504,0.00562747,0.452242,20.3799,120.388,-1.55987,0.0,0.0
3240,809.75,80.83,86.8217,132.256,106.675,124.521,0.00495726,0.450722,20.3815,120.048,-1.42013,0.0,0.0
3255,813.5,81.7069,86.178,133.394,106.617,122.964,0.00478235,0.449747,20.3823,119.707,-1.30955,0.0,0.0
3270,817.25,80.7713,86.619,132.591,106.602,123.743,0.0049124,0.448924,20.3825,119.357,-1.36877,0.0,0.0
3285,821,80.6963,86.3338,132.604,106.734,123.969,0.00491931,0.447855,20.3834,118.997,-1.37419,0.0,0.0
3300,824.75,80.3131,86.4157,131.133,106.846,122.72,0.00504224,0.446888,20.3839,118.676,-1.27162,0.0,0.0
3315,828.5,80.3998,85.9152,133.107,106.924,123.643,0.0049576,0.449069,20.3791,118.366,-1.33371,0.0,0.0
3330,832.25,80.3539,86.2715,136.274,106.976,127.482,0.00514685,0.447581,20.381,117.996,-1.60998,0.0,0.0
3345,836,80.2313,85.9183,130.763,107.031,126.486,0.00537595,0.448584,20.3799,117.675,-1.5332,0.0,0.0
3360,839.75,79.8848,85.9342,129.676,107.078,125.372,0.00541316,0.449819,20.3788,117.315,-1.44802,0.0,0.0
3375,843.5,80.0155,85.7949,136.117,107.09,123.48,0.00513774,0.449888,20.3799,117.005,-1.30741,0.0,0.0
3390,847.25,80.0714,85.5912,130.66,107.077,125.843,0.00501461,0.449729,20.3795,116.675,-1.48247,0.0,0.0
3405,851,80.7253,85.4041,132.825,107.003,124.883,0.00516181,0.450806,20.3773,116.324,-1.41854,0.0,0.0
3420,854.75,80.2439,86.1071,127.333,106.94,124.567,0.00510197,0.451484,20.374,116.004,-1.40064,0.0,0.0
3435,858.5,80.2702,85.806,133.883,106.851,122.267,0.00514329,0.453913,20.3682,115.674,-1.23725,0.0,0.0
3450,862.25,80.4884,85.597,131.26,106.723,125.798,0.00487919,0.454625,20.3689,115.343,-1.50961,0.0,0.0
3465,866,79.9104,85.666,133.298,106.576,122.656,0.00486365,0.451797,20.3715,115.033,-1.2901,0.0,0.0
3480,869.75,80.3439,85.6037,133.408,106.385,122.946,0.00525,0.451238,20.3706,114.673,-1.32825,0.0,0.0
3495,873.5,79.8809,85.7246,133.075,106.256,124.367,0.00542101,0.45242,20.37,114.332,-1.4449,0.0,0.0
3510,877.25,79.6244,85.6867,133.547,106.206,121.841,0.00529292,0.449517,20.3719,114.032,-1.26086,0.0,0.0
3525,881,79.9507,85.1485,134.803,106.24,124.82,0.00545123,0.446895,20.3748,113.712,-1.47961,0.0,0.0
3540,884.75,79.8377,85.0985,136.211,106.295,123.471,0.00522645,0.444856,20.3771,113.382,-1.37515,0.0,0.0
3555,888.5,79.5928,85.1851,133.346,106.335,121.28,0.00467995,0.444473,20.3769,113.041,-1.20733,0.0,0.0
3570,892.25,79.5778,85.2978,128.428,106.376,124.358,0.00474148,0.445913,20.3744,112.751,-1.43382,0.0,0.0
3585,896,79.9994,84.9359,128.968,106.421,124.63,0.00502289,0.444129,20.3778,112.431,-1.44998,0.0,0.0
3600,899.75,79.6378,85.1421,128.519,106.45,124.005,0.00517576,0.439471,20.3837,112.06,-1.40133,0.0,0.0
3615,903.5,79.452,84.9429,134.339,106.507,125.39,0.00517272,0.441496,20.3843,111.76,-1.49846,0.0,0.0
3630,907.25,80.1072,84.4521,134.761,106.508,123.19,0.00530382,0.442518,20.3823,111.47,-1.33585,0.0,0.0
3645,911,79.8099,84.9018,131.717,106.497,122.665,0.00523454,0.440766,20.3842,111.18,-1.29754,0.0,0.0
3660,914.75,79.6571,84.7549,134.848,106.495,124.286,0.00524263,0.437546,20.3888,110.869,-1.41825,0.0,0.0
3675,918.5,79.3603,85.0184,132.069,106.469,126.187,0.00536401,0.437104,20.3911,110.549,-1.55987,0.0,0.0
3690,922.25,79.1084,84.8353,136.796,106.433,123.236,0.00552627,0.436183,20.3925,110.239,-1.34564,0.0,0.0
3705,926,79,84.9558,131.312,106.393,126.115,0.00554567,0.437437,20.387,109.908,-1.5611,0.0,0.0
3720,929.75,79.3925,84.6353,131.84,106.35,125.644,0.00536923,0.439846,20.3832,109.568,-1.53049,0.0,0.0
3735,933.5,79.6483,84.8149,136.898,106.299,122.321,0.00524758,0.437291,20.3856,109.278,-1.28889,0.0,0.0
3750,937.25,79.4651,84.4378,132.677,106.268,125.997,0.0052512,0.43959,20.3816,108.968,-1.56332,0.0,0.0
3765,941,78.9149,84.8825,131.628,106.222,127.382,0.00526501,0.440778,20.3798,108.637,-1.66772,0.0,0.0
3780,944.75,80.1565,84.4838,134.073,106.318,124.603,0.00536485,0.438576,20.3825,108.337,-1.45692,0.0,0.0
3795,948.5,79.6092,84.4513,134.283,106.509,124.123,0.00544022,0.437095,20.3847,108.047,-1.40501,0.0,0.0
3810,952.25,79.5074,85.0643,134.31,106.691,125.218,0.00544879,0.438485,20.384,107.727,-1.46996,0.0,0.0
3825,956,79.3631,84.5764,136.669,106.868,126.413,0.0052545,0.437895,20.3839,107.456,-1.54192,0.0,0.0
3840,959.75,79.1821,84.8651,128.509,106.976,127.88,0.00555522,0.439439,20.382,107.136,-1.63862,0.0,0.0
3855,963.5,79.9027,84.5616,133.03,107.04,124.612,0.00575322,0.438352,20.3836,106.836,-1.39538,0.0,0.0
3870,967.25,79.8999,84.7349,126.033,107.088,125.68,0.00590378,0.436537,20.3844,106.505,-1.46971,0.0,0.0
3885,971,79.7384,84.7289,133.859,107.064,123.245,0.00552183,0.437433,20.3827,106.225,-1.29205,0.0,0.0
3900,974.75,79.3637,84.897,132.608,106.998,123.163,0.00535981,0.437348,20.3822,105.915,-1.2917,0.0,0.0
3915,978.5,79.6336,84.4772,133.025,106.858,124.53,0.00516464,0.436857,20.3821,105.565,-1.40504,0.0,0.0
3930,982.25,79.7182,85.0419,130.918,106.603,125.843,0.00528927,0.435528,20.3833,105.294,-1.52325,0.0,0.0
3945,986,80.09,84.7798,134.555,106.696,124.114,0.00527875,0.431767,20.3892,105.024,-1.38817,0.0,0.0
3960,989.75,79.7941,84.7127,132.703,106.838,123.688,0.00544564,0.43124,20.3891,104.634,-1.34451,0.0,0.0
3975,993.5,79.7256,84.6896,132.354,107.001,126.133,0.00548819,0.434658,20.3836,104.354,-1.51011,0.0,0.0
3990,997.25,79.4264,85.0171,131.396,107.159,125.979,0.00551455,0.431788,20.3843,104.063,-1.48535,0.0,0.0
4005,1001,79.6724,84.8992,135.493,107.32,123.308,0.00553959,0.43134,20.3848,103.793,-1.27488,0.0,0.0
4020,1004.75,79.7403,84.8248,133.238,107.446,125.083,0.00542897,0.429548,20.3865,103.483,-1.39529,0.0,0.0
4035,1008.5,80.0527,84.9348,133.921,107.523,122.874,0.00532022,0.429503,20.3887,103.202,-1.22513,0.0,0.0
4050,1012.25,79.4149,84.8852,132.259,107.56,120.909,0.00526567,0.426495,20.3908,102.922,-1.07396,0.0,0.0
4065,1016,78.8667,85.0353,136.046,107.493,125.843,0.00541436,0.426303,20.3924,102.642,-1.44688,0.0,0.0
4080,1019.75,79.1839,85.046,130.854,107.332,125.363,0.00542281,0.42396,20.3941,102.332,-1.42562,0.0,0.0
4095,1023.5,78.7775,84.3602,136.909,107.089,125.608,0.00548789,0.423331,20.3954,102.031,-1.46427,0.0,0.0
4110,1027.25,79.1752,84.4647,129.935,106.803,123.942,0.00530647,0.421382,20.3969,101.751,-1.3663,0.0,0.0
4125,1031,78.9741,84.4293,133.021,106.484,123.625,0.00516452,0.420451,20.3996,101.471,-1.37024,0.0,0.0
4140,1034.75,79.0228,84.1566,132.472,106.16,123.299,0.00515595,0.42008,20.399,101.181,-1.37402,0.0,0.0
4155,1038.5,78.6546,84.547,131.74,105.885,124.494,0.00509905,0.420398,20.3982,100.92,-1.48636,0.0,0.0
4170,1042.25,78.7914,84.0321,133.536,105.67,123.091,0.00519855,0.418814,20.4028,100.64,-1.40093,0.0,0.0
4185,1046,79.2583,83.5057,134.137,105.61,123.073,0.00526719,0.416533,20.4071,100.34,-1.40484,0.0,0.0
4200,1049.75,78.7754,83.5435,137.422,105.677,122.683,0.0053473,0.41512,20.4094,100.04,-1.36993,0.0,0.0
4215,1053.5,78.3892,83.4975,133.277,105.841,122.023,0.00521873,0.412416,20.4119,99.8194,-1.30605,0.0,0.0
4230,1057.25,78.1827,83.6872,139.397,106.085,123.408,0.00527609,0.411238,20.4138,99.4992,-1.38859,0.0,0.0
4245,1061,78.4343,83.2931,135.931,106.354,123.145,0.0054835,0.41031,20.4147,99.2489,-1.34574,0.0,0.0
4260,1064.75,78.3035,83.1887,135.894,106.631,121.95,0.00550254,0.410244,20.4159,98.9887,-1.23234,0.0,0.0
4275,1068.5,77.9811,83.23,134.435,106.835,121.733,0.00556226,0.408411,20.4178,98.7084,-1.19843,0.0,0.0
4290,1072.25,77.9227,83.1466,138.177,106.933,123.77,0.00519781,0.407775,20.4169,98.4382,-1.34237,0.0,0.0
4305,1076,77.4062,83.1286,132.146,106.895,121.832,0.0052123,0.408072,20.4149,98.158,-1.20074,0.0,0.0
4320,1079.75,77.1385,82.9121,137.038,106.753,122.837,0.00539055,0.409215,20.4118,97.9077,-1.28839,0.0,0.0
4335,1083.5,77.6314,82.9094,134.99,106.507,124.567,0.00531053,0.410041,20.4107,97.6775,-1.43787,0.0,0.0
4350,1087.25,77.5234,82.7617,130.881,106.326,121.751,0.00517376,0.406255,20.4149,97.4273,-1.24365,0.0,0.0
4365,1091,77.2875,82.5153,132.42,106.332,122.52,0.00527225,0.403808,20.4177,97.117,-1.30097,0.0,0.0
4380,1094.75,77.1952,82.5096,131.591,106.782,123.607,0.0051497,0.40433,20.4185,96.8568,-1.34325,0.0,0.0
4395,1098.5,77.2172,82.2557,134.622,107.043,123.082,0.00519316,0.402577,20.4201,96.5965,-1.28177,0.0,0.0
4410,1102.25,77.5681,82.2238,132.047,107.041,123.009,0.00525483,0.402079,20.42,96.3663,-1.27648,0.0,0.0
4425,1106,76.8978,82.209,133.352,106.73,120.873,0.00505536,0.401276,20.4214,96.1261,-1.1424,0.0,0.0
4440,1109.75,76.6995,82.3804,137.266,106.765,122.086,0.00510361,0.399639,20.4223,95.8559,-1.23105,0.0,0.0
4455,1113.5,76.7358,82.0617,134.377,107.074,125.354,0.00521692,0.400375,20.4201,95.6357,-1.447,0.0,0.0
4470,1117.25,76.6426,81.9391,136.276,107.357,124.838,0.0055422,0.400034,20.4196,95.3654,-1.38496,0.0,0.0
4485,1121,76.652,81.6008,131.474,107.543,127.002,0.00517594,0.399046,20.4209,95.1052,-1.52683,0.0,0.0
4500,1124.75,76.4989,81.9068,136.386,107.505,125.581,0.00473065,0.396226,20.424,94.885,-1.42674,0.0,0.0
4515,1128.5,76.4289,81.7678,134.362,107.255,125.182,0.00489503,0.39458,20.4255,94.6648,-1.41891,0.0,0.0
4530,1132.25,76.5167,81.9114,134.005,106.84,122.874,0.00465284,0.393882,20.4288,94.4146,-1.28361,0.0,0.0
4545,1136,76.4486,81.8535,136.051,106.319,122.783,0.00453241,0.390404,20.4343,94.1443,-1.32171,0.0,0.0
4560,1139.75,75.9078,81.6763,136.926,105.879,123.851,0.00475441,0.387712,20.4382,93.8941,-1.43929,0.0,0.0
4575,1143.5,76.0844,81.2807,136.738,105.66,121.932,0.00488794,0.385879,20.4411,93.714,-1.31492,0.0,0.0
4590,1147.25,76.0655,81.0169,136.519,105.728,122.52,0.00492008,0.384346,20.4416,93.4537,-1.3533,0.0,0.0
4605,1151,76.0633,80.9222,131.559,106.026,121.38,0.00468548,0.383485,20.4432,93.2135,-1.24156,0.0,0.0
4620,1154.75,76.2553,80.95,137.828,106.413,123.661,0.00474045,0.382344,20.4449,93.0434,-1.37909,0.0,0.0
4635,1158.5,75.8931,80.7315,133.517,106.76,123.281,0.00475315,0.38007,20.4491,92.8132,-1.32085,0.0,0.0
4650,1162.25,75.65,80.6379,135.348,106.966,122.846,0.00444943,0.376994,20.4534,92.5629,-1.27081,0.0,0.0
4665,1166,75.5766,80.5644,140.502,106.89,121.362,0.00431151,0.376183,20.4539,92.3828,-1.16565,0.0,0.0
4680,1169.75,74.9029,80.2528,135.725,106.626,126.178,0.00423278,0.373536,20.4566,92.1426,-1.54567,0.0,0.0
4695,1173.5,75.1062,79.8929,133.164,106.291,120.882,0.00428581,0.37019,20.461,91.9424,-1.18093,0.0,0.0
4710,1177.25,75.1243,79.7643,139.724,106.441,121.38,0.0042443,0.366874,20.4665,91.7522,-1.2057,0.0,0.0
4725,1181,74.7479,79.8014,138.002,106.955,123.055,0.00407405,0.365771,20.4695,91.502,-1.28729,0.0,0.0
4740,1184.75,74.5727,79.4384,134.165,107.018,124.72,0.00398612,0.36342,20.4731,91.3118,-1.40528,0.0,0.0
4755,1188.5,74.4248,79.2847,137.703,106.605,124.132,0.00389473,0.35921,20.4791,91.1116,-1.39735,0.0,0.0
4770,1192.25,74.1792,79.0405,136.751,106.877,123.399,0.00388344,0.357195,20.4837,90.8514,-1.31958,0.0,0.0
4785,1196,73.8754,78.9331,139.652,107.277,123.109,0.00378016,0.354348,20.4871,90.6712,-1.26373,0.0,0.0
4800,1199.75,73.8743,78.5478,137.513,107.506,124.15,0.00394755,0.352893,20.4877,90.5011,-1.32142,0.0,0.0
4815,1203.5,73.6971,78.7724,133.015,107.46,124.92,0.00417218,0.349884,20.4939,90.3009,-1.38209,0.0,0.0
4830,1207.25,73.4286,78.4482,138.045,107.07,123.082,0.00414248,0.346903,20.4979,90.1007,-1.27946,0.0,0.0
4845,1211,73.2603,78.1698,138.359,106.522,122.502,0.00383411,0.343331,20.5045,89.9206,-1.28319,0.0,0.0
4860,1214.75,73.2545,77.4865,137.714,106.016,121.57,0.00372361,0.340509,20.5074,89.7504,-1.25676,0.0,0.0
4875,1218.5,72.6014,77.7294,135.396,105.724,121.516,0.00366341,0.33884,20.5089,89.5202,-1.27799,0.0,0.0
4890,1222.25,73.0404,77.4279,144.626,105.697,121.932,0.00342504,0.336697,20.5126,89.33,-1.31175,0.0,0.0
4905,1226,72.3864,77.4264,134.993,105.94,122.964,0.00330392,0.3349,20.5156,89.1999,-1.36801,0.0,0.0
4920,1229.75,71.5523,77.2874,136.425,106.267,124.023,0.00316093,0.331852,20.5209,88.9897,-1.41849,0.0,0.0
4935,1233.5,71.8994,76.9571,134.596,106.627,122.267,0.00296211,0.328756,20.5259,88.7695,-1.25653,0.0,0.0
4950,1237.25,71.6332,76.3712,137.368,106.871,123.933,0.00312591,0.326825,20.5287,88.5994,-1.35976,0.0,0.0
4965,1241,71.5369,76.4611,138.863,106.969,123.073,0.00318252,0.323815,20.5327,88.4493,-1.28737,0.0,0.0
4980,1244.75,71.2831,76.1736,135.58,106.896,120.619,0.00302948,0.321997,20.5364,88.2991,-1.1088,0.0,0.0
4995,1248.5,71.2328,75.7523,136.809,106.705,123.96,0.00300332,0.320093,20.5378,88.119,-1.37607,0.0,0.0
5010,1252.25,70.9854,76.049,137.737,106.471,120.683,0.00304681,0.317837,20.5404,87.9788,-1.15019,0.0,0.0
5025,1256,70.4992,75.4193,138.398,106.278,121.706,0.00294998,0.314318,20.545,87.7987,-1.24441,0.0,0.0
5040,1259.75,70.188,75.1419,136.189,106.219,120.61,0.00282804,0.313461,20.5462,87.6185,-1.16648,0.0,0.0
5055,1263.5,70.4855,74.4128,136.814,106.455,122.249,0.00257929,0.311472,20.5486,87.4684,-1.26996,0.0,0.0
5070,1267.25,70.2722,74.3917,136.554,106.637,121.896,0.00276282,0.309683,20.552,87.2882,-1.22776,0.0,0.0
5085,1271,69.5472,74.3927,136.54,106.826,122.973,0.00284009,0.307346,20.5548,87.1681,-1.29228,0.0,0.0
5100,1274.75,69.5528,73.9702,139.985,106.964,123.942,0.00302105,0.305548,20.5612,86.9679,-1.35243,0.0,0.0
5115,1278.5,69.0669,73.8701,139.87,107.033,122.095,0.00317889,0.302678,20.5655,86.8278,-1.20873,0.0,0.0
5130,1282.25,68.6635,73.5402,137.163,107.043,121.543,0.00297086,0.30048,20.5684,86.6977,-1.16625,0.0,0.0
5145,1286,68.8115,72.7761,140.494,107.004,121.715,0.0030092,0.297241,20.5732,86.5375,-1.18252,0.0,0.0
5160,1289.75,68.4461,72.9284,137.518,106.924,121.525,0.00288521,0.2959,20.5757,86.3774,-1.17505,0.0,0.0
5175,1293.5,68.4926,72.5452,141.795,106.835,121.579,0.00268435,0.294441,20.578,86.2172,-1.18682,0.0,0.0
5190,1297.25,68.0033,72.4507,140.126,106.722,120.022,0.00281931,0.292338,20.5816,86.0771,-1.07821,0.0,0.0
5205,1301,68.0785,72.1842,141.927,106.595,120.782,0.00266255,0.290533,20.5834,85.9971,-1.14711,0.0,0.0
5220,1304.75,67.9962,71.8643,137.379,106.627,122.104,0.00269528,0.289596,20.585,85.8169,-1.24429,0.0,0.0
5235,1308.5,67.596,71.5714,140.044,106.671,122.276,0.00269213,0.288761,20.5866,85.6768,-1.25343,0.0,0.0
5250,1312.25,67.3051,71.0108,137.927,106.703,121.534,0.00268751,0.287588,20.5888,85.5467,-1.19475,0.0,0.0
5265,1316,66.981,71.0917,137.897,106.767,122.81,0.0024121,0.286849,20.5903,85.3965,-1.2852,0.0,0.0
5280,1319.75,66.6101,70.9807,138.292,106.776,121.407,0.00238781,0.285037,20.593,85.2364,-1.17891,0.0,0.0
5295,1323.5,66.7011,70.5333,139.888,106.806,119.288,0.00220993,0.282895,20.5958,85.1163,-1.01472,0.0,0.0
5310,1327.25,66.4862,70.21,142.667,106.861,119.488,0.00223516,0.281396,20.5986,84.9862,-1.02532,0.0,0.0
5325,1331,66.1161,70.2186,141.744,106.934,120.601,0.00213482,0.280164,20.6014,84.816,-1.10416,0.0,0.0
5340,1334.75,65.9775,69.8557,138.539,106.988,121.344,0.0018875,0.278693,20.6033,84.7059,-1.15587,0.0,0.0
5355,1338.5,65.931,69.4792,138.437,107.035,123.589,0.00182964,0.276791,20.6069,84.5658,-1.32015,0.0,0.0
5370,1342.25,65.8298,69.6451,144.27,107.097,120.728,0.00198186,0.275411,20.6111,84.4156,-1.09984,0.0,0.0
5385,1346,65.2798,68.9942,139.901,107.164,122.186,0.00212471,0.272368,20.6158,84.3356,-1.20426,0.0,0.0
5400,1349.75,65.3277,69.1344,139.149,107.193,123.209,0.00238322,0.270963,20.6201,84.1954,-1.27835,0.0,0.0
5415,1353.5,65.082,68.7246,140.887,107.243,122.131,0.00254831,0.270698,20.6217,84.0953,-1.19343,0.0,0.0
5430,1357.25,65.2154,68.1508,144.719,107.282,120.529,0.00238707,0.268096,20.6264,83.9552,-1.06883,0.0,0.0
5445,1361,64.7432,68.2086,135.719,107.286,121.099,0.00246622,0.265715,20.6294,83.8251,-1.11183,0.0,0.0
5460,1364.75,64.3771,67.6299,137.59,107.313,122.095,0.00235622,0.264944,20.6298,83.685,-1.18475,0.0,0.0
5475,1368.5,63.9195,67.9109,142.675,107.341,121.986,0.00209293,0.262682,20.6332,83.5449,-1.17419,0.0,0.0
5490,1372.25,63.9125,67.7484,140.478,107.374,120.619,0.00193572,0.25898,20.6405,83.4548,-1.06782,0.0,0.0
5505,1376,63.973,67.1352,141.564,107.384,121.525,0.00212068,0.256474,20.643,83.3747,-1.13565,0.0,0.0
5520,1379.75,63.632,66.7564,140.253,107.407,122.113,0.00236497,0.254744,20.6461,83.2346,-1.17806,0.0,0.0
5535,1383.5,63.0881,67.0627,142.245,107.417,120.701,0.00234679,0.252595,20.6493,83.1145,-1.07041,0.0,0.0
5550,1387.25,62.943,66.1369,146.385,107.444,120.782,0.00205968,0.250136,20.6546,82.9743,-1.0743,0.0,0.0
5565,1391,62.9084,65.8865,141.987,107.448,120.764,0.00183607,0.247491,20.6602,82.8542,-1.07255,0.0,0.0
5580,1394.75,62.7649,65.8343,145.85,107.448,120.655,0.00193812,0.245858,20.6641,82.7441,-1.06433,0.0,0.0
5595,1398.5,62.3873,65.3381,143.034,107.448,120.13,0.00192026,0.243712,20.6665,82.634,-1.02428,0.0,0.0
5610,1402.25,61.9669,65.4201,145.908,107.441,122.647,0.00179742,0.24117,20.6708,82.534,-1.21523,0.0,0.0
5625,1406,61.955,65.2336,146.017,107.453,120.601,0.00200222,0.237959,20.6756,82.4339,-1.05975,0.0,0.0
5640,1409.75,61.0638,65.1392,144.276,107.434,120.275,0.00221633,0.235669,20.6782,82.3438,-1.03654,0.0,0.0
5655,1413.5,61.0908,64.5436,147.834,107.402,120.873,0.00198251,0.233385,20.6817,82.2237,-1.08475,0.0,0.0
5670,1417.25,61.0252,64.036,146.432,107.383,120.194,0.00187214,0.231276,20.6871,82.1336,-1.03463,0.0,0.0
5685,1421,60.6488,63.8935,145.042,107.372,120.891,0.00187021,0.229039,20.6909,82.0335,-1.08866,0.0,0.0
5700,1424.75,60.0486,63.4777,142.423,107.389,120.112,0.00188755,0.227085,20.6945,81.9334,-1.02793,0.0,0.0
5715,1428.5,59.928,63.1589,147.425,107.353,121.497,0.00209623,0.225527,20.6971,81.8333,-1.13628,0.0,0.0
5730,1432.25,59.3241,62.8951,140.932,107.327,122.348,0.00193998,0.22213,20.7027,81.7332,-1.20256,0.0,0.0
5745,1436,59.1395,62.4845,144.782,107.307,118.999,0.00191961,0.218904,20.7074,81.6732,-0.949418,0.0,0.0
5760,1439.75,59.3084,62.1242,149.688,107.276,119.533,0.00222959,0.216387,20.7148,81.5531,-0.993142,0.0,0.0
5775,1443.5,58.7628,61.5439,145.524,107.261,120.148,0.00230565,0.212687,20.7228,81.473,-1.04161,0.0,0.0
5790,1447.25,58.3983,61.2077,147.442,107.221,120.99,0.00238479,0.209294,20.7282,81.3929,-1.10918,0.0,0.0
5805,1451,58.0191,60.6657,145.491,107.18,119.542,0.00254432,0.205488,20.7334,81.3129,-1.00211,0.0,0.0
5820,1454.75,57.3135,60.4448,148.691,107.111,119.352,0.00237028,0.201917,20.7419,81.2128,-0.993434,0.0,0.0
5835,1458.5,56.9855,60.4364,145.721,107.057,120.619,0.00258678,0.198776,20.7462,81.1327,-1.09504,0.0,0.0
5850,1462.25,56.8337,59.4714,150.873,106.977,119.288,0.00264682,0.195778,20.7511,81.0626,-0.999987,0.0,0.0
5865,1466,56.0258,59.0691,149.22,106.917,118.247,0.00276914,0.193889,20.7556,80.9926,-0.924705,0.0,0.0
5880,1469.75,55.5346,58.9716,147.348,106.843,118.347,0.00318098,0.191471,20.7604,80.9225,-0.938755,0.0,0.0
5895,1473.5,54.9061,58.1381,151.264,106.748,119.515,0.0033372,0.188658,20.7649,80.8625,-1.0371,0.0,0.0
5910,1477.25,54.9388,57.9263,146.549,106.674,117.958,0.00346996,0.186115,20.7699,80.7724,-0.923074,0.0,0.0
5925,1481,54.0994,57.0913,150.088,106.623,117.795,0.00384178,0.18283,20.7751,80.7223,-0.914767,0.0,0.0
5940,1484.75,53.7163,57.2287,149.419,106.768,119.433,0.00393309,0.179224,20.7808,80.6523,-1.02912,0.0,0.0
5955,1488.5,53.7406,56.3972,147.184,106.886,118.256,0.00411803,0.176896,20.7865,80.5922,-0.928026,0.0,0.0
5970,1492.25,53.2678,55.4431,154.558,106.979,118.021,0.00461886,0.174582,20.7913,80.5221,-0.901808,0.0,0.0
5985,1496,52.3101,55.0174,147.59,107.046,117.07,0.0049298,0.172168,20.7964,80.4421,-0.821812,0.0,0.0
6000,1499.75,52.1785,54.7563,145.654,107.081,117.206,0.00530893,0.170801,20.7991,80.392,-0.829393,0.0,0.0
6015,1503.5,52.0637,54.1152,152.463,107.044,118.021,0.00570985,0.170777,20.8016,80.312,-0.896204,0.0,0.0
6030,1507.25,51.4896,53.4474,151.159,106.991,117.016,0.00630776,0.168391,20.8061,80.2419,-0.82222,0.0,0.0
6045,1511,51.6329,52.7433,150.344,106.856,115.848,0.00684536,0.165065,20.811,80.2119,-0.741762,0.0,0.0
6060,1514.75,51.1237,52.5918,153.423,106.702,115.921,0.00754898,0.161777,20.8174,80.1418,-0.760717,0.0,0.0
6075,1518.5,50.2162,52.2641,149.055,106.556,115.966,0.00843178,0.160238,20.8204,80.0818,-0.776898,0.0,0.0
6090,1522.25,49.6029,51.9884,153.343,106.396,115.685,0.00886176,0.159024,20.8236,80.0217,-0.768433,0.0,0.0
6105,1526,49.3871,51.3356,148.324,106.269,114.834,0.00897348,0.157332,20.8265,79.9817,-0.711628,0.0,0.0
6120,1529.75,48.9488,51.3175,150.426,106.316,115.567,0.00888335,0.155342,20.8294,79.9216,-0.766004,0.0,0.0
6135,1533.5,48.7657,50.5051,150.389,106.411,116.464,0.00878645,0.155127,20.8302,79.8515,-0.828735,0.0,0.0
6150,1537.25,48.5612,50.0022,151.692,106.535,116.174,0.00896918,0.154895,20.8309,79.8315,-0.795169,0.0,0.0
6165,1541,48.1028,49.7425,149.531,106.665,116.618,0.00909202,0.15583,20.8294,79.7915,-0.818944,0.0,0.0
6180,1544.75,47.821,49.1266,148.499,106.761,116.373,0.00922182,0.157088,20.8283,79.7114,-0.791402,0.0,0.0
6195,1548.5,47.624,48.5849,147.858,106.84,115.278,0.00904312,0.156791,20.8267,79.6313,-0.6978,0.0,0.0
6210,1552.25,47.1905,48.5486,151.778,106.928,114.97,0.00874497,0.155022,20.8288,79.5813,-0.665698,0.0,0.0
6225,1556,46.9932,48.2863,151.547,106.992,115.712,0.00853884,0.153465,20.8303,79.5313,-0.719329,0.0,0.0
6240,1559.75,46.3641,48.145,151.598,107.037,116.065,0.00851397,0.152617,20.832,79.4812,-0.743415,0.0,0.0
6255,1563.5,46.0761,47.6337,155.659,107.034,115.459,0.00869474,0.152188,20.8324,79.4212,-0.695534,0.0,0.0
6270,1567.25,46.0925,47.4115,148.863,107.02,116.5,0.00871361,0.151474,20.834,79.3911,-0.779142,0.0,0.0
6285,1571,46.005,47.0663,153.227,106.977,115.848,0.00884115,0.151037,20.8356,79.3211,-0.73133,0.0,0.0
6300,1574.75,45.861,46.8588,153.146,106.916,115.866,0.00898663,0.151205,20.8368,79.271,-0.738036,0.0,0.0
6315,1578.5,45.3428,47.0065,156.18,106.845,114.716,0.00876115,0.151093,20.8371,79.241,-0.652577,0.0,0.0
6330,1582.25,45.216,46.9465,149.883,106.719,115.015,0.00858677,0.150936,20.8384,79.191,-0.687275,0.0,0.0
6345,1586,45.6266,46.4615,150.274,106.58,114.454,0.00878562,0.149704,20.8392,79.1409,-0.654357,0.0,0.0
6360,1589.75,45.0364,46.4811,151.353,106.422,114.916,0.00866668,0.149829,20.8394,79.0909,-0.704907,0.0,0.0
6375,1593.5,44.7486,46.3982,148.303,106.294,114.336,0.00855978,0.14962,20.8395,78.9908,-0.669589,0.0,0.0
6390,1597.25,44.8272,45.6938,150.996,106.146,113.883,0.00877528,0.148527,20.8399,78.9808,-0.645893,0.0,0.0
6405,1601,44.5071,45.9316,152.472,106.006,114.897,0.00870745,0.148073,20.8402,78.9207,-0.739443,0.0,0.0
6420,1604.75,44.6791,45.7238,150.107,105.896,113.032,0.00849895,0.148545,20.8403,78.8506,-0.598752,0.0,0.0
6435,1608.5,44.4758,45.2743,155.045,105.808,114.961,0.00837277,0.148637,20.8398,78.8006,-0.761642,0.0,0.0
6450,1612.25,44.2603,45.2222,153.665,105.755,114.562,0.0082925,0.147585,20.8395,78.7706,-0.734387,0.0,0.0
6465,1616,44.0417,45.3347,149.509,105.751,115.477,0.00836453,0.1471,20.8395,78.7105,-0.807673,0.0,0.0
6480,1619.75,43.5797,45.0899,150.535,105.753,114.463,0.0083045,0.147217,20.8406,78.6705,-0.726592,0.0,0.0
6495,1623.5,43.48,44.4867,150.425,105.789,115.504,0.00850564,0.146957,20.841,78.6204,-0.806581,0.0,0.0
6510,1627.25,43.6978,44.6895,148.82,105.872,115.278,0.00883991,0.146728,20.8411,78.6004,-0.781359,0.0,0.0
6525,1631,43.1589,44.2045,151.062,106.001,115.341,0.0088552,0.147389,20.8404,78.5404,-0.775235,0.0,0.0
6540,1634.75,43.328,43.8389,152.948,106.149,115.232,0.00867807,0.147134,20.8403,78.5003,-0.75377,0.0,0.0
6555,1638.5,43.2443,43.9929,150.212,106.311,114.146,0.00878055,0.147174,20.8405,78.4303,-0.652844,0.0,0.0
6570,1642.25,42.8307,43.9731,150.827,106.481,114.87,0.00892309,0.146964,20.8414,78.3602,-0.696219,0.0,0.0
6585,1646,42.8074,43.7478,153.283,106.655,116.301,0.00872743,0.147249,20.8417,78.3302,-0.794866,0.0,0.0
6600,1649.75,42.9938,44.0647,147.453,106.856,115.576,0.0085942,0.147343,20.8418,78.2801,-0.720177,0.0,0.0
6615,1653.5,42.6512,43.6051,150.229,107.041,116.708,0.0087159,0.147856,20.8418,78.2201,-0.793744,0.0,0.0
6630,1657.25,42.6605,43.451,154.256,107.222,114.997,0.00864923,0.148282,20.8411,78.1801,-0.642664,0.0,0.0
6645,1661,42.6906,43.5465,149.648,107.348,115.803,0.0086793,0.148513,20.8416,78.15,-0.695958,0.0,0.0
6660,1664.75,42.6686,43.4948,153.335,107.47,114.97,0.00878863,0.147774,20.8409,78.07,-0.619268,0.0,0.0
6675,1668.5,42.3734,43.7078,153.42,107.563,116.165,0.00866061,0.147454,20.8403,78.0099,-0.70628,0.0,0.0
6690,1672.25,42.1203,43.3213,151.652,107.599,115.839,0.00861911,0.146922,20.8409,77.9799,-0.67744,0.0,0.0
6705,1676,41.857,43.6477,152.135,107.585,115.921,0.00868184,0.145925,20.8421,77.9298,-0.685047,0.0,0.0
6720,1679.75,41.7107,43.5138,155.358,107.516,114.925,0.00894196,0.145334,20.8424,77.8898,-0.61171,0.0,0.0
6735,1683.5,41.9072,43.2763,152.288,107.412,115.088,0.00892199,0.144855,20.8436,77.8197,-0.633609,0.0,0.0
6750,1687.25,42.1314,43.2194,153.279,107.276,115.567,0.00887501,0.144515,20.8438,77.7897,-0.6835,0.0,0.0
6765,1691,41.8476,43.1826,149.857,107.114,115.414,0.0087552,0.14484,20.8448,77.7196,-0.685139,0.0,0.0
6780,1694.75,41.9478,43.0746,152.309,106.954,114.499,0.00891534,0.145348,20.8455,77.6796,-0.625786,0.0,0.0
6795,1698.5,42.0842,42.4872,150.354,106.794,115.296,0.00925394,0.145702,20.8456,77.6196,-0.703171,0.0,0.0
6810,1702.25,42.0538,42.867,151.041,106.678,114.762,0.00931727,0.145911,20.8452,77.5895,-0.670541,0.0,0.0
6825,1706,42.0551,42.9025,150.744,106.761,114.065,0.00930121,0.145646,20.8432,77.5295,-0.607487,0.0,0.0
6840,1709.75,41.5807,43.0066,151.115,106.976,114.553,0.00961843,0.145977,20.8428,77.4694,-0.628271,0.0,0.0
6855,1713.5,41.6915,42.7264,150.611,107.088,114.218,0.00973872,0.146145,20.843,77.4394,-0.591824,0.0,0.0
6870,1717.25,41.9505,42.7712,151.137,107.092,116.083,0.00948015,0.145698,20.8431,77.3693,-0.740142,0.0,0.0
6885,1721,41.2376,42.5599,154.504,107.008,114.128,0.00944007,0.145726,20.8431,77.3393,-0.591342,0.0,0.0
6900,1724.75,41.4434,42.651,145.648,106.839,114.4,0.00944526,0.146089,20.8431,77.2993,-0.627708,0.0,0.0
6915,1728.5,41.5981,42.59,158.15,106.573,113.141,,0.145927,,77.2592,-0.549053,0.0,0.0
6930,1732.25,41.53,42.7583,148.136,106.357,112.978,,,,77.2192,-0.554446,0.0,0.0
6945,1736,41.6643,42.1789,154.117,106.284,113.766,,,,77.1591,-0.624469,0.0,0.0
6958,1739.25,41.2132,42.2352,155.404,106.376,112.571,,,,77.1391,-0.519665,0.0,0.0