File: 01_Data/Composite_Deck_Board/Cone/Composite_Deck_Board_HRRPUA_25.csv
Time after Ignition,Composite_Deck_Board_R1,Composite_Deck_Board_R2,Composite_Deck_Board_R3,Mean,Std. Dev.
0.0,3.4,4.6,3.8,3.9,0.6
1.75,11.0,7.4,25.7,14.7,9.7
3.5,26.5,15.8,54.2,32.1,19.8
5.25,49.3,29.4,103.8,60.8,38.5
7.0,95.0,55.7,179.6,110.1,63.3
8.75,156.8,101.6,254.8,171.1,77.6
10.5,247.7,183.7,335.1,255.5,76.0
12.25,350.6,255.7,405.8,337.4,75.9
14.0,434.0,329.7,483.3,415.7,78.4
15.75,518.8,384.7,532.8,478.8,81.8
17.5,572.5,439.4,577.9,530.0,78.4
19.25,602.6,487.3,624.6,571.5,73.8
21.0,650.1,516.2,637.1,601.1,73.8
22.75,669.8,564.6,651.2,628.6,56.1
24.5,679.4,582.5,646.8,636.3,49.3
26.25,685.6,593.6,641.5,640.2,46.0
28.0,679.1,609.2,617.7,635.4,38.1
29.75,686.2,590.3,616.9,631.1,49.5
31.5,659.3,585.1,587.6,610.7,42.1
33.25,626.4,566.4,568.6,587.1,34.0
35.0,593.1,569.8,544.7,569.2,24.2
36.75,587.1,544.4,519.4,550.3,34.2
38.5,533.7,522.6,490.1,515.5,22.6
40.25,513.6,505.8,462.4,493.9,27.6
42.0,492.4,482.4,447.9,474.2,23.4
43.75,469.1,468.2,418.5,451.9,29.0
45.5,437.6,450.0,409.9,432.5,20.5
47.25,408.8,416.0,384.3,403.0,16.6
49.0,395.1,399.8,361.8,385.6,20.7
50.75,378.9,386.4,346.2,370.5,21.4
52.5,355.8,374.7,333.4,354.6,20.7
54.25,350.3,359.1,331.7,347.0,14.0
56.0,329.2,343.6,321.7,331.5,11.1
57.75,326.4,335.7,309.2,323.8,13.4
59.5,319.5,330.2,306.1,318.6,12.0
61.25,299.5,317.2,298.9,305.2,10.4
63.0,299.8,311.2,285.7,298.9,12.8
64.75,286.3,302.2,285.8,291.5,9.3
66.5,288.0,297.3,282.7,289.3,7.3
68.25,279.9,290.7,278.3,283.0,6.7
70.0,276.0,291.9,274.0,280.6,9.8
71.75,272.9,282.8,269.6,275.1,6.9
73.5,273.1,277.0,263.1,271.1,7.2
75.25,268.9,281.7,263.2,271.3,9.5
77.0,266.7,272.2,264.6,267.8,3.9
78.75,267.0,278.4,259.6,268.3,9.5
80.5,264.9,269.1,260.0,264.7,4.6
82.25,263.7,265.1,253.2,260.7,6.5
84.0,259.1,263.8,254.4,259.1,4.7
85.75,259.9,265.2,251.8,258.9,6.8
87.5,256.2,264.0,254.0,258.0,5.3
89.25,254.5,261.3,246.5,254.1,7.4
91.0,256.1,259.7,247.8,254.6,6.1
92.75,253.1,254.5,247.1,251.6,3.9
94.5,245.8,254.3,253.9,251.3,4.8
96.25,249.8,248.9,255.8,251.5,3.7
98.0,251.2,250.1,253.2,251.5,1.5
99.75,250.8,245.2,251.6,249.2,3.5
101.5,250.3,241.3,252.4,248.0,5.9
103.25,249.2,243.2,255.1,249.2,5.9
105.0,248.4,240.1,247.2,245.2,4.4
106.75,244.5,237.4,249.6,243.8,6.1
108.5,245.1,237.4,247.0,243.2,5.1
110.25,247.8,240.4,249.0,245.7,4.6
112.0,248.0,237.8,245.8,243.9,5.4
113.75,240.7,238.3,247.3,242.1,4.7
115.5,238.7,239.7,246.1,241.5,4.0
117.25,237.8,238.6,245.4,240.6,4.2
119.0,238.3,230.1,243.0,237.2,6.6
120.75,238.5,231.7,241.2,237.1,4.9
122.5,237.8,227.2,239.1,234.7,6.5
124.25,233.5,225.7,236.8,232.0,5.7
126.0,230.9,230.0,237.9,232.9,4.3
127.75,233.8,232.5,238.8,235.0,3.3
129.5,230.4,231.1,234.2,231.9,2.0
131.25,229.1,227.0,229.8,228.6,1.5
133.0,229.9,220.4,234.4,228.2,7.2
134.75,229.8,222.4,232.9,228.4,5.4
136.5,224.7,224.3,231.2,226.7,3.9
138.25,228.3,226.2,233.0,229.2,3.5
140.0,228.8,223.8,232.4,228.3,4.3
141.75,224.4,221.6,228.2,224.7,3.3
143.5,220.7,225.8,225.7,224.1,2.9
145.25,222.0,218.8,223.5,221.5,2.4
147.0,217.1,216.7,228.8,220.9,6.8
148.75,217.5,219.8,221.1,219.5,1.8
150.5,218.3,222.4,223.3,221.3,2.6
152.25,214.9,217.7,218.7,217.1,2.0
154.0,218.6,211.4,220.3,216.8,4.7
155.75,216.4,217.3,223.5,219.1,3.9
157.5,217.8,217.8,220.5,218.7,1.6
159.25,218.9,213.5,218.2,216.8,2.9
161.0,217.0,209.3,221.3,215.9,6.1
162.75,212.3,208.7,217.4,212.8,4.4
164.5,211.9,211.2,220.7,214.6,5.3
166.25,209.6,209.6,214.8,211.3,3.0
168.0,207.5,208.2,216.5,210.7,5.0
169.75,205.2,207.1,212.7,208.3,3.9
171.5,208.2,203.0,216.0,209.1,6.6
173.25,205.3,204.4,214.7,208.2,5.7
175.0,205.2,208.3,209.7,207.7,2.3
176.75,206.0,203.4,209.1,206.2,2.9
178.5,200.6,202.3,210.4,204.4,5.2
180.25,201.8,205.0,213.2,206.7,5.9
182.0,200.9,202.7,208.4,204.0,3.9
183.75,201.1,205.2,210.9,205.7,4.9
185.5,203.1,202.0,208.8,204.6,3.6
187.25,203.0,204.3,208.1,205.1,2.7
189.0,202.1,203.0,204.8,203.3,1.4
190.75,200.9,201.7,208.0,203.5,3.8
192.5,199.6,201.9,203.6,201.7,2.0
194.25,205.2,197.8,206.7,203.2,4.7
196.0,203.9,199.1,206.5,203.2,3.8
197.75,204.1,202.5,206.5,204.4,2.0
199.5,200.9,204.4,202.7,202.7,1.8
201.25,196.3,198.2,208.2,200.9,6.4
203.0,200.8,195.4,205.0,200.4,4.8
204.75,200.6,202.6,202.1,201.8,1.0
206.5,200.7,197.7,200.9,199.8,1.8
208.25,197.2,198.0,201.1,198.8,2.1
210.0,197.1,196.9,198.8,197.6,1.1
211.75,195.9,196.2,203.2,198.4,4.1
213.5,196.4,196.0,200.5,197.6,2.5
215.25,198.8,194.2,200.4,197.8,3.2
217.0,196.2,190.7,203.2,196.7,6.3
218.75,200.7,194.7,199.9,198.4,3.3
220.5,198.1,192.9,198.6,196.5,3.2
222.25,199.9,192.1,197.3,196.4,4.0
224.0,194.6,191.5,200.4,195.5,4.5
225.75,195.0,189.9,198.1,194.3,4.1
227.5,194.9,190.0,202.3,195.7,6.2
229.25,192.6,191.0,197.5,193.7,3.4
231.0,191.3,195.8,195.7,194.2,2.6
232.75,191.1,192.4,199.5,194.4,4.5
234.5,191.2,188.5,194.9,191.5,3.2
236.25,193.1,189.1,194.2,192.1,2.7
238.0,192.1,189.0,195.7,192.2,3.4
239.75,191.8,186.2,193.9,190.6,4.0
241.5,187.6,185.7,192.5,188.6,3.5
243.25,192.5,186.4,192.1,190.3,3.4
245.0,195.8,186.3,195.3,192.5,5.4
246.75,187.8,183.2,191.7,187.6,4.3
248.5,192.1,185.7,192.0,189.9,3.7
250.25,192.4,182.0,191.6,188.7,5.8
252.0,191.2,182.9,193.9,189.3,5.7
253.75,191.7,183.3,194.1,189.7,5.7
255.5,193.2,182.8,191.1,189.0,5.5
257.25,192.3,184.3,188.1,188.2,4.0
259.0,191.5,181.2,192.2,188.3,6.2
260.75,189.6,187.2,189.6,188.8,1.4
262.5,191.2,186.4,189.2,189.0,2.4
264.25,188.7,190.7,188.3,189.2,1.3
266.0,190.9,185.9,188.6,188.5,2.5
267.75,189.2,186.5,190.7,188.8,2.2
269.5,186.6,188.2,189.8,188.2,1.6
271.25,186.5,190.3,188.7,188.5,1.9
273.0,186.2,186.3,189.4,187.3,1.8
274.75,185.1,187.1,190.4,187.6,2.7
276.5,186.0,186.4,186.0,186.1,0.3
278.25,182.5,187.6,190.3,186.8,4.0
280.0,182.7,184.9,186.8,184.8,2.1
281.75,185.1,185.6,186.1,185.6,0.5
283.5,187.6,185.7,186.9,186.7,0.9
285.25,183.1,184.1,190.2,185.8,3.9
287.0,185.9,186.1,184.7,185.5,0.8
288.75,185.6,186.2,187.3,186.4,0.9
290.5,183.9,186.6,185.8,185.4,1.4
292.25,182.7,184.3,188.2,185.1,2.9
294.0,184.1,183.6,183.4,183.7,0.4
295.75,181.7,181.1,184.0,182.3,1.5
297.5,180.1,182.6,186.3,183.0,3.2
299.25,182.3,180.5,185.2,182.7,2.4
301.0,180.1,183.8,186.7,183.5,3.3
302.75,181.4,178.9,183.7,181.3,2.4
304.5,179.5,177.6,184.7,180.6,3.7
306.25,180.9,175.9,185.0,180.6,4.6
308.0,180.6,175.3,184.3,180.1,4.5
309.75,179.5,178.3,183.0,180.3,2.4
311.5,180.0,175.9,181.8,179.2,3.0
313.25,178.6,178.6,184.0,180.4,3.2
315.0,178.0,173.8,182.9,178.2,4.5
316.75,175.8,177.4,183.9,179.0,4.3
318.5,178.1,175.0,180.8,177.9,2.9
320.25,176.6,175.1,183.4,178.4,4.4
322.0,174.8,174.6,183.9,177.8,5.3
323.75,174.1,172.1,180.1,175.4,4.1
325.5,173.0,174.2,183.4,176.9,5.7
327.25,177.6,172.6,184.5,178.2,5.9
329.0,177.4,176.7,182.7,178.9,3.3
330.75,178.3,178.2,177.4,178.0,0.5
332.5,179.9,172.9,179.8,177.5,4.0
334.25,181.1,174.7,180.7,178.8,3.6
336.0,181.7,175.1,179.5,178.8,3.3
337.75,177.0,177.5,180.8,178.4,2.1
339.5,179.1,173.4,184.2,178.9,5.4
341.25,178.5,174.3,182.4,178.4,4.0
343.0,177.4,175.8,183.2,178.8,3.9
344.75,179.4,173.8,180.4,177.9,3.6
346.5,181.1,176.4,180.5,179.3,2.6
348.25,175.8,175.0,178.1,176.3,1.6
350.0,177.0,173.4,179.0,176.5,2.8
351.75,178.5,173.7,175.9,176.1,2.4
353.5,176.5,172.2,178.7,175.8,3.3
355.25,176.4,176.2,182.1,178.2,3.4
357.0,174.0,172.7,180.0,175.5,3.9
358.75,175.0,172.6,174.5,174.0,1.3
360.5,173.3,173.9,176.8,174.7,1.9
362.25,177.0,170.7,177.0,174.9,3.6
364.0,175.8,170.1,179.1,175.0,4.6
365.75,177.1,170.7,183.3,177.0,6.3
367.5,175.4,170.0,177.5,174.3,3.8
369.25,174.7,171.9,176.8,174.5,2.4
371.0,174.8,172.4,176.5,174.6,2.1
372.75,174.7,174.1,177.6,175.5,1.9
374.5,174.8,174.0,177.8,175.5,2.0
376.25,173.7,173.9,178.2,175.3,2.6
378.0,174.5,173.3,176.8,174.8,1.8
379.75,175.6,172.5,176.3,174.8,2.1
381.5,174.9,172.7,175.5,174.4,1.5
383.25,177.6,172.5,174.6,174.9,2.6
385.0,175.4,172.7,174.7,174.3,1.4
386.75,176.0,172.7,176.7,175.1,2.2
388.5,174.3,175.1,175.8,175.1,0.8
390.25,174.0,175.0,176.6,175.2,1.3
392.0,174.6,171.4,176.5,174.2,2.6
393.75,176.9,170.6,174.8,174.1,3.2
395.5,176.0,172.7,179.5,176.1,3.4
397.25,175.4,170.9,175.1,173.8,2.5
399.0,176.3,172.3,178.0,175.5,2.9
400.75,179.4,172.6,178.6,176.9,3.8
402.5,177.4,175.4,175.7,176.2,1.1
404.25,177.3,172.9,176.2,175.5,2.3
406.0,176.3,174.3,174.7,175.1,1.0
407.75,176.6,174.8,178.1,176.5,1.6
409.5,177.5,177.1,177.0,177.2,0.3
411.25,176.2,173.9,176.1,175.4,1.3
413.0,175.1,177.1,178.3,176.8,1.6
414.75,177.1,176.5,180.9,178.2,2.4
416.5,177.1,174.6,178.2,176.7,1.8
418.25,175.9,176.6,178.3,177.0,1.2
420.0,174.0,178.0,180.1,177.4,3.1
421.75,176.3,176.1,179.8,177.4,2.0
423.5,176.2,175.3,179.2,176.9,2.0
425.25,176.6,175.6,174.8,175.7,0.9
427.0,175.2,173.6,178.4,175.7,2.4
428.75,174.8,174.1,178.9,176.0,2.6
430.5,174.9,172.8,176.8,174.8,2.0
432.25,178.8,174.3,181.2,178.1,3.5
434.0,174.0,174.2,180.6,176.3,3.8
435.75,172.5,173.8,177.6,174.6,2.6
437.5,173.7,177.5,180.3,177.1,3.3
439.25,174.6,173.5,177.2,175.1,1.9
441.0,173.8,175.1,176.0,175.0,1.1
442.75,171.7,176.0,176.1,174.6,2.5
444.5,174.0,176.2,174.1,174.8,1.3
446.25,175.3,177.6,177.7,176.9,1.4
448.0,175.3,172.9,177.8,175.3,2.5
449.75,175.5,172.8,179.6,175.9,3.4
451.5,175.1,174.5,176.0,175.2,0.7
453.25,174.3,173.7,175.1,174.4,0.7
455.0,174.7,172.7,178.7,175.4,3.0
456.75,175.0,175.3,178.7,176.3,2.0
458.5,175.3,172.8,177.7,175.3,2.5
460.25,173.3,171.7,174.6,173.2,1.5
462.0,175.1,174.1,173.3,174.2,0.9
463.75,178.0,177.1,175.1,176.7,1.5
465.5,175.3,172.9,174.8,174.4,1.3
467.25,173.9,173.9,176.5,174.8,1.5
469.0,179.1,175.7,174.2,176.3,2.5
470.75,177.4,178.2,172.4,176.0,3.2
472.5,179.5,176.6,174.0,176.7,2.8
474.25,179.8,175.2,176.3,177.1,2.4
476.0,179.7,176.9,173.1,176.6,3.3
477.75,181.7,175.5,170.7,176.0,5.5
479.5,179.2,177.0,172.7,176.3,3.3
481.25,180.7,178.1,170.7,176.5,5.2
483.0,177.4,176.5,172.4,175.5,2.7
484.75,181.5,172.8,171.2,175.2,5.5
486.5,180.5,172.8,172.9,175.4,4.4
488.25,180.3,174.3,168.7,174.5,5.8
490.0,183.1,176.6,171.6,177.1,5.7
491.75,178.7,177.4,171.6,175.9,3.8
493.5,180.3,175.9,174.4,176.9,3.1
495.25,180.9,174.0,172.8,175.9,4.4
497.0,179.5,172.9,174.7,175.7,3.4
498.75,179.8,173.9,175.2,176.3,3.1
500.5,181.8,173.6,174.6,176.7,4.5
502.25,176.7,176.0,175.1,176.0,0.8
504.0,178.6,172.1,175.4,175.4,3.2
505.75,179.4,173.4,173.3,175.3,3.5
507.5,178.4,173.0,177.6,176.3,2.9
509.25,178.3,175.0,178.7,177.3,2.0
511.0,178.5,176.0,177.2,177.2,1.2
512.75,177.6,177.1,177.6,177.4,0.3
514.5,178.4,173.1,178.5,176.7,3.1
516.25,180.0,174.2,181.6,178.6,3.9
518.0,179.5,172.4,179.1,177.0,4.0
519.75,178.9,177.1,179.6,178.5,1.3
521.5,181.1,176.1,183.5,180.3,3.8
523.25,175.9,175.2,180.0,177.0,2.6
525.0,176.7,177.6,183.0,179.1,3.4
526.75,178.3,174.7,182.1,178.4,3.7
528.5,177.4,177.1,182.3,178.9,2.9
530.25,176.4,179.0,183.6,179.7,3.6
532.0,176.9,175.4,180.9,177.7,2.9
533.75,177.0,177.5,181.5,178.7,2.4
535.5,174.6,175.8,184.9,178.4,5.6
537.25,178.2,177.6,185.4,180.4,4.3
539.0,177.3,180.4,185.0,180.9,3.9
540.75,177.2,176.0,183.1,178.8,3.8
542.5,175.5,179.9,182.9,179.5,3.7
544.25,178.1,181.1,184.3,181.2,3.1
546.0,180.5,179.0,183.7,181.0,2.4
547.75,177.7,181.1,182.1,180.3,2.3
549.5,176.2,181.0,184.7,180.6,4.3
551.25,181.8,179.3,182.4,181.2,1.6
553.0,178.5,182.7,188.4,183.2,5.0
554.75,177.9,180.6,184.5,181.0,3.3
556.5,179.1,180.5,184.0,181.2,2.5
558.25,179.0,179.3,182.2,180.2,1.7
560.0,179.0,175.9,185.7,180.2,5.0
561.75,180.2,179.9,183.2,181.1,1.8
563.5,181.7,176.7,183.9,180.7,3.7
565.25,182.8,178.6,185.5,182.3,3.4
567.0,181.0,179.0,184.1,181.4,2.6
568.75,179.4,180.4,183.8,181.2,2.3
570.5,184.1,179.9,185.9,183.3,3.1
572.25,180.2,179.6,184.2,181.3,2.5
574.0,179.3,177.3,184.3,180.3,3.6
575.75,182.3,176.9,185.0,181.4,4.1
577.5,180.9,179.9,182.9,181.3,1.5
579.25,180.3,178.8,185.7,181.6,3.6
581.0,182.2,178.0,184.8,181.7,3.4
582.75,185.8,179.8,187.1,184.3,3.9
584.5,180.6,180.5,187.1,182.7,3.8
586.25,181.7,182.0,184.7,182.8,1.7
588.0,184.4,180.7,186.8,184.0,3.0
589.75,182.4,180.6,187.3,183.4,3.4
591.5,183.8,180.3,186.1,183.4,2.9
593.25,181.9,183.4,186.9,184.1,2.6
595.0,180.9,183.7,188.4,184.3,3.8
596.75,181.0,183.1,186.9,183.7,3.0
598.5,184.4,182.2,185.4,184.0,1.6
600.25,184.2,182.0,186.7,184.3,2.4
602.0,184.2,179.4,188.1,183.9,4.4
603.75,184.3,181.3,186.8,184.1,2.8
605.5,181.3,179.3,187.7,182.8,4.4
607.25,182.6,180.8,187.7,183.7,3.6
609.0,181.1,180.9,186.0,182.7,2.9
610.75,183.5,184.5,184.9,184.3,0.8
612.5,185.2,185.0,187.7,186.0,1.5
614.25,183.4,182.9,187.5,184.6,2.5
616.0,181.5,181.6,189.3,184.2,4.5
617.75,186.9,184.6,190.6,187.4,3.0
619.5,183.8,181.0,187.2,184.0,3.1
621.25,184.0,179.3,190.9,184.7,5.8
623.0,187.5,182.3,190.2,186.7,4.0
624.75,184.8,184.0,189.8,186.2,3.1
626.5,184.8,181.8,192.4,186.3,5.4
628.25,182.1,180.6,188.8,183.8,4.3
630.0,182.3,181.6,189.2,184.4,4.2
631.75,184.7,180.9,189.3,185.0,4.2
633.5,184.0,181.4,189.0,184.8,3.9
635.25,186.2,181.3,189.2,185.5,4.0
637.0,184.9,180.8,192.1,185.9,5.7
638.75,188.5,179.9,190.8,186.4,5.8
640.5,181.5,179.5,188.7,183.2,4.8
642.25,184.1,183.1,189.5,185.6,3.4
644.0,184.0,180.4,187.1,183.8,3.3
645.75,185.5,183.1,185.2,184.6,1.3
647.5,180.6,183.5,189.4,184.5,4.5
649.25,183.9,178.7,190.5,184.4,6.0
651.0,182.5,181.9,191.8,185.4,5.6
652.75,185.4,181.5,191.6,186.2,5.1
654.5,183.5,186.6,188.6,186.3,2.6
656.25,184.6,185.7,190.1,186.8,2.9
658.0,187.6,183.3,190.1,187.0,3.4
659.75,184.1,184.7,191.0,186.6,3.9
661.5,189.1,185.2,188.4,187.6,2.1
663.25,183.4,182.3,186.8,184.2,2.4
665.0,183.6,184.0,192.2,186.6,4.9
666.75,184.0,181.3,192.8,186.0,6.0
668.5,189.0,180.5,189.9,186.5,5.2
670.25,186.4,181.7,188.8,185.6,3.6
672.0,185.4,182.7,188.1,185.4,2.7
673.75,185.3,182.9,188.2,185.5,2.6
675.5,187.9,184.4,187.4,186.6,1.9
677.25,185.0,180.0,190.4,185.1,5.2
679.0,186.6,181.2,191.2,186.3,5.0
680.75,187.6,179.6,190.2,185.8,5.5
682.5,187.9,181.9,189.0,186.3,3.8
684.25,186.6,179.9,192.7,186.4,6.4
686.0,187.1,182.8,194.1,188.0,5.7
687.75,185.0,184.2,190.8,186.7,3.6
689.5,186.1,184.6,193.8,188.1,4.9
691.25,185.9,183.2,189.3,186.1,3.0
693.0,188.3,185.7,191.3,188.4,2.8
694.75,184.4,184.2,190.0,186.2,3.3
696.5,183.5,186.0,191.2,186.9,3.9
698.25,187.8,185.0,190.2,187.7,2.6
700.0,186.2,183.4,190.3,186.6,3.5
701.75,184.0,184.3,191.8,186.7,4.4
703.5,186.5,183.7,193.6,187.9,5.1
705.25,188.8,184.1,190.0,187.6,3.1
707.0,187.1,185.1,192.8,188.4,4.0
708.75,190.0,182.3,190.3,187.5,4.6
710.5,186.2,184.1,189.4,186.6,2.7
712.25,189.2,185.2,191.2,188.5,3.1
714.0,188.6,188.3,190.2,189.0,1.0
715.75,190.3,188.3,192.4,190.3,2.1
717.5,185.7,187.4,194.4,189.2,4.6
719.25,190.3,187.3,191.4,189.7,2.1
721.0,189.9,186.8,191.0,189.2,2.2
722.75,186.2,187.6,193.6,189.1,3.9
724.5,184.9,187.1,191.0,187.7,3.1
726.25,188.4,185.7,192.9,189.0,3.6
728.0,189.0,186.1,193.1,189.4,3.5
729.75,189.9,185.5,191.9,189.1,3.3
731.5,185.4,186.9,194.8,189.0,5.0
733.25,188.3,188.7,191.7,189.5,1.8
735.0,187.3,184.0,196.6,189.3,6.6
736.75,190.1,185.9,193.5,189.8,3.8
738.5,188.5,185.5,189.6,187.8,2.1
740.25,187.8,183.4,188.7,186.7,2.9
742.0,191.6,184.9,189.4,188.6,3.4
743.75,191.2,186.8,189.8,189.3,2.2
745.5,191.1,183.2,190.1,188.1,4.3
747.25,191.3,188.8,189.7,189.9,1.3
749.0,189.7,186.0,188.2,188.0,1.9
750.75,192.4,187.1,188.3,189.3,2.8
752.5,190.5,190.1,190.8,190.5,0.3
754.25,191.3,186.6,188.3,188.7,2.4
756.0,191.2,188.9,188.0,189.3,1.7
757.75,192.0,184.8,190.6,189.1,3.8
759.5,192.7,188.0,187.9,189.5,2.7
761.25,191.1,188.2,192.0,190.4,2.0
763.0,192.9,189.4,188.1,190.2,2.5
764.75,192.0,187.8,187.0,189.0,2.7
766.5,191.7,187.9,190.8,190.1,2.0
768.25,192.6,184.6,193.4,190.2,4.9
770.0,189.1,190.7,189.2,189.6,0.9
771.75,192.7,192.8,189.7,191.7,1.8
773.5,189.6,188.3,192.4,190.1,2.1
775.25,190.4,185.9,188.1,188.1,2.2
777.0,191.2,190.1,189.3,190.2,1.0
778.75,191.1,187.5,192.7,190.4,2.7
780.5,190.2,191.2,189.4,190.3,0.9
782.25,191.1,188.3,190.5,190.0,1.5
784.0,190.6,189.4,187.6,189.2,1.5
785.75,189.3,190.6,190.1,190.0,0.7
787.5,194.0,188.5,191.7,191.4,2.8
789.25,190.2,191.2,190.2,190.5,0.6
791.0,192.1,188.9,189.7,190.2,1.7
792.75,191.5,188.1,187.2,188.9,2.3
794.5,186.2,189.7,188.7,188.2,1.8
796.25,188.8,189.4,192.1,190.1,1.8
798.0,187.6,190.0,189.7,189.1,1.3
799.75,187.6,190.6,190.6,189.6,1.7
801.5,189.2,187.9,191.1,189.4,1.6
803.25,189.5,188.7,194.5,190.9,3.2
805.0,191.3,188.5,188.7,189.5,1.5
806.75,191.5,185.0,188.2,188.2,3.2
808.5,189.3,191.2,188.7,189.7,1.3
810.25,193.8,186.9,192.6,191.1,3.7
812.0,191.8,185.0,190.9,189.2,3.7
813.75,187.8,186.0,186.9,186.9,0.9
815.5,190.9,186.8,190.7,189.5,2.3
817.25,191.0,190.6,187.4,189.7,2.0
819.0,187.9,187.1,189.5,188.2,1.2
820.75,187.8,188.3,189.0,188.3,0.6
822.5,189.5,185.6,186.0,187.0,2.1
824.25,187.9,187.5,188.9,188.1,0.7
826.0,186.6,190.4,189.9,188.9,2.0
827.75,188.6,188.8,185.5,187.6,1.8
829.5,189.4,188.2,185.2,187.6,2.2
831.25,188.6,189.1,188.6,188.8,0.3
833.0,189.2,188.5,189.7,189.1,0.6
834.75,188.8,188.1,187.3,188.1,0.8
836.5,191.1,187.4,190.5,189.7,1.9
838.25,189.0,192.1,186.7,189.3,2.7
840.0,193.1,187.0,184.3,188.1,4.5
841.75,191.9,188.7,189.4,190.0,1.7
843.5,187.8,186.7,187.7,187.4,0.6
845.25,189.2,188.6,188.6,188.8,0.3
847.0,192.8,193.4,189.8,192.0,1.9
848.75,190.8,187.3,189.6,189.2,1.8
850.5,193.2,189.8,190.3,191.1,1.8
852.25,193.1,191.0,191.4,191.8,1.1
854.0,192.1,192.2,190.2,191.5,1.1
855.75,194.6,194.5,190.4,193.1,2.4
857.5,193.9,190.7,191.5,192.0,1.7
859.25,193.1,194.1,189.7,192.3,2.3
861.0,191.7,186.5,190.7,189.6,2.8
862.75,193.2,189.6,187.2,190.0,3.0
864.5,192.6,191.9,190.9,191.8,0.9
866.25,190.5,187.8,191.0,189.7,1.7
868.0,194.9,190.1,190.8,191.9,2.6
869.75,190.9,188.0,191.7,190.2,2.0
871.5,189.4,190.1,190.6,190.0,0.6
873.25,190.6,190.1,191.5,190.7,0.7
875.0,190.7,189.7,187.7,189.4,1.5
876.75,194.1,190.2,189.1,191.1,2.6
878.5,191.5,191.9,188.7,190.7,1.7
880.25,192.8,190.4,190.7,191.3,1.3
882.0,192.6,188.2,188.8,189.9,2.4
883.75,192.8,187.9,186.4,189.0,3.3
885.5,191.5,191.6,188.9,190.6,1.5
887.25,190.8,188.3,188.2,189.1,1.5
889.0,188.6,192.5,188.2,189.8,2.4
890.75,192.0,191.5,186.8,190.1,2.9
892.5,190.6,189.2,188.2,189.3,1.2
894.25,190.0,192.7,189.5,190.7,1.7
896.0,195.0,191.9,186.8,191.2,4.1
897.75,190.1,193.4,187.1,190.2,3.2
899.5,193.8,190.6,185.6,190.0,4.2
901.25,194.5,190.5,192.5,192.5,2.0
903.0,193.5,192.0,183.4,189.6,5.5
904.75,194.6,193.0,184.7,190.8,5.3
906.5,192.4,190.9,188.0,190.5,2.2
908.25,195.5,193.7,185.6,191.6,5.3
910.0,190.7,193.5,180.4,188.2,6.9
911.75,191.2,196.8,183.3,190.4,6.8
913.5,192.7,198.4,185.7,192.3,6.4
915.25,190.4,193.0,185.4,189.6,3.9
917.0,190.9,190.8,185.0,188.9,3.4
918.75,189.7,192.8,184.4,189.0,4.3
920.5,194.8,190.5,183.1,189.4,5.9
922.25,190.8,189.6,182.7,187.7,4.3
924.0,190.9,190.6,181.5,187.7,5.4
925.75,192.2,190.0,182.9,188.4,4.9
927.5,196.1,190.6,182.2,189.6,7.0
929.25,196.6,189.4,181.3,189.1,7.6
931.0,191.9,192.9,185.9,190.2,3.8
932.75,190.7,190.6,180.0,187.1,6.2
934.5,191.9,194.1,185.3,190.4,4.6
936.25,192.3,191.3,183.8,189.1,4.6
938.0,194.1,191.9,182.0,189.4,6.4
939.75,192.6,197.2,182.4,190.7,7.6
941.5,196.7,191.4,181.4,189.9,7.8
943.25,194.1,192.3,183.0,189.8,6.0
945.0,191.9,190.8,180.8,187.8,6.1
946.75,192.6,191.2,177.6,187.2,8.3
948.5,192.1,190.9,181.6,188.2,5.8
950.25,187.7,187.6,181.5,185.6,3.6
952.0,191.3,191.4,182.6,188.4,5.1
953.75,192.1,196.0,181.4,189.8,7.5
955.5,192.5,192.4,180.4,188.5,6.9
957.25,192.1,192.1,182.7,189.0,5.4
959.0,195.5,189.7,180.3,188.5,7.6
960.75,191.8,193.9,178.6,188.1,8.2
962.5,193.6,193.4,180.9,189.3,7.3
964.25,194.3,191.1,181.6,189.0,6.6
966.0,194.4,191.9,177.4,187.9,9.2
967.75,190.7,193.1,182.2,188.7,5.7
969.5,195.1,192.6,184.6,190.7,5.5
971.25,193.7,188.7,178.7,187.1,7.6
973.0,190.5,193.4,181.1,188.3,6.4
974.75,198.2,192.0,179.7,190.0,9.4
976.5,190.2,191.1,179.7,187.0,6.3
978.25,191.3,191.3,179.8,187.5,6.6
980.0,191.9,195.4,180.1,189.1,8.0
981.75,191.0,194.7,181.0,188.9,7.1
983.5,193.2,192.5,178.3,188.0,8.4
985.25,188.9,191.1,176.2,185.4,8.0
987.0,193.9,189.2,179.9,187.7,7.2
988.75,189.9,194.5,180.0,188.1,7.4
990.5,192.2,195.2,179.5,189.0,8.3
992.25,191.9,192.5,175.6,186.7,9.6
994.0,192.6,193.6,178.1,188.1,8.7
995.75,190.3,194.0,176.6,186.9,9.2
997.5,190.3,196.1,177.6,188.0,9.5
999.25,191.3,195.5,175.4,187.4,10.6
1001.0,192.1,193.0,177.4,187.5,8.8
1002.75,195.5,189.5,176.8,187.3,9.5
1004.5,193.4,189.5,176.2,186.3,9.0
1006.25,193.8,188.8,177.1,186.6,8.6
1008.0,192.8,190.9,177.1,186.9,8.6
1009.75,190.8,191.1,175.7,185.9,8.8
1011.5,192.0,189.9,178.5,186.8,7.3
1013.25,192.9,192.4,176.9,187.4,9.1
1015.0,189.0,187.2,178.8,185.0,5.5
1016.75,193.3,188.5,176.7,186.2,8.6
1018.5,195.4,192.0,175.5,187.6,10.6
1020.25,194.8,187.9,176.5,186.4,9.2
1022.0,192.9,186.7,176.8,185.5,8.1
1023.75,188.6,192.8,175.9,185.8,8.8
1025.5,191.0,187.7,179.5,186.1,5.9
1027.25,191.5,192.5,176.1,186.7,9.2
1029.0,189.2,191.6,179.3,186.7,6.5
1030.75,190.7,187.8,175.1,184.6,8.3
1032.5,189.6,187.3,178.2,185.0,6.0
1034.25,190.8,187.5,177.4,185.2,7.0
1036.0,189.8,187.6,175.6,184.3,7.7
1037.75,192.3,188.5,173.3,184.7,10.0
1039.5,193.8,189.2,173.6,185.5,10.6
1041.25,192.4,192.0,173.6,186.0,10.8
1043.0,191.9,187.1,173.5,184.2,9.6
1044.75,192.2,185.8,173.3,183.7,9.6
1046.5,193.7,184.2,172.0,183.3,10.9
1048.25,189.2,184.2,174.8,182.8,7.3
1050.0,188.2,188.0,175.3,183.8,7.4
1051.75,191.8,185.3,172.3,183.2,9.9
1053.5,192.8,185.3,172.9,183.7,10.0
1055.25,192.4,186.2,169.6,182.7,11.8
1057.0,193.3,183.9,172.0,183.1,10.7
1058.75,189.7,186.1,174.2,183.3,8.1
1060.5,190.3,188.1,174.2,184.2,8.7
1062.25,191.6,189.1,172.2,184.3,10.6
1064.0,192.5,187.6,169.9,183.3,11.9
1065.75,193.7,188.9,173.4,185.4,10.6
1067.5,191.9,186.5,169.4,182.6,11.7
1069.25,191.7,188.2,171.7,183.9,10.7
1071.0,191.5,186.8,173.6,184.0,9.3
1072.75,189.9,185.7,171.3,182.3,9.7
1074.5,189.2,186.3,172.4,182.6,9.0
1076.25,190.4,187.3,167.1,181.6,12.7
1078.0,192.5,187.1,167.1,182.2,13.4
1079.75,188.7,187.3,169.4,181.8,10.8
1081.5,188.2,183.8,169.9,180.6,9.5
1083.25,190.4,184.7,169.3,181.4,10.9
1085.0,191.7,186.8,167.9,182.1,12.6
1086.75,190.3,186.5,172.9,183.2,9.2
1088.5,190.2,188.5,168.2,182.3,12.2
1090.25,189.9,186.1,167.8,181.3,11.8
1092.0,187.6,190.4,171.3,183.1,10.3
1093.75,188.0,184.6,171.3,181.3,8.8
1095.5,189.0,184.9,170.8,181.6,9.6
1097.25,192.3,188.0,170.1,183.5,11.8
1099.0,189.1,183.6,171.2,181.3,9.2
1100.75,188.4,187.6,169.8,181.9,10.5
1102.5,189.3,185.7,169.1,181.4,10.8
1104.25,188.2,190.1,168.7,182.3,11.8
1106.0,184.1,186.2,170.4,180.3,8.6
1107.75,188.6,184.6,172.1,181.8,8.6
1109.5,186.9,186.1,171.1,181.4,8.9
1111.25,186.5,187.4,171.7,181.9,8.8
1113.0,188.5,184.1,169.3,180.6,10.0
1114.75,188.7,183.3,167.9,180.0,10.8
1116.5,184.6,185.6,171.3,180.5,8.0
1118.25,186.3,186.8,165.6,179.5,12.1
1120.0,186.2,186.7,169.9,180.9,9.6
1121.75,183.3,184.9,166.9,178.4,10.0
1123.5,184.7,185.6,167.7,179.3,10.1
1125.25,186.3,186.8,168.7,180.6,10.3
1127.0,182.9,189.5,167.2,179.9,11.5
1128.75,184.8,183.9,165.0,177.9,11.2
1130.5,182.7,185.9,168.8,179.1,9.1
1132.25,183.7,184.3,166.9,178.3,9.9
1134.0,184.5,183.5,166.4,178.1,10.1
1135.75,185.9,187.9,168.7,180.8,10.6
1137.5,188.5,183.5,164.8,179.0,12.5
1139.25,181.9,183.9,162.2,176.0,12.0
1141.0,184.3,184.9,164.5,177.9,11.6
1142.75,180.5,185.4,165.5,177.1,10.4
1144.5,181.5,182.2,163.2,175.6,10.8
1146.25,184.7,183.6,165.6,178.0,10.7
1148.0,179.3,179.7,161.8,173.6,10.2
1149.75,179.5,179.8,162.9,174.1,9.6
1151.5,182.2,181.0,165.9,176.4,9.1
1153.25,179.6,180.2,165.0,174.9,8.6
1155.0,179.5,179.7,166.4,175.2,7.6
1156.75,183.1,181.8,163.7,176.2,10.8
1158.5,181.6,182.9,163.9,176.1,10.6
1160.25,177.5,181.1,165.8,174.8,8.0
1162.0,179.4,182.2,162.7,174.8,10.6
1163.75,181.4,182.3,163.1,175.6,10.8
1165.5,182.0,181.8,164.0,175.9,10.4
1167.25,182.1,176.1,163.2,173.8,9.7
1169.0,180.1,179.1,164.8,174.7,8.6
1170.75,183.4,180.5,165.4,176.4,9.7
1172.5,180.1,181.3,160.5,174.0,11.7
1174.25,183.2,177.5,164.1,174.9,9.8
1176.0,182.1,179.5,163.7,175.1,10.0
1177.75,181.5,178.9,160.7,173.7,11.3
1179.5,181.9,175.6,162.1,173.2,10.1
1181.25,180.2,181.0,160.7,174.0,11.5
1183.0,179.1,177.9,160.5,172.5,10.4
1184.75,179.4,181.2,162.5,174.4,10.3
1186.5,178.7,175.9,157.4,170.7,11.6
1188.25,180.2,174.2,160.7,171.7,10.0
1190.0,182.6,177.0,158.8,172.8,12.5
1191.75,180.2,176.7,157.7,171.5,12.1
1193.5,178.6,176.4,156.5,170.5,12.2
1195.25,180.4,177.6,157.6,171.8,12.4
1197.0,179.4,178.8,157.7,172.0,12.3
1198.75,181.3,176.5,160.1,172.6,11.1
1200.5,179.4,177.6,157.0,171.3,12.5
1202.25,179.2,175.7,156.7,170.6,12.1
1204.0,177.6,174.7,159.4,170.6,9.8
1205.75,176.1,171.6,158.0,168.6,9.4
1207.5,178.2,173.7,159.7,170.5,9.6
1209.25,175.5,174.6,156.7,168.9,10.6
1211.0,174.0,173.1,156.9,168.0,9.6
1212.75,174.6,175.6,156.8,169.0,10.6
1214.5,176.8,171.6,154.9,167.8,11.5
1216.25,172.0,176.2,158.3,168.9,9.4
1218.0,173.2,173.3,156.4,167.6,9.7
1219.75,177.3,170.9,158.5,168.9,9.6
1221.5,176.3,174.2,155.2,168.5,11.6
1223.25,174.0,172.2,156.2,167.5,9.8
1225.0,174.7,170.8,155.4,167.0,10.2
1226.75,176.7,171.2,155.6,167.8,11.0
1228.5,172.2,170.7,154.5,165.8,9.8
1230.25,172.3,170.8,153.6,165.6,10.4
1232.0,173.8,171.1,154.1,166.3,10.7
1233.75,173.2,173.1,154.6,167.0,10.7
1235.5,171.3,173.3,154.0,166.2,10.6
1237.25,172.4,173.6,155.6,167.2,10.0
1239.0,173.5,172.8,152.4,166.2,12.0
1240.75,172.9,170.3,152.9,165.4,10.8
1242.5,176.1,173.6,152.9,167.5,12.7
1244.25,177.6,173.8,152.5,168.0,13.6
1246.0,175.4,173.1,152.4,167.0,12.6
1247.75,172.7,171.0,154.8,166.2,9.9
1249.5,173.5,173.9,153.0,166.8,12.0
1251.25,171.4,171.4,152.3,165.0,11.1
1253.0,172.6,168.4,154.4,165.1,9.6
1254.75,171.6,170.6,153.5,165.2,10.2
1256.5,172.3,169.2,155.5,165.7,8.9
1258.25,171.2,171.0,155.0,165.7,9.3
1260.0,171.1,166.9,154.8,164.3,8.5
1261.75,171.9,167.7,151.7,163.8,10.7
1263.5,170.0,165.4,155.4,163.6,7.5
1265.25,167.4,169.3,153.3,163.3,8.7
1267.0,171.6,165.4,152.7,163.2,9.6
1268.75,167.7,165.7,155.1,162.8,6.8
1270.5,170.5,167.7,154.6,164.3,8.5
1272.25,171.1,169.0,155.4,165.2,8.5
1274.0,169.3,165.6,152.8,162.6,8.7
1275.75,171.8,165.3,154.2,163.8,8.9
1277.5,169.0,164.6,155.7,163.1,6.8
1279.25,168.7,164.4,152.6,161.9,8.3
1281.0,168.8,166.3,152.1,162.4,9.0
1282.75,167.3,165.8,150.7,161.2,9.2
1284.5,166.5,164.3,153.2,161.3,7.1
1286.25,168.9,164.2,152.5,161.9,8.4
1288.0,166.2,164.3,153.7,161.4,6.8
1289.75,168.9,161.4,151.1,160.4,8.9
1291.5,168.3,164.6,153.9,162.3,7.5
1293.25,167.0,166.2,154.6,162.6,7.0
1295.0,165.6,164.8,151.6,160.7,7.9
1296.75,168.4,164.6,151.2,161.4,9.1
1298.5,168.0,163.5,150.7,160.7,8.9
1300.25,165.8,160.9,152.4,159.7,6.8
1302.0,164.6,162.4,153.6,160.2,5.8
1303.75,164.1,162.5,152.8,159.8,6.1
1305.5,164.3,162.1,150.3,158.9,7.5
1307.25,164.9,158.2,153.2,158.8,5.9
1309.0,166.3,163.1,151.8,160.4,7.6
1310.75,165.9,163.3,150.1,159.8,8.5
1312.5,167.4,162.3,155.3,161.7,6.1
1314.25,166.5,163.1,152.8,160.8,7.2
1316.0,165.6,162.7,153.4,160.5,6.4
1317.75,164.6,164.8,150.0,159.8,8.5
1319.5,166.6,159.8,149.4,158.6,8.7
1321.25,167.4,158.5,149.0,158.3,9.2
1323.0,166.7,162.7,151.6,160.3,7.8
1324.75,167.7,159.8,152.4,160.0,7.6
1326.5,165.9,158.9,148.5,157.8,8.8
1328.25,166.8,158.7,148.7,158.1,9.1
1330.0,163.7,160.2,148.1,157.3,8.2
1331.75,165.2,157.1,151.4,157.9,7.0
1333.5,165.5,160.1,149.9,158.5,7.9
1335.25,166.4,159.7,152.0,159.4,7.2
1337.0,164.7,161.2,151.5,159.1,6.8
1338.75,164.3,158.4,147.0,156.6,8.8
1340.5,163.6,158.3,145.5,155.8,9.3
1342.25,164.3,157.1,146.9,156.1,8.8
1344.0,163.4,157.8,146.7,156.0,8.5
1345.75,163.9,153.7,145.8,154.5,9.1
1347.5,162.0,155.5,148.6,155.4,6.7
1349.25,163.8,158.8,148.0,156.9,8.1
1351.0,160.4,155.3,144.2,153.3,8.3
1352.75,159.8,157.3,146.3,154.5,7.2
1354.5,165.1,151.9,145.7,154.2,9.9
1356.25,161.8,155.5,145.1,154.1,8.5
1358.0,161.0,153.1,144.1,152.7,8.5
1359.75,163.9,156.0,145.4,155.1,9.3
1361.5,159.3,155.7,143.9,153.0,8.0
1363.25,160.2,153.2,146.3,153.2,7.0
1365.0,159.3,153.8,146.1,153.1,6.6
1366.75,160.8,152.7,145.9,153.1,7.4
1368.5,158.8,154.4,145.8,153.0,6.6
1370.25,159.5,155.5,145.3,153.5,7.3
1372.0,160.2,152.4,144.5,152.4,7.9
1373.75,157.8,157.2,146.2,153.7,6.5
1375.5,159.4,153.4,143.5,152.1,8.0
1377.25,159.0,154.3,146.0,153.1,6.6
1379.0,158.4,155.5,145.7,153.2,6.7
1380.75,157.2,153.4,146.0,152.2,5.7
1382.5,158.6,154.7,145.4,152.9,6.8
1384.25,160.2,154.8,146.6,153.9,6.8
1386.0,156.7,153.8,143.5,151.3,6.9
1387.75,157.0,154.5,144.3,151.9,6.7
1389.5,156.7,151.9,145.7,151.4,5.5
1391.25,157.4,153.1,143.2,151.2,7.3
1393.0,156.7,149.3,146.1,150.7,5.4
1394.75,157.8,150.5,144.9,151.1,6.4
1396.5,156.2,147.2,144.7,149.4,6.0
1398.25,156.1,151.4,142.2,149.9,7.0
1400.0,154.6,148.5,144.8,149.3,4.9
1401.75,154.2,147.0,143.8,148.3,5.4
1403.5,154.7,148.9,141.2,148.3,6.8
1405.25,156.1,145.6,140.5,147.4,8.0
1407.0,154.9,145.5,141.8,147.4,6.7
1408.75,153.1,147.0,141.5,147.2,5.8
1410.5,154.3,147.8,141.3,147.8,6.5
1412.25,155.0,144.7,141.0,146.9,7.3
1414.0,158.5,145.2,140.0,147.9,9.5
1415.75,157.1,144.4,139.2,146.9,9.2
1417.5,154.1,147.0,141.8,147.6,6.2
1419.25,154.8,146.4,140.1,147.1,7.4
1421.0,154.0,145.6,140.1,146.6,7.0
1422.75,155.5,146.0,140.4,147.3,7.6
1424.5,153.1,142.5,140.4,145.3,6.8
1426.25,152.9,144.4,140.2,145.9,6.5
1428.0,152.8,144.6,142.5,146.7,5.5
1429.75,151.8,147.7,143.0,147.5,4.4
1431.5,152.2,142.9,142.3,145.8,5.5
1433.25,152.6,141.0,141.4,145.0,6.6
1435.0,152.9,142.2,139.5,144.9,7.1
1436.75,151.4,143.9,138.6,144.6,6.4
1438.5,150.4,142.2,138.7,143.7,6.0
1440.25,151.1,142.0,140.2,144.4,5.9
1442.0,150.5,141.3,141.3,144.4,5.3
1443.75,149.3,142.0,140.0,143.8,4.9
1445.5,150.9,139.3,137.1,142.4,7.4
1447.25,148.8,139.9,137.0,141.9,6.2
1449.0,146.0,138.9,138.8,141.2,4.1
1450.75,146.8,138.9,136.8,140.9,5.3
1452.5,144.7,140.8,137.5,141.0,3.6
1454.25,149.6,137.8,138.4,142.0,6.6
1456.0,148.2,139.1,136.7,141.3,6.1
1457.75,145.6,141.4,135.4,140.8,5.1
1459.5,148.0,140.9,137.4,142.1,5.4
1461.25,146.3,141.5,134.6,140.8,5.9
1463.0,146.6,139.5,136.6,140.9,5.1
1464.75,145.2,138.9,138.4,140.8,3.8
1466.5,144.1,139.6,136.4,140.0,3.8
1468.25,146.1,139.8,133.8,139.9,6.1
1470.0,145.3,142.2,136.0,141.1,4.7
1471.75,143.0,139.8,132.9,138.6,5.2
1473.5,143.6,139.1,133.4,138.7,5.1
1475.25,144.1,139.8,131.9,138.6,6.2
1477.0,144.5,139.9,132.3,138.9,6.2
1478.75,145.1,139.7,130.4,138.4,7.4
1480.5,146.0,138.7,132.5,139.1,6.8
1482.25,144.1,136.9,132.1,137.7,6.0
1484.0,144.4,136.1,131.0,137.2,6.8
1485.75,142.5,135.6,132.6,136.9,5.0
1487.5,141.5,136.3,131.4,136.4,5.1
1489.25,140.9,136.6,131.7,136.4,4.6
1491.0,141.5,136.8,133.0,137.1,4.2
1492.75,139.0,135.8,130.0,135.0,4.6
1494.5,143.2,136.7,130.8,136.9,6.2
1496.25,141.5,134.7,129.6,135.3,6.0
1498.0,138.8,134.4,130.9,134.7,4.0
1499.75,140.6,136.9,130.1,135.9,5.4
1501.5,139.3,135.3,130.4,135.0,4.5
1503.25,139.4,134.9,131.7,135.3,3.8
1505.0,137.9,135.9,132.5,135.4,2.7
1506.75,137.5,134.2,130.0,133.9,3.7
1508.5,139.8,135.7,129.6,135.1,5.1
1510.25,138.0,134.9,128.0,133.6,5.1
1512.0,137.9,133.5,127.8,133.0,5.1
1513.75,137.2,132.1,127.5,132.3,4.8
1515.5,136.0,132.9,127.4,132.1,4.3
1517.25,139.1,132.3,128.8,133.4,5.3
1519.0,137.2,133.6,126.1,132.3,5.7
1520.75,135.6,134.8,127.4,132.6,4.6
1522.5,137.3,131.3,126.9,131.8,5.2
1524.25,137.6,133.4,125.9,132.3,5.9
1526.0,134.9,131.9,127.0,131.3,4.0
1527.75,135.8,131.6,128.5,132.0,3.6
1529.5,136.1,131.5,128.2,132.0,4.0
1531.25,133.9,130.6,126.0,130.2,3.9
1533.0,136.0,130.1,124.7,130.2,5.7
1534.75,132.0,131.2,127.3,130.2,2.5
1536.5,134.6,130.0,124.4,129.6,5.1
1538.25,133.5,131.3,125.0,129.9,4.4
1540.0,134.2,131.8,123.7,129.9,5.5
1541.75,132.8,129.3,123.8,128.6,4.5
1543.5,134.8,128.8,123.8,129.1,5.5
1545.25,132.5,130.8,123.8,129.1,4.6
1547.0,132.6,131.1,122.2,128.7,5.6
1548.75,133.0,131.3,123.5,129.3,5.0
1550.5,132.7,131.7,121.4,128.6,6.3
1552.25,133.6,131.1,122.4,129.0,5.9
1554.0,133.4,129.9,121.5,128.2,6.1
1555.75,133.4,129.2,121.1,127.9,6.2
1557.5,133.5,128.2,121.5,127.7,6.0
1559.25,133.8,130.8,123.3,129.3,5.4
1561.0,132.5,129.3,124.8,128.9,3.9
1562.75,134.0,129.6,123.9,129.2,5.1
1564.5,134.1,129.9,122.8,128.9,5.7
1566.25,132.7,128.3,122.5,127.8,5.1
1568.0,133.0,128.6,123.2,128.3,4.9
1569.75,131.1,128.7,121.7,127.2,4.9
1571.5,131.1,128.8,122.3,127.4,4.6
1573.25,129.1,127.7,119.8,125.5,5.0
1575.0,129.0,128.0,120.9,126.0,4.4
1576.75,130.0,128.2,120.3,126.2,5.2
1578.5,127.2,127.7,119.5,124.8,4.6
1580.25,128.6,129.3,120.9,126.3,4.7
1582.0,129.6,127.2,119.0,125.3,5.6
1583.75,129.1,127.8,119.9,125.6,4.9
1585.5,132.3,125.0,119.8,125.7,6.3
1587.25,131.4,128.6,120.2,126.8,5.8
1589.0,130.3,128.8,119.6,126.2,5.8
1590.75,130.8,127.5,119.5,125.9,5.8
1592.5,129.1,129.5,120.6,126.4,5.0
1594.25,129.5,128.0,118.1,125.2,6.2
1596.0,127.7,127.0,117.4,124.1,5.8
1597.75,128.2,126.0,116.1,123.4,6.5
1599.5,126.3,127.4,117.0,123.6,5.7
1601.25,127.7,128.4,118.3,124.8,5.6
1603.0,127.4,125.8,116.1,123.1,6.1
1604.75,128.2,127.7,116.2,124.1,6.8
1606.5,127.5,127.4,118.2,124.4,5.4
1608.25,128.2,126.5,114.7,123.2,7.4
1610.0,126.9,125.8,117.3,123.3,5.3
1611.75,129.5,129.3,115.4,124.7,8.1
1613.5,127.7,128.3,115.2,123.8,7.4
1615.25,125.6,125.6,114.0,121.7,6.7
1617.0,125.8,126.9,112.4,121.7,8.1
1618.75,126.6,125.9,115.2,122.6,6.4
1620.5,128.0,127.3,115.3,123.5,7.1
1622.25,124.5,123.9,115.1,121.2,5.2
1624.0,127.6,125.2,116.1,122.9,6.1
1625.75,126.3,124.5,114.9,121.9,6.1
1627.5,124.7,124.1,114.3,121.0,5.9
1629.25,125.6,125.3,113.2,121.4,7.0
1631.0,125.8,124.1,113.1,121.0,6.9
1632.75,124.3,125.3,115.3,121.6,5.5
1634.5,125.0,123.7,115.3,121.4,5.3
1636.25,123.9,125.2,116.9,122.0,4.4
1638.0,127.4,123.3,115.8,122.2,5.9
1639.75,125.3,125.0,115.5,121.9,5.6
1641.5,125.0,124.9,113.1,121.0,6.8
1643.25,121.9,127.0,113.4,120.8,6.9
1645.0,124.2,124.8,114.4,121.1,5.9
1646.75,123.2,125.2,113.7,120.7,6.2
1648.5,123.6,127.5,114.0,121.7,6.9
1650.25,124.4,126.0,114.5,121.6,6.3
1652.0,125.2,124.7,114.8,121.6,5.8
1653.75,123.3,126.4,114.2,121.3,6.3
1655.5,125.8,124.0,113.5,121.1,6.7
1657.25,123.5,124.7,115.3,121.2,5.1
1659.0,124.0,126.8,113.7,121.5,6.9
1660.75,123.6,124.7,115.6,121.3,5.0
1662.5,125.2,123.7,114.5,121.1,5.8
1664.25,125.4,125.9,114.5,121.9,6.4
1666.0,125.7,125.1,115.4,122.1,5.8
1667.75,124.1,122.0,112.5,119.5,6.2
1669.5,122.9,125.1,114.2,120.8,5.8
1671.25,123.2,123.8,114.3,120.5,5.3
1673.0,124.4,123.8,112.5,120.2,6.7
1674.75,122.1,121.8,112.0,118.6,5.7
1676.5,123.5,121.4,112.6,119.2,5.8
1678.25,122.8,122.4,112.6,119.3,5.8
1680.0,122.8,122.8,112.2,119.2,6.1
1681.75,122.9,123.2,110.8,118.9,7.1
1683.5,120.8,123.1,114.4,119.4,4.5
1685.25,119.9,122.4,111.9,118.0,5.5
1687.0,122.2,122.6,113.1,119.3,5.4
1688.75,120.9,122.9,111.8,118.5,5.9
1690.5,121.9,121.7,111.9,118.5,5.7
1692.25,120.2,120.5,111.4,117.4,5.2
1694.0,121.9,120.2,111.9,118.0,5.4
1695.75,120.7,119.8,111.8,117.4,4.9
1697.5,122.3,119.2,112.9,118.1,4.8
1699.25,123.0,122.2,112.3,119.2,6.0
1701.0,120.4,119.1,111.9,117.1,4.6
1702.75,120.9,120.8,112.4,118.0,4.8
1704.5,120.9,121.4,110.1,117.5,6.4
1706.25,122.1,121.9,108.2,117.4,8.0
1708.0,122.2,119.9,108.7,116.9,7.2
1709.75,120.1,119.6,110.8,116.8,5.3
1711.5,120.5,120.7,110.0,117.1,6.1
1713.25,120.7,120.9,108.9,116.8,6.9
1715.0,119.7,120.1,109.1,116.3,6.2
1716.75,122.0,122.7,107.7,117.5,8.5
1718.5,122.3,124.5,110.0,118.9,7.8
1720.25,120.3,120.8,108.5,116.5,7.0
1722.0,120.8,121.2,106.7,116.2,8.3
1723.75,120.0,121.3,107.4,116.3,7.7
1725.5,120.2,122.1,108.0,116.8,7.6
1727.25,120.5,120.9,107.7,116.4,7.5
1729.0,117.6,122.1,107.8,115.8,7.3
1730.75,121.2,119.6,108.3,116.3,7.0
1732.5,119.5,121.7,106.9,116.0,8.0
1734.25,121.0,120.8,108.1,116.6,7.4
1736.0,118.8,119.6,106.6,115.0,7.3
1737.75,119.9,120.0,107.8,115.9,7.0
1739.5,118.1,119.5,106.8,114.8,7.0
1741.25,119.6,119.0,108.6,115.7,6.2
1743.0,120.1,118.1,107.6,115.3,6.7
1744.75,116.2,119.6,106.8,114.2,6.7
1746.5,118.2,120.0,106.7,115.0,7.2
1748.25,117.4,119.8,105.0,114.1,7.9
1750.0,117.7,118.4,106.8,114.3,6.5
1751.75,118.9,117.5,106.1,114.2,7.0
1753.5,117.7,116.8,105.0,113.2,7.1
1755.25,118.0,117.0,106.2,113.7,6.5
1757.0,116.3,117.3,104.9,112.8,6.9
1758.75,118.3,117.8,104.1,113.4,8.1
1760.5,116.0,115.1,105.6,112.3,5.8
1762.25,118.4,114.0,105.1,112.5,6.7
1764.0,116.4,116.5,105.1,112.7,6.5
1765.75,116.3,114.6,102.8,111.2,7.3
1767.5,114.1,115.1,104.3,111.2,6.0
1769.25,113.9,114.3,103.8,110.7,5.9
1771.0,113.8,115.2,104.9,111.3,5.6
1772.75,112.9,113.0,103.6,109.9,5.4
1774.5,116.2,115.7,103.3,111.8,7.3
1776.25,112.4,114.3,106.2,111.0,4.2
1778.0,111.8,116.4,104.8,111.0,5.9
1779.75,113.5,117.6,105.1,112.1,6.4
1781.5,111.3,115.0,103.9,110.1,5.7
1783.25,110.2,113.0,103.4,108.9,4.9
1785.0,110.6,111.1,103.6,108.4,4.2
1786.75,111.1,115.0,104.8,110.3,5.2
1788.5,110.5,116.3,101.7,109.5,7.3
1790.25,111.3,113.4,103.2,109.3,5.4
1792.0,110.0,112.6,104.5,109.0,4.2
1793.75,110.4,112.3,102.6,108.4,5.1
1795.5,110.6,111.2,104.1,108.6,4.0
1797.25,110.2,109.9,103.4,107.8,3.8
1799.0,110.0,112.7,103.5,108.7,4.7
1800.75,111.2,110.9,102.1,108.1,5.2
1802.5,112.8,111.5,100.7,108.3,6.6
1804.25,109.2,113.5,100.6,107.7,6.6
1806.0,108.2,112.4,101.6,107.4,5.5
1807.75,110.0,112.2,101.0,107.7,5.9
1809.5,109.3,111.6,102.8,107.9,4.6
1811.25,109.0,112.2,98.8,106.7,7.0
1813.0,108.3,112.5,99.2,106.7,6.8
1814.75,109.6,110.1,100.6,106.8,5.4
1816.5,106.7,110.4,100.9,106.0,4.8
1818.25,108.3,111.5,100.1,106.6,5.9
1820.0,108.6,110.4,101.4,106.8,4.8
1821.75,108.1,112.8,100.9,107.3,6.0
1823.5,108.5,110.2,100.7,106.5,5.1
1825.25,106.4,109.6,101.0,105.7,4.3
1827.0,106.5,111.3,100.9,106.2,5.2
1828.75,108.6,108.9,99.6,105.7,5.3
1830.5,105.6,111.5,101.6,106.2,5.0
1832.25,105.1,109.4,99.4,104.6,5.0
1834.0,105.4,107.7,99.1,104.0,4.4
1835.75,103.5,106.6,99.1,103.1,3.8
1837.5,104.0,105.1,98.2,102.4,3.7
1839.25,103.9,106.8,98.8,103.2,4.1
1841.0,102.4,107.1,98.4,102.6,4.4
1842.75,103.5,105.5,98.4,102.5,3.7
1844.5,101.7,106.6,99.5,102.6,3.6
1846.25,103.2,106.6,97.0,102.3,4.9
1848.0,102.7,106.0,96.8,101.8,4.7
1849.75,101.1,105.2,98.2,101.5,3.5
1851.5,101.9,107.4,97.4,102.2,5.0
1853.25,101.6,104.6,98.2,101.5,3.2
1855.0,100.2,105.4,98.4,101.3,3.6
1856.75,102.1,104.9,98.0,101.6,3.5
1858.5,101.2,105.3,98.8,101.8,3.3
1860.25,101.3,105.5,98.2,101.7,3.6
1862.0,101.1,105.2,96.2,100.8,4.5
1863.75,101.2,105.0,98.6,101.6,3.2
1865.5,100.2,106.1,97.6,101.3,4.3
1867.25,98.8,105.2,96.5,100.2,4.5
1869.0,100.2,104.8,96.8,100.6,4.0
1870.75,99.8,105.5,94.6,99.9,5.5
1872.5,100.5,103.9,97.1,100.5,3.4
1874.25,98.5,103.6,93.2,98.5,5.2
1876.0,100.8,101.1,94.6,98.8,3.6
1877.75,97.6,101.0,96.1,98.2,2.5
1879.5,97.6,100.5,94.3,97.5,3.1
1881.25,97.3,100.7,94.5,97.5,3.1
1883.0,96.7,100.7,95.8,97.7,2.6
1884.75,98.3,100.9,94.3,97.9,3.3
1886.5,96.7,99.8,94.6,97.0,2.6
1888.25,96.0,99.9,93.9,96.6,3.0
1890.0,95.7,98.9,93.6,96.1,2.7
1891.75,93.2,96.4,92.1,93.9,2.2
1893.5,94.7,97.9,92.3,95.0,2.8
1895.25,95.9,98.2,93.6,95.9,2.3
1897.0,94.1,95.5,91.8,93.8,1.8
1898.75,93.1,96.9,92.5,94.2,2.3
1900.5,93.4,95.9,92.4,93.9,1.8
1902.25,93.2,93.4,93.3,93.3,0.1
1904.0,93.6,95.4,94.0,94.3,1.0
1905.75,93.3,94.1,93.7,93.7,0.4
1907.5,93.5,93.5,92.9,93.3,0.3
1909.25,91.8,92.0,92.7,92.2,0.5
1911.0,92.0,93.0,93.7,92.9,0.9
1912.75,92.7,91.0,91.9,91.9,0.8
1914.5,91.6,91.5,90.6,91.2,0.5
1916.25,92.0,92.0,92.2,92.1,0.1
1918.0,91.7,90.3,91.1,91.0,0.7
1919.75,92.1,90.7,90.0,91.0,1.1
1921.5,91.6,92.3,89.9,91.3,1.3
1923.25,91.6,91.4,89.2,90.7,1.3
1925.0,90.5,90.4,89.3,90.1,0.7
1926.75,89.0,90.4,90.2,89.9,0.8
1928.5,90.3,89.9,90.8,90.3,0.4
1930.25,89.3,88.6,90.2,89.4,0.8
1932.0,90.6,87.7,89.1,89.1,1.4
1933.75,90.7,87.9,90.1,89.5,1.5
1935.5,90.2,86.5,89.1,88.6,1.9
1937.25,89.1,85.1,88.7,87.6,2.2
1939.0,90.2,85.3,89.3,88.3,2.6
1940.75,88.2,84.5,87.8,86.8,2.0
1942.5,88.1,84.0,86.8,86.3,2.1
1944.25,87.5,85.1,86.4,86.4,1.2
1946.0,87.3,83.1,88.4,86.3,2.8
1947.75,86.7,82.2,87.9,85.6,3.0
1949.5,86.4,82.2,89.3,86.0,3.6
1951.25,87.3,80.5,88.7,85.5,4.4
1953.0,86.3,81.5,89.4,85.7,4.0
1954.75,87.5,80.7,90.3,86.1,5.0
1956.5,85.4,81.0,89.2,85.2,4.1
1958.25,85.0,80.9,88.1,84.7,3.6
1960.0,84.9,81.0,88.3,84.7,3.7
1961.75,85.0,79.4,87.3,83.9,4.0
1963.5,85.7,78.7,87.7,84.0,4.7
1965.25,84.3,78.7,86.7,83.2,4.1
1967.0,85.5,77.9,87.2,83.5,5.0
1968.75,83.7,76.6,87.0,82.4,5.3
1970.5,83.2,75.8,85.1,81.4,4.9
1972.25,82.5,74.8,85.2,80.9,5.4
1974.0,82.3,74.9,85.5,80.9,5.5
1975.75,80.0,74.1,84.0,79.4,5.0
1977.5,79.9,74.4,84.0,79.4,4.8
1979.25,79.2,73.9,83.2,78.7,4.7
1981.0,77.3,73.7,81.3,77.5,3.8
1982.75,77.5,74.0,82.7,78.1,4.4
1984.5,76.9,73.1,81.2,77.1,4.0
1986.25,76.9,73.3,81.6,77.2,4.2
1988.0,76.8,72.6,82.5,77.3,5.0
1989.75,77.9,73.5,80.4,77.3,3.5
1991.5,77.6,71.8,80.6,76.7,4.5
1993.25,77.1,71.7,80.8,76.6,4.6
1995.0,75.2,71.8,80.9,76.0,4.6
1996.75,76.1,71.0,80.3,75.8,4.7
1998.5,76.2,71.5,80.7,76.1,4.6
2000.25,75.2,71.4,79.5,75.3,4.0
2002.0,73.3,71.8,79.1,74.7,3.9
2003.75,74.6,71.7,78.2,74.8,3.3
2005.5,73.5,69.5,78.2,73.7,4.4
2007.25,72.3,69.5,77.9,73.2,4.3
2009.0,72.8,69.2,78.5,73.5,4.7
2010.75,73.2,69.0,78.4,73.5,4.7
2012.5,72.3,67.5,78.4,72.7,5.5
2014.25,73.0,67.6,76.9,72.5,4.7
2016.0,72.9,67.9,78.7,73.2,5.4
2017.75,73.5,66.4,77.5,72.5,5.6
2019.5,72.3,65.5,78.4,72.1,6.5
2021.25,71.6,65.4,76.9,71.3,5.7
2023.0,71.6,65.0,77.1,71.2,6.0
2024.75,70.4,64.9,76.3,70.5,5.7
2026.5,70.2,63.5,74.7,69.5,5.6
2028.25,69.8,64.0,74.6,69.5,5.3
2030.0,69.4,63.9,74.1,69.1,5.1
2031.75,69.9,64.1,74.0,69.3,5.0
2033.5,69.2,64.4,74.0,69.2,4.8
2035.25,68.9,64.0,73.7,68.9,4.8
2037.0,68.9,64.3,72.4,68.5,4.1
2038.75,67.9,63.9,73.8,68.5,5.0
2040.5,68.4,64.1,72.2,68.2,4.1
2042.25,69.3,62.6,71.8,67.9,4.7
2044.0,68.5,62.7,72.3,67.8,4.8
2045.75,68.6,62.8,73.1,68.2,5.2
2047.5,66.7,62.8,71.9,67.2,4.6
2049.25,67.1,62.1,72.3,67.2,5.1
2051.0,66.8,61.9,72.1,66.9,5.1
2052.75,66.3,62.3,71.7,66.7,4.7
2054.5,65.5,62.1,71.3,66.3,4.6
2056.25,65.2,61.5,71.1,65.9,4.8
2058.0,66.1,60.9,70.4,65.8,4.8
2059.75,65.4,60.8,70.2,65.5,4.7
2061.5,65.4,61.1,69.3,65.3,4.1
2063.25,65.5,59.9,68.9,64.8,4.5
2065.0,66.1,59.6,69.6,65.1,5.1
2066.75,64.2,59.8,68.8,64.3,4.5
2068.5,64.3,59.5,68.5,64.1,4.5
2070.25,64.2,59.2,68.3,63.9,4.6
2072.0,65.0,59.9,68.6,64.5,4.4
2073.75,64.0,59.7,67.7,63.8,4.0
2075.5,63.4,59.1,68.0,63.5,4.5
2077.25,63.6,60.1,68.4,64.1,4.1
2079.0,62.8,59.5,66.9,63.0,3.7
2080.75,61.5,59.0,67.6,62.7,4.4
2082.5,60.8,59.8,67.1,62.6,3.9
2084.25,61.2,59.3,66.3,62.2,3.6
2086.0,60.7,58.7,65.0,61.4,3.2
2087.75,60.6,58.2,65.9,61.6,3.9
2089.5,60.3,57.7,64.6,60.9,3.5
2091.25,59.8,58.4,65.6,61.3,3.8
2093.0,59.9,58.1,64.8,60.9,3.5
2094.75,60.3,56.8,65.1,60.7,4.2
2096.5,59.5,56.0,65.0,60.2,4.5
2098.25,60.2,55.8,64.1,60.0,4.2
2100.0,60.6,55.8,64.5,60.3,4.4
2101.75,59.9,55.1,62.9,59.3,3.9
2103.5,59.7,54.9,62.6,59.0,3.9
2105.25,58.8,54.4,62.4,58.6,4.0
2107.0,57.7,54.5,62.4,58.2,4.0
2108.75,57.4,54.3,62.9,58.2,4.3
2110.5,57.5,53.5,62.2,57.7,4.3
2112.25,57.8,54.0,61.7,57.8,3.9
2114.0,58.2,52.0,62.1,57.4,5.1
2115.75,57.3,52.0,60.9,56.8,4.5
2117.5,57.5,52.1,60.7,56.8,4.3
2119.25,58.2,51.8,60.4,56.8,4.5
2121.0,56.7,51.7,61.3,56.6,4.8
2122.75,56.9,51.5,59.9,56.1,4.3
2124.5,56.3,50.2,60.0,55.5,4.9
2126.25,55.5,49.4,59.6,54.8,5.2
2128.0,54.7,49.3,58.9,54.3,4.8
2129.75,54.7,48.3,59.0,54.0,5.4
2131.5,54.5,48.3,58.7,53.8,5.2
2133.25,53.7,48.6,58.2,53.5,4.8
2135.0,52.8,48.6,58.4,53.3,4.9
2136.75,53.8,46.8,59.5,53.4,6.4
2138.5,53.0,47.3,58.5,52.9,5.6
2140.25,53.5,46.9,57.4,52.6,5.3
2142.0,52.9,46.9,57.5,52.4,5.3
2143.75,52.8,46.7,57.0,52.2,5.1
2145.5,52.5,45.7,57.0,51.7,5.7
2147.25,51.8,45.2,56.6,51.2,5.7
2149.0,52.1,44.8,55.6,50.9,5.5
2150.75,52.5,44.7,55.7,51.0,5.7
2152.5,52.3,45.0,54.9,50.7,5.1
2154.25,51.7,44.8,53.9,50.1,4.7
2156.0,51.8,44.4,55.8,50.7,5.8
2157.75,51.3,43.4,55.0,49.9,6.0
2159.5,52.1,43.2,54.9,50.1,6.1
2161.25,52.5,43.1,54.7,50.1,6.2
2163.0,51.0,42.3,55.2,49.5,6.6
2164.75,51.0,42.0,55.8,49.6,7.0
2166.5,51.4,41.3,55.2,49.3,7.2
2168.25,51.2,41.2,55.3,49.2,7.2
2170.0,50.1,40.7,54.9,48.6,7.2
2171.75,49.1,40.2,54.6,48.0,7.3
2173.5,48.2,39.9,55.2,47.7,7.7
2175.25,48.4,39.5,55.5,47.8,8.0
2177.0,47.5,39.0,54.5,47.0,7.7
2178.75,46.5,38.6,54.2,46.4,7.8
2180.5,46.9,38.3,54.0,46.4,7.9
2182.25,46.6,38.3,55.0,46.7,8.3
2184.0,46.4,37.7,54.3,46.2,8.3
2185.75,45.6,38.3,54.5,46.1,8.1
2187.5,44.8,37.6,53.2,45.2,7.8
2189.25,44.0,36.7,51.7,44.1,7.5
2191.0,43.6,36.3,52.4,44.1,8.1
2192.75,43.4,36.3,51.9,43.9,7.8
2194.5,43.4,35.9,51.8,43.7,8.0
2196.25,42.1,35.2,51.1,42.8,8.0
2198.0,42.5,35.8,51.3,43.2,7.8
2199.75,41.7,35.4,50.2,42.4,7.4
2201.5,41.4,35.1,51.1,42.5,8.0
2203.25,41.7,34.8,49.9,42.1,7.5
2205.0,41.6,34.7,50.1,42.1,7.7
2206.75,40.2,34.0,48.8,41.0,7.4
2208.5,39.5,34.1,48.9,40.8,7.5
2210.25,39.4,,49.3,44.3,7.0
2212.0,37.9,,47.6,42.8,6.9
2213.75,38.2,,47.2,42.7,6.3
2215.5,38.5,,47.3,42.9,6.2
2217.25,38.4,,46.5,42.5,5.7
2219.0,39.5,,46.4,42.9,4.8
2220.75,39.4,,45.8,42.6,4.5
2222.5,39.0,,45.7,42.4,4.7
2224.25,38.5,,44.9,41.7,4.5
2226.0,38.0,,44.7,41.4,4.7
2227.75,37.8,,43.0,40.4,3.7
2229.5,37.7,,43.7,40.7,4.2
2231.25,36.6,,43.8,40.2,5.1
2233.0,36.7,,43.6,40.2,4.9
2234.75,36.2,,42.9,39.6,4.8
2236.5,35.7,,42.9,39.3,5.1
2238.25,36.0,,42.2,39.1,4.4
2240.0,36.5,,41.9,39.2,3.8
2241.75,36.0,,41.5,38.7,3.8
2243.5,35.0,,42.4,38.7,5.2
2245.25,34.9,,41.0,38.0,4.3
2247.0,33.8,,40.2,37.0,4.5
2248.25,33.2,,40.5,36.9,5.2