File: 01_Data/Composite_Deck_Board/Cone/Composite_Deck_Board_Cone_HF75Scan_221209_R3.csv
Names,Time,Stack TC,Smoke TC,Exh Press,Smoke Comp,Smoke Meas,CO Meter,CO2 Meter,O2 Meter,Sample Mass,Ext Coeff,Start Test,Flame Verif
Chan Gain,,500,500,1,1,1,1,1,1,1,1,1.0,1.0
Offset,,0,0,0.136389,0,0,0,0,0,0,0,0.0,0.0
Gain,,1,1,25.011,14.2696,296.664,1,1,1,1.0009,1.04656,1.0,1.0
Units,sec,C,C,Pa,%,%,%,%,%,g,/m,,
Baseline,,48.676,50.3164,148.836,106.876,119.314,0.000676689,0.0669369,20.9505,-446.568,-1.01047,,
12,2.75,45.7595,47.9302,147.352,107.665,119.189,0.000852475,0.0733243,20.9444,197.037,-0.933501,0.0,0.0
24,5.75,46.1183,47.4833,149.463,107.674,119.813,0.000838972,0.0720831,20.9444,197.037,-0.980748,0.0,0.0
36,8.75,45.879,47.4801,148.674,107.652,117.414,0.00141485,0.071067,20.9449,197.017,-0.796911,0.0,0.0
48,11.75,46.0857,47.7014,142.858,107.641,121.769,0.00224657,0.0877983,20.9032,196.916,-1.1322,0.0,1.0
60,14.75,46.7858,47.9694,134.645,107.629,122.738,0.00320547,0.168626,20.7941,196.826,-1.20591,0.0,1.0
72,17.75,47.8721,49.1543,120.571,107.607,126.115,0.00664111,0.384965,20.4394,196.456,-1.45701,0.0,0.0
84,20.75,54.0749,53.529,99.8866,107.62,122.475,0.0136115,0.820329,19.7642,195.865,-1.18703,0.0,0.0
96,23.75,65.5143,64.413,92.9087,107.609,121.932,0.0224177,1.42537,18.7567,195.105,-1.14719,0.0,0.0
108,26.75,80.1035,79.5315,79.2164,107.604,129.446,0.0295381,2.06084,17.8383,194.184,-1.69661,0.0,0.0
120,29.75,95.6919,97.0241,86.1522,107.608,127.446,0.0346914,2.56495,17.1892,193.183,-1.55323,0.0,0.0
132,32.75,110.239,114.25,75.4488,107.602,127.762,0.0364203,2.80864,16.816,192.142,-1.57655,0.0,0.0
144,35.75,122.064,129.672,94.6177,107.611,134.381,0.0347449,2.75973,16.8341,191.251,-2.03947,0.0,0.0
156,38.75,130.19,140.373,102.37,107.597,135.114,0.0303778,2.43972,17.3231,190.461,-2.09059,0.0,0.0
168,41.75,134.361,146.947,96.387,107.597,127.219,0.0253491,2.05401,17.9292,189.7,-1.53788,0.0,0.0
180,44.75,137.03,151.296,101.189,107.594,127.645,0.0215593,1.76658,18.388,189.009,-1.56883,0.0,0.0
192,47.75,138.118,153.904,105.068,107.59,129.474,0.0187213,1.5469,18.7272,188.369,-1.69969,0.0,0.0
204,50.75,138.679,155.34,107.687,107.587,130.279,0.0167864,1.39803,18.9547,187.728,-1.7569,0.0,0.0
216,53.75,138.87,156.006,103.083,107.591,127.446,0.0152862,1.29352,19.1051,187.098,-1.55472,0.0,0.0
228,56.75,139.391,156.802,107.284,107.6,127.292,0.0140357,1.21741,19.2241,186.537,-1.54288,0.0,0.0
240,59.75,138.249,156.667,107.187,107.584,133.086,0.0136486,1.14578,19.3321,185.977,-1.95283,0.0,0.0
252,62.75,137.715,156.407,118.6,107.601,126.16,0.0132939,1.09515,19.4119,185.436,-1.46079,0.0,0.0
264,65.75,136.972,156.598,107.819,107.602,126.776,0.0127824,1.04234,19.4989,184.896,-1.50536,0.0,0.0
276,68.75,135.402,155.623,110.846,107.588,126.902,0.0123291,0.993739,19.5652,184.345,-1.51573,0.0,0.0
288,71.75,135.563,154.681,114.371,107.604,129.727,0.0119149,0.956953,19.6139,183.865,-1.71645,0.0,0.0
300,74.75,133.864,153.042,114.406,107.623,125.698,0.0113463,0.923093,19.6722,183.354,-1.42523,0.0,0.0
312,77.75,132.757,152.203,113.855,107.601,131.954,0.0108672,0.901995,19.6994,182.884,-1.87298,0.0,0.0
324,80.75,131.707,151.651,113.289,107.6,130.08,0.0107169,0.874826,19.7397,182.443,-1.74178,0.0,0.0
336,83.75,130.714,150.357,116.285,107.594,130.297,0.0106583,0.844253,19.7841,182.023,-1.75758,0.0,0.0
348,86.75,130.003,149.152,118.451,107.602,127.382,0.0105144,0.825551,19.8119,181.493,-1.54918,0.0,0.0
360,89.75,128.306,147.425,113.819,107.609,129.256,0.0103909,0.807002,19.8394,181.042,-1.68271,0.0,0.0
372,92.75,127.546,146.226,119.319,107.624,131.23,0.0101266,0.788263,19.8647,180.652,-1.82052,0.0,0.0
384,95.75,126.252,145.464,116.219,107.617,131.755,0.00998536,0.769422,19.8928,180.211,-1.85778,0.0,0.0
396,98.75,125.231,144.004,113.3,107.618,128.106,0.00996798,0.753669,19.917,179.761,-1.5999,0.0,0.0
408,101.75,124.322,143.074,118.672,107.627,127.826,0.00987937,0.743855,19.9306,179.351,-1.57898,0.0,0.0
420,104.75,123.353,141.717,122.721,107.619,125.925,0.00974509,0.726778,19.9514,178.9,-1.44212,0.0,0.0
432,107.75,121.609,140.902,121.282,107.615,125.137,0.00989684,0.712977,19.9753,178.5,-1.38481,0.0,0.0
444,110.75,121.009,139.353,121.226,107.628,132.117,0.00993572,0.705126,19.9882,178.11,-1.88201,0.0,0.0
456,113.75,120.189,137.674,126.599,107.628,129.202,0.00983184,0.695202,20.0026,177.669,-1.67721,0.0,0.0
468,116.75,119.265,136.635,121.421,107.627,127.409,0.00986228,0.685085,20.0195,177.309,-1.54899,0.0,0.0
480,119.75,118.237,135.742,121.861,107.627,124.304,0.00991363,0.672749,20.037,176.919,-1.3225,0.0,0.0
492,122.75,117.428,134.529,119.18,107.635,126.794,0.0096562,0.668751,20.0439,176.558,-1.50389,0.0,0.0
504,125.75,116.545,133.199,130.457,107.651,127.681,0.0091662,0.663748,20.0515,176.178,-1.56657,0.0,0.0
516,128.75,115.892,132.72,119.716,107.66,129.229,0.00880109,0.656668,20.0639,175.818,-1.67643,0.0,0.0
528,131.75,115.1,131.512,117.531,107.657,127.337,0.00880467,0.65041,20.074,175.397,-1.54124,0.0,0.0
540,134.75,114.52,130.678,116.918,107.671,127.446,0.00893651,0.648038,20.0783,174.987,-1.54788,0.0,0.0
552,137.75,113.811,129.808,129.549,107.667,128.912,0.00893364,0.643257,20.0866,174.606,-1.65326,0.0,0.0
564,140.75,113.346,128.875,125.55,107.678,125.237,0.00907358,0.638435,20.0944,174.306,-1.38673,0.0,0.0
576,143.75,112.918,128.221,122.922,107.676,127.762,0.00922861,0.633444,20.101,173.916,-1.57023,0.0,0.0
588,146.75,112.369,127.198,115.866,107.691,127.255,0.0091388,0.626877,20.1082,173.535,-1.53243,0.0,0.0
600,149.75,111.81,126.438,124.283,107.686,127.925,0.00901957,0.626562,20.1111,173.165,-1.58108,0.0,0.0
612,152.75,111.157,125.622,128.028,107.685,125.653,0.00901427,0.624184,20.1135,172.805,-1.41662,0.0,0.0
624,155.75,110.798,124.904,121.238,107.692,130.551,0.00926586,0.620482,20.117,172.455,-1.76711,0.0,0.0
636,158.75,110.473,124.712,121.316,107.689,131.293,0.00931461,0.618894,20.1201,172.064,-1.81942,0.0,0.0
648,161.75,110.013,123.898,121.366,107.684,126.26,0.00920686,0.615488,20.1253,171.694,-1.46094,0.0,0.0
660,164.75,109.461,123.63,125.64,107.672,127.319,0.00905908,0.612596,20.1282,171.344,-1.53864,0.0,0.0
672,167.75,109.146,122.79,121.702,107.682,126.567,0.0089581,0.611477,20.1297,170.983,-1.48348,0.0,0.0
684,170.75,108.572,122.117,128.905,107.675,126.658,0.00889969,0.607962,20.1334,170.603,-1.49064,0.0,0.0
696,173.75,108.16,121.483,126.189,107.657,126.604,0.00893964,0.606769,20.1385,170.253,-1.48822,0.0,0.0
708,176.75,108.227,120.734,119.336,107.64,127.59,0.00909431,0.605661,20.1396,169.932,-1.56095,0.0,0.0
720,179.75,107.829,120.591,127.274,107.624,125.635,0.00925672,0.603892,20.1433,169.562,-1.42057,0.0,0.0
732,182.75,107.711,120.157,120.88,107.602,126.957,0.00923494,0.599348,20.1488,169.232,-1.51847,0.0,0.0
744,185.75,106.906,119.527,123.324,107.585,127.129,0.00910205,0.59554,20.152,168.871,-1.53238,0.0,0.0
756,188.75,106.783,118.865,118.746,107.568,124.802,0.00900168,0.595455,20.1522,168.471,-1.36426,0.0,0.0
768,191.75,106.425,118.72,123.162,107.544,126.631,0.00905208,0.59752,20.1501,168.121,-1.49981,0.0,0.0
780,194.75,106.211,118.41,124.476,107.521,127.201,0.00920398,0.598272,20.1494,167.73,-1.54308,0.0,0.0
792,197.75,106.098,117.91,125.227,107.499,127.373,0.00915142,0.596346,20.1502,167.37,-1.55734,0.0,0.0
804,200.75,106.121,117.827,122.707,107.485,127.599,0.00890126,0.59519,20.1531,167.04,-1.57487,0.0,0.0
816,203.75,105.731,117.374,122.471,107.451,125.001,0.00880464,0.592248,20.1569,166.719,-1.3889,0.0,0.0
828,206.75,105.954,117.161,121.948,107.425,129.519,0.00889379,0.592952,20.1566,166.349,-1.71703,0.0,0.0
840,209.75,105.674,116.913,123.702,107.388,125.11,0.00894141,0.592473,20.1563,165.979,-1.40227,0.0,0.0
852,212.75,105.483,116.552,123.863,107.355,125.888,0.00880153,0.590754,20.15625,165.598,-1.46202,0.0,0.0
864,215.75,105.291,116.066,118.752,107.318,127.301,0.00871626,0.595017,20.153,165.268,-1.56757,0.0,0.0
876,218.75,105.303,115.964,123.544,107.29,124.177,0.0087725,0.594606,20.1536,164.898,-1.34193,0.0,0.0
888,221.75,104.731,115.391,126.552,107.246,122.294,0.00872675,0.588787,20.1602,164.557,-1.20537,0.0,0.0
900,224.75,104.636,115.49,122.857,107.207,124.711,0.00864372,0.586318,20.1627,164.207,-1.38842,0.0,0.0
912,227.75,104.421,115.008,124.03,107.172,128.568,0.0088112,0.588257,20.1632,163.777,-1.67101,0.0,0.0
924,230.75,104.105,114.699,123.137,107.121,124.929,0.00899981,0.583733,20.1681,163.486,-1.41182,0.0,0.0
936,233.75,104.049,114.759,121.749,107.085,125.354,0.00911773,0.581391,20.17,163.126,-1.4461,0.0,0.0
948,236.75,103.795,114.408,124.594,107.04,125.119,0.00915882,0.58459,20.1678,162.766,-1.43265,0.0,0.0
960,239.75,104.187,114.668,124.736,107.012,123.109,0.00921419,0.580701,20.1702,162.406,-1.28641,0.0,0.0
972,242.75,104.226,114.424,124.841,107.002,124.865,0.00926758,0.582997,20.168,162.035,-1.41736,0.0,0.0
984,245.75,104.181,114.076,129.614,106.954,122.43,0.00930563,0.581584,20.1703,161.725,-1.24065,0.0,0.0
996,248.75,103.968,113.622,122.809,106.911,121.461,0.00935116,0.576413,20.177,161.375,-1.17142,0.0,0.0
1008,251.75,103.546,113.32,122.703,106.882,125.979,0.00939415,0.575637,20.1784,161.034,-1.50919,0.0,0.0
1020,254.75,103.756,113.617,119.982,106.838,124.594,0.00935159,0.576102,20.1786,160.674,-1.41146,0.0,0.0
1032,257.75,103.773,113.48,124.987,106.811,123.969,0.00917164,0.573569,20.1806,160.324,-1.3676,0.0,0.0
1044,260.75,103.374,113.049,122.202,106.78,130.451,0.00908213,0.572973,20.1817,159.963,-1.83813,0.0,0.0
1056,263.75,103.243,112.85,128.703,106.754,123.127,0.00929981,0.569737,20.1852,159.643,-1.30994,0.0,0.0
1068,266.75,103.129,112.691,122.722,106.739,126.441,0.00971818,0.565536,20.1929,159.263,-1.55505,0.0,0.0
1080,269.75,103.033,112.444,124.869,106.801,123.372,0.00963933,0.567534,20.1936,158.892,-1.32411,0.0,0.0
1092,272.75,102.846,112.328,121.712,106.864,127.092,0.0095238,0.56478,20.1971,158.582,-1.59151,0.0,0.0
1104,275.75,102.504,111.922,121.767,106.922,124.82,0.00961778,0.561857,20.2013,158.222,-1.42087,0.0,0.0
1116,278.75,102.696,111.905,126.828,106.963,125.273,0.00928593,0.561069,20.2024,157.911,-1.45063,0.0,0.0
1128,281.75,101.933,112.299,120.371,107.029,125.3,0.00898778,0.562006,20.2025,157.511,-1.44694,0.0,0.0
1140,284.75,102.56,111.428,127.026,107.055,122.258,0.00892754,0.562488,20.2017,157.231,-1.21907,0.0,0.0
1152,287.75,102.322,111.761,122.643,107.093,127.536,0.00895452,0.558587,20.205,156.811,-1.60381,0.0,0.0
1164,290.75,101.914,111.052,121.686,107.125,126.241,0.00903494,0.55711,20.2089,156.5,-1.50738,0.0,0.0
1176,293.75,102.514,110.785,123.932,107.141,126.531,0.00900003,0.55415,20.2125,156.15,-1.52704,0.0,0.0
1188,296.75,102.326,110.819,123.381,107.162,124.503,0.00883519,0.553682,20.2137,155.81,-1.37696,0.0,0.0
1200,299.75,101.955,110.408,123.392,107.164,123.1,0.00881053,0.5546,20.2121,155.469,-1.27271,0.0,0.0
1212,302.75,101.547,110.094,124.879,107.155,127.79,0.00899136,0.555761,20.2084,155.129,-1.61677,0.0,0.0
1224,305.75,102.424,110.573,127.579,107.159,126.368,0.00905291,0.557824,20.2048,154.809,-1.51372,0.0,0.0
1236,308.75,101.51,110.868,122.54,107.122,126.73,0.00912512,0.558266,20.2033,154.458,-1.54312,0.0,0.0
1248,311.75,102.457,110.899,122.576,107.097,129.075,0.00906194,0.551304,20.2123,154.148,-1.71363,0.0,0.0
1260,314.75,101.575,110.815,124.006,107.045,127.953,0.00865489,0.538255,20.2295,153.798,-1.63784,0.0,0.0
1272,317.75,101.815,110.014,126.232,107,128.016,0.00810209,0.520529,20.2602,153.468,-1.64623,0.0,0.0
1284,320.75,100.91,109.497,126.826,106.923,125.689,0.00760712,0.503575,20.2891,153.147,-1.48446,0.0,0.0
1296,323.75,100.692,109.106,129.07,106.855,127.944,0.00697875,0.48849,20.3138,152.837,-1.65356,0.0,0.0
1308,326.75,99.9938,108.897,126.591,106.793,128.858,0.00647144,0.476515,20.3385,152.557,-1.72422,0.0,0.0
1320,329.75,99.1693,107.912,128.106,106.743,130.243,0.00594951,0.466494,20.3602,152.276,-1.82672,0.0,0.0
1332,332.75,98.6694,107.234,127.391,106.68,129.573,0.00551779,0.459594,20.3731,151.986,-1.78473,0.0,0.0
1344,335.75,98.3774,106.688,130.058,106.608,131.882,0.00507857,0.45886,20.3777,151.696,-1.95309,0.0,0.0
1356,338.75,97.6677,105.991,126.015,106.536,129.781,0.00485754,0.458055,20.3784,151.356,-1.81193,0.0,0.0
1368,341.75,97.5951,105.462,129.815,106.448,129.881,0.00492431,0.46188,20.3748,151.065,-1.82651,0.0,0.0
1380,344.75,97.145,105.124,124.199,106.385,133.339,0.00522709,0.466155,20.3688,150.785,-2.07325,0.0,0.0
1392,347.75,96.6484,104.633,125.323,106.402,132.199,0.00557898,0.471162,20.3601,150.405,-1.99283,0.0,0.0
1404,350.75,96.7529,104.568,125.601,106.426,129.102,0.00574388,0.477534,20.3473,150.115,-1.77319,0.0,0.0
1416,353.75,96.4114,104.386,126.766,106.443,132.878,0.0058644,0.484667,20.337,149.804,-2.03637,0.0,0.0
1428,356.75,96.0503,104.031,127.695,106.491,124.684,0.0060912,0.49322,20.327,149.514,-1.44793,0.0,0.0
1440,359.75,96.3723,103.883,126.973,106.529,130.985,0.00642733,0.503029,20.3088,149.184,-1.89731,0.0,0.0
1452,362.75,96.3648,103.946,123.336,106.585,126.169,0.00672761,0.511421,20.2941,148.843,-1.5485,0.0,0.0
1464,365.75,96.8133,103.973,125.071,106.646,128.423,0.00728302,0.518042,20.2816,148.523,-1.70583,0.0,0.0
1476,368.75,96.9109,104.124,120.036,106.7,131.483,0.00752229,0.523353,20.2694,148.193,-1.91737,0.0,0.0
1488,371.75,97.1168,104.517,126.604,106.751,131.058,0.00745061,0.529305,20.2599,147.872,-1.88323,0.0,0.0
1500,374.75,97.3481,104.454,120.339,106.799,128.632,0.00750007,0.535952,20.2473,147.492,-1.70756,0.0,0.0
1512,377.75,97.4824,104.958,121.695,106.857,129.827,0.00783702,0.539967,20.2402,147.162,-1.78747,0.0,0.0
1524,380.75,97.9007,104.969,127.361,106.895,126.513,0.00823636,0.542829,20.232,146.822,-1.54687,0.0,0.0
1536,383.75,97.7393,105.453,128.105,106.963,126.604,0.00840367,0.543767,20.2292,146.521,-1.54757,0.0,0.0
1548,386.75,97.8543,105.626,119.076,107,131.52,0.00859553,0.547458,20.2217,146.171,-1.89415,0.0,0.0
1560,389.75,98.3224,105.339,125.76,107.04,127.464,0.00876165,0.550289,20.2166,145.831,-1.60315,0.0,0.0
1572,392.75,98.3662,105.796,128.961,107.099,126.721,0.0086991,0.553987,20.2084,145.5,-1.54444,0.0,0.0
1584,395.75,98.9817,106.06,122.676,107.139,128.061,0.00879587,0.559312,20.2008,145.14,-1.63761,0.0,0.0
1596,398.75,98.9222,106.017,121.407,107.159,125.888,0.00881837,0.560402,20.1995,144.8,-1.47879,0.0,0.0
1608,401.75,98.9703,106.955,121.98,107.181,126.984,0.00890153,0.56052,20.2005,144.469,-1.55647,0.0,0.0
1620,404.75,99.354,106.881,125.422,107.192,128.704,0.00902396,0.56182,20.2007,144.159,-1.67898,0.0,0.0
1632,407.75,99.438,107.653,119.513,107.193,123.145,0.00891856,0.563077,20.1986,143.809,-1.27362,0.0,0.0
1644,410.75,99.4767,107.407,121.535,107.2,126.73,0.00885385,0.564458,20.1953,143.439,-1.53648,0.0,0.0
1656,413.75,100.051,107.36,122.576,107.19,125.961,0.00896046,0.569673,20.1885,143.108,-1.48142,0.0,0.0
1668,416.75,99.9183,107.557,123.228,107.176,126.585,0.00906906,0.574441,20.18,142.748,-1.52799,0.0,0.0
1680,419.75,100.375,108.181,126.175,107.133,127.79,0.00923028,0.577178,20.1757,142.408,-1.6186,0.0,0.0
1692,422.75,100.906,108.681,124.837,107.117,124.548,0.00944369,0.576772,20.1744,142.017,-1.38417,0.0,0.0
1704,425.75,100.891,108.517,123.391,107.081,124.558,0.00909361,0.578225,20.1724,141.667,-1.3879,0.0,0.0
1716,428.75,100.731,108.075,125.6,107.027,126.241,0.009021,0.581377,20.1684,141.297,-1.51585,0.0,0.0
1728,431.75,100.829,108.456,124.636,106.969,126.658,0.00922668,0.582554,20.1657,140.956,-1.55106,0.0,0.0
1740,434.75,101.654,108.645,126.004,106.922,128.921,0.00939185,0.581573,20.1649,140.616,-1.71762,0.0,0.0
1752,437.75,101.639,109.255,123.025,106.871,125.028,0.00955382,0.583188,20.1631,140.286,-1.44059,0.0,0.0
1764,440.75,101.726,109.544,121.993,106.804,124.567,0.00976712,0.583271,20.162,139.915,-1.41238,0.0,0.0
1776,443.75,101.994,109.378,121.513,106.749,128.641,0.00968377,0.583167,20.1622,139.605,-1.71254,0.0,0.0
1788,446.75,102.055,110.264,124.736,106.672,128.441,0.009388,0.582912,20.1624,139.265,-1.70488,0.0,0.0
1800,449.75,102.158,109.848,126.27,106.613,124.947,0.00923021,0.581695,20.1629,138.874,-1.45677,0.0,0.0
1812,452.75,101.976,109.899,122.023,106.537,124.938,0.00932003,0.582395,20.1629,138.544,-1.46263,0.0,0.0
1824,455.75,102.364,110.004,123.008,106.478,124.992,0.00925469,0.582356,20.164,138.194,-1.47169,0.0,0.0
1836,458.75,102.62,110.725,123.692,106.419,124.431,0.00910684,0.582451,20.1625,137.813,-1.43552,0.0,0.0
1848,461.75,102.3,110.13,126.473,106.351,126.64,0.00904447,0.584355,20.1611,137.463,-1.60293,0.0,0.0
1860,464.75,102.889,110.728,119.552,106.292,124.385,0.00911879,0.585762,20.1583,137.103,-1.44308,0.0,0.0
1872,467.75,103.24,110.874,124.745,106.22,127.663,0.00946591,0.585083,20.1589,136.763,-1.68812,0.0,0.0
1884,470.75,102.994,110.853,122.616,106.153,125.535,0.00968739,0.582433,20.1631,136.412,-1.53963,0.0,0.0
1896,473.75,103.123,110.804,122.595,106.094,126.214,0.00964985,0.579961,20.1683,136.072,-1.5942,0.0,0.0
1908,476.75,103.003,111.097,123.09,106.035,122.629,0.00952787,0.577724,20.1725,135.722,-1.33478,0.0,0.0
1920,479.75,102.733,111.187,126.646,105.985,125.001,0.00951646,0.577488,20.1735,135.371,-1.515,0.0,0.0
1932,482.75,103.19,110.932,122.54,105.944,126.124,0.00962216,0.578566,20.1729,135.011,-1.60062,0.0,0.0
1944,485.75,102.457,110.999,120.606,105.925,129.139,0.00972781,0.579939,20.1727,134.651,-1.81914,0.0,0.0
1956,488.75,103.095,110.97,127.499,105.91,127.618,0.00951497,0.576009,20.1775,134.31,-1.71166,0.0,0.0
1968,491.75,102.954,110.98,125.851,105.904,125.934,0.00947264,0.572547,20.1807,133.96,-1.59024,0.0,0.0
1980,494.75,102.554,111.421,122.482,105.91,125.463,0.00948163,0.573451,20.1805,133.65,-1.55529,0.0,0.0
1992,497.75,102.587,111.176,118.06,105.944,125.78,0.00934014,0.573536,20.1795,133.299,-1.57558,0.0,0.0
2004,500.75,103.077,111.146,120.633,106.001,125.064,0.0092119,0.572538,20.1796,132.929,-1.51829,0.0,0.0
2016,503.75,103.088,110.706,125.2,106.041,128.976,0.00953104,0.571949,20.1806,132.609,-1.79744,0.0,0.0
2028,506.75,102.834,111.081,125.141,106.108,125.988,0.00992863,0.569176,20.1839,132.249,-1.57655,0.0,0.0
2040,509.75,102.988,110.423,125.434,106.173,122.937,0.00980388,0.569024,20.1845,131.888,-1.34581,0.0,0.0
2052,512.75,102.874,110.983,123.869,106.271,127.011,0.00963663,0.569469,20.1847,131.548,-1.63668,0.0,0.0
2064,515.75,102.994,110.894,119.617,106.361,125.046,0.00948654,0.568613,20.185,131.228,-1.48579,0.0,0.0
2076,518.75,102.698,110.525,123.229,106.445,125.064,0.00938741,0.566202,20.1888,130.857,-1.4799,0.0,0.0
2088,521.75,102.922,110.654,125.629,106.52,124.929,0.00946918,0.566194,20.1909,130.527,-1.46347,0.0,0.0
2100,524.75,102.713,110.71,121.109,106.607,129.111,0.00949466,0.565722,20.1916,130.197,-1.75826,0.0,0.0
2112,527.75,102.885,110.732,125.713,106.7,124.168,0.00933571,0.564549,20.1933,129.826,-1.39189,0.0,0.0
2124,530.75,102.75,110.678,118.197,106.806,126.595,0.00928206,0.563726,20.1953,129.486,-1.56045,0.0,0.0
2136,533.75,102.811,110.389,125.092,106.902,125.3,0.00927843,0.562324,20.1973,129.176,-1.45785,0.0,0.0
2148,536.75,102.936,110.719,121.899,106.997,125.825,0.00911288,0.559594,20.1978,128.835,-1.48806,0.0,0.0
2160,539.75,102.651,110.73,125.334,107.108,127.418,0.00901037,0.561696,20.1968,128.485,-1.5941,0.0,0.0
2172,542.75,103.106,110.628,122.252,107.196,128.469,0.00932726,0.563544,20.1959,128.145,-1.66184,0.0,0.0
2184,545.75,102.365,110.463,123.798,107.298,128.423,0.00974233,0.561572,20.1978,127.825,-1.64992,0.0,0.0
2196,548.75,102.936,110.48,121.319,107.391,124.476,0.0100113,0.561047,20.1984,127.504,-1.35531,0.0,0.0
2208,551.75,102.383,110.514,124.027,107.456,123.697,0.00972362,0.560046,20.2004,127.194,-1.2922,0.0,0.0
2220,554.75,103.025,110.078,124.195,107.523,126.359,0.00949089,0.55692,20.2049,126.854,-1.48196,0.0,0.0
2232,557.75,103.197,110.291,124.488,107.583,128.541,0.00945742,0.555278,20.2083,126.483,-1.63396,0.0,0.0
2244,560.75,102.038,110.843,126.136,107.633,125.01,0.00933565,0.552077,20.2106,126.133,-1.37399,0.0,0.0
2256,563.75,102.372,110.377,129.331,107.684,125.409,0.00908196,0.551368,20.2137,125.843,-1.39889,0.0,0.0
2268,566.75,102.788,110.481,126.063,107.704,127.572,0.00885675,0.550782,20.214,125.502,-1.55419,0.0,0.0
2280,569.75,102.035,110.218,127.816,107.716,127.364,0.00893889,0.553433,20.2098,125.182,-1.53819,0.0,0.0
2292,572.75,102.642,110.499,124.425,107.717,129.799,0.00892532,0.551695,20.2112,124.852,-1.712,0.0,0.0
2304,575.75,102.071,110.049,126.217,107.721,125.599,0.00879434,0.548339,20.2147,124.522,-1.40964,0.0,0.0
2316,578.75,102.451,110.511,127.381,107.698,126.35,0.00888339,0.5438,20.221,124.211,-1.46633,0.0,0.0
2328,581.75,102.208,110.199,121.793,107.654,129.763,0.00889432,0.540307,20.2287,123.821,-1.71482,0.0,0.0
2340,584.75,101.659,109.739,124.783,107.609,124.295,0.00881672,0.537947,20.233,123.521,-1.32336,0.0,0.0
2352,587.75,101.707,109.873,130.216,107.557,127.418,0.00868529,0.534967,20.2351,123.23,-1.55566,0.0,0.0
2364,590.75,101.892,109.778,133.82,107.506,128.541,0.00857004,0.53275,20.24,122.9,-1.6405,0.0,0.0
2376,593.75,101.447,109.077,125.431,107.449,131.112,0.00856666,0.530769,20.2436,122.55,-1.82719,0.0,0.0
2388,596.75,101.461,109.067,124.842,107.382,127.138,0.00851623,0.529607,20.2443,122.22,-1.55033,0.0,0.0
2400,599.75,101.094,108.682,124.203,107.315,126.848,0.00840396,0.53033,20.2431,121.869,-1.53516,0.0,0.0
2412,602.75,101.176,108.902,122.252,107.253,130.071,0.0082141,0.531595,20.2428,121.619,-1.77084,0.0,0.0
2424,605.75,100.908,108.764,128.342,107.177,128.577,0.00815367,0.531119,20.2427,121.249,-1.67124,0.0,0.0
2436,608.75,100.697,108.843,122.138,107.095,124.304,0.00853188,0.530176,20.2424,120.938,-1.36797,0.0,0.0
2448,611.75,100.776,108.89,123.785,107.028,124.123,0.00875078,0.529399,20.2444,120.638,-1.36034,0.0,0.0
2460,614.75,101.145,108.626,126.787,106.955,128.451,0.00875441,0.529687,20.245,120.278,-1.68127,0.0,0.0
2472,617.75,100.887,108.796,125.571,106.891,126.477,0.00869344,0.528878,20.2453,119.978,-1.54458,0.0,0.0
2484,620.75,100.548,108.61,124.829,106.824,126.794,0.0086732,0.529066,20.2462,119.647,-1.57331,0.0,0.0
2496,623.75,101.169,108.037,121.666,106.766,124.096,0.00866642,0.528715,20.245,119.357,-1.38088,0.0,0.0
2508,626.75,101.061,107.879,126.762,106.837,125.01,0.00888133,0.529483,20.2441,119.007,-1.44217,0.0,0.0
2520,629.75,100.41,108.227,122.528,106.952,125.445,0.00885884,0.527693,20.2467,118.666,-1.46416,0.0,0.0
2532,632.75,100.78,107.994,124.725,107.047,125.925,0.00863073,0.525927,20.2496,118.386,-1.49099,0.0,0.0
2544,635.75,100.885,107.37,127.103,107.103,127.572,0.00861528,0.523487,20.2539,118.076,-1.60555,0.0,0.0
2556,638.75,100.141,108.05,119.979,107.16,126.178,0.00860299,0.523965,20.254,117.745,-1.49978,0.0,0.0
2568,641.75,100.039,108.009,127.144,107.182,124.521,0.00869211,0.524907,20.2531,117.405,-1.37654,0.0,0.0
2580,644.75,100.26,107.227,125.876,107.209,125.626,0.00869347,0.521937,20.257,117.085,-1.4553,0.0,0.0
2592,647.75,100.306,107.065,128.015,107.221,129.455,0.00862578,0.520074,20.2601,116.785,-1.73,0.0,0.0
2604,650.75,99.9101,107.201,126.081,107.21,123.679,0.00847826,0.521677,20.258,116.484,-1.31187,0.0,0.0
2616,653.75,99.5321,107.224,126.165,107.18,125.381,0.00830744,0.5208,20.2581,116.144,-1.43992,0.0,0.0
2628,656.75,99.7355,106.892,131.036,107.128,125.716,0.00804366,0.518322,20.2602,115.874,-1.46892,0.0,0.0
2640,659.75,99.6096,106.754,125.1,107.081,125.055,0.00798422,0.518859,20.2598,115.524,-1.42449,0.0,0.0
2652,662.75,99.2253,106.788,124.318,107.005,125.055,0.00832886,0.519197,20.2584,115.203,-1.43106,0.0,0.0
2664,665.75,99.3927,106.738,124.14,106.918,124.766,0.00854048,0.519138,20.258,114.933,-1.41725,0.0,0.0
2676,668.75,99.4135,106.664,124.677,106.824,124.367,0.00869537,0.52009,20.2563,114.603,-1.39593,0.0,0.0
2688,671.75,99.2076,106.9,129.553,106.731,125.2,0.00894885,0.521468,20.2532,114.262,-1.46519,0.0,0.0
2700,674.75,98.9353,106.632,126.807,106.665,124.358,0.00897592,0.523194,20.2509,113.972,-1.40893,0.0,0.0
2712,677.75,99.474,106.387,127.478,106.617,122.865,0.00897407,0.522076,20.2498,113.642,-1.30211,0.0,0.0
2724,680.75,98.934,106.621,124.031,106.524,129.555,0.00912389,0.52274,20.2504,113.352,-1.79691,0.0,0.0
2736,683.75,99.4273,106.244,124.953,106.442,121.715,0.00926026,0.524759,20.2478,113.031,-1.23092,0.0,0.0
2748,686.75,98.9405,106.401,127.136,106.409,120.429,0.00925089,0.524208,20.2465,112.731,-1.13622,0.0,0.0
2760,689.75,99.2661,106.596,130.969,106.448,123.172,0.00921606,0.524731,20.245,112.411,-1.33968,0.0,0.0
2772,692.75,98.9907,106.315,123.884,106.494,122.213,0.00899366,0.525704,20.2426,112.07,-1.2639,0.0,0.0
2784,695.75,99.2572,106.382,122.531,106.512,127.31,0.00887429,0.527148,20.2395,111.78,-1.63747,0.0,0.0
2796,698.75,98.6806,106.144,125.627,106.577,124.494,0.00911201,0.529103,20.2346,111.43,-1.42657,0.0,0.0
2808,701.75,98.932,106.515,122.506,106.657,125.508,0.00931158,0.530134,20.2328,111.14,-1.4941,0.0,0.0
2820,704.75,99.4646,105.799,124.85,106.723,126.015,0.00945365,0.530531,20.232,110.839,-1.52549,0.0,0.0
2832,707.75,99.4987,106.182,126.902,106.796,121.506,0.00932293,0.527652,20.2343,110.519,-1.18472,0.0,0.0
2844,710.75,98.557,106.827,130.676,106.843,122.593,0.00941093,0.527595,20.2348,110.189,-1.26239,0.0,0.0
2856,713.75,98.4638,106.777,129.147,106.92,125.689,0.00960071,0.528549,20.234,109.888,-1.48472,0.0,0.0
2868,716.75,98.9866,106.345,125.831,106.973,125.689,0.00964028,0.528591,20.2323,109.558,-1.4802,0.0,0.0
2880,719.75,99.0918,106.144,126.459,107.016,123.924,0.00969654,0.527168,20.2347,109.258,-1.34668,0.0,0.0
2892,722.75,99.2183,106.169,125.351,107.056,123.344,0.00955547,0.525431,20.2371,108.968,-1.30018,0.0,0.0
2904,725.75,98.823,106.08,124.085,107.088,125.427,0.00925938,0.524686,20.2394,108.627,-1.45118,0.0,0.0
2916,728.75,99.0899,106.477,124.095,107.128,127.599,0.00927501,0.524902,20.2403,108.347,-1.60538,0.0,0.0
2928,731.75,98.6573,106.534,125.838,107.152,124.883,0.00952109,0.525342,20.2391,108.017,-1.40581,0.0,0.0
2940,734.75,98.8452,106.153,122.15,107.174,124.286,0.00957003,0.521807,20.242,107.717,-1.35991,0.0,0.0
2952,737.75,98.5893,105.789,124.457,107.163,124.757,0.00957981,0.522076,20.2429,107.406,-1.39555,0.0,0.0
2964,740.75,99.5354,106.021,126.965,107.163,123.978,0.00928713,0.520928,20.2444,107.126,-1.33804,0.0,0.0
2976,743.75,98.7469,106.228,126.671,107.172,122.837,0.00888142,0.519519,20.2467,106.836,-1.25244,0.0,0.0
2988,746.75,98.9122,105.629,125.089,107.148,123.127,0.00886768,0.519357,20.246,106.495,-1.27615,0.0,0.0
3000,749.75,98.903,105.94,127.068,107.132,126.241,0.00887831,0.519194,20.2452,106.185,-1.50678,0.0,0.0
3012,752.75,98.6141,105.704,125.087,107.105,124.947,0.00894631,0.517075,20.2464,105.885,-1.4145,0.0,0.0
3024,755.75,98.7454,105.782,123.936,107.061,122.475,0.00900948,0.516277,20.248,105.585,-1.23485,0.0,0.0
3036,758.75,99.0434,105.676,123.05,107.048,123.362,0.00900724,0.515639,20.2478,105.284,-1.30224,0.0,0.0
3048,761.75,97.8176,105.114,128.734,107.011,123.534,0.00891736,0.515638,20.2477,105.004,-1.31816,0.0,0.0
3060,764.75,98.1586,105.455,126.079,106.967,125.155,0.00885372,0.515009,20.2477,104.684,-1.44159,0.0,0.0
3072,767.75,98.2996,105.596,124.394,106.924,127.183,0.00873093,0.514516,20.2488,104.394,-1.59285,0.0,0.0
3084,770.75,98.2964,105.42,126.42,106.887,124.395,0.00853826,0.513197,20.2501,104.083,-1.39251,0.0,0.0
3096,773.75,98.3376,105.011,122.144,106.818,123.734,0.0085783,0.510377,20.2568,103.813,-1.34956,0.0,0.0
3108,776.75,98.2572,105.154,128.907,106.76,120.791,0.00849588,0.50796,20.2611,103.483,-1.13359,0.0,0.0
3120,779.75,98.1091,105.192,122.038,106.702,124.032,0.00831314,0.506077,20.266,103.202,-1.3817,0.0,0.0
3132,782.75,98.398,104.856,128.499,106.639,122.149,0.00826168,0.506031,20.2666,102.932,-1.24664,0.0,0.0
3144,785.75,97.8617,105.1,126.279,106.558,123.77,0.00835221,0.506467,20.265,102.652,-1.37465,0.0,0.0
3156,788.75,97.5938,104.963,124.541,106.468,120.927,0.00845212,0.505201,20.2647,102.312,-1.16907,0.0,0.0
3168,791.75,98.0203,105.123,125.556,106.405,123.163,0.00844005,0.504222,20.2642,102.041,-1.34273,0.0,0.0
3180,794.75,97.8886,104.843,125.902,106.306,123.046,0.00822998,0.502911,20.2663,101.801,-1.34245,0.0,0.0
3192,797.75,97.9994,104.827,127.697,106.243,120.637,0.00781667,0.501793,20.2683,101.471,-1.16648,0.0,0.0
3204,800.75,97.4043,104.749,123.736,106.163,122.665,0.00760327,0.500032,20.2721,101.171,-1.32645,0.0,0.0
3216,803.75,97.4259,104.424,123.998,106.106,122.774,0.00763161,0.500626,20.2717,100.88,-1.33947,0.0,0.0
3228,806.75,97.4436,104.274,129.448,106.057,122.376,0.007478,0.500215,20.2715,100.63,-1.3139,0.0,0.0
3240,809.75,97.1116,104.331,121.512,105.989,123,0.00742028,0.499885,20.2714,100.3,-1.36649,0.0,0.0
3252,812.75,97.3231,103.911,129.111,105.94,123.408,0.00774248,0.496262,20.2753,100.03,-1.40111,0.0,0.0
3264,815.75,96.9586,103.975,131.167,105.92,121.38,0.0080719,0.494274,20.2792,99.7594,-1.25076,0.0,0.0
3276,818.75,96.8969,103.723,125.429,105.875,126.133,0.00809369,0.491384,20.2803,99.4491,-1.60728,0.0,0.0
3288,821.75,96.8919,103.786,123.997,105.861,120.981,0.0078747,0.492455,20.2806,99.1789,-1.22568,0.0,0.0
3300,824.75,96.9291,104.008,131.488,105.876,121.751,0.007891,0.490826,20.2819,98.8986,-1.28253,0.0,0.0
3312,827.75,96.8235,103.654,126.574,105.895,121.334,0.00793099,0.489039,20.2827,98.6584,-1.24949,0.0,0.0
3324,830.75,96.8589,103.622,124.342,105.913,120.293,0.00796006,0.489425,20.2813,98.3681,-1.16879,0.0,0.0
3336,833.75,96.6236,103.071,125.846,105.957,122.24,0.00826635,0.48906,20.2824,98.0879,-1.31238,0.0,0.0
3348,836.75,96.5286,103.684,128.491,106.009,122.276,0.00814064,0.485357,20.2871,97.8377,-1.31053,0.0,0.0
3360,839.75,96.4804,102.953,125.223,106.066,120.936,0.0077933,0.482904,20.2892,97.4974,-1.20444,0.0,0.0
3372,842.75,96.593,103.231,127.343,106.153,120.447,0.00788489,0.482091,20.2922,97.2672,-1.15972,0.0,0.0
3384,845.75,96.1909,102.573,125.074,106.214,120.112,0.00776142,0.480946,20.2952,97.0169,-1.12888,0.0,0.0
3396,848.75,95.9497,102.341,127.448,106.291,122.394,0.00750849,0.478426,20.2985,96.7567,-1.29504,0.0,0.0
3408,851.75,96.3825,102.543,125.607,106.376,122.883,0.00753843,0.475555,20.3014,96.4865,-1.32423,0.0,0.0
3420,854.75,96.0691,102.282,130.189,106.471,124.449,0.0077358,0.473768,20.3041,96.2062,-1.43231,0.0,0.0
3432,857.75,96.3945,101.958,126.581,106.565,123.924,0.00772961,0.47536,20.3026,95.9059,-1.38542,0.0,0.0
3444,860.75,95.7964,102.539,125.325,106.667,122.421,0.00767055,0.474883,20.3016,95.6757,-1.26463,0.0,0.0
3456,863.75,95.9259,102.503,129.409,106.745,122.919,0.0076548,0.473665,20.3041,95.4255,-1.29515,0.0,0.0
3468,866.75,95.2612,101.758,132.256,106.847,120.882,0.00765991,0.47107,20.3063,95.1553,-1.13302,0.0,0.0
3480,869.75,95.7605,102.08,126.615,106.949,122.041,0.00741005,0.470202,20.3072,94.865,-1.21178,0.0,0.0
3492,872.75,95.244,101.735,127.447,107.068,122.204,0.00738693,0.469198,20.3086,94.6048,-1.21383,0.0,0.0
3504,875.75,94.992,101.555,126.162,107.165,124.06,0.0071073,0.467676,20.3097,94.3645,-1.34396,0.0,0.0
3516,878.75,95.0353,101.609,128.513,107.261,121.778,0.00680377,0.467207,20.3106,94.1243,-1.16529,0.0,0.0
3528,881.75,94.7175,101.455,132.081,107.334,124.965,0.00670494,0.465769,20.3109,93.8641,-1.39618,0.0,0.0
3540,884.75,94.5483,101.232,126.707,107.411,122.647,0.00655244,0.462717,20.3158,93.6639,-1.2178,0.0,0.0
3552,887.75,94.7599,101.275,129.493,107.486,123.525,0.00643309,0.459844,20.32,93.3737,-1.2769,0.0,0.0
3564,890.75,94.6512,101.235,129.26,107.535,121.832,0.00644743,0.457936,20.3248,93.1335,-1.14597,0.0,0.0
3576,893.75,94.496,100.812,122.819,107.587,122.53,0.00653887,0.45597,20.3276,92.8532,-1.19392,0.0,0.0
3588,896.75,94.1831,100.582,131.405,107.614,124.82,0.0065039,0.451457,20.3351,92.643,-1.36161,0.0,0.0
3600,899.75,94.1251,100.533,127.625,107.646,123.209,0.00647518,0.448636,20.3399,92.3828,-1.23964,0.0,0.0
3612,902.75,94.1043,100.437,126.873,107.705,122.321,0.00642324,0.44854,20.3398,92.1626,-1.16821,0.0,0.0
3624,905.75,93.6486,100.048,126.646,107.713,123.752,0.00637325,0.447948,20.341,91.9023,-1.27427,0.0,0.0
3636,908.75,93.5144,100.16,126.441,107.727,123.915,0.00634615,0.44545,20.343,91.6821,-1.28517,0.0,0.0
3648,911.75,93.6608,99.861,131.814,107.732,124.874,0.00609955,0.442286,20.3491,91.4619,-1.35562,0.0,0.0
3660,914.75,93.5836,99.6036,130.711,107.735,122.113,0.00594158,0.440016,20.3532,91.2017,-1.15004,0.0,0.0
3672,917.75,93.2812,99.8628,131.922,107.745,125.861,0.00596859,0.437168,20.356,90.9915,-1.42673,0.0,0.0
3684,920.75,93.3851,99.5668,128.641,107.743,122.647,0.0058508,0.436381,20.3579,90.7413,-1.18941,0.0,0.0
3696,923.75,93.2123,99.4393,125.943,107.717,123.181,0.00573641,0.436919,20.3576,90.5311,-1.23153,0.0,0.0
3708,926.75,92.9696,99.1414,125.803,107.695,123.725,0.0056891,0.436017,20.3579,90.2909,-1.27378,0.0,0.0
3720,929.75,92.7079,98.9721,127.026,107.66,122.303,0.005625,0.433794,20.3601,90.0907,-1.17075,0.0,0.0
3732,932.75,92.5918,98.8673,129.066,107.625,123.752,0.00551272,0.432927,20.361,89.8605,-1.28181,0.0,0.0
3744,935.75,92.609,98.5763,128.143,107.563,122.575,0.00533006,0.429873,20.3631,89.6503,-1.19932,0.0,0.0
3756,938.75,91.8571,98.234,129.62,107.509,126.359,0.0051948,0.42803,20.366,89.4602,-1.48308,0.0,0.0
3768,941.75,92.2004,98.3717,131.74,107.452,125.825,0.00523561,0.426151,20.3685,89.28,-1.44913,0.0,0.0
3780,944.75,91.9332,98.0568,125.342,107.372,124.947,0.00520064,0.424661,20.3722,89.0098,-1.39161,0.0,0.0
3792,947.75,92.0167,97.7541,130.582,107.299,126.486,0.00507133,0.421957,20.3748,88.7695,-1.51029,0.0,0.0
3804,950.75,91.7047,97.9116,131.199,107.229,122.874,0.00497347,0.42064,20.377,88.5694,-1.2503,0.0,0.0
3816,953.75,91.6664,97.5283,127.852,107.165,122.475,0.00498493,0.41952,20.3784,88.3191,-1.22593,0.0,0.0
3828,956.75,91.2123,97.6097,131.917,107.096,123.888,0.0048684,0.41827,20.3789,88.119,-1.33708,0.0,0.0
3840,959.75,91.2677,97.0639,126.115,107.021,122.439,0.00498568,0.41658,20.3806,87.8487,-1.23553,0.0,0.0
3852,962.75,90.7484,96.6745,132.991,106.955,120.8,0.00528924,0.416393,20.3821,87.6886,-1.11756,0.0,0.0
3864,965.75,90.7129,96.297,130.445,106.896,125.698,0.00522027,0.414963,20.384,87.4784,-1.48744,0.0,0.0
3876,968.75,90.1392,97.0118,132.829,106.852,123.199,0.00476368,0.411713,20.3876,87.3082,-1.30688,0.0,0.0
3888,971.75,90.6559,96.4079,127.477,106.809,123.534,0.00447643,0.410377,20.3899,87.088,-1.33552,0.0,0.0
3900,974.75,90.3095,96.6133,129.126,106.781,126.015,0.00443142,0.409488,20.3923,86.9079,-1.52043,0.0,0.0
3912,977.75,90.3703,95.7887,131.407,106.875,120.846,0.00449168,0.406787,20.3929,86.6877,-1.1278,0.0,0.0
3924,980.75,90.1152,96.0576,128.987,106.975,124.159,0.00445173,0.404574,20.3963,86.5075,-1.36761,0.0,0.0
3936,983.75,90.2173,96.0818,131.514,107.041,121.57,0.0043224,0.402786,20.399,86.3173,-1.16842,0.0,0.0
3948,986.75,90.3518,95.9675,130.334,107.103,120.158,0.00435508,0.401711,20.4012,86.1072,-1.05584,0.0,0.0
3960,989.75,89.8157,95.7265,128.986,107.177,125.128,0.00437782,0.400982,20.4021,85.917,-1.4216,0.0,0.0
3972,992.75,89.6768,95.9171,128.73,107.206,124.603,0.00439653,0.399212,20.4035,85.6968,-1.38049,0.0,0.0
3984,995.75,90.1511,95.8282,127.152,107.23,121.688,0.00432278,0.398141,20.4061,85.5366,-1.16114,0.0,0.0
3996,998.75,89.844,95.3203,128.915,107.26,122.946,0.00430796,0.397006,20.4068,85.3164,-1.25298,0.0,0.0
4008,1001.75,90.001,95.3274,126.932,107.252,121.443,0.00401607,0.394117,20.4106,85.1363,-1.14078,0.0,0.0
4020,1004.75,89.0377,95.1781,128.596,107.245,123.516,0.00382867,0.391313,20.4145,84.9661,-1.29682,0.0,0.0
4032,1007.75,88.895,94.9644,128.725,107.242,122.774,0.00377812,0.390688,20.4174,84.806,-1.2417,0.0,0.0
4044,1010.75,89.6005,94.7979,134.981,107.22,124.413,0.00382817,0.388132,20.421,84.5658,-1.36532,0.0,0.0
4056,1013.75,89.2162,94.4969,128.008,107.234,125.327,0.00393314,0.386561,20.4242,84.4156,-1.43131,0.0,0.0
4068,1016.75,88.9579,94.2427,132.868,107.227,123.897,0.00386727,0.381712,20.4309,84.2755,-1.32656,0.0,0.0
4080,1019.75,88.7521,94.1379,127.811,107.225,126.323,0.00371637,0.381117,20.4325,84.1154,-1.50479,0.0,0.0
4092,1022.75,87.8361,93.9003,129.535,107.223,122.149,0.00381544,0.38003,20.4336,83.9352,-1.19647,0.0,0.0
4104,1025.75,88.5284,94.0052,125.693,107.226,123.027,0.00383214,0.377557,20.4372,83.735,-1.26205,0.0,0.0
4116,1028.75,88.3689,93.7702,131.324,107.214,124.521,0.00391639,0.374397,20.4412,83.5248,-1.37382,0.0,0.0
4128,1031.75,88.0503,93.3215,127.109,107.228,127.826,0.00383522,0.370562,20.4478,83.3647,-1.61311,0.0,0.0
4140,1034.75,87.9962,93.6559,125.409,107.224,127.545,0.00371327,0.369349,20.45,83.2346,-1.59327,0.0,0.0
4152,1037.75,87.5629,93.16,131.461,107.236,125.744,0.00389626,0.3681,20.4507,83.1145,-1.46162,0.0,0.0
4164,1040.75,87.4729,92.9845,126.224,107.223,125.68,0.00386095,0.366306,20.452,82.9543,-1.45811,0.0,0.0
4176,1043.75,87.4828,93.193,129.509,107.199,124.041,0.00350767,0.365539,20.4532,82.7742,-1.33971,0.0,0.0
4188,1046.75,87.2424,92.8124,130.795,107.165,125.49,0.00341041,0.362914,20.456,82.594,-1.44921,0.0,0.0
4200,1049.75,87.1162,92.3564,126.909,107.122,122.629,0.00343154,0.362164,20.4591,82.4839,-1.24115,0.0,0.0
4212,1052.75,86.9321,92.0973,132.864,107.05,125.264,0.00338202,0.359504,20.4636,82.2737,-1.44245,0.0,0.0
4224,1055.75,86.5993,91.9006,137.152,106.956,122.004,0.00354041,0.358565,20.4664,82.0936,-1.20853,0.0,0.0
4236,1058.75,86.7558,92.047,129.647,106.828,126.178,0.00360464,0.356862,20.4696,81.9134,-1.52833,0.0,0.0
4248,1061.75,86.2288,91.3337,130.5,106.801,122.792,0.00366019,0.354313,20.4725,81.8033,-1.28089,0.0,0.0
4260,1064.75,86.6478,91.3004,128.97,106.873,124.503,0.00364043,0.352867,20.4748,81.5931,-1.40172,0.0,0.0
4272,1067.75,86.2395,91.6254,131.102,106.951,122.367,0.0034392,0.350059,20.4788,81.463,-1.23616,0.0,0.0
4284,1070.75,85.514,91.0664,132.458,107.04,124.476,0.00328291,0.347178,20.4832,81.2828,-1.38544,0.0,0.0
4296,1073.75,85.838,90.7174,128.683,107.161,126.051,0.00325295,0.344328,20.4879,81.1627,-1.49048,0.0,0.0
4308,1076.75,85.3939,90.8138,134.104,107.283,126.35,0.00323728,0.340977,20.4936,81.0126,-1.50177,0.0,0.0
4320,1079.75,85.1759,90.3794,134.759,107.381,127.011,0.00332275,0.339074,20.4952,80.8825,-1.54125,0.0,0.0
4332,1082.75,84.7598,90.0596,134.529,107.498,123.797,0.00338623,0.341489,20.4942,80.7724,-1.29598,0.0,0.0
4344,1085.75,84.7811,90.3044,130.96,107.607,126.631,0.00317156,0.340227,20.4955,80.5722,-1.49446,0.0,0.0
4356,1088.75,84.569,90.0449,130.75,107.663,126.441,0.00332224,0.336315,20.5002,80.4321,-1.47591,0.0,0.0
4368,1091.75,84.7581,89.7713,134.304,107.716,126.649,0.00343318,0.331817,20.506,80.302,-1.48649,0.0,0.0
4380,1094.75,84.3524,89.7384,130.687,107.72,126.785,0.00317533,0.329334,20.5102,80.2019,-1.49599,0.0,0.0
4392,1097.75,84.4472,89.2747,133.746,107.703,128.26,0.00298963,0.326483,20.5137,80.0317,-1.60364,0.0,0.0
4404,1100.75,84.4722,88.7458,130.679,107.597,127.455,0.00277051,0.322299,20.5189,79.9016,-1.55485,0.0,0.0
4416,1103.75,84.0608,89.1142,133.284,107.475,126.504,0.00254163,0.321381,20.5214,79.7815,-1.49657,0.0,0.0
4428,1106.75,83.4632,88.5747,128.739,107.291,128.161,0.00249426,0.31864,20.5252,79.6714,-1.63173,0.0,0.0
4440,1109.75,84.3073,88.6219,129.593,107.069,124.141,0.00265878,0.317948,20.5271,79.5313,-1.35816,0.0,0.0
4452,1112.75,83.7089,88.3755,133.92,106.82,127.355,0.00288872,0.317117,20.529,79.3811,-1.61424,0.0,0.0
4464,1115.75,82.4932,87.9546,134.297,106.555,125.906,0.00305046,0.314127,20.535,79.281,-1.532,0.0,0.0
4476,1118.75,82.9125,87.3638,132.734,106.297,123.181,0.00305373,0.313262,20.5375,79.1209,-1.3534,0.0,0.0
4488,1121.75,82.47,87.3614,133.505,106.087,125.173,0.00305352,0.31328,20.5371,79.0008,-1.5188,0.0,0.0
4500,1124.75,82.2726,87.1755,131.977,105.942,122.448,0.00308298,0.312999,20.5385,78.8607,-1.32929,0.0,0.0
4512,1127.75,82.3103,86.9885,131.014,105.873,126.051,0.00309134,0.311691,20.5399,78.7606,-1.60146,0.0,0.0
4524,1130.75,81.838,87.1591,132.203,105.886,125.209,0.00307545,0.309495,20.5429,78.6204,-1.53888,0.0,0.0
4536,1133.75,82.0759,87.008,131.347,105.99,127.065,0.00314746,0.307011,20.5481,78.5003,-1.6649,0.0,0.0
4548,1136.75,81.9884,86.5297,135.786,106.157,125.445,0.00331193,0.30282,20.5551,78.4002,-1.53259,0.0,0.0
4560,1139.75,81.3234,86.105,132.049,106.376,124.702,0.00348191,0.300148,20.5616,78.3202,-1.45925,0.0,0.0
4572,1142.75,81.1689,86.2293,132.954,106.609,127.102,0.00351573,0.298174,20.5653,78.1901,-1.61404,0.0,0.0
4584,1145.75,80.7509,85.6641,135.118,106.831,125.807,0.00326861,0.292921,20.5731,78.08,-1.50094,0.0,0.0
4596,1148.75,80.5207,85.5247,137.883,107.018,127.111,0.00301006,0.288652,20.5801,77.9799,-1.57955,0.0,0.0
4608,1151.75,80.4489,85.3368,135.901,107.12,125.137,0.00300696,0.284456,20.5872,77.8097,-1.42715,0.0,0.0
4620,1154.75,80.2246,84.5281,136.973,107.207,125.952,0.00310728,0.281028,20.5939,77.7297,-1.47931,0.0,0.0
4632,1157.75,79.7323,84.2204,136.694,107.169,127.636,0.00300668,0.277635,20.6009,77.6196,-1.60448,0.0,0.0
4644,1160.75,78.9991,84.1632,135.984,107.079,126.957,0.00258279,0.274829,20.6071,77.5295,-1.56323,0.0,0.0
4656,1163.75,79.1444,83.5485,132.777,106.969,125.925,0.00241436,0.271859,20.6129,77.3994,-1.49775,0.0,0.0
4668,1166.75,78.7742,82.8992,137.557,106.766,125.653,0.00267389,0.268429,20.6191,77.2893,-1.49532,0.0,0.0
4680,1169.75,78.3704,82.7798,137.87,106.575,125.418,0.00292298,0.264401,20.6271,77.1792,-1.4946,0.0,0.0
4692,1172.75,78.1906,82.4019,137.843,106.438,125.064,0.00299233,0.26211,20.6324,77.0691,-1.48046,0.0,0.0
4704,1175.75,77.4748,82.1023,135.34,106.53,125.164,0.00304453,0.258645,20.6383,77.009,-1.47989,0.0,0.0
4716,1178.75,77.5488,81.682,137.164,106.806,125.617,0.0031165,0.254638,20.646,76.9389,-1.48927,0.0,0.0
4728,1181.75,76.958,81.1819,136.247,107.052,125.055,0.00313444,0.250853,20.6535,76.7988,-1.42703,0.0,0.0
4740,1184.75,76.4823,80.3173,138.095,107.188,126.432,0.00307642,0.246026,20.6635,76.7388,-1.51582,0.0,0.0
4752,1187.75,76.0962,80.6029,134.513,107.201,128.921,0.0030018,0.239562,20.6727,76.6287,-1.69376,0.0,0.0
4764,1190.75,75.2911,80.0454,138.974,107.067,126.966,0.00307944,0.234184,20.6821,76.5486,-1.56486,0.0,0.0
4776,1193.75,75.3516,79.5883,138.342,106.792,126.495,0.00336743,0.228595,20.6938,76.5186,-1.55439,0.0,0.0
4788,1196.75,74.522,78.3655,136.091,106.875,127.5,0.00358449,0.221388,20.7077,76.4285,-1.61996,0.0,0.0
4800,1199.75,73.8323,78.6186,138.11,107.085,127.473,0.00371262,0.215135,20.719,76.3184,-1.59991,0.0,0.0
4812,1202.75,72.9752,76.7599,138.713,107.307,127.871,0.00363762,0.20873,20.7316,76.2483,-1.60961,0.0,0.0
4824,1205.75,73.122,76.8862,145.766,107.514,126.911,0.00350677,0.202941,20.7434,76.1783,-1.52274,0.0,0.0
4836,1208.75,71.9157,76.2284,138.211,107.664,129.981,0.00349081,0.19778,20.7526,76.1282,-1.72929,0.0,0.0
4848,1211.75,71.505,75.5627,145.268,107.741,128.758,0.00342084,0.192504,20.7602,76.0381,-1.63602,0.0,0.0
4860,1214.75,70.7887,74.8685,141.258,107.678,129.555,0.00332143,0.186877,20.7707,76.0081,-1.698,0.0,0.0
4872,1217.75,70.0491,74.0999,141.497,107.536,128.414,0.00340877,0.180968,20.7823,75.9781,-1.62895,0.0,0.0
4884,1220.75,69.6984,73.5249,144.359,107.298,127.147,0.00391173,0.174564,20.7948,75.908,-1.55821,0.0,0.0
4896,1223.75,69.1705,72.8931,144.428,106.96,127.219,0.00457891,0.171333,20.8022,75.888,-1.59236,0.0,0.0
4908,1226.75,68.2038,71.792,143.812,106.605,127.799,0.00504696,0.168144,20.81,75.8279,-1.66463,0.0,0.0
4920,1229.75,67.4014,71.2862,138.732,106.27,127.246,0.00520128,0.166338,20.8139,75.8079,-1.65375,0.0,0.0
4932,1232.75,66.3427,69.9712,141.068,106.009,127.065,0.00508659,0.166157,20.8154,75.7679,-1.66328,0.0,0.0
4944,1235.75,65.7966,69.4241,137.556,105.901,124.548,0.00516758,0.166397,20.8171,75.7078,-1.48897,0.0,0.0
4956,1238.75,64.9508,68.9002,142.981,105.93,125.608,0.00537031,0.165914,20.8176,75.6378,-1.56419,0.0,0.0
4968,1241.75,64.7771,68.0253,144.493,106.11,125.273,0.00533573,0.1659,20.8185,75.6077,-1.5241,0.0,0.0
4980,1244.75,64.5342,67.9367,139.743,106.361,125.255,0.00545731,0.165212,20.8211,75.5977,-1.50106,0.0,0.0
4992,1247.75,63.9778,67.5171,141.602,106.638,125.472,0.00550656,0.164136,20.8233,75.5077,-1.4931,0.0,0.0
5004,1250.75,63.7642,66.4745,140.855,106.899,127.129,0.00538485,0.163084,20.8243,75.4576,-1.59113,0.0,0.0
5016,1253.75,63.1915,65.9919,144.647,107.093,126.848,0.005146,0.162908,20.8246,75.4576,-1.55414,0.0,0.0
5028,1256.75,62.4438,65.672,141.565,107.172,126.993,0.00491812,0.163208,20.8249,75.3775,-1.55783,0.0,0.0
5040,1259.75,62.3432,65.3365,140.946,107.148,126.133,0.00498033,0.162632,20.8253,75.3475,-1.49749,0.0,0.0
5052,1262.75,61.832,65.0622,141.678,106.992,125.789,0.00501862,0.161706,20.8268,75.3275,-1.48583,0.0,0.0
5064,1265.75,61.5533,65.123,146.624,106.778,124.268,0.00495988,0.160231,20.8285,75.2674,-1.39255,0.0,0.0
5076,1268.75,61.553,64.0346,139.531,106.538,126.042,0.00505421,0.159822,20.8294,75.2174,-1.54336,0.0,0.0
5088,1271.75,61.0587,63.6611,145.706,106.376,124.883,0.00522748,0.159488,20.8296,75.1674,-1.4725,0.0,0.0
5100,1274.75,61.551,63.9679,144.595,106.67,126.486,0.00523137,0.16011,20.8297,75.1273,-1.56422,0.0,0.0
5112,1277.75,60.7105,63.2897,145.521,106.959,125.092,0.00518285,0.160271,20.8297,75.0773,-1.43761,0.0,0.0
5124,1280.75,60.4502,63.0003,144.987,107.145,124.983,0.00507173,0.159652,20.8291,75.0372,-1.41369,0.0,0.0
5136,1283.75,60.1266,62.7357,147.652,107.174,124.15,0.00505384,0.158948,20.8303,74.9972,-1.34988,0.0,0.0
5148,1286.75,59.8338,61.7613,142.451,107.044,123.498,0.00537648,0.158489,20.8308,74.9672,-1.31271,0.0,0.0
5160,1289.75,60.0186,62.0783,141.692,106.786,125.092,0.00546991,0.159019,20.831,74.8771,-1.45253,0.0,0.0
5172,1292.75,59.7568,62.1548,139.652,106.849,124.476,0.00524615,0.159035,20.831,74.8571,-1.40182,0.0,0.0
5184,1295.75,59.4408,61.4759,143.311,107.012,123.625,0.00521887,0.159181,20.8294,74.797,-1.32485,0.0,0.0
5196,1298.75,59.3417,61.5857,140.765,107.209,125.952,0.00525132,0.158948,20.8292,74.747,-1.47908,0.0,0.0
5208,1301.75,59.2421,61.7478,141.997,107.388,124.911,0.00543729,0.158619,20.8298,74.6869,-1.38764,0.0,0.0
5220,1304.75,58.8452,61.1911,141.24,107.541,125.925,0.00544539,0.158522,20.8302,74.6569,-1.44877,0.0,0.0
5232,1307.75,58.8252,61.174,145.198,107.623,124.123,0.00528955,0.158333,20.8316,74.5968,-1.30949,0.0,0.0
5244,1310.75,58.6137,60.7716,147.221,107.671,124.476,0.00525432,0.157722,20.8324,74.5668,-1.33148,0.0,0.0
5256,1313.75,58.6706,60.7564,143.585,107.679,124.53,0.00525924,0.158032,20.8326,74.5468,-1.33478,0.0,0.0
5268,1316.75,58.785,60.8442,140.926,107.635,124.032,0.00535346,0.15825,20.8327,74.4967,-1.30172,0.0,0.0
5280,1319.75,58.2858,60.6322,146.164,107.54,124.177,0.00521227,0.158007,20.8321,74.4467,-1.3206,0.0,0.0
5292,1322.75,58.3677,60.2316,142.206,107.418,125.119,0.00516772,0.157826,20.8325,74.4267,-1.40037,0.0,0.0
5304,1325.75,57.8727,59.9489,141.853,107.306,124.766,0.00538565,0.157726,20.8324,74.3666,-1.38399,0.0,0.0
5316,1328.75,57.9806,60.0406,144.992,107.166,122.855,0.00574869,0.15757,20.8322,74.2966,-1.25431,0.0,0.0
5328,1331.75,57.611,59.8786,141.05,107.005,122.738,0.00575337,0.157405,20.8321,74.2465,-1.25929,0.0,0.0
5340,1334.75,58.0295,59.529,142.049,106.848,122.43,0.0055577,0.156595,20.8321,74.2365,-1.24977,0.0,0.0
5352,1337.75,57.3296,59.1121,141.772,106.688,122.484,0.00563638,0.156472,20.8335,74.1564,-1.26759,0.0,0.0
5364,1340.75,57.7993,59.118,144.404,106.55,123.218,,0.156295,,74.1364,-1.33424,0.0,0.0
5376,1343.75,57.7922,59.4139,143.402,106.428,121.905,,,,74.0263,-1.24645,0.0,0.0
5388,1346.75,57.2501,59.4667,143.984,106.326,122.05,,,,74.0363,-1.26615,0.0,0.0
5399,1349.5,57.0959,59.4818,144.454,106.252,123.906,,,,73.9863,-1.41106,0.0,0.0