File: 01_Data/Composite_Deck_Board/Cone/Composite_Deck_Board_HRRPUA_75.csv
Time after Ignition,Composite_Deck_Board_R1,Composite_Deck_Board_R2,Composite_Deck_Board_R3,Mean,Std. Dev.
0.0,20.2,9.7,10.6,13.5,5.8
1.0,31.0,20.2,21.9,24.4,5.8
2.0,48.5,33.6,32.2,38.1,9.0
3.0,77.6,60.8,48.7,62.4,14.5
4.0,121.1,90.5,70.1,93.9,25.6
5.0,162.3,146.4,103.2,137.3,30.6
6.0,205.2,189.1,149.6,181.3,28.6
7.0,243.5,295.7,215.2,251.5,40.9
8.0,306.1,357.1,284.6,315.9,37.2
9.0,377.8,455.9,340.7,391.5,58.8
10.0,506.4,531.5,444.6,494.2,44.7
11.0,593.5,665.5,518.1,592.4,73.7
12.0,687.6,758.8,646.8,697.8,56.7
13.0,822.6,805.5,765.1,797.7,29.5
14.0,919.8,852.8,797.6,856.7,61.2
15.0,961.0,962.3,927.2,950.2,19.9
16.0,998.8,1109.7,965.2,1024.6,75.6
17.0,1074.2,1136.2,987.8,1066.1,74.5
18.0,1257.0,1122.7,1080.3,1153.3,92.3
19.0,1176.3,1215.7,1176.9,1189.6,22.6
20.0,1218.1,1219.5,1141.4,1193.0,44.7
21.0,1278.4,1292.6,1170.2,1247.1,67.0
22.0,1226.3,1227.1,1179.6,1211.0,27.2
23.0,1234.1,1214.7,1287.9,1245.6,37.9
24.0,1215.6,1202.3,1250.8,1222.9,25.0
25.0,1232.3,1155.7,1295.8,1227.9,70.2
26.0,1105.4,1149.2,1242.9,1165.8,70.2
27.0,1084.9,1117.6,1177.7,1126.7,47.1
28.0,1039.2,1047.0,1185.9,1090.7,82.6
29.0,1041.5,1007.1,1053.3,1034.0,24.0
30.0,948.5,995.3,1055.0,999.6,53.4
31.0,898.1,913.8,963.9,925.3,34.4
32.0,910.1,862.3,932.3,901.6,35.8
33.0,835.8,803.2,890.3,843.1,44.0
34.0,785.4,774.2,841.9,800.5,36.3
35.0,785.5,766.2,814.9,788.9,24.5
36.0,753.2,726.2,771.7,750.4,22.9
37.0,694.8,698.7,747.9,713.8,29.6
38.0,688.7,681.9,746.9,705.8,35.8
39.0,681.4,672.3,704.6,686.1,16.6
40.0,654.7,640.5,682.0,659.1,21.1
41.0,640.6,621.4,654.0,638.7,16.4
42.0,608.8,623.2,655.5,629.2,23.9
43.0,600.4,626.9,618.6,615.3,13.6
44.0,615.9,601.0,631.7,616.2,15.4
45.0,575.4,579.3,618.0,590.9,23.6
46.0,586.7,572.8,591.3,583.6,9.6
47.0,548.7,566.4,592.8,569.3,22.2
48.0,558.3,562.7,586.6,569.2,15.2
49.0,552.1,543.0,555.9,550.3,6.6
50.0,539.9,540.2,565.6,548.5,14.7
51.0,521.6,533.8,535.4,530.3,7.6
52.0,513.9,523.3,557.1,531.4,22.7
53.0,513.0,513.9,537.1,521.3,13.7
54.0,509.7,501.4,516.7,509.3,7.7
55.0,494.1,494.0,502.4,496.8,4.8
56.0,509.7,484.0,511.9,501.8,15.5
57.0,485.6,485.6,489.7,486.9,2.4
58.0,487.5,471.2,487.7,482.1,9.4
59.0,488.4,462.2,497.9,482.8,18.5
60.0,476.4,462.9,478.8,472.7,8.5
61.0,456.1,457.4,478.3,463.9,12.4
62.0,463.7,452.0,471.8,462.5,10.0
63.0,453.3,457.7,470.1,460.4,8.7
64.0,445.7,456.3,458.9,453.6,7.0
65.0,446.1,458.4,454.9,453.1,6.3
66.0,441.2,447.1,449.8,446.0,4.4
67.0,432.4,443.8,448.9,441.7,8.4
68.0,433.9,438.8,458.3,443.7,12.9
69.0,432.1,424.9,460.5,439.1,18.8
70.0,433.1,429.0,434.3,432.1,2.8
71.0,427.9,424.6,433.7,428.7,4.6
72.0,423.1,421.3,426.4,423.6,2.6
73.0,425.7,416.3,424.7,422.2,5.2
74.0,403.1,419.0,430.3,417.4,13.6
75.0,409.5,402.1,417.3,409.7,7.6
76.0,395.9,407.4,419.0,407.4,11.5
77.0,411.7,398.8,410.6,407.0,7.1
78.0,405.7,394.3,412.9,404.3,9.4
79.0,387.5,391.2,401.9,393.5,7.4
80.0,398.7,390.4,395.7,395.0,4.2
81.0,392.1,400.1,405.6,399.3,6.7
82.0,386.0,384.0,402.7,390.9,10.2
83.0,386.5,391.0,385.6,387.7,2.9
84.0,388.6,388.8,393.2,390.2,2.6
85.0,375.4,387.2,387.9,383.5,7.0
86.0,375.7,383.1,397.2,385.3,10.9
87.0,372.0,378.5,384.9,378.5,6.5
88.0,378.3,366.8,374.9,373.3,5.9
89.0,376.5,374.8,380.3,377.2,2.8
90.0,366.8,366.4,383.4,372.2,9.7
91.0,370.3,365.9,379.2,371.8,6.8
92.0,359.3,363.6,372.8,365.2,6.9
93.0,362.0,368.0,384.2,371.4,11.5
94.0,361.7,369.2,378.4,369.8,8.3
95.0,358.1,353.3,363.2,358.2,5.0
96.0,357.4,357.6,371.2,362.1,7.9
97.0,360.2,356.4,368.1,361.6,6.0
98.0,353.4,363.0,361.3,359.2,5.1
99.0,357.6,355.0,372.6,361.8,9.5
100.0,349.9,350.5,363.5,354.6,7.7
101.0,354.2,349.7,357.8,353.9,4.0
102.0,345.2,349.4,363.8,352.8,9.7
103.0,354.0,355.1,366.4,358.5,6.9
104.0,347.4,347.0,353.0,349.2,3.3
105.0,343.2,347.1,353.0,347.8,4.9
106.0,343.5,343.9,352.9,346.8,5.3
107.0,351.7,348.2,349.7,349.9,1.8
108.0,340.5,346.9,354.8,347.4,7.2
109.0,339.6,339.7,347.5,342.3,4.5
110.0,338.5,343.5,344.6,342.2,3.2
111.0,335.3,339.4,346.5,340.4,5.7
112.0,334.4,344.2,341.5,340.0,5.1
113.0,331.8,337.2,349.4,339.5,9.0
114.0,322.1,339.7,343.0,334.9,11.2
115.0,335.5,338.8,354.7,343.0,10.3
116.0,337.0,335.4,340.9,337.8,2.8
117.0,330.0,327.9,340.2,332.7,6.6
118.0,336.2,334.9,335.5,335.5,0.6
119.0,325.7,328.0,333.3,329.0,3.9
120.0,330.0,336.0,332.2,332.7,3.0
121.0,330.5,329.3,329.0,329.6,0.8
122.0,331.1,325.4,328.0,328.2,2.8
123.0,330.7,322.2,331.2,328.0,5.1
124.0,321.6,332.0,326.8,326.8,5.2
125.0,332.8,320.5,331.3,328.2,6.7
126.0,332.4,332.7,333.0,332.7,0.3
127.0,334.4,325.7,341.1,333.7,7.7
128.0,331.0,325.1,336.4,330.8,5.6
129.0,329.4,324.1,322.4,325.3,3.6
130.0,329.5,321.9,333.0,328.1,5.7
131.0,333.3,323.7,324.8,327.3,5.3
132.0,330.1,326.7,325.0,327.3,2.6
133.0,324.8,319.8,327.2,323.9,3.7
134.0,331.1,315.3,332.5,326.3,9.6
135.0,327.5,318.6,325.3,323.8,4.6
136.0,333.3,319.2,315.2,322.6,9.5
137.0,324.8,318.9,324.1,322.6,3.2
138.0,327.2,312.1,321.7,320.3,7.7
139.0,322.9,318.7,325.6,322.4,3.5
140.0,319.7,323.1,321.2,321.3,1.7
141.0,328.1,317.7,325.7,323.8,5.5
142.0,320.9,318.2,329.8,323.0,6.1
143.0,336.5,315.7,328.5,326.9,10.5
144.0,327.9,321.7,327.7,325.8,3.5
145.0,318.3,320.6,319.8,319.6,1.2
146.0,323.9,304.9,323.6,317.5,10.9
147.0,317.5,310.5,321.1,316.4,5.4
148.0,318.3,310.5,318.9,315.9,4.7
149.0,318.5,318.0,321.1,319.2,1.7
150.0,318.4,314.9,316.6,316.6,1.8
151.0,317.1,317.7,317.1,317.3,0.3
152.0,318.1,319.3,322.0,319.8,2.0
153.0,313.7,310.1,314.6,312.8,2.4
154.0,314.4,310.2,321.8,315.5,5.9
155.0,311.7,318.1,317.7,315.8,3.6
156.0,310.3,313.5,325.5,316.4,8.0
157.0,312.7,313.1,316.3,314.0,2.0
158.0,310.5,313.9,318.5,314.3,4.0
159.0,310.7,315.0,318.9,314.9,4.1
160.0,305.0,315.8,324.3,315.0,9.7
161.0,313.9,311.2,322.2,315.8,5.7
162.0,310.0,314.7,316.0,313.5,3.2
163.0,308.9,312.8,319.1,313.6,5.1
164.0,317.7,307.7,316.2,313.9,5.4
165.0,309.5,306.1,309.8,308.5,2.1
166.0,309.0,313.7,309.9,310.9,2.5
167.0,310.4,310.6,312.8,311.3,1.3
168.0,320.3,312.1,307.9,313.4,6.3
169.0,309.4,320.2,318.7,316.1,5.9
170.0,307.7,311.4,311.7,310.3,2.2
171.0,313.0,312.1,312.6,312.6,0.5
172.0,307.0,311.5,308.5,309.0,2.3
173.0,306.7,317.0,309.0,310.9,5.4
174.0,306.7,310.3,308.4,308.4,1.8
175.0,310.1,308.2,310.8,309.7,1.4
176.0,310.2,307.8,313.7,310.6,2.9
177.0,306.0,305.4,308.4,306.6,1.6
178.0,308.3,303.3,304.9,305.5,2.5
179.0,311.1,304.9,311.7,309.2,3.7
180.0,305.8,303.5,317.6,309.0,7.6
181.0,303.9,304.0,311.5,306.5,4.4
182.0,304.8,302.0,312.3,306.4,5.3
183.0,307.1,304.7,312.1,308.0,3.8
184.0,302.8,309.5,313.5,308.6,5.4
185.0,302.5,304.0,309.4,305.3,3.6
186.0,303.3,307.0,309.0,306.4,2.9
187.0,307.8,308.1,314.2,310.0,3.6
188.0,303.7,308.5,309.4,307.2,3.1
189.0,301.8,307.2,314.6,307.8,6.4
190.0,311.2,302.8,309.9,308.0,4.5
191.0,300.3,306.7,312.1,306.4,5.9
192.0,307.7,304.2,303.3,305.1,2.3
193.0,301.4,300.6,308.3,303.4,4.2
194.0,308.2,313.7,307.2,309.7,3.5
195.0,305.7,304.6,306.3,305.5,0.9
196.0,301.6,307.6,307.7,305.6,3.5
197.0,303.1,305.3,303.0,303.8,1.3
198.0,306.9,309.4,314.6,310.3,3.9
199.0,304.4,302.9,310.1,305.8,3.8
200.0,304.2,305.2,307.5,305.6,1.7
201.0,301.8,308.1,311.3,307.1,4.8
202.0,299.6,301.4,310.4,303.8,5.8
203.0,299.8,305.8,308.0,304.5,4.3
204.0,305.5,297.4,305.7,302.8,4.8
205.0,307.9,302.1,305.2,305.0,2.9
206.0,301.9,314.4,308.2,308.1,6.3
207.0,304.7,304.0,310.6,306.4,3.7
208.0,299.0,307.9,311.1,306.0,6.3
209.0,303.0,305.2,308.6,305.6,2.8
210.0,304.7,302.5,305.6,304.2,1.6
211.0,307.3,301.6,312.5,307.2,5.4
212.0,301.1,305.4,308.3,304.9,3.6
213.0,302.1,300.5,314.0,305.5,7.3
214.0,299.4,308.0,307.0,304.8,4.7
215.0,305.7,306.3,308.6,306.9,1.5
216.0,309.0,303.0,305.5,305.8,3.0
217.0,303.5,312.0,308.4,308.0,4.3
218.0,303.2,305.9,305.3,304.8,1.4
219.0,305.8,307.9,302.7,305.5,2.6
220.0,305.0,305.3,305.5,305.3,0.2
221.0,301.9,303.9,306.2,304.0,2.1
222.0,305.0,307.5,304.9,305.8,1.5
223.0,302.6,303.4,303.1,303.0,0.4
224.0,301.6,303.3,304.2,303.0,1.3
225.0,302.1,302.5,313.2,305.9,6.3
226.0,301.7,304.4,307.5,304.5,2.9
227.0,308.2,304.2,306.7,306.4,2.0
228.0,303.7,301.6,306.6,304.0,2.5
229.0,307.4,302.5,306.6,305.5,2.7
230.0,305.4,295.7,299.8,300.3,4.9
231.0,300.7,307.6,305.2,304.5,3.5
232.0,301.4,310.3,307.6,306.4,4.6
233.0,298.5,302.2,302.6,301.1,2.2
234.0,300.8,305.3,301.2,302.4,2.5
235.0,298.6,301.6,312.5,304.2,7.3
236.0,297.1,300.9,308.2,302.1,5.6
237.0,294.6,303.7,306.6,301.6,6.3
238.0,297.3,306.7,301.7,301.9,4.7
239.0,297.9,301.5,299.6,299.7,1.8
240.0,299.1,298.8,310.8,302.9,6.8
241.0,300.9,298.9,301.2,300.3,1.3
242.0,294.9,304.5,306.7,302.0,6.3
243.0,301.7,298.0,303.8,301.2,2.9
244.0,302.8,298.3,297.7,299.6,2.8
245.0,297.2,304.3,301.1,300.9,3.5
246.0,302.6,297.8,300.8,300.4,2.5
247.0,303.0,300.2,303.1,302.1,1.7
248.0,296.9,297.7,302.4,299.0,3.0
249.0,293.3,298.3,309.0,300.2,8.0
250.0,301.5,294.8,299.4,298.6,3.4
251.0,295.8,298.6,299.9,298.1,2.1
252.0,302.8,296.3,305.2,301.5,4.6
253.0,300.5,298.8,305.9,301.8,3.7
254.0,307.4,293.0,297.5,299.3,7.4
255.0,296.6,293.4,301.1,297.0,3.9
256.0,302.6,301.7,295.8,300.1,3.7
257.0,304.1,295.3,299.6,299.6,4.4
258.0,299.2,305.2,296.3,300.2,4.6
259.0,301.1,294.4,298.2,297.9,3.4
260.0,300.9,297.7,292.4,297.0,4.3
261.0,302.6,299.9,296.8,299.8,2.9
262.0,303.6,296.8,293.1,297.8,5.3
263.0,300.5,298.3,293.5,297.4,3.6
264.0,299.6,296.9,297.3,298.0,1.4
265.0,305.9,292.4,291.7,296.7,8.0
266.0,299.6,294.9,290.4,295.0,4.6
267.0,293.0,294.0,293.9,293.7,0.6
268.0,301.6,295.5,297.2,298.1,3.1
269.0,294.3,296.0,297.4,295.9,1.5
270.0,302.4,295.3,300.4,299.4,3.6
271.0,295.5,302.1,289.8,295.8,6.2
272.0,293.6,294.4,293.9,294.0,0.4
273.0,298.1,293.6,297.2,296.3,2.3
274.0,293.2,294.1,297.7,295.0,2.4
275.0,294.4,294.0,293.6,294.0,0.4
276.0,297.5,297.2,291.8,295.5,3.2
277.0,295.3,297.9,291.4,294.8,3.3
278.0,296.5,290.9,296.8,294.7,3.3
279.0,297.9,299.4,294.4,297.2,2.6
280.0,302.9,291.8,288.9,294.5,7.4
281.0,296.9,291.3,289.6,292.6,3.8
282.0,299.1,294.7,291.4,295.0,3.9
283.0,301.0,293.3,289.9,294.8,5.7
284.0,294.5,290.3,287.4,290.7,3.6
285.0,296.1,287.3,291.2,291.5,4.4
286.0,289.9,293.0,288.9,290.6,2.2
287.0,297.0,289.0,291.3,292.4,4.1
288.0,295.6,289.6,286.3,290.5,4.7
289.0,295.9,289.3,289.7,291.6,3.7
290.0,298.1,291.1,294.0,294.4,3.5
291.0,301.8,289.1,291.7,294.2,6.7
292.0,296.8,286.1,293.0,292.0,5.4
293.0,294.4,284.4,292.3,290.4,5.3
294.0,300.3,289.8,299.6,296.6,5.9
295.0,297.5,286.8,297.3,293.9,6.1
296.0,295.4,284.9,292.9,291.1,5.5
297.0,294.7,287.9,295.9,292.8,4.3
298.0,297.5,283.6,292.2,291.1,7.0
299.0,288.9,286.1,294.9,290.0,4.5
300.0,295.4,284.9,293.2,291.2,5.5
301.0,292.1,279.3,288.5,286.6,6.6
302.0,290.4,280.1,287.4,286.0,5.3
303.0,293.3,277.6,292.3,287.7,8.8
304.0,288.7,278.3,283.8,283.6,5.2
305.0,286.2,273.6,282.0,280.6,6.4
306.0,284.7,273.6,277.4,278.6,5.6
307.0,281.1,267.7,274.2,274.3,6.7
308.0,281.8,271.7,271.8,275.1,5.8
309.0,278.8,261.1,267.5,269.1,8.9
310.0,278.6,261.3,263.8,267.9,9.4
311.0,273.4,258.8,259.7,263.9,8.2
312.0,270.4,252.7,258.0,260.4,9.1
313.0,272.0,257.3,256.4,261.9,8.8
314.0,272.2,251.0,249.6,257.6,12.7
315.0,265.2,248.8,247.3,253.8,9.9
316.0,272.7,251.2,244.4,256.1,14.8
317.0,261.4,245.2,247.1,251.2,8.8
318.0,262.8,247.5,238.8,249.7,12.2
319.0,261.6,248.5,237.5,249.2,12.1
320.0,256.3,250.6,232.0,246.3,12.7
321.0,256.4,249.7,232.7,246.3,12.2
322.0,255.9,242.9,231.9,243.6,12.0
323.0,253.9,241.1,232.3,242.5,10.9
324.0,253.9,241.2,230.2,241.8,11.9
325.0,256.1,240.7,232.5,243.1,12.0
326.0,255.6,240.9,227.4,241.3,14.1
327.0,253.0,240.7,231.9,241.9,10.6
328.0,248.6,242.4,228.8,240.0,10.1
329.0,247.6,245.7,228.6,240.6,10.4
330.0,253.2,242.6,233.6,243.2,9.8
331.0,258.1,240.9,233.7,244.2,12.5
332.0,252.5,247.2,230.5,243.4,11.5
333.0,250.5,240.1,231.9,240.8,9.3
334.0,251.9,244.6,231.1,242.5,10.6
335.0,251.0,243.1,235.2,243.1,7.9
336.0,256.3,251.2,239.6,249.1,8.6
337.0,254.6,252.8,235.8,247.7,10.4
338.0,255.5,253.3,242.2,250.3,7.1
339.0,262.1,250.9,240.9,251.3,10.6
340.0,256.5,259.6,241.0,252.4,9.9
341.0,265.4,257.4,239.7,254.2,13.1
342.0,263.3,255.4,247.5,255.4,7.9
343.0,262.6,256.9,246.3,255.3,8.2
344.0,267.9,263.2,248.0,259.7,10.4
345.0,271.2,260.5,248.4,260.0,11.4
346.0,261.3,270.4,251.3,261.0,9.5
347.0,272.1,261.2,248.8,260.7,11.7
348.0,275.9,273.0,254.4,267.8,11.7
349.0,272.1,262.3,257.8,264.1,7.3
350.0,271.0,272.2,259.2,267.5,7.2
351.0,272.8,269.9,265.9,269.6,3.5
352.0,272.3,266.8,259.8,266.3,6.3
353.0,278.2,277.9,263.8,273.3,8.2
354.0,277.8,273.4,267.3,272.8,5.3
355.0,277.3,270.4,266.4,271.3,5.5
356.0,280.0,274.3,272.7,275.7,3.8
357.0,286.7,282.0,270.5,279.7,8.4
358.0,281.3,285.3,265.6,277.4,10.4
359.0,279.1,287.4,276.1,280.9,5.9
360.0,285.2,280.4,270.8,278.8,7.3
361.0,289.3,284.1,276.5,283.3,6.4
362.0,291.5,286.2,276.8,284.8,7.4
363.0,289.5,288.9,276.0,284.8,7.6
364.0,291.0,285.6,274.3,283.6,8.5
365.0,296.7,289.7,282.1,289.5,7.3
366.0,292.7,292.0,284.1,289.6,4.8
367.0,297.0,292.9,278.5,289.5,9.7
368.0,295.6,288.9,283.6,289.4,6.0
369.0,299.5,293.8,285.1,292.8,7.3
370.0,297.6,299.5,288.0,295.1,6.1
371.0,300.5,297.3,286.4,294.7,7.4
372.0,294.7,301.7,289.4,295.3,6.2
373.0,304.3,299.3,290.1,297.9,7.2
374.0,303.2,289.9,285.9,293.0,9.1
375.0,299.8,296.8,291.2,295.9,4.4
376.0,303.5,298.1,282.5,294.7,10.9
377.0,304.2,295.1,288.4,295.9,7.9
378.0,303.6,305.8,293.0,300.8,6.8
379.0,310.0,301.8,292.1,301.3,9.0
380.0,305.5,300.0,289.4,298.3,8.2
381.0,299.2,306.9,291.2,299.1,7.8
382.0,305.1,302.6,299.0,302.3,3.0
383.0,309.3,300.3,292.6,300.7,8.4
384.0,302.5,305.1,297.1,301.6,4.1
385.0,307.5,307.1,294.4,303.0,7.5
386.0,311.7,304.7,300.9,305.8,5.4
387.0,310.6,304.9,302.4,306.0,4.2
388.0,308.6,303.9,293.4,302.0,7.8
389.0,310.9,306.4,293.4,303.6,9.1
390.0,310.8,312.4,299.3,307.5,7.2
391.0,311.3,321.1,293.7,308.7,13.9
392.0,309.8,312.5,302.3,308.2,5.3
393.0,312.7,309.6,295.9,306.0,9.0
394.0,316.1,312.2,297.5,308.6,9.8
395.0,309.9,301.9,300.2,304.0,5.2
396.0,311.9,313.0,293.0,306.0,11.2
397.0,311.6,305.9,291.2,302.9,10.5
398.0,312.6,313.4,296.3,307.4,9.7
399.0,316.6,308.0,301.6,308.7,7.5
400.0,306.8,308.3,294.9,303.3,7.3
401.0,314.9,310.4,299.7,308.3,7.8
402.0,319.6,315.0,294.4,309.7,13.4
403.0,313.3,317.3,298.6,309.7,9.9
404.0,313.9,313.9,301.2,309.7,7.3
405.0,315.9,315.8,299.9,310.5,9.2
406.0,314.3,315.7,302.7,310.9,7.1
407.0,313.7,317.8,303.6,311.7,7.3
408.0,318.8,318.1,307.5,314.8,6.4
409.0,322.9,313.4,307.8,314.7,7.6
410.0,318.9,316.6,310.8,315.5,4.2
411.0,320.7,316.4,304.8,313.9,8.2
412.0,317.2,313.5,306.4,312.4,5.5
413.0,319.3,319.9,307.3,315.5,7.1
414.0,315.9,310.3,310.5,312.3,3.2
415.0,316.2,318.3,305.4,313.3,6.9
416.0,319.3,311.0,307.7,312.7,6.0
417.0,326.8,319.3,314.0,320.0,6.4
418.0,318.0,323.2,309.8,317.0,6.7
419.0,322.4,313.9,297.5,311.3,12.7
420.0,326.0,325.8,303.7,318.5,12.8
421.0,322.9,317.2,309.6,316.6,6.7
422.0,320.5,321.3,308.2,316.7,7.3
423.0,318.0,314.5,309.8,314.1,4.1
424.0,320.8,321.4,311.3,317.8,5.7
425.0,327.5,320.2,306.1,317.9,10.9
426.0,318.9,322.4,312.7,318.0,4.9
427.0,323.7,323.3,308.3,318.4,8.8
428.0,325.6,322.1,303.8,317.2,11.7
429.0,331.6,321.9,309.2,320.9,11.2
430.0,327.1,315.1,307.4,316.5,10.0
431.0,326.8,315.2,310.4,317.5,8.5
432.0,322.0,319.0,304.4,315.2,9.4
433.0,331.1,316.7,306.6,318.1,12.3
434.0,321.5,322.4,317.0,320.3,2.9
435.0,325.6,322.3,304.1,317.3,11.6
436.0,325.1,317.0,310.5,317.5,7.3
437.0,322.6,320.9,310.2,317.9,6.7
438.0,324.4,315.0,306.0,315.1,9.2
439.0,325.0,321.8,312.2,319.7,6.7
440.0,324.7,316.6,307.6,316.3,8.5
441.0,323.5,318.0,306.3,315.9,8.8
442.0,325.3,314.3,307.0,315.5,9.2
443.0,325.4,315.1,312.5,317.7,6.8
444.0,324.7,321.5,311.4,319.2,7.0
445.0,327.7,319.8,307.6,318.4,10.1
446.0,321.1,316.4,307.8,315.1,6.7
447.0,326.3,316.9,308.8,317.3,8.8
448.0,323.9,323.8,309.0,318.9,8.6
449.0,317.5,316.0,310.8,314.8,3.6
450.0,321.8,316.0,311.6,316.5,5.2
451.0,318.0,319.2,313.1,316.8,3.3
452.0,319.2,313.5,310.4,314.4,4.5
453.0,323.1,318.7,306.6,316.1,8.6
454.0,327.2,324.6,305.2,319.0,12.0
455.0,320.9,320.4,307.4,316.2,7.7
456.0,320.6,319.5,308.6,316.2,6.7
457.0,320.5,324.2,311.4,318.7,6.6
458.0,323.0,322.8,306.3,317.4,9.6
459.0,323.2,322.7,307.5,317.8,8.9
460.0,320.4,311.7,307.2,313.1,6.7
461.0,323.1,319.5,306.9,316.5,8.5
462.0,317.9,312.8,310.0,313.6,4.0
463.0,323.2,314.9,305.1,314.4,9.1
464.0,319.5,316.6,304.5,313.5,8.0
465.0,325.7,317.6,308.8,317.4,8.4
466.0,320.5,321.2,304.2,315.3,9.6
467.0,318.1,320.1,301.6,313.3,10.2
468.0,320.2,314.7,311.7,315.5,4.3
469.0,320.4,319.3,308.3,316.0,6.7
470.0,317.9,315.9,310.9,314.9,3.6
471.0,318.8,324.5,303.6,315.6,10.8
472.0,320.6,311.3,303.3,311.8,8.7
473.0,320.3,313.8,303.4,312.5,8.5
474.0,317.7,314.2,299.6,310.5,9.6
475.0,312.2,314.4,301.2,309.3,7.1
476.0,320.2,312.0,304.7,312.3,7.8
477.0,314.0,309.7,305.9,309.9,4.0
478.0,314.3,315.0,307.6,312.3,4.1
479.0,315.9,313.2,303.1,310.8,6.8
480.0,315.9,316.3,302.1,311.4,8.1
481.0,315.1,314.3,304.4,311.3,6.0
482.0,319.7,315.3,308.2,314.4,5.8
483.0,313.7,318.5,305.2,312.4,6.8
484.0,312.1,318.8,300.5,310.5,9.2
485.0,315.0,315.4,304.6,311.7,6.1
486.0,311.2,318.1,300.2,309.9,9.0
487.0,325.5,316.3,295.4,312.4,15.4
488.0,317.2,312.6,301.3,310.3,8.2
489.0,317.0,314.1,297.3,309.5,10.6
490.0,318.8,317.2,298.4,311.5,11.3
491.0,316.9,308.6,298.1,307.9,9.4
492.0,311.0,311.2,300.0,307.4,6.4
493.0,318.4,305.4,303.6,309.2,8.1
494.0,316.4,313.3,306.6,312.1,5.0
495.0,312.6,303.6,305.3,307.2,4.8
496.0,312.9,309.5,302.3,308.3,5.4
497.0,317.1,308.3,296.2,307.2,10.5
498.0,319.1,300.9,292.7,304.2,13.5
499.0,320.2,310.7,302.4,311.1,8.9
500.0,318.5,306.3,303.4,309.4,8.0
501.0,315.7,303.3,303.9,307.7,7.0
502.0,316.9,307.6,300.5,308.3,8.2
503.0,321.6,309.4,299.3,310.1,11.2
504.0,322.5,307.5,304.3,311.4,9.7
505.0,317.9,306.0,295.1,306.3,11.4
506.0,323.0,307.0,302.4,310.8,10.8
507.0,323.3,306.4,305.1,311.6,10.1
508.0,316.5,312.0,298.2,308.9,9.5
509.0,315.9,308.1,300.0,308.0,8.0
510.0,323.5,304.1,294.4,307.3,14.8
511.0,309.1,304.3,300.2,304.5,4.5
512.0,319.1,306.1,299.1,308.1,10.1
513.0,314.9,304.5,294.1,304.5,10.4
514.0,318.1,300.8,294.5,304.5,12.2
515.0,320.4,303.3,299.9,307.8,11.0
516.0,318.5,303.3,298.0,306.6,10.6
517.0,316.4,305.8,299.4,307.2,8.6
518.0,319.3,297.6,295.9,304.3,13.1
519.0,321.1,299.0,300.6,306.9,12.3
520.0,309.8,299.9,289.6,299.8,10.1
521.0,314.1,296.4,297.1,302.5,10.0
522.0,312.9,305.8,292.9,303.9,10.1
523.0,313.0,300.7,297.1,303.6,8.3
524.0,312.9,300.9,294.1,302.6,9.5
525.0,311.0,298.2,296.3,301.9,8.0
526.0,314.9,298.7,293.0,302.2,11.3
527.0,316.9,299.1,297.3,304.4,10.8
528.0,314.7,300.1,296.6,303.8,9.6
529.0,317.3,305.2,297.6,306.7,9.9
530.0,316.3,295.2,291.8,301.1,13.3
531.0,314.5,300.1,293.1,302.6,10.9
532.0,311.7,296.1,294.1,300.6,9.6
533.0,311.8,296.6,297.7,302.0,8.5
534.0,312.3,294.3,296.0,300.9,9.9
535.0,312.7,295.9,295.5,301.4,9.8
536.0,313.6,294.0,294.2,300.6,11.3
537.0,309.3,300.7,295.1,301.7,7.1
538.0,308.9,292.4,292.1,297.8,9.6
539.0,304.1,292.3,295.7,297.4,6.1
540.0,307.7,296.6,293.7,299.3,7.4
541.0,305.6,294.0,294.8,298.1,6.5
542.0,310.9,294.3,290.9,298.7,10.7
543.0,307.3,296.1,292.2,298.5,7.8
544.0,312.6,292.1,293.0,299.2,11.6
545.0,311.3,295.2,291.0,299.2,10.7
546.0,305.8,294.4,288.0,296.1,9.0
547.0,305.0,297.7,291.9,298.2,6.6
548.0,309.8,294.1,292.5,298.8,9.6
549.0,303.0,293.3,290.9,295.8,6.4
550.0,306.8,294.4,293.4,298.2,7.5
551.0,313.3,293.6,290.7,299.2,12.3
552.0,305.3,297.3,287.3,296.6,9.1
553.0,307.1,290.8,295.8,297.9,8.4
554.0,315.1,290.7,291.2,299.0,13.9
555.0,310.0,295.8,291.4,299.1,9.7
556.0,312.2,293.2,291.7,299.1,11.4
557.0,308.9,293.6,290.6,297.7,9.8
558.0,312.0,292.8,295.0,299.9,10.5
559.0,310.7,291.2,295.7,299.2,10.2
560.0,306.7,292.2,286.3,295.1,10.5
561.0,308.1,291.5,292.9,297.5,9.2
562.0,305.7,286.2,291.0,294.3,10.2
563.0,304.8,287.8,291.8,294.8,8.8
564.0,306.5,294.8,288.8,296.7,9.0
565.0,302.0,288.5,291.9,294.1,7.0
566.0,300.1,285.5,286.5,290.7,8.2
567.0,304.1,289.4,287.3,293.6,9.2
568.0,308.1,291.3,290.6,296.7,9.9
569.0,301.1,280.8,280.5,287.5,11.8
570.0,306.4,287.6,283.4,292.5,12.3
571.0,301.6,296.3,281.3,293.1,10.5
572.0,301.6,291.7,284.1,292.4,8.8
573.0,297.6,293.2,284.7,291.9,6.5
574.0,293.4,284.0,283.3,286.9,5.6
575.0,301.1,287.8,289.7,292.9,7.2
576.0,300.5,293.1,286.1,293.2,7.2
577.0,297.4,286.8,288.5,290.9,5.7
578.0,302.1,290.0,287.1,293.1,7.9
579.0,301.6,291.1,280.8,291.2,10.4
580.0,299.2,288.4,290.4,292.7,5.8
581.0,300.3,292.6,277.2,290.0,11.7
582.0,297.4,288.5,278.3,288.1,9.6
583.0,301.2,285.1,280.0,288.8,11.1
584.0,301.1,286.4,276.2,287.9,12.5
585.0,294.2,290.5,286.1,290.3,4.0
586.0,294.5,288.3,279.0,287.3,7.8
587.0,297.3,289.9,279.9,289.0,8.7
588.0,294.1,284.9,283.1,287.4,5.9
589.0,292.9,291.0,278.9,287.6,7.6
590.0,295.3,290.3,278.8,288.1,8.5
591.0,292.8,283.6,281.8,286.1,5.9
592.0,297.0,294.7,276.8,289.5,11.1
593.0,292.6,288.4,276.9,285.9,8.1
594.0,291.3,296.5,280.4,289.4,8.2
595.0,292.9,291.9,283.8,289.5,5.0
596.0,290.3,294.8,281.2,288.8,6.9
597.0,292.4,287.2,278.3,286.0,7.1
598.0,286.3,286.2,277.0,283.2,5.3
599.0,293.0,288.0,279.1,286.7,7.0
600.0,291.4,296.6,280.4,289.5,8.2
601.0,290.5,291.4,278.1,286.7,7.5
602.0,288.4,293.0,279.0,286.8,7.1
603.0,285.9,292.7,275.2,284.6,8.8
604.0,286.2,290.8,281.0,286.0,4.9
605.0,288.5,293.6,274.5,285.5,9.9
606.0,286.0,291.5,278.1,285.2,6.7
607.0,287.5,291.3,279.7,286.1,5.9
608.0,291.0,290.0,280.2,287.1,6.0
609.0,291.7,284.9,274.8,283.8,8.5
610.0,289.9,289.2,278.6,285.9,6.3
611.0,286.8,289.5,278.7,285.0,5.6
612.0,286.8,289.9,282.8,286.5,3.6
613.0,289.3,287.6,275.3,284.1,7.7
614.0,289.6,290.4,273.6,284.5,9.5
615.0,288.4,290.1,278.2,285.6,6.4
616.0,285.4,282.9,281.4,283.3,2.0
617.0,284.7,295.1,280.8,286.9,7.4
618.0,291.5,291.5,278.7,287.2,7.4
619.0,285.6,286.9,275.9,282.8,6.0
620.0,286.5,293.7,277.3,285.8,8.2
621.0,287.1,286.9,274.3,282.8,7.3
622.0,286.3,292.9,277.1,285.4,8.0
623.0,291.8,289.5,272.4,284.6,10.6
624.0,290.6,291.9,276.9,286.5,8.3
625.0,287.4,288.7,278.0,284.7,5.8
626.0,290.3,289.8,273.0,284.4,9.8
627.0,288.3,292.2,273.8,284.8,9.7
628.0,287.1,297.0,270.3,284.8,13.5
629.0,288.7,287.9,276.3,284.3,6.9
630.0,295.4,294.6,277.7,289.3,10.0
631.0,293.8,291.7,278.6,288.1,8.2
632.0,291.8,290.4,274.0,285.4,9.9
633.0,297.1,287.6,275.0,286.5,11.1
634.0,293.2,291.8,275.6,286.9,9.7
635.0,285.4,292.1,274.4,284.0,8.9
636.0,293.3,285.8,269.7,282.9,12.1
637.0,289.7,288.7,276.7,285.0,7.2
638.0,285.4,287.6,274.3,282.4,7.2
639.0,286.7,288.0,273.4,282.7,8.1
640.0,295.0,287.3,275.6,286.0,9.8
641.0,289.6,289.9,272.8,284.1,9.8
642.0,290.6,283.7,274.3,282.8,8.2
643.0,286.4,286.9,275.8,283.0,6.3
644.0,291.3,289.8,275.9,285.7,8.5
645.0,287.0,284.9,278.7,283.6,4.3
646.0,288.6,288.6,280.2,285.8,4.9
647.0,286.3,288.5,276.2,283.7,6.5
648.0,284.9,292.4,277.7,285.0,7.4
649.0,289.8,280.2,273.9,281.3,8.0
650.0,280.5,291.7,273.1,281.8,9.4
651.0,283.1,290.0,270.7,281.3,9.7
652.0,288.0,290.0,273.8,283.9,8.9
653.0,285.7,282.5,274.8,281.0,5.6
654.0,282.6,285.5,273.0,280.4,6.5
655.0,285.7,283.0,273.6,280.8,6.3
656.0,288.6,278.5,269.5,278.9,9.5
657.0,287.1,287.6,276.4,283.7,6.3
658.0,284.6,289.6,274.9,283.1,7.5
659.0,284.9,285.9,273.4,281.4,6.9
660.0,287.2,290.0,277.0,284.7,6.8
661.0,286.6,284.8,281.5,284.3,2.6
662.0,283.4,282.9,273.7,280.0,5.5
663.0,286.2,281.5,271.0,279.6,7.8
664.0,287.0,286.3,279.5,284.3,4.1
665.0,279.9,285.9,276.6,280.8,4.7
666.0,285.7,289.7,284.1,286.5,2.9
667.0,279.5,285.4,280.5,281.8,3.2
668.0,286.3,285.5,269.0,280.3,9.8
669.0,283.7,287.5,281.4,284.2,3.1
670.0,282.3,286.8,276.7,281.9,5.1
671.0,282.1,288.5,276.5,282.4,6.0
672.0,286.2,284.7,279.7,283.5,3.4
673.0,282.5,285.4,278.5,282.2,3.5
674.0,279.2,282.7,278.6,280.2,2.2
675.0,276.2,287.7,279.1,281.0,6.0
676.0,276.3,287.4,281.6,281.8,5.5
677.0,280.8,287.1,284.4,284.1,3.2
678.0,274.6,284.1,277.5,278.7,4.8
679.0,277.2,290.1,286.4,284.6,6.7
680.0,280.3,286.2,274.5,280.3,5.9
681.0,277.4,291.3,275.2,281.3,8.8
682.0,278.1,286.2,279.5,281.3,4.3
683.0,281.1,290.2,282.7,284.7,4.9
684.0,277.2,285.8,285.5,282.9,4.9
685.0,277.2,281.4,279.1,279.2,2.1
686.0,277.0,291.1,279.8,282.6,7.5
687.0,277.8,292.6,281.9,284.1,7.7
688.0,277.5,286.7,284.8,283.0,4.8
689.0,280.3,291.6,285.0,285.6,5.7
690.0,278.1,283.5,280.3,280.6,2.7
691.0,279.6,282.3,281.8,281.3,1.4
692.0,278.1,286.8,286.3,283.7,4.9
693.0,275.4,283.0,278.5,279.0,3.8
694.0,276.8,282.3,284.6,281.2,4.0
695.0,274.7,285.8,288.3,282.9,7.3
696.0,280.3,287.0,286.8,284.7,3.8
697.0,274.9,287.2,286.0,282.7,6.8
698.0,278.5,290.5,282.8,283.9,6.0
699.0,277.6,286.4,282.3,282.1,4.4
700.0,277.9,285.5,290.4,284.6,6.3
701.0,281.9,282.9,284.6,283.1,1.4
702.0,281.8,286.8,281.3,283.3,3.1
703.0,279.9,292.0,289.0,287.0,6.3
704.0,281.4,289.7,282.7,284.6,4.5
705.0,282.0,289.6,286.7,286.1,3.9
706.0,281.3,290.6,285.8,285.9,4.7
707.0,280.7,288.3,284.2,284.4,3.8
708.0,280.2,289.5,289.1,286.3,5.2
709.0,277.7,287.9,285.5,283.7,5.3
710.0,285.1,291.0,280.0,285.4,5.5
711.0,279.7,292.3,280.5,284.2,7.1
712.0,281.9,286.4,283.3,283.8,2.3
713.0,281.6,284.8,275.3,280.6,4.9
714.0,284.2,287.7,283.8,285.2,2.1
715.0,281.9,287.5,281.1,283.5,3.5
716.0,287.3,289.1,279.8,285.4,5.0
717.0,285.6,281.1,282.8,283.2,2.2
718.0,285.0,287.9,280.6,284.5,3.7
719.0,286.5,288.5,289.4,288.1,1.5
720.0,284.6,289.1,281.4,285.1,3.9
721.0,287.0,285.1,283.2,285.1,1.9
722.0,288.9,288.3,284.9,287.4,2.2
723.0,285.4,286.0,285.8,285.7,0.3
724.0,282.7,285.8,277.9,282.1,4.0
725.0,280.4,287.3,284.3,284.0,3.5
726.0,284.5,285.4,282.9,284.3,1.3
727.0,284.2,287.9,280.2,284.1,3.9
728.0,284.4,283.1,282.1,283.2,1.1
729.0,283.1,284.2,278.8,282.0,2.9
730.0,283.4,288.6,282.1,284.7,3.5
731.0,285.9,281.9,281.1,283.0,2.6
732.0,284.3,284.8,281.8,283.6,1.6
733.0,285.8,289.4,281.1,285.4,4.2
734.0,281.9,283.5,280.6,282.0,1.5
735.0,284.0,289.4,281.2,284.9,4.2
736.0,284.3,288.4,279.6,284.1,4.4
737.0,283.4,284.8,277.5,281.9,3.9
738.0,288.7,287.3,282.2,286.1,3.4
739.0,286.0,286.2,282.1,284.8,2.3
740.0,288.9,284.7,277.1,283.6,6.0
741.0,282.8,283.6,280.9,282.5,1.4
742.0,286.1,288.4,279.5,284.7,4.6
743.0,284.3,282.3,281.5,282.7,1.4
744.0,288.7,289.3,284.2,287.4,2.8
745.0,282.5,291.7,277.6,284.0,7.2
746.0,290.0,286.1,280.9,285.6,4.6
747.0,285.4,285.0,278.8,283.1,3.7
748.0,284.0,284.7,276.5,281.8,4.5
749.0,282.8,284.4,279.0,282.1,2.8
750.0,281.3,284.6,281.1,282.3,2.0
751.0,282.4,289.2,283.3,285.0,3.7
752.0,281.4,286.2,278.5,282.0,3.9
753.0,281.5,283.7,280.2,281.8,1.8
754.0,283.1,286.8,280.3,283.4,3.2
755.0,281.4,284.9,279.9,282.1,2.6
756.0,284.9,282.5,279.7,282.4,2.6
757.0,281.9,280.2,277.9,280.0,2.0
758.0,278.0,279.3,282.4,279.9,2.3
759.0,280.3,282.4,276.1,279.6,3.2
760.0,279.8,280.9,279.7,280.1,0.7
761.0,280.6,280.6,277.3,279.5,1.9
762.0,283.3,283.7,277.2,281.4,3.6
763.0,273.2,278.2,272.3,274.6,3.2
764.0,277.1,280.3,276.9,278.1,1.9
765.0,283.9,279.0,278.9,280.6,2.8
766.0,282.5,283.9,278.0,281.5,3.0
767.0,282.8,283.4,272.8,279.7,5.9
768.0,280.0,279.5,273.7,277.7,3.5
769.0,276.8,278.2,268.7,274.6,5.1
770.0,276.9,279.9,273.2,276.6,3.4
771.0,278.2,282.1,271.5,277.3,5.3
772.0,274.4,283.0,275.4,277.6,4.7
773.0,278.5,283.6,275.2,279.1,4.3
774.0,281.5,281.2,271.5,278.1,5.7
775.0,279.8,280.9,273.8,278.2,3.8
776.0,284.4,286.6,269.4,280.1,9.4
777.0,280.0,278.8,279.5,279.4,0.6
778.0,276.7,280.8,272.1,276.5,4.3
779.0,274.7,278.2,275.5,276.1,1.8
780.0,276.7,282.1,278.6,279.1,2.8
781.0,273.8,280.5,273.3,275.8,4.0
782.0,278.9,276.5,272.0,275.8,3.5
783.0,280.0,280.4,274.6,278.3,3.2
784.0,278.2,281.0,272.9,277.4,4.1
785.0,277.8,279.9,271.9,276.5,4.1
786.0,276.8,276.8,271.7,275.1,2.9
787.0,276.7,278.2,274.0,276.3,2.1
788.0,278.4,275.9,274.6,276.3,1.9
789.0,280.3,277.9,270.9,276.4,4.9
790.0,275.6,275.7,268.5,273.2,4.1
791.0,272.1,270.4,268.3,270.3,1.9
792.0,275.0,278.6,269.8,274.4,4.4
793.0,274.5,277.0,268.9,273.5,4.2
794.0,276.6,275.8,271.1,274.5,3.0
795.0,274.8,282.9,270.1,275.9,6.5
796.0,274.5,271.7,274.8,273.7,1.7
797.0,274.3,277.5,272.6,274.8,2.5
798.0,276.5,275.6,268.7,273.6,4.2
799.0,268.8,277.2,266.4,270.8,5.7
800.0,277.7,277.3,269.8,274.9,4.5
801.0,273.3,269.9,268.0,270.4,2.7
802.0,272.2,275.4,273.0,273.5,1.7
803.0,266.2,274.5,268.2,269.6,4.3
804.0,270.8,267.8,267.0,268.6,2.0
805.0,270.1,277.8,273.7,273.9,3.9
806.0,274.4,274.9,269.6,273.0,2.9
807.0,269.7,273.6,268.9,270.7,2.5
808.0,270.2,275.3,267.2,270.9,4.1
809.0,270.6,271.8,267.2,269.8,2.4
810.0,272.0,275.7,265.6,271.1,5.1
811.0,265.9,277.2,265.6,269.5,6.6
812.0,266.7,272.5,267.2,268.8,3.2
813.0,268.5,272.1,270.6,270.4,1.8
814.0,263.9,276.2,272.9,271.0,6.4
815.0,264.7,272.9,271.3,269.6,4.3
816.0,265.9,273.7,264.2,267.9,5.1
817.0,264.9,272.9,267.5,268.4,4.1
818.0,259.8,276.5,271.1,269.2,8.5
819.0,262.7,268.1,265.9,265.6,2.7
820.0,262.1,270.4,265.7,266.1,4.2
821.0,258.8,275.7,264.3,266.3,8.6
822.0,257.2,273.4,266.3,265.7,8.1
823.0,258.9,270.6,266.9,265.5,6.0
824.0,259.4,271.6,267.2,266.1,6.2
825.0,258.9,272.3,265.6,265.6,6.7
826.0,252.8,272.1,267.9,264.3,10.2
827.0,259.6,273.1,269.9,267.6,7.1
828.0,260.1,271.9,267.3,266.4,5.9
829.0,257.1,268.2,263.6,263.0,5.6
830.0,258.8,274.4,263.3,265.5,8.0
831.0,258.4,271.3,266.5,265.4,6.5
832.0,258.1,273.0,264.6,265.3,7.5
833.0,256.5,269.3,261.8,262.5,6.4
834.0,259.7,269.5,268.6,265.9,5.4
835.0,253.6,270.4,261.2,261.7,8.4
836.0,254.9,272.1,257.4,261.4,9.3
837.0,251.3,261.1,262.3,258.2,6.1
838.0,251.1,270.9,262.5,261.5,10.0
839.0,250.3,267.8,262.0,260.0,8.9
840.0,256.6,262.8,262.5,260.7,3.5
841.0,254.9,265.6,259.3,259.9,5.4
842.0,258.0,269.3,261.2,262.8,5.8
843.0,256.9,268.2,260.0,261.7,5.9
844.0,255.3,268.2,263.0,262.2,6.5
845.0,252.4,265.7,263.1,260.4,7.1
846.0,251.0,262.8,260.3,258.0,6.2
847.0,251.4,265.0,259.8,258.7,6.9
848.0,251.0,267.9,266.7,261.9,9.4
849.0,252.9,261.4,258.2,257.5,4.3
850.0,254.2,267.2,259.1,260.2,6.6
851.0,254.9,262.0,252.9,256.6,4.8
852.0,255.5,266.8,260.4,260.9,5.6
853.0,250.1,263.3,262.3,258.5,7.3
854.0,251.9,262.8,263.5,259.4,6.5
855.0,250.0,261.0,259.2,256.7,5.9
856.0,249.8,268.2,264.5,260.8,9.7
857.0,248.1,260.6,259.7,256.1,7.0
858.0,246.0,261.7,258.6,255.5,8.3
859.0,249.2,262.6,258.3,256.7,6.9
860.0,244.6,260.6,259.3,254.8,8.9
861.0,248.7,262.1,256.0,255.6,6.7
862.0,241.7,264.0,258.7,254.8,11.6
863.0,246.5,260.6,256.3,254.5,7.2
864.0,248.8,260.1,258.0,255.6,6.0
865.0,243.6,258.3,257.0,253.0,8.1
866.0,246.0,261.9,260.2,256.0,8.8
867.0,242.6,259.1,254.5,252.1,8.5
868.0,238.8,254.5,259.0,250.8,10.6
869.0,247.0,258.0,256.8,253.9,6.1
870.0,241.7,259.6,256.5,252.6,9.5
871.0,244.3,259.7,262.6,255.5,9.9
872.0,239.6,252.7,257.0,249.8,9.0
873.0,240.3,257.2,256.2,251.2,9.5
874.0,243.1,256.9,255.4,251.8,7.6
875.0,241.3,253.1,257.4,250.6,8.4
876.0,240.0,256.4,261.1,252.5,11.1
877.0,239.6,252.2,256.4,249.4,8.8
878.0,240.8,253.1,253.5,249.1,7.2
879.0,239.5,257.2,255.1,250.6,9.6
880.0,239.6,256.4,254.2,250.1,9.1
881.0,238.7,256.3,250.9,248.6,9.0
882.0,234.7,255.6,250.3,246.9,10.9
883.0,236.2,251.4,246.8,244.8,7.8
884.0,235.9,250.7,250.6,245.8,8.5
885.0,234.9,255.9,250.8,247.2,10.9
886.0,235.0,255.1,252.3,247.5,10.9
887.0,239.1,256.5,248.9,248.2,8.7
888.0,232.8,246.3,246.1,241.7,7.7
889.0,238.7,248.1,246.8,244.5,5.1
890.0,235.3,248.8,250.2,244.8,8.3
891.0,233.5,248.5,245.0,242.3,7.8
892.0,235.5,248.9,246.1,243.5,7.1
893.0,234.7,248.3,249.5,244.2,8.2
894.0,239.4,244.7,249.6,244.6,5.1
895.0,237.0,244.2,245.6,242.3,4.6
896.0,230.8,249.8,246.6,242.4,10.2
897.0,230.4,245.0,247.0,240.8,9.1
898.0,234.9,246.7,244.6,242.1,6.3
899.0,232.5,244.0,244.0,240.2,6.6
900.0,239.3,247.5,244.2,243.7,4.1
901.0,238.1,242.2,247.2,242.5,4.6
902.0,235.8,243.5,244.0,241.1,4.6
903.0,235.2,244.9,248.5,242.9,6.9
904.0,237.7,247.3,244.5,243.2,5.0
905.0,231.5,242.9,244.1,239.5,6.9
906.0,233.2,243.4,240.7,239.1,5.3
907.0,233.7,243.7,244.6,240.7,6.1
908.0,235.3,243.2,237.6,238.7,4.1
909.0,233.3,243.9,243.2,240.2,5.9
910.0,236.7,246.2,240.8,241.2,4.8
911.0,233.7,240.5,238.7,237.7,3.5
912.0,234.5,242.0,239.1,238.6,3.8
913.0,232.6,244.1,238.4,238.4,5.7
914.0,228.6,241.7,242.0,237.4,7.7
915.0,233.2,234.5,243.1,236.9,5.4
916.0,236.2,240.8,238.2,238.4,2.3
917.0,229.7,240.0,237.9,235.9,5.4
918.0,235.5,243.3,240.6,239.8,3.9
919.0,230.9,241.8,238.6,237.1,5.6
920.0,229.7,239.0,243.7,237.4,7.2
921.0,232.0,237.7,244.6,238.1,6.3
922.0,233.7,241.1,240.2,238.3,4.0
923.0,233.0,242.4,239.8,238.4,4.9
924.0,239.0,234.6,237.4,237.0,2.2
925.0,235.0,244.6,238.5,239.3,4.9
926.0,238.1,237.6,236.1,237.3,1.0
927.0,232.1,238.5,243.3,238.0,5.6
928.0,235.4,233.5,238.9,235.9,2.8
929.0,232.8,239.0,239.4,237.1,3.7
930.0,238.9,237.3,234.7,237.0,2.1
931.0,232.2,237.1,239.8,236.4,3.8
932.0,234.6,239.5,236.8,237.0,2.5
933.0,229.7,238.5,234.6,234.3,4.4
934.0,230.8,237.6,232.5,233.6,3.5
935.0,232.1,235.7,233.4,233.7,1.8
936.0,232.1,233.0,232.2,232.4,0.5
937.0,229.7,236.3,236.2,234.1,3.8
938.0,232.5,234.7,233.0,233.4,1.1
939.0,232.9,233.8,236.7,234.5,1.9
940.0,231.7,232.4,235.9,233.3,2.3
941.0,230.2,230.4,231.5,230.7,0.7
942.0,232.8,232.4,230.6,231.9,1.2
943.0,230.0,233.2,232.4,231.8,1.7
944.0,230.4,236.9,234.6,234.0,3.3
945.0,234.0,234.0,233.4,233.8,0.4
946.0,228.6,235.8,236.0,233.5,4.2
947.0,231.1,235.8,233.1,233.3,2.4
948.0,229.3,228.4,230.7,229.5,1.1
949.0,227.8,231.3,230.0,229.7,1.8
950.0,233.4,228.4,237.4,233.1,4.5
951.0,228.2,229.9,234.4,230.8,3.2
952.0,228.7,228.1,235.8,230.9,4.3
953.0,228.6,228.8,229.8,229.1,0.6
954.0,226.3,232.7,232.4,230.5,3.6
955.0,225.4,226.2,232.8,228.1,4.0
956.0,225.7,230.7,230.0,228.8,2.7
957.0,223.3,226.6,225.0,225.0,1.6
958.0,225.0,226.4,233.6,228.3,4.6
959.0,225.8,229.5,231.2,228.8,2.8
960.0,228.7,228.4,227.5,228.2,0.6
961.0,225.5,224.1,227.7,225.8,1.8
962.0,221.8,221.0,225.0,222.6,2.1
963.0,223.0,228.1,226.8,226.0,2.6
964.0,224.3,225.8,228.3,226.2,2.1
965.0,221.8,226.7,227.1,225.2,3.0
966.0,220.8,227.7,230.2,226.3,4.9
967.0,220.0,223.5,230.1,224.5,5.1
968.0,219.6,224.3,230.4,224.7,5.4
969.0,223.5,224.8,225.6,224.6,1.0
970.0,217.5,226.9,226.7,223.7,5.4
971.0,220.1,228.1,228.0,225.4,4.6
972.0,219.1,222.7,226.3,222.7,3.6
973.0,220.5,221.8,227.7,223.3,3.9
974.0,221.8,220.9,227.4,223.4,3.5
975.0,219.2,221.3,224.2,221.6,2.5
976.0,220.9,223.7,225.8,223.5,2.4
977.0,217.0,218.5,225.2,220.2,4.3
978.0,215.4,221.8,223.6,220.3,4.3
979.0,217.5,223.0,224.4,221.7,3.6
980.0,220.2,220.0,221.3,220.5,0.7
981.0,215.7,222.4,222.9,220.3,4.0
982.0,218.0,223.1,223.6,221.6,3.1
983.0,214.3,219.8,221.7,218.6,3.9
984.0,214.6,220.9,222.7,219.4,4.3
985.0,216.1,219.9,221.1,219.0,2.6
986.0,217.5,219.1,223.1,219.9,2.9
987.0,216.7,220.9,221.5,219.7,2.6
988.0,216.3,218.4,222.4,219.0,3.1
989.0,213.1,218.6,221.3,217.7,4.2
990.0,216.9,214.8,224.7,218.8,5.2
991.0,213.5,214.5,219.1,215.7,3.0
992.0,213.4,217.8,225.4,218.9,6.1
993.0,211.3,213.9,222.8,216.0,6.0
994.0,213.2,218.1,219.3,216.9,3.2
995.0,215.1,216.6,219.9,217.2,2.5
996.0,211.7,218.8,221.2,217.2,4.9
997.0,212.5,215.3,218.3,215.4,2.9
998.0,212.8,214.1,216.5,214.5,1.9
999.0,212.9,215.4,219.6,215.9,3.4
1000.0,211.8,212.4,221.8,215.3,5.6
1001.0,211.5,211.8,215.0,212.8,1.9
1002.0,212.2,212.2,215.5,213.3,1.9
1003.0,210.3,211.0,214.8,212.0,2.4
1004.0,209.0,212.9,217.6,213.2,4.3
1005.0,209.9,209.8,215.6,211.8,3.3
1006.0,208.8,214.0,216.2,213.0,3.8
1007.0,209.5,212.1,211.9,211.2,1.4
1008.0,206.6,213.2,214.0,211.3,4.1
1009.0,206.9,212.7,211.4,210.3,3.0
1010.0,206.6,210.4,212.5,209.8,3.0
1011.0,205.1,210.3,213.2,209.5,4.1
1012.0,202.9,208.5,212.7,208.0,4.9
1013.0,203.0,207.5,214.2,208.2,5.7
1014.0,201.5,207.3,209.0,205.9,3.9
1015.0,203.3,210.4,207.8,207.2,3.6
1016.0,200.0,210.5,211.6,207.4,6.4
1017.0,201.9,205.5,206.7,204.7,2.5
1018.0,197.9,205.6,210.9,204.8,6.5
1019.0,198.3,206.0,211.3,205.2,6.5
1020.0,199.6,206.7,207.6,204.6,4.4
1021.0,195.8,206.8,204.9,202.5,5.9
1022.0,197.2,204.8,205.5,202.5,4.6
1023.0,193.4,208.4,205.9,202.6,8.1
1024.0,196.3,203.3,202.6,200.7,3.9
1025.0,198.7,200.9,204.3,201.3,2.8
1026.0,193.0,203.4,208.7,201.7,8.0
1027.0,194.5,204.9,207.3,202.3,6.8
1028.0,194.6,203.9,205.3,201.3,5.8
1029.0,194.2,204.5,205.8,201.5,6.4
1030.0,192.6,203.8,202.6,199.7,6.1
1031.0,192.2,206.6,205.5,201.4,8.0
1032.0,190.7,203.6,207.7,200.7,8.9
1033.0,192.5,196.2,204.8,197.8,6.3
1034.0,191.7,203.4,205.7,200.2,7.5
1035.0,192.6,199.0,206.3,199.3,6.8
1036.0,189.0,200.0,204.7,197.9,8.1
1037.0,192.5,198.4,204.2,198.4,5.8
1038.0,192.7,198.5,201.9,197.7,4.7
1039.0,187.7,198.1,200.4,195.4,6.8
1040.0,189.3,197.9,205.9,197.7,8.3
1041.0,187.0,199.2,202.2,196.1,8.1
1042.0,188.6,198.1,203.2,196.6,7.5
1043.0,186.3,194.3,199.9,193.5,6.8
1044.0,186.9,196.0,202.5,195.1,7.8
1045.0,185.0,196.8,205.4,195.7,10.3
1046.0,185.5,196.8,204.2,195.5,9.4
1047.0,183.8,197.1,200.1,193.7,8.6
1048.0,183.0,192.3,198.4,191.2,7.8
1049.0,184.9,194.1,199.1,192.7,7.2
1050.0,184.0,190.2,203.0,192.4,9.7
1051.0,185.4,194.0,198.0,192.5,6.4
1052.0,182.9,189.7,201.8,191.5,9.5
1053.0,179.9,193.0,198.8,190.6,9.6
1054.0,179.5,189.4,195.8,188.2,8.2
1055.0,177.7,192.9,198.2,189.6,10.7
1056.0,177.7,191.5,196.4,188.6,9.7
1057.0,179.2,188.4,195.8,187.8,8.3
1058.0,180.1,186.6,195.4,187.4,7.6
1059.0,178.5,186.4,194.4,186.4,8.0
1060.0,176.8,191.3,195.2,187.8,9.7
1061.0,174.9,184.1,194.3,184.4,9.7
1062.0,174.5,185.9,192.9,184.4,9.3
1063.0,175.0,190.3,190.4,185.2,8.9
1064.0,175.3,192.5,193.6,187.1,10.2
1065.0,174.4,188.0,191.8,184.7,9.2
1066.0,170.5,187.0,192.1,183.2,11.3
1067.0,174.4,186.4,189.0,183.3,7.8
1068.0,173.7,183.7,189.2,182.2,7.9
1069.0,172.5,183.4,192.0,182.7,9.8
1070.0,171.4,182.3,189.8,181.2,9.3
1071.0,171.4,181.6,190.0,181.0,9.3
1072.0,173.2,185.5,192.4,183.7,9.7
1073.0,172.0,179.8,191.0,180.9,9.5
1074.0,170.1,181.7,191.6,181.1,10.8
1075.0,169.5,181.0,189.2,179.9,9.9
1076.0,171.7,180.4,189.9,180.7,9.1
1077.0,169.3,179.6,188.7,179.2,9.7
1078.0,168.0,177.8,187.2,177.7,9.6
1079.0,168.9,179.3,190.9,179.7,11.0
1080.0,165.3,179.5,185.7,176.8,10.5
1081.0,166.6,178.9,187.3,177.6,10.4
1082.0,165.0,176.8,184.3,175.4,9.8
1083.0,166.2,175.7,183.1,175.0,8.5
1084.0,165.8,176.2,183.1,175.0,8.7
1085.0,163.3,175.1,186.5,175.0,11.6
1086.0,164.0,171.4,184.5,173.3,10.4
1087.0,165.7,173.8,183.8,174.4,9.0
1088.0,164.2,172.7,180.6,172.5,8.2
1089.0,162.9,172.0,183.2,172.7,10.2
1090.0,162.0,172.3,179.5,171.3,8.8
1091.0,162.2,171.7,179.7,171.2,8.8
1092.0,164.1,171.7,177.6,171.1,6.8
1093.0,161.4,170.9,180.3,170.9,9.5
1094.0,159.9,170.7,180.4,170.3,10.3
1095.0,159.5,169.4,179.3,169.4,9.9
1096.0,156.2,168.8,175.8,166.9,9.9
1097.0,156.6,170.7,180.8,169.4,12.2
1098.0,157.7,170.0,178.4,168.7,10.4
1099.0,158.3,170.8,175.4,168.2,8.8
1100.0,154.9,170.0,175.8,166.9,10.8
1101.0,155.3,167.0,174.5,165.6,9.7
1102.0,153.6,166.0,177.7,165.7,12.0
1103.0,153.5,166.5,174.8,165.0,10.7
1104.0,153.9,166.3,172.1,164.1,9.3
1105.0,152.1,166.4,175.7,164.7,11.9
1106.0,155.0,164.3,175.8,165.0,10.4
1107.0,152.7,161.9,172.0,162.2,9.7
1108.0,152.5,161.1,173.5,162.4,10.6
1109.0,150.9,163.7,172.5,162.4,10.8
1110.0,150.2,161.1,172.2,161.2,11.0
1111.0,149.3,163.0,174.3,162.2,12.5
1112.0,148.3,161.3,174.5,161.4,13.1
1113.0,147.2,159.4,174.5,160.4,13.7
1114.0,147.0,161.4,172.8,160.4,12.9
1115.0,145.7,158.0,172.2,158.6,13.3
1116.0,145.1,160.2,173.6,159.6,14.3
1117.0,145.5,160.9,171.5,159.3,13.1
1118.0,144.1,158.8,175.7,159.5,15.8
1119.0,144.9,155.3,174.6,158.2,15.1
1120.0,141.8,155.7,171.2,156.2,14.7
1121.0,144.2,153.4,171.9,156.5,14.1
1122.0,141.6,151.6,170.6,154.6,14.7
1123.0,140.4,152.2,168.4,153.7,14.0
1124.0,141.3,152.6,168.4,154.1,13.6
1125.0,141.0,149.0,170.7,153.6,15.4
1126.0,138.6,148.9,168.3,151.9,15.1
1127.0,139.7,149.8,168.2,152.6,14.5
1128.0,139.9,149.1,167.0,152.0,13.8
1129.0,139.9,151.7,163.4,151.7,11.8
1130.0,138.1,148.3,166.0,150.8,14.1
1131.0,137.7,146.8,164.3,149.6,13.5
1132.0,137.4,146.0,162.5,148.6,12.7
1133.0,134.8,143.4,163.3,147.2,14.6
1134.0,133.4,145.7,158.9,146.0,12.8
1135.0,135.9,142.2,160.6,146.2,12.8
1136.0,133.2,143.7,158.2,145.0,12.5
1137.0,133.6,141.6,157.5,144.2,12.2
1138.0,133.3,142.1,159.3,144.9,13.2
1139.0,131.0,139.1,154.4,141.5,11.9
1140.0,129.0,137.5,157.2,141.3,14.5
1141.0,129.1,140.5,155.1,141.6,13.0
1142.0,128.1,137.4,152.8,139.4,12.4
1143.0,127.5,140.0,153.0,140.1,12.8
1144.0,124.8,135.8,152.9,137.8,14.2
1145.0,125.8,135.4,151.2,137.4,12.8
1146.0,124.1,133.0,150.7,135.9,13.6
1147.0,122.2,130.8,149.9,134.3,14.2
1148.0,121.8,133.3,148.3,134.5,13.3
1149.0,121.3,132.1,146.2,133.2,12.5
1150.0,121.4,132.9,147.1,133.8,12.8
1151.0,119.0,128.5,146.4,131.3,13.9
1152.0,120.6,127.1,145.1,130.9,12.7
1153.0,117.0,127.8,142.8,129.2,13.0
1154.0,117.0,125.7,142.3,128.4,12.8
1155.0,114.9,124.5,140.9,126.8,13.2
1156.0,114.9,123.0,142.8,126.9,14.4
1157.0,114.0,123.4,142.1,126.5,14.3
1158.0,111.3,119.9,139.0,123.4,14.2
1159.0,111.7,120.2,139.6,123.8,14.3
1160.0,112.6,119.6,136.9,123.0,12.5
1161.0,109.4,117.7,138.1,121.7,14.8
1162.0,108.5,117.5,137.4,121.1,14.8
1163.0,107.4,115.5,134.8,119.2,14.1
1164.0,105.0,114.0,134.4,117.8,15.0
1165.0,103.1,111.0,133.7,116.0,15.9
1166.0,100.2,110.6,133.3,114.7,17.0
1167.0,100.2,108.8,132.4,113.8,16.7
1168.0,97.6,108.1,131.3,112.3,17.3
1169.0,96.7,105.2,132.0,111.3,18.4
1170.0,93.3,102.9,127.7,108.0,17.8
1171.0,93.4,102.1,127.8,107.8,17.9
1172.0,91.7,101.7,127.8,107.1,18.6
1173.0,89.9,99.5,125.3,104.9,18.3
1174.0,88.1,98.4,124.4,103.6,18.7
1175.0,85.3,97.4,123.7,102.1,19.6
1176.0,86.8,95.7,121.3,101.3,17.9
1177.0,83.9,93.7,118.9,98.8,18.1
1178.0,81.4,91.1,119.3,97.3,19.7
1179.0,80.5,90.2,117.9,96.2,19.4
1180.0,79.6,88.8,116.9,95.1,19.5
1181.0,78.5,88.0,114.7,93.8,18.8
1182.0,78.1,86.3,113.6,92.6,18.6
1183.0,75.8,85.8,111.6,91.1,18.5
1184.0,74.9,84.6,109.7,89.7,17.9
1185.0,72.6,83.1,105.9,87.2,17.0
1186.0,72.0,82.1,104.9,86.3,16.8
1187.0,70.8,79.9,105.0,85.3,17.7
1188.0,69.5,78.1,103.5,83.7,17.6
1189.0,69.2,75.9,100.8,82.0,16.7
1190.0,67.4,76.3,97.7,80.4,15.6
1191.0,66.4,74.1,98.6,79.7,16.8
1192.0,65.3,72.2,95.7,77.7,15.9
1193.0,64.7,71.5,93.8,76.7,15.2
1194.0,63.8,68.9,91.8,74.9,14.9
1195.0,62.6,68.8,92.8,74.7,16.0
1196.0,63.1,66.8,89.6,73.2,14.3
1197.0,62.3,66.1,88.9,72.4,14.4
1198.0,62.7,64.6,86.5,71.3,13.3
1199.0,61.1,65.2,85.5,70.6,13.1
1200.0,61.9,63.8,84.4,70.0,12.4
1201.0,62.1,63.7,85.4,70.4,13.0
1202.0,62.6,63.3,83.0,69.6,11.6
1203.0,62.0,63.2,81.4,68.9,10.9
1204.0,62.2,62.0,79.6,68.0,10.1
1205.0,61.9,62.8,77.7,67.5,8.8
1205.25,63.0,61.6,77.7,67.5,8.9