File: 01_Data/Composite_Deck_Board/Cone/Composite_Deck_Board_Cone_HF75Scan_221209_R2.csv
Names,Time,Stack TC,Smoke TC,Exh Press,Smoke Comp,Smoke Meas,CO Meter,CO2 Meter,O2 Meter,Sample Mass,Ext Coeff,Start Test,Flame Verif
Chan Gain,,500,500,1,1,1,1,1,1,1,1,1.0,1.0
Offset,,0,0,0.136389,0,0,0,0,0,0,0,0.0,0.0
Gain,,1,1,25.011,14.2696,296.664,1,1,1,1.0009,1.04656,1.0,1.0
Units,sec,C,C,Pa,%,%,%,%,%,g,/m,,
Baseline,,45.8519,47.7238,149.877,106.771,119.559,0.000746741,0.0688293,20.9456,-446.254,-1.03839,,
11,2.5,43.6988,45.421,150.418,106.522,119.958,0.00071385,0.074232,20.9431,198.808,-1.09054,0.0,0.0
22,5.25,43.4861,45.4492,146.173,106.478,120.773,0.000612095,0.0730344,20.9434,198.828,-1.15651,0.0,0.0
33,8,43.3782,45.1099,148.092,106.468,121.199,0.00136929,0.071712,20.9444,198.768,-1.18966,0.0,0.0
44,10.75,43.4351,45.2065,149.834,106.456,115.368,0.00269183,0.0738981,20.9375,198.668,-0.738032,0.0,0.0
55,13.5,43.6494,45.9493,140.636,106.466,125.49,0.00335936,0.111825,20.8856,198.698,-1.50924,0.0,1.0
66,16.25,45.1161,46.3364,125.391,106.456,119.922,0.00459755,0.239318,20.7196,198.458,-1.09351,0.0,1.0
77,19,47.9749,48.7685,117.988,106.457,124.449,0.00937079,0.505255,20.2326,197.937,-1.43355,0.0,0.0
88,21.75,55.2186,54.7217,93.8659,106.454,125.988,0.0158414,0.972488,19.4966,197.337,-1.54661,0.0,0.0
99,24.5,67.1169,65.42,83.0625,106.482,138.744,0.023802,1.59985,18.545,196.596,-2.42962,0.0,0.0
110,27.25,81.7599,81.1481,89.1282,106.537,135.114,0.0308298,2.1845,17.6911,195.735,-2.18151,0.0,0.0
121,30,95.7712,97.4189,71.3165,106.514,134.236,0.0354867,2.63415,16.9874,194.765,-2.1236,0.0,0.0
132,32.75,109.75,113.766,79.5995,106.535,128.432,0.0368103,2.88701,16.6934,193.874,-1.71604,0.0,0.0
143,35.5,121.115,128.262,86.2324,106.562,128.976,0.0342162,2.79776,16.8082,193.043,-1.75246,0.0,0.0
154,38.25,128.285,138.566,97.3846,106.614,125.146,0.0300408,2.46374,17.2694,192.292,-1.47132,0.0,0.0
165,41,132.033,144.462,96.116,106.667,127.328,0.0249135,2.11519,17.7855,191.562,-1.62542,0.0,0.0
176,43.75,134.169,148.007,103.23,106.708,129.401,0.0210717,1.80103,18.3231,190.921,-1.77014,0.0,0.0
187,46.5,134.408,149.393,102.273,106.772,133.729,0.0187816,1.6001,18.6589,190.301,-2.06663,0.0,0.0
198,49.25,135.907,151.22,101.182,106.814,125.762,0.0169794,1.46226,18.8735,189.68,-1.49914,0.0,0.0
209,52,136.278,152.172,104.327,106.871,133.33,0.0157679,1.35095,19.0504,189.119,-2.03075,0.0,0.0
220,54.75,136.724,153.505,102.738,106.932,134.453,0.0149158,1.26326,19.1805,188.569,-2.10252,0.0,0.0
231,57.5,136.003,154.209,106.129,106.97,127.916,0.0143875,1.19432,19.2777,187.978,-1.64171,0.0,0.0
242,60.25,135.409,153.961,116.176,107.007,132.081,0.013931,1.13434,19.3718,187.528,-1.93265,0.0,0.0
253,63,135.497,153.164,111.875,107.035,139.351,0.0133947,1.08532,19.4323,187.018,-2.42211,0.0,0.0
264,65.75,134.327,153.539,109.563,107.05,133.412,0.0127791,1.03305,19.5135,186.547,-2.02096,0.0,0.0
275,68.5,133.506,152.554,115.547,107.042,136.164,0.0123366,0.982994,19.5886,186.047,-2.20917,0.0,0.0
286,71.25,132.406,151.805,121.928,107.002,132.425,0.0119838,0.951281,19.6344,185.586,-1.95698,0.0,0.0
297,74,131.559,150.784,108.858,106.963,135.069,0.0117134,0.935188,19.6585,185.076,-2.14181,0.0,0.0
308,76.75,130.685,149.918,115.963,106.909,130.451,0.011569,0.909801,19.6968,184.716,-1.82713,0.0,0.0
319,79.5,129.517,149.101,118.145,106.826,137.776,0.011401,0.880302,19.7426,184.265,-2.33568,0.0,0.0
330,82.25,129.132,148.224,116.477,106.736,134.489,0.0110475,0.855966,19.7753,183.885,-2.1218,0.0,0.0
341,85,127.906,146.839,117.769,106.605,135.757,0.0108472,0.827531,19.8143,183.434,-2.21919,0.0,0.0
352,87.75,126.939,145.895,118.976,106.509,129.627,0.0107308,0.800624,19.851,182.984,-1.80332,0.0,0.0
363,90.5,126.341,145.088,121.612,106.443,128.903,0.0104744,0.784002,19.8734,182.574,-1.75763,0.0,0.0
374,93.25,125.131,143.857,118.195,106.377,129.917,0.0102292,0.780562,19.8877,182.193,-1.83523,0.0,0.0
385,96,124.443,142.565,119.986,106.333,131.32,0.0101115,0.768091,19.9049,181.773,-1.93766,0.0,0.0
396,98.75,123.205,141.435,123.186,106.467,136.083,0.0102193,0.751984,19.9294,181.373,-2.2531,0.0,0.0
407,101.5,122.208,140.223,117.751,106.675,136.599,0.0101245,0.737907,19.9486,180.962,-2.26992,0.0,0.0
418,104.25,121.3,139.356,119.635,106.889,131.248,0.00986503,0.723533,19.9691,180.632,-1.88471,0.0,0.0
429,107,120.782,138.307,115.77,107.051,133.421,0.00964798,0.710574,19.9889,180.262,-2.0215,0.0,0.0
440,109.75,119.444,137.792,117.293,107.142,131.655,0.0094843,0.701048,20.0005,179.891,-1.89146,0.0,0.0
451,112.5,118.634,136.263,117.356,107.189,130.017,0.00959521,0.696657,20.007,179.491,-1.77241,0.0,0.0
462,115.25,118.148,135.479,117.322,107.171,133.385,0.00969367,0.690129,20.018,179.161,-2.00875,0.0,0.0
473,118,117.225,134.551,119.417,107.096,129.799,0.00965021,0.679351,20.0334,178.72,-1.76507,0.0,0.0
484,120.75,116.603,133.538,123.864,106.93,134.924,0.00957742,0.671987,20.044,178.4,-2.13472,0.0,0.0
495,123.5,115.776,132.494,121.884,106.702,131.311,0.00947396,0.66479,20.0535,178.04,-1.9052,0.0,0.0
506,126.25,115.217,131.498,119.2,106.828,130.804,0.00948023,0.659134,20.062,177.659,-1.85883,0.0,0.0
517,129,115.115,130.686,117.993,106.982,135.766,0.00956345,0.651237,20.0739,177.359,-2.18742,0.0,0.0
528,131.75,113.899,129.836,119.049,107.152,134.643,0.00953368,0.645513,20.0787,176.969,-2.0966,0.0,0.0
539,134.5,112.959,129.24,119.626,107.332,130.949,0.00946092,0.64121,20.0895,176.628,-1.82583,0.0,0.0
550,137.25,112.448,128.572,117.852,107.467,135.711,0.009546,0.636009,20.0988,176.278,-2.14218,0.0,0.0
561,140,111.881,127.804,123.711,107.586,133.683,0.00969903,0.631312,20.1054,175.998,-1.99381,0.0,0.0
572,142.75,111.261,126.837,122.038,107.661,135.539,0.00942252,0.628601,20.1098,175.657,-2.11399,0.0,0.0
583,145.5,110.722,125.968,122.704,107.685,135.748,0.00926264,0.626417,20.114,175.257,-2.12605,0.0,0.0
594,148.25,110.521,125.523,121.373,107.607,133.566,0.00921874,0.622502,20.1188,174.937,-1.98398,0.0,0.0
605,151,110.237,124.799,123.495,107.482,133.493,0.00907381,0.619412,20.1234,174.586,-1.98959,0.0,0.0
616,153.75,109.279,123.928,120.791,107.297,131.393,0.00884255,0.617539,20.1269,174.276,-1.85989,0.0,0.0
627,156.5,109.478,123.908,127.709,107.084,131.32,0.00901343,0.614547,20.1299,173.926,-1.87307,0.0,0.0
638,159.25,108.914,122.538,123.726,106.808,133.819,0.00940651,0.612102,20.1316,173.616,-2.06977,0.0,0.0
649,162,108.414,122.405,122.215,106.535,131.538,0.0096143,0.612666,20.131,173.235,-1.93541,0.0,0.0
660,164.75,108.448,121.862,119.128,106.284,135.168,0.00970112,0.611133,20.1301,172.895,-2.20699,0.0,0.0
671,167.5,107.74,121.379,123.621,106.063,129.99,0.00954504,0.610648,20.1333,172.575,-1.86745,0.0,0.0
682,170.25,107.695,121.125,124.049,105.91,130.053,0.00934319,0.60707,20.1382,172.244,-1.88516,0.0,0.0
693,173,107.105,120.544,122.338,105.817,129.573,0.00914276,0.603683,20.1425,171.914,-1.85935,0.0,0.0
704,175.75,106.886,120.352,124.988,105.761,131.782,0.00895952,0.603622,20.143,171.634,-2.01942,0.0,0.0
715,178.5,106.524,119.804,123.169,105.81,130.65,0.00892226,0.604772,20.1432,171.263,-1.93593,0.0,0.0
726,181.25,106.582,119.845,126.356,105.937,135.232,0.00892271,0.601525,20.1477,170.953,-2.24136,0.0,0.0
737,184,106.465,118.811,125.074,106.109,129.971,0.0088687,0.598444,20.1514,170.613,-1.86225,0.0,0.0
748,186.75,106.075,118.798,121.48,106.299,135.829,0.0088173,0.595185,20.1568,170.253,-2.25049,0.0,0.0
759,189.5,105.328,117.97,121.883,106.5,130.189,0.00887072,0.594945,20.1606,169.942,-1.84374,0.0,0.0
770,192.25,105.402,117.677,126.068,106.72,133.937,0.00888157,0.591884,20.1637,169.602,-2.08545,0.0,0.0
781,195,105.23,117.111,123.373,106.918,133.466,0.00888509,0.589628,20.1649,169.302,-2.03609,0.0,0.0
792,197.75,105.344,117.376,127.88,107.025,130.352,0.00905044,0.590695,20.1623,168.921,-1.81014,0.0,0.0
803,200.5,105.188,116.94,125.498,107.068,137.939,0.00937733,0.590378,20.1615,168.671,-2.32579,0.0,0.0
814,203.25,104.474,116.428,124.434,107.057,132.823,0.00944605,0.591872,20.1606,168.361,-1.97985,0.0,0.0
825,206,104.881,116.8,129.606,106.972,132.633,0.00920003,0.591305,20.1615,168.061,-1.97398,0.0,0.0
836,208.75,104.668,116.149,122.728,106.824,130.469,0.0090734,0.588904,20.1653,167.74,-1.8357,0.0,0.0
847,211.5,104.772,116.21,120.568,106.601,128.776,0.00912586,0.590687,20.1624,167.34,-1.73494,0.0,0.0
858,214.25,104.77,115.925,125.137,106.415,131.04,0.00929785,0.590992,20.1614,167.02,-1.91091,0.0,0.0
869,217,104.301,115.458,121.033,106.374,132.027,0.00941157,0.588552,20.1651,166.709,-1.98332,0.0,0.0
880,219.75,104.307,115.471,122.251,106.707,132.733,0.0095582,0.587555,20.1664,166.409,-2.00359,0.0,0.0
891,222.5,104.086,115.188,120.171,107.038,135.268,0.00958417,0.587205,20.1668,166.049,-2.14883,0.0,0.0
902,225.25,104.067,114.74,122.458,107.172,132.479,0.00950457,0.588043,20.1669,165.749,-1.94611,0.0,0.0
913,228,103.651,114.773,122.248,107.088,132.914,0.00953955,0.587106,20.1672,165.448,-1.98342,0.0,0.0
924,230.75,103.745,114.779,124.914,106.797,130.895,0.00957747,0.58511,20.1687,165.068,-1.86783,0.0,0.0
935,233.5,103.699,114.35,124.95,106.834,130.053,0.00959576,0.585833,20.1691,164.818,-1.80541,0.0,0.0
946,236.25,103.839,114.715,123.788,107.08,132.724,0.00957931,0.587113,20.1697,164.457,-1.97099,0.0,0.0
957,239,103.745,114.24,124.471,107.343,131.927,0.00943783,0.585404,20.171,164.097,-1.89315,0.0,0.0
968,241.75,103.508,114.039,125.287,107.544,129.809,0.0093206,0.585849,20.1702,163.737,-1.72738,0.0,0.0
979,244.5,103.322,113.787,123.56,107.651,133.176,0.00930497,0.585724,20.1696,163.416,-1.95343,0.0,0.0
990,247.25,103.373,113.971,123.779,107.631,128.894,0.00917492,0.580905,20.1752,163.136,-1.65506,0.0,0.0
1001,250,103.027,113.651,128.557,107.443,129.646,0.00907941,0.579312,20.1782,162.816,-1.72448,0.0,0.0
1012,252.75,103.479,113.468,125.931,107.133,133.919,0.00896633,0.582461,20.1768,162.486,-2.04872,0.0,0.0
1023,255.5,103.188,113.47,126.292,106.74,133.765,0.00892446,0.582726,20.1762,162.195,-2.07189,0.0,0.0
1034,258.25,102.929,113.359,120.687,106.345,133.276,0.00918235,0.582572,20.1768,161.855,-2.07234,0.0,0.0
1045,261,103.071,113.366,122.783,106.014,132.434,0.0095232,0.579587,20.1818,161.505,-2.04278,0.0,0.0
1056,263.75,103.009,113.042,122.702,105.837,130.207,0.00953201,0.575973,20.1863,161.204,-1.9024,0.0,0.0
1067,266.5,102.903,113.109,123.821,105.811,129.528,0.0092867,0.576562,20.1877,160.844,-1.85663,0.0,0.0
1078,269.25,102.907,113.165,126.343,105.94,133.032,0.00931736,0.575429,20.1871,160.524,-2.09044,0.0,0.0
1089,272,103.17,112.653,124.06,106.203,130.134,0.00945981,0.574811,20.1873,160.254,-1.86554,0.0,0.0
1100,274.75,103.489,112.588,118.748,106.502,138.273,0.00939084,0.572605,20.19,159.913,-2.39672,0.0,0.0
1111,277.5,102.844,112.301,121.829,106.75,130.976,0.00941943,0.571681,20.1915,159.583,-1.87767,0.0,0.0
1122,280.25,102.568,112.346,126.34,106.936,132.226,0.00936407,0.571694,20.1922,159.223,-1.94881,0.0,0.0
1133,283,102.303,112.42,130.076,107.049,131.429,0.00931148,0.56855,20.195,158.922,-1.88361,0.0,0.0
1144,285.75,102.408,112.25,119.787,107.098,132.905,0.0093027,0.568636,20.1954,158.582,-1.98197,0.0,0.0
1155,288.5,103.006,112.009,127.622,107.038,134.553,0.00925397,0.569779,20.1948,158.252,-2.1002,0.0,0.0
1166,291.25,102.455,111.967,124.174,106.878,130.967,0.0092219,0.568522,20.1952,157.921,-1.86595,0.0,0.0
1177,294,102.52,111.832,125.836,106.676,130.85,0.00935898,0.56521,20.2012,157.591,-1.87507,0.0,0.0
1188,296.75,102.608,111.679,128.267,106.463,130.451,0.00945868,0.563541,20.2056,157.281,-1.86543,0.0,0.0
1199,299.5,102.452,111.61,118.735,106.34,131.529,0.00935127,0.563832,20.2072,156.951,-1.9516,0.0,0.0
1210,302.25,102.179,111.471,119.9,106.478,129.89,0.0091111,0.562649,20.2087,156.6,-1.82456,0.0,0.0
1221,305,102.236,111.369,120.81,106.731,129.139,0.00903056,0.559212,20.2126,156.34,-1.74951,0.0,0.0
1232,307.75,102.08,111.271,123.135,106.972,134.272,0.00926372,0.557902,20.2152,155.99,-2.08671,0.0,0.0
1243,310.5,101.995,110.95,124.449,107.106,128.595,0.00940701,0.551411,20.2217,155.679,-1.67862,0.0,0.0
1254,313.25,101.648,111.008,126.338,107.128,129.474,0.00915315,0.543353,20.2357,155.419,-1.73927,0.0,0.0
1265,316,101.433,110.461,128.296,107.013,135.014,0.00870182,0.533322,20.251,155.089,-2.13374,0.0,0.0
1276,318.75,101.432,110.315,124.068,106.804,132.516,0.0083128,0.523444,20.2649,154.789,-1.98023,0.0,0.0
1287,321.5,100.704,110.125,124.537,106.712,130.334,0.00785305,0.511282,20.2862,154.528,-1.83576,0.0,0.0
1298,324.25,100.452,109.523,128.019,106.859,133.403,0.00762417,0.502725,20.3027,154.218,-2.03678,0.0,0.0
1309,327,100.16,108.835,124.715,106.989,136.571,0.00757426,0.494698,20.3176,153.918,-2.24111,0.0,0.0
1320,329.75,99.7395,108.582,128.426,107.133,135.087,0.00735929,0.489312,20.3275,153.648,-2.12844,0.0,0.0
1331,332.5,98.9545,108.068,126.625,107.268,134.996,0.00712729,0.486394,20.3328,153.357,-2.11068,0.0,0.0
1342,335.25,99.0077,107.749,126.262,107.386,135.666,0.00674908,0.483775,20.3398,153.037,-2.14604,0.0,0.0
1353,338,98.7291,106.982,126.369,107.492,135.168,0.00631996,0.482544,20.343,152.797,-2.10328,0.0,0.0
1364,340.75,98.2061,106.874,127.306,107.556,137.214,0.006125,0.48296,20.3446,152.477,-2.2357,0.0,0.0
1375,343.5,97.4974,105.974,128.015,107.597,136.499,0.00612816,0.48568,20.34,152.186,-2.18426,0.0,0.0
1386,346.25,97.7012,106.241,122.796,107.623,134.634,0.00610646,0.490391,20.3324,151.916,-2.05574,0.0,0.0
1397,349,97.5618,105.873,128.422,107.586,135.023,0.00614968,0.498195,20.3189,151.576,-2.0854,0.0,0.0
1408,351.75,97.5222,106.1,123.983,107.546,133.584,0.00623308,0.50703,20.307,151.276,-1.99042,0.0,0.0
1419,354.5,97.5606,105.637,121.061,107.48,137.142,0.00639615,0.513264,20.2969,150.985,-2.23736,0.0,0.0
1430,357.25,97.9281,106.112,127.399,107.388,137.893,0.0066095,0.517925,20.2872,150.685,-2.29537,0.0,0.0
1441,360,98.0707,106.095,131.813,107.293,134.344,0.00667795,0.524565,20.2766,150.415,-2.06409,0.0,0.0
1452,362.75,97.8545,106.118,126.691,107.199,134.824,0.00663833,0.532168,20.2658,150.044,-2.10491,0.0,0.0
1463,365.5,98.3169,106.132,125.863,107.077,132.443,0.0065369,0.539108,20.2571,149.764,-1.95174,0.0,0.0
1474,368.25,97.8884,106.327,123.679,106.937,132.633,0.0066711,0.548458,20.2433,149.444,-1.97698,0.0,0.0
1485,371,98.598,106.718,128.894,106.781,134.634,0.00682333,0.554617,20.2323,149.104,-2.12778,0.0,0.0
1496,373.75,98.7767,106.755,121.278,106.652,135.114,0.00692424,0.560299,20.2208,148.803,-2.17153,0.0,0.0
1507,376.5,99.484,107.298,123.1,106.532,131.764,0.00709104,0.565187,20.2113,148.493,-1.95145,0.0,0.0
1518,379.25,98.9686,107.662,121.138,106.423,134.706,0.00711935,0.569867,20.2027,148.153,-2.16359,0.0,0.0
1529,382,99.8235,107.606,126.859,106.303,132.126,0.0070543,0.574237,20.1945,147.862,-1.99641,0.0,0.0
1540,384.75,100.123,107.884,122.026,106.233,129.736,0.00713069,0.578918,20.1888,147.522,-1.83484,0.0,0.0
1551,387.5,100.434,108.566,124.664,106.171,133.204,0.00713842,0.578306,20.1873,147.232,-2.08233,0.0,0.0
1562,390.25,100.785,108.243,124.127,106.108,130.623,0.00709364,0.579372,20.1851,146.862,-1.90821,0.0,0.0
1573,393,100.923,108.687,127.345,106.052,132.85,0.00708859,0.584487,20.1762,146.531,-2.06825,0.0,0.0
1584,395.75,101.145,108.749,123.832,105.984,138.554,0.00717088,0.588174,20.1701,146.261,-2.46012,0.0,0.0
1595,398.5,101.353,109.486,124.591,105.968,131.04,0.00752723,0.591154,20.1644,145.891,-1.94958,0.0,0.0
1606,401.25,101.404,109.263,125.482,105.931,133.711,0.0079297,0.596818,20.1566,145.54,-2.13797,0.0,0.0
1617,404,101.766,109.947,124.948,105.9,132.832,0.00803091,0.599004,20.1534,145.29,-2.0802,0.0,0.0
1628,406.75,102.354,110.058,125.162,105.868,131.936,0.00797473,0.59952,20.1524,144.94,-2.02084,0.0,0.0
1639,409.5,102.662,110.357,120.17,105.836,134.824,0.00789345,0.600742,20.1517,144.62,-2.22242,0.0,0.0
1650,412.25,102.617,110.361,123.344,105.843,139.134,0.00780649,0.604476,20.1465,144.259,-2.51058,0.0,0.0
1661,415,102.677,110.732,125.656,105.829,134.489,0.00785097,0.607281,20.1423,143.959,-2.20015,0.0,0.0
1672,417.75,102.986,110.945,118.649,105.817,135.684,0.0079657,0.608548,20.1409,143.609,-2.28238,0.0,0.0
1683,420.5,103.496,111.516,127.415,105.792,132.814,0.00800383,0.607316,20.1405,143.298,-2.08835,0.0,0.0
1694,423.25,103.543,111.523,121.736,105.795,132.823,0.00821137,0.607633,20.1389,142.978,-2.08864,0.0,0.0
1705,426,103.889,112.047,118.878,105.792,134.109,0.00815563,0.609183,20.1365,142.668,-2.17737,0.0,0.0
1716,428.75,103.827,111.948,121.923,105.794,133.656,0.0079205,0.610979,20.1336,142.328,-2.14614,0.0,0.0
1727,431.5,104.265,112.096,120.566,105.795,135.675,0.00788332,0.614608,20.1287,141.997,-2.28366,0.0,0.0
1738,434.25,104.277,112.638,121.617,105.781,136.925,0.00802322,0.615885,20.1261,141.637,-2.3691,0.0,0.0
1749,437,104.561,112.963,123.067,105.781,133.729,0.00799921,0.617188,20.1242,141.337,-2.15228,0.0,0.0
1760,439.75,105.009,113.295,124.991,105.785,130.931,0.00791196,0.61543,20.1243,141.006,-1.95778,0.0,0.0
1771,442.5,105.032,113.097,123.305,105.806,133.013,0.00791486,0.614787,20.1246,140.686,-2.10082,0.0,0.0
1782,445.25,104.967,113.651,122.977,105.789,133.285,0.00800399,0.614532,20.1247,140.376,-2.12102,0.0,0.0
1793,448,105.017,113.663,120.907,105.8,132.525,0.00806615,0.614293,20.1247,140.025,-2.06755,0.0,0.0
1804,450.75,105.508,113.97,123.995,105.785,133.167,0.00806716,0.614749,20.1259,139.705,-2.11329,0.0,0.0
1815,453.5,105.822,114.298,118.918,105.806,135.141,0.00807031,0.612661,20.1282,139.325,-2.24654,0.0,0.0
1826,456.25,105.702,114.224,127.084,105.814,134.553,0.00810178,0.612316,20.1295,139.015,-2.20576,0.0,0.0
1837,459,105.74,114.205,122.667,105.78,132.959,0.00803074,0.611911,20.1301,138.664,-2.09938,0.0,0.0
1848,461.75,105.352,113.641,123.028,105.785,135.666,0.00796874,0.609373,20.131,138.364,-2.28396,0.0,0.0
1859,464.5,105.58,114.188,125.9,105.786,135.847,0.00800189,0.612445,20.1275,138.064,-2.29612,0.0,0.0
1870,467.25,106.272,114.379,120.146,105.791,133.457,0.00803707,0.613777,20.125,137.733,-2.13275,0.0,0.0
1881,470,105.415,114.575,125.493,105.785,134.082,0.00810419,0.612161,20.1246,137.363,-2.17607,0.0,0.0
1892,472.75,105.798,114.655,122.81,105.804,135.775,0.00814158,0.610276,20.1245,137.053,-2.28968,0.0,0.0
1903,475.5,105.68,114.146,123.212,105.78,134.942,0.0082083,0.61301,20.1245,136.662,-2.23523,0.0,0.0
1914,478.25,106.398,115.044,116.386,105.781,132.316,0.0081944,0.612236,20.1245,136.352,-2.05477,0.0,0.0
1925,481,105.766,114.426,124.018,105.801,136.363,0.00805521,0.610652,20.1285,136.032,-2.32965,0.0,0.0
1936,483.75,105.975,114.951,124.3,105.784,132.226,0.00801459,0.608808,20.131,135.712,-2.04823,0.0,0.0
1947,486.5,106.099,115.103,126.436,105.789,135.449,0.00803578,0.608102,20.1319,135.391,-2.26886,0.0,0.0
1958,489.25,106.252,115.032,123.584,105.785,134.543,0.00796622,0.608067,20.1322,135.041,-2.20771,0.0,0.0
1969,492,106.477,115.389,123.885,105.784,130.533,0.00790162,0.606608,20.1349,134.731,-1.92992,0.0,0.0
1980,494.75,105.738,114.834,118.592,105.794,134.58,0.00792044,0.604994,20.1379,134.39,-2.20939,0.0,0.0
1991,497.5,106.108,115.278,120.747,105.798,134.172,0.0080896,0.604141,20.1393,134.07,-2.18118,0.0,0.0
2002,500.25,106.284,115.128,121.599,105.784,134.308,0.00817107,0.601674,20.1425,133.78,-2.19167,0.0,0.0
2013,503,105.794,115.15,121.055,105.792,130.759,0.00842726,0.598977,20.1465,133.42,-1.94519,0.0,0.0
2024,505.75,106.494,115.133,122.792,105.796,133.222,0.00840649,0.597997,20.1495,133.119,-2.11609,0.0,0.0
2035,508.5,106.124,115.202,120.757,105.804,134.679,0.0082718,0.594811,20.1539,132.809,-2.21531,0.0,0.0
2046,511.25,106.13,115.009,117.34,105.788,137.45,0.00829993,0.592575,20.156,132.489,-2.40363,0.0,0.0
2057,514,106.349,115.188,123.133,105.786,131.139,0.00818436,0.594458,20.1553,132.098,-1.9723,0.0,0.0
2068,516.75,106.155,115.002,122.913,105.803,130.506,0.00797337,0.592804,20.1576,131.828,-1.92639,0.0,0.0
2079,519.5,106.34,115.127,126.192,105.815,134.444,0.00769028,0.590691,20.1596,131.478,-2.19823,0.0,0.0
2090,522.25,106.181,114.838,121.691,105.825,133.883,0.00757782,0.589779,20.1621,131.198,-2.15903,0.0,0.0
2101,525,105.962,114.583,122.928,105.82,131.619,0.0077041,0.588552,20.1633,130.907,-2.00292,0.0,0.0
2112,527.75,105.861,114.31,122.315,105.85,131.954,0.00796972,0.584865,20.1676,130.577,-2.02361,0.0,0.0
2123,530.5,106.246,114.859,123.168,105.87,132.298,0.00802869,0.582417,20.1719,130.247,-2.04577,0.0,0.0
2134,533.25,106.002,114.308,123.686,105.908,134.254,0.00791261,0.580926,20.1752,129.956,-2.17723,0.0,0.0
2145,536,105.813,114.547,125.247,105.91,131.04,0.00763543,0.577659,20.1801,129.656,-1.95456,0.0,0.0
2156,538.75,105.493,114.194,120.661,105.927,133.176,0.0073746,0.573074,20.186,129.346,-2.1016,0.0,0.0
2167,541.5,104.918,114.238,127.4,105.958,132.878,0.00743725,0.571988,20.1871,129.006,-2.07831,0.0,0.0
2178,544.25,104.914,113.532,124.356,106.003,133.068,0.00768868,0.574511,20.1852,128.725,-2.08755,0.0,0.0
2189,547,105.006,114.05,122.267,106.019,131.185,0.00770758,0.573472,20.1846,128.395,-1.95531,0.0,0.0
2200,549.75,104.755,113.587,121.895,106.031,131.728,0.00769233,0.57159,20.1881,128.075,-1.99222,0.0,0.0
2211,552.5,104.669,113.51,123.097,106.068,133.656,0.00784836,0.570989,20.1907,127.774,-2.12244,0.0,0.0
2222,555.25,104.781,113.077,125.117,106.13,134.942,0.00788927,0.570099,20.1931,127.464,-2.20493,0.0,0.0
2233,558,104.551,113.236,124.42,106.171,134.009,0.00766123,0.568945,20.1955,127.144,-2.13769,0.0,0.0
2244,560.75,104.433,112.752,126.002,106.204,132.488,0.0074489,0.567372,20.1975,126.874,-2.03004,0.0,0.0
2255,563.5,104.427,112.853,122.585,106.25,133.004,0.0074963,0.565967,20.199,126.543,-2.06178,0.0,0.0
2266,566.25,103.821,112.689,125.507,106.282,132.19,0.00754987,0.566641,20.199,126.323,-2.00258,0.0,0.0
2277,569,104.376,112.353,124.772,106.34,133.113,0.00765229,0.565777,20.1989,125.983,-2.06152,0.0,0.0
2288,571.75,104.345,112.454,122.584,106.388,133.575,0.00767048,0.559822,20.2051,125.693,-2.08918,0.0,0.0
2299,574.5,104.38,112.707,120.502,106.426,133.702,0.00766785,0.560623,20.2072,125.362,-2.09454,0.0,0.0
2310,577.25,103.638,112.261,119.3,106.464,133.032,0.00757772,0.563065,20.2056,125.012,-2.04516,0.0,0.0
2321,580,103.935,112.122,124.746,106.514,133.991,0.0075018,0.563921,20.205,124.712,-2.1069,0.0,0.0
2332,582.75,104.296,112.465,127.356,106.581,134.444,0.00737145,0.564844,20.2021,124.401,-2.13209,0.0,0.0
2343,585.5,104.171,112.366,123.865,106.627,131.348,0.00731959,0.564361,20.2022,124.131,-1.91418,0.0,0.0
2354,588.25,103.451,112.118,127.692,106.671,132.688,0.00724407,0.561577,20.2056,123.831,-2.00357,0.0,0.0
2365,591,103.616,112.073,125.004,106.739,133.104,0.00719276,0.561549,20.2066,123.491,-2.02649,0.0,0.0
2376,593.75,103.732,112.532,124.33,106.811,132.561,0.00727671,0.559859,20.2078,123.2,-1.98273,0.0,0.0
2387,596.5,103.683,111.996,125.471,106.863,135.023,0.0075828,0.556741,20.2108,122.91,-2.14726,0.0,0.0
2398,599.25,103.598,111.875,124.628,106.926,135.666,0.00776745,0.557676,20.2098,122.6,-2.18543,0.0,0.0
2409,602,103.701,111.721,125.082,106.968,137.993,0.00770218,0.558303,20.209,122.3,-2.33799,0.0,0.0
2420,604.75,103.529,111.82,134.345,107.039,132.968,0.00771217,0.556943,20.2087,122.019,-1.99139,0.0,0.0
2431,607.5,103.623,111.705,125.145,107.104,130.623,0.00765462,0.559445,20.2059,121.699,-1.82241,0.0,0.0
2442,610.25,103.539,111.881,123.121,107.155,133.52,0.00778124,0.561619,20.2035,121.409,-2.01943,0.0,0.0
2453,613,103.491,111.78,123.793,107.209,134.996,0.00759894,0.562237,20.2024,121.099,-2.11579,0.0,0.0
2464,615.75,103.563,111.773,123.174,107.246,131.547,0.00741584,0.560086,20.2038,120.778,-1.87496,0.0,0.0
2475,618.5,103.53,112.264,127.289,107.281,135.195,0.00761048,0.559231,20.205,120.498,-2.12314,0.0,0.0
2486,621.25,103.581,112.187,128.039,107.333,133.376,0.00769707,0.559691,20.2041,120.208,-1.99426,0.0,0.0
2497,624,103.576,111.572,123.929,107.389,135.114,0.00754166,0.557026,20.2067,119.877,-2.10833,0.0,0.0
2508,626.75,103.333,111.382,123.789,107.405,136.028,0.00737528,0.557595,20.2067,119.617,-2.16891,0.0,0.0
2519,629.5,103.439,111.52,127.477,107.442,135.621,0.00733847,0.558706,20.206,119.297,-2.13817,0.0,0.0
2530,632.25,103.126,111.733,120.739,107.472,131.339,0.00740153,0.558984,20.2055,118.987,-1.84113,0.0,0.0
2541,635,103.513,111.16,123.146,107.506,131.61,0.00737023,0.559106,20.2053,118.716,-1.8572,0.0,0.0
2552,637.75,103.548,111.23,123.773,107.53,129.564,0.0076117,0.558949,20.2052,118.436,-1.71127,0.0,0.0
2563,640.5,102.934,111.411,125.311,107.544,132.66,0.00777883,0.557082,20.2059,118.076,-1.92685,0.0,0.0
2574,643.25,103.218,111.157,125.551,107.563,135.041,0.00759046,0.555766,20.2089,117.806,-2.0886,0.0,0.0
2585,646,102.926,111.176,126.821,107.583,135.286,0.00752568,0.554177,20.2111,117.525,-2.10346,0.0,0.0
2596,648.75,103.073,111.02,126.635,107.607,135.865,0.00759719,0.553633,20.2124,117.215,-2.14065,0.0,0.0
2607,651.5,102.907,111.131,125.461,107.611,132.76,0.00768398,0.55309,20.2124,116.915,-1.92802,0.0,0.0
2618,654.25,102.879,110.95,129.729,107.606,132.995,0.00771149,0.553102,20.2118,116.645,-1.94473,0.0,0.0
2629,657,102.682,110.742,120.678,107.624,135.938,0.0076739,0.552284,20.2105,116.314,-2.14406,0.0,0.0
2640,659.75,102.717,110.948,124.327,107.622,131.818,0.00773597,0.553067,20.2105,116.024,-1.86179,0.0,0.0
2651,662.5,102.811,111.389,121.192,107.612,134.453,0.00785163,0.550113,20.2151,115.714,-2.04431,0.0,0.0
2662,665.25,102.619,110.556,130.699,107.609,129.238,0.0078729,0.546161,20.2181,115.453,-1.68142,0.0,0.0
2673,668,102.127,110.702,117.873,107.574,137.097,0.00765301,0.545529,20.2191,115.143,-2.22626,0.0,0.0
2684,670.75,102.409,110.679,127.989,107.573,134.136,0.00758848,0.547156,20.2195,114.853,-2.02599,0.0,0.0
2695,673.5,102.602,110.203,127.895,107.568,135.177,0.00759753,0.545366,20.2196,114.553,-2.09735,0.0,0.0
2706,676.25,102.375,110.392,124.761,107.545,131.972,0.00753778,0.545478,20.2196,114.272,-1.87904,0.0,0.0
2717,679,102.465,110.331,124.527,107.508,135.385,0.00751058,0.544861,20.221,113.952,-2.11664,0.0,0.0
2728,681.75,102.047,109.889,127.64,107.486,133.195,0.00755881,0.543144,20.2237,113.682,-1.96872,0.0,0.0
2739,684.5,102.032,110.067,124.711,107.465,132.008,0.00759715,0.542847,20.2239,113.402,-1.88836,0.0,0.0
2750,687.25,102.049,110.033,120.835,107.449,132.054,0.00763944,0.54565,20.2204,113.071,-1.89296,0.0,0.0
2761,690,102.172,109.647,122.492,107.414,133.683,0.00770355,0.545712,20.2187,112.791,-2.00853,0.0,0.0
2772,692.75,101.732,109.683,122.325,107.367,133.213,0.0075935,0.546615,20.2177,112.501,-1.98013,0.0,0.0
2783,695.5,102.121,109.817,126.603,107.351,132.036,0.00747953,0.545816,20.2183,112.191,-1.9,0.0,0.0
2794,698.25,101.848,109.823,123.909,107.319,129.971,0.00757598,0.545309,20.219,111.9,-1.7581,0.0,0.0
2805,701,101.767,109.827,129.579,107.286,132.235,0.00773323,0.543221,20.2207,111.63,-1.91943,0.0,0.0
2816,703.75,101.641,109.465,120.521,107.245,130.189,0.00763093,0.544687,20.2187,111.31,-1.77977,0.0,0.0
2827,706.5,101.9,109.68,121.287,107.21,133.267,0.00762108,0.546282,20.2176,111.019,-1.99732,0.0,0.0
2838,709.25,101.92,110.063,124.792,107.187,130.107,0.00778643,0.545367,20.2158,110.769,-1.77899,0.0,0.0
2849,712,102.091,109.379,122.567,107.16,132.425,0.00775527,0.546554,20.2153,110.469,-1.94339,0.0,0.0
2860,714.75,101.558,109.441,126.262,107.141,131.764,0.00759789,0.547277,20.2148,110.139,-1.8991,0.0,0.0
2871,717.5,101.987,109.721,126.989,107.11,130.089,0.0077024,0.546097,20.2146,109.908,-1.78435,0.0,0.0
2882,720.25,101.742,109.7,124.307,107.099,130.949,0.00781016,0.547322,20.2145,109.628,-1.84574,0.0,0.0
2893,723,102.405,109.972,128.603,107.071,130.469,0.00777551,0.546051,20.2153,109.368,-1.81446,0.0,0.0
2904,725.75,102.27,109.376,121.98,107.042,129.483,0.00784389,0.542217,20.2192,109.058,-1.74723,0.0,0.0
2915,728.5,101.916,109.616,122.348,107.005,131.882,0.00785404,0.541807,20.2192,108.757,-1.91899,0.0,0.0
2926,731.25,101.797,109.421,124.443,106.971,130.325,0.0079788,0.544064,20.216,108.447,-1.81282,0.0,0.0
2937,734,101.873,109.688,125.501,106.95,132.262,0.00794939,0.543311,20.217,108.177,-1.95013,0.0,0.0
2948,736.75,101.255,109.086,125.69,106.939,131.746,0.00773785,0.542959,20.218,107.927,-1.91521,0.0,0.0
2959,739.5,102.324,109.582,124.189,106.919,129.727,0.00758666,0.541482,20.2197,107.646,-1.77508,0.0,0.0
2970,742.25,101.74,109.371,129.911,106.875,132.841,0.00750537,0.541893,20.2202,107.316,-1.99673,0.0,0.0
2981,745,101.545,109.391,127.497,106.85,131.963,0.00741299,0.54139,20.2204,107.046,-1.93793,0.0,0.0
2992,747.75,101.386,109.611,124.724,106.824,130.252,0.00745311,0.539476,20.2212,106.786,-1.82032,0.0,0.0
3003,750.5,101.488,109.456,126.991,106.821,129.99,0.00732584,0.536611,20.2238,106.485,-1.80206,0.0,0.0
3014,753.25,101.663,109.381,124.85,106.799,129.483,0.00713985,0.538815,20.2218,106.195,-1.76809,0.0,0.0
3025,756,101.611,109.02,127.686,106.767,131.809,0.00721385,0.539258,20.2211,105.925,-1.93436,0.0,0.0
3036,758.75,101.471,109.393,125.41,106.743,132.642,0.00735759,0.53866,20.2198,105.675,-1.99422,0.0,0.0
3047,761.5,101.35,109.428,128.651,106.716,131.248,0.00742393,0.538817,20.2207,105.374,-1.89957,0.0,0.0
3058,764.25,101.557,109.598,125.718,106.716,132.371,0.00748835,0.535565,20.2238,105.084,-1.97772,0.0,0.0
3069,767,101.513,109.271,125.7,106.683,131.664,0.00765385,0.533941,20.2267,104.844,-1.93146,0.0,0.0
3080,769.75,101.234,109.179,123.173,106.675,128.378,0.00775434,0.531986,20.2296,104.574,-1.70016,0.0,0.0
3091,772.5,101.23,109.28,123.912,106.645,130.125,0.00772561,0.52948,20.2317,104.303,-1.82678,0.0,0.0
3102,775.25,101.292,108.789,128.382,106.709,132.181,0.00774171,0.527909,20.2324,103.983,-1.9652,0.0,0.0
3113,778,101.112,108.75,126.639,106.767,131.221,0.00762165,0.52904,20.2325,103.763,-1.89325,0.0,0.0
3124,780.75,101.033,108.421,125.645,106.81,128.677,0.00729748,0.528584,20.2336,103.473,-1.70985,0.0,0.0
3135,783.5,100.945,108.434,123.939,106.855,131.013,0.00726827,0.527351,20.2347,103.162,-1.87118,0.0,0.0
3146,786.25,100.882,108.875,125.678,106.895,130.822,0.00748065,0.527658,20.2348,102.932,-1.85433,0.0,0.0
3157,789,100.404,108.528,122.709,106.957,131.483,0.00751514,0.527012,20.2348,102.672,-1.89529,0.0,0.0
3168,791.75,101.023,108.094,124.298,106.984,129.7,0.00730344,0.525161,20.2374,102.372,-1.76763,0.0,0.0
3179,794.5,100.677,108.36,135.195,107,131.085,0.00704148,0.522385,20.2412,102.071,-1.86373,0.0,0.0
3190,797.25,100.481,108.017,124.855,107.029,130.967,0.00703038,0.521803,20.2428,101.811,-1.85306,0.0,0.0
3201,800,100.282,107.42,123.108,107.053,130.551,0.00721728,0.520836,20.2434,101.601,-1.82177,0.0,0.0
3212,802.75,101.009,108.018,124.686,107.078,130.207,0.00735068,0.518934,20.2444,101.331,-1.79534,0.0,0.0
3223,805.5,100.481,108.063,131.121,107.092,131.556,0.00746183,0.517574,20.2468,101.071,-1.8888,0.0,0.0
3234,808.25,100.343,107.635,126.085,107.094,126.287,0.00759686,0.516848,20.2488,100.8,-1.51335,0.0,0.0
3245,811,100.615,107.648,126.563,107.095,133.846,0.00750661,0.516288,20.2498,100.55,-2.04697,0.0,0.0
3256,813.75,99.981,107.169,126.368,107.106,130.08,0.00735583,0.514815,20.2501,100.28,-1.78401,0.0,0.0
3267,816.5,100.065,107.127,126.114,107.111,132.841,0.00733229,0.515997,20.2502,100.01,-1.97644,0.0,0.0
3278,819.25,100.133,107.308,127.145,107.101,129.437,0.0073614,0.513886,20.2514,99.7494,-1.73894,0.0,0.0
3289,822,99.8697,107.261,126.896,107.09,130.841,0.00735965,0.510298,20.2552,99.4992,-1.83894,0.0,0.0
3300,824.75,99.5723,107.296,123.018,107.074,131.637,0.00730303,0.508843,20.2566,99.2389,-1.89602,0.0,0.0
3311,827.5,99.7338,107.098,127.774,107.076,129.329,0.00737834,0.508944,20.2572,99.0187,-1.73344,0.0,0.0
3322,830.25,99.6099,106.721,128.85,107.072,128.052,0.00741127,0.506119,20.2604,98.7385,-1.64271,0.0,0.0
3333,833,99.3803,106.653,129.647,107.033,131.013,0.00736157,0.503658,20.263,98.4883,-1.85586,0.0,0.0
3344,835.75,98.9977,106.634,125.089,107.01,130.533,0.00729926,0.50484,20.2626,98.188,-1.82415,0.0,0.0
3355,838.5,99.0205,105.929,124.443,106.982,125.97,0.00708614,0.503955,20.2627,97.9478,-1.49993,0.0,0.0
3366,841.25,98.5201,106.551,123.116,106.963,131.366,0.00704776,0.502515,20.2653,97.7276,-1.88658,0.0,0.0
3377,844,99.0313,106.257,128.645,106.941,127.328,0.00723733,0.500681,20.2674,97.4773,-1.60188,0.0,0.0
3388,846.75,98.9389,105.929,127.1,106.895,130.759,0.00734139,0.49855,20.2698,97.2071,-1.84996,0.0,0.0
3399,849.5,98.7655,106.292,129.179,106.865,130.352,0.00709674,0.494485,20.2748,96.9769,-1.82382,0.0,0.0
3410,852.25,98.5116,105.411,130.018,106.824,127.183,0.00677995,0.493516,20.2781,96.7567,-1.60145,0.0,0.0
3421,855,98.6543,105.628,128.696,106.816,134.444,0.00663925,0.492293,20.28,96.5065,-2.11182,0.0,0.0
3432,857.75,98.5065,105.492,124.197,106.805,131.601,0.00663117,0.491175,20.2814,96.2863,-1.91656,0.0,0.0
3443,860.5,98.3071,105.153,125.883,106.762,130.614,0.00670491,0.48858,20.2842,96.016,-1.8512,0.0,0.0
3454,863.25,97.9665,105.156,126.664,106.732,128.423,0.00669671,0.48723,20.2852,95.8058,-1.69849,0.0,0.0
3465,866,97.9733,105.329,125.382,106.705,129.066,0.00651814,0.486732,20.2855,95.5756,-1.74661,0.0,0.0
3476,868.75,97.7659,105.083,129.219,106.693,127.174,0.00650716,0.486115,20.2868,95.3254,-1.61211,0.0,0.0
3487,871.5,97.9924,105,126.952,106.659,130.044,0.00669338,0.481856,20.2918,95.1152,-1.8199,0.0,0.0
3498,874.25,97.6019,104.849,129.068,106.635,133.339,0.00668816,0.478928,20.2942,94.815,-2.05171,0.0,0.0
3509,877,97.829,104.855,126.998,106.602,128.541,0.00645419,0.474554,20.3014,94.6148,-1.71803,0.0,0.0
3520,879.75,97.6268,104.421,132.509,106.591,131.067,0.0063083,0.472506,20.3052,94.3946,-1.89769,0.0,0.0
3531,882.5,97.4265,103.897,128.366,106.57,128.414,0.0062648,0.47175,20.3067,94.1744,-1.71175,0.0,0.0
3542,885.25,96.9393,103.925,123.152,106.523,126.531,0.00611332,0.469246,20.3115,93.9242,-1.58021,0.0,0.0
3553,888,96.5557,103.518,130.046,106.497,128.125,0.00599048,0.46544,20.3148,93.744,-1.69735,0.0,0.0
3564,890.75,96.2528,103.733,124.85,106.455,127.907,0.00596598,0.465111,20.3152,93.5138,-1.68534,0.0,0.0
3575,893.5,96.3,103.019,124.104,106.435,128.324,0.00586891,0.466007,20.3128,93.2836,-1.71691,0.0,0.0
3586,896.25,96.7044,103.36,128.419,106.366,132.697,0.00581868,0.464199,20.3138,93.0734,-2.0305,0.0,0.0
3597,899,96.2987,102.887,132.313,106.299,129.528,0.00593197,0.461439,20.3202,92.8032,-1.81438,0.0,0.0
3608,901.75,95.9004,102.749,127.367,106.287,130.388,0.00596744,0.45958,20.3251,92.623,-1.87619,0.0,0.0
3619,904.5,96.0179,102.793,124.943,106.311,131.031,0.00589511,0.457333,20.3286,92.3928,-1.9193,0.0,0.0
3630,907.25,95.7696,102.415,124.344,106.327,128.885,0.00582802,0.45275,20.3346,92.2026,-1.7663,0.0,0.0
3641,910,95.4359,102.337,130.05,106.334,129.111,0.00567613,0.448882,20.3399,92.0124,-1.78184,0.0,0.0
3652,912.75,95.2741,101.823,125.756,106.343,128.079,0.00570087,0.446775,20.3428,91.7622,-1.70737,0.0,0.0
3663,915.5,95.0541,101.951,125.298,106.357,131.71,0.00600862,0.447695,20.3419,91.5921,-1.96273,0.0,0.0
3674,918.25,95.0689,101.668,131.517,106.379,129.383,0.00637736,0.448136,20.3406,91.3919,-1.79719,0.0,0.0
3685,921,94.9396,101.421,129.56,106.406,131.04,0.00638878,0.444347,20.346,91.1517,-1.91174,0.0,0.0
3696,923.75,94.5963,101.219,128.912,106.426,129.084,0.00603068,0.440883,20.3499,90.9415,-1.7719,0.0,0.0
3707,926.5,94.2127,101.026,129.854,106.459,128.604,0.00585553,0.440635,20.3514,90.7613,-1.73494,0.0,0.0
3718,929.25,94.5737,100.744,127.476,106.499,128.74,0.00574564,0.441285,20.3506,90.5511,-1.74117,0.0,0.0
3729,932,94.5309,101.264,127.055,106.546,129.039,0.00563421,0.440113,20.3529,90.341,-1.75836,0.0,0.0
3740,934.75,93.9735,100.137,127.33,106.585,126.06,0.00545651,0.43681,20.3558,90.1608,-1.54063,0.0,0.0
3751,937.5,93.6083,100.509,126.823,106.611,127.346,0.00538501,0.434847,20.358,89.9706,-1.63156,0.0,0.0
3762,940.25,93.7271,100.22,126.318,106.641,131.293,0.00567073,0.433415,20.3605,89.7704,-1.90922,0.0,0.0
3773,943,93.5751,99.8715,128.015,106.691,129.908,0.00580305,0.432369,20.3605,89.5703,-1.80754,0.0,0.0
3784,945.75,93.7784,99.8628,131.611,106.731,131.918,0.00567929,0.429747,20.3627,89.3701,-1.94504,0.0,0.0
3795,948.5,93.2417,99.7571,129.081,106.767,127.364,0.00559279,0.426214,20.3683,89.2099,-1.61946,0.0,0.0
3806,951.25,92.9784,99.4561,127.723,106.791,133.901,0.00530148,0.425381,20.3702,88.9797,-2.07682,0.0,0.0
3817,954,92.975,99.5958,127.171,106.846,128.948,0.00505144,0.424707,20.3708,88.7595,-1.7261,0.0,0.0
3828,956.75,93.0812,99.3261,130.682,106.881,128.704,0.00505753,0.421919,20.3745,88.6194,-1.70569,0.0,0.0
3839,959.5,92.7378,99.0053,128.562,106.909,129.039,0.0050854,0.419301,20.3776,88.3992,-1.7272,0.0,0.0
3850,962.25,92.5917,98.7423,131.463,106.935,132.054,0.00513065,0.417046,20.3795,88.2491,-1.93693,0.0,0.0
3861,965,92.5646,98.6871,127.548,106.955,128.677,0.00519085,0.416445,20.3809,88.0689,-1.69739,0.0,0.0
3872,967.75,92.5038,98.8829,128.545,106.983,129.691,0.00515194,0.414435,20.3855,87.8887,-1.76706,0.0,0.0
3883,970.5,92.5351,98.4776,126.771,107.014,127.029,0.00502485,0.412108,20.3899,87.7086,-1.574,0.0,0.0
3894,973.25,91.6167,97.7856,129.131,107.041,126.341,0.00489018,0.409672,20.3932,87.5284,-1.52182,0.0,0.0
3905,976,91.3578,97.7943,129.809,107.03,129.763,0.00483458,0.408864,20.3943,87.3282,-1.76815,0.0,0.0
3916,978.75,90.9403,97.5571,126.529,107.054,129.7,0.00480159,0.405714,20.3971,87.1481,-1.76161,0.0,0.0
3927,981.5,91.3303,97.1771,131.033,107.073,130.65,0.00488501,0.405234,20.3981,86.9579,-1.82705,0.0,0.0
3938,984.25,91.4303,97.1357,131.868,107.072,127.246,0.00481436,0.404469,20.3992,86.7978,-1.58472,0.0,0.0
3949,987,90.9505,96.8907,128.464,107.061,129.32,0.00484065,0.40194,20.403,86.6276,-1.73406,0.0,0.0
3960,989.75,90.5306,96.7793,129.483,107.044,125.481,0.00493835,0.399733,20.4059,86.4475,-1.45885,0.0,0.0
3971,992.5,90.9121,96.2847,131.714,107.039,129.193,0.0049045,0.397815,20.4073,86.2673,-1.72696,0.0,0.0
3982,995.25,90.8267,96.5323,127.327,107.026,126.911,0.00488023,0.396692,20.4094,86.1372,-1.56452,0.0,0.0
3993,998,90.2644,96.2237,129.922,107.017,128.795,0.00487066,0.394576,20.412,85.957,-1.70048,0.0,0.0
4004,1000.75,90.1413,95.888,132.003,106.992,129.311,0.0047287,0.39178,20.4153,85.7568,-1.73936,0.0,0.0
4015,1003.5,89.8148,95.9558,128.899,106.952,127.69,0.00452234,0.390295,20.4181,85.6167,-1.62702,0.0,0.0
4026,1006.25,89.9407,95.1067,133.922,106.916,128.532,0.00436393,0.389776,20.4191,85.4466,-1.69042,0.0,0.0
4037,1009,89.9892,95.3969,129.833,106.87,129.89,0.00420761,0.386992,20.4212,85.2964,-1.79083,0.0,0.0
4048,1011.75,89.4097,95.4143,133.201,106.851,126.214,0.00401344,0.384072,20.4238,85.1663,-1.52898,0.0,0.0
4059,1014.5,89.2957,95.0525,126.968,106.784,123.761,0.00397247,0.382262,20.4285,84.9862,-1.35445,0.0,0.0
4070,1017.25,89.0361,94.8616,135.333,106.743,129.392,0.00396593,0.381186,20.4315,84.816,-1.76654,0.0,0.0
4081,1020,88.7959,94.6341,133.386,106.706,127.083,0.00399901,0.378967,20.4343,84.6358,-1.60441,0.0,0.0
4092,1022.75,88.6918,94.4989,134.162,106.656,127.491,0.00408401,0.377064,20.4374,84.5057,-1.63814,0.0,0.0
4103,1025.5,88.7505,94.6255,133.729,106.612,124.775,0.00402285,0.374659,20.4409,84.3356,-1.4442,0.0,0.0
4114,1028.25,88.4941,93.9784,129.907,106.541,129.12,0.0038219,0.371194,20.4443,84.1754,-1.76464,0.0,0.0
4125,1031,88.3076,93.8048,130.763,106.492,128.478,0.00383333,0.36998,20.447,84.0353,-1.72299,0.0,0.0
4136,1033.75,88.197,93.8912,130.769,106.45,127.111,0.00388886,0.367169,20.4505,83.8752,-1.62839,0.0,0.0
4147,1036.5,88.1177,93.273,133.632,106.389,129.039,0.00391194,0.364569,20.4532,83.745,-1.77192,0.0,0.0
4158,1039.25,87.275,93.3724,131.327,106.323,125.608,0.00395466,0.362903,20.4556,83.6149,-1.53021,0.0,0.0
4169,1042,87.4693,92.9591,132.819,106.248,122.928,0.00395745,0.360897,20.4569,83.4748,-1.33866,0.0,0.0
4180,1044.75,87.002,92.8028,132.069,106.205,126.386,0.00367558,0.35786,20.4604,83.3147,-1.59714,0.0,0.0
4191,1047.5,87.1038,92.9182,128.799,106.159,127.509,0.00348775,0.356174,20.4642,83.2146,-1.68231,0.0,0.0
4202,1050.25,86.7138,92.1802,133.807,106.12,124.648,0.00349401,0.354131,20.4658,83.0844,-1.47734,0.0,0.0
4213,1053,86.8278,92.4091,133.666,106.074,124.702,0.00351224,0.351148,20.4699,82.9343,-1.48534,0.0,0.0
4224,1055.75,86.4824,91.7821,130.947,106.025,126.622,0.00350611,0.348255,20.4746,82.7942,-1.62982,0.0,0.0
4235,1058.5,86.4778,91.9467,134.426,105.99,122.792,0.00359909,0.345835,20.4777,82.6541,-1.35089,0.0,0.0
4246,1061.25,85.9665,91.158,129.922,105.978,125.789,0.00372488,0.342635,20.4844,82.554,-1.57326,0.0,0.0
4257,1064,85.7491,91.08,130.289,105.941,124.657,0.00386026,0.339728,20.4876,82.4439,-1.4935,0.0,0.0
4268,1066.75,85.4456,90.8496,136.372,105.886,124.15,0.00383914,0.337664,20.4927,82.3138,-1.46088,0.0,0.0
4279,1069.5,85.4874,90.5886,131.724,105.876,121.995,0.00352562,0.335338,20.4964,82.1536,-1.30098,0.0,0.0
4290,1072.25,85.2136,90.929,135.419,105.84,125.744,0.00331153,0.333239,20.4995,82.0435,-1.58193,0.0,0.0
4301,1075,84.6954,90.2732,138.527,105.829,124.051,0.00327851,0.332018,20.501,81.9034,-1.45839,0.0,0.0
4312,1077.75,84.6599,89.9877,132.391,105.806,121.896,0.00332914,0.332163,20.5014,81.7733,-1.29957,0.0,0.0
4323,1080.5,84.5671,89.7007,132.77,105.778,124.494,0.00330199,0.330034,20.5043,81.6632,-1.49562,0.0,0.0
4334,1083.25,84.2593,89.316,131.585,105.767,123.018,0.00315861,0.327624,20.5088,81.5431,-1.38713,0.0,0.0
4345,1086,84.1605,89.7962,134.32,105.771,121.516,0.00310277,0.324002,20.5149,81.433,-1.27395,0.0,0.0
4356,1088.75,83.972,89.1577,131.694,105.773,123.679,0.00325666,0.320959,20.5195,81.3028,-1.43575,0.0,0.0
4367,1091.5,83.618,88.7504,132.971,105.748,123.462,0.00334919,0.319357,20.5209,81.1727,-1.42176,0.0,0.0
4378,1094.25,83.5533,88.7224,138.012,105.769,121.506,0.0034439,0.317119,20.5251,81.0526,-1.27341,0.0,0.0
4389,1097,83.1173,88.2476,133.458,105.783,122.013,0.00357981,0.313473,20.5298,80.9425,-1.31043,0.0,0.0
4400,1099.75,83.4131,88.2998,136.772,105.809,124.612,0.00351392,0.312231,20.534,80.8424,-1.50161,0.0,0.0
4411,1102.5,82.9693,88.023,134.097,105.836,123.933,0.00333452,0.31031,20.5372,80.7323,-1.44915,0.0,0.0
4422,1105.25,82.5594,87.4334,134.622,105.874,121.869,0.00322558,0.309388,20.5386,80.6022,-1.29163,0.0,0.0
4433,1108,82.2571,87.1748,131.849,105.916,122.575,0.00326568,0.307812,20.5431,80.5221,-1.34105,0.0,0.0
4444,1110.75,82.5342,87.2833,135.137,105.965,123.118,0.00332796,0.306143,20.5454,80.412,-1.37734,0.0,0.0
4455,1113.5,81.3608,86.3071,136.286,106.038,121.09,0.00340061,0.304006,20.5499,80.2619,-1.21853,0.0,0.0
4466,1116.25,81.6229,86.5135,129.912,106.106,122.321,0.0034484,0.301137,20.5554,80.1818,-1.30556,0.0,0.0
4477,1119,81.2442,86.271,130.661,106.173,126.178,0.00344287,0.299215,20.5585,80.1018,-1.58479,0.0,0.0
4488,1121.75,81.3467,85.8788,135.623,106.257,123.516,0.00330195,0.297175,20.5614,79.9717,-1.38179,0.0,0.0
4499,1124.5,80.7352,85.7571,137.411,106.342,125.544,0.00294563,0.294945,20.5665,79.8816,-1.52392,0.0,0.0
4510,1127.25,80.299,85.7785,137.379,106.424,124.286,0.00265096,0.292533,20.57,79.7715,-1.42434,0.0,0.0
4521,1130,80.7046,85.2067,137.628,106.487,124.693,0.00262087,0.288873,20.5759,79.7014,-1.44901,0.0,0.0
4532,1132.75,80.0057,84.8199,137.04,106.565,126.531,0.00275202,0.285417,20.5825,79.5413,-1.57654,0.0,0.0
4543,1135.5,79.657,84.5282,133.578,106.668,125.943,0.00288486,0.282436,20.5887,79.4812,-1.52489,0.0,0.0
4554,1138.25,79.5708,84.2027,134.748,106.756,126.522,0.00296968,0.28015,20.5932,79.3611,-1.55946,0.0,0.0
4565,1141,79.1659,84.1219,141.428,106.851,126.042,0.0029781,0.277596,20.598,79.241,-1.51642,0.0,0.0
4576,1143.75,79.5052,83.6145,136.309,106.932,124.73,0.00317442,0.273741,20.6038,79.1609,-1.41331,0.0,0.0
4587,1146.5,78.5849,83.3232,134.121,107.002,123.127,0.00332435,0.270613,20.6114,79.0508,-1.28866,0.0,0.0
4598,1149.25,78.7308,83.1126,135.002,107.087,125.164,0.00337138,0.26829,20.6165,78.9908,-1.43202,0.0,0.0
4609,1152,78.4131,82.8549,131.675,107.158,127.753,0.00330111,0.266212,20.6196,78.9107,-1.61384,0.0,0.0
4620,1154.75,77.8157,82.3731,134.044,107.213,126.015,0.00317059,0.262546,20.6258,78.8306,-1.48337,0.0,0.0
4631,1157.5,77.526,81.6636,137.059,107.277,127.274,0.00307018,0.258416,20.6336,78.7506,-1.56915,0.0,0.0
4642,1160.25,77.0064,81.3771,133.668,107.353,127.681,0.00293411,0.255601,20.6381,78.6805,-1.59197,0.0,0.0
4653,1163,76.9203,80.8406,136.164,107.417,126.712,0.00280393,0.251371,20.647,78.6004,-1.51658,0.0,0.0
4664,1165.75,76.4166,80.5597,138.023,107.479,125.517,0.00267786,0.248147,20.6533,78.4903,-1.4243,0.0,0.0
4675,1168.5,75.9261,80.1585,139.775,107.516,126.205,0.00266173,0.243874,20.6624,78.4303,-1.47133,0.0,0.0
4686,1171.25,75.6023,79.6601,140.518,107.539,127.554,0.0028668,0.239248,20.671,78.3802,-1.56696,0.0,0.0
4697,1174,74.9474,79.1737,140.348,107.586,129.229,0.00303867,0.234569,20.6774,78.2701,-1.68271,0.0,0.0
4708,1176.75,74.6677,78.8016,137.488,107.613,126.042,0.00310059,0.230001,20.6879,78.2201,-1.45122,0.0,0.0
4719,1179.5,74.6362,78.182,143.074,107.623,128.197,0.00316272,0.223977,20.6991,78.12,-1.60597,0.0,0.0
4730,1182.25,73.8286,77.8832,138.89,107.609,127.21,0.00325542,0.218682,20.7108,78.0599,-1.53622,0.0,0.0
4741,1185,73.1358,77.5218,140.258,107.61,128.523,0.00339218,0.214447,20.7193,77.9799,-1.6304,0.0,0.0
4752,1187.75,72.635,76.2966,137.57,107.596,126.631,0.00360409,0.210381,20.7275,77.9498,-1.49543,0.0,0.0
4763,1190.5,72.2137,76.1349,141.697,107.567,126.866,0.00374078,0.204738,20.7392,77.8598,-1.51493,0.0,0.0
4774,1193.25,71.5941,75.445,143.082,107.526,126.757,0.0038382,0.200632,20.747,77.8197,-1.51056,0.0,0.0
4785,1196,70.6592,74.8197,141.658,107.443,127.998,0.00388429,0.195628,20.7548,77.7497,-1.60702,0.0,0.0
4796,1198.75,70.4563,74.2224,140.587,107.397,128.767,0.00403055,0.190068,20.7659,77.7096,-1.66603,0.0,0.0
4807,1201.5,70.0644,73.5564,145.102,107.308,127.744,0.00413843,0.184745,20.7756,77.6696,-1.60036,0.0,0.0
4818,1204.25,69.3736,73.1738,143.99,107.248,128.568,0.00420031,0.179683,20.7849,77.6196,-1.66456,0.0,0.0
4829,1207,68.3922,71.9083,145.453,107.166,127.237,0.00442312,0.175456,20.7932,77.6095,-1.57601,0.0,0.0
4840,1209.75,67.7915,71.2903,142.402,107.083,125.843,0.0048997,0.172545,20.7994,77.5195,-1.48202,0.0,0.0
4851,1212.5,67.4516,71.0577,143.716,106.994,127.681,0.00522913,0.171163,20.8035,77.4794,-1.62274,0.0,0.0
4862,1215.25,66.874,70.2207,142.278,106.932,126.712,0.00522552,0.170564,20.8061,77.4194,-1.55817,0.0,0.0
4873,1218,66.6251,69.6698,145.065,106.841,127.192,0.00515654,0.169824,20.8081,77.4194,-1.60069,0.0,0.0
4884,1220.75,65.5386,68.9153,144.76,106.768,125.128,0.00524918,0.16865,20.8095,77.3593,-1.45673,0.0,0.0
4895,1223.5,64.6477,67.9912,143.527,106.697,126.305,0.00528838,0.167585,20.8116,77.3393,-1.54874,0.0,0.0
4906,1226.25,64.5791,67.4356,141.464,106.661,125.897,0.00522016,0.167325,20.8122,77.2893,-1.52223,0.0,0.0
4917,1229,63.8173,66.783,148.147,106.795,125.807,0.00527366,0.166987,20.8136,77.2192,-1.50405,0.0,0.0
4928,1231.75,63.8356,66.6868,142.733,106.912,126.975,0.00517807,0.166454,20.8148,77.1792,-1.57885,0.0,0.0
4939,1234.5,62.9258,65.8246,142.712,106.99,126.513,0.00502326,0.165056,20.8181,77.1191,-1.53876,0.0,0.0
4950,1237.25,63.2192,65.3031,144.129,107.057,126.513,0.00501637,0.164575,20.8197,77.0791,-1.533,0.0,0.0
4961,1240,62.699,65.413,144.831,107.109,125.834,0.00510327,0.16449,20.8201,77.059,-1.47912,0.0,0.0
4972,1242.75,62.3014,64.9262,145.18,107.141,125.789,0.00516203,0.163963,20.8192,77.009,-1.47309,0.0,0.0
4983,1245.5,62.2738,64.2746,146.38,107.128,123.362,0.00523894,0.163536,20.8185,76.9489,-1.29537,0.0,0.0
4994,1248.25,61.3429,63.9786,142.3125,107.111,125.535,0.00515579,0.163065,20.8183,76.9389,-1.45711,0.0,0.0
5005,1251,61.2189,63.5832,144.756,107.082,126.269,0.00506331,0.163547,20.8182,76.8889,-1.51305,0.0,0.0
5016,1253.75,60.9658,63.555,145.776,107.017,125.209,0.00506139,0.163872,20.8178,76.8589,-1.44131,0.0,0.0
5027,1256.5,61.1208,63.3515,144.851,106.94,126.115,0.00530512,0.163809,20.8175,76.7988,-1.51407,0.0,0.0
5038,1259.25,60.6572,62.7722,143.235,106.818,126.187,0.00558774,0.163688,20.818,76.7488,-1.52977,0.0,0.0
5049,1262,60.5461,62.6038,148.767,106.686,125.617,0.00568187,0.16289,20.8191,76.6987,-1.49961,0.0,0.0
5060,1264.75,60.0421,62.4809,144.711,106.557,125.508,0.00555448,0.162164,20.8196,76.6687,-1.50276,0.0,0.0
5071,1267.5,59.8833,61.7431,145.224,106.443,125.164,0.00542418,0.161841,20.8198,76.6287,-1.48736,0.0,0.0
5082,1270.25,59.6106,61.6234,142.148,106.307,125.916,0.00544575,0.161813,20.8198,76.6086,-1.55407,0.0,0.0
5093,1273,59.6347,61.2448,146.763,106.315,125.934,0.00566629,0.162015,20.8199,76.5486,-1.55468,0.0,0.0
5104,1275.75,59.6494,61.1243,145.755,106.369,123.209,0.00573582,0.162418,20.8199,76.5186,-1.34914,0.0,0.0
5115,1278.5,58.7135,60.8418,145.482,106.411,125.888,0.00567393,0.162054,20.8199,76.4785,-1.54311,0.0,0.0
5126,1281.25,59.3832,60.9112,145.551,106.488,124.458,0.00566605,0.161816,20.8203,76.4385,-1.43155,0.0,0.0
5137,1284,58.9001,60.6534,144.639,106.576,124.865,0.00554831,0.162068,20.8203,76.3884,-1.45397,0.0,0.0
5148,1286.75,59.0202,60.5278,143.622,106.656,126.368,0.00555122,0.163004,20.8192,76.3384,-1.55691,0.0,0.0
5159,1289.5,57.9223,59.8101,145.129,106.744,124.757,0.00573696,0.162663,20.8183,76.3084,-1.43148,0.0,0.0
5170,1292.25,58.2676,59.8934,148.59,106.835,124.539,0.00574261,0.161817,20.8196,76.2783,-1.40769,0.0,0.0
5181,1295,58.5032,60.1082,144.763,106.914,125.427,0.00562668,0.161187,20.8208,76.2383,-1.46605,0.0,0.0
5192,1297.75,57.7034,59.8282,147.921,106.958,125.68,0.0057351,0.160972,20.822,76.2083,-1.48081,0.0,0.0
5203,1300.5,58.2803,59.4353,145.567,107.004,124.195,0.00586668,0.161455,20.8216,76.1282,-1.36775,0.0,0.0
5214,1303.25,57.5257,59.0946,147.756,107.03,126.196,0.00586837,0.161773,20.8207,76.0682,-1.51222,0.0,0.0
5225,1306,57.8623,59.2251,145.614,107.049,124.087,0.00582311,0.161379,20.822,76.0782,-1.35586,0.0,0.0
5236,1308.75,57.527,58.8841,143.611,107.052,125.68,0.00572119,0.161423,20.8224,76.0281,-1.47274,0.0,0.0
5247,1311.5,57.3965,59.07,142.369,107.028,124.775,0.0057157,0.161954,20.8232,76.0281,-1.40842,0.0,0.0
5258,1314.25,56.8477,58.4598,143.631,107.022,124.367,0.00583555,0.162211,20.8241,75.9881,-1.37892,0.0,0.0
5269,1317,57.061,59.1129,144.467,107.012,125.336,0.00603254,0.162134,20.8244,75.948,-1.45105,0.0,0.0
5280,1319.75,56.9629,58.7176,144.456,107.022,127.264,0.00619565,0.16145,20.8245,75.898,-1.59032,0.0,0.0
5291,1322.5,57.3816,58.8388,152.776,107.007,125.218,0.00613285,0.160192,20.826,75.858,-1.44287,0.0,0.0
5302,1325.25,57.2822,58.3024,146.663,106.976,126.622,0.00583826,0.1591,20.8282,75.7979,-1.54783,0.0,0.0
5313,1328,56.7079,58.5849,143.164,106.959,126.513,0.00554124,0.158916,20.8298,75.7979,-1.54134,0.0,0.0
5324,1330.75,57.128,58.7384,143.838,106.976,124.476,,0.158245,,75.7779,-1.39086,0.0,0.0
5335,1333.5,56.8506,58.1168,143.167,106.965,125.273,,,,75.7379,-1.4504,0.0,0.0
5346,1336.25,56.9034,58.4507,145.582,106.966,126.16,,,,75.6678,-1.51508,0.0,0.0
5357,1339,56.7433,57.9669,146.704,106.963,125.074,,,,75.5877,-1.43594,0.0,0.0