File: 01_Data/Composite_Deck_Board/Cone/Composite_Deck_Board_Cone_HF50Scan_221209_R1.csv
Names,Time,Stack TC,Smoke TC,Exh Press,Smoke Comp,Smoke Meas,CO Meter,CO2 Meter,O2 Meter,Sample Mass,Ext Coeff,Start Test,Flame Verif
Chan Gain,,500,500,1,1,1,1,1,1,1,1,1.0,1.0
Offset,,0,0,0.136389,0,0,0,0,0,0,0,0.0,0.0
Gain,,1,1,25.011,14.2696,296.664,1,1,1,1.0009,1.04656,1.0,1.0
Units,sec,C,C,Pa,%,%,%,%,%,g,/m,,
Baseline,,27.0873,28.5797,158.799,106.111,108.333,0.00102869,0.069699,20.9437,-443.608,-0.190176,,
15,3.5,26.6106,28.5371,162.441,105.58,107.736,0.000932997,0.0748838,20.9372,200.69,-0.185603,0.0,0.0
30,7.25,26.6827,28.0382,159.109,105.864,108.841,0.000701716,0.0727932,20.94,200.66,-0.254587,0.0,0.0
45,11,26.6709,28.1153,154.977,106.146,109.728,0.000793678,0.0708227,20.9416,200.65,-0.304643,0.0,0.0
60,14.75,26.8455,28.3228,154.128,106.422,109.873,0.00106409,0.0710566,20.9418,200.64,-0.292982,0.0,0.0
75,18.5,26.7486,28.4882,156.15,106.678,107.374,0.00212369,0.0712135,20.9402,200.6,-0.0596907,0.0,0.0
90,22.25,26.7124,28.7742,155.793,106.886,104.857,0.0039675,0.0698054,20.9371,200.56,0.175955,0.0,0.0
105,26,27.1317,28.2576,154.983,107.045,111.693,0.00448171,0.0844061,20.919,200.46,-0.390148,0.0,1.0
120,29.75,27.9474,29.0754,150.485,107.111,115.088,0.00377244,0.141771,20.8487,200.329,-0.659364,0.0,1.0
135,33.5,30.0384,30.2969,131.646,107.065,118.953,0.0047629,0.332023,20.5509,199.969,-0.966663,0.0,1.0
150,37.25,35.4368,34.7605,119.369,106.963,124.105,0.00764575,0.632683,20.1109,199.479,-1.36464,0.0,0.0
165,41,44.1312,43.4436,105.542,106.808,122.204,0.0112713,0.940834,19.5557,198.768,-1.23619,0.0,0.0
180,44.75,54.49,53.6317,110.753,106.629,121.633,0.0152008,1.23877,19.1279,197.977,-1.2086,0.0,0.0
195,48.5,66.4065,65.4495,93.9048,106.429,122.629,0.017737,1.4486,18.7926,197.197,-1.30072,0.0,0.0
210,52.25,77.1429,77.4201,108.144,106.249,126.368,0.0186114,1.54039,18.6602,196.316,-1.59202,0.0,0.0
225,56,85.9069,87.8196,109.74,106.293,126.097,0.0186368,1.54985,18.6427,195.565,-1.56843,0.0,0.0
240,59.75,92.749,97.3014,105.749,106.55,123.037,0.0174411,1.48301,18.7576,194.755,-1.32073,0.0,0.0
255,63.5,98.5833,104.421,109.076,106.705,127.391,0.0159466,1.36961,18.936,193.994,-1.62673,0.0,0.0
270,67.25,102.074,108.899,116.844,106.744,123.571,0.0144591,1.25365,19.1234,193.283,-1.34382,0.0,0.0
285,71,104.189,112.29,109.724,106.683,125.372,0.013002,1.14572,19.3102,192.583,-1.48199,0.0,0.0
300,74.75,105.386,114.953,121.924,106.537,121.054,0.0116225,1.02579,19.475,191.922,-1.17275,0.0,0.0
315,78.5,105.003,115.302,118.952,106.276,117.704,0.0106231,0.939899,19.6198,191.381,-0.937603,0.0,0.0
330,82.25,105.015,116.155,115.097,105.935,122.629,0.00980181,0.871256,19.7399,190.751,-1.34342,0.0,0.0
345,86,104.385,116.315,122.242,105.831,124.775,0.00902937,0.817774,19.8225,190.24,-1.51168,0.0,0.0
360,89.75,103.185,116.016,124.267,105.91,123.245,0.00871485,0.77488,19.8862,189.7,-1.39154,0.0,0.0
375,93.5,102.13,115.116,125.347,106.007,122.339,0.00868597,0.740989,19.9419,189.18,-1.31548,0.0,0.0
390,97.25,101.055,114.178,127.836,106.125,119.261,0.00837223,0.7151,19.9808,188.709,-1.07136,0.0,0.0
405,101,100.045,113.526,132.089,106.217,119.967,0.00818229,0.696136,20.0076,188.229,-1.11754,0.0,0.0
420,104.75,99.5971,112.999,122.46,106.298,120.809,0.00788009,0.677641,20.0385,187.738,-1.17478,0.0,0.0
435,108.5,97.5766,111.709,131.869,106.35,121.688,0.00765681,0.6558,20.0699,187.288,-1.2368,0.0,0.0
450,112.25,97.2701,111.144,135.082,106.366,120.067,0.00759235,0.641595,20.0912,186.797,-1.11233,0.0,0.0
465,116,95.982,110.383,130.208,106.35,121.706,0.00752154,0.626568,20.1163,186.337,-1.23817,0.0,0.0
480,119.75,95.5418,109.003,130.024,106.325,122.412,0.0074829,0.612273,20.1348,185.897,-1.29346,0.0,0.0
495,123.5,93.9763,107.845,130.747,106.303,119.949,0.00774992,0.602342,20.1528,185.456,-1.10874,0.0,0.0
510,127.25,93.5348,106.98,132.812,106.261,123.48,0.00744786,0.585711,20.1769,185.036,-1.37872,0.0,0.0
525,131,92.335,105.493,126.381,106.215,124.476,0.00702073,0.57544,20.1936,184.645,-1.45642,0.0,0.0
540,134.75,91.1841,104.496,134.302,106.199,121.181,0.00675652,0.566439,20.2086,184.225,-1.21153,0.0,0.0
555,138.5,90.2516,103.519,134.04,106.204,122.801,0.00676732,0.556848,20.2236,183.825,-1.33299,0.0,0.0
570,142.25,89.9244,102.803,134.897,106.196,121.624,0.00698415,0.549454,20.2345,183.424,-1.2453,0.0,0.0
585,146,88.903,101.519,133.43,106.212,124.051,0.00665213,0.537925,20.2522,183.044,-1.42528,0.0,0.0
600,149.75,88.2103,100.738,136.858,106.245,124.956,0.0065776,0.531235,20.264,182.614,-1.48918,0.0,0.0
615,153.5,87.4183,99.7001,135.342,106.268,122.602,0.00679543,0.52321,20.2745,182.233,-1.3126,0.0,0.0
630,157.25,86.1106,99.0194,131.087,106.308,123.091,0.00659959,0.511925,20.2909,181.793,-1.34571,0.0,0.0
645,161,85.9943,97.5794,129.942,106.327,120.067,0.00639977,0.511311,20.2939,181.453,-1.11568,0.0,0.0
660,164.75,85.2347,97.132,132.861,106.351,122.059,0.00645729,0.508475,20.2964,181.102,-1.26469,0.0,0.0
675,168.5,84.0109,96.0195,134.529,106.361,125.001,0.00649686,0.505914,20.3025,180.712,-1.48246,0.0,0.0
690,172.25,83.5622,95.075,133.033,106.36,123.688,0.00624295,0.498538,20.3133,180.322,-1.38565,0.0,0.0
705,176,82.9649,94.072,132.939,106.332,123.046,0.00615322,0.495246,20.318,180.021,-1.34023,0.0,0.0
720,179.75,83.216,94.1375,135.858,106.28,123.534,0.00629553,0.496092,20.3179,179.581,-1.38111,0.0,0.0
735,183.5,82.5181,93.0073,132.233,106.198,123.372,0.00634191,0.495919,20.3183,179.201,-1.3761,0.0,0.0
750,187.25,82.3806,92.5162,132.92,106.133,122.52,0.00667909,0.491776,20.3233,178.8,-1.31816,0.0,0.0
765,191,82.0597,91.8648,136.125,106.061,123.878,0.00669602,0.490755,20.3264,178.47,-1.42558,0.0,0.0
780,194.75,81.4438,91.293,130.297,105.973,122.186,0.00660474,0.485836,20.3339,178.13,-1.3069,0.0,0.0
795,198.5,81.197,90.7248,139.684,105.877,118.492,0.00634985,0.485149,20.3359,177.769,-1.03339,0.0,0.0
810,202.25,81.1827,90.6429,136.093,105.816,123.815,0.00613152,0.48048,20.3412,177.369,-1.44209,0.0,0.0
825,206,80.5351,89.9379,134.374,106.099,120.384,0.0062898,0.480738,20.3408,176.959,-1.15956,0.0,0.0
840,209.75,80.3425,89.7567,133.592,106.406,121.316,0.00614878,0.48055,20.3403,176.588,-1.20387,0.0,0.0
855,213.5,80.0992,89.4656,132.258,106.633,122.05,0.00599305,0.477954,20.3414,176.228,-1.23964,0.0,0.0
870,217.25,79.7626,88.7666,135.913,106.743,121.823,0.00589478,0.477627,20.3436,175.858,-1.21312,0.0,0.0
885,221,79.8399,88.6898,132.666,106.716,123.19,0.00602819,0.473401,20.3515,175.557,-1.31789,0.0,0.0
900,224.75,79.4147,88.3769,140.08,106.543,121.09,0.00607549,0.468696,20.3562,175.157,-1.17497,0.0,0.0
915,228.5,79.0407,87.6305,133.193,106.219,125.517,0.00606754,0.471663,20.3538,174.817,-1.53258,0.0,0.0
930,232.25,79.221,87.6099,135.884,106.322,121.162,0.00626284,0.469545,20.3554,174.436,-1.19947,0.0,0.0
945,236,79.3867,87.3012,130.479,106.511,124.032,0.006563,0.467653,20.3573,174.076,-1.39808,0.0,0.0
960,239.75,78.6322,86.8647,130.896,106.746,119.089,0.00657652,0.4671,20.3581,173.706,-1.00451,0.0,0.0
975,243.5,78.4101,86.4543,134.476,106.939,125.997,0.00634534,0.467982,20.3594,173.335,-1.50557,0.0,0.0
990,247.25,78.2997,86.1703,140.595,107.083,123.842,0.00627744,0.465232,20.3619,172.995,-1.33489,0.0,0.0
1005,251,78.6732,86.2389,135.137,107.098,125.925,0.0061098,0.461783,20.3657,172.625,-1.48669,0.0,0.0
1020,254.75,78.2106,85.8589,136.693,106.969,123.109,0.0059569,0.462064,20.367,172.274,-1.29015,0.0,0.0
1035,258.5,77.9198,85.979,133.362,106.697,124.159,0.00595832,0.461903,20.3671,171.904,-1.39148,0.0,0.0
1050,262.25,77.8799,85.5484,131.225,106.315,124.051,0.00593398,0.462104,20.3669,171.554,-1.4164,0.0,0.0
1065,266,78.0252,85.4149,136.447,105.872,121.135,0.00590702,0.460496,20.3686,171.193,-1.23637,0.0,0.0
1080,269.75,77.861,85.4958,131.092,105.471,120.981,0.00589968,0.456481,20.3722,170.863,-1.25958,0.0,0.0
1095,273.5,77.8597,84.9452,132.246,105.16,121.805,0.00595929,0.457974,20.371,170.473,-1.34895,0.0,0.0
1110,277.25,77.0306,84.2035,136.087,105.023,121.742,0.00617841,0.460943,20.3686,170.112,-1.35616,0.0,0.0
1125,281,77.3276,84.3391,130.885,105.073,118.836,0.00660406,0.457063,20.3733,169.772,-1.12998,0.0,0.0
1140,284.75,77.1906,84.8802,134.012,105.303,119.397,0.0064003,0.451668,20.3798,169.432,-1.15317,0.0,0.0
1155,288.5,77.1338,84.2067,135.606,105.631,118.274,0.00640675,0.45354,20.3777,169.081,-1.03786,0.0,0.0
1170,292.25,76.6656,84.0199,136.499,105.982,119.225,0.00638099,0.453822,20.3762,168.701,-1.0809,0.0,0.0
1185,296,76.8458,83.8847,135.039,106.245,122.023,0.00618153,0.453206,20.3772,168.351,-1.27106,0.0,0.0
1200,299.75,76.7213,83.8026,135.051,106.387,117.315,0.00581532,0.451171,20.3793,167.95,-0.89764,0.0,0.0
1215,303.5,76.8031,83.5969,131.197,106.366,118.238,0.00600951,0.450462,20.3818,167.64,-0.971424,0.0,0.0
1230,307.25,76.5308,83.4843,135.67,106.221,119.641,0.0060948,0.451489,20.3808,167.3,-1.09226,0.0,0.0
1245,311,76.5665,83.3292,134.116,106.025,120.311,0.00610253,0.45219,20.3792,166.92,-1.16052,0.0,0.0
1260,314.75,76.4151,83.2554,134.29,105.818,121.099,0.00603134,0.450213,20.381,166.589,-1.23831,0.0,0.0
1275,318.5,76.4429,83.0499,131.442,106.091,119.216,0.00621327,0.449339,20.382,166.229,-1.07078,0.0,0.0
1290,322.25,76.6698,83.2696,132.491,106.571,123.408,0.00622839,0.449857,20.3828,165.869,-1.34663,0.0,0.0
1305,326,76.5819,83.2095,133.762,106.73,119.297,0.0062599,0.446603,20.3862,165.538,-1.0219,0.0,0.0
1320,329.75,76.3943,83.0761,137.781,106.528,120.275,0.00601422,0.446584,20.388,165.198,-1.11423,0.0,0.0
1335,333.5,76.0801,82.5606,137.052,106.244,122.448,0.00607223,0.448649,20.3856,164.828,-1.30317,0.0,0.0
1350,337.25,76.6457,82.9579,133.645,106.492,122.24,0.00639971,0.446689,20.3879,164.487,-1.26612,0.0,0.0
1365,341,75.8153,81.9701,133.987,106.805,119.687,0.00626652,0.445107,20.3914,164.177,-1.0454,0.0,0.0
1380,344.75,76.4852,82.7737,133.653,107.041,120.565,0.00637665,0.440779,20.3959,163.757,-1.09225,0.0,0.0
1395,348.5,76.4819,82.5019,135.1,107.1,120.71,0.00630145,0.44578,20.3922,163.416,-1.0982,0.0,0.0
1410,352.25,76.2367,82.7909,134.081,106.946,120.628,0.00618283,0.445112,20.3907,163.056,-1.10522,0.0,0.0
1425,356,76.0156,82.6971,136.58,106.591,121.968,0.00615651,0.446901,20.39,162.676,-1.23711,0.0,0.0
1440,359.75,76.2249,82.7363,134.631,106.092,119.044,0.0062028,0.446739,20.3884,162.325,-1.05748,0.0,0.0
1455,363.5,76.0798,82.4355,132.114,105.566,118.935,0.00667307,0.445635,20.3889,161.975,-1.0947,0.0,0.0
1470,367.25,76.3677,82.6694,132.556,105.181,119.551,0.00636395,0.445092,20.3901,161.655,-1.17567,0.0,0.0
1485,371,76.1498,82.4087,134.307,105.062,119.08,0.00583723,0.446091,20.3903,161.285,-1.14983,0.0,0.0
1500,374.75,75.9075,82.2705,141.034,105.229,117.849,0.00583903,0.444319,20.3933,160.924,-1.03981,0.0,0.0
1515,378.5,76.0261,82.2557,131.661,105.592,118.32,0.00625732,0.445562,20.3925,160.574,-1.04478,0.0,0.0
1530,382.25,76.4046,82.4085,135.679,106.024,117.749,0.00637174,0.445362,20.3921,160.224,-0.96294,0.0,0.0
1545,386,76.0673,82.2161,140.424,106.333,118.437,0.0065023,0.44476,20.3926,159.893,-0.989696,0.0,0.0
1560,389.75,75.8507,82.1505,137.171,106.42,122.855,0.00647593,0.444371,20.3928,159.493,-1.31844,0.0,0.0
1575,393.5,76.0768,81.9366,130.313,106.255,120.158,0.00633562,0.445881,20.3929,159.173,-1.1288,0.0,0.0
1590,397.25,75.8333,82.1565,131.1,105.989,121.905,0.00616591,0.446733,20.3905,158.832,-1.28436,0.0,0.0
1605,401,76.2257,82.514,133.939,105.792,119.162,0.00630758,0.448223,20.3904,158.452,-1.09255,0.0,0.0
1620,404.75,76.3049,82.4964,139.021,106.389,120.601,0.00635221,0.448591,20.3896,158.132,-1.15105,0.0,0.0
1635,408.5,76.5154,82.3842,129.82,106.699,121.805,0.0061729,0.447038,20.3909,157.751,-1.21561,0.0,0.0
1650,412.25,76.5732,82.8883,130.829,106.511,123.661,0.00576803,0.447419,20.3911,157.371,-1.37057,0.0,0.0
1665,416,76.6677,82.4883,136.137,106.282,119.632,0.00572746,0.446723,20.3912,157.031,-1.08626,0.0,0.0
1680,419.75,76.6596,82.599,133.3,106.651,122.946,0.00584786,0.447828,20.3891,156.68,-1.30528,0.0,0.0
1695,423.5,76.9918,83.1442,132.917,107.006,121.579,0.00602832,0.448809,20.3874,156.3,-1.17216,0.0,0.0
1710,427.25,77.1954,82.893,133.378,107.101,124.603,0.00612927,0.44971,20.3866,155.95,-1.38956,0.0,0.0
1725,431,76.9844,82.9989,131.841,106.834,123.761,0.00631064,0.449387,20.3862,155.629,-1.35019,0.0,0.0
1740,434.75,76.826,82.9637,132.735,106.282,120.447,0.0062158,0.449632,20.3849,155.219,-1.14861,0.0,0.0
1755,438.5,76.8648,82.8866,134.381,105.625,121.289,0.00585376,0.450394,20.3834,154.909,-1.2695,0.0,0.0
1770,442.25,76.8323,82.8733,132.281,105.175,120.755,0.00564938,0.452022,20.3804,154.518,-1.26816,0.0,0.0
1785,446,76.9915,82.8081,136.653,105.143,122.403,0.00571056,0.453675,20.3815,154.158,-1.3954,0.0,0.0
1800,449.75,77.3305,83.5772,131.307,105.509,119.904,0.00575855,0.453508,20.3818,153.798,-1.17409,0.0,0.0
1815,453.5,77.0924,83.1877,133.549,106.033,119.678,0.00613236,0.454221,20.3806,153.458,-1.11128,0.0,0.0
1830,457.25,77.2875,83.6618,137.165,106.392,120.158,0.00636941,0.454158,20.3812,153.107,-1.11703,0.0,0.0
1845,461,77.2575,83.3265,133.449,106.395,122.801,0.00634435,0.453637,20.3818,152.737,-1.31656,0.0,0.0
1860,464.75,77.6695,83.4291,133.523,106.074,119.125,0.00611415,0.454713,20.3806,152.387,-1.06531,0.0,0.0
1875,468.5,77.4674,83.5938,133.965,105.786,119.995,0.00592173,0.455301,20.3794,151.986,-1.15699,0.0,0.0
1890,472.25,77.7864,83.6123,135.857,106.274,122.294,0.00569945,0.456027,20.379,151.616,-1.28899,0.0,0.0
1905,476,77.0754,82.9785,132.842,106.659,123.091,0.0056095,0.455108,20.379,151.246,-1.31537,0.0,0.0
1920,479.75,77.5635,83.7062,134.895,106.525,122.702,0.00573234,0.456635,20.379,150.905,-1.29788,0.0,0.0
1935,483.5,77.5852,83.7176,136.898,106.251,121.651,0.00562927,0.456873,20.3771,150.565,-1.24264,0.0,0.0
1950,487.25,77.8568,83.6386,130.964,106.561,122.747,0.00554914,0.457423,20.3767,150.195,-1.29819,0.0,0.0
1965,491,78.2224,84.0589,136.996,106.897,119.026,0.00559952,0.458018,20.3782,149.824,-0.986637,0.0,0.0
1980,494.75,78.0484,84.193,134.89,107.09,122.484,0.00564691,0.456044,20.3805,149.464,-1.23306,0.0,0.0
1995,498.5,78.2692,84.4976,138.06,107.044,119.569,0.00595371,0.456201,20.3799,149.104,-1.01588,0.0,0.0
2010,502.25,77.9319,83.9956,137.437,106.795,120.981,0.00633915,0.457859,20.3771,148.723,-1.145,0.0,0.0
2025,506,77.8901,84.1857,136.982,106.389,122.629,0.00631666,0.459086,20.3746,148.333,-1.30418,0.0,0.0
2040,509.75,77.8661,84.0061,135.863,105.941,120.665,0.00623191,0.456313,20.3774,148.013,-1.19466,0.0,0.0
2055,513.5,77.7025,84.1301,137.049,105.549,120.483,0.00612799,0.456856,20.3781,147.622,-1.2149,0.0,0.0
2070,517.25,77.9132,83.7775,135.606,105.257,121.479,0.00582458,0.460284,20.3741,147.252,-1.31592,0.0,0.0
2085,521,77.7402,83.8098,134.327,105.124,119.307,0.005668,0.462329,20.3712,146.872,-1.16182,0.0,0.0
2100,524.75,77.9992,84.0572,129.442,105.141,121.651,0.00573457,0.462971,20.3702,146.491,-1.33902,0.0,0.0
2115,528.5,78.0836,84.1357,140.17,105.273,122.222,0.00583363,0.463315,20.3715,146.151,-1.37041,0.0,0.0
2130,532.25,78.674,84.6268,136.086,105.516,120.493,0.00605549,0.462589,20.3719,145.751,-1.21847,0.0,0.0
2145,536,78.4246,84.2158,137.273,105.775,118.727,0.00613072,0.462812,20.3709,145.35,-1.06049,0.0,0.0
2160,539.75,78.2282,84.1557,134.026,106.002,121.606,0.00584158,0.464582,20.3684,145,-1.26074,0.0,0.0
2175,543.5,78.6435,84.6771,130.548,106.2,123.1,0.00597609,0.465447,20.3668,144.62,-1.35571,0.0,0.0
2190,547.25,78.5215,84.7532,133.101,106.33,119.687,0.0061085,0.465807,20.3656,144.289,-1.08629,0.0,0.0
2205,551,78.4496,84.6184,133.549,106.431,120.592,0.00599407,0.466291,20.3645,143.919,-1.14676,0.0,0.0
2220,554.75,78.9973,84.7611,133.08,106.46,121.316,0.00575444,0.4678,20.3605,143.539,-1.19925,0.0,0.0
2235,558.5,79.3031,84.9674,133.242,106.402,123.48,0.00562168,0.471291,20.3557,143.138,-1.3665,0.0,0.0
2250,562.25,79.0375,84.9335,131.478,106.323,122.367,0.0056867,0.472196,20.3532,142.808,-1.29018,0.0,0.0
2265,566,78.8805,85.0641,133.719,106.208,119.297,0.00605222,0.473717,20.3501,142.388,-1.06692,0.0,0.0
2280,569.75,79.1357,84.7851,131.16,106.098,118.763,0.00611932,0.47551,20.3479,142.047,-1.03525,0.0,0.0
2295,573.5,79.3986,85.1878,129.563,105.979,121.561,0.00614364,0.475729,20.3474,141.677,-1.25932,0.0,0.0
2310,577.25,79.2208,84.7455,131.859,105.891,123.1,0.00619073,0.476416,20.3464,141.277,-1.38244,0.0,0.0
2325,581,79.1583,85.4965,136.704,105.805,120.972,0.0062168,0.478581,20.3436,140.906,-1.22983,0.0,0.0
2340,584.75,79.671,85.4841,134.845,105.752,119.705,0.00613724,0.480892,20.3419,140.536,-1.13771,0.0,0.0
2355,588.5,80.0812,86.2045,132.599,105.832,122.711,0.00602553,0.481674,20.3403,140.196,-1.35846,0.0,0.0
2370,592.25,79.8417,85.414,133.123,105.992,121.38,0.00607511,0.481199,20.3413,139.765,-1.24446,0.0,0.0
2385,596,79.7448,86.2231,131.888,106.197,122.548,0.00598287,0.48018,20.3406,139.395,-1.3147,0.0,0.0
2400,599.75,80.0062,85.7696,133.132,106.321,119.795,0.00617632,0.48055,20.34,139.045,-1.09541,0.0,0.0
2415,603.5,80.4925,86.1669,133.959,106.445,122.774,0.00619924,0.480475,20.3399,138.684,-1.31017,0.0,0.0
2430,607.25,80.2562,86.2196,130.608,106.552,121.543,0.00603965,0.478862,20.3428,138.274,-1.2084,0.0,0.0
2445,611,79.9365,85.5031,129.825,106.61,120.031,0.00624961,0.477825,20.3423,137.894,-1.08854,0.0,0.0
2460,614.75,80.4392,85.9651,126.856,106.627,122.946,0.00611614,0.47985,20.3402,137.483,-1.30734,0.0,0.0
2475,618.5,80.0465,86.0332,127.379,106.637,124.965,0.00615015,0.479696,20.3396,137.133,-1.45604,0.0,0.0
2490,622.25,80.6043,86.3081,130.839,106.606,120.366,0.00620571,0.478023,20.3411,136.773,-1.11442,0.0,0.0
2505,626,80.1435,85.7029,127.872,106.575,121.027,0.00610545,0.479111,20.3399,136.392,-1.16743,0.0,0.0
2520,629.75,80.0343,86.065,131.605,106.463,121.516,0.00606916,0.479933,20.3386,135.982,-1.21405,0.0,0.0
2535,633.5,80.5063,86.8828,127.945,106.318,123.181,0.00597667,0.480329,20.3383,135.612,-1.35152,0.0,0.0
2550,637.25,80.637,86.736,135.238,106.163,121.597,0.00591261,0.479796,20.3394,135.221,-1.24611,0.0,0.0
2565,641,80.2693,86.2518,130.762,106.178,122.647,0.00600614,0.476966,20.3419,134.871,-1.32374,0.0,0.0
2580,644.75,80.5594,86.2133,137.678,106.256,123.127,0.00623647,0.478862,20.3392,134.521,-1.35285,0.0,0.0
2595,648.5,80.4429,86.3875,131.569,106.335,124.15,0.0061125,0.481981,20.3348,134.11,-1.42204,0.0,0.0
2610,652.25,80.6188,87.1145,134.7,106.348,122.874,0.00598278,0.480205,20.335,133.76,-1.32603,0.0,0.0
2625,656,80.9002,86.0801,132.93,106.275,121.597,0.00630545,0.479845,20.3371,133.38,-1.23644,0.0,0.0
2640,659.75,80.6531,86.6376,130.479,106.338,119.008,0.00640896,0.479368,20.3365,133.009,-1.03339,0.0,0.0
2655,663.5,80.2607,86.3783,136.343,106.421,120.167,0.006308,0.481271,20.3353,132.629,-1.11521,0.0,0.0
2670,667.25,80.6332,86.8629,130.776,106.472,120.402,0.00604351,0.481695,20.3351,132.258,-1.12878,0.0,0.0
2685,671,80.9443,86.5707,133.24,106.423,121.697,0.00596844,0.482822,20.3323,131.858,-1.23113,0.0,0.0
2700,674.75,80.8414,87.0053,133.997,106.377,121.697,0.00593206,0.483511,20.3301,131.508,-1.23512,0.0,0.0
2715,678.5,80.631,86.6948,131.774,106.452,122.846,0.00632882,0.484129,20.3297,131.127,-1.31498,0.0,0.0
2730,682.25,80.9541,86.6026,128.935,106.483,122.928,0.00637876,0.48383,20.33,130.757,-1.31844,0.0,0.0
2745,686,80.9556,86.9581,132.311,106.5,120.447,0.00641698,0.483588,20.3315,130.357,-1.12975,0.0,0.0
2760,689.75,80.6667,86.8218,135.551,106.524,120.692,0.0065303,0.482556,20.3308,130.027,-1.1463,0.0,0.0
2775,693.5,80.864,86.733,131.47,106.513,122.077,0.00644099,0.482906,20.3293,129.626,-1.25204,0.0,0.0
2790,697.25,80.9576,86.6137,134.923,106.519,119.895,0.00633553,0.484657,20.3279,129.256,-1.08599,0.0,0.0
2805,701,81.4286,86.9736,135.541,106.526,121.389,0.00633885,0.485515,20.3259,128.885,-1.19906,0.0,0.0
2820,704.75,81.2757,87.3241,128.516,106.532,121.986,0.00612863,0.485361,20.3251,128.545,-1.24358,0.0,0.0
2835,708.5,81.0714,87.1416,128.43,106.53,123.752,0.00582746,0.483747,20.3263,128.135,-1.37571,0.0,0.0
2850,712.25,81.068,87.0971,130.105,106.533,119.714,0.00585955,0.482591,20.328,127.784,-1.07087,0.0,0.0
2865,716,81.2819,87.3774,136.805,106.531,122.91,0.00615826,0.484337,20.3241,127.404,-1.31292,0.0,0.0
2880,719.75,81.4223,87.5342,131.642,106.524,123.869,0.00624769,0.484523,20.3247,127.054,-1.38489,0.0,0.0
2895,723.5,81.4707,87.3226,131.105,106.507,121.407,0.00634962,0.485751,20.3244,126.674,-1.20208,0.0,0.0
2910,727.25,81.2116,87.6097,130.537,106.477,123.218,0.00618932,0.485179,20.3225,126.293,-1.34058,0.0,0.0
2925,731,81.3691,87.4897,125.697,106.443,121.796,0.00597892,0.485711,20.3219,125.933,-1.23695,0.0,0.0
2940,734.75,81.5546,87.4844,134.329,106.426,121.534,0.00616539,0.485476,20.3221,125.5625,-1.21861,0.0,0.0
2955,738.5,81.6404,87.6541,128.357,106.411,120.782,0.00619429,0.485557,20.3211,125.202,-1.16298,0.0,0.0
2970,742.25,81.5758,87.4395,133.202,106.392,119.198,0.00621167,0.486801,20.3191,124.792,-1.04338,0.0,0.0
2985,746,81.5574,87.8075,132.085,106.38,117.894,0.0062798,0.487542,20.3175,124.421,-0.943471,0.0,0.0
3000,749.75,81.7673,87.7724,132.481,106.348,121.144,0.00629405,0.486469,20.3161,124.041,-1.19588,0.0,0.0
3015,753.5,81.8649,87.6468,131.63,106.328,119.986,0.00618092,0.488482,20.3126,123.681,-1.10933,0.0,0.0
3030,757.25,81.7597,87.4562,130.125,106.307,120.909,0.00622198,0.490334,20.3104,123.351,-1.18156,0.0,0.0
3045,761,81.813,87.9179,136.171,106.281,119.542,0.00597299,0.491478,20.3096,122.96,-1.07946,0.0,0.0
3060,764.75,82.0842,87.8798,132.082,106.245,124.06,0.00590212,0.492764,20.3072,122.59,-1.42309,0.0,0.0
3075,768.5,82.2065,88.099,129.341,106.213,122.004,0.00609735,0.493667,20.3057,122.22,-1.27252,0.0,0.0
3090,772.25,82.2081,87.9668,136.892,106.192,120.936,0.00624432,0.48933,20.312,121.879,-1.19359,0.0,0.0
3105,776,82.2256,88.4561,134.33,106.174,121.479,0.0061294,0.486317,20.3182,121.519,-1.23624,0.0,0.0
3120,779.75,82.7363,88.7412,135.232,106.214,119.08,0.0064007,0.482588,20.3233,121.149,-1.04973,0.0,0.0
3135,783.5,82.4425,87.7976,129.687,106.254,121.063,0.00608853,0.478079,20.3312,120.788,-1.19786,0.0,0.0
3150,787.25,82.1873,88.3385,128.819,106.285,118.89,0.00566958,0.474144,20.3354,120.428,-1.02889,0.0,0.0
3165,791,81.8198,87.7195,133.084,106.35,119.488,0.0056159,0.469321,20.3431,120.068,-1.06927,0.0,0.0
3180,794.75,82.0089,87.8953,134.041,106.432,123,0.00556017,0.466122,20.3487,119.727,-1.32821,0.0,0.0
3195,798.5,82.0365,87.8039,135.23,106.494,121.208,0.00555274,0.463601,20.3531,119.387,-1.18813,0.0,0.0
3210,802.25,81.7533,87.5364,131.524,106.552,123.824,0.00564754,0.461165,20.3576,119.017,-1.37913,0.0,0.0
3225,806,81.3262,86.9194,131.472,106.585,119.841,0.00587346,0.458719,20.3615,118.686,-1.07608,0.0,0.0
3240,809.75,81.5426,87.3004,136.42,106.62,119.352,0.00583855,0.455438,20.3659,118.356,-1.03556,0.0,0.0
3255,813.5,81.4268,86.9568,131.404,106.657,122.919,0.0054356,0.45488,20.3663,117.976,-1.30272,0.0,0.0
3270,817.25,81.0719,87.1113,132.498,106.668,123.553,0.00545773,0.454345,20.3656,117.645,-1.349,0.0,0.0
3285,821,81.0433,87.0944,129.647,106.665,120.257,0.00560016,0.452313,20.3678,117.315,-1.10111,0.0,0.0
3300,824.75,81.1264,87.016,128.831,106.641,120.746,0.00574983,0.451197,20.3686,117.005,-1.14042,0.0,0.0
3315,828.5,80.7872,86.4899,137.149,106.614,120.728,0.00536294,0.448764,20.3717,116.675,-1.14133,0.0,0.0
3330,832.25,80.4491,86.351,136.798,106.582,119.071,0.00526851,0.447728,20.3753,116.294,-1.01724,0.0,0.0
3345,836,80.7733,86.586,136.314,106.545,119.497,0.00492586,0.44559,20.3788,115.974,-1.05314,0.0,0.0
3360,839.75,79.9935,86.005,135.229,106.497,122.195,0.00513754,0.446466,20.3783,115.604,-1.26231,0.0,0.0
3375,843.5,80.1282,85.9651,133.631,106.421,117.505,0.00563388,0.447222,20.3762,115.273,-0.909537,0.0,0.0
3390,847.25,80.1211,85.5717,134.47,106.353,120.411,0.00564114,0.449167,20.3746,114.953,-1.13969,0.0,0.0
3405,851,79.9587,85.7588,130.697,106.28,119.804,0.00582705,0.449731,20.3714,114.613,-1.09968,0.0,0.0
3420,854.75,79.8942,85.6281,134.497,106.19,121.778,0.00569977,0.449675,20.3706,114.272,-1.25747,0.0,0.0
3435,858.5,79.8116,85.6556,132.538,106.073,119.062,0.00549006,0.449709,20.3695,113.942,-1.06046,0.0,0.0
3450,862.25,79.9196,85.5714,129.435,105.942,118.863,0.00540401,0.450731,20.3696,113.602,-1.05648,0.0,0.0
3465,866,79.9743,85.4733,137.418,105.848,118.066,0.00578883,0.451332,20.3682,113.241,-1.0029,0.0,0.0
3480,869.75,79.5546,85.397,131.068,105.78,118.139,0.00627654,0.449075,20.3695,112.901,-1.01438,0.0,0.0
3495,873.5,79.6301,85.0085,132.959,105.813,121.805,0.00618171,0.449834,20.37,112.591,-1.2921,0.0,0.0
3510,877.25,80.0069,85.5441,134.971,105.844,118.039,0.00592434,0.4491,20.3703,112.261,-1.00112,0.0,0.0
3525,881,79.949,85.0589,135.927,105.884,119.406,0.00559827,0.447148,20.3719,111.93,-1.10336,0.0,0.0
3540,884.75,79.9081,85.6537,133.379,105.941,118.157,0.00567938,0.444823,20.3755,111.62,-1.00181,0.0,0.0
3555,888.5,79.5958,85.2809,130.652,105.994,118.238,0.00585473,0.443326,20.3785,111.26,-1.00362,0.0,0.0
3570,892.25,79.6667,84.9085,134.386,106.035,122.249,0.00578102,0.442517,20.3793,110.949,-1.30631,0.0,0.0
3585,896,79.8485,84.9788,132.863,106.094,117.903,0.00584342,0.442087,20.3794,110.629,-0.9689,0.0,0.0
3600,899.75,79.1968,84.5734,130.271,106.159,118.664,0.00563129,0.441369,20.3795,110.289,-1.02231,0.0,0.0
3615,903.5,79.1887,84.9189,131.162,106.218,117.776,0.00557542,0.43912,20.3814,110.009,-0.948256,0.0,0.0
3630,907.25,79.274,84.5697,135.049,106.306,117.405,0.00557032,0.437697,20.3828,109.658,-0.911714,0.0,0.0
3645,911,79.1636,84.719,133.234,106.335,117.894,0.00541355,0.438399,20.3817,109.358,-0.947343,0.0,0.0
3660,914.75,79.2453,84.5497,132.613,106.384,119.243,0.0054672,0.437692,20.3825,109.038,-1.04754,0.0,0.0
3675,918.5,78.933,84.4324,133.736,106.43,120.194,0.0054954,0.436408,20.3848,108.717,-1.11649,0.0,0.0
3690,922.25,79.0412,84.3542,133.657,106.446,119.823,0.00538933,0.435932,20.3833,108.437,-1.08667,0.0,0.0
3705,926,78.9979,84.4489,134.318,106.481,119.949,0.00546557,0.435308,20.3842,108.117,-1.09341,0.0,0.0
3720,929.75,79.0283,84.1726,132.822,106.49,118.8,0.00544952,0.431456,20.3905,107.807,-1.00416,0.0,0.0
3735,933.5,78.8552,84.3869,130.597,106.48,120.257,0.00549649,0.43123,20.3918,107.456,-1.11705,0.0,0.0
3750,937.25,79.007,84.1512,138.996,106.464,120.601,0.00555934,0.430247,20.393,107.166,-1.14463,0.0,0.0
3765,941,78.6204,83.9683,136.381,106.409,118.247,0.00554657,0.428959,20.3952,106.876,-0.968407,0.0,0.0
3780,944.75,78.3261,83.7574,134.088,106.391,118.51,0.00580387,0.427295,20.3962,106.545,-0.990347,0.0,0.0
3795,948.5,78.5273,83.8149,134.622,106.321,118.184,0.00577649,0.425514,20.3995,106.245,-0.971115,0.0,0.0
3810,952.25,78.8404,83.7496,136.667,106.257,120.212,0.00554207,0.425547,20.3987,105.945,-1.13284,0.0,0.0
3825,956,78.2528,83.2188,135.335,106.16,116.898,0.00540187,0.424838,20.3978,105.665,-0.884591,0.0,0.0
3840,959.75,78.1346,83.0213,131.139,106.09,122.004,0.0055315,0.422795,20.3987,105.354,-1.28311,0.0,0.0
3855,963.5,77.6192,82.6539,137.566,106.007,119.506,0.00543068,0.421944,20.4004,105.064,-1.10037,0.0,0.0
3870,967.25,77.5415,82.4617,135.626,105.908,119.198,0.00523605,0.421267,20.4006,104.784,-1.08522,0.0,0.0
3885,971,77.3971,82.4243,136.721,105.819,120.574,0.00537956,0.419511,20.4021,104.474,-1.1983,0.0,0.0
3900,974.75,77.6356,82.8535,138.136,105.716,116.409,0.00540576,0.419148,20.4029,104.193,-0.884572,0.0,0.0
3915,978.5,77.3644,82.5528,130.567,105.63,120.284,0.00520001,0.419751,20.402,103.883,-1.19271,0.0,0.0
3930,982.25,77.5082,82.1978,135.208,105.543,117.016,0.00521408,0.421394,20.3996,103.563,-0.947347,0.0,0.0
3945,986,77.4234,82.7219,133.144,105.463,117.333,0.00532964,0.418508,20.4012,103.283,-0.979107,0.0,0.0
3960,989.75,77.027,81.9746,132.72,105.387,117.188,0.00548273,0.42049,20.4002,103.022,-0.974365,0.0,0.0
3975,993.5,76.8137,82.2087,134.37,105.302,117.469,0.00537182,0.419534,20.3997,102.672,-1.00373,0.0,0.0
3990,997.25,76.5947,81.6551,137.905,105.254,116.038,0.00522954,0.421472,20.3964,102.412,-0.895462,0.0,0.0
4005,1001,76.8767,81.811,133.208,105.206,117.967,0.00519099,0.419446,20.3968,102.132,-1.05099,0.0,0.0
4020,1004.75,76.393,81.7027,138.537,105.172,114.572,0.0051827,0.417597,20.4002,101.831,-0.78587,0.0,0.0
4035,1008.5,76.8272,82.0813,137.038,105.151,117.994,0.0050225,0.418541,20.4004,101.581,-1.05785,0.0,0.0
4050,1012.25,76.4269,81.5018,134.744,105.153,116.21,0.00509441,0.418206,20.4014,101.281,-0.917916,0.0,0.0
4065,1016,76.5925,81.6469,133.538,105.182,117.061,0.00544593,0.416649,20.404,101.011,-0.982314,0.0,0.0
4080,1019.75,76.6053,81.629,134.61,105.222,116.183,0.00556843,0.416224,20.4037,100.73,-0.909727,0.0,0.0
4095,1023.5,76.7609,81.6512,135.081,105.278,115.803,0.00547586,0.416146,20.4032,100.42,-0.874732,0.0,0.0
4110,1027.25,76.5222,81.2553,136.293,105.35,115.323,0.00551294,0.413512,20.4053,100.14,-0.830351,0.0,0.0
4125,1031,76.4428,81.3211,134.626,105.421,116.735,0.00563249,0.41359,20.4061,99.8895,-0.935876,0.0,0.0
4140,1034.75,76.6903,81.4426,132.656,105.501,114.87,0.00566555,0.41257,20.4068,99.6092,-0.781124,0.0,0.0
4155,1038.5,76.1074,80.9343,136.138,105.606,117.614,0.00561364,0.412188,20.4083,99.299,-0.988578,0.0,0.0
4170,1042.25,76.3385,81.1714,132.201,105.681,114.318,0.00527301,0.410572,20.4086,99.0688,-0.721169,0.0,0.0
4185,1046,76.4615,81.1346,137.321,105.762,117.324,0.00495604,0.411934,20.4082,98.7885,-0.952432,0.0,0.0
4200,1049.75,76.4687,81.4922,136.098,105.845,114.916,0.00506685,0.4087,20.4074,98.5183,-0.754854,0.0,0.0
4215,1053.5,76.2598,81.1864,137.399,105.944,116.672,0.00507169,0.409288,20.4071,98.248,-0.885535,0.0,0.0
4230,1057.25,76.171,80.901,137.724,106.029,115.939,0.00496047,0.407748,20.407,97.9878,-0.82022,0.0,0.0
4245,1061,75.9632,80.7709,134.922,106.102,115.468,0.00493603,0.407211,20.4072,97.7276,-0.776534,0.0,0.0
4260,1064.75,76.233,80.7547,134.655,106.173,114.988,0.00506951,0.405824,20.4089,97.4373,-0.732204,0.0,0.0
4275,1068.5,75.914,80.7055,131.677,106.232,115.586,0.00518185,0.405385,20.41,97.1871,-0.774703,0.0,0.0
4290,1072.25,75.8335,80.5487,137.511,106.304,114.952,0.00515017,0.403725,20.4129,96.9168,-0.717985,0.0,0.0
4305,1076,75.5973,80.3593,139.748,106.396,114.653,0.00512291,0.401008,20.4166,96.6866,-0.686162,0.0,0.0
4320,1079.75,75.7988,79.9419,139.098,106.485,114.78,0.0051053,0.399757,20.4177,96.4264,-0.688606,0.0,0.0
4335,1083.5,75.6018,80.4342,139.681,106.537,116.455,0.00496414,0.398696,20.4189,96.1461,-0.81717,0.0,0.0
4350,1087.25,75.5143,80.1766,136.899,106.607,117.948,0.00476219,0.397219,20.4205,95.9159,-0.928104,0.0,0.0
4365,1091,75.1631,79.9764,140.51,106.688,115.359,0.00466592,0.394598,20.4245,95.6357,-0.717392,0.0,0.0
4380,1094.75,75.145,80.2032,139.807,106.781,116.817,0.00481998,0.394379,20.4252,95.4155,-0.824609,0.0,0.0
4395,1098.5,74.6981,79.5787,137.898,106.855,119.832,0.00477641,0.393865,20.4254,95.1452,-1.05224,0.0,0.0
4410,1102.25,74.695,79.4039,136.812,106.885,116.165,0.00449096,0.393187,20.4258,94.925,-0.764295,0.0,0.0
4425,1106,74.6149,79.5776,134.16,106.932,114.282,0.00446485,0.390359,20.4273,94.6748,-0.610254,0.0,0.0
4440,1109.75,74.6587,79.9264,135.931,106.986,115.73,0.00463043,0.390913,20.4277,94.4146,-0.721252,0.0,0.0
4455,1113.5,74.559,79.196,138.493,107.024,116.255,0.00473736,0.389716,20.4285,94.1644,-0.759561,0.0,0.0
4470,1117.25,74.4913,79.1899,133.162,107.068,117.795,0.00463625,0.387266,20.4322,93.9742,-0.876528,0.0,0.0
4485,1121,74.3176,78.8416,134.641,107.085,115.866,0.0047232,0.386442,20.4334,93.6639,-0.723502,0.0,0.0
4500,1124.75,74.0606,78.8545,134.665,107.111,117.46,0.00470541,0.385931,20.4343,93.4437,-0.846725,0.0,0.0
4515,1128.5,74.2829,78.6851,137.956,107.136,115.54,0.00461851,0.382871,20.4364,93.2436,-0.693275,0.0,0.0
4530,1132.25,73.6112,78.6367,138.42,107.131,117.423,0.00475776,0.380716,20.4407,92.9733,-0.842104,0.0,0.0
4545,1136,73.9971,78.5328,136.334,107.134,117.134,0.00459886,0.379642,20.4422,92.7731,-0.819239,0.0,0.0
4560,1139.75,73.8607,78.6046,137.165,107.124,116.953,0.00434878,0.377379,20.4458,92.5429,-0.805858,0.0,0.0
4575,1143.5,73.8012,78.2709,138.904,107.111,115.631,0.0041769,0.376977,20.4468,92.3127,-0.702593,0.0,0.0
4590,1147.25,73.5713,78.1495,136.502,107.113,116.074,0.00422629,0.373629,20.4512,92.0725,-0.737597,0.0,0.0
4605,1151,73.5763,78.505,135.017,107.132,115.966,0.00402899,0.371972,20.454,91.8423,-0.727358,0.0,0.0
4620,1154.75,73.5724,78.2752,138.002,107.131,117.912,0.00385572,0.369346,20.4576,91.6421,-0.880246,0.0,0.0
4635,1158.5,73.3957,77.6776,134.459,107.121,119.116,0.00388152,0.366883,20.4612,91.4519,-0.974415,0.0,0.0
4650,1162.25,73.5143,77.852,139.247,107.108,118.066,0.0039726,0.362784,20.4665,91.2117,-0.8942,0.0,0.0
4665,1166,73.1572,77.7221,132.539,107.106,118.075,0.00389076,0.360687,20.4713,91.0516,-0.895127,0.0,0.0
4680,1169.75,72.9678,77.9507,136.179,107.08,117.179,0.00390274,0.357142,20.4771,90.8014,-0.827415,0.0,0.0
4695,1173.5,73.0839,77.4669,140.671,107.023,118.238,0.00379016,0.35297,20.4832,90.6412,-0.91492,0.0,0.0
4710,1177.25,72.9088,77.1774,136.771,106.95,118.99,0.00389335,0.349833,20.489,90.391,-0.979283,0.0,0.0
4725,1181,72.4033,77.2219,134.21,106.833,117.043,0.00369248,0.347092,20.4927,90.2709,-0.837962,0.0,0.0
4740,1184.75,72.3355,76.3842,138.253,106.694,119.678,0.00334737,0.346539,20.4944,90.0607,-1.05426,0.0,0.0
4755,1188.5,72.1313,76.3985,137.234,106.533,120.112,0.00337716,0.344267,20.4981,89.8305,-1.10141,0.0,0.0
4770,1192.25,71.9201,76.1961,141.393,106.352,118.093,0.0035258,0.338114,20.5065,89.6603,-0.961374,0.0,0.0
4785,1196,71.956,75.8434,139.942,106.16,117.595,0.00347324,0.337675,20.509,89.4401,-0.939138,0.0,0.0
4800,1199.75,71.8039,75.967,137.781,105.96,116.853,0.00354278,0.334223,20.5134,89.26,-0.898337,0.0,0.0
4815,1203.5,71.638,75.4111,133.945,105.766,118.247,0.00334164,0.331904,20.5168,89.0598,-1.02403,0.0,0.0
4830,1207.25,71.3144,75.6301,137.455,105.569,117.586,0.00338505,0.328331,20.521,88.8896,-0.989751,0.0,0.0
4845,1211,70.9835,75.374,139.639,105.384,116.989,0.00342401,0.326496,20.5257,88.7095,-0.959014,0.0,0.0
4860,1214.75,71.2959,75.7758,137.319,105.262,117.795,0.00299878,0.323551,20.5289,88.5193,-1.03265,0.0,0.0
4875,1218.5,71.0889,75.0292,140.077,105.184,119.243,0.00292522,0.319017,20.5362,88.3592,-1.1517,0.0,0.0
4890,1222.25,70.2796,74.5955,135.29,105.151,116.047,0.00266443,0.317166,20.5399,88.139,-0.905185,0.0,0.0
4905,1226,70.7646,74.1991,138.106,105.163,119.995,0.00274321,0.314837,20.5429,88.0189,-1.21123,0.0,0.0
4920,1229.75,70.3065,73.9684,137.145,105.227,117.912,0.00288371,0.31303,20.5435,87.8487,-1.0449,0.0,0.0
4935,1233.5,70.4553,74.1684,137.164,105.337,119.162,0.00300992,0.310912,20.5469,87.6886,-1.13205,0.0,0.0
4950,1237.25,69.5452,73.8598,138.11,105.495,117.097,0.00289836,0.309292,20.5516,87.5084,-0.957905,0.0,0.0
4965,1241,69.0462,72.8653,140.452,105.714,118.537,0.00260258,0.305479,20.5587,87.3583,-1.05099,0.0,0.0
4980,1244.75,68.9526,73.2014,141.729,105.972,120.013,0.0026838,0.303096,20.5625,87.1481,-1.14225,0.0,0.0
4995,1248.5,68.7835,72.814,136.848,106.184,118.582,0.00266986,0.302757,20.5637,87.008,-1.01378,0.0,0.0
5010,1252.25,68.9094,73.0351,137.833,106.358,118.745,0.00286493,0.301864,20.5642,86.8378,-1.01138,0.0,0.0
5025,1256,68.6227,72.3849,142.264,106.46,120.257,0.00291472,0.299613,20.5688,86.7377,-1.11874,0.0,0.0
5040,1259.75,68.498,72.1604,139.33,106.483,119.696,0.00263719,0.295315,20.5743,86.5876,-1.07384,0.0,0.0
5055,1263.5,68.0805,72.1215,140.875,106.406,119.288,0.0022946,0.29313,20.5798,86.4274,-1.04919,0.0,0.0
5070,1267.25,67.6781,71.8146,137.837,106.236,117.731,0.00218599,0.290717,20.5837,86.2473,-0.943221,0.0,0.0
5085,1271,67.365,71.2846,141.213,106.009,118.51,0.00235686,0.287558,20.5874,86.1372,-1.02336,0.0,0.0
5100,1274.75,67.0518,70.882,140.139,105.842,119.705,0.00238513,0.289265,20.5864,85.977,-1.12989,0.0,0.0
5115,1278.5,67.1398,70.6034,139.528,105.938,118.021,0.00239143,0.286544,20.5876,85.8169,-0.99156,0.0,0.0
5130,1282.25,66.7311,70.4663,138.398,106.407,119.958,0.00238648,0.285115,20.5893,85.6367,-1.10049,0.0,0.0
5145,1286,66.6622,70.5031,136.76,106.641,117.948,0.00236245,0.284383,20.5929,85.5366,-0.925218,0.0,0.0
5160,1289.75,66.6211,70.1613,139.305,106.665,119.524,0.00244919,0.283849,20.5937,85.4366,-1.04492,0.0,0.0
5175,1293.5,66.3891,70.0527,139.801,106.461,118.863,0.0024249,0.282312,20.5969,85.2464,-1.01161,0.0,0.0
5190,1297.25,66.2998,69.8622,140.04,106.237,117.46,0.00250013,0.281176,20.597,85.1063,-0.921867,0.0,0.0
5205,1301,65.9834,69.5606,135.962,106.476,117.921,0.00234065,0.280038,20.5981,84.9862,-0.937322,0.0,0.0
5220,1304.75,65.6648,69.477,141.384,106.741,117.659,0.00236743,0.279187,20.6018,84.836,-0.894022,0.0,0.0
5235,1308.5,65.3318,69.0621,142.228,106.99,118.175,0.00235971,0.276356,20.6064,84.7159,-0.912764,0.0,0.0
5250,1312.25,65.1654,68.9528,140.675,107.113,120.284,0.0023306,0.274585,20.6081,84.5558,-1.06466,0.0,0.0
5265,1316,64.9845,68.7134,141.635,107.119,118.446,0.00233943,0.273479,20.6102,84.4256,-0.922785,0.0,0.0
5280,1319.75,64.9209,68.2539,139.253,106.934,121.615,0.00232672,0.273511,20.6107,84.2955,-1.18103,0.0,0.0
5295,1323.5,64.9482,68.4103,142.728,106.599,117.007,0.00211492,0.27291,20.6131,84.1954,-0.855238,0.0,0.0
5310,1327.25,64.6697,67.9031,144.203,106.209,119.397,0.00211464,0.270436,20.6184,84.0653,-1.07454,0.0,0.0
5325,1331,64.3309,68.2321,144.92,105.939,117.333,0.00227832,0.268982,20.6208,83.9252,-0.937769,0.0,0.0
5340,1334.75,64.3904,67.6651,143.206,105.714,116.563,0.00236686,0.266366,20.624,83.7951,-0.89689,0.0,0.0
5355,1338.5,64.1079,67.5971,143.913,105.442,116.056,0.00220691,0.265323,20.6274,83.705,-0.880501,0.0,0.0
5370,1342.25,63.95,67.5273,139.049,105.265,117.025,0.00213221,0.265111,20.6302,83.5248,-0.972293,0.0,0.0
5385,1346,63.6073,66.8415,139.184,105.305,118.202,0.00211502,0.261613,20.6335,83.4448,-1.06067,0.0,0.0
5400,1349.75,63.5382,66.8356,139.043,105.24,119.08,0.00211443,0.258507,20.638,83.2946,-1.13428,0.0,0.0
5415,1353.5,63.6798,66.6865,141.13,105.341,117.414,0.00220763,0.258887,20.6381,83.1645,-0.996139,0.0,0.0
5430,1357.25,63.1357,67.0058,143.171,105.597,116.627,0.0021881,0.258144,20.6387,83.0844,-0.912021,0.0,0.0
5445,1361,62.9624,66.5876,142.31,105.889,118.392,0.00211983,0.25554,20.6423,82.9543,-1.02462,0.0,0.0
5460,1364.75,63.1575,66.3334,144.955,106.222,119.379,0.00203095,0.253114,20.6468,82.8342,-1.07202,0.0,0.0
5475,1368.5,62.4438,66.0871,141.785,106.428,117.025,0.00219439,0.250871,20.6505,82.7241,-0.871409,0.0,0.0
5490,1372.25,62.3612,65.7124,140.478,106.569,117.197,0.00236296,0.249988,20.6507,82.624,-0.872731,0.0,0.0
5505,1376,61.9641,65.3759,141.855,106.612,116.645,0.00219982,0.248834,20.6536,82.4739,-0.825656,0.0,0.0
5520,1379.75,61.9108,65.1553,142.589,106.519,116.029,0.00215453,0.246564,20.656,82.3738,-0.785103,0.0,0.0
5535,1383.5,61.945,65.1249,139.62,106.354,116.545,0.00224857,0.243205,20.6611,82.2637,-0.840078,0.0,0.0
5550,1387.25,61.1232,64.254,142.71,106.116,117.668,0.00212955,0.241615,20.6647,82.1636,-0.948632,0.0,0.0
5565,1391,61.1477,64.6589,144.705,105.964,117.26,0.00175694,0.241312,20.666,82.0335,-0.929987,0.0,0.0
5580,1394.75,60.8779,64.4935,144.422,106.094,116.174,0.0018553,0.239548,20.6696,81.9134,-0.833223,0.0,0.0
5595,1398.5,60.8866,64.0706,143.802,106.521,118.093,0.00207546,0.236575,20.6739,81.8033,-0.946762,0.0,0.0
5610,1402.25,60.306,63.7139,140.778,106.769,117.894,0.00228733,0.233909,20.6799,81.7032,-0.909974,0.0,0.0
5625,1406,59.9409,62.9834,146.062,106.747,118.555,0.00234242,0.231451,20.6851,81.6231,-0.963166,0.0,0.0
5640,1409.75,59.5629,62.8937,141.368,106.473,119.198,0.00234136,0.229768,20.6877,81.493,-1.03639,0.0,0.0
5655,1413.5,59.3232,62.6114,141.829,106.453,115.685,0.00236669,0.227487,20.6915,81.443,-0.763512,0.0,0.0
5670,1417.25,59.0935,62.1602,143.872,106.719,117.351,0.00259907,0.225064,20.6942,81.3229,-0.871884,0.0,0.0
5685,1421,58.4306,62.5943,141.119,107.007,118.311,0.0025278,0.222754,20.7007,81.2428,-0.92185,0.0,0.0
5700,1424.75,58.7753,61.6413,141.488,107.21,116.355,0.00252103,0.21821,20.7075,81.1327,-0.751485,0.0,0.0
5715,1428.5,58.1805,61.3189,146.975,107.296,118.546,0.00247691,0.214149,20.7154,81.0326,-0.915398,0.0,0.0
5730,1432.25,58.1972,61.3255,146.781,107.208,117.423,0.00271669,0.211573,20.7217,80.9325,-0.835538,0.0,0.0
5745,1436,57.7002,60.7645,148.993,106.951,117.025,0.0027803,0.206979,20.7294,80.8324,-0.826406,0.0,0.0
5760,1439.75,57.5318,60.1934,143.758,106.59,116.265,0.00284897,0.2036,20.7358,80.7724,-0.797556,0.0,0.0
5775,1443.5,56.3317,59.9905,146.684,106.202,116.572,0.0031768,0.20182,20.741,80.7123,-0.855308,0.0,0.0
5790,1447.25,56.2399,59.0354,148.636,105.868,114.716,0.00342275,0.199625,20.7466,80.6122,-0.736927,0.0,0.0
5805,1451,55.8918,59.0306,140.549,105.593,115.097,0.00357451,0.195402,20.7538,80.5221,-0.791203,0.0,0.0
5820,1454.75,55.6487,58.2698,152.221,105.459,114.843,0.00358457,0.1908,20.7609,80.4421,-0.782592,0.0,0.0
5835,1458.5,55.2746,57.6887,145.839,105.512,115.042,0.00386549,0.186423,20.768,80.382,-0.793914,0.0,0.0
5850,1462.25,54.6073,57.7643,145.94,105.721,115.133,0.00412824,0.183624,20.7745,80.312,-0.782966,0.0,0.0
5865,1466,54.0893,57.3178,142.03,106.017,113.983,0.00435335,0.180524,20.7822,80.2519,-0.665109,0.0,0.0
5880,1469.75,53.752,56.6659,149.661,106.332,114.671,0.00461593,0.176631,20.7884,80.1618,-0.693174,0.0,0.0
5895,1473.5,52.9625,55.8643,147.005,106.591,114.608,0.00479303,0.173846,20.7933,80.0617,-0.665757,0.0,0.0
5910,1477.25,52.772,55.4015,149.809,106.757,116.31,0.00504344,0.170706,20.8005,79.9817,-0.786776,0.0,0.0
5925,1481,52.2564,55.04,146.42,106.792,113.938,0.00539994,0.168052,20.8065,79.9516,-0.594623,0.0,0.0
5940,1484.75,51.3432,53.9395,147.355,106.763,114.907,0.00613101,0.166551,20.8102,79.8616,-0.674854,0.0,0.0
5955,1488.5,51.2441,53.74,147.514,106.689,114.626,0.0067443,0.164969,20.8132,79.7915,-0.658734,0.0,0.0
5970,1492.25,50.9895,53.5156,151.224,106.571,115.83,0.0071173,0.162108,20.8178,79.7314,-0.764865,0.0,0.0
5985,1496,50.669,52.8087,146.773,106.403,114.798,0.00728896,0.158194,20.8232,79.6614,-0.697114,0.0,0.0
6000,1499.75,50.0775,52.1976,147.201,106.233,113.811,0.00749357,0.154501,20.8306,79.5913,-0.63256,0.0,0.0
6015,1503.5,49.8052,51.8606,152.247,106.153,114.418,0.00800795,0.152101,20.8342,79.5613,-0.688323,0.0,0.0
6030,1507.25,49.1449,51.5603,152.283,106.087,112.96,0.00826367,0.150323,20.8378,79.5313,-0.576271,0.0,0.0
6045,1511,48.8063,50.7921,148.563,106.264,113.594,0.00846941,0.148593,20.8421,79.4812,-0.612307,0.0,0.0
6060,1514.75,48.2235,50.6995,146.66,106.415,113.331,0.00886233,0.148183,20.8446,79.4011,-0.578094,0.0,0.0
6075,1518.5,47.8846,50.1068,153.215,106.591,113.721,0.00888945,0.147415,20.8451,79.3411,-0.594372,0.0,0.0
6090,1522.25,47.8612,49.7285,150.588,106.756,114.228,0.00916609,0.147335,20.8452,79.3011,-0.621044,0.0,0.0
6105,1526,47.2911,49.1222,146.874,106.86,112.716,0.00918532,0.146827,20.8457,79.221,-0.489775,0.0,0.0
6120,1529.75,46.6118,48.9484,151.302,106.918,113.675,0.0089681,0.145913,20.8464,79.191,-0.562631,0.0,0.0
6135,1533.5,46.8258,48.3985,148.748,106.936,113.675,0.00891942,0.146217,20.8466,79.1509,-0.561024,0.0,0.0
6150,1537.25,46.5618,47.6847,151.376,106.939,113.693,0.00878603,0.147365,20.8452,79.0909,-0.562261,0.0,0.0
6165,1541,46.0526,47.7032,149.564,106.951,114.01,0.00864726,0.14773,20.8447,79.0308,-0.586765,0.0,0.0
6180,1544.75,45.9031,47.514,153.096,106.927,113.431,0.00846558,0.147046,20.8434,78.9708,-0.542046,0.0,0.0
6195,1548.5,45.1368,47.0182,148.635,106.918,113.259,0.00841899,0.146657,20.8444,78.9307,-0.528937,0.0,0.0
6210,1552.25,45.7264,46.5313,150.679,106.872,114.952,0.00870143,0.147281,20.8432,78.8907,-0.669075,0.0,0.0
6225,1556,44.9354,46.5815,154.708,106.824,112.897,0.00865349,0.148467,20.8429,78.8406,-0.507542,0.0,0.0
6240,1559.75,44.6353,46.0623,152.578,106.802,113.259,0.00891466,0.147614,20.8444,78.7906,-0.538851,0.0,0.0
6255,1563.5,44.7014,46.2736,147.259,106.76,114.4,0.00906692,0.147035,20.8446,78.7205,-0.634483,0.0,0.0
6270,1567.25,44.9312,45.8242,151.524,106.718,114.01,0.00876942,0.147628,20.8433,78.6705,-0.606822,0.0,0.0
6285,1571,44.3977,45.8932,147.698,106.669,112.797,0.0088376,0.147733,20.8429,78.6304,-0.512773,0.0,0.0
6300,1574.75,44.344,45.755,152.366,106.62,113.666,0.00883017,0.14703,20.8447,78.5804,-0.587473,0.0,0.0
6315,1578.5,44.339,45.3333,149.219,106.564,111.765,0.00896023,0.145865,20.8457,78.5404,-0.437422,0.0,0.0
6330,1582.25,43.9821,45.2511,148.309,106.561,112.851,0.00923686,0.14523,20.8477,78.4703,-0.526491,0.0,0.0
6345,1586,43.6903,45.2297,149.594,106.543,113.005,0.00919192,0.145009,20.8479,78.4203,-0.540617,0.0,0.0
6360,1589.75,43.7494,44.9638,150.109,106.475,112.362,0.00877787,0.145228,20.8466,78.3702,-0.494065,0.0,0.0
6375,1593.5,43.9183,44.7779,150.858,106.486,112.181,0.00881917,0.144879,20.848,78.3202,-0.478359,0.0,0.0
6390,1597.25,43.643,44.7699,154.498,106.5,112.19,0.00876503,0.143345,20.8484,78.2701,-0.477861,0.0,0.0
6405,1601,43.0435,44.6831,149.874,106.52,112.082,0.00881762,0.143206,20.85,78.2101,-0.467277,0.0,0.0
6420,1604.75,43.0597,44.0772,151.217,106.532,112.806,0.00887649,0.143199,20.8495,78.17,-0.525322,0.0,0.0
6435,1608.5,43.184,44.3306,152.314,106.545,112.924,0.00891089,0.143065,20.8499,78.12,-0.53377,0.0,0.0
6450,1612.25,43.0203,44.2844,155.179,106.538,111.176,0.00858275,0.142671,20.8508,78.09,-0.391246,0.0,0.0
6465,1616,42.8855,43.7874,151.595,106.548,112.58,0.00871861,0.142378,20.8512,78.0099,-0.50557,0.0,0.0
6480,1619.75,42.8236,43.7196,149.947,106.565,111.493,0.00891114,0.143454,20.8503,77.9699,-0.415047,0.0,0.0
6495,1623.5,42.5713,43.7809,147.661,106.568,113.023,0.00900782,0.143429,20.8499,77.8698,-0.539949,0.0,0.0
6510,1627.25,42.9209,43.5643,148.873,106.568,113.042,0.00888756,0.142912,20.8493,77.8598,-0.541419,0.0,0.0
6525,1631,42.5812,43.7997,150.707,106.531,112.073,0.00906022,0.143803,20.8475,77.7797,-0.465598,0.0,0.0
6540,1634.75,42.6837,43.7565,149.012,106.526,111.493,0.00907569,0.144052,20.847,77.7597,-0.418387,0.0,0.0
6555,1638.5,42.9303,43.3761,154.194,106.518,113.223,0.00924559,0.145267,20.8452,77.6896,-0.56039,0.0,0.0
6570,1642.25,42.8021,43.7931,151.747,106.522,112.679,0.00928288,0.145724,20.8447,77.5995,-0.515864,0.0,0.0
6585,1646,42.2851,43.743,152.362,106.486,111.665,0.00932666,0.145983,20.8438,77.5695,-0.435994,0.0,0.0
6600,1649.75,42.5374,43.3489,148.365,106.476,111.91,0.00917336,0.145474,20.8437,77.5395,-0.456968,0.0,0.0
6615,1653.5,42.2162,43.6371,146.979,106.527,112.073,0.00926932,0.146329,20.8434,77.4794,-0.465898,0.0,0.0
6630,1657.25,42.0676,43.7411,152.115,106.587,111.602,0.00927347,0.147552,20.8417,77.4494,-0.422113,0.0,0.0
6645,1661,42.5643,43.1009,150.796,106.627,112.335,0.00952123,0.14821,20.8415,77.3893,-0.478752,0.0,0.0
6660,1664.75,42.3288,43.295,150.309,106.707,113.15,0.00977216,0.146234,20.8426,77.3693,-0.538204,0.0,0.0
6675,1668.5,42.2132,43.3518,150.71,106.743,111.756,0.0098022,0.14426,20.8445,77.2993,-0.421347,0.0,0.0
6690,1672.25,42.2796,43.3632,149.652,106.795,112.1,0.0098406,0.142861,20.8456,77.2392,-0.445034,0.0,0.0
6705,1676,41.4424,42.7107,149.749,106.857,111.702,0.00955093,0.142613,20.8466,77.1892,-0.407076,0.0,0.0
6720,1679.75,41.2484,42.5733,155.497,106.878,111.901,0.0096066,0.142202,20.8464,77.1491,-0.421636,0.0,0.0
6735,1683.5,41.3431,42.5371,148.197,106.91,111.747,0.00966504,0.141744,20.8461,77.1091,-0.406233,0.0,0.0
6750,1687.25,41.1133,41.8673,149.875,106.925,111.819,0.00974919,0.142526,20.846,77.049,-0.41091,0.0,0.0
6765,1691,41.3007,42.0219,152.006,106.938,111.448,0.0094255,0.141694,20.8463,77.029,-0.379263,0.0,0.0
6780,1694.75,41.2383,42.4176,152.972,106.956,112.236,0.0097953,0.142027,20.8478,76.9489,-0.442383,0.0,0.0
6795,1698.5,40.9122,42.1201,151.817,106.969,111.367,0.00996562,0.142377,20.8481,76.8889,-0.369821,0.0,0.0
6810,1702.25,40.748,42.0185,147.502,106.96,112.634,0.00995229,0.141928,20.8477,76.8489,-0.474535,0.0,0.0
6825,1706,41.2709,42.4308,150.829,106.934,112.489,0.0100053,0.142079,20.8474,76.8188,-0.464964,0.0,0.0
6840,1709.75,41.1078,42.2887,147.641,106.914,112.073,0.00999221,0.142065,20.8473,76.7788,-0.432596,0.0,0.0
6855,1713.5,40.7282,42.2277,151.819,106.901,112.381,0.00986945,0.141488,20.848,76.7087,-0.458935,0.0,0.0
6870,1717.25,40.5066,42.0435,149.47,106.858,112.453,0.0100588,0.141375,20.8479,76.6887,-0.468553,0.0,0.0
6885,1721,40.9033,41.8271,147.158,106.811,112.815,0.0103,0.141405,20.8479,76.6387,-0.502111,0.0,0.0
6900,1724.75,40.6923,41.5777,152.954,106.741,112.688,0.0104988,0.141486,20.8479,76.5786,-0.497782,0.0,0.0
6915,1728.5,40.484,41.9853,149.757,106.665,112.118,0.0106238,0.141481,20.8479,76.5286,-0.457753,0.0,0.0
6930,1732.25,40.1179,41.4961,152.634,106.592,111.149,0.0103503,0.141364,20.8479,76.4585,-0.38435,0.0,0.0
6945,1736,40.5937,41.7826,151.148,106.483,111.267,0.0103534,0.141568,20.8479,76.4285,-0.403486,0.0,0.0
6960,1739.75,40.8863,41.724,150.47,106.369,111.638,0.0104446,0.14141,20.8473,76.3784,-0.443903,0.0,0.0
6975,1743.5,40.326,41.5673,151.201,106.291,110.407,0.0106255,0.141317,20.847,76.3284,-0.348782,0.0,0.0
6990,1747.25,40.5852,41.5212,151.234,106.189,111.195,0.0107742,0.141904,20.8469,76.2884,-0.422885,0.0,0.0
7005,1751,40.2837,41.4967,152.32,106.116,109.791,0.010601,0.141709,20.8469,76.2483,-0.312543,0.0,0.0
7020,1754.75,40.313,41.4515,152.563,106.137,110.842,0.0105155,0.141284,20.8476,76.2083,-0.398168,0.0,0.0
7035,1758.5,39.9371,41.3289,155.643,106.161,111.43,0.0105833,0.141147,20.847,76.1582,-0.444709,0.0,0.0
7050,1762.25,39.764,41.1349,149.587,106.186,111.05,0.0105844,0.141534,20.8461,76.0982,-0.411143,0.0,0.0
7065,1766,39.7789,41.2733,152.45,106.218,111.285,0.0106644,0.141795,20.8451,76.0481,-0.427797,0.0,0.0
7080,1769.75,40.4085,41.3774,150.634,106.273,111.014,0.0106998,0.141772,20.8448,76.0081,-0.40066,0.0,0.0
7095,1773.5,39.719,40.639,152.002,106.322,111.032,0.0107345,0.141694,20.8448,75.9581,-0.397946,0.0,0.0
7110,1777.25,39.7556,41.5286,153.682,106.35,110.914,0.0106937,0.141518,20.8454,75.928,-0.385765,0.0,0.0
7125,1781,39.9804,41.3172,155.262,106.409,110.579,0.0109676,0.142011,20.8441,75.878,-0.352848,0.0,0.0
7140,1784.75,39.5453,40.9213,152.808,106.429,112.254,,0.141859,,75.838,-0.489166,0.0,0.0
7155,1788.5,39.8213,41.3383,155.012,106.494,110.606,,,,75.7979,-0.34778,0.0,0.0
7170,1792.25,39.7258,40.9482,150.502,106.544,111.294,,,,75.7479,-0.400397,0.0,0.0
7175,1793.5,39.7912,41.0315,152.819,106.562,111.376,,,,75.7379,-0.405615,0.0,0.0