File: 01_Data/Camelback_Sofa/Furniture_Calorimeter/Camelback_Sofa_R3.csv
Time (s),Convective HRR,TCPlume1,TCPlume2,TCPlume3,DPPlume1,DPPlume2,DPPlume3,HF1,HF2,HF3,HF4,HF5,HF6,RAD2,RAD1,Load Cell,Heat Release Rate,Total Heat Released
-121,0.0,-2.15452,-1.25563,14.6341,-0.0568413,-0.112662,-0.0898806,0.127041,-0.77138,-0.386795,-0.2946,0.818646,-0.00117851,0.115037,2.88169,45.1343,0.0,0.0
-115,0.0,-2.51975,-1.38825,14.6174,0.0343074,-0.0443053,0.0316481,0.127041,1.02601,1.24181,0.567643,-0.306211,-0.1426,0.281084,1.92317,45.1758,0.0,0.0
-109,0.22596,-2.75216,-1.69715,14.8462,0.00392446,0.0392418,-0.0367118,0.127041,0.127315,0.42751,0.567643,-0.681164,0.281665,0.613177,0.964651,45.1135,0.0,0.0
-103,0.0,-3.46155,-1.90162,14.9113,0.0115202,0.0240514,0.0392437,0.127041,-1.67008,1.24181,-0.2946,-0.306211,-0.00117851,0.447131,2.88169,45.1343,0.0,0.0
-97,0.0,-3.667,-2.10621,14.519,0.0115202,0.0164562,0.0544347,0.127041,-0.77138,1.24181,0.567643,0.0687413,0.140243,0.447131,0.964651,45.1758,0.0,0.0
-91,0.0,-2.5923,-2.04012,14.6223,0.0191159,0.0620274,0.016457,-0.675323,1.02601,1.24181,-1.15684,0.443694,-0.00117851,0.115037,0.00613451,45.1343,0.0,0.0
-85,0.0,-2.86916,-1.96842,14.6548,0.0115202,0.107599,-0.0367118,-0.675323,0.127315,-1.2011,-0.2946,0.0687413,-0.1426,0.447131,1.92317,45.3211,0.0,0.0
-79,0.0,-3.07429,-2.21174,14.3006,0.0950731,-0.0215197,0.0316481,0.929404,0.127315,0.42751,0.567643,0.0687413,-0.00117851,0.447131,0.964651,45.3211,0.0,0.0
-73,0.0,-3.75108,-1.99656,14.1695,0.0191159,-0.0519005,0.0240526,0.929404,0.127315,0.42751,1.42989,0.0687413,-0.00117851,0.281084,0.964651,45.3211,0.0,0.0
-67,0.0,-2.74799,-2.11821,14.0495,-0.0872242,-0.0215197,-0.0443073,0.929404,-0.77138,-0.386795,0.567643,0.0687413,-0.00117851,0.613177,1.92317,45.2796,0.0,0.0
-61,0.0,-2.83678,-2.16815,13.7333,-0.0188627,-0.0443053,-0.0291163,-0.675323,0.127315,-0.386795,-0.2946,0.443694,-0.1426,0.281084,0.964651,45.3211,0.0,0.0
-55,0.0,-3.27463,-2.2181,13.951,-0.0416499,0.0392418,-0.0594984,0.929404,1.02601,1.24181,-0.2946,0.818646,-0.00117851,0.281084,1.92317,45.3211,0.0,0.0
-49,0.0,-3.11381,-2.28986,14.2617,-0.0264584,-0.00632932,-0.0139252,0.127041,0.127315,0.42751,-0.2946,-0.306211,0.140243,0.115037,0.964651,45.2588,0.0,0.0
-43,0.0,-3.44681,-2.27369,14.6208,0.0191159,0.0772178,-0.0139252,0.127041,-0.77138,-0.386795,-0.2946,0.0687413,-0.1426,0.281084,1.92317,45.3211,0.419,0.0
-37,0.0,-3.14768,-2.67214,14.114,-0.00367127,-0.158233,-0.120263,0.127041,-0.77138,0.42751,0.567643,0.443694,0.140243,0.281084,1.92317,45.3211,0.0,0.0
-31,0.0,-3.30851,-2.52285,13.994,0.00392446,-0.0822812,-0.00632962,-0.675323,-1.67008,-0.386795,-1.15684,0.0687413,-0.00117851,0.447131,1.92317,45.3211,1.33586,0.0
-25,0.0,-3.90796,-2.6947,14.0155,0.0115202,-0.0443053,-0.0443073,0.127041,-0.77138,0.42751,2.29213,-0.306211,-0.00117851,0.447131,1.92317,45.3211,0.0,0.0
-19,0.0,-3.40872,-2.70033,14.1244,0.0419031,0.00886105,0.016457,0.929404,1.02601,-0.386795,0.567643,0.0687413,0.281665,0.447131,2.88169,45.3211,1.55576,0.0
-13,0.0,-3.7808,-2.95543,14.1022,-0.00367127,0.0696226,0.0848169,0.929404,-1.67008,-1.2011,1.42989,-0.306211,-0.1426,0.447131,0.00613451,45.3004,0.0,0.0
-7,0.0,-3.7808,-2.76163,14.0641,0.0494988,0.046837,0.016457,0.127041,0.127315,0.42751,0.567643,0.0687413,-0.00117851,0.281084,1.92317,45.4873,0.0,0.0
-1,0.0,-3.87547,-2.89482,14.0856,0.0419031,-0.0139245,-0.00632962,0.127041,1.92471,0.42751,-0.2946,0.443694,-0.00117851,0.281084,2.88169,45.2796,0.0,0.0
5,0.0,-4.34769,-3.01676,13.8893,-0.00367127,0.046837,0.016457,0.929404,1.02601,-0.386795,0.567643,0.443694,-0.00117851,0.613177,1.92317,45.3004,0.0,0.0
11,0.0,-3.69818,-2.71796,14.0689,0.0874774,0.145574,0.016457,-1.47769,-0.77138,-0.386795,0.567643,0.0687413,-0.1426,0.281084,0.964651,45.3419,0.0,0.0
17,0.0,-3.55414,-2.72924,13.9053,-0.00367127,0.00886105,0.0468392,-0.675323,0.127315,1.24181,-0.2946,0.0687413,0.140243,0.115037,0.964651,45.508,0.0,0.0
23,0.0,-3.52661,-2.62429,13.8179,-0.0416499,-0.0443053,-0.00632962,0.929404,0.127315,-0.386795,-0.2946,0.0687413,-0.00117851,0.281084,0.964651,45.4873,0.0,0.0
29,0.0,-3.85994,-2.68556,13.7575,-0.0264584,0.00886105,0.0392437,-0.675323,-0.77138,1.24181,-1.15684,-0.306211,-0.00117851,0.281084,2.88169,45.3834,0.0,0.0
35,0.0,-4.25435,-2.3814,13.6375,-0.0264584,-0.00632932,0.016457,0.929404,-0.77138,-0.386795,0.567643,0.0687413,-0.1426,0.281084,2.88169,45.508,0.0,0.0
41,0.0,-4.57127,-2.42574,13.7846,-0.0188627,0.0848129,-0.0291163,-0.675323,1.02601,1.24181,-0.2946,0.443694,0.140243,0.447131,0.964651,45.4665,0.0,0.0
47,0.0,-3.00106,-2.60316,13.419,-0.0796285,0.0316466,-0.0215207,-0.675323,1.02601,0.42751,-1.15684,0.443694,-0.00117851,0.447131,0.964651,45.4665,0.0,0.0
53,0.0,-3.74409,-2.95756,13.299,-0.0264584,-0.120257,0.0772214,0.127041,0.127315,-1.2011,-1.15684,0.443694,-0.00117851,0.613177,0.00613451,45.3419,0.0,0.0
59,0.0,-3.71655,-3.04638,13.3261,0.193818,-0.0139245,-0.0746895,0.127041,0.127315,-0.386795,-0.2946,0.443694,-0.284022,0.447131,2.88169,45.508,2.57827,0.00187953
65,0.0,-3.42286,-2.90821,13.6147,0.429285,0.15317,-0.067094,0.929404,0.127315,-0.386795,1.42989,0.443694,-0.00117851,0.115037,0.964651,45.4665,8.03993,0.0308246
71,0.0,-4.36113,-2.79757,14.1813,-0.0340542,0.046837,-0.0746895,0.127041,1.02601,0.42751,1.42989,0.0687413,-0.00117851,0.447131,1.92317,45.4873,8.1845,0.0770192
77,0.0,-3.52308,-3.35743,13.7451,-0.0416499,-0.120257,-0.0519029,0.929404,-0.77138,0.42751,0.567643,-0.306211,0.281665,0.447131,0.964651,45.5288,13.7841,0.133565
83,0.0,-3.50683,-3.38001,13.761,-0.0492456,0.0164562,0.0240526,1.73177,-0.77138,0.42751,0.567643,0.0687413,0.140243,0.115037,2.88169,45.4665,23.9183,0.245481
89,0.0,-3.43484,-3.34684,13.7936,0.0267116,0.0240514,-0.0291163,-1.47769,1.02601,0.42751,0.567643,0.0687413,-0.00117851,0.447131,0.964651,45.4873,29.1318,0.409616
95,0.0,-3.44048,-3.19727,13.5974,-0.0492456,0.00886105,-0.0215207,0.127041,-0.77138,0.42751,-0.2946,0.0687413,0.140243,0.613177,0.964651,45.4873,28.86,0.607564
101,0.0,-2.10683,-2.79332,13.6896,0.436881,-0.0139245,0.0240526,0.929404,1.92471,0.42751,-0.2946,0.818646,-0.00117851,0.281084,1.92317,45.3004,36.6215,0.809522
107,1.74837,-1.80317,-2.79895,13.5315,-0.0340542,0.0392418,-0.105072,-0.675323,0.127315,1.24181,0.567643,0.443694,0.423087,0.447131,1.92317,45.4873,38.0174,1.03799
113,3.8864,-2.31152,-3.15353,13.9837,0.0494988,0.0620274,0.0392437,0.929404,0.127315,0.42751,-0.2946,0.443694,-0.00117851,0.447131,0.964651,45.3419,39.3038,1.28499
119,7.57798,-3.21962,-3.01531,14.6535,-0.0720328,0.0316466,0.0240526,0.127041,0.127315,0.42751,0.567643,-0.681164,0.140243,0.447131,2.88169,45.508,48.4726,1.53736
125,10.9941,-3.03697,-3.60867,14.2992,0.072286,0.0164562,0.0316481,2.53413,0.127315,1.24181,0.567643,-0.681164,0.281665,0.613177,2.88169,45.4665,43.9794,1.83921
131,14.2815,-2.43394,-3.43147,14.6639,0.11786,0.107599,0.0544347,-0.675323,1.02601,2.05612,0.567643,0.443694,0.140243,0.281084,1.92317,45.4665,70.5689,2.16423
137,14.7364,-3.03201,-2.98286,14.7998,0.839454,0.37343,0.0316481,2.53413,0.127315,0.42751,0.567643,0.443694,-0.00117851,0.447131,2.88169,45.3211,66.1239,2.60265
143,19.2652,1.54317,-2.21385,14.6799,0.543221,0.396216,-0.112667,1.73177,1.02601,0.42751,1.42989,0.0687413,0.281665,0.447131,2.88169,45.4665,94.6095,3.10077
149,24.9378,0.153921,-2.57349,15.0119,-0.00367127,-0.00632932,0.0240526,0.929404,1.02601,1.24181,1.42989,0.443694,0.140243,0.447131,1.92317,45.3419,128.746,3.74981
155,34.0888,-0.774062,-2.54039,15.8066,1.56105,0.0544322,-0.0367118,0.127041,-0.77138,1.24181,-0.2946,0.0687413,0.423087,0.447131,2.88169,45.3211,121.444,4.49484
161,43.8963,1.28007,-2.51855,15.6376,0.155839,-0.0291149,-0.0215207,2.53413,1.02601,-0.386795,0.567643,0.443694,0.423087,0.613177,2.88169,45.3419,122.68,5.213
167,49.8819,1.03368,-2.69037,16.2685,0.072286,-0.00632932,0.016457,0.929404,1.92471,1.24181,2.29213,0.443694,0.423087,0.613177,4.79872,45.3419,122.084,5.93661
173,56.7454,2.0124,-1.6241,16.7089,0.246988,0.0620274,0.206346,2.53413,1.92471,0.42751,0.567643,0.443694,0.564509,0.447131,1.92317,45.0927,155.559,6.75579
179,57.5889,3.18818,-0.324864,16.812,0.452072,0.715214,0.0772214,1.73177,1.02601,1.24181,0.567643,0.443694,0.423087,0.281084,1.92317,45.155,174.697,7.76039
185,70.771,2.40574,-0.418559,17.138,0.140647,-0.00632932,0.0240526,3.3365,1.02601,2.05612,2.29213,0.818646,0.423087,0.613177,3.8402,45.1135,201.302,8.94763
191,76.9646,6.33212,2.28461,17.578,1.24203,0.874713,0.016457,3.3365,1.92471,1.24181,1.42989,0.818646,0.423087,0.613177,2.88169,44.9889,207.592,10.1669
197,91.8857,8.11921,2.27348,18.5937,0.0419031,-0.0594957,0.115199,2.53413,2.8234,0.42751,2.29213,1.1936,0.70593,0.779224,3.8402,45.0097,208.727,11.4421
203,108.037,7.65464,1.73189,18.8543,0.74071,0.403811,0.0696258,3.3365,2.8234,3.68473,2.29213,0.818646,0.70593,0.779224,2.88169,44.9681,224.086,12.8175
209,114.164,9.77935,2.82556,19.3697,0.505242,-0.165828,0.153177,3.3365,3.7221,2.87042,2.29213,0.0687413,0.423087,1.11132,1.92317,44.8435,274.862,14.3666
215,116.134,13.3251,4.23665,19.7061,2.50292,0.335454,0.0696258,3.3365,1.92471,2.87042,1.42989,0.818646,0.423087,0.779224,2.88169,44.8228,302.634,16.1012
221,124.972,12.2345,3.14235,20.2156,0.00392446,-0.0443053,-0.0519029,4.13886,2.8234,2.87042,2.29213,1.1936,1.1302,0.945271,2.88169,44.6774,338.218,17.9837
227,144.169,13.0685,3.36652,20.8932,0.452072,1.07219,0.396234,4.94122,2.8234,2.05612,3.15437,0.818646,1.1302,0.945271,5.75724,44.5113,406.947,20.2269
233,144.972,18.3077,10.9246,24.2107,1.13569,0.905093,0.0620303,5.74359,2.8234,3.68473,2.29213,1.1936,0.847352,1.11132,3.8402,44.3036,478.731,22.8961
239,176.49,20.7972,12.8171,24.2698,1.18886,0.213931,0.221537,5.74359,2.8234,3.68473,2.29213,0.818646,0.988774,1.11132,3.8402,44.1582,552.379,26.0312
245,230.798,23.8223,11.9336,24.0374,1.47749,0.160765,0.229132,5.74359,4.62079,5.31334,4.01661,1.9435,0.988774,1.27736,5.75724,44.1167,582.668,29.5825
251,271.086,26.3431,15.5837,25.5765,1.96362,1.57347,0.100008,8.15068,3.7221,6.94195,4.87886,1.9435,1.41304,1.60946,7.67427,43.8675,735.394,33.3245
257,302.432,31.8926,18.9093,26.7252,2.8979,0.654452,0.0392437,8.95304,4.62079,5.31334,4.87886,1.9435,1.55446,1.60946,7.67427,43.6806,678.031,37.4189
263,332.293,31.8442,22.9188,31.647,3.7714,1.89247,0.388639,9.7554,6.41818,6.12764,5.7411,2.31846,1.41304,1.7755,7.67427,43.3276,666.318,41.3778
269,340.475,38.416,26.418,32.0062,1.97122,-0.0670908,1.69507,12.1625,7.31688,7.75625,6.60334,2.69341,2.12015,1.94155,8.63279,43.1615,744.133,45.6143
275,385.284,41.7218,26.0673,35.2575,2.83713,1.92285,0.47219,13.7672,7.31688,7.75625,5.7411,3.06836,2.54441,2.43969,9.5913,42.9953,783.909,50.2609
281,390.628,43.862,30.5342,39.3145,2.351,0.175955,0.456999,14.5696,10.013,8.57055,4.87886,3.06836,2.40299,2.27365,11.5083,42.7046,976.801,55.323
287,414.32,51.7401,35.2872,43.3626,0.809071,1.22409,-0.0139252,17.779,9.11427,8.57055,8.32783,4.56817,2.96868,2.60574,12.4669,42.3724,1063.3,61.0867
293,484.526,55.4978,37.936,46.4759,1.72056,0.343049,-0.203814,20.9885,11.8104,12.6421,8.32783,5.31807,3.39294,3.43597,15.3424,42.2062,944.386,67.377
299,497.956,72.6729,58.8812,58.8318,6.84767,5.29511,1.69507,25.8027,14.5064,15.8993,10.0523,5.31807,4.10005,3.93411,18.218,41.8532,989.711,73.3066
305,529.25,81.5188,63.376,65.2379,2.20668,2.84946,3.27495,26.605,13.6077,15.085,10.0523,6.06798,4.10005,3.76807,20.135,41.521,987.896,79.1462
311,642.878,96.3585,76.8324,78.5486,3.87015,5.90273,3.98893,28.2098,14.5064,13.4564,11.7768,5.69303,4.3829,4.26621,20.135,41.1264,1068.63,85.4855
317,595.059,108.656,100.053,95.3694,5.64755,6.17615,3.48762,31.4192,15.4051,15.085,9.19007,6.06798,4.3829,4.10016,23.9691,40.8357,1055.34,91.902
323,581.418,123.011,118.732,118.886,3.72583,4.45964,4.96875,34.6287,16.3038,16.7136,11.7768,7.19284,4.80716,4.93039,24.9276,40.5034,1307.15,98.902
329,620.486,124.009,125.819,130.512,0.452072,7.43696,3.74587,33.0239,14.5064,17.5279,10.0523,7.19284,5.51427,5.09644,23.9691,40.2335,1473.25,106.99
335,639.475,127.356,133.149,139.523,5.5564,6.17615,1.83179,38.6405,17.2025,17.5279,12.639,9.0676,6.22138,5.76063,28.7616,39.8389,1688.45,116.79
341,695.033,130.72,138.71,149.381,3.39162,4.62674,9.03997,46.6641,22.5947,23.228,15.2258,12.4422,8.20128,7.91923,41.2224,39.1536,1663.62,126.911
347,740.322,136.569,147.231,162.966,11.2456,9.41171,4.43706,52.2807,22.5947,24.0423,18.6747,14.6919,10.464,9.74575,46.0149,38.5306,1695.99,137.377
353,889.824,155.823,172.324,186.471,4.40944,8.54585,2.25714,52.2807,23.4934,23.228,16.088,14.6919,10.3226,9.74575,45.0564,38.1776,1648.93,147.372
359,925.755,164.93,186.807,208.467,9.11879,9.05473,6.95879,53.083,23.4934,24.0423,17.8125,15.0668,10.7469,10.0778,47.932,37.5339,1517.89,156.887
365,1022.46,156.398,178.969,215.421,4.8424,5.62171,4.7181,50.6759,23.4934,22.4137,17.8125,13.942,10.1812,9.5797,46.9735,37.2016,1391.17,165.648
371,922.808,145.886,167.171,212.899,4.65251,5.88754,4.26237,48.2689,20.7973,20.7851,16.9503,13.942,9.75692,9.08156,45.0564,36.9109,1492.17,173.56
377,908.56,135.148,155.165,209.717,3.40681,3.22922,3.60155,42.6523,18.1012,17.5279,14.3635,11.3173,8.20128,7.75319,39.3053,36.5163,1025.7,180.906
383,879.926,127.676,143.723,203.582,3.72583,7.60405,3.99652,43.4547,16.3038,18.3422,13.5013,10.5674,7.49418,7.089,38.3468,36.0179,989.603,187.14
389,797.481,121.717,142.654,210.887,3.83976,7.54329,11.2351,41.0476,15.4051,16.7136,12.639,10.5674,6.92849,6.92295,38.3468,35.5403,1022.28,193.325
395,778.174,118.902,140.675,210.071,1.62181,9.37373,2.47741,37.8381,15.4051,15.085,12.639,9.44255,6.92849,6.25877,33.5542,35.3742,988.031,199.43
401,703.513,110.275,135.248,208.585,5.16902,5.29511,2.79643,40.2452,15.4051,15.8993,13.5013,9.8175,6.22138,5.76063,36.4298,35.0419,914.887,205.122
407,693.937,108.225,132.267,205.983,5.04748,6.70022,3.6927,37.0358,13.6077,14.2707,12.639,7.94274,5.79711,5.42853,32.5957,34.7304,965.03,210.836
413,720.197,105.701,131.022,207.273,3.63468,5.98628,5.29536,33.0239,11.8104,14.2707,11.7768,8.69265,5.79711,5.42853,29.7202,34.3566,991.405,216.595
419,634.35,100.728,127.1,203.783,3.71064,4.07229,3.80663,30.6169,10.9117,12.6421,10.9146,7.94274,5.37285,5.09644,27.8031,34.0244,828.15,222.076
425,666.975,99.2939,122.056,197.379,5.89061,6.82934,4.43706,30.6169,10.9117,11.0135,9.19007,7.19284,5.09001,4.5983,26.8446,33.8998,787.884,227.009
431,687.852,97.4396,118.314,193.13,3.89293,3.95836,1.77862,30.6169,10.013,11.0135,10.9146,6.81788,4.66574,4.5983,25.8861,33.526,758.491,231.576
437,659.035,95.6552,114.798,189.295,3.55113,8.03698,2.89517,28.2098,8.21557,11.8278,10.0523,7.19284,4.52432,4.43225,24.9276,33.1937,733.493,236.14
443,591.834,90.1997,111.666,185.579,4.47781,2.11273,2.30272,26.605,10.013,10.1992,8.32783,6.44293,4.66574,4.26621,23.0105,32.9861,703.252,240.519
449,555.053,86.2273,105.878,182.441,4.54617,3.40391,5.58399,25.8027,10.013,10.1992,7.46559,6.44293,4.52432,3.93411,21.0935,32.8822,633.814,244.56
455,558.358,82.998,101.626,176.103,2.59407,2.54565,0.297492,22.5932,7.31688,7.75625,9.19007,5.69303,3.95863,3.43597,19.1765,32.5292,617.827,248.574
461,525.419,77.4447,97.2571,171.621,2.62445,5.16599,1.3001,22.5932,8.21557,9.38486,7.46559,5.31807,3.95863,3.43597,22.052,32.2177,648.004,252.429
467,482.702,72.4902,91.7666,165.058,1.21164,1.02662,1.55076,20.9885,8.21557,8.57055,7.46559,5.31807,3.53437,3.10388,18.218,32.0724,603.726,256.339
473,483.548,69.5881,86.1766,159.19,2.03198,4.95333,2.37867,19.3838,7.31688,7.75625,6.60334,5.31807,3.25152,3.10388,19.1765,31.8855,618.091,260.076
479,464.711,67.7382,84.986,155.297,3.93851,5.96349,2.8344,18.5814,7.31688,7.75625,5.7411,4.19322,3.25152,3.26993,16.3009,31.7193,566.877,263.608
485,499.552,64.6447,78.5563,149.329,1.58383,1.60385,1.45961,16.1743,5.51949,6.12764,4.87886,4.19322,2.96868,2.27365,17.2594,31.574,491.581,266.78
491,482.832,62.0684,76.7545,145.045,4.80442,1.91525,0.791203,15.3719,5.51949,6.94195,4.87886,4.56817,2.68584,2.43969,13.4254,31.3871,588.731,269.737
497,437.648,58.8696,72.9418,140.624,2.11554,2.43932,8.74374,14.5696,3.7221,6.94195,5.7411,3.44331,2.68584,2.60574,14.3839,31.221,472.022,272.835
503,398.121,59.4422,74.5389,138.231,2.95866,2.72794,3.22937,14.5696,5.51949,5.31334,4.87886,3.81827,2.54441,2.43969,12.4669,30.951,431.38,275.628
509,379.441,59.4594,72.1921,135.015,5.91637,2.83501,2.83423,13.2177,5.25421,6.09646,4.75495,3.54065,2.07488,2.01191,12.3905,30.8842,403.442,278.152
515,390.05,56.0079,67.5609,130.733,4.19676,5.59892,2.40146,12.9649,4.62079,5.31334,4.01661,3.44331,2.12015,2.1076,10.5498,30.7018,364.106,280.464
521,377.8,53.7799,64.9025,125.842,4.08283,1.12535,0.669674,12.1625,4.62079,4.49903,3.15437,3.44331,2.26157,1.7755,10.5498,30.5772,361.68,282.578
527,350.654,52.0822,63.2867,122.475,0.193818,0.836737,2.21157,11.3601,3.7221,4.49903,5.7411,2.69341,1.97873,1.7755,10.5498,30.3696,349.449,284.681
533,316.536,49.1884,59.9315,119.403,4.40185,1.23169,2.55337,11.3601,5.51949,4.49903,3.15437,2.69341,1.69588,1.94155,8.63279,30.2242,340.533,286.844
539,317.685,47.4747,57.2714,115.331,2.21428,2.67477,0.730438,11.3601,3.7221,3.68473,3.15437,3.06836,1.8373,1.60946,9.5913,30.245,310.991,288.78
545,289.49,46.6117,55.9347,111.862,2.42696,2.08994,2.12802,9.7554,3.7221,3.68473,4.01661,1.9435,1.69588,1.44341,9.5913,30.0373,302.916,290.659
551,328.465,44.009,52.7578,108.072,0.649561,0.654452,0.411425,10.5578,3.7221,2.87042,2.29213,2.31846,1.69588,1.60946,7.67427,29.8919,272.647,292.392
557,273.053,41.6188,49.3474,104.507,2.40417,1.16333,0.153177,9.7554,4.62079,4.49903,3.15437,1.9435,1.69588,1.60946,8.63279,29.7258,272.605,294.029
563,268.192,38.7442,47.5281,101.988,1.90286,1.87728,3.33571,8.95304,3.7221,5.31334,3.15437,1.9435,1.55446,1.27736,7.67427,29.7673,285.219,295.656
569,230.085,36.0493,45.0756,99.5085,0.854645,3.00137,1.23174,8.15068,3.7221,3.68473,3.15437,1.1936,1.41304,1.27736,8.63279,29.5804,256.63,297.279
575,226.847,33.0047,42.2783,97.0636,1.76613,1.54309,3.75347,7.34831,4.62079,3.68473,3.15437,2.31846,1.27162,1.27736,6.71575,29.3728,290.023,298.989
581,224.889,31.0738,40.9595,94.395,0.885028,2.03678,0.912731,8.15068,3.7221,3.68473,1.42989,1.9435,0.988774,1.44341,8.63279,29.2274,270.254,300.634
587,224.649,30.4294,39.5009,91.8871,4.16638,2.58363,1.4824,6.54595,1.92471,3.68473,2.29213,2.69341,1.27162,1.27736,4.79872,29.2066,238.672,302.115
593,240.909,31.4011,41.0232,91.0725,2.81434,1.53549,3.91297,8.15068,2.8234,2.87042,2.29213,1.9435,1.1302,1.27736,6.71575,29.0821,235.323,303.523
599,232.23,32.6611,41.9376,87.969,2.37379,0.662047,1.17098,8.15068,1.92471,3.68473,1.42989,1.9435,1.1302,1.27736,7.67427,28.9159,235.417,304.899
605,226.681,30.966,38.9145,85.9802,1.23443,2.1583,1.54316,7.34831,1.92471,3.68473,3.15437,1.56855,1.27162,0.945271,5.75724,28.8744,227.909,306.337
611,231.165,31.2181,39.6868,85.2352,2.65483,1.67221,5.0599,7.34831,3.7221,2.87042,1.42989,1.9435,1.1302,0.945271,6.71575,28.7706,264.469,307.733
617,216.5,32.5214,40.5331,83.8664,1.62181,1.54309,0.798798,7.34831,2.8234,3.68473,3.15437,0.818646,0.988774,1.11132,6.71575,28.729,183.347,309.035
623,224.68,30.219,39.1058,82.7181,2.41936,1.11016,0.47219,7.34831,1.02601,1.24181,2.29213,1.9435,1.27162,0.945271,5.75724,28.5837,173.639,310.131
629,202.087,31.4217,37.2767,80.3333,0.915411,0.882308,0.153177,7.34831,2.8234,2.05612,1.42989,1.9435,0.847352,1.27736,4.79872,28.3968,202.937,311.302
635,189.403,29.6761,35.9895,79.0336,0.345732,2.02918,0.578527,7.34831,2.8234,2.87042,2.29213,1.56855,0.988774,0.945271,7.67427,28.2514,199.232,312.497
641,191.399,28.8425,35.5351,77.6347,0.854645,0.510144,1.90775,7.34831,2.8234,2.05612,3.15437,1.1936,1.1302,1.27736,6.71575,28.0645,200.566,313.732
647,204.161,30.5623,35.7862,76.3039,0.490051,1.23169,2.6673,6.54595,2.8234,2.05612,3.15437,1.9435,0.988774,1.27736,6.71575,28.0645,204.734,315.004
653,197.865,31.566,36.5981,75.6698,2.22188,1.79373,2.46982,7.34831,1.92471,2.87042,2.29213,1.56855,0.988774,0.945271,6.71575,27.8569,246.872,316.336
659,194.93,31.9627,37.0303,74.5904,1.77373,3.00137,4.3839,6.54595,1.92471,2.87042,2.29213,1.56855,1.1302,1.11132,3.8402,27.7323,217.058,317.716
665,206.598,32.0808,38.1189,74.0824,1.50788,1.83171,0.26711,6.54595,2.8234,2.05612,2.29213,1.56855,0.847352,0.779224,6.71575,27.753,227.165,319.055
671,212.557,33.565,38.5505,73.663,1.05973,4.528,1.80141,7.34831,3.7221,2.87042,2.29213,1.9435,1.1302,1.11132,5.75724,27.5454,257.829,320.492
677,237.818,35.2023,40.0687,73.9825,5.03989,1.3608,3.7003,7.34831,4.62079,4.49903,2.29213,1.1936,1.1302,1.27736,5.75724,27.4208,244.015,321.96
683,217.385,35.8758,39.2858,73.2124,1.42432,1.30764,1.73305,8.15068,3.7221,2.87042,3.15437,1.9435,0.988774,1.44341,7.67427,27.4208,222.25,323.338
689,216.555,35.4534,39.2004,73.3851,2.54849,1.56587,0.601314,8.15068,3.7221,3.68473,3.15437,1.56855,1.1302,0.945271,6.71575,27.2339,246.707,324.786
695,219.291,34.8328,38.358,71.7502,2.32062,0.213931,0.327874,8.15068,3.7221,3.68473,1.42989,1.9435,0.988774,1.11132,5.75724,27.0677,257.721,326.339
701,219.142,36.2173,39.999,72.7404,5.79187,5.05966,2.98632,8.15068,2.8234,4.49903,4.01661,1.56855,0.988774,1.27736,6.71575,26.9639,293.34,327.979
707,225.187,39.0821,41.2547,73.94,3.2473,3.02415,1.75584,8.95304,3.7221,4.49903,4.01661,1.9435,0.988774,1.11132,7.67427,26.7147,295.805,329.751
713,227.524,39.2632,43.741,75.0714,4.28032,1.71778,4.16362,8.95304,3.7221,3.68473,2.29213,1.56855,0.847352,1.11132,6.71575,26.5901,282.688,331.466
719,239.002,39.167,44.388,75.967,2.42696,6.72301,0.60891,9.7554,3.7221,4.49903,2.29213,1.9435,0.988774,1.27736,6.71575,26.424,251.822,333.002
725,244.996,38.7621,42.0519,74.4321,2.1839,2.18109,0.89754,8.95304,3.7221,3.68473,4.01661,1.1936,1.27162,1.27736,7.67427,26.4448,251.863,334.53
731,248.655,37.9301,39.0983,73.5414,2.91309,2.78111,1.74065,8.95304,3.7221,3.68473,2.29213,1.9435,1.1302,1.60946,7.67427,26.2371,319.268,336.109
737,244.177,34.5913,37.5572,71.8071,3.7714,2.50768,0.730438,8.15068,5.51949,3.68473,3.15437,1.1936,0.988774,0.945271,7.67427,26.0917,308.442,337.963
743,231.98,35.8585,38.0745,71.7284,2.94347,2.64439,2.95593,8.15068,3.7221,3.68473,3.15437,2.31846,0.988774,1.11132,7.67427,25.9464,328.254,339.821
749,228.438,36.8837,39.8808,72.5874,2.74598,5.25714,0.776012,8.15068,2.8234,5.31334,4.01661,1.9435,1.1302,1.27736,5.75724,25.7387,295.143,341.683
755,248.608,40.7955,43.2623,73.4989,3.4296,1.77094,3.94335,9.7554,3.7221,3.68473,3.15437,2.31846,1.27162,1.27736,7.67427,25.5726,288.239,343.461
761,264.413,42.082,45.8451,74.7664,2.7156,1.95323,1.83939,8.15068,4.62079,3.68473,3.15437,1.56855,1.27162,1.11132,6.71575,25.3857,285.486,345.198
767,265.245,41.6409,45.4795,74.6984,3.04221,0.844332,3.34331,8.15068,4.62079,4.49903,4.01661,2.31846,0.988774,1.27736,7.67427,25.2403,281.457,346.847
773,261.274,42.2944,47.0207,75.3059,2.37379,1.3684,1.68748,8.95304,3.7221,4.49903,4.87886,1.9435,1.27162,1.27736,8.63279,25.1157,290.353,348.632
779,244.502,40.4916,43.8509,73.7131,1.73575,1.12535,0.525359,9.7554,2.8234,4.49903,4.01661,1.9435,1.1302,1.27736,8.63279,24.9288,276.593,350.295
785,233.311,38.9205,40.9072,71.7274,3.6043,2.37856,0.867158,8.95304,2.8234,5.31334,4.87886,1.9435,1.27162,0.945271,7.67427,24.7212,289.594,351.981
791,279.048,37.6033,38.0254,70.2863,0.376115,0.859522,1.77103,9.7554,4.62079,3.68473,4.87886,1.56855,1.1302,1.44341,7.67427,24.6173,257.973,353.609
797,242.476,42.5543,44.0894,74.4253,5.31334,2.21147,0.722843,9.7554,4.62079,4.49903,4.01661,1.9435,1.27162,1.11132,7.67427,24.3889,277.479,355.233
803,242.459,45.2605,46.2735,75.6668,2.92068,2.33299,1.19377,8.95304,2.8234,4.49903,4.01661,1.56855,0.988774,1.27736,7.67427,24.2228,301.438,356.976
809,237.958,43.648,45.6274,75.7097,4.31724,6.85432,4.76287,10.6011,3.50423,3.90904,3.26804,1.42984,1.19819,1.00803,7.65036,23.983,320.223,358.817
815,249.407,44.8254,49.2466,78.5007,5.83744,6.4268,6.45748,9.7554,3.7221,4.49903,4.01661,2.31846,1.27162,1.44341,8.63279,23.9113,375.011,360.93
821,263.334,45.8589,52.0504,82.3104,4.71327,3.7305,2.8344,10.5578,2.8234,4.49903,4.01661,1.9435,1.27162,1.44341,6.71575,23.7659,364.453,363.102
827,251.692,46.7697,55.6864,85.0104,1.96362,2.34818,4.26996,10.5578,3.7221,4.49903,3.15437,1.9435,1.41304,1.27736,8.63279,23.5998,370.697,365.308
833,293.902,50.0113,57.2912,86.9039,5.57919,2.85706,4.08767,11.3601,4.62079,5.31334,4.87886,2.31846,1.55446,1.44341,9.5913,23.4129,385.625,367.567
839,306.637,50.3124,57.4438,88.048,5.32093,4.77104,2.62932,11.3601,4.62079,4.49903,4.87886,2.31846,1.55446,1.60946,8.63279,23.2675,415.022,369.884
845,310.15,52.2545,60.261,91.8185,4.01447,5.06726,2.82681,12.1625,4.62079,4.49903,4.87886,2.31846,1.69588,1.60946,9.5913,23.0599,403.343,372.299
851,322.724,51.3997,60.1821,92.5122,4.15879,2.48489,2.86479,10.5578,3.7221,5.31334,4.01661,2.69341,1.8373,1.60946,12.4669,22.7276,504.042,374.839
857,294.315,53.7148,60.6862,93.4952,3.6043,1.5203,1.66469,12.1625,5.51949,4.49903,4.01661,3.06836,1.97873,1.7755,11.5083,22.6238,400.838,377.497
863,328.064,51.0828,58.6894,92.6749,2.91309,3.77607,3.60155,12.1625,5.51949,4.49903,5.7411,2.31846,2.12015,1.94155,12.4669,22.4161,436.766,379.874
869,314.133,55.4264,64.2656,94.652,6.17165,4.53559,2.43184,12.9649,4.62079,5.31334,4.01661,3.44331,1.97873,1.94155,11.5083,22.2708,443.327,382.529
875,328.8,56.5948,62.8961,94.2731,1.72056,3.82924,3.70789,12.9649,4.62079,5.31334,4.87886,2.69341,2.12015,2.1076,11.5083,21.9177,405.443,385.077
881,318.125,56.2579,60.6857,93.6419,3.61949,5.77361,1.96092,12.9649,5.51949,6.12764,4.01661,3.06836,1.97873,1.60946,11.5083,21.8347,396.163,387.466
887,344.783,54.6256,59.8293,95.5461,1.96362,2.81908,5.53842,12.1625,5.51949,4.49903,6.60334,3.44331,1.8373,2.1076,11.5083,21.4194,398.374,389.825
893,315.025,53.0603,62.3865,98.3683,7.49331,4.528,4.43706,12.9649,4.62079,5.31334,4.87886,2.69341,1.8373,1.7755,10.5498,21.3986,399.306,392.18
899,334.567,54.9361,64.3646,99.2115,1.97881,4.17862,4.00412,10.5578,2.8234,4.49903,4.01661,2.31846,1.69588,1.60946,10.5498,21.2325,317.973,394.213
905,312.467,53.6609,62.6906,97.9728,1.55345,0.669643,2.94074,10.5578,3.7221,4.49903,4.87886,2.31846,1.55446,1.7755,11.5083,20.921,300.018,395.978
911,341.732,50.9971,58.641,96.2718,0.763497,1.42157,5.50044,10.5578,4.62079,3.68473,3.15437,2.31846,1.69588,1.7755,9.5913,20.7548,295.061,397.709
917,285.014,46.2912,52.8869,93.3939,1.73575,2.6292,3.50281,10.5578,3.7221,4.49903,4.01661,1.9435,1.69588,1.27736,9.5913,20.5679,281.747,399.375
923,267.994,46.1692,54.3889,93.4201,4.60693,2.93301,2.75085,9.7554,3.7221,4.49903,2.29213,2.31846,1.55446,1.60946,7.67427,20.4018,269.39,401.016
929,274.473,46.2009,56.4475,93.8197,2.54849,5.50018,3.58636,7.34831,2.8234,3.68473,4.01661,2.69341,1.69588,1.60946,6.71575,20.2565,249.449,402.518
935,260.363,46.9262,56.2841,93.0675,3.79419,2.03678,1.33808,10.5578,4.62079,2.87042,2.29213,2.31846,1.27162,1.44341,7.67427,20.2565,241.903,404.067
941,249.298,47.8786,56.2366,92.5049,3.78659,0.0620274,2.35589,9.7554,4.62079,3.68473,1.42989,2.31846,1.41304,1.11132,7.67427,20.0903,254.206,405.575
947,242.78,46.5711,56.4102,93.856,0.383711,2.07475,2.17359,9.7554,2.8234,3.68473,4.01661,2.31846,1.41304,1.44341,7.67427,19.9242,286.164,407.247
953,245.539,46.5341,57.8463,95.5131,2.8827,4.73307,2.87238,9.7554,2.8234,4.49903,1.42989,1.56855,1.27162,1.44341,7.67427,19.7996,251.477,408.903
959,238.505,44.9655,55.8837,93.7717,2.95866,1.81652,2.56096,8.15068,1.92471,3.68473,4.01661,1.9435,1.41304,1.27736,8.63279,19.5919,232.499,410.399
965,255.756,44.1326,54.3195,92.8356,1.62181,0.593691,3.92057,8.15068,4.62079,2.87042,3.15437,1.9435,1.41304,1.11132,6.71575,19.5919,259.482,411.796
971,245.09,43.416,54.1981,91.9419,0.543221,3.59379,1.63431,9.7554,2.8234,3.68473,3.15437,1.9435,1.27162,1.27736,6.71575,19.4466,299.359,413.357
977,236.819,40.2159,49.5814,88.7432,1.4699,2.27223,0.981091,9.7554,4.62079,3.68473,2.29213,2.31846,1.41304,1.60946,7.67427,19.2389,238.495,415.014
983,220.268,39.0441,48.6774,89.2785,4.17398,4.92295,4.49023,8.95304,3.7221,3.68473,4.01661,2.31846,1.27162,1.27736,6.71575,19.0936,236.632,416.466
989,213.921,40.4179,50.3736,89.2732,3.2397,2.85706,1.24694,8.15068,1.92471,2.87042,3.15437,2.31846,1.27162,1.11132,5.75724,19.2597,232.001,417.835
995,231.565,40.1836,51.3238,89.8507,4.15879,2.35577,5.78148,8.15068,2.8234,3.68473,4.01661,1.9435,1.1302,1.27736,6.71575,18.9274,199.106,419.099
1001,222.833,40.1301,48.9043,88.7321,1.14328,2.06716,3.65472,8.95304,1.92471,4.49903,2.29213,1.56855,1.27162,1.44341,6.71575,18.7613,189.392,420.262
1007,214.735,40.0821,50.0403,88.8317,0.90022,2.66718,1.04186,6.54595,2.8234,3.68473,1.42989,1.9435,1.27162,1.11132,6.71575,18.7405,183.138,421.365
1013,202.26,39.2938,48.1479,87.1731,2.09275,1.35321,2.51539,8.15068,1.92471,2.87042,2.29213,2.31846,1.41304,1.27736,7.67427,18.5744,189.293,422.549
1019,191.711,37.0807,44.615,84.3351,1.98641,1.94563,1.39125,8.15068,1.92471,4.49903,3.15437,1.56855,1.27162,0.779224,5.75724,18.4498,173.118,423.644
1025,177.029,33.9962,40.9551,81.1267,5.41968,1.376,0.859563,5.74359,3.7221,4.49903,3.15437,1.56855,1.41304,1.11132,4.79872,18.2837,146.437,424.636
1031,189.457,30.656,37.5614,78.2657,2.5333,2.29501,1.00388,8.15068,2.8234,3.68473,3.15437,1.56855,1.27162,0.779224,6.71575,18.2421,145.229,425.468
1037,166.37,28.1934,34.8901,75.4994,0.231796,1.39878,0.297492,6.54595,1.92471,2.87042,3.15437,1.9435,1.1302,1.27736,6.71575,18.1175,148.325,426.359
1043,164.452,27.1702,33.086,73.1104,2.48013,0.5785,0.60891,6.54595,2.8234,3.68473,2.29213,2.31846,1.27162,1.11132,6.71575,17.9307,162.696,427.31
1049,147.82,26.6257,32.3568,71.8476,1.37115,3.44189,1.42923,6.54595,2.8234,2.87042,1.42989,1.1936,0.988774,1.27736,6.71575,17.9099,160.22,428.278
1055,162.89,26.5825,34.9379,72.9425,1.55345,3.82924,2.27233,6.54595,3.7221,2.87042,4.01661,1.56855,1.1302,1.11132,4.79872,17.7438,168.613,429.336
1061,156.314,28.3491,36.8029,74.1474,1.44711,0.75319,4.43706,6.54595,2.8234,2.87042,3.15437,1.9435,1.27162,1.11132,5.75724,17.7853,162.289,430.308
1067,156.866,29.0483,36.8988,73.8014,2.03958,1.48992,1.78622,5.74359,1.92471,2.87042,1.42989,1.56855,1.1302,0.945271,4.79872,18.9067,163.506,431.276
1073,164.247,30.0964,38.3499,74.1995,1.78892,1.26207,2.05206,6.54595,2.8234,2.87042,3.15437,1.9435,0.988774,1.11132,5.75724,15.6256,152.918,432.238
1079,154.783,28.354,37.7044,73.8955,4.04485,3.66215,2.06725,5.74359,2.8234,1.24181,2.29213,1.56855,0.988774,0.945271,6.71575,15.4803,144.9,433.133
1085,163.52,29.9618,39.261,73.4082,1.4699,4.88497,3.22937,5.74359,2.8234,4.49903,3.15437,1.1936,1.1302,1.11132,5.75724,16.7678,142.106,433.945
1091,154.886,29.8272,37.8587,71.2965,1.05213,0.37343,2.02168,7.34831,1.92471,2.87042,2.29213,1.1936,0.988774,1.11132,5.75724,16.7678,199.476,434.893
1097,143.054,26.0963,33.6312,68.5085,1.70537,0.684833,2.3255,4.94122,1.92471,3.68473,2.29213,1.1936,0.988774,0.945271,4.79872,16.4147,148.849,435.899
1103,135.635,26.3551,33.1758,68.5765,2.85992,0.130384,2.48501,5.74359,2.8234,0.42751,4.01661,1.56855,0.847352,1.27736,4.79872,16.4355,140.848,436.733
1109,142.252,25.4812,32.6452,68.0942,1.84969,0.479763,0.358257,4.94122,1.92471,1.24181,2.29213,1.1936,0.988774,0.945271,6.71575,16.5809,151.005,437.622
1115,143.953,24.0931,30.9659,67.5906,2.23707,1.72537,1.51278,5.74359,1.92471,2.05612,2.29213,1.1936,0.988774,0.945271,4.79872,16.6016,179.783,438.546
1121,137.493,23.0406,30.5679,67.1574,1.68509,3.92867,2.23395,7.01673,0.989091,3.513,3.55972,1.25127,0.732073,1.05435,5.80506,16.4235,163.913,439.608
1127,145.024,24.4603,30.2031,65.8548,2.13073,0.494953,0.89754,5.74359,1.92471,4.49903,2.29213,1.9435,1.1302,0.945271,5.75724,16.4147,146.9,440.564
1133,145.583,25.6909,31.2017,65.8756,3.52834,3.13808,1.68748,7.34831,1.92471,2.87042,2.29213,1.1936,1.1302,0.945271,4.79872,16.2694,169.787,441.48
1139,156.51,27.949,32.9982,66.3475,0.831858,4.80902,3.73827,5.74359,1.92471,2.05612,3.15437,1.9435,1.1302,0.945271,4.79872,16.2486,150.442,442.419
1145,144.44,26.9201,32.0117,66.1534,0.79388,3.28998,1.77103,6.54595,2.8234,2.87042,3.15437,1.9435,0.847352,1.44341,5.75724,16.124,130.553,443.262
1151,144.616,26.3,32.3707,65.3664,1.86488,1.57347,0.426616,4.94122,1.92471,2.05612,2.29213,1.1936,0.847352,0.779224,5.75724,16.1032,132.088,444.079
1157,145.445,25.9925,32.7781,64.9572,1.44711,1.10257,0.358257,5.74359,2.8234,3.68473,2.29213,1.56855,1.1302,0.779224,6.71575,15.9371,136.638,444.925
1163,140.33,23.33,30.3956,63.5822,1.30279,2.08235,2.34829,5.74359,2.8234,2.87042,3.15437,0.818646,0.988774,1.27736,5.75724,15.8125,134.539,445.746
1169,134.181,24.3837,29.525,62.1071,3.31566,1.6798,-0.0367118,5.74359,1.92471,1.24181,2.29213,1.1936,0.847352,1.11132,4.79872,15.8333,129.074,446.539
1175,134.671,23.8866,28.503,60.4104,2.92068,2.29501,1.89256,4.13886,1.02601,3.68473,4.01661,1.1936,0.847352,0.945271,6.71575,15.6256,153.005,447.408
1181,133.736,21.452,26.6448,59.5537,2.21428,1.67221,1.72545,5.74359,1.92471,2.87042,1.42989,1.1936,0.847352,0.945271,4.79872,15.6048,155.908,448.298
1187,132.03,19.6253,25.8466,60.3209,2.22947,2.86465,0.47219,4.13886,1.02601,2.87042,2.29213,1.1936,0.988774,0.945271,6.71575,15.4387,158.353,449.223
1193,128.497,19.9505,25.868,60.2314,3.36123,0.927879,1.16338,4.94122,2.8234,2.05612,2.29213,1.56855,0.847352,1.11132,6.71575,15.4595,154.178,450.151
1199,120.227,19.7443,25.6628,59.3325,1.40154,2.66718,1.18617,4.94122,1.92471,2.87042,3.15437,1.56855,0.847352,0.945271,2.88169,15.2726,151.343,451.053
1205,134.059,22.0091,27.614,59.0643,1.97122,2.73553,1.17098,5.74359,2.8234,2.87042,0.567643,1.56855,0.847352,1.27736,2.88169,15.3141,133.49,451.928
1211,129.677,22.3446,28.4376,58.8749,2.41936,1.39119,4.25477,4.13886,2.8234,2.87042,3.15437,0.818646,0.847352,1.11132,4.79872,15.0857,150.579,452.73
1217,133.852,22.523,28.4267,58.6434,0.869837,0.829142,1.9913,4.94122,2.8234,3.68473,3.15437,1.56855,0.847352,1.11132,4.79872,14.9403,129.117,453.562
1223,134.639,22.0196,28.3405,57.8965,1.65979,1.6798,0.251919,5.74359,3.7221,2.87042,2.29213,1.56855,0.988774,0.779224,5.75724,14.9403,140.142,454.382
1229,126.682,22.9231,29.2012,58.0385,1.56105,3.75329,1.48999,6.54595,1.92471,3.68473,2.29213,1.1936,0.847352,1.11132,4.79872,14.9611,129.595,455.188
1235,128.849,23.7339,29.6687,57.5385,2.80675,1.58107,2.87238,5.74359,2.8234,2.05612,2.29213,1.56855,0.988774,1.27736,5.75724,14.8157,114.583,455.929
1241,136.283,24.1769,30.2597,57.9697,1.25722,4.50521,3.16861,7.34831,1.92471,1.24181,4.01661,1.1936,0.847352,0.945271,3.8402,14.7742,102.96,456.567
1247,130.252,24.5117,28.8242,57.7066,2.06237,3.85962,0.905136,4.94122,1.92471,1.24181,2.29213,1.1936,0.564509,1.27736,4.79872,14.6911,107.022,457.22
1253,121.553,23.8524,27.4514,56.3646,0.284966,0.616476,0.411425,4.94122,2.8234,1.24181,2.29213,1.56855,0.988774,0.945271,7.67427,14.6081,129.345,457.975
1259,123.611,22.1811,26.6161,56.0644,1.98641,1.30764,0.905136,6.54595,1.92471,2.87042,1.42989,1.1936,0.70593,0.945271,5.75724,14.6081,105.555,458.679
1265,117.684,22.4787,25.7801,55.5431,1.22684,1.15573,0.487381,5.74359,1.92471,2.87042,1.42989,1.1936,0.988774,0.945271,4.79872,14.4419,109.498,459.333
1271,136.163,22.2729,26.632,55.4534,1.96362,0.570905,1.4748,5.74359,2.8234,2.87042,2.29213,1.56855,0.847352,0.779224,5.75724,14.4627,104.966,460.003
1277,130.723,23.4681,28.35,56.064,3.04981,1.61904,1.03426,4.94122,1.92471,2.05612,2.29213,1.1936,1.1302,0.779224,4.79872,14.2966,102.12,460.629
1283,119.873,23.4248,30.3394,57.7901,2.85232,3.64696,2.48501,4.94122,1.92471,3.68473,1.42989,1.1936,0.847352,0.945271,4.79872,14.2966,108.638,461.295
1289,128.178,24.9266,29.0492,57.4848,2.20668,2.34818,1.91534,5.74359,1.02601,2.87042,2.29213,1.56855,0.847352,0.945271,5.75724,14.1512,99.6026,461.909
1295,121.639,23.5597,28.7049,57.5531,0.239392,1.2089,3.63194,4.94122,1.02601,2.87042,1.42989,1.9435,0.847352,0.945271,3.8402,13.9436,111.019,462.582
1301,124.962,22.835,28.5865,57.2164,1.21924,4.63433,3.54839,4.94122,2.8234,2.05612,2.29213,1.1936,0.70593,0.779224,4.79872,13.7982,105.226,463.218
1307,118.986,22.2829,26.6797,56.3846,3.34604,2.65199,3.518,4.94122,2.8234,2.87042,2.29213,1.1936,0.70593,0.945271,4.79872,13.7982,112.228,463.893
1313,131.621,21.2486,26.9706,56.0791,0.786284,0.381025,3.20659,5.74359,2.8234,2.87042,1.42989,0.818646,0.70593,0.945271,3.8402,13.7774,116.892,464.589
1319,121.653,22.4504,29.3712,57.6894,2.67002,1.95323,2.53818,4.94122,1.02601,2.05612,3.15437,1.56855,0.847352,0.779224,4.79872,13.6321,112.938,465.264
1325,134.02,23.0508,29.4787,57.4999,3.30806,0.449382,1.71026,3.3365,1.02601,1.24181,2.29213,0.818646,0.847352,0.945271,4.79872,13.6528,137.993,465.996
1331,131.938,21.6003,28.6772,57.3788,1.87247,2.74313,2.18878,4.13886,2.8234,2.05612,2.29213,1.56855,0.70593,0.945271,5.75724,13.4659,185.602,466.879
1337,128.66,22.8017,29.2688,57.5891,2.34341,2.62161,2.05966,3.3365,1.02601,2.05612,2.29213,1.56855,0.70593,0.613177,5.75724,13.4244,103.115,467.693
1343,133.852,22.4066,28.0472,57.4258,0.421689,0.365835,1.17098,4.13886,1.92471,3.68473,2.29213,1.9435,0.70593,0.779224,5.75724,13.4244,113.218,468.319
1349,130.983,22.1305,27.2069,56.789,1.97122,1.18612,0.343065,3.3365,2.8234,2.05612,2.29213,1.1936,0.988774,1.11132,5.75724,13.2583,130.793,469.075
1355,128.98,20.3428,24.8607,55.4938,1.21164,1.26966,1.88496,5.74359,3.7221,2.87042,2.29213,1.56855,0.847352,0.779224,3.8402,13.1544,141.215,469.912
1361,120.785,20.1042,24.6985,54.8563,2.59407,4.01153,0.107604,5.74359,1.92471,2.87042,2.29213,0.818646,0.988774,1.11132,3.8402,13.1337,150.239,470.776
1367,134.589,21.0741,24.6443,53.8812,1.23443,2.40135,0.411425,5.74359,2.8234,2.87042,3.15437,1.1936,0.847352,1.11132,3.8402,13.1129,151.672,471.695
1373,129.79,20.7218,25.8802,54.092,1.73575,1.12535,3.32811,4.94122,1.92471,2.87042,2.29213,1.1936,0.564509,0.779224,4.79872,12.9468,155.566,472.573
1379,127.308,23.1794,26.1013,54.5293,1.20405,-0.00632932,0.358257,4.13886,1.92471,2.87042,2.29213,1.1936,0.70593,0.779224,4.79872,12.8222,137.492,473.434
1385,128.303,20.6674,25.9394,54.2604,3.20932,3.55581,1.02666,5.74359,1.92471,2.05612,1.42989,1.1936,0.847352,0.945271,3.8402,12.7807,124.476,474.206
1391,145.251,21.4204,25.8206,54.5133,1.95603,0.912689,0.616505,4.94122,1.92471,3.68473,2.29213,1.9435,0.847352,0.945271,6.71575,12.6353,116.531,474.904
1397,133.07,21.7017,25.9121,53.6803,2.25226,2.77351,0.350661,5.74359,3.7221,2.87042,3.15437,0.818646,0.70593,1.11132,3.8402,12.6145,109.888,475.573
1403,128.984,22.3404,27.416,53.8226,2.22947,2.13551,1.90015,5.74359,1.92471,3.68473,3.15437,0.818646,0.847352,0.945271,4.79872,12.6145,91.8967,476.19
1409,129.041,23.433,27.7498,54.7395,0.535625,3.01656,3.1914,4.94122,1.02601,2.05612,2.29213,0.443694,0.70593,0.779224,4.79872,12.4692,102.392,476.783
1415,127.229,23.0002,28.939,55.5716,4.18917,1.63423,4.24718,4.13886,1.92471,2.05612,3.15437,1.1936,0.70593,0.613177,4.79872,12.3238,97.4895,477.413
1421,129.534,21.7881,28.5248,56.1613,1.15847,1.69499,0.396234,4.13886,1.92471,2.05612,2.29213,0.818646,0.847352,0.945271,4.79872,9.62421,88.6241,477.96
1427,120.539,21.9666,27.6095,56.077,0.95339,4.92295,1.61152,2.53413,1.92471,3.68473,1.42989,1.1936,0.564509,0.945271,5.75724,9.64498,105.303,478.531
1433,119.96,22.2154,29.928,57.3873,1.4699,2.68996,1.67229,3.3365,1.92471,2.87042,0.567643,1.1936,0.564509,0.613177,3.8402,11.4724,116.131,479.203
1439,110.871,22.7402,28.9064,57.2346,1.84209,2.86465,2.96353,4.13886,1.92471,1.24181,2.29213,1.1936,0.70593,0.945271,3.8402,11.9915,118.488,479.908
1445,121.157,21.5058,28.5833,57.4712,3.14096,2.69756,1.4748,4.94122,1.02601,2.87042,3.15437,1.56855,0.564509,0.945271,4.79872,11.7631,97.3512,480.568
1451,124.287,19.5709,26.321,56.366,0.619178,2.3102,1.61152,3.3365,1.92471,2.05612,1.42989,1.1936,0.70593,0.779224,4.79872,11.7631,110.983,481.184
1457,134.363,18.6752,23.8429,54.5014,0.307753,1.47473,0.654483,4.13886,1.92471,1.24181,3.15437,1.1936,0.70593,0.945271,4.79872,11.6385,112.628,481.848
1463,118.619,18.9302,23.7942,54.3063,1.8193,0.927879,2.11283,3.3365,2.8234,1.24181,2.29213,1.1936,0.847352,0.779224,3.8402,11.4309,132.278,482.584
1469,121.811,19.9176,26.5147,55.2283,2.15351,0.426596,1.50518,4.13886,2.8234,3.68473,2.29213,1.1936,0.70593,0.945271,4.79872,11.2855,123.48,483.348
1475,140.807,19.8197,24.9823,54.6169,0.474859,0.867117,0.441808,4.13886,2.8234,2.05612,0.567643,1.1936,0.70593,0.945271,4.79872,11.3063,139.077,484.127
1481,137.944,20.1179,25.468,54.7223,3.53594,3.11529,2.03687,3.3365,2.8234,2.05612,3.15437,0.818646,0.847352,0.945271,3.8402,11.3063,118.93,484.892
1487,136.437,20.3726,25.2304,54.6378,0.573604,1.93804,0.669674,4.94122,1.02601,2.05612,2.29213,0.818646,0.564509,0.945271,1.92317,10.9948,127.941,485.652
1493,129.799,20.8114,26.4602,55.9492,1.31798,2.64439,1.24694,4.13886,1.92471,2.87042,2.29213,1.9435,0.70593,0.779224,4.79872,10.9532,132.859,486.474
1499,125.663,22.544,27.317,56.0122,1.62181,3.04694,0.396234,3.3365,1.02601,2.05612,1.42989,1.1936,0.70593,0.945271,5.75724,10.8079,139.398,487.281
1505,136.23,22.2624,26.1687,54.7427,0.960986,1.45954,4.77886,3.3365,1.92471,2.87042,2.29213,1.1936,0.988774,0.945271,5.75724,10.974,127.683,488.108
1511,141.332,21.5858,25.7966,54.8587,2.07756,1.77094,1.3077,3.3365,1.92471,2.05612,2.29213,1.1936,0.70593,0.945271,4.79872,10.7871,114.991,488.813
1517,132.875,20.9951,26.0768,55.5011,0.444476,4.11786,1.83939,4.94122,2.8234,2.05612,2.29213,1.56855,0.847352,1.11132,4.79872,10.7663,132.967,489.545
1523,133.053,19.3522,24.6681,55.1217,1.78892,2.4697,0.601314,4.13886,1.02601,2.87042,2.29213,1.56855,0.847352,0.945271,3.8402,10.621,130.697,490.342
1529,128.18,18.1198,23.6684,54.737,1.1053,2.30261,1.59633,5.74359,2.8234,2.05612,3.15437,1.1936,0.847352,1.11132,4.79872,10.6417,126.421,491.093
1535,120.522,18.1904,24.1547,54.9161,3.12577,1.08738,0.381043,4.94122,1.92471,1.24181,2.29213,1.1936,0.847352,0.613177,3.8402,10.4549,137.897,491.932
1541,129.634,16.7721,22.9707,54.3153,0.74071,1.48992,1.65709,4.13886,1.92471,2.05612,1.42989,1.1936,0.70593,1.11132,3.8402,10.4549,118.14,492.724
1547,117.259,16.0759,22.0507,53.7143,0.771093,4.70269,1.06464,4.94122,2.8234,2.05612,2.29213,1.56855,0.70593,0.945271,5.75724,10.1434,115.94,493.453
1553,137.822,15.5262,21.5416,53.4769,2.61685,1.33802,2.64452,4.13886,1.92471,2.87042,3.15437,1.56855,0.70593,1.27736,4.79872,10.1018,95.283,494.079
1559,137.274,17.2392,23.2841,54.7313,0.84705,4.73307,3.80663,4.13886,1.02601,2.87042,2.29213,1.56855,0.70593,0.779224,4.79872,10.1641,81.1044,494.609
1565,139.349,18.3255,23.8731,55.0103,1.65979,0.282288,1.20136,4.13886,1.92471,2.05612,2.29213,1.1936,0.847352,0.779224,4.79872,10.1641,82.6617,495.121
1571,136.575,16.9454,23.0674,54.5202,0.976177,2.30261,2.08245,4.13886,2.8234,2.87042,2.29213,1.1936,0.70593,0.945271,3.8402,9.95647,89.2699,495.599
1577,123.394,18.2655,22.8293,53.8455,0.421689,0.449382,0.593718,4.13886,1.02601,2.87042,3.15437,0.818646,0.70593,1.11132,3.8402,9.998,76.5936,496.086
1583,123.165,16.8093,21.2648,53.3181,0.338136,0.449382,0.981091,4.13886,1.92471,3.68473,2.29213,1.1936,0.988774,0.945271,4.79872,9.79034,70.3817,496.524
1589,122.668,14.8942,21.3676,53.1229,0.771093,3.51024,1.8242,2.53413,2.8234,2.05612,3.15437,1.1936,0.988774,0.945271,5.75724,9.64498,87.1971,496.962
1595,116.659,15.4547,21.4325,53.223,0.581199,1.6874,0.434212,4.94122,1.92471,2.05612,2.29213,1.56855,0.564509,0.945271,3.8402,9.81111,100.947,497.538
1601,111.928,16.7382,22.1416,53.3969,2.06237,2.04437,2.04447,4.13886,3.7221,4.49903,2.29213,1.56855,0.847352,0.945271,4.79872,9.62421,90.9006,498.126
1607,108.694,16.7327,23.2344,53.982,1.77373,1.92285,2.91036,4.13886,0.127315,2.87042,3.15437,1.56855,0.70593,1.11132,4.79872,9.45808,93.0606,498.668
1613,118.266,18.2321,24.0071,54.6247,1.18886,1.76335,3.54079,3.3365,1.92471,2.87042,1.42989,1.1936,0.70593,1.27736,3.8402,9.45808,102.765,499.256
1619,111.258,17.1618,23.699,54.73,1.90286,2.43932,2.11283,4.94122,1.02601,1.24181,3.15437,1.9435,0.988774,0.945271,5.75724,9.27119,84.924,499.785
1625,119.822,16.5094,22.9744,53.9869,0.0874774,0.305073,1.68748,4.94122,1.92471,2.87042,2.29213,1.1936,0.847352,1.44341,4.79872,9.31272,84.6157,500.283
1631,128.58,13.717,22.1302,54.0132,2.55609,1.11776,2.05966,3.3365,2.8234,1.24181,1.42989,1.56855,0.70593,1.27736,3.8402,9.14659,82.1258,500.809
1637,103.459,14.5448,21.475,53.3752,0.474859,0.441787,0.943114,4.94122,1.02601,3.68473,1.42989,1.9435,0.70593,1.27736,5.75724,9.08429,78.8999,501.295
1643,111.2,13.6242,19.1166,51.5233,0.945794,0.851927,1.66469,4.94122,1.92471,2.87042,1.42989,1.1936,0.847352,0.779224,5.75724,9.14659,83.1698,501.808
1649,105.85,13.5314,19.0242,50.879,1.27241,1.30004,0.107604,4.13886,2.8234,2.05612,1.42989,0.818646,0.423087,1.11132,3.8402,9.12582,79.5037,502.33
1655,107.222,13.3678,18.1391,50.4246,0.923007,1.33802,0.738034,4.94122,1.92471,2.87042,2.29213,0.818646,0.564509,0.945271,6.71575,8.98046,90.7914,502.846
1661,109.49,14.3809,18.8068,50.3716,0.63437,0.639262,1.02666,4.13886,1.92471,2.05612,1.42989,1.1936,0.988774,0.779224,4.79872,8.98046,76.6873,503.329
1667,108.505,14.0759,18.5408,50.0018,0.755901,1.3684,0.700056,3.3365,2.8234,2.87042,2.29213,1.56855,0.847352,0.945271,4.79872,8.79357,63.9744,503.757
1673,104.648,14.9907,19.7184,50.6305,0.649561,2.02159,1.36087,3.3365,3.7221,1.24181,4.01661,0.818646,0.70593,0.945271,4.79872,8.79357,88.367,504.225
1679,104.158,14.2063,18.7848,49.9804,1.09771,0.540524,0.981091,4.13886,2.8234,2.87042,2.29213,0.818646,0.70593,0.779224,4.79872,8.81433,89.6514,504.769
1685,106.165,13.3945,18.8878,50.0807,2.40417,3.68493,2.74326,4.13886,4.62079,2.05612,1.42989,0.818646,0.847352,1.11132,4.79872,8.6482,75.3043,505.249
1691,110.7,14.9195,19.6475,50.2286,2.80675,1.07978,1.61912,4.94122,1.92471,3.68473,1.42989,1.1936,0.70593,0.945271,3.8402,8.60667,89.5702,505.707
1697,110.445,14.9356,19.2458,50.3922,0.892624,1.5203,2.72807,4.13886,1.92471,2.87042,3.15437,1.1936,0.988774,0.945271,3.8402,8.46131,57.0012,506.129
1703,106.437,13.9661,18.6974,50.0433,1.88766,1.17852,1.83939,4.94122,1.92471,2.87042,3.15437,1.1936,0.847352,1.27736,6.71575,8.48207,56.8102,506.464
1709,100.266,14.9898,19.4517,49.927,1.57624,1.07219,0.0544347,4.13886,1.02601,2.87042,2.29213,1.1936,0.847352,0.779224,4.79872,8.48207,62.315,506.831
1715,108.429,14.2872,18.4474,48.9859,1.34077,1.34561,0.851967,3.3365,1.92471,3.68473,2.29213,1.1936,0.70593,0.613177,4.79872,8.29518,47.3139,507.147
1721,94.7386,14.3961,19.3538,49.0916,1.52307,0.586095,1.95332,5.74359,2.8234,2.05612,0.567643,0.818646,0.70593,0.945271,4.79872,8.31595,56.6268,507.445
1727,97.9785,13.8894,18.811,49.1549,0.95339,0.403811,0.563336,2.53413,1.92471,2.05612,0.567643,0.818646,0.564509,0.779224,3.8402,8.12905,50.9889,507.757
1733,94.2595,13.2626,18.1864,48.5096,1.28001,0.935474,0.54055,4.94122,1.92471,2.87042,2.29213,1.1936,0.564509,0.779224,4.79872,8.12905,49.3132,508.044
1739,86.9262,11.9651,16.8932,47.5836,0.0874774,1.33802,0.115199,4.13886,2.8234,1.24181,2.29213,1.1936,0.70593,1.11132,5.75724,8.12905,34.5953,508.281
1745,83.7182,11.7958,16.1916,47.5305,0.239392,1.71018,2.57616,3.3365,2.8234,2.05612,2.29213,0.818646,0.70593,0.779224,4.79872,8.12905,55.3709,508.529
1751,88.7581,10.4589,15.1251,47.1228,0.763497,1.2089,1.15579,4.13886,1.92471,2.05612,1.42989,1.56855,0.847352,1.11132,4.79872,7.98369,103.255,508.999
1757,76.7478,10.5952,15.1848,46.7361,1.96362,1.39119,1.65709,4.13886,1.92471,2.05612,2.29213,1.56855,0.847352,0.945271,4.79872,7.96292,76.2651,509.539
1763,85.1161,12.2208,17.0721,47.98,3.16375,2.02918,2.71288,4.13886,1.92471,2.05612,2.29213,1.56855,0.847352,1.11132,4.79872,7.94216,89.5479,510.018
1769,87.2336,13.1257,17.7078,48.0804,1.06733,2.80389,1.19377,2.53413,2.8234,2.05612,1.42989,0.818646,0.70593,0.779224,5.75724,7.94216,0.0,510.08
1775,87.1679,13.7958,17.9575,48.1755,0.63437,1.26966,0.844371,4.13886,2.8234,2.05612,2.29213,1.1936,0.847352,1.11132,3.8402,7.81756,0.0,510.08
1779,83.4757,13.3381,17.5772,47.8421,0.885028,1.08738,1.97611,4.94122,1.92471,2.87042,2.29213,1.1936,0.847352,0.779224,5.75724,7.77603,0.0,510.08