File: 01_Data/Camelback_Sofa/Furniture_Calorimeter/Camelback_Sofa_R2.csv
Time (s),Convective HRR,TCPlume1,TCPlume2,TCPlume3,DPPlume1,DPPlume2,DPPlume3,HF1,HF2,HF3,HF4,HF5,HF6,RAD2,RAD1,Load Cell,Heat Release Rate,Total Heat Released
-120,0.0,-4.86408,-5.00916,7.65417,-0.0171063,-0.0862277,-0.0100848,-0.256217,-1.02708,-0.773247,0.927454,0.0693189,-0.175886,0.613177,2.88169,38.1984,0.0,0.0
-115,0.46268,-5.25952,-5.09289,7.72501,-0.055085,-0.00268066,-0.0556581,0.546147,-0.128385,0.0410574,0.0652116,0.444271,-0.0344641,0.447131,3.8402,38.2399,0.0,0.0
-110,0.0,-5.72751,-4.93705,7.95459,-0.00951061,0.065676,-0.0632537,0.546147,-0.128385,0.855362,-0.797031,0.0693189,0.248379,0.447131,2.88169,38.2607,0.0,0.0
-105,0.0,-5.53246,-5.24879,8.03111,0.0588509,0.0125097,-0.0176804,-1.05858,0.77031,-0.773247,0.0652116,-0.305633,-0.0344641,0.779224,3.8402,38.0738,0.0,0.0
-100,0.0,-5.10362,-5.44373,8.10764,0.0208723,-0.00268066,-0.0708492,-0.256217,-0.128385,0.855362,-0.797031,0.0693189,-0.0344641,0.447131,3.8402,38.1984,0.0,0.0
-95,0.0,-6.20177,-5.60556,8.06368,-0.00191489,0.0125097,-0.0100848,-0.256217,-0.128385,-1.58755,-0.797031,0.444271,0.248379,0.779224,2.88169,38.2399,0.0,0.0
-90,0.0,-7.21819,-4.9039,8.36975,-0.0322978,-0.0406566,-0.0328715,-0.256217,0.77031,0.0410574,-1.65927,0.0693189,-0.175886,0.945271,3.8402,38.2399,0.0,0.0
-85,0.0,-6.01816,-5.34418,7.74617,-0.0474892,-0.00268066,0.0127018,-0.256217,-0.128385,0.0410574,0.0652116,-0.305633,-0.0344641,0.447131,1.92317,38.2191,0.0,0.0
-80,0.0,-5.00996,-5.27202,7.70221,-0.0247021,-0.017871,0.0886572,0.546147,-1.02708,0.0410574,0.0652116,0.0693189,-0.0344641,0.779224,3.8402,38.1984,0.0,0.0
-75,0.0,-6.12948,-5.2604,7.90493,-0.0322978,-0.017871,0.164613,0.546147,-1.02708,0.0410574,0.0652116,0.0693189,0.106958,0.613177,3.8402,38.2191,0.0,0.0
-70,0.0,-5.59471,-5.27202,7.89353,0.028468,0.0201049,0.0127018,0.546147,-0.128385,0.0410574,0.927454,0.0693189,-0.0344641,0.613177,3.8402,38.2607,0.0,0.0
-65,0.0,-6.18017,-5.54498,7.817,0.0132766,0.0125097,-0.0024893,0.546147,0.77031,-0.773247,0.0652116,-0.305633,-0.0344641,0.613177,4.79872,38.2399,0.0,0.0
-60,0.0,-6.4478,-5.18826,8.35835,0.127212,0.0808664,0.0278929,-1.05858,-0.128385,0.0410574,0.0652116,0.444271,-0.175886,0.447131,1.92317,38.2399,0.0,0.0
-55,0.0,-6.0298,-5.27783,7.65824,-0.0474892,-0.0634422,0.00510625,-1.05858,-0.128385,0.0410574,-0.797031,-0.680586,-0.0344641,0.613177,3.8402,38.2607,0.0,0.0
-50,0.0,-5.78979,-5.34999,7.28125,0.00568084,-0.055847,-0.0176804,-1.05858,0.77031,0.0410574,0.0652116,0.444271,-0.175886,0.613177,3.8402,38.2191,0.0,0.0
-45,0.0,-4.93785,-5.12192,7.50517,-0.0626807,0.0201049,0.172208,0.546147,-0.128385,-0.773247,-0.797031,0.0693189,0.106958,0.447131,2.88169,38.0115,0.0,0.0
-40,0.0,-6.49269,-5.23304,7.62567,-0.0171063,0.0960568,0.0734662,-0.256217,0.77031,0.855362,-0.797031,-0.305633,-0.0344641,0.613177,3.8402,38.2399,0.0,0.0
-35,0.0,-5.63372,-5.46697,7.93179,0.0664466,0.0201049,-0.0024893,-0.256217,0.77031,0.0410574,-0.797031,0.444271,0.106958,0.613177,3.8402,38.053,0.0,0.0
-30,0.0,-5.59471,-5.74004,7.85527,0.0208723,-0.00268066,0.00510625,0.546147,0.77031,-0.773247,0.927454,-0.680586,-0.0344641,0.779224,3.8402,38.0322,0.0,0.0
-25,0.0,-5.96335,-5.75748,7.76164,0.0512552,-0.0330614,-0.040467,-0.256217,-0.128385,-0.773247,0.0652116,0.0693189,0.106958,0.613177,3.8402,38.2191,0.0,0.0
-20,0.0,-5.95172,-5.5898,7.77304,0.028468,0.0808664,-0.0480626,-0.256217,-0.128385,0.0410574,0.927454,0.0693189,0.248379,0.613177,2.88169,38.1984,0.0,0.0
-15,0.0,-6.3813,-5.62881,7.61997,-0.00951061,-0.0634422,-0.0936358,-0.256217,-1.02708,0.855362,-0.797031,0.0693189,-0.0344641,0.779224,3.8402,38.2399,0.0,0.0
-10,0.0,-5.87365,-5.5898,7.4669,0.0132766,-0.0634422,-0.0708492,-1.05858,-1.02708,0.0410574,0.0652116,0.444271,-0.0344641,0.613177,3.8402,38.2191,0.0,0.0
-5,0.0,-5.61796,-5.52922,7.48807,-0.055085,0.00491453,0.043084,0.546147,-0.128385,0.0410574,0.0652116,0.444271,-0.175886,0.281084,3.8402,38.2399,0.0,0.0
0,0.0,-5.84626,-5.67945,7.60857,0.00568084,0.0352953,0.0354884,0.546147,-0.128385,0.855362,0.0652116,-0.680586,0.106958,0.779224,3.8402,38.2814,0.0,0.0
5,0.0,-5.99657,-5.5566,7.69081,0.0664466,0.00491453,-0.0784448,1.34851,-0.128385,-0.773247,-0.797031,-0.305633,0.106958,0.447131,3.8402,38.2607,0.0,0.0
10,0.0,-5.65697,-5.84135,7.71767,-0.0398935,-0.00268066,-0.0860403,2.15087,-0.128385,-1.58755,-0.797031,0.0693189,0.106958,0.447131,1.92317,38.2191,0.0,0.0
15,0.0,-6.88944,-5.78488,7.65824,-0.00191489,-0.0482518,0.00510625,-0.256217,1.66901,0.0410574,0.0652116,-0.305633,-0.175886,0.779224,3.8402,38.2399,0.0,0.0
20,0.0,-6.23669,-5.67945,7.72337,-0.0171063,-0.0330614,-0.0100848,-0.256217,0.77031,0.855362,-0.797031,-0.680586,-0.0344641,0.779224,1.92317,38.2399,0.0,0.0
25,0.0,-6.39876,-5.68526,7.37326,-0.00191489,-0.017871,-0.0784448,-1.05858,0.77031,0.0410574,0.0652116,0.444271,0.248379,0.613177,0.964651,38.2399,0.0,0.0
30,0.0,-5.90274,-5.77493,7.40012,0.0360637,-0.0938229,-0.0708492,-0.256217,0.77031,0.0410574,-0.797031,-0.305633,0.106958,0.779224,2.88169,38.2191,0.0,0.0
35,0.0,-6.28157,-5.52922,7.6794,0.028468,-0.0102758,0.0582751,0.546147,-1.02708,0.855362,0.927454,-0.680586,-0.0344641,0.613177,4.79872,38.2191,0.0,0.0
40,0.0,-5.81886,-5.76912,7.6737,0.00568084,-0.0254662,-0.0176804,0.546147,0.77031,-0.773247,1.7897,0.819224,0.106958,0.779224,4.79872,38.2191,0.0,0.0
45,0.0,-5.38977,-5.49603,8.01808,0.248744,0.0125097,-0.0100848,1.34851,0.77031,0.0410574,0.927454,-0.305633,-0.0344641,0.779224,3.8402,38.2399,0.0,0.0
50,0.0,-5.31761,-5.50185,8.0889,0.172787,0.0277001,-0.0328715,-1.05858,-0.128385,0.0410574,-0.797031,0.0693189,-0.0344641,0.779224,4.79872,38.2399,10.2679,0.031798
55,0.0,-4.53277,-5.45703,8.05634,-0.00951061,-0.0786325,-0.040467,-0.256217,-0.128385,-0.773247,0.0652116,0.444271,0.106958,0.613177,3.8402,38.2399,24.7763,0.116505
60,0.09685,-5.86371,-4.72247,8.73925,-0.0398935,-0.0786325,-0.0556581,2.15087,1.66901,0.0410574,0.927454,0.0693189,-0.0344641,0.779224,3.8402,38.2191,43.4002,0.303524
65,2.79527,-5.0506,-5.1178,8.04494,-0.0247021,-0.109013,-0.040467,1.34851,-0.128385,1.66967,0.927454,0.444271,-0.0344641,0.779224,3.8402,38.2607,54.3892,0.554718
70,5.27819,-3.53367,-4.88404,8.12146,0.0816381,-0.101418,0.0278929,0.546147,1.66901,1.66967,0.927454,0.0693189,0.248379,0.613177,1.92317,38.2399,58.5458,0.832936
75,11.9474,-4.89478,-4.76721,8.46578,0.0512552,-0.0254662,-0.040467,0.546147,0.77031,2.48397,-0.797031,0.0693189,0.106958,0.779224,3.8402,38.2191,76.0376,1.14644
80,17.2473,-4.50545,-4.76721,8.7718,0.0664466,0.0504857,0.0202973,0.546147,0.77031,0.0410574,1.7897,0.444271,0.248379,0.779224,3.8402,38.0738,76.9441,1.53129
85,25.0399,-3.80554,-4.80615,9.23076,0.0816381,0.270746,0.0734662,2.15087,0.77031,0.855362,0.927454,0.819224,0.248379,0.779224,4.79872,38.0322,99.1001,1.98599
90,29.7699,-3.13982,-4.13882,9.54239,0.233553,0.0960568,-0.0632537,1.34851,1.66901,0.855362,0.927454,0.0693189,0.389801,0.945271,4.79872,38.0738,118.962,2.53701
95,39.6585,-3.03504,-4.15041,9.72217,-0.00191489,-0.0482518,-0.0024893,2.15087,1.66901,1.66967,0.927454,0.0693189,0.389801,0.945271,5.75724,38.0322,125.24,3.16866
100,39.3142,-2.91873,-3.9949,10.6778,0.15,0.270746,-0.0100848,2.15087,1.66901,0.855362,0.927454,0.444271,0.531223,1.11132,4.79872,38.0738,140.638,3.82599
105,47.7261,-0.183271,-1.86862,10.5957,0.332297,0.240365,0.0202973,2.95324,1.66901,2.48397,0.927454,0.444271,0.389801,0.779224,4.79872,38.0738,149.894,4.56195
110,61.9065,3.70123,-0.809487,11.3006,0.355084,-0.055847,-0.146805,2.15087,2.5677,2.48397,0.927454,0.444271,0.531223,0.945271,4.79872,38.053,170.625,5.35237
115,72.0409,2.53548,-0.711163,11.9329,0.0588509,-0.0254662,-0.0632537,4.55796,1.66901,3.29828,2.65194,0.819224,0.672645,1.11132,5.75724,37.8869,240.155,6.32046
120,87.4353,4.57037,-0.0131007,13.0457,0.0816381,-0.017871,-0.0100848,4.55796,2.5677,1.66967,2.65194,0.819224,0.672645,1.44341,4.79872,37.9076,248.107,7.53062
125,87.4165,4.36754,-0.485933,13.3778,0.195574,-0.017871,0.0127018,4.55796,3.4664,4.11258,0.927454,1.19418,0.955488,1.27736,4.79872,37.8869,306.654,8.88362
130,99.831,4.98006,-0.332056,13.8357,1.33493,-0.116608,0.0582751,6.16269,2.5677,4.11258,1.7897,1.56913,0.955488,1.27736,5.75724,37.7,320.281,10.4347
135,135.109,5.51025,0.505718,14.7071,0.233553,0.604934,0.194995,5.36033,4.36509,4.92688,3.51418,1.19418,0.955488,1.7755,6.71575,37.7208,340.348,12.0545
140,138.746,7.73541,1.65994,15.2845,0.704487,0.0884616,-0.0100848,6.96505,4.36509,4.11258,2.65194,1.56913,1.09691,1.60946,6.71575,37.5546,340.164,13.7395
145,167.485,8.42388,2.46398,16.0084,0.271531,-0.017871,0.194995,6.96505,4.36509,4.11258,4.37643,1.56913,1.09691,1.7755,7.67427,37.3885,345.477,15.4345
150,174.949,10.6792,2.54056,16.9984,0.400658,0.0428905,-0.0556581,7.76742,4.36509,6.55549,4.37643,1.94408,1.23833,1.44341,7.67427,37.4508,359.112,17.2205
155,196.341,12.119,2.95032,18.1664,0.165191,0.0201049,0.0127018,8.56978,4.36509,4.11258,4.37643,1.94408,1.37975,1.44341,7.67427,37.2016,436.983,19.1824
160,203.225,10.4499,3.99551,19.09,0.20317,0.794814,-0.0176804,6.96505,6.16248,5.74119,3.51418,2.31903,1.23833,1.7755,8.63279,37.2016,449.456,21.2906
165,207.472,12.2774,3.76008,19.7302,0.62853,0.0504857,0.141826,7.76742,5.26379,6.55549,4.37643,1.94408,1.52118,1.94155,8.63279,37.0562,468.85,23.5139
170,212.174,15.5892,5.13262,20.5977,0.195574,0.0352953,0.043084,10.1745,6.16248,5.74119,3.51418,1.94408,1.52118,1.94155,7.67427,37.077,561.111,25.9818
175,252.653,14.0324,6.17181,21.3621,-0.0398935,-0.131799,0.0962528,9.37215,6.16248,5.74119,3.51418,2.69399,1.23833,1.94155,9.5913,36.9109,530.862,28.7442
180,258.85,18.057,8.0735,22.7911,4.27448,0.40746,0.377288,10.9769,7.06118,6.55549,5.23867,3.06894,1.6626,2.60574,9.5913,36.7447,526.402,31.451
185,272.987,22.3076,14.299,26.0438,1.16023,3.3468,1.26597,14.1863,7.95987,8.1841,4.37643,3.06894,1.94544,2.27365,10.5498,36.5579,557.025,34.3558
190,332.467,28.5461,19.3659,28.9534,2.32997,3.21008,0.248164,12.5816,7.95987,8.1841,3.51418,3.81884,1.80402,2.27365,11.5083,36.3917,644.625,37.4179
195,314.209,35.7794,26.8122,34.7639,3.18829,0.893552,0.833021,15.7911,8.85857,8.99841,6.96315,3.44389,2.08686,2.60574,11.5083,36.2256,797.914,40.8276
200,318.315,43.6934,32.3174,36.6088,2.39833,0.711267,0.119039,14.1863,7.95987,7.3698,6.10091,3.06894,2.08686,2.60574,11.5083,36.0595,807.628,44.7935
205,346.853,45.5441,31.1476,37.6497,1.04629,6.25576,0.415266,16.5934,9.75726,10.627,6.10091,3.81884,2.51113,2.93783,13.4254,35.8518,763.63,48.7626
210,388.485,50.3896,36.838,40.517,4.85935,4.62279,0.119039,18.1981,10.656,11.4413,6.96315,3.81884,2.65255,2.93783,15.3424,35.748,826.627,52.7983
215,474.308,56.557,43.3652,42.347,3.08954,2.7164,0.779852,18.1981,9.75726,10.627,6.96315,4.1938,2.65255,3.43597,15.3424,35.5818,930.964,57.0156
220,489.227,62.8778,50.4754,47.4281,3.1655,2.22271,1.17482,20.6052,13.352,13.0699,7.8254,4.9437,3.21824,3.60202,17.2594,35.2704,970.235,61.7347
225,478.335,66.5125,55.6793,53.1974,5.17837,5.51143,2.25339,22.21,11.5547,13.0699,8.68764,6.06856,3.50108,3.60202,19.1765,35.0627,974.62,66.5842
230,511.765,68.6459,60.8742,59.2467,1.95019,5.26079,1.47105,25.4194,13.352,13.0699,7.8254,5.6936,3.78392,4.10016,20.135,34.8966,1015.59,71.6469
235,584.882,79.0952,76.8347,67.9176,4.65426,6.15702,1.47864,27.0241,14.2507,13.8842,9.54988,5.6936,3.92535,4.26621,22.052,34.5435,1276.76,77.1838
240,607.582,86.3534,84.5678,74.7712,6.98615,4.89622,1.41028,26.2218,13.352,14.6985,8.68764,5.6936,4.06677,4.26621,21.0935,34.4397,1119.05,82.8303
245,599.237,91.7489,88.7113,84.5967,1.76029,3.84049,0.88619,28.6289,13.352,14.6985,11.2744,6.44351,4.06677,4.43225,22.052,34.0659,1139.75,88.2122
250,630.101,95.7288,95.6684,95.4114,9.93329,8.60267,1.10646,29.4312,15.1494,16.3271,11.2744,6.81846,4.77388,4.76435,24.9276,33.7337,1228.63,94.176
255,801.954,114.332,123.705,123.714,4.28207,4.49367,5.89165,31.036,16.0481,15.5128,11.2744,7.19341,4.77388,5.26249,25.8861,33.4014,1274.47,100.617
260,675.224,125.299,129.285,134.179,7.92042,4.97976,2.33694,30.2336,14.2507,13.8842,9.54988,6.81846,4.63245,4.76435,25.8861,33.1107,1289.9,107.178
265,693.764,120.783,129.29,142.554,3.57567,3.82529,8.38299,36.6525,16.9468,19.5844,13.8611,7.94332,5.19814,5.42853,28.7616,32.6954,1332.65,113.803
270,765.924,127.851,147.191,160.493,8.64202,6.98489,4.34976,38.2572,17.8455,17.9558,12.9989,9.06818,5.90525,6.09272,31.6372,32.4462,1411.97,120.565
275,771.782,143.653,161.648,183.754,8.33819,5.30636,10.8895,41.4667,17.8455,17.9558,13.8611,9.44313,6.04667,6.42481,33.5542,32.0931,1533.06,127.589
280,782.868,146.981,171.057,193.15,4.73782,6.0203,4.72954,39.0596,15.1494,16.3271,12.9989,9.44313,5.76383,6.42481,32.5957,31.7401,1442.31,135.116
285,812.499,144.603,166.222,199.454,6.05188,7.31149,4.01555,39.0596,15.1494,16.3271,12.9989,9.44313,6.04667,6.42481,32.5957,31.3871,1360.81,142.222
290,866.909,154.644,182.894,220.242,3.28703,9.8179,8.22349,41.4667,15.1494,16.3271,13.8611,9.44313,6.75378,6.75691,35.4713,30.951,1351.89,149.301
295,951.235,147.479,181.099,225.098,2.60342,14.1396,4.51686,39.0596,16.0481,17.9558,12.9989,10.193,7.03662,7.089,34.5127,30.5772,1430.13,156.418
300,900.542,149.107,174.649,220.888,7.4343,4.09872,7.25126,43.0714,16.9468,19.5844,14.7233,11.6928,8.02658,7.58714,39.3053,30.1411,1497.82,163.686
305,847.843,142.569,164.59,215.993,4.31246,5.43547,7.54748,41.4667,17.8455,17.9558,15.5856,10.9429,7.88516,7.75319,39.3053,29.7258,1390.62,170.934
310,845.263,143.853,166.19,218.653,10.3435,4.07594,8.33742,40.6643,16.0481,18.7701,13.8611,11.3179,7.74373,7.58714,38.3468,29.4143,1363.87,177.835
315,890.953,141.97,168.596,223.138,9.31804,2.86071,7.65382,38.2572,15.1494,15.5128,12.9989,10.568,7.46089,7.25505,36.4298,29.0613,1496.01,184.931
320,927.684,139.819,165.967,222.531,4.86694,11.7547,8.8767,36.6525,13.352,15.5128,13.8611,10.193,6.61236,6.59086,35.4713,28.7706,1345.59,191.812
325,871.557,141.323,162.572,221.045,3.90229,3.89365,13.4796,35.8501,13.352,14.6985,12.9989,9.81808,6.75378,6.25877,34.5127,28.4175,1360.41,198.876
330,862.226,135.335,160.904,222.91,4.4112,8.63305,7.99562,34.2454,12.4534,16.3271,12.1366,9.06818,6.75378,6.59086,34.5127,28.0645,1462.35,205.994
335,949.29,133.449,161.963,223.436,6.37849,5.98233,5.58024,35.8501,15.1494,16.3271,12.9989,10.193,7.17805,6.92295,36.4298,27.7323,1349.98,213.027
340,848.1,135.223,164.291,221.696,10.0092,5.35193,9.94008,38.2572,14.2507,15.5128,12.1366,10.568,7.17805,6.92295,38.3468,27.4208,1350.44,219.813
345,862.375,144.307,172.022,226.317,9.43957,11.3901,8.99823,36.6525,14.2507,13.8842,13.8611,9.81808,7.17805,6.92295,37.3883,27.0885,1326.86,226.365
350,937.664,139.421,166.327,228.953,5.23913,3.24047,6.27143,31.036,11.5547,12.2556,11.2744,9.44313,6.32952,6.25877,31.6372,26.7562,1192.43,232.685
355,880.035,134.363,164.754,229.396,3.78076,9.60523,3.53703,31.8383,11.5547,12.2556,11.2744,8.31827,6.18809,5.76063,30.6787,26.424,1364.53,238.852
360,891.88,125.862,158.683,226.421,5.53537,8.42038,5.43592,31.036,11.5547,13.0699,12.9989,9.06818,6.75378,6.25877,31.6372,26.154,1142.24,245.333
365,885.698,121.664,157.835,222.694,10.2523,10.4179,6.78033,26.2218,9.75726,10.627,10.4121,7.94332,5.90525,5.42853,26.8446,25.7802,1120.26,251.197
370,797.284,118.2,151.993,216.547,1.71472,3.8177,7.12973,22.21,10.656,10.627,8.68764,6.81846,5.05672,5.09644,24.9276,25.4272,1003.9,256.349
375,917.611,113.256,144.388,209.552,3.24905,5.04812,1.53181,18.1981,7.95987,9.81271,7.8254,5.6936,4.49103,4.43225,21.0935,25.095,819.877,260.945
380,778.299,105.322,133.079,200.861,4.44918,2.93666,3.57501,16.5934,7.06118,6.55549,7.8254,4.9437,3.6425,3.76807,18.218,24.9911,722.929,264.749
385,783.382,98.2417,122.41,191.788,0.195574,3.47592,2.48885,14.1863,6.16248,4.92688,5.23867,4.9437,3.07681,3.43597,15.3424,24.7835,653.362,268.147
390,727.927,89.9437,113.042,184.438,4.75301,4.48608,4.84347,12.5816,6.16248,5.74119,5.23867,3.44389,2.79397,2.93783,13.4254,24.4927,589.399,271.268
395,632.819,83.487,105.446,177.34,4.06939,4.19746,4.9574,10.9769,5.26379,4.11258,3.51418,2.69399,2.36971,2.43969,13.4254,24.4304,601.664,274.244
400,580.534,76.0227,98.408,171.442,2.44391,6.58235,4.86626,11.7792,4.36509,4.92688,5.23867,3.06894,1.94544,2.43969,12.4669,24.2228,489.58,276.859
405,536.995,71.44,92.7363,165.57,5.39864,5.82283,4.14468,10.1745,5.26379,4.92688,3.51418,3.06894,1.80402,2.1076,11.5083,23.9321,464.663,279.164
410,480.473,66.2314,85.608,158.794,2.1097,1.64548,2.98256,8.56978,3.4664,3.29828,4.37643,1.94408,1.80402,2.1076,9.5913,23.9528,411.762,281.295
415,513.196,62.5761,80.1947,152.05,0.727275,2.88349,2.75469,6.96505,2.5677,3.29828,3.51418,2.31903,1.6626,2.27365,9.5913,23.7867,367.017,283.241
420,426.887,58.0369,74.5322,146.462,2.26921,1.67586,1.62296,6.16269,2.5677,2.48397,3.51418,2.69399,1.6626,2.1076,8.63279,23.6413,339.65,285.07
425,404.27,54.2532,70.1066,141.559,1.41089,2.92147,2.01793,6.96505,3.4664,3.29828,3.51418,1.94408,1.52118,1.60946,6.71575,23.4337,330.348,286.799
430,368.749,51.8912,66.9152,136.091,1.50204,3.22527,1.63055,6.96505,3.4664,2.48397,3.51418,2.69399,1.23833,1.60946,8.63279,23.4752,314.604,288.395
435,323.285,49.1984,63.323,131.057,1.70712,1.37205,1.81285,5.36033,2.5677,3.29828,2.65194,1.94408,1.37975,1.94155,8.63279,23.2883,363.021,290.001
440,304.903,45.4621,60.1311,127.049,1.78308,3.92403,0.74947,5.36033,3.4664,1.66967,1.7897,1.94408,1.09691,1.44341,8.63279,23.1222,334.352,291.74
445,294.682,43.4571,56.8927,122.371,1.60838,2.46576,2.89901,6.16269,1.66901,1.66967,3.51418,1.19418,1.23833,1.27736,7.67427,22.9561,317.032,293.368
450,281.954,41.7149,55.6825,118.83,2.61101,2.98982,2.83065,4.55796,0.77031,1.66967,1.7897,1.56913,0.955488,1.27736,7.67427,22.9561,292.649,294.877
455,315.698,40.678,54.2133,114.776,2.2844,1.79738,0.141826,5.36033,1.66901,1.66967,3.51418,1.56913,1.09691,1.27736,6.71575,22.7484,260.353,296.288
460,297.495,37.433,51.2972,111.505,2.6338,2.82273,1.49383,5.36033,1.66901,2.48397,1.7897,1.19418,0.955488,1.11132,5.75724,22.7484,262.827,297.574
465,288.628,35.7079,48.8882,107.605,0.803232,2.73918,2.21541,4.55796,2.5677,3.29828,2.65194,1.56913,0.955488,1.60946,7.67427,22.8107,240.935,298.822
470,274.5,34.4725,47.1108,104.458,1.09947,1.49357,3.0813,3.7556,1.66901,0.855362,1.7897,0.819224,0.955488,1.27736,7.67427,22.5407,212.841,299.972
475,252.429,33.9592,46.5288,102.14,1.66914,0.946718,1.00012,3.7556,2.5677,3.29828,2.65194,1.56913,0.672645,1.27736,5.75724,22.603,264.787,301.117
480,241.242,31.4136,45.0878,99.8556,2.1021,0.703672,3.54463,3.7556,1.66901,1.66967,2.65194,1.56913,0.672645,1.11132,7.67427,22.4369,209.809,302.262
485,224.227,30.3181,41.8493,96.3834,1.94259,0.597339,0.438052,2.95324,0.77031,1.66967,2.65194,1.56913,0.672645,1.11132,7.67427,22.2708,191.962,303.251
490,204.446,29.1574,40.5145,93.2586,1.66155,2.13157,0.453243,3.7556,1.66901,1.66967,0.0652116,0.819224,0.672645,1.44341,5.75724,22.2915,189.634,304.241
495,242.027,28.2913,38.8743,90.7202,2.89206,1.51636,0.354501,2.95324,0.77031,1.66967,2.65194,0.444271,0.672645,1.11132,5.75724,22.1254,187.171,305.184
500,193.843,26.6323,37.3063,88.331,2.32238,0.901147,1.49383,2.95324,1.66901,0.855362,1.7897,0.819224,0.672645,1.27736,5.75724,22.25,186.199,306.119
505,176.243,25.9264,35.3731,85.9544,1.08427,0.620125,1.74449,3.7556,0.77031,1.66967,1.7897,0.819224,0.531223,0.945271,4.79872,22.0839,178.619,306.989
510,177.999,24.9933,33.7363,83.6526,1.93499,0.604934,1.19001,2.15087,2.5677,1.66967,0.927454,0.819224,0.531223,0.945271,5.75724,21.9177,203.475,307.954
515,180.868,23.3671,31.5977,80.9373,0.765253,0.734053,0.225377,2.95324,-0.128385,3.29828,0.0652116,1.56913,0.672645,1.11132,5.75724,21.98,208.971,308.925
520,176.54,22.3335,30.3087,78.3222,0.826019,0.323912,0.506412,2.15087,1.66901,0.855362,0.0652116,0.819224,0.531223,1.11132,5.75724,21.98,186.763,309.928
525,159.994,21.7328,30.5775,76.7507,2.38314,1.34167,2.15465,1.34851,0.77031,1.66967,0.927454,0.819224,0.531223,0.945271,5.75724,21.7516,174.825,310.827
530,173.373,21.8086,30.3896,74.5505,1.12225,0.506197,0.415266,2.95324,0.77031,0.855362,2.65194,1.56913,0.248379,0.945271,5.75724,21.7931,155.272,311.64
535,177.246,20.8721,29.0839,72.5811,2.17046,1.88852,1.01531,2.15087,2.5677,0.855362,0.927454,0.819224,0.389801,0.945271,4.79872,21.8347,138.718,312.379
540,160.282,20.6768,28.4004,70.4483,1.15264,1.26572,0.536794,2.95324,0.77031,0.0410574,0.927454,0.819224,0.389801,0.945271,3.8402,21.6478,138.335,313.098
545,158.46,19.707,26.4943,68.5203,0.712083,1.43281,0.453243,2.15087,-0.128385,0.0410574,0.927454,0.444271,0.389801,0.945271,2.88169,21.6686,138.462,313.776
550,151.042,19.5494,25.8469,66.7533,0.499403,0.323912,0.931763,2.15087,1.66901,0.0410574,0.927454,0.819224,0.389801,0.613177,4.79872,21.5024,127.696,314.42
555,138.069,19.0614,25.4371,65.1434,1.2134,0.468221,0.54439,1.34851,-1.02708,0.0410574,0.0652116,0.819224,0.389801,0.945271,3.8402,21.5024,144.562,315.07
560,139.49,18.1056,23.7681,63.3381,1.0387,1.03786,0.111444,1.34851,-0.128385,1.66967,0.927454,0.444271,0.248379,0.779224,4.79872,21.4609,111.986,315.692
565,144.619,17.2423,22.4922,61.6218,0.393063,1.20495,0.0582751,1.34851,-1.02708,0.855362,0.927454,0.819224,0.672645,0.945271,3.8402,21.4817,110.627,316.268
570,135.348,16.2528,21.507,59.7094,1.35012,0.392269,0.61275,2.15087,1.66901,0.855362,0.0652116,0.444271,0.248379,0.779224,4.79872,21.3363,102.993,316.8
575,149.682,15.295,20.9326,58.5263,0.750062,0.893552,0.293737,2.15087,1.66901,1.66967,0.927454,0.819224,0.389801,0.945271,5.75724,21.4817,99.9217,317.322
580,119.096,14.3593,19.887,56.8489,0.476616,0.278341,0.643132,2.15087,-1.02708,0.855362,0.0652116,1.19418,0.248379,0.945271,1.92317,21.2948,100.576,317.802
585,124.503,13.3565,19.7238,55.6955,0.590552,1.30369,0.726683,1.34851,0.77031,0.0410574,1.7897,0.444271,0.389801,0.613177,3.8402,21.274,109.243,318.317
590,121.501,12.9807,18.5139,54.0415,1.37291,0.64291,0.415266,1.34851,1.66901,0.855362,0.927454,0.444271,0.248379,0.779224,3.8402,21.2948,109.947,318.883
595,120.811,12.8662,18.2098,52.8604,1.43368,0.726458,0.278546,2.15087,-0.128385,0.0410574,0.927454,0.444271,0.248379,0.945271,3.8402,21.1286,123.082,319.439
600,116.402,11.9176,18.4056,51.4993,0.674105,1.14419,0.111444,0.546147,-0.128385,1.66967,1.7897,0.819224,0.389801,0.945271,3.8402,21.1286,114.22,320.012
605,117.755,11.6179,17.0802,50.3219,0.385467,0.316317,0.377288,1.34851,-0.128385,0.855362,1.7897,0.444271,0.389801,0.945271,3.8402,21.2117,103.464,320.541
610,113.032,11.3067,16.8082,49.3545,0.499403,0.787219,0.673514,2.15087,0.77031,0.0410574,1.7897,0.444271,0.672645,0.779224,4.79872,21.1494,109.831,321.081
615,121.732,11.3562,16.2486,48.292,0.30951,0.065676,0.157017,1.34851,0.77031,0.855362,2.65194,0.444271,0.248379,0.945271,3.8402,21.1079,106.403,321.622
620,109.993,11.8527,15.7155,47.1435,0.537381,0.0504857,0.103848,2.15087,0.77031,0.0410574,1.7897,0.444271,0.531223,0.779224,2.88169,21.004,123.701,322.173
625,102.026,11.2252,15.1253,46.4227,-0.237137,1.1013,0.520821,1.98472,2.31952,0.379121,-0.464255,-0.170001,0.367263,0.665673,4.8655,21.027,129.692,322.82
630,103.109,10.8158,15.2527,45.9885,0.651317,0.726458,0.308928,2.15087,0.77031,0.855362,0.0652116,0.444271,0.248379,0.779224,2.88169,20.9833,128.92,323.461
635,104.419,10.554,14.8773,45.6601,1.52483,1.49357,0.111444,2.15087,-0.128385,0.855362,1.7897,0.0693189,0.389801,0.613177,3.8402,20.9417,134.43,324.079
640,97.5325,10.9743,15.144,45.4004,0.620934,1.38724,0.491221,1.34851,1.66901,0.0410574,0.927454,0.0693189,0.248379,0.945271,2.88169,20.8171,135.118,324.712
645,100.837,11.7763,15.4869,44.4351,0.73487,0.263151,0.369692,1.34851,2.5677,0.855362,2.65194,0.819224,0.248379,0.779224,4.79872,20.921,127.06,325.35
650,101.959,11.7552,14.9705,43.9687,0.605743,1.41762,0.711492,2.15087,1.66901,0.0410574,0.0652116,0.444271,0.389801,1.11132,3.8402,20.7964,122.05,325.966
655,107.249,11.1823,15.4277,43.2254,1.06908,0.582149,0.103848,-0.256217,-0.128385,1.66967,0.927454,0.819224,0.248379,0.613177,2.88169,20.7964,116.44,326.555
660,106.63,10.2597,15.2316,42.5877,0.879189,0.855576,1.13684,2.95324,-0.128385,1.66967,0.927454,0.444271,0.248379,0.779224,5.75724,20.7964,105.552,327.124
665,101.978,10.189,14.4369,41.7374,0.901976,0.863171,0.430457,1.34851,1.66901,0.0410574,0.927454,0.444271,0.389801,0.779224,3.8402,20.7964,111.815,327.697
670,100.228,10.4565,13.6743,40.8064,0.560169,0.513792,0.043084,0.546147,-0.128385,0.0410574,-0.797031,0.444271,-0.0344641,0.613177,2.88169,20.6095,120.665,328.284
675,97.5835,9.95971,13.331,39.3153,0.6817,0.301127,0.043084,1.34851,0.77031,0.0410574,-0.797031,0.819224,-0.0344641,0.945271,3.8402,20.651,120.327,328.884
680,87.1634,9.61002,12.6767,38.6754,0.41585,0.164414,0.47603,2.15087,-0.128385,1.66967,0.0652116,0.819224,0.248379,0.945271,3.8402,20.6302,119.74,329.477
685,92.5943,9.88327,13.2547,37.9343,0.871593,0.551768,0.164613,2.15087,-0.128385,0.855362,0.927454,0.0693189,0.106958,0.613177,3.8402,20.4849,104.563,330.051
690,98.0164,8.43614,13.1841,37.8651,0.172787,0.673291,0.870998,0.546147,1.66901,0.855362,-0.797031,1.19418,0.389801,0.945271,2.88169,20.4849,97.6374,330.549
695,99.5306,8.40359,12.6937,37.385,0.52219,0.172009,0.0202973,2.95324,1.66901,0.855362,0.0652116,0.444271,0.389801,0.945271,1.92317,20.5057,108.252,331.068
700,99.1548,7.7208,12.0123,36.7552,0.218361,-0.101418,0.157017,1.34851,0.77031,0.0410574,0.0652116,0.444271,0.248379,0.779224,4.79872,20.4434,102.027,331.597
705,93.2965,8.3214,10.8934,35.547,0.41585,0.855576,0.308928,0.546147,0.77031,0.0410574,1.7897,0.444271,0.389801,0.779224,4.79872,20.298,99.4852,332.104
710,93.0115,8.63304,11.1283,35.3654,1.28176,1.63788,0.33931,2.95324,0.77031,0.0410574,0.927454,0.444271,0.389801,0.945271,3.8402,20.3188,80.9462,332.559
715,95.1851,9.35382,10.8552,34.9105,0.704487,0.0884616,0.255759,0.546147,-0.128385,0.855362,0.927454,0.444271,0.389801,0.779224,3.8402,20.2565,108.681,333.008
720,90.5931,8.44183,10.5171,34.1293,0.195574,0.0580809,0.498817,1.34851,0.77031,0.855362,0.927454,0.444271,0.672645,0.613177,2.88169,20.2772,69.1426,333.448
725,92.3093,8.82424,10.9373,33.9419,1.26657,1.50876,0.468435,1.34851,1.66901,0.855362,0.927454,0.444271,0.106958,0.779224,2.88169,20.298,69.4841,333.789
730,80.7238,8.25061,11.7776,33.9044,1.11466,0.734053,0.863403,1.34851,0.77031,0.855362,0.927454,0.444271,0.248379,0.945271,4.79872,20.2772,72.6957,334.149
735,110.376,7.8795,10.9869,33.4281,0.279127,0.0125097,-0.116422,1.34851,0.77031,0.855362,0.0652116,-0.305633,0.531223,0.779224,4.79872,20.1319,77.1919,334.525
740,78.7011,6.92306,10.6813,32.5652,0.590552,0.285937,-0.0632537,2.15087,0.77031,0.0410574,0.927454,1.19418,0.248379,0.613177,4.79872,20.298,73.5459,334.894
745,80.6235,8.49146,10.6431,32.2649,0.582956,0.665696,0.172208,2.95324,1.66901,0.855362,-0.797031,0.819224,0.106958,0.945271,3.8402,20.0903,72.5142,335.259
750,80.1833,8.48577,10.1789,31.8838,0.423446,0.331508,0.0734662,1.34851,-0.128385,1.66967,0.0652116,0.444271,0.248379,0.779224,4.79872,20.0903,80.1696,335.662
755,81.587,7.77044,9.04346,31.0684,0.355084,0.863171,-0.040467,1.34851,0.77031,1.66967,1.7897,0.444271,0.531223,0.945271,1.92317,20.0903,96.4254,336.08
760,81.4986,6.95563,8.87913,30.23,0.370276,0.369484,0.308928,1.34851,0.77031,0.0410574,1.7897,0.0693189,0.389801,0.779224,2.88169,20.1526,90.4009,336.549
765,77.401,7.65568,8.31688,29.9025,0.248744,0.339103,0.377288,1.34851,-0.128385,0.0410574,1.7897,0.444271,0.248379,0.945271,3.8402,19.9657,78.8767,336.979
770,81.2148,6.31649,8.43161,29.9778,0.879189,0.604934,0.301333,1.34851,1.66901,0.855362,0.0652116,0.0693189,0.248379,0.945271,4.79872,19.9865,87.2031,337.38
775,95.4225,7.00528,8.08739,29.3756,0.30951,0.111247,0.232973,1.34851,2.5677,0.0410574,1.7897,0.444271,0.389801,0.779224,3.8402,19.9242,87.4142,337.814
780,90.4423,6.93445,7.63405,28.8164,0.985529,0.908742,0.529199,1.34851,-0.128385,0.855362,0.0652116,0.819224,-0.0344641,0.613177,3.8402,19.945,81.6319,338.235
785,80.9504,7.39358,8.13133,28.4396,0.712083,0.855576,1.11406,1.34851,0.77031,0.0410574,0.0652116,0.0693189,0.248379,0.613177,5.75724,19.945,79.5127,338.648
790,84.2568,6.7757,8.43161,28.1702,0.408254,0.787219,0.179804,1.34851,-0.128385,0.855362,0.927454,0.0693189,0.248379,0.779224,2.88169,19.9657,88.7451,339.063
795,77.996,7.57917,8.27863,28.1702,1.05389,1.07584,1.12925,-0.256217,1.66901,0.855362,0.927454,0.819224,0.389801,0.779224,2.88169,19.8204,97.2215,339.521
800,75.5654,7.39358,8.24608,27.912,0.704487,0.658101,0.635537,2.15087,0.77031,0.0410574,1.7897,0.0693189,0.106958,0.613177,4.79872,19.8204,86.567,339.992
805,71.5504,7.24055,8.16958,27.7611,1.0387,0.521387,0.703896,2.15087,0.77031,0.855362,1.7897,0.0693189,0.248379,0.613177,3.8402,19.8204,93.096,340.439
810,73.0041,6.96702,8.04914,27.5293,0.385467,0.64291,0.286141,1.34851,-0.128385,1.66967,0.0652116,0.444271,0.106958,0.447131,3.8402,19.7996,86.3065,340.877
815,77.5546,6.51353,7.82532,27.384,0.613339,0.863171,0.787447,0.546147,0.77031,0.855362,-0.797031,0.0693189,0.389801,0.447131,3.8402,19.7996,81.6443,341.308
820,68.2695,6.83105,7.87496,27.1689,0.590552,0.339103,0.164613,1.34851,1.66901,-0.773247,0.927454,0.0693189,0.248379,0.779224,4.79872,19.7996,79.4595,341.722
825,74.1855,6.74313,7.44276,26.8936,0.765253,0.83279,0.992527,1.34851,0.77031,0.0410574,0.0652116,0.0693189,0.248379,0.779224,3.8402,19.8204,80.2815,342.14
830,72.9431,6.75452,7.45415,26.6784,0.46902,0.604934,1.01531,-0.256217,-0.128385,-0.773247,0.0652116,0.444271,0.389801,0.613177,5.75724,19.6127,69.5209,342.515
835,71.3949,6.67229,7.67799,26.4085,0.696892,0.544173,0.316524,0.546147,2.5677,0.0410574,0.0652116,0.444271,0.531223,0.945271,2.88169,19.675,77.1863,342.86
840,69.4815,6.48096,7.06585,26.182,0.165191,0.247961,1.06848,0.546147,0.77031,0.855362,0.927454,0.0693189,0.248379,0.779224,3.8402,19.6127,66.1249,343.211
845,74.7575,6.02171,6.95105,26.0309,0.674105,0.923932,0.589963,0.546147,0.77031,0.855362,0.927454,0.819224,0.106958,0.779224,2.88169,19.6335,56.6384,343.505
850,68.3707,6.52492,7.07154,25.621,0.499403,0.513792,0.567177,0.546147,0.77031,0.0410574,0.0652116,0.444271,0.106958,0.447131,3.8402,19.675,56.4164,343.79
855,80.0833,6.60146,6.80369,25.5455,0.590552,1.31129,0.551986,1.34851,-0.128385,0.855362,0.0652116,0.0693189,0.248379,0.945271,2.88169,19.6335,62.213,344.091
860,70.8027,6.53062,7.1155,25.5133,0.932359,0.954313,0.88619,2.15087,0.77031,0.855362,0.927454,0.819224,0.531223,0.613177,3.8402,19.4881,62.3308,344.392
865,66.1309,6.91897,7.65682,25.3678,0.742466,1.40243,0.855807,1.34851,0.77031,0.0410574,0.0652116,0.0693189,-0.0344641,0.779224,3.8402,19.4466,53.7499,344.672
870,66.4655,6.83675,7.80415,25.1354,0.620934,0.703672,0.924167,0.546147,-0.128385,0.0410574,1.7897,-0.680586,-0.0344641,0.779224,3.8402,19.675,56.5337,344.936
875,67.9858,6.87501,7.72764,24.9464,0.613339,1.15179,0.369692,1.34851,0.77031,0.855362,0.927454,0.819224,0.106958,0.779224,3.8402,19.4466,60.2077,345.209
880,70.1578,6.45977,7.3125,24.9142,0.552573,0.847981,0.232973,0.546147,1.66901,0.855362,1.7897,0.444271,-0.0344641,0.779224,3.8402,19.4881,45.6612,345.472
885,67.1736,6.53631,7.12119,24.5361,0.598147,0.559363,0.362097,0.546147,0.77031,0.855362,0.927454,0.444271,0.248379,0.613177,3.8402,19.4881,50.1456,345.716
890,64.4789,7.22506,7.08293,24.347,0.666509,0.0808664,0.0658706,0.546147,0.77031,1.66967,0.0652116,0.444271,0.389801,0.447131,2.88169,19.4466,49.003,345.978
895,67.228,5.88001,6.12053,23.9631,0.863998,0.536578,0.293737,2.15087,0.77031,0.0410574,-0.797031,0.0693189,0.106958,0.613177,3.8402,19.3012,52.2331,346.236
900,58.6567,5.65606,6.08795,23.7416,0.0512552,0.566959,0.164613,0.546147,0.77031,-0.773247,0.927454,-0.305633,0.248379,0.779224,3.8402,19.3012,58.2082,346.516
905,60.0694,5.055,5.83142,23.4122,0.377871,0.650506,0.179804,2.15087,-0.128385,1.66967,0.927454,0.444271,0.248379,0.779224,3.8402,19.2597,60.1081,346.799
910,58.9788,4.82531,5.44865,23.1851,0.279127,0.453031,0.225377,1.34851,0.77031,0.855362,0.927454,-0.305633,0.531223,0.613177,4.79872,19.322,60.6854,347.096
915,57.8337,3.48534,5.83142,23.488,0.112021,1.31888,0.187399,2.15087,-0.128385,0.855362,-0.797031,0.0693189,0.389801,0.447131,3.8402,19.3012,69.6803,347.406
920,60.6793,5.0493,5.48123,22.5734,0.36268,0.323912,0.286141,1.34851,1.66901,1.66967,0.927454,-0.305633,-0.0344641,0.779224,4.79872,19.3012,60.7133,347.724
925,60.4045,4.53044,5.23036,22.2114,0.552573,0.172009,0.0582751,0.546147,-0.128385,0.855362,0.927454,0.0693189,0.106958,0.945271,4.79872,19.1351,58.8564,348.049
930,59.2236,5.13156,5.06585,21.442,0.248744,0.209985,0.043084,1.34851,0.77031,1.66967,0.0652116,-0.305633,-0.0344641,0.779224,4.79872,19.1143,62.7871,348.347
935,71.1509,5.36123,4.951,21.1765,0.0132766,0.0201049,-0.0176804,1.34851,-0.128385,0.0410574,0.927454,0.444271,0.248379,0.447131,2.88169,19.1351,68.0242,348.667
940,60.2751,4.14875,5.10248,20.9291,0.612776,0.145175,0.566604,0.721469,0.132814,-0.20877,1.13171,0.852487,0.302334,0.644774,2.62924,19.1202,55.3243,348.973
945,60.1888,4.75444,4.88014,21.1821,0.294318,1.37964,0.848212,1.34851,-0.128385,0.855362,-0.797031,0.819224,-0.0344641,0.945271,4.79872,19.1143,53.6902,349.256
950,59.4426,4.82531,4.98929,21.1765,0.294318,0.202389,0.597559,1.34851,1.66901,0.855362,0.0652116,0.444271,0.248379,0.779224,4.79872,18.9482,54.818,349.528
955,61.4995,4.52475,4.65044,21.22,0.476616,0.339103,0.688705,1.34851,-1.92578,0.0410574,0.927454,0.0693189,0.248379,0.613177,3.8402,18.9897,71.9554,349.822
960,60.3362,4.25106,4.22361,21.2523,0.347488,0.445436,0.468435,1.34851,-0.128385,0.0410574,0.0652116,0.444271,0.106958,0.779224,3.8402,18.9482,57.5941,350.14
965,58.7747,3.49104,3.92301,20.9545,0.279127,0.187199,0.567177,1.34851,-0.128385,0.855362,0.0652116,0.0693189,-0.0344641,0.613177,5.75724,18.9482,50.9747,350.395
970,57.4645,3.29961,4.15273,20.9545,0.651317,0.240365,0.308928,2.15087,1.66901,0.855362,0.927454,0.819224,0.389801,0.613177,3.8402,18.9482,47.799,350.64
975,71.9021,3.29391,4.03217,20.4935,0.453829,0.172009,0.043084,1.34851,-1.02708,0.855362,1.7897,1.19418,0.106958,0.945271,4.79872,18.969,58.893,350.9
980,56.9642,2.22756,4.727,20.9166,0.62853,0.794814,0.40767,1.34851,0.77031,0.0410574,0.927454,0.444271,0.248379,0.613177,3.8402,18.9897,64.6845,351.193
985,57.5152,1.64756,5.8697,21.3661,0.41585,0.574554,0.870998,0.546147,0.77031,0.855362,0.927454,0.444271,0.248379,0.779224,3.8402,18.969,71.7606,351.518
990,57.0425,3.98876,5.22467,20.4612,0.636126,0.566959,0.293737,1.34851,-0.128385,0.0410574,0.927454,0.444271,0.248379,0.779224,1.92317,19.0105,65.2779,351.862
995,56.7031,3.83562,4.91842,19.6259,0.157595,0.065676,0.0582751,0.546147,-0.128385,0.855362,0.0652116,0.444271,-0.0344641,0.779224,4.79872,18.8236,83.4184,352.23
1000,57.8367,4.37731,4.7327,19.5935,0.225957,0.931528,0.88619,1.34851,0.77031,0.855362,0.927454,0.0693189,0.106958,0.779224,2.88169,18.7613,76.3669,352.627
1005,58.8812,4.10362,5.14811,19.6259,0.339893,0.247961,0.27095,0.546147,0.77031,0.0410574,0.927454,0.0693189,0.248379,0.613177,2.88169,18.8028,66.249,352.971
1010,58.077,3.69387,5.27434,20.0549,0.41585,0.528983,0.0202973,0.546147,1.66901,0.855362,-0.797031,0.444271,0.106958,0.779224,3.8402,18.8236,69.1307,353.309
1015,75.8892,3.69387,4.66183,19.4852,0.119617,0.453031,0.0582751,-0.256217,-0.128385,0.855362,0.927454,0.444271,0.106958,0.945271,4.79872,18.8236,65.7667,353.65
1020,72.9365,3.56762,4.61215,19.9677,0.377871,0.430245,0.187399,2.15087,1.66901,1.66967,0.927454,0.444271,0.248379,0.945271,3.8402,18.8028,64.8653,353.972
1025,64.7022,4.03275,4.42643,19.7075,0.810828,0.696077,0.0962528,0.546147,-1.02708,0.855362,0.927454,0.444271,0.106958,0.779224,3.8402,18.8028,49.929,354.272
1030,64.4393,3.85271,4.20811,19.6428,0.286723,0.597339,0.0506795,2.15087,-1.02708,0.855362,0.0652116,0.0693189,0.248379,0.779224,2.88169,18.6367,62.7895,354.552
1035,59.3749,2.99331,3.69329,19.246,0.165191,-0.222941,0.0202973,0.546147,-1.02708,-1.58755,0.0652116,0.444271,0.248379,0.779224,4.79872,18.5952,71.5532,354.899
1040,56.539,2.34811,3.66069,19.2137,0.15,0.392269,0.946954,1.34851,1.66901,0.0410574,0.927454,0.444271,0.248379,0.945271,4.79872,18.6367,68.1709,355.238
1045,53.0886,2.96641,3.9344,19.5992,0.955146,0.779624,0.931763,-0.256217,-0.128385,0.0410574,0.927454,0.444271,0.106958,0.779224,2.88169,18.6367,68.4404,355.577
1050,54.048,2.84585,4.503,19.8594,0.20317,0.513792,0.194995,-0.256217,0.77031,0.0410574,-0.797031,0.444271,0.389801,0.945271,3.8402,18.6367,67.087,355.919
1055,57.5682,2.95502,4.34416,19.5879,0.643722,0.453031,0.134231,-1.05858,-0.128385,2.48397,-0.797031,0.444271,0.106958,0.613177,3.8402,18.6159,58.0813,356.221
1060,52.4413,3.49674,3.89042,19.1757,0.0816381,0.658101,0.893785,-0.256217,-0.128385,0.0410574,0.0652116,0.0693189,0.106958,0.447131,4.79872,18.6159,48.6061,356.486
1065,54.0564,2.96072,3.85213,18.9097,1.08427,0.209985,0.149422,2.15087,1.66901,0.855362,0.0652116,0.444271,0.248379,0.779224,2.88169,18.6575,46.9033,356.752
1070,57.0802,3.69387,3.6281,18.7253,0.0968295,0.111247,0.0506795,-0.256217,-0.128385,0.855362,0.0652116,0.444271,0.106958,0.613177,2.88169,18.4706,37.1407,356.972
1075,56.7929,2.53955,3.62241,18.3775,0.818423,0.665696,-0.0556581,1.34851,0.77031,0.0410574,0.927454,0.444271,0.106958,0.779224,2.88169,18.4706,43.7822,357.175
1080,50.1799,2.09672,3.39029,18.4413,0.188317,0.212049,0.4795,0.612634,1.7762,1.77624,-0.136506,0.441377,-0.0539189,0.551839,3.25807,18.4491,37.0636,357.381
1085,50.7234,2.08011,3.43097,18.3395,0.400658,0.21758,0.0506795,-0.256217,-0.128385,0.0410574,1.7897,0.819224,0.248379,0.613177,3.8402,18.429,42.4743,357.581
1090,49.0937,2.00353,3.16295,18.3015,0.620934,0.415055,0.141826,0.546147,1.66901,0.0410574,0.927454,0.444271,0.248379,0.779224,2.88169,18.4706,45.7382,357.804
1095,58.9023,2.07441,2.81265,18.3338,0.537381,0.825195,0.453243,0.546147,1.66901,0.0410574,1.7897,0.0693189,0.106958,0.945271,4.79872,18.4913,39.9775,358.013
1100,50.3796,1.99214,2.6538,18.4422,0.0664466,0.202389,0.468435,-1.05858,0.77031,0.0410574,0.927454,0.444271,0.106958,0.779224,3.8402,18.4706,26.9918,358.173
1105,51.0218,-0.0908908,3.48065,18.883,0.301914,0.415055,0.111444,0.546147,-0.128385,0.0410574,0.0652116,1.19418,0.248379,0.779224,3.8402,18.3252,35.5402,358.323
1110,49.5199,2.23895,2.67089,18.2311,0.218361,0.0580809,0.263355,0.546147,0.77031,0.855362,0.0652116,0.444271,0.248379,0.613177,3.8402,18.3252,41.7356,358.521
1115,49.0377,2.16807,2.79145,18.2367,0.719679,0.703672,0.54439,2.15087,0.77031,0.0410574,0.927454,0.0693189,0.248379,0.945271,4.79872,18.4706,44.8108,358.733
1120,48.6014,2.76928,3.54583,18.5296,0.46902,0.764433,0.179804,1.34851,-0.128385,0.0410574,-0.797031,0.0693189,0.389801,0.447131,4.79872,18.4498,41.431,358.926
1125,48.5856,2.80187,3.27212,18.3718,0.0664466,0.0277001,0.0202973,0.546147,1.66901,0.855362,0.927454,0.0693189,0.389801,0.945271,3.8402,18.3044,43.2101,359.123
1130,52.0837,2.43608,3.02119,17.9325,0.385467,0.0884616,0.521603,0.546147,1.66901,-0.773247,0.0652116,0.0693189,0.106958,0.779224,4.79872,18.2837,40.438,359.332
1135,54.7238,2.27724,3.24522,17.9268,0.446233,0.263151,0.119039,0.546147,0.77031,0.855362,0.927454,0.444271,0.106958,0.613177,2.88169,18.3252,47.8377,359.554
1140,47.1949,2.43039,2.90062,17.5084,0.210765,0.346698,0.111444,0.546147,-0.128385,0.855362,0.927454,0.444271,0.106958,0.613177,3.8402,18.346,54.135,359.818
1145,46.0527,2.20066,2.59431,17.3181,0.172787,0.316317,0.400075,0.546147,1.66901,0.0410574,0.0652116,0.0693189,-0.0344641,0.613177,3.8402,18.3252,50.5968,360.085
1150,44.3227,1.93266,3.3218,17.8127,0.917168,0.589744,0.141826,0.546147,-0.128385,0.855362,0.927454,0.0693189,0.248379,0.613177,3.8402,18.1591,51.7691,360.342
1155,46.8718,2.16238,3.16864,17.9649,0.119617,-0.0482518,0.0127018,1.34851,-0.128385,0.855362,-0.797031,0.0693189,-0.175886,0.779224,3.8402,18.1175,58.0137,360.591
1160,47.0657,1.85608,3.70468,18.2691,0.400658,0.749243,0.103848,1.34851,0.77031,0.855362,-1.65927,0.0693189,0.106958,0.945271,4.79872,17.9722,52.3116,360.859
1165,48.231,2.19497,3.39268,18.0733,0.324701,0.369484,0.157017,2.15087,-0.128385,0.855362,0.0652116,0.444271,0.389801,0.779224,0.964651,17.9722,48.5822,361.118
1170,50.1061,2.66581,3.48065,18.1987,0.0664466,0.384674,0.103848,0.546147,-1.02708,0.0410574,0.927454,0.0693189,0.106958,0.613177,4.79872,17.9722,51.9116,361.373
1175,54.5904,2.76928,3.50754,17.9972,0.658913,0.0960568,0.225377,0.546147,0.77031,-0.773247,0.927454,0.444271,0.248379,0.945271,2.88169,17.9514,53.465,361.625
1180,52.103,2.88984,3.3218,17.7366,0.248744,-0.0786325,0.0886572,1.34851,0.77031,0.0410574,2.65194,0.0693189,0.248379,0.613177,4.79872,16.124,55.7028,361.903
1185,50.058,2.66581,3.6338,17.7043,0.750062,0.323912,0.126635,1.34851,-0.128385,0.0410574,0.0652116,0.0693189,0.106958,0.945271,4.79872,22.1254,59.726,362.192
1190,51.7954,2.66581,3.09776,17.3999,0.180382,0.559363,-0.0176804,-0.256217,-0.128385,0.0410574,0.0652116,0.0693189,0.248379,0.945271,4.79872,16.6639,41.3051,362.468
1195,49.3935,2.51266,2.94461,17.0955,0.263935,0.285937,1.45586,0.546147,1.66901,0.0410574,0.927454,0.0693189,0.248379,0.613177,2.88169,17.8061,47.47,362.688
1200,46.7206,2.00923,3.28351,17.3942,0.294318,0.40746,0.384884,0.546147,-0.128385,0.855362,1.7897,0.819224,0.389801,0.945271,2.88169,17.7853,32.5143,362.883
1205,50.15,1.89437,3.24522,17.4323,0.271531,0.969504,0.40767,0.546147,0.77031,0.855362,0.927454,0.0693189,0.106958,0.613177,2.88169,17.7853,28.2708,363.037
1210,41.6314,1.60928,3.11326,17.9859,-0.100659,-0.0330614,0.483626,1.34851,0.77031,0.0410574,0.0652116,0.0693189,0.106958,0.613177,2.88169,17.6192,34.6277,363.197
1215,52.809,1.93266,2.67089,17.5845,0.172787,0.399864,0.40767,1.34851,-0.128385,0.855362,0.0652116,0.0693189,0.248379,0.613177,2.88169,17.6192,29.0823,363.348
1220,41.9477,1.77381,3.23952,17.4266,0.651317,0.650506,0.362097,-0.256217,-1.02708,0.0410574,0.927454,0.444271,0.248379,0.779224,3.8402,17.6607,27.4891,363.487
1225,38.4927,2.07441,2.6595,17.3449,0.20317,0.0125097,0.0202973,1.34851,-0.128385,0.855362,1.7897,0.0693189,0.106958,0.779224,4.79872,17.6399,28.7812,363.632
1230,40.4622,1.5441,2.74177,17.1603,0.241148,0.0125097,0.210186,2.15087,0.77031,1.66967,0.0652116,0.0693189,0.106958,0.945271,4.79872,17.6399,29.2166,363.777
1235,42.272,1.51151,2.44116,17.0137,0.25634,0.506197,-0.040467,0.546147,-1.02708,0.855362,0.927454,0.444271,0.389801,0.613177,1.92317,17.6399,32.0804,363.932
1240,41.0646,1.62067,2.35888,16.7416,0.271531,0.0580809,0.134231,1.34851,0.77031,0.0410574,0.0652116,0.819224,-0.0344641,0.613177,3.8402,17.6607,29.7938,364.096
1245,37.1812,1.01383,2.32629,16.7092,0.271531,0.339103,0.126635,1.34851,-0.128385,0.0410574,-0.797031,0.819224,0.106958,0.613177,3.8402,17.6399,32.2266,364.252
1250,37.9787,1.00813,2.39717,16.6654,0.446233,0.506197,0.597559,0.546147,0.77031,0.0410574,0.927454,0.0693189,0.106958,0.945271,3.8402,17.6192,20.5516,364.393
1255,46.6403,1.67035,2.48514,17.0193,0.25634,0.597339,0.240568,0.546147,-0.128385,0.0410574,-0.797031,-0.305633,0.248379,0.779224,4.79872,17.4115,23.0447,364.505
1260,44.0265,1.77951,2.82404,16.9756,0.757657,0.749243,0.741874,2.15087,-1.92578,-0.773247,0.927454,-0.305633,0.248379,0.779224,4.79872,17.4946,25.0628,364.626
1265,44.057,1.8178,3.01549,17.1659,0.241148,0.597339,0.134231,0.546147,0.77031,-0.773247,-0.797031,0.444271,-0.0344641,0.779224,4.79872,17.4738,22.9509,364.731
1270,41.7154,1.12867,2.74747,16.8995,0.0588509,-0.0102758,-0.040467,1.34851,1.66901,-0.773247,0.0652116,0.0693189,0.248379,0.779224,4.79872,17.5984,23.7377,364.849
1275,40.7844,0.816721,2.58861,17.008,0.172787,0.0884616,0.551986,1.34851,-0.128385,0.855362,0.927454,0.444271,0.106958,0.945271,3.8402,17.453,21.6835,364.964
1280,40.5549,0.849307,2.81265,17.0024,0.613339,0.415055,0.111444,2.15087,0.77031,0.0410574,0.0652116,-0.305633,0.106958,0.945271,1.92317,17.453,23.54,365.077
1285,38.9343,0.860698,2.51773,16.8995,0.666509,0.64291,0.255759,-0.256217,0.77031,0.0410574,-0.797031,-0.305633,0.106958,0.779224,3.8402,17.4946,18.6483,365.175
1290,40.9087,1.13437,2.44685,16.791,0.317105,0.42265,0.0278929,-0.256217,-0.128385,1.66967,0.0652116,0.0693189,-0.0344641,0.779224,4.79872,17.4738,15.7058,365.266
1295,41.0957,0.745856,2.6326,16.7092,-0.0626807,0.225175,-0.0100848,-0.256217,-0.128385,0.0410574,0.927454,0.444271,0.248379,0.779224,3.8402,17.453,18.1674,365.355
1300,38.871,0.822417,2.21143,16.2522,0.279127,0.126438,0.141826,0.546147,-1.02708,0.0410574,0.927454,0.0693189,0.106958,0.779224,4.79872,17.4738,22.6642,365.452
1305,38.8384,0.975544,2.32629,16.4046,0.491807,0.293532,0.643132,1.34851,-0.128385,0.0410574,0.927454,0.444271,0.106958,0.613177,3.8402,17.4738,16.5934,365.558
1310,39.3459,0.975544,2.47945,16.7092,0.279127,0.589744,0.0810617,0.546147,0.77031,1.66967,0.0652116,0.444271,-0.0344641,0.613177,1.92317,17.453,16.0782,365.642
1315,37.2688,0.592735,2.32629,16.5569,0.491807,0.399864,0.172208,0.546147,0.77031,0.0410574,-0.797031,0.444271,0.106958,0.281084,1.92317,17.4946,21.8647,365.732
1320,37.6383,1.16696,2.47945,16.4807,0.332297,0.247961,0.460839,0.546147,-0.128385,0.855362,0.927454,0.819224,0.248379,0.613177,1.92317,17.3284,18.071,365.822
1325,36.8564,0.286509,2.32629,16.633,0.0740423,0.0960568,0.605154,0.546147,0.77031,0.0410574,0.0652116,0.444271,0.106958,0.779224,2.88169,17.3284,15.8706,365.896
1330,34.4752,0.324786,2.01999,16.3284,0.241148,0.194794,0.40767,1.34851,-0.128385,0.0410574,-0.797031,-0.305633,0.248379,0.613177,2.88169,17.3284,5.45773,365.948
1335,42.8493,0.209955,2.40287,16.4807,0.560169,0.445436,0.240568,1.34851,-1.02708,0.0410574,-0.797031,0.0693189,-0.0344641,0.613177,2.88169,17.2869,0.68494,365.954
1340,38.5262,0.0837377,2.04688,16.2409,0.347488,0.0732712,0.0734662,0.546147,-0.128385,-0.773247,0.927454,0.819224,0.106958,0.613177,3.8402,17.2869,1.9116,365.956
1345,39.7444,0.012883,1.43999,16.2085,0.119617,0.164414,0.232973,0.546147,-0.128385,0.855362,0.927454,0.819224,0.106958,0.779224,4.79872,17.3077,0.0,365.959
1350,32.831,0.625319,1.28685,15.9038,0.674105,0.369484,0.0886572,1.34851,-0.128385,-0.773247,1.7897,0.0693189,0.248379,0.613177,2.88169,17.3077,0.0,365.959
1355,31.4332,0.504786,1.20458,15.86,0.127212,0.126438,0.0962528,-0.256217,0.77031,-0.773247,0.0652116,0.444271,0.248379,0.613177,2.88169,17.3077,0.0,365.959
1360,31.517,0.407037,0.991963,15.8389,0.248744,0.415055,0.00510625,0.546147,0.77031,0.0410574,0.0652116,0.444271,-0.0344641,0.613177,4.79872,17.3284,0.0,365.959
1365,32.1349,0.242537,1.09542,16.0942,0.461424,0.43784,0.422861,0.546147,-1.02708,0.855362,0.0652116,-0.305633,0.248379,0.447131,3.8402,17.3077,0.26528,365.959
1370,31.4138,0.472203,1.21028,16.1323,0.142404,0.453031,0.498817,1.34851,-1.02708,0.855362,0.0652116,0.0693189,-0.0344641,0.779224,4.79872,17.2869,4.48123,365.977
1375,34.1147,0.171679,0.986268,16.138,0.461424,0.179604,0.263355,1.34851,1.66901,-0.773247,-0.797031,0.0693189,-0.0344641,0.945271,4.79872,17.3284,5.4083,366.002
1380,28.3212,0.20426,1.05714,16.0562,0.157595,0.187199,0.043084,0.546147,-0.128385,0.855362,0.927454,0.0693189,0.106958,0.447131,0.964651,17.3077,14.5432,366.048
1385,27.9463,0.122013,0.74518,15.86,0.279127,0.111247,0.103848,-0.256217,0.77031,0.0410574,0.0652116,0.0693189,0.106958,0.779224,3.8402,17.2869,18.8912,366.137
1390,27.8318,0.160289,0.477215,15.7838,0.157595,0.430245,0.293737,0.546147,-1.02708,0.0410574,0.927454,0.444271,0.248379,0.779224,4.79872,17.3492,17.6684,366.224
1395,30.2901,-0.0311997,0.362376,15.7457,0.15,0.23277,0.354501,1.34851,-0.128385,0.855362,0.927454,0.0693189,0.106958,0.613177,2.88169,17.1623,17.9953,366.297
1400,29.6708,0.472203,0.789158,15.6752,0.339893,0.316317,0.126635,0.546147,-0.128385,0.0410574,0.927454,0.0693189,0.248379,0.613177,3.8402,17.1415,9.58982,366.36
1405,31.5496,0.466507,0.706899,15.7077,0.46902,0.42265,0.232973,1.34851,-1.02708,0.0410574,0.927454,0.444271,0.106958,0.779224,3.8402,17.3284,10.0803,366.417
1410,31.3392,0.0951278,0.565166,15.6809,-0.00191489,0.118842,0.422861,0.546147,0.77031,1.66967,1.7897,0.819224,0.389801,0.779224,3.8402,17.1623,4.99793,366.45
1415,36.9504,-0.344422,0.39496,15.4353,0.210765,0.566959,0.187399,0.546147,-0.128385,-0.773247,0.0652116,0.819224,-0.0344641,0.613177,2.88169,17.1415,3.08232,366.469
1420,32.7807,-1.18602,0.592055,15.9362,0.286723,-0.00268066,-0.0936358,0.546147,-1.02708,-0.773247,0.927454,0.444271,0.248379,0.945271,3.8402,17.1623,1.3814,366.48
1425,34.2122,-0.40418,0.29721,15.4523,0.537381,0.285937,0.757065,1.34851,-1.02708,0.0410574,0.0652116,0.444271,0.106958,0.613177,3.8402,17.1208,4.90414,366.508
1430,33.058,-0.613765,0.586359,15.4353,0.332297,0.83279,0.529199,0.546147,-1.02708,0.855362,0.927454,0.444271,0.106958,0.447131,2.88169,17.1623,0.0,366.514
1435,29.4919,-0.844828,0.701202,15.4734,0.15,0.354293,0.043084,2.15087,0.77031,0.0410574,0.927454,0.0693189,0.106958,0.613177,3.8402,17.2869,0.0,366.514
1440,29.5989,-1.11463,0.39496,15.2447,0.134808,0.149223,0.0127018,0.546147,0.77031,0.855362,0.927454,0.444271,0.106958,0.779224,3.8402,17.1623,0.0,366.514
1445,27.5647,-1.37892,0.0944323,14.9836,-0.0398935,-0.0254662,0.119039,0.546147,-0.128385,0.0410574,0.0652116,0.0693189,-0.0344641,0.613177,2.88169,17.1623,3.56691,366.523
1450,28.5979,-0.602309,0.214959,14.9512,0.674105,0.346698,0.415266,-1.05858,0.77031,0.855362,0.927454,0.0693189,-0.0344641,0.779224,4.79872,17.1623,3.78579,366.546
1455,31.4896,-0.0369162,0.39496,15.1304,-0.00951061,0.0580809,0.149422,1.34851,0.77031,1.66967,0.0652116,0.444271,-0.0344641,0.779224,1.92317,17.1623,4.67187,366.559
1460,20.7767,-0.608037,0.0944323,15.2123,0.271531,0.346698,0.0810617,0.546147,0.77031,0.855362,0.0652116,-0.305633,0.106958,0.779224,3.8402,17.1623,6.85287,366.58
1465,23.4614,-1.10315,0.214959,15.2942,0.0588509,0.0428905,0.043084,1.34851,-1.02708,0.0410574,1.7897,-0.305633,0.248379,0.613177,2.88169,17.1,8.20898,366.612
1470,21.5197,-1.03752,-0.14146,14.8255,0.0512552,0.202389,0.0582751,0.546147,-1.02708,0.0410574,0.927454,-0.305633,0.106958,0.779224,1.92317,17.1208,0.0,366.664
1475,22.9913,-1.18602,-0.135741,14.7168,0.0132766,0.0808664,0.293737,0.546147,0.77031,0.0410574,0.0652116,0.0693189,0.106958,0.613177,2.88169,17.1415,0.0,366.664
1480,24.0373,-1.11463,-0.14146,14.7111,0.157595,0.172009,0.696301,-1.05858,-1.92578,-0.773247,0.927454,0.819224,0.106958,0.613177,4.79872,16.9962,0.0,366.664
1485,23.74,-1.11463,0.0504606,15.0542,0.142404,0.134033,0.0582751,1.34851,0.77031,0.855362,-0.797031,0.444271,0.248379,0.779224,4.79872,16.9546,0.0,366.664