File: 01_Data/Camelback_Sofa/Furniture_Calorimeter/Camelback_Sofa_R1.csv
Time (s),Convective HRR,TCPlume1,TCPlume2,TCPlume3,DPPlume1,DPPlume2,DPPlume3,HF1,HF2,HF3,HF4,HF5,HF6,RAD2,RAD1,Load Cell,Heat Release Rate,Total Heat Released
-119,0.0,-6.99851,-5.93275,7.97246,-0.00411971,-0.0424816,-0.0688749,-0.21079,-1.11956,-0.0207027,0.0219214,-0.359065,-0.172583,0.613177,2.88169,34.2528,0.0,0.0
-113,2.41679,-6.22262,-6.36815,7.77544,-0.0496941,-0.0121008,0.0754405,0.591573,-1.11956,-0.0207027,0.884164,0.0158878,0.110261,0.613177,3.8402,34.4189,0.0,0.0
-107,0.0,-6.39052,-6.34073,7.6875,-0.0193112,-0.0576719,-0.0081105,-0.21079,0.67783,-0.0207027,0.884164,0.0158878,0.251683,0.613177,3.8402,34.2528,0.0,0.0
-101,0.0,-6.46866,-6.34073,7.5727,0.00347601,0.0106848,0.0222717,0.591573,0.67783,-0.0207027,-1.70256,0.0158878,-0.0311607,0.779224,3.8402,34.2528,0.0,0.0
-95,0.0,-6.77553,-6.37397,7.50187,0.0414546,0.0562559,0.00708059,-0.21079,-1.11956,-0.0207027,0.0219214,0.0158878,-0.172583,0.779224,2.88169,34.2528,0.0,0.0
-89,0.0,-6.69734,-6.25678,7.5784,-0.0420983,-0.0500768,0.0298672,0.591573,-0.220866,-1.64931,0.884164,0.39084,0.110261,0.447131,3.8402,34.232,0.0,0.0
-83,0.0,-6.61916,-6.41304,7.5784,0.0414546,-0.0272912,0.00708059,-0.21079,0.67783,-0.0207027,0.0219214,-0.359065,0.110261,0.779224,2.88169,34.2528,0.0,0.0
-77,0.0,-6.70317,-6.34073,7.64923,-0.0572898,-0.0424816,-0.0536838,-0.21079,0.67783,-0.835007,0.0219214,-0.734017,-0.0311607,0.613177,2.88169,34.2528,0.0,0.0
-71,0.0,-6.62499,-6.30166,7.76403,0.0566461,0.0182799,-0.0612793,0.591573,-0.220866,0.793602,-0.840321,0.0158878,0.110261,0.613177,4.79872,34.2528,0.0,0.0
-65,0.0,-7.13337,-6.3798,8.1084,0.0338589,0.0106848,-0.0233016,0.591573,-0.220866,0.793602,0.0219214,-0.359065,-0.172583,0.613177,2.88169,34.2113,0.0,0.0
-59,0.0,-6.7481,-6.6201,7.68179,0.00347601,-0.0576719,-0.0384927,-1.01315,-0.220866,-0.0207027,0.884164,0.0158878,-0.172583,0.447131,3.8402,34.2528,0.0,0.0
-53,0.0,-5.88869,-6.34656,7.72006,0.00347601,0.0334703,-0.0384927,0.591573,-0.220866,1.60791,0.0219214,-0.359065,0.393105,0.447131,2.88169,34.2736,0.0,0.0
-47,0.0,-6.32404,-6.35238,7.67609,0.0490504,0.0410655,0.0146761,-0.21079,0.67783,-0.0207027,-0.840321,-0.734017,-0.172583,0.779224,4.79872,34.2943,0.0,0.0
-41,0.0,-6.53105,-6.32497,7.66468,0.10222,0.0410655,0.0526539,-0.21079,-0.220866,-0.0207027,-1.70256,0.39084,-0.172583,0.779224,4.79872,34.232,0.0,0.0
-35,0.0,-6.05648,-6.28008,7.44078,-0.0496941,0.0258751,-0.0081105,-0.21079,-0.220866,-0.0207027,0.0219214,0.0158878,-0.0311607,0.447131,3.8402,34.2736,0.0,0.0
-29,0.0,-6.60339,-6.39728,7.32597,0.00347601,-0.0576719,0.0298672,-1.01315,-0.220866,-0.835007,0.0219214,-0.359065,0.251683,0.447131,2.88169,34.2528,0.0,0.0
-23,0.0,-6.84962,-6.60433,7.31455,-0.0345026,-0.0500768,-0.0081105,-0.21079,-0.220866,-0.0207027,0.0219214,-0.359065,-0.0311607,0.447131,5.75724,34.232,0.0,0.0
-17,0.0,-6.65414,-6.44801,7.69724,0.0110717,-0.0652671,-0.0460882,-0.21079,-0.220866,-0.0207027,0.0219214,0.39084,-0.0311607,0.613177,3.8402,34.232,0.0,0.0
-11,0.0,-7.27994,-6.21361,8.38594,-0.0193112,-0.019696,0.0146761,-1.01315,-1.11956,1.60791,-0.840321,0.39084,-0.0311607,0.281084,3.8402,34.2113,0.0,0.0
-5,0.0,-7.82225,-6.09063,8.27687,-0.0800769,-0.0880527,-0.000514952,1.39394,-0.220866,-0.835007,0.0219214,-0.359065,-0.172583,0.613177,4.79872,34.232,0.0,0.0
1,0.0,-6.96695,-6.60433,7.62071,0.00347601,0.0562559,0.0526539,-0.21079,-0.220866,0.793602,0.884164,-0.359065,0.110261,0.447131,2.88169,34.2528,0.0,0.0
7,0.0,-6.38641,-6.64925,7.57673,0.0946247,0.117017,0.0602494,-0.21079,-0.220866,-0.0207027,-0.840321,0.0158878,0.110261,0.779224,3.8402,34.2528,0.0,0.0
13,0.0,-6.1911,-6.61016,7.84459,0.0338589,0.162589,-0.0384927,0.591573,0.67783,-0.835007,0.0219214,0.0158878,0.110261,0.779224,2.88169,34.232,0.0,0.0
19,0.0,-6.74399,-6.42059,7.83889,0.0566461,-0.0652671,-0.000514952,0.591573,-0.220866,-0.0207027,1.74641,-0.359065,-0.0311607,0.779224,4.79872,34.2736,0.0,0.0
25,0.0,-6.54271,-6.37569,7.615,0.0262632,-0.0500768,-0.000514952,-1.01315,-1.11956,1.60791,-0.840321,0.39084,-0.0311607,0.613177,3.8402,34.2736,0.0,0.0
31,0.0,-6.15788,-6.22526,7.53276,-0.0117154,-0.00450562,-0.099257,-0.21079,-1.11956,-0.0207027,0.884164,0.0158878,-0.0311607,0.281084,2.88169,34.2528,0.0,0.0
37,0.0,-6.90039,-6.30338,7.68583,0.0110717,-0.0880527,-0.0764704,0.591573,-0.220866,0.793602,0.0219214,0.39084,-0.0311607,0.945271,0.964651,34.232,0.0,0.0
43,0.0,-6.27504,-6.1862,8.0302,0.0946247,-0.0576719,0.0450583,-1.01315,0.67783,-0.0207027,-0.840321,-0.359065,0.110261,1.11132,4.79872,34.2736,1.04248,0.00124464
49,0.0,-6.44297,-6.31504,8.17183,0.00347601,0.0714463,-0.0081105,0.591573,0.67783,0.793602,0.0219214,0.0158878,0.251683,0.779224,3.8402,34.2736,19.1013,0.06531939
55,1.54954,-5.65046,-5.87386,8.2215,0.0718375,0.0334703,-0.000514952,0.591573,-0.220866,-0.0207027,-0.840321,-0.359065,0.110261,0.779224,3.8402,34.2528,33.1852,0.22011
61,5.46424,-5.53925,-5.64555,8.17754,0.0642418,0.0410655,-0.106853,0.591573,1.57652,0.793602,1.74641,0.0158878,0.110261,0.779224,1.92317,34.2943,57.8002,0.511754
67,12.81,-4.72671,-5.69038,8.43963,0.0186675,-0.0424816,-0.0612793,1.39394,0.67783,-0.0207027,0.884164,0.0158878,0.251683,0.779224,3.8402,34.2528,73.4032,0.899
73,20.4646,-4.15468,-5.07815,9.11673,0.550368,0.0106848,-0.0233016,2.1963,0.67783,1.60791,1.74641,0.765793,0.251683,0.945271,3.8402,34.2528,117.861,1.42855
79,32.2193,-2.43008,-4.0099,9.93684,0.322496,-0.0121008,0.0222717,3.80103,3.37392,1.60791,0.884164,0.765793,0.393105,0.779224,5.75724,34.0659,139.866,2.16639
85,41.3393,-0.55002,-3.74947,10.0019,0.208561,0.0334703,0.151396,3.80103,0.67783,1.60791,1.74641,0.765793,0.534526,1.11132,5.75724,34.1075,180.609,3.13491
91,53.3704,0.600763,-3.51646,10.4606,0.246539,0.185374,0.0906316,3.80103,1.57652,2.42221,2.60865,0.0158878,0.675948,1.11132,4.79872,34.1075,231.542,4.3553
97,71.9889,0.901296,-3.59991,11.563,0.307305,-0.0576719,-0.0764704,4.60339,1.57652,2.42221,1.74641,1.14074,0.675948,1.44341,5.75724,33.8998,286.337,5.95488
103,94.0542,1.32241,-3.05661,12.5177,-0.0269069,0.132208,1.32111,6.20812,3.37392,3.23651,2.60865,0.39084,0.81737,1.44341,5.75724,33.8998,341.409,7.8945
109,112.948,4.64759,-0.435319,13.3899,0.823814,0.117017,0.0754405,7.01048,4.27261,4.05082,3.47089,1.89065,1.24164,1.60946,7.67427,33.7337,366.105,10.1573
115,151.614,6.61313,0.448865,14.9227,0.43118,0.8221,0.0336092,8.06856,5.43434,5.50957,4.56452,1.31579,1.70795,1.98568,7.87154,33.5627,509.596,12.8927
121,180.83,9.43008,1.36573,16.7059,0.474411,-0.0500768,0.0298672,7.81285,6.9687,5.67943,4.33314,2.2656,1.6659,1.7755,7.67427,33.5883,518.856,15.9567
127,211.209,12.5948,5.91596,19.2104,3.6874,0.230945,0.0146761,9.41757,6.9687,7.30804,4.33314,1.89065,1.80732,2.27365,8.63279,33.256,641.102,19.4586
133,266.447,20.8259,12.0447,20.4369,0.952941,0.815775,1.3439,11.8247,7.86739,7.30804,5.19538,2.2656,1.80732,2.43969,11.5083,33.2768,788.496,23.8619
139,300.567,25.2061,14.0555,22.8901,1.75049,2.84369,0.371667,13.4294,9.66478,8.12234,6.91986,3.01551,2.23159,2.60574,12.4669,32.7369,921.686,28.9575
145,358.942,31.2719,18.8517,26.3691,2.69996,0.344873,0.386858,19.8483,10.5635,12.1939,9.50659,4.14036,2.9387,3.43597,16.3009,32.5708,1004.39,34.9133
151,408.457,37.8635,26.8787,32.1298,1.3859,-0.217171,1.76925,20.6507,12.3609,13.0082,8.64435,5.26522,3.50438,3.43597,15.3424,32.4046,1136.13,41.4352
157,470.725,49.6043,42.3098,45.6395,6.99154,6.10962,1.71608,23.8601,12.3609,14.6368,9.50659,6.01513,3.78723,4.43225,19.1765,32.0516,1279.02,48.9032
163,531.184,57.3788,47.0136,52.9561,1.24158,1.4006,1.62493,24.6625,15.057,14.6368,11.2311,6.39008,4.35291,4.43225,19.1765,31.6155,1497.85,57.1605
169,613.033,72.11,59.31,61.875,2.4417,1.83353,0.493196,29.4767,15.9557,16.2654,13.8178,7.13998,4.63576,4.76435,23.0105,31.2625,1614.17,66.2971
175,748.915,85.0857,77.2862,78.6388,8.1385,0.739823,-0.668923,33.4885,17.753,18.7083,13.8178,8.26484,5.34287,5.59458,24.9276,30.7433,1777.57,76.3741
181,793.953,107.045,95.1331,94.6182,1.65175,3.39054,7.23044,38.3027,19.5504,20.3369,17.2668,9.76465,6.61566,6.42481,28.7616,30.2657,1843.63,86.9819
187,846.282,138.398,125.529,116.167,2.74553,5.74505,1.46543,44.7216,24.0439,22.7798,19.8535,12.0144,7.88846,7.75319,34.5127,29.7466,2110.22,98.6506
193,944.886,156.832,157.076,147.874,4.95589,13.1656,5.04293,52.7452,25.8413,27.6656,22.4402,13.5142,9.16125,9.24761,41.2224,29.1028,2523.58,112.31
199,995.067,181.712,207.599,224.017,7.48526,6.09443,8.81791,57.5594,29.4361,27.6656,25.027,15.014,10.2926,10.2439,47.932,28.3137,2699.71,128.72
205,1130.26,227.599,284.87,318.957,5.55595,8.49451,7.44312,65.583,33.9296,32.5515,28.4759,18.3886,12.9796,12.5685,55.6001,27.4208,2791.59,145.71
211,1286.25,261.443,344.315,393.164,15.6583,7.86411,14.9475,68.7925,34.8283,34.1801,29.3382,21.3882,15.2424,14.5611,61.3512,26.7562,2759.94,162.267
217,1530.35,274.555,365.824,428.242,7.4245,5.22098,3.93398,75.2114,30.3348,34.1801,30.2004,22.1381,15.3838,14.8932,67.1023,25.9048,2592.0,178.709
223,1630.52,266.558,349.202,430.437,15.1114,15.9302,14.4006,74.409,30.3348,31.7372,27.6137,22.513,16.0909,15.0592,68.0608,25.2819,2500.06,194.178
229,1585.04,264.987,351.417,443.515,8.95124,12.9605,10.9447,66.3854,26.74,27.6656,25.027,20.2633,14.9595,14.229,64.2268,24.4512,2295.77,208.49
235,1607.35,235.576,309.915,416.965,5.52557,10.173,4.59479,49.5357,19.5504,21.1512,19.8535,16.8887,13.2625,12.4025,49.849,23.7867,2219.9,221.947
241,1478.12,209.459,270.937,383.324,7.69794,6.42102,9.1901,42.3145,17.753,18.7083,18.129,14.639,11.1412,10.2439,44.0979,23.2883,1526.57,232.654
247,1457.44,185.765,238.844,357.354,10.5919,5.25896,5.69614,37.5003,17.753,16.2654,16.4045,12.0144,9.72694,9.08156,41.2224,22.7899,1354.88,241.268
253,1408.54,162.683,208.322,331.138,7.02952,2.91964,3.96436,27.8719,12.3609,12.1939,12.0933,9.76465,7.03993,6.92295,30.6787,22.25,1156.67,248.637
259,1086.81,143.428,186.823,309.808,6.66493,5.70708,5.56702,20.6507,8.76609,8.12234,10.3688,7.13998,5.06002,5.09644,22.052,21.9177,956.023,254.844
265,972.04,128.785,165.152,290.004,1.79607,6.84636,3.66054,17.4412,6.9687,7.30804,8.64435,5.26522,3.92865,3.76807,17.2594,21.6063,770.848,259.952
271,863.199,113.671,146.209,273.452,2.95821,4.87161,3.50103,14.2318,6.9687,6.49373,6.05762,4.51532,3.22154,3.10388,15.3424,21.4194,628.182,264.2
277,766.726,100.413,133.085,257.195,6.01169,4.37032,5.66576,11.0223,4.27261,4.86512,6.05762,3.76541,2.79727,2.93783,12.4669,21.1286,607.669,268.125
283,648.942,90.4331,119.792,242.82,1.70492,2.08417,5.68855,11.0223,4.27261,4.86512,3.47089,3.01551,2.23159,2.1076,12.4669,20.9417,507.73,271.401
289,575.93,78.8774,106.568,228.895,1.94798,1.65125,4.42009,9.41757,3.37392,3.23651,4.33314,3.01551,1.80732,2.27365,11.5083,20.7756,424.72,274.257
295,617.829,68.8737,96.3078,215.963,2.34296,1.0892,1.90597,7.81285,3.37392,3.23651,3.47089,2.64055,1.80732,1.7755,10.5498,20.6095,407.143,276.748
301,483.368,61.4947,87.2608,204.578,1.82645,0.884132,1.77684,8.61521,3.37392,1.60791,4.33314,2.64055,1.38306,1.7755,8.63279,20.4434,361.483,279.061
307,449.599,56.4966,79.7444,194.053,0.00347601,3.12471,3.09847,7.81285,2.47522,3.23651,2.60865,1.5157,1.52448,1.60946,7.67427,20.2772,338.7,281.07
313,394.918,52.4403,74.9416,184.581,2.981,2.56267,1.35909,5.40575,2.47522,2.42221,2.60865,1.89065,1.24164,1.60946,8.63279,20.2772,338.169,282.995
319,358.4,50.1607,71.1029,175.657,3.09494,1.98543,0.994502,6.20812,2.47522,3.23651,2.60865,1.89065,0.958792,1.60946,6.71575,20.1319,257.948,284.692
325,300.043,47.2738,66.848,166.655,2.32777,3.10952,2.77945,5.40575,0.67783,1.60791,2.60865,1.5157,0.958792,1.27736,6.71575,20.1526,247.562,286.284
331,320.112,44.5665,63.8378,158.508,1.37071,2.46393,2.77186,5.40575,0.67783,2.42221,4.33314,1.5157,1.10021,1.60946,6.71575,20.0073,251.668,287.834
337,261.131,41.5034,60.9939,150.594,1.41628,3.01838,2.30853,6.20812,2.47522,0.793602,1.74641,1.5157,0.958792,1.11132,6.71575,19.7788,225.01,289.242
343,278.493,39.8852,58.4396,144.102,2.46449,2.20569,0.462813,6.20812,1.57652,3.23651,2.60865,1.14074,0.81737,1.44341,5.75724,19.7996,215.585,290.519
349,282.858,37.6205,55.615,137.96,2.23662,2.35,0.8274,3.80103,1.57652,2.42221,1.74641,1.5157,0.81737,1.11132,5.75724,19.6335,198.643,291.753
355,253.503,34.5219,51.7097,132.395,0.299709,2.27405,1.76165,4.60339,1.57652,0.793602,2.60865,1.14074,0.81737,1.11132,6.71575,19.4673,223.799,292.96
361,227.575,32.6851,48.7149,126.804,1.15803,1.21072,2.24777,4.60339,1.57652,1.60791,3.47089,1.14074,0.675948,1.27736,5.75724,19.4673,198.498,294.177
367,214.239,31.2696,46.0215,121.765,2.10749,1.63606,0.895759,4.60339,-0.220866,2.42221,2.60865,1.14074,0.81737,1.27736,7.67427,19.2804,174.462,295.284
373,218.136,29.3783,44.0062,118.208,1.59098,0.481586,0.62232,4.60339,0.67783,1.60791,1.74641,0.765793,0.675948,1.11132,5.75724,19.1559,170.806,296.32
379,206.899,27.9208,41.1911,112.785,2.0999,1.28668,1.74646,4.60339,-1.11956,1.60791,2.60865,0.39084,0.81737,0.779224,5.75724,19.1559,174.196,297.33
385,199.893,26.046,39.4511,108.454,0.914963,1.50694,0.819804,3.80103,0.67783,1.60791,0.0219214,1.14074,0.534526,1.11132,4.79872,19.1143,147.269,298.308
391,193.551,24.2323,37.4732,104.122,1.7353,0.830965,0.75904,4.60339,1.57652,1.60791,0.884164,0.765793,0.534526,1.11132,3.8402,18.969,140.715,299.171
397,181.258,22.7943,35.9406,100.057,0.72507,1.12718,0.227351,3.80103,1.57652,0.793602,0.884164,0.39084,0.675948,1.11132,5.75724,18.9482,122.941,299.981
403,171.273,23.2108,34.8179,96.4061,2.57083,1.48415,1.11603,2.99866,1.57652,1.60791,2.60865,1.14074,0.534526,0.945271,4.79872,18.969,124.822,300.723
409,173.553,22.6219,34.048,92.9978,2.32777,1.36263,1.6857,3.80103,1.57652,0.793602,1.74641,1.14074,0.534526,0.945271,5.75724,18.8444,115.755,301.436
415,174.916,21.106,32.0227,89.2466,0.930154,0.511967,-0.0384927,3.80103,1.57652,-0.0207027,3.47089,0.765793,0.393105,1.11132,6.71575,18.8028,117.463,302.158
421,151.272,21.4416,30.6647,86.1919,0.535177,0.230945,0.310902,2.99866,-0.220866,0.793602,0.884164,0.765793,0.393105,1.27736,3.8402,18.7821,121.379,302.874
427,140.233,19.7468,30.3061,83.7303,0.528978,0.846677,0.097895,3.36737,0.607132,0.793601,0.962336,0.181504,0.511091,1.04861,3.50147,18.6305,102.904,303.571
433,138.519,18.9595,28.5046,81.6258,1.3783,1.93227,2.75667,2.99866,-1.11956,0.793602,0.884164,0.765793,0.534526,1.11132,5.75724,18.6367,116.418,304.19
439,141.893,18.2698,27.8584,78.6124,1.25677,1.77277,0.834995,2.1963,0.67783,1.60791,0.884164,0.765793,0.534526,0.945271,5.75724,18.5952,98.4982,304.843
445,138.329,17.8572,26.3554,75.6841,2.23662,0.952488,0.986906,2.99866,1.57652,1.60791,0.0219214,0.39084,0.393105,0.945271,4.79872,18.4498,87.7066,305.397
451,138.797,16.2706,25.0826,73.3114,1.00611,1.46137,1.63253,2.99866,0.67783,0.793602,1.74641,1.14074,0.393105,0.779224,3.8402,18.4913,84.4191,305.893
457,144.505,15.6119,24.2396,71.3934,1.97836,0.82337,0.797017,2.1963,-0.220866,2.42221,1.74641,0.39084,0.534526,1.11132,3.8402,18.4913,89.4562,306.401
463,146.896,15.389,23.4508,69.1612,0.72507,1.37022,0.386858,3.80103,1.57652,0.793602,1.74641,0.765793,0.393105,0.613177,4.79872,18.3044,85.6867,306.91
469,136.098,15.2156,22.2561,66.4253,0.702283,1.17275,0.599533,2.1963,1.57652,0.793602,0.884164,-0.359065,0.393105,0.779224,4.79872,18.2837,86.6151,307.413
475,139.542,15.6613,21.411,64.505,0.61873,0.443611,0.994502,2.99866,-0.220866,0.793602,1.74641,0.765793,0.393105,0.613177,4.79872,18.346,91.6163,307.942
481,120.19,13.5707,20.9616,63.1145,0.93775,0.344873,0.607129,0.591573,0.67783,0.793602,0.0219214,0.39084,0.534526,0.945271,3.8402,18.1591,69.8927,308.391
487,124.782,13.6527,20.1325,61.5396,0.519985,0.405635,0.781826,2.1963,-0.220866,0.793602,1.74641,0.0158878,0.534526,0.945271,5.75724,18.1591,82.2297,308.819
493,136.576,12.5633,18.4783,59.4597,0.185773,-0.0272912,0.067845,2.99866,1.57652,0.793602,1.74641,0.0158878,0.534526,0.779224,5.75724,18.1175,96.2777,309.347
499,110.342,11.4944,17.4517,57.877,0.269326,0.268921,0.250138,2.99866,1.57652,0.793602,0.884164,0.39084,0.393105,0.779224,3.8402,18.1383,102.858,309.937
505,100.782,11.1831,16.4948,56.3613,0.337688,0.451206,0.834995,2.1963,1.57652,0.793602,1.74641,0.39084,0.251683,1.11132,3.8402,17.9722,98.5705,310.532
511,109.097,11.0303,16.8754,54.9236,0.93775,2.14493,1.65531,1.39394,0.67783,0.793602,0.884164,1.14074,0.251683,0.945271,5.75724,17.9514,96.6755,311.121
517,112.421,10.8393,16.1522,53.3741,0.641517,0.246136,0.515982,1.39394,2.47522,1.60791,1.74641,0.39084,0.534526,0.779224,2.88169,17.993,96.6437,311.715
523,109.149,11.5325,16.1959,52.3828,1.2112,0.80818,1.10084,2.1963,0.67783,0.793602,-0.840321,0.39084,0.251683,0.779224,5.75724,17.993,97.5724,312.293
529,100.548,10.4362,15.8265,51.5811,0.178178,0.344873,0.0754405,0.591573,1.57652,-0.0207027,1.74641,0.39084,0.110261,0.779224,4.79872,17.9307,101.377,312.86
535,118.213,9.74827,15.2932,49.8064,0.930154,2.1905,1.45023,2.99866,1.57652,0.793602,0.884164,0.765793,0.251683,0.779224,2.88169,17.8061,89.9673,313.449
541,110.439,7.49778,14.7654,49.4419,0.451624,0.975274,0.34888,1.39394,1.57652,0.793602,0.884164,0.39084,0.110261,0.945271,3.8402,17.8061,86.7582,313.984
547,107.445,9.26271,14.3518,48.0777,1.05928,1.35503,1.21477,1.39394,2.47522,0.793602,1.74641,0.39084,0.110261,0.779224,3.8402,17.8061,78.0215,314.475
553,104.777,8.45974,13.9324,46.8549,1.12005,0.610705,0.971715,1.39394,1.57652,1.60791,0.884164,0.39084,0.393105,0.945271,2.88169,17.6399,83.8418,314.948
559,102.055,6.95644,13.5778,45.3972,0.0566461,0.367659,1.32871,1.39394,-0.220866,-0.0207027,0.884164,-0.359065,0.110261,0.779224,2.88169,17.8061,67.9932,315.412
565,91.6968,7.47093,12.6028,44.1885,0.368071,0.306897,0.227351,2.1963,-0.220866,1.60791,1.74641,0.0158878,0.110261,0.945271,4.79872,17.6399,71.7786,315.83
571,96.2829,7.58569,12.2211,43.2594,0.550368,0.937298,0.728657,1.39394,1.57652,1.60791,1.74641,0.0158878,0.393105,0.945271,4.79872,17.6607,66.0499,316.254
577,91.8021,8.04472,11.6102,41.7342,0.983324,1.07401,0.645106,2.1963,0.67783,1.60791,1.74641,0.765793,0.110261,0.613177,2.88169,17.6192,54.4795,316.623
583,96.4889,8.12122,11.6102,40.8778,0.93775,1.18034,0.698275,-1.01315,-0.220866,-0.0207027,0.0219214,0.0158878,0.251683,0.779224,4.79872,17.6399,56.0197,316.948
589,94.657,7.97392,11.6541,39.9144,0.375666,0.367659,0.478004,2.1963,0.67783,0.793602,-0.840321,0.0158878,0.393105,0.779224,2.88169,17.4946,51.0717,317.256
595,91.4745,7.29673,10.4049,38.3959,0.512389,0.398039,0.272925,2.1963,-0.220866,0.793602,0.884164,-0.359065,0.393105,0.447131,4.79872,17.4738,49.2568,317.552
601,87.5921,7.06147,9.94061,37.2698,0.368071,0.679061,1.06286,1.39394,-0.220866,0.793602,0.884164,0.0158878,0.251683,0.613177,2.88169,17.4323,52.1234,317.851
607,85.0898,7.60279,9.41116,36.7894,0.444028,0.701847,0.295711,1.39394,1.57652,2.42221,0.884164,0.0158878,0.251683,0.779224,3.8402,17.453,53.5757,318.157
613,91.6692,7.04031,9.04023,35.9403,0.15539,0.101827,0.941333,-0.21079,2.47522,-0.0207027,0.884164,0.39084,0.251683,0.613177,4.79872,17.4738,57.5664,318.477
619,82.0814,7.18765,8.69039,35.1488,1.10486,0.694252,0.508387,2.1963,0.67783,1.60791,0.0219214,0.0158878,-0.0311607,0.613177,2.88169,17.3284,51.0163,318.804
625,83.624,6.31325,8.1989,34.5551,0.428837,1.20313,0.409645,0.591573,1.57652,-0.0207027,0.884164,0.39084,0.393105,0.779224,4.79872,17.3284,51.5175,319.121
631,86.9655,6.96378,8.69608,34.1804,1.22639,1.67403,0.265329,2.1963,0.67783,-0.0207027,0.0219214,0.765793,0.251683,0.779224,3.8402,17.3077,59.2998,319.473
637,81.3847,6.58683,8.39583,33.6986,0.0946247,0.815775,0.599533,0.591573,0.67783,-0.0207027,0.884164,0.765793,-0.0311607,0.779224,3.8402,17.3492,66.8441,319.876
643,78.9093,5.55918,8.66923,33.5542,0.322496,0.420825,0.121014,0.591573,0.67783,0.793602,0.884164,0.0158878,0.251683,0.779224,3.8402,17.3284,68.7734,320.28
649,80.6652,5.63003,8.16635,32.6483,0.444028,0.420825,0.515982,2.1963,2.47522,1.60791,-0.840321,0.0158878,0.251683,0.613177,3.8402,17.2869,62.9431,320.669
655,80.1848,6.32465,8.28679,31.7903,0.512389,0.253731,0.303307,2.1963,1.57652,1.60791,0.0219214,0.765793,0.251683,0.779224,2.88169,17.1623,62.9364,321.052
661,76.9632,6.09502,7.44523,31.1892,0.0946247,0.0866367,0.181778,0.591573,-0.220866,-0.0207027,-0.840321,0.0158878,0.110261,0.945271,2.88169,17.1623,73.8991,321.456
667,78.1066,5.33522,7.48918,30.9693,0.740261,0.42842,0.394453,1.39394,2.47522,-0.0207027,0.0219214,0.39084,0.534526,0.613177,3.8402,17.1415,75.7082,321.884
673,73.0173,5.69111,7.23276,30.5293,0.390858,0.117017,0.424836,1.39394,1.57652,1.60791,0.884164,0.39084,0.110261,0.447131,4.79872,17.1415,70.4021,322.299
679,70.5572,4.88726,6.85013,29.965,0.482007,1.01325,0.341285,1.39394,-0.220866,-0.0207027,0.0219214,0.765793,0.393105,0.447131,0.964651,17.1623,65.3422,322.708
685,72.4166,4.88156,6.65309,29.4325,0.679495,0.299302,0.333689,1.39394,-1.11956,1.60791,1.74641,-0.359065,-0.0311607,0.779224,5.75724,17.1623,62.8849,323.071
691,72.1203,4.49874,5.96421,29.0937,0.109816,0.625895,0.265329,1.39394,1.57652,0.793602,0.0219214,0.765793,0.251683,0.779224,3.8402,17.1623,49.7603,323.399
697,75.6517,4.12729,5.66941,28.3891,0.61873,0.587919,0.136205,1.39394,0.67783,0.793602,0.0219214,0.0158878,0.251683,0.613177,1.92317,16.9754,38.3677,323.685
703,79.98,4.8164,6.35834,27.5975,0.330092,0.549943,0.242543,1.39394,1.57652,1.60791,0.884164,0.0158878,0.393105,0.613177,3.8402,16.9962,42.0869,323.956
709,70.0653,4.51584,5.71338,27.226,0.489602,0.352468,0.0298672,1.39394,-0.220866,0.793602,0.884164,0.39084,0.251683,0.945271,4.79872,16.9962,33.3295,324.182
715,70.7039,4.08901,4.98037,26.8053,0.390858,0.185374,0.105823,1.39394,-0.220866,0.793602,0.884164,0.0158878,0.393105,0.945271,2.88169,16.9754,42.0001,324.409
721,68.9055,3.78842,4.33525,26.0559,0.276922,0.192969,0.151396,1.39394,2.47522,-0.0207027,0.0219214,0.39084,0.251683,0.779224,3.8402,17.0169,39.6774,324.646
727,67.3009,3.75584,4.11124,25.4949,0.337688,0.420825,0.500791,1.39394,-0.220866,-0.835007,0.884164,0.39084,0.251683,0.779224,3.8402,16.9754,35.7793,324.872
733,79.8846,2.63981,4.41182,25.7159,0.322496,0.329683,0.318498,0.591573,1.57652,-0.0207027,0.0219214,0.0158878,0.251683,0.779224,3.8402,16.7885,49.9283,325.132
739,65.1124,2.60722,3.99638,25.2681,0.0566461,-0.0272912,-0.0688749,0.591573,0.67783,-0.0207027,-1.70256,0.39084,0.110261,0.945271,3.8402,16.7885,53.3607,325.453
745,59.6775,1.96204,4.34665,24.6311,0.390858,0.185374,0.113418,1.39394,1.57652,0.793602,0.0219214,-0.359065,0.251683,0.779224,2.88169,16.7885,61.3501,325.8
751,62.6349,2.6895,5.18888,24.9336,0.140199,0.496777,0.804613,1.39394,1.57652,1.60791,0.884164,0.0158878,0.110261,0.613177,4.79872,16.8093,70.8226,326.191
757,61.9409,3.42266,4.58206,24.7124,0.421241,0.344873,0.0982271,1.39394,-0.220866,0.793602,-0.840321,0.0158878,0.110261,0.613177,3.8402,16.8093,80.8718,326.646
763,62.6377,3.07807,4.92661,24.0694,0.238943,0.41323,0.591938,0.591573,0.67783,0.793602,1.74641,0.39084,0.251683,0.779224,2.88169,16.83,73.7828,327.086
769,71.0842,3.03978,5.04146,23.9559,0.314901,0.337278,0.667893,2.1963,1.57652,0.793602,-0.840321,0.39084,0.251683,0.613177,1.92317,16.83,63.2772,327.5
775,80.2659,2.95751,4.7295,23.5339,0.550368,0.496777,0.440027,0.591573,0.67783,0.793602,0.0219214,0.0158878,0.251683,0.779224,3.8402,16.6639,58.9405,327.879
781,70.0138,4.19978,5.3591,23.9293,0.876984,0.572729,0.713466,0.591573,-0.220866,1.60791,-0.840321,0.39084,0.110261,0.779224,4.79872,16.6224,59.4119,328.259
787,66.8448,2.63002,5.28254,23.8536,0.314901,0.671466,0.766635,2.1963,0.67783,1.60791,-0.840321,0.0158878,0.251683,0.613177,4.79872,16.6224,55.0252,328.603
793,68.3345,3.3192,4.97629,23.8158,0.330092,0.261326,0.288116,1.39394,0.67783,1.60791,0.0219214,0.765793,0.393105,0.447131,2.88169,16.6639,56.9922,328.934
799,65.5885,3.78434,4.71401,23.5565,0.322496,0.215755,0.326094,1.39394,0.67783,-0.0207027,0.884164,0.39084,-0.172583,0.447131,3.8402,16.6639,49.3914,329.247
805,64.5389,3.3192,4.74659,22.9072,0.88458,0.466396,0.204565,-0.21079,0.67783,-0.0207027,-0.840321,0.0158878,0.110261,0.945271,2.88169,16.6639,47.1865,329.522
811,61.2683,3.24262,4.24889,22.5283,0.284518,0.542348,0.227351,0.591573,0.67783,0.793602,0.884164,0.0158878,0.251683,0.779224,3.8402,16.6224,41.4614,329.778
817,60.6289,2.52086,3.98659,22.4203,0.679495,0.352468,0.569151,0.591573,0.67783,0.793602,1.74641,-0.359065,0.110261,0.613177,2.88169,16.477,38.6382,330.014
823,61.0442,1.98484,3.25912,21.8518,0.284518,0.724633,0.0602494,0.591573,1.57652,0.793602,0.884164,0.39084,-0.0311607,0.779224,2.88169,16.477,38.2138,330.249
829,61.7999,2.29683,3.49455,21.099,0.322496,0.177779,0.333689,0.591573,1.57652,0.793602,-0.840321,0.765793,0.251683,0.779224,3.8402,16.5186,36.6872,330.47
835,66.3395,3.63119,3.83344,21.321,0.588347,1.21832,0.591938,0.591573,0.67783,-0.0207027,0.884164,0.39084,0.393105,0.779224,1.92317,16.5393,43.5257,330.696
841,59.176,3.3306,4.33686,21.4783,0.261731,0.884132,0.895759,0.591573,-0.220866,-0.0207027,0.0219214,0.39084,0.110261,0.779224,4.79872,16.477,34.0959,330.929
847,63.226,3.68088,5.22307,21.5598,1.29475,0.800584,0.523578,1.39394,-0.220866,0.793602,0.884164,0.0158878,0.251683,0.613177,3.8402,16.477,38.7147,331.153
853,62.6472,3.61,4.88424,21.6413,0.497198,0.755013,-0.0688749,0.591573,-0.220866,-0.0207027,0.884164,0.765793,-0.0311607,0.779224,3.8402,16.4563,36.7827,331.385
859,59.8918,2.80027,3.84484,21.1426,0.360475,0.42842,0.0906316,1.39394,1.57652,-0.0207027,0.884164,0.39084,-0.0311607,0.447131,3.8402,16.3317,40.9597,331.634
865,57.9425,2.18197,3.91571,21.3645,0.390858,1.12718,0.189374,2.1963,-0.220866,0.793602,0.0219214,0.39084,0.110261,0.613177,2.88169,16.3524,46.8895,331.914
871,61.3036,1.89277,3.89452,20.8504,0.352879,0.60311,0.295711,0.591573,1.57652,0.793602,0.884164,0.0158878,0.110261,0.779224,2.88169,16.3109,48.8282,332.202
877,60.2475,1.8105,3.08477,20.3134,0.132603,-0.019696,0.105823,0.591573,0.67783,-0.0207027,0.884164,-0.359065,0.251683,0.613177,3.8402,16.2901,60.6204,332.539
883,55.5046,1.46024,2.69619,19.8522,0.489602,0.0258751,0.515982,0.591573,-0.220866,1.60791,-0.840321,-0.359065,0.110261,0.779224,2.88169,16.3109,63.0231,332.907
889,53.0808,2.50537,2.70758,19.6736,0.413645,0.215755,0.645106,0.591573,-1.11956,-0.835007,0.884164,0.39084,0.110261,0.779224,3.8402,16.3109,57.9353,333.266
895,57.5962,1.47163,2.78416,19.6736,0.482007,0.215755,0.166587,1.39394,1.57652,-0.0207027,0.884164,0.39084,0.251683,0.779224,3.8402,16.2901,58.885,333.62
901,51.5899,1.66306,2.09497,19.1797,0.125008,0.192969,0.0602494,0.591573,-0.220866,0.793602,0.884164,0.0158878,0.110261,0.613177,5.75724,16.3109,60.0564,334
907,54.6728,1.69565,2.05098,19.2881,0.246539,0.22335,0.136205,0.591573,0.67783,-0.0207027,0.884164,0.0158878,-0.0311607,0.613177,3.8402,16.3109,64.6947,334.352
913,53.1618,1.59788,1.80006,19.0771,0.459219,0.701847,0.470409,1.39394,0.67783,0.793602,0.0219214,-0.359065,0.251683,0.945271,2.88169,16.1655,63.118,334.722
919,53.8885,1.73963,2.43956,18.9518,0.436432,0.436015,0.394453,1.39394,0.67783,-0.835007,1.74641,0.39084,0.110261,0.613177,3.8402,16.124,68.8044,335.137
925,47.3329,1.66876,2.29211,18.9194,0.330092,0.0486607,0.28052,0.591573,0.67783,-0.835007,-0.840321,0.39084,0.251683,0.447131,2.88169,16.1448,62.0242,335.521
931,53.2929,1.58649,2.09497,18.9137,0.322496,0.42842,0.333689,0.591573,0.67783,0.793602,0.0219214,0.0158878,0.110261,0.447131,3.8402,16.1655,53.8758,335.856
937,58.12,1.40646,2.71898,19.457,0.117412,0.314492,0.113418,-0.21079,-0.220866,-0.0207027,0.0219214,-0.359065,0.251683,0.779224,3.8402,16.1448,47.2679,336.15
943,52.4628,1.24763,2.71328,19.4513,-0.00411971,0.375254,0.105823,0.591573,0.67783,0.793602,1.74641,0.0158878,0.251683,0.779224,4.79872,16.1032,47.3245,336.454
949,52.2566,0.62942,2.43956,19.0658,0.0946247,0.496777,0.4856,0.591573,0.67783,-0.835007,1.74641,-0.359065,-0.0311607,0.945271,3.8402,15.9994,39.0495,336.705
955,55.2244,0.175781,2.44526,18.6533,0.284518,0.147398,0.0298672,1.39394,0.67783,-0.0207027,0.0219214,0.0158878,0.110261,0.779224,1.92317,16.1448,36.4118,336.915
961,51.1904,0.482,2.06238,18.2351,0.0566461,0.0258751,0.113418,1.39394,-0.220866,0.793602,0.884164,0.39084,0.110261,0.779224,3.8402,15.9786,22.1475,337.085
967,51.4635,0.793936,1.30234,17.7464,0.368071,0.405635,0.1438,1.39394,0.67783,-0.0207027,0.884164,0.0158878,0.110261,0.779224,3.8402,15.9994,21.5743,337.217
973,56.2829,0.296307,1.26406,17.2898,0.208561,0.306897,0.424836,-1.01315,0.67783,-0.835007,0.0219214,0.0158878,0.110261,0.613177,2.88169,15.9994,26.4673,337.364
979,44.5271,0.252334,1.22008,16.9416,0.459219,0.0562559,0.0374628,1.39394,-0.220866,-0.0207027,-1.70256,0.0158878,0.110261,0.779224,2.88169,15.9994,25.5321,337.523
985,42.9376,0.252334,0.722394,16.599,0.00347601,0.162589,0.0450583,1.39394,1.57652,-0.0207027,-0.840321,0.0158878,0.251683,0.447131,2.88169,15.9786,25.2405,337.674
991,42.0701,0.985343,0.919502,16.757,-0.0572898,0.382849,0.0222717,-0.21079,-0.220866,-0.0207027,0.884164,0.0158878,-0.0311607,0.779224,3.8402,15.9994,28.6743,337.838
997,43.5511,0.832217,0.919502,16.4905,0.307305,0.170184,0.113418,0.591573,-1.11956,-0.835007,0.0219214,0.0158878,-0.0311607,0.447131,3.8402,15.9994,29.7754,338.025
1003,41.3534,0.531672,0.657225,16.42,0.0794332,0.00308957,-0.000514952,-1.01315,-0.220866,-0.835007,0.884164,0.0158878,0.251683,0.613177,3.8402,15.9786,31.9469,338.205
1009,43.4091,0.372862,0.766373,16.3001,0.170582,0.0714463,0.196969,1.39394,-1.11956,1.60791,0.884164,-0.359065,0.110261,0.779224,1.92317,15.9579,33.7699,338.391
1015,53.8119,-0.234788,0.772069,16.4581,0.0946247,0.215755,0.333689,0.591573,-0.220866,-0.0207027,0.884164,0.0158878,0.393105,0.779224,2.88169,15.8125,32.7498,338.589
1021,44.159,-2.17739,0.791232,16.2552,0.316909,0.526656,0.0888853,0.895779,-0.447543,1.17142,1.83346,-0.148382,0.32414,0.646739,3.87424,15.9488,38.7694,338.808
1027,43.9216,0.181478,0.88122,16.1858,0.489602,0.109422,0.0222717,0.591573,0.67783,0.793602,0.884164,0.0158878,-0.0311607,0.945271,2.88169,15.8333,43.098,339.044
1033,42.3878,0.767048,1.12231,16.1972,0.406049,0.253731,0.257734,-0.21079,-0.220866,1.60791,0.884164,0.39084,0.393105,0.779224,4.79872,15.7917,52.2574,339.312
1039,41.4477,0.952758,1.30804,16.6104,0.390858,0.800584,0.371667,2.1963,0.67783,0.793602,0.0219214,0.0158878,-0.0311607,0.613177,2.88169,15.7917,46.6125,339.612
1045,39.1567,1.60928,1.73488,16.9206,0.140199,0.124613,0.21216,0.591573,-0.220866,-0.0207027,-0.840321,0.0158878,0.251683,0.945271,3.8402,15.7917,60.6992,339.933
1051,41.3266,1.11158,1.04575,16.8064,0.223752,0.451206,0.1438,0.591573,-0.220866,0.793602,0.0219214,0.0158878,0.110261,0.779224,3.8402,15.771,62.2668,340.306
1057,38.7826,0.302004,0.580663,16.3819,0.482007,0.375254,0.083036,1.39394,0.67783,-0.835007,0.0219214,0.39084,0.251683,0.613177,2.88169,15.7917,61.4164,340.66
1063,40.7428,0.537369,0.433239,16.3114,0.269326,0.132208,0.128609,-0.21079,0.67783,-0.0207027,0.0219214,0.39084,0.110261,0.613177,4.79872,15.7917,57.186,341.003
1069,43.4779,-0.735005,0.733788,16.8007,0.162986,0.724633,0.455218,0.591573,0.67783,0.793602,0.0219214,0.39084,0.110261,0.613177,2.88169,15.8125,43.8874,341.307
1075,48.3229,0.334585,0.536686,16.1858,-0.00411971,-0.00450562,0.067845,1.39394,0.67783,-0.835007,0.884164,0.0158878,0.251683,0.779224,1.92317,15.7917,50.2407,341.598
1081,42.9953,-0.267514,-0.0646051,15.8925,0.0414546,0.0258751,0.219756,0.591573,-0.220866,-0.0207027,0.0219214,0.39084,-0.0311607,0.779224,2.88169,15.8125,40.0447,341.873
1087,40.2126,-0.300243,-0.135741,15.86,0.117412,0.557538,0.174183,1.39394,0.67783,-0.0207027,-0.840321,0.39084,0.251683,0.779224,2.88169,15.6671,36.5394,342.106
1093,41.9412,-0.729274,-0.0646051,15.8163,-0.0117154,-0.0500768,-0.0612793,0.591573,-0.220866,0.793602,0.0219214,0.0158878,-0.0311607,0.779224,2.88169,15.771,29.656,342.306
1099,41.7984,-0.966162,-0.185615,15.5439,0.0946247,0.139803,-0.0916615,1.39394,0.67783,-0.0207027,-0.840321,0.0158878,0.110261,0.779224,2.88169,15.6671,30.07,342.476
1105,42.4697,-1.10889,-0.597303,15.2504,-0.0117154,0.185374,0.326094,1.39394,0.67783,1.60791,0.0219214,-0.359065,-0.172583,0.779224,1.92317,15.6256,23.0374,342.639
1111,41.3607,-1.38466,-0.872621,15.0542,0.087029,-0.0576719,-0.099257,0.591573,1.57652,-0.0207027,1.74641,0.0158878,0.110261,0.613177,2.88169,15.6464,23.5186,342.779
1117,39.3137,-1.6163,-0.949691,14.9398,-0.0876727,-0.148814,-0.0688749,0.591573,0.67783,0.793602,-0.840321,0.0158878,0.110261,0.613177,2.88169,15.6879,26.3284,342.938
1123,37.9022,-1.26316,-0.943957,14.6786,-0.0345026,-0.0728623,-0.0384927,-0.21079,2.47522,0.793602,0.884164,0.39084,0.251683,0.613177,2.88169,15.6464,25.9655,343.096
1129,39.6363,-1.46186,-0.911154,14.6348,0.0794332,-0.0121008,1.04767,2.1963,0.67783,0.793602,0.884164,0.0158878,0.251683,0.779224,2.88169,15.6464,31.1762,343.265
1135,44.4587,-1.80371,-0.943957,14.8693,0.125008,0.830965,0.1438,1.39394,0.67783,1.60791,0.884164,0.0158878,-0.0311607,0.613177,2.88169,15.7087,36.7824,343.47
1141,41.8546,-1.07033,-0.520324,14.8693,0.292114,0.717037,0.204565,0.591573,0.67783,-0.0207027,0.884164,0.39084,0.110261,0.779224,3.8402,15.6879,42.674,343.694
1147,39.77,-0.415627,-0.135741,15.098,0.140199,0.41323,0.561555,1.39394,-0.220866,-0.0207027,0.0219214,0.39084,0.251683,0.613177,4.79872,15.6671,48.6229,343.96
1153,37.2423,-1.18028,0.329793,15.6752,0.345284,0.360063,0.105823,0.591573,-0.220866,0.793602,0.884164,0.39084,0.251683,0.779224,2.88169,15.6879,57.0399,344.265
1159,38.8662,-0.833364,-0.0531714,15.3704,0.694687,0.549943,0.599533,1.39394,0.67783,1.60791,0.0219214,0.39084,0.110261,0.613177,3.8402,15.6879,55.6917,344.624
1165,38.5613,0.160289,0.553775,15.5934,0.223752,1.07401,0.166587,0.591573,-0.220866,-0.0207027,0.884164,0.39084,0.110261,0.779224,3.8402,15.501,62.9189,345.001
1171,41.3097,0.389951,0.783462,15.5553,-0.00411971,0.124613,0.121014,1.39394,-1.11956,-0.0207027,0.884164,-0.359065,0.110261,0.613177,2.88169,15.4803,62.2163,345.386
1177,43.507,-0.0369162,0.548079,15.2828,0.0642418,-0.0348864,0.265329,0.591573,-1.11956,-0.0207027,2.60865,0.39084,0.393105,0.613177,2.88169,15.4595,60.7943,345.751
1183,44.3808,0.275118,0.821744,15.2885,0.238943,0.960083,0.69068,-0.21079,0.67783,-0.0207027,0.884164,-0.359065,0.251683,0.779224,2.88169,15.4803,52.4225,346.116
1189,43.2728,0.0454627,1.35772,15.5553,0.519985,0.496777,0.584342,1.39394,-0.220866,-0.0207027,-1.70256,0.0158878,0.110261,0.447131,3.8402,15.5218,52.3396,346.423
1195,43.6317,0.0951278,1.48397,15.6428,0.0718375,0.215755,0.371667,-0.21079,-1.11956,-0.0207027,0.0219214,0.0158878,0.251683,0.613177,4.79872,15.4803,47.2011,346.716
1201,40.2327,0.127708,0.750876,15.4085,0.231348,0.177779,0.189374,0.591573,-0.220866,-0.0207027,0.884164,0.0158878,-0.0311607,0.447131,3.8402,15.501,38.9712,346.964
1207,37.5434,-0.0581851,0.833136,15.6809,0.140199,0.337278,0.257734,1.39394,-0.220866,-0.0207027,0.884164,0.0158878,-0.0311607,1.11132,3.8402,15.4803,35.6568,347.19
1213,42.4116,0.0397673,0.548079,15.5115,0.0414546,0.724633,0.341285,1.39394,0.67783,-0.0207027,0.0219214,-0.734017,0.251683,0.945271,0.964651,15.4803,32.3548,347.391
1219,36.3873,-0.223347,0.324098,15.4028,0.337688,0.6183,0.265329,0.591573,-0.220866,-0.0207027,0.0219214,0.765793,0.110261,0.779224,3.8402,15.4803,23.4885,347.546
1225,34.5911,-0.99897,-0.14146,15.2828,0.117412,0.0714463,-0.0233016,1.39394,0.67783,-0.835007,0.884164,0.0158878,0.251683,0.779224,3.8402,15.4803,31.6065,347.722
1231,35.4867,-1.02031,-0.23962,15.1855,0.170582,0.549943,0.478004,0.591573,0.67783,0.793602,0.0219214,0.39084,0.110261,0.613177,3.8402,15.501,33.0755,347.916
1237,35.6018,-1.32311,-0.464668,15.0768,0.087029,0.291707,0.0298672,-0.21079,-0.220866,0.793602,0.0219214,0.0158878,0.110261,0.779224,4.79872,15.3764,40.5884,348.151
1243,35.8347,-1.41177,-0.437641,14.8749,0.223752,0.185374,0.242543,1.39394,-0.220866,0.793602,0.0219214,0.0158878,0.110261,0.613177,4.79872,15.3349,35.7349,348.379
1249,33.6567,-1.32885,-0.508872,14.9187,0.216156,0.367659,0.333689,1.39394,-0.220866,-0.0207027,0.0219214,0.39084,0.251683,0.613177,4.79872,15.3141,39.4544,348.61
1255,42.3284,-1.37318,-0.861155,14.7606,0.0642418,-0.00450562,0.00708059,0.591573,-0.220866,-0.0207027,0.0219214,0.0158878,0.110261,0.779224,3.8402,15.3141,42.7169,348.857
1261,40.6639,-1.71494,-0.816897,14.5756,0.10222,0.117017,0.0982271,1.39394,0.67783,-0.0207027,0.0219214,0.39084,0.393105,1.11132,2.88169,15.3349,47.4725,349.124
1267,38.6447,-1.45611,-1.0596,14.5643,0.466815,0.686657,0.713466,-0.21079,-0.220866,0.793602,-0.840321,0.765793,-0.0311607,0.613177,3.8402,2.35607,51.599,349.416
1273,38.2056,-0.993234,-0.866888,14.7549,0.0490504,0.473991,0.34888,1.39394,0.67783,0.793602,1.74641,0.765793,0.110261,0.613177,4.79872,13.8813,57.2998,349.739
1279,37.3037,-0.646534,-0.251061,14.793,0.208561,0.572729,0.508387,-0.21079,0.67783,0.793602,0.0219214,0.39084,0.251683,0.779224,2.88169,13.1337,50.2839,350.09
1285,36.8178,0.154593,0.0504606,14.8636,0.519985,0.770204,0.128609,-0.21079,-0.220866,0.793602,0.884164,0.0158878,0.110261,0.613177,4.79872,11.6593,52.9474,350.421
1291,38.1261,-0.102325,-0.28379,14.8749,-0.0496941,0.0486607,0.21216,0.591573,0.67783,0.793602,0.0219214,0.765793,0.251683,0.779224,4.79872,14.6288,58.1127,350.75
1297,39.198,-0.332977,-0.514598,14.6462,0.0338589,0.0334703,0.196969,0.591573,-0.220866,-0.0207027,0.0219214,0.39084,0.251683,0.447131,3.8402,14.1512,53.4693,351.099
1303,37.9847,-1.09742,-0.585848,14.5375,0.0490504,0.139803,-0.0233016,1.39394,1.57652,-0.0207027,-0.840321,0.0158878,0.251683,0.447131,1.92317,13.0091,68.3069,351.482
1309,41.2513,-1.10889,-0.866888,14.4499,0.0718375,0.0714463,0.728657,0.591573,-1.11956,-0.835007,0.0219214,0.0158878,0.110261,0.613177,2.88169,15.1272,66.7687,351.887
1315,38.9619,-1.68206,0.176681,15.1799,0.542772,0.0714463,0.181778,0.591573,-0.220866,0.793602,-0.840321,-1.10897,0.110261,0.613177,2.88169,15.148,69.5587,352.313
1321,38.0174,-0.866157,0.067546,14.6519,0.254135,0.147398,0.219756,1.39394,0.67783,-0.0207027,0.884164,0.39084,0.251683,0.613177,2.88169,15.1688,63.904,352.699
1327,39.2517,-1.02605,0.176681,14.4174,0.0262632,0.139803,-0.0460882,-1.01315,-0.220866,0.793602,0.0219214,0.0158878,0.110261,0.613177,2.88169,14.6496,65.6565,353.08
1333,42.1772,-0.250351,-0.00903834,14.2324,0.330092,0.246136,0.136205,1.39394,0.67783,-0.0207027,-0.840321,0.765793,-0.0311607,0.613177,3.8402,15.0026,62.6356,353.482
1339,41.2057,-0.948958,0.712595,14.5699,0.428837,0.504372,0.1438,-0.21079,-0.220866,-0.0207027,0.884164,0.0158878,0.251683,0.447131,3.8402,14.9819,59.9975,353.84
1345,40.8666,-0.44265,0.603447,14.7662,0.550368,0.891727,0.432431,0.591573,-0.220866,-0.0207027,0.884164,-0.359065,0.110261,0.779224,2.88169,15.1272,58.1861,354.208
1351,41.5701,-0.332977,0.750876,14.9893,0.352879,0.527158,0.728657,-0.21079,0.67783,-0.0207027,0.0219214,0.0158878,0.251683,0.945271,3.8402,14.9819,54.7583,354.555
1357,38.5369,-0.640806,1.09542,15.1036,0.398454,0.777799,0.447622,-0.21079,-1.11956,2.42221,0.884164,0.0158878,0.110261,0.779224,2.88169,14.9819,60.7912,354.931
1363,40.8351,0.0511578,1.05714,15.0274,0.193369,0.352468,0.341285,0.591573,0.67783,-0.0207027,0.884164,-0.359065,-0.0311607,0.779224,2.88169,14.9611,54.1757,355.287
1369,38.2442,-0.910422,1.47827,15.4466,0.497198,0.41323,0.121014,-0.21079,-0.220866,0.793602,1.74641,0.0158878,0.110261,0.779224,3.8402,14.9819,59.5189,355.62
1375,42.8586,-0.332977,1.21028,15.2942,0.755453,0.861346,0.303307,-0.21079,-2.01826,0.793602,-0.840321,0.0158878,0.251683,0.613177,2.88169,14.9819,50.3893,355.942
1381,34.318,-0.4754,0.800549,15.0387,0.535177,0.147398,0.402049,0.591573,-0.220866,-0.0207027,0.0219214,0.39084,0.110261,0.779224,3.8402,14.9611,56.1357,356.257
1387,35.3935,-0.948958,0.291515,14.5699,0.0642418,0.398039,0.0526539,0.591573,-0.220866,-0.0207027,0.0219214,0.0158878,-0.0311607,0.779224,2.88169,14.9819,65.2214,356.608
1393,37.2077,-0.377161,0.132709,14.5261,-0.0724812,0.185374,0.721062,-0.21079,0.67783,-0.0207027,-0.840321,0.39084,0.110261,0.613177,3.8402,14.9819,61.9478,356.973
1399,36.4661,-1.18028,-0.130023,14.3411,0.208561,0.322088,0.174183,-0.21079,-0.220866,-0.0207027,0.0219214,-0.359065,0.110261,0.779224,3.8402,15.0026,63.4606,357.398
1405,38.2226,-1.68781,0.0944323,14.3736,0.0642418,-0.164005,0.0374628,0.591573,0.67783,-0.0207027,0.0219214,0.0158878,0.110261,0.779224,2.88169,14.9819,65.5906,357.807
1411,36.0961,-1.45037,-0.206896,14.7987,0.322496,0.747418,0.440027,0.591573,-0.220866,-0.0207027,-1.70256,0.0158878,0.393105,0.613177,4.79872,14.8157,63.0772,358.193
1417,37.1823,-0.987499,-0.168457,14.5699,0.0186675,0.0638511,0.272925,-0.21079,-0.220866,-0.0207027,-0.840321,0.765793,0.110261,0.779224,3.8402,14.795,63.6966,358.569
1423,39.8317,-1.0646,-0.630071,14.3793,0.0642418,-0.00450562,0.842591,1.39394,-1.11956,-0.835007,0.0219214,0.0158878,0.251683,0.779224,3.8402,14.8365,61.8003,358.94
1429,37.0946,-0.87189,-0.28379,14.6081,0.519985,0.215755,0.0906316,-0.21079,0.67783,0.793602,-0.840321,0.0158878,0.251683,0.779224,2.88169,15.0026,51.9413,359.271
1435,35.6424,-1.0646,0.597751,15.1799,0.383262,0.306897,0.234947,0.591573,-1.11956,-0.0207027,0.884164,0.0158878,-0.0311607,0.779224,2.88169,14.7327,51.4841,359.6
1441,35.7711,-0.800573,0.515494,14.8693,-0.0117154,0.192969,0.4856,0.591573,0.67783,-0.0207027,0.0219214,0.0158878,0.110261,0.779224,2.88169,14.795,37.9,359.854
1447,34.3163,0.012883,0.865723,15.1036,0.580751,1.39301,0.196969,0.591573,-0.220866,0.793602,0.0219214,0.0158878,-0.0311607,0.613177,2.88169,14.8157,37.0897,360.072
1453,39.5886,-1.03178,1.05144,15.3266,0.147795,0.511967,0.1438,0.591573,1.57652,0.793602,0.0219214,0.0158878,0.393105,0.613177,3.8402,14.795,39.3378,360.299
1459,32.0123,-0.679307,0.214959,15.1036,0.15539,0.0486607,0.326094,-1.01315,0.67783,0.793602,0.0219214,-0.359065,0.110261,0.779224,3.8402,14.8157,46.3927,360.552
1465,30.7677,-0.706355,-0.0801607,15.1531,0.147795,0.306897,0.394453,0.591573,1.57652,0.793602,0.0219214,0.39084,0.251683,0.613177,3.8402,14.6496,44.6389,360.836
1471,33.2504,-1.02605,-0.322245,14.7987,0.216156,0.41323,0.0298672,-1.01315,0.67783,1.60791,0.884164,0.39084,0.110261,0.779224,2.88169,14.795,0.0,360.997
1477,34.9308,-1.22459,-0.404894,14.6405,0.162986,0.00308957,0.067845,1.39394,-2.01826,-0.0207027,0.0219214,0.0158878,0.251683,0.779224,3.8402,14.795,0.0,360.997
1483,33.9689,-2.06281,-0.354983,15.0712,0.231348,0.246136,0.083036,0.591573,-0.220866,-0.835007,0.884164,0.765793,-0.0311607,0.779224,2.88169,14.7742,0.0,360.997
1484,34.0221,-2.84287,-0.0147538,14.6843,0.140199,0.534753,0.00708059,0.591573,-1.11956,-0.835007,0.884164,0.0158878,-0.172583,0.779224,3.8402,14.795,0.0,360.997