File: 01_Data/Particleboard/FTIR/IS/Particleboard_IS_S_220927_R3.dpt
7497.03,0.73488
7491.25,0.70666
7485.46,0.71664
7479.67,0.71380
7473.89,0.71314
7468.1,0.71154
7462.32,0.70304
7456.53,0.71533
7450.74,0.69847
7444.96,0.69227
7439.17,0.69361
7433.38,0.70776
7427.6,0.69478
7421.81,0.70016
7416.03,0.68840
7410.24,0.68546
7404.45,0.69503
7398.67,0.68532
7392.88,0.68335
7387.09,0.68583
7381.31,0.68874
7375.52,0.69079
7369.74,0.68366
7363.95,0.68170
7358.16,0.67022
7352.38,0.67766
7346.59,0.67790
7340.8,0.68038
7335.02,0.67084
7329.23,0.66895
7323.45,0.66129
7317.66,0.67015
7311.87,0.66186
7306.09,0.65797
7300.3,0.67285
7294.51,0.66975
7288.73,0.66595
7282.94,0.66062
7277.16,0.65422
7271.37,0.65727
7265.58,0.65476
7259.8,0.66732
7254.01,0.65466
7248.22,0.66514
7242.44,0.65690
7236.65,0.65136
7230.87,0.65667
7225.08,0.65899
7219.29,0.65785
7213.51,0.64737
7207.72,0.64841
7201.93,0.64540
7196.15,0.64302
7190.36,0.64557
7184.58,0.64716
7178.79,0.64449
7173,0.63993
7167.22,0.64353
7161.43,0.64284
7155.65,0.63108
7149.86,0.63347
7144.07,0.62530
7138.29,0.62375
7132.5,0.62359
7126.71,0.61788
7120.93,0.61822
7115.14,0.61247
7109.36,0.61156
7103.57,0.61089
7097.78,0.59888
7092,0.59802
7086.21,0.58781
7080.42,0.58363
7074.64,0.58197
7068.85,0.57868
7063.07,0.57761
7057.28,0.56701
7051.49,0.56593
7045.71,0.56281
7039.92,0.55259
7034.13,0.54634
7028.35,0.54937
7022.56,0.54518
7016.78,0.54323
7010.99,0.54189
7005.2,0.53301
6999.42,0.53416
6993.63,0.52523
6987.84,0.52285
6982.06,0.51819
6976.27,0.51667
6970.49,0.52035
6964.7,0.52011
6958.91,0.51266
6953.13,0.50876
6947.34,0.51036
6941.55,0.50651
6935.77,0.51065
6929.98,0.50477
6924.2,0.50239
6918.41,0.50202
6912.62,0.50033
6906.84,0.50445
6901.05,0.50444
6895.26,0.50629
6889.48,0.50598
6883.69,0.49967
6877.91,0.49944
6872.12,0.49914
6866.33,0.49657
6860.55,0.49765
6854.76,0.49566
6848.97,0.50073
6843.19,0.48949
6837.4,0.49706
6831.62,0.49376
6825.83,0.49252
6820.04,0.49302
6814.26,0.48982
6808.47,0.48720
6802.68,0.48703
6796.9,0.48865
6791.11,0.48966
6785.33,0.48545
6779.54,0.48396
6773.75,0.48261
6767.97,0.48727
6762.18,0.47613
6756.39,0.48036
6750.61,0.47748
6744.82,0.48321
6739.04,0.47743
6733.25,0.47729
6727.46,0.48229
6721.68,0.47731
6715.89,0.48186
6710.1,0.47637
6704.32,0.48222
6698.53,0.47793
6692.75,0.47503
6686.96,0.48174
6681.17,0.48165
6675.39,0.47977
6669.6,0.48023
6663.82,0.48142
6658.03,0.48172
6652.24,0.48278
6646.46,0.48729
6640.67,0.48816
6634.88,0.48743
6629.1,0.48425
6623.31,0.48911
6617.53,0.48996
6611.74,0.49186
6605.95,0.49224
6600.17,0.49459
6594.38,0.49867
6588.59,0.49612
6582.81,0.49855
6577.02,0.49967
6571.24,0.50133
6565.45,0.50221
6559.66,0.50245
6553.88,0.50390
6548.09,0.50567
6542.3,0.50529
6536.52,0.50705
6530.73,0.50645
6524.95,0.50631
6519.16,0.50392
6513.37,0.50678
6507.59,0.50659
6501.8,0.51297
6496.01,0.50958
6490.23,0.51292
6484.44,0.51568
6478.66,0.51535
6472.87,0.51175
6467.08,0.51866
6461.3,0.51399
6455.51,0.51360
6449.72,0.51413
6443.94,0.51919
6438.15,0.52001
6432.37,0.51725
6426.58,0.52020
6420.79,0.51874
6415.01,0.51799
6409.22,0.51923
6403.43,0.52284
6397.65,0.52356
6391.86,0.52549
6386.08,0.52380
6380.29,0.52824
6374.5,0.52061
6368.72,0.52478
6362.93,0.52293
6357.14,0.52532
6351.36,0.52580
6345.57,0.52547
6339.79,0.53007
6334,0.53141
6328.21,0.52598
6322.43,0.52855
6316.64,0.53154
6310.85,0.53084
6305.07,0.52911
6299.28,0.53077
6293.5,0.53134
6287.71,0.52959
6281.92,0.53056
6276.14,0.53561
6270.35,0.53840
6264.56,0.53786
6258.78,0.53925
6252.99,0.54110
6247.21,0.54339
6241.42,0.54523
6235.63,0.54736
6229.85,0.54913
6224.06,0.55135
6218.27,0.55054
6212.49,0.55264
6206.7,0.55579
6200.92,0.55655
6195.13,0.55884
6189.34,0.55963
6183.56,0.56116
6177.77,0.55860
6171.98,0.56023
6166.2,0.56512
6160.41,0.56683
6154.63,0.56683
6148.84,0.56732
6143.05,0.56919
6137.27,0.56881
6131.48,0.57211
6125.7,0.57348
6119.91,0.57594
6114.12,0.57721
6108.34,0.57691
6102.55,0.57455
6096.76,0.57540
6090.98,0.57605
6085.19,0.57549
6079.41,0.57235
6073.62,0.57401
6067.83,0.57857
6062.05,0.57411
6056.26,0.57634
6050.47,0.57312
6044.69,0.57606
6038.9,0.57327
6033.12,0.57033
6027.33,0.56962
6021.54,0.56649
6015.76,0.56475
6009.97,0.56051
6004.18,0.55835
5998.4,0.56069
5992.61,0.55691
5986.83,0.55670
5981.04,0.55360
5975.25,0.55489
5969.47,0.55491
5963.68,0.55567
5957.89,0.55205
5952.11,0.55348
5946.32,0.55346
5940.54,0.55545
5934.75,0.55708
5928.96,0.55462
5923.18,0.55520
5917.39,0.55487
5911.6,0.55374
5905.82,0.55238
5900.03,0.54754
5894.25,0.54807
5888.46,0.54640
5882.67,0.54567
5876.89,0.54304
5871.1,0.54303
5865.31,0.54267
5859.53,0.54261
5853.74,0.54358
5847.96,0.54223
5842.17,0.53962
5836.38,0.54057
5830.6,0.53806
5824.81,0.53737
5819.02,0.53775
5813.24,0.53561
5807.45,0.53561
5801.67,0.53719
5795.88,0.53982
5790.09,0.53663
5784.31,0.53744
5778.52,0.53799
5772.73,0.53831
5766.95,0.54050
5761.16,0.54245
5755.38,0.54096
5749.59,0.54478
5743.8,0.54392
5738.02,0.54224
5732.23,0.54179
5726.44,0.54167
5720.66,0.54104
5714.87,0.54169
5709.09,0.54150
5703.3,0.54141
5697.51,0.54242
5691.73,0.54172
5685.94,0.53967
5680.15,0.54157
5674.37,0.54170
5668.58,0.53898
5662.8,0.53912
5657.01,0.54012
5651.22,0.53877
5645.44,0.54035
5639.65,0.54229
5633.87,0.54072
5628.08,0.54144
5622.29,0.53890
5616.51,0.53973
5610.72,0.54111
5604.93,0.53970
5599.15,0.53991
5593.36,0.54036
5587.58,0.54268
5581.79,0.54164
5576,0.54194
5570.22,0.54192
5564.43,0.54519
5558.64,0.54449
5552.86,0.54433
5547.07,0.54428
5541.29,0.54474
5535.5,0.54554
5529.71,0.54557
5523.93,0.54520
5518.14,0.54651
5512.35,0.54964
5506.57,0.55030
5500.78,0.55048
5495,0.54861
5489.21,0.55026
5483.42,0.55013
5477.64,0.55109
5471.85,0.55025
5466.06,0.55167
5460.28,0.55378
5454.49,0.55326
5448.71,0.55444
5442.92,0.55662
5437.13,0.55776
5431.35,0.55926
5425.56,0.56087
5419.77,0.56173
5413.99,0.56064
5408.2,0.56212
5402.42,0.56362
5396.63,0.56335
5390.84,0.56330
5385.06,0.56430
5379.27,0.56376
5373.48,0.56471
5367.7,0.56330
5361.91,0.56271
5356.13,0.56374
5350.34,0.56177
5344.55,0.56115
5338.77,0.56071
5332.98,0.55649
5327.19,0.55616
5321.41,0.55236
5315.62,0.54701
5309.84,0.54169
5304.05,0.53614
5298.26,0.52932
5292.48,0.52206
5286.69,0.51460
5280.9,0.50264
5275.12,0.49312
5269.33,0.48335
5263.55,0.47286
5257.76,0.46149
5251.97,0.45006
5246.19,0.44073
5240.4,0.43211
5234.61,0.42329
5228.83,0.41918
5223.04,0.41256
5217.26,0.40788
5211.47,0.40462
5205.68,0.40151
5199.9,0.39934
5194.11,0.39820
5188.32,0.39529
5182.54,0.39474
5176.75,0.39419
5170.97,0.39421
5165.18,0.39575
5159.39,0.39745
5153.61,0.39725
5147.82,0.39755
5142.03,0.40040
5136.25,0.40133
5130.46,0.40158
5124.68,0.40291
5118.89,0.40468
5113.1,0.40386
5107.32,0.40247
5101.53,0.40236
5095.75,0.40175
5089.96,0.39912
5084.17,0.39711
5078.39,0.39607
5072.6,0.39615
5066.81,0.39586
5061.03,0.39623
5055.24,0.40040
5049.46,0.40147
5043.67,0.40357
5037.88,0.40477
5032.1,0.40707
5026.31,0.40950
5020.52,0.41202
5014.74,0.41312
5008.95,0.41625
5003.17,0.41806
4997.38,0.41800
4991.59,0.41966
4985.81,0.41882
4980.02,0.41863
4974.23,0.41782
4968.45,0.41650
4962.66,0.41401
4956.88,0.41073
4951.09,0.40787
4945.3,0.40488
4939.52,0.40251
4933.73,0.39937
4927.94,0.39498
4922.16,0.39085
4916.37,0.38851
4910.59,0.38477
4904.8,0.38128
4899.01,0.37923
4893.23,0.37586
4887.44,0.37444
4881.65,0.37083
4875.87,0.36815
4870.08,0.36624
4864.3,0.36378
4858.51,0.36051
4852.72,0.35843
4846.94,0.35704
4841.15,0.35406
4835.36,0.35202
4829.58,0.35019
4823.79,0.34763
4818.01,0.34675
4812.22,0.34422
4806.43,0.34254
4800.65,0.34276
4794.86,0.34068
4789.07,0.33990
4783.29,0.33907
4777.5,0.34008
4771.72,0.33974
4765.93,0.33898
4760.14,0.33898
4754.36,0.33914
4748.57,0.33857
4742.78,0.33841
4737,0.33916
4731.21,0.33808
4725.43,0.33846
4719.64,0.33861
4713.85,0.33959
4708.07,0.34063
4702.28,0.34057
4696.49,0.34034
4690.71,0.34097
4684.92,0.34031
4679.14,0.34184
4673.35,0.34273
4667.56,0.34299
4661.78,0.34402
4655.99,0.34569
4650.2,0.34629
4644.42,0.34757
4638.63,0.34732
4632.85,0.34821
4627.06,0.35029
4621.27,0.35105
4615.49,0.35382
4609.7,0.35467
4603.92,0.35645
4598.13,0.35732
4592.34,0.35767
4586.56,0.35918
4580.77,0.36041
4574.98,0.36062
4569.2,0.36134
4563.41,0.36175
4557.63,0.36174
4551.84,0.36347
4546.05,0.36340
4540.27,0.36418
4534.48,0.36446
4528.69,0.36638
4522.91,0.36597
4517.12,0.36554
4511.34,0.36694
4505.55,0.36698
4499.76,0.36609
4493.98,0.36479
4488.19,0.36356
4482.4,0.36145
4476.62,0.35822
4470.83,0.35369
4465.05,0.35009
4459.26,0.34524
4453.47,0.33991
4447.69,0.33477
4441.9,0.32930
4436.11,0.32467
4430.33,0.31904
4424.54,0.31356
4418.76,0.31004
4412.97,0.30608
4407.18,0.30312
4401.4,0.30143
4395.61,0.30135
4389.82,0.30194
4384.04,0.30387
4378.25,0.30609
4372.47,0.30795
4366.68,0.31009
4360.89,0.31100
4355.11,0.31209
4349.32,0.31125
4343.53,0.30994
4337.75,0.30892
4331.96,0.30821
4326.18,0.30698
4320.39,0.30525
4314.6,0.30461
4308.82,0.30401
4303.03,0.30246
4297.24,0.30084
4291.46,0.29998
4285.67,0.29887
4279.89,0.29813
4274.1,0.29976
4268.31,0.30018
4262.53,0.30085
4256.74,0.30180
4250.95,0.30249
4245.17,0.30415
4239.38,0.30527
4233.6,0.30608
4227.81,0.30653
4222.02,0.30630
4216.24,0.30556
4210.45,0.30596
4204.66,0.30623
4198.88,0.30584
4193.09,0.30611
4187.31,0.30587
4181.52,0.30665
4175.73,0.30758
4169.95,0.30841
4164.16,0.30882
4158.37,0.30782
4152.59,0.30675
4146.8,0.30478
4141.02,0.30266
4135.23,0.30122
4129.44,0.29810
4123.66,0.29455
4117.87,0.29161
4112.09,0.28794
4106.3,0.28467
4100.51,0.28119
4094.73,0.27649
4088.94,0.27204
4083.15,0.26805
4077.37,0.26383
4071.58,0.25978
4065.8,0.25530
4060.01,0.25143
4054.22,0.24765
4048.44,0.24388
4042.65,0.24039
4036.86,0.23742
4031.08,0.23518
4025.29,0.23297
4019.51,0.23189
4013.72,0.23089
4007.93,0.23078
4002.15,0.23099
3996.36,0.23116
3990.57,0.23235
3984.79,0.23342
3979,0.23395
3973.22,0.23505
3967.43,0.23686
3961.64,0.23835
3955.86,0.24010
3950.07,0.24204
3944.28,0.24362
3938.5,0.24580
3932.71,0.24811
3926.93,0.25015
3921.14,0.25182
3915.35,0.25330
3909.57,0.25445
3903.78,0.25727
3897.99,0.25833
3892.21,0.26067
3886.42,0.26261
3880.64,0.26409
3874.85,0.26546
3869.06,0.26726
3863.28,0.26966
3857.49,0.27279
3851.7,0.27492
3845.92,0.27711
3840.13,0.27892
3834.35,0.27971
3828.56,0.28109
3822.77,0.28150
3816.99,0.28223
3811.2,0.28205
3805.41,0.28226
3799.63,0.28213
3793.84,0.28223
3788.06,0.28150
3782.27,0.28127
3776.48,0.28067
3770.7,0.27955
3764.91,0.27833
3759.12,0.27673
3753.34,0.27505
3747.55,0.27305
3741.77,0.27103
3735.98,0.26820
3730.19,0.26412
3724.41,0.26022
3718.62,0.25589
3712.83,0.25153
3707.05,0.24423
3701.26,0.23741
3695.48,0.22865
3689.69,0.21948
3683.9,0.20674
3678.12,0.19352
3672.33,0.17859
3666.54,0.16496
3660.76,0.15165
3654.97,0.13913
3649.19,0.12844
3643.4,0.11873
3637.61,0.11053
3631.83,0.10367
3626.04,0.09698
3620.25,0.09132
3614.47,0.08599
3608.68,0.08058
3602.9,0.07607
3597.11,0.07211
3591.32,0.06816
3585.54,0.06524
3579.75,0.06250
3573.97,0.05942
3568.18,0.05691
3562.39,0.05521
3556.61,0.05269
3550.82,0.05154
3545.03,0.04925
3539.25,0.04936
3533.46,0.04709
3527.68,0.04649
3521.89,0.04551
3516.1,0.04380
3510.32,0.04249
3504.53,0.04182
3498.74,0.04136
3492.96,0.04021
3487.17,0.03974
3481.39,0.03902
3475.6,0.03845
3469.81,0.03767
3464.03,0.03848
3458.24,0.03742
3452.45,0.03816
3446.67,0.03692
3440.88,0.03739
3435.1,0.03704
3429.31,0.03740
3423.52,0.03766
3417.74,0.03705
3411.95,0.03766
3406.16,0.03783
3400.38,0.03754
3394.59,0.03742
3388.81,0.03766
3383.02,0.03710
3377.23,0.03780
3371.45,0.03771
3365.66,0.03852
3359.87,0.03869
3354.09,0.03805
3348.3,0.03918
3342.52,0.03962
3336.73,0.03955
3330.94,0.04115
3325.16,0.04121
3319.37,0.04193
3313.58,0.04126
3307.8,0.04281
3302.01,0.04312
3296.23,0.04345
3290.44,0.04334
3284.65,0.04362
3278.87,0.04446
3273.08,0.04531
3267.29,0.04560
3261.51,0.04579
3255.72,0.04652
3249.94,0.04722
3244.15,0.04764
3238.36,0.04823
3232.58,0.04944
3226.79,0.05000
3221,0.05009
3215.22,0.05086
3209.43,0.05156
3203.65,0.05236
3197.86,0.05342
3192.07,0.05394
3186.29,0.05431
3180.5,0.05560
3174.71,0.05626
3168.93,0.05721
3163.14,0.05871
3157.36,0.05981
3151.57,0.06021
3145.78,0.06168
3140,0.06241
3134.21,0.06335
3128.42,0.06422
3122.64,0.06473
3116.85,0.06538
3111.07,0.06716
3105.28,0.06738
3099.49,0.06792
3093.71,0.06945
3087.92,0.07026
3082.14,0.07018
3076.35,0.07131
3070.56,0.07284
3064.78,0.07382
3058.99,0.07473
3053.2,0.07521
3047.42,0.07605
3041.63,0.07674
3035.85,0.07766
3030.06,0.07727
3024.27,0.07808
3018.49,0.07795
3012.7,0.07720
3006.91,0.07691
3001.13,0.07539
2995.34,0.07448
2989.56,0.07239
2983.77,0.07016
2977.98,0.06696
2972.2,0.06309
2966.41,0.06032
2960.62,0.05891
2954.84,0.05816
2949.05,0.05672
2943.27,0.05545
2937.48,0.05431
2931.69,0.05411
2925.91,0.05402
2920.12,0.05410
2914.33,0.05422
2908.55,0.05526
2902.76,0.05535
2896.98,0.05658
2891.19,0.05722
2885.4,0.05799
2879.62,0.05873
2873.83,0.05907
2868.04,0.06019
2862.26,0.06118
2856.47,0.06228
2850.69,0.06300
2844.9,0.06678
2839.11,0.07115
2833.33,0.07483
2827.54,0.07821
2821.75,0.08176
2815.97,0.08471
2810.18,0.08755
2804.4,0.08938
2798.61,0.09133
2792.82,0.09308
2787.04,0.09450
2781.25,0.09520
2775.46,0.09615
2769.68,0.09727
2763.89,0.09831
2758.11,0.09848
2752.32,0.09896
2746.53,0.09972
2740.75,0.10000
2734.96,0.10123
2729.17,0.10140
2723.39,0.10277
2717.6,0.10367
2711.82,0.10473
2706.03,0.10664
2700.24,0.10766
2694.46,0.10900
2688.67,0.11022
2682.88,0.11174
2677.1,0.11303
2671.31,0.11413
2665.53,0.11552
2659.74,0.11612
2653.95,0.11725
2648.17,0.11762
2642.38,0.11923
2636.59,0.12069
2630.81,0.12156
2625.02,0.12279
2619.24,0.12347
2613.45,0.12443
2607.66,0.12593
2601.88,0.12616
2596.09,0.12778
2590.3,0.12893
2584.52,0.12983
2578.73,0.13089
2572.95,0.13081
2567.16,0.13145
2561.37,0.13170
2555.59,0.13154
2549.8,0.13237
2544.02,0.13252
2538.23,0.13320
2532.44,0.13431
2526.66,0.13556
2520.87,0.13622
2515.08,0.13726
2509.3,0.13834
2503.51,0.14003
2497.73,0.14167
2491.94,0.14352
2486.15,0.14524
2480.37,0.14689
2474.58,0.14820
2468.79,0.14914
2463.01,0.15039
2457.22,0.15200
2451.44,0.15366
2445.65,0.15485
2439.86,0.15676
2434.08,0.15847
2428.29,0.16062
2422.5,0.16267
2416.72,0.16505
2410.93,0.16688
2405.15,0.16912
2399.36,0.17086
2393.57,0.17339
2387.79,0.17513
2382,0.17725
2376.21,0.17796
2370.43,0.17988
2364.64,0.18110
2358.86,0.18221
2353.07,0.18319
2347.28,0.18434
2341.5,0.18487
2335.71,0.18591
2329.92,0.18631
2324.14,0.18647
2318.35,0.18693
2312.57,0.18720
2306.78,0.18653
2300.99,0.18617
2295.21,0.18537
2289.42,0.18523
2283.63,0.18457
2277.85,0.18433
2272.06,0.18302
2266.28,0.18165
2260.49,0.18008
2254.7,0.17940
2248.92,0.17843
2243.13,0.17783
2237.34,0.17705
2231.56,0.17630
2225.77,0.17570
2219.99,0.17507
2214.2,0.17448
2208.41,0.17393
2202.63,0.17289
2196.84,0.17128
2191.05,0.16954
2185.27,0.16809
2179.48,0.16583
2173.7,0.16440
2167.91,0.16279
2162.12,0.16152
2156.34,0.16040
2150.55,0.15982
2144.76,0.15944
2138.98,0.15912
2133.19,0.15908
2127.41,0.15932
2121.62,0.16005
2115.83,0.16049
2110.05,0.16167
2104.26,0.16187
2098.47,0.16214
2092.69,0.16216
2086.9,0.16214
2081.12,0.16170
2075.33,0.16112
2069.54,0.15989
2063.76,0.15948
2057.97,0.15943
2052.19,0.15894
2046.4,0.15959
2040.61,0.16079
2034.83,0.16179
2029.04,0.16352
2023.25,0.16514
2017.47,0.16682
2011.68,0.16826
2005.9,0.16932
2000.11,0.17053
1994.32,0.17146
1988.54,0.17249
1982.75,0.17344
1976.96,0.17408
1971.18,0.17486
1965.39,0.17604
1959.61,0.17690
1953.82,0.17814
1948.03,0.17962
1942.25,0.18099
1936.46,0.18207
1930.67,0.18226
1924.89,0.18253
1919.1,0.18249
1913.32,0.18180
1907.53,0.18126
1901.74,0.18038
1895.96,0.17987
1890.17,0.17886
1884.38,0.17810
1878.6,0.17761
1872.81,0.17716
1867.03,0.17614
1861.24,0.17481
1855.45,0.17305
1849.67,0.17176
1843.88,0.16975
1838.09,0.16700
1832.31,0.16474
1826.52,0.16131
1820.74,0.15729
1814.95,0.15285
1809.16,0.14816
1803.38,0.14291
1797.59,0.13688
1791.8,0.12981
1786.02,0.12193
1780.23,0.11340
1774.45,0.10425
1768.66,0.09300
1762.87,0.08107
1757.09,0.06978
1751.3,0.06169
1745.51,0.05570
1739.73,0.05317
1733.94,0.05207
1728.16,0.05153
1722.37,0.05215
1716.58,0.05260
1710.8,0.05273
1705.01,0.05131
1699.22,0.04899
1693.44,0.04612
1687.65,0.04369
1681.87,0.04065
1676.08,0.03905
1670.29,0.03846
1664.51,0.03911
1658.72,0.04040
1652.93,0.04227
1647.15,0.04355
1641.36,0.04473
1635.58,0.04527
1629.79,0.04528
1624,0.04479
1618.22,0.04502
1612.43,0.04452
1606.64,0.04427
1600.86,0.04474
1595.07,0.04567
1589.29,0.04671
1583.5,0.04835
1577.71,0.04981
1571.93,0.05127
1566.14,0.05200
1560.35,0.05279
1554.57,0.05182
1548.78,0.05189
1543,0.05188
1537.21,0.05150
1531.42,0.05149
1525.64,0.04966
1519.85,0.04649
1514.07,0.04382
1508.28,0.04517
1502.49,0.04755
1496.71,0.05039
1490.92,0.05150
1485.13,0.05093
1479.35,0.04921
1473.56,0.04622
1467.78,0.04381
1461.99,0.04364
1456.2,0.04345
1450.42,0.04357
1444.63,0.04393
1438.84,0.04401
1433.06,0.04235
1427.27,0.04267
1421.49,0.04342
1415.7,0.04466
1409.91,0.04511
1404.13,0.04516
1398.34,0.04435
1392.55,0.04293
1386.77,0.04184
1380.98,0.04026
1375.2,0.04063
1369.41,0.04106
1363.62,0.04186
1357.84,0.04239
1352.05,0.04245
1346.26,0.04195
1340.48,0.04219
1334.69,0.04163
1328.91,0.04166
1323.12,0.04144
1317.33,0.04117
1311.55,0.04172
1305.76,0.04241
1299.97,0.04180
1294.19,0.04110
1288.4,0.03987
1282.62,0.03876
1276.83,0.03808
1271.04,0.03804
1265.26,0.03877
1259.47,0.03979
1253.68,0.04100
1247.9,0.04086
1242.11,0.04111
1236.33,0.04084
1230.54,0.04113
1224.75,0.04176
1218.97,0.04225
1213.18,0.04211
1207.39,0.04188
1201.61,0.04240
1195.82,0.04187
1190.04,0.04090
1184.25,0.03943
1178.46,0.03702
1172.68,0.03490
1166.89,0.03529
1161.1,0.03733
1155.32,0.03793
1149.53,0.03667
1143.75,0.03615
1137.96,0.03527
1132.17,0.03479
1126.39,0.03418
1120.6,0.03534
1114.81,0.03544
1109.03,0.03724
1103.24,0.03809
1097.46,0.03804
1091.67,0.03693
1085.88,0.03800
1080.1,0.03829
1074.31,0.04013
1068.52,0.04357
1062.74,0.04829
1056.95,0.05135
1051.17,0.05156
1045.38,0.05102
1039.59,0.05212
1033.81,0.05653
1028.02,0.05779
1022.24,0.05885
1016.45,0.05984
1010.66,0.06014
1004.88,0.06058
999.09,0.06069
993.304,0.06264
987.518,0.06444
981.731,0.06701
975.945,0.06899
970.159,0.07037
964.373,0.07118
958.586,0.07268
952.8,0.07461
947.014,0.07589
941.228,0.07583
935.441,0.07732
929.655,0.07851
923.869,0.07805
918.083,0.07701
912.297,0.07480
906.51,0.07071
900.724,0.06825
894.938,0.06813
889.152,0.07000
883.365,0.07149
877.579,0.07164
871.793,0.07131
866.007,0.07155
860.22,0.07197
854.434,0.07251
848.648,0.07393
842.862,0.07379
837.075,0.07201
831.289,0.06983
825.503,0.06769
819.717,0.06479
813.931,0.06296
808.144,0.06326
802.358,0.06297
796.572,0.06276
790.786,0.06271
784.999,0.06089
779.213,0.05902
773.427,0.05898
767.641,0.05830
761.854,0.05812
756.068,0.05707
750.282,0.05605
744.496,0.05488
738.709,0.05371
732.923,0.05248
727.137,0.05123
721.351,0.05108
715.565,0.04967
709.778,0.04866
703.992,0.04764
698.206,0.04900
692.42,0.04878
686.633,0.04679
680.847,0.04569
675.061,0.04552
669.275,0.04541
663.488,0.04663
657.702,0.04754
651.916,0.04542
646.13,0.04499
640.343,0.04457
634.557,0.04355
628.771,0.04427
622.985,0.04400
617.198,0.04513
611.412,0.04737
605.626,0.04668
599.84,0.04744