File: 01_Data/Particleboard/FTIR/IS/Particleboard_IS_S_220927_R1.dpt
7497.03,0.71618
7491.25,0.70403
7485.46,0.71278
7479.67,0.71312
7473.89,0.71804
7468.1,0.69753
7462.32,0.69170
7456.53,0.69957
7450.74,0.70470
7444.96,0.69903
7439.17,0.70439
7433.38,0.69456
7427.6,0.69360
7421.81,0.70161
7416.03,0.69501
7410.24,0.70010
7404.45,0.69350
7398.67,0.68646
7392.88,0.68077
7387.09,0.68408
7381.31,0.67745
7375.52,0.67946
7369.74,0.67461
7363.95,0.67659
7358.16,0.66995
7352.38,0.67621
7346.59,0.67503
7340.8,0.67671
7335.02,0.67030
7329.23,0.66929
7323.45,0.66717
7317.66,0.66830
7311.87,0.66168
7306.09,0.65944
7300.3,0.66493
7294.51,0.66114
7288.73,0.66907
7282.94,0.65681
7277.16,0.65907
7271.37,0.65821
7265.58,0.65567
7259.8,0.65825
7254.01,0.66264
7248.22,0.65322
7242.44,0.65600
7236.65,0.65525
7230.87,0.65263
7225.08,0.65549
7219.29,0.65276
7213.51,0.65156
7207.72,0.64805
7201.93,0.65354
7196.15,0.64689
7190.36,0.65282
7184.58,0.64378
7178.79,0.64554
7173,0.64035
7167.22,0.64063
7161.43,0.63582
7155.65,0.63918
7149.86,0.62750
7144.07,0.62029
7138.29,0.62367
7132.5,0.61653
7126.71,0.61829
7120.93,0.62096
7115.14,0.61578
7109.36,0.60450
7103.57,0.59945
7097.78,0.59456
7092,0.59196
7086.21,0.58976
7080.42,0.58345
7074.64,0.59174
7068.85,0.57549
7063.07,0.56969
7057.28,0.56778
7051.49,0.55749
7045.71,0.55555
7039.92,0.55246
7034.13,0.55002
7028.35,0.54556
7022.56,0.53707
7016.78,0.54016
7010.99,0.52953
7005.2,0.52844
6999.42,0.51872
6993.63,0.52228
6987.84,0.52119
6982.06,0.51615
6976.27,0.51456
6970.49,0.51602
6964.7,0.51697
6958.91,0.51892
6953.13,0.51317
6947.34,0.50762
6941.55,0.50637
6935.77,0.50844
6929.98,0.50546
6924.2,0.50138
6918.41,0.50206
6912.62,0.49663
6906.84,0.50004
6901.05,0.49677
6895.26,0.49404
6889.48,0.48871
6883.69,0.49310
6877.91,0.49409
6872.12,0.49372
6866.33,0.49862
6860.55,0.49524
6854.76,0.49120
6848.97,0.49031
6843.19,0.49388
6837.4,0.49137
6831.62,0.48679
6825.83,0.49085
6820.04,0.48873
6814.26,0.49416
6808.47,0.48269
6802.68,0.48921
6796.9,0.48242
6791.11,0.48784
6785.33,0.48730
6779.54,0.47636
6773.75,0.48140
6767.97,0.48193
6762.18,0.48388
6756.39,0.47435
6750.61,0.47540
6744.82,0.47374
6739.04,0.47300
6733.25,0.46972
6727.46,0.47947
6721.68,0.47429
6715.89,0.46913
6710.1,0.47468
6704.32,0.47543
6698.53,0.47311
6692.75,0.47238
6686.96,0.47430
6681.17,0.48068
6675.39,0.47780
6669.6,0.47840
6663.82,0.47985
6658.03,0.48294
6652.24,0.48305
6646.46,0.47982
6640.67,0.48496
6634.88,0.48120
6629.1,0.48518
6623.31,0.48750
6617.53,0.48633
6611.74,0.48699
6605.95,0.49439
6600.17,0.49499
6594.38,0.48844
6588.59,0.49225
6582.81,0.49836
6577.02,0.49555
6571.24,0.49716
6565.45,0.49841
6559.66,0.49942
6553.88,0.50302
6548.09,0.50118
6542.3,0.50024
6536.52,0.50346
6530.73,0.50738
6524.95,0.50520
6519.16,0.50475
6513.37,0.51165
6507.59,0.50474
6501.8,0.50726
6496.01,0.50695
6490.23,0.50740
6484.44,0.50855
6478.66,0.50862
6472.87,0.50843
6467.08,0.51357
6461.3,0.51479
6455.51,0.51441
6449.72,0.51374
6443.94,0.51496
6438.15,0.51807
6432.37,0.51340
6426.58,0.51446
6420.79,0.51429
6415.01,0.51879
6409.22,0.51785
6403.43,0.51775
6397.65,0.51985
6391.86,0.51858
6386.08,0.51469
6380.29,0.51871
6374.5,0.51867
6368.72,0.51996
6362.93,0.52160
6357.14,0.51687
6351.36,0.52432
6345.57,0.52501
6339.79,0.52202
6334,0.52188
6328.21,0.52413
6322.43,0.52382
6316.64,0.52248
6310.85,0.52557
6305.07,0.52699
6299.28,0.52739
6293.5,0.53046
6287.71,0.52791
6281.92,0.52857
6276.14,0.53079
6270.35,0.53172
6264.56,0.53396
6258.78,0.53549
6252.99,0.54080
6247.21,0.54112
6241.42,0.53777
6235.63,0.54227
6229.85,0.54424
6224.06,0.54813
6218.27,0.55061
6212.49,0.54967
6206.7,0.55335
6200.92,0.55267
6195.13,0.55362
6189.34,0.55239
6183.56,0.55792
6177.77,0.55892
6171.98,0.56129
6166.2,0.56267
6160.41,0.56655
6154.63,0.56379
6148.84,0.56521
6143.05,0.56528
6137.27,0.56799
6131.48,0.57014
6125.7,0.56887
6119.91,0.57408
6114.12,0.57184
6108.34,0.57071
6102.55,0.57183
6096.76,0.57287
6090.98,0.57492
6085.19,0.57650
6079.41,0.57430
6073.62,0.57477
6067.83,0.57413
6062.05,0.57409
6056.26,0.57337
6050.47,0.57025
6044.69,0.57070
6038.9,0.57098
6033.12,0.56854
6027.33,0.56504
6021.54,0.56376
6015.76,0.56127
6009.97,0.55813
6004.18,0.55922
5998.4,0.55464
5992.61,0.55419
5986.83,0.55261
5981.04,0.55373
5975.25,0.55033
5969.47,0.55089
5963.68,0.55049
5957.89,0.55392
5952.11,0.55504
5946.32,0.55136
5940.54,0.55184
5934.75,0.55290
5928.96,0.55076
5923.18,0.54976
5917.39,0.54793
5911.6,0.54732
5905.82,0.54785
5900.03,0.54396
5894.25,0.54511
5888.46,0.54468
5882.67,0.54399
5876.89,0.54203
5871.1,0.54022
5865.31,0.53917
5859.53,0.53919
5853.74,0.54056
5847.96,0.53772
5842.17,0.53842
5836.38,0.54020
5830.6,0.53712
5824.81,0.53576
5819.02,0.53952
5813.24,0.53516
5807.45,0.53436
5801.67,0.53597
5795.88,0.53636
5790.09,0.53578
5784.31,0.53451
5778.52,0.53700
5772.73,0.53832
5766.95,0.53784
5761.16,0.53871
5755.38,0.53895
5749.59,0.53989
5743.8,0.53958
5738.02,0.53928
5732.23,0.53824
5726.44,0.53870
5720.66,0.53991
5714.87,0.53775
5709.09,0.53949
5703.3,0.54006
5697.51,0.53814
5691.73,0.53829
5685.94,0.53751
5680.15,0.53527
5674.37,0.53701
5668.58,0.53670
5662.8,0.53667
5657.01,0.53654
5651.22,0.53735
5645.44,0.53742
5639.65,0.53890
5633.87,0.53864
5628.08,0.53878
5622.29,0.53630
5616.51,0.53767
5610.72,0.54054
5604.93,0.53956
5599.15,0.54168
5593.36,0.53978
5587.58,0.53917
5581.79,0.53976
5576,0.53936
5570.22,0.54059
5564.43,0.54102
5558.64,0.54142
5552.86,0.54140
5547.07,0.54128
5541.29,0.54409
5535.5,0.54222
5529.71,0.54488
5523.93,0.54543
5518.14,0.54530
5512.35,0.54677
5506.57,0.54523
5500.78,0.54539
5495,0.54676
5489.21,0.54613
5483.42,0.54726
5477.64,0.54738
5471.85,0.55063
5466.06,0.54903
5460.28,0.54918
5454.49,0.55107
5448.71,0.55229
5442.92,0.55209
5437.13,0.55561
5431.35,0.55480
5425.56,0.55707
5419.77,0.55685
5413.99,0.55994
5408.2,0.56076
5402.42,0.55974
5396.63,0.56010
5390.84,0.56053
5385.06,0.56173
5379.27,0.56108
5373.48,0.56036
5367.7,0.55914
5361.91,0.55845
5356.13,0.55946
5350.34,0.55733
5344.55,0.55562
5338.77,0.55388
5332.98,0.55224
5327.19,0.55051
5321.41,0.54411
5315.62,0.54084
5309.84,0.53463
5304.05,0.52863
5298.26,0.52213
5292.48,0.51507
5286.69,0.50561
5280.9,0.49654
5275.12,0.48593
5269.33,0.47408
5263.55,0.46177
5257.76,0.45008
5251.97,0.43676
5246.19,0.42694
5240.4,0.41966
5234.61,0.41154
5228.83,0.40573
5223.04,0.40009
5217.26,0.39416
5211.47,0.39046
5205.68,0.38895
5199.9,0.38672
5194.11,0.38519
5188.32,0.38252
5182.54,0.38057
5176.75,0.38335
5170.97,0.38157
5165.18,0.38270
5159.39,0.38443
5153.61,0.38346
5147.82,0.38506
5142.03,0.38594
5136.25,0.38873
5130.46,0.38904
5124.68,0.39053
5118.89,0.39106
5113.1,0.39174
5107.32,0.39072
5101.53,0.39178
5095.75,0.39028
5089.96,0.38882
5084.17,0.38789
5078.39,0.38559
5072.6,0.38702
5066.81,0.38754
5061.03,0.38887
5055.24,0.39018
5049.46,0.39212
5043.67,0.39396
5037.88,0.39580
5032.1,0.39819
5026.31,0.40084
5020.52,0.40388
5014.74,0.40473
5008.95,0.40660
5003.17,0.40997
4997.38,0.41115
4991.59,0.41185
4985.81,0.41150
4980.02,0.41221
4974.23,0.41209
4968.45,0.40979
4962.66,0.40776
4956.88,0.40621
4951.09,0.40215
4945.3,0.40016
4939.52,0.39671
4933.73,0.39427
4927.94,0.39074
4922.16,0.38756
4916.37,0.38582
4910.59,0.38217
4904.8,0.37929
4899.01,0.37631
4893.23,0.37298
4887.44,0.37112
4881.65,0.36721
4875.87,0.36538
4870.08,0.36301
4864.3,0.35989
4858.51,0.35839
4852.72,0.35652
4846.94,0.35360
4841.15,0.35159
4835.36,0.35008
4829.58,0.34775
4823.79,0.34513
4818.01,0.34386
4812.22,0.34246
4806.43,0.34189
4800.65,0.34010
4794.86,0.33988
4789.07,0.33968
4783.29,0.33894
4777.5,0.33779
4771.72,0.33736
4765.93,0.33672
4760.14,0.33686
4754.36,0.33724
4748.57,0.33540
4742.78,0.33581
4737,0.33586
4731.21,0.33559
4725.43,0.33558
4719.64,0.33599
4713.85,0.33648
4708.07,0.33669
4702.28,0.33738
4696.49,0.33870
4690.71,0.33815
4684.92,0.33979
4679.14,0.33938
4673.35,0.34058
4667.56,0.34019
4661.78,0.34210
4655.99,0.34305
4650.2,0.34285
4644.42,0.34478
4638.63,0.34564
4632.85,0.34564
4627.06,0.34740
4621.27,0.34873
4615.49,0.35070
4609.7,0.35153
4603.92,0.35369
4598.13,0.35488
4592.34,0.35607
4586.56,0.35714
4580.77,0.35746
4574.98,0.35739
4569.2,0.35773
4563.41,0.35885
4557.63,0.35921
4551.84,0.35967
4546.05,0.36017
4540.27,0.36149
4534.48,0.36231
4528.69,0.36351
4522.91,0.36333
4517.12,0.36376
4511.34,0.36486
4505.55,0.36490
4499.76,0.36365
4493.98,0.36201
4488.19,0.36074
4482.4,0.35829
4476.62,0.35572
4470.83,0.35251
4465.05,0.34780
4459.26,0.34221
4453.47,0.33837
4447.69,0.33276
4441.9,0.32755
4436.11,0.32268
4430.33,0.31752
4424.54,0.31246
4418.76,0.30786
4412.97,0.30278
4407.18,0.30044
4401.4,0.30026
4395.61,0.29978
4389.82,0.30020
4384.04,0.30244
4378.25,0.30352
4372.47,0.30633
4366.68,0.30843
4360.89,0.30863
4355.11,0.30953
4349.32,0.30889
4343.53,0.30913
4337.75,0.30734
4331.96,0.30689
4326.18,0.30500
4320.39,0.30309
4314.6,0.30248
4308.82,0.30162
4303.03,0.30093
4297.24,0.29943
4291.46,0.29786
4285.67,0.29672
4279.89,0.29668
4274.1,0.29593
4268.31,0.29771
4262.53,0.29831
4256.74,0.30032
4250.95,0.30123
4245.17,0.30258
4239.38,0.30388
4233.6,0.30360
4227.81,0.30393
4222.02,0.30333
4216.24,0.30277
4210.45,0.30261
4204.66,0.30428
4198.88,0.30366
4193.09,0.30385
4187.31,0.30409
4181.52,0.30421
4175.73,0.30422
4169.95,0.30521
4164.16,0.30578
4158.37,0.30577
4152.59,0.30376
4146.8,0.30149
4141.02,0.30012
4135.23,0.29720
4129.44,0.29443
4123.66,0.29183
4117.87,0.28908
4112.09,0.28508
4106.3,0.28130
4100.51,0.27795
4094.73,0.27280
4088.94,0.26895
4083.15,0.26515
4077.37,0.26102
4071.58,0.25683
4065.8,0.25259
4060.01,0.24896
4054.22,0.24381
4048.44,0.24083
4042.65,0.23815
4036.86,0.23490
4031.08,0.23218
4025.29,0.23076
4019.51,0.22897
4013.72,0.22861
4007.93,0.22801
4002.15,0.22856
3996.36,0.22915
3990.57,0.22990
3984.79,0.23088
3979,0.23183
3973.22,0.23257
3967.43,0.23398
3961.64,0.23572
3955.86,0.23711
3950.07,0.23891
3944.28,0.24076
3938.5,0.24262
3932.71,0.24493
3926.93,0.24669
3921.14,0.24858
3915.35,0.25005
3909.57,0.25121
3903.78,0.25409
3897.99,0.25503
3892.21,0.25716
3886.42,0.25891
3880.64,0.25972
3874.85,0.26139
3869.06,0.26373
3863.28,0.26632
3857.49,0.26839
3851.7,0.27118
3845.92,0.27248
3840.13,0.27436
3834.35,0.27575
3828.56,0.27605
3822.77,0.27606
3816.99,0.27700
3811.2,0.27786
3805.41,0.27755
3799.63,0.27703
3793.84,0.27664
3788.06,0.27597
3782.27,0.27544
3776.48,0.27448
3770.7,0.27423
3764.91,0.27193
3759.12,0.27091
3753.34,0.27012
3747.55,0.26689
3741.77,0.26351
3735.98,0.26077
3730.19,0.25654
3724.41,0.25254
3718.62,0.24794
3712.83,0.24285
3707.05,0.23570
3701.26,0.22833
3695.48,0.21931
3689.69,0.20936
3683.9,0.19666
3678.12,0.18489
3672.33,0.17041
3666.54,0.15539
3660.76,0.14304
3654.97,0.13046
3649.19,0.12009
3643.4,0.11057
3637.61,0.10344
3631.83,0.09675
3626.04,0.09023
3620.25,0.08583
3614.47,0.08080
3608.68,0.07578
3602.9,0.07190
3597.11,0.06842
3591.32,0.06545
3585.54,0.06242
3579.75,0.05949
3573.97,0.05706
3568.18,0.05543
3562.39,0.05273
3556.61,0.05158
3550.82,0.04951
3545.03,0.04903
3539.25,0.04744
3533.46,0.04594
3527.68,0.04533
3521.89,0.04424
3516.1,0.04312
3510.32,0.04240
3504.53,0.04107
3498.74,0.04083
3492.96,0.04004
3487.17,0.03918
3481.39,0.03827
3475.6,0.03786
3469.81,0.03813
3464.03,0.03723
3458.24,0.03709
3452.45,0.03683
3446.67,0.03754
3440.88,0.03779
3435.1,0.03711
3429.31,0.03685
3423.52,0.03680
3417.74,0.03670
3411.95,0.03681
3406.16,0.03646
3400.38,0.03708
3394.59,0.03717
3388.81,0.03695
3383.02,0.03774
3377.23,0.03745
3371.45,0.03695
3365.66,0.03808
3359.87,0.03822
3354.09,0.03773
3348.3,0.03890
3342.52,0.03942
3336.73,0.04022
3330.94,0.04102
3325.16,0.04146
3319.37,0.04137
3313.58,0.04146
3307.8,0.04205
3302.01,0.04228
3296.23,0.04266
3290.44,0.04292
3284.65,0.04316
3278.87,0.04399
3273.08,0.04410
3267.29,0.04495
3261.51,0.04517
3255.72,0.04634
3249.94,0.04681
3244.15,0.04710
3238.36,0.04780
3232.58,0.04770
3226.79,0.04833
3221,0.04985
3215.22,0.05026
3209.43,0.05120
3203.65,0.05175
3197.86,0.05236
3192.07,0.05302
3186.29,0.05395
3180.5,0.05492
3174.71,0.05594
3168.93,0.05574
3163.14,0.05712
3157.36,0.05817
3151.57,0.05899
3145.78,0.06005
3140,0.06069
3134.21,0.06170
3128.42,0.06291
3122.64,0.06387
3116.85,0.06475
3111.07,0.06525
3105.28,0.06648
3099.49,0.06670
3093.71,0.06743
3087.92,0.06879
3082.14,0.06956
3076.35,0.06964
3070.56,0.07055
3064.78,0.07151
3058.99,0.07271
3053.2,0.07400
3047.42,0.07445
3041.63,0.07529
3035.85,0.07580
3030.06,0.07566
3024.27,0.07580
3018.49,0.07634
3012.7,0.07554
3006.91,0.07523
3001.13,0.07446
2995.34,0.07372
2989.56,0.07182
2983.77,0.06939
2977.98,0.06629
2972.2,0.06246
2966.41,0.05983
2960.62,0.05861
2954.84,0.05767
2949.05,0.05608
2943.27,0.05464
2937.48,0.05360
2931.69,0.05406
2925.91,0.05350
2920.12,0.05339
2914.33,0.05492
2908.55,0.05476
2902.76,0.05549
2896.98,0.05593
2891.19,0.05706
2885.4,0.05728
2879.62,0.05838
2873.83,0.05887
2868.04,0.06006
2862.26,0.06128
2856.47,0.06181
2850.69,0.06277
2844.9,0.06684
2839.11,0.07127
2833.33,0.07486
2827.54,0.07782
2821.75,0.08181
2815.97,0.08425
2810.18,0.08696
2804.4,0.08871
2798.61,0.09068
2792.82,0.09151
2787.04,0.09370
2781.25,0.09438
2775.46,0.09567
2769.68,0.09653
2763.89,0.09722
2758.11,0.09770
2752.32,0.09820
2746.53,0.09833
2740.75,0.09912
2734.96,0.09971
2729.17,0.10069
2723.39,0.10123
2717.6,0.10256
2711.82,0.10359
2706.03,0.10539
2700.24,0.10667
2694.46,0.10785
2688.67,0.10949
2682.88,0.11048
2677.1,0.11157
2671.31,0.11311
2665.53,0.11386
2659.74,0.11509
2653.95,0.11582
2648.17,0.11661
2642.38,0.11782
2636.59,0.11937
2630.81,0.12018
2625.02,0.12119
2619.24,0.12236
2613.45,0.12357
2607.66,0.12429
2601.88,0.12574
2596.09,0.12674
2590.3,0.12799
2584.52,0.12874
2578.73,0.12942
2572.95,0.12997
2567.16,0.13029
2561.37,0.13072
2555.59,0.13107
2549.8,0.13146
2544.02,0.13197
2538.23,0.13224
2532.44,0.13315
2526.66,0.13396
2520.87,0.13529
2515.08,0.13592
2509.3,0.13701
2503.51,0.13877
2497.73,0.14065
2491.94,0.14199
2486.15,0.14408
2480.37,0.14501
2474.58,0.14620
2468.79,0.14798
2463.01,0.14897
2457.22,0.15047
2451.44,0.15190
2445.65,0.15350
2439.86,0.15539
2434.08,0.15677
2428.29,0.15899
2422.5,0.16079
2416.72,0.16314
2410.93,0.16515
2405.15,0.16737
2399.36,0.16870
2393.57,0.17067
2387.79,0.17249
2382,0.17421
2376.21,0.17608
2370.43,0.17749
2364.64,0.17883
2358.86,0.18002
2353.07,0.18084
2347.28,0.18157
2341.5,0.18268
2335.71,0.18304
2329.92,0.18338
2324.14,0.18369
2318.35,0.18345
2312.57,0.18370
2306.78,0.18326
2300.99,0.18296
2295.21,0.18212
2289.42,0.18196
2283.63,0.18149
2277.85,0.18071
2272.06,0.17965
2266.28,0.17833
2260.49,0.17701
2254.7,0.17586
2248.92,0.17502
2243.13,0.17442
2237.34,0.17351
2231.56,0.17289
2225.77,0.17184
2219.99,0.17133
2214.2,0.17054
2208.41,0.16992
2202.63,0.16848
2196.84,0.16757
2191.05,0.16572
2185.27,0.16384
2179.48,0.16241
2173.7,0.16044
2167.91,0.15906
2162.12,0.15742
2156.34,0.15677
2150.55,0.15612
2144.76,0.15535
2138.98,0.15489
2133.19,0.15489
2127.41,0.15488
2121.62,0.15591
2115.83,0.15626
2110.05,0.15701
2104.26,0.15761
2098.47,0.15741
2092.69,0.15831
2086.9,0.15829
2081.12,0.15805
2075.33,0.15713
2069.54,0.15624
2063.76,0.15559
2057.97,0.15520
2052.19,0.15511
2046.4,0.15550
2040.61,0.15692
2034.83,0.15830
2029.04,0.15961
2023.25,0.16127
2017.47,0.16269
2011.68,0.16431
2005.9,0.16533
2000.11,0.16659
1994.32,0.16741
1988.54,0.16863
1982.75,0.16999
1976.96,0.17042
1971.18,0.17114
1965.39,0.17210
1959.61,0.17289
1953.82,0.17452
1948.03,0.17577
1942.25,0.17719
1936.46,0.17804
1930.67,0.17859
1924.89,0.17872
1919.1,0.17870
1913.32,0.17856
1907.53,0.17790
1901.74,0.17700
1895.96,0.17639
1890.17,0.17583
1884.38,0.17504
1878.6,0.17433
1872.81,0.17377
1867.03,0.17276
1861.24,0.17170
1855.45,0.17022
1849.67,0.16840
1843.88,0.16645
1838.09,0.16392
1832.31,0.16148
1826.52,0.15832
1820.74,0.15452
1814.95,0.15040
1809.16,0.14536
1803.38,0.14048
1797.59,0.13478
1791.8,0.12759
1786.02,0.12039
1780.23,0.11248
1774.45,0.10347
1768.66,0.09242
1762.87,0.08112
1757.09,0.06996
1751.3,0.06134
1745.51,0.05566
1739.73,0.05279
1733.94,0.05185
1728.16,0.05114
1722.37,0.05138
1716.58,0.05176
1710.8,0.05219
1705.01,0.05113
1699.22,0.04919
1693.44,0.04620
1687.65,0.04398
1681.87,0.04096
1676.08,0.03887
1670.29,0.03837
1664.51,0.03850
1658.72,0.03958
1652.93,0.04127
1647.15,0.04274
1641.36,0.04412
1635.58,0.04468
1629.79,0.04502
1624,0.04481
1618.22,0.04446
1612.43,0.04411
1606.64,0.04429
1600.86,0.04433
1595.07,0.04553
1589.29,0.04632
1583.5,0.04810
1577.71,0.05031
1571.93,0.05140
1566.14,0.05161
1560.35,0.05140
1554.57,0.05096
1548.78,0.05129
1543,0.05170
1537.21,0.05141
1531.42,0.05107
1525.64,0.04956
1519.85,0.04603
1514.07,0.04344
1508.28,0.04474
1502.49,0.04723
1496.71,0.05001
1490.92,0.05102
1485.13,0.05086
1479.35,0.04910
1473.56,0.04649
1467.78,0.04388
1461.99,0.04322
1456.2,0.04350
1450.42,0.04329
1444.63,0.04386
1438.84,0.04386
1433.06,0.04262
1427.27,0.04218
1421.49,0.04370
1415.7,0.04478
1409.91,0.04541
1404.13,0.04503
1398.34,0.04429
1392.55,0.04280
1386.77,0.04182
1380.98,0.04054
1375.2,0.04065
1369.41,0.04106
1363.62,0.04141
1357.84,0.04219
1352.05,0.04244
1346.26,0.04241
1340.48,0.04163
1334.69,0.04154
1328.91,0.04151
1323.12,0.04112
1317.33,0.04086
1311.55,0.04132
1305.76,0.04240
1299.97,0.04169
1294.19,0.04115
1288.4,0.03988
1282.62,0.03824
1276.83,0.03797
1271.04,0.03828
1265.26,0.03824
1259.47,0.03946
1253.68,0.04038
1247.9,0.04107
1242.11,0.04128
1236.33,0.04116
1230.54,0.04156
1224.75,0.04175
1218.97,0.04236
1213.18,0.04208
1207.39,0.04175
1201.61,0.04223
1195.82,0.04204
1190.04,0.04114
1184.25,0.03930
1178.46,0.03672
1172.68,0.03461
1166.89,0.03551
1161.1,0.03720
1155.32,0.03748
1149.53,0.03663
1143.75,0.03579
1137.96,0.03526
1132.17,0.03493
1126.39,0.03439
1120.6,0.03500
1114.81,0.03567
1109.03,0.03700
1103.24,0.03716
1097.46,0.03734
1091.67,0.03750
1085.88,0.03731
1080.1,0.03746
1074.31,0.04035
1068.52,0.04284
1062.74,0.04772
1056.95,0.05132
1051.17,0.05113
1045.38,0.05065
1039.59,0.05222
1033.81,0.05601
1028.02,0.05732
1022.24,0.05873
1016.45,0.05997
1010.66,0.05973
1004.88,0.06014
999.09,0.06115
993.304,0.06225
987.518,0.06457
981.731,0.06776
975.945,0.06912
970.159,0.06991
964.373,0.07096
958.586,0.07208
952.8,0.07357
947.014,0.07496
941.228,0.07583
935.441,0.07677
929.655,0.07754
923.869,0.07783
918.083,0.07530
912.297,0.07275
906.51,0.07010
900.724,0.06789
894.938,0.06795
889.152,0.06904
883.365,0.06983
877.579,0.07043
871.793,0.07033
866.007,0.06963
860.22,0.07067
854.434,0.07134
848.648,0.07238
842.862,0.07152
837.075,0.06992
831.289,0.06781
825.503,0.06626
819.717,0.06414
813.931,0.06200
808.144,0.06124
802.358,0.06204
796.572,0.06111
790.786,0.06002
784.999,0.05916
779.213,0.05787
773.427,0.05750
767.641,0.05697
761.854,0.05655
756.068,0.05553
750.282,0.05484
744.496,0.05398
738.709,0.05291
732.923,0.05161
727.137,0.05097
721.351,0.04937
715.565,0.04928
709.778,0.04813
703.992,0.04824
698.206,0.04694
692.42,0.04616
686.633,0.04520
680.847,0.04573
675.061,0.04639
669.275,0.04559
663.488,0.04382
657.702,0.04573
651.916,0.04557
646.13,0.04402
640.343,0.04554
634.557,0.04432
628.771,0.04515
622.985,0.04364
617.198,0.04371
611.412,0.04657
605.626,0.04738
599.84,0.04698