File: 01_Data/Particleboard/FTIR/IS/Particleboard_IS_S_220927_R8.dpt
7497.03,0.72785
7491.25,0.73157
7485.46,0.72242
7479.67,0.71513
7473.89,0.71544
7468.1,0.71067
7462.32,0.69793
7456.53,0.70613
7450.74,0.71640
7444.96,0.70831
7439.17,0.70441
7433.38,0.70095
7427.6,0.69769
7421.81,0.70335
7416.03,0.69387
7410.24,0.69402
7404.45,0.68610
7398.67,0.69237
7392.88,0.68364
7387.09,0.68690
7381.31,0.69125
7375.52,0.69160
7369.74,0.67456
7363.95,0.67151
7358.16,0.66719
7352.38,0.68611
7346.59,0.68396
7340.8,0.67238
7335.02,0.66932
7329.23,0.67296
7323.45,0.67145
7317.66,0.67087
7311.87,0.67303
7306.09,0.67034
7300.3,0.66681
7294.51,0.67417
7288.73,0.66756
7282.94,0.66805
7277.16,0.66077
7271.37,0.65956
7265.58,0.65384
7259.8,0.66271
7254.01,0.65212
7248.22,0.66348
7242.44,0.66529
7236.65,0.66034
7230.87,0.65645
7225.08,0.66689
7219.29,0.66254
7213.51,0.66072
7207.72,0.65327
7201.93,0.65471
7196.15,0.65535
7190.36,0.65388
7184.58,0.64702
7178.79,0.64391
7173,0.64726
7167.22,0.64245
7161.43,0.64103
7155.65,0.63639
7149.86,0.63810
7144.07,0.63869
7138.29,0.63695
7132.5,0.62945
7126.71,0.62396
7120.93,0.62596
7115.14,0.62382
7109.36,0.61448
7103.57,0.61035
7097.78,0.61040
7092,0.60381
7086.21,0.59585
7080.42,0.59462
7074.64,0.58984
7068.85,0.58683
7063.07,0.58235
7057.28,0.58020
7051.49,0.57511
7045.71,0.56332
7039.92,0.56102
7034.13,0.55580
7028.35,0.55304
7022.56,0.54488
7016.78,0.54543
7010.99,0.54419
7005.2,0.53818
6999.42,0.53307
6993.63,0.53580
6987.84,0.53283
6982.06,0.52818
6976.27,0.52343
6970.49,0.51938
6964.7,0.52281
6958.91,0.51855
6953.13,0.51515
6947.34,0.50857
6941.55,0.51304
6935.77,0.51806
6929.98,0.51322
6924.2,0.51099
6918.41,0.50782
6912.62,0.50886
6906.84,0.50759
6901.05,0.50541
6895.26,0.50255
6889.48,0.50975
6883.69,0.51086
6877.91,0.50418
6872.12,0.50284
6866.33,0.50280
6860.55,0.50479
6854.76,0.49487
6848.97,0.49430
6843.19,0.50020
6837.4,0.49689
6831.62,0.49910
6825.83,0.49709
6820.04,0.49336
6814.26,0.49462
6808.47,0.49443
6802.68,0.49450
6796.9,0.49305
6791.11,0.49494
6785.33,0.49252
6779.54,0.48869
6773.75,0.48686
6767.97,0.48794
6762.18,0.48493
6756.39,0.48769
6750.61,0.48765
6744.82,0.48097
6739.04,0.48535
6733.25,0.48368
6727.46,0.47801
6721.68,0.48395
6715.89,0.48016
6710.1,0.48269
6704.32,0.47551
6698.53,0.47966
6692.75,0.47856
6686.96,0.48321
6681.17,0.48387
6675.39,0.48198
6669.6,0.48224
6663.82,0.48498
6658.03,0.48394
6652.24,0.48695
6646.46,0.48688
6640.67,0.49294
6634.88,0.48988
6629.1,0.49240
6623.31,0.49256
6617.53,0.49197
6611.74,0.49906
6605.95,0.49819
6600.17,0.49786
6594.38,0.49652
6588.59,0.49930
6582.81,0.50674
6577.02,0.50420
6571.24,0.50939
6565.45,0.50933
6559.66,0.50790
6553.88,0.51061
6548.09,0.51016
6542.3,0.51227
6536.52,0.51149
6530.73,0.51132
6524.95,0.51397
6519.16,0.51781
6513.37,0.51118
6507.59,0.51544
6501.8,0.51093
6496.01,0.51314
6490.23,0.51835
6484.44,0.51369
6478.66,0.51665
6472.87,0.51561
6467.08,0.51978
6461.3,0.52304
6455.51,0.52123
6449.72,0.52277
6443.94,0.52281
6438.15,0.52180
6432.37,0.52454
6426.58,0.52602
6420.79,0.52562
6415.01,0.52503
6409.22,0.52518
6403.43,0.52809
6397.65,0.52697
6391.86,0.52834
6386.08,0.52531
6380.29,0.52900
6374.5,0.52933
6368.72,0.52946
6362.93,0.52829
6357.14,0.53185
6351.36,0.53057
6345.57,0.53330
6339.79,0.53209
6334,0.53268
6328.21,0.53316
6322.43,0.52984
6316.64,0.53071
6310.85,0.53354
6305.07,0.53162
6299.28,0.53668
6293.5,0.53324
6287.71,0.53939
6281.92,0.53634
6276.14,0.53846
6270.35,0.54376
6264.56,0.54276
6258.78,0.54229
6252.99,0.54121
6247.21,0.54772
6241.42,0.54498
6235.63,0.54813
6229.85,0.55568
6224.06,0.55156
6218.27,0.55429
6212.49,0.55678
6206.7,0.55732
6200.92,0.56088
6195.13,0.56180
6189.34,0.56239
6183.56,0.56333
6177.77,0.56821
6171.98,0.56854
6166.2,0.56941
6160.41,0.57186
6154.63,0.57194
6148.84,0.57343
6143.05,0.57287
6137.27,0.57476
6131.48,0.57459
6125.7,0.57906
6119.91,0.57641
6114.12,0.57797
6108.34,0.57829
6102.55,0.57782
6096.76,0.57809
6090.98,0.57930
6085.19,0.57931
6079.41,0.58203
6073.62,0.58373
6067.83,0.57885
6062.05,0.58365
6056.26,0.57619
6050.47,0.57794
6044.69,0.57965
6038.9,0.57308
6033.12,0.57257
6027.33,0.57041
6021.54,0.57075
6015.76,0.56794
6009.97,0.56556
6004.18,0.56583
5998.4,0.56155
5992.61,0.56075
5986.83,0.55985
5981.04,0.55760
5975.25,0.55661
5969.47,0.55609
5963.68,0.55675
5957.89,0.55842
5952.11,0.55717
5946.32,0.55721
5940.54,0.55884
5934.75,0.55816
5928.96,0.55618
5923.18,0.55663
5917.39,0.55432
5911.6,0.55620
5905.82,0.55234
5900.03,0.55379
5894.25,0.55286
5888.46,0.54915
5882.67,0.54790
5876.89,0.54790
5871.1,0.54596
5865.31,0.54761
5859.53,0.54711
5853.74,0.54515
5847.96,0.54498
5842.17,0.54298
5836.38,0.54324
5830.6,0.54174
5824.81,0.54180
5819.02,0.54171
5813.24,0.54142
5807.45,0.53923
5801.67,0.54136
5795.88,0.54446
5790.09,0.54138
5784.31,0.54142
5778.52,0.54174
5772.73,0.54207
5766.95,0.54209
5761.16,0.54431
5755.38,0.54495
5749.59,0.54387
5743.8,0.54419
5738.02,0.54584
5732.23,0.54485
5726.44,0.54562
5720.66,0.54533
5714.87,0.54630
5709.09,0.54375
5703.3,0.54619
5697.51,0.54536
5691.73,0.54572
5685.94,0.54318
5680.15,0.54363
5674.37,0.54321
5668.58,0.54609
5662.8,0.54465
5657.01,0.54628
5651.22,0.54466
5645.44,0.54486
5639.65,0.54352
5633.87,0.54585
5628.08,0.54650
5622.29,0.54619
5616.51,0.54448
5610.72,0.54504
5604.93,0.54527
5599.15,0.54639
5593.36,0.54582
5587.58,0.54534
5581.79,0.54554
5576,0.54711
5570.22,0.54787
5564.43,0.54932
5558.64,0.54890
5552.86,0.54975
5547.07,0.55025
5541.29,0.55214
5535.5,0.55112
5529.71,0.55118
5523.93,0.55096
5518.14,0.54952
5512.35,0.54989
5506.57,0.55337
5500.78,0.55415
5495,0.55443
5489.21,0.55522
5483.42,0.55583
5477.64,0.55371
5471.85,0.55799
5466.06,0.55540
5460.28,0.55751
5454.49,0.55826
5448.71,0.56042
5442.92,0.56191
5437.13,0.55966
5431.35,0.56169
5425.56,0.56338
5419.77,0.56582
5413.99,0.56642
5408.2,0.56682
5402.42,0.56751
5396.63,0.56713
5390.84,0.56708
5385.06,0.56899
5379.27,0.56923
5373.48,0.56802
5367.7,0.56790
5361.91,0.56699
5356.13,0.56717
5350.34,0.56599
5344.55,0.56699
5338.77,0.56463
5332.98,0.56323
5327.19,0.55969
5321.41,0.55651
5315.62,0.55285
5309.84,0.54934
5304.05,0.54394
5298.26,0.53832
5292.48,0.53218
5286.69,0.52494
5280.9,0.51521
5275.12,0.50577
5269.33,0.49368
5263.55,0.48227
5257.76,0.47414
5251.97,0.46482
5246.19,0.45420
5240.4,0.44546
5234.61,0.43905
5228.83,0.43409
5223.04,0.42763
5217.26,0.42220
5211.47,0.41961
5205.68,0.41629
5199.9,0.41465
5194.11,0.41256
5188.32,0.41149
5182.54,0.41029
5176.75,0.40939
5170.97,0.41080
5165.18,0.41019
5159.39,0.41078
5153.61,0.41167
5147.82,0.41292
5142.03,0.41398
5136.25,0.41607
5130.46,0.41679
5124.68,0.41605
5118.89,0.41721
5113.1,0.41725
5107.32,0.41587
5101.53,0.41445
5095.75,0.41158
5089.96,0.40904
5084.17,0.40812
5078.39,0.40614
5072.6,0.40474
5066.81,0.40534
5061.03,0.40820
5055.24,0.40858
5049.46,0.41000
5043.67,0.41155
5037.88,0.41293
5032.1,0.41578
5026.31,0.41748
5020.52,0.41991
5014.74,0.42184
5008.95,0.42347
5003.17,0.42462
4997.38,0.42706
4991.59,0.42720
4985.81,0.42629
4980.02,0.42480
4974.23,0.42445
4968.45,0.42312
4962.66,0.42113
4956.88,0.41618
4951.09,0.41407
4945.3,0.41080
4939.52,0.40585
4933.73,0.40269
4927.94,0.39886
4922.16,0.39577
4916.37,0.39275
4910.59,0.38881
4904.8,0.38609
4899.01,0.38265
4893.23,0.38011
4887.44,0.37708
4881.65,0.37460
4875.87,0.37117
4870.08,0.36902
4864.3,0.36739
4858.51,0.36396
4852.72,0.36169
4846.94,0.35922
4841.15,0.35668
4835.36,0.35370
4829.58,0.35304
4823.79,0.35144
4818.01,0.35001
4812.22,0.34718
4806.43,0.34662
4800.65,0.34460
4794.86,0.34451
4789.07,0.34447
4783.29,0.34296
4777.5,0.34305
4771.72,0.34198
4765.93,0.34163
4760.14,0.34136
4754.36,0.34041
4748.57,0.33917
4742.78,0.34061
4737,0.34116
4731.21,0.34170
4725.43,0.34180
4719.64,0.34169
4713.85,0.34269
4708.07,0.34329
4702.28,0.34311
4696.49,0.34378
4690.71,0.34255
4684.92,0.34318
4679.14,0.34422
4673.35,0.34459
4667.56,0.34548
4661.78,0.34629
4655.99,0.34848
4650.2,0.34886
4644.42,0.34960
4638.63,0.35012
4632.85,0.35170
4627.06,0.35286
4621.27,0.35470
4615.49,0.35610
4609.7,0.35805
4603.92,0.35904
4598.13,0.36009
4592.34,0.36085
4586.56,0.36261
4580.77,0.36274
4574.98,0.36439
4569.2,0.36498
4563.41,0.36501
4557.63,0.36571
4551.84,0.36581
4546.05,0.36638
4540.27,0.36771
4534.48,0.36652
4528.69,0.36834
4522.91,0.36947
4517.12,0.36938
4511.34,0.37033
4505.55,0.36945
4499.76,0.36889
4493.98,0.36807
4488.19,0.36684
4482.4,0.36457
4476.62,0.36193
4470.83,0.35744
4465.05,0.35242
4459.26,0.34743
4453.47,0.34277
4447.69,0.33622
4441.9,0.33242
4436.11,0.32773
4430.33,0.32221
4424.54,0.31752
4418.76,0.31234
4412.97,0.30751
4407.18,0.30516
4401.4,0.30370
4395.61,0.30286
4389.82,0.30396
4384.04,0.30564
4378.25,0.30769
4372.47,0.30963
4366.68,0.31095
4360.89,0.31219
4355.11,0.31314
4349.32,0.31389
4343.53,0.31255
4337.75,0.31145
4331.96,0.31133
4326.18,0.30912
4320.39,0.30751
4314.6,0.30729
4308.82,0.30610
4303.03,0.30445
4297.24,0.30290
4291.46,0.30199
4285.67,0.30156
4279.89,0.30097
4274.1,0.30155
4268.31,0.30156
4262.53,0.30305
4256.74,0.30538
4250.95,0.30650
4245.17,0.30708
4239.38,0.30735
4233.6,0.30818
4227.81,0.30850
4222.02,0.30791
4216.24,0.30867
4210.45,0.30843
4204.66,0.30804
4198.88,0.30826
4193.09,0.30855
4187.31,0.30923
4181.52,0.30965
4175.73,0.30996
4169.95,0.31061
4164.16,0.31222
4158.37,0.31096
4152.59,0.30957
4146.8,0.30880
4141.02,0.30692
4135.23,0.30359
4129.44,0.30115
4123.66,0.29796
4117.87,0.29496
4112.09,0.29108
4106.3,0.28757
4100.51,0.28314
4094.73,0.27928
4088.94,0.27471
4083.15,0.27062
4077.37,0.26736
4071.58,0.26281
4065.8,0.25878
4060.01,0.25397
4054.22,0.25024
4048.44,0.24643
4042.65,0.24316
4036.86,0.23958
4031.08,0.23768
4025.29,0.23553
4019.51,0.23434
4013.72,0.23336
4007.93,0.23303
4002.15,0.23311
3996.36,0.23389
3990.57,0.23530
3984.79,0.23623
3979,0.23724
3973.22,0.23816
3967.43,0.23976
3961.64,0.24122
3955.86,0.24286
3950.07,0.24545
3944.28,0.24747
3938.5,0.24831
3932.71,0.25127
3926.93,0.25289
3921.14,0.25380
3915.35,0.25605
3909.57,0.25830
3903.78,0.25992
3897.99,0.26233
3892.21,0.26372
3886.42,0.26620
3880.64,0.26756
3874.85,0.26932
3869.06,0.27207
3863.28,0.27411
3857.49,0.27657
3851.7,0.27853
3845.92,0.28080
3840.13,0.28293
3834.35,0.28420
3828.56,0.28544
3822.77,0.28649
3816.99,0.28655
3811.2,0.28704
3805.41,0.28674
3799.63,0.28693
3793.84,0.28701
3788.06,0.28675
3782.27,0.28727
3776.48,0.28635
3770.7,0.28565
3764.91,0.28486
3759.12,0.28302
3753.34,0.28242
3747.55,0.27952
3741.77,0.27731
3735.98,0.27485
3730.19,0.27151
3724.41,0.26754
3718.62,0.26346
3712.83,0.25850
3707.05,0.25238
3701.26,0.24557
3695.48,0.23719
3689.69,0.22797
3683.9,0.21606
3678.12,0.20384
3672.33,0.18781
3666.54,0.17314
3660.76,0.16019
3654.97,0.14768
3649.19,0.13705
3643.4,0.12718
3637.61,0.11782
3631.83,0.11003
3626.04,0.10296
3620.25,0.09710
3614.47,0.09086
3608.68,0.08543
3602.9,0.07984
3597.11,0.07545
3591.32,0.07133
3585.54,0.06741
3579.75,0.06442
3573.97,0.06191
3568.18,0.05908
3562.39,0.05633
3556.61,0.05458
3550.82,0.05307
3545.03,0.05084
3539.25,0.04961
3533.46,0.04787
3527.68,0.04700
3521.89,0.04509
3516.1,0.04419
3510.32,0.04340
3504.53,0.04231
3498.74,0.04238
3492.96,0.04076
3487.17,0.03977
3481.39,0.03929
3475.6,0.03913
3469.81,0.03864
3464.03,0.03827
3458.24,0.03851
3452.45,0.03708
3446.67,0.03713
3440.88,0.03700
3435.1,0.03786
3429.31,0.03749
3423.52,0.03732
3417.74,0.03710
3411.95,0.03688
3406.16,0.03679
3400.38,0.03733
3394.59,0.03806
3388.81,0.03791
3383.02,0.03767
3377.23,0.03774
3371.45,0.03797
3365.66,0.03763
3359.87,0.03829
3354.09,0.03844
3348.3,0.03920
3342.52,0.03999
3336.73,0.04018
3330.94,0.04101
3325.16,0.04119
3319.37,0.04198
3313.58,0.04181
3307.8,0.04275
3302.01,0.04264
3296.23,0.04302
3290.44,0.04370
3284.65,0.04424
3278.87,0.04469
3273.08,0.04526
3267.29,0.04574
3261.51,0.04642
3255.72,0.04684
3249.94,0.04762
3244.15,0.04844
3238.36,0.04890
3232.58,0.04979
3226.79,0.04980
3221,0.05046
3215.22,0.05098
3209.43,0.05206
3203.65,0.05284
3197.86,0.05337
3192.07,0.05425
3186.29,0.05492
3180.5,0.05680
3174.71,0.05762
3168.93,0.05846
3163.14,0.05962
3157.36,0.06006
3151.57,0.06114
3145.78,0.06217
3140,0.06309
3134.21,0.06456
3128.42,0.06555
3122.64,0.06608
3116.85,0.06731
3111.07,0.06807
3105.28,0.06849
3099.49,0.06978
3093.71,0.07009
3087.92,0.07129
3082.14,0.07219
3076.35,0.07275
3070.56,0.07340
3064.78,0.07407
3058.99,0.07531
3053.2,0.07675
3047.42,0.07691
3041.63,0.07806
3035.85,0.07825
3030.06,0.07880
3024.27,0.07977
3018.49,0.07883
3012.7,0.07797
3006.91,0.07722
3001.13,0.07598
2995.34,0.07480
2989.56,0.07274
2983.77,0.07106
2977.98,0.06734
2972.2,0.06397
2966.41,0.06136
2960.62,0.05917
2954.84,0.05785
2949.05,0.05620
2943.27,0.05493
2937.48,0.05414
2931.69,0.05377
2925.91,0.05416
2920.12,0.05359
2914.33,0.05461
2908.55,0.05500
2902.76,0.05547
2896.98,0.05666
2891.19,0.05713
2885.4,0.05821
2879.62,0.05910
2873.83,0.05946
2868.04,0.06023
2862.26,0.06178
2856.47,0.06245
2850.69,0.06318
2844.9,0.06745
2839.11,0.07169
2833.33,0.07539
2827.54,0.07921
2821.75,0.08235
2815.97,0.08523
2810.18,0.08795
2804.4,0.09036
2798.61,0.09225
2792.82,0.09358
2787.04,0.09536
2781.25,0.09630
2775.46,0.09743
2769.68,0.09815
2763.89,0.09881
2758.11,0.09945
2752.32,0.10038
2746.53,0.10071
2740.75,0.10095
2734.96,0.10131
2729.17,0.10182
2723.39,0.10367
2717.6,0.10504
2711.82,0.10582
2706.03,0.10671
2700.24,0.10843
2694.46,0.11042
2688.67,0.11151
2682.88,0.11279
2677.1,0.11384
2671.31,0.11512
2665.53,0.11575
2659.74,0.11704
2653.95,0.11825
2648.17,0.11950
2642.38,0.11991
2636.59,0.12104
2630.81,0.12267
2625.02,0.12374
2619.24,0.12527
2613.45,0.12560
2607.66,0.12670
2601.88,0.12799
2596.09,0.12911
2590.3,0.13004
2584.52,0.13046
2578.73,0.13157
2572.95,0.13233
2567.16,0.13277
2561.37,0.13314
2555.59,0.13327
2549.8,0.13344
2544.02,0.13359
2538.23,0.13481
2532.44,0.13536
2526.66,0.13630
2520.87,0.13738
2515.08,0.13862
2509.3,0.14012
2503.51,0.14134
2497.73,0.14357
2491.94,0.14474
2486.15,0.14636
2480.37,0.14776
2474.58,0.14894
2468.79,0.15088
2463.01,0.15224
2457.22,0.15354
2451.44,0.15520
2445.65,0.15664
2439.86,0.15813
2434.08,0.16013
2428.29,0.16194
2422.5,0.16418
2416.72,0.16621
2410.93,0.16836
2405.15,0.17072
2399.36,0.17264
2393.57,0.17501
2387.79,0.17691
2382,0.17878
2376.21,0.18025
2370.43,0.18164
2364.64,0.18312
2358.86,0.18447
2353.07,0.18567
2347.28,0.18641
2341.5,0.18753
2335.71,0.18846
2329.92,0.18887
2324.14,0.18914
2318.35,0.18950
2312.57,0.18972
2306.78,0.18948
2300.99,0.18897
2295.21,0.18812
2289.42,0.18788
2283.63,0.18761
2277.85,0.18695
2272.06,0.18594
2266.28,0.18448
2260.49,0.18338
2254.7,0.18221
2248.92,0.18191
2243.13,0.18107
2237.34,0.18056
2231.56,0.17988
2225.77,0.17879
2219.99,0.17870
2214.2,0.17812
2208.41,0.17758
2202.63,0.17654
2196.84,0.17512
2191.05,0.17334
2185.27,0.17128
2179.48,0.16985
2173.7,0.16806
2167.91,0.16651
2162.12,0.16500
2156.34,0.16433
2150.55,0.16335
2144.76,0.16261
2138.98,0.16219
2133.19,0.16226
2127.41,0.16268
2121.62,0.16329
2115.83,0.16389
2110.05,0.16503
2104.26,0.16548
2098.47,0.16592
2092.69,0.16593
2086.9,0.16585
2081.12,0.16535
2075.33,0.16454
2069.54,0.16380
2063.76,0.16284
2057.97,0.16262
2052.19,0.16254
2046.4,0.16279
2040.61,0.16408
2034.83,0.16535
2029.04,0.16665
2023.25,0.16846
2017.47,0.17043
2011.68,0.17191
2005.9,0.17278
2000.11,0.17363
1994.32,0.17491
1988.54,0.17555
1982.75,0.17661
1976.96,0.17748
1971.18,0.17822
1965.39,0.17870
1959.61,0.18012
1953.82,0.18150
1948.03,0.18309
1942.25,0.18424
1936.46,0.18511
1930.67,0.18569
1924.89,0.18593
1919.1,0.18584
1913.32,0.18527
1907.53,0.18462
1901.74,0.18375
1895.96,0.18295
1890.17,0.18214
1884.38,0.18153
1878.6,0.18069
1872.81,0.17960
1867.03,0.17877
1861.24,0.17760
1855.45,0.17624
1849.67,0.17433
1843.88,0.17206
1838.09,0.16961
1832.31,0.16694
1826.52,0.16363
1820.74,0.15966
1814.95,0.15510
1809.16,0.14999
1803.38,0.14464
1797.59,0.13821
1791.8,0.13081
1786.02,0.12289
1780.23,0.11426
1774.45,0.10438
1768.66,0.09366
1762.87,0.08161
1757.09,0.06981
1751.3,0.06144
1745.51,0.05597
1739.73,0.05321
1733.94,0.05263
1728.16,0.05169
1722.37,0.05210
1716.58,0.05268
1710.8,0.05230
1705.01,0.05154
1699.22,0.04928
1693.44,0.04670
1687.65,0.04394
1681.87,0.04100
1676.08,0.03951
1670.29,0.03840
1664.51,0.03919
1658.72,0.04027
1652.93,0.04270
1647.15,0.04424
1641.36,0.04504
1635.58,0.04561
1629.79,0.04529
1624,0.04545
1618.22,0.04475
1612.43,0.04422
1606.64,0.04441
1600.86,0.04522
1595.07,0.04561
1589.29,0.04701
1583.5,0.04856
1577.71,0.05039
1571.93,0.05138
1566.14,0.05222
1560.35,0.05282
1554.57,0.05261
1548.78,0.05186
1543,0.05235
1537.21,0.05176
1531.42,0.05148
1525.64,0.05002
1519.85,0.04597
1514.07,0.04365
1508.28,0.04438
1502.49,0.04738
1496.71,0.05064
1490.92,0.05187
1485.13,0.05097
1479.35,0.04952
1473.56,0.04645
1467.78,0.04367
1461.99,0.04335
1456.2,0.04303
1450.42,0.04361
1444.63,0.04422
1438.84,0.04388
1433.06,0.04239
1427.27,0.04245
1421.49,0.04356
1415.7,0.04435
1409.91,0.04551
1404.13,0.04504
1398.34,0.04469
1392.55,0.04286
1386.77,0.04151
1380.98,0.04066
1375.2,0.04071
1369.41,0.04093
1363.62,0.04156
1357.84,0.04220
1352.05,0.04274
1346.26,0.04244
1340.48,0.04196
1334.69,0.04167
1328.91,0.04188
1323.12,0.04105
1317.33,0.04109
1311.55,0.04205
1305.76,0.04233
1299.97,0.04209
1294.19,0.04096
1288.4,0.03938
1282.62,0.03873
1276.83,0.03819
1271.04,0.03795
1265.26,0.03904
1259.47,0.03981
1253.68,0.04093
1247.9,0.04110
1242.11,0.04116
1236.33,0.04090
1230.54,0.04134
1224.75,0.04167
1218.97,0.04219
1213.18,0.04240
1207.39,0.04234
1201.61,0.04206
1195.82,0.04198
1190.04,0.04081
1184.25,0.03866
1178.46,0.03655
1172.68,0.03460
1166.89,0.03481
1161.1,0.03740
1155.32,0.03712
1149.53,0.03719
1143.75,0.03638
1137.96,0.03557
1132.17,0.03493
1126.39,0.03450
1120.6,0.03520
1114.81,0.03564
1109.03,0.03720
1103.24,0.03737
1097.46,0.03725
1091.67,0.03741
1085.88,0.03744
1080.1,0.03779
1074.31,0.03964
1068.52,0.04318
1062.74,0.04779
1056.95,0.05124
1051.17,0.05197
1045.38,0.05111
1039.59,0.05227
1033.81,0.05619
1028.02,0.05803
1022.24,0.05798
1016.45,0.05898
1010.66,0.06038
1004.88,0.06026
999.09,0.06120
993.304,0.06235
987.518,0.06430
981.731,0.06741
975.945,0.07008
970.159,0.07069
964.373,0.07107
958.586,0.07323
952.8,0.07454
947.014,0.07583
941.228,0.07646
935.441,0.07789
929.655,0.07846
923.869,0.07867
918.083,0.07702
912.297,0.07490
906.51,0.07137
900.724,0.06928
894.938,0.06883
889.152,0.07058
883.365,0.07179
877.579,0.07230
871.793,0.07172
866.007,0.07271
860.22,0.07256
854.434,0.07413
848.648,0.07446
842.862,0.07459
837.075,0.07323
831.289,0.07031
825.503,0.06826
819.717,0.06569
813.931,0.06421
808.144,0.06347
802.358,0.06474
796.572,0.06438
790.786,0.06335
784.999,0.06093
779.213,0.05991
773.427,0.05966
767.641,0.05881
761.854,0.05826
756.068,0.05747
750.282,0.05718
744.496,0.05607
738.709,0.05478
732.923,0.05273
727.137,0.05138
721.351,0.05043
715.565,0.04977
709.778,0.04922
703.992,0.04933
698.206,0.04892
692.42,0.04784
686.633,0.04785
680.847,0.04580
675.061,0.04505
669.275,0.04595
663.488,0.04609
657.702,0.04560
651.916,0.04767
646.13,0.04563
640.343,0.04638
634.557,0.04497
628.771,0.04618
622.985,0.04293
617.198,0.04574
611.412,0.04389
605.626,0.04672
599.84,0.04652