File: 01_Data/Particleboard/FTIR/IS/Particleboard_IS_S_220927_R4.dpt
7497.03,0.72184
7491.25,0.72072
7485.46,0.71245
7479.67,0.71883
7473.89,0.70922
7468.1,0.71994
7462.32,0.70696
7456.53,0.70362
7450.74,0.70563
7444.96,0.70048
7439.17,0.69783
7433.38,0.69423
7427.6,0.69461
7421.81,0.68855
7416.03,0.69253
7410.24,0.68587
7404.45,0.68619
7398.67,0.68863
7392.88,0.69309
7387.09,0.68943
7381.31,0.68906
7375.52,0.68516
7369.74,0.67753
7363.95,0.67749
7358.16,0.67718
7352.38,0.67347
7346.59,0.67170
7340.8,0.67746
7335.02,0.67286
7329.23,0.67071
7323.45,0.66406
7317.66,0.65977
7311.87,0.66627
7306.09,0.65468
7300.3,0.65686
7294.51,0.66117
7288.73,0.66160
7282.94,0.65913
7277.16,0.65746
7271.37,0.66118
7265.58,0.66236
7259.8,0.66551
7254.01,0.66282
7248.22,0.65656
7242.44,0.66319
7236.65,0.65481
7230.87,0.65576
7225.08,0.65101
7219.29,0.65925
7213.51,0.65806
7207.72,0.65422
7201.93,0.64882
7196.15,0.63930
7190.36,0.64310
7184.58,0.64321
7178.79,0.64630
7173,0.64641
7167.22,0.63680
7161.43,0.64308
7155.65,0.64346
7149.86,0.63879
7144.07,0.62881
7138.29,0.63520
7132.5,0.63306
7126.71,0.62183
7120.93,0.62297
7115.14,0.61387
7109.36,0.61371
7103.57,0.60409
7097.78,0.60844
7092,0.59438
7086.21,0.58950
7080.42,0.59043
7074.64,0.58485
7068.85,0.57547
7063.07,0.57237
7057.28,0.56412
7051.49,0.56745
7045.71,0.56026
7039.92,0.55558
7034.13,0.55025
7028.35,0.54569
7022.56,0.54908
7016.78,0.53438
7010.99,0.52844
7005.2,0.53000
6999.42,0.52942
6993.63,0.52711
6987.84,0.52598
6982.06,0.52514
6976.27,0.52089
6970.49,0.51521
6964.7,0.51443
6958.91,0.51547
6953.13,0.51646
6947.34,0.51491
6941.55,0.50494
6935.77,0.50458
6929.98,0.50530
6924.2,0.50700
6918.41,0.49994
6912.62,0.50518
6906.84,0.50404
6901.05,0.50153
6895.26,0.50424
6889.48,0.50009
6883.69,0.49821
6877.91,0.49893
6872.12,0.49430
6866.33,0.50067
6860.55,0.49822
6854.76,0.49703
6848.97,0.49487
6843.19,0.49520
6837.4,0.49501
6831.62,0.49773
6825.83,0.49699
6820.04,0.49163
6814.26,0.49385
6808.47,0.49025
6802.68,0.48960
6796.9,0.49250
6791.11,0.48593
6785.33,0.48918
6779.54,0.48894
6773.75,0.48534
6767.97,0.48482
6762.18,0.48431
6756.39,0.48150
6750.61,0.47771
6744.82,0.48297
6739.04,0.48157
6733.25,0.48162
6727.46,0.48082
6721.68,0.47869
6715.89,0.47739
6710.1,0.48062
6704.32,0.48286
6698.53,0.47619
6692.75,0.47855
6686.96,0.48045
6681.17,0.48013
6675.39,0.48046
6669.6,0.48589
6663.82,0.48282
6658.03,0.48530
6652.24,0.48323
6646.46,0.48762
6640.67,0.48772
6634.88,0.49144
6629.1,0.49168
6623.31,0.48860
6617.53,0.49315
6611.74,0.49139
6605.95,0.49440
6600.17,0.49769
6594.38,0.49629
6588.59,0.49607
6582.81,0.49534
6577.02,0.50085
6571.24,0.50089
6565.45,0.50200
6559.66,0.50519
6553.88,0.50109
6548.09,0.50532
6542.3,0.50799
6536.52,0.50474
6530.73,0.50914
6524.95,0.51317
6519.16,0.50928
6513.37,0.50807
6507.59,0.50598
6501.8,0.50767
6496.01,0.51207
6490.23,0.51278
6484.44,0.51204
6478.66,0.51516
6472.87,0.51452
6467.08,0.51613
6461.3,0.51883
6455.51,0.51570
6449.72,0.51608
6443.94,0.51821
6438.15,0.51674
6432.37,0.52136
6426.58,0.52110
6420.79,0.51911
6415.01,0.52460
6409.22,0.52191
6403.43,0.52197
6397.65,0.52466
6391.86,0.52216
6386.08,0.52351
6380.29,0.52340
6374.5,0.52017
6368.72,0.52375
6362.93,0.52340
6357.14,0.52720
6351.36,0.52853
6345.57,0.52860
6339.79,0.52511
6334,0.52527
6328.21,0.52586
6322.43,0.52994
6316.64,0.53045
6310.85,0.52797
6305.07,0.53437
6299.28,0.53252
6293.5,0.53027
6287.71,0.52941
6281.92,0.53182
6276.14,0.53574
6270.35,0.53951
6264.56,0.53912
6258.78,0.53975
6252.99,0.54276
6247.21,0.54558
6241.42,0.54202
6235.63,0.54780
6229.85,0.54563
6224.06,0.55166
6218.27,0.55273
6212.49,0.55256
6206.7,0.55213
6200.92,0.55695
6195.13,0.56181
6189.34,0.55948
6183.56,0.56125
6177.77,0.56529
6171.98,0.56373
6166.2,0.56516
6160.41,0.56982
6154.63,0.57125
6148.84,0.56819
6143.05,0.57186
6137.27,0.57304
6131.48,0.57439
6125.7,0.57356
6119.91,0.57482
6114.12,0.57265
6108.34,0.57406
6102.55,0.57546
6096.76,0.57655
6090.98,0.57674
6085.19,0.57854
6079.41,0.57628
6073.62,0.57773
6067.83,0.57940
6062.05,0.57534
6056.26,0.57707
6050.47,0.57362
6044.69,0.57253
6038.9,0.57370
6033.12,0.57301
6027.33,0.57018
6021.54,0.56716
6015.76,0.56509
6009.97,0.56440
6004.18,0.56005
5998.4,0.55787
5992.61,0.55375
5986.83,0.55439
5981.04,0.55607
5975.25,0.55524
5969.47,0.55278
5963.68,0.55263
5957.89,0.55340
5952.11,0.55579
5946.32,0.55413
5940.54,0.55565
5934.75,0.55578
5928.96,0.55276
5923.18,0.55122
5917.39,0.54993
5911.6,0.55085
5905.82,0.54913
5900.03,0.55024
5894.25,0.54519
5888.46,0.54737
5882.67,0.54587
5876.89,0.54585
5871.1,0.54447
5865.31,0.54534
5859.53,0.54349
5853.74,0.54056
5847.96,0.54341
5842.17,0.54122
5836.38,0.54375
5830.6,0.54112
5824.81,0.54062
5819.02,0.54022
5813.24,0.53697
5807.45,0.53754
5801.67,0.53866
5795.88,0.53829
5790.09,0.53647
5784.31,0.53826
5778.52,0.54013
5772.73,0.53990
5766.95,0.54284
5761.16,0.54046
5755.38,0.54170
5749.59,0.54358
5743.8,0.54292
5738.02,0.54035
5732.23,0.54321
5726.44,0.54251
5720.66,0.54034
5714.87,0.54259
5709.09,0.54342
5703.3,0.54138
5697.51,0.54258
5691.73,0.54242
5685.94,0.54276
5680.15,0.54184
5674.37,0.54114
5668.58,0.54005
5662.8,0.54165
5657.01,0.54021
5651.22,0.54107
5645.44,0.54263
5639.65,0.54152
5633.87,0.54195
5628.08,0.54024
5622.29,0.54204
5616.51,0.54093
5610.72,0.54303
5604.93,0.54114
5599.15,0.54187
5593.36,0.54246
5587.58,0.54189
5581.79,0.54199
5576,0.54147
5570.22,0.54179
5564.43,0.54417
5558.64,0.54427
5552.86,0.54681
5547.07,0.54698
5541.29,0.54671
5535.5,0.54892
5529.71,0.54679
5523.93,0.54904
5518.14,0.54808
5512.35,0.54941
5506.57,0.54812
5500.78,0.54881
5495,0.55051
5489.21,0.55090
5483.42,0.55170
5477.64,0.55353
5471.85,0.55125
5466.06,0.55246
5460.28,0.55256
5454.49,0.55408
5448.71,0.55633
5442.92,0.55865
5437.13,0.55848
5431.35,0.55910
5425.56,0.56070
5419.77,0.56205
5413.99,0.56239
5408.2,0.56325
5402.42,0.56503
5396.63,0.56539
5390.84,0.56411
5385.06,0.56608
5379.27,0.56555
5373.48,0.56624
5367.7,0.56441
5361.91,0.56321
5356.13,0.56270
5350.34,0.56335
5344.55,0.55989
5338.77,0.55929
5332.98,0.55692
5327.19,0.55631
5321.41,0.55346
5315.62,0.54707
5309.84,0.54378
5304.05,0.53810
5298.26,0.53101
5292.48,0.52410
5286.69,0.51686
5280.9,0.50530
5275.12,0.49647
5269.33,0.48449
5263.55,0.47414
5257.76,0.46239
5251.97,0.45245
5246.19,0.44475
5240.4,0.43495
5234.61,0.42938
5228.83,0.42087
5223.04,0.41655
5217.26,0.41129
5211.47,0.40762
5205.68,0.40472
5199.9,0.40329
5194.11,0.40071
5188.32,0.40230
5182.54,0.39970
5176.75,0.39875
5170.97,0.40068
5165.18,0.39928
5159.39,0.40044
5153.61,0.40031
5147.82,0.40159
5142.03,0.40416
5136.25,0.40499
5130.46,0.40543
5124.68,0.40555
5118.89,0.40687
5113.1,0.40745
5107.32,0.40602
5101.53,0.40513
5095.75,0.40313
5089.96,0.40158
5084.17,0.39944
5078.39,0.39809
5072.6,0.39944
5066.81,0.39834
5061.03,0.39939
5055.24,0.40086
5049.46,0.40351
5043.67,0.40458
5037.88,0.40699
5032.1,0.40853
5026.31,0.41106
5020.52,0.41285
5014.74,0.41477
5008.95,0.41650
5003.17,0.41912
4997.38,0.42042
4991.59,0.41978
4985.81,0.42217
4980.02,0.42060
4974.23,0.41865
4968.45,0.41852
4962.66,0.41414
4956.88,0.41235
4951.09,0.40841
4945.3,0.40593
4939.52,0.40208
4933.73,0.39883
4927.94,0.39643
4922.16,0.39294
4916.37,0.38876
4910.59,0.38652
4904.8,0.38383
4899.01,0.38011
4893.23,0.37686
4887.44,0.37551
4881.65,0.37092
4875.87,0.36908
4870.08,0.36725
4864.3,0.36398
4858.51,0.36165
4852.72,0.35953
4846.94,0.35711
4841.15,0.35505
4835.36,0.35234
4829.58,0.35088
4823.79,0.34839
4818.01,0.34648
4812.22,0.34521
4806.43,0.34501
4800.65,0.34323
4794.86,0.34233
4789.07,0.34302
4783.29,0.34209
4777.5,0.34102
4771.72,0.34025
4765.93,0.33958
4760.14,0.33949
4754.36,0.33902
4748.57,0.33866
4742.78,0.33914
4737,0.33879
4731.21,0.33905
4725.43,0.33941
4719.64,0.33996
4713.85,0.34089
4708.07,0.34049
4702.28,0.34030
4696.49,0.34042
4690.71,0.34124
4684.92,0.34239
4679.14,0.34216
4673.35,0.34322
4667.56,0.34331
4661.78,0.34489
4655.99,0.34525
4650.2,0.34646
4644.42,0.34726
4638.63,0.34845
4632.85,0.34900
4627.06,0.35077
4621.27,0.35212
4615.49,0.35433
4609.7,0.35501
4603.92,0.35643
4598.13,0.35831
4592.34,0.35935
4586.56,0.36035
4580.77,0.36107
4574.98,0.36152
4569.2,0.36194
4563.41,0.36264
4557.63,0.36291
4551.84,0.36229
4546.05,0.36366
4540.27,0.36447
4534.48,0.36534
4528.69,0.36562
4522.91,0.36639
4517.12,0.36751
4511.34,0.36702
4505.55,0.36747
4499.76,0.36641
4493.98,0.36639
4488.19,0.36404
4482.4,0.36163
4476.62,0.35892
4470.83,0.35458
4465.05,0.35050
4459.26,0.34565
4453.47,0.33949
4447.69,0.33473
4441.9,0.32976
4436.11,0.32522
4430.33,0.31964
4424.54,0.31479
4418.76,0.30990
4412.97,0.30605
4407.18,0.30249
4401.4,0.30152
4395.61,0.30259
4389.82,0.30298
4384.04,0.30431
4378.25,0.30608
4372.47,0.30757
4366.68,0.31004
4360.89,0.31159
4355.11,0.31099
4349.32,0.31142
4343.53,0.31099
4337.75,0.31045
4331.96,0.30903
4326.18,0.30680
4320.39,0.30573
4314.6,0.30510
4308.82,0.30398
4303.03,0.30202
4297.24,0.30140
4291.46,0.30023
4285.67,0.29983
4279.89,0.29927
4274.1,0.29914
4268.31,0.30018
4262.53,0.30061
4256.74,0.30261
4250.95,0.30457
4245.17,0.30514
4239.38,0.30568
4233.6,0.30634
4227.81,0.30597
4222.02,0.30677
4216.24,0.30650
4210.45,0.30639
4204.66,0.30673
4198.88,0.30664
4193.09,0.30626
4187.31,0.30609
4181.52,0.30764
4175.73,0.30854
4169.95,0.30864
4164.16,0.31037
4158.37,0.30853
4152.59,0.30757
4146.8,0.30609
4141.02,0.30408
4135.23,0.30215
4129.44,0.29873
4123.66,0.29564
4117.87,0.29263
4112.09,0.28906
4106.3,0.28591
4100.51,0.28162
4094.73,0.27741
4088.94,0.27303
4083.15,0.26936
4077.37,0.26456
4071.58,0.26021
4065.8,0.25618
4060.01,0.25211
4054.22,0.24895
4048.44,0.24409
4042.65,0.24051
4036.86,0.23802
4031.08,0.23596
4025.29,0.23349
4019.51,0.23229
4013.72,0.23133
4007.93,0.23090
4002.15,0.23193
3996.36,0.23206
3990.57,0.23362
3984.79,0.23412
3979,0.23477
3973.22,0.23592
3967.43,0.23759
3961.64,0.23859
3955.86,0.24139
3950.07,0.24292
3944.28,0.24465
3938.5,0.24627
3932.71,0.24847
3926.93,0.25082
3921.14,0.25217
3915.35,0.25387
3909.57,0.25595
3903.78,0.25783
3897.99,0.25916
3892.21,0.26124
3886.42,0.26319
3880.64,0.26529
3874.85,0.26605
3869.06,0.26843
3863.28,0.27079
3857.49,0.27333
3851.7,0.27626
3845.92,0.27832
3840.13,0.27957
3834.35,0.28071
3828.56,0.28178
3822.77,0.28305
3816.99,0.28239
3811.2,0.28303
3805.41,0.28322
3799.63,0.28280
3793.84,0.28334
3788.06,0.28252
3782.27,0.28258
3776.48,0.28166
3770.7,0.28098
3764.91,0.27947
3759.12,0.27879
3753.34,0.27673
3747.55,0.27462
3741.77,0.27164
3735.98,0.26972
3730.19,0.26558
3724.41,0.26187
3718.62,0.25738
3712.83,0.25271
3707.05,0.24596
3701.26,0.23887
3695.48,0.23074
3689.69,0.22076
3683.9,0.20889
3678.12,0.19613
3672.33,0.18175
3666.54,0.16666
3660.76,0.15373
3654.97,0.14137
3649.19,0.13102
3643.4,0.12073
3637.61,0.11212
3631.83,0.10525
3626.04,0.09831
3620.25,0.09283
3614.47,0.08729
3608.68,0.08174
3602.9,0.07718
3597.11,0.07332
3591.32,0.06956
3585.54,0.06590
3579.75,0.06262
3573.97,0.06034
3568.18,0.05805
3562.39,0.05488
3556.61,0.05298
3550.82,0.05183
3545.03,0.05008
3539.25,0.04816
3533.46,0.04763
3527.68,0.04607
3521.89,0.04553
3516.1,0.04391
3510.32,0.04281
3504.53,0.04221
3498.74,0.04125
3492.96,0.03999
3487.17,0.03904
3481.39,0.03863
3475.6,0.03884
3469.81,0.03858
3464.03,0.03800
3458.24,0.03802
3452.45,0.03773
3446.67,0.03761
3440.88,0.03767
3435.1,0.03770
3429.31,0.03712
3423.52,0.03751
3417.74,0.03724
3411.95,0.03772
3406.16,0.03726
3400.38,0.03730
3394.59,0.03677
3388.81,0.03745
3383.02,0.03746
3377.23,0.03760
3371.45,0.03765
3365.66,0.03841
3359.87,0.03876
3354.09,0.03867
3348.3,0.03932
3342.52,0.03921
3336.73,0.03969
3330.94,0.04068
3325.16,0.04080
3319.37,0.04167
3313.58,0.04158
3307.8,0.04224
3302.01,0.04208
3296.23,0.04258
3290.44,0.04328
3284.65,0.04404
3278.87,0.04405
3273.08,0.04482
3267.29,0.04552
3261.51,0.04616
3255.72,0.04670
3249.94,0.04785
3244.15,0.04850
3238.36,0.04887
3232.58,0.04923
3226.79,0.04978
3221,0.05020
3215.22,0.05091
3209.43,0.05181
3203.65,0.05262
3197.86,0.05311
3192.07,0.05414
3186.29,0.05438
3180.5,0.05591
3174.71,0.05663
3168.93,0.05788
3163.14,0.05887
3157.36,0.05985
3151.57,0.06121
3145.78,0.06145
3140,0.06233
3134.21,0.06335
3128.42,0.06408
3122.64,0.06533
3116.85,0.06633
3111.07,0.06735
3105.28,0.06829
3099.49,0.06899
3093.71,0.06963
3087.92,0.07126
3082.14,0.07087
3076.35,0.07167
3070.56,0.07266
3064.78,0.07345
3058.99,0.07369
3053.2,0.07572
3047.42,0.07660
3041.63,0.07674
3035.85,0.07728
3030.06,0.07811
3024.27,0.07819
3018.49,0.07769
3012.7,0.07744
3006.91,0.07657
3001.13,0.07517
2995.34,0.07465
2989.56,0.07305
2983.77,0.07052
2977.98,0.06664
2972.2,0.06294
2966.41,0.06086
2960.62,0.05905
2954.84,0.05754
2949.05,0.05661
2943.27,0.05489
2937.48,0.05441
2931.69,0.05433
2925.91,0.05363
2920.12,0.05387
2914.33,0.05415
2908.55,0.05503
2902.76,0.05564
2896.98,0.05592
2891.19,0.05695
2885.4,0.05799
2879.62,0.05846
2873.83,0.05931
2868.04,0.06034
2862.26,0.06144
2856.47,0.06235
2850.69,0.06371
2844.9,0.06702
2839.11,0.07213
2833.33,0.07523
2827.54,0.07835
2821.75,0.08201
2815.97,0.08525
2810.18,0.08774
2804.4,0.09001
2798.61,0.09147
2792.82,0.09301
2787.04,0.09444
2781.25,0.09526
2775.46,0.09666
2769.68,0.09775
2763.89,0.09798
2758.11,0.09878
2752.32,0.09928
2746.53,0.10004
2740.75,0.10032
2734.96,0.10095
2729.17,0.10176
2723.39,0.10251
2717.6,0.10418
2711.82,0.10523
2706.03,0.10691
2700.24,0.10779
2694.46,0.10955
2688.67,0.11081
2682.88,0.11181
2677.1,0.11325
2671.31,0.11408
2665.53,0.11511
2659.74,0.11628
2653.95,0.11694
2648.17,0.11790
2642.38,0.11941
2636.59,0.12064
2630.81,0.12161
2625.02,0.12231
2619.24,0.12423
2613.45,0.12488
2607.66,0.12584
2601.88,0.12694
2596.09,0.12822
2590.3,0.12929
2584.52,0.12962
2578.73,0.13040
2572.95,0.13101
2567.16,0.13155
2561.37,0.13187
2555.59,0.13257
2549.8,0.13322
2544.02,0.13292
2538.23,0.13371
2532.44,0.13477
2526.66,0.13588
2520.87,0.13659
2515.08,0.13726
2509.3,0.13881
2503.51,0.14038
2497.73,0.14177
2491.94,0.14356
2486.15,0.14508
2480.37,0.14697
2474.58,0.14857
2468.79,0.14996
2463.01,0.15074
2457.22,0.15239
2451.44,0.15390
2445.65,0.15564
2439.86,0.15737
2434.08,0.15892
2428.29,0.16107
2422.5,0.16322
2416.72,0.16522
2410.93,0.16746
2405.15,0.16945
2399.36,0.17138
2393.57,0.17366
2387.79,0.17512
2382,0.17712
2376.21,0.17874
2370.43,0.18029
2364.64,0.18164
2358.86,0.18289
2353.07,0.18369
2347.28,0.18486
2341.5,0.18519
2335.71,0.18623
2329.92,0.18675
2324.14,0.18739
2318.35,0.18777
2312.57,0.18739
2306.78,0.18692
2300.99,0.18670
2295.21,0.18657
2289.42,0.18599
2283.63,0.18534
2277.85,0.18503
2272.06,0.18401
2266.28,0.18289
2260.49,0.18135
2254.7,0.18004
2248.92,0.17939
2243.13,0.17849
2237.34,0.17780
2231.56,0.17731
2225.77,0.17696
2219.99,0.17626
2214.2,0.17558
2208.41,0.17485
2202.63,0.17369
2196.84,0.17229
2191.05,0.17036
2185.27,0.16855
2179.48,0.16700
2173.7,0.16509
2167.91,0.16380
2162.12,0.16269
2156.34,0.16153
2150.55,0.16106
2144.76,0.16011
2138.98,0.15948
2133.19,0.15987
2127.41,0.16008
2121.62,0.16077
2115.83,0.16133
2110.05,0.16219
2104.26,0.16278
2098.47,0.16289
2092.69,0.16325
2086.9,0.16304
2081.12,0.16292
2075.33,0.16204
2069.54,0.16100
2063.76,0.16029
2057.97,0.15983
2052.19,0.15964
2046.4,0.16031
2040.61,0.16150
2034.83,0.16274
2029.04,0.16425
2023.25,0.16597
2017.47,0.16744
2011.68,0.16914
2005.9,0.16996
2000.11,0.17120
1994.32,0.17197
1988.54,0.17329
1982.75,0.17398
1976.96,0.17482
1971.18,0.17563
1965.39,0.17653
1959.61,0.17774
1953.82,0.17913
1948.03,0.18034
1942.25,0.18138
1936.46,0.18241
1930.67,0.18299
1924.89,0.18335
1919.1,0.18307
1913.32,0.18259
1907.53,0.18237
1901.74,0.18127
1895.96,0.18046
1890.17,0.17983
1884.38,0.17893
1878.6,0.17828
1872.81,0.17759
1867.03,0.17651
1861.24,0.17541
1855.45,0.17404
1849.67,0.17233
1843.88,0.17044
1838.09,0.16767
1832.31,0.16486
1826.52,0.16201
1820.74,0.15789
1814.95,0.15331
1809.16,0.14859
1803.38,0.14328
1797.59,0.13681
1791.8,0.12970
1786.02,0.12215
1780.23,0.11327
1774.45,0.10440
1768.66,0.09299
1762.87,0.08116
1757.09,0.06973
1751.3,0.06102
1745.51,0.05538
1739.73,0.05292
1733.94,0.05159
1728.16,0.05226
1722.37,0.05196
1716.58,0.05219
1710.8,0.05238
1705.01,0.05150
1699.22,0.04953
1693.44,0.04643
1687.65,0.04411
1681.87,0.04088
1676.08,0.03949
1670.29,0.03863
1664.51,0.03884
1658.72,0.04030
1652.93,0.04230
1647.15,0.04376
1641.36,0.04471
1635.58,0.04558
1629.79,0.04563
1624,0.04498
1618.22,0.04483
1612.43,0.04428
1606.64,0.04452
1600.86,0.04481
1595.07,0.04561
1589.29,0.04688
1583.5,0.04797
1577.71,0.04988
1571.93,0.05147
1566.14,0.05209
1560.35,0.05215
1554.57,0.05153
1548.78,0.05182
1543,0.05161
1537.21,0.05173
1531.42,0.05111
1525.64,0.04977
1519.85,0.04618
1514.07,0.04378
1508.28,0.04493
1502.49,0.04768
1496.71,0.05065
1490.92,0.05144
1485.13,0.05088
1479.35,0.04913
1473.56,0.04617
1467.78,0.04376
1461.99,0.04359
1456.2,0.04371
1450.42,0.04370
1444.63,0.04417
1438.84,0.04391
1433.06,0.04256
1427.27,0.04244
1421.49,0.04339
1415.7,0.04421
1409.91,0.04536
1404.13,0.04527
1398.34,0.04416
1392.55,0.04277
1386.77,0.04192
1380.98,0.04035
1375.2,0.04037
1369.41,0.04070
1363.62,0.04194
1357.84,0.04229
1352.05,0.04258
1346.26,0.04227
1340.48,0.04163
1334.69,0.04173
1328.91,0.04153
1323.12,0.04101
1317.33,0.04103
1311.55,0.04187
1305.76,0.04248
1299.97,0.04200
1294.19,0.04118
1288.4,0.03960
1282.62,0.03855
1276.83,0.03799
1271.04,0.03809
1265.26,0.03867
1259.47,0.03954
1253.68,0.04041
1247.9,0.04038
1242.11,0.04089
1236.33,0.04114
1230.54,0.04105
1224.75,0.04179
1218.97,0.04198
1213.18,0.04215
1207.39,0.04241
1201.61,0.04223
1195.82,0.04179
1190.04,0.04082
1184.25,0.03842
1178.46,0.03624
1172.68,0.03446
1166.89,0.03530
1161.1,0.03668
1155.32,0.03779
1149.53,0.03686
1143.75,0.03628
1137.96,0.03521
1132.17,0.03495
1126.39,0.03442
1120.6,0.03511
1114.81,0.03550
1109.03,0.03703
1103.24,0.03790
1097.46,0.03732
1091.67,0.03711
1085.88,0.03775
1080.1,0.03846
1074.31,0.04081
1068.52,0.04297
1062.74,0.04759
1056.95,0.05105
1051.17,0.05156
1045.38,0.05140
1039.59,0.05225
1033.81,0.05589
1028.02,0.05785
1022.24,0.05883
1016.45,0.05890
1010.66,0.05973
1004.88,0.05981
999.09,0.06130
993.304,0.06222
987.518,0.06418
981.731,0.06740
975.945,0.06955
970.159,0.07006
964.373,0.07134
958.586,0.07257
952.8,0.07396
947.014,0.07535
941.228,0.07631
935.441,0.07694
929.655,0.07812
923.869,0.07792
918.083,0.07709
912.297,0.07481
906.51,0.07120
900.724,0.06802
894.938,0.06817
889.152,0.07061
883.365,0.07186
877.579,0.07157
871.793,0.07106
866.007,0.07174
860.22,0.07235
854.434,0.07315
848.648,0.07460
842.862,0.07357
837.075,0.07220
831.289,0.07042
825.503,0.06745
819.717,0.06602
813.931,0.06363
808.144,0.06250
802.358,0.06395
796.572,0.06344
790.786,0.06222
784.999,0.06093
779.213,0.05917
773.427,0.05779
767.641,0.05839
761.854,0.05806
756.068,0.05752
750.282,0.05593
744.496,0.05556
738.709,0.05356
732.923,0.05279
727.137,0.05194
721.351,0.05044
715.565,0.05025
709.778,0.04967
703.992,0.04920
698.206,0.04897
692.42,0.04832
686.633,0.04640
680.847,0.04581
675.061,0.04582
669.275,0.04512
663.488,0.04548
657.702,0.04563
651.916,0.04570
646.13,0.04537
640.343,0.04621
634.557,0.04469
628.771,0.04527
622.985,0.04325
617.198,0.04370
611.412,0.04803
605.626,0.04775
599.84,0.04409