File: 01_Data/Particleboard/FTIR/IS/Particleboard_IS_S_220927_R7.dpt
7497.03,0.72208
7491.25,0.72613
7485.46,0.70874
7479.67,0.72082
7473.89,0.71601
7468.1,0.71559
7462.32,0.70805
7456.53,0.70646
7450.74,0.70770
7444.96,0.69881
7439.17,0.70327
7433.38,0.70195
7427.6,0.69550
7421.81,0.69686
7416.03,0.70251
7410.24,0.69141
7404.45,0.68329
7398.67,0.68143
7392.88,0.68766
7387.09,0.69121
7381.31,0.69004
7375.52,0.68603
7369.74,0.68430
7363.95,0.67845
7358.16,0.68886
7352.38,0.68595
7346.59,0.67941
7340.8,0.67216
7335.02,0.67105
7329.23,0.66768
7323.45,0.67116
7317.66,0.67145
7311.87,0.66878
7306.09,0.66794
7300.3,0.66225
7294.51,0.66405
7288.73,0.66522
7282.94,0.66031
7277.16,0.65700
7271.37,0.66909
7265.58,0.66230
7259.8,0.66515
7254.01,0.64971
7248.22,0.65072
7242.44,0.66039
7236.65,0.65870
7230.87,0.66066
7225.08,0.65974
7219.29,0.65779
7213.51,0.65375
7207.72,0.65475
7201.93,0.64257
7196.15,0.65465
7190.36,0.65187
7184.58,0.64498
7178.79,0.64873
7173,0.64171
7167.22,0.64208
7161.43,0.63840
7155.65,0.63562
7149.86,0.63422
7144.07,0.63034
7138.29,0.62917
7132.5,0.62479
7126.71,0.62046
7120.93,0.62201
7115.14,0.61185
7109.36,0.61502
7103.57,0.60894
7097.78,0.60309
7092,0.60452
7086.21,0.60203
7080.42,0.59504
7074.64,0.59041
7068.85,0.58028
7063.07,0.57808
7057.28,0.57279
7051.49,0.57068
7045.71,0.57276
7039.92,0.56329
7034.13,0.55264
7028.35,0.54900
7022.56,0.53997
7016.78,0.54548
7010.99,0.53572
7005.2,0.53880
6999.42,0.53569
6993.63,0.52557
6987.84,0.52642
6982.06,0.52280
6976.27,0.51798
6970.49,0.51273
6964.7,0.51786
6958.91,0.51799
6953.13,0.51010
6947.34,0.50849
6941.55,0.50372
6935.77,0.50865
6929.98,0.51604
6924.2,0.50764
6918.41,0.50602
6912.62,0.50541
6906.84,0.50735
6901.05,0.50771
6895.26,0.50283
6889.48,0.50533
6883.69,0.50100
6877.91,0.50346
6872.12,0.49926
6866.33,0.50074
6860.55,0.50219
6854.76,0.49748
6848.97,0.50126
6843.19,0.50108
6837.4,0.49951
6831.62,0.49348
6825.83,0.49703
6820.04,0.49477
6814.26,0.49444
6808.47,0.49525
6802.68,0.49562
6796.9,0.48436
6791.11,0.48774
6785.33,0.48650
6779.54,0.48954
6773.75,0.49091
6767.97,0.48228
6762.18,0.48305
6756.39,0.48279
6750.61,0.48036
6744.82,0.48054
6739.04,0.47996
6733.25,0.47961
6727.46,0.48250
6721.68,0.47746
6715.89,0.47596
6710.1,0.47689
6704.32,0.47726
6698.53,0.47986
6692.75,0.48911
6686.96,0.48455
6681.17,0.48526
6675.39,0.48450
6669.6,0.48718
6663.82,0.48566
6658.03,0.48730
6652.24,0.48655
6646.46,0.49014
6640.67,0.48768
6634.88,0.49307
6629.1,0.49308
6623.31,0.49538
6617.53,0.49573
6611.74,0.49329
6605.95,0.49607
6600.17,0.49536
6594.38,0.49876
6588.59,0.50339
6582.81,0.50141
6577.02,0.50532
6571.24,0.50134
6565.45,0.50595
6559.66,0.50732
6553.88,0.50756
6548.09,0.50832
6542.3,0.50636
6536.52,0.50616
6530.73,0.51109
6524.95,0.50942
6519.16,0.50781
6513.37,0.51050
6507.59,0.50877
6501.8,0.51318
6496.01,0.51487
6490.23,0.51739
6484.44,0.51524
6478.66,0.51613
6472.87,0.51766
6467.08,0.51656
6461.3,0.51562
6455.51,0.51935
6449.72,0.52226
6443.94,0.52114
6438.15,0.51815
6432.37,0.52012
6426.58,0.52283
6420.79,0.52167
6415.01,0.52351
6409.22,0.52345
6403.43,0.52586
6397.65,0.52713
6391.86,0.52627
6386.08,0.52377
6380.29,0.52763
6374.5,0.52466
6368.72,0.52644
6362.93,0.52962
6357.14,0.52627
6351.36,0.52872
6345.57,0.52863
6339.79,0.52966
6334,0.53200
6328.21,0.53031
6322.43,0.53278
6316.64,0.53004
6310.85,0.53413
6305.07,0.53130
6299.28,0.53412
6293.5,0.53290
6287.71,0.53680
6281.92,0.53604
6276.14,0.53984
6270.35,0.54079
6264.56,0.54392
6258.78,0.54383
6252.99,0.54642
6247.21,0.54461
6241.42,0.54947
6235.63,0.54933
6229.85,0.55234
6224.06,0.55138
6218.27,0.55191
6212.49,0.55831
6206.7,0.55902
6200.92,0.56002
6195.13,0.55860
6189.34,0.56104
6183.56,0.56218
6177.77,0.56522
6171.98,0.56539
6166.2,0.57159
6160.41,0.57011
6154.63,0.57118
6148.84,0.57061
6143.05,0.57145
6137.27,0.57376
6131.48,0.57560
6125.7,0.57575
6119.91,0.57174
6114.12,0.57621
6108.34,0.57747
6102.55,0.58460
6096.76,0.57988
6090.98,0.57856
6085.19,0.57991
6079.41,0.58491
6073.62,0.58052
6067.83,0.57725
6062.05,0.57858
6056.26,0.57904
6050.47,0.57703
6044.69,0.57690
6038.9,0.57415
6033.12,0.57149
6027.33,0.56945
6021.54,0.56812
6015.76,0.56481
6009.97,0.56584
6004.18,0.56302
5998.4,0.56294
5992.61,0.55898
5986.83,0.55794
5981.04,0.55700
5975.25,0.55398
5969.47,0.55670
5963.68,0.55682
5957.89,0.55512
5952.11,0.55646
5946.32,0.55706
5940.54,0.55769
5934.75,0.56087
5928.96,0.55910
5923.18,0.55590
5917.39,0.55526
5911.6,0.55412
5905.82,0.55307
5900.03,0.55009
5894.25,0.54756
5888.46,0.54701
5882.67,0.54722
5876.89,0.54636
5871.1,0.54579
5865.31,0.54469
5859.53,0.54442
5853.74,0.54495
5847.96,0.54356
5842.17,0.54355
5836.38,0.54254
5830.6,0.54385
5824.81,0.54202
5819.02,0.53993
5813.24,0.53917
5807.45,0.54098
5801.67,0.53739
5795.88,0.54091
5790.09,0.54098
5784.31,0.53991
5778.52,0.54145
5772.73,0.54249
5766.95,0.54252
5761.16,0.54375
5755.38,0.54579
5749.59,0.54209
5743.8,0.54512
5738.02,0.54296
5732.23,0.54472
5726.44,0.54361
5720.66,0.54302
5714.87,0.54331
5709.09,0.54289
5703.3,0.54377
5697.51,0.54432
5691.73,0.54313
5685.94,0.54343
5680.15,0.54350
5674.37,0.54242
5668.58,0.54380
5662.8,0.54214
5657.01,0.54356
5651.22,0.54449
5645.44,0.54294
5639.65,0.54318
5633.87,0.54390
5628.08,0.54460
5622.29,0.54285
5616.51,0.54209
5610.72,0.54398
5604.93,0.54481
5599.15,0.54523
5593.36,0.54533
5587.58,0.54306
5581.79,0.54463
5576,0.54561
5570.22,0.54819
5564.43,0.54602
5558.64,0.54665
5552.86,0.54632
5547.07,0.54771
5541.29,0.54837
5535.5,0.54995
5529.71,0.55130
5523.93,0.55001
5518.14,0.55098
5512.35,0.55132
5506.57,0.55140
5500.78,0.55139
5495,0.55339
5489.21,0.55407
5483.42,0.55280
5477.64,0.55244
5471.85,0.55498
5466.06,0.55503
5460.28,0.55603
5454.49,0.55709
5448.71,0.55769
5442.92,0.55838
5437.13,0.56038
5431.35,0.56156
5425.56,0.56320
5419.77,0.56505
5413.99,0.56425
5408.2,0.56421
5402.42,0.56706
5396.63,0.56592
5390.84,0.56605
5385.06,0.56674
5379.27,0.56832
5373.48,0.56714
5367.7,0.56752
5361.91,0.56600
5356.13,0.56561
5350.34,0.56499
5344.55,0.56568
5338.77,0.56399
5332.98,0.56089
5327.19,0.55910
5321.41,0.55666
5315.62,0.55199
5309.84,0.54967
5304.05,0.54268
5298.26,0.53645
5292.48,0.52818
5286.69,0.51988
5280.9,0.51193
5275.12,0.50150
5269.33,0.49159
5263.55,0.48139
5257.76,0.47073
5251.97,0.46126
5246.19,0.45074
5240.4,0.44177
5234.61,0.43638
5228.83,0.42825
5223.04,0.42475
5217.26,0.41974
5211.47,0.41620
5205.68,0.41317
5199.9,0.40989
5194.11,0.40951
5188.32,0.40792
5182.54,0.40862
5176.75,0.40807
5170.97,0.40783
5165.18,0.40745
5159.39,0.40797
5153.61,0.40858
5147.82,0.40949
5142.03,0.41105
5136.25,0.41150
5130.46,0.41188
5124.68,0.41258
5118.89,0.41311
5113.1,0.41280
5107.32,0.41174
5101.53,0.41113
5095.75,0.40941
5089.96,0.40739
5084.17,0.40598
5078.39,0.40437
5072.6,0.40261
5066.81,0.40329
5061.03,0.40479
5055.24,0.40566
5049.46,0.40808
5043.67,0.41077
5037.88,0.41305
5032.1,0.41373
5026.31,0.41608
5020.52,0.41785
5014.74,0.42011
5008.95,0.42187
5003.17,0.42418
4997.38,0.42481
4991.59,0.42608
4985.81,0.42447
4980.02,0.42458
4974.23,0.42346
4968.45,0.42146
4962.66,0.41787
4956.88,0.41552
4951.09,0.41211
4945.3,0.40866
4939.52,0.40562
4933.73,0.40153
4927.94,0.39882
4922.16,0.39369
4916.37,0.39123
4910.59,0.38800
4904.8,0.38548
4899.01,0.38275
4893.23,0.38011
4887.44,0.37619
4881.65,0.37274
4875.87,0.36973
4870.08,0.36713
4864.3,0.36529
4858.51,0.36265
4852.72,0.36065
4846.94,0.35826
4841.15,0.35635
4835.36,0.35420
4829.58,0.35197
4823.79,0.35076
4818.01,0.34832
4812.22,0.34655
4806.43,0.34527
4800.65,0.34415
4794.86,0.34377
4789.07,0.34374
4783.29,0.34265
4777.5,0.34234
4771.72,0.34211
4765.93,0.34083
4760.14,0.34117
4754.36,0.34062
4748.57,0.33927
4742.78,0.34027
4737,0.34035
4731.21,0.34057
4725.43,0.33985
4719.64,0.34091
4713.85,0.34253
4708.07,0.34143
4702.28,0.34118
4696.49,0.34260
4690.71,0.34345
4684.92,0.34427
4679.14,0.34413
4673.35,0.34367
4667.56,0.34428
4661.78,0.34568
4655.99,0.34675
4650.2,0.34783
4644.42,0.34930
4638.63,0.34873
4632.85,0.34957
4627.06,0.35285
4621.27,0.35396
4615.49,0.35564
4609.7,0.35687
4603.92,0.35811
4598.13,0.36015
4592.34,0.36154
4586.56,0.36164
4580.77,0.36165
4574.98,0.36187
4569.2,0.36303
4563.41,0.36365
4557.63,0.36546
4551.84,0.36390
4546.05,0.36506
4540.27,0.36576
4534.48,0.36700
4528.69,0.36743
4522.91,0.36770
4517.12,0.36835
4511.34,0.36916
4505.55,0.36881
4499.76,0.36938
4493.98,0.36785
4488.19,0.36539
4482.4,0.36354
4476.62,0.36040
4470.83,0.35678
4465.05,0.35148
4459.26,0.34702
4453.47,0.34178
4447.69,0.33607
4441.9,0.33102
4436.11,0.32564
4430.33,0.32156
4424.54,0.31584
4418.76,0.31114
4412.97,0.30706
4407.18,0.30413
4401.4,0.30327
4395.61,0.30262
4389.82,0.30370
4384.04,0.30481
4378.25,0.30713
4372.47,0.30961
4366.68,0.31121
4360.89,0.31194
4355.11,0.31188
4349.32,0.31236
4343.53,0.31214
4337.75,0.31117
4331.96,0.31090
4326.18,0.30893
4320.39,0.30634
4314.6,0.30626
4308.82,0.30515
4303.03,0.30424
4297.24,0.30284
4291.46,0.30150
4285.67,0.30072
4279.89,0.30072
4274.1,0.30127
4268.31,0.30151
4262.53,0.30259
4256.74,0.30380
4250.95,0.30386
4245.17,0.30573
4239.38,0.30735
4233.6,0.30825
4227.81,0.30795
4222.02,0.30800
4216.24,0.30819
4210.45,0.30717
4204.66,0.30792
4198.88,0.30854
4193.09,0.30847
4187.31,0.30890
4181.52,0.30830
4175.73,0.30949
4169.95,0.31026
4164.16,0.31074
4158.37,0.31026
4152.59,0.30911
4146.8,0.30805
4141.02,0.30626
4135.23,0.30277
4129.44,0.29997
4123.66,0.29730
4117.87,0.29436
4112.09,0.29022
4106.3,0.28741
4100.51,0.28268
4094.73,0.27822
4088.94,0.27400
4083.15,0.27011
4077.37,0.26558
4071.58,0.26224
4065.8,0.25704
4060.01,0.25253
4054.22,0.24938
4048.44,0.24592
4042.65,0.24215
4036.86,0.23954
4031.08,0.23669
4025.29,0.23467
4019.51,0.23304
4013.72,0.23297
4007.93,0.23241
4002.15,0.23297
3996.36,0.23313
3990.57,0.23441
3984.79,0.23557
3979,0.23663
3973.22,0.23723
3967.43,0.23891
3961.64,0.24015
3955.86,0.24267
3950.07,0.24439
3944.28,0.24603
3938.5,0.24777
3932.71,0.24974
3926.93,0.25251
3921.14,0.25389
3915.35,0.25580
3909.57,0.25812
3903.78,0.25994
3897.99,0.26082
3892.21,0.26318
3886.42,0.26496
3880.64,0.26650
3874.85,0.26874
3869.06,0.27022
3863.28,0.27268
3857.49,0.27540
3851.7,0.27847
3845.92,0.27949
3840.13,0.28175
3834.35,0.28345
3828.56,0.28422
3822.77,0.28501
3816.99,0.28556
3811.2,0.28604
3805.41,0.28620
3799.63,0.28569
3793.84,0.28550
3788.06,0.28571
3782.27,0.28558
3776.48,0.28509
3770.7,0.28396
3764.91,0.28281
3759.12,0.28128
3753.34,0.28045
3747.55,0.27819
3741.77,0.27583
3735.98,0.27473
3730.19,0.26959
3724.41,0.26592
3718.62,0.26131
3712.83,0.25725
3707.05,0.25018
3701.26,0.24379
3695.48,0.23551
3689.69,0.22608
3683.9,0.21383
3678.12,0.20189
3672.33,0.18670
3666.54,0.17151
3660.76,0.15915
3654.97,0.14628
3649.19,0.13527
3643.4,0.12533
3637.61,0.11652
3631.83,0.10900
3626.04,0.10153
3620.25,0.09535
3614.47,0.08973
3608.68,0.08473
3602.9,0.07943
3597.11,0.07487
3591.32,0.07059
3585.54,0.06649
3579.75,0.06399
3573.97,0.06087
3568.18,0.05887
3562.39,0.05636
3556.61,0.05465
3550.82,0.05219
3545.03,0.05125
3539.25,0.04932
3533.46,0.04764
3527.68,0.04606
3521.89,0.04573
3516.1,0.04468
3510.32,0.04323
3504.53,0.04187
3498.74,0.04182
3492.96,0.04109
3487.17,0.03981
3481.39,0.03852
3475.6,0.03934
3469.81,0.03893
3464.03,0.03819
3458.24,0.03814
3452.45,0.03763
3446.67,0.03803
3440.88,0.03733
3435.1,0.03684
3429.31,0.03693
3423.52,0.03697
3417.74,0.03711
3411.95,0.03721
3406.16,0.03751
3400.38,0.03725
3394.59,0.03663
3388.81,0.03769
3383.02,0.03770
3377.23,0.03814
3371.45,0.03782
3365.66,0.03769
3359.87,0.03827
3354.09,0.03826
3348.3,0.03944
3342.52,0.04013
3336.73,0.03993
3330.94,0.04077
3325.16,0.04114
3319.37,0.04181
3313.58,0.04236
3307.8,0.04309
3302.01,0.04277
3296.23,0.04327
3290.44,0.04376
3284.65,0.04419
3278.87,0.04409
3273.08,0.04556
3267.29,0.04557
3261.51,0.04644
3255.72,0.04718
3249.94,0.04820
3244.15,0.04824
3238.36,0.04794
3232.58,0.04932
3226.79,0.04991
3221,0.05011
3215.22,0.05042
3209.43,0.05235
3203.65,0.05234
3197.86,0.05271
3192.07,0.05421
3186.29,0.05483
3180.5,0.05602
3174.71,0.05739
3168.93,0.05845
3163.14,0.05894
3157.36,0.06019
3151.57,0.06101
3145.78,0.06191
3140,0.06278
3134.21,0.06392
3128.42,0.06524
3122.64,0.06576
3116.85,0.06678
3111.07,0.06702
3105.28,0.06845
3099.49,0.06899
3093.71,0.06987
3087.92,0.07080
3082.14,0.07178
3076.35,0.07257
3070.56,0.07325
3064.78,0.07392
3058.99,0.07449
3053.2,0.07639
3047.42,0.07672
3041.63,0.07728
3035.85,0.07768
3030.06,0.07860
3024.27,0.07844
3018.49,0.07845
3012.7,0.07781
3006.91,0.07718
3001.13,0.07617
2995.34,0.07531
2989.56,0.07312
2983.77,0.07086
2977.98,0.06662
2972.2,0.06332
2966.41,0.06074
2960.62,0.05897
2954.84,0.05802
2949.05,0.05679
2943.27,0.05495
2937.48,0.05443
2931.69,0.05392
2925.91,0.05431
2920.12,0.05333
2914.33,0.05490
2908.55,0.05540
2902.76,0.05588
2896.98,0.05655
2891.19,0.05748
2885.4,0.05777
2879.62,0.05844
2873.83,0.05897
2868.04,0.06000
2862.26,0.06147
2856.47,0.06198
2850.69,0.06334
2844.9,0.06759
2839.11,0.07176
2833.33,0.07557
2827.54,0.07867
2821.75,0.08250
2815.97,0.08503
2810.18,0.08798
2804.4,0.08978
2798.61,0.09187
2792.82,0.09365
2787.04,0.09493
2781.25,0.09613
2775.46,0.09699
2769.68,0.09745
2763.89,0.09817
2758.11,0.09942
2752.32,0.09971
2746.53,0.10047
2740.75,0.10032
2734.96,0.10110
2729.17,0.10226
2723.39,0.10328
2717.6,0.10455
2711.82,0.10563
2706.03,0.10658
2700.24,0.10856
2694.46,0.10965
2688.67,0.11125
2682.88,0.11193
2677.1,0.11340
2671.31,0.11447
2665.53,0.11601
2659.74,0.11671
2653.95,0.11743
2648.17,0.11885
2642.38,0.11979
2636.59,0.12105
2630.81,0.12234
2625.02,0.12325
2619.24,0.12459
2613.45,0.12564
2607.66,0.12624
2601.88,0.12728
2596.09,0.12877
2590.3,0.12949
2584.52,0.13042
2578.73,0.13111
2572.95,0.13192
2567.16,0.13229
2561.37,0.13285
2555.59,0.13274
2549.8,0.13311
2544.02,0.13362
2538.23,0.13394
2532.44,0.13466
2526.66,0.13615
2520.87,0.13715
2515.08,0.13799
2509.3,0.13943
2503.51,0.14130
2497.73,0.14284
2491.94,0.14427
2486.15,0.14606
2480.37,0.14708
2474.58,0.14897
2468.79,0.15015
2463.01,0.15143
2457.22,0.15271
2451.44,0.15461
2445.65,0.15608
2439.86,0.15788
2434.08,0.15956
2428.29,0.16127
2422.5,0.16346
2416.72,0.16614
2410.93,0.16792
2405.15,0.17011
2399.36,0.17231
2393.57,0.17421
2387.79,0.17620
2382,0.17827
2376.21,0.17999
2370.43,0.18141
2364.64,0.18296
2358.86,0.18441
2353.07,0.18504
2347.28,0.18591
2341.5,0.18688
2335.71,0.18766
2329.92,0.18804
2324.14,0.18848
2318.35,0.18851
2312.57,0.18871
2306.78,0.18884
2300.99,0.18837
2295.21,0.18743
2289.42,0.18714
2283.63,0.18729
2277.85,0.18644
2272.06,0.18546
2266.28,0.18391
2260.49,0.18254
2254.7,0.18217
2248.92,0.18123
2243.13,0.18000
2237.34,0.17912
2231.56,0.17860
2225.77,0.17825
2219.99,0.17815
2214.2,0.17713
2208.41,0.17634
2202.63,0.17539
2196.84,0.17409
2191.05,0.17229
2185.27,0.17059
2179.48,0.16849
2173.7,0.16686
2167.91,0.16550
2162.12,0.16377
2156.34,0.16332
2150.55,0.16263
2144.76,0.16190
2138.98,0.16131
2133.19,0.16145
2127.41,0.16208
2121.62,0.16245
2115.83,0.16315
2110.05,0.16378
2104.26,0.16441
2098.47,0.16490
2092.69,0.16563
2086.9,0.16511
2081.12,0.16462
2075.33,0.16353
2069.54,0.16279
2063.76,0.16222
2057.97,0.16167
2052.19,0.16125
2046.4,0.16210
2040.61,0.16293
2034.83,0.16474
2029.04,0.16620
2023.25,0.16785
2017.47,0.16992
2011.68,0.17094
2005.9,0.17184
2000.11,0.17286
1994.32,0.17424
1988.54,0.17498
1982.75,0.17577
1976.96,0.17658
1971.18,0.17748
1965.39,0.17821
1959.61,0.17952
1953.82,0.18068
1948.03,0.18215
1942.25,0.18326
1936.46,0.18416
1930.67,0.18468
1924.89,0.18506
1919.1,0.18490
1913.32,0.18461
1907.53,0.18353
1901.74,0.18312
1895.96,0.18211
1890.17,0.18114
1884.38,0.18053
1878.6,0.17995
1872.81,0.17899
1867.03,0.17813
1861.24,0.17710
1855.45,0.17570
1849.67,0.17343
1843.88,0.17163
1838.09,0.16891
1832.31,0.16635
1826.52,0.16310
1820.74,0.15909
1814.95,0.15444
1809.16,0.14951
1803.38,0.14414
1797.59,0.13803
1791.8,0.13073
1786.02,0.12254
1780.23,0.11379
1774.45,0.10447
1768.66,0.09297
1762.87,0.08133
1757.09,0.07000
1751.3,0.06109
1745.51,0.05528
1739.73,0.05268
1733.94,0.05255
1728.16,0.05166
1722.37,0.05212
1716.58,0.05277
1710.8,0.05241
1705.01,0.05162
1699.22,0.04938
1693.44,0.04635
1687.65,0.04404
1681.87,0.04077
1676.08,0.03940
1670.29,0.03876
1664.51,0.03908
1658.72,0.04053
1652.93,0.04243
1647.15,0.04372
1641.36,0.04463
1635.58,0.04559
1629.79,0.04540
1624,0.04531
1618.22,0.04486
1612.43,0.04459
1606.64,0.04443
1600.86,0.04531
1595.07,0.04560
1589.29,0.04716
1583.5,0.04803
1577.71,0.05001
1571.93,0.05169
1566.14,0.05227
1560.35,0.05263
1554.57,0.05181
1548.78,0.05188
1543,0.05204
1537.21,0.05201
1531.42,0.05126
1525.64,0.04921
1519.85,0.04589
1514.07,0.04366
1508.28,0.04514
1502.49,0.04751
1496.71,0.05048
1490.92,0.05157
1485.13,0.05096
1479.35,0.04930
1473.56,0.04629
1467.78,0.04366
1461.99,0.04329
1456.2,0.04322
1450.42,0.04342
1444.63,0.04360
1438.84,0.04328
1433.06,0.04248
1427.27,0.04281
1421.49,0.04386
1415.7,0.04467
1409.91,0.04577
1404.13,0.04536
1398.34,0.04433
1392.55,0.04303
1386.77,0.04133
1380.98,0.04056
1375.2,0.04037
1369.41,0.04091
1363.62,0.04149
1357.84,0.04194
1352.05,0.04255
1346.26,0.04224
1340.48,0.04170
1334.69,0.04161
1328.91,0.04170
1323.12,0.04137
1317.33,0.04112
1311.55,0.04188
1305.76,0.04230
1299.97,0.04200
1294.19,0.04089
1288.4,0.03992
1282.62,0.03829
1276.83,0.03832
1271.04,0.03801
1265.26,0.03922
1259.47,0.03985
1253.68,0.04055
1247.9,0.04099
1242.11,0.04113
1236.33,0.04096
1230.54,0.04132
1224.75,0.04180
1218.97,0.04247
1213.18,0.04218
1207.39,0.04205
1201.61,0.04232
1195.82,0.04162
1190.04,0.04088
1184.25,0.03903
1178.46,0.03646
1172.68,0.03481
1166.89,0.03525
1161.1,0.03731
1155.32,0.03804
1149.53,0.03727
1143.75,0.03634
1137.96,0.03552
1132.17,0.03518
1126.39,0.03449
1120.6,0.03448
1114.81,0.03545
1109.03,0.03701
1103.24,0.03783
1097.46,0.03746
1091.67,0.03717
1085.88,0.03715
1080.1,0.03839
1074.31,0.04082
1068.52,0.04361
1062.74,0.04796
1056.95,0.05068
1051.17,0.05203
1045.38,0.05122
1039.59,0.05276
1033.81,0.05622
1028.02,0.05787
1022.24,0.05864
1016.45,0.05971
1010.66,0.06037
1004.88,0.06038
999.09,0.06141
993.304,0.06230
987.518,0.06434
981.731,0.06727
975.945,0.06937
970.159,0.07057
964.373,0.07190
958.586,0.07310
952.8,0.07442
947.014,0.07533
941.228,0.07630
935.441,0.07781
929.655,0.07801
923.869,0.07859
918.083,0.07701
912.297,0.07481
906.51,0.07154
900.724,0.06906
894.938,0.06909
889.152,0.07106
883.365,0.07181
877.579,0.07166
871.793,0.07199
866.007,0.07171
860.22,0.07263
854.434,0.07318
848.648,0.07410
842.862,0.07351
837.075,0.07231
831.289,0.07089
825.503,0.06857
819.717,0.06631
813.931,0.06314
808.144,0.06417
802.358,0.06440
796.572,0.06404
790.786,0.06266
784.999,0.06118
779.213,0.06026
773.427,0.05960
767.641,0.05935
761.854,0.05857
756.068,0.05738
750.282,0.05696
744.496,0.05614
738.709,0.05375
732.923,0.05388
727.137,0.05194
721.351,0.05135
715.565,0.05049
709.778,0.04942
703.992,0.04883
698.206,0.04863
692.42,0.04773
686.633,0.04748
680.847,0.04661
675.061,0.04608
669.275,0.04480
663.488,0.04589
657.702,0.04608
651.916,0.04683
646.13,0.04518
640.343,0.04669
634.557,0.04526
628.771,0.04480
622.985,0.04654
617.198,0.04491
611.412,0.04778
605.626,0.04879
599.84,0.04715