File: 01_Data/Particleboard/FTIR/IS/Particleboard_IS_S_220927_R6.dpt
7497.03,0.71987
7491.25,0.72495
7485.46,0.71089
7479.67,0.69871
7473.89,0.70949
7468.1,0.71119
7462.32,0.71356
7456.53,0.70286
7450.74,0.70502
7444.96,0.70419
7439.17,0.70949
7433.38,0.69759
7427.6,0.70095
7421.81,0.69963
7416.03,0.68042
7410.24,0.69179
7404.45,0.68595
7398.67,0.68997
7392.88,0.69726
7387.09,0.68503
7381.31,0.68758
7375.52,0.68939
7369.74,0.68023
7363.95,0.68376
7358.16,0.68292
7352.38,0.67630
7346.59,0.66639
7340.8,0.67713
7335.02,0.66593
7329.23,0.66847
7323.45,0.65711
7317.66,0.66105
7311.87,0.66704
7306.09,0.66146
7300.3,0.66516
7294.51,0.66760
7288.73,0.65319
7282.94,0.65792
7277.16,0.66715
7271.37,0.66000
7265.58,0.66710
7259.8,0.66207
7254.01,0.65748
7248.22,0.65687
7242.44,0.65947
7236.65,0.65267
7230.87,0.65964
7225.08,0.66028
7219.29,0.65758
7213.51,0.65896
7207.72,0.64430
7201.93,0.64973
7196.15,0.64772
7190.36,0.64943
7184.58,0.65061
7178.79,0.63870
7173,0.63983
7167.22,0.63937
7161.43,0.63880
7155.65,0.64018
7149.86,0.63888
7144.07,0.62608
7138.29,0.63126
7132.5,0.62937
7126.71,0.62855
7120.93,0.62299
7115.14,0.61799
7109.36,0.61453
7103.57,0.60621
7097.78,0.60130
7092,0.60145
7086.21,0.59387
7080.42,0.59757
7074.64,0.59070
7068.85,0.58943
7063.07,0.58269
7057.28,0.57745
7051.49,0.56408
7045.71,0.56059
7039.92,0.56324
7034.13,0.55179
7028.35,0.54855
7022.56,0.54236
7016.78,0.54363
7010.99,0.53750
7005.2,0.53246
6999.42,0.52810
6993.63,0.52407
6987.84,0.52831
6982.06,0.51947
6976.27,0.51876
6970.49,0.52093
6964.7,0.51697
6958.91,0.51351
6953.13,0.51155
6947.34,0.50907
6941.55,0.51024
6935.77,0.50590
6929.98,0.50572
6924.2,0.50478
6918.41,0.50920
6912.62,0.50056
6906.84,0.50113
6901.05,0.50818
6895.26,0.50705
6889.48,0.49879
6883.69,0.50044
6877.91,0.49491
6872.12,0.50067
6866.33,0.50224
6860.55,0.50051
6854.76,0.49544
6848.97,0.49469
6843.19,0.50309
6837.4,0.49718
6831.62,0.50175
6825.83,0.50210
6820.04,0.49640
6814.26,0.49388
6808.47,0.49667
6802.68,0.49278
6796.9,0.49299
6791.11,0.49268
6785.33,0.48836
6779.54,0.48911
6773.75,0.48539
6767.97,0.48118
6762.18,0.47921
6756.39,0.48327
6750.61,0.48655
6744.82,0.47731
6739.04,0.48501
6733.25,0.47528
6727.46,0.47633
6721.68,0.48187
6715.89,0.47910
6710.1,0.47453
6704.32,0.47884
6698.53,0.47933
6692.75,0.47711
6686.96,0.48309
6681.17,0.48087
6675.39,0.48118
6669.6,0.48427
6663.82,0.48768
6658.03,0.48606
6652.24,0.48778
6646.46,0.48540
6640.67,0.48841
6634.88,0.48771
6629.1,0.48761
6623.31,0.49650
6617.53,0.49444
6611.74,0.49532
6605.95,0.49455
6600.17,0.49729
6594.38,0.49705
6588.59,0.49564
6582.81,0.49981
6577.02,0.50279
6571.24,0.49914
6565.45,0.50544
6559.66,0.50583
6553.88,0.50826
6548.09,0.50376
6542.3,0.50511
6536.52,0.50911
6530.73,0.51223
6524.95,0.50563
6519.16,0.50742
6513.37,0.51129
6507.59,0.51049
6501.8,0.51158
6496.01,0.51082
6490.23,0.51697
6484.44,0.51499
6478.66,0.51548
6472.87,0.51302
6467.08,0.51577
6461.3,0.51455
6455.51,0.51569
6449.72,0.52246
6443.94,0.52033
6438.15,0.52094
6432.37,0.52041
6426.58,0.52108
6420.79,0.52222
6415.01,0.52439
6409.22,0.52495
6403.43,0.52279
6397.65,0.52251
6391.86,0.52425
6386.08,0.52247
6380.29,0.52534
6374.5,0.52474
6368.72,0.52447
6362.93,0.52788
6357.14,0.52695
6351.36,0.52551
6345.57,0.53507
6339.79,0.52871
6334,0.52916
6328.21,0.52937
6322.43,0.52889
6316.64,0.52789
6310.85,0.53297
6305.07,0.53308
6299.28,0.53043
6293.5,0.53488
6287.71,0.53443
6281.92,0.53723
6276.14,0.53360
6270.35,0.54050
6264.56,0.53898
6258.78,0.53982
6252.99,0.54368
6247.21,0.54545
6241.42,0.54319
6235.63,0.54812
6229.85,0.54947
6224.06,0.54743
6218.27,0.55130
6212.49,0.55358
6206.7,0.55632
6200.92,0.55799
6195.13,0.56077
6189.34,0.55928
6183.56,0.56099
6177.77,0.56531
6171.98,0.56720
6166.2,0.56624
6160.41,0.56796
6154.63,0.57206
6148.84,0.57190
6143.05,0.57209
6137.27,0.57230
6131.48,0.57277
6125.7,0.57102
6119.91,0.57460
6114.12,0.57626
6108.34,0.57542
6102.55,0.57705
6096.76,0.57864
6090.98,0.57818
6085.19,0.57915
6079.41,0.57821
6073.62,0.58009
6067.83,0.57615
6062.05,0.57655
6056.26,0.57400
6050.47,0.57404
6044.69,0.57264
6038.9,0.57430
6033.12,0.57174
6027.33,0.56918
6021.54,0.56610
6015.76,0.56527
6009.97,0.56296
6004.18,0.56165
5998.4,0.56011
5992.61,0.55949
5986.83,0.55692
5981.04,0.55735
5975.25,0.55243
5969.47,0.55456
5963.68,0.55475
5957.89,0.55494
5952.11,0.55595
5946.32,0.55525
5940.54,0.55690
5934.75,0.55589
5928.96,0.55604
5923.18,0.55312
5917.39,0.55332
5911.6,0.55482
5905.82,0.55057
5900.03,0.54928
5894.25,0.54494
5888.46,0.54669
5882.67,0.54739
5876.89,0.54600
5871.1,0.54229
5865.31,0.54069
5859.53,0.54245
5853.74,0.54425
5847.96,0.54251
5842.17,0.54012
5836.38,0.54257
5830.6,0.54025
5824.81,0.53958
5819.02,0.54085
5813.24,0.53890
5807.45,0.53686
5801.67,0.53979
5795.88,0.53791
5790.09,0.53910
5784.31,0.53923
5778.52,0.53828
5772.73,0.53796
5766.95,0.54332
5761.16,0.54134
5755.38,0.54347
5749.59,0.54251
5743.8,0.54387
5738.02,0.54266
5732.23,0.54149
5726.44,0.54265
5720.66,0.54441
5714.87,0.54203
5709.09,0.54291
5703.3,0.54466
5697.51,0.54160
5691.73,0.54386
5685.94,0.54271
5680.15,0.54255
5674.37,0.54307
5668.58,0.54404
5662.8,0.54226
5657.01,0.53990
5651.22,0.54068
5645.44,0.54136
5639.65,0.54430
5633.87,0.54341
5628.08,0.54046
5622.29,0.54347
5616.51,0.54264
5610.72,0.54416
5604.93,0.54196
5599.15,0.54338
5593.36,0.54330
5587.58,0.54253
5581.79,0.54530
5576,0.54478
5570.22,0.54413
5564.43,0.54700
5558.64,0.54810
5552.86,0.54601
5547.07,0.54573
5541.29,0.54772
5535.5,0.54767
5529.71,0.54844
5523.93,0.54911
5518.14,0.54867
5512.35,0.54875
5506.57,0.55006
5500.78,0.55124
5495,0.55109
5489.21,0.55152
5483.42,0.55250
5477.64,0.55141
5471.85,0.55305
5466.06,0.55270
5460.28,0.55283
5454.49,0.55535
5448.71,0.55714
5442.92,0.56003
5437.13,0.55822
5431.35,0.55890
5425.56,0.56071
5419.77,0.56253
5413.99,0.56108
5408.2,0.56464
5402.42,0.56525
5396.63,0.56445
5390.84,0.56566
5385.06,0.56580
5379.27,0.56529
5373.48,0.56527
5367.7,0.56630
5361.91,0.56653
5356.13,0.56487
5350.34,0.56592
5344.55,0.56331
5338.77,0.56085
5332.98,0.55853
5327.19,0.55726
5321.41,0.55326
5315.62,0.54842
5309.84,0.54610
5304.05,0.54042
5298.26,0.53271
5292.48,0.52812
5286.69,0.51882
5280.9,0.50988
5275.12,0.50015
5269.33,0.48817
5263.55,0.47742
5257.76,0.46748
5251.97,0.45769
5246.19,0.44896
5240.4,0.44085
5234.61,0.43193
5228.83,0.42653
5223.04,0.42161
5217.26,0.41713
5211.47,0.41352
5205.68,0.41095
5199.9,0.40909
5194.11,0.40584
5188.32,0.40558
5182.54,0.40424
5176.75,0.40519
5170.97,0.40469
5165.18,0.40347
5159.39,0.40570
5153.61,0.40465
5147.82,0.40698
5142.03,0.40770
5136.25,0.40887
5130.46,0.41166
5124.68,0.41094
5118.89,0.41124
5113.1,0.41252
5107.32,0.41093
5101.53,0.40975
5095.75,0.40627
5089.96,0.40548
5084.17,0.40394
5078.39,0.40147
5072.6,0.40166
5066.81,0.40222
5061.03,0.40126
5055.24,0.40463
5049.46,0.40697
5043.67,0.40803
5037.88,0.40991
5032.1,0.41249
5026.31,0.41392
5020.52,0.41652
5014.74,0.41736
5008.95,0.42140
5003.17,0.42148
4997.38,0.42163
4991.59,0.42302
4985.81,0.42312
4980.02,0.42214
4974.23,0.42144
4968.45,0.41949
4962.66,0.41687
4956.88,0.41471
4951.09,0.41031
4945.3,0.40778
4939.52,0.40369
4933.73,0.39993
4927.94,0.39639
4922.16,0.39383
4916.37,0.39149
4910.59,0.38721
4904.8,0.38360
4899.01,0.38110
4893.23,0.37769
4887.44,0.37554
4881.65,0.37252
4875.87,0.36871
4870.08,0.36678
4864.3,0.36455
4858.51,0.36220
4852.72,0.35906
4846.94,0.35772
4841.15,0.35520
4835.36,0.35318
4829.58,0.35146
4823.79,0.34955
4818.01,0.34773
4812.22,0.34609
4806.43,0.34533
4800.65,0.34390
4794.86,0.34337
4789.07,0.34206
4783.29,0.34251
4777.5,0.34115
4771.72,0.34105
4765.93,0.34036
4760.14,0.33918
4754.36,0.33917
4748.57,0.33928
4742.78,0.34011
4737,0.33972
4731.21,0.33967
4725.43,0.33974
4719.64,0.33987
4713.85,0.34063
4708.07,0.34075
4702.28,0.34136
4696.49,0.34204
4690.71,0.34113
4684.92,0.34210
4679.14,0.34215
4673.35,0.34431
4667.56,0.34497
4661.78,0.34534
4655.99,0.34585
4650.2,0.34748
4644.42,0.34746
4638.63,0.34822
4632.85,0.35015
4627.06,0.35074
4621.27,0.35251
4615.49,0.35385
4609.7,0.35575
4603.92,0.35738
4598.13,0.35787
4592.34,0.35949
4586.56,0.36062
4580.77,0.36107
4574.98,0.36157
4569.2,0.36248
4563.41,0.36365
4557.63,0.36327
4551.84,0.36344
4546.05,0.36400
4540.27,0.36512
4534.48,0.36607
4528.69,0.36654
4522.91,0.36644
4517.12,0.36743
4511.34,0.36729
4505.55,0.36848
4499.76,0.36779
4493.98,0.36684
4488.19,0.36489
4482.4,0.36191
4476.62,0.35880
4470.83,0.35573
4465.05,0.35090
4459.26,0.34631
4453.47,0.34072
4447.69,0.33514
4441.9,0.33023
4436.11,0.32462
4430.33,0.31903
4424.54,0.31489
4418.76,0.31036
4412.97,0.30646
4407.18,0.30311
4401.4,0.30150
4395.61,0.30203
4389.82,0.30263
4384.04,0.30416
4378.25,0.30546
4372.47,0.30787
4366.68,0.31042
4360.89,0.31145
4355.11,0.31229
4349.32,0.31180
4343.53,0.31161
4337.75,0.31039
4331.96,0.30877
4326.18,0.30790
4320.39,0.30672
4314.6,0.30503
4308.82,0.30423
4303.03,0.30325
4297.24,0.30191
4291.46,0.30076
4285.67,0.29946
4279.89,0.29914
4274.1,0.29974
4268.31,0.30111
4262.53,0.30211
4256.74,0.30356
4250.95,0.30406
4245.17,0.30556
4239.38,0.30611
4233.6,0.30679
4227.81,0.30771
4222.02,0.30811
4216.24,0.30732
4210.45,0.30670
4204.66,0.30707
4198.88,0.30681
4193.09,0.30709
4187.31,0.30751
4181.52,0.30758
4175.73,0.30786
4169.95,0.30906
4164.16,0.30968
4158.37,0.30914
4152.59,0.30765
4146.8,0.30608
4141.02,0.30461
4135.23,0.30281
4129.44,0.29974
4123.66,0.29646
4117.87,0.29338
4112.09,0.29001
4106.3,0.28630
4100.51,0.28164
4094.73,0.27820
4088.94,0.27342
4083.15,0.26898
4077.37,0.26528
4071.58,0.26101
4065.8,0.25650
4060.01,0.25236
4054.22,0.24845
4048.44,0.24473
4042.65,0.24133
4036.86,0.23861
4031.08,0.23621
4025.29,0.23419
4019.51,0.23345
4013.72,0.23231
4007.93,0.23180
4002.15,0.23206
3996.36,0.23354
3990.57,0.23398
3984.79,0.23444
3979,0.23518
3973.22,0.23627
3967.43,0.23792
3961.64,0.23999
3955.86,0.24204
3950.07,0.24305
3944.28,0.24531
3938.5,0.24757
3932.71,0.24949
3926.93,0.25130
3921.14,0.25317
3915.35,0.25504
3909.57,0.25669
3903.78,0.25824
3897.99,0.25979
3892.21,0.26260
3886.42,0.26435
3880.64,0.26499
3874.85,0.26740
3869.06,0.26942
3863.28,0.27172
3857.49,0.27330
3851.7,0.27613
3845.92,0.27876
3840.13,0.28145
3834.35,0.28231
3828.56,0.28303
3822.77,0.28356
3816.99,0.28477
3811.2,0.28423
3805.41,0.28476
3799.63,0.28411
3793.84,0.28461
3788.06,0.28441
3782.27,0.28371
3776.48,0.28392
3770.7,0.28297
3764.91,0.28110
3759.12,0.28004
3753.34,0.27853
3747.55,0.27707
3741.77,0.27408
3735.98,0.27171
3730.19,0.26859
3724.41,0.26483
3718.62,0.26077
3712.83,0.25547
3707.05,0.24885
3701.26,0.24178
3695.48,0.23367
3689.69,0.22478
3683.9,0.21250
3678.12,0.19990
3672.33,0.18502
3666.54,0.17150
3660.76,0.15800
3654.97,0.14459
3649.19,0.13447
3643.4,0.12364
3637.61,0.11519
3631.83,0.10853
3626.04,0.10063
3620.25,0.09501
3614.47,0.08888
3608.68,0.08400
3602.9,0.07882
3597.11,0.07447
3591.32,0.07015
3585.54,0.06655
3579.75,0.06341
3573.97,0.06024
3568.18,0.05861
3562.39,0.05633
3556.61,0.05432
3550.82,0.05219
3545.03,0.05071
3539.25,0.04939
3533.46,0.04847
3527.68,0.04661
3521.89,0.04575
3516.1,0.04382
3510.32,0.04346
3504.53,0.04207
3498.74,0.04131
3492.96,0.04024
3487.17,0.03993
3481.39,0.03961
3475.6,0.03851
3469.81,0.03810
3464.03,0.03822
3458.24,0.03844
3452.45,0.03834
3446.67,0.03765
3440.88,0.03720
3435.1,0.03671
3429.31,0.03734
3423.52,0.03656
3417.74,0.03680
3411.95,0.03711
3406.16,0.03790
3400.38,0.03754
3394.59,0.03753
3388.81,0.03784
3383.02,0.03743
3377.23,0.03798
3371.45,0.03781
3365.66,0.03729
3359.87,0.03831
3354.09,0.03855
3348.3,0.03952
3342.52,0.03949
3336.73,0.03970
3330.94,0.04123
3325.16,0.04145
3319.37,0.04187
3313.58,0.04212
3307.8,0.04295
3302.01,0.04321
3296.23,0.04327
3290.44,0.04354
3284.65,0.04415
3278.87,0.04436
3273.08,0.04470
3267.29,0.04510
3261.51,0.04615
3255.72,0.04693
3249.94,0.04783
3244.15,0.04797
3238.36,0.04870
3232.58,0.04911
3226.79,0.04941
3221,0.05081
3215.22,0.05165
3209.43,0.05159
3203.65,0.05285
3197.86,0.05300
3192.07,0.05427
3186.29,0.05512
3180.5,0.05563
3174.71,0.05726
3168.93,0.05773
3163.14,0.05879
3157.36,0.05983
3151.57,0.06019
3145.78,0.06153
3140,0.06282
3134.21,0.06405
3128.42,0.06464
3122.64,0.06529
3116.85,0.06668
3111.07,0.06740
3105.28,0.06768
3099.49,0.06881
3093.71,0.07011
3087.92,0.07044
3082.14,0.07100
3076.35,0.07219
3070.56,0.07314
3064.78,0.07428
3058.99,0.07498
3053.2,0.07556
3047.42,0.07607
3041.63,0.07688
3035.85,0.07826
3030.06,0.07819
3024.27,0.07859
3018.49,0.07840
3012.7,0.07735
3006.91,0.07680
3001.13,0.07614
2995.34,0.07529
2989.56,0.07318
2983.77,0.07005
2977.98,0.06673
2972.2,0.06333
2966.41,0.06127
2960.62,0.05871
2954.84,0.05745
2949.05,0.05636
2943.27,0.05481
2937.48,0.05429
2931.69,0.05410
2925.91,0.05383
2920.12,0.05385
2914.33,0.05418
2908.55,0.05415
2902.76,0.05552
2896.98,0.05638
2891.19,0.05734
2885.4,0.05811
2879.62,0.05846
2873.83,0.05934
2868.04,0.06006
2862.26,0.06130
2856.47,0.06267
2850.69,0.06363
2844.9,0.06743
2839.11,0.07144
2833.33,0.07517
2827.54,0.07881
2821.75,0.08261
2815.97,0.08513
2810.18,0.08761
2804.4,0.08971
2798.61,0.09229
2792.82,0.09333
2787.04,0.09494
2781.25,0.09576
2775.46,0.09682
2769.68,0.09732
2763.89,0.09780
2758.11,0.09939
2752.32,0.09938
2746.53,0.10022
2740.75,0.10016
2734.96,0.10130
2729.17,0.10176
2723.39,0.10264
2717.6,0.10449
2711.82,0.10552
2706.03,0.10648
2700.24,0.10801
2694.46,0.10948
2688.67,0.11099
2682.88,0.11217
2677.1,0.11330
2671.31,0.11402
2665.53,0.11516
2659.74,0.11636
2653.95,0.11722
2648.17,0.11835
2642.38,0.11946
2636.59,0.12084
2630.81,0.12210
2625.02,0.12281
2619.24,0.12397
2613.45,0.12543
2607.66,0.12659
2601.88,0.12749
2596.09,0.12822
2590.3,0.12910
2584.52,0.13036
2578.73,0.13129
2572.95,0.13166
2567.16,0.13197
2561.37,0.13232
2555.59,0.13230
2549.8,0.13292
2544.02,0.13337
2538.23,0.13416
2532.44,0.13436
2526.66,0.13574
2520.87,0.13682
2515.08,0.13758
2509.3,0.13865
2503.51,0.14065
2497.73,0.14249
2491.94,0.14404
2486.15,0.14553
2480.37,0.14688
2474.58,0.14829
2468.79,0.14964
2463.01,0.15096
2457.22,0.15250
2451.44,0.15375
2445.65,0.15565
2439.86,0.15741
2434.08,0.15927
2428.29,0.16122
2422.5,0.16304
2416.72,0.16556
2410.93,0.16769
2405.15,0.16957
2399.36,0.17188
2393.57,0.17400
2387.79,0.17546
2382,0.17723
2376.21,0.17898
2370.43,0.18062
2364.64,0.18210
2358.86,0.18320
2353.07,0.18352
2347.28,0.18493
2341.5,0.18652
2335.71,0.18713
2329.92,0.18790
2324.14,0.18816
2318.35,0.18844
2312.57,0.18811
2306.78,0.18765
2300.99,0.18758
2295.21,0.18682
2289.42,0.18630
2283.63,0.18602
2277.85,0.18589
2272.06,0.18476
2266.28,0.18330
2260.49,0.18192
2254.7,0.18058
2248.92,0.18028
2243.13,0.17924
2237.34,0.17879
2231.56,0.17806
2225.77,0.17719
2219.99,0.17700
2214.2,0.17676
2208.41,0.17525
2202.63,0.17444
2196.84,0.17301
2191.05,0.17133
2185.27,0.16987
2179.48,0.16803
2173.7,0.16621
2167.91,0.16474
2162.12,0.16350
2156.34,0.16271
2150.55,0.16225
2144.76,0.16108
2138.98,0.16101
2133.19,0.16132
2127.41,0.16130
2121.62,0.16199
2115.83,0.16277
2110.05,0.16306
2104.26,0.16348
2098.47,0.16393
2092.69,0.16444
2086.9,0.16468
2081.12,0.16417
2075.33,0.16295
2069.54,0.16200
2063.76,0.16100
2057.97,0.16098
2052.19,0.16111
2046.4,0.16127
2040.61,0.16249
2034.83,0.16353
2029.04,0.16541
2023.25,0.16693
2017.47,0.16879
2011.68,0.17028
2005.9,0.17120
2000.11,0.17180
1994.32,0.17323
1988.54,0.17402
1982.75,0.17504
1976.96,0.17601
1971.18,0.17641
1965.39,0.17749
1959.61,0.17862
1953.82,0.17988
1948.03,0.18144
1942.25,0.18241
1936.46,0.18365
1930.67,0.18418
1924.89,0.18420
1919.1,0.18386
1913.32,0.18361
1907.53,0.18296
1901.74,0.18196
1895.96,0.18103
1890.17,0.18044
1884.38,0.17935
1878.6,0.17918
1872.81,0.17849
1867.03,0.17769
1861.24,0.17619
1855.45,0.17474
1849.67,0.17320
1843.88,0.17063
1838.09,0.16824
1832.31,0.16565
1826.52,0.16246
1820.74,0.15835
1814.95,0.15388
1809.16,0.14887
1803.38,0.14375
1797.59,0.13692
1791.8,0.13007
1786.02,0.12188
1780.23,0.11349
1774.45,0.10425
1768.66,0.09317
1762.87,0.08146
1757.09,0.06982
1751.3,0.06103
1745.51,0.05542
1739.73,0.05307
1733.94,0.05181
1728.16,0.05169
1722.37,0.05221
1716.58,0.05248
1710.8,0.05238
1705.01,0.05173
1699.22,0.04922
1693.44,0.04659
1687.65,0.04360
1681.87,0.04081
1676.08,0.03906
1670.29,0.03846
1664.51,0.03888
1658.72,0.04019
1652.93,0.04245
1647.15,0.04378
1641.36,0.04483
1635.58,0.04566
1629.79,0.04573
1624,0.04527
1618.22,0.04504
1612.43,0.04473
1606.64,0.04468
1600.86,0.04497
1595.07,0.04582
1589.29,0.04710
1583.5,0.04820
1577.71,0.04954
1571.93,0.05127
1566.14,0.05238
1560.35,0.05256
1554.57,0.05194
1548.78,0.05159
1543,0.05176
1537.21,0.05176
1531.42,0.05089
1525.64,0.04970
1519.85,0.04621
1514.07,0.04361
1508.28,0.04466
1502.49,0.04750
1496.71,0.05039
1490.92,0.05181
1485.13,0.05081
1479.35,0.04927
1473.56,0.04632
1467.78,0.04355
1461.99,0.04362
1456.2,0.04365
1450.42,0.04381
1444.63,0.04408
1438.84,0.04369
1433.06,0.04256
1427.27,0.04227
1421.49,0.04323
1415.7,0.04416
1409.91,0.04483
1404.13,0.04506
1398.34,0.04399
1392.55,0.04303
1386.77,0.04175
1380.98,0.04097
1375.2,0.04041
1369.41,0.04072
1363.62,0.04192
1357.84,0.04235
1352.05,0.04249
1346.26,0.04216
1340.48,0.04203
1334.69,0.04180
1328.91,0.04169
1323.12,0.04141
1317.33,0.04131
1311.55,0.04205
1305.76,0.04209
1299.97,0.04176
1294.19,0.04105
1288.4,0.03988
1282.62,0.03844
1276.83,0.03808
1271.04,0.03830
1265.26,0.03911
1259.47,0.03967
1253.68,0.04031
1247.9,0.04091
1242.11,0.04095
1236.33,0.04090
1230.54,0.04161
1224.75,0.04193
1218.97,0.04183
1213.18,0.04264
1207.39,0.04190
1201.61,0.04196
1195.82,0.04218
1190.04,0.04080
1184.25,0.03881
1178.46,0.03656
1172.68,0.03509
1166.89,0.03468
1161.1,0.03713
1155.32,0.03760
1149.53,0.03736
1143.75,0.03624
1137.96,0.03526
1132.17,0.03474
1126.39,0.03472
1120.6,0.03524
1114.81,0.03540
1109.03,0.03677
1103.24,0.03721
1097.46,0.03769
1091.67,0.03720
1085.88,0.03710
1080.1,0.03893
1074.31,0.04022
1068.52,0.04297
1062.74,0.04738
1056.95,0.05131
1051.17,0.05139
1045.38,0.05088
1039.59,0.05219
1033.81,0.05604
1028.02,0.05757
1022.24,0.05827
1016.45,0.05922
1010.66,0.06040
1004.88,0.06031
999.09,0.06107
993.304,0.06227
987.518,0.06438
981.731,0.06743
975.945,0.06958
970.159,0.07051
964.373,0.07163
958.586,0.07308
952.8,0.07445
947.014,0.07554
941.228,0.07688
935.441,0.07741
929.655,0.07892
923.869,0.07839
918.083,0.07700
912.297,0.07503
906.51,0.07090
900.724,0.06831
894.938,0.06845
889.152,0.07034
883.365,0.07152
877.579,0.07220
871.793,0.07177
866.007,0.07217
860.22,0.07241
854.434,0.07329
848.648,0.07426
842.862,0.07374
837.075,0.07248
831.289,0.07055
825.503,0.06874
819.717,0.06620
813.931,0.06381
808.144,0.06310
802.358,0.06359
796.572,0.06310
790.786,0.06209
784.999,0.06099
779.213,0.05937
773.427,0.05914
767.641,0.05989
761.854,0.05890
756.068,0.05769
750.282,0.05705
744.496,0.05497
738.709,0.05432
732.923,0.05326
727.137,0.05223
721.351,0.05063
715.565,0.04981
709.778,0.05062
703.992,0.04947
698.206,0.04922
692.42,0.04819
686.633,0.04755
680.847,0.04667
675.061,0.04608
669.275,0.04560
663.488,0.04553
657.702,0.04645
651.916,0.04577
646.13,0.04481
640.343,0.04674
634.557,0.04396
628.771,0.04368
622.985,0.04473
617.198,0.04534
611.412,0.04594
605.626,0.04703
599.84,0.04714