File: 01_Data/Particleboard/FTIR/IS/Particleboard_IS_S_220927_R5.dpt
7497.03,0.71413
7491.25,0.71057
7485.46,0.71192
7479.67,0.70735
7473.89,0.71734
7468.1,0.71584
7462.32,0.71400
7456.53,0.70485
7450.74,0.70210
7444.96,0.70087
7439.17,0.69953
7433.38,0.69453
7427.6,0.69189
7421.81,0.69770
7416.03,0.69145
7410.24,0.69511
7404.45,0.68454
7398.67,0.68895
7392.88,0.68557
7387.09,0.68722
7381.31,0.68414
7375.52,0.68593
7369.74,0.67931
7363.95,0.67601
7358.16,0.67949
7352.38,0.68554
7346.59,0.66504
7340.8,0.67435
7335.02,0.67186
7329.23,0.67498
7323.45,0.67027
7317.66,0.67544
7311.87,0.66259
7306.09,0.66736
7300.3,0.66674
7294.51,0.66434
7288.73,0.66182
7282.94,0.66356
7277.16,0.65857
7271.37,0.66615
7265.58,0.66200
7259.8,0.66451
7254.01,0.65756
7248.22,0.65736
7242.44,0.65937
7236.65,0.65768
7230.87,0.65904
7225.08,0.66291
7219.29,0.65205
7213.51,0.65260
7207.72,0.64800
7201.93,0.65372
7196.15,0.65068
7190.36,0.65029
7184.58,0.64227
7178.79,0.64707
7173,0.64289
7167.22,0.64464
7161.43,0.63931
7155.65,0.63207
7149.86,0.63437
7144.07,0.63310
7138.29,0.63865
7132.5,0.62785
7126.71,0.62038
7120.93,0.61982
7115.14,0.61278
7109.36,0.61311
7103.57,0.60227
7097.78,0.60240
7092,0.60178
7086.21,0.58898
7080.42,0.59404
7074.64,0.58513
7068.85,0.58025
7063.07,0.57607
7057.28,0.57538
7051.49,0.57150
7045.71,0.56886
7039.92,0.55550
7034.13,0.55513
7028.35,0.54283
7022.56,0.54655
7016.78,0.54426
7010.99,0.53920
7005.2,0.53668
6999.42,0.52332
6993.63,0.52587
6987.84,0.52381
6982.06,0.51716
6976.27,0.52072
6970.49,0.51442
6964.7,0.51020
6958.91,0.50838
6953.13,0.51240
6947.34,0.51473
6941.55,0.51290
6935.77,0.50468
6929.98,0.50662
6924.2,0.50646
6918.41,0.50897
6912.62,0.50530
6906.84,0.50282
6901.05,0.50233
6895.26,0.50049
6889.48,0.50521
6883.69,0.49992
6877.91,0.50182
6872.12,0.50102
6866.33,0.49888
6860.55,0.50113
6854.76,0.50070
6848.97,0.49856
6843.19,0.50303
6837.4,0.49872
6831.62,0.49132
6825.83,0.49416
6820.04,0.49234
6814.26,0.49229
6808.47,0.49290
6802.68,0.48803
6796.9,0.48275
6791.11,0.48978
6785.33,0.48413
6779.54,0.49153
6773.75,0.48314
6767.97,0.48615
6762.18,0.48484
6756.39,0.48224
6750.61,0.48493
6744.82,0.47984
6739.04,0.48044
6733.25,0.47880
6727.46,0.47956
6721.68,0.48100
6715.89,0.48357
6710.1,0.47587
6704.32,0.47904
6698.53,0.47543
6692.75,0.48107
6686.96,0.48163
6681.17,0.48240
6675.39,0.48179
6669.6,0.48246
6663.82,0.48621
6658.03,0.48234
6652.24,0.48864
6646.46,0.48874
6640.67,0.48511
6634.88,0.48624
6629.1,0.48832
6623.31,0.48971
6617.53,0.49222
6611.74,0.48814
6605.95,0.49569
6600.17,0.49267
6594.38,0.49482
6588.59,0.49754
6582.81,0.49749
6577.02,0.50473
6571.24,0.50167
6565.45,0.50062
6559.66,0.50182
6553.88,0.50393
6548.09,0.50468
6542.3,0.50960
6536.52,0.51315
6530.73,0.50889
6524.95,0.51200
6519.16,0.51076
6513.37,0.50911
6507.59,0.50911
6501.8,0.51399
6496.01,0.51261
6490.23,0.51497
6484.44,0.51501
6478.66,0.51482
6472.87,0.51124
6467.08,0.51368
6461.3,0.51921
6455.51,0.52044
6449.72,0.51628
6443.94,0.52007
6438.15,0.52187
6432.37,0.51980
6426.58,0.51883
6420.79,0.51802
6415.01,0.51785
6409.22,0.51696
6403.43,0.52555
6397.65,0.51883
6391.86,0.52237
6386.08,0.52686
6380.29,0.52448
6374.5,0.52417
6368.72,0.52463
6362.93,0.52747
6357.14,0.52589
6351.36,0.52896
6345.57,0.53046
6339.79,0.52331
6334,0.53148
6328.21,0.52855
6322.43,0.52991
6316.64,0.52668
6310.85,0.52907
6305.07,0.53346
6299.28,0.53272
6293.5,0.53228
6287.71,0.53580
6281.92,0.53541
6276.14,0.53478
6270.35,0.53661
6264.56,0.53881
6258.78,0.53899
6252.99,0.53956
6247.21,0.54210
6241.42,0.54684
6235.63,0.54513
6229.85,0.55082
6224.06,0.54939
6218.27,0.55190
6212.49,0.55279
6206.7,0.55645
6200.92,0.55614
6195.13,0.55637
6189.34,0.56054
6183.56,0.56349
6177.77,0.56269
6171.98,0.56646
6166.2,0.56788
6160.41,0.56491
6154.63,0.57085
6148.84,0.57071
6143.05,0.57073
6137.27,0.57406
6131.48,0.57141
6125.7,0.57312
6119.91,0.57209
6114.12,0.57764
6108.34,0.57789
6102.55,0.57645
6096.76,0.58047
6090.98,0.57911
6085.19,0.57788
6079.41,0.57824
6073.62,0.57966
6067.83,0.57463
6062.05,0.57437
6056.26,0.57535
6050.47,0.57474
6044.69,0.57315
6038.9,0.57177
6033.12,0.57237
6027.33,0.56754
6021.54,0.56355
6015.76,0.56558
6009.97,0.56441
6004.18,0.56332
5998.4,0.56071
5992.61,0.55829
5986.83,0.55637
5981.04,0.55408
5975.25,0.55628
5969.47,0.55228
5963.68,0.55362
5957.89,0.55486
5952.11,0.55314
5946.32,0.55383
5940.54,0.55664
5934.75,0.55484
5928.96,0.55378
5923.18,0.55436
5917.39,0.55217
5911.6,0.55089
5905.82,0.55030
5900.03,0.54895
5894.25,0.54816
5888.46,0.54281
5882.67,0.54414
5876.89,0.54351
5871.1,0.54324
5865.31,0.54268
5859.53,0.54211
5853.74,0.54304
5847.96,0.54304
5842.17,0.54095
5836.38,0.54072
5830.6,0.53947
5824.81,0.54061
5819.02,0.53907
5813.24,0.53889
5807.45,0.53858
5801.67,0.53732
5795.88,0.53500
5790.09,0.53634
5784.31,0.53609
5778.52,0.54010
5772.73,0.53862
5766.95,0.54083
5761.16,0.53991
5755.38,0.54329
5749.59,0.54240
5743.8,0.54254
5738.02,0.54082
5732.23,0.54073
5726.44,0.54186
5720.66,0.54218
5714.87,0.54178
5709.09,0.54135
5703.3,0.54265
5697.51,0.54230
5691.73,0.54203
5685.94,0.54134
5680.15,0.54133
5674.37,0.53907
5668.58,0.54043
5662.8,0.54047
5657.01,0.54209
5651.22,0.54374
5645.44,0.54236
5639.65,0.54165
5633.87,0.54245
5628.08,0.54163
5622.29,0.54060
5616.51,0.54175
5610.72,0.54254
5604.93,0.54155
5599.15,0.54243
5593.36,0.54313
5587.58,0.54220
5581.79,0.54472
5576,0.54169
5570.22,0.54301
5564.43,0.54422
5558.64,0.54572
5552.86,0.54565
5547.07,0.54623
5541.29,0.54766
5535.5,0.54852
5529.71,0.54676
5523.93,0.54829
5518.14,0.54919
5512.35,0.55026
5506.57,0.55063
5500.78,0.55161
5495,0.55175
5489.21,0.55238
5483.42,0.55267
5477.64,0.55375
5471.85,0.55302
5466.06,0.55306
5460.28,0.55400
5454.49,0.55516
5448.71,0.55535
5442.92,0.55593
5437.13,0.55952
5431.35,0.55857
5425.56,0.56148
5419.77,0.56288
5413.99,0.56442
5408.2,0.56384
5402.42,0.56389
5396.63,0.56509
5390.84,0.56438
5385.06,0.56518
5379.27,0.56491
5373.48,0.56537
5367.7,0.56468
5361.91,0.56252
5356.13,0.56379
5350.34,0.56229
5344.55,0.56142
5338.77,0.56079
5332.98,0.55916
5327.19,0.55734
5321.41,0.55275
5315.62,0.54779
5309.84,0.54304
5304.05,0.53847
5298.26,0.53329
5292.48,0.52547
5286.69,0.51618
5280.9,0.50715
5275.12,0.49705
5269.33,0.48846
5263.55,0.47665
5257.76,0.46511
5251.97,0.45647
5246.19,0.44702
5240.4,0.43768
5234.61,0.43042
5228.83,0.42387
5223.04,0.41809
5217.26,0.41378
5211.47,0.41112
5205.68,0.40801
5199.9,0.40568
5194.11,0.40222
5188.32,0.40284
5182.54,0.40358
5176.75,0.40058
5170.97,0.40247
5165.18,0.40264
5159.39,0.40301
5153.61,0.40387
5147.82,0.40513
5142.03,0.40643
5136.25,0.40578
5130.46,0.40635
5124.68,0.40827
5118.89,0.40831
5113.1,0.40820
5107.32,0.40889
5101.53,0.40704
5095.75,0.40515
5089.96,0.40356
5084.17,0.40300
5078.39,0.40116
5072.6,0.39973
5066.81,0.40059
5061.03,0.40212
5055.24,0.40174
5049.46,0.40276
5043.67,0.40584
5037.88,0.40693
5032.1,0.41024
5026.31,0.41262
5020.52,0.41418
5014.74,0.41673
5008.95,0.41870
5003.17,0.41977
4997.38,0.42044
4991.59,0.42148
4985.81,0.42169
4980.02,0.42097
4974.23,0.41884
4968.45,0.41842
4962.66,0.41663
4956.88,0.41378
4951.09,0.40995
4945.3,0.40584
4939.52,0.40387
4933.73,0.40075
4927.94,0.39681
4922.16,0.39287
4916.37,0.38984
4910.59,0.38656
4904.8,0.38468
4899.01,0.38165
4893.23,0.37851
4887.44,0.37485
4881.65,0.37176
4875.87,0.36999
4870.08,0.36725
4864.3,0.36388
4858.51,0.36051
4852.72,0.35872
4846.94,0.35671
4841.15,0.35406
4835.36,0.35208
4829.58,0.35016
4823.79,0.34890
4818.01,0.34725
4812.22,0.34498
4806.43,0.34475
4800.65,0.34301
4794.86,0.34256
4789.07,0.34150
4783.29,0.34121
4777.5,0.34033
4771.72,0.34092
4765.93,0.33936
4760.14,0.33942
4754.36,0.33887
4748.57,0.33778
4742.78,0.33797
4737,0.33865
4731.21,0.33846
4725.43,0.33970
4719.64,0.33928
4713.85,0.34085
4708.07,0.34071
4702.28,0.34114
4696.49,0.34055
4690.71,0.34080
4684.92,0.34146
4679.14,0.34219
4673.35,0.34253
4667.56,0.34357
4661.78,0.34394
4655.99,0.34618
4650.2,0.34631
4644.42,0.34758
4638.63,0.34826
4632.85,0.34931
4627.06,0.35090
4621.27,0.35195
4615.49,0.35330
4609.7,0.35582
4603.92,0.35744
4598.13,0.35774
4592.34,0.35891
4586.56,0.36020
4580.77,0.36029
4574.98,0.36067
4569.2,0.36117
4563.41,0.36197
4557.63,0.36246
4551.84,0.36379
4546.05,0.36435
4540.27,0.36379
4534.48,0.36442
4528.69,0.36556
4522.91,0.36590
4517.12,0.36696
4511.34,0.36708
4505.55,0.36728
4499.76,0.36665
4493.98,0.36628
4488.19,0.36422
4482.4,0.36133
4476.62,0.35910
4470.83,0.35493
4465.05,0.34988
4459.26,0.34600
4453.47,0.34049
4447.69,0.33517
4441.9,0.32973
4436.11,0.32438
4430.33,0.32028
4424.54,0.31428
4418.76,0.31007
4412.97,0.30652
4407.18,0.30312
4401.4,0.30260
4395.61,0.30158
4389.82,0.30196
4384.04,0.30422
4378.25,0.30615
4372.47,0.30832
4366.68,0.30988
4360.89,0.31093
4355.11,0.31148
4349.32,0.31185
4343.53,0.31153
4337.75,0.30912
4331.96,0.30911
4326.18,0.30747
4320.39,0.30543
4314.6,0.30533
4308.82,0.30315
4303.03,0.30210
4297.24,0.30042
4291.46,0.29988
4285.67,0.29925
4279.89,0.29907
4274.1,0.29951
4268.31,0.30021
4262.53,0.30153
4256.74,0.30261
4250.95,0.30390
4245.17,0.30491
4239.38,0.30545
4233.6,0.30588
4227.81,0.30666
4222.02,0.30654
4216.24,0.30647
4210.45,0.30594
4204.66,0.30745
4198.88,0.30677
4193.09,0.30699
4187.31,0.30669
4181.52,0.30751
4175.73,0.30780
4169.95,0.30868
4164.16,0.30925
4158.37,0.30863
4152.59,0.30741
4146.8,0.30650
4141.02,0.30363
4135.23,0.30135
4129.44,0.29923
4123.66,0.29615
4117.87,0.29278
4112.09,0.28901
4106.3,0.28530
4100.51,0.28143
4094.73,0.27735
4088.94,0.27339
4083.15,0.26844
4077.37,0.26484
4071.58,0.26044
4065.8,0.25638
4060.01,0.25156
4054.22,0.24829
4048.44,0.24447
4042.65,0.24116
4036.86,0.23839
4031.08,0.23605
4025.29,0.23328
4019.51,0.23283
4013.72,0.23162
4007.93,0.23111
4002.15,0.23211
3996.36,0.23261
3990.57,0.23372
3984.79,0.23379
3979,0.23467
3973.22,0.23566
3967.43,0.23745
3961.64,0.23970
3955.86,0.24134
3950.07,0.24324
3944.28,0.24503
3938.5,0.24668
3932.71,0.24907
3926.93,0.25084
3921.14,0.25279
3915.35,0.25456
3909.57,0.25630
3903.78,0.25784
3897.99,0.26003
3892.21,0.26180
3886.42,0.26396
3880.64,0.26493
3874.85,0.26664
3869.06,0.26889
3863.28,0.27138
3857.49,0.27413
3851.7,0.27666
3845.92,0.27834
3840.13,0.28055
3834.35,0.28199
3828.56,0.28270
3822.77,0.28308
3816.99,0.28373
3811.2,0.28376
3805.41,0.28342
3799.63,0.28367
3793.84,0.28329
3788.06,0.28367
3782.27,0.28306
3776.48,0.28234
3770.7,0.28260
3764.91,0.28059
3759.12,0.27955
3753.34,0.27797
3747.55,0.27614
3741.77,0.27325
3735.98,0.27093
3730.19,0.26668
3724.41,0.26341
3718.62,0.25887
3712.83,0.25443
3707.05,0.24772
3701.26,0.24023
3695.48,0.23219
3689.69,0.22271
3683.9,0.21094
3678.12,0.19880
3672.33,0.18322
3666.54,0.16910
3660.76,0.15537
3654.97,0.14317
3649.19,0.13257
3643.4,0.12234
3637.61,0.11424
3631.83,0.10722
3626.04,0.10016
3620.25,0.09377
3614.47,0.08870
3608.68,0.08328
3602.9,0.07781
3597.11,0.07349
3591.32,0.06978
3585.54,0.06578
3579.75,0.06357
3573.97,0.06009
3568.18,0.05823
3562.39,0.05558
3556.61,0.05328
3550.82,0.05141
3545.03,0.05069
3539.25,0.04869
3533.46,0.04760
3527.68,0.04650
3521.89,0.04543
3516.1,0.04462
3510.32,0.04265
3504.53,0.04202
3498.74,0.04136
3492.96,0.04044
3487.17,0.03959
3481.39,0.03883
3475.6,0.03855
3469.81,0.03842
3464.03,0.03805
3458.24,0.03795
3452.45,0.03783
3446.67,0.03765
3440.88,0.03763
3435.1,0.03747
3429.31,0.03765
3423.52,0.03743
3417.74,0.03668
3411.95,0.03775
3406.16,0.03638
3400.38,0.03772
3394.59,0.03734
3388.81,0.03740
3383.02,0.03773
3377.23,0.03765
3371.45,0.03755
3365.66,0.03796
3359.87,0.03824
3354.09,0.03914
3348.3,0.03963
3342.52,0.03926
3336.73,0.04081
3330.94,0.04071
3325.16,0.04103
3319.37,0.04158
3313.58,0.04198
3307.8,0.04262
3302.01,0.04225
3296.23,0.04290
3290.44,0.04370
3284.65,0.04368
3278.87,0.04421
3273.08,0.04564
3267.29,0.04578
3261.51,0.04621
3255.72,0.04692
3249.94,0.04737
3244.15,0.04738
3238.36,0.04889
3232.58,0.04920
3226.79,0.04921
3221,0.05037
3215.22,0.05068
3209.43,0.05173
3203.65,0.05227
3197.86,0.05301
3192.07,0.05420
3186.29,0.05484
3180.5,0.05581
3174.71,0.05683
3168.93,0.05752
3163.14,0.05862
3157.36,0.05981
3151.57,0.06108
3145.78,0.06190
3140,0.06224
3134.21,0.06369
3128.42,0.06456
3122.64,0.06561
3116.85,0.06574
3111.07,0.06773
3105.28,0.06806
3099.49,0.06862
3093.71,0.06975
3087.92,0.07046
3082.14,0.07107
3076.35,0.07232
3070.56,0.07278
3064.78,0.07318
3058.99,0.07457
3053.2,0.07570
3047.42,0.07620
3041.63,0.07688
3035.85,0.07818
3030.06,0.07816
3024.27,0.07852
3018.49,0.07795
3012.7,0.07752
3006.91,0.07654
3001.13,0.07567
2995.34,0.07517
2989.56,0.07259
2983.77,0.07021
2977.98,0.06729
2972.2,0.06347
2966.41,0.06059
2960.62,0.05921
2954.84,0.05807
2949.05,0.05645
2943.27,0.05480
2937.48,0.05440
2931.69,0.05372
2925.91,0.05404
2920.12,0.05390
2914.33,0.05412
2908.55,0.05509
2902.76,0.05562
2896.98,0.05645
2891.19,0.05780
2885.4,0.05811
2879.62,0.05875
2873.83,0.05898
2868.04,0.06010
2862.26,0.06114
2856.47,0.06264
2850.69,0.06317
2844.9,0.06732
2839.11,0.07143
2833.33,0.07524
2827.54,0.07884
2821.75,0.08203
2815.97,0.08533
2810.18,0.08784
2804.4,0.08999
2798.61,0.09167
2792.82,0.09331
2787.04,0.09413
2781.25,0.09527
2775.46,0.09679
2769.68,0.09763
2763.89,0.09792
2758.11,0.09883
2752.32,0.09909
2746.53,0.09977
2740.75,0.10031
2734.96,0.10095
2729.17,0.10161
2723.39,0.10273
2717.6,0.10395
2711.82,0.10528
2706.03,0.10661
2700.24,0.10849
2694.46,0.10929
2688.67,0.11047
2682.88,0.11228
2677.1,0.11335
2671.31,0.11482
2665.53,0.11531
2659.74,0.11624
2653.95,0.11711
2648.17,0.11853
2642.38,0.11940
2636.59,0.12062
2630.81,0.12154
2625.02,0.12280
2619.24,0.12356
2613.45,0.12476
2607.66,0.12575
2601.88,0.12690
2596.09,0.12787
2590.3,0.12875
2584.52,0.13004
2578.73,0.13061
2572.95,0.13150
2567.16,0.13189
2561.37,0.13246
2555.59,0.13258
2549.8,0.13281
2544.02,0.13312
2538.23,0.13374
2532.44,0.13453
2526.66,0.13592
2520.87,0.13662
2515.08,0.13753
2509.3,0.13867
2503.51,0.14066
2497.73,0.14224
2491.94,0.14365
2486.15,0.14522
2480.37,0.14667
2474.58,0.14818
2468.79,0.14960
2463.01,0.15094
2457.22,0.15216
2451.44,0.15363
2445.65,0.15525
2439.86,0.15682
2434.08,0.15890
2428.29,0.16089
2422.5,0.16299
2416.72,0.16526
2410.93,0.16721
2405.15,0.16932
2399.36,0.17158
2393.57,0.17356
2387.79,0.17555
2382,0.17737
2376.21,0.17894
2370.43,0.18064
2364.64,0.18187
2358.86,0.18284
2353.07,0.18385
2347.28,0.18491
2341.5,0.18569
2335.71,0.18669
2329.92,0.18718
2324.14,0.18748
2318.35,0.18763
2312.57,0.18760
2306.78,0.18771
2300.99,0.18734
2295.21,0.18646
2289.42,0.18578
2283.63,0.18583
2277.85,0.18475
2272.06,0.18384
2266.28,0.18261
2260.49,0.18163
2254.7,0.18052
2248.92,0.17969
2243.13,0.17886
2237.34,0.17832
2231.56,0.17753
2225.77,0.17700
2219.99,0.17666
2214.2,0.17592
2208.41,0.17542
2202.63,0.17405
2196.84,0.17251
2191.05,0.17133
2185.27,0.16975
2179.48,0.16788
2173.7,0.16603
2167.91,0.16448
2162.12,0.16286
2156.34,0.16206
2150.55,0.16125
2144.76,0.16046
2138.98,0.16024
2133.19,0.16034
2127.41,0.16063
2121.62,0.16113
2115.83,0.16199
2110.05,0.16247
2104.26,0.16316
2098.47,0.16380
2092.69,0.16394
2086.9,0.16389
2081.12,0.16335
2075.33,0.16214
2069.54,0.16124
2063.76,0.16097
2057.97,0.16047
2052.19,0.16043
2046.4,0.16071
2040.61,0.16200
2034.83,0.16335
2029.04,0.16490
2023.25,0.16626
2017.47,0.16798
2011.68,0.16957
2005.9,0.17063
2000.11,0.17170
1994.32,0.17220
1988.54,0.17356
1982.75,0.17474
1976.96,0.17528
1971.18,0.17632
1965.39,0.17715
1959.61,0.17811
1953.82,0.17931
1948.03,0.18076
1942.25,0.18170
1936.46,0.18260
1930.67,0.18353
1924.89,0.18349
1919.1,0.18376
1913.32,0.18309
1907.53,0.18231
1901.74,0.18137
1895.96,0.18058
1890.17,0.17977
1884.38,0.17932
1878.6,0.17881
1872.81,0.17795
1867.03,0.17701
1861.24,0.17595
1855.45,0.17440
1849.67,0.17237
1843.88,0.17057
1838.09,0.16803
1832.31,0.16511
1826.52,0.16182
1820.74,0.15801
1814.95,0.15342
1809.16,0.14848
1803.38,0.14312
1797.59,0.13685
1791.8,0.13014
1786.02,0.12190
1780.23,0.11309
1774.45,0.10433
1768.66,0.09324
1762.87,0.08139
1757.09,0.06968
1751.3,0.06116
1745.51,0.05576
1739.73,0.05334
1733.94,0.05207
1728.16,0.05188
1722.37,0.05197
1716.58,0.05282
1710.8,0.05243
1705.01,0.05138
1699.22,0.04932
1693.44,0.04631
1687.65,0.04377
1681.87,0.04080
1676.08,0.03924
1670.29,0.03865
1664.51,0.03896
1658.72,0.04073
1652.93,0.04228
1647.15,0.04332
1641.36,0.04470
1635.58,0.04563
1629.79,0.04506
1624,0.04480
1618.22,0.04493
1612.43,0.04467
1606.64,0.04438
1600.86,0.04493
1595.07,0.04558
1589.29,0.04704
1583.5,0.04844
1577.71,0.05019
1571.93,0.05135
1566.14,0.05197
1560.35,0.05205
1554.57,0.05188
1548.78,0.05173
1543,0.05161
1537.21,0.05176
1531.42,0.05135
1525.64,0.04969
1519.85,0.04593
1514.07,0.04356
1508.28,0.04504
1502.49,0.04744
1496.71,0.05004
1490.92,0.05157
1485.13,0.05099
1479.35,0.04909
1473.56,0.04641
1467.78,0.04373
1461.99,0.04343
1456.2,0.04352
1450.42,0.04346
1444.63,0.04433
1438.84,0.04375
1433.06,0.04259
1427.27,0.04226
1421.49,0.04326
1415.7,0.04438
1409.91,0.04517
1404.13,0.04531
1398.34,0.04454
1392.55,0.04253
1386.77,0.04171
1380.98,0.04068
1375.2,0.04032
1369.41,0.04074
1363.62,0.04183
1357.84,0.04238
1352.05,0.04290
1346.26,0.04244
1340.48,0.04195
1334.69,0.04164
1328.91,0.04175
1323.12,0.04141
1317.33,0.04109
1311.55,0.04178
1305.76,0.04198
1299.97,0.04221
1294.19,0.04114
1288.4,0.03963
1282.62,0.03810
1276.83,0.03768
1271.04,0.03778
1265.26,0.03882
1259.47,0.03959
1253.68,0.04044
1247.9,0.04103
1242.11,0.04094
1236.33,0.04102
1230.54,0.04107
1224.75,0.04146
1218.97,0.04228
1213.18,0.04218
1207.39,0.04210
1201.61,0.04209
1195.82,0.04179
1190.04,0.04055
1184.25,0.03880
1178.46,0.03641
1172.68,0.03439
1166.89,0.03501
1161.1,0.03749
1155.32,0.03701
1149.53,0.03658
1143.75,0.03640
1137.96,0.03519
1132.17,0.03477
1126.39,0.03481
1120.6,0.03420
1114.81,0.03533
1109.03,0.03761
1103.24,0.03760
1097.46,0.03805
1091.67,0.03730
1085.88,0.03759
1080.1,0.03831
1074.31,0.04041
1068.52,0.04302
1062.74,0.04803
1056.95,0.05135
1051.17,0.05175
1045.38,0.05117
1039.59,0.05238
1033.81,0.05596
1028.02,0.05743
1022.24,0.05878
1016.45,0.06002
1010.66,0.06033
1004.88,0.06051
999.09,0.06173
993.304,0.06259
987.518,0.06427
981.731,0.06692
975.945,0.06919
970.159,0.07020
964.373,0.07108
958.586,0.07261
952.8,0.07414
947.014,0.07558
941.228,0.07644
935.441,0.07750
929.655,0.07868
923.869,0.07870
918.083,0.07726
912.297,0.07470
906.51,0.07154
900.724,0.06886
894.938,0.06896
889.152,0.07089
883.365,0.07171
877.579,0.07118
871.793,0.07075
866.007,0.07131
860.22,0.07144
854.434,0.07348
848.648,0.07413
842.862,0.07363
837.075,0.07269
831.289,0.07007
825.503,0.06848
819.717,0.06602
813.931,0.06350
808.144,0.06365
802.358,0.06365
796.572,0.06357
790.786,0.06258
784.999,0.05992
779.213,0.05920
773.427,0.05885
767.641,0.05930
761.854,0.05886
756.068,0.05721
750.282,0.05651
744.496,0.05532
738.709,0.05429
732.923,0.05255
727.137,0.05132
721.351,0.05072
715.565,0.05043
709.778,0.04916
703.992,0.04854
698.206,0.04861
692.42,0.04756
686.633,0.04658
680.847,0.04602
675.061,0.04675
669.275,0.04557
663.488,0.04653
657.702,0.04487
651.916,0.04522
646.13,0.04479
640.343,0.04500
634.557,0.04454
628.771,0.04322
622.985,0.04433
617.198,0.04596
611.412,0.04612
605.626,0.04665
599.84,0.04667