File: 01_Data/Particleboard/FTIR/IS/Particleboard_IS_S_220927_R2.dpt
7497.03,0.71897
7491.25,0.71409
7485.46,0.71086
7479.67,0.69899
7473.89,0.70801
7468.1,0.71539
7462.32,0.70361
7456.53,0.71133
7450.74,0.70682
7444.96,0.70260
7439.17,0.70267
7433.38,0.69780
7427.6,0.69974
7421.81,0.68970
7416.03,0.68446
7410.24,0.69703
7404.45,0.69355
7398.67,0.68462
7392.88,0.68244
7387.09,0.68099
7381.31,0.68417
7375.52,0.67554
7369.74,0.67001
7363.95,0.68248
7358.16,0.67504
7352.38,0.68049
7346.59,0.67976
7340.8,0.67714
7335.02,0.66545
7329.23,0.67544
7323.45,0.66232
7317.66,0.66120
7311.87,0.66503
7306.09,0.66595
7300.3,0.66526
7294.51,0.65093
7288.73,0.65959
7282.94,0.66042
7277.16,0.65273
7271.37,0.66028
7265.58,0.66211
7259.8,0.66303
7254.01,0.65308
7248.22,0.65798
7242.44,0.65348
7236.65,0.66289
7230.87,0.67134
7225.08,0.66295
7219.29,0.65437
7213.51,0.65576
7207.72,0.65067
7201.93,0.65070
7196.15,0.64573
7190.36,0.64893
7184.58,0.64534
7178.79,0.64487
7173,0.64056
7167.22,0.63754
7161.43,0.63086
7155.65,0.62591
7149.86,0.62649
7144.07,0.63218
7138.29,0.62204
7132.5,0.62080
7126.71,0.61565
7120.93,0.61580
7115.14,0.61513
7109.36,0.60900
7103.57,0.60457
7097.78,0.60499
7092,0.59526
7086.21,0.59578
7080.42,0.59086
7074.64,0.58117
7068.85,0.57568
7063.07,0.57318
7057.28,0.56941
7051.49,0.56653
7045.71,0.55887
7039.92,0.55651
7034.13,0.55459
7028.35,0.54715
7022.56,0.53896
7016.78,0.53469
7010.99,0.53225
7005.2,0.53481
6999.42,0.53219
6993.63,0.52821
6987.84,0.51938
6982.06,0.52263
6976.27,0.52429
6970.49,0.51682
6964.7,0.51590
6958.91,0.51133
6953.13,0.51342
6947.34,0.50931
6941.55,0.50940
6935.77,0.50445
6929.98,0.50261
6924.2,0.50643
6918.41,0.49669
6912.62,0.49616
6906.84,0.49858
6901.05,0.50389
6895.26,0.50168
6889.48,0.49714
6883.69,0.49942
6877.91,0.50084
6872.12,0.49982
6866.33,0.50026
6860.55,0.49819
6854.76,0.49966
6848.97,0.49563
6843.19,0.49663
6837.4,0.49491
6831.62,0.49036
6825.83,0.49387
6820.04,0.49309
6814.26,0.48478
6808.47,0.48825
6802.68,0.49118
6796.9,0.48830
6791.11,0.49220
6785.33,0.48323
6779.54,0.48272
6773.75,0.48128
6767.97,0.48326
6762.18,0.48284
6756.39,0.48069
6750.61,0.48054
6744.82,0.47680
6739.04,0.47412
6733.25,0.47815
6727.46,0.48142
6721.68,0.47926
6715.89,0.47903
6710.1,0.48079
6704.32,0.47727
6698.53,0.48224
6692.75,0.47624
6686.96,0.47466
6681.17,0.47791
6675.39,0.48044
6669.6,0.47833
6663.82,0.48071
6658.03,0.48362
6652.24,0.48326
6646.46,0.48553
6640.67,0.48116
6634.88,0.48013
6629.1,0.48760
6623.31,0.48990
6617.53,0.48907
6611.74,0.49052
6605.95,0.48932
6600.17,0.49852
6594.38,0.49888
6588.59,0.49564
6582.81,0.49797
6577.02,0.49997
6571.24,0.50469
6565.45,0.49955
6559.66,0.50214
6553.88,0.50349
6548.09,0.51121
6542.3,0.50914
6536.52,0.50383
6530.73,0.50291
6524.95,0.50560
6519.16,0.50606
6513.37,0.50750
6507.59,0.50842
6501.8,0.51028
6496.01,0.50949
6490.23,0.51105
6484.44,0.51038
6478.66,0.51269
6472.87,0.51344
6467.08,0.51560
6461.3,0.51630
6455.51,0.51686
6449.72,0.51450
6443.94,0.51866
6438.15,0.51892
6432.37,0.52256
6426.58,0.52218
6420.79,0.52182
6415.01,0.51822
6409.22,0.52219
6403.43,0.52606
6397.65,0.52388
6391.86,0.52062
6386.08,0.52228
6380.29,0.52636
6374.5,0.52220
6368.72,0.52389
6362.93,0.52331
6357.14,0.52874
6351.36,0.52645
6345.57,0.52649
6339.79,0.52697
6334,0.52665
6328.21,0.52526
6322.43,0.52777
6316.64,0.52819
6310.85,0.52594
6305.07,0.52724
6299.28,0.52961
6293.5,0.53055
6287.71,0.53225
6281.92,0.53288
6276.14,0.53468
6270.35,0.53597
6264.56,0.53726
6258.78,0.53974
6252.99,0.54172
6247.21,0.54488
6241.42,0.54225
6235.63,0.54463
6229.85,0.54865
6224.06,0.54774
6218.27,0.54857
6212.49,0.55146
6206.7,0.55595
6200.92,0.55581
6195.13,0.55420
6189.34,0.55844
6183.56,0.56151
6177.77,0.56095
6171.98,0.56439
6166.2,0.56342
6160.41,0.56818
6154.63,0.56703
6148.84,0.57320
6143.05,0.56905
6137.27,0.56958
6131.48,0.57244
6125.7,0.57341
6119.91,0.57080
6114.12,0.57539
6108.34,0.57489
6102.55,0.57961
6096.76,0.57506
6090.98,0.57652
6085.19,0.57716
6079.41,0.57514
6073.62,0.57528
6067.83,0.57464
6062.05,0.57628
6056.26,0.57238
6050.47,0.57498
6044.69,0.57500
6038.9,0.57157
6033.12,0.57007
6027.33,0.56818
6021.54,0.56491
6015.76,0.56223
6009.97,0.56286
6004.18,0.56087
5998.4,0.55709
5992.61,0.55762
5986.83,0.55746
5981.04,0.55652
5975.25,0.55719
5969.47,0.55352
5963.68,0.55211
5957.89,0.55516
5952.11,0.55270
5946.32,0.55504
5940.54,0.55535
5934.75,0.55590
5928.96,0.55637
5923.18,0.55455
5917.39,0.55482
5911.6,0.55135
5905.82,0.54861
5900.03,0.54929
5894.25,0.54759
5888.46,0.54538
5882.67,0.54459
5876.89,0.54581
5871.1,0.54257
5865.31,0.54392
5859.53,0.54267
5853.74,0.54313
5847.96,0.54139
5842.17,0.54042
5836.38,0.53902
5830.6,0.53990
5824.81,0.53971
5819.02,0.53816
5813.24,0.53807
5807.45,0.53799
5801.67,0.53725
5795.88,0.53659
5790.09,0.53939
5784.31,0.53797
5778.52,0.54069
5772.73,0.54181
5766.95,0.54073
5761.16,0.54241
5755.38,0.54063
5749.59,0.54150
5743.8,0.54269
5738.02,0.54328
5732.23,0.54226
5726.44,0.54196
5720.66,0.54143
5714.87,0.54258
5709.09,0.54087
5703.3,0.54214
5697.51,0.54277
5691.73,0.54196
5685.94,0.54221
5680.15,0.54127
5674.37,0.54229
5668.58,0.54106
5662.8,0.54082
5657.01,0.54092
5651.22,0.54226
5645.44,0.54132
5639.65,0.53970
5633.87,0.54070
5628.08,0.54218
5622.29,0.54017
5616.51,0.54155
5610.72,0.54146
5604.93,0.54173
5599.15,0.54138
5593.36,0.54095
5587.58,0.54223
5581.79,0.54175
5576,0.54261
5570.22,0.54294
5564.43,0.54558
5558.64,0.54634
5552.86,0.54625
5547.07,0.54688
5541.29,0.54655
5535.5,0.54693
5529.71,0.54901
5523.93,0.54827
5518.14,0.54887
5512.35,0.54937
5506.57,0.55011
5500.78,0.55136
5495,0.54946
5489.21,0.54986
5483.42,0.55077
5477.64,0.55044
5471.85,0.55150
5466.06,0.55259
5460.28,0.55278
5454.49,0.55334
5448.71,0.55628
5442.92,0.55653
5437.13,0.55738
5431.35,0.55576
5425.56,0.55840
5419.77,0.56184
5413.99,0.56426
5408.2,0.56233
5402.42,0.56347
5396.63,0.56332
5390.84,0.56371
5385.06,0.56517
5379.27,0.56398
5373.48,0.56318
5367.7,0.56383
5361.91,0.56339
5356.13,0.56351
5350.34,0.56182
5344.55,0.56100
5338.77,0.55984
5332.98,0.55682
5327.19,0.55346
5321.41,0.54875
5315.62,0.54577
5309.84,0.54100
5304.05,0.53382
5298.26,0.52956
5292.48,0.52237
5286.69,0.51387
5280.9,0.50239
5275.12,0.49149
5269.33,0.48003
5263.55,0.46956
5257.76,0.45925
5251.97,0.44757
5246.19,0.43805
5240.4,0.43027
5234.61,0.42308
5228.83,0.41549
5223.04,0.40806
5217.26,0.40526
5211.47,0.40024
5205.68,0.39778
5199.9,0.39651
5194.11,0.39502
5188.32,0.39391
5182.54,0.39351
5176.75,0.39282
5170.97,0.39306
5165.18,0.39272
5159.39,0.39203
5153.61,0.39417
5147.82,0.39638
5142.03,0.39810
5136.25,0.39816
5130.46,0.40129
5124.68,0.40115
5118.89,0.40054
5113.1,0.40181
5107.32,0.40136
5101.53,0.40128
5095.75,0.39730
5089.96,0.39584
5084.17,0.39642
5078.39,0.39358
5072.6,0.39442
5066.81,0.39534
5061.03,0.39651
5055.24,0.39693
5049.46,0.39940
5043.67,0.40120
5037.88,0.40364
5032.1,0.40557
5026.31,0.40844
5020.52,0.40994
5014.74,0.41252
5008.95,0.41424
5003.17,0.41515
4997.38,0.41605
4991.59,0.41782
4985.81,0.41862
4980.02,0.41845
4974.23,0.41649
4968.45,0.41541
4962.66,0.41295
4956.88,0.41110
4951.09,0.40741
4945.3,0.40441
4939.52,0.40038
4933.73,0.39832
4927.94,0.39451
4922.16,0.39105
4916.37,0.38877
4910.59,0.38488
4904.8,0.38236
4899.01,0.38030
4893.23,0.37757
4887.44,0.37329
4881.65,0.36999
4875.87,0.36804
4870.08,0.36538
4864.3,0.36313
4858.51,0.36152
4852.72,0.35767
4846.94,0.35708
4841.15,0.35420
4835.36,0.35153
4829.58,0.34977
4823.79,0.34750
4818.01,0.34575
4812.22,0.34549
4806.43,0.34446
4800.65,0.34342
4794.86,0.34181
4789.07,0.34067
4783.29,0.34122
4777.5,0.34035
4771.72,0.33909
4765.93,0.33901
4760.14,0.33843
4754.36,0.33840
4748.57,0.33811
4742.78,0.33851
4737,0.33795
4731.21,0.33842
4725.43,0.34014
4719.64,0.33858
4713.85,0.33954
4708.07,0.34126
4702.28,0.34081
4696.49,0.34047
4690.71,0.34081
4684.92,0.34185
4679.14,0.34165
4673.35,0.34367
4667.56,0.34286
4661.78,0.34416
4655.99,0.34488
4650.2,0.34695
4644.42,0.34724
4638.63,0.34876
4632.85,0.34867
4627.06,0.35108
4621.27,0.35150
4615.49,0.35311
4609.7,0.35530
4603.92,0.35624
4598.13,0.35693
4592.34,0.35846
4586.56,0.36049
4580.77,0.36090
4574.98,0.36083
4569.2,0.36217
4563.41,0.36121
4557.63,0.36303
4551.84,0.36224
4546.05,0.36324
4540.27,0.36434
4534.48,0.36477
4528.69,0.36491
4522.91,0.36616
4517.12,0.36810
4511.34,0.36752
4505.55,0.36678
4499.76,0.36691
4493.98,0.36565
4488.19,0.36417
4482.4,0.36144
4476.62,0.35870
4470.83,0.35433
4465.05,0.35056
4459.26,0.34522
4453.47,0.33927
4447.69,0.33462
4441.9,0.32879
4436.11,0.32415
4430.33,0.32002
4424.54,0.31524
4418.76,0.31045
4412.97,0.30642
4407.18,0.30344
4401.4,0.30152
4395.61,0.30136
4389.82,0.30260
4384.04,0.30312
4378.25,0.30577
4372.47,0.30814
4366.68,0.31060
4360.89,0.31053
4355.11,0.31261
4349.32,0.31240
4343.53,0.31052
4337.75,0.31023
4331.96,0.30848
4326.18,0.30717
4320.39,0.30563
4314.6,0.30535
4308.82,0.30377
4303.03,0.30181
4297.24,0.30146
4291.46,0.30039
4285.67,0.29931
4279.89,0.29822
4274.1,0.29889
4268.31,0.30022
4262.53,0.30228
4256.74,0.30223
4250.95,0.30314
4245.17,0.30484
4239.38,0.30595
4233.6,0.30665
4227.81,0.30651
4222.02,0.30626
4216.24,0.30561
4210.45,0.30554
4204.66,0.30521
4198.88,0.30633
4193.09,0.30674
4187.31,0.30623
4181.52,0.30693
4175.73,0.30768
4169.95,0.30823
4164.16,0.30856
4158.37,0.30745
4152.59,0.30677
4146.8,0.30503
4141.02,0.30341
4135.23,0.30114
4129.44,0.29844
4123.66,0.29537
4117.87,0.29227
4112.09,0.28836
4106.3,0.28462
4100.51,0.28037
4094.73,0.27666
4088.94,0.27213
4083.15,0.26783
4077.37,0.26432
4071.58,0.25909
4065.8,0.25502
4060.01,0.25135
4054.22,0.24730
4048.44,0.24452
4042.65,0.24076
4036.86,0.23751
4031.08,0.23453
4025.29,0.23307
4019.51,0.23152
4013.72,0.23061
4007.93,0.23053
4002.15,0.23072
3996.36,0.23190
3990.57,0.23203
3984.79,0.23314
3979,0.23444
3973.22,0.23556
3967.43,0.23693
3961.64,0.23758
3955.86,0.23945
3950.07,0.24244
3944.28,0.24433
3938.5,0.24603
3932.71,0.24757
3926.93,0.24930
3921.14,0.25114
3915.35,0.25324
3909.57,0.25555
3903.78,0.25681
3897.99,0.25805
3892.21,0.26015
3886.42,0.26124
3880.64,0.26331
3874.85,0.26490
3869.06,0.26751
3863.28,0.26962
3857.49,0.27221
3851.7,0.27455
3845.92,0.27630
3840.13,0.27820
3834.35,0.27958
3828.56,0.28085
3822.77,0.28179
3816.99,0.28075
3811.2,0.28133
3805.41,0.28111
3799.63,0.28203
3793.84,0.28147
3788.06,0.28075
3782.27,0.28041
3776.48,0.27936
3770.7,0.27901
3764.91,0.27819
3759.12,0.27628
3753.34,0.27435
3747.55,0.27297
3741.77,0.26955
3735.98,0.26697
3730.19,0.26249
3724.41,0.25893
3718.62,0.25433
3712.83,0.24978
3707.05,0.24322
3701.26,0.23542
3695.48,0.22687
3689.69,0.21635
3683.9,0.20405
3678.12,0.19184
3672.33,0.17709
3666.54,0.16262
3660.76,0.14990
3654.97,0.13734
3649.19,0.12701
3643.4,0.11716
3637.61,0.10967
3631.83,0.10153
3626.04,0.09512
3620.25,0.08970
3614.47,0.08437
3608.68,0.07974
3602.9,0.07519
3597.11,0.07113
3591.32,0.06814
3585.54,0.06451
3579.75,0.06120
3573.97,0.05905
3568.18,0.05743
3562.39,0.05483
3556.61,0.05223
3550.82,0.05137
3545.03,0.04996
3539.25,0.04780
3533.46,0.04674
3527.68,0.04615
3521.89,0.04543
3516.1,0.04398
3510.32,0.04280
3504.53,0.04187
3498.74,0.04073
3492.96,0.03987
3487.17,0.03902
3481.39,0.03873
3475.6,0.03926
3469.81,0.03851
3464.03,0.03782
3458.24,0.03743
3452.45,0.03721
3446.67,0.03733
3440.88,0.03655
3435.1,0.03679
3429.31,0.03686
3423.52,0.03681
3417.74,0.03722
3411.95,0.03694
3406.16,0.03637
3400.38,0.03747
3394.59,0.03705
3388.81,0.03742
3383.02,0.03726
3377.23,0.03754
3371.45,0.03799
3365.66,0.03770
3359.87,0.03788
3354.09,0.03865
3348.3,0.03876
3342.52,0.03937
3336.73,0.04016
3330.94,0.04033
3325.16,0.04114
3319.37,0.04172
3313.58,0.04200
3307.8,0.04235
3302.01,0.04280
3296.23,0.04282
3290.44,0.04336
3284.65,0.04398
3278.87,0.04444
3273.08,0.04474
3267.29,0.04589
3261.51,0.04564
3255.72,0.04719
3249.94,0.04682
3244.15,0.04793
3238.36,0.04829
3232.58,0.04830
3226.79,0.04958
3221,0.05018
3215.22,0.05131
3209.43,0.05162
3203.65,0.05223
3197.86,0.05293
3192.07,0.05370
3186.29,0.05467
3180.5,0.05598
3174.71,0.05669
3168.93,0.05783
3163.14,0.05801
3157.36,0.05922
3151.57,0.06003
3145.78,0.06062
3140,0.06223
3134.21,0.06296
3128.42,0.06392
3122.64,0.06448
3116.85,0.06561
3111.07,0.06645
3105.28,0.06755
3099.49,0.06869
3093.71,0.06921
3087.92,0.06955
3082.14,0.07056
3076.35,0.07137
3070.56,0.07137
3064.78,0.07308
3058.99,0.07400
3053.2,0.07468
3047.42,0.07598
3041.63,0.07719
3035.85,0.07695
3030.06,0.07713
3024.27,0.07786
3018.49,0.07818
3012.7,0.07695
3006.91,0.07609
3001.13,0.07507
2995.34,0.07465
2989.56,0.07280
2983.77,0.07024
2977.98,0.06698
2972.2,0.06314
2966.41,0.06080
2960.62,0.05879
2954.84,0.05777
2949.05,0.05632
2943.27,0.05462
2937.48,0.05402
2931.69,0.05446
2925.91,0.05365
2920.12,0.05414
2914.33,0.05477
2908.55,0.05495
2902.76,0.05606
2896.98,0.05663
2891.19,0.05784
2885.4,0.05815
2879.62,0.05868
2873.83,0.05921
2868.04,0.05992
2862.26,0.06122
2856.47,0.06308
2850.69,0.06373
2844.9,0.06712
2839.11,0.07142
2833.33,0.07490
2827.54,0.07849
2821.75,0.08196
2815.97,0.08506
2810.18,0.08761
2804.4,0.08946
2798.61,0.09145
2792.82,0.09312
2787.04,0.09432
2781.25,0.09535
2775.46,0.09640
2769.68,0.09698
2763.89,0.09810
2758.11,0.09894
2752.32,0.09960
2746.53,0.09981
2740.75,0.09977
2734.96,0.10070
2729.17,0.10187
2723.39,0.10228
2717.6,0.10353
2711.82,0.10495
2706.03,0.10649
2700.24,0.10795
2694.46,0.10877
2688.67,0.11040
2682.88,0.11137
2677.1,0.11264
2671.31,0.11399
2665.53,0.11534
2659.74,0.11598
2653.95,0.11688
2648.17,0.11812
2642.38,0.11931
2636.59,0.12038
2630.81,0.12193
2625.02,0.12295
2619.24,0.12347
2613.45,0.12482
2607.66,0.12573
2601.88,0.12641
2596.09,0.12809
2590.3,0.12890
2584.52,0.12981
2578.73,0.13039
2572.95,0.13134
2567.16,0.13154
2561.37,0.13195
2555.59,0.13203
2549.8,0.13239
2544.02,0.13309
2538.23,0.13358
2532.44,0.13435
2526.66,0.13529
2520.87,0.13641
2515.08,0.13727
2509.3,0.13841
2503.51,0.14046
2497.73,0.14200
2491.94,0.14337
2486.15,0.14521
2480.37,0.14662
2474.58,0.14798
2468.79,0.14915
2463.01,0.15086
2457.22,0.15196
2451.44,0.15331
2445.65,0.15500
2439.86,0.15669
2434.08,0.15873
2428.29,0.16044
2422.5,0.16273
2416.72,0.16489
2410.93,0.16711
2405.15,0.16881
2399.36,0.17084
2393.57,0.17282
2387.79,0.17486
2382,0.17653
2376.21,0.17822
2370.43,0.17973
2364.64,0.18108
2358.86,0.18213
2353.07,0.18293
2347.28,0.18432
2341.5,0.18487
2335.71,0.18564
2329.92,0.18648
2324.14,0.18605
2318.35,0.18638
2312.57,0.18624
2306.78,0.18630
2300.99,0.18579
2295.21,0.18545
2289.42,0.18448
2283.63,0.18425
2277.85,0.18353
2272.06,0.18256
2266.28,0.18109
2260.49,0.17988
2254.7,0.17905
2248.92,0.17800
2243.13,0.17751
2237.34,0.17664
2231.56,0.17588
2225.77,0.17550
2219.99,0.17466
2214.2,0.17404
2208.41,0.17362
2202.63,0.17209
2196.84,0.17095
2191.05,0.16917
2185.27,0.16738
2179.48,0.16555
2173.7,0.16366
2167.91,0.16217
2162.12,0.16102
2156.34,0.16021
2150.55,0.15945
2144.76,0.15879
2138.98,0.15832
2133.19,0.15828
2127.41,0.15886
2121.62,0.15905
2115.83,0.15964
2110.05,0.16092
2104.26,0.16113
2098.47,0.16151
2092.69,0.16186
2086.9,0.16160
2081.12,0.16141
2075.33,0.16033
2069.54,0.15971
2063.76,0.15895
2057.97,0.15836
2052.19,0.15860
2046.4,0.15899
2040.61,0.16002
2034.83,0.16093
2029.04,0.16270
2023.25,0.16447
2017.47,0.16622
2011.68,0.16800
2005.9,0.16853
2000.11,0.16949
1994.32,0.17062
1988.54,0.17179
1982.75,0.17292
1976.96,0.17374
1971.18,0.17444
1965.39,0.17504
1959.61,0.17635
1953.82,0.17773
1948.03,0.17893
1942.25,0.18025
1936.46,0.18122
1930.67,0.18158
1924.89,0.18222
1919.1,0.18192
1913.32,0.18135
1907.53,0.18098
1901.74,0.17995
1895.96,0.17904
1890.17,0.17847
1884.38,0.17798
1878.6,0.17735
1872.81,0.17636
1867.03,0.17552
1861.24,0.17405
1855.45,0.17271
1849.67,0.17099
1843.88,0.16902
1838.09,0.16650
1832.31,0.16393
1826.52,0.16081
1820.74,0.15686
1814.95,0.15263
1809.16,0.14802
1803.38,0.14235
1797.59,0.13650
1791.8,0.12938
1786.02,0.12163
1780.23,0.11330
1774.45,0.10438
1768.66,0.09299
1762.87,0.08163
1757.09,0.07040
1751.3,0.06164
1745.51,0.05595
1739.73,0.05316
1733.94,0.05179
1728.16,0.05160
1722.37,0.05185
1716.58,0.05260
1710.8,0.05247
1705.01,0.05166
1699.22,0.04850
1693.44,0.04634
1687.65,0.04400
1681.87,0.04066
1676.08,0.03936
1670.29,0.03857
1664.51,0.03902
1658.72,0.04033
1652.93,0.04230
1647.15,0.04335
1641.36,0.04434
1635.58,0.04487
1629.79,0.04486
1624,0.04510
1618.22,0.04488
1612.43,0.04462
1606.64,0.04441
1600.86,0.04515
1595.07,0.04572
1589.29,0.04694
1583.5,0.04819
1577.71,0.05023
1571.93,0.05134
1566.14,0.05188
1560.35,0.05223
1554.57,0.05165
1548.78,0.05148
1543,0.05196
1537.21,0.05197
1531.42,0.05169
1525.64,0.04985
1519.85,0.04611
1514.07,0.04408
1508.28,0.04483
1502.49,0.04750
1496.71,0.05048
1490.92,0.05175
1485.13,0.05066
1479.35,0.04900
1473.56,0.04635
1467.78,0.04352
1461.99,0.04345
1456.2,0.04373
1450.42,0.04397
1444.63,0.04417
1438.84,0.04377
1433.06,0.04269
1427.27,0.04234
1421.49,0.04333
1415.7,0.04494
1409.91,0.04533
1404.13,0.04542
1398.34,0.04461
1392.55,0.04308
1386.77,0.04191
1380.98,0.04092
1375.2,0.04054
1369.41,0.04143
1363.62,0.04205
1357.84,0.04241
1352.05,0.04252
1346.26,0.04258
1340.48,0.04200
1334.69,0.04184
1328.91,0.04175
1323.12,0.04189
1317.33,0.04137
1311.55,0.04202
1305.76,0.04203
1299.97,0.04190
1294.19,0.04113
1288.4,0.03991
1282.62,0.03865
1276.83,0.03816
1271.04,0.03807
1265.26,0.03875
1259.47,0.03996
1253.68,0.04072
1247.9,0.04107
1242.11,0.04126
1236.33,0.04138
1230.54,0.04153
1224.75,0.04204
1218.97,0.04237
1213.18,0.04243
1207.39,0.04221
1201.61,0.04192
1195.82,0.04190
1190.04,0.04092
1184.25,0.03889
1178.46,0.03618
1172.68,0.03425
1166.89,0.03503
1161.1,0.03709
1155.32,0.03776
1149.53,0.03665
1143.75,0.03644
1137.96,0.03565
1132.17,0.03493
1126.39,0.03494
1120.6,0.03515
1114.81,0.03553
1109.03,0.03697
1103.24,0.03780
1097.46,0.03745
1091.67,0.03756
1085.88,0.03737
1080.1,0.03854
1074.31,0.04027
1068.52,0.04363
1062.74,0.04739
1056.95,0.05193
1051.17,0.05181
1045.38,0.05152
1039.59,0.05263
1033.81,0.05641
1028.02,0.05802
1022.24,0.05879
1016.45,0.05989
1010.66,0.06068
1004.88,0.06131
999.09,0.06159
993.304,0.06284
987.518,0.06410
981.731,0.06785
975.945,0.06888
970.159,0.07019
964.373,0.07124
958.586,0.07261
952.8,0.07432
947.014,0.07553
941.228,0.07632
935.441,0.07715
929.655,0.07844
923.869,0.07810
918.083,0.07670
912.297,0.07414
906.51,0.07076
900.724,0.06772
894.938,0.06848
889.152,0.07000
883.365,0.07087
877.579,0.07156
871.793,0.07161
866.007,0.07149
860.22,0.07188
854.434,0.07189
848.648,0.07333
842.862,0.07274
837.075,0.07130
831.289,0.06903
825.503,0.06750
819.717,0.06550
813.931,0.06294
808.144,0.06213
802.358,0.06308
796.572,0.06302
790.786,0.06125
784.999,0.05980
779.213,0.05880
773.427,0.05854
767.641,0.05833
761.854,0.05756
756.068,0.05686
750.282,0.05623
744.496,0.05444
738.709,0.05410
732.923,0.05201
727.137,0.05083
721.351,0.04990
715.565,0.04902
709.778,0.04870
703.992,0.04851
698.206,0.04795
692.42,0.04717
686.633,0.04669
680.847,0.04674
675.061,0.04528
669.275,0.04511
663.488,0.04553
657.702,0.04604
651.916,0.04534
646.13,0.04496
640.343,0.04425
634.557,0.04360
628.771,0.04569
622.985,0.04513
617.198,0.04510
611.412,0.04598
605.626,0.04633
599.84,0.04621