File: 01_Data/Overstuffed_Sofa/Furniture_Calorimeter/Overstuffed_Sofa_R2.csv
Time (s),Convective HRR,TCPlume1,TCPlume2,TCPlume3,DPPlume1,DPPlume2,DPPlume3,HF1,HF2,HF3,HF4,HF5,HF6,RAD2,RAD1,Load Cell,Heat Release Rate,Total Heat Released
-330,0.0,-6.04687,-5.68513,12.9137,0.0790141,0.013361,-0.0246855,-0.42809,-0.323311,0.697621,-0.0630909,0.0800203,-0.0918379,0.281084,2.88169,48,0.0,0.0
-324,0.0,-6.3706,-5.61837,12.7882,-0.0273261,0.0741226,-0.0246855,1.17664,-0.323311,-0.930988,-0.925334,0.454973,0.0495839,0.447131,2.88169,47.7923,0.0,0.0
-318,0.0,-6.42095,-5.70767,12.739,-0.0273261,0.0589322,-0.0398766,-0.42809,-0.323311,-0.930988,-0.0630909,0.454973,0.0495839,0.613177,1.92317,47.8131,0.0,0.0
-312,0.0,-6.51603,-5.76359,12.8752,0.0562269,0.0209562,0.0208878,-0.42809,-1.22201,-0.930988,1.66139,0.0800203,0.0495839,0.447131,1.92317,48.1869,3.62974,0.0
-306,0.0,-6.63893,-5.73021,12.8697,-0.110879,-0.0322101,-0.108237,-0.42809,-0.323311,-0.116684,-1.78758,-0.669884,0.0495839,0.613177,2.88169,48.0207,0.0,0.0
-300,0.0,-6.34324,-5.74711,12.7768,-0.0804961,0.0589322,-0.00189889,-1.23045,0.575384,-0.116684,-0.925334,-0.669884,0.0495839,0.447131,2.88169,47.9792,0.75833,0.0
-294,0.0,-6.31546,-5.52431,13.0711,-0.0121346,-0.00182933,-0.0550677,-0.42809,0.575384,-0.116684,-0.0630909,-1.04484,0.0495839,0.613177,2.88169,48,0.0,0.0
-288,0.0,-6.28768,-5.61359,12.7929,-0.0273261,0.0361466,0.0360788,-0.42809,-0.323311,-0.116684,-0.925334,-0.669884,-0.0918379,0.115037,2.88169,47.9584,3.9103,0.0
-282,0.0,-6.34366,-5.59148,12.7,0.00305682,0.013361,0.0132922,0.374273,1.47408,-0.116684,-0.0630909,0.0800203,0.0495839,0.281084,2.88169,48,0.0,0.0
-276,0.0,-5.91412,-5.86461,12.7,0.0334397,0.119694,-0.0474722,-0.42809,-0.323311,1.51192,-0.0630909,0.454973,0.0495839,0.281084,2.88169,48.1453,0.0,0.0
-270,0.0,-5.65223,-5.83685,12.7654,0.177758,0.210836,-0.00949443,-2.03282,-0.323311,1.51192,-0.925334,-0.294932,0.0495839,0.447131,0.964651,48,0.0,0.0
-264,0.0,-5.86988,-5.8594,12.9342,0.0638226,0.0817178,0.0132922,0.374273,0.575384,0.697621,-0.0630909,-0.294932,0.332427,0.447131,2.88169,47.9584,0.0,0.0
-258,0.0,-5.51874,-5.74232,13.0105,0.0866098,0.15767,-0.00189889,0.374273,-1.22201,-0.116684,0.799152,-0.294932,0.0495839,0.779224,2.88169,47.9792,0.0,0.0
-252,0.0,-5.58027,-5.72584,12.9885,0.0182483,0.013361,-0.0246855,0.374273,-0.323311,-0.116684,-0.0630909,0.0800203,0.0495839,0.613177,2.88169,48.1453,0.0,0.0
-246,0.0,-5.86466,-5.62006,12.9393,-0.0121346,0.0285514,0.0284833,0.374273,-0.323311,0.697621,-0.0630909,0.0800203,0.0495839,0.613177,2.88169,47.9584,0.0,0.0
-240,0.0,-5.90369,-5.46405,12.7866,-0.0273261,0.013361,-0.0626633,0.374273,-0.323311,-0.116684,-0.0630909,-0.294932,-0.0918379,0.613177,2.88169,47.9792,0.0,0.0
-234,0.0,-7.04818,-5.28035,12.7756,-0.00453891,0.00576586,-0.0246855,0.374273,-0.323311,1.51192,-0.0630909,-0.294932,-0.0918379,0.613177,3.8402,48.1661,0.0,0.0
-228,0.0,-5.85945,-5.69288,12.2572,0.0106525,-0.0853764,0.0284833,-0.42809,0.575384,0.697621,-0.925334,-0.294932,0.191006,0.447131,1.92317,48.0207,0.0,0.0
-222,0.0,-6.32801,-5.84897,12.6008,-0.0273261,0.0361466,-0.00189889,1.17664,-0.323311,-0.930988,-0.925334,0.0800203,0.0495839,0.447131,1.92317,48.1661,0.0,0.0
-216,0.0,-7.0486,-5.7488,13.1187,-0.0197304,-0.00942452,-0.0778543,0.374273,-1.22201,-0.116684,0.799152,-0.669884,0.0495839,0.613177,2.88169,47.9584,0.0,0.0
-210,0.0,-5.80394,-6.02767,12.8078,0.0866098,0.0285514,0.127225,1.17664,-0.323311,-0.116684,-0.0630909,0.0800203,-0.0918379,0.281084,2.88169,48,0.0,0.0
-204,0.0,-6.12751,-5.96086,12.7205,-0.0425175,0.104503,-0.00949443,-0.42809,-0.323311,-0.930988,0.799152,0.0800203,-0.0918379,0.281084,2.88169,48,0.0,0.0
-198,0.0,-6.1722,-6.12267,12.3332,-0.0501132,0.0209562,0.0360788,0.374273,-1.22201,0.697621,-0.925334,-0.294932,-0.23326,0.613177,1.92317,48.1453,0.0,0.0
-192,0.0,-6.1223,-6.22898,12.3438,-0.0501132,-0.100567,-0.0398766,-0.42809,0.575384,-0.930988,-0.925334,-0.669884,-0.0918379,0.447131,1.92317,47.9584,0.0,0.0
-186,0.0,-6.99339,-6.35745,12.5618,0.0334397,-0.0246149,0.066461,0.374273,1.47408,2.32623,-0.0630909,0.0800203,-0.0918379,0.613177,1.92317,47.9792,0.0,0.0
-180,0.0,-6.71966,-6.35745,12.6764,0.0790141,-0.0929716,-0.00949443,1.979,-1.22201,-0.116684,0.799152,0.0800203,0.191006,0.281084,1.92317,47.9792,0.0,0.0
-174,0.0,-7.59739,-6.17907,12.8507,-0.110879,-0.0853764,-0.01709,-0.42809,0.575384,-0.116684,-0.925334,-0.294932,0.0495839,0.281084,0.964651,48.1453,0.0,0.0
-168,0.0,-6.97687,-6.30189,12.6543,-0.00453891,0.0285514,0.0132922,-1.23045,-1.22201,0.697621,-1.78758,0.0800203,-0.23326,0.779224,0.00613451,48,0.0,0.0
-162,0.0,-6.59717,-5.96171,12.6815,0.00305682,0.00576586,-0.0854499,0.374273,-0.323311,-0.116684,-0.0630909,-0.669884,-0.0918379,0.447131,1.92317,48.1661,0.0,0.0
-156,0.0,-6.49122,-6.01202,12.4796,0.124588,0.051337,-0.0246855,1.17664,-0.323311,-0.116684,0.799152,-0.669884,-0.0918379,0.281084,0.964651,48,0.0,0.0
-150,0.0,-6.15092,-5.63303,12.4685,0.0410354,0.013361,-0.108237,1.979,-2.1207,0.697621,-0.925334,-0.294932,0.0495839,0.779224,0.964651,48,0.0,0.0
-144,0.0,-6.66449,-5.87279,12.1958,0.00305682,-0.100567,-0.0778543,-0.42809,-0.323311,-0.116684,-0.0630909,0.0800203,0.0495839,0.613177,2.88169,48,0.0,0.0
-138,0.0,-6.83781,-5.92873,12.4847,-0.0501132,-0.100567,-0.0626633,0.374273,0.575384,-0.116684,-0.0630909,0.0800203,-0.0918379,0.447131,0.00613451,47.9584,0.0,0.0
-132,0.0,-6.96643,-5.94001,12.8172,-0.0121346,0.013361,0.0208878,-0.42809,-0.323311,2.32623,-0.0630909,0.454973,-0.0918379,0.613177,1.92317,47.9377,0.0,0.0
-126,0.0,-6.0008,-6.02936,12.7299,0.0334397,0.112099,0.11963,0.374273,0.575384,0.697621,-0.925334,0.454973,0.191006,0.281084,1.92317,48.1661,0.0,0.0
-120,0.0,-6.12922,-5.96256,12.528,0.0182483,0.00576586,0.0436744,0.374273,0.575384,-0.116684,-0.0630909,-0.294932,0.191006,0.447131,1.92317,47.9792,0.0,0.0
-114,0.0,-6.36921,-5.65599,12.5606,0.0182483,-0.0246149,0.00569666,1.17664,-0.323311,0.697621,-0.0630909,0.0800203,-0.23326,0.281084,1.92317,48.0207,0.0,0.0
-108,0.0,-6.10145,-5.93479,12.1351,0.0182483,-0.070186,-0.0550677,0.374273,0.575384,-1.74529,-0.925334,0.454973,0.0495839,0.613177,2.88169,47.7923,0.0,0.0
-102,0.0,-6.31364,-6.06883,12.2713,-0.0349218,-0.0474005,0.0360788,0.374273,-0.323311,-0.930988,0.799152,0.0800203,0.0495839,0.115037,0.964651,47.9792,0.0,0.0
-96,0.0,-7.25767,-5.84025,12.8385,-0.0197304,-0.0549957,-0.0246855,-0.42809,-1.22201,0.697621,-0.0630909,-0.294932,-0.0918379,0.447131,1.92317,48,0.0,0.0
-90,0.0,-6.13528,-6.16385,12.4457,-0.0425175,-0.0398053,0.0208878,1.17664,-0.323311,-0.116684,-0.0630909,0.0800203,0.0495839,0.613177,2.88169,47.9584,0.0,0.0
-84,0.0,-6.11315,-6.10267,12.4673,0.0182483,-0.0322101,-0.0398766,-2.03282,0.575384,0.697621,-0.0630909,-0.669884,0.0495839,0.613177,1.92317,47.9377,0.0,0.0
-78,0.0,-6.3475,-5.9465,12.4292,-0.0501132,-0.0398053,-0.01709,1.17664,-0.323311,-0.116684,0.799152,0.0800203,-0.0918379,0.281084,2.88169,48,0.0,0.0
-72,0.0,-5.76747,-5.99117,12.2327,-0.00453891,-0.00942452,0.0512699,-2.03282,0.575384,-0.930988,-1.78758,0.454973,-0.374681,0.779224,2.88169,48,0.0,0.0
-66,0.0,-6.52636,-6.20333,12.0253,-0.0880919,0.013361,0.0436744,-0.42809,1.47408,-0.930988,-0.0630909,-0.294932,-0.0918379,0.613177,3.8402,48,0.0,0.0
-60,0.0,-6.66619,-6.38215,12.4232,-0.0121346,-0.0474005,0.00569666,1.17664,-0.323311,-0.116684,0.799152,0.0800203,0.0495839,0.447131,0.00613451,48.3322,0.0,0.0
-54,0.0,-6.58802,-6.4603,12.4232,0.00305682,-0.0322101,0.0816521,-0.42809,-0.323311,-0.116684,-0.0630909,0.0800203,0.0495839,0.447131,2.88169,47.9792,0.0,0.0
-48,0.0,-6.76132,-6.51631,12.4449,0.0714183,0.0969081,-0.0246855,-1.23045,-0.323311,-0.116684,-0.0630909,0.0800203,0.191006,0.447131,1.92317,48.0207,0.0,0.0
-42,0.0,-6.23116,-6.2988,12.6574,0.0410354,0.00576586,-0.0550677,0.374273,0.575384,-0.116684,-0.925334,0.0800203,0.0495839,0.447131,2.88169,47.8131,0.0,0.0
-36,0.0,-6.34835,-6.22068,12.3902,-0.0956876,0.0285514,0.0132922,0.374273,-0.323311,0.697621,-0.0630909,0.0800203,0.0495839,0.447131,2.88169,47.8338,0.0,0.0
-30,0.0,-6.44342,-6.27666,12.3354,-0.00453891,-0.0398053,0.0132922,0.374273,-0.323311,0.697621,-1.78758,0.0800203,0.332427,0.613177,2.88169,48,0.0,0.0
-24,0.0,-6.65011,-6.13172,12.2862,0.025844,0.0437418,0.0968432,-0.42809,1.47408,-0.116684,-0.925334,0.454973,0.0495839,0.613177,1.92317,48,0.0,0.0
-18,0.0,-6.50507,-6.41643,12.237,-0.057709,0.0209562,-0.0322811,-1.23045,0.575384,-0.930988,-0.925334,0.0800203,-0.0918379,0.613177,0.964651,47.9377,0.0,0.0
-12,0.0,-5.9639,-6.30487,12.1551,-0.0729004,-0.0625908,-0.0246855,0.374273,0.575384,-0.116684,-1.78758,-0.294932,0.191006,0.613177,2.88169,47.8338,0.0,0.0
-6,0.0,-6.84038,-6.55624,11.9858,-0.0729004,-0.0549957,0.0892477,0.374273,1.47408,-0.116684,0.799152,0.0800203,0.0495839,0.613177,1.92317,47.8131,0.0,0.0
0,0.0,-6.84603,-6.5228,12.2858,-0.0501132,-0.00182933,-0.0854499,0.374273,-0.323311,-0.116684,-0.0630909,0.454973,-0.23326,0.613177,2.88169,48.0207,0.0,0.0
6,0.0,-7.49466,-6.31094,12.531,-0.0121346,-0.0777812,0.0208878,-0.42809,-1.22201,-0.930988,0.799152,0.829925,0.0495839,0.447131,1.92317,48,0.0,0.0
12,0.0,-7.61212,-6.54538,12.5692,-0.0729004,-0.0853764,0.0740566,0.374273,-1.22201,-0.116684,-0.0630909,-0.294932,0.0495839,0.281084,2.88169,48.0415,0.0,0.0
18,0.0,-6.87426,-6.6292,12.411,0.0334397,-0.0322101,0.0360788,0.374273,0.575384,-0.116684,-0.925334,0.0800203,-0.0918379,0.613177,1.92317,47.8131,0.0,0.0
24,0.0,-7.3159,-6.67958,12.3236,-0.0197304,0.0361466,-0.0854499,-0.42809,-0.323311,-0.930988,-0.925334,0.0800203,0.0495839,0.613177,1.92317,48,0.0,0.0
30,0.0,-6.46685,-6.49544,12.3508,-0.0349218,0.0209562,-0.0246855,0.374273,0.575384,-0.116684,0.799152,0.454973,-0.0918379,0.447131,3.8402,47.9792,0.0,0.0
36,0.0,-6.67356,-6.54581,12.3779,0.0486312,0.0665274,-0.0626633,0.374273,0.575384,-0.116684,0.799152,0.0800203,-0.374681,0.613177,0.964651,47.9584,0.0,0.0
42,0.0,-6.3835,-6.56839,12.4322,0.0790141,0.0437418,-0.00189889,1.17664,0.575384,-0.116684,-0.0630909,0.454973,0.0495839,0.447131,3.8402,47.9792,0.0,0.0
48,0.0,-6.46164,-6.45115,12.4322,-0.0729004,0.0285514,0.0588655,0.374273,-0.323311,0.697621,0.799152,0.454973,-0.0918379,0.447131,0.964651,47.8131,0.0,0.0
54,0.0,-6.38914,-6.61312,12.5794,-0.0121346,0.0437418,-0.0474722,0.374273,-0.323311,-0.930988,-0.0630909,0.454973,0.0495839,0.613177,2.88169,47.8131,0.0,0.0
60,0.0,-6.55673,-6.3118,12.492,0.162567,-0.0170197,0.0740566,1.17664,0.575384,-0.116684,0.799152,0.0800203,0.0495839,0.613177,2.88169,48,0.0,0.0
66,0.0,-6.76347,-6.32308,12.4428,0.109397,0.750094,0.066461,0.374273,0.575384,0.697621,-0.925334,0.0800203,0.0495839,0.447131,2.88169,47.9792,0.0,0.0
72,0.0,-5.80386,-5.75435,12.5027,0.732246,0.127289,0.0132922,0.374273,-1.22201,0.697621,-0.0630909,-0.294932,0.0495839,0.447131,0.964651,47.8961,18.8227,0.0638424
78,0.0,-5.57541,-5.64293,12.4971,0.253716,0.0893129,0.0436744,0.374273,1.47408,1.51192,-0.0630909,0.0800203,0.332427,0.613177,3.8402,48.0415,33.9002,0.212815
84,0.0,-4.30122,-5.57618,12.4861,0.276503,-0.00182933,-0.0246855,1.17664,-0.323311,-0.116684,0.799152,0.0800203,0.191006,0.447131,3.8402,47.9377,52.1047,0.448261
90,2.98696,-3.14154,-5.73787,12.7478,-0.0501132,-0.0398053,-0.01709,0.374273,1.47408,1.51192,0.799152,0.454973,0.191006,0.613177,1.92317,47.9377,73.3779,0.845873
96,10.725,-4.47932,-6.028,12.8076,-0.0349218,-0.0777812,-0.0626633,1.17664,0.575384,1.51192,1.66139,0.0800203,0.332427,0.779224,3.8402,47.8546,109.957,1.36877
102,17.5374,-4.79636,-5.87749,13.5654,-0.110879,-0.00182933,-0.0702588,2.78136,0.575384,0.697621,1.66139,0.454973,0.332427,0.613177,3.8402,47.8131,146.246,2.09735
108,27.2688,-3.0532,-5.33699,14.2084,1.3475,0.0437418,-0.0550677,3.58373,1.47408,1.51192,1.66139,1.20488,0.615271,1.11132,2.88169,47.8546,141.03,2.98878
114,43.5639,-2.14046,-4.8473,14.9925,0.0410354,-0.00182933,-0.00949443,1.979,3.27147,2.32623,-0.0630909,0.454973,0.615271,0.779224,4.79872,47.7093,95.6996,3.6858
120,53.8548,0.154798,-3.54195,15.7,0.367652,-0.108162,1.58557,0.374273,0.575384,2.32623,-0.0630909,0.829925,0.332427,0.945271,2.88169,47.6677,71.6652,4.1538
126,57.8921,-0.415589,-3.53634,15.7055,0.0714183,0.0741226,-0.0322811,1.979,-0.323311,0.697621,0.799152,0.829925,0.332427,0.779224,2.88169,47.647,84.6493,4.63065
132,57.6277,-0.855753,-4.29158,15.4985,0.116993,-0.108162,0.0208878,1.979,0.575384,0.697621,0.799152,0.829925,0.332427,0.447131,1.92317,47.6262,119.714,5.23652
138,49.8815,0.449957,-4.29158,15.4985,1.20318,0.0589322,0.00569666,1.17664,2.37278,1.51192,0.799152,0.829925,0.473849,0.613177,3.8402,47.6677,195.395,6.20214
144,56.1878,1.05139,-4.18613,15.9066,0.0334397,-0.070186,-0.00949443,5.18845,1.47408,2.32623,1.66139,0.829925,0.615271,0.779224,3.8402,47.4601,193.598,7.39769
150,64.3728,1.65287,-3.49795,16.6953,0.990501,0.317169,0.0436744,4.38609,3.27147,2.32623,1.66139,0.454973,0.473849,0.945271,5.75724,47.3562,144.679,8.47553
156,85.3919,3.89521,-1.88763,17.5161,0.443609,0.112099,0.0816521,5.99082,2.37278,3.14053,2.52364,0.829925,0.898114,1.44341,5.75724,47.1278,179.181,9.4232
162,96.6753,4.46949,-2.00361,17.7063,0.177758,2.18559,-0.00949443,4.38609,0.575384,1.51192,0.799152,0.829925,0.332427,0.779224,3.8402,47.3562,347.97,10.8214
168,97.4455,5.25681,-1.44084,18.0702,0.755033,0.134884,0.0436744,6.79318,3.27147,2.32623,1.66139,0.454973,0.615271,1.27736,5.75724,47.1693,487.214,13.1878
174,111.204,8.07187,1.19249,19.65,2.47167,1.88178,0.180394,8.39791,4.17017,6.39775,4.24812,1.95478,1.18096,1.7755,6.71575,46.9824,705.433,16.875
180,156.446,15.8213,7.35576,22.2298,1.27154,0.347549,0.286732,12.4097,6.86625,8.02636,4.24812,3.07964,1.74665,2.1076,8.63279,47.0032,747.812,21.2087
186,235.608,22.6522,9.18609,24.6093,0.00305682,0.408311,0.271541,16.4215,10.461,10.4693,5.11037,3.82954,2.31233,2.77179,9.5913,46.5048,710.524,25.6617
192,334.981,27.1388,11.2004,27.6949,2.28937,0.339954,0.658914,10.805,8.66364,10.4693,5.97261,3.07964,2.45375,2.43969,8.63279,46.3179,862.293,30.3453
198,382.994,28.6354,13.5178,29.7935,0.701863,0.0437418,0.134821,14.0145,7.76495,8.02636,6.83485,3.45459,2.45375,2.27365,10.5498,45.8403,1110.26,36.1676
204,402.837,33.5039,19.819,33.9837,2.19063,4.18312,0.674105,21.2357,11.3597,12.0979,7.69709,5.32935,3.72655,3.60202,15.3424,45.4665,1200.0,43.1055
210,439.834,42.0607,33.9704,41.4603,2.28177,0.469072,0.438643,24.4452,14.0558,14.5408,12.0083,6.07926,4.15082,4.26621,18.218,45.155,1115.76,50.1031
216,550.323,53.1685,39.8325,49.8044,4.78836,3.81855,2.29196,28.457,15.8532,16.1694,12.0083,6.82916,4.85792,4.76435,19.1765,44.5113,1058.26,56.7907
222,650.722,59.8199,46.5812,57.2439,0.732246,2.14001,0.522194,26.0499,15.8532,15.3551,12.0083,6.82916,4.57508,4.5983,14.3839,44.1582,1119.48,63.4713
228,588.968,60.3555,46.1573,62.5256,1.3475,2.67927,0.294327,31.6665,21.2454,20.2409,14.595,7.57907,4.85792,5.09644,18.218,43.9921,1262.18,70.9797
234,628.214,65.0841,52.1039,73.4886,1.85641,1.75266,1.79825,34.8759,22.1441,22.6838,16.3195,7.57907,5.42361,5.59458,20.135,43.5145,1390.01,79.0437
240,627.503,62.4399,51.1804,79.1361,2.91981,3.735,0.150012,38.0854,22.1441,22.6838,16.3195,7.95402,5.42361,5.26249,21.0935,43.0161,1507.8,87.4884
246,744.992,68.7795,58.507,89.4777,0.413226,5.81609,4.12248,43.7019,23.9415,25.1268,19.7685,9.45383,5.9893,5.92667,23.0105,42.497,1722.25,97.4067
252,776.346,82.5555,76.4442,102.881,3.76294,5.58063,1.04629,45.3066,23.9415,25.9411,20.6307,9.82878,6.13072,5.92667,27.8031,41.874,1790.95,107.907
258,798.797,90.1553,84.1824,111.105,1.27914,0.795666,1.22098,48.5161,24.8402,26.7554,22.3552,9.45383,6.55499,6.42481,29.7202,41.3548,1748.71,118.541
264,950.539,96.5839,91.959,119.504,5.02383,6.4237,7.08475,57.3421,28.4349,30.8269,25.8042,11.3286,7.68636,7.089,38.3468,40.5449,1871.91,129.285
270,1012.98,115.494,113.388,147.813,9.73318,6.20344,1.38809,62.1563,31.131,31.6412,26.6664,12.4534,7.68636,7.58714,38.3468,40.005,1883.57,140.908
276,997.322,124.137,133.525,182.642,5.9657,4.30464,8.72538,66.9704,31.131,32.4555,27.5287,14.3282,9.38342,9.24761,49.849,39.3613,2055.76,152.739
282,1108.88,151.215,162.857,221.441,3.00337,10.2745,12.2725,71.7846,32.0297,34.0841,27.5287,15.828,10.6562,10.2439,53.6831,38.676,2389.6,165.323
288,1144.6,153.48,177.6,243.77,9.14071,2.42863,9.23428,72.587,32.0297,35.7127,29.2532,15.828,10.9391,10.4099,56.5586,37.8661,1900.09,177.348
294,1207.04,159.032,188.907,261.433,3.67939,4.97302,8.08736,77.4012,32.9284,38.1556,33.5644,17.7028,11.6462,11.0741,60.3927,36.8901,2021.65,189.116
300,1160.26,157.571,186.982,269.098,5.27449,8.92252,1.16782,78.2035,32.9284,37.3413,30.9777,18.4527,12.4947,11.5723,65.1853,36.1841,2134.73,201.858
306,1202.58,160.373,192.125,274.516,6.6721,12.272,6.25683,77.4012,33.8271,36.527,28.3909,19.9525,13.9089,12.9006,68.0608,35.3742,2211.09,214.715
312,1213.86,170.848,217.539,314.13,9.77116,6.37053,6.92524,88.6343,38.3206,40.5985,36.1511,21.4523,14.3332,13.5648,73.8119,34.5643,2310.91,228.011
318,1353.38,185.492,232.27,341.612,8.20644,6.53763,6.10492,79.0059,33.8271,36.527,30.9777,19.5775,12.7775,12.2365,66.1438,33.879,2461.23,242.411
324,1326.23,180.878,227.471,345.773,3.77813,11.1403,4.79849,83.8201,34.7258,38.9699,33.5644,20.7024,14.0503,13.2327,70.9364,33.0691,2899.02,258.311
330,1389.27,186.065,240.384,357.129,11.746,8.85416,9.57608,86.2272,36.5232,38.9699,31.8399,22.2022,15.606,14.229,74.7705,32.197,2429.63,274.115
336,1461.71,202.769,257.752,362.864,8.87486,10.7074,4.4339,85.4248,35.6245,38.1556,31.8399,21.4523,15.1817,14.063,76.6875,31.2417,2447.96,288.991
342,1627.13,206.716,263.301,365.938,5.69225,10.2289,5.86186,81.413,36.5232,36.527,31.8399,21.4523,15.0403,13.7309,70.9364,30.2034,2323.18,302.891
348,1586.25,196.541,251.338,362.054,7.26457,3.99324,7.20627,69.3775,28.4349,30.8269,27.5287,19.2026,12.919,12.2365,62.3097,29.5804,2135.3,316.071
354,1566.04,187.647,240.626,358.599,3.95283,4.79833,5.09471,68.5752,26.6376,29.1983,26.6664,18.4527,12.4947,11.7383,61.3512,28.7083,2122.44,328.993
360,1528.97,178.871,224.911,348.958,9.03437,7.32753,6.78852,65.3657,26.6376,27.5697,24.0797,16.9529,12.2119,11.2402,57.5171,27.9192,2047.03,341.616
366,1444.2,175.73,221.601,342.497,9.00399,4.87428,6.27962,68.5752,28.4349,29.1983,25.8042,16.5779,12.6361,11.5723,60.3927,27.2546,1931.63,353.833
372,1431.06,167.226,207.381,334.214,4.04398,6.90979,8.88489,66.1681,27.5362,29.1983,26.6664,16.9529,11.929,10.9081,57.5171,26.424,2005.04,366.02
378,1292.99,158.445,200.989,327.283,5.83657,9.81116,6.94803,62.9586,23.0428,27.5697,24.0797,15.828,11.6462,10.576,57.5171,25.7595,2043.26,378.557
384,1278.56,150.278,189.878,316.81,3.61862,10.0314,7.40376,54.1326,23.0428,25.1268,22.3552,14.7032,10.9391,9.74575,47.932,24.9496,1852.08,390.471
390,1369.75,147.275,183.681,305.682,6.78604,3.9021,4.601,47.7137,21.2454,21.0552,19.7685,13.5783,9.66626,8.74947,43.1394,24.2643,1656.36,401.55
396,1428.4,142.559,176.324,295.167,7.18102,9.00607,4.37314,44.5043,18.5493,19.4266,18.044,12.4534,8.95916,8.41738,42.1809,23.6206,1729.39,411.837
402,1343.74,135.885,169.343,289.262,5.98089,9.05923,5.9682,42.8995,16.7519,17.798,16.3195,11.3286,8.25205,7.58714,40.2638,22.9561,1806.41,421.76
408,1275.7,132.839,166.295,281.754,4.84913,2.6337,4.97318,41.2948,16.7519,16.9837,16.3195,11.7035,7.9692,7.089,36.4298,22.2708,1540.15,431.648
414,1168.51,131.787,164.809,272.924,4.67443,9.46937,2.7249,38.8877,14.9545,16.1694,14.595,10.5787,7.68636,6.75691,35.4713,21.7931,1306.15,440.111
420,1118.89,132.055,164.319,266.9,8.85967,5.52747,5.15548,36.4806,13.1571,16.1694,12.0083,10.2037,7.40352,6.75691,35.4713,21.1079,1313.18,448.215
426,1102.54,121.83,152.612,257.866,4.87192,2.91472,9.92548,32.4688,14.0558,15.3551,11.1461,8.70393,6.27214,5.92667,30.6787,20.6095,1377.91,456.405
432,1032.84,114.148,143.859,248.603,2.78309,4.91985,1.8818,29.2594,13.1571,12.9122,9.42158,8.70393,6.13072,5.76063,28.7616,20.0903,1287.78,464.211
438,934.92,110.551,139.824,240.558,5.22132,3.735,3.56801,26.8523,12.2584,11.2836,9.42158,7.20412,5.28219,5.26249,26.8446,19.6335,1211.91,471.771
444,1009.73,106.4,133.836,232.745,4.96306,8.19338,3.7503,25.2475,11.3597,11.2836,8.55934,6.82916,5.28219,4.93039,24.9276,19.1143,1217.69,479.018
450,940.551,108.258,130.648,226.051,6.95314,1.6843,2.99075,23.6428,11.3597,10.4693,8.55934,6.45421,4.99935,4.93039,23.9691,18.7821,1055.27,485.927
456,909.465,102.787,125.706,218.62,4.68202,5.74013,0.795633,22.8405,8.66364,11.2836,7.69709,6.82916,4.99935,4.76435,23.0105,18.3044,1005.18,491.933
462,923.311,95.999,119.802,211.509,4.87951,5.71735,2.00333,22.8405,8.66364,8.84066,6.83485,6.45421,4.57508,4.43225,21.0935,17.8268,899.461,497.496
468,853.852,90.5588,111.843,202.407,1.49182,3.49196,2.39829,21.2357,7.76495,8.02636,6.83485,5.32935,4.29224,4.10016,20.135,17.4323,889.122,502.915
474,789.15,83.2044,103.571,194.535,2.16784,2.67927,0.605745,19.631,8.66364,8.84066,7.69709,5.32935,4.15082,3.76807,20.135,17.1208,877.043,508.357
480,752.621,78.7774,98.4867,186.946,6.65691,3.77298,4.10729,19.631,8.66364,8.02636,7.69709,5.32935,3.58513,3.60202,19.1765,16.7885,876.965,513.474
486,713.328,76.9809,95.1703,182.248,4.71241,1.71468,1.04629,18.0263,7.76495,8.02636,5.97261,5.32935,3.86797,3.60202,18.218,16.2694,957.081,519.002
492,718.558,72.587,90.7608,176.335,2.81347,3.62867,2.94517,18.8286,7.76495,8.84066,4.24812,4.9544,3.44371,3.26993,16.3009,15.9786,949.596,524.644
498,628.364,69.1349,86.6041,170.987,5.40362,4.54009,3.84145,16.4215,6.86625,8.84066,5.97261,4.57945,3.58513,3.43597,16.3009,15.6256,844.72,529.94
504,700.251,72.2937,89.9889,168.171,6.39866,6.23382,4.84406,18.0263,7.76495,6.39775,5.11037,4.2045,3.44371,3.43597,16.3009,15.3141,874.293,534.987
510,685.503,70.7171,86.3891,163.713,2.12226,3.71981,1.79065,16.4215,5.96756,7.21206,5.11037,4.2045,3.30228,3.26993,16.3009,14.9611,790.146,539.976
516,699.073,68.1865,82.6459,159.259,6.86959,3.24891,1.75267,17.2239,7.76495,7.21206,5.11037,4.57945,3.30228,3.10388,15.3424,14.6704,766.861,544.872
522,650.295,70.9791,83.7151,155.236,2.74511,1.91975,4.50226,15.6192,8.66364,8.02636,5.11037,4.2045,3.44371,3.10388,14.3839,14.2966,925.965,549.652
528,653.911,68.3752,82.6512,152.313,2.26658,5.36037,3.90981,15.6192,7.76495,8.02636,5.11037,4.57945,3.16086,3.10388,14.3839,14.1305,677.889,554.363
534,653.393,67.6729,80.5186,149.122,3.51228,0.461477,2.85403,16.4215,7.76495,7.21206,5.97261,4.2045,2.87802,3.10388,14.3839,13.7567,656.279,558.236
540,594.887,67.1384,79.9111,146.525,2.00833,2.0033,2.14764,15.6192,5.96756,6.39775,5.11037,3.45459,2.87802,2.77179,11.5083,13.4659,614.988,562.133
546,553.303,63.9503,77.1298,142.484,2.25139,4.41098,0.734869,13.2121,5.96756,6.39775,4.24812,3.82954,2.87802,2.77179,11.5083,13.1544,612.889,566.07
552,514.196,57.4321,72.9399,138.36,2.54003,0.841237,1.16022,14.8168,5.06886,6.39775,4.24812,3.07964,2.59518,2.43969,11.5083,13.0091,661.165,569.952
558,530.908,58.5102,71.4105,134.943,5.70745,2.99068,1.51721,12.4097,5.06886,6.39775,5.11037,3.82954,2.45375,2.43969,12.4669,12.8222,634.45,573.744
564,533.685,55.2694,68.1464,130.958,2.17543,5.9452,3.43129,12.4097,5.06886,5.58345,4.24812,3.07964,2.31233,2.60574,10.5498,12.4899,655.237,577.443
570,536.867,58.3683,69.2888,129.161,0.663885,3.54512,1.89699,12.4097,5.06886,4.76914,5.11037,2.70469,2.17091,2.1076,10.5498,12.2823,574.264,580.974
576,515.228,58.7416,69.1108,126.505,3.13249,1.76785,3.11227,10.0026,5.06886,5.58345,3.38588,3.07964,2.02949,1.7755,8.63279,12.1784,518.647,584.409
582,547.907,57.3798,69.7343,124.671,4.61366,3.70462,2.98315,10.0026,5.06886,6.39775,2.52364,2.70469,1.88807,2.1076,10.5498,11.8254,485.923,587.511
588,498.661,58.0371,67.1611,121.338,4.46175,4.20591,2.68692,10.0026,4.17017,5.58345,2.52364,2.70469,1.88807,1.7755,10.5498,11.6178,486.419,590.412
594,475.403,57.4219,66.5479,118.588,5.06181,1.82102,1.31973,10.0026,5.06886,4.76914,3.38588,2.70469,1.88807,1.94155,8.63279,11.4932,471.445,593.216
600,474.46,55.9118,65.7405,116.091,2.49445,2.14001,3.01353,10.0026,5.06886,5.58345,3.38588,3.07964,1.60522,1.94155,8.63279,11.327,432.685,595.862
606,416.963,53.2832,62.4249,113.774,1.64373,2.92991,2.92239,10.805,4.17017,4.76914,2.52364,2.32973,1.74665,1.94155,8.63279,10.974,413.701,598.513
612,408.537,52.2235,63.2437,112.521,2.66916,2.03368,1.16022,10.0026,5.06886,5.58345,3.38588,2.32973,1.4638,1.60946,10.5498,10.974,470.924,601.17
618,390.76,50.2706,60.3458,110.15,2.98818,3.99324,4.7757,7.59555,4.17017,3.95484,3.38588,2.32973,1.74665,1.7755,8.63279,10.6625,465.438,604.025
624,367.536,50.5347,61.601,110.675,4.0136,3.38563,1.38049,9.20027,5.06886,3.95484,1.66139,2.70469,1.4638,1.60946,9.5913,10.4964,443.888,606.7
630,410.275,49.9802,60.1672,107.93,2.96539,2.37546,5.05673,8.39791,4.17017,3.95484,4.24812,1.95478,1.74665,1.60946,8.63279,10.2887,417.496,609.248
636,418.717,48.643,58.8377,105.517,1.57537,1.56278,2.2236,10.0026,4.17017,3.95484,3.38588,2.32973,1.60522,1.60946,8.63279,10.1641,388.857,611.651
642,387.125,48.2782,58.1806,104.08,3.67939,2.9451,4.74532,8.39791,5.06886,4.76914,3.38588,1.95478,1.4638,1.60946,9.5913,9.95647,448.121,613.978
648,373.649,49.0184,58.1806,102.934,2.5856,4.26667,2.16283,7.59555,4.17017,3.14053,3.38588,1.57983,1.32238,1.7755,8.63279,9.81111,422.629,616.532
654,358.629,46.018,55.6763,100.865,0.29929,1.79064,1.75267,9.20027,3.27147,3.95484,3.38588,1.95478,1.4638,1.27736,7.67427,9.62421,414.683,619.006
660,354.07,44.3481,54.091,98.2815,3.61103,2.04887,3.21102,7.59555,4.17017,5.58345,4.24812,2.32973,1.60522,1.60946,7.67427,9.56191,420.553,621.431
666,374.169,45.0217,54.0226,97.1806,1.1728,1.08428,2.23879,9.20027,4.17017,4.76914,2.52364,1.95478,1.18096,1.60946,8.63279,9.33348,369.659,623.905
672,354.352,43.4566,54.2386,96.5119,3.88447,3.98565,3.62118,8.39791,4.17017,5.58345,2.52364,1.95478,1.60522,1.94155,8.63279,8.79357,374.067,626.208
678,354.582,45.8326,55.1604,95.8854,4.41617,3.1046,1.32732,7.59555,4.17017,3.14053,4.24812,2.32973,1.32238,1.44341,7.67427,8.66897,378.932,628.608
684,345.952,42.793,52.2143,93.8652,3.82371,2.70965,3.97817,7.59555,3.27147,4.76914,3.38588,2.32973,1.32238,1.44341,8.63279,8.46131,388.247,631.022
690,340.591,43.616,53.6959,93.8705,3.45152,3.95526,2.62616,6.79318,4.17017,3.95484,2.52364,1.20488,1.32238,1.60946,7.67427,8.66897,393.767,633.394
696,356.773,43.791,52.5781,92.0935,2.11467,2.96789,4.86685,7.59555,3.27147,3.14053,3.38588,1.95478,1.32238,1.44341,5.75724,8.00445,396.329,635.706
702,363.815,44.4278,53.3954,92.2091,2.83626,2.11723,5.07193,6.79318,3.27147,3.14053,2.52364,1.57983,1.32238,1.44341,7.67427,7.98369,396.92,638.064
708,337.723,43.9186,51.9295,91.4473,2.57801,2.85396,2.30715,6.79318,4.17017,3.14053,2.52364,0.829925,1.03954,1.44341,6.71575,8.17058,404.928,640.401
714,341.247,44.6188,52.0719,91.3684,2.72233,1.48683,3.34774,7.59555,3.27147,3.14053,3.38588,1.95478,1.18096,1.44341,5.75724,7.96292,396.606,642.845
720,337.82,43.9557,52.1141,91.6312,1.37029,2.32989,3.02113,6.79318,4.17017,2.32623,2.52364,1.20488,1.03954,1.11132,7.67427,8.14982,421.34,645.29
726,359.065,44.7355,52.9264,92.1462,2.7603,5.17809,2.32993,7.59555,3.27147,5.58345,3.38588,1.95478,1.18096,1.60946,6.71575,7.83832,459.815,647.95
732,352.56,44.4756,53.443,92.7349,3.6642,4.47174,1.52481,7.59555,4.17017,4.76914,2.52364,1.57983,1.03954,1.44341,6.71575,7.79679,421.014,650.601
738,347.794,43.3931,51.998,92.2145,2.42609,6.05913,2.5578,7.59555,3.27147,4.76914,4.24812,1.57983,1.32238,1.11132,7.67427,7.65143,416.341,653.065
744,387.286,42.3521,50.7049,91.0374,3.02615,2.6413,2.85403,8.39791,5.06886,3.95484,3.38588,1.20488,1.4638,1.44341,5.75724,7.4853,410.974,655.509
750,372.765,42.8781,52.0772,91.5576,3.01096,4.3654,3.71992,8.39791,2.37278,3.95484,1.66139,1.57983,1.32238,1.44341,7.67427,7.31917,372.918,657.861
756,382.708,43.2444,54.5074,92.1777,3.35277,5.55025,3.61358,7.59555,4.17017,3.95484,3.38588,1.95478,1.18096,1.11132,7.67427,7.15304,363.548,660.022
762,365.664,42.9896,54.5864,92.3301,4.49213,5.91482,2.70971,5.99082,3.27147,4.76914,3.38588,1.57983,1.03954,1.11132,7.67427,7.00768,404.815,662.212
768,347.585,42.5806,54.2546,93.1029,2.34254,3.44639,2.74769,6.79318,3.27147,2.32623,2.52364,1.57983,1.32238,1.27736,5.75724,6.82079,329.84,664.425
774,342.05,41.4327,53.3745,92.7402,2.40331,5.77051,4.02374,5.99082,3.27147,3.95484,3.38588,1.57983,1.18096,1.44341,5.75724,6.65466,323.772,666.335
780,338.408,40.0865,51.5232,91.7047,2.43369,2.35268,3.47686,5.99082,3.27147,3.14053,2.52364,1.20488,1.18096,1.11132,5.75724,6.67542,302.385,668.208
786,306.482,40.1292,51.6024,91.7468,1.68171,3.21853,2.40589,7.59555,2.37278,3.14053,1.66139,1.57983,1.18096,1.11132,4.79872,6.48853,300.117,669.972
792,292.828,38.1952,50.4992,90.7591,1.56018,4.28945,0.727273,5.99082,1.47408,3.14053,2.52364,1.20488,1.18096,0.945271,6.71575,6.50929,279.538,671.778
798,290.133,37.5285,49.0991,89.6615,3.6566,5.96799,1.28934,5.18845,3.27147,3.14053,1.66139,0.829925,1.03954,1.11132,5.75724,5.65788,287.355,673.533
804,291.405,37.7899,49.2101,89.6615,3.45911,5.05657,3.78068,5.99082,3.27147,2.32623,2.52364,1.20488,1.03954,1.11132,4.79872,6.1355,316.678,675.302
810,270.657,36.2471,48.1631,88.1809,4.006,5.55785,2.62616,5.18845,3.27147,3.95484,1.66139,1.20488,1.18096,1.11132,5.75724,6.01091,271.905,677.058
816,270.324,35.4295,45.6113,86.7903,0.853778,4.06919,2.81605,5.99082,3.27147,1.51192,1.66139,1.57983,0.898114,1.11132,5.75724,5.84478,256.411,678.642
822,300.647,36.2165,46.7832,87.0014,0.476741,-0.370167,3.2669,5.04037,3.18056,3.27508,1.64507,1.30627,1.07834,1.27416,5.35068,5.87462,254.309,680.15
828,288.717,34.7183,45.5371,85.9823,1.82603,3.32486,1.76027,4.38609,2.37278,2.32623,3.38588,1.20488,1.03954,1.11132,5.75724,6.01091,254.64,681.647
834,267.443,34.4453,45.044,85.3475,2.85145,3.56031,3.98576,5.99082,1.47408,1.51192,3.38588,1.95478,1.03954,1.27736,5.75724,5.51252,268.139,683.173
840,265.065,34.6488,44.8002,84.6659,3.48949,4.45655,3.60599,5.99082,3.27147,2.32623,2.52364,1.20488,1.03954,1.11132,4.79872,5.32563,262.254,684.811
846,250.12,34.2742,44.6889,84.6292,4.363,4.33502,3.68194,4.38609,3.27147,2.32623,3.38588,1.20488,1.03954,1.27736,6.71575,5.30486,261.858,686.469
852,255.154,33.7121,45.5424,84.152,2.78309,3.4236,2.50463,4.38609,2.37278,3.14053,1.66139,1.20488,1.03954,1.11132,5.75724,5.32563,253.174,688.014
858,261.836,33.7176,44.3229,82.3591,3.68698,2.23875,1.05388,4.38609,2.37278,2.32623,1.66139,1.57983,1.03954,1.44341,5.75724,5.13873,254.657,689.561
864,259.769,32.0671,43.2084,81.0749,0.952522,2.14001,3.04391,3.58373,1.47408,2.32623,1.66139,1.57983,1.32238,1.27736,4.79872,5.0349,267.885,691.113
870,251.445,30.559,41.1943,79.5657,2.03111,1.80583,3.85664,5.18845,2.37278,1.51192,2.52364,1.95478,0.898114,1.60946,6.71575,4.99337,280.866,692.743
876,266.091,30.4892,39.5977,78.2139,0.785416,1.33492,1.75267,5.99082,3.27147,2.32623,1.66139,1.20488,1.32238,1.44341,6.71575,4.82724,272.842,694.377
882,250.228,29.0488,38.6545,77.7999,1.77286,2.19318,3.18063,5.99082,3.27147,3.14053,3.38588,0.829925,1.32238,1.27736,7.67427,4.82724,309.156,696.002
888,266.439,30.3334,39.6668,77.5119,2.4109,2.81599,1.04629,5.18845,2.37278,1.51192,1.66139,1.95478,1.18096,1.11132,6.71575,4.68188,274.812,697.75
894,256.092,32.7747,41.9387,78.8688,3.98322,1.75266,2.84643,5.18845,2.37278,1.51192,3.38588,1.20488,1.18096,1.7755,5.75724,4.47422,261.662,699.346
900,240.915,32.5763,41.593,78.7482,1.77286,5.27683,3.60599,4.38609,2.37278,2.32623,1.66139,0.829925,1.32238,1.27736,6.71575,4.66111,265.929,700.896
906,268.127,33.0694,40.9283,77.6899,1.27154,3.65146,2.18562,5.99082,3.27147,3.14053,2.52364,1.20488,1.18096,0.945271,7.67427,4.32885,241.099,702.41
912,241.848,31.45,39.6561,76.4378,1.96275,1.88937,1.91218,5.18845,4.17017,2.32623,1.66139,1.57983,1.32238,1.27736,5.75724,4.32885,252.883,703.897
918,257.198,32.8497,41.2688,77.2551,1.14242,3.49196,4.2592,6.79318,2.37278,2.32623,2.52364,1.20488,1.18096,1.27736,6.71575,4.22502,237.271,705.391
924,234.031,31.9545,40.939,76.9304,2.4109,4.89707,3.60599,5.99082,3.27147,3.14053,3.38588,1.20488,1.03954,1.27736,7.67427,3.97583,218.36,706.807
930,237.301,32.4854,42.7677,76.9357,1.84882,4.6844,4.47947,5.99082,2.37278,3.95484,2.52364,1.20488,1.32238,1.27736,7.67427,3.9966,198.221,708.014
936,241.671,31.1228,41.6782,77.4385,2.60079,3.62108,3.10468,6.79318,3.27147,4.76914,4.24812,1.57983,1.4638,1.44341,6.71575,3.83047,222.22,709.308
942,270.855,30.5214,42.1619,77.4752,2.79069,1.89697,2.03371,6.79318,3.27147,3.14053,1.66139,1.57983,1.03954,1.11132,4.79872,3.85123,208.403,710.666
948,198.708,30.9725,41.3432,77.5852,2.22101,3.44639,3.2338,5.99082,1.47408,3.14053,3.38588,1.57983,1.32238,1.11132,5.75724,3.66434,221.091,711.948
954,213.309,30.1078,40.9337,76.8518,1.46144,4.49452,2.86162,5.18845,0.575384,1.51192,2.52364,1.57983,1.32238,1.44341,6.71575,3.6851,232.875,713.314
960,204.864,28.1825,38.8783,75.9664,1.3551,1.88937,2.0489,6.79318,1.47408,3.14053,2.52364,1.57983,1.32238,1.27736,8.63279,3.49821,224.685,714.685
966,198.171,28.3763,38.8837,75.4949,1.05886,2.67927,1.32732,6.79318,1.47408,3.14053,3.38588,1.20488,1.18096,1.11132,4.79872,3.51897,258.797,716.193
972,184.37,26.6743,36.9741,74.3895,0.686672,2.91472,2.45146,5.99082,3.27147,2.32623,2.52364,1.20488,1.18096,1.27736,4.79872,3.12442,204.941,717.608
978,211.546,26.5989,36.2638,73.0693,3.67939,3.62108,1.93497,5.18845,2.37278,3.14053,2.52364,1.20488,1.03954,1.27736,6.71575,3.16595,216.11,718.878
984,221.394,26.9007,36.7125,73.0327,1.02848,1.08428,2.70971,4.38609,2.37278,3.14053,2.52364,0.829925,1.32238,1.27736,5.75724,3.35285,172.516,719.982
990,220.544,26.2269,35.6334,72.9646,0.4588,1.71468,3.60599,4.38609,3.27147,3.14053,0.799152,1.20488,1.03954,1.27736,6.71575,2.99982,153.869,720.976
996,206.705,24.3702,32.7806,72.1892,0.656289,0.476668,0.658914,5.18845,2.37278,1.51192,2.52364,0.829925,1.18096,1.11132,5.75724,3.02059,157.848,721.906
1002,167.808,20.8861,28.6458,70.6487,0.0790141,0.0969081,-0.108237,3.58373,1.47408,1.51192,1.66139,1.20488,0.898114,1.44341,6.71575,2.97906,215.885,723
1008,175.148,18.3096,27.7469,69.8837,1.94756,2.56534,1.54759,5.18845,2.37278,3.14053,3.38588,0.829925,1.32238,1.27736,4.79872,2.72986,145.857,724.083
1014,173.509,19.178,27.4776,68.8511,1.41586,1.07669,0.95514,5.99082,3.27147,3.14053,-0.0630909,1.57983,1.03954,0.945271,3.8402,3.02059,140.919,724.938
1020,168.14,19.14,27.2136,68.0072,1.93997,1.69949,1.63114,5.18845,4.17017,2.32623,2.52364,0.829925,0.898114,1.11132,3.8402,2.83369,152.042,725.853
1026,164.215,18.4561,27.2136,67.0897,1.55258,0.932379,2.27676,5.18845,1.47408,1.51192,2.52364,1.20488,0.898114,1.27736,4.79872,2.66756,148.841,726.751
1032,156.803,19.7801,27.4344,65.5793,1.21837,0.985545,1.79065,3.58373,0.575384,0.697621,2.52364,0.454973,0.898114,0.945271,5.75724,2.50144,132.41,727.682
1038,152.703,19.2485,27.359,65.0285,0.944927,2.1552,1.66912,4.38609,2.37278,1.51192,-0.0630909,0.454973,0.898114,0.945271,6.71575,2.66756,140.348,728.483
1044,145.915,18.5701,27.1382,64.8502,1.90958,2.23116,2.01852,3.58373,0.575384,1.51192,2.52364,0.454973,0.898114,1.27736,4.79872,2.6468,173.991,729.424
1050,153.75,17.5817,26.0816,63.6381,0.891756,2.01849,1.98054,5.18845,2.37278,2.32623,1.66139,1.20488,0.898114,0.945271,4.79872,2.29377,148.208,730.378
1056,146.18,18.114,26.1193,63.0135,1.02848,1.41088,1.49442,3.58373,1.47408,0.697621,1.66139,1.20488,0.756693,0.945271,3.8402,2.37684,130.754,731.243
1062,162.724,17.6577,25.704,62.0212,3.40594,1.02352,2.83124,5.18845,2.37278,1.51192,2.52364,1.20488,0.756693,0.945271,3.8402,2.31454,125.834,731.986
1068,157.896,18.4996,25.7095,61.5854,0.876565,2.04887,1.78305,4.38609,2.37278,3.14053,1.66139,1.20488,0.756693,1.27736,4.79872,2.16918,101.367,732.701
1074,145.968,17.5056,24.7594,60.5873,1.39307,1.19062,0.47662,3.58373,0.575384,1.51192,2.52364,0.829925,0.898114,1.27736,4.79872,2.16918,103.071,733.269
1080,137.657,16.5489,23.695,59.6624,0.170163,0.408311,0.651318,3.58373,1.47408,3.14053,2.52364,0.829925,0.898114,1.27736,4.79872,2.35607,118.142,733.951
1086,127.861,14.9493,22.5972,58.5584,0.785416,1.5324,0.977926,3.58373,3.27147,2.32623,0.799152,1.20488,0.756693,0.779224,4.79872,2.00305,116.643,734.691
1092,126.15,15.8526,22.5484,57.6273,0.344864,2.60332,2.12485,2.78136,2.37278,2.32623,1.66139,1.57983,1.03954,0.779224,4.79872,2.12765,112.693,735.351
1098,134.716,14.9112,22.1048,56.8277,0.35246,1.03871,0.332305,4.38609,1.47408,3.14053,2.52364,1.20488,0.898114,0.945271,3.8402,2.00305,101.43,735.982
1104,123.703,13.081,21.3846,56.5698,2.78309,0.560215,0.157608,3.58373,0.575384,0.697621,1.66139,1.20488,0.756693,0.945271,4.79872,1.96152,106.752,736.578
1110,118.874,14.334,21.7961,55.9011,2.44128,1.22859,1.3577,3.58373,3.27147,2.32623,-0.0630909,1.20488,0.898114,1.11132,3.8402,1.96152,115.121,737.278
1116,128.649,14.4484,22.1372,55.7905,0.534757,2.06406,1.84382,4.38609,0.575384,1.51192,1.66139,1.20488,0.898114,0.945271,5.75724,2.00305,90.1672,737.876
1122,119.162,14.9438,22.2887,55.68,2.35773,1.75266,2.26157,3.58373,2.37278,1.51192,0.799152,1.20488,0.615271,0.945271,2.88169,1.83692,112.331,738.421
1128,124.162,14.481,21.9422,55.3429,0.701863,0.879213,1.03869,3.58373,1.47408,2.32623,1.66139,1.57983,0.898114,0.779224,4.79872,2.00305,112.951,739.083
1134,118.077,14.176,20.2736,54.2365,1.8792,1.0539,0.757656,3.58373,1.47408,0.697621,1.66139,1.20488,0.473849,1.11132,4.79872,2.00305,89.056,739.682
1140,106.208,13.9036,19.5469,53.4562,1.57537,1.69949,2.58059,2.78136,1.47408,2.32623,-0.0630909,1.20488,0.615271,0.779224,4.79872,2.00305,88.3702,740.224
1146,120.763,12.4212,19.0206,53.3139,1.03608,0.218431,2.17043,3.58373,1.47408,1.51192,0.799152,0.454973,0.756693,0.779224,3.8402,1.79539,107.604,740.8
1152,111.085,12.2957,18.6297,52.8234,0.641098,0.446287,0.924758,3.58373,1.47408,3.14053,1.66139,1.57983,0.898114,1.11132,3.8402,1.71232,97.2454,741.413
1158,103.412,11.832,18.4722,52.5965,1.03608,0.901998,1.25137,3.58373,2.37278,2.32623,0.799152,1.57983,0.473849,0.945271,3.8402,1.69156,89.735,741.995
1164,111.147,11.5703,17.7553,51.8262,0.625906,0.583,1.37289,1.979,1.47408,2.32623,0.799152,0.0800203,0.756693,0.779224,4.79872,1.65003,72.5259,742.5
1170,104.166,11.1391,16.6791,51.5569,0.580332,1.50202,2.92239,3.58373,1.47408,1.51192,1.66139,0.454973,0.756693,0.945271,3.8402,1.69156,77.6004,742.955
1176,107.466,11.9466,17.0651,50.9339,1.07405,1.00074,0.385474,2.78136,3.27147,2.32623,2.52364,0.829925,0.615271,0.945271,3.8402,1.50466,85.7958,743.464
1182,112.949,11.2592,17.0271,50.3793,1.3551,0.795666,1.09946,2.78136,1.47408,1.51192,1.66139,1.20488,0.898114,0.945271,3.8402,1.4839,83.4464,744.012
1188,96.8367,10.648,16.7988,49.7875,0.24612,0.56781,1.14503,3.58373,2.37278,2.32623,1.66139,0.829925,0.756693,0.945271,4.79872,1.4839,93.3638,744.524
1194,97.6133,10.7953,16.3746,49.4492,0.268907,0.484263,2.16283,3.58373,1.47408,1.51192,3.38588,1.57983,0.756693,0.945271,5.75724,1.3593,90.1966,745.046
1200,97.7937,10.1458,15.9938,48.6349,0.656289,1.07669,1.37289,2.78136,2.37278,1.51192,1.66139,1.20488,0.615271,0.779224,4.79872,1.54619,74.9653,745.545
1206,96.5222,10.8662,15.6075,48.1852,0.648693,0.195646,0.704487,1.979,1.47408,2.32623,1.66139,0.829925,0.615271,0.945271,3.8402,1.46313,79.2389,746.031
1212,95.4198,10.8717,15.5368,48.1165,1.37788,1.6843,0.636127,2.78136,2.37278,0.697621,0.799152,1.20488,0.898114,0.945271,4.79872,1.50466,76.2247,746.539
1218,89.4743,9.79076,14.9543,47.6242,0.268907,0.810856,0.901971,4.38609,1.47408,0.697621,0.799152,0.829925,0.615271,0.779224,4.79872,1.31777,77.0129,747.001
1224,102.501,9.40851,14.9162,47.4389,0.420822,0.696928,0.993118,3.58373,1.47408,1.51192,0.799152,0.829925,0.615271,0.945271,4.79872,1.38007,73.9076,747.454
1230,98.8823,9.39747,14.7909,47.3171,0.4588,1.16783,0.598149,3.58373,2.37278,2.32623,1.66139,0.454973,0.898114,0.779224,4.79872,1.3593,78.7252,747.923
1236,99.3681,9.01515,14.1047,46.9835,1.14242,1.22859,1.03869,4.38609,1.47408,1.51192,1.66139,1.57983,0.756693,0.945271,3.8402,1.31777,59.3986,748.33
1242,102.49,8.6383,13.6907,46.5439,0.808204,1.45645,0.757656,3.58373,1.47408,1.51192,0.799152,0.829925,0.756693,0.945271,2.88169,1.19317,51.9977,748.629
1248,97.6898,9.09162,13.8759,46.5015,0.0562269,1.34252,1.72989,2.78136,1.47408,1.51192,1.66139,0.829925,0.615271,0.779224,3.8402,1.31777,45.3386,748.942
1254,90.4861,8.21209,13.113,45.6854,0.185354,0.317169,1.82863,2.78136,2.37278,1.51192,1.66139,0.829925,0.756693,0.945271,4.79872,1.21394,52.4802,749.243
1260,84.0729,7.6328,13.489,45.3832,0.61831,0.423501,0.286732,2.78136,2.37278,2.32623,1.66139,0.829925,0.615271,0.945271,3.8402,1.19317,71.6322,749.628
1266,80.5631,8.58901,13.0312,44.7521,0.527162,0.484263,1.12224,3.58373,1.47408,0.697621,-0.0630909,1.57983,0.615271,0.945271,2.88169,1.02704,62.6638,750.051
1272,81.7388,7.75309,13.2275,44.5718,1.04367,2.13242,0.795633,2.78136,1.47408,1.51192,1.66139,1.20488,0.615271,0.779224,4.79872,1.02704,56.4789,750.402
1278,91.2838,7.82407,13.2983,44.4179,1.32471,2.10204,1.25896,1.979,0.575384,2.32623,1.66139,0.829925,0.756693,0.945271,3.8402,1.02704,51.5518,750.725
1284,90.4631,7.28849,13.1075,44.6779,0.35246,0.696928,2.0413,2.78136,0.575384,1.51192,1.66139,0.829925,0.615271,0.779224,4.79872,1.15164,60.707,751.05
1290,80.806,8.47428,13.3364,44.455,0.929735,0.719714,1.56278,1.979,1.47408,1.51192,2.52364,1.20488,0.615271,0.613177,5.75724,1.02704,57.862,751.426
1296,83.1486,8.35403,13.5598,43.7066,0.922139,0.583,0.127225,3.58373,0.575384,2.32623,1.66139,1.20488,0.615271,0.945271,4.79872,1.02704,57.7265,751.771
1302,92.8169,8.15727,12.9438,43.1437,1.18799,1.04631,2.18562,2.78136,1.47408,1.51192,0.799152,1.20488,0.615271,0.945271,4.79872,1.00628,52.8288,752.085
1308,90.3474,7.54524,12.3714,42.809,0.200546,0.408311,1.16782,2.78136,0.575384,1.51192,0.799152,0.829925,0.898114,0.945271,1.92317,0.798615,51.6099,752.397
1314,86.8239,6.96582,11.8696,42.6921,0.436013,0.901998,0.6817,4.38609,1.47408,1.51192,0.799152,0.829925,0.756693,0.779224,4.79872,0.881679,54.1389,752.711
1320,83.4223,6.31528,10.8384,42.2457,0.29929,0.712118,0.0968432,2.78136,1.47408,1.51192,1.66139,0.454973,0.615271,0.779224,4.79872,0.819381,50.8704,753.025
1326,82.9295,6.69243,10.9475,41.682,0.344864,0.324764,0.719678,4.38609,0.575384,1.51192,0.799152,0.829925,0.756693,0.779224,4.79872,0.860913,59.1706,753.387
1332,78.4777,7.04234,11.4877,41.2034,0.253716,0.864022,0.620936,1.979,1.47408,1.51192,0.799152,0.829925,0.756693,0.779224,3.8402,0.840147,53.6039,753.723
1338,77.0681,6.92755,11.9459,41.3151,1.26395,2.25394,1.30453,3.58373,2.37278,1.51192,1.66139,0.829925,0.756693,0.945271,4.79872,0.632486,45.1817,754.014
1344,75.9998,7.07507,11.0621,40.3784,1.01329,0.013361,0.393069,2.78136,0.575384,1.51192,2.52364,1.20488,0.473849,0.779224,4.79872,0.674018,48.0153,754.297
1350,71.3075,5.69739,10.489,40.2666,0.0410354,0.826046,1.16782,2.78136,2.37278,0.697621,1.66139,0.454973,0.756693,1.11132,5.75724,0.674018,54.0121,754.625
1356,74.1639,5.52769,10.2432,40.7721,1.09684,0.279193,0.54498,1.979,1.47408,1.51192,1.66139,0.829925,0.615271,1.11132,3.8402,0.674018,43.4706,754.937
1362,74.2719,5.83943,9.75184,40.1067,0.306886,1.41088,1.23618,2.78136,0.575384,0.697621,0.799152,0.829925,0.756693,0.945271,3.8402,0.653252,38.7235,755.162
1368,73.4346,5.91045,9.97565,40.0268,1.12722,0.431096,0.408261,2.78136,1.47408,2.32623,-0.0630909,1.20488,0.615271,0.945271,3.8402,0.653252,51.7389,755.427
1374,75.9597,5.41839,9.25488,39.7712,0.641098,0.484263,-0.138619,3.58373,1.47408,1.51192,0.799152,0.829925,0.473849,0.779224,3.8402,0.653252,48.2129,755.739
1380,75.3404,5.68633,9.06371,39.2864,0.838586,0.681738,0.286732,3.58373,3.27147,1.51192,1.66139,0.829925,0.898114,1.11132,3.8402,0.466357,43.604,756.017
1386,78.7852,5.61531,8.83981,39.1799,0.154971,0.476668,0.620936,1.979,1.47408,2.32623,0.799152,0.454973,0.615271,0.779224,4.79872,0.694784,51.3706,756.285
1392,76.0119,5.64805,9.02548,39.0252,0.998097,1.13745,0.742465,1.979,2.37278,1.51192,0.799152,0.829925,0.615271,0.779224,3.8402,0.507889,44.8354,756.57
1398,70.7921,5.89386,8.88867,38.7051,0.709459,0.727309,1.84382,1.979,1.47408,3.14053,1.66139,0.454973,0.473849,0.779224,3.8402,0.362526,31.6675,756.797
1404,72.2806,6.35865,9.23831,38.6359,0.990501,0.803261,0.0892477,1.979,1.47408,2.32623,1.66139,0.454973,0.615271,0.779224,4.79872,0.507889,40.3406,757.005
1410,75.1493,5.94319,8.89972,38.2306,0.641098,0.408311,0.233563,2.78136,1.47408,-0.116684,1.66139,0.454973,0.756693,1.11132,3.8402,0.320994,32.7653,757.242
1416,71.2288,5.19935,8.19476,37.6542,0.208141,0.719714,1.23618,1.979,0.575384,2.32623,3.38588,0.454973,0.756693,0.945271,3.8402,0.507889,37.871,757.447
1422,76.6727,5.01901,8.43529,37.665,0.481587,0.674143,1.05388,2.78136,1.47408,1.51192,1.66139,0.454973,0.473849,0.613177,4.79872,0.362526,46.9368,757.691
1428,70.3316,4.60344,9.0909,37.5957,1.15761,0.96276,1.1982,2.78136,1.47408,1.51192,0.799152,0.829925,0.756693,0.945271,5.75724,0.175631,45.7251,757.962
1434,66.7178,4.29164,8.66475,37.3288,0.268907,1.57797,0.826016,1.979,-0.323311,1.51192,0.799152,0.454973,0.756693,0.779224,3.8402,0.549421,40.5003,758.214
1440,72.0005,5.58766,8.81219,37.1739,0.428417,0.56781,0.54498,1.979,1.47408,0.697621,1.66139,1.20488,0.898114,1.11132,2.88169,0.34176,33.2258,758.419
1446,72.0901,4.24782,8.31503,36.8001,0.542353,0.712118,1.15262,2.78136,0.575384,3.14053,1.66139,1.20488,0.756693,0.779224,3.8402,0.196398,61.9768,758.691
1452,68.6246,4.10021,8.09107,36.5437,0.686672,0.529834,0.651318,3.58373,2.37278,0.697621,0.799152,0.454973,0.756693,0.945271,4.79872,0.154865,65.6752,759.052
1458,65.001,4.20401,7.81225,36.4956,0.724651,0.0209562,1.41847,1.979,1.47408,-0.116684,0.799152,0.829925,0.473849,0.945271,1.92317,0.154865,43.2673,759.371
1464,71.311,4.85482,8.04177,36.346,1.45384,1.95013,0.620936,2.78136,1.47408,2.32623,0.799152,0.454973,0.756693,0.779224,2.88169,0.320994,37.3847,759.598
1470,74.6668,5.22103,8.29293,36.3297,0.4588,0.575405,0.431047,3.58373,1.47408,1.51192,1.66139,0.454973,0.615271,0.945271,1.92317,0.196398,0.0,759.753
1476,76.6517,4.66894,7.93254,36.2765,0.238524,0.385525,0.309518,2.78136,-0.323311,1.51192,-0.0630909,0.454973,0.615271,1.11132,4.79872,0.134099,0.0,759.753
1482,74.0285,3.88666,7.53341,36.0733,0.420822,0.415906,0.393069,3.58373,0.575384,-0.116684,1.66139,1.20488,0.615271,0.779224,4.79872,0.362526,0.0,759.753
1483,67.6904,3.91941,7.64265,35.806,0.185354,0.332359,0.127225,2.78136,0.575384,3.14053,1.66139,0.829925,0.615271,1.11132,3.8402,0.0302687,0.0,759.753