File: 01_Data/Overstuffed_Sofa/Furniture_Calorimeter/Overstuffed_Sofa_R3.csv
Time (s),Convective HRR,TCPlume1,TCPlume2,TCPlume3,DPPlume1,DPPlume2,DPPlume3,HF1,HF2,HF3,HF4,HF5,HF6,RAD2,RAD1,Load Cell,Heat Release Rate,Total Heat Released
-120,0.0,-6.17801,-6.12842,12.5572,-0.000957444,-0.050358,-0.119933,0.235989,0.460676,0.499531,0.557922,-0.0598663,0.00118842,0.447131,2.88169,48.1453,0.0,0.0
-115,0.0,-6.45711,-6.17312,12.4753,-0.00855317,0.0104035,-0.0211909,0.235989,0.460676,-1.12908,-0.304321,0.315086,0.00118842,0.613177,2.88169,48.2076,0.0,0.0
-110,0.51837,-5.94939,-6.13407,12.5516,-0.0465318,-0.00478688,-0.00599984,0.235989,0.460676,-0.314773,-0.304321,-0.0598663,0.00118842,0.779224,2.88169,48.3322,0.0,0.0
-105,0.35267,-6.07217,-6.25689,12.5461,-0.0237446,-0.0123821,-0.104742,0.235989,-0.43802,-1.12908,0.557922,0.315086,-0.140233,0.447131,3.8402,48.2907,0.0,0.0
-100,0.03398,-6.51316,-6.42447,12.5351,0.0294254,-0.103524,-0.119933,-0.566374,-0.43802,0.499531,0.557922,-0.0598663,0.14261,0.281084,2.88169,48.3322,0.0,0.0
-95,0.0,-6.44066,-6.58644,12.5677,0.0218297,0.0407843,-0.00599984,0.235989,1.35937,-0.314773,-0.304321,-0.434819,0.00118842,0.447131,3.8402,48.3322,0.0,0.0
-90,0.0,-6.60263,-6.55301,12.3713,0.0749998,0.0483794,0.107933,1.84072,0.460676,-1.12908,0.557922,-0.434819,0.00118842,0.447131,1.92317,48.1869,0.0,0.0
-85,0.0,-6.64172,-6.63119,12.4477,0.0522126,0.0104035,-0.0287865,0.235989,0.460676,0.499531,-0.304321,-0.0598663,0.00118842,0.613177,1.92317,48.3115,0.0,0.0
-80,0.0,-7.15578,-6.67593,12.5185,0.00663828,0.0787602,-0.0135954,1.03835,0.460676,1.31384,0.557922,-0.0598663,-0.140233,0.779224,1.92317,48.1661,0.0,0.0
-75,0.0,-7.2675,-6.63119,12.6386,-0.000957444,0.0179987,-0.0439776,-0.566374,0.460676,-1.12908,-0.304321,-0.0598663,0.00118842,0.281084,3.8402,48.3322,0.0,0.0
-70,0.0,-7.08885,-6.64816,12.4693,-0.0617232,-0.0199773,0.0015957,0.235989,-1.33672,-0.314773,0.557922,0.315086,0.00118842,0.779224,0.964651,48.1869,0.0,0.0
-65,0.0,-7.40191,-6.5309,12.7365,0.0294254,-0.0351676,0.0851467,0.235989,0.460676,0.499531,0.557922,0.315086,0.14261,0.613177,2.88169,48.1453,0.0,0.0
-60,0.0,-6.7091,-6.65947,12.5346,0.0522126,-0.0427628,-0.0135954,0.235989,-0.43802,1.31384,1.42016,-0.0598663,0.00118842,0.447131,4.79872,48.3115,0.0,0.0
-55,0.0,-6.91026,-6.70422,12.4145,-0.0389361,0.00280831,0.00919125,-0.566374,1.35937,0.499531,0.557922,0.315086,-0.140233,0.281084,2.88169,48.1869,0.0,0.0
-50,0.0,-6.68698,-6.63736,12.5562,-0.0389361,-0.0199773,0.0243823,0.235989,1.35937,0.499531,-0.304321,-0.434819,0.00118842,0.447131,2.88169,48.3115,0.0,0.0
-45,0.0,-6.52498,-6.55353,12.5999,-0.069319,0.00280831,-0.0515731,0.235989,-1.33672,-1.12908,-1.16656,-0.0598663,0.00118842,0.613177,2.88169,48.1453,0.0,0.0
-40,0.0,-6.44683,-6.47537,12.5999,0.00663828,0.0635698,0.0243823,-0.566374,0.460676,-0.314773,0.557922,0.315086,-0.140233,0.447131,2.88169,48.3322,0.0,0.0
-35,0.0,-6.53629,-6.52576,12.5888,-0.00855317,-0.00478688,0.0623601,1.03835,0.460676,-0.314773,0.557922,-0.0598663,0.14261,0.613177,2.88169,48.1453,0.0,0.0
-30,0.0,-7.48072,-6.84416,12.6215,0.00663828,0.0559746,-0.0591687,-1.36874,-0.43802,-0.314773,-1.16656,0.315086,0.00118842,0.613177,1.92317,48.3322,0.0,0.0
-25,0.0,-7.48072,-6.76596,12.5833,-0.000957444,0.00280831,0.00919125,0.235989,-0.43802,1.31384,-0.304321,0.315086,0.00118842,0.447131,2.88169,48.1869,0.0,0.0
-20,0.0,-7.25721,-6.73818,12.6104,-0.000957444,0.124331,0.0395734,-0.566374,0.460676,0.499531,-2.02881,0.315086,0.00118842,0.281084,3.8402,48.1453,0.0,0.0
-15,0.0,-7.21241,-6.73252,12.4633,-0.0313403,-0.0199773,0.0547645,1.03835,1.35937,0.499531,0.557922,0.315086,-0.140233,0.281084,0.964651,48.1453,0.0,0.0
-10,0.0,-7.2294,-6.63221,12.6376,-0.0617232,-0.0123821,0.047169,0.235989,-0.43802,-0.314773,-0.304321,0.315086,0.00118842,0.613177,1.92317,48.1661,0.0,0.0
-5,0.0,-7.19594,-6.5597,12.6321,0.0294254,0.0255939,-0.0743598,-0.566374,2.25807,0.499531,0.557922,0.315086,0.00118842,0.447131,0.964651,48.1661,0.0,0.0
0,0.0,-7.54254,-6.51496,12.7521,-0.069319,0.0407843,-0.0211909,0.235989,0.460676,0.499531,-0.304321,0.690038,0.00118842,0.281084,2.88169,48.1869,0.0,0.0
5,0.0,-7.51472,-6.40905,12.8937,0.0294254,0.0255939,0.0243823,0.235989,-0.43802,-0.314773,-1.16656,-0.434819,-0.140233,0.281084,2.88169,48.1453,0.0,0.0
10,0.0,-7.68269,-6.53759,12.8063,-0.0313403,0.0635698,0.0927422,-0.566374,-0.43802,0.499531,0.557922,-0.0598663,0.284032,0.447131,3.8402,48.1869,0.0,0.0
15,0.0,-6.93909,-6.81123,12.5773,-0.0465318,-0.0655484,0.0167868,0.235989,0.460676,-0.314773,-0.304321,0.315086,0.00118842,0.447131,3.8402,47.9377,0.0,0.0
20,0.0,-7.29686,-7.01244,12.5336,0.0446169,-0.0275725,0.0927422,-0.566374,1.35937,0.499531,0.557922,-0.434819,0.00118842,0.613177,1.92317,48.1246,0.0,0.0
25,0.0,-7.58222,-7.02377,12.4462,-0.00855317,-0.0123821,0.0167868,0.235989,1.35937,-0.314773,-0.304321,0.315086,0.14261,0.779224,1.92317,47.9792,0.0,0.0
30,0.0,-6.68802,-6.59931,12.6697,0.014234,-0.0351676,-0.0287865,0.235989,0.460676,0.499531,0.557922,0.315086,0.00118842,0.613177,1.92317,48.0207,0.0,0.0
35,0.0,-6.98952,-6.47074,12.6426,0.0598083,0.0255939,0.047169,-0.566374,-0.43802,0.499531,-0.304321,-0.434819,0.14261,0.613177,1.92317,48.1661,0.0,0.0
40,0.0,-7.00651,-6.60496,12.626,-0.0389361,0.124331,0.00919125,0.235989,-0.43802,-1.12908,0.557922,0.315086,0.00118842,0.945271,1.92317,48.3322,0.0,0.0
45,0.0,-7.01217,-6.4543,12.4678,0.0598083,0.00280831,-0.0667642,-1.36874,0.460676,0.499531,-0.304321,-0.0598663,0.00118842,0.779224,0.964651,48.1869,0.0,0.0
50,0.0,-7.01784,-6.53811,12.2714,0.014234,-0.0123821,0.0167868,-0.566374,1.35937,-0.314773,-1.16656,-0.434819,-0.140233,0.779224,3.8402,47.9792,0.0,0.0
55,0.0,-7.1352,-6.38181,12.2332,0.0674041,0.0255939,0.0319779,1.03835,-0.43802,-0.314773,2.28241,0.315086,0.00118842,0.447131,1.92317,47.9792,0.0,0.0
60,0.0,-7.0235,-6.2312,12.4567,0.097787,-0.0199773,0.0395734,-0.566374,-0.43802,2.94244,0.557922,-0.0598663,0.00118842,0.613177,3.8402,48.353,0.0,0.0
65,0.0,-7.80639,-6.30933,12.1895,0.0218297,-0.0275725,-0.0895508,0.235989,0.460676,-1.12908,0.557922,-0.0598663,-0.140233,0.613177,0.964651,48.3322,0.0,0.0
70,0.0,-6.56563,-6.55509,12.1402,-0.0161489,-0.0275725,0.0623601,-0.566374,0.460676,0.499531,0.557922,-0.434819,0.14261,0.281084,1.92317,47.9792,0.0,0.0
75,0.0,-6.76108,-6.59417,12.1784,-0.0389361,-0.0199773,0.0319779,-0.566374,0.460676,-0.314773,0.557922,0.315086,-0.140233,0.281084,2.88169,48.3322,0.0,0.0
80,0.0,-5.87392,-6.41009,12.3583,-0.0313403,0.0179987,-0.0591687,-0.566374,0.460676,0.499531,0.557922,-0.0598663,-0.140233,0.447131,1.92317,48.1869,0.0,0.0
85,0.0,-5.79586,-6.41009,12.2055,0.280084,-0.0351676,0.0015957,0.235989,0.460676,-1.12908,0.557922,-0.0598663,-0.140233,0.447131,2.88169,48.1661,0.0,0.0
90,0.0,-6.19756,-6.53864,12.1945,0.0370212,-0.0807388,-0.036382,1.84072,0.460676,0.499531,2.28241,0.315086,0.00118842,0.613177,1.92317,48.1661,0.0,0.0
95,0.0,-5.76814,-6.18702,12.1181,0.143361,-0.0807388,-0.0667642,1.03835,1.35937,-0.314773,-0.304321,-0.434819,0.00118842,0.447131,1.92317,48.1661,0.0,0.0
100,0.62386,-5.73477,-6.42706,12.3035,0.0294254,-0.103524,-0.0743598,0.235989,1.35937,1.31384,-0.304321,0.690038,0.14261,0.281084,1.92317,48.1453,24.4704,0.0594507
105,4.91115,-5.62903,-6.24304,12.6361,0.196531,-0.050358,-0.0667642,0.235989,0.460676,0.499531,0.557922,-0.434819,0.14261,0.945271,2.88169,48,17.6317,0.1824314
110,6.85551,-4.73264,-5.61848,12.9796,0.219319,0.276235,0.0395734,1.84072,0.460676,1.31384,1.42016,-0.0598663,0.14261,0.945271,2.88169,48.1661,7.17118,0.22388
115,11.382,-4.49909,-5.73552,13.3231,0.0294254,0.169902,0.176293,1.03835,1.35937,0.499531,0.557922,0.690038,0.425454,0.779224,2.88169,48.0207,14.445,0.261966
120,21.1584,-4.78849,-5.94762,13.6118,0.166148,0.0104035,-0.104742,1.84072,0.460676,0.499531,-1.16656,0.690038,-0.140233,0.281084,1.92317,48,49.4105,0.44457
125,19.8665,-3.89378,-6.14284,13.7644,0.50036,0.00280831,0.0243823,2.64308,1.35937,1.31384,1.42016,1.06499,0.14261,0.613177,2.88169,48.2076,106.005,0.797783
130,23.8544,-3.62185,-6.18189,13.8788,0.120574,-0.0275725,0.00919125,3.44544,0.460676,1.31384,0.557922,-0.0598663,0.425454,0.779224,2.88169,47.9792,120.439,1.37465
135,31.2438,-3.15611,-6.14284,14.3365,0.659871,-0.0123821,0.0243823,2.64308,3.15676,1.31384,1.42016,0.690038,0.566876,0.945271,5.75724,48.0207,80.8743,1.84632
140,46.145,-1.3874,-5.21777,14.9736,1.07764,1.21804,-0.0287865,5.05017,2.25807,3.75675,2.28241,0.690038,0.708297,0.945271,4.79872,47.8131,111.131,2.32324
145,71.3745,0.534652,-4.36106,15.3547,0.249701,0.0635698,0.0927422,2.64308,1.35937,2.12814,0.557922,0.315086,0.566876,0.945271,3.8402,47.9584,176.628,3.07835
150,93.915,0.627318,-4.30579,15.7899,0.0218297,0.0104035,0.0243823,3.44544,3.15676,2.94244,0.557922,1.06499,0.566876,0.945271,4.79872,47.8338,220.034,4.06169
155,74.347,0.632861,-4.14459,16.4429,0.280084,0.0939506,-0.0667642,5.05017,3.15676,3.75675,2.28241,1.43994,0.991141,1.44341,6.71575,47.6885,257.455,5.25675
160,87.422,3.3073,-2.59781,16.8181,0.120574,-0.0199773,-0.036382,5.05017,3.15676,4.57105,1.42016,1.43994,0.991141,1.44341,4.79872,47.6677,309.756,6.70795
165,117.472,7.67066,-0.666727,17.6933,1.40425,1.67375,0.0775512,8.25962,4.95415,4.57105,2.28241,1.43994,1.13256,1.60946,5.75724,47.5224,377.655,8.4408
170,141.089,9.84471,1.55114,19.0185,0.0522126,-0.088334,0.0319779,7.45726,5.85285,3.75675,4.00689,1.8149,1.41541,1.7755,6.71575,47.5016,440.259,10.4151
175,158.618,8.83968,1.57833,19.9951,0.895338,0.00280831,0.13072,9.86435,6.75154,6.19966,3.14465,2.18985,1.55683,1.94155,7.67427,47.3355,401.632,12.4394
180,183.584,12.5454,2.42066,21.0958,0.751019,0.405353,0.0623601,10.6667,4.95415,6.19966,4.00689,2.18985,1.41541,2.1076,8.63279,47.1693,420.695,14.434
185,213.657,16.3192,4.60305,22.7637,0.857359,0.66359,0.237058,9.86435,4.05546,5.38536,3.14465,1.8149,1.41541,1.7755,6.71575,46.9824,513.366,16.7684
190,260.714,18.2593,6.2873,23.4831,2.64995,0.154712,0.145911,9.86435,4.95415,5.38536,4.00689,1.8149,1.55683,1.60946,8.63279,46.6502,558.12,19.4605
195,257.576,20.8628,7.30386,25.32,2.15623,0.45852,0.168698,13.8762,8.54893,8.64258,6.59362,2.5648,2.12251,2.43969,11.5083,46.6502,574.631,22.2807
200,270.269,27.1094,10.6741,27.3643,0.948508,0.162307,0.366182,9.86435,6.75154,7.01397,4.86914,2.5648,1.41541,2.1076,6.71575,46.5048,612.279,25.2043
205,307.277,31.8025,12.8014,29.0117,0.431999,-0.0351676,0.0319779,9.86435,5.85285,8.64258,4.00689,2.5648,1.98109,2.27365,8.63279,46.3387,788.99,28.6609
210,333.677,28.3047,14.0983,30.8178,2.33853,0.367377,0.0547645,11.4691,8.54893,7.01397,5.73138,1.8149,1.98109,2.27365,8.63279,46.048,1014.1,33.104
215,358.004,30.8634,15.6608,33.1087,1.19917,0.0635698,0.502902,17.0856,9.44763,10.2712,7.45586,4.06461,2.82962,2.77179,10.5498,45.6534,1016.96,37.982
220,382.302,31.6469,17.7485,36.3247,2.61197,0.580043,-0.0515731,19.4927,10.3463,11.8998,9.18035,4.06461,2.82962,3.10388,13.4254,45.4665,1218.5,43.5519
225,470.262,37.1851,23.6988,40.2769,1.48021,1.5978,2.31064,26.714,15.7385,16.7856,11.7671,5.56442,3.81958,4.26621,18.218,44.9889,1242.8,49.5896
230,582.34,58.5195,42.4842,49.1839,2.49804,3.10165,2.53851,28.3187,17.5359,17.5999,12.6293,6.68928,5.23379,5.09644,20.135,44.6982,1220.28,55.7285
235,579.613,62.968,46.5683,56.0526,2.51323,3.51179,3.25249,27.5163,17.5359,15.9713,11.7671,6.31432,4.66811,4.93039,18.218,44.1582,1240.07,62.1423
240,674.82,69.4693,48.3889,63.3429,1.33589,2.52441,0.639622,29.1211,16.6372,17.5999,12.6293,7.43918,5.09237,4.93039,19.1765,43.8675,1309.25,68.8323
245,699.184,71.0669,56.0169,76.4259,6.78202,4.48397,-0.0667642,37.1447,23.8268,23.3001,16.9405,8.18909,5.9409,5.59458,23.0105,43.3068,1510.86,75.7344
250,715.805,70.8522,59.5194,86.5947,2.9082,4.56752,1.27005,42.7613,24.7255,24.1144,17.8028,8.93899,6.08232,5.92667,24.9276,42.9953,1519.82,83.3617
255,738.006,77.0741,68.3966,95.2632,3.37154,5.62325,5.34126,41.9589,21.1307,23.3001,17.8028,8.93899,5.65806,5.42853,25.8861,42.5385,1623.52,91.2517
260,769.288,79.2738,71.8806,105.564,6.106,3.31431,0.259844,42.7613,22.0294,24.1144,19.5273,8.56404,6.08232,5.59458,26.8446,41.9986,1731.41,99.5648
265,903.16,88.9511,84.778,121.801,7.21498,4.74221,7.90096,47.5754,22.9281,24.9287,22.9762,9.31394,6.36517,6.42481,29.7202,41.7078,1751.38,108.214
270,908.101,103.688,98.8278,138.881,0.0749998,5.98782,6.68568,50.7849,27.4215,27.3716,23.8385,9.6889,6.93086,6.42481,33.5542,41.0226,1752.92,116.789
275,965.824,116.895,123.626,165.927,9.99501,5.37261,1.77136,56.4014,27.4215,29.8145,23.8385,11.5637,7.35512,7.58714,34.5127,40.7111,1633.23,125.124
280,1031.47,118.748,126.458,177.321,6.17437,6.3372,8.61494,55.5991,28.3202,29.0002,25.563,10.8138,6.93086,6.75691,36.4298,40.0466,1641.63,133.269
285,1043.93,127.086,143.204,213.916,5.92371,11.6994,8.72888,70.844,34.6111,36.3289,29.8742,13.4384,8.62792,8.41738,48.8905,39.3613,1738.11,141.765
290,1062.78,141.102,170.769,264.375,12.2585,5.96503,10.2024,75.6582,32.8137,33.0717,29.8742,14.9382,10.325,9.74575,58.4757,38.9044,1937.95,151.413
295,1016.74,161.839,198.557,301.258,8.62019,5.95744,5.14378,74.0534,33.7124,33.886,29.8742,15.6881,10.1836,9.74575,57.5171,38.2191,1949.02,161.428
300,1019.63,177.435,227.578,355.927,5.4072,2.82062,8.03009,75.6582,31.915,33.886,29.0119,15.6881,10.6078,10.0778,56.5586,37.7208,2013.79,171.508
305,1052.15,184.225,236.87,383.088,7.32892,8.27397,12.238,78.0653,34.6111,35.5146,30.7364,16.0631,11.1735,10.742,60.3927,37.0355,1968.23,181.747
310,1157.44,187.891,239.887,378.592,10.9521,11.8969,8.27314,78.8676,31.0163,36.3289,31.5987,17.1879,11.3149,10.9081,62.3097,36.371,2109.53,192.031
315,1179.73,176.661,224.839,369.477,5.49835,6.18529,9.68592,78.8676,35.5098,37.1432,30.7364,18.6878,12.8706,12.0704,66.1438,35.7272,2146.74,202.523
320,1246.06,187.694,236.11,368.75,5.7566,7.40052,7.05786,77.2629,31.0163,33.0717,29.0119,17.9378,11.5978,10.9081,62.3097,35.125,2197.99,213.264
325,1222.81,196.022,242.109,363.777,12.3573,5.90427,6.95912,76.4605,32.8137,35.5146,29.8742,18.3128,11.5978,11.2402,67.1023,34.3774,2381.28,224.797
330,1310.31,199.069,250.972,376.737,5.31605,2.63834,11.2734,90.1007,39.1046,41.2148,34.1854,22.8122,14.5676,13.8969,80.5216,33.7337,2870.84,237.849
335,1339.14,187.051,249.739,398.944,4.00199,9.26894,11.919,90.9031,42.6994,42.0291,35.0476,24.687,16.2647,15.3913,82.4386,33.0899,2593.49,251.571
340,1355.46,203.34,275.93,418.537,7.13143,12.4058,7.31611,90.1007,38.2059,39.5861,32.4609,23.1872,15.2747,14.5611,79.563,32.3839,2492.38,264.413
345,1436.64,206.084,279.824,429.879,8.44549,12.6336,6.61732,82.8794,36.4085,36.3289,30.7364,20.9375,14.1434,13.3988,73.8119,31.5532,2341.26,276.944
350,1740.56,206.846,280.268,428.116,4.08554,4.77259,2.66763,82.8794,34.6111,34.7003,29.8742,19.4377,13.4363,12.7346,74.7705,30.9095,2324.3,288.827
355,1595.95,204.984,278.272,426.106,6.26551,10.1044,6.91354,76.4605,31.915,32.2574,28.1497,18.6878,12.8706,11.9044,67.1023,30.0581,2428.79,300.718
360,1569.53,206.182,275.506,419.495,7.67832,10.7728,11.281,75.6582,30.1176,32.2574,29.0119,18.6878,12.8706,12.2365,64.2268,29.5389,2357.53,312.119
365,1497.63,207.7,271.935,421.976,9.24304,15.6413,10.172,80.4723,31.915,33.886,29.8742,19.4377,12.8706,11.9044,70.9364,28.7498,2233.03,323.437
370,1519.36,202.557,262.308,420.162,4.5431,6.41244,8.55169,81.0426,31.2931,33.1919,30.5422,19.0557,12.8554,12.2904,72.3421,28.2141,2290.45,334.747
375,1600.71,203.171,261.77,420.252,4.90588,15.4894,10.1037,72.4487,29.2189,29.8145,26.4252,17.9378,12.1635,11.4062,64.2268,27.6077,1902.95,344.898
380,1529.43,198.48,255.64,413.223,3.39433,7.08912,9.82264,73.2511,26.5228,30.6288,25.563,17.5629,12.022,11.2402,63.2682,26.9431,1910.73,354.353
385,1448.84,187.831,245.699,407.413,4.26784,8.60816,7.42244,70.844,26.5228,29.8145,26.4252,16.438,11.4564,10.742,63.2682,26.2579,1780.29,363.72
390,1519.35,177.343,232.669,393.364,3.28799,10.1728,9.84542,65.2274,23.8268,27.3716,22.9762,15.6881,11.1735,10.4099,60.3927,25.5726,1789.32,372.779
395,1278.45,168.227,220.928,381.302,7.8834,2.87379,4.80198,62.8203,23.8268,24.9287,22.9762,14.9382,10.6078,9.9118,56.5586,25.095,1862.76,381.916
400,1301.13,160.915,211.693,370.634,4.53369,7.08912,10.0353,62.8203,22.0294,24.9287,22.114,14.5633,10.1836,9.5797,56.5586,24.472,1812.64,390.96
405,1212.3,158.107,205.758,360.464,4.49571,9.45122,10.9316,58.8085,20.232,24.1144,21.2517,13.8134,9.61787,9.24761,51.766,23.9321,1640.2,399.729
410,1222.71,153.896,197.68,348.239,8.16445,7.2714,4.31587,54.7967,18.4346,23.3001,19.5273,13.8134,9.75929,9.41366,49.849,23.4752,1947.63,408.339
415,1260.53,149.579,194.785,339.86,4.94386,9.8082,7.42244,52.3896,20.232,22.4858,18.665,13.0635,9.05218,8.58342,47.932,22.9353,1600.54,417.108
420,1230.68,141.981,183.909,330.447,5.74901,3.54217,7.58195,46.7731,17.5359,17.5999,16.9405,11.9386,8.62792,7.91923,42.1809,22.4577,1585.85,425.115
425,1114.62,132.897,174.552,318.333,8.08089,5.75996,4.87034,41.9589,15.7385,17.5999,15.2161,11.1887,7.92081,7.42109,38.3468,21.7931,1404.41,432.501
430,1324.59,127.874,166.74,307.078,4.73118,3.45102,6.16158,40.3542,15.7385,15.9713,13.4916,10.4388,7.63796,6.92295,38.3468,21.4609,1302.47,439.339
435,1108.43,122.913,158.27,295.909,2.66514,5.23589,3.80696,35.54,13.0424,15.157,13.4916,10.4388,7.49654,7.25505,35.4713,20.9417,1316.37,445.983
440,1106.81,116.944,153.408,285.054,7.42006,12.1399,8.39467,33.9353,13.0424,14.3427,12.6293,8.93899,6.64801,6.09272,32.5957,20.4641,1333.3,452.455
445,1015.67,110.556,146.176,275.238,4.29822,1.80287,9.00232,29.9234,11.245,12.7141,10.9048,8.18909,6.08232,5.59458,28.7616,19.945,1217.21,458.692
450,950.957,108.744,142.477,266.426,4.97424,6.67138,3.15375,28.3187,13.9411,11.8998,8.31811,7.81413,5.9409,5.26249,28.7616,19.6127,1100.36,464.753
455,951.013,107.675,137.955,257.246,2.75629,6.77772,4.46778,24.3069,10.3463,11.8998,9.18035,7.06423,5.37522,4.93039,27.8031,19.2597,1068.93,470.186
460,955.567,104.719,131.527,248.93,2.04989,10.0968,1.33082,24.3069,10.3463,10.2712,6.59362,6.68928,4.95095,4.43225,23.0105,18.7821,1103.19,475.552
465,885.867,97.9676,126.171,240.359,2.0271,6.35998,1.79414,21.8998,8.54893,10.2712,8.31811,6.31432,4.52669,4.26621,23.0105,18.4498,1025.93,480.84
470,808.695,91.9347,118.257,231.416,2.71072,6.23086,4.07281,21.8998,8.54893,9.45688,7.45586,5.93937,4.52669,4.10016,21.0935,18.1175,1024.79,485.992
475,808.606,91.0261,114.991,224.08,2.29295,2.63074,5.81978,20.2951,8.54893,8.64258,5.73138,5.18947,4.10242,3.60202,21.0935,17.8061,1020.68,490.997
480,838.724,87.6457,111.09,217.703,3.18165,4.71942,1.73338,17.888,9.44763,7.82827,8.31811,5.56442,3.67815,3.93411,19.1765,17.6192,867.9,495.665
485,790.152,84.5673,106.758,211.167,5.46037,2.12187,2.59168,18.6904,8.54893,7.01397,6.59362,5.18947,3.53673,3.60202,19.1765,17.2869,783.354,500.059
490,787.458,78.5155,100.141,204.271,1.89797,3.94471,0.313013,17.888,7.65024,7.01397,6.59362,4.81451,3.25389,3.43597,18.218,16.9754,926.213,504.263
495,776.009,74.9387,95.1075,198.031,4.09314,1.85603,0.920657,17.0856,6.75154,7.01397,4.86914,4.81451,3.39531,2.93783,17.2594,17.1623,847.384,508.718
500,679.814,71.4139,90.8712,191.459,0.28768,2.3801,2.51572,16.2833,7.65024,7.01397,4.86914,4.81451,3.25389,3.10388,17.2594,16.4978,784.048,512.908
505,625.449,69.6643,89.0075,185.703,2.80946,1.40032,3.59429,15.4809,6.75154,7.82827,4.86914,4.06461,3.11247,2.93783,15.3424,16.1655,812.392,516.82
510,748.198,67.8043,87.0347,180.94,5.49075,2.2206,1.12574,14.6785,6.75154,5.38536,5.73138,4.06461,3.25389,2.93783,15.3424,15.8748,723.634,520.655
515,687.397,66.3733,84.2082,176.663,1.1384,3.10924,1.1865,15.4809,7.65024,5.38536,4.00689,4.06461,2.97105,2.93783,14.3839,15.6464,689.806,524.246
520,639.102,63.8824,81.4254,171.822,2.17142,1.33956,2.05999,14.6785,7.65024,6.19966,4.00689,4.06461,2.82962,3.10388,15.3424,15.2934,746.7,527.967
525,662.919,62.9221,79.9899,167.012,2.55121,3.52698,2.18911,13.8762,6.75154,7.01397,4.00689,3.31471,2.54678,2.77179,13.4254,14.9611,767.59,531.864
530,593.76,62.534,78.8324,163.752,1.82961,1.11171,3.00943,13.0738,5.85285,5.38536,4.00689,2.93975,2.54678,2.60574,14.3839,14.8157,838.97,535.808
535,558.202,59.856,76.088,159.228,4.28303,3.02569,1.85491,14.6785,6.75154,7.01397,3.14465,3.68966,2.54678,2.43969,13.4254,14.6496,696.818,539.504
540,587.311,58.7946,75.6168,154.863,2.57399,1.65856,0.799128,13.0738,4.95415,5.38536,4.00689,3.68966,2.26394,2.43969,12.4669,14.6288,659.789,542.925
545,598.241,58.8575,75.4962,151.625,2.52082,4.4384,2.69042,10.6667,4.05546,5.38536,4.00689,3.31471,2.12251,2.27365,12.4669,14.1305,636.392,546.163
550,660.431,58.5791,73.7157,147.927,2.43727,3.22317,1.83212,13.0738,4.95415,4.57105,2.28241,2.93975,2.26394,2.27365,11.5083,14.0059,637.284,549.26
555,547.277,57.1435,71.0026,144.294,3.47788,4.68904,1.50551,12.2714,4.95415,4.57105,1.42016,3.68966,1.83967,2.1076,11.5083,13.6736,652.947,552.309
560,525.582,55.8543,68.2885,140.479,5.27047,3.12443,3.19172,11.4691,4.05546,4.57105,1.42016,2.93975,1.98109,2.1076,10.5498,13.5075,608.675,555.432
565,521.39,54.3168,65.6939,136.644,1.16878,1.44589,1.83212,10.6667,4.95415,4.57105,4.00689,2.5648,1.98109,1.7755,11.5083,13.1337,592.569,558.443
570,529.22,53.1416,65.4423,134.164,2.88542,3.29912,1.39918,9.86435,4.95415,3.75675,1.42016,2.93975,1.83967,1.7755,9.5913,12.9883,654.185,561.483
575,527.73,50.8943,63.6117,130.862,1.03206,1.30918,0.540879,9.06199,3.15676,3.75675,2.28241,2.93975,1.69825,1.94155,7.67427,13.0091,606.899,564.537
580,492.019,48.1308,61.4914,128.322,3.01454,1.41551,3.27528,9.86435,2.25807,4.57105,2.28241,2.5648,1.55683,1.94155,11.5083,12.5107,585.391,567.446
585,478.294,47.1254,61.1553,124.945,1.52578,1.94718,1.95365,8.25962,3.15676,3.75675,3.14465,2.18985,1.55683,1.44341,7.67427,12.6561,519.929,570.271
590,530.762,46.2465,59.8055,122.114,2.17142,1.81806,1.78655,7.45726,4.95415,4.57105,3.14465,2.18985,1.41541,1.60946,9.5913,12.2823,510.572,572.914
595,499.059,46.686,58.4758,119.793,1.10042,1.51425,1.15612,7.45726,3.15676,3.75675,1.42016,1.43994,1.55683,1.44341,7.67427,12.1784,481.086,575.371
600,481.18,44.9111,56.8613,117.636,2.96897,1.96237,0.996612,8.25962,3.15676,3.75675,1.42016,1.8149,1.41541,1.60946,9.5913,11.9708,459.71,577.744
605,438.907,46.289,58.4496,116.822,2.27776,2.59277,2.96386,8.25962,4.05546,3.75675,2.28241,1.8149,1.27398,1.60946,7.67427,11.9915,459.281,579.988
610,435.487,46.4056,58.7494,115.487,3.6298,2.34213,0.799128,7.45726,4.05546,4.57105,3.14465,1.8149,1.13256,1.44341,7.67427,11.8462,518.889,582.316
615,417.864,45.1391,57.2717,113.324,1.38906,2.44846,2.53851,7.45726,3.15676,3.75675,2.28241,1.43994,1.27398,1.60946,8.63279,12.8014,408.665,584.387
620,409.682,45.187,55.2193,111.477,4.13871,4.02826,1.8777,7.45726,3.15676,4.57105,1.42016,2.18985,1.27398,1.27736,8.63279,10.8286,408.688,586.446
625,414.515,46.0719,56.0616,109.95,1.69289,2.41808,1.11055,7.45726,4.05546,4.57105,2.28241,1.8149,1.13256,1.44341,8.63279,11.3478,436.253,588.643
630,469.012,45.537,55.7513,108.228,2.99935,3.6409,3.72341,7.45726,4.05546,2.94244,2.28241,2.18985,1.27398,1.44341,7.67427,11.327,476.398,590.931
635,374.102,47.1629,57.3298,107.482,1.05485,1.52185,1.3612,8.25962,4.05546,4.57105,2.28241,1.8149,1.55683,1.27736,6.71575,10.8286,481.058,593.318
640,361.194,47.2107,58.6288,107.455,1.56376,4.87132,1.64223,8.25962,4.05546,4.57105,2.28241,2.18985,1.41541,1.7755,8.63279,10.8286,484.396,595.797
645,384.782,48.3904,59.4329,106.376,3.52346,3.12443,1.39158,9.06199,4.95415,4.57105,2.28241,1.8149,1.41541,1.60946,10.5498,10.6417,499.1,598.27
650,404.223,50.3511,60.9406,105.709,4.83752,5.33463,1.14852,9.86435,5.85285,4.57105,3.14465,2.18985,1.41541,1.60946,8.63279,10.2887,595.33,600.911
655,395.562,50.3988,61.9436,106.498,1.77644,3.26114,3.37402,9.86435,3.15676,3.75675,3.14465,1.8149,1.55683,1.44341,7.67427,10.1434,536.301,603.775
660,400.701,48.8029,61.0562,106.678,1.86759,3.71686,3.08539,9.86435,4.05546,2.94244,2.28241,2.18985,1.41541,1.60946,7.67427,10.1641,549.463,606.469
665,413.293,50.0344,60.736,106.651,4.54888,5.69161,2.52332,10.6667,4.05546,3.75675,3.14465,2.18985,1.55683,1.44341,8.63279,9.95647,505.424,609.085
670,489.556,52.2936,63.6808,107.027,4.03997,3.00291,2.09037,9.86435,4.95415,4.57105,3.14465,2.18985,1.55683,1.60946,7.67427,9.83187,466.852,611.562
675,439.938,52.5521,62.983,106.545,2.87023,4.81816,3.42719,11.4691,4.05546,5.38536,4.00689,2.18985,1.41541,1.7755,8.63279,9.52038,468.687,613.961
680,446.033,54.5497,64.494,107.292,3.66778,3.10924,2.52332,10.6667,4.05546,5.38536,3.14465,2.18985,1.69825,1.7755,8.63279,9.52038,496.45,616.436
685,408.406,53.5432,63.4552,106.762,0.318063,3.37507,0.844701,8.25962,4.05546,5.38536,3.14465,1.8149,1.27398,1.60946,8.63279,9.33348,474.687,618.857
690,396.095,50.6473,62.5581,104.859,1.81442,1.40032,2.95626,8.25962,3.15676,5.38536,2.28241,2.18985,1.41541,1.44341,7.67427,9.14659,474.51,621.253
695,399.871,51.6396,61.7811,103.855,3.61461,4.44599,4.6045,8.25962,4.05546,4.57105,4.00689,1.8149,1.41541,1.60946,7.67427,8.95969,430.977,623.359
700,410.548,50.4309,62.0857,103.976,5.2249,3.13203,4.83996,8.25962,4.05546,4.57105,3.14465,1.8149,1.27398,1.60946,6.71575,8.8351,434.933,625.422
705,390.079,49.0255,61.0199,103.791,3.7969,5.88908,2.61446,9.06199,4.05546,4.57105,2.28241,1.8149,1.27398,1.60946,8.63279,8.66897,416.732,627.598
710,410.52,47.8355,60.8308,103.601,2.01951,5.00804,2.67523,7.45726,4.05546,4.57105,3.14465,1.8149,1.41541,1.7755,6.71575,10.8079,424.357,629.742
715,369.867,48.8088,61.8706,102.946,2.2094,1.22563,3.2297,7.45726,4.05546,3.75675,3.14465,1.8149,1.41541,1.44341,7.67427,9.31272,426.335,631.886
720,383.733,47.5816,60.1375,102.534,1.95114,4.64347,2.17392,7.45726,2.25807,4.57105,3.14465,1.8149,1.27398,1.44341,6.71575,8.31595,434.989,633.986
725,354.686,45.9562,57.8617,100.324,3.05252,2.21301,3.95887,6.6549,4.05546,4.57105,4.00689,1.43994,1.27398,1.44341,6.71575,8.62744,398.991,636.039
730,368.916,43.2089,54.7303,98.368,2.24738,1.09652,2.95626,6.6549,3.15676,2.12814,2.28241,1.43994,1.27398,1.27736,7.67427,8.00445,444.586,638.152
735,366.5,42.4072,53.7875,96.7986,3.22723,2.12946,5.21214,7.45726,3.15676,3.75675,2.28241,1.8149,1.13256,1.44341,6.71575,7.98369,401.047,640.29
740,372.254,40.6206,51.0553,94.9196,1.8524,4.17257,2.40179,7.45726,4.05546,3.75675,3.14465,1.43994,1.13256,1.27736,7.67427,7.85909,381.888,642.368
745,337.652,39.0552,52.4958,95.6563,6.20475,1.66615,1.49032,8.25962,2.25807,3.75675,2.28241,1.43994,1.27398,1.11132,6.71575,7.83832,368.274,644.257
750,377.422,40.4716,52.4958,95.0301,3.78931,2.00034,1.20169,7.45726,2.25807,3.75675,3.14465,1.8149,0.991141,1.60946,5.75724,7.5476,365.145,646.124
755,348.76,39.508,51.0976,93.9675,3.89565,2.75986,3.82216,7.45726,2.25807,5.38536,3.14465,1.43994,1.13256,1.27736,5.75724,7.4853,342.984,647.906
760,339.138,38.4636,49.9147,92.7529,2.09546,4.60549,3.25249,7.45726,3.15676,2.12814,3.14465,1.8149,1.13256,1.44341,7.67427,7.31917,318.314,649.619
765,330.03,38.8475,49.9624,91.6231,4.41975,5.01563,2.53851,7.45726,4.05546,2.12814,1.42016,1.8149,0.991141,1.27736,7.67427,7.3607,344.905,651.337
770,328.585,38.0638,48.7416,90.7772,2.09546,3.54217,0.814319,5.85253,2.25807,4.57105,3.14465,1.06499,0.991141,1.11132,5.75724,7.29841,380.207,653.214
775,313.443,38.0584,48.6992,90.2204,2.25497,5.62325,2.12075,5.85253,3.15676,2.94244,3.14465,1.43994,1.27398,1.27736,7.67427,7.17381,313.466,654.94
780,298.002,38.0638,50.1473,91.1082,2.63476,6.61062,2.69042,6.6549,3.15676,3.75675,2.28241,1.43994,1.13256,1.44341,7.67427,6.98691,325.063,656.543
785,311.169,39.2897,51.731,91.2132,2.5588,2.03832,1.90808,6.6549,1.35937,2.94244,2.28241,1.06499,0.991141,1.11132,6.71575,6.65466,319.765,658.16
790,344.471,39.3432,49.9731,89.7952,0.918125,3.83078,2.3866,9.06199,2.25807,3.75675,2.28241,1.43994,1.27398,1.11132,5.75724,6.82079,329.627,659.809
795,287.699,38.5437,49.4762,89.5587,3.21203,3.73205,2.77397,6.6549,3.15676,3.75675,2.28241,1.06499,1.27398,1.27736,5.75724,6.46776,287.983,661.34
800,293.512,37.5465,48.5989,89.5325,1.70048,3.23076,3.92849,5.85253,3.15676,3.75675,1.42016,1.43994,1.27398,1.44341,5.75724,6.447,300.092,662.777
805,283.567,36.5002,46.821,88.1361,2.62716,0.633209,0.791532,5.05017,2.25807,3.75675,2.28241,1.43994,1.13256,1.27736,6.71575,6.34317,306.385,664.279
810,308.888,35.6134,46.2386,87.4854,2.93859,3.3295,1.61185,5.05017,3.15676,2.94244,2.28241,0.690038,0.991141,0.945271,6.71575,6.50929,359.393,665.954
815,280.673,35.6188,45.6506,86.7928,2.47525,2.98772,1.88529,5.85253,3.15676,2.94244,2.28241,1.43994,1.13256,1.27736,6.71575,6.15627,331.205,667.701
820,286.094,34.8328,44.5744,84.9935,4.01718,3.77002,1.80174,5.85253,1.35937,2.12814,3.14465,1.06499,0.991141,1.27736,4.79872,6.1355,313.345,669.405
825,281.951,36.2943,47.0701,85.8938,2.11651,2.00055,2.36815,5.45371,3.53295,2.51385,2.26771,1.25026,1.24962,1.02278,6.0059,5.98234,313.521,671.018
830,319.092,36.7353,47.758,85.7225,3.9868,2.95734,3.71582,6.6549,2.25807,2.12814,4.00689,1.43994,0.991141,1.11132,5.75724,5.82401,298.768,672.573
835,297.54,38.9437,49.466,86.0216,5.54392,4.65866,3.86773,4.24781,3.15676,2.94244,3.14465,1.8149,0.991141,1.27736,5.75724,5.82401,291.746,674.066
840,285.949,41.1052,51.0928,87.0132,2.47525,2.56998,2.2043,6.6549,3.15676,2.12814,2.28241,1.06499,0.849719,1.27736,6.71575,5.82401,304.317,675.544
845,289.878,40.5094,51.0928,87.3805,3.9868,1.68894,3.99685,5.05017,2.25807,3.75675,0.557922,1.06499,1.13256,1.27736,6.71575,5.65788,314.279,677.06
850,287.562,38.9118,48.8424,86.8349,1.61693,1.9092,1.04978,5.85253,3.15676,2.12814,1.42016,1.43994,0.991141,1.27736,4.79872,5.49175,368.34,678.746
855,273.702,35.5548,46.6255,85.665,3.22723,5.73718,5.25012,5.85253,1.35937,2.12814,1.42016,1.43994,1.41541,0.945271,5.75724,5.53329,277.927,680.316
860,279.909,36.933,47.2501,85.5129,1.95114,0.891445,2.78916,5.85253,3.15676,3.75675,1.42016,1.43994,0.991141,1.27736,6.71575,5.65788,266.68,681.725
865,278.118,34.8117,44.5163,84.2753,1.42704,2.48644,3.16134,5.05017,2.25807,3.75675,3.14465,0.690038,1.13256,1.27736,6.71575,5.1595,306.633,683.201
870,310.188,35.0737,44.7019,83.4311,3.77412,3.93712,1.16371,4.24781,1.35937,2.12814,3.14465,1.43994,1.13256,1.44341,5.75724,5.30486,319.003,684.769
875,235.831,35.1378,44.1342,83.1269,1.54857,3.1776,3.34364,4.24781,1.35937,2.94244,1.42016,1.06499,1.13256,1.27736,6.71575,5.20103,315.421,686.361
880,228.169,35.0737,45.0731,83.2843,2.08027,3.35229,2.00682,3.44544,3.15676,2.94244,2.28241,1.43994,1.13256,1.27736,5.75724,4.99337,309.542,687.913
885,252.129,33.8431,43.9646,82.5557,1.22195,1.79527,2.13594,5.05017,3.15676,2.94244,2.28241,1.06499,0.991141,1.27736,4.79872,5.1595,294.972,689.435
890,260.815,34.0251,44.442,82.477,2.47525,2.64593,3.86773,6.6549,2.25807,2.12814,1.42016,1.8149,1.13256,1.11132,5.75724,4.82724,356.43,691.01
895,242.994,32.0748,43.5877,82.0367,2.74869,2.52441,2.37141,3.44544,2.25807,2.94244,2.28241,1.06499,0.991141,0.945271,7.67427,4.82724,297.918,692.674
900,245.344,32.225,43.1417,81.3029,4.09314,3.70926,3.98166,6.6549,3.15676,2.94244,1.42016,1.8149,1.13256,1.27736,4.79872,4.82724,270.001,694.149
905,241.138,34.0734,43.7471,80.9834,3.38674,2.34213,2.18152,5.85253,3.15676,2.94244,3.14465,1.06499,1.13256,1.27736,5.75724,4.64034,295.555,695.629
910,283.661,33.6666,43.3809,80.8419,0.310467,2.3877,0.951039,5.05017,1.35937,2.94244,1.42016,0.690038,0.991141,1.11132,5.75724,4.68188,281.303,697.067
915,248.447,32.1553,42.8126,80.061,3.75893,3.46621,2.02961,5.85253,2.25807,2.94244,2.28241,1.06499,0.991141,1.44341,5.75724,4.51575,250.058,698.387
920,229.519,33.8485,43.8214,80.3964,1.83721,0.974993,4.0804,5.85253,3.15676,2.12814,4.00689,1.43994,1.13256,1.27736,4.79872,4.72341,241.236,699.629
925,241.245,32.3968,42.3825,79.5634,3.91084,4.01307,5.05263,5.05017,3.15676,1.31384,1.42016,1.43994,0.849719,1.11132,4.79872,4.51575,247.604,700.875
930,239.768,31.646,41.1544,79.3067,1.29032,3.69407,2.2119,5.85253,1.35937,1.31384,4.00689,1.43994,1.27398,1.27736,5.75724,4.34962,265.608,702.218
935,210.922,30.7819,41.3778,78.9032,1.71568,2.51682,2.48534,5.85253,0.460676,2.12814,3.14465,1.06499,0.708297,0.945271,5.75724,4.28732,267.424,703.516
940,202.442,30.0244,41.0001,77.9444,3.66778,0.823089,1.77136,4.24781,2.25807,3.75675,2.28241,0.690038,1.13256,1.27736,4.79872,4.14196,263.602,704.855
945,202.507,29.2397,40.5213,78.2797,2.35372,2.81303,2.81195,5.05017,1.35937,2.94244,2.28241,0.690038,1.13256,1.27736,6.71575,4.12119,247.389,706.134
950,211.427,29.5086,39.4086,77.6249,1.47261,2.34213,1.39918,5.85253,2.25807,3.75675,2.28241,1.8149,0.991141,1.11132,6.71575,3.97583,260.959,707.381
955,209.55,27.6631,37.057,76.7081,1.41944,1.18006,2.63725,5.05017,0.460676,2.94244,1.42016,1.43994,0.991141,1.11132,6.71575,4.16272,266.137,708.729
960,211.375,25.7388,34.8501,75.828,2.16382,3.29912,2.0448,5.05017,1.35937,2.94244,2.28241,1.06499,0.849719,1.27736,5.75724,3.9966,273.485,710.081
965,211.164,28.2399,36.2309,75.7258,0.45116,1.59955,4.84875,5.72768,2.56945,3.07208,1.1874,1.29552,1.15646,1.04009,6.10736,3.81775,262.269,711.357
970,210.507,27.0975,35.4865,75.0212,2.86263,2.21301,1.40677,5.05017,2.25807,3.75675,2.28241,1.06499,0.991141,1.27736,4.79872,3.83047,301.06,712.765
975,208.938,26.1919,34.0261,74.5079,2.57399,1.48387,1.22448,6.6549,2.25807,0.499531,4.00689,1.43994,0.849719,1.27736,5.75724,3.85123,269.733,714.129
980,216.245,24.951,33.7691,73.6331,1.07764,2.15225,1.81693,5.05017,2.25807,2.94244,1.42016,0.690038,0.849719,1.27736,5.75724,3.6851,253.627,715.418
985,202.856,25.712,35.0856,73.6384,2.85503,3.87635,1.80934,5.85253,1.35937,3.75675,2.28241,1.06499,1.13256,1.27736,7.67427,3.66434,254.508,716.664
990,239.162,26.5748,36.1278,73.523,2.29295,0.466115,2.49293,7.45726,3.15676,2.12814,3.14465,1.06499,0.991141,1.11132,4.79872,3.49821,223.905,717.882
995,216.53,26.0464,35.417,72.2395,0.530743,3.47381,1.68021,5.05017,2.25807,2.12814,2.28241,1.06499,0.991141,1.27736,5.75724,3.49821,205.568,718.985
1000,210.198,27.2915,37.0624,73.0096,3.81969,3.83078,6.44262,5.85253,2.25807,0.499531,3.14465,1.06499,0.991141,1.27736,6.71575,3.47744,234.676,720.056
1005,208.996,26.2351,35.8286,72.5329,0.295276,0.580043,1.72578,5.85253,1.35937,2.12814,1.42016,1.06499,1.13256,1.11132,7.67427,3.47744,248.712,721.291
1010,189.312,24.8754,34.1064,72.1294,0.788998,3.15481,2.23469,6.6549,1.35937,2.12814,1.42016,0.690038,0.849719,1.27736,4.79872,3.49821,261.101,722.577
1015,180.065,24.3516,34.6363,72.5382,1.4954,1.73451,1.04978,5.85253,1.35937,2.12814,2.28241,1.43994,0.991141,1.27736,5.75724,3.35285,221.43,723.709
1020,193.001,25.0753,35.1284,72.4335,1.39666,2.16744,3.2373,5.85253,1.35937,2.12814,2.28241,1.06499,0.849719,1.27736,6.71575,3.31131,220.175,724.823
1025,194.66,24.3138,33.8495,71.5479,1.46502,3.3371,3.16894,5.85253,1.35937,2.12814,4.00689,1.06499,0.991141,1.27736,5.75724,3.37361,240.263,725.951
1030,212.825,25.2264,34.4919,71.6999,1.16878,2.74467,3.2373,5.85253,2.25807,2.94244,1.42016,0.690038,0.849719,1.27736,5.75724,3.16595,247.398,727.135
1035,180.386,24.0167,33.8175,71.2965,1.44223,4.13459,3.38921,6.6549,3.15676,2.12814,2.28241,1.06499,1.13256,1.27736,4.79872,3.16595,226.097,728.368
1040,173.999,25.5719,35.583,71.4118,1.44983,1.84084,1.99163,5.85253,1.35937,2.12814,0.557922,1.43994,1.13256,0.945271,5.75724,2.97906,228.06,729.5
1045,185.13,24.1789,32.8909,70.5735,0.788998,1.26361,1.72578,3.44544,2.25807,2.94244,2.28241,0.690038,0.991141,1.27736,5.75724,2.83369,236.847,730.691
1050,182.464,23.3357,32.3548,70.3061,1.19917,0.435734,0.707981,4.24781,2.25807,2.94244,3.14465,1.06499,1.27398,1.27736,6.71575,3.02059,271.224,731.988
1055,175.726,22.9681,32.5533,69.2529,1.89797,0.86866,1.65742,5.05017,2.25807,2.12814,1.42016,1.06499,1.13256,1.11132,5.75724,2.81293,245.31,733.297
1060,173.937,21.5554,31.1155,68.0681,3.42471,2.88898,3.09298,5.85253,1.35937,2.94244,2.28241,1.06499,0.991141,1.27736,5.75724,2.83369,234.138,734.468
1065,167.815,23.26,31.7917,67.7012,2.71831,1.69654,2.69801,4.24781,1.35937,2.12814,3.14465,1.06499,0.849719,1.11132,6.71575,2.66756,229.053,735.606
1070,191.466,24.4004,33.1481,68,2.23219,2.00794,3.98166,5.85253,2.25807,2.94244,3.14465,1.43994,1.13256,1.27736,5.75724,2.66756,231.958,736.793
1075,191.959,23.7574,32.3977,67.523,2.15623,1.64337,0.153507,4.24781,3.15676,2.12814,3.14465,0.690038,0.991141,1.11132,5.75724,2.6468,233.456,738.016
1080,190.926,23.3466,31.8776,67.2347,0.910529,0.777518,1.27005,4.24781,2.25807,2.12814,0.557922,0.690038,0.991141,1.11132,5.75724,2.6468,227.695,739.145
1085,188.511,23.1195,32.5533,67.1613,2.55121,3.42824,2.62965,5.05017,2.25807,1.31384,3.14465,0.690038,1.13256,1.27736,6.71575,2.5222,218.764,740.305
1090,184.163,23.9789,32.9926,66.6735,1.41944,2.73708,1.74857,4.24781,2.25807,2.12814,2.28241,1.06499,1.13256,1.44341,5.75724,2.50144,254.589,741.512
1095,184.784,24.8973,33.8658,66.9777,3.21203,2.53201,2.09037,5.05017,1.35937,2.12814,2.28241,1.43994,0.991141,1.44341,5.75724,2.31454,204.934,742.595
1100,192.107,25.7393,34.064,66.9517,0.994082,3.90674,3.51833,3.44544,1.35937,2.12814,0.557922,1.06499,1.13256,1.44341,4.79872,2.18994,202.724,743.535
1105,185.722,25.6206,33.9462,66.9096,3.2652,3.19279,2.7208,4.24781,2.25807,2.12814,2.28241,1.06499,0.849719,1.27736,6.71575,2.16918,217.124,744.589
1110,208.911,25.8472,33.7963,66.2856,1.76885,1.87882,0.533284,5.05017,2.25807,0.499531,2.28241,1.43994,0.991141,1.11132,4.79872,2.35607,215.126,745.683
1115,174.025,25.3129,33.2285,65.8765,3.43231,3.19279,2.34862,5.05017,1.35937,2.94244,1.42016,1.06499,1.13256,1.11132,4.79872,2.16918,195.877,746.713
1120,166.229,24.568,33.2768,65.3731,2.34612,1.68894,2.16633,3.44544,2.25807,2.12814,2.28241,1.06499,0.991141,1.11132,4.79872,2.10688,202.929,747.677
1125,171.224,23.6981,32.7517,65.4098,1.29032,0.990183,1.27765,3.44544,3.15676,0.499531,1.42016,1.06499,1.13256,1.27736,3.8402,2.12765,202.352,748.66
1130,171.315,22.5894,31.9527,65.3257,1.99672,1.36235,2.67523,5.05017,1.35937,3.75675,4.00689,1.43994,0.849719,1.11132,5.75724,2.02381,216.492,749.676
1135,163.862,22.4165,30.8045,64.9377,2.13344,2.30415,2.37141,4.24781,2.25807,2.12814,0.557922,1.06499,0.708297,0.779224,3.8402,2.00305,199.325,750.71
1140,169.469,22.1079,30.5359,64.8223,1.95874,1.98515,2.14354,4.24781,2.25807,1.31384,2.28241,0.690038,0.991141,1.11132,7.67427,1.98228,190.683,751.672
1145,161.017,22.0321,29.4075,63.9775,1.70808,1.21804,0.875083,3.44544,2.25807,2.94244,1.42016,1.06499,0.849719,1.27736,5.75724,1.85769,172.778,752.609
1150,177.012,20.8569,27.8633,62.5446,1.03206,2.31175,1.08776,3.44544,1.35937,1.31384,1.42016,1.43994,1.13256,1.27736,5.75724,2.02381,176.21,753.454
1155,154.939,19.3062,26.0581,61.1898,1.16119,0.838279,0.82951,4.24781,1.35937,1.31384,1.42016,1.06499,0.991141,1.11132,4.79872,1.87845,164.418,754.272
1160,153.404,18.4704,25.5294,60.5279,1.63212,1.33956,1.23967,3.44544,3.15676,2.12814,1.42016,1.06499,0.849719,1.27736,6.71575,1.83692,158.016,755.088
1165,146.365,17.6015,24.8169,59.8343,1.22955,1.86363,1.61945,4.24781,0.460676,1.31384,1.42016,1.43994,0.849719,0.779224,5.75724,1.81615,165.351,755.906
1170,150.898,17.634,24.9248,59.7922,1.38146,2.72948,3.38921,4.24781,2.25807,2.12814,1.42016,1.06499,0.849719,1.11132,6.71575,1.65003,158.207,756.766
1175,140.38,17.8621,25.9448,59.9026,2.60438,1.51425,1.29284,5.05017,1.35937,1.31384,1.42016,1.06499,0.849719,0.945271,5.75724,1.81615,146.302,757.531
1180,127.76,17.3732,25.3459,59.2456,0.492765,2.72948,1.54349,2.64308,3.15676,2.12814,1.42016,1.43994,0.708297,1.11132,4.79872,1.69156,163.315,758.323
1185,138.711,17.1069,24.7413,58.4359,0.743423,2.48644,1.93086,4.24781,2.25807,2.12814,2.28241,0.690038,0.991141,0.779224,4.79872,1.67079,170.395,759.156
1190,134.218,17.6775,24.5901,58.1414,0.743423,2.25098,3.26008,4.24781,1.35937,1.31384,1.42016,1.06499,0.849719,1.27736,4.79872,1.4839,155.106,759.977
1195,123.716,16.3458,22.9254,57.5155,0.880146,1.32437,1.96125,4.24781,2.25807,1.31384,1.42016,1.43994,0.849719,0.945271,4.79872,1.69156,157.657,760.751
1200,137.707,15.1381,22.0273,57.1946,1.42704,0.526876,2.52332,3.44544,1.35937,2.94244,3.14465,1.06499,0.708297,1.11132,3.8402,1.62926,144.104,761.526
1205,138.942,14.4411,21.1824,56.8156,0.675062,0.724351,2.2119,3.44544,2.25807,2.12814,1.42016,1.43994,0.991141,1.11132,3.8402,1.50466,150.103,762.263
1210,130.67,13.6785,20.0442,56.2629,0.751019,0.504091,1.17891,1.84072,0.460676,2.94244,1.42016,1.06499,0.708297,0.945271,4.79872,1.52543,161.435,763.012
1215,133.241,13.9836,20.4616,55.8575,0.477573,1.77249,2.13594,3.44544,2.25807,1.31384,1.42016,1.06499,0.708297,0.945271,5.75724,1.50466,141.193,763.778
1220,121.43,14.3704,19.9737,55.6049,0.918125,1.04335,0.662408,4.24781,2.25807,1.31384,2.28241,0.690038,0.849719,1.11132,2.88169,1.4839,141.532,764.481
1225,123.8,12.5776,18.9864,54.6093,1.13081,0.549662,0.586453,4.24781,1.35937,1.31384,1.42016,1.43994,0.849719,0.945271,3.8402,1.33853,140.983,765.185
1230,130.482,11.3614,18.4979,54.3933,0.097787,1.55223,1.49792,4.24781,2.25807,1.31384,1.42016,0.690038,0.566876,0.945271,4.79872,1.33853,135.984,765.856
1235,120.173,11.6614,18.6064,53.9822,0.530743,1.66615,0.890275,3.44544,1.35937,2.12814,1.42016,0.690038,1.13256,0.613177,4.79872,1.3593,123.895,766.496
1240,122.155,11.8142,18.4544,53.4655,1.17638,2.12187,0.350991,4.24781,2.25807,2.12814,-0.304321,1.06499,0.708297,1.27736,3.8402,1.297,134.054,767.174
1245,121.889,11.7107,17.9332,53.3655,1.03966,0.504091,1.24727,2.64308,2.25807,2.94244,0.557922,0.690038,0.566876,1.11132,4.79872,1.19317,137.083,767.868
1250,119.091,11.3559,17.7701,53.0226,0.956104,2.32694,2.43977,1.84072,2.25807,1.31384,0.557922,1.06499,0.708297,1.11132,4.79872,1.3593,140.723,768.541
1255,109.495,11.1323,17.5094,52.2894,1.35868,0.906636,0.890275,2.64308,1.35937,2.12814,2.28241,1.43994,0.849719,0.945271,5.75724,1.3593,137.043,769.185
1260,109.909,9.87693,16.0687,51.1124,0.257297,0.716756,1.36879,4.24781,3.15676,2.12814,2.28241,1.43994,0.708297,1.11132,4.79872,1.15164,147.004,769.889
1265,112.247,9.64228,15.2151,50.4914,0.251018,0.24409,-0.054965,3.71331,1.31412,1.20965,0.797458,0.84855,0.696329,1.25202,3.56012,1.15457,133.726,770.59
1270,124.894,9.72405,15.3832,50.447,0.963699,0.731946,2.12075,2.64308,1.35937,0.499531,0.557922,0.690038,0.708297,0.779224,3.8402,1.00628,126.888,771.242
1275,113.587,9.68029,15.3776,49.8499,0.143361,0.139522,0.707981,2.64308,1.35937,2.12814,1.42016,1.43994,0.566876,0.945271,3.8402,0.98551,133.105,771.889
1280,111.82,9.25979,15.1109,49.5909,0.637083,3.73205,0.19908,3.44544,-0.43802,2.12814,2.28241,0.690038,0.708297,1.11132,4.79872,1.19317,141.791,772.578
1285,100.732,9.86587,15.334,49.4005,1.44983,2.25858,2.62965,3.44544,1.35937,0.499531,0.557922,0.315086,0.708297,0.945271,4.79872,1.00628,133.49,773.258
1290,105.549,10.4828,16.3678,49.6649,0.583913,0.974993,0.556071,4.24781,2.25807,2.12814,1.42016,0.690038,0.849719,0.945271,3.8402,1.00628,148.395,773.932
1295,104.551,9.87693,16.1068,49.0782,0.318063,0.47371,0.951039,3.44544,2.25807,2.94244,0.557922,1.43994,0.708297,1.11132,3.8402,1.00628,137.713,774.644
1300,108.013,9.30356,15.8402,48.5969,0.561126,1.96996,1.73338,3.44544,1.35937,1.31384,1.42016,1.06499,0.849719,0.945271,3.8402,0.98551,128.26,775.31
1305,107.165,9.22709,15.726,48.0414,1.37387,0.0787602,1.0194,3.44544,0.460676,1.31384,1.42016,0.690038,0.708297,0.779224,4.79872,1.04781,123.035,775.951
1310,120.984,10.1007,14.768,47.3321,1.05485,1.62818,0.40416,4.24781,2.25807,0.499531,3.14465,0.315086,0.708297,0.945271,3.8402,0.819381,107.006,776.538
1315,115.876,9.64207,14.4249,47.1098,1.6701,1.7573,2.13594,1.84072,3.15676,2.12814,1.42016,0.690038,0.849719,1.27736,5.75724,0.798615,123.947,777.133
1320,112.933,8.9484,13.8093,47.2156,0.409212,0.526876,0.434542,3.44544,1.35937,2.12814,2.28241,1.06499,0.566876,0.945271,4.79872,0.674018,128.281,777.77
1325,109.191,8.48399,13.5368,46.8025,1.23715,0.504091,1.26246,4.24781,2.25807,1.31384,2.28241,1.06499,0.566876,1.11132,4.79872,0.819381,109.969,778.384
1330,99.3402,8.77381,13.4445,46.4532,0.629488,1.07373,1.0118,2.64308,2.25807,1.31384,1.42016,0.690038,0.708297,0.945271,4.79872,0.819381,115.682,778.958
1335,100.479,8.80651,14.2017,46.4107,1.17638,1.22563,0.601644,2.64308,1.35937,1.31384,1.42016,1.06499,0.849719,0.945271,4.79872,0.694784,97.5125,779.477
1340,100.377,8.80651,13.7822,46.2253,0.333254,0.618019,0.0243823,2.64308,0.460676,0.499531,2.28241,0.690038,0.991141,1.11132,2.88169,0.840147,99.349,779.973
1345,93.8787,7.81213,13.1338,45.8172,0.971295,2.20541,2.24228,4.24781,-0.43802,1.31384,1.42016,0.690038,0.708297,1.11132,4.79872,0.840147,100.746,780.484
1350,113.655,7.77941,12.4906,44.9319,0.363637,0.982588,0.776341,2.64308,2.25807,1.31384,2.28241,0.690038,0.566876,0.945271,2.88169,0.674018,106.395,781.002
1355,90.1908,7.39686,12.5287,44.8576,0.530743,0.329401,1.04978,1.84072,2.25807,1.31384,0.557922,0.315086,0.708297,1.27736,3.8402,0.674018,114.489,781.552
1360,90.1144,7.54435,11.7597,44.3323,0.857359,0.147117,0.13072,1.84072,0.460676,2.12814,2.28241,0.315086,0.849719,0.945271,3.8402,0.71555,111.602,782.13
1365,91.292,6.96492,11.1049,43.8068,0.659871,0.633209,0.852297,3.44544,1.35937,2.94244,0.557922,0.690038,0.566876,0.779224,4.79872,0.653252,104.1,782.685
1370,95.2657,6.7736,10.6847,43.2121,0.105383,0.937017,2.19671,2.64308,0.460676,0.499531,0.557922,0.690038,0.849719,0.945271,3.8402,0.694784,137.425,783.267
1375,97.864,6.70261,10.8812,43.2175,0.652275,0.428139,0.647217,1.84072,1.35937,2.12814,0.557922,1.06499,0.566876,0.945271,3.8402,0.487123,112.104,783.868
1380,93.5343,7.15623,10.7611,43.2865,0.333254,1.09652,1.49032,2.64308,1.35937,1.31384,2.28241,0.690038,0.708297,1.11132,4.79872,0.507889,93.9837,784.388
1385,88.0258,7.69737,11.5688,43.2175,0.23451,-0.0199773,0.123124,1.84072,2.25807,1.31384,0.557922,0.690038,0.708297,1.11132,3.8402,0.466357,84.7756,784.814
1390,109.521,7.15623,11.1431,42.6915,0.249701,0.671185,0.244653,2.64308,1.35937,0.499531,1.42016,1.06499,0.849719,0.779224,5.75724,0.507889,80.4495,785.22
1395,95.7052,6.8174,10.652,41.9156,0.50036,0.291426,0.935848,2.64308,0.460676,0.499531,1.42016,1.06499,0.566876,0.779224,4.79872,0.507889,91.6004,785.654
1400,92.5656,6.27612,9.92043,41.0166,0.242106,0.807898,0.107933,4.24781,3.15676,-0.314773,0.557922,0.315086,0.425454,1.11132,4.79872,0.466357,90.728,786.124
1405,89.7719,5.69649,9.34152,40.266,0.826976,0.192688,1.12574,2.64308,0.460676,0.499531,1.42016,1.43994,0.708297,1.11132,5.75724,0.466357,90.9059,786.597
1410,81.2875,5.47237,8.85,39.8241,0.249701,0.215474,0.533284,1.84072,0.460676,0.499531,2.28241,1.06499,0.708297,0.945271,2.88169,0.528655,98.4774,787.058
1415,88.239,4.66848,8.35285,39.1528,0.0446169,0.0635698,0.0623601,3.44544,1.35937,2.12814,1.42016,1.43994,0.849719,0.945271,2.88169,0.549421,95.4887,787.526
1420,86.043,4.47707,8.00861,39.1154,0.318063,0.914231,0.875083,3.44544,2.25807,1.31384,0.557922,0.690038,0.566876,0.945271,5.75724,0.320994,110.932,788.04
1425,85.3392,4.31285,8.26529,38.9554,0.751019,0.625614,0.305418,2.64308,0.460676,1.31384,1.42016,1.06499,0.849719,0.945271,4.79872,0.320994,109.392,788.575
1430,90.8721,4.69569,8.95365,39.2166,0.523147,0.344592,0.320609,3.44544,1.35937,1.31384,1.42016,0.690038,0.849719,1.11132,3.8402,0.507889,93.9327,789.076
1435,79.8779,5.28098,8.54407,38.7423,0.0522126,0.367377,0.123124,3.44544,2.25807,1.31384,1.42016,0.690038,0.425454,1.11132,3.8402,0.383292,104.024,789.572
1440,86.3161,4.74505,8.04686,37.9583,0.23451,0.071165,0.320609,2.64308,2.25807,1.31384,0.557922,0.315086,0.566876,0.945271,3.8402,0.34176,104.536,790.09
1445,88.333,4.86543,7.74638,37.4407,0.219319,0.0331891,0.373777,1.84072,2.25807,2.12814,2.28241,0.690038,0.849719,0.779224,3.8402,0.320994,94.393,790.582
1450,83.2975,4.86543,8.32014,37.2912,0.242106,0.139522,1.64223,1.84072,1.35937,1.31384,2.28241,0.690038,0.708297,0.945271,4.79872,0.34176,95.8133,791.061
1455,84.8776,5.47237,8.3146,37.0616,0.112978,-0.0275725,0.305418,3.44544,2.25807,2.12814,2.28241,0.315086,0.708297,1.11132,3.8402,0.175631,103.454,791.532
1460,82.8291,5.54338,8.11783,36.7197,0.0825955,0.101546,0.768746,1.03835,1.35937,2.12814,1.42016,0.690038,0.708297,0.945271,3.8402,0.300228,103.001,792.055
1465,79.4095,5.42301,7.50023,36.4152,0.0218297,0.071165,0.320609,3.44544,2.25807,0.499531,0.557922,1.06499,0.425454,0.779224,2.88169,0.134099,101.63,792.558
1470,88.0318,4.9692,7.62054,36.458,0.50036,0.0787602,0.783937,1.84072,1.35937,1.31384,1.42016,0.315086,0.708297,0.945271,5.75724,0.320994,0.0,793.012
1475,86.7715,4.12143,7.50023,36.3778,0.23451,0.0407843,0.0775512,2.64308,1.35937,-0.314773,0.557922,0.690038,0.708297,0.779224,3.8402,0.134099,0.0,793.012
1480,85.2886,3.61817,7.1121,35.6989,0.143361,0.0559746,0.0319779,2.64308,-0.43802,1.31384,2.28241,0.315086,0.566876,0.945271,2.88169,0.196398,0.0,793.012
1484,87.0489,3.47056,6.62018,35.2926,0.0294254,0.245854,0.138316,1.84072,3.15676,0.499531,2.28241,0.315086,0.566876,0.945271,3.8402,0.196398,0.0,793.012