File: 01_Data/Overstuffed_Sofa/Furniture_Calorimeter/Overstuffed_Sofa_R1.csv
Time (s),Convective HRR,TCPlume1,TCPlume2,TCPlume3,DPPlume1,DPPlume2,DPPlume3,HF1,HF2,HF3,HF4,HF5,HF6,RAD2,RAD1,Load Cell,Heat Release Rate,Total Heat Released
-119,0.0,6.57708,7.19988,20.5193,0.0298679,-0.0214982,0.012037,0.360384,0.50266,0.448558,0.745329,-0.301868,-0.292431,0.281084,0.964651,48.976,0.0,0.0
-114,0.0,6.29809,6.92094,20.8878,-0.0384936,0.00888251,-0.0563229,0.360384,0.50266,-0.365747,0.745329,0.448036,-0.00958792,0.447131,0.00613451,48.8306,0.0,0.0
-109,0.0,6.15056,6.77343,20.8933,-0.000514964,-0.0670694,0.19433,0.360384,0.50266,-1.18005,-0.116914,0.0730839,-0.00958792,0.281084,1.92317,48.7891,0.0,0.0
-104,0.0,5.38506,6.92649,21.1209,-0.0764722,-0.0366886,-0.0791095,0.360384,-0.396035,1.26286,0.745329,0.0730839,-0.00958792,-0.0510096,0.964651,48.9345,0.0,0.0
-99,0.0,5.54373,6.39629,20.5573,0.0754423,-0.0139031,0.0348236,-0.44198,-0.396035,-0.365747,-0.116914,-0.301868,0.131834,0.447131,0.964651,48.9345,0.0,0.0
-94,0.0,5.28689,6.21604,20.3785,0.0146765,0.0240729,-0.0563229,0.360384,0.50266,0.448558,-0.116914,0.0730839,-0.15101,0.281084,0.964651,48.8306,0.0,0.0
-89,0.0,4.52127,5.79503,20.2646,-0.0157064,0.2975,-0.0639184,0.360384,0.50266,0.448558,-0.116914,0.0730839,0.131834,0.281084,2.88169,48.9967,0.0,0.0
-84,0.0,4.05074,5.51598,20.0258,0.00708076,0.168381,0.0576103,0.360384,-0.396035,-1.18005,-1.8414,0.448036,0.131834,0.115037,0.00613451,48.976,0.0,0.0
-79,0.0,3.93589,5.17147,19.9879,0.083038,0.138001,0.0500147,-0.44198,-0.396035,0.448558,2.46981,0.0730839,-0.00958792,0.613177,0.964651,48.976,0.0,0.0
-74,0.0,3.85932,4.98006,19.798,0.0298679,-0.0746646,0.012037,1.16275,-0.396035,0.448558,1.60757,-0.301868,-0.15101,0.281084,0.964651,48.9345,0.0,0.0
-69,0.0,3.82659,4.7942,19.6896,-0.0612808,-0.0290934,-0.0487274,-0.44198,-0.396035,0.448558,-0.116914,-0.301868,0.273256,0.447131,0.964651,48.8099,0.0,0.0
-64,0.0,3.52029,4.64107,19.6896,0.0906337,0.0316681,-0.00315408,0.360384,-0.396035,-1.18005,0.745329,0.0730839,-0.00958792,0.281084,1.92317,48.976,0.0,0.0
-59,0.0,3.017,4.86521,20.0638,-0.122047,-0.051879,0.0424192,-0.44198,0.50266,0.448558,0.745329,0.0730839,-0.00958792,0.281084,0.964651,48.9552,0.0,0.0
-54,0.0,2.36611,4.40581,19.9499,-0.0916636,0.0468585,0.0576103,0.360384,-1.29473,-0.365747,-0.116914,-0.676821,-0.00958792,0.281084,2.88169,48.9345,0.0,0.0
-49,0.0,1.78626,4.32368,19.6406,-0.00811069,0.0240729,-0.117087,-1.24434,-0.396035,0.448558,0.745329,0.0730839,-0.00958792,-0.0510096,1.92317,48.9345,0.0,0.0
-44,0.0,1.59483,4.32368,19.7165,-0.0384936,-0.089855,-0.0259407,-1.24434,-0.396035,1.26286,-0.116914,0.0730839,0.131834,0.281084,1.92317,48.9345,0.0,0.0
-39,0.0,2.68352,3.99577,18.8972,-0.0460893,-0.0670694,-0.0259407,0.360384,-0.396035,-0.365747,-0.116914,0.448036,-0.00958792,0.281084,1.92317,48.9552,0.0,0.0
-34,0.0,2.67797,4.06679,18.5496,-0.053685,-0.0366886,-0.0639184,-0.44198,-1.29473,-0.365747,-0.116914,0.0730839,0.273256,0.447131,1.92317,48.9967,0.0,0.0
-29,0.0,2.52482,4.21993,18.5877,-0.0157064,-0.0822598,-0.0411318,-1.24434,-0.396035,-1.18005,0.745329,0.448036,-0.15101,0.115037,0.964651,48.9552,0.0,0.0
-24,0.0,2.52723,4.11003,18.3341,-0.0597412,0.0536825,-0.0932277,-0.276282,-0.0437955,1.20294,0.565284,0.116141,-0.0333059,0.28507,1.36843,48.9577,0.0,0.0
-19,0.0,2.59584,4.02295,18.0879,-0.0233021,-0.0746646,0.0272281,1.16275,0.50266,0.448558,-0.116914,0.0730839,0.131834,0.115037,2.88169,48.9552,0.0,0.0
-14,0.0,2.82556,4.06123,18.0879,0.0222722,0.00128732,-0.0487274,0.360384,0.50266,-0.365747,0.745329,0.0730839,-0.15101,0.447131,-1.9109,48.976,0.0,0.0
-9,0.0,3.1646,4.13225,18.0823,-0.0840679,-0.127831,-0.0411318,-0.44198,1.40136,1.26286,-0.979157,0.0730839,-0.00958792,0.447131,0.964651,48.9345,0.0,0.0
-4,0.0,1.63867,4.44409,18.3921,0.0374637,0.0392633,-0.0335363,-0.44198,0.50266,0.448558,-0.116914,0.822989,-0.15101,-0.0510096,0.964651,48.976,0.0,0.0
1,0.0,2.62857,3.94082,18.1584,0.00708076,0.0240729,-0.0335363,0.360384,-0.396035,-0.365747,1.60757,0.448036,-0.00958792,0.115037,1.92317,48.976,0.0,0.0
6,0.0,2.74343,3.67281,18.2345,0.0222722,0.0240729,0.0424192,0.360384,-1.29473,2.07717,-0.979157,0.448036,0.131834,0.281084,2.88169,48.9967,0.0,0.0
11,0.0,2.70515,3.63452,18.1204,0.00708076,-0.00630787,0.0728014,-1.24434,0.50266,0.448558,-0.116914,-0.301868,0.273256,0.281084,1.92317,49.1213,0.0,0.0
16,0.0,2.13084,3.51965,17.8161,-0.0384936,-0.0442838,0.0272281,0.360384,0.50266,-0.365747,-0.116914,-0.301868,0.131834,0.281084,0.964651,49.1213,0.0,0.0
21,0.0,0.993399,4.21993,18.5496,0.0602508,-0.0974501,-0.0259407,1.16275,0.50266,0.448558,-0.116914,-0.301868,-0.00958792,0.447131,0.964651,48.9552,0.0,0.0
26,0.0,2.09255,3.67281,17.5879,0.0374637,-0.0290934,0.0500147,-0.44198,1.40136,0.448558,-0.116914,0.0730839,-0.15101,0.281084,2.88169,49.1213,0.0,0.0
31,0.0,2.11973,3.6617,17.2724,0.0374637,-0.089855,-0.0487274,-0.44198,0.50266,-1.99436,0.745329,0.0730839,-0.00958792,0.447131,1.92317,49.1213,0.0,0.0
36,0.0,3.23006,3.69998,17.3485,-0.0688765,-0.0442838,-0.0259407,-0.44198,0.50266,-1.18005,-0.116914,0.448036,-0.15101,0.447131,0.00613451,49.1213,0.0,0.0
41,0.0,2.47542,3.67281,17.3976,-0.0157064,-0.0822598,-0.0183452,1.16275,0.50266,0.448558,0.745329,0.0730839,-0.00958792,0.281084,0.964651,49.1421,0.0,0.0
46,0.0,2.34945,3.50854,17.5007,0.0374637,0.0620488,0.110779,-0.44198,-0.396035,0.448558,0.745329,-0.301868,-0.00958792,0.115037,0.964651,49.1213,0.0,0.0
51,0.0,2.42602,3.43197,17.691,-0.198004,0.0544536,0.0803969,0.360384,-0.396035,1.26286,-0.116914,0.0730839,-0.00958792,0.447131,0.964651,48.9552,0.0,0.0
56,0.0,2.15246,3.08181,17.5713,-0.0308979,0.0468585,0.0652058,0.360384,-1.29473,-0.365747,1.60757,0.0730839,-0.15101,0.115037,0.964651,48.9967,0.0,0.0
61,0.0,1.54543,2.93421,17.3105,0.0450594,0.100025,-0.0563229,1.16275,0.50266,-0.365747,0.745329,-0.301868,0.131834,0.115037,0.964651,48.9552,0.0,0.0
66,0.0,0.850781,3.1201,17.9137,-0.0460893,0.130406,-0.00315408,0.360384,-0.396035,0.448558,-0.979157,0.448036,-0.15101,0.281084,1.92317,49.1421,0.0,0.0
71,0.0,1.66029,2.89593,17.5768,-0.0764722,-0.0746646,-0.101896,-1.24434,0.50266,-0.365747,-0.979157,0.0730839,-0.00958792,0.281084,1.92317,49.1421,0.0,0.0
76,0.0,0.960072,3.07626,17.6038,-0.00811069,-0.0214982,-0.0335363,0.360384,-0.396035,-0.365747,-0.116914,0.0730839,-0.15101,0.281084,0.00613451,49.1629,0.0,0.0
81,0.0,1.49604,2.80824,17.1092,0.0146765,0.0240729,-0.0107496,0.360384,1.40136,-0.365747,0.745329,0.448036,0.273256,0.447131,0.964651,49.1213,0.0,0.0
86,0.0,1.6109,2.99968,17.1472,0.158995,-0.0442838,0.0348236,-0.44198,-0.396035,-0.365747,1.60757,0.0730839,0.131834,0.613177,0.00613451,49.1213,0.0,0.0
91,0.0,1.49049,2.87926,17.0275,-0.0384936,0.00888251,-0.0943006,0.360384,0.50266,-0.365747,0.745329,0.448036,0.131834,0.447131,2.88169,49.1213,0.0,0.0
96,0.0,2.16852,3.0596,17.0546,0.083038,0.0620488,0.012037,1.16275,1.40136,0.448558,1.60757,0.448036,0.131834,0.447131,0.964651,49.1213,0.0,0.0
101,0.0,2.59524,3.52461,17.022,0.713483,0.198762,-0.0183452,1.16275,1.40136,-0.365747,1.60757,0.0730839,0.131834,0.281084,0.964651,49.1213,0.0,0.0
106,0.0,2.90154,3.52461,17.022,0.493207,0.343071,0.0576103,0.360384,-1.29473,1.26286,0.745329,0.448036,-0.00958792,0.447131,0.964651,48.9967,0.0,0.0
111,0.0,2.70455,3.78707,17.7775,0.136208,-0.188592,-0.0867051,1.16275,0.50266,0.448558,1.60757,0.448036,0.273256,0.281084,1.92317,49.1629,8.80134,0.0127788
116,0.0,3.65062,3.31651,17.1577,0.295718,-0.0290934,0.0652058,1.16275,0.50266,0.448558,0.745329,0.822989,0.273256,0.779224,1.92317,49.0798,31.4676,0.119708
121,0.0,5.90922,3.27822,17.4241,0.781845,0.0316681,-0.0791095,1.16275,2.30005,1.26286,-0.116914,0.0730839,0.697521,0.779224,3.8402,48.976,56.7728,0.338445
126,0.0,6.18824,4.05508,17.7395,-0.0157064,-0.0746646,0.0500147,1.16275,2.30005,2.07717,1.60757,0.448036,0.273256,0.779224,0.964651,49.1421,70.2434,0.685616
131,0.0,5.33508,4.19712,18.3749,-0.0233021,0.0468585,-0.0107496,2.76747,3.19875,1.26286,1.60757,0.448036,0.556099,0.613177,3.8402,49.1421,55.2281,0.987745
136,0.0,5.54809,3.72101,18.1683,0.0450594,0.069644,-0.0259407,2.76747,2.30005,3.70578,1.60757,1.19794,0.697521,0.613177,2.88169,48.9552,50.6728,1.22774
141,0.0,5.3567,3.64444,18.3204,-0.00811069,-0.0442838,-0.109492,1.16275,1.40136,0.448558,0.745329,0.822989,-0.00958792,0.613177,2.88169,48.9967,62.0693,1.49626
146,0.0,4.70593,3.56786,18.5105,0.0374637,-0.0290934,-0.109492,0.360384,2.30005,1.26286,0.745329,0.0730839,0.273256,0.613177,1.92317,48.7891,87.5012,1.86095
151,0.0,5.54809,3.37642,18.7385,0.31091,0.0544536,0.0879925,2.76747,3.19875,2.07717,1.60757,0.822989,0.414677,0.779224,1.92317,48.976,117.329,2.3742
156,0.0,6.61415,3.98347,19.455,0.250144,-0.051879,0.0348236,4.3722,2.30005,2.07717,1.60757,0.822989,0.556099,0.613177,3.8402,48.623,197.707,3.12189
161,0.0,7.06778,3.59504,19.7154,0.25774,0.115215,-0.0487274,2.76747,2.30005,1.26286,2.46981,1.19794,0.273256,0.779224,1.92317,48.623,208.621,4.11433
166,0.0,7.98038,3.28318,20.1276,0.166591,0.138001,0.0348236,3.56984,3.19875,4.52008,1.60757,1.19794,0.838943,1.11132,3.8402,48.6645,179.218,5.13031
171,0.0,9.05116,4.50836,20.8107,0.41725,0.0468585,0.0728014,4.3722,3.19875,3.70578,1.60757,1.57289,0.838943,1.11132,2.88169,48.2907,206.226,6.03801
176,24.4744,10.962,5.50369,21.4935,0.546377,0.130406,-0.0639184,2.76747,1.40136,2.89147,2.46981,0.822989,0.556099,0.613177,3.8402,48.4984,317.198,7.38216
181,34.5809,11.2565,6.21981,21.748,0.318505,0.115215,0.0879925,3.56984,2.30005,2.07717,1.60757,0.822989,0.414677,0.779224,3.8402,48.1661,449.517,9.30663
186,44.3766,11.1364,5.94635,22.4626,0.265335,0.0468585,0.224712,6.77929,4.99614,5.33438,2.46981,1.94785,1.40463,1.44341,6.71575,48.1453,602.26,11.8761
191,68.0052,15.2565,8.85397,24.0149,1.29076,0.168381,0.26269,9.98875,6.79353,6.14869,4.1943,2.69775,1.68747,1.94155,6.71575,47.9792,839.153,15.4557
196,126.301,18.1489,10.1919,25.414,0.52359,0.388642,-0.101896,9.18638,5.89483,6.14869,2.46981,1.94785,1.26321,1.7755,6.71575,47.8131,1021.03,20.1734
201,192.074,22.8047,12.4724,27.3662,1.59459,1.54311,1.01465,14.0006,9.48961,11.0345,6.78103,4.19756,2.67743,2.60574,8.63279,47.647,1172.15,25.7701
206,271.906,29.8517,16.9586,31.7217,2.72635,0.487379,0.862738,21.2218,12.1857,13.4774,8.50551,4.94746,3.52596,3.60202,13.4254,47.3355,1368.77,32.398
211,372.745,40.328,23.7833,37.1118,1.41229,1.33045,0.239903,20.4195,12.1857,11.8488,7.64327,4.94746,3.66738,3.43597,10.5498,46.8163,1239.68,38.9992
216,443.818,47.5714,30.9478,42.9646,2.82509,0.50257,0.247499,26.036,16.6792,16.7346,11.9545,6.44727,4.51591,4.93039,18.218,46.484,1250.57,45.2471
221,527.031,57.5713,40.781,51.7057,3.75177,0.851949,0.60449,26.8384,15.7805,17.549,11.9545,7.19718,5.0816,5.26249,17.2594,45.9649,1406.76,51.882
226,641.496,59.6266,41.6318,56.4229,1.25278,0.160786,0.60449,28.4431,18.4766,16.7346,11.9545,7.19718,5.0816,5.09644,13.4254,45.4873,1491.41,59.0666
231,607.658,60.3254,43.1939,60.9871,1.70852,0.662069,0.239903,27.6407,18.4766,16.7346,11.0922,7.19718,4.94017,4.93039,16.3009,45.1343,1473.78,66.4019
236,619.38,60.6877,46.1214,68.8411,2.26301,0.305095,0.786783,33.2573,22.0713,21.6205,14.5412,8.32204,5.64728,5.92667,20.135,44.6774,1541.83,73.8401
241,703.911,62.0423,49.6712,76.8311,1.84525,1.21652,1.45519,38.8738,28.3622,25.692,17.1279,10.5718,6.49581,6.42481,20.135,44.0129,1752.36,81.974
246,758.157,68.5399,59.6645,85.6732,3.30362,1.42918,4.39467,42.0833,27.4635,28.1349,18.8524,10.5718,6.49581,6.42481,22.052,43.6391,1841.99,91.4618
251,778.863,76.203,68.1851,102.169,2.95422,0.2975,9.13429,44.4904,30.1596,28.1349,20.5769,11.6966,6.77866,6.92295,22.052,43.0161,2047.55,101.507
256,831.98,94.6599,90.4792,131.286,6.22038,5.45463,5.57198,56.5258,35.5518,35.4636,24.8881,13.1964,8.19287,7.58714,32.5957,42.6839,2009.96,111.775
261,919.216,127.309,125.488,163.517,8.26363,3.4495,8.51145,66.1542,37.3492,37.0923,28.3371,14.3213,8.75856,8.74947,39.3053,41.957,1903.31,121.276
266,935.275,135.13,141.287,186.347,3.23526,7.44457,4.56936,55.7235,29.2609,30.5778,24.8881,11.6966,7.62719,7.25505,35.4713,41.5002,2084.52,131.026
271,1074.92,140.62,157.946,213.95,7.9674,10.1561,7.5848,70.9684,35.5518,38.7209,30.0616,14.3213,8.75856,8.41738,49.849,41.0433,1890.08,140.863
276,1100.63,151.401,176.844,252.153,8.46112,15.8752,9.4457,83.8062,40.0453,41.9781,35.235,17.3209,10.0314,9.9118,60.3927,40.358,2025.53,150.577
281,1081.84,163.969,194.624,269.588,4.13915,6.75341,3.64271,78.992,39.1466,41.1638,31.7861,19.1957,12.2941,11.4062,55.6001,40.1712,2217.39,161.033
286,1190.1,160.62,188.974,264.185,5.04305,1.7102,6.36191,88.6204,41.8426,43.6067,36.0973,21.4454,13.2841,12.5685,69.9779,39.029,2506.64,173.508
291,1089.24,170.25,207.394,285.24,4.762,14.1663,2.88315,87.818,40.0453,40.3495,34.3728,18.8207,12.1527,11.5723,66.1438,38.3645,2601.37,186.5
296,1184.17,172.614,222.79,314.544,5.90896,3.12291,7.4101,98.2487,44.5387,47.6782,40.4085,22.5702,14.1326,13.3988,78.6045,37.4923,2632.79,199.602
301,1280.4,188.418,244.735,354.821,5.58994,7.43698,5.96694,107.877,49.9309,50.9354,42.9952,27.4446,17.2439,16.0555,86.2727,36.8693,2562.28,212.883
306,1412.79,221.775,284.439,400.515,5.8254,11.4472,10.023,109.482,50.8296,51.7497,44.7197,28.9444,18.5167,17.3839,89.1482,35.8726,2732.23,226.414
311,1462.92,216.079,287.692,426.303,3.39477,9.11551,10.98,105.47,49.0322,51.7497,42.133,28.1945,18.0924,16.5537,84.3556,35.0627,2639.6,240.01
316,1485.44,227.044,300.264,427.526,20.5915,10.2016,5.99733,104.668,46.3361,47.6782,41.2707,26.3198,17.3853,16.3876,88.1897,34.2113,2655.35,253.488
321,1448.06,223.027,296.767,435.655,11.431,8.31042,8.04812,103.063,46.3361,48.4925,40.4085,25.9448,17.1024,15.7234,86.2727,33.4429,2415.59,266.241
326,1556.22,216.638,282.837,429.063,4.35943,5.43944,7.12906,101.458,43.64,46.8639,41.2707,25.1949,16.6782,15.3913,87.2312,32.3839,2408.85,278.673
331,1523.67,208.509,270.381,419.424,2.20224,7.28507,5.24537,95.8416,40.0453,41.9781,36.9595,24.07,16.1125,15.0592,83.3971,31.7193,2270.75,290.011
336,1545.68,202.755,261.997,410.915,8.91686,4.77107,5.63274,90.2251,35.5518,38.7209,34.3728,21.0704,14.6983,13.3988,76.6875,31.0133,2216.26,301.119
341,1443.58,194.885,251.398,401.589,8.69659,12.108,10.7294,78.992,31.0583,35.4636,29.1993,20.3205,13.5669,12.5685,69.0193,30.2242,2183.04,311.8
346,1476.53,185.385,239.976,385.818,11.7653,6.30529,6.62776,78.992,31.957,33.0207,30.9238,19.1957,13.1426,12.0704,69.0193,29.5389,1942.23,322.402
351,1397.48,178.66,229.246,373.737,4.28347,7.5661,6.45306,74.1778,28.3622,31.3921,28.3371,19.1957,13.4255,12.2365,66.1438,28.9159,1935.91,332.33
356,1366.59,174.189,225.984,364.578,2.93143,10.9536,9.34696,72.5731,27.4635,30.5778,27.4749,17.6958,12.0113,11.0741,65.1853,28.3552,2008.86,342.175
361,1352.91,174.5,224.664,357.565,3.91888,2.04439,7.59239,74.9802,26.5648,31.3921,28.3371,16.9459,11.8698,10.742,65.1853,27.6907,1991.36,351.906
366,1214.17,165.426,212.321,349.011,7.28378,7.06481,8.05572,69.3636,23.8687,28.9492,24.0259,16.196,11.587,10.4099,62.3097,27.047,1935.24,361.856
371,1219.83,166.041,208.33,341.909,8.59025,6.7762,7.90381,66.1542,24.7674,25.692,23.1636,15.0712,10.7385,9.9118,57.5171,26.5694,1912.09,371.505
376,1261.8,165.628,209.287,335.602,2.93143,12.6245,4.91876,60.5376,22.0713,25.692,22.3014,15.8211,10.7385,9.9118,53.6831,26.0502,1793.62,380.701
381,1259.9,161.478,202.924,327.09,6.7217,8.62942,4.73647,55.7235,21.1727,21.6205,21.4392,13.9463,10.0314,9.41366,50.8075,25.4065,1770.77,389.612
386,1234.64,158.479,196.789,323.694,3.99484,3.42672,3.24774,61.34,22.97,24.0634,20.5769,15.0712,10.4556,9.9118,56.5586,24.7419,1705.59,398.594
391,1227.21,152.056,187.583,316.769,3.64543,6.50277,6.23279,57.3282,21.1727,21.6205,20.5769,14.3213,10.1728,9.08156,51.766,24.2643,1704.43,407.056
396,1172.37,148.164,188.396,308.49,7.70155,6.87493,7.09109,52.514,19.3753,19.9919,17.9902,12.8215,9.04141,8.41738,46.9735,23.7452,1560.0,415.011
401,1154.82,149.706,187.659,302.894,3.47073,2.8191,9.49128,49.3046,19.3753,20.8062,19.7147,13.1964,9.04141,8.25133,46.9735,23.2883,1515.22,423.035
406,1117.2,139.046,178.381,295.236,10.5272,5.69008,7.05311,45.2927,18.4766,18.3633,17.1279,12.4465,8.61714,7.91923,42.1809,22.7276,1452.27,430.692
411,1118.29,141.542,180.181,290.999,7.35974,4.07231,4.41745,45.2927,17.5779,17.549,15.4035,11.6966,8.05145,7.42109,42.1809,22.25,1430.92,437.589
416,1030.26,138.874,174.124,285.467,2.72635,6.11541,4.41745,41.2809,13.0844,16.7346,14.5412,10.1968,7.34434,6.92295,36.4298,21.7931,1319.8,444.507
421,1023.46,131.762,164.365,276.204,2.21744,5.96351,5.15422,36.4667,14.8818,15.106,12.8167,9.82185,7.20292,6.59086,33.5542,21.2532,1311.22,451.216
426,996.901,128.803,159.309,267.359,6.64574,5.93313,4.32631,32.4549,13.0844,13.4774,11.0922,8.69699,6.49581,6.25877,30.6787,20.921,1256.61,457.544
431,979.223,130.528,159.956,261.951,3.95686,12.4878,6.62016,34.0597,13.0844,12.6631,11.9545,8.69699,6.07155,5.76063,27.8031,20.6095,1155.6,463.649
436,905.726,125.207,154.636,256.193,4.34424,4.81664,3.52877,34.0597,12.1857,14.2917,11.0922,9.07194,6.35439,5.76063,31.6372,20.2357,1109.59,469.409
441,902.776,120.237,150.463,250.272,3.98724,3.02417,5.77706,29.2455,12.1857,11.8488,10.23,7.19718,5.36444,5.09644,25.8861,19.7788,1118.99,475.126
446,868.729,116.521,148.92,244.835,4.26069,9.74592,3.78702,29.2455,12.1857,12.6631,11.0922,6.82223,5.36444,4.76435,24.9276,19.3843,1200.38,481.289
451,807.25,113.328,147.828,239.417,4.74681,2.60644,1.06022,29.2455,11.287,12.6631,9.36776,7.19718,5.50586,4.76435,26.8446,18.9067,1134.2,487.119
456,788.516,106.461,138.98,232.919,2.70356,7.20153,5.26056,25.2337,10.3883,11.0345,8.50551,6.82223,4.94017,4.5983,22.052,18.6159,1048.98,492.59
461,797.941,102.435,132.549,225.847,3.26565,2.31022,7.05311,23.6289,12.1857,11.0345,7.64327,5.69737,4.65733,4.10016,22.052,18.2837,1019.94,497.547
466,840.831,102.441,131.766,220.921,4.82277,8.62183,4.95674,23.6289,9.48961,11.0345,9.36776,5.69737,4.65733,3.93411,21.0935,17.9514,935.659,502.232
471,797.433,99.3398,128.989,216.933,2.24782,2.55327,2.48059,22.8266,10.3883,10.2202,6.78103,5.69737,4.51591,3.93411,21.0935,17.723,945.986,506.895
476,761.185,93.6347,121.659,210.7,3.90369,3.97357,4.44024,21.2218,9.48961,8.5916,6.78103,5.69737,3.95022,3.76807,18.218,17.4115,872.202,511.489
481,749.942,89.7368,118.749,205.595,2.22503,4.05712,4.42505,19.6171,8.59092,8.5916,5.91879,4.94746,3.8088,3.43597,18.218,17.1,803.238,515.674
486,690.111,90.9129,115.397,200.599,4.55692,5.14323,2.13879,20.4195,8.59092,8.5916,7.64327,4.94746,3.95022,3.43597,18.218,16.7885,756.075,519.881
491,688.337,89.8891,113.023,196.178,3.85052,4.80145,3.18698,18.8147,8.59092,7.7773,6.78103,4.19756,3.38453,2.93783,18.218,16.4563,779.129,523.762
496,638.351,85.6288,110.387,191.711,2.82509,4.11788,5.64034,17.21,7.69222,7.7773,5.91879,4.19756,3.10169,2.77179,14.3839,16.124,783.324,527.72
501,588.374,82.4365,103.795,186.02,3.12133,3.52546,2.60971,18.0124,7.69222,7.7773,5.91879,4.19756,3.10169,2.77179,14.3839,15.9994,751.782,531.625
506,553.514,80.0999,100.223,180.99,1.47306,6.9205,3.78702,15.6053,8.59092,6.14869,5.91879,3.82261,2.67743,2.43969,14.3839,15.8125,722.653,535.283
511,568.585,76.0723,96.7988,177.673,1.16163,4.53562,3.62752,14.8029,6.79353,6.96299,4.1943,3.82261,2.67743,2.77179,13.4254,15.4387,687.178,538.755
516,575.885,71.589,91.304,173.234,2.37695,1.51273,2.55654,15.6053,5.89483,4.52008,5.05654,3.82261,2.67743,2.43969,13.4254,15.1065,646.371,541.949
521,557.49,70.7563,90.5059,169.316,2.66558,4.55081,1.62229,14.8029,6.79353,6.14869,5.05654,3.44766,2.536,2.27365,12.4669,14.9403,630.455,544.923
526,536.914,70.0282,88.1228,165.091,4.39741,3.08493,2.38944,12.3958,5.89483,5.33438,5.05654,3.44766,2.39458,2.1076,12.4669,14.9611,597.023,548.113
531,505.725,67.4553,85.0701,160.745,2.58203,1.15576,3.13381,14.8029,6.79353,6.14869,4.1943,3.0727,2.39458,1.94155,11.5083,14.5665,541.281,551.12
536,494.11,63.7427,80.1856,156.328,0.728674,3.51026,1.96409,13.1982,5.89483,5.33438,3.33206,3.44766,2.39458,1.7755,12.4669,14.4419,529.218,553.84
541,485.691,61.2237,77.635,152.889,1.95918,3.05455,2.04005,12.3958,4.99614,6.14869,5.05654,2.69775,1.97032,1.94155,11.5083,14.2758,526.261,556.504
546,460.322,60.4831,77.3363,149.205,2.2782,2.46972,1.0906,12.3958,4.99614,3.70578,5.05654,2.69775,2.11174,2.1076,10.5498,14.1097,525.802,559.156
551,408.743,58.5336,74.6601,145.154,3.85811,2.43934,0.60449,11.5935,4.99614,5.33438,3.33206,2.3228,1.97032,1.94155,9.5913,13.9228,561.06,561.851
556,397.934,59.7583,76.5038,142.329,1.49584,1.42159,1.56153,12.3958,6.79353,4.52008,4.1943,3.0727,1.8289,1.7755,8.63279,13.7359,507.241,564.509
561,403.188,58.3182,74.5921,139.945,1.54142,3.94319,4.21997,10.7911,5.89483,4.52008,2.46981,3.0727,1.97032,1.94155,11.5083,13.6113,461.904,567.032
566,400.478,60.6041,76.4671,137.424,4.10877,2.94063,1.96409,11.5935,4.09744,4.52008,2.46981,2.69775,1.8289,1.94155,10.5498,13.4244,483.075,569.463
571,409.055,61.6386,76.9124,134.643,2.57444,3.54065,3.06545,11.5935,4.99614,3.70578,3.33206,2.69775,1.68747,1.94155,10.5498,13.279,437.32,571.677
576,363.109,60.084,74.9587,132.639,1.87563,2.74315,1.96409,10.7911,4.09744,3.70578,3.33206,2.69775,1.97032,1.7755,9.5913,13.1129,435.829,573.901
581,340.458,56.6353,73.063,130.021,3.30362,3.28241,1.28809,11.5935,5.89483,5.33438,3.33206,2.69775,1.8289,1.60946,9.5913,12.9676,432.222,576.111
586,363.199,54.8981,70.3076,127.127,3.40237,6.75341,2.78441,9.18638,4.09744,3.70578,4.1943,3.0727,1.68747,1.7755,9.5913,12.7807,434.54,578.313
591,326.481,55.6774,69.9829,124.736,3.28843,0.988662,1.17416,11.5935,4.09744,5.33438,2.46981,2.3228,1.8289,1.44341,9.5913,12.6145,420.88,580.503
596,328.932,57.0457,69.0713,122.311,3.46313,2.97101,4.501,10.7911,4.09744,3.70578,2.46981,1.94785,1.54605,1.7755,8.63279,12.6353,462.378,582.727
601,317.234,54.066,66.5085,120.263,2.01235,1.07221,3.46801,9.98875,4.09744,4.52008,3.33206,2.69775,1.68747,1.60946,8.63279,12.1369,481.493,584.99
606,318.806,53.4704,66.2463,118.28,3.7062,1.07221,2.35147,9.18638,3.19875,3.70578,2.46981,2.69775,1.68747,1.60946,8.63279,12.0954,487.937,587.447
611,308.902,54.4717,67.169,116.199,1.88322,3.74572,5.67831,10.7911,4.09744,3.70578,1.60757,2.69775,1.68747,1.60946,7.67427,11.9708,447.298,589.739
616,332.149,55.0301,68.7152,116.54,2.55165,5.01411,3.22495,9.98875,4.09744,3.70578,4.1943,2.3228,1.54605,1.60946,6.71575,11.7631,445.846,592.003
621,342.463,54.3135,66.6447,114.811,2.24022,0.920305,2.91354,9.98875,3.19875,5.33438,4.1943,2.3228,1.54605,1.60946,8.63279,11.6593,440.399,594.177
626,344.673,54.2451,67.8241,113.998,2.08071,3.51026,5.78465,9.98875,4.99614,5.33438,4.1943,2.69775,1.54605,1.44341,8.63279,11.4724,399.489,596.25
631,321.871,55.1722,68.7098,113.781,2.03514,6.35087,5.98973,9.18638,3.19875,3.70578,3.33206,1.94785,1.40463,1.60946,6.71575,11.2855,391.8,598.197
636,314.689,54.5561,68.9039,112.937,3.63024,3.85964,0.832356,9.18638,4.99614,2.89147,5.05654,1.94785,1.54605,1.44341,8.63279,11.1194,400.367,600.07
641,313.797,54.8404,67.5359,111.663,1.25278,2.08237,3.27812,10.7911,5.89483,3.70578,3.33206,1.94785,1.54605,1.44341,7.67427,11.2647,373.646,601.951
646,282.115,52.2893,65.4388,110.618,1.51863,2.39377,3.22495,9.18638,4.09744,4.52008,5.05654,1.94785,1.40463,1.44341,5.75724,10.9325,367.043,603.965
651,280.964,52.437,65.7325,109.467,2.93143,3.46469,4.12123,9.18638,3.19875,2.89147,4.1943,2.3228,1.40463,1.7755,6.71575,10.7663,322.575,605.637
656,292.179,52.5531,66.4718,110.141,2.33897,4.31535,5.41247,9.18638,3.19875,4.52008,2.46981,2.3228,1.26321,1.27736,7.67427,10.1226,348.591,607.335
661,268.752,53.7025,65.9266,109.182,2.62001,0.988662,0.885525,6.77929,4.99614,3.70578,4.1943,1.57289,1.54605,1.27736,4.79872,10.268,326.514,609.069
666,266.624,51.2712,63.3986,107.222,2.14907,3.95838,3.27053,8.38402,4.99614,3.70578,3.33206,1.94785,1.12179,1.27736,5.75724,10.3303,334.054,610.745
671,238.468,49.5654,61.1151,105.662,1.85284,1.58868,0.285477,7.58166,3.19875,3.70578,3.33206,1.94785,1.26321,1.27736,5.75724,10.2887,343.662,612.428
676,255.116,47.0109,58.0622,104.034,1.22999,3.16089,2.88315,6.77929,4.09744,3.70578,4.1943,1.94785,1.26321,1.11132,5.75724,10.1226,336.072,614.14
681,243.86,45.7133,56.3683,102.629,2.96941,1.14057,4.54658,8.38402,3.19875,4.52008,5.05654,1.94785,1.40463,1.11132,6.71575,9.95647,332.381,615.861
686,251.66,47.5296,57.9518,102.777,2.87067,5.6673,5.35171,8.38402,3.19875,2.07717,5.05654,1.94785,1.26321,1.11132,4.79872,9.45808,369.41,617.694
691,253.24,50.0462,62.1074,104.034,2.15667,4.05712,1.79699,6.77929,2.30005,3.70578,4.1943,1.19794,1.26321,1.11132,4.79872,9.79034,340.792,619.488
696,249.393,48.8941,59.3079,101.811,2.25541,1.41399,3.03506,8.38402,4.09744,3.70578,3.33206,1.94785,1.26321,1.27736,6.71575,9.64498,348.955,621.18
701,237.291,45.3423,56.7367,99.7481,1.58699,3.27481,1.28049,8.38402,4.09744,4.52008,3.33206,1.57289,1.40463,1.11132,5.75724,9.68651,330.449,622.897
706,259.183,48.7514,58.1358,100.006,3.41756,1.46716,3.10342,9.18638,3.19875,4.52008,2.46981,1.19794,1.12179,1.44341,5.75724,9.47885,320.851,624.538
711,244.995,48.4183,58.7982,100.302,2.96182,7.29267,4.91876,8.38402,3.19875,3.70578,3.33206,1.19794,1.26321,1.11132,5.75724,9.25042,322.099,626.102
716,246.696,47.9316,57.431,98.5252,2.17186,1.84692,1.62229,6.77929,4.99614,2.89147,2.46981,2.3228,1.12179,1.44341,5.75724,9.31272,317.813,627.673
721,232.609,46.7724,56.2418,96.9659,1.12365,2.42415,4.14401,7.58166,4.09744,3.70578,2.46981,1.57289,1.12179,0.945271,5.75724,9.08429,305.418,629.261
726,233.169,46.3647,55.5048,95.9709,3.18969,7.31545,3.1414,7.58166,3.19875,4.52008,2.46981,1.57289,1.26321,1.27736,6.71575,8.93893,271.989,630.74
731,232.359,45.1089,54.9204,95.4973,6.38749,3.10012,4.501,7.58166,3.19875,3.70578,3.33206,1.57289,1.26321,1.27736,5.75724,8.68974,268.621,632.043
736,228.664,41.8389,52.6701,94.7606,0.827419,3.49507,3.01228,6.77929,3.19875,3.70578,3.33206,1.94785,1.26321,1.11132,4.79872,8.7728,302.587,633.45
741,216.258,39.8279,50.1579,93.1408,0.288123,0.851949,2.90594,8.38402,2.30005,4.52008,2.46981,1.57289,1.26321,1.27736,5.75724,8.60667,307.298,634.937
746,198.225,39.6043,49.4922,91.7794,1.36672,3.44191,1.49317,6.77929,4.09744,4.52008,5.05654,1.57289,1.26321,1.27736,5.75724,8.44054,316.259,636.485
751,195.668,40.3815,49.1169,90.7443,1.51863,3.47229,3.81741,7.58166,4.09744,3.70578,2.46981,1.94785,1.26321,0.945271,4.79872,8.48207,307.899,638.044
756,208.463,42.3915,50.5222,90.9649,2.22503,1.02664,6.69612,5.97693,4.09744,3.70578,2.46981,1.57289,1.12179,1.44341,5.75724,8.27441,292.217,639.566
761,200.885,43.7669,53.5505,92.2891,3.82013,3.05455,5.88339,7.58166,2.30005,3.70578,1.60757,1.19794,1.26321,1.27736,7.67427,8.29518,282.878,640.984
766,198.84,44.9497,54.2829,92.4677,1.88322,2.8267,3.17178,6.77929,4.99614,3.70578,3.33206,1.19794,1.26321,1.27736,4.79872,8.27441,270.609,642.475
771,189.064,40.0089,50.8549,91.0753,1.41229,0.889924,1.59951,7.58166,1.40136,2.89147,3.33206,1.94785,1.12179,1.11132,4.79872,7.94216,247.506,643.765
776,190.113,38.6983,48.6304,89.0479,0.728674,2.57606,1.28809,7.58166,4.09744,2.89147,3.33206,1.57289,1.12179,1.11132,5.75724,7.96292,275.795,645.055
781,190.82,39.4124,48.1175,87.8407,2.42252,0.396237,2.58693,6.77929,2.30005,2.89147,3.33206,1.19794,0.980364,1.11132,4.79872,7.79679,297.043,646.485
786,182.689,37.7971,47.9216,86.9484,2.04273,4.17105,2.87556,6.77929,4.09744,3.70578,2.46981,1.94785,1.40463,1.11132,5.75724,7.79679,280.318,647.943
791,166.808,40.6368,49.8514,86.6232,5.21775,2.62163,3.11102,7.58166,3.19875,2.07717,4.1943,1.19794,1.12179,1.27736,5.75724,7.6099,291.466,649.37
796,176.829,41.6847,51.1136,86.8856,4.22271,4.70271,1.18175,6.77929,3.19875,2.89147,3.33206,1.57289,0.980364,1.27736,4.79872,7.63066,269.398,650.774
801,181.258,41.6685,51.1714,87.4206,3.48592,5.6597,3.43763,6.77929,4.09744,4.52008,3.33206,1.57289,1.26321,1.11132,6.71575,7.4853,240.387,652.043
806,171.792,42.4605,52.4379,88.1293,1.89082,4.67992,1.37924,6.77929,4.09744,2.07717,1.60757,1.57289,1.26321,1.27736,6.71575,7.4853,241.895,653.301
811,181.382,42.1096,52.348,87.2316,1.85284,3.25962,2.78441,7.58166,3.19875,3.70578,2.46981,1.57289,0.980364,1.44341,5.75724,7.29841,243.031,654.48
816,167.543,41.8492,50.9074,86.2767,1.44267,0.563331,1.7742,6.77929,3.19875,2.07717,4.1943,1.57289,1.54605,1.27736,5.75724,7.31917,256.047,655.766
821,152.462,40.578,50.7172,86.3448,3.92647,8.62183,2.83758,7.58166,4.09744,2.89147,3.33206,1.94785,1.68747,1.27736,6.71575,7.15304,303.355,657.167
826,162.504,42.2212,51.4616,86.0563,2.05033,2.92544,1.64508,8.38402,3.19875,4.52008,3.33206,1.94785,1.54605,0.779224,6.71575,6.96615,258.017,658.538
831,155.045,42.3274,51.5301,85.7573,3.02258,6.15339,3.17178,8.38402,3.19875,4.52008,3.33206,1.57289,1.54605,1.44341,6.71575,6.98691,274.218,659.865
836,164.596,44.2653,53.9349,86.6807,6.19,4.34574,3.70347,6.77929,4.09744,3.70578,5.05654,1.94785,1.40463,1.27736,5.75724,6.80002,248.516,661.194
841,192.135,44.1856,53.8189,86.8222,1.88322,2.84948,3.11102,6.77929,3.19875,3.70578,3.33206,2.3228,1.12179,1.11132,6.71575,6.63389,277.952,662.563
846,158.674,44.3659,53.998,86.4129,2.84788,3.95838,3.81741,7.58166,4.09744,2.89147,4.1943,1.57289,1.40463,1.44341,5.75724,6.63389,319.643,664.127
851,172.976,42.9169,52.7803,85.9723,4.16194,1.82413,3.35408,7.58166,2.30005,2.89147,5.05654,2.3228,1.40463,1.60946,5.75724,6.63389,304.586,665.614
856,155.766,40.5726,51.8572,85.3481,2.58203,0.738021,3.77183,5.97693,4.09744,2.89147,3.33206,2.3228,1.40463,1.7755,6.71575,6.447,275.361,667.073
861,164.975,39.7901,51.377,84.9075,2.77952,4.90018,4.1668,6.77929,2.30005,3.70578,4.1943,1.94785,1.54605,1.60946,4.79872,6.34317,260.639,668.471
866,188.62,40.152,52.2158,85.1171,1.72371,4.93057,3.66549,7.58166,4.09744,3.70578,4.1943,2.69775,1.68747,1.27736,7.67427,6.15627,238.158,669.724
871,179.933,41.4926,52.4004,84.9703,1.2148,1.99882,3.39205,7.58166,3.19875,2.07717,3.33206,1.57289,1.54605,1.60946,6.71575,6.1355,264.975,670.959
876,170.346,39.971,50.6326,84.1313,2.66558,3.57862,1.88054,7.58166,3.19875,3.70578,4.1943,1.94785,1.54605,1.60946,6.71575,6.1355,258.529,672.294
881,166.916,38.7297,49.3646,83.5701,2.18705,3.07734,1.13618,6.77929,3.19875,2.89147,4.1943,1.57289,1.26321,1.11132,5.75724,5.94861,262.158,673.591
886,156.586,37.6845,48.6245,82.6527,2.33137,4.04193,1.47038,5.97693,2.30005,3.70578,4.1943,2.3228,1.54605,1.60946,6.71575,5.80325,252.491,675.07
891,160.246,37.3857,48.7725,82.139,3.3492,5.02171,2.14639,5.97693,1.40136,2.89147,4.1943,1.94785,1.40463,1.44341,6.71575,5.82401,235.167,676.263
896,149.391,38.5058,49.6605,82.616,2.71116,3.7685,3.4908,6.77929,3.19875,3.70578,5.05654,2.3228,1.26321,1.44341,5.75724,5.74095,260.1,677.482
901,152.919,38.687,49.1002,82.3171,2.2858,1.73299,3.39965,5.97693,3.19875,2.89147,4.1943,1.94785,1.54605,1.11132,6.71575,5.63712,261.753,678.733
906,146.517,38.383,48.4657,82.0916,1.08567,1.93047,0.627276,7.58166,2.30005,3.70578,3.33206,1.57289,1.40463,1.44341,7.67427,5.45022,238.064,679.974
911,132.849,39.9867,49.1319,82.2384,4.33664,2.53808,3.3085,7.58166,2.30005,2.89147,3.33206,1.94785,1.26321,1.44341,5.75724,5.47099,231.423,681.159
916,147.789,40.5029,49.4965,82.8569,3.78975,3.81407,1.53874,6.77929,2.30005,3.70578,4.1943,1.19794,1.40463,1.27736,5.75724,5.32563,204.168,682.238
921,147.057,40.0877,50.3047,83.2185,3.96445,5.78882,1.87295,6.77929,3.19875,2.89147,3.33206,1.57289,1.54605,1.27736,7.67427,5.32563,210.243,683.281
926,132.013,39.0011,50.7799,83.2132,0.6831,1.93047,0.558916,7.58166,4.09744,2.89147,5.05654,1.94785,1.54605,1.27736,6.71575,5.26333,224.444,684.445
931,131.399,36.013,47.1533,81.3052,1.60978,1.8773,1.47038,7.58166,3.19875,2.89147,2.46981,1.94785,1.54605,1.27736,5.75724,5.11796,214.398,685.57
936,115.564,37.017,47.8518,81.4467,3.99484,4.01155,3.61992,6.77929,3.19875,3.70578,5.05654,1.94785,1.12179,1.7755,5.75724,4.99337,220.339,686.65
941,121.023,38.6226,48.7403,81.6668,2.59722,2.15832,2.86037,5.97693,2.30005,2.07717,2.46981,1.94785,1.68747,1.60946,6.71575,5.01413,194.708,687.668
946,130.051,37.652,49.3324,82.0704,2.31618,4.20143,2.6249,5.97693,2.30005,4.52008,3.33206,1.94785,1.54605,1.44341,7.67427,4.80647,183.776,688.609
951,119.778,37.4225,48.3648,80.4142,1.90601,1.78616,3.32369,5.97693,3.19875,2.89147,3.33206,1.94785,1.40463,1.27736,5.75724,4.78571,212.057,689.588
956,119.632,37.193,46.0993,79.2718,0.835015,0.153191,1.81218,5.17456,3.19875,2.89147,2.46981,1.57289,1.12179,1.27736,6.71575,4.64034,212.912,690.656
961,111.497,36.0341,45.4688,79.5652,2.65039,2.74315,2.98949,6.77929,0.50266,2.89147,3.33206,1.57289,1.40463,1.44341,6.71575,4.68188,195.981,691.672
966,100.971,36.3599,46.4593,78.821,3.45554,4.82423,4.09844,6.77929,3.19875,2.89147,2.46981,2.3228,1.26321,1.27736,5.75724,4.64034,183.49,692.676
971,112.708,34.0392,45.6064,78.5643,2.89346,2.27225,2.56414,6.77929,4.09744,3.70578,2.46981,1.94785,1.40463,1.11132,5.75724,4.47422,186.425,693.578
976,112.119,35.275,44.8271,78.1975,3.98724,3.00139,2.13879,6.77929,3.19875,2.89147,3.33206,1.57289,1.12179,1.44341,4.79872,4.45345,185.965,694.534
981,105.1,35.243,44.387,78.2762,4.52654,3.04696,1.7818,5.97693,2.30005,2.89147,1.60757,1.19794,1.26321,1.27736,4.79872,4.26655,156.809,695.364
986,104.215,33.8464,42.9272,77.2754,0.394463,0.191167,0.53613,5.17456,1.40136,2.07717,3.33206,1.94785,1.12179,1.11132,5.75724,4.32885,139.059,696.086
991,105.808,31.9655,41.0243,76.6466,2.1111,4.64954,1.62229,5.17456,3.19875,2.07717,3.33206,1.19794,1.26321,1.27736,3.8402,4.16272,139.793,696.812
996,98.858,30.6773,40.045,75.8293,1.62497,3.50267,2.43502,5.97693,2.30005,2.89147,2.46981,1.94785,1.12179,1.27736,5.75724,4.14196,138.547,697.517
1001,89.5728,29.5114,39.4485,74.7291,1.19961,3.60141,4.05287,5.17456,2.30005,2.89147,0.745329,1.57289,0.980364,1.27736,3.8402,4.12119,120.671,698.177
1006,79.5984,29.85,39.7095,74.5825,5.89377,2.91024,2.42742,7.58166,2.30005,3.70578,3.33206,1.19794,0.980364,0.945271,3.8402,3.97583,120.19,698.807
1011,73.1348,29.5381,39.5496,74.9019,1.45027,2.56846,1.59191,5.97693,2.30005,3.70578,3.33206,1.19794,1.12179,1.11132,5.75724,3.97583,126.846,699.458
1016,73.5215,28.3011,37.2037,72.8536,1.63257,1.8697,1.64508,5.17456,3.19875,1.26286,3.33206,1.19794,1.12179,0.779224,3.8402,3.9966,118.119,700.085
1021,68.105,27.0839,35.9966,71.7427,1.86044,3.50267,2.39704,5.97693,2.30005,3.70578,3.33206,1.94785,0.980364,0.945271,4.79872,3.78893,118.738,700.673
1026,63.8348,28.0586,37.0006,71.9574,0.986929,3.15329,3.03506,6.77929,4.09744,4.52008,1.60757,1.57289,1.26321,1.11132,4.79872,3.85123,123.719,701.315
1031,61.0102,27.8003,36.1462,71.0825,1.60978,2.57606,2.33627,5.97693,2.30005,2.89147,3.33206,1.19794,1.12179,1.27736,3.8402,3.78893,112.743,701.894
1036,58.5237,27.4987,36.7444,70.7524,2.32378,2.24187,1.9489,5.17456,2.30005,2.07717,2.46981,1.57289,1.12179,1.11132,3.8402,3.62281,117.694,702.46
1041,57.5687,27.7948,36.3277,70.2335,1.7465,2.47732,2.21475,4.3722,4.09744,2.07717,2.46981,1.19794,1.26321,0.945271,5.75724,3.66434,111.467,703.024
1046,61.7926,26.8466,35.7987,70.2649,1.51103,2.46213,3.47561,5.17456,2.30005,3.70578,3.33206,1.57289,1.12179,1.27736,5.75724,3.66434,109.063,703.581
1051,55.2028,25.6333,34.4831,69.856,0.622334,2.33301,2.95151,5.17456,1.40136,2.89147,3.33206,1.19794,0.980364,1.27736,5.75724,3.62281,92.6282,704.054
1056,55.3314,26.4638,33.4338,68.8288,1.02491,0.70764,3.27812,4.3722,1.40136,2.07717,3.33206,1.57289,1.12179,1.27736,4.79872,3.62281,92.3225,704.516
1061,52.6072,26.4961,33.5409,68.2364,2.16427,0.510165,2.30589,4.3722,3.19875,2.89147,3.33206,0.822989,1.12179,0.945271,4.79872,3.47744,89.1789,704.979
1066,52.8436,25.6223,33.4605,67.9008,2.38454,1.52792,2.20715,5.17456,0.50266,2.89147,2.46981,1.19794,1.26321,0.945271,3.8402,3.49821,99.1744,705.461
1071,41.9645,25.6546,33.53,67.3817,1.7465,3.73812,0.991862,4.3722,2.30005,2.89147,2.46981,1.19794,0.838943,0.779224,4.79872,3.31131,121.613,706.03
1076,35.5096,24.888,33.5191,66.9306,3.14411,1.42159,4.22756,3.56984,2.30005,2.89147,1.60757,1.57289,1.12179,0.945271,3.8402,3.29055,105.457,706.636
1081,35.5995,24.202,31.7502,65.7506,0.78944,0.775997,1.88054,5.97693,2.30005,2.07717,1.60757,1.57289,1.12179,1.11132,3.8402,3.33208,109.762,707.19
1086,34.5813,23.8995,32.3884,65.824,2.47569,1.66463,2.16917,4.3722,2.30005,2.07717,2.46981,1.94785,1.12179,0.945271,3.8402,3.29055,122.855,707.796
1091,39.422,23.2507,31.3316,65.1211,0.455228,0.138001,0.847547,6.77929,3.19875,2.07717,2.46981,0.822989,0.838943,0.945271,3.8402,3.33208,107.249,708.388
1096,36.1821,23.1262,30.7947,64.5963,1.49584,0.867139,2.88315,5.17456,3.19875,2.07717,2.46981,1.19794,1.12179,1.11132,4.79872,3.12442,88.1641,708.877
1101,37.3328,22.6339,30.3811,64.7065,2.33137,1.99882,1.67546,5.17456,2.30005,2.89147,1.60757,1.57289,0.980364,0.945271,5.75724,2.95829,69.2042,709.273
1106,38.6304,21.6868,29.6665,64.7065,1.41989,1.69501,2.90594,5.17456,3.19875,1.26286,2.46981,1.57289,0.980364,1.27736,4.79872,3.14518,73.2302,709.651
1111,32.8485,20.5546,28.7685,64.0507,0.705887,1.0798,0.931098,5.17456,2.30005,1.26286,3.33206,1.94785,0.980364,0.945271,3.8402,2.97906,80.4763,710.035
1116,30.7583,19.2909,26.9861,62.1661,0.508399,1.70261,2.1236,5.97693,2.30005,1.26286,3.33206,1.57289,1.12179,0.779224,1.92317,2.85446,92.6816,710.457
1121,23.1131,19.2419,25.5786,60.8687,1.0325,0.472189,1.45519,5.17456,1.40136,1.26286,2.46981,1.19794,1.12179,1.11132,2.88169,2.95829,106.11,710.916
1126,19.486,18.4876,25.9995,60.8373,1.87563,0.996257,2.76922,5.17456,3.19875,3.70578,2.46981,1.94785,1.12179,0.779224,4.79872,2.62603,102.722,711.465
1131,19.1093,18.6286,27.0829,60.4589,2.0959,1.45197,0.908311,5.17456,2.30005,2.07717,1.60757,1.94785,0.838943,1.27736,3.8402,2.81293,70.3462,711.865
1136,16.8772,18.889,26.3228,59.8282,2.43012,3.22165,1.1058,5.17456,2.30005,2.07717,2.46981,1.57289,0.980364,0.945271,3.8402,2.87523,68.1026,712.231
1141,18.8117,19.4098,25.7833,58.9345,0.447633,2.08237,1.30328,3.56984,1.40136,2.89147,1.60757,1.19794,0.980364,0.945271,5.75724,2.81293,67.9581,712.556
1146,18.5275,18.46,25.6322,58.456,0.440037,2.13554,3.3085,4.3722,2.30005,2.07717,2.46981,1.19794,0.980364,0.945271,4.79872,2.6468,71.1992,712.879
1151,11.4308,18.639,25.1679,58.114,0.933759,2.08996,2.61731,5.97693,2.30005,2.07717,1.60757,1.19794,1.12179,0.779224,4.79872,2.60527,93.4302,713.28
1156,8.39073,18.4055,24.8223,57.3722,1.84525,0.730426,3.20217,4.3722,1.40136,2.07717,1.60757,1.19794,1.12179,0.779224,4.79872,2.66756,84.2437,713.728
1161,6.94184,17.6396,24.0606,56.7775,2.69597,2.89505,0.82476,4.3722,1.40136,2.89147,1.60757,1.19794,1.12179,1.11132,3.8402,2.48067,77.6863,714.12
1166,8.91579,18.0143,24.7736,56.9563,0.835015,0.419023,1.93371,5.17456,2.30005,2.07717,3.33206,0.822989,0.838943,0.945271,3.8402,2.48067,82.0308,714.539
1171,10.5077,17.7862,23.6769,56.3668,0.462824,2.59125,0.528534,5.17456,1.40136,2.07717,2.46981,1.19794,1.12179,0.945271,5.75724,2.4599,67.4757,714.887
1176,11.0768,16.5958,23.8929,56.1719,1.07048,2.64441,3.78702,5.17456,1.40136,2.07717,0.745329,1.57289,0.980364,1.11132,3.8402,2.48067,62.8901,715.221
1181,11.9559,15.9105,22.8331,55.5822,0.409654,3.56343,0.794378,4.3722,2.30005,2.07717,1.60757,1.19794,0.838943,0.945271,4.79872,2.48067,55.7949,715.512
1186,9.31078,16.0899,23.0493,55.2766,0.971738,0.639283,2.06283,3.56984,2.30005,2.07717,3.33206,1.19794,0.980364,1.11132,5.75724,2.29377,61.5418,715.803
1191,5.94774,16.4706,22.8979,54.5021,0.20457,0.905115,1.69065,5.17456,3.19875,2.89147,1.60757,1.19794,0.838943,0.779224,5.75724,2.33531,71.3473,716.111
1196,5.81448,16.3128,22.3622,53.9434,1.17682,2.31022,0.801974,4.3722,2.30005,2.07717,2.46981,1.19794,0.980364,1.11132,3.8402,2.37684,66.9617,716.474
1201,2.33194,16.2311,21.8641,53.2,1.28316,1.14816,0.726018,4.3722,1.40136,2.89147,1.60757,1.19794,1.12179,0.779224,3.8402,2.27301,60.6214,716.789
1206,2.0446,15.7306,22.6164,53.453,1.07808,1.42159,2.48818,5.17456,3.19875,2.07717,1.60757,1.19794,0.980364,1.27736,3.8402,2.31454,66.3539,717.112
1211,4.0882,16.1384,22.7569,53.553,1.33633,1.48235,0.688041,5.17456,4.09744,2.89147,2.46981,0.822989,0.980364,0.945271,2.88169,2.10688,47.7646,717.406
1216,4.87601,16.1004,22.5296,53.4054,1.30595,1.0874,1.07541,4.3722,2.30005,1.26286,0.745329,0.822989,0.980364,1.27736,2.88169,2.12765,52.2758,717.665
1221,0.0,15.3331,21.3494,52.5509,1.5642,0.859544,0.460174,4.3722,3.19875,2.89147,1.60757,1.19794,0.980364,1.11132,3.8402,2.16918,54.6149,717.945
1226,0.0,15.2459,20.0485,51.395,0.57676,0.601307,0.96148,4.3722,2.30005,1.26286,1.60757,1.19794,0.980364,1.27736,5.75724,2.12765,37.811,718.179
1231,0.0,15.0173,19.593,50.8406,0.341293,0.175977,0.650063,5.97693,1.40136,2.07717,2.46981,0.822989,0.838943,0.779224,4.79872,2.16918,42.4914,718.374
1236,0.0,14.0914,19.2401,50.4232,0.1514,2.04439,1.20454,4.3722,3.19875,1.26286,3.33206,0.822989,1.12179,0.945271,5.75724,2.00305,53.3448,718.612
1241,0.0,13.5139,18.9307,49.3081,0.599547,0.32788,0.163948,4.3722,1.40136,2.07717,1.60757,1.19794,0.838943,0.779224,4.79872,1.98228,45.4615,718.873
1246,0.0,12.4837,18.1326,48.7529,1.29076,0.251929,0.186735,4.3722,3.19875,2.07717,2.46981,1.19794,0.980364,0.945271,3.8402,1.96152,43.1741,719.11
1251,0.0,13.2032,17.2524,48.0069,1.18442,1.0798,0.870334,4.3722,2.30005,2.89147,1.60757,1.19794,0.980364,0.779224,3.8402,2.00305,27.3211,719.285
1256,0.0,13.1158,16.9751,47.6257,0.326101,1.14057,1.40202,3.56984,2.30005,2.07717,0.745329,1.19794,0.838943,0.945271,3.8402,2.02381,27.6006,719.4
1261,0.0,12.5545,17.4046,47.5623,0.333697,0.859544,1.0982,4.3722,1.40136,2.07717,1.60757,1.57289,0.697521,1.11132,4.79872,1.83692,43.7049,719.582
1266,0.0,12.3908,17.2034,47.5146,0.326101,2.74315,0.300668,3.56984,2.30005,1.26286,2.46981,1.19794,0.414677,0.945271,3.8402,1.83692,32.7672,719.781
1271,0.0,10.4974,16.5724,46.9372,0.0906337,1.5583,1.11339,2.76747,1.40136,2.89147,-0.116914,1.57289,0.838943,0.779224,4.79872,1.81615,46.9171,719.969
1276,0.0,10.5848,15.3649,46.1321,0.136208,0.654474,0.703232,3.56984,2.30005,2.89147,0.745329,1.57289,0.838943,1.11132,4.79872,1.79539,47.1573,720.204
1281,0.0,11.4961,16.5018,46.683,0.926163,1.06461,3.34648,4.3722,3.19875,1.26286,2.46981,1.19794,0.980364,0.613177,2.88169,1.81615,43.8244,720.423
1286,0.0,11.0211,16.7898,46.5557,0.614739,2.37099,0.991862,3.56984,1.40136,2.07717,2.46981,0.822989,0.838943,1.27736,3.8402,1.71232,32.1349,720.622
1291,0.0,11.8829,16.7732,45.8348,0.394463,0.153191,0.110779,3.56984,2.30005,2.07717,2.46981,1.19794,0.838943,1.11132,4.79872,1.62926,21.8101,720.763
1296,0.0,10.808,15.816,45.3099,0.872993,0.160786,0.277881,2.76747,2.30005,2.07717,3.33206,1.19794,0.697521,0.779224,3.8402,1.67079,22.5646,720.879
1301,0.0,10.7316,15.2065,45.1243,0.713483,0.540546,0.665254,2.76747,2.30005,2.89147,3.33206,1.19794,0.838943,1.11132,2.88169,1.50466,25.0846,720.996
1306,0.0,10.0111,15.0977,45.3524,0.189378,0.0544536,1.12099,4.3722,1.40136,2.07717,2.46981,1.19794,0.697521,0.613177,3.8402,1.46313,31.7263,721.149
1311,0.0,10.3058,14.0193,44.4878,0.36408,0.464594,1.01465,4.3722,2.30005,2.07717,2.46981,1.19794,0.980364,0.945271,4.79872,1.50466,33.737,721.332
1316,0.0,11.0206,15.1518,44.5141,0.78944,0.91271,0.710827,5.17456,2.30005,1.26286,3.33206,0.822989,0.697521,0.945271,3.8402,1.46313,25.5166,721.492
1321,0.0,9.74858,15.7122,44.3177,0.57676,0.274714,0.293072,4.3722,1.40136,2.89147,2.46981,1.19794,0.838943,0.779224,3.8402,1.65003,19.3318,721.599
1326,0.0,11.0477,14.6454,43.3143,0.318505,0.0620488,0.103184,4.3722,1.40136,1.26286,2.46981,1.19794,0.838943,0.945271,3.8402,1.54619,22.9959,721.727
1331,0.0,9.32256,13.7629,42.6768,0.295718,-0.0290934,1.19694,3.56984,2.30005,2.07717,1.60757,0.822989,0.697521,0.945271,1.92317,1.4839,37.2112,721.892
1336,0.0,9.84663,13.79,42.8148,0.797036,0.654474,1.06782,4.3722,2.30005,0.448558,4.1943,1.19794,0.838943,0.613177,3.8402,1.4839,24.3537,722.042
1341,0.0,8.45365,14.0785,42.9846,0.781845,2.06718,0.7564,4.3722,2.30005,2.07717,1.60757,1.19794,0.838943,0.945271,3.8402,1.3593,23.3242,722.154
1346,0.0,10.3268,13.9641,42.7243,0.440037,0.0924296,1.08301,3.56984,1.40136,1.26286,3.33206,0.822989,0.556099,0.779224,2.88169,1.31777,20.8955,722.267
1351,0.0,10.0593,13.2013,42.4639,0.766653,0.244333,0.82476,2.76747,0.50266,1.26286,3.33206,0.822989,0.838943,0.945271,3.8402,1.27624,15.2591,722.358
1356,0.0,9.85717,12.9613,41.8578,1.10846,0.365856,1.6071,2.76747,1.40136,1.26286,3.33206,1.19794,0.980364,0.945271,2.88169,1.15164,0.0,722.41
1361,0.0,9.92807,12.9939,41.5173,0.288123,0.0544536,0.186735,2.76747,1.40136,2.89147,3.33206,1.19794,0.838943,0.779224,2.88169,1.1724,0.67391,722.416
1366,0.0,9.28933,12.776,41.1185,1.10086,0.783592,0.0879925,2.76747,2.30005,2.07717,1.60757,0.822989,0.697521,0.945271,1.92317,1.33853,19.7191,722.456
1371,0.0,9.15248,13.1736,40.8735,0.402058,2.31022,0.931098,3.56984,2.30005,3.70578,1.60757,1.19794,0.697521,0.779224,3.8402,1.31777,23.0643,722.572
1376,0.0,8.79729,13.1244,40.8627,0.690696,2.22668,0.718423,3.56984,1.40136,2.89147,0.745329,0.822989,0.697521,0.945271,2.88169,1.1724,22.7828,722.689
1381,0.0,8.98847,13.277,40.7509,0.84261,1.37602,1.65267,3.56984,2.30005,2.89147,2.46981,1.19794,0.980364,0.613177,2.88169,1.02704,8.85246,722.764
1386,0.0,8.51853,13.4567,40.5538,0.379271,0.472189,0.26269,2.76747,2.30005,2.07717,2.46981,1.19794,0.414677,0.779224,3.8402,1.00628,9.17015,722.816
1391,0.0,8.51299,12.5736,40.213,0.409654,0.464594,0.293072,3.56984,2.30005,2.07717,2.46981,0.822989,0.980364,0.945271,4.79872,1.1724,16.6418,722.871
1396,0.0,8.65488,12.2572,39.643,0.303314,0.350666,0.148757,4.3722,0.50266,1.26286,1.60757,0.822989,0.556099,0.613177,3.8402,1.13087,22.9542,722.982
1401,0.0,8.26691,11.7172,39.4511,0.303314,0.745616,1.40202,3.56984,1.40136,-0.365747,1.60757,0.822989,0.697521,0.613177,0.964651,1.00628,18.3422,723.089
1406,0.0,8.33232,12.3551,39.6641,0.227357,1.20133,0.855143,3.56984,1.40136,2.07717,0.745329,0.822989,0.697521,0.945271,1.92317,1.00628,16.7226,723.187
1411,0.0,8.52908,12.2461,39.4457,0.485611,0.456999,0.946289,2.76747,1.40136,2.07717,1.60757,0.822989,0.697521,0.613177,2.88169,0.98551,9.65506,723.251
1416,0.0,8.56178,12.2406,39.1792,0.62993,0.494975,0.277881,2.76747,1.40136,1.26286,1.60757,0.822989,0.556099,0.945271,3.8402,0.98551,10.1155,723.302
1421,0.0,8.61611,11.7604,38.7472,0.265335,0.950686,1.02984,2.76747,2.30005,2.89147,2.46981,1.19794,0.556099,0.779224,3.8402,0.98551,10.0147,723.355
1426,0.0,8.49585,11.9457,38.9657,0.918568,2.27225,1.91092,4.3722,-0.396035,2.07717,0.745329,1.94785,0.697521,1.11132,4.79872,0.819381,0.0,723.375
1431,0.0,9.28774,12.2019,38.7683,0.94895,1.01145,1.07541,2.76747,3.19875,2.07717,2.46981,1.19794,0.556099,0.613177,4.79872,0.819381,0.0,723.377
1436,0.0,9.20574,12.2346,38.4269,0.379271,0.456999,0.39941,1.16275,1.40136,2.07717,4.1943,1.19794,0.980364,0.779224,2.88169,0.98551,0.0,723.377
1441,0.0,8.92703,11.6126,38.1548,0.272931,0.593712,0.391814,1.96511,1.40136,2.07717,2.46981,0.822989,0.697521,0.779224,4.79872,0.819381,0.0,723.377
1446,0.0,8.20598,11.2744,37.9361,0.652717,1.01145,0.308263,1.96511,1.40136,1.26286,2.46981,1.57289,0.556099,0.613177,4.79872,0.798615,0.0,723.377
1451,0.0,7.89999,11.0453,37.5626,0.409654,0.646878,1.48557,2.76747,0.50266,2.07717,2.46981,0.448036,0.697521,0.945271,3.8402,0.840147,0.0,723.377
1456,0.0,7.73036,11.487,37.4343,0.341293,0.2975,0.118375,4.3722,1.40136,2.07717,0.745329,0.448036,0.556099,0.447131,3.8402,0.798615,4.92812,723.389
1461,0.0,7.22748,10.9085,36.9056,0.250144,0.851949,0.39941,4.3722,0.50266,2.07717,1.60757,1.19794,0.697521,0.945271,4.79872,0.653252,8.18525,723.431
1466,0.0,7.44595,10.7829,36.8574,0.500803,0.198762,0.285477,1.96511,1.40136,2.89147,3.33206,1.57289,0.414677,0.945271,3.8402,0.798615,6.21509,723.472
1471,0.0,7.01955,10.4717,36.5155,0.189378,0.183572,0.437388,2.76747,3.19875,2.07717,3.33206,0.448036,0.556099,0.613177,2.88169,0.819381,0.0,723.495
1476,0.0,7.81742,10.2369,36.3231,0.219761,0.236738,0.634872,2.76747,2.30005,2.89147,1.60757,0.822989,0.556099,0.779224,2.88169,0.653252,0.0,723.495
1481,0.0,7.23804,9.84914,36.2429,1.29076,1.26209,0.82476,3.56984,2.30005,1.26286,0.745329,1.19794,0.697521,0.779224,2.88169,0.819381,0.0,723.495
1483,0.0,7.53303,10.4113,36.1946,1.17682,0.760806,1.50076,4.3722,2.30005,1.26286,2.46981,1.19794,0.697521,1.11132,3.8402,0.840147,0.0,723.495