File: 01_Data/Rubber_Band/Cone/Rubber_Band_HRRPUA_25.csv
Time after Ignition,Rubber_Band_R1,Mean,Std. Dev.
0.0,8.1,8.1,
0.25,8.0,8.0,
0.5,10.8,10.8,
0.75,13.2,13.2,
1.0,15.3,15.3,
1.25,17.3,17.3,
1.5,21.5,21.5,
1.75,25.5,25.5,
2.0,28.9,28.9,
2.25,32.6,32.6,
2.5,38.0,38.0,
2.75,42.9,42.9,
3.0,48.2,48.2,
3.25,52.2,52.2,
3.5,59.2,59.2,
3.75,66.5,66.5,
4.0,71.2,71.2,
4.25,76.8,76.8,
4.5,84.2,84.2,
4.75,93.3,93.3,
5.0,98.6,98.6,
5.25,105.9,105.9,
5.5,114.9,114.9,
5.75,118.9,118.9,
6.0,126.1,126.1,
6.25,132.4,132.4,
6.5,133.5,133.5,
6.75,140.7,140.7,
7.0,144.7,144.7,
7.25,151.3,151.3,
7.5,156.7,156.7,
7.75,157.7,157.7,
8.0,165.8,165.8,
8.25,168.4,168.4,
8.5,174.8,174.8,
8.75,177.0,177.0,
9.0,183.0,183.0,
9.25,183.0,183.0,
9.5,190.2,190.2,
9.75,195.1,195.1,
10.0,200.0,200.0,
10.25,198.7,198.7,
10.5,203.0,203.0,
10.75,208.8,208.8,
11.0,215.1,215.1,
11.25,216.2,216.2,
11.5,218.8,218.8,
11.75,226.7,226.7,
12.0,226.4,226.4,
12.25,227.0,227.0,
12.5,238.6,238.6,
12.75,240.3,240.3,
13.0,245.5,245.5,
13.25,248.1,248.1,
13.5,252.8,252.8,
13.75,256.4,256.4,
14.0,258.1,258.1,
14.25,266.9,266.9,
14.5,269.4,269.4,
14.75,269.0,269.0,
15.0,279.9,279.9,
15.25,281.9,281.9,
15.5,285.6,285.6,
15.75,282.5,282.5,
16.0,290.6,290.6,
16.25,297.2,297.2,
16.5,298.7,298.7,
16.75,304.3,304.3,
17.0,311.5,311.5,
17.25,320.9,320.9,
17.5,316.3,316.3,
17.75,319.7,319.7,
18.0,328.9,328.9,
18.25,331.4,331.4,
18.5,342.4,342.4,
18.75,336.7,336.7,
19.0,335.9,335.9,
19.25,352.9,352.9,
19.5,361.4,361.4,
19.75,341.1,341.1,
20.0,357.4,357.4,
20.25,364.7,364.7,
20.5,365.2,365.2,
20.75,360.2,360.2,
21.0,364.1,364.1,
21.25,373.8,373.8,
21.5,366.3,366.3,
21.75,373.3,373.3,
22.0,373.9,373.9,
22.25,382.6,382.6,
22.5,382.3,382.3,
22.75,376.3,376.3,
23.0,390.3,390.3,
23.25,390.5,390.5,
23.5,390.0,390.0,
23.75,389.9,389.9,
24.0,394.4,394.4,
24.25,402.6,402.6,
24.5,410.2,410.2,
24.75,394.2,394.2,
25.0,415.7,415.7,
25.25,400.1,400.1,
25.5,400.2,400.2,
25.75,402.8,402.8,
26.0,391.3,391.3,
26.25,403.4,403.4,
26.5,408.5,408.5,
26.75,417.9,417.9,
27.0,396.2,396.2,
27.25,398.6,398.6,
27.5,399.3,399.3,
27.75,414.0,414.0,
28.0,394.8,394.8,
28.25,406.4,406.4,
28.5,403.3,403.3,
28.75,405.9,405.9,
29.0,416.5,416.5,
29.25,407.5,407.5,
29.5,404.1,404.1,
29.75,412.7,412.7,
30.0,414.7,414.7,
30.25,401.1,401.1,
30.5,407.5,407.5,
30.75,412.7,412.7,
31.0,405.3,405.3,
31.25,407.2,407.2,
31.5,401.4,401.4,
31.75,406.5,406.5,
32.0,402.4,402.4,
32.25,409.1,409.1,
32.5,402.0,402.0,
32.75,409.3,409.3,
33.0,410.4,410.4,
33.25,402.2,402.2,
33.5,414.4,414.4,
33.75,412.0,412.0,
34.0,402.6,402.6,
34.25,413.9,413.9,
34.5,395.9,395.9,
34.75,407.5,407.5,
35.0,400.0,400.0,
35.25,412.5,412.5,
35.5,409.4,409.4,
35.75,407.6,407.6,
36.0,407.7,407.7,
36.25,406.5,406.5,
36.5,395.3,395.3,
36.75,401.2,401.2,
37.0,406.0,406.0,
37.25,414.0,414.0,
37.5,408.1,408.1,
37.75,413.5,413.5,
38.0,405.5,405.5,
38.25,398.7,398.7,
38.5,399.2,399.2,
38.75,412.1,412.1,
39.0,410.3,410.3,
39.25,398.5,398.5,
39.5,402.8,402.8,
39.75,408.9,408.9,
40.0,414.1,414.1,
40.25,406.8,406.8,
40.5,400.1,400.1,
40.75,399.4,399.4,
41.0,409.7,409.7,
41.25,403.9,403.9,
41.5,404.3,404.3,
41.75,404.0,404.0,
42.0,400.6,400.6,
42.25,397.0,397.0,
42.5,399.1,399.1,
42.75,411.1,411.1,
43.0,409.9,409.9,
43.25,394.1,394.1,
43.5,406.8,406.8,
43.75,401.6,401.6,
44.0,400.5,400.5,
44.25,400.9,400.9,
44.5,406.3,406.3,
44.75,414.6,414.6,
45.0,395.1,395.1,
45.25,400.2,400.2,
45.5,395.5,395.5,
45.75,400.8,400.8,
46.0,401.4,401.4,
46.25,390.2,390.2,
46.5,387.5,387.5,
46.75,392.4,392.4,
47.0,402.3,402.3,
47.25,392.1,392.1,
47.5,394.9,394.9,
47.75,381.2,381.2,
48.0,402.0,402.0,
48.25,392.2,392.2,
48.5,397.1,397.1,
48.75,387.3,387.3,
49.0,383.4,383.4,
49.25,391.7,391.7,
49.5,383.7,383.7,
49.75,381.4,381.4,
50.0,391.4,391.4,
50.25,385.3,385.3,
50.5,389.2,389.2,
50.75,383.2,383.2,
51.0,380.1,380.1,
51.25,388.2,388.2,
51.5,381.1,381.1,
51.75,377.8,377.8,
52.0,381.9,381.9,
52.25,379.7,379.7,
52.5,373.0,373.0,
52.75,377.9,377.9,
53.0,370.8,370.8,
53.25,376.2,376.2,
53.5,369.9,369.9,
53.75,379.8,379.8,
54.0,375.0,375.0,
54.25,364.1,364.1,
54.5,368.5,368.5,
54.75,376.1,376.1,
55.0,368.4,368.4,
55.25,365.0,365.0,
55.5,373.7,373.7,
55.75,358.2,358.2,
56.0,353.1,353.1,
56.25,365.6,365.6,
56.5,363.0,363.0,
56.75,360.2,360.2,
57.0,360.8,360.8,
57.25,359.4,359.4,
57.5,354.9,354.9,
57.75,357.3,357.3,
58.0,350.7,350.7,
58.25,359.1,359.1,
58.5,358.2,358.2,
58.75,345.0,345.0,
59.0,340.2,340.2,
59.25,341.5,341.5,
59.5,347.1,347.1,
59.75,334.9,334.9,
60.0,336.7,336.7,
60.25,338.6,338.6,
60.5,331.1,331.1,
60.75,332.6,332.6,
61.0,326.6,326.6,
61.25,320.9,320.9,
61.5,326.9,326.9,
61.75,329.7,329.7,
62.0,321.6,321.6,
62.25,320.7,320.7,
62.5,320.3,320.3,
62.75,319.8,319.8,
63.0,323.8,323.8,
63.25,312.0,312.0,
63.5,321.6,321.6,
63.75,316.3,316.3,
64.0,315.6,315.6,
64.25,308.4,308.4,
64.5,303.6,303.6,
64.75,302.9,302.9,
65.0,305.9,305.9,
65.25,300.4,300.4,
65.5,300.5,300.5,
65.75,300.0,300.0,
66.0,299.0,299.0,
66.25,297.7,297.7,
66.5,290.9,290.9,
66.75,295.9,295.9,
67.0,292.1,292.1,
67.25,290.8,290.8,
67.5,286.9,286.9,
67.75,281.2,281.2,
68.0,278.6,278.6,
68.25,279.0,279.0,
68.5,272.9,272.9,
68.75,274.7,274.7,
69.0,266.5,266.5,
69.25,271.5,271.5,
69.5,265.9,265.9,
69.75,260.4,260.4,
70.0,263.6,263.6,
70.25,262.2,262.2,
70.5,262.1,262.1,
70.75,259.9,259.9,
71.0,255.8,255.8,
71.25,251.9,251.9,
71.5,252.8,252.8,
71.75,250.2,250.2,
72.0,248.7,248.7,
72.25,241.9,241.9,
72.5,246.2,246.2,
72.75,243.6,243.6,
73.0,243.2,243.2,
73.25,239.1,239.1,
73.5,239.1,239.1,
73.75,231.4,231.4,
74.0,229.0,229.0,
74.25,232.3,232.3,
74.5,227.7,227.7,
74.75,227.6,227.6,
75.0,224.7,224.7,
75.25,219.4,219.4,
75.5,213.6,213.6,
75.75,220.2,220.2,
76.0,215.5,215.5,
76.25,216.5,216.5,
76.5,217.9,217.9,
76.75,213.2,213.2,
77.0,211.4,211.4,
77.25,210.7,210.7,
77.5,208.8,208.8,
77.75,205.0,205.0,
78.0,205.3,205.3,
78.25,204.2,204.2,
78.5,202.1,202.1,
78.75,200.8,200.8,
79.0,197.3,197.3,
79.25,196.2,196.2,
79.5,192.8,192.8,
79.75,194.3,194.3,
80.0,193.2,193.2,
80.25,187.7,187.7,
80.5,188.3,188.3,
80.75,184.7,184.7,
81.0,184.1,184.1,
81.25,181.0,181.0,
81.5,177.9,177.9,
81.75,179.0,179.0,
82.0,174.5,174.5,
82.25,173.7,173.7,
82.5,174.2,174.2,
82.75,171.9,171.9,
83.0,168.2,168.2,
83.25,168.4,168.4,
83.5,166.3,166.3,
83.75,165.9,165.9,
84.0,168.9,168.9,
84.25,164.3,164.3,
84.5,164.8,164.8,
84.75,163.9,163.9,
85.0,160.4,160.4,
85.25,158.9,158.9,
85.5,157.6,157.6,
85.75,158.7,158.7,
86.0,156.9,156.9,
86.25,155.1,155.1,
86.5,154.8,154.8,
86.75,155.9,155.9,
87.0,152.9,152.9,
87.25,152.0,152.0,
87.5,153.2,153.2,
87.75,154.1,154.1,
88.0,149.0,149.0,
88.25,149.2,149.2,
88.5,147.5,147.5,
88.75,147.7,147.7,
89.0,147.3,147.3,
89.25,145.3,145.3,
89.5,143.7,143.7,
89.75,142.3,142.3,
90.0,141.5,141.5,
90.25,142.4,142.4,
90.5,140.0,140.0,
90.75,139.4,139.4,
91.0,135.7,135.7,
91.25,137.2,137.2,
91.5,136.7,136.7,
91.75,135.3,135.3,
92.0,132.9,132.9,
92.25,134.8,134.8,
92.5,136.8,136.8,
92.75,131.8,131.8,
93.0,129.8,129.8,
93.25,131.3,131.3,
93.5,129.2,129.2,
93.75,127.9,127.9,
94.0,128.5,128.5,
94.25,125.7,125.7,
94.5,123.8,123.8,
94.75,123.8,123.8,
95.0,126.2,126.2,
95.25,124.3,124.3,
95.5,123.0,123.0,
95.75,122.5,122.5,
96.0,121.0,121.0,
96.25,121.7,121.7,
96.5,119.2,119.2,
96.75,118.4,118.4,
97.0,119.0,119.0,
97.25,119.9,119.9,
97.5,116.7,116.7,
97.75,115.6,115.6,
98.0,115.7,115.7,
98.25,112.7,112.7,
98.5,115.9,115.9,
98.75,115.1,115.1,
99.0,113.6,113.6,
99.25,114.9,114.9,
99.5,111.5,111.5,
99.75,113.0,113.0,
100.0,111.1,111.1,
100.25,110.9,110.9,
100.5,111.4,111.4,
100.75,110.2,110.2,
101.0,110.3,110.3,
101.25,109.2,109.2,
101.5,108.7,108.7,
101.75,107.7,107.7,
102.0,106.2,106.2,
102.25,105.7,105.7,
102.5,106.2,106.2,
102.75,107.9,107.9,
103.0,107.1,107.1,
103.25,104.0,104.0,
103.5,104.3,104.3,
103.75,104.7,104.7,
104.0,104.0,104.0,
104.25,102.7,102.7,
104.5,103.4,103.4,
104.75,106.1,106.1,
105.0,102.5,102.5,
105.25,103.2,103.2,
105.5,101.2,101.2,
105.75,100.8,100.8,
106.0,102.5,102.5,
106.25,103.2,103.2,
106.5,100.8,100.8,
106.75,102.2,102.2,
107.0,100.7,100.7,
107.25,99.9,99.9,
107.5,100.3,100.3,
107.75,100.7,100.7,
108.0,99.5,99.5,
108.25,100.6,100.6,
108.5,99.4,99.4,
108.75,97.7,97.7,
109.0,98.4,98.4,
109.25,98.3,98.3,
109.5,98.2,98.2,
109.75,99.6,99.6,
110.0,98.8,98.8,
110.25,98.8,98.8,
110.5,97.3,97.3,
110.75,97.3,97.3,
111.0,97.8,97.8,
111.25,97.5,97.5,
111.5,98.0,98.0,
111.75,97.8,97.8,
112.0,96.3,96.3,
112.25,97.6,97.6,
112.5,96.6,96.6,
112.75,96.2,96.2,
113.0,98.0,98.0,
113.25,97.9,97.9,
113.5,97.2,97.2,
113.75,96.9,96.9,
114.0,96.2,96.2,
114.25,96.6,96.6,
114.5,95.5,95.5,
114.75,97.2,97.2,
115.0,95.8,95.8,
115.25,96.9,96.9,
115.5,96.7,96.7,
115.75,95.0,95.0,
116.0,95.4,95.4,
116.25,94.6,94.6,
116.5,94.9,94.9,
116.75,95.2,95.2,
117.0,94.0,94.0,
117.25,94.2,94.2,
117.5,93.6,93.6,
117.75,94.7,94.7,
118.0,94.1,94.1,
118.25,93.2,93.2,
118.5,92.6,92.6,
118.75,92.6,92.6,
119.0,91.0,91.0,
119.25,92.9,92.9,
119.5,92.0,92.0,
119.75,92.4,92.4,
120.0,92.9,92.9,
120.25,92.7,92.7,
120.5,92.4,92.4,
120.75,91.8,91.8,
121.0,92.0,92.0,
121.25,90.8,90.8,
121.5,93.3,93.3,
121.75,91.6,91.6,
122.0,92.4,92.4,
122.25,91.4,91.4,
122.5,92.2,92.2,
122.75,91.3,91.3,
123.0,91.8,91.8,
123.25,91.2,91.2,
123.5,90.2,90.2,
123.75,90.1,90.1,
124.0,91.1,91.1,
124.25,90.6,90.6,
124.5,87.9,87.9,
124.75,89.4,89.4,
125.0,89.2,89.2,
125.25,88.9,88.9,
125.5,86.5,86.5,
125.75,89.0,89.0,
126.0,88.6,88.6,
126.25,86.5,86.5,
126.5,86.6,86.6,
126.75,87.1,87.1,
127.0,86.5,86.5,
127.25,85.8,85.8,
127.5,85.6,85.6,
127.75,86.2,86.2,
128.0,86.7,86.7,
128.25,86.2,86.2,
128.5,85.7,85.7,
128.75,86.4,86.4,
129.0,83.9,83.9,
129.25,85.5,85.5,
129.5,85.2,85.2,
129.75,85.1,85.1,
130.0,83.5,83.5,
130.25,85.7,85.7,
130.5,85.1,85.1,
130.75,83.5,83.5,
131.0,82.8,82.8,
131.25,84.9,84.9,
131.5,83.1,83.1,
131.75,83.4,83.4,
132.0,85.5,85.5,
132.25,83.4,83.4,
132.5,82.9,82.9,
132.75,82.8,82.8,
133.0,82.6,82.6,
133.25,84.5,84.5,
133.5,83.5,83.5,
133.75,82.6,82.6,
134.0,82.9,82.9,
134.25,82.1,82.1,
134.5,82.7,82.7,
134.75,83.1,83.1,
135.0,81.8,81.8,
135.25,82.7,82.7,
135.5,81.9,81.9,
135.75,81.2,81.2,
136.0,81.9,81.9,
136.25,80.4,80.4,
136.5,80.6,80.6,
136.75,81.5,81.5,
137.0,80.6,80.6,
137.25,80.0,80.0,
137.5,81.3,81.3,
137.75,81.5,81.5,
138.0,80.7,80.7,
138.25,82.2,82.2,
138.5,80.8,80.8,
138.75,80.8,80.8,
139.0,80.7,80.7,
139.25,80.6,80.6,
139.5,79.8,79.8,
139.75,79.3,79.3,
140.0,78.6,78.6,
140.25,80.4,80.4,
140.5,79.5,79.5,
140.75,80.4,80.4,
141.0,78.7,78.7,
141.25,79.5,79.5,
141.5,78.3,78.3,
141.75,79.4,79.4,
142.0,79.1,79.1,
142.25,78.6,78.6,
142.5,77.9,77.9,
142.75,79.5,79.5,
143.0,78.8,78.8,
143.25,79.5,79.5,
143.5,77.4,77.4,
143.75,77.6,77.6,
144.0,78.0,78.0,
144.25,76.6,76.6,
144.5,77.4,77.4,
144.75,77.2,77.2,
145.0,76.6,76.6,
145.25,76.5,76.5,
145.5,76.6,76.6,
145.75,75.8,75.8,
146.0,76.1,76.1,
146.25,76.5,76.5,
146.5,76.4,76.4,
146.75,76.7,76.7,
147.0,76.5,76.5,
147.25,75.3,75.3,
147.5,77.2,77.2,
147.75,74.9,74.9,
148.0,76.6,76.6,
148.25,74.6,74.6,
148.5,75.4,75.4,
148.75,74.7,74.7,
149.0,74.7,74.7,
149.25,74.8,74.8,
149.5,75.2,75.2,
149.75,74.3,74.3,
150.0,75.3,75.3,
150.25,74.8,74.8,
150.5,74.9,74.9,
150.75,74.8,74.8,
151.0,75.0,75.0,
151.25,74.4,74.4,
151.5,74.0,74.0,
151.75,74.1,74.1,
152.0,74.0,74.0,
152.25,73.9,73.9,
152.5,73.5,73.5,
152.75,72.6,72.6,
153.0,73.4,73.4,
153.25,72.7,72.7,
153.5,72.8,72.8,
153.75,72.2,72.2,
154.0,72.1,72.1,
154.25,71.3,71.3,
154.5,72.5,72.5,
154.75,72.3,72.3,
155.0,71.6,71.6,
155.25,71.8,71.8,
155.5,69.9,69.9,
155.75,71.0,71.0,
156.0,70.6,70.6,
156.25,72.6,72.6,
156.5,70.4,70.4,
156.75,70.5,70.5,
157.0,70.4,70.4,
157.25,69.5,69.5,
157.5,69.5,69.5,
157.75,70.2,70.2,
158.0,69.4,69.4,
158.25,69.9,69.9,
158.5,68.9,68.9,
158.75,68.9,68.9,
159.0,70.3,70.3,
159.25,67.6,67.6,
159.5,68.6,68.6,
159.75,69.9,69.9,
160.0,68.8,68.8,
160.25,67.5,67.5,
160.5,68.0,68.0,
160.75,67.1,67.1,
161.0,67.7,67.7,
161.25,67.4,67.4,
161.5,67.8,67.8,
161.75,66.8,66.8,
162.0,66.6,66.6,
162.25,66.5,66.5,
162.5,67.1,67.1,
162.75,66.8,66.8,
163.0,66.0,66.0,
163.25,65.5,65.5,
163.5,65.2,65.2,
163.75,65.8,65.8,
164.0,64.8,64.8,
164.25,64.8,64.8,
164.5,64.3,64.3,
164.75,65.1,65.1,
165.0,64.7,64.7,
165.25,64.4,64.4,
165.5,64.6,64.6,
165.75,64.3,64.3,
166.0,64.5,64.5,
166.25,64.6,64.6,
166.5,63.6,63.6,
166.75,64.1,64.1,
167.0,62.8,62.8,
167.25,64.0,64.0,
167.5,63.2,63.2,
167.75,63.8,63.8,
168.0,64.1,64.1,
168.25,63.3,63.3,
168.5,62.0,62.0,
168.75,63.9,63.9,
169.0,62.4,62.4,
169.25,62.9,62.9,
169.5,62.2,62.2,
169.75,61.5,61.5,
170.0,62.5,62.5,
170.25,61.4,61.4,
170.5,62.4,62.4,
170.75,62.1,62.1,
171.0,62.7,62.7,
171.25,62.4,62.4,
171.5,61.7,61.7,
171.75,62.4,62.4,
172.0,60.7,60.7,
172.25,62.1,62.1,
172.5,63.3,63.3,
172.75,62.8,62.8,
173.0,62.3,62.3,
173.25,61.9,61.9,
173.5,61.9,61.9,
173.75,63.0,63.0,
174.0,60.9,60.9,
174.25,61.5,61.5,
174.5,61.7,61.7,
174.75,61.4,61.4,
175.0,61.0,61.0,
175.25,59.5,59.5,
175.5,60.7,60.7,
175.75,60.3,60.3,
176.0,60.9,60.9,
176.25,60.5,60.5,
176.5,60.3,60.3,
176.75,60.2,60.2,
177.0,60.7,60.7,
177.25,60.0,60.0,
177.5,60.2,60.2,
177.75,59.6,59.6,
178.0,61.2,61.2,
178.25,59.8,59.8,
178.5,60.1,60.1,
178.75,60.2,60.2,
179.0,60.1,60.1,
179.25,59.3,59.3,
179.5,59.5,59.5,
179.75,59.2,59.2,
180.0,58.8,58.8,
180.25,59.1,59.1,
180.5,59.4,59.4,
180.75,59.1,59.1,
181.0,58.8,58.8,
181.25,60.0,60.0,
181.5,59.4,59.4,
181.75,60.5,60.5,
182.0,59.5,59.5,
182.25,59.3,59.3,
182.5,59.1,59.1,
182.75,59.9,59.9,
183.0,59.0,59.0,
183.25,58.6,58.6,
183.5,58.8,58.8,
183.75,59.5,59.5,
184.0,59.2,59.2,
184.25,59.4,59.4,
184.5,58.9,58.9,
184.75,58.5,58.5,
185.0,58.2,58.2,
185.25,58.5,58.5,
185.5,58.6,58.6,
185.75,58.3,58.3,
186.0,58.3,58.3,
186.25,57.2,57.2,
186.5,57.9,57.9,
186.75,58.6,58.6,
187.0,56.8,56.8,
187.25,58.8,58.8,
187.5,57.8,57.8,
187.75,57.9,57.9,
188.0,58.3,58.3,
188.25,58.0,58.0,
188.5,57.5,57.5,
188.75,57.3,57.3,
189.0,57.3,57.3,
189.25,57.2,57.2,
189.5,57.0,57.0,
189.75,57.0,57.0,
190.0,56.6,56.6,
190.25,56.2,56.2,
190.5,56.6,56.6,
190.75,55.8,55.8,
191.0,57.4,57.4,
191.25,57.1,57.1,
191.5,57.2,57.2,
191.75,56.1,56.1,
192.0,55.9,55.9,
192.25,56.6,56.6,
192.5,56.5,56.5,
192.75,55.7,55.7,
193.0,56.3,56.3,
193.25,56.2,56.2,
193.5,54.5,54.5,
193.75,55.8,55.8,
194.0,54.9,54.9,
194.25,55.1,55.1,
194.5,54.9,54.9,
194.75,55.0,55.0,
195.0,54.4,54.4,
195.25,54.8,54.8,
195.5,54.5,54.5,
195.75,54.5,54.5,
196.0,55.2,55.2,
196.25,54.3,54.3,
196.5,54.5,54.5,
196.75,54.5,54.5,
197.0,53.8,53.8,
197.25,53.9,53.9,
197.5,53.2,53.2,
197.75,54.3,54.3,
198.0,52.6,52.6,
198.25,53.4,53.4,
198.5,53.1,53.1,
198.75,53.9,53.9,
199.0,53.2,53.2,
199.25,53.4,53.4,
199.5,53.5,53.5,
199.75,53.6,53.6,
200.0,52.8,52.8,
200.25,53.3,53.3,
200.5,52.6,52.6,
200.75,52.7,52.7,
201.0,52.9,52.9,
201.25,52.7,52.7,
201.5,52.4,52.4,
201.75,52.0,52.0,
202.0,52.7,52.7,
202.25,51.9,51.9,
202.5,53.0,53.0,
202.75,52.6,52.6,
203.0,51.2,51.2,
203.25,52.5,52.5,
203.5,51.7,51.7,
203.75,51.5,51.5,
204.0,52.1,52.1,
204.25,51.6,51.6,
204.5,51.4,51.4,
204.75,51.2,51.2,
205.0,51.1,51.1,
205.25,50.9,50.9,
205.5,50.4,50.4,
205.75,50.4,50.4,
206.0,50.5,50.5,
206.25,50.2,50.2,
206.5,49.7,49.7,
206.75,49.7,49.7,
207.0,49.4,49.4,
207.25,48.9,48.9,
207.5,48.5,48.5,
207.75,49.7,49.7,
208.0,49.7,49.7,
208.25,49.3,49.3,
208.5,48.8,48.8,
208.75,49.1,49.1,
209.0,48.3,48.3,
209.25,47.8,47.8,
209.5,48.4,48.4,
209.75,48.1,48.1,
210.0,49.4,49.4,
210.25,48.1,48.1,
210.5,48.0,48.0,
210.75,47.2,47.2,
211.0,48.0,48.0,
211.25,47.7,47.7,
211.5,47.6,47.6,
211.75,47.4,47.4,
212.0,47.7,47.7,
212.25,47.9,47.9,
212.5,47.2,47.2,
212.75,47.9,47.9,
213.0,47.2,47.2,
213.25,47.2,47.2,
213.5,47.1,47.1,
213.75,47.5,47.5,
214.0,46.9,46.9,
214.25,47.3,47.3,
214.5,47.3,47.3,
214.75,47.5,47.5,
215.0,47.9,47.9,
215.25,47.3,47.3,
215.5,47.8,47.8,
215.75,47.9,47.9,
216.0,47.1,47.1,
216.25,47.1,47.1,
216.5,47.9,47.9,
216.75,47.1,47.1,
217.0,46.9,46.9,
217.25,47.3,47.3,
217.5,46.9,46.9,
217.75,46.4,46.4,
218.0,46.7,46.7,
218.25,46.3,46.3,
218.5,46.3,46.3,
218.75,46.6,46.6,
219.0,46.0,46.0,
219.25,45.8,45.8,
219.5,45.1,45.1,
219.75,45.9,45.9,
220.0,44.9,44.9,
220.25,46.0,46.0,
220.5,45.2,45.2,
220.75,44.7,44.7,
221.0,44.4,44.4,
221.25,44.9,44.9,
221.5,44.8,44.8,
221.75,44.2,44.2,
222.0,44.8,44.8,
222.25,44.1,44.1,
222.5,44.3,44.3,
222.75,44.5,44.5,
223.0,44.1,44.1,
223.25,44.0,44.0,
223.5,44.1,44.1,
223.75,43.9,43.9,
224.0,43.8,43.8,
224.25,43.7,43.7,
224.5,43.8,43.8,
224.75,44.0,44.0,
225.0,43.8,43.8,
225.25,43.1,43.1,
225.5,43.6,43.6,
225.75,43.2,43.2,
226.0,43.9,43.9,
226.25,44.2,44.2,
226.5,43.6,43.6,
226.75,43.4,43.4,
227.0,44.2,44.2,
227.25,43.5,43.5,
227.5,43.8,43.8,
227.75,43.6,43.6,
228.0,43.4,43.4,
228.25,43.4,43.4,
228.5,43.6,43.6,
228.75,43.0,43.0,
229.0,43.1,43.1,
229.25,43.1,43.1,
229.5,43.2,43.2,
229.75,42.7,42.7,
230.0,43.0,43.0,
230.25,43.3,43.3,
230.5,43.0,43.0,
230.75,43.2,43.2,
231.0,43.9,43.9,
231.25,42.9,42.9,
231.5,43.2,43.2,
231.75,43.2,43.2,
232.0,43.0,43.0,
232.25,42.8,42.8,
232.5,43.1,43.1,
232.75,43.2,43.2,
233.0,43.0,43.0,
233.25,43.0,43.0,
233.5,42.8,42.8,
233.75,42.6,42.6,
234.0,42.7,42.7,
234.25,42.9,42.9,
234.5,43.3,43.3,
234.75,42.5,42.5,
235.0,42.9,42.9,
235.25,43.3,43.3,
235.5,43.4,43.4,
235.75,42.7,42.7,
236.0,43.0,43.0,
236.25,42.5,42.5,
236.5,42.1,42.1,
236.75,41.8,41.8,
237.0,42.4,42.4,
237.25,42.1,42.1,
237.5,42.1,42.1,
237.75,42.6,42.6,
238.0,42.4,42.4,
238.25,41.9,41.9,
238.5,41.9,41.9,
238.75,42.4,42.4,
239.0,42.2,42.2,
239.25,41.2,41.2,
239.5,41.7,41.7,
239.75,42.2,42.2,
240.0,42.8,42.8,
240.25,42.0,42.0,
240.5,42.2,42.2,
240.75,41.3,41.3,
241.0,41.8,41.8,
241.25,41.7,41.7,
241.5,41.4,41.4,
241.75,41.7,41.7,
242.0,41.1,41.1,
242.25,41.1,41.1,
242.5,41.2,41.2,
242.75,40.6,40.6,
243.0,40.6,40.6,
243.25,41.3,41.3,
243.5,40.7,40.7,
243.75,39.7,39.7,
244.0,40.3,40.3,
244.25,39.7,39.7,
244.5,39.7,39.7,
244.75,40.1,40.1,
245.0,39.8,39.8,
245.25,40.3,40.3,
245.5,39.9,39.9,
245.75,39.8,39.8,
246.0,39.8,39.8,
246.25,39.6,39.6,
246.5,39.6,39.6,
246.75,40.0,40.0,
247.0,39.6,39.6,
247.25,39.7,39.7,
247.5,38.9,38.9,
247.75,39.0,39.0,
248.0,39.4,39.4,
248.25,39.6,39.6,
248.5,39.1,39.1,
248.75,39.2,39.2,
249.0,38.4,38.4,
249.25,38.6,38.6,
249.5,38.4,38.4,
249.75,38.0,38.0,
250.0,38.2,38.2,
250.25,37.8,37.8,
250.5,38.4,38.4,
250.75,38.2,38.2,
251.0,37.9,37.9,
251.25,38.0,38.0,
251.5,38.0,38.0,
251.75,38.1,38.1,
252.0,37.9,37.9,
252.25,37.2,37.2,
252.5,37.3,37.3,
252.75,37.1,37.1,
253.0,38.2,38.2,
253.25,37.5,37.5,
253.5,37.4,37.4,
253.75,36.9,36.9,
254.0,36.9,36.9,
254.25,36.8,36.8,
254.5,36.5,36.5,
254.75,37.2,37.2,
255.0,36.5,36.5,
255.25,36.7,36.7,
255.5,36.3,36.3,
255.75,36.2,36.2,
256.0,36.4,36.4,
256.25,36.4,36.4,
256.5,36.1,36.1,
256.75,36.5,36.5,
257.0,35.8,35.8,
257.25,35.3,35.3,
257.5,35.8,35.8,
257.75,35.8,35.8,
258.0,35.9,35.9,
258.25,35.4,35.4,
258.5,35.7,35.7,
258.75,35.6,35.6,
259.0,34.9,34.9,
259.25,35.7,35.7,
259.5,35.1,35.1,
259.75,35.5,35.5,
260.0,35.3,35.3,
260.25,35.3,35.3,
260.5,34.9,34.9,
260.75,35.2,35.2,
261.0,35.0,35.0,
261.25,34.9,34.9,
261.5,34.7,34.7,
261.75,35.3,35.3,
262.0,34.8,34.8,
262.25,35.0,35.0,
262.5,35.0,35.0,
262.75,34.7,34.7,
263.0,34.6,34.6,
263.25,35.3,35.3,
263.5,34.4,34.4,
263.75,35.1,35.1,
264.0,34.4,34.4,
264.25,34.8,34.8,
264.5,34.7,34.7,
264.75,35.0,35.0,
265.0,34.5,34.5,
265.25,35.4,35.4,
265.5,34.9,34.9,
265.75,34.9,34.9,
266.0,34.9,34.9,
266.25,35.0,35.0,
266.5,34.5,34.5,
266.75,34.6,34.6,
267.0,35.6,35.6,
267.25,34.8,34.8,
267.5,34.8,34.8,
267.75,34.6,34.6,
268.0,34.0,34.0,
268.25,34.7,34.7,
268.5,34.5,34.5,
268.75,34.5,34.5,
269.0,33.8,33.8,
269.25,34.5,34.5,
269.5,33.9,33.9,
269.75,33.8,33.8,
270.0,34.4,34.4,
270.25,33.9,33.9,
270.5,33.6,33.6,
270.75,33.9,33.9,
271.0,33.9,33.9,
271.25,33.7,33.7,
271.5,33.7,33.7,
271.75,33.5,33.5,
272.0,33.7,33.7,
272.25,33.8,33.8,
272.5,33.7,33.7,
272.75,33.9,33.9,
273.0,33.7,33.7,
273.25,33.7,33.7,
273.5,33.6,33.6,
273.75,33.1,33.1,
274.0,33.5,33.5,
274.25,33.1,33.1,
274.5,33.0,33.0,
274.75,33.2,33.2,
275.0,33.2,33.2,
275.25,33.1,33.1,
275.5,32.5,32.5,
275.75,33.4,33.4,
276.0,32.5,32.5,
276.25,32.9,32.9,
276.5,32.7,32.7,
276.75,32.8,32.8,
277.0,32.6,32.6,
277.25,33.3,33.3,
277.5,32.5,32.5,
277.75,32.7,32.7,
278.0,32.4,32.4,
278.25,32.7,32.7,
278.5,33.0,33.0,
278.75,32.5,32.5,
279.0,32.4,32.4,
279.25,32.9,32.9,
279.5,32.7,32.7,
279.75,32.6,32.6,
280.0,32.5,32.5,
280.25,32.4,32.4,
280.5,32.5,32.5,
280.75,32.8,32.8,
281.0,32.5,32.5,
281.25,32.7,32.7,
281.5,33.2,33.2,
281.75,33.2,33.2,
282.0,33.0,33.0,
282.25,32.9,32.9,
282.5,32.8,32.8,
282.75,33.2,33.2,
283.0,33.1,33.1,
283.25,33.5,33.5,
283.5,33.6,33.6,
283.75,33.1,33.1,
284.0,33.0,33.0,
284.25,33.5,33.5,
284.5,33.9,33.9,
284.75,33.4,33.4,
285.0,33.3,33.3,
285.25,33.3,33.3,
285.5,33.8,33.8,
285.75,32.9,32.9,
286.0,32.8,32.8,
286.25,33.4,33.4,
286.5,33.1,33.1,
286.75,33.1,33.1,
287.0,32.6,32.6,
287.25,32.9,32.9,
287.5,33.5,33.5,
287.75,33.1,33.1,
288.0,32.9,32.9,
288.25,32.7,32.7,
288.5,33.0,33.0,
288.75,32.9,32.9,
289.0,32.3,32.3,
289.25,32.7,32.7,
289.5,32.4,32.4,
289.75,32.1,32.1,
290.0,31.9,31.9,
290.25,32.3,32.3,
290.5,31.7,31.7,
290.75,32.1,32.1,
291.0,31.6,31.6,
291.25,31.9,31.9,
291.5,31.6,31.6,
291.75,31.8,31.8,
292.0,31.5,31.5,
292.25,32.0,32.0,
292.5,31.1,31.1,
292.75,31.6,31.6,
293.0,31.5,31.5,
293.25,31.5,31.5,
293.5,31.6,31.6,
293.75,31.5,31.5,
294.0,31.4,31.4,
294.25,31.5,31.5,
294.5,31.4,31.4,
294.75,31.8,31.8,
295.0,31.2,31.2,
295.25,31.4,31.4,
295.5,31.3,31.3,
295.75,31.6,31.6,
296.0,31.0,31.0,
296.25,31.4,31.4,
296.5,31.5,31.5,
296.75,31.3,31.3,
297.0,31.7,31.7,
297.25,31.5,31.5,
297.5,31.3,31.3,
297.75,30.9,30.9,
298.0,31.3,31.3,
298.25,31.1,31.1,
298.5,30.8,30.8,
298.75,30.8,30.8,
299.0,31.1,31.1,
299.25,30.7,30.7,
299.5,30.8,30.8,
299.75,30.9,30.9,
300.0,30.6,30.6,
300.25,31.0,31.0,
300.5,30.8,30.8,
300.75,30.6,30.6,
301.0,30.4,30.4,
301.25,30.1,30.1,
301.5,30.4,30.4,
301.75,30.5,30.5,
302.0,30.2,30.2,
302.25,30.2,30.2,
302.5,30.3,30.3,
302.75,29.7,29.7,
303.0,30.1,30.1,
303.25,29.6,29.6,
303.5,30.1,30.1,
303.75,29.6,29.6,
304.0,29.7,29.7,
304.25,29.7,29.7,
304.5,29.7,29.7,
304.75,30.1,30.1,
305.0,28.9,28.9,
305.25,29.4,29.4,
305.5,29.1,29.1,
305.75,29.0,29.0,
306.0,28.9,28.9,
306.25,28.9,28.9,
306.5,28.1,28.1,
306.75,28.3,28.3,
307.0,28.2,28.2,
307.25,28.0,28.0,
307.5,27.7,27.7,
307.75,27.6,27.6,
308.0,27.1,27.1,
308.25,27.4,27.4,
308.5,26.9,26.9,
308.75,26.7,26.7,
309.0,27.1,27.1,
309.25,26.9,26.9,
309.5,26.7,26.7,
309.75,26.4,26.4,
310.0,26.3,26.3,
310.25,26.3,26.3,
310.5,26.0,26.0,
310.75,25.7,25.7,
311.0,26.1,26.1,
311.25,26.1,26.1,
311.5,26.4,26.4,
311.75,25.9,25.9,
312.0,25.5,25.5,
312.25,26.0,26.0,
312.5,25.7,25.7,
312.75,25.8,25.8,
313.0,25.7,25.7,
313.25,25.5,25.5,
313.5,25.7,25.7,
313.75,26.1,26.1,
314.0,25.7,25.7,
314.25,25.8,25.8,
314.5,25.7,25.7,
314.75,25.7,25.7,
315.0,25.6,25.6,
315.25,25.6,25.6,
315.5,25.3,25.3,
315.75,25.7,25.7,
316.0,25.7,25.7,
316.25,25.7,25.7,
316.5,25.4,25.4,
316.75,25.8,25.8,
317.0,25.9,25.9,
317.25,26.2,26.2,
317.5,26.0,26.0,
317.75,25.7,25.7,
318.0,26.2,26.2,
318.25,26.3,26.3,
318.5,26.5,26.5,
318.75,26.3,26.3,
319.0,26.4,26.4,
319.25,26.4,26.4,
319.5,26.2,26.2,
319.75,26.4,26.4,
320.0,26.2,26.2,
320.25,26.0,26.0,
320.5,26.3,26.3,
320.75,26.5,26.5,
321.0,26.6,26.6,
321.25,26.5,26.5,
321.5,26.8,26.8,
321.75,26.1,26.1,
322.0,26.8,26.8,
322.25,26.8,26.8,
322.5,26.7,26.7,
322.75,26.7,26.7,
323.0,26.4,26.4,
323.25,26.6,26.6,
323.5,26.8,26.8,
323.75,26.7,26.7,
324.0,26.4,26.4,
324.25,26.3,26.3,
324.5,26.1,26.1,
324.75,26.2,26.2,
325.0,26.2,26.2,
325.25,26.2,26.2,
325.5,26.1,26.1,
325.75,26.0,26.0,
326.0,26.3,26.3,
326.25,26.1,26.1,
326.5,26.0,26.0,
326.75,25.6,25.6,
327.0,26.0,26.0,
327.25,26.2,26.2,
327.5,25.9,25.9,
327.75,25.8,25.8,
328.0,25.9,25.9,
328.25,26.0,26.0,
328.5,25.5,25.5,
328.75,25.3,25.3,
329.0,25.5,25.5,
329.25,25.9,25.9,
329.5,25.9,25.9,
329.75,26.1,26.1,
330.0,25.8,25.8,
330.25,26.1,26.1,
330.5,26.2,26.2,
330.75,25.8,25.8,
331.0,25.8,25.8,
331.25,26.2,26.2,
331.5,26.0,26.0,
331.75,25.8,25.8,
332.0,25.9,25.9,
332.25,25.8,25.8,
332.5,25.5,25.5,
332.75,25.8,25.8,
333.0,25.5,25.5,
333.25,25.3,25.3,
333.5,25.3,25.3,
333.75,25.1,25.1,
334.0,25.3,25.3,
334.25,25.2,25.2,
334.5,25.1,25.1,
334.75,24.8,24.8,
335.0,25.2,25.2,
335.25,25.3,25.3,
335.5,25.2,25.2,
335.75,24.9,24.9,
336.0,25.6,25.6,
336.25,25.1,25.1,
336.5,24.8,24.8,
336.75,25.0,25.0,
337.0,24.6,24.6,
337.25,24.7,24.7,
337.5,25.0,25.0,
337.75,25.3,25.3,
338.0,25.1,25.1,
338.25,25.2,25.2,
338.5,25.4,25.4,
338.75,25.3,25.3,
339.0,25.5,25.5,
339.25,25.5,25.5,
339.5,25.9,25.9,
339.75,25.8,25.8,
340.0,25.8,25.8,
340.25,25.7,25.7,
340.5,25.6,25.6,
340.75,25.7,25.7,
341.0,25.5,25.5,
341.25,25.5,25.5,
341.5,25.2,25.2,
341.75,25.8,25.8,
342.0,25.2,25.2,
342.25,25.4,25.4,
342.5,25.2,25.2,
342.75,25.0,25.0,
343.0,25.2,25.2,
343.25,24.7,24.7,
343.5,25.0,25.0,
343.75,24.7,24.7,
344.0,24.8,24.8,
344.25,24.4,24.4,
344.5,24.3,24.3,
344.75,23.9,23.9,
345.0,23.9,23.9,
345.25,24.0,24.0,
345.5,23.5,23.5,