File: 01_Data/Rubber_Band/Cone/Rubber_Band_HRRPUA_100.csv
Time after Ignition,Rubber_Band_R1,Mean,Std. Dev.
0.0,17.2,17.2,
0.25,19.9,19.9,
0.5,22.5,22.5,
0.75,32.1,32.1,
1.0,39.4,39.4,
1.25,45.6,45.6,
1.5,52.0,52.0,
1.75,71.6,71.6,
2.0,91.1,91.1,
2.25,103.1,103.1,
2.5,117.3,117.3,
2.75,127.7,127.7,
3.0,158.2,158.2,
3.25,183.7,183.7,
3.5,200.9,200.9,
3.75,222.4,222.4,
4.0,262.1,262.1,
4.25,291.9,291.9,
4.5,312.7,312.7,
4.75,333.2,333.2,
5.0,369.5,369.5,
5.25,364.4,364.4,
5.5,392.5,392.5,
5.75,414.8,414.8,
6.0,437.3,437.3,
6.25,474.1,474.1,
6.5,480.9,480.9,
6.75,524.1,524.1,
7.0,522.5,522.5,
7.25,553.5,553.5,
7.5,596.9,596.9,
7.75,589.6,589.6,
8.0,643.6,643.6,
8.25,685.9,685.9,
8.5,668.2,668.2,
8.75,716.2,716.2,
9.0,741.8,741.8,
9.25,784.0,784.0,
9.5,822.8,822.8,
9.75,805.9,805.9,
10.0,836.6,836.6,
10.25,815.4,815.4,
10.5,857.8,857.8,
10.75,847.8,847.8,
11.0,875.0,875.0,
11.25,879.9,879.9,
11.5,932.3,932.3,
11.75,899.3,899.3,
12.0,949.4,949.4,
12.25,919.1,919.1,
12.5,961.6,961.6,
12.75,964.4,964.4,
13.0,996.1,996.1,
13.25,952.6,952.6,
13.5,1024.2,1024.2,
13.75,1008.0,1008.0,
14.0,1053.6,1053.6,
14.25,965.0,965.0,
14.5,987.3,987.3,
14.75,1008.1,1008.1,
15.0,1062.4,1062.4,
15.25,1058.9,1058.9,
15.5,1022.1,1022.1,
15.75,1067.9,1067.9,
16.0,1025.9,1025.9,
16.25,1023.6,1023.6,
16.5,1035.7,1035.7,
16.75,1036.2,1036.2,
17.0,1037.2,1037.2,
17.25,1046.3,1046.3,
17.5,1053.6,1053.6,
17.75,1057.6,1057.6,
18.0,1096.6,1096.6,
18.25,1012.2,1012.2,
18.5,1038.7,1038.7,
18.75,1067.4,1067.4,
19.0,996.8,996.8,
19.25,1102.8,1102.8,
19.5,1062.0,1062.0,
19.75,1022.1,1022.1,
20.0,1029.9,1029.9,
20.25,1038.6,1038.6,
20.5,1029.1,1029.1,
20.75,1001.5,1001.5,
21.0,1058.0,1058.0,
21.25,996.0,996.0,
21.5,1020.8,1020.8,
21.75,1022.1,1022.1,
22.0,1031.3,1031.3,
22.25,1012.6,1012.6,
22.5,976.7,976.7,
22.75,1012.8,1012.8,
23.0,1043.9,1043.9,
23.25,1031.4,1031.4,
23.5,1048.0,1048.0,
23.75,991.4,991.4,
24.0,1031.4,1031.4,
24.25,978.2,978.2,
24.5,1055.8,1055.8,
24.75,1018.3,1018.3,
25.0,969.8,969.8,
25.25,960.5,960.5,
25.5,1055.1,1055.1,
25.75,989.3,989.3,
26.0,987.4,987.4,
26.25,993.4,993.4,
26.5,963.1,963.1,
26.75,965.2,965.2,
27.0,1001.0,1001.0,
27.25,935.9,935.9,
27.5,943.1,943.1,
27.75,894.2,894.2,
28.0,946.2,946.2,
28.25,942.9,942.9,
28.5,915.6,915.6,
28.75,912.8,912.8,
29.0,910.7,910.7,
29.25,920.5,920.5,
29.5,919.5,919.5,
29.75,853.3,853.3,
30.0,845.0,845.0,
30.25,851.2,851.2,
30.5,820.7,820.7,
30.75,824.9,824.9,
31.0,808.0,808.0,
31.25,824.5,824.5,
31.5,799.8,799.8,
31.75,782.6,782.6,
32.0,771.7,771.7,
32.25,759.7,759.7,
32.5,759.7,759.7,
32.75,726.1,726.1,
33.0,722.5,722.5,
33.25,716.1,716.1,
33.5,710.1,710.1,
33.75,701.3,701.3,
34.0,700.0,700.0,
34.25,669.3,669.3,
34.5,653.4,653.4,
34.75,639.4,639.4,
35.0,641.8,641.8,
35.25,616.6,616.6,
35.5,597.2,597.2,
35.75,590.5,590.5,
36.0,568.1,568.1,
36.25,542.8,542.8,
36.5,538.1,538.1,
36.75,528.1,528.1,
37.0,496.9,496.9,
37.25,498.1,498.1,
37.5,479.4,479.4,
37.75,469.2,469.2,
38.0,455.9,455.9,
38.25,438.5,438.5,
38.5,423.3,423.3,
38.75,417.4,417.4,
39.0,407.5,407.5,
39.25,392.6,392.6,
39.5,383.4,383.4,
39.75,370.0,370.0,
40.0,364.5,364.5,
40.25,352.6,352.6,
40.5,347.5,347.5,
40.75,333.8,333.8,
41.0,334.3,334.3,
41.25,325.2,325.2,
41.5,318.8,318.8,
41.75,308.1,308.1,
42.0,297.9,297.9,
42.25,294.5,294.5,
42.5,289.0,289.0,
42.75,284.1,284.1,
43.0,273.6,273.6,
43.25,274.9,274.9,
43.5,265.5,265.5,
43.75,256.7,256.7,
44.0,252.0,252.0,
44.25,243.5,243.5,
44.5,241.2,241.2,
44.75,235.5,235.5,
45.0,233.2,233.2,
45.25,228.4,228.4,
45.5,225.9,225.9,
45.75,219.0,219.0,
46.0,215.5,215.5,
46.25,208.5,208.5,
46.5,208.2,208.2,
46.75,202.5,202.5,
47.0,206.5,206.5,
47.25,199.6,199.6,
47.5,198.1,198.1,
47.75,196.0,196.0,
48.0,193.2,193.2,
48.25,191.6,191.6,
48.5,185.9,185.9,
48.75,186.0,186.0,
49.0,187.8,187.8,
49.25,185.7,185.7,
49.5,183.5,183.5,
49.75,183.2,183.2,
50.0,177.2,177.2,
50.25,177.0,177.0,
50.5,178.6,178.6,
50.75,176.6,176.6,
51.0,174.1,174.1,
51.25,171.1,171.1,
51.5,170.9,170.9,
51.75,169.8,169.8,
52.0,168.3,168.3,
52.25,166.9,166.9,
52.5,167.4,167.4,
52.75,165.8,165.8,
53.0,164.5,164.5,
53.25,169.7,169.7,
53.5,165.5,165.5,
53.75,162.1,162.1,
54.0,163.5,163.5,
54.25,165.6,165.6,
54.5,164.3,164.3,
54.75,163.2,163.2,
55.0,163.3,163.3,
55.25,159.7,159.7,
55.5,161.0,161.0,
55.75,162.0,162.0,
56.0,156.2,156.2,
56.25,156.9,156.9,
56.5,154.8,154.8,
56.75,152.2,152.2,
57.0,155.7,155.7,
57.25,154.9,154.9,
57.5,153.6,153.6,
57.75,153.4,153.4,
58.0,152.3,152.3,
58.25,151.3,151.3,
58.5,149.5,149.5,
58.75,151.3,151.3,
59.0,147.2,147.2,
59.25,148.9,148.9,
59.5,146.9,146.9,
59.75,146.4,146.4,
60.0,147.4,147.4,
60.25,144.1,144.1,
60.5,144.1,144.1,
60.75,145.9,145.9,
61.0,144.0,144.0,
61.25,146.3,146.3,
61.5,142.6,142.6,
61.75,143.1,143.1,
62.0,143.7,143.7,
62.25,140.0,140.0,
62.5,141.9,141.9,
62.75,141.1,141.1,
63.0,140.8,140.8,
63.25,140.3,140.3,
63.5,138.4,138.4,
63.75,141.8,141.8,
64.0,139.8,139.8,
64.25,139.5,139.5,
64.5,137.4,137.4,
64.75,138.4,138.4,
65.0,142.1,142.1,
65.25,136.9,136.9,
65.5,137.1,137.1,
65.75,136.5,136.5,
66.0,133.8,133.8,
66.25,137.6,137.6,
66.5,139.4,139.4,
66.75,137.3,137.3,
67.0,136.3,136.3,
67.25,134.3,134.3,
67.5,136.5,136.5,
67.75,135.4,135.4,
68.0,134.4,134.4,
68.25,134.1,134.1,
68.5,133.5,133.5,
68.75,134.0,134.0,
69.0,133.3,133.3,
69.25,134.4,134.4,
69.5,133.2,133.2,
69.75,134.0,134.0,
70.0,134.3,134.3,
70.25,131.4,131.4,
70.5,133.0,133.0,
70.75,132.5,132.5,
71.0,130.5,130.5,
71.25,129.6,129.6,
71.5,130.6,130.6,
71.75,128.3,128.3,
72.0,129.4,129.4,
72.25,129.1,129.1,
72.5,128.1,128.1,
72.75,128.1,128.1,
73.0,127.4,127.4,
73.25,128.0,128.0,
73.5,126.1,126.1,
73.75,127.4,127.4,
74.0,127.5,127.5,
74.25,126.5,126.5,
74.5,125.7,125.7,
74.75,124.8,124.8,
75.0,125.5,125.5,
75.25,125.9,125.9,
75.5,125.4,125.4,
75.75,122.9,122.9,
76.0,124.2,124.2,
76.25,123.8,123.8,
76.5,123.2,123.2,
76.75,123.8,123.8,
77.0,124.3,124.3,
77.25,123.7,123.7,
77.5,124.3,124.3,
77.75,121.9,121.9,
78.0,124.2,124.2,
78.25,121.0,121.0,
78.5,120.2,120.2,
78.75,122.4,122.4,
79.0,121.4,121.4,
79.25,121.2,121.2,
79.5,118.3,118.3,
79.75,121.2,121.2,
80.0,118.7,118.7,
80.25,119.8,119.8,
80.5,117.2,117.2,
80.75,115.4,115.4,
81.0,118.5,118.5,
81.25,114.4,114.4,
81.5,116.6,116.6,
81.75,115.4,115.4,
82.0,115.0,115.0,
82.25,114.8,114.8,
82.5,114.1,114.1,
82.75,114.4,114.4,
83.0,114.2,114.2,
83.25,113.0,113.0,
83.5,115.4,115.4,
83.75,113.7,113.7,
84.0,112.3,112.3,
84.25,111.6,111.6,
84.5,115.1,115.1,
84.75,113.6,113.6,
85.0,112.8,112.8,
85.25,112.4,112.4,
85.5,112.4,112.4,
85.75,112.7,112.7,
86.0,113.4,113.4,
86.25,113.0,113.0,
86.5,111.1,111.1,
86.75,110.9,110.9,
87.0,111.6,111.6,
87.25,110.8,110.8,
87.5,110.6,110.6,
87.75,110.2,110.2,
88.0,111.2,111.2,
88.25,108.7,108.7,
88.5,109.0,109.0,
88.75,108.0,108.0,
89.0,109.8,109.8,
89.25,108.6,108.6,
89.5,108.0,108.0,
89.75,107.0,107.0,
90.0,107.6,107.6,
90.25,107.9,107.9,
90.5,105.5,105.5,
90.75,107.1,107.1,
91.0,104.6,104.6,
91.25,106.0,106.0,
91.5,105.4,105.4,
91.75,104.3,104.3,
92.0,105.5,105.5,
92.25,103.7,103.7,
92.5,105.0,105.0,
92.75,103.4,103.4,
93.0,103.2,103.2,
93.25,102.3,102.3,
93.5,102.8,102.8,
93.75,101.4,101.4,
94.0,101.0,101.0,
94.25,100.6,100.6,
94.5,100.4,100.4,
94.75,100.6,100.6,
95.0,100.5,100.5,
95.25,99.2,99.2,
95.5,98.3,98.3,
95.75,99.9,99.9,
96.0,98.6,98.6,
96.25,97.1,97.1,
96.5,97.6,97.6,
96.75,97.0,97.0,
97.0,96.1,96.1,
97.25,97.0,97.0,
97.5,95.7,95.7,
97.75,94.5,94.5,
98.0,94.1,94.1,
98.25,93.6,93.6,
98.5,94.2,94.2,
98.75,91.7,91.7,
99.0,91.6,91.6,
99.25,89.6,89.6,
99.5,91.7,91.7,
99.75,89.4,89.4,
100.0,88.6,88.6,
100.25,87.2,87.2,
100.5,87.5,87.5,
100.75,87.1,87.1,
101.0,87.0,87.0,
101.25,83.8,83.8,
101.5,84.5,84.5,
101.75,84.4,84.4,
102.0,84.5,84.5,
102.25,84.0,84.0,
102.5,82.8,82.8,
102.75,82.0,82.0,
103.0,81.5,81.5,
103.25,81.4,81.4,
103.5,81.3,81.3,
103.75,82.5,82.5,
104.0,78.6,78.6,
104.25,79.9,79.9,
104.5,80.6,80.6,
104.75,80.0,80.0,
105.0,79.0,79.0,
105.25,80.8,80.8,
105.5,79.8,79.8,
105.75,79.3,79.3,
106.0,78.9,78.9,
106.25,78.1,78.1,
106.5,77.7,77.7,
106.75,79.4,79.4,
107.0,77.8,77.8,
107.25,77.6,77.6,
107.5,77.3,77.3,
107.75,75.9,75.9,
108.0,76.9,76.9,
108.25,75.1,75.1,
108.5,76.4,76.4,
108.75,75.3,75.3,
109.0,76.1,76.1,
109.25,75.2,75.2,
109.5,73.3,73.3,
109.75,73.7,73.7,
110.0,73.9,73.9,
110.25,73.6,73.6,
110.5,73.0,73.0,
110.75,74.2,74.2,
111.0,72.6,72.6,
111.25,71.4,71.4,
111.5,71.4,71.4,
111.75,72.2,72.2,
112.0,72.0,72.0,
112.25,71.2,71.2,
112.5,71.6,71.6,
112.75,71.0,71.0,
113.0,70.2,70.2,
113.25,70.9,70.9,
113.5,71.0,71.0,
113.75,69.6,69.6,
114.0,70.2,70.2,
114.25,70.9,70.9,
114.5,69.4,69.4,
114.75,69.4,69.4,
115.0,68.5,68.5,
115.25,67.8,67.8,
115.5,67.6,67.6,
115.75,67.2,67.2,
116.0,67.3,67.3,
116.25,66.9,66.9,
116.5,67.2,67.2,
116.75,65.7,65.7,
117.0,66.2,66.2,
117.25,65.9,65.9,
117.5,66.3,66.3,
117.75,65.2,65.2,
118.0,64.5,64.5,
118.25,65.5,65.5,
118.5,65.9,65.9,
118.75,64.8,64.8,
119.0,64.4,64.4,
119.25,64.3,64.3,
119.5,64.5,64.5,
119.75,63.7,63.7,
120.0,62.4,62.4,
120.25,63.6,63.6,
120.5,63.2,63.2,
120.75,62.7,62.7,
121.0,62.2,62.2,
121.25,61.5,61.5,
121.5,61.8,61.8,
121.75,62.3,62.3,
122.0,61.7,61.7,
122.25,60.9,60.9,
122.5,61.2,61.2,
122.75,60.7,60.7,
123.0,60.7,60.7,
123.25,59.9,59.9,
123.5,59.1,59.1,
123.75,60.1,60.1,
124.0,59.5,59.5,
124.25,58.7,58.7,
124.5,59.0,59.0,
124.75,59.3,59.3,
125.0,59.4,59.4,
125.25,58.1,58.1,
125.5,57.3,57.3,
125.75,58.7,58.7,
126.0,58.5,58.5,
126.25,57.4,57.4,
126.5,57.8,57.8,
126.75,56.6,56.6,
127.0,56.9,56.9,
127.25,56.1,56.1,
127.5,57.0,57.0,
127.75,56.2,56.2,
128.0,56.7,56.7,
128.25,57.1,57.1,
128.5,56.5,56.5,
128.75,56.6,56.6,
129.0,57.1,57.1,
129.25,56.1,56.1,
129.5,55.1,55.1,
129.75,55.5,55.5,
130.0,55.3,55.3,
130.25,54.9,54.9,
130.5,55.3,55.3,
130.75,54.4,54.4,
131.0,55.0,55.0,
131.25,54.9,54.9,
131.5,54.3,54.3,
131.75,54.5,54.5,
132.0,54.5,54.5,
132.25,55.2,55.2,
132.5,54.1,54.1,
132.75,53.7,53.7,
133.0,54.2,54.2,
133.25,53.9,53.9,
133.5,54.0,54.0,
133.75,54.4,54.4,
134.0,54.2,54.2,
134.25,53.8,53.8,
134.5,54.3,54.3,
134.75,53.5,53.5,
135.0,53.2,53.2,
135.25,54.6,54.6,
135.5,54.1,54.1,
135.75,52.8,52.8,
136.0,53.3,53.3,
136.25,53.3,53.3,
136.5,52.9,52.9,
136.75,52.9,52.9,
137.0,54.0,54.0,
137.25,54.5,54.5,
137.5,52.6,52.6,
137.75,53.4,53.4,
138.0,53.1,53.1,
138.25,52.3,52.3,
138.5,52.3,52.3,
138.75,53.0,53.0,
139.0,52.4,52.4,
139.25,52.4,52.4,
139.5,51.4,51.4,
139.75,51.7,51.7,
140.0,52.8,52.8,
140.25,52.0,52.0,
140.5,52.0,52.0,
140.75,52.2,52.2,
141.0,51.9,51.9,
141.25,50.5,50.5,
141.5,51.8,51.8,
141.75,50.7,50.7,
142.0,50.9,50.9,
142.25,50.8,50.8,
142.5,50.3,50.3,
142.75,50.7,50.7,
143.0,49.7,49.7,
143.25,50.7,50.7,
143.5,49.3,49.3,
143.75,50.3,50.3,
144.0,50.9,50.9,
144.25,50.2,50.2,
144.5,50.2,50.2,
144.75,50.9,50.9,
145.0,51.0,51.0,
145.25,50.6,50.6,
145.5,50.2,50.2,
145.75,49.9,49.9,
146.0,50.7,50.7,
146.25,50.6,50.6,
146.5,49.5,49.5,
146.75,49.3,49.3,
147.0,49.7,49.7,
147.25,50.2,50.2,
147.5,49.0,49.0,
147.75,49.8,49.8,
148.0,50.0,50.0,
148.25,50.5,50.5,
148.5,49.9,49.9,
148.75,48.5,48.5,
149.0,48.9,48.9,
149.25,49.1,49.1,
149.5,48.9,48.9,
149.75,48.8,48.8,
150.0,49.0,49.0,
150.25,48.5,48.5,
150.5,48.0,48.0,
150.75,48.2,48.2,
151.0,47.5,47.5,
151.25,47.9,47.9,
151.5,47.2,47.2,
151.75,47.5,47.5,
152.0,47.5,47.5,