File: 01_Data/Pressure_Treated_Deck/FTIR/IS/Deprecated/Pressure_Treated_Deck_IS_S_220926_R4.dpt
7497.03,0.76973
7491.25,0.76244
7485.46,0.75781
7479.67,0.75567
7473.89,0.76641
7468.1,0.75791
7462.32,0.75539
7456.53,0.76223
7450.74,0.75401
7444.96,0.75075
7439.17,0.75204
7433.38,0.74819
7427.6,0.74905
7421.81,0.74694
7416.03,0.74474
7410.24,0.74416
7404.45,0.74066
7398.67,0.73994
7392.88,0.74657
7387.09,0.73801
7381.31,0.74926
7375.52,0.73533
7369.74,0.73234
7363.95,0.73008
7358.16,0.72239
7352.38,0.73316
7346.59,0.72612
7340.8,0.73235
7335.02,0.72863
7329.23,0.73089
7323.45,0.73275
7317.66,0.72623
7311.87,0.71872
7306.09,0.71878
7300.3,0.72652
7294.51,0.72681
7288.73,0.72376
7282.94,0.72773
7277.16,0.72555
7271.37,0.71605
7265.58,0.70660
7259.8,0.71596
7254.01,0.72307
7248.22,0.72134
7242.44,0.71977
7236.65,0.71550
7230.87,0.71851
7225.08,0.71757
7219.29,0.72537
7213.51,0.72087
7207.72,0.71738
7201.93,0.71305
7196.15,0.71819
7190.36,0.70194
7184.58,0.70759
7178.79,0.71409
7173,0.71277
7167.22,0.71035
7161.43,0.69958
7155.65,0.70061
7149.86,0.70603
7144.07,0.69892
7138.29,0.70091
7132.5,0.69332
7126.71,0.69346
7120.93,0.67949
7115.14,0.68287
7109.36,0.68103
7103.57,0.67822
7097.78,0.67127
7092,0.65951
7086.21,0.66051
7080.42,0.64618
7074.64,0.64564
7068.85,0.64250
7063.07,0.64425
7057.28,0.63457
7051.49,0.63435
7045.71,0.62878
7039.92,0.62467
7034.13,0.61706
7028.35,0.61409
7022.56,0.61182
7016.78,0.60419
7010.99,0.60350
7005.2,0.60035
6999.42,0.60201
6993.63,0.59199
6987.84,0.59012
6982.06,0.59416
6976.27,0.58658
6970.49,0.58468
6964.7,0.58729
6958.91,0.58511
6953.13,0.58032
6947.34,0.58251
6941.55,0.57786
6935.77,0.58197
6929.98,0.58540
6924.2,0.58380
6918.41,0.58671
6912.62,0.58026
6906.84,0.57768
6901.05,0.57939
6895.26,0.58053
6889.48,0.57738
6883.69,0.57703
6877.91,0.57755
6872.12,0.57464
6866.33,0.57585
6860.55,0.57440
6854.76,0.57295
6848.97,0.57446
6843.19,0.58154
6837.4,0.57337
6831.62,0.58120
6825.83,0.57585
6820.04,0.57820
6814.26,0.57511
6808.47,0.57513
6802.68,0.58043
6796.9,0.57702
6791.11,0.58034
6785.33,0.57922
6779.54,0.57528
6773.75,0.57399
6767.97,0.57854
6762.18,0.58005
6756.39,0.57371
6750.61,0.58218
6744.82,0.57827
6739.04,0.57746
6733.25,0.57442
6727.46,0.58024
6721.68,0.58290
6715.89,0.58462
6710.1,0.58182
6704.32,0.58312
6698.53,0.58333
6692.75,0.58390
6686.96,0.58711
6681.17,0.58510
6675.39,0.58414
6669.6,0.59101
6663.82,0.58936
6658.03,0.58795
6652.24,0.58857
6646.46,0.59207
6640.67,0.58938
6634.88,0.59434
6629.1,0.59249
6623.31,0.59236
6617.53,0.59559
6611.74,0.59371
6605.95,0.59732
6600.17,0.59762
6594.38,0.59413
6588.59,0.59744
6582.81,0.59937
6577.02,0.60444
6571.24,0.60492
6565.45,0.60136
6559.66,0.60378
6553.88,0.60495
6548.09,0.60526
6542.3,0.60683
6536.52,0.60628
6530.73,0.61034
6524.95,0.60725
6519.16,0.60942
6513.37,0.60720
6507.59,0.61060
6501.8,0.60871
6496.01,0.60450
6490.23,0.60706
6484.44,0.60729
6478.66,0.60968
6472.87,0.60783
6467.08,0.60939
6461.3,0.61413
6455.51,0.61290
6449.72,0.60895
6443.94,0.61443
6438.15,0.61072
6432.37,0.61482
6426.58,0.61276
6420.79,0.61695
6415.01,0.61629
6409.22,0.61314
6403.43,0.61364
6397.65,0.61439
6391.86,0.61184
6386.08,0.61873
6380.29,0.61561
6374.5,0.61907
6368.72,0.61977
6362.93,0.61504
6357.14,0.61755
6351.36,0.61963
6345.57,0.62055
6339.79,0.62170
6334,0.62233
6328.21,0.62208
6322.43,0.62053
6316.64,0.62186
6310.85,0.62091
6305.07,0.62596
6299.28,0.62433
6293.5,0.62248
6287.71,0.62666
6281.92,0.62968
6276.14,0.63394
6270.35,0.63079
6264.56,0.63229
6258.78,0.63558
6252.99,0.63449
6247.21,0.63912
6241.42,0.63627
6235.63,0.64027
6229.85,0.64074
6224.06,0.64441
6218.27,0.64497
6212.49,0.64899
6206.7,0.64699
6200.92,0.65119
6195.13,0.65146
6189.34,0.65381
6183.56,0.65157
6177.77,0.65414
6171.98,0.65723
6166.2,0.65763
6160.41,0.65821
6154.63,0.65934
6148.84,0.66016
6143.05,0.66201
6137.27,0.65940
6131.48,0.66522
6125.7,0.66636
6119.91,0.66799
6114.12,0.66681
6108.34,0.66752
6102.55,0.66963
6096.76,0.66907
6090.98,0.66673
6085.19,0.66861
6079.41,0.66845
6073.62,0.66732
6067.83,0.66669
6062.05,0.66462
6056.26,0.66358
6050.47,0.66368
6044.69,0.66095
6038.9,0.65849
6033.12,0.65763
6027.33,0.65456
6021.54,0.65434
6015.76,0.65676
6009.97,0.65367
6004.18,0.64955
5998.4,0.64839
5992.61,0.65026
5986.83,0.64792
5981.04,0.64503
5975.25,0.64688
5969.47,0.64683
5963.68,0.64477
5957.89,0.64667
5952.11,0.64650
5946.32,0.64921
5940.54,0.64963
5934.75,0.64950
5928.96,0.64761
5923.18,0.64793
5917.39,0.64749
5911.6,0.64731
5905.82,0.64558
5900.03,0.64338
5894.25,0.64307
5888.46,0.64347
5882.67,0.64096
5876.89,0.64278
5871.1,0.64236
5865.31,0.64257
5859.53,0.64016
5853.74,0.64065
5847.96,0.64238
5842.17,0.63767
5836.38,0.64067
5830.6,0.63895
5824.81,0.63486
5819.02,0.63735
5813.24,0.63586
5807.45,0.63394
5801.67,0.63548
5795.88,0.63569
5790.09,0.63410
5784.31,0.63492
5778.52,0.63609
5772.73,0.63466
5766.95,0.63590
5761.16,0.63931
5755.38,0.63887
5749.59,0.63951
5743.8,0.63860
5738.02,0.63885
5732.23,0.63964
5726.44,0.63878
5720.66,0.63896
5714.87,0.63811
5709.09,0.63784
5703.3,0.63885
5697.51,0.63756
5691.73,0.63822
5685.94,0.63776
5680.15,0.63926
5674.37,0.63714
5668.58,0.63734
5662.8,0.63536
5657.01,0.63719
5651.22,0.63718
5645.44,0.63616
5639.65,0.63716
5633.87,0.63560
5628.08,0.63451
5622.29,0.63598
5616.51,0.63518
5610.72,0.63492
5604.93,0.63461
5599.15,0.63414
5593.36,0.63471
5587.58,0.63705
5581.79,0.63764
5576,0.63728
5570.22,0.63929
5564.43,0.63999
5558.64,0.64048
5552.86,0.64020
5547.07,0.64184
5541.29,0.63979
5535.5,0.64309
5529.71,0.64259
5523.93,0.64075
5518.14,0.64153
5512.35,0.64203
5506.57,0.64392
5500.78,0.64261
5495,0.64287
5489.21,0.64365
5483.42,0.64474
5477.64,0.64302
5471.85,0.64359
5466.06,0.64620
5460.28,0.64954
5454.49,0.64805
5448.71,0.64731
5442.92,0.64724
5437.13,0.64892
5431.35,0.65192
5425.56,0.65240
5419.77,0.65356
5413.99,0.65622
5408.2,0.65722
5402.42,0.65700
5396.63,0.65886
5390.84,0.65755
5385.06,0.65922
5379.27,0.65989
5373.48,0.65914
5367.7,0.65809
5361.91,0.65664
5356.13,0.65713
5350.34,0.65561
5344.55,0.65480
5338.77,0.65290
5332.98,0.65130
5327.19,0.64812
5321.41,0.64561
5315.62,0.64376
5309.84,0.63795
5304.05,0.63204
5298.26,0.62521
5292.48,0.61556
5286.69,0.60858
5280.9,0.59747
5275.12,0.58752
5269.33,0.57698
5263.55,0.56492
5257.76,0.55310
5251.97,0.54273
5246.19,0.53280
5240.4,0.52297
5234.61,0.51772
5228.83,0.51132
5223.04,0.50440
5217.26,0.50075
5211.47,0.49965
5205.68,0.49767
5199.9,0.49490
5194.11,0.49529
5188.32,0.49559
5182.54,0.49599
5176.75,0.49749
5170.97,0.50048
5165.18,0.50278
5159.39,0.50444
5153.61,0.50880
5147.82,0.51001
5142.03,0.51300
5136.25,0.51691
5130.46,0.52034
5124.68,0.52375
5118.89,0.52623
5113.1,0.52849
5107.32,0.53238
5101.53,0.53652
5095.75,0.53852
5089.96,0.54143
5084.17,0.54461
5078.39,0.54673
5072.6,0.55003
5066.81,0.55344
5061.03,0.55385
5055.24,0.55577
5049.46,0.55939
5043.67,0.56146
5037.88,0.56432
5032.1,0.56553
5026.31,0.56685
5020.52,0.56851
5014.74,0.56883
5008.95,0.57018
5003.17,0.57150
4997.38,0.57046
4991.59,0.57039
4985.81,0.56901
4980.02,0.56751
4974.23,0.56532
4968.45,0.56287
4962.66,0.55955
4956.88,0.55608
4951.09,0.55217
4945.3,0.54677
4939.52,0.54300
4933.73,0.53880
4927.94,0.53203
4922.16,0.52759
4916.37,0.52156
4910.59,0.51575
4904.8,0.51107
4899.01,0.50675
4893.23,0.50091
4887.44,0.49609
4881.65,0.49155
4875.87,0.48744
4870.08,0.48206
4864.3,0.47814
4858.51,0.47425
4852.72,0.46997
4846.94,0.46705
4841.15,0.46303
4835.36,0.45893
4829.58,0.45619
4823.79,0.45306
4818.01,0.45049
4812.22,0.44725
4806.43,0.44569
4800.65,0.44487
4794.86,0.44283
4789.07,0.44194
4783.29,0.44087
4777.5,0.43886
4771.72,0.43865
4765.93,0.43801
4760.14,0.43758
4754.36,0.43752
4748.57,0.43711
4742.78,0.43711
4737,0.43677
4731.21,0.43743
4725.43,0.43858
4719.64,0.43798
4713.85,0.43859
4708.07,0.44021
4702.28,0.44089
4696.49,0.44022
4690.71,0.44186
4684.92,0.44254
4679.14,0.44266
4673.35,0.44439
4667.56,0.44761
4661.78,0.44946
4655.99,0.45116
4650.2,0.45304
4644.42,0.45559
4638.63,0.45873
4632.85,0.45983
4627.06,0.46218
4621.27,0.46492
4615.49,0.46792
4609.7,0.47079
4603.92,0.47494
4598.13,0.47706
4592.34,0.47937
4586.56,0.48211
4580.77,0.48364
4574.98,0.48521
4569.2,0.48633
4563.41,0.48759
4557.63,0.48964
4551.84,0.49116
4546.05,0.49198
4540.27,0.49286
4534.48,0.49371
4528.69,0.49483
4522.91,0.49432
4517.12,0.49452
4511.34,0.49469
4505.55,0.49346
4499.76,0.49250
4493.98,0.49070
4488.19,0.48690
4482.4,0.48314
4476.62,0.47742
4470.83,0.47266
4465.05,0.46614
4459.26,0.46002
4453.47,0.45245
4447.69,0.44640
4441.9,0.43964
4436.11,0.43173
4430.33,0.42443
4424.54,0.41755
4418.76,0.41108
4412.97,0.40591
4407.18,0.40088
4401.4,0.39809
4395.61,0.39830
4389.82,0.39847
4384.04,0.39983
4378.25,0.40161
4372.47,0.40453
4366.68,0.40590
4360.89,0.40790
4355.11,0.40776
4349.32,0.40724
4343.53,0.40733
4337.75,0.40622
4331.96,0.40361
4326.18,0.40252
4320.39,0.40029
4314.6,0.39758
4308.82,0.39574
4303.03,0.39378
4297.24,0.39122
4291.46,0.38900
4285.67,0.38733
4279.89,0.38670
4274.1,0.38642
4268.31,0.38674
4262.53,0.38822
4256.74,0.39091
4250.95,0.39171
4245.17,0.39219
4239.38,0.39299
4233.6,0.39319
4227.81,0.39350
4222.02,0.39365
4216.24,0.39399
4210.45,0.39391
4204.66,0.39355
4198.88,0.39474
4193.09,0.39526
4187.31,0.39608
4181.52,0.39675
4175.73,0.39802
4169.95,0.39969
4164.16,0.40025
4158.37,0.40105
4152.59,0.39999
4146.8,0.39778
4141.02,0.39600
4135.23,0.39282
4129.44,0.39044
4123.66,0.38623
4117.87,0.38247
4112.09,0.37804
4106.3,0.37392
4100.51,0.36886
4094.73,0.36324
4088.94,0.35833
4083.15,0.35352
4077.37,0.34721
4071.58,0.34170
4065.8,0.33626
4060.01,0.33066
4054.22,0.32555
4048.44,0.32111
4042.65,0.31644
4036.86,0.31243
4031.08,0.30998
4025.29,0.30731
4019.51,0.30524
4013.72,0.30474
4007.93,0.30482
4002.15,0.30568
3996.36,0.30653
3990.57,0.30751
3984.79,0.30978
3979,0.31095
3973.22,0.31183
3967.43,0.31371
3961.64,0.31624
3955.86,0.31903
3950.07,0.32197
3944.28,0.32334
3938.5,0.32700
3932.71,0.32949
3926.93,0.33259
3921.14,0.33540
3915.35,0.33781
3909.57,0.34060
3903.78,0.34293
3897.99,0.34433
3892.21,0.34707
3886.42,0.34919
3880.64,0.35149
3874.85,0.35353
3869.06,0.35615
3863.28,0.35862
3857.49,0.36211
3851.7,0.36511
3845.92,0.36664
3840.13,0.36827
3834.35,0.36985
3828.56,0.37021
3822.77,0.37110
3816.99,0.37100
3811.2,0.37050
3805.41,0.37072
3799.63,0.37054
3793.84,0.36953
3788.06,0.36901
3782.27,0.36889
3776.48,0.36763
3770.7,0.36638
3764.91,0.36444
3759.12,0.36335
3753.34,0.36154
3747.55,0.35845
3741.77,0.35435
3735.98,0.35183
3730.19,0.34707
3724.41,0.34280
3718.62,0.33547
3712.83,0.32891
3707.05,0.32076
3701.26,0.31133
3695.48,0.30002
3689.69,0.28747
3683.9,0.26956
3678.12,0.25281
3672.33,0.23136
3666.54,0.21034
3660.76,0.19251
3654.97,0.17632
3649.19,0.16080
3643.4,0.14651
3637.61,0.13581
3631.83,0.12643
3626.04,0.11621
3620.25,0.10949
3614.47,0.10189
3608.68,0.09513
3602.9,0.08900
3597.11,0.08315
3591.32,0.07790
3585.54,0.07387
3579.75,0.07052
3573.97,0.06734
3568.18,0.06423
3562.39,0.06137
3556.61,0.05943
3550.82,0.05716
3545.03,0.05540
3539.25,0.05337
3533.46,0.05235
3527.68,0.05103
3521.89,0.05015
3516.1,0.04829
3510.32,0.04721
3504.53,0.04621
3498.74,0.04570
3492.96,0.04473
3487.17,0.04371
3481.39,0.04335
3475.6,0.04262
3469.81,0.04242
3464.03,0.04232
3458.24,0.04120
3452.45,0.04116
3446.67,0.04124
3440.88,0.04118
3435.1,0.04070
3429.31,0.04076
3423.52,0.04075
3417.74,0.04136
3411.95,0.04071
3406.16,0.04100
3400.38,0.04066
3394.59,0.04072
3388.81,0.04075
3383.02,0.04082
3377.23,0.04166
3371.45,0.04134
3365.66,0.04175
3359.87,0.04157
3354.09,0.04255
3348.3,0.04218
3342.52,0.04262
3336.73,0.04344
3330.94,0.04424
3325.16,0.04476
3319.37,0.04488
3313.58,0.04575
3307.8,0.04686
3302.01,0.04708
3296.23,0.04707
3290.44,0.04826
3284.65,0.04887
3278.87,0.04968
3273.08,0.05042
3267.29,0.05089
3261.51,0.05216
3255.72,0.05312
3249.94,0.05454
3244.15,0.05551
3238.36,0.05612
3232.58,0.05798
3226.79,0.05816
3221,0.05939
3215.22,0.06105
3209.43,0.06203
3203.65,0.06343
3197.86,0.06505
3192.07,0.06634
3186.29,0.06834
3180.5,0.06900
3174.71,0.07094
3168.93,0.07242
3163.14,0.07426
3157.36,0.07600
3151.57,0.07687
3145.78,0.07862
3140,0.07990
3134.21,0.08197
3128.42,0.08381
3122.64,0.08474
3116.85,0.08667
3111.07,0.08810
3105.28,0.08921
3099.49,0.09091
3093.71,0.09236
3087.92,0.09314
3082.14,0.09487
3076.35,0.09613
3070.56,0.09737
3064.78,0.09863
3058.99,0.10029
3053.2,0.10203
3047.42,0.10350
3041.63,0.10456
3035.85,0.10516
3030.06,0.10609
3024.27,0.10568
3018.49,0.10471
3012.7,0.10361
3006.91,0.10226
3001.13,0.10079
2995.34,0.09906
2989.56,0.09566
2983.77,0.09170
2977.98,0.08694
2972.2,0.08072
2966.41,0.07676
2960.62,0.07408
2954.84,0.07158
2949.05,0.06900
2943.27,0.06654
2937.48,0.06531
2931.69,0.06451
2925.91,0.06474
2920.12,0.06469
2914.33,0.06443
2908.55,0.06511
2902.76,0.06573
2896.98,0.06626
2891.19,0.06777
2885.4,0.06898
2879.62,0.07049
2873.83,0.07131
2868.04,0.07285
2862.26,0.07480
2856.47,0.07674
2850.69,0.08003
2844.9,0.08462
2839.11,0.08958
2833.33,0.09517
2827.54,0.10100
2821.75,0.10649
2815.97,0.11074
2810.18,0.11521
2804.4,0.11878
2798.61,0.12144
2792.82,0.12390
2787.04,0.12645
2781.25,0.12789
2775.46,0.12858
2769.68,0.12983
2763.89,0.13077
2758.11,0.13166
2752.32,0.13259
2746.53,0.13276
2740.75,0.13334
2734.96,0.13363
2729.17,0.13490
2723.39,0.13675
2717.6,0.13809
2711.82,0.14021
2706.03,0.14193
2700.24,0.14432
2694.46,0.14641
2688.67,0.14833
2682.88,0.15004
2677.1,0.15200
2671.31,0.15317
2665.53,0.15419
2659.74,0.15520
2653.95,0.15651
2648.17,0.15769
2642.38,0.15948
2636.59,0.16050
2630.81,0.16241
2625.02,0.16388
2619.24,0.16516
2613.45,0.16698
2607.66,0.16804
2601.88,0.16919
2596.09,0.17104
2590.3,0.17213
2584.52,0.17363
2578.73,0.17500
2572.95,0.17574
2567.16,0.17662
2561.37,0.17700
2555.59,0.17725
2549.8,0.17762
2544.02,0.17799
2538.23,0.17914
2532.44,0.18014
2526.66,0.18205
2520.87,0.18332
2515.08,0.18463
2509.3,0.18675
2503.51,0.18915
2497.73,0.19231
2491.94,0.19443
2486.15,0.19672
2480.37,0.19871
2474.58,0.20104
2468.79,0.20322
2463.01,0.20529
2457.22,0.20729
2451.44,0.20943
2445.65,0.21184
2439.86,0.21399
2434.08,0.21682
2428.29,0.21943
2422.5,0.22194
2416.72,0.22498
2410.93,0.22745
2405.15,0.23022
2399.36,0.23266
2393.57,0.23494
2387.79,0.23726
2382,0.23992
2376.21,0.24238
2370.43,0.24507
2364.64,0.24664
2358.86,0.24828
2353.07,0.24976
2347.28,0.25108
2341.5,0.25304
2335.71,0.25425
2329.92,0.25495
2324.14,0.25556
2318.35,0.25618
2312.57,0.25666
2306.78,0.25661
2300.99,0.25642
2295.21,0.25631
2289.42,0.25602
2283.63,0.25657
2277.85,0.25632
2272.06,0.25549
2266.28,0.25417
2260.49,0.25262
2254.7,0.25153
2248.92,0.25139
2243.13,0.25015
2237.34,0.24936
2231.56,0.24885
2225.77,0.24854
2219.99,0.24859
2214.2,0.24867
2208.41,0.24820
2202.63,0.24727
2196.84,0.24529
2191.05,0.24337
2185.27,0.24041
2179.48,0.23762
2173.7,0.23467
2167.91,0.23156
2162.12,0.22915
2156.34,0.22738
2150.55,0.22622
2144.76,0.22446
2138.98,0.22350
2133.19,0.22288
2127.41,0.22331
2121.62,0.22409
2115.83,0.22509
2110.05,0.22578
2104.26,0.22692
2098.47,0.22731
2092.69,0.22754
2086.9,0.22761
2081.12,0.22659
2075.33,0.22555
2069.54,0.22447
2063.76,0.22325
2057.97,0.22289
2052.19,0.22342
2046.4,0.22398
2040.61,0.22537
2034.83,0.22754
2029.04,0.23054
2023.25,0.23326
2017.47,0.23591
2011.68,0.23823
2005.9,0.24018
2000.11,0.24126
1994.32,0.24264
1988.54,0.24477
1982.75,0.24630
1976.96,0.24705
1971.18,0.24785
1965.39,0.24957
1959.61,0.25090
1953.82,0.25327
1948.03,0.25510
1942.25,0.25758
1936.46,0.25899
1930.67,0.26040
1924.89,0.26108
1919.1,0.26141
1913.32,0.26124
1907.53,0.26116
1901.74,0.26059
1895.96,0.25999
1890.17,0.25916
1884.38,0.25821
1878.6,0.25778
1872.81,0.25687
1867.03,0.25578
1861.24,0.25406
1855.45,0.25230
1849.67,0.25020
1843.88,0.24689
1838.09,0.24318
1832.31,0.23926
1826.52,0.23332
1820.74,0.22510
1814.95,0.21556
1809.16,0.20370
1803.38,0.19170
1797.59,0.17806
1791.8,0.16393
1786.02,0.15005
1780.23,0.13601
1774.45,0.12277
1768.66,0.10747
1762.87,0.09347
1757.09,0.08075
1751.3,0.07149
1745.51,0.06558
1739.73,0.06288
1733.94,0.06267
1728.16,0.06288
1722.37,0.06436
1716.58,0.06665
1710.8,0.06918
1705.01,0.07227
1699.22,0.07336
1693.44,0.07198
1687.65,0.07004
1681.87,0.06746
1676.08,0.06571
1670.29,0.06410
1664.51,0.06344
1658.72,0.06367
1652.93,0.06329
1647.15,0.06417
1641.36,0.06415
1635.58,0.06402
1629.79,0.06382
1624,0.06346
1618.22,0.06296
1612.43,0.06091
1606.64,0.05942
1600.86,0.05858
1595.07,0.05964
1589.29,0.06178
1583.5,0.06630
1577.71,0.07360
1571.93,0.08117
1566.14,0.08766
1560.35,0.09182
1554.57,0.09282
1548.78,0.09290
1543,0.09189
1537.21,0.08680
1531.42,0.07977
1525.64,0.06949
1519.85,0.05676
1514.07,0.05008
1508.28,0.05117
1502.49,0.05592
1496.71,0.06235
1490.92,0.06560
1485.13,0.06442
1479.35,0.06097
1473.56,0.05522
1467.78,0.04982
1461.99,0.04851
1456.2,0.04840
1450.42,0.04871
1444.63,0.04977
1438.84,0.04855
1433.06,0.04616
1427.27,0.04555
1421.49,0.04748
1415.7,0.04937
1409.91,0.05069
1404.13,0.05127
1398.34,0.05146
1392.55,0.05034
1386.77,0.04830
1380.98,0.04604
1375.2,0.04555
1369.41,0.04565
1363.62,0.04702
1357.84,0.04800
1352.05,0.04862
1346.26,0.04857
1340.48,0.04748
1334.69,0.04685
1328.91,0.04712
1323.12,0.04613
1317.33,0.04589
1311.55,0.04654
1305.76,0.04725
1299.97,0.04706
1294.19,0.04576
1288.4,0.04396
1282.62,0.04237
1276.83,0.04216
1271.04,0.04246
1265.26,0.04327
1259.47,0.04491
1253.68,0.04585
1247.9,0.04596
1242.11,0.04561
1236.33,0.04542
1230.54,0.04546
1224.75,0.04646
1218.97,0.04680
1213.18,0.04660
1207.39,0.04638
1201.61,0.04704
1195.82,0.04696
1190.04,0.04573
1184.25,0.04347
1178.46,0.04043
1172.68,0.03838
1166.89,0.03820
1161.1,0.04108
1155.32,0.04176
1149.53,0.04079
1143.75,0.03918
1137.96,0.03835
1132.17,0.03619
1126.39,0.03608
1120.6,0.03655
1114.81,0.03752
1109.03,0.03881
1103.24,0.03997
1097.46,0.04010
1091.67,0.03957
1085.88,0.03922
1080.1,0.04102
1074.31,0.04311
1068.52,0.04572
1062.74,0.05141
1056.95,0.05596
1051.17,0.05612
1045.38,0.05469
1039.59,0.05550
1033.81,0.05984
1028.02,0.06226
1022.24,0.06433
1016.45,0.06546
1010.66,0.06700
1004.88,0.06792
999.09,0.06935
993.304,0.07122
987.518,0.07487
981.731,0.07994
975.945,0.08424
970.159,0.08693
964.373,0.08977
958.586,0.09348
952.8,0.09685
947.014,0.09896
941.228,0.10029
935.441,0.10171
929.655,0.10354
923.869,0.10392
918.083,0.10235
912.297,0.09923
906.51,0.09323
900.724,0.08978
894.938,0.08958
889.152,0.09220
883.365,0.09386
877.579,0.09446
871.793,0.09491
866.007,0.09560
860.22,0.09754
854.434,0.09982
848.648,0.10156
842.862,0.10299
837.075,0.10089
831.289,0.09726
825.503,0.09318
819.717,0.08858
813.931,0.08686
808.144,0.08613
802.358,0.08631
796.572,0.08775
790.786,0.08756
784.999,0.08591
779.213,0.08395
773.427,0.08194
767.641,0.08082
761.854,0.07950
756.068,0.07805
750.282,0.07683
744.496,0.07485
738.709,0.07473
732.923,0.07246
727.137,0.06942
721.351,0.06866
715.565,0.06724
709.778,0.06710
703.992,0.06523
698.206,0.06474
692.42,0.06383
686.633,0.06214
680.847,0.06043
675.061,0.05836
669.275,0.05830
663.488,0.05890
657.702,0.05917
651.916,0.06033
646.13,0.05900
640.343,0.05660
634.557,0.05732
628.771,0.05682
622.985,0.05431
617.198,0.05688
611.412,0.05684
605.626,0.06036
599.84,0.06123