File: 01_Data/Pressure_Treated_Deck/FTIR/IS/Deprecated/Pressure_Treated_Deck_IS_S_220926_R1.dpt
7497.03,0.74822
7491.25,0.75289
7485.46,0.76144
7479.67,0.76062
7473.89,0.75941
7468.1,0.75362
7462.32,0.75288
7456.53,0.74997
7450.74,0.76318
7444.96,0.75179
7439.17,0.75021
7433.38,0.75490
7427.6,0.74471
7421.81,0.74593
7416.03,0.74321
7410.24,0.74213
7404.45,0.74603
7398.67,0.74565
7392.88,0.73193
7387.09,0.74201
7381.31,0.74141
7375.52,0.74659
7369.74,0.74313
7363.95,0.73576
7358.16,0.73234
7352.38,0.73152
7346.59,0.73294
7340.8,0.73443
7335.02,0.72511
7329.23,0.72365
7323.45,0.71691
7317.66,0.70852
7311.87,0.72508
7306.09,0.72687
7300.3,0.72590
7294.51,0.72913
7288.73,0.71677
7282.94,0.71657
7277.16,0.72396
7271.37,0.72649
7265.58,0.72505
7259.8,0.72175
7254.01,0.71307
7248.22,0.71347
7242.44,0.72484
7236.65,0.71518
7230.87,0.71928
7225.08,0.71597
7219.29,0.71236
7213.51,0.71450
7207.72,0.70814
7201.93,0.71533
7196.15,0.71344
7190.36,0.71262
7184.58,0.70228
7178.79,0.70635
7173,0.70749
7167.22,0.70798
7161.43,0.70144
7155.65,0.70103
7149.86,0.69311
7144.07,0.70296
7138.29,0.69111
7132.5,0.68722
7126.71,0.68445
7120.93,0.68600
7115.14,0.66994
7109.36,0.67832
7103.57,0.66648
7097.78,0.66488
7092,0.66111
7086.21,0.65318
7080.42,0.64693
7074.64,0.63871
7068.85,0.64637
7063.07,0.63432
7057.28,0.63710
7051.49,0.62892
7045.71,0.62153
7039.92,0.62243
7034.13,0.61359
7028.35,0.60938
7022.56,0.60459
7016.78,0.60232
7010.99,0.59848
7005.2,0.59417
6999.42,0.59862
6993.63,0.59214
6987.84,0.58393
6982.06,0.59171
6976.27,0.58570
6970.49,0.58413
6964.7,0.58034
6958.91,0.58070
6953.13,0.58222
6947.34,0.57851
6941.55,0.57814
6935.77,0.58298
6929.98,0.57787
6924.2,0.57754
6918.41,0.57815
6912.62,0.57767
6906.84,0.57167
6901.05,0.57487
6895.26,0.57618
6889.48,0.57616
6883.69,0.57169
6877.91,0.57093
6872.12,0.57636
6866.33,0.57570
6860.55,0.57451
6854.76,0.57552
6848.97,0.57532
6843.19,0.57284
6837.4,0.57037
6831.62,0.57725
6825.83,0.57628
6820.04,0.57157
6814.26,0.57309
6808.47,0.57023
6802.68,0.57638
6796.9,0.57300
6791.11,0.57589
6785.33,0.57378
6779.54,0.57651
6773.75,0.57344
6767.97,0.57137
6762.18,0.57725
6756.39,0.57670
6750.61,0.57328
6744.82,0.57829
6739.04,0.58138
6733.25,0.58001
6727.46,0.58171
6721.68,0.58090
6715.89,0.57583
6710.1,0.57703
6704.32,0.58300
6698.53,0.57870
6692.75,0.57900
6686.96,0.57812
6681.17,0.58152
6675.39,0.58343
6669.6,0.58191
6663.82,0.58541
6658.03,0.58412
6652.24,0.58415
6646.46,0.58681
6640.67,0.59272
6634.88,0.59133
6629.1,0.58924
6623.31,0.58946
6617.53,0.58951
6611.74,0.59431
6605.95,0.59346
6600.17,0.59535
6594.38,0.59107
6588.59,0.60166
6582.81,0.59855
6577.02,0.59848
6571.24,0.59998
6565.45,0.60036
6559.66,0.60170
6553.88,0.59710
6548.09,0.59995
6542.3,0.60063
6536.52,0.59954
6530.73,0.60441
6524.95,0.60572
6519.16,0.60636
6513.37,0.60356
6507.59,0.60520
6501.8,0.60464
6496.01,0.60624
6490.23,0.60683
6484.44,0.60415
6478.66,0.60839
6472.87,0.60725
6467.08,0.60890
6461.3,0.60360
6455.51,0.60808
6449.72,0.60752
6443.94,0.60649
6438.15,0.61026
6432.37,0.61200
6426.58,0.61104
6420.79,0.61279
6415.01,0.60851
6409.22,0.61037
6403.43,0.61048
6397.65,0.61237
6391.86,0.61503
6386.08,0.61121
6380.29,0.61270
6374.5,0.61203
6368.72,0.61160
6362.93,0.61356
6357.14,0.61521
6351.36,0.61704
6345.57,0.61649
6339.79,0.61552
6334,0.61975
6328.21,0.61770
6322.43,0.61823
6316.64,0.61795
6310.85,0.61512
6305.07,0.61989
6299.28,0.62271
6293.5,0.62363
6287.71,0.62275
6281.92,0.62471
6276.14,0.62273
6270.35,0.62609
6264.56,0.62666
6258.78,0.62883
6252.99,0.62851
6247.21,0.63102
6241.42,0.63120
6235.63,0.63708
6229.85,0.63786
6224.06,0.63531
6218.27,0.64129
6212.49,0.64213
6206.7,0.64326
6200.92,0.64535
6195.13,0.64910
6189.34,0.65083
6183.56,0.65254
6177.77,0.65157
6171.98,0.65082
6166.2,0.65483
6160.41,0.65665
6154.63,0.65609
6148.84,0.65667
6143.05,0.65613
6137.27,0.66388
6131.48,0.66190
6125.7,0.66104
6119.91,0.65970
6114.12,0.66266
6108.34,0.66444
6102.55,0.66587
6096.76,0.66537
6090.98,0.66294
6085.19,0.66247
6079.41,0.66506
6073.62,0.66573
6067.83,0.65987
6062.05,0.66086
6056.26,0.66030
6050.47,0.65976
6044.69,0.65944
6038.9,0.65760
6033.12,0.65961
6027.33,0.65613
6021.54,0.65082
6015.76,0.65361
6009.97,0.64917
6004.18,0.64792
5998.4,0.64940
5992.61,0.64722
5986.83,0.64713
5981.04,0.64473
5975.25,0.64618
5969.47,0.64501
5963.68,0.64401
5957.89,0.64308
5952.11,0.64495
5946.32,0.64497
5940.54,0.64559
5934.75,0.64379
5928.96,0.64514
5923.18,0.64334
5917.39,0.64523
5911.6,0.64592
5905.82,0.64239
5900.03,0.63962
5894.25,0.64049
5888.46,0.64020
5882.67,0.64037
5876.89,0.63660
5871.1,0.63760
5865.31,0.63723
5859.53,0.63886
5853.74,0.63674
5847.96,0.63701
5842.17,0.63832
5836.38,0.63814
5830.6,0.63596
5824.81,0.63783
5819.02,0.63578
5813.24,0.63139
5807.45,0.63299
5801.67,0.63232
5795.88,0.63513
5790.09,0.63199
5784.31,0.63012
5778.52,0.63364
5772.73,0.63529
5766.95,0.63643
5761.16,0.63594
5755.38,0.63468
5749.59,0.63615
5743.8,0.63634
5738.02,0.63551
5732.23,0.63788
5726.44,0.63478
5720.66,0.63623
5714.87,0.63633
5709.09,0.63568
5703.3,0.63499
5697.51,0.63561
5691.73,0.63416
5685.94,0.63446
5680.15,0.63380
5674.37,0.63347
5668.58,0.63401
5662.8,0.63473
5657.01,0.63426
5651.22,0.63400
5645.44,0.63339
5639.65,0.63508
5633.87,0.63410
5628.08,0.63203
5622.29,0.63346
5616.51,0.63698
5610.72,0.63398
5604.93,0.63293
5599.15,0.63213
5593.36,0.63261
5587.58,0.63373
5581.79,0.63346
5576,0.63344
5570.22,0.63587
5564.43,0.63567
5558.64,0.63677
5552.86,0.63681
5547.07,0.63656
5541.29,0.63618
5535.5,0.63759
5529.71,0.63792
5523.93,0.64005
5518.14,0.63679
5512.35,0.63998
5506.57,0.63992
5500.78,0.63901
5495,0.64099
5489.21,0.64090
5483.42,0.64275
5477.64,0.64116
5471.85,0.64298
5466.06,0.64404
5460.28,0.64465
5454.49,0.64550
5448.71,0.64440
5442.92,0.64776
5437.13,0.64859
5431.35,0.64883
5425.56,0.65006
5419.77,0.65188
5413.99,0.65341
5408.2,0.65525
5402.42,0.65442
5396.63,0.65500
5390.84,0.65406
5385.06,0.65490
5379.27,0.65329
5373.48,0.65307
5367.7,0.65315
5361.91,0.65207
5356.13,0.65229
5350.34,0.65329
5344.55,0.65245
5338.77,0.65008
5332.98,0.64737
5327.19,0.64542
5321.41,0.64037
5315.62,0.63393
5309.84,0.63079
5304.05,0.62442
5298.26,0.61592
5292.48,0.60913
5286.69,0.59950
5280.9,0.58914
5275.12,0.57602
5269.33,0.56449
5263.55,0.55236
5257.76,0.54094
5251.97,0.52933
5246.19,0.52001
5240.4,0.50940
5234.61,0.50197
5228.83,0.49690
5223.04,0.49105
5217.26,0.48501
5211.47,0.48388
5205.68,0.48069
5199.9,0.47799
5194.11,0.47982
5188.32,0.47982
5182.54,0.48039
5176.75,0.48161
5170.97,0.48308
5165.18,0.48567
5159.39,0.48760
5153.61,0.49112
5147.82,0.49570
5142.03,0.49712
5136.25,0.50058
5130.46,0.50421
5124.68,0.50709
5118.89,0.51154
5113.1,0.51460
5107.32,0.51865
5101.53,0.51891
5095.75,0.52346
5089.96,0.52777
5084.17,0.53011
5078.39,0.53348
5072.6,0.53549
5066.81,0.53883
5061.03,0.54041
5055.24,0.54437
5049.46,0.54644
5043.67,0.54878
5037.88,0.55173
5032.1,0.55327
5026.31,0.55523
5020.52,0.55803
5014.74,0.55910
5008.95,0.55911
5003.17,0.55966
4997.38,0.56019
4991.59,0.56082
4985.81,0.55977
4980.02,0.55909
4974.23,0.55679
4968.45,0.55505
4962.66,0.55326
4956.88,0.54928
4951.09,0.54582
4945.3,0.54289
4939.52,0.53811
4933.73,0.53290
4927.94,0.52900
4922.16,0.52313
4916.37,0.51807
4910.59,0.51357
4904.8,0.50869
4899.01,0.50294
4893.23,0.49817
4887.44,0.49392
4881.65,0.48952
4875.87,0.48333
4870.08,0.48097
4864.3,0.47605
4858.51,0.47280
4852.72,0.46796
4846.94,0.46518
4841.15,0.46135
4835.36,0.45756
4829.58,0.45421
4823.79,0.45118
4818.01,0.44877
4812.22,0.44587
4806.43,0.44526
4800.65,0.44241
4794.86,0.44226
4789.07,0.44159
4783.29,0.43850
4777.5,0.43846
4771.72,0.43644
4765.93,0.43517
4760.14,0.43511
4754.36,0.43548
4748.57,0.43439
4742.78,0.43465
4737,0.43576
4731.21,0.43587
4725.43,0.43688
4719.64,0.43734
4713.85,0.43779
4708.07,0.43814
4702.28,0.43863
4696.49,0.43900
4690.71,0.44002
4684.92,0.44108
4679.14,0.44280
4673.35,0.44312
4667.56,0.44523
4661.78,0.44698
4655.99,0.44946
4650.2,0.45183
4644.42,0.45365
4638.63,0.45493
4632.85,0.45730
4627.06,0.46060
4621.27,0.46323
4615.49,0.46568
4609.7,0.46905
4603.92,0.47205
4598.13,0.47369
4592.34,0.47570
4586.56,0.47865
4580.77,0.48061
4574.98,0.48234
4569.2,0.48499
4563.41,0.48616
4557.63,0.48760
4551.84,0.48856
4546.05,0.48907
4540.27,0.49014
4534.48,0.49178
4528.69,0.49212
4522.91,0.49358
4517.12,0.49334
4511.34,0.49199
4505.55,0.49081
4499.76,0.49055
4493.98,0.48730
4488.19,0.48482
4482.4,0.48084
4476.62,0.47503
4470.83,0.47039
4465.05,0.46348
4459.26,0.45709
4453.47,0.44967
4447.69,0.44337
4441.9,0.43652
4436.11,0.43064
4430.33,0.42296
4424.54,0.41637
4418.76,0.41002
4412.97,0.40369
4407.18,0.39921
4401.4,0.39695
4395.61,0.39611
4389.82,0.39685
4384.04,0.39847
4378.25,0.40052
4372.47,0.40312
4366.68,0.40554
4360.89,0.40660
4355.11,0.40678
4349.32,0.40570
4343.53,0.40501
4337.75,0.40427
4331.96,0.40250
4326.18,0.40131
4320.39,0.39820
4314.6,0.39601
4308.82,0.39387
4303.03,0.39179
4297.24,0.38888
4291.46,0.38736
4285.67,0.38577
4279.89,0.38528
4274.1,0.38501
4268.31,0.38572
4262.53,0.38724
4256.74,0.38815
4250.95,0.38946
4245.17,0.39032
4239.38,0.39134
4233.6,0.39137
4227.81,0.39141
4222.02,0.39045
4216.24,0.39086
4210.45,0.39178
4204.66,0.39152
4198.88,0.39199
4193.09,0.39287
4187.31,0.39362
4181.52,0.39398
4175.73,0.39514
4169.95,0.39682
4164.16,0.39772
4158.37,0.39757
4152.59,0.39668
4146.8,0.39520
4141.02,0.39186
4135.23,0.38949
4129.44,0.38648
4123.66,0.38274
4117.87,0.37909
4112.09,0.37505
4106.3,0.36999
4100.51,0.36556
4094.73,0.35992
4088.94,0.35441
4083.15,0.34967
4077.37,0.34367
4071.58,0.33877
4065.8,0.33316
4060.01,0.32794
4054.22,0.32280
4048.44,0.31851
4042.65,0.31387
4036.86,0.31077
4031.08,0.30687
4025.29,0.30415
4019.51,0.30202
4013.72,0.30258
4007.93,0.30233
4002.15,0.30295
3996.36,0.30415
3990.57,0.30561
3984.79,0.30673
3979,0.30753
3973.22,0.30991
3967.43,0.31152
3961.64,0.31351
3955.86,0.31613
3950.07,0.31871
3944.28,0.32151
3938.5,0.32338
3932.71,0.32626
3926.93,0.32863
3921.14,0.33177
3915.35,0.33448
3909.57,0.33639
3903.78,0.33954
3897.99,0.34200
3892.21,0.34427
3886.42,0.34653
3880.64,0.34832
3874.85,0.34979
3869.06,0.35202
3863.28,0.35534
3857.49,0.35795
3851.7,0.36121
3845.92,0.36171
3840.13,0.36433
3834.35,0.36560
3828.56,0.36594
3822.77,0.36787
3816.99,0.36608
3811.2,0.36532
3805.41,0.36608
3799.63,0.36550
3793.84,0.36360
3788.06,0.36357
3782.27,0.36233
3776.48,0.36124
3770.7,0.36020
3764.91,0.35843
3759.12,0.35675
3753.34,0.35444
3747.55,0.35200
3741.77,0.34773
3735.98,0.34531
3730.19,0.33950
3724.41,0.33408
3718.62,0.32731
3712.83,0.32095
3707.05,0.31152
3701.26,0.30181
3695.48,0.28912
3689.69,0.27664
3683.9,0.25826
3678.12,0.24133
3672.33,0.22022
3666.54,0.19864
3660.76,0.18089
3654.97,0.16386
3649.19,0.15055
3643.4,0.13645
3637.61,0.12606
3631.83,0.11792
3626.04,0.10728
3620.25,0.10170
3614.47,0.09509
3608.68,0.08954
3602.9,0.08339
3597.11,0.07935
3591.32,0.07505
3585.54,0.07079
3579.75,0.06708
3573.97,0.06407
3568.18,0.06205
3562.39,0.05943
3556.61,0.05683
3550.82,0.05542
3545.03,0.05335
3539.25,0.05244
3533.46,0.05105
3527.68,0.04936
3521.89,0.04802
3516.1,0.04810
3510.32,0.04635
3504.53,0.04545
3498.74,0.04507
3492.96,0.04402
3487.17,0.04331
3481.39,0.04217
3475.6,0.04225
3469.81,0.04247
3464.03,0.04187
3458.24,0.04085
3452.45,0.04049
3446.67,0.04086
3440.88,0.04108
3435.1,0.04056
3429.31,0.04028
3423.52,0.04004
3417.74,0.04088
3411.95,0.03990
3406.16,0.04001
3400.38,0.04091
3394.59,0.04067
3388.81,0.04054
3383.02,0.04040
3377.23,0.04052
3371.45,0.04085
3365.66,0.04179
3359.87,0.04150
3354.09,0.04180
3348.3,0.04189
3342.52,0.04225
3336.73,0.04342
3330.94,0.04448
3325.16,0.04387
3319.37,0.04512
3313.58,0.04523
3307.8,0.04526
3302.01,0.04581
3296.23,0.04710
3290.44,0.04750
3284.65,0.04818
3278.87,0.04848
3273.08,0.04977
3267.29,0.05035
3261.51,0.05078
3255.72,0.05227
3249.94,0.05362
3244.15,0.05427
3238.36,0.05538
3232.58,0.05653
3226.79,0.05742
3221,0.05829
3215.22,0.05930
3209.43,0.06058
3203.65,0.06232
3197.86,0.06361
3192.07,0.06453
3186.29,0.06532
3180.5,0.06715
3174.71,0.06854
3168.93,0.07020
3163.14,0.07104
3157.36,0.07284
3151.57,0.07496
3145.78,0.07630
3140,0.07814
3134.21,0.07854
3128.42,0.08068
3122.64,0.08186
3116.85,0.08365
3111.07,0.08481
3105.28,0.08641
3099.49,0.08799
3093.71,0.08902
3087.92,0.09040
3082.14,0.09175
3076.35,0.09303
3070.56,0.09411
3064.78,0.09532
3058.99,0.09764
3053.2,0.09871
3047.42,0.09982
3041.63,0.10138
3035.85,0.10226
3030.06,0.10342
3024.27,0.10326
3018.49,0.10254
3012.7,0.10149
3006.91,0.09976
3001.13,0.09835
2995.34,0.09660
2989.56,0.09414
2983.77,0.09041
2977.98,0.08524
2972.2,0.07995
2966.41,0.07574
2960.62,0.07300
2954.84,0.07091
2949.05,0.06857
2943.27,0.06638
2937.48,0.06494
2931.69,0.06443
2925.91,0.06464
2920.12,0.06474
2914.33,0.06465
2908.55,0.06474
2902.76,0.06529
2896.98,0.06604
2891.19,0.06807
2885.4,0.06870
2879.62,0.06977
2873.83,0.07134
2868.04,0.07261
2862.26,0.07502
2856.47,0.07666
2850.69,0.07936
2844.9,0.08413
2839.11,0.08883
2833.33,0.09424
2827.54,0.09974
2821.75,0.10535
2815.97,0.10955
2810.18,0.11339
2804.4,0.11664
2798.61,0.11924
2792.82,0.12233
2787.04,0.12444
2781.25,0.12622
2775.46,0.12709
2769.68,0.12796
2763.89,0.12890
2758.11,0.12973
2752.32,0.13079
2746.53,0.13160
2740.75,0.13145
2734.96,0.13220
2729.17,0.13348
2723.39,0.13441
2717.6,0.13574
2711.82,0.13785
2706.03,0.14012
2700.24,0.14262
2694.46,0.14388
2688.67,0.14594
2682.88,0.14744
2677.1,0.14931
2671.31,0.15083
2665.53,0.15189
2659.74,0.15337
2653.95,0.15446
2648.17,0.15587
2642.38,0.15698
2636.59,0.15840
2630.81,0.15992
2625.02,0.16149
2619.24,0.16357
2613.45,0.16428
2607.66,0.16620
2601.88,0.16738
2596.09,0.16834
2590.3,0.17011
2584.52,0.17115
2578.73,0.17236
2572.95,0.17359
2567.16,0.17402
2561.37,0.17453
2555.59,0.17499
2549.8,0.17542
2544.02,0.17599
2538.23,0.17664
2532.44,0.17832
2526.66,0.17968
2520.87,0.18120
2515.08,0.18270
2509.3,0.18399
2503.51,0.18640
2497.73,0.18958
2491.94,0.19153
2486.15,0.19424
2480.37,0.19642
2474.58,0.19853
2468.79,0.20084
2463.01,0.20265
2457.22,0.20440
2451.44,0.20654
2445.65,0.20901
2439.86,0.21154
2434.08,0.21412
2428.29,0.21659
2422.5,0.21903
2416.72,0.22208
2410.93,0.22479
2405.15,0.22689
2399.36,0.22945
2393.57,0.23185
2387.79,0.23429
2382,0.23671
2376.21,0.23915
2370.43,0.24143
2364.64,0.24370
2358.86,0.24557
2353.07,0.24663
2347.28,0.24750
2341.5,0.24954
2335.71,0.25050
2329.92,0.25106
2324.14,0.25180
2318.35,0.25260
2312.57,0.25241
2306.78,0.25252
2300.99,0.25259
2295.21,0.25173
2289.42,0.25187
2283.63,0.25191
2277.85,0.25178
2272.06,0.25114
2266.28,0.24964
2260.49,0.24787
2254.7,0.24698
2248.92,0.24576
2243.13,0.24571
2237.34,0.24517
2231.56,0.24399
2225.77,0.24343
2219.99,0.24323
2214.2,0.24348
2208.41,0.24261
2202.63,0.24125
2196.84,0.23991
2191.05,0.23782
2185.27,0.23485
2179.48,0.23208
2173.7,0.22887
2167.91,0.22607
2162.12,0.22412
2156.34,0.22206
2150.55,0.22041
2144.76,0.21927
2138.98,0.21809
2133.19,0.21771
2127.41,0.21776
2121.62,0.21836
2115.83,0.21933
2110.05,0.22030
2104.26,0.22094
2098.47,0.22162
2092.69,0.22199
2086.9,0.22227
2081.12,0.22138
2075.33,0.21997
2069.54,0.21900
2063.76,0.21809
2057.97,0.21767
2052.19,0.21792
2046.4,0.21893
2040.61,0.22024
2034.83,0.22210
2029.04,0.22451
2023.25,0.22732
2017.47,0.23011
2011.68,0.23254
2005.9,0.23429
2000.11,0.23585
1994.32,0.23765
1988.54,0.23872
1982.75,0.24035
1976.96,0.24110
1971.18,0.24257
1965.39,0.24370
1959.61,0.24534
1953.82,0.24739
1948.03,0.24953
1942.25,0.25136
1936.46,0.25315
1930.67,0.25440
1924.89,0.25495
1919.1,0.25607
1913.32,0.25615
1907.53,0.25605
1901.74,0.25493
1895.96,0.25466
1890.17,0.25390
1884.38,0.25337
1878.6,0.25281
1872.81,0.25162
1867.03,0.25117
1861.24,0.24974
1855.45,0.24760
1849.67,0.24522
1843.88,0.24300
1838.09,0.23875
1832.31,0.23504
1826.52,0.22952
1820.74,0.22184
1814.95,0.21252
1809.16,0.20132
1803.38,0.18933
1797.59,0.17632
1791.8,0.16295
1786.02,0.14930
1780.23,0.13534
1774.45,0.12273
1768.66,0.10779
1762.87,0.09371
1757.09,0.08066
1751.3,0.07167
1745.51,0.06559
1739.73,0.06282
1733.94,0.06208
1728.16,0.06201
1722.37,0.06361
1716.58,0.06655
1710.8,0.06865
1705.01,0.07115
1699.22,0.07267
1693.44,0.07101
1687.65,0.06924
1681.87,0.06684
1676.08,0.06471
1670.29,0.06322
1664.51,0.06172
1658.72,0.06170
1652.93,0.06272
1647.15,0.06187
1641.36,0.06233
1635.58,0.06254
1629.79,0.06194
1624,0.06207
1618.22,0.06154
1612.43,0.05991
1606.64,0.05871
1600.86,0.05819
1595.07,0.05940
1589.29,0.06138
1583.5,0.06562
1577.71,0.07241
1571.93,0.08019
1566.14,0.08686
1560.35,0.09098
1554.57,0.09193
1548.78,0.09181
1543,0.09122
1537.21,0.08621
1531.42,0.07910
1525.64,0.06859
1519.85,0.05658
1514.07,0.05048
1508.28,0.05138
1502.49,0.05599
1496.71,0.06141
1490.92,0.06514
1485.13,0.06401
1479.35,0.06043
1473.56,0.05480
1467.78,0.04941
1461.99,0.04814
1456.2,0.04865
1450.42,0.04862
1444.63,0.04917
1438.84,0.04869
1433.06,0.04648
1427.27,0.04568
1421.49,0.04728
1415.7,0.04928
1409.91,0.05088
1404.13,0.05143
1398.34,0.05146
1392.55,0.05016
1386.77,0.04859
1380.98,0.04625
1375.2,0.04532
1369.41,0.04599
1363.62,0.04732
1357.84,0.04798
1352.05,0.04844
1346.26,0.04855
1340.48,0.04727
1334.69,0.04690
1328.91,0.04681
1323.12,0.04596
1317.33,0.04566
1311.55,0.04642
1305.76,0.04700
1299.97,0.04703
1294.19,0.04561
1288.4,0.04382
1282.62,0.04249
1276.83,0.04240
1271.04,0.04223
1265.26,0.04332
1259.47,0.04414
1253.68,0.04502
1247.9,0.04561
1242.11,0.04548
1236.33,0.04525
1230.54,0.04544
1224.75,0.04611
1218.97,0.04639
1213.18,0.04686
1207.39,0.04627
1201.61,0.04661
1195.82,0.04676
1190.04,0.04620
1184.25,0.04345
1178.46,0.04061
1172.68,0.03795
1166.89,0.03805
1161.1,0.04026
1155.32,0.04124
1149.53,0.04043
1143.75,0.03930
1137.96,0.03817
1132.17,0.03676
1126.39,0.03673
1120.6,0.03615
1114.81,0.03726
1109.03,0.03955
1103.24,0.03949
1097.46,0.03974
1091.67,0.03911
1085.88,0.03953
1080.1,0.04014
1074.31,0.04266
1068.52,0.04642
1062.74,0.05144
1056.95,0.05540
1051.17,0.05597
1045.38,0.05486
1039.59,0.05541
1033.81,0.05935
1028.02,0.06219
1022.24,0.06422
1016.45,0.06521
1010.66,0.06715
1004.88,0.06739
999.09,0.06925
993.304,0.07101
987.518,0.07459
981.731,0.07984
975.945,0.08418
970.159,0.08552
964.373,0.08887
958.586,0.09268
952.8,0.09560
947.014,0.09773
941.228,0.09986
935.441,0.10164
929.655,0.10266
923.869,0.10281
918.083,0.10146
912.297,0.09799
906.51,0.09258
900.724,0.08758
894.938,0.08812
889.152,0.09099
883.365,0.09203
877.579,0.09296
871.793,0.09311
866.007,0.09380
860.22,0.09595
854.434,0.09763
848.648,0.09902
842.862,0.09939
837.075,0.09851
831.289,0.09480
825.503,0.09056
819.717,0.08549
813.931,0.08417
808.144,0.08333
802.358,0.08383
796.572,0.08459
790.786,0.08402
784.999,0.08243
779.213,0.08008
773.427,0.07839
767.641,0.07879
761.854,0.07746
756.068,0.07585
750.282,0.07425
744.496,0.07214
738.709,0.07120
732.923,0.06899
727.137,0.06742
721.351,0.06653
715.565,0.06510
709.778,0.06413
703.992,0.06332
698.206,0.06334
692.42,0.06235
686.633,0.06069
680.847,0.05936
675.061,0.05757
669.275,0.05840
663.488,0.05744
657.702,0.05852
651.916,0.05833
646.13,0.05693
640.343,0.05588
634.557,0.05405
628.771,0.05587
622.985,0.05467
617.198,0.05513
611.412,0.05532
605.626,0.06005
599.84,0.05698