File: 01_Data/Pressure_Treated_Deck/FTIR/IS/Deprecated/Pressure_Treated_Deck_IS_S_220926_R8.dpt
7497.03,0.76602
7491.25,0.76588
7485.46,0.75939
7479.67,0.75867
7473.89,0.76119
7468.1,0.75244
7462.32,0.75508
7456.53,0.75185
7450.74,0.75279
7444.96,0.75979
7439.17,0.75183
7433.38,0.75672
7427.6,0.74519
7421.81,0.74972
7416.03,0.75152
7410.24,0.74237
7404.45,0.73907
7398.67,0.73629
7392.88,0.73555
7387.09,0.74594
7381.31,0.74387
7375.52,0.74404
7369.74,0.73267
7363.95,0.73173
7358.16,0.73213
7352.38,0.73338
7346.59,0.73115
7340.8,0.72790
7335.02,0.72346
7329.23,0.72135
7323.45,0.72158
7317.66,0.72204
7311.87,0.72629
7306.09,0.72508
7300.3,0.71863
7294.51,0.72402
7288.73,0.71921
7282.94,0.71776
7277.16,0.72113
7271.37,0.72403
7265.58,0.72374
7259.8,0.72263
7254.01,0.71875
7248.22,0.72980
7242.44,0.72480
7236.65,0.72709
7230.87,0.72579
7225.08,0.72298
7219.29,0.72437
7213.51,0.72116
7207.72,0.72274
7201.93,0.71256
7196.15,0.71761
7190.36,0.72037
7184.58,0.72011
7178.79,0.71290
7173,0.71604
7167.22,0.70419
7161.43,0.70403
7155.65,0.70425
7149.86,0.70788
7144.07,0.70262
7138.29,0.69767
7132.5,0.69213
7126.71,0.68724
7120.93,0.69415
7115.14,0.68492
7109.36,0.68236
7103.57,0.67675
7097.78,0.67333
7092,0.68174
7086.21,0.66193
7080.42,0.65987
7074.64,0.65728
7068.85,0.64939
7063.07,0.64549
7057.28,0.64451
7051.49,0.63942
7045.71,0.63150
7039.92,0.62125
7034.13,0.62149
7028.35,0.61691
7022.56,0.61206
7016.78,0.60957
7010.99,0.60800
7005.2,0.60431
6999.42,0.59357
6993.63,0.59394
6987.84,0.59654
6982.06,0.58915
6976.27,0.58895
6970.49,0.59062
6964.7,0.58452
6958.91,0.58505
6953.13,0.58376
6947.34,0.58102
6941.55,0.58231
6935.77,0.57996
6929.98,0.58182
6924.2,0.58058
6918.41,0.58650
6912.62,0.57773
6906.84,0.57687
6901.05,0.58289
6895.26,0.58134
6889.48,0.57908
6883.69,0.58112
6877.91,0.57690
6872.12,0.58426
6866.33,0.57469
6860.55,0.58140
6854.76,0.57874
6848.97,0.58485
6843.19,0.57627
6837.4,0.57862
6831.62,0.58400
6825.83,0.57738
6820.04,0.57908
6814.26,0.58249
6808.47,0.58276
6802.68,0.57780
6796.9,0.58168
6791.11,0.57847
6785.33,0.57669
6779.54,0.58256
6773.75,0.57730
6767.97,0.58075
6762.18,0.57741
6756.39,0.58398
6750.61,0.58140
6744.82,0.58036
6739.04,0.58064
6733.25,0.58034
6727.46,0.57998
6721.68,0.58257
6715.89,0.58122
6710.1,0.58288
6704.32,0.58523
6698.53,0.58808
6692.75,0.59040
6686.96,0.58646
6681.17,0.59006
6675.39,0.59011
6669.6,0.58995
6663.82,0.59436
6658.03,0.59147
6652.24,0.59130
6646.46,0.59440
6640.67,0.59333
6634.88,0.59764
6629.1,0.59404
6623.31,0.59700
6617.53,0.59144
6611.74,0.60127
6605.95,0.60062
6600.17,0.60044
6594.38,0.60200
6588.59,0.60217
6582.81,0.60595
6577.02,0.60542
6571.24,0.60231
6565.45,0.60409
6559.66,0.60478
6553.88,0.60429
6548.09,0.61060
6542.3,0.60951
6536.52,0.60320
6530.73,0.60417
6524.95,0.61066
6519.16,0.60695
6513.37,0.60631
6507.59,0.61117
6501.8,0.61028
6496.01,0.61257
6490.23,0.61267
6484.44,0.61008
6478.66,0.61465
6472.87,0.60755
6467.08,0.61374
6461.3,0.61430
6455.51,0.61452
6449.72,0.61346
6443.94,0.61647
6438.15,0.61234
6432.37,0.61571
6426.58,0.61320
6420.79,0.61644
6415.01,0.61441
6409.22,0.61876
6403.43,0.61948
6397.65,0.61767
6391.86,0.62220
6386.08,0.61789
6380.29,0.61929
6374.5,0.61903
6368.72,0.61949
6362.93,0.61984
6357.14,0.62093
6351.36,0.62055
6345.57,0.62189
6339.79,0.62091
6334,0.62203
6328.21,0.62158
6322.43,0.62359
6316.64,0.62255
6310.85,0.62507
6305.07,0.62742
6299.28,0.62480
6293.5,0.62694
6287.71,0.62892
6281.92,0.63036
6276.14,0.63102
6270.35,0.63309
6264.56,0.63069
6258.78,0.63695
6252.99,0.63988
6247.21,0.63745
6241.42,0.64049
6235.63,0.64011
6229.85,0.63881
6224.06,0.64300
6218.27,0.65025
6212.49,0.64473
6206.7,0.65102
6200.92,0.65080
6195.13,0.65157
6189.34,0.65209
6183.56,0.65387
6177.77,0.65685
6171.98,0.65856
6166.2,0.65765
6160.41,0.66029
6154.63,0.66410
6148.84,0.66227
6143.05,0.66377
6137.27,0.66443
6131.48,0.66306
6125.7,0.66448
6119.91,0.66741
6114.12,0.66553
6108.34,0.66671
6102.55,0.66814
6096.76,0.67066
6090.98,0.67014
6085.19,0.67180
6079.41,0.66943
6073.62,0.67020
6067.83,0.67154
6062.05,0.67153
6056.26,0.66567
6050.47,0.66731
6044.69,0.66544
6038.9,0.66334
6033.12,0.65930
6027.33,0.65767
6021.54,0.65874
6015.76,0.65675
6009.97,0.65296
6004.18,0.65192
5998.4,0.65187
5992.61,0.64807
5986.83,0.64841
5981.04,0.64798
5975.25,0.64779
5969.47,0.64868
5963.68,0.64971
5957.89,0.64933
5952.11,0.65017
5946.32,0.65159
5940.54,0.65106
5934.75,0.64898
5928.96,0.65076
5923.18,0.64934
5917.39,0.65020
5911.6,0.64856
5905.82,0.64864
5900.03,0.64717
5894.25,0.64489
5888.46,0.64317
5882.67,0.64147
5876.89,0.64285
5871.1,0.64197
5865.31,0.64384
5859.53,0.64188
5853.74,0.64450
5847.96,0.64344
5842.17,0.64278
5836.38,0.64170
5830.6,0.63929
5824.81,0.63838
5819.02,0.63728
5813.24,0.63498
5807.45,0.63662
5801.67,0.63806
5795.88,0.63430
5790.09,0.63466
5784.31,0.63556
5778.52,0.63606
5772.73,0.64012
5766.95,0.64179
5761.16,0.64088
5755.38,0.64213
5749.59,0.64119
5743.8,0.64190
5738.02,0.63924
5732.23,0.63891
5726.44,0.63911
5720.66,0.63940
5714.87,0.64031
5709.09,0.63881
5703.3,0.64004
5697.51,0.64031
5691.73,0.64098
5685.94,0.63830
5680.15,0.64080
5674.37,0.63895
5668.58,0.64050
5662.8,0.63916
5657.01,0.63777
5651.22,0.63587
5645.44,0.63872
5639.65,0.63821
5633.87,0.63890
5628.08,0.63841
5622.29,0.63830
5616.51,0.64034
5610.72,0.63944
5604.93,0.63964
5599.15,0.63686
5593.36,0.63890
5587.58,0.63856
5581.79,0.63706
5576,0.63956
5570.22,0.64071
5564.43,0.63912
5558.64,0.64114
5552.86,0.64157
5547.07,0.64284
5541.29,0.64185
5535.5,0.64184
5529.71,0.64317
5523.93,0.64214
5518.14,0.64446
5512.35,0.64351
5506.57,0.64551
5500.78,0.64623
5495,0.64388
5489.21,0.64374
5483.42,0.64798
5477.64,0.64819
5471.85,0.64789
5466.06,0.64758
5460.28,0.65045
5454.49,0.65051
5448.71,0.64989
5442.92,0.65170
5437.13,0.65500
5431.35,0.65346
5425.56,0.65565
5419.77,0.65815
5413.99,0.65837
5408.2,0.65732
5402.42,0.65813
5396.63,0.66028
5390.84,0.66065
5385.06,0.66180
5379.27,0.66036
5373.48,0.66060
5367.7,0.66043
5361.91,0.65912
5356.13,0.65999
5350.34,0.65989
5344.55,0.66079
5338.77,0.65818
5332.98,0.65556
5327.19,0.65305
5321.41,0.64985
5315.62,0.64602
5309.84,0.64070
5304.05,0.63616
5298.26,0.62913
5292.48,0.62353
5286.69,0.61610
5280.9,0.60410
5275.12,0.59370
5269.33,0.58548
5263.55,0.57320
5257.76,0.56179
5251.97,0.55207
5246.19,0.54225
5240.4,0.53286
5234.61,0.52593
5228.83,0.52062
5223.04,0.51582
5217.26,0.51220
5211.47,0.50765
5205.68,0.50700
5199.9,0.50553
5194.11,0.50508
5188.32,0.50707
5182.54,0.50701
5176.75,0.50849
5170.97,0.51064
5165.18,0.51358
5159.39,0.51452
5153.61,0.51755
5147.82,0.52094
5142.03,0.52460
5136.25,0.52745
5130.46,0.53051
5124.68,0.53270
5118.89,0.53602
5113.1,0.53950
5107.32,0.54309
5101.53,0.54518
5095.75,0.54763
5089.96,0.55145
5084.17,0.55176
5078.39,0.55526
5072.6,0.55872
5066.81,0.56163
5061.03,0.56304
5055.24,0.56463
5049.46,0.56760
5043.67,0.56924
5037.88,0.57149
5032.1,0.57295
5026.31,0.57329
5020.52,0.57567
5014.74,0.57594
5008.95,0.57666
5003.17,0.57706
4997.38,0.57613
4991.59,0.57619
4985.81,0.57547
4980.02,0.57140
4974.23,0.56953
4968.45,0.56797
4962.66,0.56371
4956.88,0.55931
4951.09,0.55428
4945.3,0.54980
4939.52,0.54520
4933.73,0.54124
4927.94,0.53475
4922.16,0.52854
4916.37,0.52374
4910.59,0.51795
4904.8,0.51355
4899.01,0.50771
4893.23,0.50316
4887.44,0.49724
4881.65,0.49331
4875.87,0.48707
4870.08,0.48256
4864.3,0.47902
4858.51,0.47462
4852.72,0.47045
4846.94,0.46690
4841.15,0.46339
4835.36,0.45917
4829.58,0.45710
4823.79,0.45497
4818.01,0.45205
4812.22,0.44899
4806.43,0.44605
4800.65,0.44451
4794.86,0.44339
4789.07,0.44246
4783.29,0.44212
4777.5,0.44038
4771.72,0.43916
4765.93,0.43884
4760.14,0.43777
4754.36,0.43746
4748.57,0.43767
4742.78,0.43744
4737,0.43700
4731.21,0.43816
4725.43,0.43835
4719.64,0.44013
4713.85,0.43995
4708.07,0.44151
4702.28,0.44118
4696.49,0.44244
4690.71,0.44344
4684.92,0.44345
4679.14,0.44485
4673.35,0.44771
4667.56,0.44969
4661.78,0.45069
4655.99,0.45212
4650.2,0.45545
4644.42,0.45614
4638.63,0.45762
4632.85,0.46067
4627.06,0.46429
4621.27,0.46691
4615.49,0.46935
4609.7,0.47301
4603.92,0.47474
4598.13,0.47819
4592.34,0.48066
4586.56,0.48302
4580.77,0.48458
4574.98,0.48576
4569.2,0.48828
4563.41,0.48917
4557.63,0.49093
4551.84,0.49191
4546.05,0.49374
4540.27,0.49539
4534.48,0.49499
4528.69,0.49660
4522.91,0.49645
4517.12,0.49606
4511.34,0.49692
4505.55,0.49567
4499.76,0.49430
4493.98,0.49196
4488.19,0.48830
4482.4,0.48390
4476.62,0.47874
4470.83,0.47256
4465.05,0.46746
4459.26,0.46079
4453.47,0.45349
4447.69,0.44627
4441.9,0.43930
4436.11,0.43296
4430.33,0.42584
4424.54,0.41885
4418.76,0.41252
4412.97,0.40613
4407.18,0.40222
4401.4,0.39983
4395.61,0.39841
4389.82,0.39904
4384.04,0.40086
4378.25,0.40297
4372.47,0.40466
4366.68,0.40678
4360.89,0.40835
4355.11,0.40850
4349.32,0.40882
4343.53,0.40720
4337.75,0.40672
4331.96,0.40572
4326.18,0.40349
4320.39,0.40102
4314.6,0.39871
4308.82,0.39684
4303.03,0.39428
4297.24,0.39168
4291.46,0.39003
4285.67,0.38871
4279.89,0.38754
4274.1,0.38762
4268.31,0.38780
4262.53,0.39043
4256.74,0.39194
4250.95,0.39289
4245.17,0.39323
4239.38,0.39407
4233.6,0.39449
4227.81,0.39489
4222.02,0.39482
4216.24,0.39468
4210.45,0.39512
4204.66,0.39558
4198.88,0.39632
4193.09,0.39610
4187.31,0.39674
4181.52,0.39815
4175.73,0.39957
4169.95,0.40107
4164.16,0.40172
4158.37,0.40280
4152.59,0.40173
4146.8,0.39943
4141.02,0.39706
4135.23,0.39506
4129.44,0.39203
4123.66,0.38870
4117.87,0.38417
4112.09,0.38001
4106.3,0.37535
4100.51,0.37079
4094.73,0.36540
4088.94,0.35996
4083.15,0.35483
4077.37,0.34852
4071.58,0.34317
4065.8,0.33780
4060.01,0.33236
4054.22,0.32797
4048.44,0.32174
4042.65,0.31760
4036.86,0.31392
4031.08,0.31094
4025.29,0.30871
4019.51,0.30692
4013.72,0.30585
4007.93,0.30598
4002.15,0.30629
3996.36,0.30781
3990.57,0.30927
3984.79,0.31107
3979,0.31202
3973.22,0.31340
3967.43,0.31531
3961.64,0.31796
3955.86,0.32060
3950.07,0.32334
3944.28,0.32610
3938.5,0.32859
3932.71,0.33211
3926.93,0.33429
3921.14,0.33685
3915.35,0.33960
3909.57,0.34261
3903.78,0.34540
3897.99,0.34755
3892.21,0.35020
3886.42,0.35203
3880.64,0.35431
3874.85,0.35544
3869.06,0.35820
3863.28,0.36069
3857.49,0.36385
3851.7,0.36668
3845.92,0.36919
3840.13,0.37157
3834.35,0.37297
3828.56,0.37309
3822.77,0.37402
3816.99,0.37438
3811.2,0.37374
3805.41,0.37428
3799.63,0.37372
3793.84,0.37311
3788.06,0.37291
3782.27,0.37256
3776.48,0.37176
3770.7,0.37058
3764.91,0.36865
3759.12,0.36699
3753.34,0.36583
3747.55,0.36334
3741.77,0.35965
3735.98,0.35599
3730.19,0.35167
3724.41,0.34759
3718.62,0.34063
3712.83,0.33475
3707.05,0.32624
3701.26,0.31697
3695.48,0.30704
3689.69,0.29412
3683.9,0.27671
3678.12,0.26001
3672.33,0.23844
3666.54,0.21766
3660.76,0.19946
3654.97,0.18302
3649.19,0.16728
3643.4,0.15313
3637.61,0.14174
3631.83,0.13136
3626.04,0.12112
3620.25,0.11333
3614.47,0.10529
3608.68,0.09853
3602.9,0.09217
3597.11,0.08574
3591.32,0.08104
3585.54,0.07624
3579.75,0.07200
3573.97,0.06854
3568.18,0.06542
3562.39,0.06275
3556.61,0.06033
3550.82,0.05747
3545.03,0.05512
3539.25,0.05408
3533.46,0.05215
3527.68,0.05078
3521.89,0.04979
3516.1,0.04843
3510.32,0.04790
3504.53,0.04771
3498.74,0.04613
3492.96,0.04497
3487.17,0.04433
3481.39,0.04420
3475.6,0.04313
3469.81,0.04291
3464.03,0.04247
3458.24,0.04190
3452.45,0.04125
3446.67,0.04151
3440.88,0.04118
3435.1,0.04136
3429.31,0.04081
3423.52,0.04116
3417.74,0.04074
3411.95,0.04069
3406.16,0.04078
3400.38,0.04103
3394.59,0.04150
3388.81,0.04121
3383.02,0.04164
3377.23,0.04099
3371.45,0.04143
3365.66,0.04143
3359.87,0.04207
3354.09,0.04285
3348.3,0.04282
3342.52,0.04307
3336.73,0.04344
3330.94,0.04445
3325.16,0.04514
3319.37,0.04567
3313.58,0.04598
3307.8,0.04629
3302.01,0.04670
3296.23,0.04716
3290.44,0.04764
3284.65,0.04828
3278.87,0.04958
3273.08,0.05024
3267.29,0.05136
3261.51,0.05244
3255.72,0.05362
3249.94,0.05464
3244.15,0.05589
3238.36,0.05733
3232.58,0.05833
3226.79,0.05946
3221,0.06032
3215.22,0.06186
3209.43,0.06360
3203.65,0.06460
3197.86,0.06558
3192.07,0.06761
3186.29,0.06872
3180.5,0.07020
3174.71,0.07206
3168.93,0.07367
3163.14,0.07492
3157.36,0.07607
3151.57,0.07814
3145.78,0.07973
3140,0.08150
3134.21,0.08334
3128.42,0.08413
3122.64,0.08574
3116.85,0.08838
3111.07,0.08952
3105.28,0.09090
3099.49,0.09245
3093.71,0.09315
3087.92,0.09488
3082.14,0.09639
3076.35,0.09764
3070.56,0.09903
3064.78,0.10051
3058.99,0.10187
3053.2,0.10354
3047.42,0.10513
3041.63,0.10621
3035.85,0.10685
3030.06,0.10731
3024.27,0.10690
3018.49,0.10650
3012.7,0.10545
3006.91,0.10356
3001.13,0.10118
2995.34,0.09922
2989.56,0.09661
2983.77,0.09255
2977.98,0.08722
2972.2,0.08102
2966.41,0.07681
2960.62,0.07412
2954.84,0.07131
2949.05,0.06892
2943.27,0.06647
2937.48,0.06574
2931.69,0.06500
2925.91,0.06462
2920.12,0.06512
2914.33,0.06477
2908.55,0.06535
2902.76,0.06567
2896.98,0.06647
2891.19,0.06806
2885.4,0.06908
2879.62,0.07036
2873.83,0.07129
2868.04,0.07317
2862.26,0.07493
2856.47,0.07716
2850.69,0.07996
2844.9,0.08491
2839.11,0.09056
2833.33,0.09561
2827.54,0.10118
2821.75,0.10684
2815.97,0.11172
2810.18,0.11553
2804.4,0.11899
2798.61,0.12250
2792.82,0.12474
2787.04,0.12711
2781.25,0.12887
2775.46,0.13037
2769.68,0.13154
2763.89,0.13219
2758.11,0.13307
2752.32,0.13377
2746.53,0.13395
2740.75,0.13412
2734.96,0.13488
2729.17,0.13614
2723.39,0.13765
2717.6,0.13878
2711.82,0.14091
2706.03,0.14343
2700.24,0.14572
2694.46,0.14726
2688.67,0.14921
2682.88,0.15109
2677.1,0.15265
2671.31,0.15434
2665.53,0.15522
2659.74,0.15632
2653.95,0.15741
2648.17,0.15829
2642.38,0.15999
2636.59,0.16182
2630.81,0.16340
2625.02,0.16483
2619.24,0.16612
2613.45,0.16768
2607.66,0.16932
2601.88,0.17053
2596.09,0.17183
2590.3,0.17363
2584.52,0.17466
2578.73,0.17627
2572.95,0.17686
2567.16,0.17755
2561.37,0.17785
2555.59,0.17854
2549.8,0.17875
2544.02,0.17949
2538.23,0.18009
2532.44,0.18143
2526.66,0.18328
2520.87,0.18420
2515.08,0.18589
2509.3,0.18823
2503.51,0.19064
2497.73,0.19336
2491.94,0.19558
2486.15,0.19796
2480.37,0.19998
2474.58,0.20216
2468.79,0.20425
2463.01,0.20639
2457.22,0.20819
2451.44,0.21106
2445.65,0.21288
2439.86,0.21500
2434.08,0.21775
2428.29,0.22041
2422.5,0.22312
2416.72,0.22631
2410.93,0.22873
2405.15,0.23136
2399.36,0.23426
2393.57,0.23640
2387.79,0.23896
2382,0.24115
2376.21,0.24406
2370.43,0.24616
2364.64,0.24867
2358.86,0.24991
2353.07,0.25170
2347.28,0.25305
2341.5,0.25501
2335.71,0.25636
2329.92,0.25682
2324.14,0.25763
2318.35,0.25875
2312.57,0.25894
2306.78,0.25886
2300.99,0.25894
2295.21,0.25864
2289.42,0.25847
2283.63,0.25896
2277.85,0.25868
2272.06,0.25801
2266.28,0.25686
2260.49,0.25505
2254.7,0.25418
2248.92,0.25345
2243.13,0.25309
2237.34,0.25232
2231.56,0.25150
2225.77,0.25159
2219.99,0.25201
2214.2,0.25154
2208.41,0.25067
2202.63,0.24980
2196.84,0.24822
2191.05,0.24597
2185.27,0.24363
2179.48,0.24040
2173.7,0.23759
2167.91,0.23405
2162.12,0.23181
2156.34,0.23022
2150.55,0.22887
2144.76,0.22703
2138.98,0.22600
2133.19,0.22544
2127.41,0.22561
2121.62,0.22703
2115.83,0.22755
2110.05,0.22842
2104.26,0.22956
2098.47,0.22994
2092.69,0.23044
2086.9,0.23053
2081.12,0.22991
2075.33,0.22851
2069.54,0.22745
2063.76,0.22626
2057.97,0.22588
2052.19,0.22566
2046.4,0.22641
2040.61,0.22804
2034.83,0.23030
2029.04,0.23322
2023.25,0.23619
2017.47,0.23872
2011.68,0.24102
2005.9,0.24281
2000.11,0.24489
1994.32,0.24601
1988.54,0.24757
1982.75,0.24888
1976.96,0.25012
1971.18,0.25107
1965.39,0.25241
1959.61,0.25390
1953.82,0.25585
1948.03,0.25828
1942.25,0.26025
1936.46,0.26194
1930.67,0.26342
1924.89,0.26375
1919.1,0.26409
1913.32,0.26429
1907.53,0.26392
1901.74,0.26335
1895.96,0.26254
1890.17,0.26177
1884.38,0.26079
1878.6,0.26049
1872.81,0.25972
1867.03,0.25835
1861.24,0.25662
1855.45,0.25505
1849.67,0.25251
1843.88,0.24947
1838.09,0.24546
1832.31,0.24086
1826.52,0.23464
1820.74,0.22691
1814.95,0.21670
1809.16,0.20511
1803.38,0.19307
1797.59,0.17887
1791.8,0.16465
1786.02,0.15070
1780.23,0.13648
1774.45,0.12254
1768.66,0.10700
1762.87,0.09325
1757.09,0.08036
1751.3,0.07167
1745.51,0.06579
1739.73,0.06338
1733.94,0.06289
1728.16,0.06318
1722.37,0.06419
1716.58,0.06700
1710.8,0.06970
1705.01,0.07244
1699.22,0.07402
1693.44,0.07284
1687.65,0.07116
1681.87,0.06818
1676.08,0.06659
1670.29,0.06519
1664.51,0.06424
1658.72,0.06418
1652.93,0.06509
1647.15,0.06522
1641.36,0.06506
1635.58,0.06557
1629.79,0.06494
1624,0.06414
1618.22,0.06319
1612.43,0.06138
1606.64,0.05944
1600.86,0.05937
1595.07,0.05972
1589.29,0.06179
1583.5,0.06669
1577.71,0.07347
1571.93,0.08222
1566.14,0.08849
1560.35,0.09346
1554.57,0.09400
1548.78,0.09379
1543,0.09247
1537.21,0.08722
1531.42,0.07990
1525.64,0.06984
1519.85,0.05709
1514.07,0.05037
1508.28,0.05129
1502.49,0.05589
1496.71,0.06206
1490.92,0.06498
1485.13,0.06435
1479.35,0.06118
1473.56,0.05555
1467.78,0.05027
1461.99,0.04869
1456.2,0.04868
1450.42,0.04861
1444.63,0.04960
1438.84,0.04841
1433.06,0.04593
1427.27,0.04571
1421.49,0.04664
1415.7,0.04924
1409.91,0.05085
1404.13,0.05098
1398.34,0.05130
1392.55,0.05000
1386.77,0.04825
1380.98,0.04614
1375.2,0.04511
1369.41,0.04579
1363.62,0.04662
1357.84,0.04779
1352.05,0.04848
1346.26,0.04846
1340.48,0.04742
1334.69,0.04671
1328.91,0.04697
1323.12,0.04645
1317.33,0.04587
1311.55,0.04667
1305.76,0.04706
1299.97,0.04707
1294.19,0.04588
1288.4,0.04413
1282.62,0.04254
1276.83,0.04199
1271.04,0.04207
1265.26,0.04309
1259.47,0.04452
1253.68,0.04529
1247.9,0.04558
1242.11,0.04594
1236.33,0.04532
1230.54,0.04550
1224.75,0.04640
1218.97,0.04680
1213.18,0.04624
1207.39,0.04641
1201.61,0.04660
1195.82,0.04708
1190.04,0.04585
1184.25,0.04325
1178.46,0.04039
1172.68,0.03847
1166.89,0.03862
1161.1,0.04110
1155.32,0.04122
1149.53,0.04091
1143.75,0.03976
1137.96,0.03841
1132.17,0.03737
1126.39,0.03618
1120.6,0.03638
1114.81,0.03748
1109.03,0.03931
1103.24,0.03997
1097.46,0.03975
1091.67,0.03922
1085.88,0.03923
1080.1,0.04018
1074.31,0.04207
1068.52,0.04549
1062.74,0.05106
1056.95,0.05539
1051.17,0.05616
1045.38,0.05472
1039.59,0.05554
1033.81,0.06020
1028.02,0.06246
1022.24,0.06333
1016.45,0.06560
1010.66,0.06693
1004.88,0.06780
999.09,0.06966
993.304,0.07193
987.518,0.07484
981.731,0.08021
975.945,0.08527
970.159,0.08695
964.373,0.08937
958.586,0.09301
952.8,0.09663
947.014,0.09935
941.228,0.10036
935.441,0.10214
929.655,0.10361
923.869,0.10498
918.083,0.10304
912.297,0.09973
906.51,0.09483
900.724,0.09029
894.938,0.08918
889.152,0.09293
883.365,0.09476
877.579,0.09523
871.793,0.09558
866.007,0.09612
860.22,0.09838
854.434,0.09994
848.648,0.10298
842.862,0.10372
837.075,0.10201
831.289,0.09836
825.503,0.09401
819.717,0.08930
813.931,0.08733
808.144,0.08720
802.358,0.08805
796.572,0.08898
790.786,0.08918
784.999,0.08608
779.213,0.08478
773.427,0.08269
767.641,0.08239
761.854,0.08157
756.068,0.07911
750.282,0.07750
744.496,0.07709
738.709,0.07528
732.923,0.07362
727.137,0.07153
721.351,0.06864
715.565,0.06841
709.778,0.06724
703.992,0.06590
698.206,0.06552
692.42,0.06545
686.633,0.06369
680.847,0.06209
675.061,0.05899
669.275,0.05815
663.488,0.05940
657.702,0.06031
651.916,0.05992
646.13,0.05853
640.343,0.05845
634.557,0.05811
628.771,0.05569
622.985,0.05514
617.198,0.05852
611.412,0.05786
605.626,0.06098
599.84,0.06252