File: 01_Data/Pressure_Treated_Deck/FTIR/IS/Deprecated/Pressure_Treated_Deck_IS_S_220926_R6.dpt
7497.03,0.77272
7491.25,0.76887
7485.46,0.76361
7479.67,0.75390
7473.89,0.76084
7468.1,0.76163
7462.32,0.75324
7456.53,0.75278
7450.74,0.75491
7444.96,0.75919
7439.17,0.75201
7433.38,0.75113
7427.6,0.75047
7421.81,0.74770
7416.03,0.74729
7410.24,0.74707
7404.45,0.74558
7398.67,0.74326
7392.88,0.72972
7387.09,0.73606
7381.31,0.74594
7375.52,0.74038
7369.74,0.73392
7363.95,0.73662
7358.16,0.73727
7352.38,0.74296
7346.59,0.73795
7340.8,0.72851
7335.02,0.73326
7329.23,0.72926
7323.45,0.73257
7317.66,0.73685
7311.87,0.73123
7306.09,0.72705
7300.3,0.73505
7294.51,0.72597
7288.73,0.72065
7282.94,0.72598
7277.16,0.72860
7271.37,0.72127
7265.58,0.72598
7259.8,0.72745
7254.01,0.72446
7248.22,0.72292
7242.44,0.71966
7236.65,0.71818
7230.87,0.72007
7225.08,0.72522
7219.29,0.72023
7213.51,0.72143
7207.72,0.72486
7201.93,0.71678
7196.15,0.71607
7190.36,0.71288
7184.58,0.71166
7178.79,0.71261
7173,0.70685
7167.22,0.70792
7161.43,0.70089
7155.65,0.70438
7149.86,0.70184
7144.07,0.70187
7138.29,0.69558
7132.5,0.69775
7126.71,0.69050
7120.93,0.68410
7115.14,0.68206
7109.36,0.67352
7103.57,0.67495
7097.78,0.67033
7092,0.66547
7086.21,0.66121
7080.42,0.65334
7074.64,0.65497
7068.85,0.65010
7063.07,0.64180
7057.28,0.64282
7051.49,0.63558
7045.71,0.62666
7039.92,0.62524
7034.13,0.61952
7028.35,0.61745
7022.56,0.61089
7016.78,0.61389
7010.99,0.60394
7005.2,0.60310
6999.42,0.59855
6993.63,0.59552
6987.84,0.59382
6982.06,0.59226
6976.27,0.58622
6970.49,0.58960
6964.7,0.58997
6958.91,0.58533
6953.13,0.58811
6947.34,0.58643
6941.55,0.58527
6935.77,0.58541
6929.98,0.57968
6924.2,0.57901
6918.41,0.58226
6912.62,0.57453
6906.84,0.58013
6901.05,0.57900
6895.26,0.57957
6889.48,0.58437
6883.69,0.57793
6877.91,0.57707
6872.12,0.58130
6866.33,0.58261
6860.55,0.57800
6854.76,0.57783
6848.97,0.57889
6843.19,0.58011
6837.4,0.57680
6831.62,0.57111
6825.83,0.57798
6820.04,0.57670
6814.26,0.57885
6808.47,0.58359
6802.68,0.58124
6796.9,0.58055
6791.11,0.57567
6785.33,0.58250
6779.54,0.57753
6773.75,0.58067
6767.97,0.57658
6762.18,0.58137
6756.39,0.58265
6750.61,0.57932
6744.82,0.58627
6739.04,0.58318
6733.25,0.58303
6727.46,0.58517
6721.68,0.58179
6715.89,0.58305
6710.1,0.58204
6704.32,0.57888
6698.53,0.57869
6692.75,0.58410
6686.96,0.58656
6681.17,0.59001
6675.39,0.58617
6669.6,0.59115
6663.82,0.59142
6658.03,0.59453
6652.24,0.58927
6646.46,0.59534
6640.67,0.59492
6634.88,0.59050
6629.1,0.59348
6623.31,0.59631
6617.53,0.59495
6611.74,0.59846
6605.95,0.59705
6600.17,0.60462
6594.38,0.60145
6588.59,0.59887
6582.81,0.60548
6577.02,0.60410
6571.24,0.60205
6565.45,0.60514
6559.66,0.60636
6553.88,0.60437
6548.09,0.60578
6542.3,0.60426
6536.52,0.60887
6530.73,0.60724
6524.95,0.60693
6519.16,0.60879
6513.37,0.61139
6507.59,0.60819
6501.8,0.60771
6496.01,0.61386
6490.23,0.61208
6484.44,0.60978
6478.66,0.60922
6472.87,0.60799
6467.08,0.60817
6461.3,0.61092
6455.51,0.61532
6449.72,0.61413
6443.94,0.61444
6438.15,0.61488
6432.37,0.61145
6426.58,0.61460
6420.79,0.61657
6415.01,0.61386
6409.22,0.62064
6403.43,0.61282
6397.65,0.61574
6391.86,0.61694
6386.08,0.61888
6380.29,0.62015
6374.5,0.62023
6368.72,0.61714
6362.93,0.61973
6357.14,0.62244
6351.36,0.62481
6345.57,0.61896
6339.79,0.62173
6334,0.62307
6328.21,0.62418
6322.43,0.61907
6316.64,0.62607
6310.85,0.62395
6305.07,0.62299
6299.28,0.62240
6293.5,0.62694
6287.71,0.62749
6281.92,0.62748
6276.14,0.62881
6270.35,0.63043
6264.56,0.63269
6258.78,0.63144
6252.99,0.63617
6247.21,0.63868
6241.42,0.63943
6235.63,0.64202
6229.85,0.64085
6224.06,0.64436
6218.27,0.64534
6212.49,0.64729
6206.7,0.65003
6200.92,0.65137
6195.13,0.65284
6189.34,0.65448
6183.56,0.65252
6177.77,0.65666
6171.98,0.65772
6166.2,0.65971
6160.41,0.65910
6154.63,0.65936
6148.84,0.66284
6143.05,0.66392
6137.27,0.66310
6131.48,0.66545
6125.7,0.66280
6119.91,0.66294
6114.12,0.66646
6108.34,0.66863
6102.55,0.66724
6096.76,0.66749
6090.98,0.67027
6085.19,0.66887
6079.41,0.66397
6073.62,0.66400
6067.83,0.66628
6062.05,0.67064
6056.26,0.66767
6050.47,0.66526
6044.69,0.66189
6038.9,0.66410
6033.12,0.65898
6027.33,0.65894
6021.54,0.65525
6015.76,0.65621
6009.97,0.65236
6004.18,0.65109
5998.4,0.64935
5992.61,0.64907
5986.83,0.64717
5981.04,0.64904
5975.25,0.64457
5969.47,0.64733
5963.68,0.65007
5957.89,0.64805
5952.11,0.64801
5946.32,0.65026
5940.54,0.64973
5934.75,0.65250
5928.96,0.65080
5923.18,0.64916
5917.39,0.64737
5911.6,0.64661
5905.82,0.64525
5900.03,0.64446
5894.25,0.64525
5888.46,0.64355
5882.67,0.64195
5876.89,0.64366
5871.1,0.64023
5865.31,0.64241
5859.53,0.64329
5853.74,0.64250
5847.96,0.64022
5842.17,0.63966
5836.38,0.64136
5830.6,0.64052
5824.81,0.63715
5819.02,0.63770
5813.24,0.63548
5807.45,0.63519
5801.67,0.63421
5795.88,0.63321
5790.09,0.63618
5784.31,0.63406
5778.52,0.63558
5772.73,0.63691
5766.95,0.63883
5761.16,0.63833
5755.38,0.63810
5749.59,0.64034
5743.8,0.63889
5738.02,0.63946
5732.23,0.63952
5726.44,0.63802
5720.66,0.64002
5714.87,0.64012
5709.09,0.63936
5703.3,0.64044
5697.51,0.63776
5691.73,0.63886
5685.94,0.63771
5680.15,0.63832
5674.37,0.63809
5668.58,0.63715
5662.8,0.63654
5657.01,0.63509
5651.22,0.63748
5645.44,0.63693
5639.65,0.63741
5633.87,0.63733
5628.08,0.63634
5622.29,0.63550
5616.51,0.63687
5610.72,0.63569
5604.93,0.63577
5599.15,0.63805
5593.36,0.63588
5587.58,0.63889
5581.79,0.63809
5576,0.63730
5570.22,0.63666
5564.43,0.63822
5558.64,0.64062
5552.86,0.63880
5547.07,0.63984
5541.29,0.64080
5535.5,0.64183
5529.71,0.64196
5523.93,0.64250
5518.14,0.64384
5512.35,0.64306
5506.57,0.64204
5500.78,0.64404
5495,0.64224
5489.21,0.64346
5483.42,0.64518
5477.64,0.64510
5471.85,0.64657
5466.06,0.64575
5460.28,0.64818
5454.49,0.64802
5448.71,0.64949
5442.92,0.64985
5437.13,0.65078
5431.35,0.65188
5425.56,0.65371
5419.77,0.65474
5413.99,0.65545
5408.2,0.65474
5402.42,0.65719
5396.63,0.65750
5390.84,0.65902
5385.06,0.65764
5379.27,0.65793
5373.48,0.65794
5367.7,0.65838
5361.91,0.65826
5356.13,0.65869
5350.34,0.65646
5344.55,0.65498
5338.77,0.65513
5332.98,0.65202
5327.19,0.65083
5321.41,0.64796
5315.62,0.64340
5309.84,0.63789
5304.05,0.63284
5298.26,0.62624
5292.48,0.62004
5286.69,0.61249
5280.9,0.60118
5275.12,0.58946
5269.33,0.57801
5263.55,0.56733
5257.76,0.55580
5251.97,0.54574
5246.19,0.53497
5240.4,0.52799
5234.61,0.52084
5228.83,0.51487
5223.04,0.51100
5217.26,0.50676
5211.47,0.50437
5205.68,0.50264
5199.9,0.50105
5194.11,0.50110
5188.32,0.50178
5182.54,0.50327
5176.75,0.50372
5170.97,0.50478
5165.18,0.50727
5159.39,0.50787
5153.61,0.51138
5147.82,0.51465
5142.03,0.51879
5136.25,0.52244
5130.46,0.52413
5124.68,0.52756
5118.89,0.53101
5113.1,0.53434
5107.32,0.53659
5101.53,0.53980
5095.75,0.54189
5089.96,0.54647
5084.17,0.54871
5078.39,0.55154
5072.6,0.55350
5066.81,0.55528
5061.03,0.55995
5055.24,0.56190
5049.46,0.56321
5043.67,0.56517
5037.88,0.56803
5032.1,0.56885
5026.31,0.57050
5020.52,0.57176
5014.74,0.57394
5008.95,0.57324
5003.17,0.57272
4997.38,0.57215
4991.59,0.57197
4985.81,0.57098
4980.02,0.56850
4974.23,0.56643
4968.45,0.56394
4962.66,0.56123
4956.88,0.55802
4951.09,0.55219
4945.3,0.54782
4939.52,0.54352
4933.73,0.53821
4927.94,0.53358
4922.16,0.52748
4916.37,0.52286
4910.59,0.51672
4904.8,0.51255
4899.01,0.50606
4893.23,0.50203
4887.44,0.49633
4881.65,0.49218
4875.87,0.48720
4870.08,0.48116
4864.3,0.47803
4858.51,0.47380
4852.72,0.46971
4846.94,0.46587
4841.15,0.46360
4835.36,0.45947
4829.58,0.45687
4823.79,0.45316
4818.01,0.45107
4812.22,0.44798
4806.43,0.44509
4800.65,0.44477
4794.86,0.44164
4789.07,0.44075
4783.29,0.44035
4777.5,0.43828
4771.72,0.43696
4765.93,0.43783
4760.14,0.43759
4754.36,0.43665
4748.57,0.43667
4742.78,0.43583
4737,0.43609
4731.21,0.43701
4725.43,0.43819
4719.64,0.43902
4713.85,0.43941
4708.07,0.43948
4702.28,0.44126
4696.49,0.44193
4690.71,0.44240
4684.92,0.44330
4679.14,0.44458
4673.35,0.44516
4667.56,0.44728
4661.78,0.44897
4655.99,0.45045
4650.2,0.45391
4644.42,0.45573
4638.63,0.45812
4632.85,0.46018
4627.06,0.46294
4621.27,0.46523
4615.49,0.46898
4609.7,0.47121
4603.92,0.47382
4598.13,0.47614
4592.34,0.47890
4586.56,0.48063
4580.77,0.48388
4574.98,0.48515
4569.2,0.48647
4563.41,0.48835
4557.63,0.49078
4551.84,0.49130
4546.05,0.49178
4540.27,0.49248
4534.48,0.49401
4528.69,0.49472
4522.91,0.49504
4517.12,0.49562
4511.34,0.49562
4505.55,0.49400
4499.76,0.49339
4493.98,0.48974
4488.19,0.48706
4482.4,0.48278
4476.62,0.47797
4470.83,0.47203
4465.05,0.46549
4459.26,0.45865
4453.47,0.45092
4447.69,0.44532
4441.9,0.43877
4436.11,0.43164
4430.33,0.42466
4424.54,0.41711
4418.76,0.41070
4412.97,0.40521
4407.18,0.40064
4401.4,0.39833
4395.61,0.39715
4389.82,0.39864
4384.04,0.40039
4378.25,0.40224
4372.47,0.40356
4366.68,0.40610
4360.89,0.40734
4355.11,0.40780
4349.32,0.40715
4343.53,0.40719
4337.75,0.40530
4331.96,0.40453
4326.18,0.40203
4320.39,0.40038
4314.6,0.39841
4308.82,0.39542
4303.03,0.39274
4297.24,0.39043
4291.46,0.38890
4285.67,0.38786
4279.89,0.38704
4274.1,0.38632
4268.31,0.38780
4262.53,0.38856
4256.74,0.39008
4250.95,0.39072
4245.17,0.39147
4239.38,0.39248
4233.6,0.39302
4227.81,0.39358
4222.02,0.39395
4216.24,0.39337
4210.45,0.39397
4204.66,0.39421
4198.88,0.39492
4193.09,0.39495
4187.31,0.39570
4181.52,0.39691
4175.73,0.39836
4169.95,0.39946
4164.16,0.39999
4158.37,0.40062
4152.59,0.39981
4146.8,0.39842
4141.02,0.39652
4135.23,0.39380
4129.44,0.39059
4123.66,0.38707
4117.87,0.38274
4112.09,0.37826
4106.3,0.37337
4100.51,0.36894
4094.73,0.36373
4088.94,0.35884
4083.15,0.35299
4077.37,0.34834
4071.58,0.34227
4065.8,0.33642
4060.01,0.33122
4054.22,0.32584
4048.44,0.32149
4042.65,0.31740
4036.86,0.31281
4031.08,0.30973
4025.29,0.30713
4019.51,0.30633
4013.72,0.30495
4007.93,0.30487
4002.15,0.30595
3996.36,0.30621
3990.57,0.30778
3984.79,0.30974
3979,0.31058
3973.22,0.31237
3967.43,0.31487
3961.64,0.31661
3955.86,0.31952
3950.07,0.32215
3944.28,0.32445
3938.5,0.32711
3932.71,0.33036
3926.93,0.33318
3921.14,0.33623
3915.35,0.33826
3909.57,0.34053
3903.78,0.34414
3897.99,0.34512
3892.21,0.34770
3886.42,0.35053
3880.64,0.35265
3874.85,0.35389
3869.06,0.35627
3863.28,0.35969
3857.49,0.36275
3851.7,0.36514
3845.92,0.36677
3840.13,0.37008
3834.35,0.37084
3828.56,0.37151
3822.77,0.37213
3816.99,0.37187
3811.2,0.37177
3805.41,0.37219
3799.63,0.37159
3793.84,0.37106
3788.06,0.37062
3782.27,0.37018
3776.48,0.36926
3770.7,0.36844
3764.91,0.36603
3759.12,0.36551
3753.34,0.36266
3747.55,0.36028
3741.77,0.35712
3735.98,0.35386
3730.19,0.34917
3724.41,0.34424
3718.62,0.33893
3712.83,0.33210
3707.05,0.32348
3701.26,0.31451
3695.48,0.30399
3689.69,0.29036
3683.9,0.27306
3678.12,0.25690
3672.33,0.23533
3666.54,0.21510
3660.76,0.19658
3654.97,0.17944
3649.19,0.16402
3643.4,0.14983
3637.61,0.13848
3631.83,0.12888
3626.04,0.11887
3620.25,0.11129
3614.47,0.10372
3608.68,0.09640
3602.9,0.09089
3597.11,0.08565
3591.32,0.07978
3585.54,0.07490
3579.75,0.07133
3573.97,0.06801
3568.18,0.06459
3562.39,0.06204
3556.61,0.05955
3550.82,0.05710
3545.03,0.05588
3539.25,0.05355
3533.46,0.05265
3527.68,0.05121
3521.89,0.04967
3516.1,0.04848
3510.32,0.04678
3504.53,0.04639
3498.74,0.04598
3492.96,0.04498
3487.17,0.04377
3481.39,0.04354
3475.6,0.04330
3469.81,0.04247
3464.03,0.04241
3458.24,0.04187
3452.45,0.04125
3446.67,0.04107
3440.88,0.04106
3435.1,0.04025
3429.31,0.04068
3423.52,0.04080
3417.74,0.04064
3411.95,0.04020
3406.16,0.04083
3400.38,0.04080
3394.59,0.04115
3388.81,0.04120
3383.02,0.04064
3377.23,0.04095
3371.45,0.04159
3365.66,0.04140
3359.87,0.04179
3354.09,0.04268
3348.3,0.04213
3342.52,0.04262
3336.73,0.04323
3330.94,0.04448
3325.16,0.04484
3319.37,0.04549
3313.58,0.04591
3307.8,0.04643
3302.01,0.04591
3296.23,0.04731
3290.44,0.04778
3284.65,0.04856
3278.87,0.04910
3273.08,0.05083
3267.29,0.05160
3261.51,0.05220
3255.72,0.05281
3249.94,0.05466
3244.15,0.05522
3238.36,0.05680
3232.58,0.05766
3226.79,0.05884
3221,0.06019
3215.22,0.06143
3209.43,0.06273
3203.65,0.06450
3197.86,0.06635
3192.07,0.06676
3186.29,0.06787
3180.5,0.07015
3174.71,0.07199
3168.93,0.07262
3163.14,0.07439
3157.36,0.07601
3151.57,0.07746
3145.78,0.07898
3140,0.08058
3134.21,0.08192
3128.42,0.08385
3122.64,0.08574
3116.85,0.08711
3111.07,0.08856
3105.28,0.09023
3099.49,0.09170
3093.71,0.09294
3087.92,0.09450
3082.14,0.09541
3076.35,0.09697
3070.56,0.09802
3064.78,0.09972
3058.99,0.10120
3053.2,0.10294
3047.42,0.10430
3041.63,0.10543
3035.85,0.10611
3030.06,0.10677
3024.27,0.10720
3018.49,0.10632
3012.7,0.10455
3006.91,0.10276
3001.13,0.10041
2995.34,0.09918
2989.56,0.09642
2983.77,0.09203
2977.98,0.08663
2972.2,0.08091
2966.41,0.07687
2960.62,0.07492
2954.84,0.07180
2949.05,0.06878
2943.27,0.06628
2937.48,0.06521
2931.69,0.06526
2925.91,0.06475
2920.12,0.06443
2914.33,0.06507
2908.55,0.06520
2902.76,0.06540
2896.98,0.06636
2891.19,0.06742
2885.4,0.06920
2879.62,0.06996
2873.83,0.07061
2868.04,0.07246
2862.26,0.07505
2856.47,0.07677
2850.69,0.07960
2844.9,0.08426
2839.11,0.09023
2833.33,0.09503
2827.54,0.10094
2821.75,0.10586
2815.97,0.11091
2810.18,0.11496
2804.4,0.11825
2798.61,0.12197
2792.82,0.12418
2787.04,0.12620
2781.25,0.12824
2775.46,0.12932
2769.68,0.13030
2763.89,0.13107
2758.11,0.13220
2752.32,0.13266
2746.53,0.13303
2740.75,0.13348
2734.96,0.13399
2729.17,0.13546
2723.39,0.13652
2717.6,0.13828
2711.82,0.14029
2706.03,0.14261
2700.24,0.14447
2694.46,0.14684
2688.67,0.14856
2682.88,0.15064
2677.1,0.15190
2671.31,0.15325
2665.53,0.15452
2659.74,0.15567
2653.95,0.15646
2648.17,0.15770
2642.38,0.15924
2636.59,0.16079
2630.81,0.16252
2625.02,0.16428
2619.24,0.16613
2613.45,0.16706
2607.66,0.16861
2601.88,0.16998
2596.09,0.17148
2590.3,0.17293
2584.52,0.17393
2578.73,0.17530
2572.95,0.17594
2567.16,0.17643
2561.37,0.17755
2555.59,0.17742
2549.8,0.17808
2544.02,0.17848
2538.23,0.17938
2532.44,0.18056
2526.66,0.18236
2520.87,0.18364
2515.08,0.18519
2509.3,0.18721
2503.51,0.19006
2497.73,0.19199
2491.94,0.19465
2486.15,0.19710
2480.37,0.19919
2474.58,0.20132
2468.79,0.20367
2463.01,0.20531
2457.22,0.20766
2451.44,0.20942
2445.65,0.21205
2439.86,0.21465
2434.08,0.21717
2428.29,0.21952
2422.5,0.22258
2416.72,0.22572
2410.93,0.22780
2405.15,0.23076
2399.36,0.23326
2393.57,0.23533
2387.79,0.23785
2382,0.24027
2376.21,0.24269
2370.43,0.24539
2364.64,0.24757
2358.86,0.24929
2353.07,0.24998
2347.28,0.25199
2341.5,0.25396
2335.71,0.25439
2329.92,0.25552
2324.14,0.25638
2318.35,0.25700
2312.57,0.25728
2306.78,0.25776
2300.99,0.25765
2295.21,0.25736
2289.42,0.25726
2283.63,0.25713
2277.85,0.25730
2272.06,0.25653
2266.28,0.25515
2260.49,0.25369
2254.7,0.25255
2248.92,0.25217
2243.13,0.25126
2237.34,0.25079
2231.56,0.25027
2225.77,0.24999
2219.99,0.25009
2214.2,0.24979
2208.41,0.24972
2202.63,0.24831
2196.84,0.24636
2191.05,0.24453
2185.27,0.24163
2179.48,0.23879
2173.7,0.23585
2167.91,0.23273
2162.12,0.23066
2156.34,0.22846
2150.55,0.22722
2144.76,0.22580
2138.98,0.22469
2133.19,0.22399
2127.41,0.22450
2121.62,0.22537
2115.83,0.22603
2110.05,0.22686
2104.26,0.22797
2098.47,0.22857
2092.69,0.22882
2086.9,0.22898
2081.12,0.22832
2075.33,0.22707
2069.54,0.22579
2063.76,0.22467
2057.97,0.22413
2052.19,0.22440
2046.4,0.22508
2040.61,0.22688
2034.83,0.22885
2029.04,0.23118
2023.25,0.23420
2017.47,0.23668
2011.68,0.23958
2005.9,0.24109
2000.11,0.24252
1994.32,0.24431
1988.54,0.24588
1982.75,0.24750
1976.96,0.24850
1971.18,0.24964
1965.39,0.25110
1959.61,0.25233
1953.82,0.25438
1948.03,0.25644
1942.25,0.25855
1936.46,0.26024
1930.67,0.26141
1924.89,0.26219
1919.1,0.26283
1913.32,0.26248
1907.53,0.26250
1901.74,0.26192
1895.96,0.26098
1890.17,0.26033
1884.38,0.25947
1878.6,0.25871
1872.81,0.25790
1867.03,0.25687
1861.24,0.25522
1855.45,0.25378
1849.67,0.25109
1843.88,0.24774
1838.09,0.24410
1832.31,0.23985
1826.52,0.23411
1820.74,0.22556
1814.95,0.21585
1809.16,0.20438
1803.38,0.19170
1797.59,0.17811
1791.8,0.16400
1786.02,0.15021
1780.23,0.13609
1774.45,0.12256
1768.66,0.10745
1762.87,0.09324
1757.09,0.08068
1751.3,0.07148
1745.51,0.06580
1739.73,0.06274
1733.94,0.06242
1728.16,0.06250
1722.37,0.06398
1716.58,0.06665
1710.8,0.06982
1705.01,0.07271
1699.22,0.07375
1693.44,0.07209
1687.65,0.07067
1681.87,0.06803
1676.08,0.06618
1670.29,0.06441
1664.51,0.06377
1658.72,0.06370
1652.93,0.06456
1647.15,0.06481
1641.36,0.06487
1635.58,0.06497
1629.79,0.06415
1624,0.06379
1618.22,0.06248
1612.43,0.06060
1606.64,0.05928
1600.86,0.05879
1595.07,0.05962
1589.29,0.06171
1583.5,0.06643
1577.71,0.07350
1571.93,0.08173
1566.14,0.08824
1560.35,0.09278
1554.57,0.09354
1548.78,0.09317
1543,0.09179
1537.21,0.08701
1531.42,0.07964
1525.64,0.06939
1519.85,0.05689
1514.07,0.05011
1508.28,0.05134
1502.49,0.05612
1496.71,0.06233
1490.92,0.06514
1485.13,0.06447
1479.35,0.06102
1473.56,0.05529
1467.78,0.04992
1461.99,0.04882
1456.2,0.04907
1450.42,0.04828
1444.63,0.04958
1438.84,0.04830
1433.06,0.04599
1427.27,0.04564
1421.49,0.04745
1415.7,0.04939
1409.91,0.05094
1404.13,0.05134
1398.34,0.05150
1392.55,0.05003
1386.77,0.04811
1380.98,0.04627
1375.2,0.04539
1369.41,0.04540
1363.62,0.04711
1357.84,0.04789
1352.05,0.04853
1346.26,0.04822
1340.48,0.04769
1334.69,0.04698
1328.91,0.04676
1323.12,0.04576
1317.33,0.04582
1311.55,0.04662
1305.76,0.04698
1299.97,0.04697
1294.19,0.04543
1288.4,0.04323
1282.62,0.04230
1276.83,0.04178
1271.04,0.04254
1265.26,0.04367
1259.47,0.04470
1253.68,0.04543
1247.9,0.04594
1242.11,0.04552
1236.33,0.04536
1230.54,0.04539
1224.75,0.04638
1218.97,0.04662
1213.18,0.04666
1207.39,0.04686
1201.61,0.04694
1195.82,0.04676
1190.04,0.04570
1184.25,0.04359
1178.46,0.04050
1172.68,0.03851
1166.89,0.03877
1161.1,0.04072
1155.32,0.04119
1149.53,0.04041
1143.75,0.03968
1137.96,0.03831
1132.17,0.03688
1126.39,0.03665
1120.6,0.03724
1114.81,0.03730
1109.03,0.03828
1103.24,0.03980
1097.46,0.03912
1091.67,0.03967
1085.88,0.03931
1080.1,0.04047
1074.31,0.04284
1068.52,0.04612
1062.74,0.05192
1056.95,0.05593
1051.17,0.05615
1045.38,0.05486
1039.59,0.05596
1033.81,0.05976
1028.02,0.06200
1022.24,0.06314
1016.45,0.06565
1010.66,0.06723
1004.88,0.06775
999.09,0.06960
993.304,0.07179
987.518,0.07517
981.731,0.08008
975.945,0.08453
970.159,0.08662
964.373,0.08932
958.586,0.09353
952.8,0.09648
947.014,0.09903
941.228,0.10034
935.441,0.10190
929.655,0.10414
923.869,0.10357
918.083,0.10249
912.297,0.09932
906.51,0.09426
900.724,0.08945
894.938,0.08936
889.152,0.09211
883.365,0.09400
877.579,0.09404
871.793,0.09519
866.007,0.09679
860.22,0.09763
854.434,0.10001
848.648,0.10242
842.862,0.10337
837.075,0.10152
831.289,0.09800
825.503,0.09334
819.717,0.08863
813.931,0.08731
808.144,0.08637
802.358,0.08756
796.572,0.08820
790.786,0.08812
784.999,0.08557
779.213,0.08416
773.427,0.08298
767.641,0.08158
761.854,0.08061
756.068,0.07913
750.282,0.07840
744.496,0.07648
738.709,0.07466
732.923,0.07266
727.137,0.07012
721.351,0.06885
715.565,0.06706
709.778,0.06669
703.992,0.06577
698.206,0.06520
692.42,0.06471
686.633,0.06256
680.847,0.06118
675.061,0.05907
669.275,0.05784
663.488,0.05932
657.702,0.06042
651.916,0.06033
646.13,0.05970
640.343,0.06016
634.557,0.05752
628.771,0.05622
622.985,0.05565
617.198,0.05738
611.412,0.05814
605.626,0.05983
599.84,0.05962