File: 01_Data/Pressure_Treated_Deck/FTIR/IS/Deprecated/Pressure_Treated_Deck_IS_S_220926_R5.dpt
7497.03,0.76608
7491.25,0.77344
7485.46,0.76364
7479.67,0.74795
7473.89,0.75592
7468.1,0.75529
7462.32,0.75146
7456.53,0.74119
7450.74,0.75334
7444.96,0.75622
7439.17,0.75333
7433.38,0.75446
7427.6,0.74963
7421.81,0.74443
7416.03,0.73799
7410.24,0.74150
7404.45,0.74014
7398.67,0.73803
7392.88,0.74819
7387.09,0.74054
7381.31,0.73180
7375.52,0.74302
7369.74,0.73841
7363.95,0.73149
7358.16,0.73278
7352.38,0.74128
7346.59,0.72619
7340.8,0.72076
7335.02,0.73550
7329.23,0.73563
7323.45,0.72294
7317.66,0.72274
7311.87,0.72604
7306.09,0.72129
7300.3,0.72368
7294.51,0.72765
7288.73,0.72583
7282.94,0.72364
7277.16,0.72088
7271.37,0.71657
7265.58,0.72065
7259.8,0.73149
7254.01,0.72144
7248.22,0.71534
7242.44,0.72074
7236.65,0.72097
7230.87,0.70829
7225.08,0.71435
7219.29,0.71702
7213.51,0.71605
7207.72,0.72242
7201.93,0.71356
7196.15,0.71453
7190.36,0.71228
7184.58,0.71044
7178.79,0.70798
7173,0.70998
7167.22,0.70635
7161.43,0.70293
7155.65,0.69475
7149.86,0.70219
7144.07,0.69612
7138.29,0.70153
7132.5,0.69297
7126.71,0.69348
7120.93,0.67844
7115.14,0.67974
7109.36,0.68126
7103.57,0.67445
7097.78,0.66942
7092,0.66733
7086.21,0.66114
7080.42,0.65269
7074.64,0.64964
7068.85,0.64548
7063.07,0.64065
7057.28,0.63659
7051.49,0.63506
7045.71,0.63200
7039.92,0.62310
7034.13,0.61645
7028.35,0.62094
7022.56,0.61014
7016.78,0.60502
7010.99,0.60480
7005.2,0.60335
6999.42,0.59684
6993.63,0.59737
6987.84,0.59184
6982.06,0.59223
6976.27,0.58851
6970.49,0.58275
6964.7,0.58772
6958.91,0.58981
6953.13,0.58267
6947.34,0.58642
6941.55,0.58488
6935.77,0.57963
6929.98,0.58255
6924.2,0.58444
6918.41,0.57860
6912.62,0.57846
6906.84,0.57636
6901.05,0.57842
6895.26,0.57736
6889.48,0.57741
6883.69,0.57653
6877.91,0.58028
6872.12,0.57759
6866.33,0.58110
6860.55,0.57659
6854.76,0.57458
6848.97,0.57740
6843.19,0.57732
6837.4,0.57827
6831.62,0.57933
6825.83,0.57750
6820.04,0.57513
6814.26,0.57773
6808.47,0.57834
6802.68,0.57327
6796.9,0.57462
6791.11,0.57775
6785.33,0.57639
6779.54,0.58227
6773.75,0.58216
6767.97,0.57806
6762.18,0.57876
6756.39,0.57680
6750.61,0.57956
6744.82,0.57875
6739.04,0.58201
6733.25,0.58720
6727.46,0.58372
6721.68,0.58285
6715.89,0.58224
6710.1,0.58466
6704.32,0.58519
6698.53,0.58385
6692.75,0.58345
6686.96,0.58943
6681.17,0.58634
6675.39,0.58508
6669.6,0.58717
6663.82,0.59247
6658.03,0.59071
6652.24,0.58848
6646.46,0.58613
6640.67,0.59551
6634.88,0.59591
6629.1,0.59441
6623.31,0.59975
6617.53,0.59665
6611.74,0.59616
6605.95,0.60181
6600.17,0.59792
6594.38,0.59645
6588.59,0.59921
6582.81,0.60441
6577.02,0.60409
6571.24,0.59906
6565.45,0.60420
6559.66,0.60637
6553.88,0.60019
6548.09,0.60117
6542.3,0.60608
6536.52,0.60619
6530.73,0.60843
6524.95,0.60831
6519.16,0.60787
6513.37,0.60802
6507.59,0.60782
6501.8,0.60918
6496.01,0.60896
6490.23,0.60974
6484.44,0.60479
6478.66,0.61179
6472.87,0.61243
6467.08,0.61201
6461.3,0.61145
6455.51,0.61308
6449.72,0.60894
6443.94,0.61249
6438.15,0.61364
6432.37,0.61237
6426.58,0.61233
6420.79,0.61423
6415.01,0.61376
6409.22,0.61360
6403.43,0.61306
6397.65,0.61472
6391.86,0.61421
6386.08,0.61497
6380.29,0.61791
6374.5,0.61940
6368.72,0.61961
6362.93,0.62014
6357.14,0.62005
6351.36,0.61957
6345.57,0.61866
6339.79,0.62340
6334,0.62131
6328.21,0.62313
6322.43,0.62161
6316.64,0.62024
6310.85,0.61993
6305.07,0.62485
6299.28,0.62070
6293.5,0.62803
6287.71,0.62706
6281.92,0.62851
6276.14,0.62531
6270.35,0.62957
6264.56,0.62995
6258.78,0.63279
6252.99,0.63406
6247.21,0.63743
6241.42,0.63855
6235.63,0.63734
6229.85,0.63867
6224.06,0.64295
6218.27,0.64575
6212.49,0.64427
6206.7,0.64640
6200.92,0.65010
6195.13,0.64884
6189.34,0.65094
6183.56,0.65273
6177.77,0.65615
6171.98,0.65666
6166.2,0.65748
6160.41,0.66242
6154.63,0.65935
6148.84,0.65971
6143.05,0.66225
6137.27,0.66246
6131.48,0.66359
6125.7,0.66898
6119.91,0.66211
6114.12,0.66490
6108.34,0.66647
6102.55,0.66974
6096.76,0.66605
6090.98,0.67081
6085.19,0.66400
6079.41,0.66439
6073.62,0.66564
6067.83,0.66834
6062.05,0.66597
6056.26,0.66468
6050.47,0.66290
6044.69,0.66284
6038.9,0.66198
6033.12,0.65919
6027.33,0.65719
6021.54,0.65570
6015.76,0.65567
6009.97,0.65418
6004.18,0.65094
5998.4,0.65140
5992.61,0.64912
5986.83,0.64535
5981.04,0.65024
5975.25,0.64851
5969.47,0.64622
5963.68,0.64634
5957.89,0.64520
5952.11,0.64386
5946.32,0.65142
5940.54,0.65041
5934.75,0.64792
5928.96,0.64650
5923.18,0.64637
5917.39,0.64476
5911.6,0.64416
5905.82,0.64396
5900.03,0.64161
5894.25,0.64288
5888.46,0.64177
5882.67,0.64153
5876.89,0.64120
5871.1,0.63987
5865.31,0.63846
5859.53,0.63834
5853.74,0.63791
5847.96,0.63859
5842.17,0.63905
5836.38,0.64139
5830.6,0.63992
5824.81,0.63725
5819.02,0.63668
5813.24,0.63422
5807.45,0.63310
5801.67,0.63533
5795.88,0.63230
5790.09,0.63402
5784.31,0.63518
5778.52,0.63566
5772.73,0.63502
5766.95,0.63702
5761.16,0.63735
5755.38,0.63876
5749.59,0.63711
5743.8,0.63841
5738.02,0.63832
5732.23,0.63735
5726.44,0.63810
5720.66,0.63587
5714.87,0.63586
5709.09,0.63898
5703.3,0.63822
5697.51,0.63686
5691.73,0.63630
5685.94,0.63954
5680.15,0.63767
5674.37,0.63533
5668.58,0.63428
5662.8,0.63543
5657.01,0.63763
5651.22,0.63487
5645.44,0.63506
5639.65,0.63649
5633.87,0.63720
5628.08,0.63685
5622.29,0.63816
5616.51,0.63724
5610.72,0.63862
5604.93,0.63763
5599.15,0.63809
5593.36,0.63662
5587.58,0.63608
5581.79,0.63418
5576,0.63585
5570.22,0.63731
5564.43,0.63789
5558.64,0.63658
5552.86,0.63868
5547.07,0.64040
5541.29,0.64091
5535.5,0.64029
5529.71,0.64122
5523.93,0.64193
5518.14,0.64540
5512.35,0.64138
5506.57,0.64493
5500.78,0.64286
5495,0.64347
5489.21,0.64398
5483.42,0.64416
5477.64,0.64434
5471.85,0.64350
5466.06,0.64523
5460.28,0.64638
5454.49,0.64783
5448.71,0.64915
5442.92,0.64879
5437.13,0.65024
5431.35,0.65191
5425.56,0.65236
5419.77,0.65367
5413.99,0.65637
5408.2,0.65720
5402.42,0.65654
5396.63,0.65751
5390.84,0.65645
5385.06,0.65746
5379.27,0.65717
5373.48,0.65709
5367.7,0.65600
5361.91,0.65706
5356.13,0.65676
5350.34,0.65553
5344.55,0.65613
5338.77,0.65432
5332.98,0.65215
5327.19,0.64758
5321.41,0.64674
5315.62,0.64203
5309.84,0.63669
5304.05,0.63156
5298.26,0.62511
5292.48,0.61641
5286.69,0.61031
5280.9,0.59898
5275.12,0.58800
5269.33,0.57592
5263.55,0.56575
5257.76,0.55494
5251.97,0.54466
5246.19,0.53540
5240.4,0.52647
5234.61,0.51875
5228.83,0.51294
5223.04,0.50709
5217.26,0.50318
5211.47,0.50213
5205.68,0.49848
5199.9,0.49811
5194.11,0.49671
5188.32,0.49700
5182.54,0.49869
5176.75,0.50032
5170.97,0.50210
5165.18,0.50365
5159.39,0.50604
5153.61,0.50934
5147.82,0.51138
5142.03,0.51619
5136.25,0.51911
5130.46,0.52193
5124.68,0.52563
5118.89,0.52843
5113.1,0.53180
5107.32,0.53526
5101.53,0.53685
5095.75,0.53952
5089.96,0.54277
5084.17,0.54556
5078.39,0.54869
5072.6,0.55031
5066.81,0.55334
5061.03,0.55685
5055.24,0.55938
5049.46,0.56095
5043.67,0.56240
5037.88,0.56471
5032.1,0.56635
5026.31,0.56913
5020.52,0.56977
5014.74,0.56972
5008.95,0.57131
5003.17,0.57221
4997.38,0.57132
4991.59,0.57091
4985.81,0.56873
4980.02,0.56768
4974.23,0.56471
4968.45,0.56304
4962.66,0.55920
4956.88,0.55735
4951.09,0.55164
4945.3,0.54696
4939.52,0.54272
4933.73,0.53913
4927.94,0.53171
4922.16,0.52629
4916.37,0.52158
4910.59,0.51582
4904.8,0.51071
4899.01,0.50652
4893.23,0.50156
4887.44,0.49544
4881.65,0.49078
4875.87,0.48689
4870.08,0.48157
4864.3,0.47770
4858.51,0.47377
4852.72,0.47013
4846.94,0.46585
4841.15,0.46231
4835.36,0.45917
4829.58,0.45587
4823.79,0.45330
4818.01,0.44948
4812.22,0.44709
4806.43,0.44432
4800.65,0.44351
4794.86,0.44234
4789.07,0.44176
4783.29,0.43975
4777.5,0.43898
4771.72,0.43862
4765.93,0.43765
4760.14,0.43663
4754.36,0.43575
4748.57,0.43666
4742.78,0.43633
4737,0.43658
4731.21,0.43730
4725.43,0.43687
4719.64,0.43748
4713.85,0.43813
4708.07,0.44021
4702.28,0.43918
4696.49,0.44116
4690.71,0.44152
4684.92,0.44322
4679.14,0.44401
4673.35,0.44537
4667.56,0.44789
4661.78,0.44891
4655.99,0.45135
4650.2,0.45313
4644.42,0.45505
4638.63,0.45739
4632.85,0.45949
4627.06,0.46200
4621.27,0.46529
4615.49,0.46762
4609.7,0.47055
4603.92,0.47266
4598.13,0.47551
4592.34,0.47836
4586.56,0.48095
4580.77,0.48265
4574.98,0.48486
4569.2,0.48638
4563.41,0.48782
4557.63,0.48915
4551.84,0.48997
4546.05,0.49086
4540.27,0.49261
4534.48,0.49301
4528.69,0.49386
4522.91,0.49532
4517.12,0.49520
4511.34,0.49413
4505.55,0.49391
4499.76,0.49252
4493.98,0.48991
4488.19,0.48556
4482.4,0.48227
4476.62,0.47711
4470.83,0.47125
4465.05,0.46411
4459.26,0.45894
4453.47,0.45195
4447.69,0.44549
4441.9,0.43835
4436.11,0.43147
4430.33,0.42459
4424.54,0.41732
4418.76,0.41077
4412.97,0.40535
4407.18,0.40092
4401.4,0.39839
4395.61,0.39750
4389.82,0.39745
4384.04,0.39859
4378.25,0.40101
4372.47,0.40369
4366.68,0.40527
4360.89,0.40723
4355.11,0.40754
4349.32,0.40743
4343.53,0.40708
4337.75,0.40601
4331.96,0.40415
4326.18,0.40231
4320.39,0.40044
4314.6,0.39795
4308.82,0.39501
4303.03,0.39324
4297.24,0.39071
4291.46,0.38840
4285.67,0.38733
4279.89,0.38603
4274.1,0.38576
4268.31,0.38742
4262.53,0.38864
4256.74,0.38989
4250.95,0.39098
4245.17,0.39207
4239.38,0.39224
4233.6,0.39289
4227.81,0.39380
4222.02,0.39381
4216.24,0.39348
4210.45,0.39297
4204.66,0.39382
4198.88,0.39406
4193.09,0.39475
4187.31,0.39621
4181.52,0.39635
4175.73,0.39774
4169.95,0.39889
4164.16,0.40029
4158.37,0.39992
4152.59,0.39973
4146.8,0.39733
4141.02,0.39547
4135.23,0.39322
4129.44,0.38956
4123.66,0.38609
4117.87,0.38264
4112.09,0.37802
4106.3,0.37326
4100.51,0.36845
4094.73,0.36387
4088.94,0.35786
4083.15,0.35214
4077.37,0.34704
4071.58,0.34110
4065.8,0.33621
4060.01,0.33043
4054.22,0.32527
4048.44,0.32072
4042.65,0.31655
4036.86,0.31305
4031.08,0.30956
4025.29,0.30687
4019.51,0.30543
4013.72,0.30470
4007.93,0.30468
4002.15,0.30517
3996.36,0.30619
3990.57,0.30803
3984.79,0.30846
3979,0.31010
3973.22,0.31189
3967.43,0.31435
3961.64,0.31664
3955.86,0.31876
3950.07,0.32121
3944.28,0.32383
3938.5,0.32612
3932.71,0.32961
3926.93,0.33330
3921.14,0.33564
3915.35,0.33757
3909.57,0.33996
3903.78,0.34273
3897.99,0.34494
3892.21,0.34690
3886.42,0.34912
3880.64,0.35155
3874.85,0.35310
3869.06,0.35617
3863.28,0.35825
3857.49,0.36150
3851.7,0.36430
3845.92,0.36670
3840.13,0.36952
3834.35,0.36972
3828.56,0.37059
3822.77,0.37117
3816.99,0.37095
3811.2,0.37091
3805.41,0.37055
3799.63,0.37092
3793.84,0.37050
3788.06,0.36973
3782.27,0.36912
3776.48,0.36795
3770.7,0.36775
3764.91,0.36569
3759.12,0.36391
3753.34,0.36192
3747.55,0.35924
3741.77,0.35584
3735.98,0.35328
3730.19,0.34736
3724.41,0.34221
3718.62,0.33742
3712.83,0.33050
3707.05,0.32194
3701.26,0.31275
3695.48,0.30158
3689.69,0.28891
3683.9,0.27121
3678.12,0.25427
3672.33,0.23322
3666.54,0.21280
3660.76,0.19422
3654.97,0.17712
3649.19,0.16278
3643.4,0.14847
3637.61,0.13674
3631.83,0.12777
3626.04,0.11692
3620.25,0.10976
3614.47,0.10257
3608.68,0.09553
3602.9,0.08963
3597.11,0.08331
3591.32,0.07982
3585.54,0.07533
3579.75,0.07152
3573.97,0.06744
3568.18,0.06452
3562.39,0.06182
3556.61,0.05966
3550.82,0.05762
3545.03,0.05566
3539.25,0.05373
3533.46,0.05198
3527.68,0.05106
3521.89,0.04933
3516.1,0.04850
3510.32,0.04744
3504.53,0.04664
3498.74,0.04620
3492.96,0.04485
3487.17,0.04464
3481.39,0.04301
3475.6,0.04305
3469.81,0.04255
3464.03,0.04212
3458.24,0.04122
3452.45,0.04115
3446.67,0.04170
3440.88,0.04108
3435.1,0.04146
3429.31,0.04112
3423.52,0.04102
3417.74,0.04089
3411.95,0.04112
3406.16,0.04092
3400.38,0.04081
3394.59,0.04105
3388.81,0.04141
3383.02,0.04140
3377.23,0.04079
3371.45,0.04072
3365.66,0.04116
3359.87,0.04106
3354.09,0.04198
3348.3,0.04291
3342.52,0.04307
3336.73,0.04340
3330.94,0.04424
3325.16,0.04554
3319.37,0.04528
3313.58,0.04631
3307.8,0.04657
3302.01,0.04657
3296.23,0.04721
3290.44,0.04838
3284.65,0.04841
3278.87,0.04880
3273.08,0.05043
3267.29,0.05112
3261.51,0.05215
3255.72,0.05339
3249.94,0.05403
3244.15,0.05498
3238.36,0.05643
3232.58,0.05747
3226.79,0.05848
3221,0.05966
3215.22,0.06087
3209.43,0.06225
3203.65,0.06419
3197.86,0.06557
3192.07,0.06693
3186.29,0.06807
3180.5,0.06956
3174.71,0.07070
3168.93,0.07192
3163.14,0.07324
3157.36,0.07534
3151.57,0.07747
3145.78,0.07866
3140,0.08013
3134.21,0.08212
3128.42,0.08351
3122.64,0.08487
3116.85,0.08702
3111.07,0.08813
3105.28,0.08964
3099.49,0.09135
3093.71,0.09295
3087.92,0.09402
3082.14,0.09497
3076.35,0.09654
3070.56,0.09811
3064.78,0.09942
3058.99,0.10109
3053.2,0.10216
3047.42,0.10403
3041.63,0.10505
3035.85,0.10548
3030.06,0.10604
3024.27,0.10611
3018.49,0.10547
3012.7,0.10405
3006.91,0.10202
3001.13,0.10058
2995.34,0.09873
2989.56,0.09571
2983.77,0.09254
2977.98,0.08659
2972.2,0.08088
2966.41,0.07670
2960.62,0.07416
2954.84,0.07179
2949.05,0.06909
2943.27,0.06662
2937.48,0.06533
2931.69,0.06477
2925.91,0.06464
2920.12,0.06470
2914.33,0.06511
2908.55,0.06525
2902.76,0.06522
2896.98,0.06635
2891.19,0.06754
2885.4,0.06897
2879.62,0.07012
2873.83,0.07082
2868.04,0.07260
2862.26,0.07448
2856.47,0.07668
2850.69,0.08007
2844.9,0.08502
2839.11,0.08999
2833.33,0.09490
2827.54,0.10047
2821.75,0.10616
2815.97,0.11074
2810.18,0.11496
2804.4,0.11853
2798.61,0.12175
2792.82,0.12398
2787.04,0.12609
2781.25,0.12767
2775.46,0.12885
2769.68,0.12994
2763.89,0.13073
2758.11,0.13208
2752.32,0.13265
2746.53,0.13299
2740.75,0.13368
2734.96,0.13421
2729.17,0.13489
2723.39,0.13690
2717.6,0.13838
2711.82,0.14003
2706.03,0.14212
2700.24,0.14420
2694.46,0.14615
2688.67,0.14821
2682.88,0.14987
2677.1,0.15187
2671.31,0.15354
2665.53,0.15458
2659.74,0.15538
2653.95,0.15639
2648.17,0.15779
2642.38,0.15884
2636.59,0.16066
2630.81,0.16205
2625.02,0.16366
2619.24,0.16535
2613.45,0.16677
2607.66,0.16794
2601.88,0.16953
2596.09,0.17127
2590.3,0.17206
2584.52,0.17396
2578.73,0.17492
2572.95,0.17572
2567.16,0.17667
2561.37,0.17678
2555.59,0.17734
2549.8,0.17803
2544.02,0.17840
2538.23,0.17897
2532.44,0.18038
2526.66,0.18160
2520.87,0.18320
2515.08,0.18456
2509.3,0.18681
2503.51,0.18930
2497.73,0.19186
2491.94,0.19424
2486.15,0.19659
2480.37,0.19903
2474.58,0.20119
2468.79,0.20349
2463.01,0.20545
2457.22,0.20698
2451.44,0.20973
2445.65,0.21204
2439.86,0.21411
2434.08,0.21669
2428.29,0.21926
2422.5,0.22205
2416.72,0.22484
2410.93,0.22747
2405.15,0.23013
2399.36,0.23264
2393.57,0.23481
2387.79,0.23760
2382,0.24024
2376.21,0.24258
2370.43,0.24408
2364.64,0.24707
2358.86,0.24815
2353.07,0.24981
2347.28,0.25127
2341.5,0.25289
2335.71,0.25383
2329.92,0.25469
2324.14,0.25541
2318.35,0.25640
2312.57,0.25683
2306.78,0.25701
2300.99,0.25659
2295.21,0.25636
2289.42,0.25683
2283.63,0.25659
2277.85,0.25653
2272.06,0.25586
2266.28,0.25444
2260.49,0.25276
2254.7,0.25232
2248.92,0.25143
2243.13,0.25067
2237.34,0.24978
2231.56,0.24941
2225.77,0.24909
2219.99,0.24921
2214.2,0.24930
2208.41,0.24876
2202.63,0.24734
2196.84,0.24609
2191.05,0.24340
2185.27,0.24092
2179.48,0.23805
2173.7,0.23477
2167.91,0.23228
2162.12,0.23003
2156.34,0.22790
2150.55,0.22643
2144.76,0.22472
2138.98,0.22369
2133.19,0.22317
2127.41,0.22388
2121.62,0.22417
2115.83,0.22529
2110.05,0.22591
2104.26,0.22702
2098.47,0.22761
2092.69,0.22804
2086.9,0.22805
2081.12,0.22718
2075.33,0.22617
2069.54,0.22543
2063.76,0.22404
2057.97,0.22338
2052.19,0.22359
2046.4,0.22455
2040.61,0.22625
2034.83,0.22827
2029.04,0.23045
2023.25,0.23349
2017.47,0.23615
2011.68,0.23862
2005.9,0.24048
2000.11,0.24166
1994.32,0.24321
1988.54,0.24509
1982.75,0.24659
1976.96,0.24738
1971.18,0.24863
1965.39,0.24989
1959.61,0.25132
1953.82,0.25334
1948.03,0.25591
1942.25,0.25784
1936.46,0.25931
1930.67,0.26036
1924.89,0.26121
1919.1,0.26167
1913.32,0.26158
1907.53,0.26144
1901.74,0.26098
1895.96,0.26013
1890.17,0.25935
1884.38,0.25843
1878.6,0.25764
1872.81,0.25697
1867.03,0.25635
1861.24,0.25443
1855.45,0.25268
1849.67,0.25037
1843.88,0.24709
1838.09,0.24336
1832.31,0.23901
1826.52,0.23324
1820.74,0.22525
1814.95,0.21574
1809.16,0.20405
1803.38,0.19199
1797.59,0.17806
1791.8,0.16417
1786.02,0.14987
1780.23,0.13602
1774.45,0.12238
1768.66,0.10690
1762.87,0.09344
1757.09,0.08062
1751.3,0.07126
1745.51,0.06548
1739.73,0.06282
1733.94,0.06253
1728.16,0.06282
1722.37,0.06423
1716.58,0.06688
1710.8,0.06944
1705.01,0.07258
1699.22,0.07413
1693.44,0.07246
1687.65,0.07022
1681.87,0.06763
1676.08,0.06597
1670.29,0.06392
1664.51,0.06393
1658.72,0.06354
1652.93,0.06419
1647.15,0.06460
1641.36,0.06429
1635.58,0.06420
1629.79,0.06435
1624,0.06369
1618.22,0.06258
1612.43,0.06047
1606.64,0.05894
1600.86,0.05890
1595.07,0.05895
1589.29,0.06155
1583.5,0.06648
1577.71,0.07371
1571.93,0.08176
1566.14,0.08821
1560.35,0.09220
1554.57,0.09295
1548.78,0.09261
1543,0.09131
1537.21,0.08668
1531.42,0.07964
1525.64,0.06932
1519.85,0.05686
1514.07,0.04995
1508.28,0.05084
1502.49,0.05619
1496.71,0.06207
1490.92,0.06530
1485.13,0.06422
1479.35,0.06110
1473.56,0.05527
1467.78,0.05002
1461.99,0.04870
1456.2,0.04835
1450.42,0.04887
1444.63,0.04943
1438.84,0.04808
1433.06,0.04605
1427.27,0.04580
1421.49,0.04693
1415.7,0.04943
1409.91,0.05053
1404.13,0.05126
1398.34,0.05162
1392.55,0.05028
1386.77,0.04832
1380.98,0.04607
1375.2,0.04519
1369.41,0.04568
1363.62,0.04689
1357.84,0.04761
1352.05,0.04866
1346.26,0.04854
1340.48,0.04711
1334.69,0.04692
1328.91,0.04706
1323.12,0.04614
1317.33,0.04573
1311.55,0.04641
1305.76,0.04718
1299.97,0.04716
1294.19,0.04563
1288.4,0.04413
1282.62,0.04265
1276.83,0.04220
1271.04,0.04221
1265.26,0.04338
1259.47,0.04472
1253.68,0.04538
1247.9,0.04573
1242.11,0.04581
1236.33,0.04532
1230.54,0.04562
1224.75,0.04595
1218.97,0.04598
1213.18,0.04646
1207.39,0.04635
1201.61,0.04675
1195.82,0.04677
1190.04,0.04573
1184.25,0.04398
1178.46,0.04040
1172.68,0.03825
1166.89,0.03857
1161.1,0.04087
1155.32,0.04177
1149.53,0.04142
1143.75,0.04012
1137.96,0.03880
1132.17,0.03698
1126.39,0.03669
1120.6,0.03654
1114.81,0.03735
1109.03,0.03965
1103.24,0.04018
1097.46,0.03957
1091.67,0.03966
1085.88,0.03954
1080.1,0.04096
1074.31,0.04343
1068.52,0.04639
1062.74,0.05182
1056.95,0.05557
1051.17,0.05585
1045.38,0.05437
1039.59,0.05566
1033.81,0.06031
1028.02,0.06257
1022.24,0.06384
1016.45,0.06536
1010.66,0.06666
1004.88,0.06775
999.09,0.06993
993.304,0.07158
987.518,0.07505
981.731,0.08047
975.945,0.08497
970.159,0.08645
964.373,0.08933
958.586,0.09361
952.8,0.09667
947.014,0.09981
941.228,0.10100
935.441,0.10235
929.655,0.10352
923.869,0.10352
918.083,0.10258
912.297,0.09916
906.51,0.09352
900.724,0.08935
894.938,0.08905
889.152,0.09212
883.365,0.09422
877.579,0.09408
871.793,0.09484
866.007,0.09609
860.22,0.09805
854.434,0.10028
848.648,0.10209
842.862,0.10272
837.075,0.10170
831.289,0.09756
825.503,0.09313
819.717,0.08859
813.931,0.08670
808.144,0.08537
802.358,0.08655
796.572,0.08798
790.786,0.08715
784.999,0.08460
779.213,0.08356
773.427,0.08152
767.641,0.08061
761.854,0.08019
756.068,0.07869
750.282,0.07749
744.496,0.07603
738.709,0.07385
732.923,0.07234
727.137,0.07061
721.351,0.06894
715.565,0.06764
709.778,0.06683
703.992,0.06573
698.206,0.06421
692.42,0.06375
686.633,0.06311
680.847,0.06181
675.061,0.05886
669.275,0.05778
663.488,0.05885
657.702,0.05888
651.916,0.05924
646.13,0.05931
640.343,0.05702
634.557,0.05749
628.771,0.05509
622.985,0.05609
617.198,0.05663
611.412,0.05795
605.626,0.05887
599.84,0.05838