File: 01_Data/Pressure_Treated_Deck/FTIR/IS/Deprecated/Pressure_Treated_Deck_IS_T_220926_R7.dpt
7497.03,0.02270
7491.25,0.01850
7485.46,0.01732
7479.67,0.02508
7473.89,0.01988
7468.1,0.01697
7462.32,0.03170
7456.53,0.01796
7450.74,0.02498
7444.96,0.02743
7439.17,0.01913
7433.38,0.03365
7427.6,0.01706
7421.81,0.02593
7416.03,0.02886
7410.24,0.01897
7404.45,0.02334
7398.67,0.02844
7392.88,0.02660
7387.09,0.02810
7381.31,0.03161
7375.52,0.01738
7369.74,0.01762
7363.95,0.02173
7358.16,0.02616
7352.38,0.02652
7346.59,0.01425
7340.8,0.01944
7335.02,0.02517
7329.23,0.02951
7323.45,0.02445
7317.66,0.02298
7311.87,0.02369
7306.09,0.01916
7300.3,0.02439
7294.51,0.02185
7288.73,0.02861
7282.94,0.02509
7277.16,0.02932
7271.37,0.02749
7265.58,0.03415
7259.8,0.02404
7254.01,0.02224
7248.22,0.02888
7242.44,0.02548
7236.65,0.01831
7230.87,0.02321
7225.08,0.02053
7219.29,0.03214
7213.51,0.01949
7207.72,0.02409
7201.93,0.02747
7196.15,0.01947
7190.36,0.02826
7184.58,0.02777
7178.79,0.01615
7173,0.01993
7167.22,0.02126
7161.43,0.02140
7155.65,0.01940
7149.86,0.02592
7144.07,0.01939
7138.29,0.01952
7132.5,0.02304
7126.71,0.02695
7120.93,0.01844
7115.14,0.01821
7109.36,0.02414
7103.57,0.02248
7097.78,0.02861
7092,0.02280
7086.21,0.02423
7080.42,0.01920
7074.64,0.02081
7068.85,0.02570
7063.07,0.02086
7057.28,0.02596
7051.49,0.02884
7045.71,0.01873
7039.92,0.01896
7034.13,0.02261
7028.35,0.02469
7022.56,0.01993
7016.78,0.01970
7010.99,0.02288
7005.2,0.02218
6999.42,0.02257
6993.63,0.02998
6987.84,0.02416
6982.06,0.02773
6976.27,0.02237
6970.49,0.02262
6964.7,0.01707
6958.91,0.02058
6953.13,0.01639
6947.34,0.02100
6941.55,0.02465
6935.77,0.02261
6929.98,0.03238
6924.2,0.01864
6918.41,0.01928
6912.62,0.02596
6906.84,0.02929
6901.05,0.02691
6895.26,0.03007
6889.48,0.02118
6883.69,0.02694
6877.91,0.01840
6872.12,0.02048
6866.33,0.02700
6860.55,0.02368
6854.76,0.02528
6848.97,0.02776
6843.19,0.02344
6837.4,0.01545
6831.62,0.02162
6825.83,0.02124
6820.04,0.02382
6814.26,0.02500
6808.47,0.02468
6802.68,0.02308
6796.9,0.02699
6791.11,0.02773
6785.33,0.02687
6779.54,0.02545
6773.75,0.01909
6767.97,0.02154
6762.18,0.02446
6756.39,0.02678
6750.61,0.02366
6744.82,0.02051
6739.04,0.02691
6733.25,0.02055
6727.46,0.01972
6721.68,0.02226
6715.89,0.02182
6710.1,0.01839
6704.32,0.01950
6698.53,0.02117
6692.75,0.02302
6686.96,0.02135
6681.17,0.01727
6675.39,0.01742
6669.6,0.02237
6663.82,0.02976
6658.03,0.02224
6652.24,0.02462
6646.46,0.02249
6640.67,0.02174
6634.88,0.02222
6629.1,0.02101
6623.31,0.02085
6617.53,0.01831
6611.74,0.02375
6605.95,0.02217
6600.17,0.02241
6594.38,0.02519
6588.59,0.02029
6582.81,0.02171
6577.02,0.02020
6571.24,0.02246
6565.45,0.02556
6559.66,0.02641
6553.88,0.02308
6548.09,0.02463
6542.3,0.02698
6536.52,0.02431
6530.73,0.02720
6524.95,0.02170
6519.16,0.02477
6513.37,0.02176
6507.59,0.01900
6501.8,0.02659
6496.01,0.02265
6490.23,0.01836
6484.44,0.02334
6478.66,0.02312
6472.87,0.02470
6467.08,0.02566
6461.3,0.02299
6455.51,0.01766
6449.72,0.01770
6443.94,0.02323
6438.15,0.02427
6432.37,0.02324
6426.58,0.02479
6420.79,0.02245
6415.01,0.02010
6409.22,0.02455
6403.43,0.02223
6397.65,0.02083
6391.86,0.02139
6386.08,0.02264
6380.29,0.02032
6374.5,0.02454
6368.72,0.02284
6362.93,0.01983
6357.14,0.02187
6351.36,0.02149
6345.57,0.02298
6339.79,0.01995
6334,0.02065
6328.21,0.02567
6322.43,0.02622
6316.64,0.02084
6310.85,0.02113
6305.07,0.02286
6299.28,0.02106
6293.5,0.02130
6287.71,0.01800
6281.92,0.02160
6276.14,0.02260
6270.35,0.02494
6264.56,0.01867
6258.78,0.01950
6252.99,0.02481
6247.21,0.02203
6241.42,0.02528
6235.63,0.02057
6229.85,0.01916
6224.06,0.02165
6218.27,0.02211
6212.49,0.02338
6206.7,0.02154
6200.92,0.02193
6195.13,0.02423
6189.34,0.02430
6183.56,0.01936
6177.77,0.02429
6171.98,0.02536
6166.2,0.02219
6160.41,0.02329
6154.63,0.02176
6148.84,0.02291
6143.05,0.02303
6137.27,0.02093
6131.48,0.02426
6125.7,0.01680
6119.91,0.01822
6114.12,0.02240
6108.34,0.02087
6102.55,0.02140
6096.76,0.02165
6090.98,0.02507
6085.19,0.02300
6079.41,0.02242
6073.62,0.02319
6067.83,0.02079
6062.05,0.02209
6056.26,0.02225
6050.47,0.02405
6044.69,0.02503
6038.9,0.02206
6033.12,0.02040
6027.33,0.02173
6021.54,0.02186
6015.76,0.02175
6009.97,0.02392
6004.18,0.02068
5998.4,0.02189
5992.61,0.01961
5986.83,0.02079
5981.04,0.02222
5975.25,0.02061
5969.47,0.02225
5963.68,0.02154
5957.89,0.02122
5952.11,0.02146
5946.32,0.02218
5940.54,0.02338
5934.75,0.02300
5928.96,0.02376
5923.18,0.02425
5917.39,0.02425
5911.6,0.02149
5905.82,0.02181
5900.03,0.02174
5894.25,0.01963
5888.46,0.02150
5882.67,0.02231
5876.89,0.02204
5871.1,0.02040
5865.31,0.02198
5859.53,0.02234
5853.74,0.02384
5847.96,0.02224
5842.17,0.02342
5836.38,0.02112
5830.6,0.02084
5824.81,0.02378
5819.02,0.02076
5813.24,0.02166
5807.45,0.02111
5801.67,0.02163
5795.88,0.02077
5790.09,0.01990
5784.31,0.02263
5778.52,0.02221
5772.73,0.02064
5766.95,0.02324
5761.16,0.02291
5755.38,0.02471
5749.59,0.02095
5743.8,0.02296
5738.02,0.02216
5732.23,0.02121
5726.44,0.02212
5720.66,0.02154
5714.87,0.02088
5709.09,0.02204
5703.3,0.02126
5697.51,0.02177
5691.73,0.02152
5685.94,0.02134
5680.15,0.02203
5674.37,0.02138
5668.58,0.02498
5662.8,0.02050
5657.01,0.02213
5651.22,0.02221
5645.44,0.02295
5639.65,0.02154
5633.87,0.02133
5628.08,0.02210
5622.29,0.02198
5616.51,0.01793
5610.72,0.02139
5604.93,0.02134
5599.15,0.02518
5593.36,0.02211
5587.58,0.02268
5581.79,0.02208
5576,0.02271
5570.22,0.02320
5564.43,0.02051
5558.64,0.02055
5552.86,0.02222
5547.07,0.02270
5541.29,0.02150
5535.5,0.02011
5529.71,0.02134
5523.93,0.02243
5518.14,0.02248
5512.35,0.02209
5506.57,0.02220
5500.78,0.02319
5495,0.02348
5489.21,0.02286
5483.42,0.02172
5477.64,0.02189
5471.85,0.02156
5466.06,0.02109
5460.28,0.02220
5454.49,0.02261
5448.71,0.02558
5442.92,0.02352
5437.13,0.02118
5431.35,0.02293
5425.56,0.02089
5419.77,0.02047
5413.99,0.02292
5408.2,0.02235
5402.42,0.02284
5396.63,0.02176
5390.84,0.02076
5385.06,0.02201
5379.27,0.02125
5373.48,0.02251
5367.7,0.02341
5361.91,0.02079
5356.13,0.02127
5350.34,0.02235
5344.55,0.02331
5338.77,0.02158
5332.98,0.02406
5327.19,0.02229
5321.41,0.02194
5315.62,0.02332
5309.84,0.02290
5304.05,0.02319
5298.26,0.02220
5292.48,0.02406
5286.69,0.02373
5280.9,0.02327
5275.12,0.02349
5269.33,0.02220
5263.55,0.02259
5257.76,0.02190
5251.97,0.02291
5246.19,0.02301
5240.4,0.02321
5234.61,0.02211
5228.83,0.02218
5223.04,0.02112
5217.26,0.02140
5211.47,0.02310
5205.68,0.02169
5199.9,0.02324
5194.11,0.02370
5188.32,0.02293
5182.54,0.02259
5176.75,0.02358
5170.97,0.02210
5165.18,0.02291
5159.39,0.02295
5153.61,0.02197
5147.82,0.02321
5142.03,0.02387
5136.25,0.02230
5130.46,0.02289
5124.68,0.02157
5118.89,0.02328
5113.1,0.02397
5107.32,0.02200
5101.53,0.02377
5095.75,0.02343
5089.96,0.02308
5084.17,0.02232
5078.39,0.02253
5072.6,0.02218
5066.81,0.02295
5061.03,0.02230
5055.24,0.02324
5049.46,0.02403
5043.67,0.02279
5037.88,0.02159
5032.1,0.02196
5026.31,0.02217
5020.52,0.02310
5014.74,0.02341
5008.95,0.02210
5003.17,0.02205
4997.38,0.02316
4991.59,0.02409
4985.81,0.02368
4980.02,0.02236
4974.23,0.02301
4968.45,0.02216
4962.66,0.02242
4956.88,0.02193
4951.09,0.02200
4945.3,0.02335
4939.52,0.02288
4933.73,0.02348
4927.94,0.02256
4922.16,0.02127
4916.37,0.02207
4910.59,0.02331
4904.8,0.02205
4899.01,0.02354
4893.23,0.02538
4887.44,0.02285
4881.65,0.02138
4875.87,0.02311
4870.08,0.02318
4864.3,0.02247
4858.51,0.02238
4852.72,0.02253
4846.94,0.02293
4841.15,0.02293
4835.36,0.02370
4829.58,0.02228
4823.79,0.02264
4818.01,0.02287
4812.22,0.02319
4806.43,0.02287
4800.65,0.02310
4794.86,0.02356
4789.07,0.02218
4783.29,0.02379
4777.5,0.02342
4771.72,0.02383
4765.93,0.02244
4760.14,0.02315
4754.36,0.02280
4748.57,0.02324
4742.78,0.02318
4737,0.02320
4731.21,0.02335
4725.43,0.02254
4719.64,0.02302
4713.85,0.02300
4708.07,0.02322
4702.28,0.02273
4696.49,0.02248
4690.71,0.02328
4684.92,0.02280
4679.14,0.02327
4673.35,0.02232
4667.56,0.02334
4661.78,0.02251
4655.99,0.02300
4650.2,0.02302
4644.42,0.02267
4638.63,0.02300
4632.85,0.02335
4627.06,0.02336
4621.27,0.02289
4615.49,0.02236
4609.7,0.02319
4603.92,0.02287
4598.13,0.02173
4592.34,0.02263
4586.56,0.02372
4580.77,0.02294
4574.98,0.02331
4569.2,0.02260
4563.41,0.02215
4557.63,0.02336
4551.84,0.02301
4546.05,0.02245
4540.27,0.02253
4534.48,0.02191
4528.69,0.02221
4522.91,0.02245
4517.12,0.02313
4511.34,0.02283
4505.55,0.02238
4499.76,0.02176
4493.98,0.02319
4488.19,0.02355
4482.4,0.02299
4476.62,0.02363
4470.83,0.02368
4465.05,0.02330
4459.26,0.02373
4453.47,0.02278
4447.69,0.02307
4441.9,0.02349
4436.11,0.02267
4430.33,0.02211
4424.54,0.02362
4418.76,0.02363
4412.97,0.02298
4407.18,0.02309
4401.4,0.02357
4395.61,0.02292
4389.82,0.02362
4384.04,0.02283
4378.25,0.02281
4372.47,0.02293
4366.68,0.02307
4360.89,0.02271
4355.11,0.02290
4349.32,0.02316
4343.53,0.02333
4337.75,0.02260
4331.96,0.02328
4326.18,0.02314
4320.39,0.02319
4314.6,0.02266
4308.82,0.02260
4303.03,0.02269
4297.24,0.02269
4291.46,0.02301
4285.67,0.02315
4279.89,0.02331
4274.1,0.02348
4268.31,0.02284
4262.53,0.02342
4256.74,0.02301
4250.95,0.02304
4245.17,0.02305
4239.38,0.02369
4233.6,0.02352
4227.81,0.02290
4222.02,0.02217
4216.24,0.02292
4210.45,0.02371
4204.66,0.02366
4198.88,0.02343
4193.09,0.02317
4187.31,0.02310
4181.52,0.02228
4175.73,0.02284
4169.95,0.02269
4164.16,0.02249
4158.37,0.02280
4152.59,0.02339
4146.8,0.02351
4141.02,0.02293
4135.23,0.02301
4129.44,0.02340
4123.66,0.02268
4117.87,0.02316
4112.09,0.02316
4106.3,0.02338
4100.51,0.02337
4094.73,0.02312
4088.94,0.02327
4083.15,0.02322
4077.37,0.02335
4071.58,0.02252
4065.8,0.02297
4060.01,0.02319
4054.22,0.02294
4048.44,0.02290
4042.65,0.02285
4036.86,0.02328
4031.08,0.02328
4025.29,0.02285
4019.51,0.02315
4013.72,0.02313
4007.93,0.02304
4002.15,0.02357
3996.36,0.02332
3990.57,0.02297
3984.79,0.02279
3979,0.02351
3973.22,0.02381
3967.43,0.02368
3961.64,0.02301
3955.86,0.02374
3950.07,0.02331
3944.28,0.02290
3938.5,0.02320
3932.71,0.02307
3926.93,0.02345
3921.14,0.02342
3915.35,0.02354
3909.57,0.02300
3903.78,0.02359
3897.99,0.02345
3892.21,0.02342
3886.42,0.02355
3880.64,0.02359
3874.85,0.02349
3869.06,0.02320
3863.28,0.02279
3857.49,0.02281
3851.7,0.02314
3845.92,0.02273
3840.13,0.02307
3834.35,0.02391
3828.56,0.02317
3822.77,0.02330
3816.99,0.02349
3811.2,0.02348
3805.41,0.02318
3799.63,0.02285
3793.84,0.02275
3788.06,0.02370
3782.27,0.02268
3776.48,0.02377
3770.7,0.02358
3764.91,0.02406
3759.12,0.02403
3753.34,0.02352
3747.55,0.02325
3741.77,0.02407
3735.98,0.02328
3730.19,0.02266
3724.41,0.02292
3718.62,0.02275
3712.83,0.02365
3707.05,0.02273
3701.26,0.02326
3695.48,0.02371
3689.69,0.02339
3683.9,0.02225
3678.12,0.02294
3672.33,0.02225
3666.54,0.02292
3660.76,0.02249
3654.97,0.02350
3649.19,0.02265
3643.4,0.02256
3637.61,0.02293
3631.83,0.02266
3626.04,0.02197
3620.25,0.02286
3614.47,0.02231
3608.68,0.02261
3602.9,0.02288
3597.11,0.02219
3591.32,0.02249
3585.54,0.02229
3579.75,0.02226
3573.97,0.02323
3568.18,0.02187
3562.39,0.02257
3556.61,0.02207
3550.82,0.02171
3545.03,0.02163
3539.25,0.02175
3533.46,0.02135
3527.68,0.02220
3521.89,0.02151
3516.1,0.02193
3510.32,0.02230
3504.53,0.02132
3498.74,0.02198
3492.96,0.02174
3487.17,0.02162
3481.39,0.02171
3475.6,0.02185
3469.81,0.02120
3464.03,0.02152
3458.24,0.02088
3452.45,0.02115
3446.67,0.02153
3440.88,0.02140
3435.1,0.02131
3429.31,0.02137
3423.52,0.02106
3417.74,0.02120
3411.95,0.02063
3406.16,0.02074
3400.38,0.02150
3394.59,0.02105
3388.81,0.02070
3383.02,0.02163
3377.23,0.02083
3371.45,0.02075
3365.66,0.02112
3359.87,0.01982
3354.09,0.02088
3348.3,0.02150
3342.52,0.02075
3336.73,0.02113
3330.94,0.02084
3325.16,0.02050
3319.37,0.02130
3313.58,0.02095
3307.8,0.02137
3302.01,0.02113
3296.23,0.02132
3290.44,0.02125
3284.65,0.02042
3278.87,0.02059
3273.08,0.02105
3267.29,0.02034
3261.51,0.02072
3255.72,0.02140
3249.94,0.02051
3244.15,0.02112
3238.36,0.02148
3232.58,0.02137
3226.79,0.02156
3221,0.02137
3215.22,0.02142
3209.43,0.02169
3203.65,0.02157
3197.86,0.02206
3192.07,0.02182
3186.29,0.02122
3180.5,0.02154
3174.71,0.02095
3168.93,0.02123
3163.14,0.02127
3157.36,0.02188
3151.57,0.02166
3145.78,0.02091
3140,0.02089
3134.21,0.02159
3128.42,0.02111
3122.64,0.02147
3116.85,0.02150
3111.07,0.02129
3105.28,0.02166
3099.49,0.02147
3093.71,0.02155
3087.92,0.02169
3082.14,0.02117
3076.35,0.02183
3070.56,0.02104
3064.78,0.02093
3058.99,0.02149
3053.2,0.02151
3047.42,0.02143
3041.63,0.02156
3035.85,0.02071
3030.06,0.02096
3024.27,0.02105
3018.49,0.02113
3012.7,0.02135
3006.91,0.02088
3001.13,0.02103
2995.34,0.02056
2989.56,0.02075
2983.77,0.02090
2977.98,0.02073
2972.2,0.01995
2966.41,0.02000
2960.62,0.02040
2954.84,0.01984
2949.05,0.01995
2943.27,0.01999
2937.48,0.01999
2931.69,0.02047
2925.91,0.02080
2920.12,0.02069
2914.33,0.02043
2908.55,0.02125
2902.76,0.02138
2896.98,0.02125
2891.19,0.02110
2885.4,0.02129
2879.62,0.02077
2873.83,0.02129
2868.04,0.02110
2862.26,0.02117
2856.47,0.02136
2850.69,0.02131
2844.9,0.02167
2839.11,0.02196
2833.33,0.02222
2827.54,0.02190
2821.75,0.02209
2815.97,0.02222
2810.18,0.02228
2804.4,0.02145
2798.61,0.02228
2792.82,0.02122
2787.04,0.02189
2781.25,0.02171
2775.46,0.02156
2769.68,0.02167
2763.89,0.02153
2758.11,0.02178
2752.32,0.02152
2746.53,0.02186
2740.75,0.02230
2734.96,0.02224
2729.17,0.02206
2723.39,0.02169
2717.6,0.02202
2711.82,0.02171
2706.03,0.02190
2700.24,0.02202
2694.46,0.02190
2688.67,0.02201
2682.88,0.02196
2677.1,0.02175
2671.31,0.02172
2665.53,0.02193
2659.74,0.02265
2653.95,0.02230
2648.17,0.02200
2642.38,0.02219
2636.59,0.02259
2630.81,0.02193
2625.02,0.02197
2619.24,0.02165
2613.45,0.02151
2607.66,0.02185
2601.88,0.02194
2596.09,0.02179
2590.3,0.02181
2584.52,0.02191
2578.73,0.02196
2572.95,0.02178
2567.16,0.02173
2561.37,0.02144
2555.59,0.02204
2549.8,0.02218
2544.02,0.02196
2538.23,0.02176
2532.44,0.02166
2526.66,0.02222
2520.87,0.02177
2515.08,0.02158
2509.3,0.02178
2503.51,0.02182
2497.73,0.02167
2491.94,0.02175
2486.15,0.02217
2480.37,0.02218
2474.58,0.02230
2468.79,0.02208
2463.01,0.02196
2457.22,0.02205
2451.44,0.02162
2445.65,0.02150
2439.86,0.02189
2434.08,0.02180
2428.29,0.02171
2422.5,0.02176
2416.72,0.02217
2410.93,0.02183
2405.15,0.02181
2399.36,0.02191
2393.57,0.02164
2387.79,0.02168
2382,0.02200
2376.21,0.02166
2370.43,0.02221
2364.64,0.02189
2358.86,0.02205
2353.07,0.02199
2347.28,0.02201
2341.5,0.02184
2335.71,0.02187
2329.92,0.02222
2324.14,0.02181
2318.35,0.02194
2312.57,0.02174
2306.78,0.02231
2300.99,0.02187
2295.21,0.02170
2289.42,0.02165
2283.63,0.02192
2277.85,0.02190
2272.06,0.02183
2266.28,0.02191
2260.49,0.02166
2254.7,0.02206
2248.92,0.02198
2243.13,0.02170
2237.34,0.02203
2231.56,0.02191
2225.77,0.02179
2219.99,0.02168
2214.2,0.02163
2208.41,0.02153
2202.63,0.02166
2196.84,0.02170
2191.05,0.02161
2185.27,0.02158
2179.48,0.02131
2173.7,0.02174
2167.91,0.02176
2162.12,0.02152
2156.34,0.02210
2150.55,0.02175
2144.76,0.02177
2138.98,0.02154
2133.19,0.02176
2127.41,0.02168
2121.62,0.02127
2115.83,0.02182
2110.05,0.02187
2104.26,0.02167
2098.47,0.02159
2092.69,0.02198
2086.9,0.02143
2081.12,0.02180
2075.33,0.02172
2069.54,0.02180
2063.76,0.02191
2057.97,0.02140
2052.19,0.02162
2046.4,0.02138
2040.61,0.02151
2034.83,0.02136
2029.04,0.02123
2023.25,0.02167
2017.47,0.02180
2011.68,0.02125
2005.9,0.02151
2000.11,0.02131
1994.32,0.02174
1988.54,0.02142
1982.75,0.02168
1976.96,0.02113
1971.18,0.02137
1965.39,0.02162
1959.61,0.02134
1953.82,0.02145
1948.03,0.02154
1942.25,0.02132
1936.46,0.02130
1930.67,0.02134
1924.89,0.02138
1919.1,0.02143
1913.32,0.02143
1907.53,0.02126
1901.74,0.02104
1895.96,0.02129
1890.17,0.02112
1884.38,0.02111
1878.6,0.02088
1872.81,0.02098
1867.03,0.02113
1861.24,0.02083
1855.45,0.02092
1849.67,0.02086
1843.88,0.02082
1838.09,0.02099
1832.31,0.02070
1826.52,0.02082
1820.74,0.02064
1814.95,0.02080
1809.16,0.02051
1803.38,0.02038
1797.59,0.02021
1791.8,0.01965
1786.02,0.01983
1780.23,0.01971
1774.45,0.01929
1768.66,0.01926
1762.87,0.01896
1757.09,0.01833
1751.3,0.01762
1745.51,0.01850
1739.73,0.01933
1733.94,0.01997
1728.16,0.02127
1722.37,0.02136
1716.58,0.02154
1710.8,0.02086
1705.01,0.02084
1699.22,0.02045
1693.44,0.01966
1687.65,0.01995
1681.87,0.01932
1676.08,0.01974
1670.29,0.01894
1664.51,0.01909
1658.72,0.01897
1652.93,0.01875
1647.15,0.01914
1641.36,0.01879
1635.58,0.01888
1629.79,0.01922
1624,0.01964
1618.22,0.01922
1612.43,0.01958
1606.64,0.01936
1600.86,0.01971
1595.07,0.01946
1589.29,0.01930
1583.5,0.01927
1577.71,0.01956
1571.93,0.01923
1566.14,0.01844
1560.35,0.01904
1554.57,0.01864
1548.78,0.01888
1543,0.01900
1537.21,0.01910
1531.42,0.01891
1525.64,0.01923
1519.85,0.01915
1514.07,0.01906
1508.28,0.01926
1502.49,0.01933
1496.71,0.01920
1490.92,0.01963
1485.13,0.01927
1479.35,0.01937
1473.56,0.01907
1467.78,0.01854
1461.99,0.01846
1456.2,0.01912
1450.42,0.01923
1444.63,0.01933
1438.84,0.01927
1433.06,0.01889
1427.27,0.01909
1421.49,0.01878
1415.7,0.01875
1409.91,0.01882
1404.13,0.01864
1398.34,0.01866
1392.55,0.01837
1386.77,0.01846
1380.98,0.01905
1375.2,0.01853
1369.41,0.01891
1363.62,0.01858
1357.84,0.01890
1352.05,0.01830
1346.26,0.01817
1340.48,0.01836
1334.69,0.01835
1328.91,0.01792
1323.12,0.01773
1317.33,0.01752
1311.55,0.01721
1305.76,0.01769
1299.97,0.01813
1294.19,0.01808
1288.4,0.01909
1282.62,0.01941
1276.83,0.01991
1271.04,0.02002
1265.26,0.01992
1259.47,0.02071
1253.68,0.02086
1247.9,0.02065
1242.11,0.02033
1236.33,0.02077
1230.54,0.01994
1224.75,0.01978
1218.97,0.01950
1213.18,0.01957
1207.39,0.01980
1201.61,0.01936
1195.82,0.01933
1190.04,0.01880
1184.25,0.01871
1178.46,0.01847
1172.68,0.01781
1166.89,0.01798
1161.1,0.01794
1155.32,0.01839
1149.53,0.01791
1143.75,0.01796
1137.96,0.01811
1132.17,0.01852
1126.39,0.01923
1120.6,0.01961
1114.81,0.01919
1109.03,0.01913
1103.24,0.01859
1097.46,0.01860
1091.67,0.01862
1085.88,0.01931
1080.1,0.01898
1074.31,0.01863
1068.52,0.01971
1062.74,0.01956
1056.95,0.01961
1051.17,0.01955
1045.38,0.01971
1039.59,0.01991
1033.81,0.01934
1028.02,0.01954
1022.24,0.01928
1016.45,0.01990
1010.66,0.02016
1004.88,0.02068
999.09,0.02127
993.304,0.02195
987.518,0.02094
981.731,0.02091
975.945,0.02080
970.159,0.02047
964.373,0.02009
958.586,0.02047
952.8,0.01994
947.014,0.02048
941.228,0.02006
935.441,0.01964
929.655,0.01984
923.869,0.01981
918.083,0.01978
912.297,0.01942
906.51,0.01910
900.724,0.01928
894.938,0.01954
889.152,0.01904
883.365,0.01905
877.579,0.01927
871.793,0.01984
866.007,0.01912
860.22,0.01911
854.434,0.01890
848.648,0.01962
842.862,0.01870
837.075,0.01782
831.289,0.01936
825.503,0.01913
819.717,0.01961
813.931,0.01980
808.144,0.01969
802.358,0.01851
796.572,0.01921
790.786,0.01862
784.999,0.01834
779.213,0.01805
773.427,0.01835
767.641,0.01878
761.854,0.01808
756.068,0.01769
750.282,0.01779
744.496,0.01827
738.709,0.01864
732.923,0.01862
727.137,0.01898
721.351,0.01838
715.565,0.01900
709.778,0.01831
703.992,0.01767
698.206,0.01812
692.42,0.01813
686.633,0.01737
680.847,0.01779
675.061,0.01703
669.275,0.01713
663.488,0.01535
657.702,0.01773
651.916,0.01849
646.13,0.01631
640.343,0.01737
634.557,0.01428
628.771,0.01638
622.985,0.01506
617.198,0.01566
611.412,0.01741
605.626,0.01528
599.84,0.01707