File: 01_Data/Pressure_Treated_Deck/FTIR/IS/Deprecated/Pressure_Treated_Deck_IS_S_220926_R2.dpt
7497.03,0.77329
7491.25,0.76977
7485.46,0.75971
7479.67,0.75574
7473.89,0.76592
7468.1,0.75630
7462.32,0.75740
7456.53,0.75184
7450.74,0.75420
7444.96,0.75700
7439.17,0.75392
7433.38,0.74741
7427.6,0.75177
7421.81,0.74555
7416.03,0.74658
7410.24,0.74018
7404.45,0.73932
7398.67,0.74027
7392.88,0.73298
7387.09,0.73785
7381.31,0.73308
7375.52,0.73015
7369.74,0.74707
7363.95,0.72716
7358.16,0.73143
7352.38,0.73334
7346.59,0.72940
7340.8,0.72086
7335.02,0.71987
7329.23,0.72686
7323.45,0.71882
7317.66,0.72175
7311.87,0.72397
7306.09,0.71916
7300.3,0.72480
7294.51,0.72617
7288.73,0.72365
7282.94,0.72308
7277.16,0.72245
7271.37,0.72095
7265.58,0.72339
7259.8,0.72357
7254.01,0.71257
7248.22,0.72046
7242.44,0.71855
7236.65,0.72318
7230.87,0.72233
7225.08,0.72246
7219.29,0.72535
7213.51,0.71326
7207.72,0.71813
7201.93,0.71243
7196.15,0.71109
7190.36,0.70576
7184.58,0.71566
7178.79,0.71492
7173,0.70928
7167.22,0.71441
7161.43,0.70335
7155.65,0.70257
7149.86,0.70059
7144.07,0.69482
7138.29,0.69178
7132.5,0.69279
7126.71,0.68517
7120.93,0.68057
7115.14,0.68153
7109.36,0.67743
7103.57,0.67255
7097.78,0.66863
7092,0.66606
7086.21,0.65870
7080.42,0.65224
7074.64,0.65238
7068.85,0.64242
7063.07,0.63856
7057.28,0.63250
7051.49,0.63137
7045.71,0.62282
7039.92,0.61998
7034.13,0.62019
7028.35,0.60547
7022.56,0.60866
7016.78,0.60539
7010.99,0.59738
7005.2,0.59915
6999.42,0.59448
6993.63,0.59519
6987.84,0.59784
6982.06,0.58778
6976.27,0.58260
6970.49,0.58426
6964.7,0.57925
6958.91,0.57588
6953.13,0.58120
6947.34,0.58017
6941.55,0.57932
6935.77,0.57923
6929.98,0.57350
6924.2,0.57959
6918.41,0.57882
6912.62,0.57925
6906.84,0.57796
6901.05,0.58410
6895.26,0.57901
6889.48,0.57991
6883.69,0.57861
6877.91,0.57592
6872.12,0.57639
6866.33,0.57879
6860.55,0.57423
6854.76,0.57608
6848.97,0.57696
6843.19,0.57933
6837.4,0.57539
6831.62,0.57311
6825.83,0.57765
6820.04,0.57437
6814.26,0.57407
6808.47,0.57648
6802.68,0.57922
6796.9,0.57273
6791.11,0.57983
6785.33,0.57463
6779.54,0.57623
6773.75,0.57623
6767.97,0.57653
6762.18,0.57738
6756.39,0.57956
6750.61,0.57802
6744.82,0.58061
6739.04,0.57650
6733.25,0.57871
6727.46,0.57866
6721.68,0.58255
6715.89,0.58349
6710.1,0.58274
6704.32,0.58727
6698.53,0.58181
6692.75,0.58540
6686.96,0.58727
6681.17,0.58755
6675.39,0.58814
6669.6,0.58812
6663.82,0.58522
6658.03,0.58489
6652.24,0.58805
6646.46,0.58663
6640.67,0.59017
6634.88,0.58822
6629.1,0.58942
6623.31,0.58982
6617.53,0.59089
6611.74,0.59509
6605.95,0.59691
6600.17,0.60059
6594.38,0.59932
6588.59,0.59911
6582.81,0.59814
6577.02,0.59838
6571.24,0.59972
6565.45,0.59960
6559.66,0.60215
6553.88,0.60243
6548.09,0.60168
6542.3,0.60341
6536.52,0.60278
6530.73,0.60293
6524.95,0.60618
6519.16,0.60514
6513.37,0.60627
6507.59,0.60836
6501.8,0.60573
6496.01,0.60687
6490.23,0.60599
6484.44,0.60516
6478.66,0.60686
6472.87,0.60264
6467.08,0.60915
6461.3,0.61017
6455.51,0.60998
6449.72,0.61368
6443.94,0.61327
6438.15,0.61222
6432.37,0.61374
6426.58,0.61326
6420.79,0.61072
6415.01,0.61251
6409.22,0.60994
6403.43,0.61388
6397.65,0.61635
6391.86,0.61333
6386.08,0.61273
6380.29,0.61561
6374.5,0.61760
6368.72,0.61774
6362.93,0.61625
6357.14,0.61879
6351.36,0.62025
6345.57,0.62060
6339.79,0.61829
6334,0.62299
6328.21,0.62046
6322.43,0.62335
6316.64,0.62007
6310.85,0.62117
6305.07,0.62351
6299.28,0.62421
6293.5,0.62179
6287.71,0.62434
6281.92,0.62634
6276.14,0.62363
6270.35,0.62853
6264.56,0.62532
6258.78,0.62840
6252.99,0.63227
6247.21,0.63288
6241.42,0.63509
6235.63,0.63832
6229.85,0.63975
6224.06,0.64372
6218.27,0.64314
6212.49,0.64368
6206.7,0.64387
6200.92,0.64729
6195.13,0.65267
6189.34,0.65496
6183.56,0.65516
6177.77,0.65214
6171.98,0.65658
6166.2,0.65638
6160.41,0.65841
6154.63,0.65928
6148.84,0.65866
6143.05,0.66025
6137.27,0.66049
6131.48,0.66068
6125.7,0.66442
6119.91,0.66403
6114.12,0.66101
6108.34,0.66361
6102.55,0.66672
6096.76,0.66612
6090.98,0.66711
6085.19,0.66390
6079.41,0.66411
6073.62,0.66556
6067.83,0.66375
6062.05,0.66572
6056.26,0.66297
6050.47,0.66100
6044.69,0.65920
6038.9,0.65990
6033.12,0.65711
6027.33,0.65463
6021.54,0.65549
6015.76,0.65367
6009.97,0.65173
6004.18,0.64756
5998.4,0.64804
5992.61,0.64925
5986.83,0.64871
5981.04,0.65014
5975.25,0.64470
5969.47,0.64667
5963.68,0.64551
5957.89,0.64426
5952.11,0.64735
5946.32,0.64452
5940.54,0.64917
5934.75,0.64679
5928.96,0.64615
5923.18,0.64589
5917.39,0.64696
5911.6,0.64487
5905.82,0.64341
5900.03,0.64221
5894.25,0.63991
5888.46,0.64055
5882.67,0.64135
5876.89,0.64052
5871.1,0.63993
5865.31,0.63980
5859.53,0.63945
5853.74,0.63941
5847.96,0.64069
5842.17,0.63788
5836.38,0.63719
5830.6,0.63948
5824.81,0.63432
5819.02,0.63572
5813.24,0.63279
5807.45,0.63242
5801.67,0.63425
5795.88,0.63365
5790.09,0.63373
5784.31,0.63518
5778.52,0.63478
5772.73,0.63681
5766.95,0.63547
5761.16,0.63687
5755.38,0.63657
5749.59,0.63797
5743.8,0.63666
5738.02,0.63567
5732.23,0.63664
5726.44,0.63748
5720.66,0.63466
5714.87,0.63614
5709.09,0.63760
5703.3,0.63570
5697.51,0.63466
5691.73,0.63643
5685.94,0.63750
5680.15,0.63488
5674.37,0.63861
5668.58,0.63626
5662.8,0.63424
5657.01,0.63780
5651.22,0.63512
5645.44,0.63668
5639.65,0.63426
5633.87,0.63316
5628.08,0.63458
5622.29,0.63330
5616.51,0.63564
5610.72,0.63680
5604.93,0.63418
5599.15,0.63193
5593.36,0.63374
5587.58,0.63422
5581.79,0.63408
5576,0.63750
5570.22,0.63707
5564.43,0.63694
5558.64,0.63734
5552.86,0.63807
5547.07,0.63769
5541.29,0.64042
5535.5,0.64071
5529.71,0.64021
5523.93,0.63964
5518.14,0.64241
5512.35,0.64262
5506.57,0.64157
5500.78,0.64164
5495,0.64193
5489.21,0.64278
5483.42,0.64162
5477.64,0.64397
5471.85,0.64353
5466.06,0.64487
5460.28,0.64456
5454.49,0.64708
5448.71,0.64724
5442.92,0.64768
5437.13,0.64966
5431.35,0.64993
5425.56,0.65355
5419.77,0.65097
5413.99,0.65348
5408.2,0.65442
5402.42,0.65688
5396.63,0.65731
5390.84,0.65749
5385.06,0.65671
5379.27,0.65650
5373.48,0.65601
5367.7,0.65618
5361.91,0.65568
5356.13,0.65453
5350.34,0.65457
5344.55,0.65211
5338.77,0.65200
5332.98,0.64834
5327.19,0.64740
5321.41,0.64404
5315.62,0.63893
5309.84,0.63485
5304.05,0.62758
5298.26,0.62067
5292.48,0.61250
5286.69,0.60346
5280.9,0.59427
5275.12,0.58076
5269.33,0.56882
5263.55,0.55797
5257.76,0.54580
5251.97,0.53557
5246.19,0.52488
5240.4,0.51727
5234.61,0.51116
5228.83,0.50320
5223.04,0.49754
5217.26,0.49379
5211.47,0.49163
5205.68,0.48931
5199.9,0.48933
5194.11,0.48602
5188.32,0.48734
5182.54,0.48845
5176.75,0.48992
5170.97,0.49185
5165.18,0.49557
5159.39,0.49586
5153.61,0.49948
5147.82,0.50268
5142.03,0.50582
5136.25,0.50930
5130.46,0.51274
5124.68,0.51632
5118.89,0.52102
5113.1,0.52278
5107.32,0.52580
5101.53,0.52792
5095.75,0.52992
5089.96,0.53407
5084.17,0.53675
5078.39,0.53969
5072.6,0.54319
5066.81,0.54497
5061.03,0.54924
5055.24,0.55195
5049.46,0.55491
5043.67,0.55536
5037.88,0.55795
5032.1,0.56129
5026.31,0.56197
5020.52,0.56358
5014.74,0.56381
5008.95,0.56563
5003.17,0.56449
4997.38,0.56559
4991.59,0.56509
4985.81,0.56494
4980.02,0.56366
4974.23,0.56148
4968.45,0.55836
4962.66,0.55720
4956.88,0.55337
4951.09,0.54879
4945.3,0.54546
4939.52,0.53909
4933.73,0.53603
4927.94,0.53052
4922.16,0.52597
4916.37,0.52000
4910.59,0.51576
4904.8,0.51115
4899.01,0.50437
4893.23,0.50088
4887.44,0.49455
4881.65,0.49044
4875.87,0.48629
4870.08,0.48224
4864.3,0.47729
4858.51,0.47354
4852.72,0.46915
4846.94,0.46633
4841.15,0.46289
4835.36,0.45879
4829.58,0.45592
4823.79,0.45261
4818.01,0.44952
4812.22,0.44648
4806.43,0.44539
4800.65,0.44320
4794.86,0.44291
4789.07,0.44135
4783.29,0.43963
4777.5,0.43835
4771.72,0.43699
4765.93,0.43739
4760.14,0.43563
4754.36,0.43506
4748.57,0.43629
4742.78,0.43592
4737,0.43703
4731.21,0.43665
4725.43,0.43754
4719.64,0.43846
4713.85,0.43747
4708.07,0.43892
4702.28,0.43951
4696.49,0.44122
4690.71,0.44186
4684.92,0.44250
4679.14,0.44374
4673.35,0.44369
4667.56,0.44628
4661.78,0.44723
4655.99,0.45097
4650.2,0.45269
4644.42,0.45477
4638.63,0.45783
4632.85,0.45878
4627.06,0.46149
4621.27,0.46453
4615.49,0.46852
4609.7,0.46947
4603.92,0.47391
4598.13,0.47575
4592.34,0.47780
4586.56,0.48050
4580.77,0.48206
4574.98,0.48346
4569.2,0.48578
4563.41,0.48636
4557.63,0.48831
4551.84,0.48997
4546.05,0.49136
4540.27,0.49298
4534.48,0.49266
4528.69,0.49389
4522.91,0.49306
4517.12,0.49424
4511.34,0.49370
4505.55,0.49317
4499.76,0.49095
4493.98,0.48770
4488.19,0.48594
4482.4,0.48249
4476.62,0.47589
4470.83,0.47095
4465.05,0.46499
4459.26,0.45837
4453.47,0.45284
4447.69,0.44457
4441.9,0.43746
4436.11,0.43164
4430.33,0.42440
4424.54,0.41707
4418.76,0.41008
4412.97,0.40458
4407.18,0.39960
4401.4,0.39757
4395.61,0.39711
4389.82,0.39707
4384.04,0.39850
4378.25,0.40042
4372.47,0.40334
4366.68,0.40513
4360.89,0.40688
4355.11,0.40727
4349.32,0.40719
4343.53,0.40597
4337.75,0.40542
4331.96,0.40425
4326.18,0.40161
4320.39,0.39993
4314.6,0.39697
4308.82,0.39460
4303.03,0.39296
4297.24,0.39030
4291.46,0.38809
4285.67,0.38672
4279.89,0.38570
4274.1,0.38592
4268.31,0.38673
4262.53,0.38832
4256.74,0.38889
4250.95,0.39046
4245.17,0.39130
4239.38,0.39234
4233.6,0.39290
4227.81,0.39332
4222.02,0.39298
4216.24,0.39228
4210.45,0.39210
4204.66,0.39246
4198.88,0.39321
4193.09,0.39329
4187.31,0.39415
4181.52,0.39547
4175.73,0.39655
4169.95,0.39791
4164.16,0.39878
4158.37,0.39908
4152.59,0.39808
4146.8,0.39653
4141.02,0.39404
4135.23,0.39149
4129.44,0.38786
4123.66,0.38427
4117.87,0.38084
4112.09,0.37626
4106.3,0.37203
4100.51,0.36676
4094.73,0.36139
4088.94,0.35635
4083.15,0.35070
4077.37,0.34631
4071.58,0.34116
4065.8,0.33536
4060.01,0.32985
4054.22,0.32415
4048.44,0.32035
4042.65,0.31562
4036.86,0.31170
4031.08,0.30857
4025.29,0.30600
4019.51,0.30476
4013.72,0.30365
4007.93,0.30331
4002.15,0.30437
3996.36,0.30494
3990.57,0.30700
3984.79,0.30814
3979,0.30961
3973.22,0.31073
3967.43,0.31284
3961.64,0.31548
3955.86,0.31743
3950.07,0.31998
3944.28,0.32265
3938.5,0.32513
3932.71,0.32793
3926.93,0.33161
3921.14,0.33391
3915.35,0.33586
3909.57,0.33835
3903.78,0.34059
3897.99,0.34313
3892.21,0.34553
3886.42,0.34802
3880.64,0.34979
3874.85,0.35167
3869.06,0.35398
3863.28,0.35649
3857.49,0.35894
3851.7,0.36172
3845.92,0.36352
3840.13,0.36619
3834.35,0.36743
3828.56,0.36831
3822.77,0.36848
3816.99,0.36928
3811.2,0.36790
3805.41,0.36817
3799.63,0.36820
3793.84,0.36698
3788.06,0.36646
3782.27,0.36607
3776.48,0.36453
3770.7,0.36360
3764.91,0.36201
3759.12,0.35987
3753.34,0.35745
3747.55,0.35511
3741.77,0.35126
3735.98,0.34797
3730.19,0.34322
3724.41,0.33762
3718.62,0.33197
3712.83,0.32518
3707.05,0.31608
3701.26,0.30655
3695.48,0.29516
3689.69,0.28216
3683.9,0.26444
3678.12,0.24769
3672.33,0.22624
3666.54,0.20507
3660.76,0.18739
3654.97,0.17056
3649.19,0.15593
3643.4,0.14243
3637.61,0.13072
3631.83,0.12176
3626.04,0.11246
3620.25,0.10567
3614.47,0.09856
3608.68,0.09282
3602.9,0.08611
3597.11,0.08122
3591.32,0.07726
3585.54,0.07254
3579.75,0.06882
3573.97,0.06579
3568.18,0.06315
3562.39,0.06026
3556.61,0.05825
3550.82,0.05624
3545.03,0.05439
3539.25,0.05294
3533.46,0.05177
3527.68,0.05048
3521.89,0.04862
3516.1,0.04792
3510.32,0.04700
3504.53,0.04673
3498.74,0.04466
3492.96,0.04434
3487.17,0.04362
3481.39,0.04306
3475.6,0.04286
3469.81,0.04284
3464.03,0.04261
3458.24,0.04204
3452.45,0.04095
3446.67,0.04114
3440.88,0.04080
3435.1,0.04088
3429.31,0.04084
3423.52,0.04079
3417.74,0.04080
3411.95,0.04012
3406.16,0.04001
3400.38,0.04018
3394.59,0.04116
3388.81,0.04099
3383.02,0.04165
3377.23,0.04074
3371.45,0.04068
3365.66,0.04132
3359.87,0.04079
3354.09,0.04117
3348.3,0.04199
3342.52,0.04264
3336.73,0.04358
3330.94,0.04368
3325.16,0.04448
3319.37,0.04495
3313.58,0.04599
3307.8,0.04627
3302.01,0.04707
3296.23,0.04761
3290.44,0.04775
3284.65,0.04831
3278.87,0.04890
3273.08,0.05010
3267.29,0.05067
3261.51,0.05202
3255.72,0.05303
3249.94,0.05384
3244.15,0.05502
3238.36,0.05620
3232.58,0.05720
3226.79,0.05790
3221,0.05946
3215.22,0.06043
3209.43,0.06143
3203.65,0.06300
3197.86,0.06377
3192.07,0.06528
3186.29,0.06719
3180.5,0.06847
3174.71,0.06989
3168.93,0.07165
3163.14,0.07307
3157.36,0.07446
3151.57,0.07558
3145.78,0.07700
3140,0.07874
3134.21,0.08052
3128.42,0.08206
3122.64,0.08367
3116.85,0.08477
3111.07,0.08705
3105.28,0.08801
3099.49,0.08971
3093.71,0.09107
3087.92,0.09230
3082.14,0.09311
3076.35,0.09453
3070.56,0.09558
3064.78,0.09765
3058.99,0.09908
3053.2,0.10077
3047.42,0.10276
3041.63,0.10363
3035.85,0.10447
3030.06,0.10484
3024.27,0.10487
3018.49,0.10392
3012.7,0.10248
3006.91,0.10146
3001.13,0.09910
2995.34,0.09761
2989.56,0.09498
2983.77,0.09117
2977.98,0.08578
2972.2,0.08004
2966.41,0.07625
2960.62,0.07374
2954.84,0.07144
2949.05,0.06896
2943.27,0.06594
2937.48,0.06495
2931.69,0.06409
2925.91,0.06479
2920.12,0.06478
2914.33,0.06492
2908.55,0.06514
2902.76,0.06511
2896.98,0.06674
2891.19,0.06770
2885.4,0.06899
2879.62,0.06971
2873.83,0.07057
2868.04,0.07266
2862.26,0.07505
2856.47,0.07637
2850.69,0.08020
2844.9,0.08441
2839.11,0.08924
2833.33,0.09476
2827.54,0.10040
2821.75,0.10575
2815.97,0.11020
2810.18,0.11442
2804.4,0.11798
2798.61,0.12063
2792.82,0.12343
2787.04,0.12518
2781.25,0.12658
2775.46,0.12805
2769.68,0.12922
2763.89,0.12997
2758.11,0.13105
2752.32,0.13159
2746.53,0.13187
2740.75,0.13216
2734.96,0.13299
2729.17,0.13413
2723.39,0.13600
2717.6,0.13766
2711.82,0.13890
2706.03,0.14162
2700.24,0.14340
2694.46,0.14541
2688.67,0.14759
2682.88,0.14953
2677.1,0.15023
2671.31,0.15177
2665.53,0.15316
2659.74,0.15468
2653.95,0.15592
2648.17,0.15679
2642.38,0.15829
2636.59,0.15952
2630.81,0.16105
2625.02,0.16298
2619.24,0.16452
2613.45,0.16567
2607.66,0.16755
2601.88,0.16888
2596.09,0.17018
2590.3,0.17095
2584.52,0.17301
2578.73,0.17391
2572.95,0.17444
2567.16,0.17551
2561.37,0.17592
2555.59,0.17596
2549.8,0.17676
2544.02,0.17723
2538.23,0.17798
2532.44,0.17923
2526.66,0.18069
2520.87,0.18256
2515.08,0.18369
2509.3,0.18563
2503.51,0.18835
2497.73,0.19101
2491.94,0.19328
2486.15,0.19572
2480.37,0.19759
2474.58,0.19970
2468.79,0.20212
2463.01,0.20427
2457.22,0.20644
2451.44,0.20835
2445.65,0.21069
2439.86,0.21264
2434.08,0.21518
2428.29,0.21786
2422.5,0.22049
2416.72,0.22356
2410.93,0.22594
2405.15,0.22856
2399.36,0.23117
2393.57,0.23352
2387.79,0.23613
2382,0.23815
2376.21,0.24062
2370.43,0.24360
2364.64,0.24528
2358.86,0.24663
2353.07,0.24794
2347.28,0.24923
2341.5,0.25128
2335.71,0.25169
2329.92,0.25298
2324.14,0.25362
2318.35,0.25459
2312.57,0.25509
2306.78,0.25494
2300.99,0.25470
2295.21,0.25446
2289.42,0.25435
2283.63,0.25429
2277.85,0.25417
2272.06,0.25322
2266.28,0.25209
2260.49,0.25079
2254.7,0.24946
2248.92,0.24879
2243.13,0.24813
2237.34,0.24782
2231.56,0.24695
2225.77,0.24658
2219.99,0.24662
2214.2,0.24622
2208.41,0.24612
2202.63,0.24461
2196.84,0.24294
2191.05,0.24089
2185.27,0.23772
2179.48,0.23508
2173.7,0.23240
2167.91,0.22926
2162.12,0.22682
2156.34,0.22503
2150.55,0.22345
2144.76,0.22209
2138.98,0.22081
2133.19,0.22034
2127.41,0.22077
2121.62,0.22178
2115.83,0.22215
2110.05,0.22310
2104.26,0.22391
2098.47,0.22459
2092.69,0.22483
2086.9,0.22528
2081.12,0.22413
2075.33,0.22325
2069.54,0.22207
2063.76,0.22076
2057.97,0.22078
2052.19,0.22054
2046.4,0.22134
2040.61,0.22298
2034.83,0.22520
2029.04,0.22810
2023.25,0.23087
2017.47,0.23300
2011.68,0.23539
2005.9,0.23731
2000.11,0.23868
1994.32,0.24052
1988.54,0.24217
1982.75,0.24355
1976.96,0.24446
1971.18,0.24538
1965.39,0.24691
1959.61,0.24853
1953.82,0.25052
1948.03,0.25282
1942.25,0.25451
1936.46,0.25589
1930.67,0.25744
1924.89,0.25829
1919.1,0.25865
1913.32,0.25888
1907.53,0.25860
1901.74,0.25820
1895.96,0.25747
1890.17,0.25659
1884.38,0.25612
1878.6,0.25545
1872.81,0.25439
1867.03,0.25340
1861.24,0.25188
1855.45,0.24988
1849.67,0.24801
1843.88,0.24535
1838.09,0.24149
1832.31,0.23714
1826.52,0.23111
1820.74,0.22316
1814.95,0.21412
1809.16,0.20256
1803.38,0.19057
1797.59,0.17706
1791.8,0.16321
1786.02,0.14964
1780.23,0.13603
1774.45,0.12245
1768.66,0.10736
1762.87,0.09361
1757.09,0.08044
1751.3,0.07156
1745.51,0.06574
1739.73,0.06294
1733.94,0.06224
1728.16,0.06243
1722.37,0.06365
1716.58,0.06678
1710.8,0.06970
1705.01,0.07211
1699.22,0.07307
1693.44,0.07156
1687.65,0.06991
1681.87,0.06711
1676.08,0.06513
1670.29,0.06357
1664.51,0.06267
1658.72,0.06270
1652.93,0.06323
1647.15,0.06306
1641.36,0.06356
1635.58,0.06345
1629.79,0.06330
1624,0.06287
1618.22,0.06209
1612.43,0.06031
1606.64,0.05876
1600.86,0.05850
1595.07,0.05923
1589.29,0.06170
1583.5,0.06576
1577.71,0.07280
1571.93,0.08142
1566.14,0.08757
1560.35,0.09101
1554.57,0.09209
1548.78,0.09214
1543,0.09127
1537.21,0.08640
1531.42,0.07906
1525.64,0.06904
1519.85,0.05667
1514.07,0.04998
1508.28,0.05116
1502.49,0.05607
1496.71,0.06180
1490.92,0.06504
1485.13,0.06431
1479.35,0.06095
1473.56,0.05546
1467.78,0.04970
1461.99,0.04859
1456.2,0.04802
1450.42,0.04844
1444.63,0.04920
1438.84,0.04818
1433.06,0.04564
1427.27,0.04561
1421.49,0.04723
1415.7,0.04916
1409.91,0.05059
1404.13,0.05117
1398.34,0.05157
1392.55,0.05029
1386.77,0.04845
1380.98,0.04634
1375.2,0.04553
1369.41,0.04578
1363.62,0.04688
1357.84,0.04781
1352.05,0.04863
1346.26,0.04843
1340.48,0.04705
1334.69,0.04685
1328.91,0.04679
1323.12,0.04599
1317.33,0.04568
1311.55,0.04622
1305.76,0.04723
1299.97,0.04706
1294.19,0.04556
1288.4,0.04391
1282.62,0.04249
1276.83,0.04228
1271.04,0.04207
1265.26,0.04320
1259.47,0.04445
1253.68,0.04539
1247.9,0.04578
1242.11,0.04606
1236.33,0.04590
1230.54,0.04582
1224.75,0.04621
1218.97,0.04670
1213.18,0.04704
1207.39,0.04665
1201.61,0.04689
1195.82,0.04679
1190.04,0.04600
1184.25,0.04353
1178.46,0.04084
1172.68,0.03818
1166.89,0.03831
1161.1,0.04041
1155.32,0.04162
1149.53,0.04062
1143.75,0.03936
1137.96,0.03828
1132.17,0.03644
1126.39,0.03608
1120.6,0.03645
1114.81,0.03737
1109.03,0.03931
1103.24,0.04002
1097.46,0.03987
1091.67,0.03964
1085.88,0.03906
1080.1,0.04079
1074.31,0.04274
1068.52,0.04554
1062.74,0.05178
1056.95,0.05517
1051.17,0.05658
1045.38,0.05431
1039.59,0.05528
1033.81,0.06007
1028.02,0.06173
1022.24,0.06318
1016.45,0.06511
1010.66,0.06689
1004.88,0.06750
999.09,0.06926
993.304,0.07142
987.518,0.07473
981.731,0.08045
975.945,0.08441
970.159,0.08691
964.373,0.08928
958.586,0.09312
952.8,0.09659
947.014,0.09861
941.228,0.09968
935.441,0.10163
929.655,0.10246
923.869,0.10341
918.083,0.10183
912.297,0.09809
906.51,0.09340
900.724,0.08876
894.938,0.08927
889.152,0.09219
883.365,0.09304
877.579,0.09384
871.793,0.09386
866.007,0.09546
860.22,0.09634
854.434,0.09940
848.648,0.10133
842.862,0.10135
837.075,0.09935
831.289,0.09597
825.503,0.09212
819.717,0.08707
813.931,0.08534
808.144,0.08525
802.358,0.08565
796.572,0.08732
790.786,0.08622
784.999,0.08466
779.213,0.08297
773.427,0.08068
767.641,0.07892
761.854,0.07874
756.068,0.07625
750.282,0.07561
744.496,0.07452
738.709,0.07219
732.923,0.07087
727.137,0.06897
721.351,0.06744
715.565,0.06603
709.778,0.06612
703.992,0.06483
698.206,0.06305
692.42,0.06282
686.633,0.06230
680.847,0.06032
675.061,0.05862
669.275,0.05793
663.488,0.05728
657.702,0.05771
651.916,0.05830
646.13,0.05719
640.343,0.05667
634.557,0.05667
628.771,0.05478
622.985,0.05491
617.198,0.05533
611.412,0.05617
605.626,0.05789
599.84,0.05638