File: 01_Data/Pressure_Treated_Deck/FTIR/IS/Deprecated/Pressure_Treated_Deck_IS_S_220926_R7.dpt
7497.03,0.76548
7491.25,0.76770
7485.46,0.75595
7479.67,0.75594
7473.89,0.76093
7468.1,0.77117
7462.32,0.76720
7456.53,0.76195
7450.74,0.75277
7444.96,0.75907
7439.17,0.73844
7433.38,0.74743
7427.6,0.74256
7421.81,0.74366
7416.03,0.74879
7410.24,0.73425
7404.45,0.74164
7398.67,0.73924
7392.88,0.72910
7387.09,0.73765
7381.31,0.74209
7375.52,0.74042
7369.74,0.73615
7363.95,0.72416
7358.16,0.73378
7352.38,0.73863
7346.59,0.72681
7340.8,0.73401
7335.02,0.72408
7329.23,0.72129
7323.45,0.72695
7317.66,0.72578
7311.87,0.72432
7306.09,0.72583
7300.3,0.72367
7294.51,0.73158
7288.73,0.71378
7282.94,0.72211
7277.16,0.72465
7271.37,0.72879
7265.58,0.71927
7259.8,0.72267
7254.01,0.72042
7248.22,0.71810
7242.44,0.72375
7236.65,0.72139
7230.87,0.71604
7225.08,0.72103
7219.29,0.71736
7213.51,0.72018
7207.72,0.71848
7201.93,0.71258
7196.15,0.71744
7190.36,0.71786
7184.58,0.70805
7178.79,0.71103
7173,0.71060
7167.22,0.70258
7161.43,0.70562
7155.65,0.70816
7149.86,0.70318
7144.07,0.70312
7138.29,0.69978
7132.5,0.69130
7126.71,0.68456
7120.93,0.68788
7115.14,0.67934
7109.36,0.68065
7103.57,0.68177
7097.78,0.67009
7092,0.66811
7086.21,0.66424
7080.42,0.65699
7074.64,0.65018
7068.85,0.64465
7063.07,0.63864
7057.28,0.63910
7051.49,0.63149
7045.71,0.62385
7039.92,0.62111
7034.13,0.62105
7028.35,0.61261
7022.56,0.61535
7016.78,0.60935
7010.99,0.60368
7005.2,0.60507
6999.42,0.59636
6993.63,0.59224
6987.84,0.59118
6982.06,0.59743
6976.27,0.59241
6970.49,0.58762
6964.7,0.58665
6958.91,0.58660
6953.13,0.58653
6947.34,0.58038
6941.55,0.58298
6935.77,0.57866
6929.98,0.58739
6924.2,0.58285
6918.41,0.57905
6912.62,0.58003
6906.84,0.58236
6901.05,0.57881
6895.26,0.58178
6889.48,0.57429
6883.69,0.57473
6877.91,0.58149
6872.12,0.58256
6866.33,0.58008
6860.55,0.58376
6854.76,0.57635
6848.97,0.57698
6843.19,0.58358
6837.4,0.57598
6831.62,0.58116
6825.83,0.57416
6820.04,0.57574
6814.26,0.57905
6808.47,0.57947
6802.68,0.57876
6796.9,0.57813
6791.11,0.58356
6785.33,0.58267
6779.54,0.57847
6773.75,0.57766
6767.97,0.57267
6762.18,0.58101
6756.39,0.58190
6750.61,0.57629
6744.82,0.58133
6739.04,0.58504
6733.25,0.58186
6727.46,0.58042
6721.68,0.58302
6715.89,0.58510
6710.1,0.58261
6704.32,0.58389
6698.53,0.58275
6692.75,0.58362
6686.96,0.58704
6681.17,0.59073
6675.39,0.58844
6669.6,0.58768
6663.82,0.58904
6658.03,0.58834
6652.24,0.59159
6646.46,0.58858
6640.67,0.59080
6634.88,0.59338
6629.1,0.59569
6623.31,0.59415
6617.53,0.59695
6611.74,0.60173
6605.95,0.59877
6600.17,0.60128
6594.38,0.59841
6588.59,0.60391
6582.81,0.59888
6577.02,0.59385
6571.24,0.60664
6565.45,0.60199
6559.66,0.60269
6553.88,0.60744
6548.09,0.60487
6542.3,0.60256
6536.52,0.60769
6530.73,0.61028
6524.95,0.60948
6519.16,0.60864
6513.37,0.60769
6507.59,0.61057
6501.8,0.61168
6496.01,0.60859
6490.23,0.60974
6484.44,0.60721
6478.66,0.61068
6472.87,0.61032
6467.08,0.61176
6461.3,0.60990
6455.51,0.60868
6449.72,0.61707
6443.94,0.61404
6438.15,0.61397
6432.37,0.61435
6426.58,0.61413
6420.79,0.61736
6415.01,0.62119
6409.22,0.61493
6403.43,0.61355
6397.65,0.61420
6391.86,0.61968
6386.08,0.61519
6380.29,0.61766
6374.5,0.61749
6368.72,0.61686
6362.93,0.62238
6357.14,0.62086
6351.36,0.62067
6345.57,0.61907
6339.79,0.62293
6334,0.62390
6328.21,0.62339
6322.43,0.62345
6316.64,0.62206
6310.85,0.62542
6305.07,0.62817
6299.28,0.62928
6293.5,0.62776
6287.71,0.62596
6281.92,0.62794
6276.14,0.62765
6270.35,0.62917
6264.56,0.63123
6258.78,0.63158
6252.99,0.63650
6247.21,0.63838
6241.42,0.63786
6235.63,0.64188
6229.85,0.64146
6224.06,0.64124
6218.27,0.64490
6212.49,0.64576
6206.7,0.64683
6200.92,0.64949
6195.13,0.65192
6189.34,0.65439
6183.56,0.65243
6177.77,0.65693
6171.98,0.65585
6166.2,0.65702
6160.41,0.65908
6154.63,0.65977
6148.84,0.66327
6143.05,0.66040
6137.27,0.66224
6131.48,0.66862
6125.7,0.66401
6119.91,0.66593
6114.12,0.66508
6108.34,0.66527
6102.55,0.66733
6096.76,0.66876
6090.98,0.66776
6085.19,0.66883
6079.41,0.66770
6073.62,0.66995
6067.83,0.66560
6062.05,0.66539
6056.26,0.66636
6050.47,0.66436
6044.69,0.66116
6038.9,0.66021
6033.12,0.65953
6027.33,0.65650
6021.54,0.65693
6015.76,0.65385
6009.97,0.65532
6004.18,0.65228
5998.4,0.65001
5992.61,0.65013
5986.83,0.65037
5981.04,0.65000
5975.25,0.64768
5969.47,0.64752
5963.68,0.64379
5957.89,0.64821
5952.11,0.64705
5946.32,0.64930
5940.54,0.64971
5934.75,0.64755
5928.96,0.64944
5923.18,0.64869
5917.39,0.64495
5911.6,0.65041
5905.82,0.64662
5900.03,0.64491
5894.25,0.64112
5888.46,0.64323
5882.67,0.63980
5876.89,0.64099
5871.1,0.64276
5865.31,0.64371
5859.53,0.64062
5853.74,0.64128
5847.96,0.64178
5842.17,0.64097
5836.38,0.64113
5830.6,0.63998
5824.81,0.63730
5819.02,0.63644
5813.24,0.63528
5807.45,0.63457
5801.67,0.63332
5795.88,0.63215
5790.09,0.63534
5784.31,0.63780
5778.52,0.63691
5772.73,0.63464
5766.95,0.63711
5761.16,0.63781
5755.38,0.63672
5749.59,0.63724
5743.8,0.63821
5738.02,0.63730
5732.23,0.63759
5726.44,0.63958
5720.66,0.63711
5714.87,0.63857
5709.09,0.64015
5703.3,0.63679
5697.51,0.63522
5691.73,0.63615
5685.94,0.63662
5680.15,0.63531
5674.37,0.63688
5668.58,0.63832
5662.8,0.63562
5657.01,0.63913
5651.22,0.63818
5645.44,0.63699
5639.65,0.63593
5633.87,0.63687
5628.08,0.63749
5622.29,0.63787
5616.51,0.63708
5610.72,0.63610
5604.93,0.63733
5599.15,0.63871
5593.36,0.63838
5587.58,0.63587
5581.79,0.63860
5576,0.63775
5570.22,0.63725
5564.43,0.63733
5558.64,0.63930
5552.86,0.63950
5547.07,0.64053
5541.29,0.64176
5535.5,0.64199
5529.71,0.64152
5523.93,0.64141
5518.14,0.64115
5512.35,0.64308
5506.57,0.64161
5500.78,0.64373
5495,0.64419
5489.21,0.64464
5483.42,0.64664
5477.64,0.64546
5471.85,0.64738
5466.06,0.64771
5460.28,0.64710
5454.49,0.64764
5448.71,0.64760
5442.92,0.64992
5437.13,0.65197
5431.35,0.65208
5425.56,0.65220
5419.77,0.65572
5413.99,0.65585
5408.2,0.65694
5402.42,0.65818
5396.63,0.65880
5390.84,0.65885
5385.06,0.65877
5379.27,0.65861
5373.48,0.65893
5367.7,0.65814
5361.91,0.65821
5356.13,0.65793
5350.34,0.65761
5344.55,0.65675
5338.77,0.65749
5332.98,0.65237
5327.19,0.65104
5321.41,0.64830
5315.62,0.64501
5309.84,0.63976
5304.05,0.63423
5298.26,0.62787
5292.48,0.62001
5286.69,0.61035
5280.9,0.60372
5275.12,0.59138
5269.33,0.58000
5263.55,0.56839
5257.76,0.55878
5251.97,0.54906
5246.19,0.53859
5240.4,0.53185
5234.61,0.52291
5228.83,0.51714
5223.04,0.51233
5217.26,0.51030
5211.47,0.50672
5205.68,0.50426
5199.9,0.50262
5194.11,0.50287
5188.32,0.50334
5182.54,0.50390
5176.75,0.50412
5170.97,0.50692
5165.18,0.50993
5159.39,0.51290
5153.61,0.51498
5147.82,0.51739
5142.03,0.52068
5136.25,0.52332
5130.46,0.52728
5124.68,0.53026
5118.89,0.53349
5113.1,0.53633
5107.32,0.53983
5101.53,0.54169
5095.75,0.54536
5089.96,0.54769
5084.17,0.55102
5078.39,0.55441
5072.6,0.55532
5066.81,0.55844
5061.03,0.56054
5055.24,0.56378
5049.46,0.56492
5043.67,0.56682
5037.88,0.56929
5032.1,0.56975
5026.31,0.57199
5020.52,0.57340
5014.74,0.57367
5008.95,0.57401
5003.17,0.57525
4997.38,0.57533
4991.59,0.57441
4985.81,0.57287
4980.02,0.56965
4974.23,0.56813
4968.45,0.56531
4962.66,0.56176
4956.88,0.55720
4951.09,0.55372
4945.3,0.54859
4939.52,0.54265
4933.73,0.53742
4927.94,0.53330
4922.16,0.52833
4916.37,0.52222
4910.59,0.51761
4904.8,0.51153
4899.01,0.50621
4893.23,0.50100
4887.44,0.49663
4881.65,0.49211
4875.87,0.48715
4870.08,0.48231
4864.3,0.47723
4858.51,0.47355
4852.72,0.46972
4846.94,0.46623
4841.15,0.46326
4835.36,0.45869
4829.58,0.45599
4823.79,0.45314
4818.01,0.44921
4812.22,0.44760
4806.43,0.44566
4800.65,0.44420
4794.86,0.44184
4789.07,0.44161
4783.29,0.44008
4777.5,0.43963
4771.72,0.43886
4765.93,0.43773
4760.14,0.43712
4754.36,0.43659
4748.57,0.43633
4742.78,0.43719
4737,0.43672
4731.21,0.43730
4725.43,0.43799
4719.64,0.43843
4713.85,0.43969
4708.07,0.44069
4702.28,0.44101
4696.49,0.44309
4690.71,0.44261
4684.92,0.44372
4679.14,0.44398
4673.35,0.44632
4667.56,0.44680
4661.78,0.44980
4655.99,0.45212
4650.2,0.45316
4644.42,0.45591
4638.63,0.45826
4632.85,0.45958
4627.06,0.46252
4621.27,0.46581
4615.49,0.46970
4609.7,0.47240
4603.92,0.47445
4598.13,0.47714
4592.34,0.47889
4586.56,0.48132
4580.77,0.48348
4574.98,0.48518
4569.2,0.48767
4563.41,0.48837
4557.63,0.49017
4551.84,0.49141
4546.05,0.49211
4540.27,0.49351
4534.48,0.49396
4528.69,0.49549
4522.91,0.49581
4517.12,0.49523
4511.34,0.49587
4505.55,0.49397
4499.76,0.49300
4493.98,0.48957
4488.19,0.48598
4482.4,0.48263
4476.62,0.47831
4470.83,0.47224
4465.05,0.46547
4459.26,0.45945
4453.47,0.45302
4447.69,0.44519
4441.9,0.43875
4436.11,0.43160
4430.33,0.42465
4424.54,0.41650
4418.76,0.41045
4412.97,0.40533
4407.18,0.40059
4401.4,0.39912
4395.61,0.39820
4389.82,0.39889
4384.04,0.39954
4378.25,0.40119
4372.47,0.40390
4366.68,0.40637
4360.89,0.40771
4355.11,0.40809
4349.32,0.40743
4343.53,0.40635
4337.75,0.40550
4331.96,0.40412
4326.18,0.40277
4320.39,0.40043
4314.6,0.39772
4308.82,0.39520
4303.03,0.39343
4297.24,0.39071
4291.46,0.38892
4285.67,0.38779
4279.89,0.38709
4274.1,0.38636
4268.31,0.38750
4262.53,0.38877
4256.74,0.39038
4250.95,0.39164
4245.17,0.39265
4239.38,0.39316
4233.6,0.39408
4227.81,0.39346
4222.02,0.39330
4216.24,0.39335
4210.45,0.39412
4204.66,0.39421
4198.88,0.39550
4193.09,0.39610
4187.31,0.39622
4181.52,0.39652
4175.73,0.39899
4169.95,0.39972
4164.16,0.40070
4158.37,0.40142
4152.59,0.40034
4146.8,0.39811
4141.02,0.39617
4135.23,0.39428
4129.44,0.39067
4123.66,0.38704
4117.87,0.38299
4112.09,0.37878
4106.3,0.37432
4100.51,0.36932
4094.73,0.36408
4088.94,0.35877
4083.15,0.35312
4077.37,0.34809
4071.58,0.34263
4065.8,0.33741
4060.01,0.33138
4054.22,0.32659
4048.44,0.32173
4042.65,0.31704
4036.86,0.31337
4031.08,0.31049
4025.29,0.30776
4019.51,0.30648
4013.72,0.30554
4007.93,0.30547
4002.15,0.30613
3996.36,0.30710
3990.57,0.30812
3984.79,0.30991
3979,0.31143
3973.22,0.31286
3967.43,0.31456
3961.64,0.31686
3955.86,0.31986
3950.07,0.32249
3944.28,0.32501
3938.5,0.32776
3932.71,0.33113
3926.93,0.33360
3921.14,0.33656
3915.35,0.33870
3909.57,0.34164
3903.78,0.34371
3897.99,0.34580
3892.21,0.34844
3886.42,0.35060
3880.64,0.35250
3874.85,0.35469
3869.06,0.35631
3863.28,0.36023
3857.49,0.36298
3851.7,0.36592
3845.92,0.36764
3840.13,0.36972
3834.35,0.37172
3828.56,0.37180
3822.77,0.37317
3816.99,0.37291
3811.2,0.37210
3805.41,0.37272
3799.63,0.37276
3793.84,0.37223
3788.06,0.37133
3782.27,0.37061
3776.48,0.36969
3770.7,0.36867
3764.91,0.36674
3759.12,0.36591
3753.34,0.36332
3747.55,0.36106
3741.77,0.35764
3735.98,0.35543
3730.19,0.35108
3724.41,0.34593
3718.62,0.33982
3712.83,0.33373
3707.05,0.32475
3701.26,0.31522
3695.48,0.30426
3689.69,0.29103
3683.9,0.27423
3678.12,0.25772
3672.33,0.23719
3666.54,0.21622
3660.76,0.19803
3654.97,0.18067
3649.19,0.16569
3643.4,0.15138
3637.61,0.14029
3631.83,0.13078
3626.04,0.12015
3620.25,0.11161
3614.47,0.10465
3608.68,0.09717
3602.9,0.09062
3597.11,0.08505
3591.32,0.08045
3585.54,0.07564
3579.75,0.07264
3573.97,0.06811
3568.18,0.06562
3562.39,0.06263
3556.61,0.06001
3550.82,0.05839
3545.03,0.05556
3539.25,0.05397
3533.46,0.05232
3527.68,0.05052
3521.89,0.05045
3516.1,0.04889
3510.32,0.04779
3504.53,0.04602
3498.74,0.04631
3492.96,0.04469
3487.17,0.04488
3481.39,0.04337
3475.6,0.04304
3469.81,0.04208
3464.03,0.04138
3458.24,0.04150
3452.45,0.04198
3446.67,0.04141
3440.88,0.04128
3435.1,0.04098
3429.31,0.04078
3423.52,0.04095
3417.74,0.04072
3411.95,0.04074
3406.16,0.04129
3400.38,0.04077
3394.59,0.04120
3388.81,0.04163
3383.02,0.04143
3377.23,0.04157
3371.45,0.04157
3365.66,0.04109
3359.87,0.04146
3354.09,0.04182
3348.3,0.04214
3342.52,0.04292
3336.73,0.04368
3330.94,0.04422
3325.16,0.04490
3319.37,0.04513
3313.58,0.04550
3307.8,0.04600
3302.01,0.04734
3296.23,0.04728
3290.44,0.04851
3284.65,0.04795
3278.87,0.04913
3273.08,0.05029
3267.29,0.05133
3261.51,0.05217
3255.72,0.05377
3249.94,0.05442
3244.15,0.05562
3238.36,0.05683
3232.58,0.05763
3226.79,0.05975
3221,0.06027
3215.22,0.06211
3209.43,0.06264
3203.65,0.06347
3197.86,0.06602
3192.07,0.06699
3186.29,0.06882
3180.5,0.06948
3174.71,0.07137
3168.93,0.07288
3163.14,0.07412
3157.36,0.07649
3151.57,0.07798
3145.78,0.07957
3140,0.08118
3134.21,0.08271
3128.42,0.08433
3122.64,0.08544
3116.85,0.08698
3111.07,0.08924
3105.28,0.09075
3099.49,0.09175
3093.71,0.09327
3087.92,0.09461
3082.14,0.09635
3076.35,0.09700
3070.56,0.09851
3064.78,0.10003
3058.99,0.10160
3053.2,0.10308
3047.42,0.10461
3041.63,0.10509
3035.85,0.10617
3030.06,0.10703
3024.27,0.10680
3018.49,0.10588
3012.7,0.10472
3006.91,0.10254
3001.13,0.10068
2995.34,0.09897
2989.56,0.09672
2983.77,0.09243
2977.98,0.08694
2972.2,0.08097
2966.41,0.07706
2960.62,0.07441
2954.84,0.07196
2949.05,0.06895
2943.27,0.06671
2937.48,0.06524
2931.69,0.06449
2925.91,0.06520
2920.12,0.06470
2914.33,0.06507
2908.55,0.06533
2902.76,0.06561
2896.98,0.06666
2891.19,0.06810
2885.4,0.06932
2879.62,0.07003
2873.83,0.07121
2868.04,0.07268
2862.26,0.07484
2856.47,0.07699
2850.69,0.08033
2844.9,0.08497
2839.11,0.08978
2833.33,0.09502
2827.54,0.10150
2821.75,0.10637
2815.97,0.11090
2810.18,0.11552
2804.4,0.11945
2798.61,0.12235
2792.82,0.12459
2787.04,0.12678
2781.25,0.12810
2775.46,0.12952
2769.68,0.13046
2763.89,0.13160
2758.11,0.13235
2752.32,0.13346
2746.53,0.13358
2740.75,0.13395
2734.96,0.13425
2729.17,0.13580
2723.39,0.13714
2717.6,0.13897
2711.82,0.14048
2706.03,0.14281
2700.24,0.14518
2694.46,0.14730
2688.67,0.14934
2682.88,0.15042
2677.1,0.15205
2671.31,0.15355
2665.53,0.15473
2659.74,0.15624
2653.95,0.15723
2648.17,0.15848
2642.38,0.15985
2636.59,0.16083
2630.81,0.16309
2625.02,0.16473
2619.24,0.16580
2613.45,0.16753
2607.66,0.16890
2601.88,0.16970
2596.09,0.17179
2590.3,0.17293
2584.52,0.17460
2578.73,0.17577
2572.95,0.17643
2567.16,0.17670
2561.37,0.17766
2555.59,0.17839
2549.8,0.17834
2544.02,0.17880
2538.23,0.17992
2532.44,0.18088
2526.66,0.18282
2520.87,0.18364
2515.08,0.18511
2509.3,0.18732
2503.51,0.19005
2497.73,0.19273
2491.94,0.19495
2486.15,0.19710
2480.37,0.19967
2474.58,0.20153
2468.79,0.20391
2463.01,0.20565
2457.22,0.20804
2451.44,0.21025
2445.65,0.21216
2439.86,0.21482
2434.08,0.21757
2428.29,0.22017
2422.5,0.22280
2416.72,0.22544
2410.93,0.22812
2405.15,0.23064
2399.36,0.23328
2393.57,0.23593
2387.79,0.23838
2382,0.24034
2376.21,0.24311
2370.43,0.24584
2364.64,0.24781
2358.86,0.24934
2353.07,0.25109
2347.28,0.25238
2341.5,0.25390
2335.71,0.25531
2329.92,0.25575
2324.14,0.25680
2318.35,0.25759
2312.57,0.25822
2306.78,0.25808
2300.99,0.25793
2295.21,0.25789
2289.42,0.25758
2283.63,0.25804
2277.85,0.25766
2272.06,0.25686
2266.28,0.25555
2260.49,0.25412
2254.7,0.25323
2248.92,0.25273
2243.13,0.25195
2237.34,0.25146
2231.56,0.25075
2225.77,0.25070
2219.99,0.25038
2214.2,0.25080
2208.41,0.25025
2202.63,0.24858
2196.84,0.24741
2191.05,0.24519
2185.27,0.24258
2179.48,0.23941
2173.7,0.23655
2167.91,0.23369
2162.12,0.23181
2156.34,0.22928
2150.55,0.22781
2144.76,0.22681
2138.98,0.22498
2133.19,0.22452
2127.41,0.22499
2121.62,0.22587
2115.83,0.22706
2110.05,0.22789
2104.26,0.22856
2098.47,0.22924
2092.69,0.22974
2086.9,0.22954
2081.12,0.22929
2075.33,0.22782
2069.54,0.22629
2063.76,0.22552
2057.97,0.22496
2052.19,0.22533
2046.4,0.22599
2040.61,0.22730
2034.83,0.22952
2029.04,0.23239
2023.25,0.23502
2017.47,0.23773
2011.68,0.24014
2005.9,0.24197
2000.11,0.24360
1994.32,0.24494
1988.54,0.24668
1982.75,0.24795
1976.96,0.24895
1971.18,0.25031
1965.39,0.25185
1959.61,0.25331
1953.82,0.25501
1948.03,0.25728
1942.25,0.25936
1936.46,0.26100
1930.67,0.26184
1924.89,0.26299
1919.1,0.26338
1913.32,0.26318
1907.53,0.26295
1901.74,0.26204
1895.96,0.26157
1890.17,0.26071
1884.38,0.26009
1878.6,0.25951
1872.81,0.25854
1867.03,0.25745
1861.24,0.25594
1855.45,0.25402
1849.67,0.25152
1843.88,0.24849
1838.09,0.24480
1832.31,0.24038
1826.52,0.23454
1820.74,0.22623
1814.95,0.21638
1809.16,0.20455
1803.38,0.19213
1797.59,0.17840
1791.8,0.16410
1786.02,0.14998
1780.23,0.13599
1774.45,0.12267
1768.66,0.10732
1762.87,0.09327
1757.09,0.08057
1751.3,0.07134
1745.51,0.06535
1739.73,0.06295
1733.94,0.06244
1728.16,0.06270
1722.37,0.06440
1716.58,0.06682
1710.8,0.06948
1705.01,0.07257
1699.22,0.07375
1693.44,0.07259
1687.65,0.07088
1681.87,0.06821
1676.08,0.06629
1670.29,0.06477
1664.51,0.06421
1658.72,0.06418
1652.93,0.06484
1647.15,0.06487
1641.36,0.06487
1635.58,0.06510
1629.79,0.06477
1624,0.06399
1618.22,0.06305
1612.43,0.06094
1606.64,0.05953
1600.86,0.05911
1595.07,0.05963
1589.29,0.06173
1583.5,0.06661
1577.71,0.07365
1571.93,0.08179
1566.14,0.08837
1560.35,0.09220
1554.57,0.09354
1548.78,0.09371
1543,0.09192
1537.21,0.08701
1531.42,0.07983
1525.64,0.06939
1519.85,0.05670
1514.07,0.04992
1508.28,0.05115
1502.49,0.05602
1496.71,0.06188
1490.92,0.06550
1485.13,0.06472
1479.35,0.06127
1473.56,0.05564
1467.78,0.04972
1461.99,0.04823
1456.2,0.04853
1450.42,0.04886
1444.63,0.04974
1438.84,0.04861
1433.06,0.04588
1427.27,0.04552
1421.49,0.04692
1415.7,0.04900
1409.91,0.05094
1404.13,0.05153
1398.34,0.05166
1392.55,0.05035
1386.77,0.04848
1380.98,0.04661
1375.2,0.04550
1369.41,0.04573
1363.62,0.04704
1357.84,0.04816
1352.05,0.04881
1346.26,0.04818
1340.48,0.04738
1334.69,0.04666
1328.91,0.04660
1323.12,0.04638
1317.33,0.04617
1311.55,0.04662
1305.76,0.04752
1299.97,0.04693
1294.19,0.04542
1288.4,0.04397
1282.62,0.04244
1276.83,0.04213
1271.04,0.04239
1265.26,0.04313
1259.47,0.04485
1253.68,0.04528
1247.9,0.04497
1242.11,0.04566
1236.33,0.04555
1230.54,0.04560
1224.75,0.04634
1218.97,0.04654
1213.18,0.04641
1207.39,0.04608
1201.61,0.04696
1195.82,0.04719
1190.04,0.04589
1184.25,0.04327
1178.46,0.04045
1172.68,0.03810
1166.89,0.03868
1161.1,0.04104
1155.32,0.04173
1149.53,0.04084
1143.75,0.03966
1137.96,0.03846
1132.17,0.03709
1126.39,0.03625
1120.6,0.03656
1114.81,0.03729
1109.03,0.03878
1103.24,0.04042
1097.46,0.03933
1091.67,0.03976
1085.88,0.03917
1080.1,0.04073
1074.31,0.04311
1068.52,0.04613
1062.74,0.05195
1056.95,0.05580
1051.17,0.05608
1045.38,0.05500
1039.59,0.05543
1033.81,0.06006
1028.02,0.06201
1022.24,0.06339
1016.45,0.06557
1010.66,0.06696
1004.88,0.06762
999.09,0.06950
993.304,0.07225
987.518,0.07484
981.731,0.08050
975.945,0.08512
970.159,0.08703
964.373,0.08985
958.586,0.09352
952.8,0.09684
947.014,0.09954
941.228,0.10052
935.441,0.10240
929.655,0.10378
923.869,0.10410
918.083,0.10279
912.297,0.09884
906.51,0.09365
900.724,0.08989
894.938,0.08939
889.152,0.09239
883.365,0.09343
877.579,0.09468
871.793,0.09566
866.007,0.09682
860.22,0.09826
854.434,0.10008
848.648,0.10278
842.862,0.10368
837.075,0.10199
831.289,0.09838
825.503,0.09340
819.717,0.08862
813.931,0.08745
808.144,0.08649
802.358,0.08736
796.572,0.08900
790.786,0.08872
784.999,0.08675
779.213,0.08414
773.427,0.08236
767.641,0.08151
761.854,0.08094
756.068,0.07967
750.282,0.07780
744.496,0.07615
738.709,0.07480
732.923,0.07353
727.137,0.07013
721.351,0.06997
715.565,0.06694
709.778,0.06683
703.992,0.06621
698.206,0.06454
692.42,0.06382
686.633,0.06299
680.847,0.06124
675.061,0.05914
669.275,0.05834
663.488,0.05872
657.702,0.05817
651.916,0.05961
646.13,0.05867
640.343,0.05815
634.557,0.05643
628.771,0.05637
622.985,0.05661
617.198,0.05713
611.412,0.05743
605.626,0.05852
599.84,0.05831