File: 01_Data/Pressure_Treated_Deck/FTIR/IS/Deprecated/Pressure_Treated_Deck_IS_S_220926_R3.dpt
7497.03,0.75992
7491.25,0.77126
7485.46,0.75960
7479.67,0.76719
7473.89,0.75484
7468.1,0.75025
7462.32,0.76255
7456.53,0.76291
7450.74,0.75586
7444.96,0.74739
7439.17,0.75859
7433.38,0.75029
7427.6,0.74991
7421.81,0.75241
7416.03,0.74729
7410.24,0.74182
7404.45,0.74215
7398.67,0.73658
7392.88,0.74160
7387.09,0.74593
7381.31,0.73427
7375.52,0.74083
7369.74,0.72391
7363.95,0.73279
7358.16,0.73007
7352.38,0.73902
7346.59,0.73287
7340.8,0.72235
7335.02,0.72853
7329.23,0.71929
7323.45,0.72395
7317.66,0.72038
7311.87,0.71595
7306.09,0.72160
7300.3,0.72721
7294.51,0.71914
7288.73,0.72071
7282.94,0.71565
7277.16,0.72199
7271.37,0.71375
7265.58,0.72666
7259.8,0.72403
7254.01,0.72504
7248.22,0.71838
7242.44,0.72113
7236.65,0.71982
7230.87,0.72356
7225.08,0.71580
7219.29,0.71021
7213.51,0.71405
7207.72,0.72225
7201.93,0.71240
7196.15,0.71029
7190.36,0.71780
7184.58,0.71218
7178.79,0.70884
7173,0.71326
7167.22,0.70694
7161.43,0.71326
7155.65,0.69635
7149.86,0.70190
7144.07,0.69947
7138.29,0.69084
7132.5,0.68364
7126.71,0.68859
7120.93,0.68271
7115.14,0.68484
7109.36,0.67925
7103.57,0.67304
7097.78,0.66765
7092,0.66102
7086.21,0.66134
7080.42,0.64797
7074.64,0.64515
7068.85,0.64438
7063.07,0.63760
7057.28,0.63260
7051.49,0.62824
7045.71,0.63276
7039.92,0.61834
7034.13,0.62067
7028.35,0.61215
7022.56,0.61673
7016.78,0.60437
7010.99,0.60242
7005.2,0.59741
6999.42,0.59807
6993.63,0.59613
6987.84,0.59295
6982.06,0.58695
6976.27,0.59143
6970.49,0.58819
6964.7,0.58040
6958.91,0.58131
6953.13,0.58603
6947.34,0.58511
6941.55,0.58278
6935.77,0.58510
6929.98,0.58413
6924.2,0.57771
6918.41,0.58145
6912.62,0.58075
6906.84,0.57549
6901.05,0.57194
6895.26,0.57685
6889.48,0.57997
6883.69,0.57764
6877.91,0.58122
6872.12,0.57925
6866.33,0.58358
6860.55,0.58278
6854.76,0.57537
6848.97,0.57820
6843.19,0.57655
6837.4,0.57812
6831.62,0.57581
6825.83,0.57528
6820.04,0.57077
6814.26,0.57728
6808.47,0.57353
6802.68,0.57795
6796.9,0.57472
6791.11,0.57963
6785.33,0.57815
6779.54,0.57354
6773.75,0.57367
6767.97,0.57138
6762.18,0.57935
6756.39,0.57581
6750.61,0.57701
6744.82,0.57599
6739.04,0.57634
6733.25,0.58312
6727.46,0.58045
6721.68,0.57748
6715.89,0.57962
6710.1,0.58947
6704.32,0.58310
6698.53,0.58288
6692.75,0.58380
6686.96,0.58336
6681.17,0.57930
6675.39,0.58814
6669.6,0.58458
6663.82,0.58770
6658.03,0.58691
6652.24,0.58919
6646.46,0.58582
6640.67,0.59383
6634.88,0.59282
6629.1,0.59065
6623.31,0.58915
6617.53,0.59597
6611.74,0.59924
6605.95,0.59500
6600.17,0.59984
6594.38,0.59948
6588.59,0.59749
6582.81,0.60222
6577.02,0.59864
6571.24,0.60102
6565.45,0.60628
6559.66,0.60299
6553.88,0.60340
6548.09,0.60684
6542.3,0.60516
6536.52,0.60531
6530.73,0.60376
6524.95,0.60698
6519.16,0.60585
6513.37,0.60633
6507.59,0.60472
6501.8,0.60600
6496.01,0.60649
6490.23,0.60802
6484.44,0.60945
6478.66,0.60873
6472.87,0.60960
6467.08,0.61079
6461.3,0.60791
6455.51,0.61142
6449.72,0.61169
6443.94,0.60675
6438.15,0.60918
6432.37,0.61353
6426.58,0.61111
6420.79,0.61322
6415.01,0.61038
6409.22,0.61710
6403.43,0.61459
6397.65,0.61390
6391.86,0.61773
6386.08,0.61531
6380.29,0.61752
6374.5,0.61793
6368.72,0.61506
6362.93,0.61755
6357.14,0.62134
6351.36,0.62066
6345.57,0.61877
6339.79,0.61790
6334,0.62103
6328.21,0.62385
6322.43,0.62044
6316.64,0.62206
6310.85,0.61893
6305.07,0.62071
6299.28,0.62720
6293.5,0.62245
6287.71,0.62459
6281.92,0.62515
6276.14,0.62607
6270.35,0.62925
6264.56,0.63321
6258.78,0.63402
6252.99,0.63438
6247.21,0.63455
6241.42,0.63449
6235.63,0.63923
6229.85,0.64020
6224.06,0.64079
6218.27,0.64006
6212.49,0.64494
6206.7,0.64861
6200.92,0.65063
6195.13,0.65023
6189.34,0.65332
6183.56,0.65606
6177.77,0.65846
6171.98,0.65697
6166.2,0.65651
6160.41,0.65719
6154.63,0.66245
6148.84,0.65836
6143.05,0.66156
6137.27,0.66086
6131.48,0.66011
6125.7,0.66219
6119.91,0.66458
6114.12,0.66231
6108.34,0.66749
6102.55,0.66638
6096.76,0.66623
6090.98,0.66914
6085.19,0.66684
6079.41,0.66537
6073.62,0.66710
6067.83,0.66815
6062.05,0.66792
6056.26,0.66383
6050.47,0.66307
6044.69,0.66276
6038.9,0.65700
6033.12,0.65905
6027.33,0.65803
6021.54,0.65720
6015.76,0.65424
6009.97,0.65332
6004.18,0.64934
5998.4,0.64684
5992.61,0.64866
5986.83,0.64693
5981.04,0.64468
5975.25,0.64582
5969.47,0.64916
5963.68,0.64726
5957.89,0.64719
5952.11,0.64822
5946.32,0.64683
5940.54,0.64604
5934.75,0.64691
5928.96,0.64765
5923.18,0.64658
5917.39,0.64559
5911.6,0.64658
5905.82,0.64509
5900.03,0.64183
5894.25,0.64375
5888.46,0.64356
5882.67,0.64009
5876.89,0.63956
5871.1,0.64083
5865.31,0.64190
5859.53,0.63984
5853.74,0.64072
5847.96,0.63946
5842.17,0.63792
5836.38,0.64255
5830.6,0.63691
5824.81,0.63871
5819.02,0.63674
5813.24,0.63539
5807.45,0.63324
5801.67,0.63419
5795.88,0.63428
5790.09,0.63086
5784.31,0.63426
5778.52,0.63563
5772.73,0.63524
5766.95,0.63386
5761.16,0.63737
5755.38,0.63774
5749.59,0.63673
5743.8,0.63747
5738.02,0.63784
5732.23,0.63698
5726.44,0.63783
5720.66,0.63622
5714.87,0.63708
5709.09,0.63606
5703.3,0.63721
5697.51,0.63806
5691.73,0.63796
5685.94,0.63435
5680.15,0.63638
5674.37,0.63597
5668.58,0.63644
5662.8,0.63706
5657.01,0.63549
5651.22,0.63626
5645.44,0.63619
5639.65,0.63581
5633.87,0.63531
5628.08,0.63520
5622.29,0.63408
5616.51,0.63389
5610.72,0.63320
5604.93,0.63491
5599.15,0.63491
5593.36,0.63561
5587.58,0.63508
5581.79,0.63598
5576,0.63616
5570.22,0.63802
5564.43,0.63624
5558.64,0.63986
5552.86,0.63934
5547.07,0.64029
5541.29,0.63928
5535.5,0.64038
5529.71,0.64238
5523.93,0.63946
5518.14,0.64132
5512.35,0.64033
5506.57,0.64194
5500.78,0.64165
5495,0.64420
5489.21,0.64553
5483.42,0.64424
5477.64,0.64491
5471.85,0.64418
5466.06,0.64252
5460.28,0.64392
5454.49,0.64532
5448.71,0.64675
5442.92,0.64838
5437.13,0.65053
5431.35,0.65275
5425.56,0.65391
5419.77,0.65447
5413.99,0.65466
5408.2,0.65514
5402.42,0.65716
5396.63,0.65706
5390.84,0.65651
5385.06,0.65759
5379.27,0.65666
5373.48,0.65659
5367.7,0.65485
5361.91,0.65493
5356.13,0.65634
5350.34,0.65494
5344.55,0.65271
5338.77,0.65160
5332.98,0.65051
5327.19,0.64811
5321.41,0.64607
5315.62,0.63924
5309.84,0.63545
5304.05,0.62956
5298.26,0.62320
5292.48,0.61578
5286.69,0.60510
5280.9,0.59476
5275.12,0.58525
5269.33,0.57250
5263.55,0.56077
5257.76,0.54879
5251.97,0.53995
5246.19,0.52894
5240.4,0.52019
5234.61,0.51368
5228.83,0.50584
5223.04,0.50112
5217.26,0.49792
5211.47,0.49459
5205.68,0.49296
5199.9,0.49207
5194.11,0.49116
5188.32,0.49169
5182.54,0.49244
5176.75,0.49403
5170.97,0.49581
5165.18,0.49794
5159.39,0.50064
5153.61,0.50472
5147.82,0.50705
5142.03,0.51003
5136.25,0.51280
5130.46,0.51612
5124.68,0.52040
5118.89,0.52344
5113.1,0.52647
5107.32,0.52916
5101.53,0.53338
5095.75,0.53749
5089.96,0.53862
5084.17,0.54116
5078.39,0.54304
5072.6,0.54603
5066.81,0.54853
5061.03,0.55233
5055.24,0.55427
5049.46,0.55689
5043.67,0.55844
5037.88,0.56068
5032.1,0.56215
5026.31,0.56362
5020.52,0.56447
5014.74,0.56663
5008.95,0.56858
5003.17,0.56859
4997.38,0.56803
4991.59,0.56791
4985.81,0.56725
4980.02,0.56653
4974.23,0.56301
4968.45,0.56052
4962.66,0.55919
4956.88,0.55541
4951.09,0.55028
4945.3,0.54681
4939.52,0.54182
4933.73,0.53731
4927.94,0.53208
4922.16,0.52734
4916.37,0.52195
4910.59,0.51638
4904.8,0.51117
4899.01,0.50537
4893.23,0.50146
4887.44,0.49571
4881.65,0.49118
4875.87,0.48540
4870.08,0.48205
4864.3,0.47652
4858.51,0.47324
4852.72,0.46995
4846.94,0.46638
4841.15,0.46161
4835.36,0.45859
4829.58,0.45530
4823.79,0.45288
4818.01,0.45014
4812.22,0.44846
4806.43,0.44517
4800.65,0.44353
4794.86,0.44215
4789.07,0.44190
4783.29,0.44052
4777.5,0.43851
4771.72,0.43722
4765.93,0.43706
4760.14,0.43677
4754.36,0.43706
4748.57,0.43562
4742.78,0.43509
4737,0.43655
4731.21,0.43781
4725.43,0.43822
4719.64,0.43903
4713.85,0.44016
4708.07,0.43959
4702.28,0.44032
4696.49,0.44042
4690.71,0.44168
4684.92,0.44283
4679.14,0.44359
4673.35,0.44512
4667.56,0.44678
4661.78,0.44811
4655.99,0.45112
4650.2,0.45254
4644.42,0.45497
4638.63,0.45792
4632.85,0.45939
4627.06,0.46254
4621.27,0.46469
4615.49,0.46690
4609.7,0.46967
4603.92,0.47361
4598.13,0.47661
4592.34,0.47833
4586.56,0.48061
4580.77,0.48341
4574.98,0.48465
4569.2,0.48532
4563.41,0.48740
4557.63,0.48874
4551.84,0.49004
4546.05,0.49058
4540.27,0.49188
4534.48,0.49267
4528.69,0.49412
4522.91,0.49384
4517.12,0.49437
4511.34,0.49385
4505.55,0.49276
4499.76,0.49107
4493.98,0.48946
4488.19,0.48604
4482.4,0.48192
4476.62,0.47711
4470.83,0.47160
4465.05,0.46372
4459.26,0.45796
4453.47,0.45139
4447.69,0.44590
4441.9,0.43867
4436.11,0.43145
4430.33,0.42412
4424.54,0.41712
4418.76,0.41046
4412.97,0.40504
4407.18,0.40014
4401.4,0.39802
4395.61,0.39777
4389.82,0.39872
4384.04,0.40016
4378.25,0.40116
4372.47,0.40426
4366.68,0.40574
4360.89,0.40691
4355.11,0.40856
4349.32,0.40760
4343.53,0.40615
4337.75,0.40497
4331.96,0.40376
4326.18,0.40207
4320.39,0.39970
4314.6,0.39717
4308.82,0.39457
4303.03,0.39264
4297.24,0.39106
4291.46,0.38818
4285.67,0.38644
4279.89,0.38622
4274.1,0.38648
4268.31,0.38686
4262.53,0.38868
4256.74,0.38933
4250.95,0.39138
4245.17,0.39233
4239.38,0.39246
4233.6,0.39320
4227.81,0.39290
4222.02,0.39338
4216.24,0.39257
4210.45,0.39364
4204.66,0.39394
4198.88,0.39339
4193.09,0.39482
4187.31,0.39542
4181.52,0.39596
4175.73,0.39778
4169.95,0.39859
4164.16,0.39921
4158.37,0.39898
4152.59,0.39885
4146.8,0.39707
4141.02,0.39475
4135.23,0.39228
4129.44,0.38971
4123.66,0.38562
4117.87,0.38132
4112.09,0.37634
4106.3,0.37283
4100.51,0.36810
4094.73,0.36312
4088.94,0.35703
4083.15,0.35202
4077.37,0.34669
4071.58,0.34125
4065.8,0.33548
4060.01,0.33008
4054.22,0.32502
4048.44,0.31989
4042.65,0.31552
4036.86,0.31225
4031.08,0.30964
4025.29,0.30724
4019.51,0.30501
4013.72,0.30372
4007.93,0.30400
4002.15,0.30494
3996.36,0.30627
3990.57,0.30759
3984.79,0.30872
3979,0.30971
3973.22,0.31105
3967.43,0.31291
3961.64,0.31593
3955.86,0.31872
3950.07,0.32011
3944.28,0.32259
3938.5,0.32584
3932.71,0.32946
3926.93,0.33187
3921.14,0.33453
3915.35,0.33724
3909.57,0.33927
3903.78,0.34163
3897.99,0.34369
3892.21,0.34675
3886.42,0.34899
3880.64,0.35025
3874.85,0.35251
3869.06,0.35441
3863.28,0.35754
3857.49,0.35953
3851.7,0.36343
3845.92,0.36528
3840.13,0.36716
3834.35,0.36871
3828.56,0.36980
3822.77,0.37037
3816.99,0.36890
3811.2,0.36889
3805.41,0.36974
3799.63,0.36955
3793.84,0.36843
3788.06,0.36820
3782.27,0.36771
3776.48,0.36602
3770.7,0.36500
3764.91,0.36311
3759.12,0.36194
3753.34,0.35873
3747.55,0.35651
3741.77,0.35304
3735.98,0.34934
3730.19,0.34510
3724.41,0.34002
3718.62,0.33437
3712.83,0.32768
3707.05,0.31822
3701.26,0.30852
3695.48,0.29787
3689.69,0.28499
3683.9,0.26668
3678.12,0.25010
3672.33,0.22889
3666.54,0.20731
3660.76,0.19006
3654.97,0.17256
3649.19,0.15881
3643.4,0.14448
3637.61,0.13296
3631.83,0.12322
3626.04,0.11414
3620.25,0.10696
3614.47,0.10001
3608.68,0.09329
3602.9,0.08793
3597.11,0.08241
3591.32,0.07800
3585.54,0.07348
3579.75,0.06989
3573.97,0.06632
3568.18,0.06376
3562.39,0.06084
3556.61,0.05902
3550.82,0.05645
3545.03,0.05539
3539.25,0.05316
3533.46,0.05172
3527.68,0.05093
3521.89,0.04899
3516.1,0.04857
3510.32,0.04681
3504.53,0.04645
3498.74,0.04547
3492.96,0.04513
3487.17,0.04349
3481.39,0.04328
3475.6,0.04239
3469.81,0.04145
3464.03,0.04155
3458.24,0.04127
3452.45,0.04165
3446.67,0.04182
3440.88,0.04077
3435.1,0.04095
3429.31,0.04083
3423.52,0.04055
3417.74,0.04053
3411.95,0.04076
3406.16,0.04111
3400.38,0.04093
3394.59,0.04034
3388.81,0.04097
3383.02,0.04092
3377.23,0.04148
3371.45,0.04119
3365.66,0.04189
3359.87,0.04212
3354.09,0.04211
3348.3,0.04227
3342.52,0.04301
3336.73,0.04377
3330.94,0.04457
3325.16,0.04551
3319.37,0.04527
3313.58,0.04577
3307.8,0.04641
3302.01,0.04657
3296.23,0.04732
3290.44,0.04708
3284.65,0.04789
3278.87,0.04919
3273.08,0.05015
3267.29,0.05213
3261.51,0.05210
3255.72,0.05371
3249.94,0.05409
3244.15,0.05501
3238.36,0.05593
3232.58,0.05751
3226.79,0.05808
3221,0.05908
3215.22,0.06047
3209.43,0.06250
3203.65,0.06338
3197.86,0.06489
3192.07,0.06561
3186.29,0.06740
3180.5,0.06861
3174.71,0.07035
3168.93,0.07208
3163.14,0.07370
3157.36,0.07480
3151.57,0.07682
3145.78,0.07832
3140,0.07925
3134.21,0.08183
3128.42,0.08300
3122.64,0.08511
3116.85,0.08600
3111.07,0.08730
3105.28,0.08863
3099.49,0.09036
3093.71,0.09178
3087.92,0.09253
3082.14,0.09445
3076.35,0.09559
3070.56,0.09701
3064.78,0.09785
3058.99,0.09974
3053.2,0.10129
3047.42,0.10304
3041.63,0.10377
3035.85,0.10446
3030.06,0.10512
3024.27,0.10560
3018.49,0.10400
3012.7,0.10312
3006.91,0.10167
3001.13,0.09978
2995.34,0.09804
2989.56,0.09586
2983.77,0.09178
2977.98,0.08613
2972.2,0.08036
2966.41,0.07643
2960.62,0.07387
2954.84,0.07174
2949.05,0.06866
2943.27,0.06636
2937.48,0.06474
2931.69,0.06451
2925.91,0.06494
2920.12,0.06481
2914.33,0.06489
2908.55,0.06553
2902.76,0.06567
2896.98,0.06675
2891.19,0.06784
2885.4,0.06918
2879.62,0.07023
2873.83,0.07137
2868.04,0.07298
2862.26,0.07436
2856.47,0.07683
2850.69,0.07983
2844.9,0.08463
2839.11,0.08936
2833.33,0.09550
2827.54,0.10037
2821.75,0.10604
2815.97,0.11065
2810.18,0.11502
2804.4,0.11833
2798.61,0.12164
2792.82,0.12399
2787.04,0.12626
2781.25,0.12709
2775.46,0.12794
2769.68,0.12962
2763.89,0.13040
2758.11,0.13119
2752.32,0.13210
2746.53,0.13246
2740.75,0.13269
2734.96,0.13394
2729.17,0.13466
2723.39,0.13607
2717.6,0.13757
2711.82,0.13934
2706.03,0.14131
2700.24,0.14373
2694.46,0.14553
2688.67,0.14762
2682.88,0.14943
2677.1,0.15139
2671.31,0.15294
2665.53,0.15395
2659.74,0.15499
2653.95,0.15593
2648.17,0.15751
2642.38,0.15885
2636.59,0.16003
2630.81,0.16197
2625.02,0.16346
2619.24,0.16462
2613.45,0.16637
2607.66,0.16737
2601.88,0.16884
2596.09,0.17062
2590.3,0.17189
2584.52,0.17324
2578.73,0.17462
2572.95,0.17533
2567.16,0.17598
2561.37,0.17627
2555.59,0.17665
2549.8,0.17740
2544.02,0.17793
2538.23,0.17863
2532.44,0.18006
2526.66,0.18164
2520.87,0.18302
2515.08,0.18440
2509.3,0.18634
2503.51,0.18860
2497.73,0.19117
2491.94,0.19380
2486.15,0.19604
2480.37,0.19791
2474.58,0.20020
2468.79,0.20254
2463.01,0.20463
2457.22,0.20667
2451.44,0.20869
2445.65,0.21111
2439.86,0.21330
2434.08,0.21584
2428.29,0.21847
2422.5,0.22149
2416.72,0.22447
2410.93,0.22685
2405.15,0.22944
2399.36,0.23154
2393.57,0.23433
2387.79,0.23704
2382,0.23898
2376.21,0.24147
2370.43,0.24388
2364.64,0.24582
2358.86,0.24709
2353.07,0.24856
2347.28,0.25061
2341.5,0.25188
2335.71,0.25327
2329.92,0.25404
2324.14,0.25520
2318.35,0.25500
2312.57,0.25553
2306.78,0.25571
2300.99,0.25571
2295.21,0.25544
2289.42,0.25518
2283.63,0.25522
2277.85,0.25527
2272.06,0.25441
2266.28,0.25344
2260.49,0.25184
2254.7,0.25054
2248.92,0.24985
2243.13,0.24918
2237.34,0.24823
2231.56,0.24799
2225.77,0.24782
2219.99,0.24759
2214.2,0.24731
2208.41,0.24688
2202.63,0.24599
2196.84,0.24404
2191.05,0.24181
2185.27,0.23942
2179.48,0.23640
2173.7,0.23338
2167.91,0.23059
2162.12,0.22788
2156.34,0.22611
2150.55,0.22502
2144.76,0.22314
2138.98,0.22209
2133.19,0.22178
2127.41,0.22217
2121.62,0.22281
2115.83,0.22360
2110.05,0.22414
2104.26,0.22488
2098.47,0.22546
2092.69,0.22609
2086.9,0.22625
2081.12,0.22581
2075.33,0.22451
2069.54,0.22313
2063.76,0.22222
2057.97,0.22165
2052.19,0.22194
2046.4,0.22292
2040.61,0.22421
2034.83,0.22610
2029.04,0.22896
2023.25,0.23191
2017.47,0.23465
2011.68,0.23688
2005.9,0.23839
2000.11,0.24010
1994.32,0.24173
1988.54,0.24328
1982.75,0.24462
1976.96,0.24567
1971.18,0.24672
1965.39,0.24840
1959.61,0.24964
1953.82,0.25171
1948.03,0.25384
1942.25,0.25594
1936.46,0.25760
1930.67,0.25891
1924.89,0.25989
1919.1,0.25999
1913.32,0.25993
1907.53,0.25975
1901.74,0.25941
1895.96,0.25843
1890.17,0.25755
1884.38,0.25720
1878.6,0.25644
1872.81,0.25540
1867.03,0.25469
1861.24,0.25314
1855.45,0.25123
1849.67,0.24907
1843.88,0.24599
1838.09,0.24234
1832.31,0.23805
1826.52,0.23236
1820.74,0.22438
1814.95,0.21462
1809.16,0.20354
1803.38,0.19092
1797.59,0.17745
1791.8,0.16363
1786.02,0.14962
1780.23,0.13586
1774.45,0.12280
1768.66,0.10720
1762.87,0.09364
1757.09,0.08057
1751.3,0.07158
1745.51,0.06560
1739.73,0.06308
1733.94,0.06222
1728.16,0.06312
1722.37,0.06434
1716.58,0.06682
1710.8,0.06923
1705.01,0.07233
1699.22,0.07307
1693.44,0.07173
1687.65,0.06995
1681.87,0.06708
1676.08,0.06503
1670.29,0.06381
1664.51,0.06325
1658.72,0.06308
1652.93,0.06366
1647.15,0.06363
1641.36,0.06371
1635.58,0.06383
1629.79,0.06368
1624,0.06338
1618.22,0.06257
1612.43,0.06085
1606.64,0.05923
1600.86,0.05869
1595.07,0.05952
1589.29,0.06148
1583.5,0.06619
1577.71,0.07308
1571.93,0.08125
1566.14,0.08741
1560.35,0.09142
1554.57,0.09297
1548.78,0.09261
1543,0.09121
1537.21,0.08660
1531.42,0.07963
1525.64,0.06931
1519.85,0.05698
1514.07,0.05030
1508.28,0.05107
1502.49,0.05609
1496.71,0.06216
1490.92,0.06540
1485.13,0.06461
1479.35,0.06083
1473.56,0.05510
1467.78,0.04955
1461.99,0.04859
1456.2,0.04892
1450.42,0.04897
1444.63,0.04989
1438.84,0.04870
1433.06,0.04607
1427.27,0.04586
1421.49,0.04704
1415.7,0.04908
1409.91,0.05082
1404.13,0.05160
1398.34,0.05092
1392.55,0.05038
1386.77,0.04832
1380.98,0.04631
1375.2,0.04550
1369.41,0.04596
1363.62,0.04684
1357.84,0.04801
1352.05,0.04881
1346.26,0.04853
1340.48,0.04741
1334.69,0.04679
1328.91,0.04686
1323.12,0.04593
1317.33,0.04583
1311.55,0.04665
1305.76,0.04702
1299.97,0.04685
1294.19,0.04573
1288.4,0.04387
1282.62,0.04246
1276.83,0.04184
1271.04,0.04247
1265.26,0.04348
1259.47,0.04512
1253.68,0.04545
1247.9,0.04570
1242.11,0.04547
1236.33,0.04535
1230.54,0.04565
1224.75,0.04605
1218.97,0.04671
1213.18,0.04651
1207.39,0.04640
1201.61,0.04691
1195.82,0.04680
1190.04,0.04585
1184.25,0.04378
1178.46,0.04097
1172.68,0.03853
1166.89,0.03870
1161.1,0.04106
1155.32,0.04154
1149.53,0.04097
1143.75,0.03967
1137.96,0.03833
1132.17,0.03687
1126.39,0.03613
1120.6,0.03669
1114.81,0.03690
1109.03,0.03842
1103.24,0.03972
1097.46,0.03987
1091.67,0.03916
1085.88,0.03891
1080.1,0.04102
1074.31,0.04276
1068.52,0.04606
1062.74,0.05120
1056.95,0.05599
1051.17,0.05591
1045.38,0.05507
1039.59,0.05570
1033.81,0.05976
1028.02,0.06230
1022.24,0.06378
1016.45,0.06547
1010.66,0.06729
1004.88,0.06742
999.09,0.06972
993.304,0.07120
987.518,0.07432
981.731,0.07985
975.945,0.08461
970.159,0.08700
964.373,0.08918
958.586,0.09337
952.8,0.09687
947.014,0.09891
941.228,0.10007
935.441,0.10123
929.655,0.10321
923.869,0.10390
918.083,0.10186
912.297,0.09845
906.51,0.09440
900.724,0.08917
894.938,0.08845
889.152,0.09168
883.365,0.09327
877.579,0.09407
871.793,0.09375
866.007,0.09537
860.22,0.09663
854.434,0.09896
848.648,0.10121
842.862,0.10178
837.075,0.10037
831.289,0.09642
825.503,0.09304
819.717,0.08740
813.931,0.08541
808.144,0.08503
802.358,0.08595
796.572,0.08754
790.786,0.08663
784.999,0.08516
779.213,0.08239
773.427,0.08121
767.641,0.07988
761.854,0.07922
756.068,0.07757
750.282,0.07684
744.496,0.07445
738.709,0.07400
732.923,0.07114
727.137,0.06849
721.351,0.06799
715.565,0.06590
709.778,0.06562
703.992,0.06537
698.206,0.06481
692.42,0.06340
686.633,0.06248
680.847,0.06034
675.061,0.05812
669.275,0.05741
663.488,0.05807
657.702,0.05894
651.916,0.05923
646.13,0.05932
640.343,0.05660
634.557,0.05690
628.771,0.05566
622.985,0.05378
617.198,0.05682
611.412,0.05708
605.626,0.06127
599.84,0.06025