File: 01_Data/XPS_Foam_Board/FTIR/IS/XPS_Foam_Board_IS_S_220929_R1.dpt
7497.03,0.38991
7491.25,0.38001
7485.46,0.39113
7479.67,0.39463
7473.89,0.38740
7468.1,0.40108
7462.32,0.38681
7456.53,0.39191
7450.74,0.39111
7444.96,0.39421
7439.17,0.39250
7433.38,0.38378
7427.6,0.39953
7421.81,0.39116
7416.03,0.39706
7410.24,0.39763
7404.45,0.39721
7398.67,0.38005
7392.88,0.39873
7387.09,0.39647
7381.31,0.39344
7375.52,0.38712
7369.74,0.38870
7363.95,0.38630
7358.16,0.38686
7352.38,0.39778
7346.59,0.39829
7340.8,0.39175
7335.02,0.39187
7329.23,0.39868
7323.45,0.40089
7317.66,0.39485
7311.87,0.38679
7306.09,0.38045
7300.3,0.38924
7294.51,0.39104
7288.73,0.38671
7282.94,0.38948
7277.16,0.39808
7271.37,0.38156
7265.58,0.38301
7259.8,0.39058
7254.01,0.39294
7248.22,0.39814
7242.44,0.39412
7236.65,0.38977
7230.87,0.38891
7225.08,0.38815
7219.29,0.39486
7213.51,0.40429
7207.72,0.39275
7201.93,0.39395
7196.15,0.39368
7190.36,0.39601
7184.58,0.39505
7178.79,0.39324
7173,0.39653
7167.22,0.39441
7161.43,0.39236
7155.65,0.38842
7149.86,0.38397
7144.07,0.38691
7138.29,0.39251
7132.5,0.38581
7126.71,0.39278
7120.93,0.38879
7115.14,0.39521
7109.36,0.39319
7103.57,0.39257
7097.78,0.38926
7092,0.38960
7086.21,0.39123
7080.42,0.38807
7074.64,0.38880
7068.85,0.39585
7063.07,0.38936
7057.28,0.38975
7051.49,0.38878
7045.71,0.39153
7039.92,0.39370
7034.13,0.39102
7028.35,0.39342
7022.56,0.38981
7016.78,0.39637
7010.99,0.39721
7005.2,0.39516
6999.42,0.39473
6993.63,0.39028
6987.84,0.39341
6982.06,0.39738
6976.27,0.39809
6970.49,0.39430
6964.7,0.39162
6958.91,0.38893
6953.13,0.39048
6947.34,0.39084
6941.55,0.38733
6935.77,0.38588
6929.98,0.38914
6924.2,0.39246
6918.41,0.38849
6912.62,0.38495
6906.84,0.38534
6901.05,0.38101
6895.26,0.39142
6889.48,0.38767
6883.69,0.39044
6877.91,0.39191
6872.12,0.38473
6866.33,0.39114
6860.55,0.39282
6854.76,0.38943
6848.97,0.38523
6843.19,0.39276
6837.4,0.39099
6831.62,0.39059
6825.83,0.39090
6820.04,0.38914
6814.26,0.38972
6808.47,0.39591
6802.68,0.38869
6796.9,0.39519
6791.11,0.39143
6785.33,0.39423
6779.54,0.39138
6773.75,0.39360
6767.97,0.38993
6762.18,0.39161
6756.39,0.39209
6750.61,0.39186
6744.82,0.39298
6739.04,0.39494
6733.25,0.39497
6727.46,0.39284
6721.68,0.39058
6715.89,0.39308
6710.1,0.39526
6704.32,0.38858
6698.53,0.38324
6692.75,0.38995
6686.96,0.38866
6681.17,0.39107
6675.39,0.39005
6669.6,0.39229
6663.82,0.38776
6658.03,0.39133
6652.24,0.39301
6646.46,0.38567
6640.67,0.39258
6634.88,0.38712
6629.1,0.38858
6623.31,0.38868
6617.53,0.39041
6611.74,0.39182
6605.95,0.38783
6600.17,0.39336
6594.38,0.39299
6588.59,0.38727
6582.81,0.39281
6577.02,0.38629
6571.24,0.38802
6565.45,0.38845
6559.66,0.39699
6553.88,0.39357
6548.09,0.38989
6542.3,0.38873
6536.52,0.39220
6530.73,0.39020
6524.95,0.39003
6519.16,0.38648
6513.37,0.39012
6507.59,0.38931
6501.8,0.39330
6496.01,0.39421
6490.23,0.39076
6484.44,0.38875
6478.66,0.38720
6472.87,0.39334
6467.08,0.39416
6461.3,0.38938
6455.51,0.39337
6449.72,0.38723
6443.94,0.38945
6438.15,0.38931
6432.37,0.38685
6426.58,0.38488
6420.79,0.39203
6415.01,0.39418
6409.22,0.39082
6403.43,0.39285
6397.65,0.39109
6391.86,0.39216
6386.08,0.39050
6380.29,0.38719
6374.5,0.39354
6368.72,0.39169
6362.93,0.38842
6357.14,0.38927
6351.36,0.38956
6345.57,0.38776
6339.79,0.38868
6334,0.38676
6328.21,0.39106
6322.43,0.38952
6316.64,0.38971
6310.85,0.38830
6305.07,0.38704
6299.28,0.38921
6293.5,0.38857
6287.71,0.39266
6281.92,0.38941
6276.14,0.38848
6270.35,0.38937
6264.56,0.39066
6258.78,0.38886
6252.99,0.39060
6247.21,0.39089
6241.42,0.39064
6235.63,0.38936
6229.85,0.39087
6224.06,0.38819
6218.27,0.38962
6212.49,0.39230
6206.7,0.38874
6200.92,0.38681
6195.13,0.39128
6189.34,0.39093
6183.56,0.38790
6177.77,0.38689
6171.98,0.38457
6166.2,0.38533
6160.41,0.38614
6154.63,0.38654
6148.84,0.38602
6143.05,0.38585
6137.27,0.38353
6131.48,0.38234
6125.7,0.38358
6119.91,0.38281
6114.12,0.37773
6108.34,0.38242
6102.55,0.38207
6096.76,0.38370
6090.98,0.38207
6085.19,0.38295
6079.41,0.38150
6073.62,0.38136
6067.83,0.38168
6062.05,0.38491
6056.26,0.38282
6050.47,0.38269
6044.69,0.38506
6038.9,0.38465
6033.12,0.38391
6027.33,0.38094
6021.54,0.38040
6015.76,0.37598
6009.97,0.37318
6004.18,0.37215
5998.4,0.37084
5992.61,0.36814
5986.83,0.36151
5981.04,0.36247
5975.25,0.36122
5969.47,0.35875
5963.68,0.35815
5957.89,0.35816
5952.11,0.35457
5946.32,0.35726
5940.54,0.35722
5934.75,0.35684
5928.96,0.35964
5923.18,0.35943
5917.39,0.36240
5911.6,0.36195
5905.82,0.36301
5900.03,0.36350
5894.25,0.36357
5888.46,0.36997
5882.67,0.37287
5876.89,0.37313
5871.1,0.37568
5865.31,0.37839
5859.53,0.37697
5853.74,0.37600
5847.96,0.37905
5842.17,0.37862
5836.38,0.37736
5830.6,0.37598
5824.81,0.37817
5819.02,0.37830
5813.24,0.37918
5807.45,0.37905
5801.67,0.37746
5795.88,0.37728
5790.09,0.38047
5784.31,0.37859
5778.52,0.38157
5772.73,0.37975
5766.95,0.38248
5761.16,0.38356
5755.38,0.38303
5749.59,0.38421
5743.8,0.38291
5738.02,0.38465
5732.23,0.38375
5726.44,0.38370
5720.66,0.38463
5714.87,0.38167
5709.09,0.37993
5703.3,0.38171
5697.51,0.37993
5691.73,0.37892
5685.94,0.38059
5680.15,0.38156
5674.37,0.37902
5668.58,0.38039
5662.8,0.38100
5657.01,0.38061
5651.22,0.38269
5645.44,0.38250
5639.65,0.38147
5633.87,0.38512
5628.08,0.38099
5622.29,0.38301
5616.51,0.38532
5610.72,0.38435
5604.93,0.38597
5599.15,0.38397
5593.36,0.38300
5587.58,0.38384
5581.79,0.38325
5576,0.38286
5570.22,0.38671
5564.43,0.38445
5558.64,0.38339
5552.86,0.38437
5547.07,0.38355
5541.29,0.38347
5535.5,0.38299
5529.71,0.38289
5523.93,0.38301
5518.14,0.38277
5512.35,0.38403
5506.57,0.38260
5500.78,0.38334
5495,0.38373
5489.21,0.38515
5483.42,0.38370
5477.64,0.38297
5471.85,0.38328
5466.06,0.38439
5460.28,0.38599
5454.49,0.38531
5448.71,0.38467
5442.92,0.38449
5437.13,0.38360
5431.35,0.38442
5425.56,0.38551
5419.77,0.38426
5413.99,0.38605
5408.2,0.38382
5402.42,0.38448
5396.63,0.38581
5390.84,0.38489
5385.06,0.38411
5379.27,0.38596
5373.48,0.38511
5367.7,0.38491
5361.91,0.38277
5356.13,0.38417
5350.34,0.38513
5344.55,0.38711
5338.77,0.38468
5332.98,0.38376
5327.19,0.38504
5321.41,0.38551
5315.62,0.38530
5309.84,0.38636
5304.05,0.38495
5298.26,0.38443
5292.48,0.38463
5286.69,0.38723
5280.9,0.38697
5275.12,0.38710
5269.33,0.38677
5263.55,0.38610
5257.76,0.38498
5251.97,0.38543
5246.19,0.38680
5240.4,0.38695
5234.61,0.38576
5228.83,0.38709
5223.04,0.38563
5217.26,0.38551
5211.47,0.38549
5205.68,0.38377
5199.9,0.38541
5194.11,0.38558
5188.32,0.38687
5182.54,0.38624
5176.75,0.38698
5170.97,0.38654
5165.18,0.38615
5159.39,0.38800
5153.61,0.38686
5147.82,0.38696
5142.03,0.38567
5136.25,0.38602
5130.46,0.38661
5124.68,0.38533
5118.89,0.38654
5113.1,0.38788
5107.32,0.38742
5101.53,0.38689
5095.75,0.38745
5089.96,0.38682
5084.17,0.38696
5078.39,0.38652
5072.6,0.38543
5066.81,0.38560
5061.03,0.38576
5055.24,0.38744
5049.46,0.38733
5043.67,0.38683
5037.88,0.38639
5032.1,0.38747
5026.31,0.38762
5020.52,0.38776
5014.74,0.38775
5008.95,0.38743
5003.17,0.38714
4997.38,0.38600
4991.59,0.38537
4985.81,0.38793
4980.02,0.38745
4974.23,0.38665
4968.45,0.38737
4962.66,0.38696
4956.88,0.38624
4951.09,0.38599
4945.3,0.38622
4939.52,0.38557
4933.73,0.38585
4927.94,0.38609
4922.16,0.38762
4916.37,0.38662
4910.59,0.38580
4904.8,0.38682
4899.01,0.38720
4893.23,0.38631
4887.44,0.38616
4881.65,0.38558
4875.87,0.38693
4870.08,0.38665
4864.3,0.38622
4858.51,0.38619
4852.72,0.38598
4846.94,0.38555
4841.15,0.38672
4835.36,0.38506
4829.58,0.38673
4823.79,0.38641
4818.01,0.38652
4812.22,0.38638
4806.43,0.38665
4800.65,0.38604
4794.86,0.38685
4789.07,0.38591
4783.29,0.38562
4777.5,0.38517
4771.72,0.38577
4765.93,0.38581
4760.14,0.38577
4754.36,0.38607
4748.57,0.38564
4742.78,0.38640
4737,0.38576
4731.21,0.38577
4725.43,0.38550
4719.64,0.38360
4713.85,0.38266
4708.07,0.38190
4702.28,0.38036
4696.49,0.38067
4690.71,0.37852
4684.92,0.37493
4679.14,0.36860
4673.35,0.35899
4667.56,0.35102
4661.78,0.34911
4655.99,0.35365
4650.2,0.36015
4644.42,0.36202
4638.63,0.36143
4632.85,0.35617
4627.06,0.35346
4621.27,0.35153
4615.49,0.35176
4609.7,0.35014
4603.92,0.35099
4598.13,0.35736
4592.34,0.36324
4586.56,0.36576
4580.77,0.36568
4574.98,0.36108
4569.2,0.35955
4563.41,0.36610
4557.63,0.37139
4551.84,0.37422
4546.05,0.37606
4540.27,0.37728
4534.48,0.37780
4528.69,0.37830
4522.91,0.37948
4517.12,0.37833
4511.34,0.37771
4505.55,0.37711
4499.76,0.37819
4493.98,0.37987
4488.19,0.38084
4482.4,0.38082
4476.62,0.38133
4470.83,0.38197
4465.05,0.38160
4459.26,0.38124
4453.47,0.38145
4447.69,0.38059
4441.9,0.37947
4436.11,0.37906
4430.33,0.38047
4424.54,0.38017
4418.76,0.37970
4412.97,0.37852
4407.18,0.37790
4401.4,0.37692
4395.61,0.37705
4389.82,0.37552
4384.04,0.37439
4378.25,0.37222
4372.47,0.37048
4366.68,0.36786
4360.89,0.36607
4355.11,0.36319
4349.32,0.36256
4343.53,0.36063
4337.75,0.35920
4331.96,0.35862
4326.18,0.36035
4320.39,0.36301
4314.6,0.36523
4308.82,0.36811
4303.03,0.36845
4297.24,0.36865
4291.46,0.36615
4285.67,0.36366
4279.89,0.36183
4274.1,0.35874
4268.31,0.35450
4262.53,0.35140
4256.74,0.34837
4250.95,0.34703
4245.17,0.34691
4239.38,0.34880
4233.6,0.34987
4227.81,0.34962
4222.02,0.35026
4216.24,0.35063
4210.45,0.34983
4204.66,0.35045
4198.88,0.35223
4193.09,0.35534
4187.31,0.35659
4181.52,0.35765
4175.73,0.35901
4169.95,0.36068
4164.16,0.36166
4158.37,0.36136
4152.59,0.36133
4146.8,0.36106
4141.02,0.36127
4135.23,0.35933
4129.44,0.35780
4123.66,0.35604
4117.87,0.35476
4112.09,0.35336
4106.3,0.35141
4100.51,0.35004
4094.73,0.34848
4088.94,0.34471
4083.15,0.34213
4077.37,0.33467
4071.58,0.32623
4065.8,0.31667
4060.01,0.31063
4054.22,0.30732
4048.44,0.30854
4042.65,0.30760
4036.86,0.30537
4031.08,0.31182
4025.29,0.32257
4019.51,0.33567
4013.72,0.34705
4007.93,0.35093
4002.15,0.35112
3996.36,0.35274
3990.57,0.35694
3984.79,0.35922
3979,0.35920
3973.22,0.35861
3967.43,0.35982
3961.64,0.36076
3955.86,0.36170
3950.07,0.36174
3944.28,0.36093
3938.5,0.36055
3932.71,0.36102
3926.93,0.36170
3921.14,0.36266
3915.35,0.36298
3909.57,0.36308
3903.78,0.36462
3897.99,0.36404
3892.21,0.36497
3886.42,0.36540
3880.64,0.36607
3874.85,0.36510
3869.06,0.36577
3863.28,0.36518
3857.49,0.36534
3851.7,0.36586
3845.92,0.36537
3840.13,0.36511
3834.35,0.36310
3828.56,0.36269
3822.77,0.36190
3816.99,0.36213
3811.2,0.36095
3805.41,0.36219
3799.63,0.36235
3793.84,0.36325
3788.06,0.36518
3782.27,0.36565
3776.48,0.36605
3770.7,0.36596
3764.91,0.36512
3759.12,0.36570
3753.34,0.36766
3747.55,0.36859
3741.77,0.36826
3735.98,0.36894
3730.19,0.36744
3724.41,0.36475
3718.62,0.36434
3712.83,0.36695
3707.05,0.36492
3701.26,0.36286
3695.48,0.36404
3689.69,0.36608
3683.9,0.36480
3678.12,0.36362
3672.33,0.36413
3666.54,0.36318
3660.76,0.36032
3654.97,0.35498
3649.19,0.34943
3643.4,0.34932
3637.61,0.35702
3631.83,0.36127
3626.04,0.35828
3620.25,0.35530
3614.47,0.35948
3608.68,0.36400
3602.9,0.36530
3597.11,0.36653
3591.32,0.36646
3585.54,0.36692
3579.75,0.36631
3573.97,0.36609
3568.18,0.36689
3562.39,0.36602
3556.61,0.36442
3550.82,0.36423
3545.03,0.36417
3539.25,0.36247
3533.46,0.36264
3527.68,0.36246
3521.89,0.36173
3516.1,0.36121
3510.32,0.36039
3504.53,0.36029
3498.74,0.35944
3492.96,0.35785
3487.17,0.35721
3481.39,0.35653
3475.6,0.35536
3469.81,0.35574
3464.03,0.35459
3458.24,0.35446
3452.45,0.35350
3446.67,0.35303
3440.88,0.35176
3435.1,0.35336
3429.31,0.35487
3423.52,0.35560
3417.74,0.35608
3411.95,0.35669
3406.16,0.35621
3400.38,0.35646
3394.59,0.35715
3388.81,0.35705
3383.02,0.35654
3377.23,0.35679
3371.45,0.35709
3365.66,0.35770
3359.87,0.35778
3354.09,0.35755
3348.3,0.35769
3342.52,0.35747
3336.73,0.35771
3330.94,0.35739
3325.16,0.35788
3319.37,0.35704
3313.58,0.35774
3307.8,0.35798
3302.01,0.35711
3296.23,0.35743
3290.44,0.35749
3284.65,0.35696
3278.87,0.35653
3273.08,0.35677
3267.29,0.35538
3261.51,0.35489
3255.72,0.35521
3249.94,0.35625
3244.15,0.35542
3238.36,0.35516
3232.58,0.35536
3226.79,0.35419
3221,0.35344
3215.22,0.35212
3209.43,0.35062
3203.65,0.34749
3197.86,0.34617
3192.07,0.34648
3186.29,0.34614
3180.5,0.34496
3174.71,0.34351
3168.93,0.33773
3163.14,0.32851
3157.36,0.33104
3151.57,0.33571
3145.78,0.33565
3140,0.33360
3134.21,0.33097
3128.42,0.32599
3122.64,0.31795
3116.85,0.30248
3111.07,0.27132
3105.28,0.23830
3099.49,0.23516
3093.71,0.23274
3087.92,0.19667
3082.14,0.17171
3076.35,0.18845
3070.56,0.18851
3064.78,0.16559
3058.99,0.15564
3053.2,0.17803
3047.42,0.19628
3041.63,0.19227
3035.85,0.16542
3030.06,0.13207
3024.27,0.12803
3018.49,0.16792
3012.7,0.20925
3006.91,0.21756
3001.13,0.20709
2995.34,0.23399
2989.56,0.26137
2983.77,0.26612
2977.98,0.25924
2972.2,0.25221
2966.41,0.24004
2960.62,0.22216
2954.84,0.20105
2949.05,0.17873
2943.27,0.15615
2937.48,0.13621
2931.69,0.12185
2925.91,0.11638
2920.12,0.12037
2914.33,0.13033
2908.55,0.14311
2902.76,0.15890
2896.98,0.17599
2891.19,0.18943
2885.4,0.20033
2879.62,0.21003
2873.83,0.21847
2868.04,0.21874
2862.26,0.20535
2856.47,0.18512
2850.69,0.17431
2844.9,0.18708
2839.11,0.22609
2833.33,0.27178
2827.54,0.29673
2821.75,0.30663
2815.97,0.31021
2810.18,0.31233
2804.4,0.31645
2798.61,0.32119
2792.82,0.32578
2787.04,0.32750
2781.25,0.32801
2775.46,0.33004
2769.68,0.33535
2763.89,0.33833
2758.11,0.34013
2752.32,0.34097
2746.53,0.34236
2740.75,0.34198
2734.96,0.33942
2729.17,0.33790
2723.39,0.33705
2717.6,0.33693
2711.82,0.33706
2706.03,0.33775
2700.24,0.33758
2694.46,0.33710
2688.67,0.33677
2682.88,0.33698
2677.1,0.33769
2671.31,0.33761
2665.53,0.33876
2659.74,0.33889
2653.95,0.33804
2648.17,0.33743
2642.38,0.33667
2636.59,0.33316
2630.81,0.33038
2625.02,0.33577
2619.24,0.33997
2613.45,0.33995
2607.66,0.33559
2601.88,0.33288
2596.09,0.33783
2590.3,0.34192
2584.52,0.33929
2578.73,0.33804
2572.95,0.34295
2567.16,0.34387
2561.37,0.34412
2555.59,0.34389
2549.8,0.34301
2544.02,0.34331
2538.23,0.34441
2532.44,0.34524
2526.66,0.34451
2520.87,0.34308
2515.08,0.34248
2509.3,0.34264
2503.51,0.34338
2497.73,0.34503
2491.94,0.34592
2486.15,0.34752
2480.37,0.34879
2474.58,0.35103
2468.79,0.35308
2463.01,0.35454
2457.22,0.35497
2451.44,0.35427
2445.65,0.35490
2439.86,0.35528
2434.08,0.35595
2428.29,0.35715
2422.5,0.35816
2416.72,0.35758
2410.93,0.35731
2405.15,0.35604
2399.36,0.35565
2393.57,0.35502
2387.79,0.35509
2382,0.35469
2376.21,0.35442
2370.43,0.35390
2364.64,0.35101
2358.86,0.34942
2353.07,0.34920
2347.28,0.34629
2341.5,0.33792
2335.71,0.33349
2329.92,0.34483
2324.14,0.35238
2318.35,0.34925
2312.57,0.34266
2306.78,0.34713
2300.99,0.35404
2295.21,0.35405
2289.42,0.35479
2283.63,0.35731
2277.85,0.35848
2272.06,0.35775
2266.28,0.35617
2260.49,0.35475
2254.7,0.35379
2248.92,0.35532
2243.13,0.35747
2237.34,0.35885
2231.56,0.35947
2225.77,0.36000
2219.99,0.36006
2214.2,0.36016
2208.41,0.35960
2202.63,0.36103
2196.84,0.36226
2191.05,0.36177
2185.27,0.36027
2179.48,0.36138
2173.7,0.36359
2167.91,0.36428
2162.12,0.36509
2156.34,0.36458
2150.55,0.36489
2144.76,0.36512
2138.98,0.36575
2133.19,0.36585
2127.41,0.36669
2121.62,0.36674
2115.83,0.36643
2110.05,0.36663
2104.26,0.36739
2098.47,0.36783
2092.69,0.36811
2086.9,0.36861
2081.12,0.36826
2075.33,0.36747
2069.54,0.36703
2063.76,0.36723
2057.97,0.36712
2052.19,0.36714
2046.4,0.36710
2040.61,0.36670
2034.83,0.36533
2029.04,0.36422
2023.25,0.36440
2017.47,0.36374
2011.68,0.36191
2005.9,0.36017
2000.11,0.35875
1994.32,0.35475
1988.54,0.34639
1982.75,0.34273
1976.96,0.34142
1971.18,0.32920
1965.39,0.30770
1959.61,0.29129
1953.82,0.28224
1948.03,0.27017
1942.25,0.26385
1936.46,0.27942
1930.67,0.30706
1924.89,0.32566
1919.1,0.33736
1913.32,0.34364
1907.53,0.34349
1901.74,0.33635
1895.96,0.32142
1890.17,0.30358
1884.38,0.29087
1878.6,0.28407
1872.81,0.27947
1867.03,0.28243
1861.24,0.30005
1855.45,0.32410
1849.67,0.33964
1843.88,0.34647
1838.09,0.34612
1832.31,0.33942
1826.52,0.32581
1820.74,0.30973
1814.95,0.29582
1809.16,0.28337
1803.38,0.27565
1797.59,0.28404
1791.8,0.30888
1786.02,0.32908
1780.23,0.33307
1774.45,0.33090
1768.66,0.33296
1762.87,0.32567
1757.09,0.30928
1751.3,0.29341
1745.51,0.28403
1739.73,0.28550
1733.94,0.29905
1728.16,0.31378
1722.37,0.32345
1716.58,0.33123
1710.8,0.33411
1705.01,0.33294
1699.22,0.33261
1693.44,0.32939
1687.65,0.32280
1681.87,0.31483
1676.08,0.30896
1670.29,0.30544
1664.51,0.30530
1658.72,0.31236
1652.93,0.32289
1647.15,0.32774
1641.36,0.32981
1635.58,0.32933
1629.79,0.32243
1624,0.31317
1618.22,0.30041
1612.43,0.26855
1606.64,0.20314
1600.86,0.16764
1595.07,0.21359
1589.29,0.24665
1583.5,0.22828
1577.71,0.27242
1571.93,0.30728
1566.14,0.32073
1560.35,0.32363
1554.57,0.31194
1548.78,0.29586
1543,0.28673
1537.21,0.29020
1531.42,0.30360
1525.64,0.31127
1519.85,0.30885
1514.07,0.29873
1508.28,0.28298
1502.49,0.23630
1496.71,0.14963
1490.92,0.14468
1485.13,0.21799
1479.35,0.26034
1473.56,0.26997
1467.78,0.25973
1461.99,0.23041
1456.2,0.15002
1450.42,0.13623
1444.63,0.17456
1438.84,0.20973
1433.06,0.25505
1427.27,0.28969
1421.49,0.30338
1415.7,0.30862
1409.91,0.30831
1404.13,0.30581
1398.34,0.29831
1392.55,0.27990
1386.77,0.25408
1380.98,0.23684
1375.2,0.22695
1369.41,0.22635
1363.62,0.23148
1357.84,0.23827
1352.05,0.24258
1346.26,0.24578
1340.48,0.25379
1334.69,0.25021
1328.91,0.24131
1323.12,0.24733
1317.33,0.24874
1311.55,0.24561
1305.76,0.25151
1299.97,0.25839
1294.19,0.26149
1288.4,0.26381
1282.62,0.26758
1276.83,0.27778
1271.04,0.29036
1265.26,0.29838
1259.47,0.30308
1253.68,0.30150
1247.9,0.29791
1242.11,0.29855
1236.33,0.30036
1230.54,0.29838
1224.75,0.29446
1218.97,0.29259
1213.18,0.28789
1207.39,0.27836
1201.61,0.26438
1195.82,0.25502
1190.04,0.25122
1184.25,0.23896
1178.46,0.24438
1172.68,0.26925
1166.89,0.27670
1161.1,0.26783
1155.32,0.24222
1149.53,0.27146
1143.75,0.30082
1137.96,0.31492
1132.17,0.31916
1126.39,0.31885
1120.6,0.30965
1114.81,0.29463
1109.03,0.29384
1103.24,0.29525
1097.46,0.28892
1091.67,0.28041
1085.88,0.26995
1080.1,0.25265
1074.31,0.23536
1068.52,0.22735
1062.74,0.24445
1056.95,0.26337
1051.17,0.27588
1045.38,0.28149
1039.59,0.27211
1033.81,0.22180
1028.02,0.19513
1022.24,0.22742
1016.45,0.25360
1010.66,0.26755
1004.88,0.26458
999.09,0.27969
993.304,0.29156
987.518,0.28390
981.731,0.27170
975.945,0.27525
970.159,0.27378
964.373,0.26313
958.586,0.28023
952.8,0.29105
947.014,0.28586
941.228,0.28371
935.441,0.29867
929.655,0.30881
923.869,0.30393
918.083,0.28467
912.297,0.24777
906.51,0.22751
900.724,0.25896
894.938,0.29924
889.152,0.31600
883.365,0.32584
877.579,0.33072
871.793,0.33215
866.007,0.33408
860.22,0.33259
854.434,0.32399
848.648,0.29924
842.862,0.27697
837.075,0.28974
831.289,0.32006
825.503,0.32943
819.717,0.32878
813.931,0.32402
808.144,0.31789
802.358,0.30847
796.572,0.29053
790.786,0.26310
784.999,0.23322
779.213,0.19865
773.427,0.16210
767.641,0.13731
761.854,0.12949
756.068,0.13728
750.282,0.15280
744.496,0.17798
738.709,0.21492
732.923,0.25314
727.137,0.27545
721.351,0.26256
715.565,0.21839
709.778,0.12599
703.992,0.07634
698.206,0.15687
692.42,0.25198
686.633,0.29837
680.847,0.31377
675.061,0.31773
669.275,0.32093
663.488,0.33155
657.702,0.34539
651.916,0.35570
646.13,0.35811
640.343,0.35430
634.557,0.33781
628.771,0.32030
622.985,0.31068
617.198,0.31399
611.412,0.32354
605.626,0.32137
599.84,0.31305