File: 01_Data/XPS_Foam_Board/FTIR/IS/XPS_Foam_Board_IS_S_220929_R4.dpt
7497.03,0.38432
7491.25,0.39662
7485.46,0.39191
7479.67,0.39149
7473.89,0.38791
7468.1,0.39710
7462.32,0.39907
7456.53,0.39537
7450.74,0.38958
7444.96,0.39215
7439.17,0.40346
7433.38,0.38802
7427.6,0.39684
7421.81,0.39399
7416.03,0.38230
7410.24,0.38659
7404.45,0.38752
7398.67,0.38986
7392.88,0.38992
7387.09,0.39018
7381.31,0.39370
7375.52,0.39087
7369.74,0.39954
7363.95,0.39263
7358.16,0.39752
7352.38,0.39191
7346.59,0.39748
7340.8,0.39365
7335.02,0.38717
7329.23,0.39093
7323.45,0.39448
7317.66,0.39119
7311.87,0.39331
7306.09,0.38708
7300.3,0.39911
7294.51,0.39132
7288.73,0.38886
7282.94,0.39771
7277.16,0.39515
7271.37,0.38894
7265.58,0.39528
7259.8,0.39403
7254.01,0.39487
7248.22,0.39278
7242.44,0.40081
7236.65,0.39238
7230.87,0.39049
7225.08,0.39122
7219.29,0.38749
7213.51,0.39039
7207.72,0.39090
7201.93,0.38408
7196.15,0.39007
7190.36,0.38778
7184.58,0.39224
7178.79,0.39278
7173,0.39373
7167.22,0.39428
7161.43,0.38632
7155.65,0.39085
7149.86,0.38591
7144.07,0.38945
7138.29,0.38943
7132.5,0.39475
7126.71,0.39325
7120.93,0.39105
7115.14,0.38508
7109.36,0.38703
7103.57,0.39067
7097.78,0.39622
7092,0.39013
7086.21,0.38676
7080.42,0.38926
7074.64,0.38915
7068.85,0.38972
7063.07,0.39082
7057.28,0.38996
7051.49,0.39474
7045.71,0.39582
7039.92,0.38908
7034.13,0.38951
7028.35,0.38873
7022.56,0.39028
7016.78,0.39434
7010.99,0.39419
7005.2,0.39115
6999.42,0.38827
6993.63,0.39006
6987.84,0.38970
6982.06,0.39498
6976.27,0.39125
6970.49,0.38801
6964.7,0.38865
6958.91,0.38976
6953.13,0.39019
6947.34,0.39280
6941.55,0.38775
6935.77,0.39055
6929.98,0.38881
6924.2,0.39242
6918.41,0.39030
6912.62,0.38820
6906.84,0.38850
6901.05,0.39603
6895.26,0.39525
6889.48,0.39544
6883.69,0.39478
6877.91,0.39176
6872.12,0.39628
6866.33,0.39539
6860.55,0.38754
6854.76,0.39174
6848.97,0.38988
6843.19,0.39195
6837.4,0.38809
6831.62,0.39010
6825.83,0.38921
6820.04,0.38900
6814.26,0.38634
6808.47,0.39151
6802.68,0.39099
6796.9,0.38763
6791.11,0.39121
6785.33,0.39017
6779.54,0.39152
6773.75,0.39160
6767.97,0.39026
6762.18,0.38785
6756.39,0.39037
6750.61,0.38712
6744.82,0.39011
6739.04,0.38494
6733.25,0.38536
6727.46,0.39289
6721.68,0.39512
6715.89,0.39367
6710.1,0.38993
6704.32,0.38748
6698.53,0.38658
6692.75,0.38645
6686.96,0.38924
6681.17,0.39178
6675.39,0.39270
6669.6,0.38773
6663.82,0.39175
6658.03,0.38839
6652.24,0.39101
6646.46,0.38885
6640.67,0.39421
6634.88,0.39540
6629.1,0.39078
6623.31,0.39211
6617.53,0.39048
6611.74,0.38524
6605.95,0.38943
6600.17,0.38953
6594.38,0.38703
6588.59,0.39222
6582.81,0.39225
6577.02,0.39081
6571.24,0.38772
6565.45,0.38932
6559.66,0.39040
6553.88,0.39437
6548.09,0.39148
6542.3,0.39256
6536.52,0.39418
6530.73,0.39503
6524.95,0.38688
6519.16,0.38903
6513.37,0.39019
6507.59,0.38751
6501.8,0.38746
6496.01,0.38578
6490.23,0.38820
6484.44,0.39316
6478.66,0.39157
6472.87,0.39147
6467.08,0.39272
6461.3,0.38758
6455.51,0.38958
6449.72,0.38671
6443.94,0.39138
6438.15,0.38956
6432.37,0.38970
6426.58,0.39183
6420.79,0.39135
6415.01,0.39350
6409.22,0.39034
6403.43,0.38592
6397.65,0.39262
6391.86,0.38973
6386.08,0.38946
6380.29,0.38400
6374.5,0.38804
6368.72,0.38851
6362.93,0.39212
6357.14,0.39509
6351.36,0.38982
6345.57,0.38909
6339.79,0.38675
6334,0.39079
6328.21,0.38870
6322.43,0.38666
6316.64,0.38928
6310.85,0.38953
6305.07,0.39047
6299.28,0.38824
6293.5,0.39216
6287.71,0.38839
6281.92,0.39155
6276.14,0.39396
6270.35,0.38745
6264.56,0.38990
6258.78,0.38914
6252.99,0.39050
6247.21,0.39018
6241.42,0.39204
6235.63,0.38784
6229.85,0.38429
6224.06,0.38787
6218.27,0.38862
6212.49,0.38753
6206.7,0.38696
6200.92,0.38848
6195.13,0.38939
6189.34,0.38685
6183.56,0.38703
6177.77,0.38163
6171.98,0.38470
6166.2,0.38626
6160.41,0.38592
6154.63,0.38544
6148.84,0.38600
6143.05,0.38346
6137.27,0.38266
6131.48,0.38657
6125.7,0.38518
6119.91,0.38388
6114.12,0.38051
6108.34,0.38073
6102.55,0.38055
6096.76,0.38185
6090.98,0.38440
6085.19,0.38597
6079.41,0.38178
6073.62,0.37984
6067.83,0.38321
6062.05,0.38287
6056.26,0.38023
6050.47,0.38260
6044.69,0.38470
6038.9,0.38270
6033.12,0.38123
6027.33,0.38035
6021.54,0.37988
6015.76,0.37634
6009.97,0.37572
6004.18,0.37310
5998.4,0.36997
5992.61,0.36913
5986.83,0.36761
5981.04,0.36312
5975.25,0.35937
5969.47,0.35841
5963.68,0.35825
5957.89,0.35802
5952.11,0.35630
5946.32,0.35739
5940.54,0.35499
5934.75,0.35788
5928.96,0.36149
5923.18,0.35996
5917.39,0.35897
5911.6,0.36448
5905.82,0.36300
5900.03,0.36185
5894.25,0.36508
5888.46,0.36714
5882.67,0.37114
5876.89,0.37147
5871.1,0.37359
5865.31,0.37763
5859.53,0.37600
5853.74,0.37509
5847.96,0.37611
5842.17,0.37444
5836.38,0.37886
5830.6,0.37875
5824.81,0.37861
5819.02,0.37788
5813.24,0.37842
5807.45,0.38092
5801.67,0.37930
5795.88,0.37837
5790.09,0.37933
5784.31,0.38013
5778.52,0.38005
5772.73,0.37931
5766.95,0.38104
5761.16,0.38336
5755.38,0.38233
5749.59,0.38225
5743.8,0.38322
5738.02,0.38619
5732.23,0.38564
5726.44,0.38407
5720.66,0.38284
5714.87,0.38329
5709.09,0.38193
5703.3,0.38197
5697.51,0.38110
5691.73,0.38307
5685.94,0.38100
5680.15,0.38000
5674.37,0.38075
5668.58,0.38144
5662.8,0.38122
5657.01,0.38164
5651.22,0.38283
5645.44,0.38091
5639.65,0.38201
5633.87,0.38340
5628.08,0.38246
5622.29,0.38452
5616.51,0.38277
5610.72,0.38361
5604.93,0.38365
5599.15,0.38457
5593.36,0.38329
5587.58,0.38386
5581.79,0.38253
5576,0.38374
5570.22,0.38177
5564.43,0.38208
5558.64,0.38401
5552.86,0.38483
5547.07,0.38312
5541.29,0.38429
5535.5,0.38274
5529.71,0.38428
5523.93,0.38382
5518.14,0.38466
5512.35,0.38473
5506.57,0.38538
5500.78,0.38488
5495,0.38360
5489.21,0.38484
5483.42,0.38580
5477.64,0.38412
5471.85,0.38542
5466.06,0.38575
5460.28,0.38555
5454.49,0.38491
5448.71,0.38433
5442.92,0.38560
5437.13,0.38539
5431.35,0.38472
5425.56,0.38506
5419.77,0.38537
5413.99,0.38598
5408.2,0.38731
5402.42,0.38607
5396.63,0.38472
5390.84,0.38455
5385.06,0.38483
5379.27,0.38490
5373.48,0.38677
5367.7,0.38561
5361.91,0.38605
5356.13,0.38542
5350.34,0.38598
5344.55,0.38660
5338.77,0.38687
5332.98,0.38721
5327.19,0.38603
5321.41,0.38595
5315.62,0.38684
5309.84,0.38657
5304.05,0.38731
5298.26,0.38549
5292.48,0.38756
5286.69,0.38633
5280.9,0.38642
5275.12,0.38530
5269.33,0.38689
5263.55,0.38689
5257.76,0.38800
5251.97,0.38814
5246.19,0.38605
5240.4,0.38568
5234.61,0.38595
5228.83,0.38502
5223.04,0.38664
5217.26,0.38639
5211.47,0.38675
5205.68,0.38544
5199.9,0.38763
5194.11,0.38693
5188.32,0.38709
5182.54,0.38801
5176.75,0.38560
5170.97,0.38755
5165.18,0.38729
5159.39,0.38631
5153.61,0.38742
5147.82,0.38706
5142.03,0.38659
5136.25,0.38662
5130.46,0.38732
5124.68,0.38651
5118.89,0.38737
5113.1,0.38691
5107.32,0.38834
5101.53,0.38779
5095.75,0.38610
5089.96,0.38650
5084.17,0.38619
5078.39,0.38802
5072.6,0.38693
5066.81,0.38702
5061.03,0.38709
5055.24,0.38730
5049.46,0.38699
5043.67,0.38692
5037.88,0.38823
5032.1,0.38603
5026.31,0.38665
5020.52,0.38809
5014.74,0.38812
5008.95,0.38837
5003.17,0.38784
4997.38,0.38815
4991.59,0.38586
4985.81,0.38722
4980.02,0.38777
4974.23,0.38784
4968.45,0.38635
4962.66,0.38656
4956.88,0.38640
4951.09,0.38710
4945.3,0.38846
4939.52,0.38663
4933.73,0.38700
4927.94,0.38812
4922.16,0.38791
4916.37,0.38775
4910.59,0.38754
4904.8,0.38788
4899.01,0.38678
4893.23,0.38712
4887.44,0.38673
4881.65,0.38784
4875.87,0.38824
4870.08,0.38673
4864.3,0.38733
4858.51,0.38766
4852.72,0.38633
4846.94,0.38798
4841.15,0.38694
4835.36,0.38622
4829.58,0.38680
4823.79,0.38774
4818.01,0.38619
4812.22,0.38645
4806.43,0.38641
4800.65,0.38687
4794.86,0.38650
4789.07,0.38695
4783.29,0.38685
4777.5,0.38610
4771.72,0.38636
4765.93,0.38610
4760.14,0.38543
4754.36,0.38555
4748.57,0.38523
4742.78,0.38544
4737,0.38583
4731.21,0.38628
4725.43,0.38568
4719.64,0.38344
4713.85,0.38275
4708.07,0.38197
4702.28,0.38223
4696.49,0.38010
4690.71,0.37965
4684.92,0.37490
4679.14,0.36929
4673.35,0.35986
4667.56,0.35224
4661.78,0.35027
4655.99,0.35467
4650.2,0.36049
4644.42,0.36397
4638.63,0.36229
4632.85,0.35774
4627.06,0.35350
4621.27,0.35212
4615.49,0.35139
4609.7,0.34855
4603.92,0.35034
4598.13,0.35806
4592.34,0.36344
4586.56,0.36702
4580.77,0.36609
4574.98,0.36083
4569.2,0.36018
4563.41,0.36657
4557.63,0.37064
4551.84,0.37505
4546.05,0.37688
4540.27,0.37868
4534.48,0.37853
4528.69,0.37806
4522.91,0.37935
4517.12,0.37943
4511.34,0.37862
4505.55,0.37862
4499.76,0.37908
4493.98,0.38080
4488.19,0.38080
4482.4,0.38080
4476.62,0.38187
4470.83,0.38211
4465.05,0.38219
4459.26,0.38156
4453.47,0.38225
4447.69,0.38208
4441.9,0.38058
4436.11,0.37986
4430.33,0.37986
4424.54,0.38046
4418.76,0.37968
4412.97,0.37943
4407.18,0.37880
4401.4,0.37778
4395.61,0.37754
4389.82,0.37608
4384.04,0.37368
4378.25,0.37272
4372.47,0.37092
4366.68,0.36911
4360.89,0.36554
4355.11,0.36395
4349.32,0.36250
4343.53,0.36046
4337.75,0.35945
4331.96,0.35868
4326.18,0.35968
4320.39,0.36305
4314.6,0.36672
4308.82,0.36849
4303.03,0.36836
4297.24,0.36887
4291.46,0.36675
4285.67,0.36458
4279.89,0.36157
4274.1,0.35822
4268.31,0.35585
4262.53,0.35200
4256.74,0.34932
4250.95,0.34772
4245.17,0.34755
4239.38,0.34854
4233.6,0.34962
4227.81,0.35077
4222.02,0.35126
4216.24,0.35078
4210.45,0.35095
4204.66,0.35146
4198.88,0.35362
4193.09,0.35586
4187.31,0.35754
4181.52,0.35765
4175.73,0.35868
4169.95,0.36074
4164.16,0.36142
4158.37,0.36133
4152.59,0.36148
4146.8,0.36148
4141.02,0.36141
4135.23,0.35977
4129.44,0.35818
4123.66,0.35688
4117.87,0.35506
4112.09,0.35369
4106.3,0.35183
4100.51,0.35140
4094.73,0.34951
4088.94,0.34646
4083.15,0.34106
4077.37,0.33493
4071.58,0.32713
4065.8,0.31805
4060.01,0.31096
4054.22,0.30815
4048.44,0.30843
4042.65,0.30820
4036.86,0.30489
4031.08,0.31231
4025.29,0.32349
4019.51,0.33608
4013.72,0.34818
4007.93,0.35171
4002.15,0.35143
3996.36,0.35319
3990.57,0.35746
3984.79,0.36010
3979,0.35960
3973.22,0.35975
3967.43,0.36062
3961.64,0.36124
3955.86,0.36206
3950.07,0.36228
3944.28,0.36173
3938.5,0.36106
3932.71,0.36165
3926.93,0.36254
3921.14,0.36297
3915.35,0.36360
3909.57,0.36417
3903.78,0.36472
3897.99,0.36478
3892.21,0.36503
3886.42,0.36632
3880.64,0.36647
3874.85,0.36673
3869.06,0.36692
3863.28,0.36607
3857.49,0.36635
3851.7,0.36657
3845.92,0.36551
3840.13,0.36529
3834.35,0.36475
3828.56,0.36317
3822.77,0.36290
3816.99,0.36187
3811.2,0.36100
3805.41,0.36249
3799.63,0.36331
3793.84,0.36356
3788.06,0.36529
3782.27,0.36626
3776.48,0.36667
3770.7,0.36657
3764.91,0.36608
3759.12,0.36656
3753.34,0.36790
3747.55,0.36909
3741.77,0.36939
3735.98,0.36982
3730.19,0.36775
3724.41,0.36562
3718.62,0.36498
3712.83,0.36685
3707.05,0.36601
3701.26,0.36297
3695.48,0.36469
3689.69,0.36644
3683.9,0.36445
3678.12,0.36412
3672.33,0.36529
3666.54,0.36338
3660.76,0.36109
3654.97,0.35562
3649.19,0.34992
3643.4,0.34942
3637.61,0.35766
3631.83,0.36165
3626.04,0.35923
3620.25,0.35540
3614.47,0.35990
3608.68,0.36418
3602.9,0.36606
3597.11,0.36681
3591.32,0.36729
3585.54,0.36739
3579.75,0.36668
3573.97,0.36655
3568.18,0.36706
3562.39,0.36586
3556.61,0.36501
3550.82,0.36453
3545.03,0.36515
3539.25,0.36422
3533.46,0.36321
3527.68,0.36305
3521.89,0.36268
3516.1,0.36180
3510.32,0.36115
3504.53,0.36061
3498.74,0.35951
3492.96,0.35870
3487.17,0.35799
3481.39,0.35730
3475.6,0.35661
3469.81,0.35565
3464.03,0.35480
3458.24,0.35496
3452.45,0.35385
3446.67,0.35293
3440.88,0.35299
3435.1,0.35434
3429.31,0.35473
3423.52,0.35635
3417.74,0.35669
3411.95,0.35717
3406.16,0.35712
3400.38,0.35751
3394.59,0.35750
3388.81,0.35725
3383.02,0.35725
3377.23,0.35766
3371.45,0.35850
3365.66,0.35931
3359.87,0.35917
3354.09,0.35769
3348.3,0.35866
3342.52,0.35886
3336.73,0.35851
3330.94,0.35868
3325.16,0.35814
3319.37,0.35833
3313.58,0.35873
3307.8,0.35874
3302.01,0.35862
3296.23,0.35891
3290.44,0.35846
3284.65,0.35778
3278.87,0.35712
3273.08,0.35775
3267.29,0.35648
3261.51,0.35648
3255.72,0.35644
3249.94,0.35613
3244.15,0.35610
3238.36,0.35560
3232.58,0.35565
3226.79,0.35466
3221,0.35410
3215.22,0.35298
3209.43,0.35060
3203.65,0.34838
3197.86,0.34765
3192.07,0.34722
3186.29,0.34617
3180.5,0.34556
3174.71,0.34372
3168.93,0.33801
3163.14,0.32900
3157.36,0.33175
3151.57,0.33635
3145.78,0.33631
3140,0.33458
3134.21,0.33189
3128.42,0.32751
3122.64,0.31884
3116.85,0.30270
3111.07,0.27220
3105.28,0.23829
3099.49,0.23570
3093.71,0.23313
3087.92,0.19699
3082.14,0.17273
3076.35,0.18861
3070.56,0.18908
3064.78,0.16555
3058.99,0.15447
3053.2,0.17818
3047.42,0.19746
3041.63,0.19252
3035.85,0.16584
3030.06,0.13183
3024.27,0.12820
3018.49,0.16747
3012.7,0.20918
3006.91,0.21774
3001.13,0.20744
2995.34,0.23439
2989.56,0.26160
2983.77,0.26673
2977.98,0.25961
2972.2,0.25262
2966.41,0.24054
2960.62,0.22224
2954.84,0.20157
2949.05,0.17963
2943.27,0.15645
2937.48,0.13646
2931.69,0.12165
2925.91,0.11634
2920.12,0.12058
2914.33,0.13002
2908.55,0.14321
2902.76,0.15926
2896.98,0.17608
2891.19,0.19028
2885.4,0.20024
2879.62,0.21053
2873.83,0.21907
2868.04,0.21897
2862.26,0.20528
2856.47,0.18502
2850.69,0.17452
2844.9,0.18746
2839.11,0.22616
2833.33,0.27179
2827.54,0.29728
2821.75,0.30718
2815.97,0.31123
2810.18,0.31280
2804.4,0.31658
2798.61,0.32209
2792.82,0.32624
2787.04,0.32808
2781.25,0.32906
2775.46,0.33065
2769.68,0.33600
2763.89,0.33925
2758.11,0.34084
2752.32,0.34202
2746.53,0.34273
2740.75,0.34206
2734.96,0.34028
2729.17,0.33852
2723.39,0.33811
2717.6,0.33747
2711.82,0.33822
2706.03,0.33861
2700.24,0.33851
2694.46,0.33769
2688.67,0.33760
2682.88,0.33769
2677.1,0.33808
2671.31,0.33831
2665.53,0.33912
2659.74,0.33936
2653.95,0.33886
2648.17,0.33843
2642.38,0.33723
2636.59,0.33409
2630.81,0.33107
2625.02,0.33657
2619.24,0.34093
2613.45,0.34076
2607.66,0.33612
2601.88,0.33326
2596.09,0.33842
2590.3,0.34266
2584.52,0.33953
2578.73,0.33892
2572.95,0.34371
2567.16,0.34498
2561.37,0.34440
2555.59,0.34391
2549.8,0.34340
2544.02,0.34344
2538.23,0.34495
2532.44,0.34531
2526.66,0.34537
2520.87,0.34370
2515.08,0.34326
2509.3,0.34320
2503.51,0.34413
2497.73,0.34601
2491.94,0.34671
2486.15,0.34757
2480.37,0.34912
2474.58,0.35191
2468.79,0.35375
2463.01,0.35568
2457.22,0.35538
2451.44,0.35501
2445.65,0.35613
2439.86,0.35592
2434.08,0.35698
2428.29,0.35817
2422.5,0.35887
2416.72,0.35872
2410.93,0.35824
2405.15,0.35709
2399.36,0.35614
2393.57,0.35548
2387.79,0.35547
2382,0.35503
2376.21,0.35500
2370.43,0.35432
2364.64,0.35141
2358.86,0.34959
2353.07,0.34944
2347.28,0.34662
2341.5,0.33831
2335.71,0.33379
2329.92,0.34521
2324.14,0.35258
2318.35,0.34969
2312.57,0.34321
2306.78,0.34759
2300.99,0.35425
2295.21,0.35442
2289.42,0.35529
2283.63,0.35823
2277.85,0.35926
2272.06,0.35851
2266.28,0.35695
2260.49,0.35535
2254.7,0.35483
2248.92,0.35574
2243.13,0.35806
2237.34,0.35982
2231.56,0.36040
2225.77,0.36079
2219.99,0.36082
2214.2,0.36048
2208.41,0.36020
2202.63,0.36212
2196.84,0.36314
2191.05,0.36196
2185.27,0.36140
2179.48,0.36212
2173.7,0.36412
2167.91,0.36522
2162.12,0.36535
2156.34,0.36546
2150.55,0.36534
2144.76,0.36576
2138.98,0.36601
2133.19,0.36664
2127.41,0.36735
2121.62,0.36736
2115.83,0.36716
2110.05,0.36772
2104.26,0.36807
2098.47,0.36838
2092.69,0.36898
2086.9,0.36888
2081.12,0.36901
2075.33,0.36837
2069.54,0.36815
2063.76,0.36789
2057.97,0.36778
2052.19,0.36770
2046.4,0.36748
2040.61,0.36728
2034.83,0.36617
2029.04,0.36515
2023.25,0.36520
2017.47,0.36451
2011.68,0.36246
2005.9,0.36110
2000.11,0.35958
1994.32,0.35570
1988.54,0.34747
1982.75,0.34332
1976.96,0.34193
1971.18,0.32966
1965.39,0.30797
1959.61,0.29199
1953.82,0.28289
1948.03,0.27049
1942.25,0.26425
1936.46,0.28021
1930.67,0.30723
1924.89,0.32627
1919.1,0.33786
1913.32,0.34448
1907.53,0.34428
1901.74,0.33723
1895.96,0.32230
1890.17,0.30429
1884.38,0.29144
1878.6,0.28503
1872.81,0.28015
1867.03,0.28251
1861.24,0.30057
1855.45,0.32470
1849.67,0.34026
1843.88,0.34736
1838.09,0.34642
1832.31,0.33999
1826.52,0.32617
1820.74,0.31026
1814.95,0.29642
1809.16,0.28375
1803.38,0.27642
1797.59,0.28419
1791.8,0.30926
1786.02,0.32958
1780.23,0.33339
1774.45,0.33138
1768.66,0.33341
1762.87,0.32640
1757.09,0.31003
1751.3,0.29373
1745.51,0.28432
1739.73,0.28570
1733.94,0.29901
1728.16,0.31418
1722.37,0.32412
1716.58,0.33177
1710.8,0.33486
1705.01,0.33359
1699.22,0.33277
1693.44,0.33004
1687.65,0.32367
1681.87,0.31554
1676.08,0.30964
1670.29,0.30604
1664.51,0.30598
1658.72,0.31252
1652.93,0.32304
1647.15,0.32790
1641.36,0.33066
1635.58,0.32957
1629.79,0.32256
1624,0.31380
1618.22,0.30116
1612.43,0.26903
1606.64,0.20357
1600.86,0.16759
1595.07,0.21431
1589.29,0.24718
1583.5,0.22894
1577.71,0.27233
1571.93,0.30782
1566.14,0.32172
1560.35,0.32415
1554.57,0.31225
1548.78,0.29595
1543,0.28666
1537.21,0.29097
1531.42,0.30408
1525.64,0.31182
1519.85,0.30906
1514.07,0.29879
1508.28,0.28290
1502.49,0.23693
1496.71,0.14956
1490.92,0.14432
1485.13,0.21840
1479.35,0.26080
1473.56,0.27024
1467.78,0.26023
1461.99,0.23044
1456.2,0.14989
1450.42,0.13650
1444.63,0.17504
1438.84,0.20999
1433.06,0.25566
1427.27,0.29030
1421.49,0.30373
1415.7,0.30889
1409.91,0.30899
1404.13,0.30653
1398.34,0.29901
1392.55,0.28026
1386.77,0.25443
1380.98,0.23714
1375.2,0.22641
1369.41,0.22611
1363.62,0.23143
1357.84,0.23854
1352.05,0.24269
1346.26,0.24616
1340.48,0.25402
1334.69,0.25072
1328.91,0.24182
1323.12,0.24770
1317.33,0.24889
1311.55,0.24607
1305.76,0.25161
1299.97,0.25883
1294.19,0.26221
1288.4,0.26439
1282.62,0.26850
1276.83,0.27852
1271.04,0.29088
1265.26,0.29944
1259.47,0.30375
1253.68,0.30207
1247.9,0.29845
1242.11,0.29910
1236.33,0.30090
1230.54,0.29873
1224.75,0.29556
1218.97,0.29327
1213.18,0.28841
1207.39,0.27888
1201.61,0.26461
1195.82,0.25550
1190.04,0.25160
1184.25,0.23892
1178.46,0.24371
1172.68,0.26942
1166.89,0.27673
1161.1,0.26827
1155.32,0.24208
1149.53,0.27093
1143.75,0.30148
1137.96,0.31552
1132.17,0.31990
1126.39,0.32013
1120.6,0.31007
1114.81,0.29551
1109.03,0.29426
1103.24,0.29560
1097.46,0.28931
1091.67,0.28083
1085.88,0.26965
1080.1,0.25281
1074.31,0.23595
1068.52,0.22762
1062.74,0.24477
1056.95,0.26364
1051.17,0.27599
1045.38,0.28239
1039.59,0.27336
1033.81,0.22231
1028.02,0.19515
1022.24,0.22734
1016.45,0.25392
1010.66,0.26755
1004.88,0.26457
999.09,0.27958
993.304,0.29105
987.518,0.28393
981.731,0.27203
975.945,0.27569
970.159,0.27363
964.373,0.26348
958.586,0.28030
952.8,0.29114
947.014,0.28626
941.228,0.28407
935.441,0.29913
929.655,0.31026
923.869,0.30436
918.083,0.28563
912.297,0.24766
906.51,0.22743
900.724,0.25907
894.938,0.29954
889.152,0.31631
883.365,0.32564
877.579,0.33094
871.793,0.33340
866.007,0.33421
860.22,0.33238
854.434,0.32453
848.648,0.30016
842.862,0.27675
837.075,0.28951
831.289,0.32017
825.503,0.32990
819.717,0.32918
813.931,0.32441
808.144,0.31783
802.358,0.30809
796.572,0.29023
790.786,0.26375
784.999,0.23232
779.213,0.19866
773.427,0.16245
767.641,0.13759
761.854,0.12985
756.068,0.13707
750.282,0.15261
744.496,0.17847
738.709,0.21502
732.923,0.25379
727.137,0.27468
721.351,0.26236
715.565,0.21885
709.778,0.12614
703.992,0.07655
698.206,0.15773
692.42,0.25123
686.633,0.29856
680.847,0.31342
675.061,0.31823
669.275,0.32133
663.488,0.33070
657.702,0.34712
651.916,0.35627
646.13,0.35951
640.343,0.35236
634.557,0.33689
628.771,0.31954
622.985,0.30988
617.198,0.31443
611.412,0.32276
605.626,0.32100
599.84,0.31384