File: 01_Data/XPS_Foam_Board/FTIR/IS/XPS_Foam_Board_IS_S_220929_R2.dpt
7497.03,0.39943
7491.25,0.40265
7485.46,0.38940
7479.67,0.38985
7473.89,0.38937
7468.1,0.39905
7462.32,0.39017
7456.53,0.39516
7450.74,0.39488
7444.96,0.39585
7439.17,0.38845
7433.38,0.39366
7427.6,0.40025
7421.81,0.38195
7416.03,0.38603
7410.24,0.38514
7404.45,0.39031
7398.67,0.39008
7392.88,0.39003
7387.09,0.40353
7381.31,0.39473
7375.52,0.38487
7369.74,0.39201
7363.95,0.39049
7358.16,0.38837
7352.38,0.40061
7346.59,0.39594
7340.8,0.39120
7335.02,0.38872
7329.23,0.38668
7323.45,0.39377
7317.66,0.38322
7311.87,0.39149
7306.09,0.39433
7300.3,0.39327
7294.51,0.38656
7288.73,0.39104
7282.94,0.39112
7277.16,0.39002
7271.37,0.39218
7265.58,0.38306
7259.8,0.39659
7254.01,0.39048
7248.22,0.38110
7242.44,0.39197
7236.65,0.39187
7230.87,0.39264
7225.08,0.38878
7219.29,0.38679
7213.51,0.39260
7207.72,0.39400
7201.93,0.38734
7196.15,0.39283
7190.36,0.38982
7184.58,0.39641
7178.79,0.39092
7173,0.38926
7167.22,0.39666
7161.43,0.39270
7155.65,0.38693
7149.86,0.38271
7144.07,0.38762
7138.29,0.39687
7132.5,0.39724
7126.71,0.39609
7120.93,0.39945
7115.14,0.39419
7109.36,0.38924
7103.57,0.38352
7097.78,0.39098
7092,0.38683
7086.21,0.39400
7080.42,0.38978
7074.64,0.39006
7068.85,0.38641
7063.07,0.38656
7057.28,0.39047
7051.49,0.39283
7045.71,0.39337
7039.92,0.39092
7034.13,0.38963
7028.35,0.39696
7022.56,0.39376
7016.78,0.38628
7010.99,0.39003
7005.2,0.38527
6999.42,0.38826
6993.63,0.39639
6987.84,0.38687
6982.06,0.39094
6976.27,0.39587
6970.49,0.38946
6964.7,0.39613
6958.91,0.39130
6953.13,0.39335
6947.34,0.39003
6941.55,0.39256
6935.77,0.39294
6929.98,0.38476
6924.2,0.38789
6918.41,0.38808
6912.62,0.39199
6906.84,0.39468
6901.05,0.39018
6895.26,0.39354
6889.48,0.38862
6883.69,0.39479
6877.91,0.39311
6872.12,0.39330
6866.33,0.38583
6860.55,0.38553
6854.76,0.39050
6848.97,0.38445
6843.19,0.38934
6837.4,0.39176
6831.62,0.38963
6825.83,0.38637
6820.04,0.39364
6814.26,0.39412
6808.47,0.39370
6802.68,0.39292
6796.9,0.39292
6791.11,0.38721
6785.33,0.39420
6779.54,0.38847
6773.75,0.38945
6767.97,0.39253
6762.18,0.38725
6756.39,0.39107
6750.61,0.39531
6744.82,0.39023
6739.04,0.38994
6733.25,0.38657
6727.46,0.38565
6721.68,0.39103
6715.89,0.38877
6710.1,0.39437
6704.32,0.39114
6698.53,0.39184
6692.75,0.38818
6686.96,0.39026
6681.17,0.39144
6675.39,0.38967
6669.6,0.38991
6663.82,0.38870
6658.03,0.39022
6652.24,0.39157
6646.46,0.39569
6640.67,0.38978
6634.88,0.39455
6629.1,0.39087
6623.31,0.39054
6617.53,0.38844
6611.74,0.38710
6605.95,0.38972
6600.17,0.39108
6594.38,0.39434
6588.59,0.38902
6582.81,0.39194
6577.02,0.39001
6571.24,0.39159
6565.45,0.39318
6559.66,0.39341
6553.88,0.38951
6548.09,0.39034
6542.3,0.39225
6536.52,0.39503
6530.73,0.39148
6524.95,0.38575
6519.16,0.38737
6513.37,0.38973
6507.59,0.39008
6501.8,0.39078
6496.01,0.39082
6490.23,0.38555
6484.44,0.39288
6478.66,0.38978
6472.87,0.39077
6467.08,0.39022
6461.3,0.39012
6455.51,0.39375
6449.72,0.39287
6443.94,0.38987
6438.15,0.38957
6432.37,0.38548
6426.58,0.39277
6420.79,0.39548
6415.01,0.39093
6409.22,0.39058
6403.43,0.39092
6397.65,0.39123
6391.86,0.39292
6386.08,0.38720
6380.29,0.39066
6374.5,0.39382
6368.72,0.39155
6362.93,0.38743
6357.14,0.39043
6351.36,0.39081
6345.57,0.39177
6339.79,0.38569
6334,0.38816
6328.21,0.38753
6322.43,0.38902
6316.64,0.39348
6310.85,0.38752
6305.07,0.39077
6299.28,0.38983
6293.5,0.39362
6287.71,0.39074
6281.92,0.39116
6276.14,0.39148
6270.35,0.39229
6264.56,0.38810
6258.78,0.39168
6252.99,0.39165
6247.21,0.39110
6241.42,0.38948
6235.63,0.38978
6229.85,0.39128
6224.06,0.39142
6218.27,0.39064
6212.49,0.38838
6206.7,0.38845
6200.92,0.38656
6195.13,0.39004
6189.34,0.38898
6183.56,0.38823
6177.77,0.38521
6171.98,0.38692
6166.2,0.38507
6160.41,0.38890
6154.63,0.38670
6148.84,0.38391
6143.05,0.38430
6137.27,0.38509
6131.48,0.38891
6125.7,0.38531
6119.91,0.38402
6114.12,0.38344
6108.34,0.38308
6102.55,0.38242
6096.76,0.38268
6090.98,0.38649
6085.19,0.38316
6079.41,0.38187
6073.62,0.37962
6067.83,0.38401
6062.05,0.38324
6056.26,0.38349
6050.47,0.38377
6044.69,0.38498
6038.9,0.38632
6033.12,0.38395
6027.33,0.38214
6021.54,0.37977
6015.76,0.37968
6009.97,0.37717
6004.18,0.37260
5998.4,0.36945
5992.61,0.36721
5986.83,0.36539
5981.04,0.36389
5975.25,0.36242
5969.47,0.35934
5963.68,0.35741
5957.89,0.35709
5952.11,0.35700
5946.32,0.35780
5940.54,0.35654
5934.75,0.35790
5928.96,0.36151
5923.18,0.36263
5917.39,0.36075
5911.6,0.36412
5905.82,0.36440
5900.03,0.36577
5894.25,0.36684
5888.46,0.36912
5882.67,0.37068
5876.89,0.37391
5871.1,0.37423
5865.31,0.37450
5859.53,0.37610
5853.74,0.37849
5847.96,0.37630
5842.17,0.38022
5836.38,0.37869
5830.6,0.38153
5824.81,0.37797
5819.02,0.37874
5813.24,0.37647
5807.45,0.37887
5801.67,0.37967
5795.88,0.38010
5790.09,0.37800
5784.31,0.38116
5778.52,0.38108
5772.73,0.37983
5766.95,0.38314
5761.16,0.38265
5755.38,0.38484
5749.59,0.38403
5743.8,0.38411
5738.02,0.38544
5732.23,0.38365
5726.44,0.38417
5720.66,0.38255
5714.87,0.38165
5709.09,0.38286
5703.3,0.37947
5697.51,0.38210
5691.73,0.38089
5685.94,0.38349
5680.15,0.37846
5674.37,0.38048
5668.58,0.37886
5662.8,0.38146
5657.01,0.38182
5651.22,0.38250
5645.44,0.38074
5639.65,0.38471
5633.87,0.38133
5628.08,0.38464
5622.29,0.38519
5616.51,0.38365
5610.72,0.38688
5604.93,0.38679
5599.15,0.38554
5593.36,0.38644
5587.58,0.38525
5581.79,0.38522
5576,0.38583
5570.22,0.38434
5564.43,0.38430
5558.64,0.38464
5552.86,0.38520
5547.07,0.38506
5541.29,0.38391
5535.5,0.38458
5529.71,0.38412
5523.93,0.38386
5518.14,0.38405
5512.35,0.38404
5506.57,0.38548
5500.78,0.38452
5495,0.38578
5489.21,0.38491
5483.42,0.38533
5477.64,0.38555
5471.85,0.38806
5466.06,0.38683
5460.28,0.38679
5454.49,0.38599
5448.71,0.38552
5442.92,0.38594
5437.13,0.38722
5431.35,0.38567
5425.56,0.38483
5419.77,0.38655
5413.99,0.38563
5408.2,0.38544
5402.42,0.38668
5396.63,0.38632
5390.84,0.38671
5385.06,0.38676
5379.27,0.38484
5373.48,0.38606
5367.7,0.38456
5361.91,0.38531
5356.13,0.38546
5350.34,0.38556
5344.55,0.38716
5338.77,0.38555
5332.98,0.38649
5327.19,0.38774
5321.41,0.38775
5315.62,0.38693
5309.84,0.38677
5304.05,0.38767
5298.26,0.38863
5292.48,0.38681
5286.69,0.38774
5280.9,0.38755
5275.12,0.38679
5269.33,0.38705
5263.55,0.38805
5257.76,0.38782
5251.97,0.38643
5246.19,0.38612
5240.4,0.38648
5234.61,0.38714
5228.83,0.38577
5223.04,0.38611
5217.26,0.38591
5211.47,0.38696
5205.68,0.38617
5199.9,0.38619
5194.11,0.38743
5188.32,0.38768
5182.54,0.38872
5176.75,0.38668
5170.97,0.38729
5165.18,0.38648
5159.39,0.38653
5153.61,0.38832
5147.82,0.38689
5142.03,0.38748
5136.25,0.38773
5130.46,0.38830
5124.68,0.38708
5118.89,0.38842
5113.1,0.38720
5107.32,0.38763
5101.53,0.38768
5095.75,0.38646
5089.96,0.38749
5084.17,0.38756
5078.39,0.38678
5072.6,0.38756
5066.81,0.38884
5061.03,0.38798
5055.24,0.38753
5049.46,0.38827
5043.67,0.38880
5037.88,0.38688
5032.1,0.38747
5026.31,0.38867
5020.52,0.38735
5014.74,0.38772
5008.95,0.38737
5003.17,0.38803
4997.38,0.38746
4991.59,0.38697
4985.81,0.38769
4980.02,0.38652
4974.23,0.38798
4968.45,0.38881
4962.66,0.38770
4956.88,0.38888
4951.09,0.38858
4945.3,0.38648
4939.52,0.38837
4933.73,0.38731
4927.94,0.38774
4922.16,0.38811
4916.37,0.38766
4910.59,0.38787
4904.8,0.38797
4899.01,0.38811
4893.23,0.38816
4887.44,0.38862
4881.65,0.38811
4875.87,0.38852
4870.08,0.38664
4864.3,0.38698
4858.51,0.38720
4852.72,0.38699
4846.94,0.38644
4841.15,0.38759
4835.36,0.38677
4829.58,0.38653
4823.79,0.38670
4818.01,0.38707
4812.22,0.38713
4806.43,0.38824
4800.65,0.38693
4794.86,0.38718
4789.07,0.38680
4783.29,0.38678
4777.5,0.38617
4771.72,0.38671
4765.93,0.38623
4760.14,0.38568
4754.36,0.38581
4748.57,0.38606
4742.78,0.38578
4737,0.38618
4731.21,0.38563
4725.43,0.38486
4719.64,0.38491
4713.85,0.38406
4708.07,0.38233
4702.28,0.38197
4696.49,0.38041
4690.71,0.37937
4684.92,0.37607
4679.14,0.36848
4673.35,0.35888
4667.56,0.35220
4661.78,0.35115
4655.99,0.35451
4650.2,0.36071
4644.42,0.36354
4638.63,0.36332
4632.85,0.35817
4627.06,0.35445
4621.27,0.35228
4615.49,0.35259
4609.7,0.35108
4603.92,0.35115
4598.13,0.35829
4592.34,0.36551
4586.56,0.36738
4580.77,0.36679
4574.98,0.36094
4569.2,0.36043
4563.41,0.36627
4557.63,0.37189
4551.84,0.37425
4546.05,0.37782
4540.27,0.37815
4534.48,0.37882
4528.69,0.37838
4522.91,0.37888
4517.12,0.38013
4511.34,0.37988
4505.55,0.37894
4499.76,0.37917
4493.98,0.38031
4488.19,0.38130
4482.4,0.38184
4476.62,0.38220
4470.83,0.38200
4465.05,0.38270
4459.26,0.38228
4453.47,0.38289
4447.69,0.38176
4441.9,0.37957
4436.11,0.37984
4430.33,0.37978
4424.54,0.38041
4418.76,0.37967
4412.97,0.37985
4407.18,0.37866
4401.4,0.37847
4395.61,0.37721
4389.82,0.37610
4384.04,0.37416
4378.25,0.37324
4372.47,0.37114
4366.68,0.36931
4360.89,0.36684
4355.11,0.36518
4349.32,0.36257
4343.53,0.36126
4337.75,0.35988
4331.96,0.35984
4326.18,0.36046
4320.39,0.36373
4314.6,0.36623
4308.82,0.36920
4303.03,0.36957
4297.24,0.36897
4291.46,0.36723
4285.67,0.36554
4279.89,0.36220
4274.1,0.35929
4268.31,0.35583
4262.53,0.35214
4256.74,0.34911
4250.95,0.34720
4245.17,0.34776
4239.38,0.34980
4233.6,0.34973
4227.81,0.35074
4222.02,0.35145
4216.24,0.35150
4210.45,0.35159
4204.66,0.35135
4198.88,0.35277
4193.09,0.35678
4187.31,0.35785
4181.52,0.35850
4175.73,0.35996
4169.95,0.36125
4164.16,0.36212
4158.37,0.36234
4152.59,0.36211
4146.8,0.36166
4141.02,0.36105
4135.23,0.35970
4129.44,0.35865
4123.66,0.35654
4117.87,0.35500
4112.09,0.35355
4106.3,0.35276
4100.51,0.35188
4094.73,0.34940
4088.94,0.34623
4083.15,0.34109
4077.37,0.33495
4071.58,0.32638
4065.8,0.31754
4060.01,0.31083
4054.22,0.30849
4048.44,0.30903
4042.65,0.30841
4036.86,0.30561
4031.08,0.31235
4025.29,0.32405
4019.51,0.33683
4013.72,0.34784
4007.93,0.35141
4002.15,0.35173
3996.36,0.35372
3990.57,0.35866
3984.79,0.36049
3979,0.35982
3973.22,0.36021
3967.43,0.36168
3961.64,0.36149
3955.86,0.36249
3950.07,0.36349
3944.28,0.36191
3938.5,0.36119
3932.71,0.36199
3926.93,0.36201
3921.14,0.36302
3915.35,0.36337
3909.57,0.36411
3903.78,0.36513
3897.99,0.36510
3892.21,0.36613
3886.42,0.36655
3880.64,0.36673
3874.85,0.36724
3869.06,0.36678
3863.28,0.36697
3857.49,0.36679
3851.7,0.36722
3845.92,0.36578
3840.13,0.36587
3834.35,0.36482
3828.56,0.36405
3822.77,0.36354
3816.99,0.36252
3811.2,0.36274
3805.41,0.36327
3799.63,0.36401
3793.84,0.36421
3788.06,0.36586
3782.27,0.36687
3776.48,0.36691
3770.7,0.36654
3764.91,0.36598
3759.12,0.36654
3753.34,0.36822
3747.55,0.36993
3741.77,0.36958
3735.98,0.36991
3730.19,0.36837
3724.41,0.36570
3718.62,0.36529
3712.83,0.36759
3707.05,0.36660
3701.26,0.36479
3695.48,0.36441
3689.69,0.36691
3683.9,0.36548
3678.12,0.36549
3672.33,0.36530
3666.54,0.36408
3660.76,0.36105
3654.97,0.35586
3649.19,0.35036
3643.4,0.35029
3637.61,0.35815
3631.83,0.36249
3626.04,0.35887
3620.25,0.35625
3614.47,0.36061
3608.68,0.36478
3602.9,0.36668
3597.11,0.36660
3591.32,0.36636
3585.54,0.36769
3579.75,0.36755
3573.97,0.36746
3568.18,0.36755
3562.39,0.36650
3556.61,0.36562
3550.82,0.36560
3545.03,0.36500
3539.25,0.36432
3533.46,0.36367
3527.68,0.36322
3521.89,0.36244
3516.1,0.36199
3510.32,0.36175
3504.53,0.36096
3498.74,0.35992
3492.96,0.35930
3487.17,0.35860
3481.39,0.35710
3475.6,0.35608
3469.81,0.35553
3464.03,0.35529
3458.24,0.35530
3452.45,0.35392
3446.67,0.35389
3440.88,0.35257
3435.1,0.35372
3429.31,0.35579
3423.52,0.35702
3417.74,0.35718
3411.95,0.35737
3406.16,0.35698
3400.38,0.35766
3394.59,0.35766
3388.81,0.35716
3383.02,0.35762
3377.23,0.35761
3371.45,0.35851
3365.66,0.35833
3359.87,0.35899
3354.09,0.35868
3348.3,0.35871
3342.52,0.35875
3336.73,0.35864
3330.94,0.35907
3325.16,0.35905
3319.37,0.35913
3313.58,0.35865
3307.8,0.35854
3302.01,0.35865
3296.23,0.35827
3290.44,0.35860
3284.65,0.35793
3278.87,0.35755
3273.08,0.35799
3267.29,0.35739
3261.51,0.35657
3255.72,0.35643
3249.94,0.35625
3244.15,0.35639
3238.36,0.35606
3232.58,0.35544
3226.79,0.35516
3221,0.35390
3215.22,0.35334
3209.43,0.35152
3203.65,0.34946
3197.86,0.34802
3192.07,0.34796
3186.29,0.34702
3180.5,0.34606
3174.71,0.34391
3168.93,0.33787
3163.14,0.32888
3157.36,0.33188
3151.57,0.33618
3145.78,0.33644
3140,0.33440
3134.21,0.33250
3128.42,0.32692
3122.64,0.31890
3116.85,0.30250
3111.07,0.27198
3105.28,0.23863
3099.49,0.23619
3093.71,0.23311
3087.92,0.19741
3082.14,0.17235
3076.35,0.18865
3070.56,0.18926
3064.78,0.16599
3058.99,0.15567
3053.2,0.17860
3047.42,0.19748
3041.63,0.19265
3035.85,0.16555
3030.06,0.13223
3024.27,0.12763
3018.49,0.16813
3012.7,0.20949
3006.91,0.21756
3001.13,0.20677
2995.34,0.23421
2989.56,0.26156
2983.77,0.26661
2977.98,0.26066
2972.2,0.25262
2966.41,0.24133
2960.62,0.22245
2954.84,0.20200
2949.05,0.17930
2943.27,0.15626
2937.48,0.13636
2931.69,0.12223
2925.91,0.11689
2920.12,0.12001
2914.33,0.12983
2908.55,0.14346
2902.76,0.15887
2896.98,0.17615
2891.19,0.19003
2885.4,0.20022
2879.62,0.21041
2873.83,0.21891
2868.04,0.21923
2862.26,0.20551
2856.47,0.18488
2850.69,0.17476
2844.9,0.18729
2839.11,0.22642
2833.33,0.27177
2827.54,0.29699
2821.75,0.30718
2815.97,0.31132
2810.18,0.31301
2804.4,0.31711
2798.61,0.32217
2792.82,0.32605
2787.04,0.32870
2781.25,0.32892
2775.46,0.33114
2769.68,0.33604
2763.89,0.33919
2758.11,0.34098
2752.32,0.34245
2746.53,0.34265
2740.75,0.34270
2734.96,0.34038
2729.17,0.33908
2723.39,0.33836
2717.6,0.33771
2711.82,0.33793
2706.03,0.33829
2700.24,0.33814
2694.46,0.33778
2688.67,0.33764
2682.88,0.33765
2677.1,0.33824
2671.31,0.33818
2665.53,0.33936
2659.74,0.33969
2653.95,0.33942
2648.17,0.33879
2642.38,0.33810
2636.59,0.33437
2630.81,0.33113
2625.02,0.33730
2619.24,0.34070
2613.45,0.34068
2607.66,0.33623
2601.88,0.33343
2596.09,0.33896
2590.3,0.34258
2584.52,0.34001
2578.73,0.33919
2572.95,0.34420
2567.16,0.34516
2561.37,0.34476
2555.59,0.34459
2549.8,0.34388
2544.02,0.34347
2538.23,0.34554
2532.44,0.34606
2526.66,0.34536
2520.87,0.34447
2515.08,0.34378
2509.3,0.34280
2503.51,0.34440
2497.73,0.34585
2491.94,0.34630
2486.15,0.34795
2480.37,0.34991
2474.58,0.35214
2468.79,0.35412
2463.01,0.35540
2457.22,0.35608
2451.44,0.35557
2445.65,0.35615
2439.86,0.35686
2434.08,0.35728
2428.29,0.35817
2422.5,0.35880
2416.72,0.35896
2410.93,0.35831
2405.15,0.35734
2399.36,0.35661
2393.57,0.35641
2387.79,0.35572
2382,0.35565
2376.21,0.35558
2370.43,0.35457
2364.64,0.35207
2358.86,0.35022
2353.07,0.35021
2347.28,0.34791
2341.5,0.33959
2335.71,0.33427
2329.92,0.34589
2324.14,0.35288
2318.35,0.35051
2312.57,0.34309
2306.78,0.34767
2300.99,0.35448
2295.21,0.35445
2289.42,0.35562
2283.63,0.35844
2277.85,0.35935
2272.06,0.35889
2266.28,0.35755
2260.49,0.35555
2254.7,0.35504
2248.92,0.35662
2243.13,0.35879
2237.34,0.36021
2231.56,0.36081
2225.77,0.36111
2219.99,0.36147
2214.2,0.36133
2208.41,0.36075
2202.63,0.36269
2196.84,0.36347
2191.05,0.36260
2185.27,0.36153
2179.48,0.36294
2173.7,0.36431
2167.91,0.36503
2162.12,0.36528
2156.34,0.36576
2150.55,0.36571
2144.76,0.36585
2138.98,0.36648
2133.19,0.36723
2127.41,0.36765
2121.62,0.36748
2115.83,0.36733
2110.05,0.36770
2104.26,0.36817
2098.47,0.36841
2092.69,0.36917
2086.9,0.36920
2081.12,0.36925
2075.33,0.36887
2069.54,0.36848
2063.76,0.36809
2057.97,0.36795
2052.19,0.36797
2046.4,0.36766
2040.61,0.36753
2034.83,0.36647
2029.04,0.36571
2023.25,0.36532
2017.47,0.36490
2011.68,0.36295
2005.9,0.36119
2000.11,0.36006
1994.32,0.35568
1988.54,0.34731
1982.75,0.34362
1976.96,0.34211
1971.18,0.32985
1965.39,0.30825
1959.61,0.29253
1953.82,0.28295
1948.03,0.27074
1942.25,0.26450
1936.46,0.28020
1930.67,0.30806
1924.89,0.32636
1919.1,0.33828
1913.32,0.34467
1907.53,0.34454
1901.74,0.33713
1895.96,0.32258
1890.17,0.30477
1884.38,0.29164
1878.6,0.28497
1872.81,0.28022
1867.03,0.28289
1861.24,0.30105
1855.45,0.32488
1849.67,0.34052
1843.88,0.34725
1838.09,0.34697
1832.31,0.34011
1826.52,0.32688
1820.74,0.31067
1814.95,0.29647
1809.16,0.28393
1803.38,0.27626
1797.59,0.28425
1791.8,0.30952
1786.02,0.32980
1780.23,0.33352
1774.45,0.33186
1768.66,0.33394
1762.87,0.32665
1757.09,0.31007
1751.3,0.29372
1745.51,0.28478
1739.73,0.28622
1733.94,0.30020
1728.16,0.31467
1722.37,0.32444
1716.58,0.33243
1710.8,0.33549
1705.01,0.33464
1699.22,0.33314
1693.44,0.33004
1687.65,0.32368
1681.87,0.31551
1676.08,0.30980
1670.29,0.30609
1664.51,0.30625
1658.72,0.31295
1652.93,0.32352
1647.15,0.32823
1641.36,0.33091
1635.58,0.32997
1629.79,0.32322
1624,0.31402
1618.22,0.30143
1612.43,0.26906
1606.64,0.20355
1600.86,0.16769
1595.07,0.21423
1589.29,0.24730
1583.5,0.22886
1577.71,0.27271
1571.93,0.30813
1566.14,0.32193
1560.35,0.32433
1554.57,0.31273
1548.78,0.29647
1543,0.28735
1537.21,0.29146
1531.42,0.30429
1525.64,0.31248
1519.85,0.30952
1514.07,0.29969
1508.28,0.28320
1502.49,0.23727
1496.71,0.15016
1490.92,0.14466
1485.13,0.21856
1479.35,0.26090
1473.56,0.27058
1467.78,0.26080
1461.99,0.23089
1456.2,0.15062
1450.42,0.13643
1444.63,0.17483
1438.84,0.21027
1433.06,0.25608
1427.27,0.29034
1421.49,0.30391
1415.7,0.30930
1409.91,0.30928
1404.13,0.30678
1398.34,0.29884
1392.55,0.27986
1386.77,0.25487
1380.98,0.23721
1375.2,0.22713
1369.41,0.22630
1363.62,0.23155
1357.84,0.23916
1352.05,0.24273
1346.26,0.24642
1340.48,0.25452
1334.69,0.25102
1328.91,0.24216
1323.12,0.24759
1317.33,0.24902
1311.55,0.24620
1305.76,0.25205
1299.97,0.25924
1294.19,0.26263
1288.4,0.26422
1282.62,0.26854
1276.83,0.27843
1271.04,0.29126
1265.26,0.29936
1259.47,0.30339
1253.68,0.30164
1247.9,0.29889
1242.11,0.29968
1236.33,0.30131
1230.54,0.29975
1224.75,0.29548
1218.97,0.29357
1213.18,0.28854
1207.39,0.27891
1201.61,0.26530
1195.82,0.25558
1190.04,0.25214
1184.25,0.23961
1178.46,0.24446
1172.68,0.26936
1166.89,0.27752
1161.1,0.26852
1155.32,0.24254
1149.53,0.27116
1143.75,0.30124
1137.96,0.31522
1132.17,0.32021
1126.39,0.32031
1120.6,0.31029
1114.81,0.29554
1109.03,0.29452
1103.24,0.29560
1097.46,0.28925
1091.67,0.28175
1085.88,0.27030
1080.1,0.25338
1074.31,0.23640
1068.52,0.22749
1062.74,0.24399
1056.95,0.26364
1051.17,0.27585
1045.38,0.28266
1039.59,0.27353
1033.81,0.22206
1028.02,0.19558
1022.24,0.22783
1016.45,0.25381
1010.66,0.26837
1004.88,0.26522
999.09,0.28057
993.304,0.29168
987.518,0.28415
981.731,0.27162
975.945,0.27532
970.159,0.27443
964.373,0.26367
958.586,0.28035
952.8,0.29134
947.014,0.28640
941.228,0.28460
935.441,0.29892
929.655,0.31052
923.869,0.30461
918.083,0.28602
912.297,0.24877
906.51,0.22741
900.724,0.25906
894.938,0.29982
889.152,0.31667
883.365,0.32653
877.579,0.33186
871.793,0.33367
866.007,0.33410
860.22,0.33255
854.434,0.32467
848.648,0.29916
842.862,0.27658
837.075,0.29070
831.289,0.32148
825.503,0.32957
819.717,0.32970
813.931,0.32479
808.144,0.31824
802.358,0.30939
796.572,0.29113
790.786,0.26311
784.999,0.23302
779.213,0.20015
773.427,0.16283
767.641,0.13699
761.854,0.12933
756.068,0.13675
750.282,0.15260
744.496,0.17749
738.709,0.21413
732.923,0.25353
727.137,0.27582
721.351,0.26220
715.565,0.21965
709.778,0.12703
703.992,0.07550
698.206,0.15666
692.42,0.25138
686.633,0.29907
680.847,0.31425
675.061,0.31881
669.275,0.32082
663.488,0.33129
657.702,0.34544
651.916,0.35545
646.13,0.35914
640.343,0.35493
634.557,0.33614
628.771,0.31967
622.985,0.30923
617.198,0.31338
611.412,0.32327
605.626,0.32249
599.84,0.31492