File: 01_Data/XPS_Foam_Board/FTIR/IS/XPS_Foam_Board_IS_S_220929_R7.dpt
7497.03,0.39078
7491.25,0.38940
7485.46,0.38065
7479.67,0.39970
7473.89,0.40060
7468.1,0.39052
7462.32,0.39941
7456.53,0.39783
7450.74,0.38723
7444.96,0.38860
7439.17,0.39176
7433.38,0.39287
7427.6,0.38573
7421.81,0.39103
7416.03,0.39690
7410.24,0.39866
7404.45,0.39280
7398.67,0.39674
7392.88,0.39358
7387.09,0.39181
7381.31,0.39154
7375.52,0.39347
7369.74,0.39192
7363.95,0.38714
7358.16,0.39346
7352.38,0.39281
7346.59,0.38458
7340.8,0.38947
7335.02,0.38946
7329.23,0.39569
7323.45,0.39438
7317.66,0.39583
7311.87,0.39792
7306.09,0.39219
7300.3,0.39123
7294.51,0.39731
7288.73,0.38999
7282.94,0.39448
7277.16,0.39671
7271.37,0.39485
7265.58,0.38630
7259.8,0.40109
7254.01,0.39394
7248.22,0.39490
7242.44,0.39364
7236.65,0.38920
7230.87,0.39216
7225.08,0.39372
7219.29,0.39184
7213.51,0.39288
7207.72,0.39515
7201.93,0.39251
7196.15,0.40178
7190.36,0.39552
7184.58,0.39968
7178.79,0.39215
7173,0.39279
7167.22,0.39032
7161.43,0.38989
7155.65,0.40140
7149.86,0.39025
7144.07,0.38877
7138.29,0.39316
7132.5,0.39376
7126.71,0.39163
7120.93,0.39275
7115.14,0.39420
7109.36,0.39405
7103.57,0.39929
7097.78,0.38894
7092,0.39571
7086.21,0.38816
7080.42,0.39361
7074.64,0.39246
7068.85,0.38790
7063.07,0.38868
7057.28,0.39495
7051.49,0.39612
7045.71,0.39466
7039.92,0.39403
7034.13,0.39847
7028.35,0.38840
7022.56,0.39169
7016.78,0.39317
7010.99,0.39647
7005.2,0.39711
6999.42,0.38939
6993.63,0.39187
6987.84,0.39111
6982.06,0.39392
6976.27,0.38741
6970.49,0.39183
6964.7,0.39159
6958.91,0.38714
6953.13,0.38856
6947.34,0.38726
6941.55,0.38464
6935.77,0.38724
6929.98,0.39176
6924.2,0.39275
6918.41,0.39037
6912.62,0.39099
6906.84,0.39058
6901.05,0.38558
6895.26,0.38740
6889.48,0.39087
6883.69,0.39019
6877.91,0.39028
6872.12,0.39085
6866.33,0.39160
6860.55,0.39113
6854.76,0.38723
6848.97,0.38925
6843.19,0.39005
6837.4,0.39178
6831.62,0.39001
6825.83,0.38980
6820.04,0.38750
6814.26,0.39203
6808.47,0.39269
6802.68,0.39049
6796.9,0.38944
6791.11,0.39366
6785.33,0.39036
6779.54,0.39185
6773.75,0.38854
6767.97,0.39595
6762.18,0.39482
6756.39,0.39313
6750.61,0.39393
6744.82,0.38982
6739.04,0.39177
6733.25,0.39243
6727.46,0.39086
6721.68,0.38647
6715.89,0.39416
6710.1,0.39262
6704.32,0.39227
6698.53,0.38685
6692.75,0.39163
6686.96,0.39142
6681.17,0.38669
6675.39,0.38675
6669.6,0.39165
6663.82,0.39201
6658.03,0.39157
6652.24,0.39204
6646.46,0.39138
6640.67,0.39010
6634.88,0.38746
6629.1,0.39034
6623.31,0.39049
6617.53,0.39100
6611.74,0.39024
6605.95,0.39167
6600.17,0.38553
6594.38,0.39170
6588.59,0.38827
6582.81,0.38349
6577.02,0.39014
6571.24,0.39053
6565.45,0.39022
6559.66,0.39155
6553.88,0.39180
6548.09,0.39265
6542.3,0.38540
6536.52,0.38889
6530.73,0.39442
6524.95,0.39238
6519.16,0.38980
6513.37,0.39321
6507.59,0.38587
6501.8,0.39156
6496.01,0.39177
6490.23,0.39152
6484.44,0.39098
6478.66,0.38996
6472.87,0.38901
6467.08,0.39064
6461.3,0.39095
6455.51,0.39005
6449.72,0.39055
6443.94,0.39098
6438.15,0.39082
6432.37,0.39091
6426.58,0.39091
6420.79,0.38987
6415.01,0.39277
6409.22,0.39132
6403.43,0.39143
6397.65,0.39416
6391.86,0.39336
6386.08,0.39181
6380.29,0.39161
6374.5,0.38979
6368.72,0.38876
6362.93,0.39403
6357.14,0.38975
6351.36,0.38980
6345.57,0.39276
6339.79,0.38625
6334,0.39185
6328.21,0.38807
6322.43,0.38969
6316.64,0.39125
6310.85,0.39252
6305.07,0.38823
6299.28,0.39206
6293.5,0.38551
6287.71,0.38776
6281.92,0.39039
6276.14,0.39098
6270.35,0.38872
6264.56,0.38872
6258.78,0.39056
6252.99,0.38834
6247.21,0.39099
6241.42,0.38634
6235.63,0.38829
6229.85,0.38973
6224.06,0.38572
6218.27,0.38735
6212.49,0.38964
6206.7,0.38962
6200.92,0.38809
6195.13,0.38636
6189.34,0.38744
6183.56,0.38726
6177.77,0.38559
6171.98,0.38579
6166.2,0.38769
6160.41,0.38593
6154.63,0.38058
6148.84,0.38362
6143.05,0.38538
6137.27,0.38363
6131.48,0.38603
6125.7,0.38356
6119.91,0.38283
6114.12,0.38478
6108.34,0.38268
6102.55,0.38607
6096.76,0.38399
6090.98,0.37950
6085.19,0.38234
6079.41,0.38192
6073.62,0.38036
6067.83,0.38032
6062.05,0.38114
6056.26,0.38524
6050.47,0.38302
6044.69,0.38446
6038.9,0.38161
6033.12,0.38248
6027.33,0.38013
6021.54,0.37865
6015.76,0.37644
6009.97,0.37429
6004.18,0.37441
5998.4,0.37269
5992.61,0.37078
5986.83,0.36535
5981.04,0.36165
5975.25,0.35895
5969.47,0.35783
5963.68,0.35841
5957.89,0.35566
5952.11,0.35559
5946.32,0.35605
5940.54,0.35720
5934.75,0.36082
5928.96,0.36055
5923.18,0.35978
5917.39,0.36045
5911.6,0.36158
5905.82,0.36291
5900.03,0.36570
5894.25,0.36490
5888.46,0.36495
5882.67,0.36993
5876.89,0.37295
5871.1,0.37307
5865.31,0.37744
5859.53,0.37593
5853.74,0.37862
5847.96,0.37835
5842.17,0.37765
5836.38,0.37907
5830.6,0.37987
5824.81,0.37897
5819.02,0.37838
5813.24,0.38021
5807.45,0.37763
5801.67,0.37984
5795.88,0.37801
5790.09,0.37823
5784.31,0.37816
5778.52,0.38013
5772.73,0.38210
5766.95,0.38113
5761.16,0.38286
5755.38,0.38358
5749.59,0.38579
5743.8,0.38256
5738.02,0.38294
5732.23,0.38393
5726.44,0.38384
5720.66,0.38075
5714.87,0.38241
5709.09,0.37946
5703.3,0.38177
5697.51,0.38036
5691.73,0.38200
5685.94,0.38292
5680.15,0.38259
5674.37,0.38229
5668.58,0.38036
5662.8,0.38003
5657.01,0.38263
5651.22,0.38198
5645.44,0.38467
5639.65,0.38363
5633.87,0.38426
5628.08,0.38482
5622.29,0.38516
5616.51,0.38633
5610.72,0.38333
5604.93,0.38551
5599.15,0.38558
5593.36,0.38299
5587.58,0.38427
5581.79,0.38262
5576,0.38507
5570.22,0.38397
5564.43,0.38438
5558.64,0.38325
5552.86,0.38400
5547.07,0.38475
5541.29,0.38520
5535.5,0.38694
5529.71,0.38527
5523.93,0.38456
5518.14,0.38580
5512.35,0.38391
5506.57,0.38519
5500.78,0.38478
5495,0.38495
5489.21,0.38336
5483.42,0.38354
5477.64,0.38423
5471.85,0.38486
5466.06,0.38528
5460.28,0.38624
5454.49,0.38660
5448.71,0.38551
5442.92,0.38602
5437.13,0.38564
5431.35,0.38490
5425.56,0.38612
5419.77,0.38529
5413.99,0.38475
5408.2,0.38439
5402.42,0.38436
5396.63,0.38709
5390.84,0.38596
5385.06,0.38654
5379.27,0.38443
5373.48,0.38550
5367.7,0.38494
5361.91,0.38419
5356.13,0.38564
5350.34,0.38608
5344.55,0.38442
5338.77,0.38620
5332.98,0.38553
5327.19,0.38499
5321.41,0.38581
5315.62,0.38730
5309.84,0.38489
5304.05,0.38567
5298.26,0.38539
5292.48,0.38504
5286.69,0.38769
5280.9,0.38747
5275.12,0.38736
5269.33,0.38689
5263.55,0.38695
5257.76,0.38751
5251.97,0.38677
5246.19,0.38714
5240.4,0.38661
5234.61,0.38622
5228.83,0.38681
5223.04,0.38660
5217.26,0.38472
5211.47,0.38628
5205.68,0.38850
5199.9,0.38754
5194.11,0.38655
5188.32,0.38758
5182.54,0.38765
5176.75,0.38699
5170.97,0.38789
5165.18,0.38642
5159.39,0.38695
5153.61,0.38691
5147.82,0.38800
5142.03,0.38836
5136.25,0.38746
5130.46,0.38747
5124.68,0.38724
5118.89,0.38721
5113.1,0.38763
5107.32,0.38819
5101.53,0.38823
5095.75,0.38718
5089.96,0.38786
5084.17,0.38853
5078.39,0.38816
5072.6,0.38642
5066.81,0.38793
5061.03,0.38786
5055.24,0.38648
5049.46,0.38762
5043.67,0.38810
5037.88,0.38726
5032.1,0.38816
5026.31,0.38871
5020.52,0.38712
5014.74,0.38743
5008.95,0.38693
5003.17,0.38767
4997.38,0.38790
4991.59,0.38761
4985.81,0.38783
4980.02,0.38715
4974.23,0.38720
4968.45,0.38813
4962.66,0.38751
4956.88,0.38841
4951.09,0.38874
4945.3,0.38788
4939.52,0.38782
4933.73,0.38733
4927.94,0.38820
4922.16,0.38768
4916.37,0.38758
4910.59,0.38693
4904.8,0.38813
4899.01,0.38795
4893.23,0.38710
4887.44,0.38741
4881.65,0.38738
4875.87,0.38655
4870.08,0.38743
4864.3,0.38821
4858.51,0.38814
4852.72,0.38735
4846.94,0.38800
4841.15,0.38693
4835.36,0.38664
4829.58,0.38653
4823.79,0.38632
4818.01,0.38628
4812.22,0.38722
4806.43,0.38722
4800.65,0.38692
4794.86,0.38761
4789.07,0.38840
4783.29,0.38760
4777.5,0.38669
4771.72,0.38632
4765.93,0.38598
4760.14,0.38666
4754.36,0.38689
4748.57,0.38593
4742.78,0.38610
4737,0.38563
4731.21,0.38599
4725.43,0.38542
4719.64,0.38403
4713.85,0.38389
4708.07,0.38243
4702.28,0.38181
4696.49,0.38045
4690.71,0.37958
4684.92,0.37560
4679.14,0.36851
4673.35,0.36040
4667.56,0.35315
4661.78,0.35158
4655.99,0.35606
4650.2,0.36094
4644.42,0.36360
4638.63,0.36246
4632.85,0.35741
4627.06,0.35372
4621.27,0.35304
4615.49,0.35188
4609.7,0.35068
4603.92,0.35083
4598.13,0.35740
4592.34,0.36396
4586.56,0.36799
4580.77,0.36693
4574.98,0.36097
4569.2,0.35953
4563.41,0.36612
4557.63,0.37131
4551.84,0.37444
4546.05,0.37612
4540.27,0.37860
4534.48,0.37939
4528.69,0.37915
4522.91,0.37899
4517.12,0.37946
4511.34,0.37877
4505.55,0.37821
4499.76,0.37912
4493.98,0.38073
4488.19,0.38033
4482.4,0.38165
4476.62,0.38149
4470.83,0.38205
4465.05,0.38155
4459.26,0.38249
4453.47,0.38170
4447.69,0.38079
4441.9,0.37983
4436.11,0.37971
4430.33,0.38090
4424.54,0.38061
4418.76,0.38008
4412.97,0.37914
4407.18,0.37959
4401.4,0.37810
4395.61,0.37676
4389.82,0.37539
4384.04,0.37419
4378.25,0.37279
4372.47,0.37097
4366.68,0.36881
4360.89,0.36643
4355.11,0.36380
4349.32,0.36249
4343.53,0.36066
4337.75,0.35955
4331.96,0.36005
4326.18,0.36071
4320.39,0.36340
4314.6,0.36600
4308.82,0.36855
4303.03,0.36946
4297.24,0.36890
4291.46,0.36767
4285.67,0.36366
4279.89,0.36171
4274.1,0.35937
4268.31,0.35559
4262.53,0.35237
4256.74,0.34958
4250.95,0.34748
4245.17,0.34790
4239.38,0.34912
4233.6,0.35037
4227.81,0.35088
4222.02,0.35101
4216.24,0.35098
4210.45,0.35104
4204.66,0.35230
4198.88,0.35363
4193.09,0.35629
4187.31,0.35790
4181.52,0.35850
4175.73,0.35939
4169.95,0.36084
4164.16,0.36182
4158.37,0.36189
4152.59,0.36268
4146.8,0.36221
4141.02,0.36157
4135.23,0.36017
4129.44,0.35828
4123.66,0.35706
4117.87,0.35609
4112.09,0.35413
4106.3,0.35184
4100.51,0.35137
4094.73,0.34947
4088.94,0.34580
4083.15,0.34172
4077.37,0.33539
4071.58,0.32723
4065.8,0.31693
4060.01,0.31099
4054.22,0.30811
4048.44,0.30859
4042.65,0.30878
4036.86,0.30529
4031.08,0.31270
4025.29,0.32348
4019.51,0.33663
4013.72,0.34781
4007.93,0.35117
4002.15,0.35186
3996.36,0.35344
3990.57,0.35840
3984.79,0.35998
3979,0.36007
3973.22,0.35976
3967.43,0.36118
3961.64,0.36171
3955.86,0.36277
3950.07,0.36262
3944.28,0.36178
3938.5,0.36096
3932.71,0.36138
3926.93,0.36201
3921.14,0.36293
3915.35,0.36367
3909.57,0.36470
3903.78,0.36539
3897.99,0.36473
3892.21,0.36450
3886.42,0.36617
3880.64,0.36645
3874.85,0.36632
3869.06,0.36628
3863.28,0.36602
3857.49,0.36552
3851.7,0.36700
3845.92,0.36621
3840.13,0.36493
3834.35,0.36443
3828.56,0.36366
3822.77,0.36281
3816.99,0.36246
3811.2,0.36191
3805.41,0.36234
3799.63,0.36328
3793.84,0.36371
3788.06,0.36554
3782.27,0.36689
3776.48,0.36664
3770.7,0.36640
3764.91,0.36611
3759.12,0.36671
3753.34,0.36773
3747.55,0.36850
3741.77,0.36897
3735.98,0.36908
3730.19,0.36811
3724.41,0.36589
3718.62,0.36463
3712.83,0.36729
3707.05,0.36585
3701.26,0.36325
3695.48,0.36387
3689.69,0.36673
3683.9,0.36526
3678.12,0.36419
3672.33,0.36450
3666.54,0.36404
3660.76,0.36109
3654.97,0.35569
3649.19,0.35072
3643.4,0.35043
3637.61,0.35864
3631.83,0.36215
3626.04,0.35924
3620.25,0.35579
3614.47,0.35964
3608.68,0.36540
3602.9,0.36677
3597.11,0.36681
3591.32,0.36668
3585.54,0.36778
3579.75,0.36778
3573.97,0.36744
3568.18,0.36735
3562.39,0.36669
3556.61,0.36591
3550.82,0.36495
3545.03,0.36522
3539.25,0.36445
3533.46,0.36372
3527.68,0.36320
3521.89,0.36283
3516.1,0.36163
3510.32,0.36120
3504.53,0.36106
3498.74,0.36030
3492.96,0.35956
3487.17,0.35840
3481.39,0.35663
3475.6,0.35653
3469.81,0.35563
3464.03,0.35566
3458.24,0.35454
3452.45,0.35416
3446.67,0.35336
3440.88,0.35269
3435.1,0.35461
3429.31,0.35511
3423.52,0.35639
3417.74,0.35816
3411.95,0.35759
3406.16,0.35755
3400.38,0.35751
3394.59,0.35778
3388.81,0.35764
3383.02,0.35780
3377.23,0.35794
3371.45,0.35885
3365.66,0.35911
3359.87,0.35885
3354.09,0.35929
3348.3,0.35891
3342.52,0.35882
3336.73,0.35921
3330.94,0.35839
3325.16,0.35858
3319.37,0.35812
3313.58,0.35917
3307.8,0.35925
3302.01,0.35839
3296.23,0.35847
3290.44,0.35887
3284.65,0.35703
3278.87,0.35772
3273.08,0.35787
3267.29,0.35761
3261.51,0.35702
3255.72,0.35658
3249.94,0.35645
3244.15,0.35629
3238.36,0.35634
3232.58,0.35603
3226.79,0.35554
3221,0.35395
3215.22,0.35296
3209.43,0.35163
3203.65,0.34921
3197.86,0.34797
3192.07,0.34758
3186.29,0.34686
3180.5,0.34616
3174.71,0.34408
3168.93,0.33827
3163.14,0.32911
3157.36,0.33203
3151.57,0.33669
3145.78,0.33571
3140,0.33496
3134.21,0.33236
3128.42,0.32735
3122.64,0.31885
3116.85,0.30325
3111.07,0.27242
3105.28,0.23814
3099.49,0.23516
3093.71,0.23311
3087.92,0.19738
3082.14,0.17178
3076.35,0.18856
3070.56,0.18937
3064.78,0.16587
3058.99,0.15543
3053.2,0.17852
3047.42,0.19731
3041.63,0.19275
3035.85,0.16621
3030.06,0.13237
3024.27,0.12848
3018.49,0.16777
3012.7,0.20994
3006.91,0.21814
3001.13,0.20742
2995.34,0.23400
2989.56,0.26171
2983.77,0.26679
2977.98,0.26012
2972.2,0.25246
2966.41,0.24096
2960.62,0.22272
2954.84,0.20215
2949.05,0.17933
2943.27,0.15634
2937.48,0.13672
2931.69,0.12192
2925.91,0.11686
2920.12,0.12055
2914.33,0.13012
2908.55,0.14411
2902.76,0.15860
2896.98,0.17661
2891.19,0.18990
2885.4,0.19997
2879.62,0.21032
2873.83,0.21925
2868.04,0.21961
2862.26,0.20516
2856.47,0.18508
2850.69,0.17453
2844.9,0.18724
2839.11,0.22668
2833.33,0.27221
2827.54,0.29741
2821.75,0.30715
2815.97,0.31140
2810.18,0.31265
2804.4,0.31709
2798.61,0.32216
2792.82,0.32581
2787.04,0.32830
2781.25,0.32839
2775.46,0.33113
2769.68,0.33586
2763.89,0.33899
2758.11,0.34096
2752.32,0.34250
2746.53,0.34314
2740.75,0.34245
2734.96,0.34027
2729.17,0.33860
2723.39,0.33806
2717.6,0.33732
2711.82,0.33758
2706.03,0.33863
2700.24,0.33833
2694.46,0.33779
2688.67,0.33729
2682.88,0.33777
2677.1,0.33825
2671.31,0.33827
2665.53,0.33917
2659.74,0.33913
2653.95,0.33903
2648.17,0.33840
2642.38,0.33776
2636.59,0.33477
2630.81,0.33120
2625.02,0.33688
2619.24,0.34111
2613.45,0.34080
2607.66,0.33614
2601.88,0.33356
2596.09,0.33867
2590.3,0.34293
2584.52,0.34009
2578.73,0.33928
2572.95,0.34391
2567.16,0.34463
2561.37,0.34468
2555.59,0.34491
2549.8,0.34367
2544.02,0.34358
2538.23,0.34569
2532.44,0.34578
2526.66,0.34465
2520.87,0.34414
2515.08,0.34320
2509.3,0.34327
2503.51,0.34467
2497.73,0.34580
2491.94,0.34710
2486.15,0.34790
2480.37,0.34939
2474.58,0.35159
2468.79,0.35392
2463.01,0.35574
2457.22,0.35598
2451.44,0.35592
2445.65,0.35586
2439.86,0.35621
2434.08,0.35678
2428.29,0.35811
2422.5,0.35886
2416.72,0.35844
2410.93,0.35767
2405.15,0.35688
2399.36,0.35640
2393.57,0.35561
2387.79,0.35532
2382,0.35519
2376.21,0.35511
2370.43,0.35417
2364.64,0.35114
2358.86,0.34961
2353.07,0.34985
2347.28,0.34698
2341.5,0.33855
2335.71,0.33358
2329.92,0.34506
2324.14,0.35295
2318.35,0.34992
2312.57,0.34321
2306.78,0.34772
2300.99,0.35444
2295.21,0.35473
2289.42,0.35585
2283.63,0.35800
2277.85,0.35931
2272.06,0.35892
2266.28,0.35732
2260.49,0.35562
2254.7,0.35453
2248.92,0.35618
2243.13,0.35838
2237.34,0.36021
2231.56,0.36053
2225.77,0.36061
2219.99,0.36095
2214.2,0.36102
2208.41,0.36058
2202.63,0.36216
2196.84,0.36336
2191.05,0.36236
2185.27,0.36088
2179.48,0.36254
2173.7,0.36422
2167.91,0.36521
2162.12,0.36561
2156.34,0.36570
2150.55,0.36553
2144.76,0.36562
2138.98,0.36641
2133.19,0.36692
2127.41,0.36742
2121.62,0.36750
2115.83,0.36738
2110.05,0.36754
2104.26,0.36852
2098.47,0.36902
2092.69,0.36922
2086.9,0.36918
2081.12,0.36910
2075.33,0.36854
2069.54,0.36804
2063.76,0.36778
2057.97,0.36772
2052.19,0.36785
2046.4,0.36788
2040.61,0.36740
2034.83,0.36643
2029.04,0.36520
2023.25,0.36498
2017.47,0.36434
2011.68,0.36259
2005.9,0.36080
2000.11,0.35982
1994.32,0.35556
1988.54,0.34731
1982.75,0.34344
1976.96,0.34191
1971.18,0.33021
1965.39,0.30784
1959.61,0.29143
1953.82,0.28242
1948.03,0.27035
1942.25,0.26426
1936.46,0.27997
1930.67,0.30776
1924.89,0.32612
1919.1,0.33816
1913.32,0.34436
1907.53,0.34424
1901.74,0.33712
1895.96,0.32232
1890.17,0.30424
1884.38,0.29136
1878.6,0.28483
1872.81,0.27984
1867.03,0.28270
1861.24,0.30088
1855.45,0.32516
1849.67,0.34065
1843.88,0.34736
1838.09,0.34703
1832.31,0.33994
1826.52,0.32629
1820.74,0.31058
1814.95,0.29619
1809.16,0.28371
1803.38,0.27646
1797.59,0.28424
1791.8,0.30937
1786.02,0.32941
1780.23,0.33389
1774.45,0.33135
1768.66,0.33366
1762.87,0.32640
1757.09,0.31018
1751.3,0.29378
1745.51,0.28427
1739.73,0.28576
1733.94,0.29944
1728.16,0.31451
1722.37,0.32404
1716.58,0.33184
1710.8,0.33460
1705.01,0.33397
1699.22,0.33290
1693.44,0.33001
1687.65,0.32339
1681.87,0.31513
1676.08,0.30977
1670.29,0.30597
1664.51,0.30621
1658.72,0.31257
1652.93,0.32313
1647.15,0.32801
1641.36,0.33049
1635.58,0.32988
1629.79,0.32296
1624,0.31403
1618.22,0.30119
1612.43,0.26908
1606.64,0.20360
1600.86,0.16784
1595.07,0.21438
1589.29,0.24753
1583.5,0.22883
1577.71,0.27256
1571.93,0.30808
1566.14,0.32185
1560.35,0.32407
1554.57,0.31277
1548.78,0.29646
1543,0.28723
1537.21,0.29054
1531.42,0.30442
1525.64,0.31189
1519.85,0.30953
1514.07,0.29932
1508.28,0.28318
1502.49,0.23696
1496.71,0.14967
1490.92,0.14438
1485.13,0.21814
1479.35,0.26083
1473.56,0.27049
1467.78,0.25997
1461.99,0.23073
1456.2,0.15052
1450.42,0.13662
1444.63,0.17487
1438.84,0.21008
1433.06,0.25571
1427.27,0.29053
1421.49,0.30425
1415.7,0.30925
1409.91,0.30899
1404.13,0.30624
1398.34,0.29874
1392.55,0.27994
1386.77,0.25470
1380.98,0.23729
1375.2,0.22670
1369.41,0.22630
1363.62,0.23152
1357.84,0.23875
1352.05,0.24252
1346.26,0.24598
1340.48,0.25437
1334.69,0.25084
1328.91,0.24189
1323.12,0.24767
1317.33,0.24902
1311.55,0.24598
1305.76,0.25195
1299.97,0.25882
1294.19,0.26212
1288.4,0.26431
1282.62,0.26839
1276.83,0.27843
1271.04,0.29093
1265.26,0.29954
1259.47,0.30373
1253.68,0.30206
1247.9,0.29905
1242.11,0.29887
1236.33,0.30114
1230.54,0.29932
1224.75,0.29575
1218.97,0.29346
1213.18,0.28836
1207.39,0.27916
1201.61,0.26513
1195.82,0.25543
1190.04,0.25218
1184.25,0.24003
1178.46,0.24433
1172.68,0.26997
1166.89,0.27750
1161.1,0.26880
1155.32,0.24289
1149.53,0.27167
1143.75,0.30192
1137.96,0.31522
1132.17,0.31976
1126.39,0.31962
1120.6,0.31026
1114.81,0.29486
1109.03,0.29437
1103.24,0.29622
1097.46,0.28954
1091.67,0.28121
1085.88,0.27012
1080.1,0.25351
1074.31,0.23622
1068.52,0.22759
1062.74,0.24540
1056.95,0.26425
1051.17,0.27691
1045.38,0.28253
1039.59,0.27353
1033.81,0.22275
1028.02,0.19539
1022.24,0.22782
1016.45,0.25340
1010.66,0.26822
1004.88,0.26526
999.09,0.28066
993.304,0.29178
987.518,0.28450
981.731,0.27252
975.945,0.27584
970.159,0.27441
964.373,0.26421
958.586,0.28122
952.8,0.29176
947.014,0.28602
941.228,0.28474
935.441,0.29930
929.655,0.31040
923.869,0.30487
918.083,0.28544
912.297,0.24834
906.51,0.22771
900.724,0.25907
894.938,0.29970
889.152,0.31644
883.365,0.32627
877.579,0.33093
871.793,0.33339
866.007,0.33449
860.22,0.33262
854.434,0.32474
848.648,0.29970
842.862,0.27793
837.075,0.29042
831.289,0.32074
825.503,0.32928
819.717,0.32942
813.931,0.32440
808.144,0.31804
802.358,0.30911
796.572,0.29169
790.786,0.26404
784.999,0.23272
779.213,0.19976
773.427,0.16231
767.641,0.13782
761.854,0.12986
756.068,0.13752
750.282,0.15232
744.496,0.17722
738.709,0.21475
732.923,0.25465
727.137,0.27649
721.351,0.26263
715.565,0.21872
709.778,0.12659
703.992,0.07723
698.206,0.15605
692.42,0.25272
686.633,0.29940
680.847,0.31378
675.061,0.31799
669.275,0.31960
663.488,0.33139
657.702,0.34513
651.916,0.35722
646.13,0.36027
640.343,0.35492
634.557,0.33584
628.771,0.32061
622.985,0.31114
617.198,0.31597
611.412,0.32190
605.626,0.32258
599.84,0.31521