File: 01_Data/XPS_Foam_Board/FTIR/IS/XPS_Foam_Board_IS_T_220929_R7.dpt
7497.03,0.02356
7491.25,0.02386
7485.46,0.01958
7479.67,0.03618
7473.89,0.02084
7468.1,0.02878
7462.32,0.02641
7456.53,0.02687
7450.74,0.02446
7444.96,0.02000
7439.17,0.01782
7433.38,0.02514
7427.6,0.02403
7421.81,0.03036
7416.03,0.02919
7410.24,0.02797
7404.45,0.01977
7398.67,0.01924
7392.88,0.02579
7387.09,0.02762
7381.31,0.02445
7375.52,0.02673
7369.74,0.03034
7363.95,0.02793
7358.16,0.02123
7352.38,0.02766
7346.59,0.02710
7340.8,0.03305
7335.02,0.02354
7329.23,0.02623
7323.45,0.02306
7317.66,0.01709
7311.87,0.02993
7306.09,0.02600
7300.3,0.02948
7294.51,0.03381
7288.73,0.03010
7282.94,0.02385
7277.16,0.02241
7271.37,0.02414
7265.58,0.03542
7259.8,0.01998
7254.01,0.02068
7248.22,0.02436
7242.44,0.03302
7236.65,0.02423
7230.87,0.01600
7225.08,0.02372
7219.29,0.02499
7213.51,0.02773
7207.72,0.02468
7201.93,0.02148
7196.15,0.02758
7190.36,0.03065
7184.58,0.02463
7178.79,0.02350
7173,0.02334
7167.22,0.02479
7161.43,0.02364
7155.65,0.02449
7149.86,0.02629
7144.07,0.02527
7138.29,0.02384
7132.5,0.02200
7126.71,0.02381
7120.93,0.01809
7115.14,0.01365
7109.36,0.02673
7103.57,0.02283
7097.78,0.02800
7092,0.02950
7086.21,0.02514
7080.42,0.02512
7074.64,0.02397
7068.85,0.02510
7063.07,0.02013
7057.28,0.03218
7051.49,0.02447
7045.71,0.02315
7039.92,0.02154
7034.13,0.02673
7028.35,0.02857
7022.56,0.01734
7016.78,0.02627
7010.99,0.02575
7005.2,0.02094
6999.42,0.02168
6993.63,0.03183
6987.84,0.02763
6982.06,0.02668
6976.27,0.02020
6970.49,0.02811
6964.7,0.02366
6958.91,0.02349
6953.13,0.02147
6947.34,0.02047
6941.55,0.02580
6935.77,0.01522
6929.98,0.02436
6924.2,0.02394
6918.41,0.02559
6912.62,0.01804
6906.84,0.02149
6901.05,0.02308
6895.26,0.02565
6889.48,0.01668
6883.69,0.02382
6877.91,0.02372
6872.12,0.01635
6866.33,0.02240
6860.55,0.02676
6854.76,0.02364
6848.97,0.02519
6843.19,0.02652
6837.4,0.03177
6831.62,0.03076
6825.83,0.02427
6820.04,0.02330
6814.26,0.02214
6808.47,0.02585
6802.68,0.02092
6796.9,0.02663
6791.11,0.02260
6785.33,0.02341
6779.54,0.02054
6773.75,0.02062
6767.97,0.02068
6762.18,0.02991
6756.39,0.02219
6750.61,0.02361
6744.82,0.02363
6739.04,0.02405
6733.25,0.02318
6727.46,0.02387
6721.68,0.02358
6715.89,0.02611
6710.1,0.01971
6704.32,0.02482
6698.53,0.02513
6692.75,0.02511
6686.96,0.02737
6681.17,0.02548
6675.39,0.02835
6669.6,0.02293
6663.82,0.02215
6658.03,0.02205
6652.24,0.02115
6646.46,0.01888
6640.67,0.02671
6634.88,0.02841
6629.1,0.01890
6623.31,0.02356
6617.53,0.01959
6611.74,0.02276
6605.95,0.02196
6600.17,0.02004
6594.38,0.02371
6588.59,0.02480
6582.81,0.02406
6577.02,0.02438
6571.24,0.02727
6565.45,0.02284
6559.66,0.02229
6553.88,0.02216
6548.09,0.02158
6542.3,0.01779
6536.52,0.02034
6530.73,0.01931
6524.95,0.02329
6519.16,0.02247
6513.37,0.01959
6507.59,0.02640
6501.8,0.02558
6496.01,0.01670
6490.23,0.02045
6484.44,0.02228
6478.66,0.02446
6472.87,0.02448
6467.08,0.02020
6461.3,0.02392
6455.51,0.02279
6449.72,0.02221
6443.94,0.02452
6438.15,0.02552
6432.37,0.02273
6426.58,0.01990
6420.79,0.01909
6415.01,0.02055
6409.22,0.02267
6403.43,0.02093
6397.65,0.02130
6391.86,0.02234
6386.08,0.02321
6380.29,0.02222
6374.5,0.02105
6368.72,0.02349
6362.93,0.02311
6357.14,0.02394
6351.36,0.02455
6345.57,0.02427
6339.79,0.01839
6334,0.02146
6328.21,0.02031
6322.43,0.02230
6316.64,0.02216
6310.85,0.02498
6305.07,0.02173
6299.28,0.02089
6293.5,0.02372
6287.71,0.02143
6281.92,0.02216
6276.14,0.02329
6270.35,0.02282
6264.56,0.02404
6258.78,0.02331
6252.99,0.02258
6247.21,0.01876
6241.42,0.02244
6235.63,0.02253
6229.85,0.01979
6224.06,0.02141
6218.27,0.02228
6212.49,0.01841
6206.7,0.02081
6200.92,0.02676
6195.13,0.02466
6189.34,0.02396
6183.56,0.02068
6177.77,0.02376
6171.98,0.02322
6166.2,0.02157
6160.41,0.02601
6154.63,0.02280
6148.84,0.01973
6143.05,0.01924
6137.27,0.02227
6131.48,0.02146
6125.7,0.02207
6119.91,0.02103
6114.12,0.02098
6108.34,0.02097
6102.55,0.02219
6096.76,0.02013
6090.98,0.02360
6085.19,0.02239
6079.41,0.02226
6073.62,0.02477
6067.83,0.02133
6062.05,0.02135
6056.26,0.02266
6050.47,0.02111
6044.69,0.02180
6038.9,0.02025
6033.12,0.02154
6027.33,0.02087
6021.54,0.02136
6015.76,0.02221
6009.97,0.02506
6004.18,0.02321
5998.4,0.02442
5992.61,0.02427
5986.83,0.02151
5981.04,0.02005
5975.25,0.02507
5969.47,0.02271
5963.68,0.02310
5957.89,0.02403
5952.11,0.02233
5946.32,0.02122
5940.54,0.02046
5934.75,0.02087
5928.96,0.02014
5923.18,0.01955
5917.39,0.02163
5911.6,0.02200
5905.82,0.02125
5900.03,0.02065
5894.25,0.02110
5888.46,0.02074
5882.67,0.02341
5876.89,0.02349
5871.1,0.01979
5865.31,0.02066
5859.53,0.02181
5853.74,0.02374
5847.96,0.02438
5842.17,0.02278
5836.38,0.02194
5830.6,0.01924
5824.81,0.02139
5819.02,0.02051
5813.24,0.02285
5807.45,0.02088
5801.67,0.02235
5795.88,0.02325
5790.09,0.02084
5784.31,0.02218
5778.52,0.02360
5772.73,0.02082
5766.95,0.02188
5761.16,0.02304
5755.38,0.02172
5749.59,0.02172
5743.8,0.02289
5738.02,0.02127
5732.23,0.02133
5726.44,0.02018
5720.66,0.01994
5714.87,0.02228
5709.09,0.02253
5703.3,0.02095
5697.51,0.02141
5691.73,0.02180
5685.94,0.02222
5680.15,0.02176
5674.37,0.02284
5668.58,0.02285
5662.8,0.02171
5657.01,0.02186
5651.22,0.02163
5645.44,0.01911
5639.65,0.02045
5633.87,0.02076
5628.08,0.02125
5622.29,0.02176
5616.51,0.02112
5610.72,0.02108
5604.93,0.02420
5599.15,0.02325
5593.36,0.02244
5587.58,0.02347
5581.79,0.02175
5576,0.02137
5570.22,0.02161
5564.43,0.02106
5558.64,0.02178
5552.86,0.02095
5547.07,0.02156
5541.29,0.02285
5535.5,0.02201
5529.71,0.02092
5523.93,0.02180
5518.14,0.02066
5512.35,0.02233
5506.57,0.02221
5500.78,0.02200
5495,0.02262
5489.21,0.02209
5483.42,0.02235
5477.64,0.02405
5471.85,0.02235
5466.06,0.02075
5460.28,0.02074
5454.49,0.02196
5448.71,0.02292
5442.92,0.02228
5437.13,0.02226
5431.35,0.02157
5425.56,0.02257
5419.77,0.02213
5413.99,0.02249
5408.2,0.02267
5402.42,0.01975
5396.63,0.02153
5390.84,0.02204
5385.06,0.02056
5379.27,0.02268
5373.48,0.02239
5367.7,0.02091
5361.91,0.02015
5356.13,0.02030
5350.34,0.02105
5344.55,0.02402
5338.77,0.02178
5332.98,0.02230
5327.19,0.02057
5321.41,0.02280
5315.62,0.02189
5309.84,0.02187
5304.05,0.02194
5298.26,0.02107
5292.48,0.02182
5286.69,0.02079
5280.9,0.02125
5275.12,0.02031
5269.33,0.02027
5263.55,0.02234
5257.76,0.02153
5251.97,0.02306
5246.19,0.02215
5240.4,0.02102
5234.61,0.02186
5228.83,0.02174
5223.04,0.02318
5217.26,0.02110
5211.47,0.02292
5205.68,0.02308
5199.9,0.02144
5194.11,0.02080
5188.32,0.02235
5182.54,0.02296
5176.75,0.02268
5170.97,0.01999
5165.18,0.02113
5159.39,0.02213
5153.61,0.02207
5147.82,0.02199
5142.03,0.02258
5136.25,0.02089
5130.46,0.02125
5124.68,0.01960
5118.89,0.02113
5113.1,0.02234
5107.32,0.02230
5101.53,0.02265
5095.75,0.02176
5089.96,0.02180
5084.17,0.02293
5078.39,0.02180
5072.6,0.02211
5066.81,0.02095
5061.03,0.02175
5055.24,0.02236
5049.46,0.02167
5043.67,0.02223
5037.88,0.02243
5032.1,0.02258
5026.31,0.02247
5020.52,0.02197
5014.74,0.02216
5008.95,0.02160
5003.17,0.02271
4997.38,0.02272
4991.59,0.02278
4985.81,0.02309
4980.02,0.02267
4974.23,0.02220
4968.45,0.02256
4962.66,0.02271
4956.88,0.02210
4951.09,0.02257
4945.3,0.02200
4939.52,0.02108
4933.73,0.02261
4927.94,0.02218
4922.16,0.02161
4916.37,0.02136
4910.59,0.02214
4904.8,0.02171
4899.01,0.02157
4893.23,0.02262
4887.44,0.02118
4881.65,0.02192
4875.87,0.02157
4870.08,0.02188
4864.3,0.02241
4858.51,0.02200
4852.72,0.02195
4846.94,0.02286
4841.15,0.02149
4835.36,0.02172
4829.58,0.02159
4823.79,0.02121
4818.01,0.02242
4812.22,0.02276
4806.43,0.02142
4800.65,0.02233
4794.86,0.02168
4789.07,0.02253
4783.29,0.02183
4777.5,0.02221
4771.72,0.02222
4765.93,0.02208
4760.14,0.02201
4754.36,0.02189
4748.57,0.02231
4742.78,0.02167
4737,0.02136
4731.21,0.02134
4725.43,0.02290
4719.64,0.02146
4713.85,0.02156
4708.07,0.02175
4702.28,0.02292
4696.49,0.02243
4690.71,0.02211
4684.92,0.02179
4679.14,0.02259
4673.35,0.02252
4667.56,0.02247
4661.78,0.02226
4655.99,0.02211
4650.2,0.02258
4644.42,0.02253
4638.63,0.02237
4632.85,0.02297
4627.06,0.02254
4621.27,0.02180
4615.49,0.02231
4609.7,0.02193
4603.92,0.02165
4598.13,0.02232
4592.34,0.02211
4586.56,0.02271
4580.77,0.02264
4574.98,0.02233
4569.2,0.02196
4563.41,0.02288
4557.63,0.02250
4551.84,0.02240
4546.05,0.02225
4540.27,0.02183
4534.48,0.02253
4528.69,0.02213
4522.91,0.02197
4517.12,0.02191
4511.34,0.02206
4505.55,0.02215
4499.76,0.02221
4493.98,0.02210
4488.19,0.02156
4482.4,0.02243
4476.62,0.02230
4470.83,0.02208
4465.05,0.02215
4459.26,0.02230
4453.47,0.02201
4447.69,0.02179
4441.9,0.02161
4436.11,0.02139
4430.33,0.02185
4424.54,0.02270
4418.76,0.02291
4412.97,0.02254
4407.18,0.02180
4401.4,0.02173
4395.61,0.02191
4389.82,0.02224
4384.04,0.02268
4378.25,0.02259
4372.47,0.02205
4366.68,0.02252
4360.89,0.02201
4355.11,0.02150
4349.32,0.02221
4343.53,0.02172
4337.75,0.02187
4331.96,0.02240
4326.18,0.02325
4320.39,0.02206
4314.6,0.02181
4308.82,0.02212
4303.03,0.02196
4297.24,0.02151
4291.46,0.02247
4285.67,0.02193
4279.89,0.02187
4274.1,0.02202
4268.31,0.02272
4262.53,0.02254
4256.74,0.02268
4250.95,0.02247
4245.17,0.02277
4239.38,0.02277
4233.6,0.02242
4227.81,0.02260
4222.02,0.02245
4216.24,0.02257
4210.45,0.02226
4204.66,0.02227
4198.88,0.02288
4193.09,0.02231
4187.31,0.02262
4181.52,0.02308
4175.73,0.02209
4169.95,0.02212
4164.16,0.02256
4158.37,0.02213
4152.59,0.02186
4146.8,0.02234
4141.02,0.02222
4135.23,0.02158
4129.44,0.02227
4123.66,0.02260
4117.87,0.02204
4112.09,0.02220
4106.3,0.02311
4100.51,0.02335
4094.73,0.02265
4088.94,0.02215
4083.15,0.02171
4077.37,0.02196
4071.58,0.02180
4065.8,0.02223
4060.01,0.02248
4054.22,0.02190
4048.44,0.02244
4042.65,0.02213
4036.86,0.02212
4031.08,0.02213
4025.29,0.02234
4019.51,0.02227
4013.72,0.02193
4007.93,0.02277
4002.15,0.02199
3996.36,0.02235
3990.57,0.02300
3984.79,0.02274
3979,0.02306
3973.22,0.02288
3967.43,0.02242
3961.64,0.02252
3955.86,0.02172
3950.07,0.02195
3944.28,0.02203
3938.5,0.02210
3932.71,0.02213
3926.93,0.02198
3921.14,0.02224
3915.35,0.02260
3909.57,0.02292
3903.78,0.02189
3897.99,0.02269
3892.21,0.02346
3886.42,0.02294
3880.64,0.02190
3874.85,0.02261
3869.06,0.02185
3863.28,0.02278
3857.49,0.02318
3851.7,0.02238
3845.92,0.02261
3840.13,0.02273
3834.35,0.02151
3828.56,0.02236
3822.77,0.02282
3816.99,0.02204
3811.2,0.02194
3805.41,0.02229
3799.63,0.02254
3793.84,0.02245
3788.06,0.02205
3782.27,0.02244
3776.48,0.02258
3770.7,0.02222
3764.91,0.02268
3759.12,0.02205
3753.34,0.02248
3747.55,0.02253
3741.77,0.02246
3735.98,0.02257
3730.19,0.02192
3724.41,0.02197
3718.62,0.02221
3712.83,0.02186
3707.05,0.02142
3701.26,0.02242
3695.48,0.02170
3689.69,0.02189
3683.9,0.02162
3678.12,0.02140
3672.33,0.02119
3666.54,0.02154
3660.76,0.02176
3654.97,0.02211
3649.19,0.02154
3643.4,0.02130
3637.61,0.02181
3631.83,0.02266
3626.04,0.02244
3620.25,0.02242
3614.47,0.02159
3608.68,0.02135
3602.9,0.02157
3597.11,0.02130
3591.32,0.02169
3585.54,0.02165
3579.75,0.02119
3573.97,0.02113
3568.18,0.02077
3562.39,0.02132
3556.61,0.02137
3550.82,0.02086
3545.03,0.02052
3539.25,0.02118
3533.46,0.02110
3527.68,0.02120
3521.89,0.02090
3516.1,0.02130
3510.32,0.02141
3504.53,0.02090
3498.74,0.02026
3492.96,0.02086
3487.17,0.02076
3481.39,0.02043
3475.6,0.02083
3469.81,0.02071
3464.03,0.02089
3458.24,0.02137
3452.45,0.02036
3446.67,0.02091
3440.88,0.02082
3435.1,0.02059
3429.31,0.02046
3423.52,0.02005
3417.74,0.02026
3411.95,0.02021
3406.16,0.02003
3400.38,0.02023
3394.59,0.02000
3388.81,0.02003
3383.02,0.02008
3377.23,0.02039
3371.45,0.01999
3365.66,0.02139
3359.87,0.02123
3354.09,0.01945
3348.3,0.02076
3342.52,0.02048
3336.73,0.01957
3330.94,0.01996
3325.16,0.02090
3319.37,0.02045
3313.58,0.01947
3307.8,0.01987
3302.01,0.02000
3296.23,0.02023
3290.44,0.02029
3284.65,0.01983
3278.87,0.01979
3273.08,0.02045
3267.29,0.01993
3261.51,0.02098
3255.72,0.02013
3249.94,0.02006
3244.15,0.02009
3238.36,0.02091
3232.58,0.02072
3226.79,0.02092
3221,0.02070
3215.22,0.02097
3209.43,0.02056
3203.65,0.02065
3197.86,0.02092
3192.07,0.02106
3186.29,0.02047
3180.5,0.02128
3174.71,0.02043
3168.93,0.01994
3163.14,0.02023
3157.36,0.02035
3151.57,0.02084
3145.78,0.02063
3140,0.02094
3134.21,0.02053
3128.42,0.02121
3122.64,0.02079
3116.85,0.02035
3111.07,0.02113
3105.28,0.02031
3099.49,0.02025
3093.71,0.02022
3087.92,0.02030
3082.14,0.02041
3076.35,0.02082
3070.56,0.02095
3064.78,0.02072
3058.99,0.02039
3053.2,0.01987
3047.42,0.02008
3041.63,0.02035
3035.85,0.02026
3030.06,0.02040
3024.27,0.02029
3018.49,0.02041
3012.7,0.01995
3006.91,0.02008
3001.13,0.02000
2995.34,0.02047
2989.56,0.02011
2983.77,0.01983
2977.98,0.01994
2972.2,0.01960
2966.41,0.01963
2960.62,0.01966
2954.84,0.01943
2949.05,0.01972
2943.27,0.01929
2937.48,0.01901
2931.69,0.01950
2925.91,0.02040
2920.12,0.02043
2914.33,0.02020
2908.55,0.01998
2902.76,0.01973
2896.98,0.02072
2891.19,0.02060
2885.4,0.02067
2879.62,0.01984
2873.83,0.01974
2868.04,0.02003
2862.26,0.02014
2856.47,0.02059
2850.69,0.02056
2844.9,0.02050
2839.11,0.02051
2833.33,0.02109
2827.54,0.02083
2821.75,0.02110
2815.97,0.02095
2810.18,0.02056
2804.4,0.02070
2798.61,0.02088
2792.82,0.02122
2787.04,0.02129
2781.25,0.02106
2775.46,0.02070
2769.68,0.02127
2763.89,0.02115
2758.11,0.02077
2752.32,0.02062
2746.53,0.02105
2740.75,0.02133
2734.96,0.02074
2729.17,0.02129
2723.39,0.02084
2717.6,0.02082
2711.82,0.02060
2706.03,0.02069
2700.24,0.02083
2694.46,0.02073
2688.67,0.02092
2682.88,0.02102
2677.1,0.02116
2671.31,0.02097
2665.53,0.02107
2659.74,0.02082
2653.95,0.02083
2648.17,0.02083
2642.38,0.02099
2636.59,0.02105
2630.81,0.02099
2625.02,0.02111
2619.24,0.02122
2613.45,0.02124
2607.66,0.02134
2601.88,0.02054
2596.09,0.02128
2590.3,0.02096
2584.52,0.02091
2578.73,0.02089
2572.95,0.02105
2567.16,0.02126
2561.37,0.02103
2555.59,0.02115
2549.8,0.02076
2544.02,0.02068
2538.23,0.02087
2532.44,0.02092
2526.66,0.02078
2520.87,0.02114
2515.08,0.02092
2509.3,0.02103
2503.51,0.02096
2497.73,0.02124
2491.94,0.02139
2486.15,0.02145
2480.37,0.02115
2474.58,0.02069
2468.79,0.02106
2463.01,0.02094
2457.22,0.02141
2451.44,0.02123
2445.65,0.02145
2439.86,0.02115
2434.08,0.02065
2428.29,0.02133
2422.5,0.02081
2416.72,0.02113
2410.93,0.02088
2405.15,0.02166
2399.36,0.02111
2393.57,0.02081
2387.79,0.02098
2382,0.02096
2376.21,0.02097
2370.43,0.02151
2364.64,0.02157
2358.86,0.02096
2353.07,0.02121
2347.28,0.02117
2341.5,0.02106
2335.71,0.02132
2329.92,0.02122
2324.14,0.02100
2318.35,0.02122
2312.57,0.02099
2306.78,0.02103
2300.99,0.02111
2295.21,0.02112
2289.42,0.02105
2283.63,0.02085
2277.85,0.02089
2272.06,0.02091
2266.28,0.02099
2260.49,0.02080
2254.7,0.02081
2248.92,0.02081
2243.13,0.02034
2237.34,0.02071
2231.56,0.02137
2225.77,0.02117
2219.99,0.02099
2214.2,0.02100
2208.41,0.02064
2202.63,0.02093
2196.84,0.02090
2191.05,0.02081
2185.27,0.02115
2179.48,0.02099
2173.7,0.02068
2167.91,0.02099
2162.12,0.02081
2156.34,0.02062
2150.55,0.02081
2144.76,0.02080
2138.98,0.02053
2133.19,0.02066
2127.41,0.02068
2121.62,0.02065
2115.83,0.02111
2110.05,0.02075
2104.26,0.02061
2098.47,0.02117
2092.69,0.02073
2086.9,0.02090
2081.12,0.02078
2075.33,0.02077
2069.54,0.02085
2063.76,0.02083
2057.97,0.02071
2052.19,0.02076
2046.4,0.02072
2040.61,0.02074
2034.83,0.02059
2029.04,0.02087
2023.25,0.02092
2017.47,0.02088
2011.68,0.02025
2005.9,0.02074
2000.11,0.02040
1994.32,0.02084
1988.54,0.02064
1982.75,0.02097
1976.96,0.02084
1971.18,0.02047
1965.39,0.02043
1959.61,0.02066
1953.82,0.02057
1948.03,0.02060
1942.25,0.02068
1936.46,0.02044
1930.67,0.02038
1924.89,0.02057
1919.1,0.02057
1913.32,0.02024
1907.53,0.02030
1901.74,0.02067
1895.96,0.02061
1890.17,0.02012
1884.38,0.02025
1878.6,0.02038
1872.81,0.02053
1867.03,0.02032
1861.24,0.02037
1855.45,0.02036
1849.67,0.02017
1843.88,0.01994
1838.09,0.01996
1832.31,0.02000
1826.52,0.01990
1820.74,0.01979
1814.95,0.01990
1809.16,0.01963
1803.38,0.01957
1797.59,0.01938
1791.8,0.01909
1786.02,0.01911
1780.23,0.01893
1774.45,0.01874
1768.66,0.01841
1762.87,0.01794
1757.09,0.01742
1751.3,0.01732
1745.51,0.01788
1739.73,0.01860
1733.94,0.01961
1728.16,0.02011
1722.37,0.02083
1716.58,0.02108
1710.8,0.02060
1705.01,0.02044
1699.22,0.01960
1693.44,0.01936
1687.65,0.01917
1681.87,0.01862
1676.08,0.01871
1670.29,0.01845
1664.51,0.01840
1658.72,0.01867
1652.93,0.01919
1647.15,0.01852
1641.36,0.01844
1635.58,0.01932
1629.79,0.01876
1624,0.01866
1618.22,0.01884
1612.43,0.01859
1606.64,0.01882
1600.86,0.01883
1595.07,0.01891
1589.29,0.01876
1583.5,0.01824
1577.71,0.01830
1571.93,0.01843
1566.14,0.01835
1560.35,0.01879
1554.57,0.01784
1548.78,0.01829
1543,0.01833
1537.21,0.01804
1531.42,0.01889
1525.64,0.01886
1519.85,0.01863
1514.07,0.01860
1508.28,0.01866
1502.49,0.01847
1496.71,0.01858
1490.92,0.01896
1485.13,0.01874
1479.35,0.01821
1473.56,0.01850
1467.78,0.01853
1461.99,0.01870
1456.2,0.01843
1450.42,0.01873
1444.63,0.01862
1438.84,0.01857
1433.06,0.01876
1427.27,0.01875
1421.49,0.01854
1415.7,0.01814
1409.91,0.01819
1404.13,0.01800
1398.34,0.01792
1392.55,0.01797
1386.77,0.01790
1380.98,0.01786
1375.2,0.01821
1369.41,0.01857
1363.62,0.01851
1357.84,0.01789
1352.05,0.01819
1346.26,0.01773
1340.48,0.01749
1334.69,0.01768
1328.91,0.01763
1323.12,0.01679
1317.33,0.01696
1311.55,0.01737
1305.76,0.01730
1299.97,0.01738
1294.19,0.01763
1288.4,0.01833
1282.62,0.01878
1276.83,0.01910
1271.04,0.01927
1265.26,0.01954
1259.47,0.02038
1253.68,0.02020
1247.9,0.02005
1242.11,0.02009
1236.33,0.01984
1230.54,0.01976
1224.75,0.01984
1218.97,0.01929
1213.18,0.01911
1207.39,0.01864
1201.61,0.01828
1195.82,0.01870
1190.04,0.01862
1184.25,0.01824
1178.46,0.01826
1172.68,0.01774
1166.89,0.01721
1161.1,0.01768
1155.32,0.01743
1149.53,0.01707
1143.75,0.01815
1137.96,0.01794
1132.17,0.01800
1126.39,0.01830
1120.6,0.01824
1114.81,0.01886
1109.03,0.01877
1103.24,0.01838
1097.46,0.01834
1091.67,0.01907
1085.88,0.01844
1080.1,0.01835
1074.31,0.01972
1068.52,0.02056
1062.74,0.01960
1056.95,0.01999
1051.17,0.02004
1045.38,0.01964
1039.59,0.01963
1033.81,0.01929
1028.02,0.01901
1022.24,0.01895
1016.45,0.01890
1010.66,0.02016
1004.88,0.02083
999.09,0.02149
993.304,0.02032
987.518,0.02043
981.731,0.02068
975.945,0.02047
970.159,0.02050
964.373,0.02016
958.586,0.02080
952.8,0.02028
947.014,0.02005
941.228,0.01954
935.441,0.01905
929.655,0.01949
923.869,0.01955
918.083,0.01995
912.297,0.01928
906.51,0.01921
900.724,0.01952
894.938,0.01952
889.152,0.01951
883.365,0.01888
877.579,0.01865
871.793,0.01934
866.007,0.01875
860.22,0.01855
854.434,0.01915
848.648,0.01926
842.862,0.01938
837.075,0.01925
831.289,0.01911
825.503,0.01899
819.717,0.01862
813.931,0.01835
808.144,0.01877
802.358,0.01852
796.572,0.01813
790.786,0.01872
784.999,0.01838
779.213,0.01932
773.427,0.01840
767.641,0.01854
761.854,0.01805
756.068,0.01836
750.282,0.01842
744.496,0.01804
738.709,0.01792
732.923,0.01817
727.137,0.01866
721.351,0.01747
715.565,0.01738
709.778,0.01749
703.992,0.01811
698.206,0.01847
692.42,0.01733
686.633,0.01766
680.847,0.01865
675.061,0.01769
669.275,0.01704
663.488,0.01752
657.702,0.01691
651.916,0.01710
646.13,0.01756
640.343,0.01539
634.557,0.01516
628.771,0.01601
622.985,0.01501
617.198,0.01639
611.412,0.01595
605.626,0.01530
599.84,0.01474