File: 01_Data/XPS_Foam_Board/FTIR/IS/XPS_Foam_Board_IS_S_220929_R5.dpt
7497.03,0.39338
7491.25,0.39494
7485.46,0.39622
7479.67,0.37797
7473.89,0.38938
7468.1,0.39583
7462.32,0.39729
7456.53,0.39800
7450.74,0.39035
7444.96,0.38924
7439.17,0.38803
7433.38,0.38672
7427.6,0.39412
7421.81,0.38761
7416.03,0.39251
7410.24,0.39634
7404.45,0.38916
7398.67,0.38973
7392.88,0.38506
7387.09,0.39679
7381.31,0.38908
7375.52,0.39063
7369.74,0.38869
7363.95,0.39614
7358.16,0.39006
7352.38,0.39835
7346.59,0.39179
7340.8,0.38792
7335.02,0.39319
7329.23,0.38625
7323.45,0.38855
7317.66,0.39471
7311.87,0.40080
7306.09,0.39503
7300.3,0.39505
7294.51,0.39091
7288.73,0.39042
7282.94,0.39190
7277.16,0.39209
7271.37,0.39677
7265.58,0.38737
7259.8,0.39796
7254.01,0.38813
7248.22,0.39001
7242.44,0.39749
7236.65,0.39263
7230.87,0.38253
7225.08,0.38247
7219.29,0.38431
7213.51,0.39280
7207.72,0.39423
7201.93,0.39439
7196.15,0.39125
7190.36,0.39735
7184.58,0.38625
7178.79,0.38465
7173,0.38276
7167.22,0.39128
7161.43,0.39294
7155.65,0.38906
7149.86,0.39153
7144.07,0.38262
7138.29,0.39105
7132.5,0.39684
7126.71,0.39448
7120.93,0.39106
7115.14,0.39222
7109.36,0.39324
7103.57,0.39105
7097.78,0.38987
7092,0.39300
7086.21,0.38506
7080.42,0.38523
7074.64,0.39387
7068.85,0.39154
7063.07,0.39103
7057.28,0.38447
7051.49,0.39118
7045.71,0.39316
7039.92,0.39155
7034.13,0.38805
7028.35,0.39534
7022.56,0.39034
7016.78,0.38837
7010.99,0.38092
7005.2,0.39108
6999.42,0.38968
6993.63,0.38723
6987.84,0.39169
6982.06,0.38977
6976.27,0.38976
6970.49,0.38921
6964.7,0.39469
6958.91,0.39406
6953.13,0.39091
6947.34,0.39516
6941.55,0.39129
6935.77,0.38800
6929.98,0.39121
6924.2,0.38590
6918.41,0.39104
6912.62,0.39419
6906.84,0.39331
6901.05,0.38972
6895.26,0.39269
6889.48,0.39552
6883.69,0.39644
6877.91,0.39094
6872.12,0.38923
6866.33,0.39250
6860.55,0.38881
6854.76,0.39101
6848.97,0.38842
6843.19,0.38844
6837.4,0.38830
6831.62,0.38836
6825.83,0.39243
6820.04,0.39106
6814.26,0.39255
6808.47,0.39006
6802.68,0.39369
6796.9,0.39454
6791.11,0.39362
6785.33,0.38948
6779.54,0.38976
6773.75,0.39405
6767.97,0.39016
6762.18,0.39009
6756.39,0.39395
6750.61,0.39455
6744.82,0.38992
6739.04,0.39030
6733.25,0.39024
6727.46,0.38846
6721.68,0.39315
6715.89,0.38990
6710.1,0.39497
6704.32,0.39538
6698.53,0.38378
6692.75,0.38991
6686.96,0.39291
6681.17,0.38972
6675.39,0.38914
6669.6,0.38828
6663.82,0.38655
6658.03,0.38807
6652.24,0.39314
6646.46,0.39247
6640.67,0.39340
6634.88,0.38848
6629.1,0.39399
6623.31,0.39391
6617.53,0.39069
6611.74,0.39475
6605.95,0.39088
6600.17,0.39098
6594.38,0.39450
6588.59,0.39211
6582.81,0.38853
6577.02,0.39044
6571.24,0.38970
6565.45,0.39149
6559.66,0.39106
6553.88,0.39182
6548.09,0.39233
6542.3,0.38871
6536.52,0.38977
6530.73,0.39138
6524.95,0.39268
6519.16,0.38999
6513.37,0.38787
6507.59,0.38994
6501.8,0.39285
6496.01,0.39095
6490.23,0.39225
6484.44,0.38996
6478.66,0.39244
6472.87,0.38713
6467.08,0.39130
6461.3,0.39179
6455.51,0.39116
6449.72,0.39356
6443.94,0.39149
6438.15,0.38938
6432.37,0.39411
6426.58,0.38948
6420.79,0.38703
6415.01,0.38920
6409.22,0.39220
6403.43,0.39008
6397.65,0.38944
6391.86,0.39155
6386.08,0.38893
6380.29,0.38998
6374.5,0.39153
6368.72,0.38947
6362.93,0.39156
6357.14,0.39309
6351.36,0.39016
6345.57,0.39099
6339.79,0.39253
6334,0.38923
6328.21,0.38873
6322.43,0.39051
6316.64,0.38641
6310.85,0.38932
6305.07,0.38710
6299.28,0.39251
6293.5,0.38722
6287.71,0.39005
6281.92,0.38843
6276.14,0.38771
6270.35,0.38797
6264.56,0.38576
6258.78,0.38864
6252.99,0.38779
6247.21,0.39092
6241.42,0.38911
6235.63,0.39333
6229.85,0.39153
6224.06,0.38986
6218.27,0.38903
6212.49,0.39112
6206.7,0.38792
6200.92,0.38931
6195.13,0.38780
6189.34,0.38835
6183.56,0.38378
6177.77,0.38730
6171.98,0.38532
6166.2,0.38598
6160.41,0.38365
6154.63,0.38376
6148.84,0.38585
6143.05,0.38467
6137.27,0.38586
6131.48,0.38600
6125.7,0.38506
6119.91,0.38489
6114.12,0.38244
6108.34,0.38208
6102.55,0.38149
6096.76,0.38230
6090.98,0.38737
6085.19,0.38222
6079.41,0.38395
6073.62,0.38431
6067.83,0.38158
6062.05,0.38463
6056.26,0.38445
6050.47,0.38207
6044.69,0.38373
6038.9,0.38355
6033.12,0.38201
6027.33,0.38112
6021.54,0.37960
6015.76,0.37687
6009.97,0.37371
6004.18,0.37380
5998.4,0.36833
5992.61,0.36767
5986.83,0.36631
5981.04,0.36263
5975.25,0.35879
5969.47,0.35776
5963.68,0.35673
5957.89,0.35708
5952.11,0.35688
5946.32,0.35834
5940.54,0.35703
5934.75,0.36080
5928.96,0.36026
5923.18,0.35992
5917.39,0.36078
5911.6,0.36332
5905.82,0.36501
5900.03,0.36490
5894.25,0.36865
5888.46,0.36702
5882.67,0.37022
5876.89,0.37575
5871.1,0.37578
5865.31,0.37569
5859.53,0.37774
5853.74,0.37592
5847.96,0.37733
5842.17,0.37765
5836.38,0.37734
5830.6,0.37824
5824.81,0.37983
5819.02,0.37844
5813.24,0.37982
5807.45,0.37961
5801.67,0.37890
5795.88,0.38015
5790.09,0.38083
5784.31,0.37972
5778.52,0.38014
5772.73,0.38202
5766.95,0.38312
5761.16,0.38422
5755.38,0.38584
5749.59,0.38289
5743.8,0.38694
5738.02,0.38300
5732.23,0.38511
5726.44,0.37984
5720.66,0.38311
5714.87,0.38531
5709.09,0.38341
5703.3,0.38210
5697.51,0.38255
5691.73,0.38136
5685.94,0.38177
5680.15,0.38177
5674.37,0.38065
5668.58,0.38064
5662.8,0.38189
5657.01,0.38190
5651.22,0.38416
5645.44,0.38376
5639.65,0.38403
5633.87,0.38597
5628.08,0.38192
5622.29,0.38662
5616.51,0.38453
5610.72,0.38507
5604.93,0.38451
5599.15,0.38418
5593.36,0.38353
5587.58,0.38358
5581.79,0.38327
5576,0.38442
5570.22,0.38376
5564.43,0.38341
5558.64,0.38436
5552.86,0.38555
5547.07,0.38563
5541.29,0.38440
5535.5,0.38373
5529.71,0.38519
5523.93,0.38212
5518.14,0.38362
5512.35,0.38408
5506.57,0.38338
5500.78,0.38562
5495,0.38588
5489.21,0.38645
5483.42,0.38757
5477.64,0.38600
5471.85,0.38695
5466.06,0.38610
5460.28,0.38656
5454.49,0.38622
5448.71,0.38685
5442.92,0.38595
5437.13,0.38488
5431.35,0.38620
5425.56,0.38560
5419.77,0.38516
5413.99,0.38591
5408.2,0.38596
5402.42,0.38584
5396.63,0.38605
5390.84,0.38766
5385.06,0.38576
5379.27,0.38577
5373.48,0.38416
5367.7,0.38529
5361.91,0.38629
5356.13,0.38665
5350.34,0.38812
5344.55,0.38839
5338.77,0.38760
5332.98,0.38715
5327.19,0.38665
5321.41,0.38590
5315.62,0.38663
5309.84,0.38569
5304.05,0.38731
5298.26,0.38792
5292.48,0.38835
5286.69,0.38665
5280.9,0.38685
5275.12,0.38576
5269.33,0.38609
5263.55,0.38630
5257.76,0.38688
5251.97,0.38715
5246.19,0.38787
5240.4,0.38689
5234.61,0.38661
5228.83,0.38706
5223.04,0.38736
5217.26,0.38617
5211.47,0.38713
5205.68,0.38644
5199.9,0.38651
5194.11,0.38743
5188.32,0.38713
5182.54,0.38834
5176.75,0.38734
5170.97,0.38566
5165.18,0.38797
5159.39,0.38892
5153.61,0.38687
5147.82,0.38643
5142.03,0.38858
5136.25,0.38787
5130.46,0.38699
5124.68,0.38671
5118.89,0.38752
5113.1,0.38826
5107.32,0.38726
5101.53,0.38845
5095.75,0.38892
5089.96,0.38904
5084.17,0.38832
5078.39,0.38726
5072.6,0.38642
5066.81,0.38642
5061.03,0.38645
5055.24,0.38745
5049.46,0.38755
5043.67,0.38820
5037.88,0.38722
5032.1,0.38925
5026.31,0.38832
5020.52,0.38825
5014.74,0.38848
5008.95,0.38753
5003.17,0.38716
4997.38,0.38800
4991.59,0.38677
4985.81,0.38714
4980.02,0.38835
4974.23,0.38765
4968.45,0.38784
4962.66,0.38729
4956.88,0.38894
4951.09,0.38834
4945.3,0.38797
4939.52,0.38847
4933.73,0.38770
4927.94,0.38830
4922.16,0.38774
4916.37,0.38989
4910.59,0.38774
4904.8,0.38942
4899.01,0.38676
4893.23,0.38764
4887.44,0.38765
4881.65,0.38745
4875.87,0.38703
4870.08,0.38789
4864.3,0.38756
4858.51,0.38619
4852.72,0.38737
4846.94,0.38682
4841.15,0.38662
4835.36,0.38664
4829.58,0.38798
4823.79,0.38723
4818.01,0.38792
4812.22,0.38795
4806.43,0.38750
4800.65,0.38732
4794.86,0.38764
4789.07,0.38630
4783.29,0.38739
4777.5,0.38634
4771.72,0.38672
4765.93,0.38666
4760.14,0.38607
4754.36,0.38636
4748.57,0.38679
4742.78,0.38656
4737,0.38576
4731.21,0.38625
4725.43,0.38563
4719.64,0.38406
4713.85,0.38393
4708.07,0.38297
4702.28,0.38182
4696.49,0.38120
4690.71,0.38017
4684.92,0.37601
4679.14,0.36827
4673.35,0.35961
4667.56,0.35348
4661.78,0.35170
4655.99,0.35527
4650.2,0.36066
4644.42,0.36426
4638.63,0.36269
4632.85,0.35858
4627.06,0.35441
4621.27,0.35383
4615.49,0.35299
4609.7,0.34996
4603.92,0.35134
4598.13,0.35853
4592.34,0.36564
4586.56,0.36795
4580.77,0.36691
4574.98,0.36100
4569.2,0.35999
4563.41,0.36580
4557.63,0.37184
4551.84,0.37544
4546.05,0.37767
4540.27,0.37859
4534.48,0.37894
4528.69,0.37930
4522.91,0.37932
4517.12,0.38000
4511.34,0.37955
4505.55,0.37939
4499.76,0.37988
4493.98,0.38156
4488.19,0.38103
4482.4,0.38175
4476.62,0.38248
4470.83,0.38247
4465.05,0.38152
4459.26,0.38250
4453.47,0.38378
4447.69,0.38256
4441.9,0.38094
4436.11,0.38050
4430.33,0.38085
4424.54,0.38106
4418.76,0.38043
4412.97,0.37990
4407.18,0.37943
4401.4,0.37816
4395.61,0.37709
4389.82,0.37590
4384.04,0.37429
4378.25,0.37264
4372.47,0.37159
4366.68,0.36916
4360.89,0.36656
4355.11,0.36450
4349.32,0.36248
4343.53,0.36126
4337.75,0.36089
4331.96,0.36074
4326.18,0.36135
4320.39,0.36398
4314.6,0.36653
4308.82,0.36901
4303.03,0.36916
4297.24,0.36992
4291.46,0.36770
4285.67,0.36552
4279.89,0.36173
4274.1,0.35937
4268.31,0.35619
4262.53,0.35250
4256.74,0.34918
4250.95,0.34771
4245.17,0.34784
4239.38,0.34912
4233.6,0.35028
4227.81,0.35119
4222.02,0.35222
4216.24,0.35143
4210.45,0.35156
4204.66,0.35214
4198.88,0.35433
4193.09,0.35647
4187.31,0.35873
4181.52,0.35836
4175.73,0.35978
4169.95,0.36202
4164.16,0.36236
4158.37,0.36242
4152.59,0.36209
4146.8,0.36247
4141.02,0.36098
4135.23,0.36022
4129.44,0.35875
4123.66,0.35750
4117.87,0.35557
4112.09,0.35486
4106.3,0.35250
4100.51,0.35128
4094.73,0.34976
4088.94,0.34659
4083.15,0.34199
4077.37,0.33538
4071.58,0.32708
4065.8,0.31787
4060.01,0.31104
4054.22,0.30777
4048.44,0.30994
4042.65,0.30879
4036.86,0.30564
4031.08,0.31294
4025.29,0.32419
4019.51,0.33656
4013.72,0.34740
4007.93,0.35185
4002.15,0.35240
3996.36,0.35424
3990.57,0.35820
3984.79,0.36044
3979,0.36114
3973.22,0.35990
3967.43,0.36140
3961.64,0.36216
3955.86,0.36346
3950.07,0.36332
3944.28,0.36258
3938.5,0.36188
3932.71,0.36213
3926.93,0.36269
3921.14,0.36363
3915.35,0.36468
3909.57,0.36506
3903.78,0.36502
3897.99,0.36487
3892.21,0.36621
3886.42,0.36620
3880.64,0.36641
3874.85,0.36625
3869.06,0.36627
3863.28,0.36657
3857.49,0.36681
3851.7,0.36756
3845.92,0.36603
3840.13,0.36542
3834.35,0.36517
3828.56,0.36383
3822.77,0.36332
3816.99,0.36317
3811.2,0.36269
3805.41,0.36319
3799.63,0.36301
3793.84,0.36398
3788.06,0.36589
3782.27,0.36632
3776.48,0.36725
3770.7,0.36764
3764.91,0.36705
3759.12,0.36720
3753.34,0.36839
3747.55,0.36997
3741.77,0.36968
3735.98,0.37016
3730.19,0.36843
3724.41,0.36633
3718.62,0.36519
3712.83,0.36787
3707.05,0.36684
3701.26,0.36411
3695.48,0.36493
3689.69,0.36650
3683.9,0.36528
3678.12,0.36551
3672.33,0.36496
3666.54,0.36402
3660.76,0.36168
3654.97,0.35625
3649.19,0.35016
3643.4,0.35017
3637.61,0.35856
3631.83,0.36234
3626.04,0.35985
3620.25,0.35647
3614.47,0.36024
3608.68,0.36485
3602.9,0.36631
3597.11,0.36749
3591.32,0.36737
3585.54,0.36743
3579.75,0.36789
3573.97,0.36726
3568.18,0.36773
3562.39,0.36709
3556.61,0.36595
3550.82,0.36550
3545.03,0.36563
3539.25,0.36432
3533.46,0.36465
3527.68,0.36299
3521.89,0.36308
3516.1,0.36246
3510.32,0.36205
3504.53,0.36134
3498.74,0.36077
3492.96,0.35923
3487.17,0.35816
3481.39,0.35768
3475.6,0.35723
3469.81,0.35626
3464.03,0.35599
3458.24,0.35508
3452.45,0.35490
3446.67,0.35426
3440.88,0.35338
3435.1,0.35520
3429.31,0.35623
3423.52,0.35698
3417.74,0.35862
3411.95,0.35743
3406.16,0.35793
3400.38,0.35792
3394.59,0.35805
3388.81,0.35786
3383.02,0.35773
3377.23,0.35839
3371.45,0.35883
3365.66,0.35911
3359.87,0.35889
3354.09,0.35882
3348.3,0.35879
3342.52,0.35870
3336.73,0.35895
3330.94,0.35903
3325.16,0.35975
3319.37,0.35877
3313.58,0.35935
3307.8,0.35830
3302.01,0.35901
3296.23,0.35877
3290.44,0.35873
3284.65,0.35872
3278.87,0.35744
3273.08,0.35715
3267.29,0.35678
3261.51,0.35654
3255.72,0.35748
3249.94,0.35709
3244.15,0.35656
3238.36,0.35706
3232.58,0.35642
3226.79,0.35519
3221,0.35512
3215.22,0.35414
3209.43,0.35215
3203.65,0.34901
3197.86,0.34747
3192.07,0.34743
3186.29,0.34772
3180.5,0.34680
3174.71,0.34466
3168.93,0.33846
3163.14,0.32930
3157.36,0.33236
3151.57,0.33684
3145.78,0.33654
3140,0.33527
3134.21,0.33258
3128.42,0.32733
3122.64,0.31961
3116.85,0.30318
3111.07,0.27246
3105.28,0.23934
3099.49,0.23682
3093.71,0.23325
3087.92,0.19783
3082.14,0.17222
3076.35,0.18916
3070.56,0.18943
3064.78,0.16558
3058.99,0.15599
3053.2,0.17818
3047.42,0.19793
3041.63,0.19341
3035.85,0.16574
3030.06,0.13228
3024.27,0.12840
3018.49,0.16803
3012.7,0.20983
3006.91,0.21838
3001.13,0.20741
2995.34,0.23464
2989.56,0.26195
2983.77,0.26669
2977.98,0.25972
2972.2,0.25344
2966.41,0.24116
2960.62,0.22267
2954.84,0.20238
2949.05,0.17949
2943.27,0.15705
2937.48,0.13650
2931.69,0.12193
2925.91,0.11673
2920.12,0.12042
2914.33,0.13042
2908.55,0.14389
2902.76,0.15915
2896.98,0.17658
2891.19,0.18994
2885.4,0.20076
2879.62,0.21079
2873.83,0.21881
2868.04,0.21975
2862.26,0.20585
2856.47,0.18536
2850.69,0.17453
2844.9,0.18672
2839.11,0.22674
2833.33,0.27220
2827.54,0.29737
2821.75,0.30780
2815.97,0.31185
2810.18,0.31331
2804.4,0.31695
2798.61,0.32249
2792.82,0.32666
2787.04,0.32871
2781.25,0.32933
2775.46,0.33172
2769.68,0.33656
2763.89,0.33932
2758.11,0.34133
2752.32,0.34286
2746.53,0.34366
2740.75,0.34259
2734.96,0.34092
2729.17,0.33902
2723.39,0.33827
2717.6,0.33759
2711.82,0.33861
2706.03,0.33864
2700.24,0.33861
2694.46,0.33806
2688.67,0.33801
2682.88,0.33830
2677.1,0.33898
2671.31,0.33859
2665.53,0.33943
2659.74,0.33936
2653.95,0.33961
2648.17,0.33887
2642.38,0.33838
2636.59,0.33463
2630.81,0.33124
2625.02,0.33695
2619.24,0.34099
2613.45,0.34093
2607.66,0.33696
2601.88,0.33412
2596.09,0.33921
2590.3,0.34301
2584.52,0.34004
2578.73,0.33921
2572.95,0.34381
2567.16,0.34484
2561.37,0.34511
2555.59,0.34475
2549.8,0.34420
2544.02,0.34404
2538.23,0.34564
2532.44,0.34619
2526.66,0.34542
2520.87,0.34478
2515.08,0.34423
2509.3,0.34392
2503.51,0.34438
2497.73,0.34637
2491.94,0.34706
2486.15,0.34835
2480.37,0.34974
2474.58,0.35238
2468.79,0.35454
2463.01,0.35599
2457.22,0.35628
2451.44,0.35582
2445.65,0.35666
2439.86,0.35720
2434.08,0.35764
2428.29,0.35841
2422.5,0.35889
2416.72,0.35922
2410.93,0.35858
2405.15,0.35743
2399.36,0.35699
2393.57,0.35613
2387.79,0.35620
2382,0.35591
2376.21,0.35585
2370.43,0.35485
2364.64,0.35186
2358.86,0.35001
2353.07,0.35020
2347.28,0.34755
2341.5,0.33881
2335.71,0.33402
2329.92,0.34613
2324.14,0.35322
2318.35,0.35017
2312.57,0.34362
2306.78,0.34788
2300.99,0.35509
2295.21,0.35505
2289.42,0.35626
2283.63,0.35844
2277.85,0.35940
2272.06,0.35913
2266.28,0.35797
2260.49,0.35616
2254.7,0.35501
2248.92,0.35651
2243.13,0.35904
2237.34,0.36088
2231.56,0.36126
2225.77,0.36120
2219.99,0.36171
2214.2,0.36132
2208.41,0.36103
2202.63,0.36273
2196.84,0.36371
2191.05,0.36295
2185.27,0.36181
2179.48,0.36304
2173.7,0.36516
2167.91,0.36568
2162.12,0.36594
2156.34,0.36602
2150.55,0.36585
2144.76,0.36661
2138.98,0.36663
2133.19,0.36716
2127.41,0.36792
2121.62,0.36795
2115.83,0.36822
2110.05,0.36824
2104.26,0.36847
2098.47,0.36919
2092.69,0.36960
2086.9,0.36952
2081.12,0.36944
2075.33,0.36873
2069.54,0.36898
2063.76,0.36865
2057.97,0.36811
2052.19,0.36838
2046.4,0.36801
2040.61,0.36790
2034.83,0.36672
2029.04,0.36563
2023.25,0.36541
2017.47,0.36507
2011.68,0.36324
2005.9,0.36170
2000.11,0.36016
1994.32,0.35607
1988.54,0.34766
1982.75,0.34377
1976.96,0.34254
1971.18,0.33041
1965.39,0.30870
1959.61,0.29254
1953.82,0.28320
1948.03,0.27093
1942.25,0.26505
1936.46,0.28079
1930.67,0.30799
1924.89,0.32690
1919.1,0.33865
1913.32,0.34481
1907.53,0.34449
1901.74,0.33765
1895.96,0.32298
1890.17,0.30518
1884.38,0.29214
1878.6,0.28554
1872.81,0.28020
1867.03,0.28326
1861.24,0.30099
1855.45,0.32532
1849.67,0.34102
1843.88,0.34773
1838.09,0.34762
1832.31,0.34062
1826.52,0.32700
1820.74,0.31104
1814.95,0.29687
1809.16,0.28412
1803.38,0.27702
1797.59,0.28481
1791.8,0.30965
1786.02,0.33004
1780.23,0.33403
1774.45,0.33168
1768.66,0.33396
1762.87,0.32673
1757.09,0.31062
1751.3,0.29448
1745.51,0.28495
1739.73,0.28623
1733.94,0.30016
1728.16,0.31530
1722.37,0.32472
1716.58,0.33221
1710.8,0.33515
1705.01,0.33419
1699.22,0.33318
1693.44,0.33064
1687.65,0.32389
1681.87,0.31549
1676.08,0.31050
1670.29,0.30624
1664.51,0.30613
1658.72,0.31359
1652.93,0.32365
1647.15,0.32895
1641.36,0.33140
1635.58,0.33067
1629.79,0.32330
1624,0.31443
1618.22,0.30133
1612.43,0.26973
1606.64,0.20356
1600.86,0.16802
1595.07,0.21479
1589.29,0.24744
1583.5,0.22923
1577.71,0.27322
1571.93,0.30811
1566.14,0.32221
1560.35,0.32440
1554.57,0.31264
1548.78,0.29711
1543,0.28746
1537.21,0.29152
1531.42,0.30461
1525.64,0.31215
1519.85,0.30979
1514.07,0.29911
1508.28,0.28279
1502.49,0.23717
1496.71,0.15004
1490.92,0.14483
1485.13,0.21847
1479.35,0.26129
1473.56,0.27090
1467.78,0.26066
1461.99,0.23114
1456.2,0.15047
1450.42,0.13667
1444.63,0.17505
1438.84,0.21026
1433.06,0.25609
1427.27,0.29106
1421.49,0.30432
1415.7,0.30932
1409.91,0.30934
1404.13,0.30718
1398.34,0.29909
1392.55,0.28027
1386.77,0.25489
1380.98,0.23774
1375.2,0.22714
1369.41,0.22675
1363.62,0.23189
1357.84,0.23919
1352.05,0.24289
1346.26,0.24645
1340.48,0.25446
1334.69,0.25102
1328.91,0.24244
1323.12,0.24823
1317.33,0.24955
1311.55,0.24652
1305.76,0.25226
1299.97,0.25935
1294.19,0.26279
1288.4,0.26487
1282.62,0.26891
1276.83,0.27900
1271.04,0.29129
1265.26,0.30007
1259.47,0.30349
1253.68,0.30243
1247.9,0.29935
1242.11,0.29980
1236.33,0.30156
1230.54,0.29956
1224.75,0.29565
1218.97,0.29378
1213.18,0.28865
1207.39,0.27937
1201.61,0.26542
1195.82,0.25584
1190.04,0.25198
1184.25,0.23978
1178.46,0.24451
1172.68,0.27012
1166.89,0.27758
1161.1,0.26896
1155.32,0.24263
1149.53,0.27175
1143.75,0.30177
1137.96,0.31615
1132.17,0.32029
1126.39,0.32017
1120.6,0.31062
1114.81,0.29534
1109.03,0.29511
1103.24,0.29708
1097.46,0.28970
1091.67,0.28067
1085.88,0.27022
1080.1,0.25386
1074.31,0.23563
1068.52,0.22827
1062.74,0.24493
1056.95,0.26343
1051.17,0.27659
1045.38,0.28228
1039.59,0.27295
1033.81,0.22271
1028.02,0.19549
1022.24,0.22797
1016.45,0.25348
1010.66,0.26811
1004.88,0.26484
999.09,0.28066
993.304,0.29180
987.518,0.28437
981.731,0.27271
975.945,0.27586
970.159,0.27479
964.373,0.26423
958.586,0.28080
952.8,0.29197
947.014,0.28643
941.228,0.28504
935.441,0.29903
929.655,0.31060
923.869,0.30505
918.083,0.28604
912.297,0.24781
906.51,0.22752
900.724,0.25943
894.938,0.29994
889.152,0.31711
883.365,0.32611
877.579,0.33166
871.793,0.33379
866.007,0.33444
860.22,0.33366
854.434,0.32489
848.648,0.30002
842.862,0.27777
837.075,0.28984
831.289,0.32087
825.503,0.33041
819.717,0.32951
813.931,0.32504
808.144,0.31834
802.358,0.30895
796.572,0.29119
790.786,0.26383
784.999,0.23309
779.213,0.19981
773.427,0.16250
767.641,0.13709
761.854,0.12970
756.068,0.13725
750.282,0.15275
744.496,0.17767
738.709,0.21503
732.923,0.25432
727.137,0.27487
721.351,0.26296
715.565,0.21840
709.778,0.12722
703.992,0.07574
698.206,0.15680
692.42,0.25211
686.633,0.29871
680.847,0.31455
675.061,0.31680
669.275,0.32023
663.488,0.33084
657.702,0.34691
651.916,0.35509
646.13,0.36033
640.343,0.35384
634.557,0.33577
628.771,0.31986
622.985,0.31000
617.198,0.31532
611.412,0.32276
605.626,0.32146
599.84,0.31539