File: 01_Data/XPS_Foam_Board/FTIR/IS/XPS_Foam_Board_IS_S_220929_R6.dpt
7497.03,0.39279
7491.25,0.39700
7485.46,0.39176
7479.67,0.38774
7473.89,0.38819
7468.1,0.39655
7462.32,0.39332
7456.53,0.39103
7450.74,0.39558
7444.96,0.39037
7439.17,0.39219
7433.38,0.39253
7427.6,0.39457
7421.81,0.40516
7416.03,0.39658
7410.24,0.39213
7404.45,0.39331
7398.67,0.38987
7392.88,0.39395
7387.09,0.38747
7381.31,0.39626
7375.52,0.39094
7369.74,0.38429
7363.95,0.38646
7358.16,0.39353
7352.38,0.39610
7346.59,0.38465
7340.8,0.39468
7335.02,0.38970
7329.23,0.39183
7323.45,0.39102
7317.66,0.39606
7311.87,0.39132
7306.09,0.38001
7300.3,0.39979
7294.51,0.40154
7288.73,0.38436
7282.94,0.39238
7277.16,0.39392
7271.37,0.39685
7265.58,0.39258
7259.8,0.39402
7254.01,0.39862
7248.22,0.39647
7242.44,0.39407
7236.65,0.38535
7230.87,0.38864
7225.08,0.38801
7219.29,0.39231
7213.51,0.39014
7207.72,0.38855
7201.93,0.39373
7196.15,0.39485
7190.36,0.39369
7184.58,0.39761
7178.79,0.39481
7173,0.38880
7167.22,0.38980
7161.43,0.38866
7155.65,0.38898
7149.86,0.39193
7144.07,0.38923
7138.29,0.39736
7132.5,0.39952
7126.71,0.39282
7120.93,0.39104
7115.14,0.39153
7109.36,0.38585
7103.57,0.39170
7097.78,0.39025
7092,0.38765
7086.21,0.39620
7080.42,0.39375
7074.64,0.40029
7068.85,0.38811
7063.07,0.39226
7057.28,0.39099
7051.49,0.39174
7045.71,0.39477
7039.92,0.38791
7034.13,0.38850
7028.35,0.39098
7022.56,0.39051
7016.78,0.39454
7010.99,0.39216
7005.2,0.39563
6999.42,0.39075
6993.63,0.39430
6987.84,0.38770
6982.06,0.38676
6976.27,0.38831
6970.49,0.39328
6964.7,0.38854
6958.91,0.39151
6953.13,0.39390
6947.34,0.39241
6941.55,0.38855
6935.77,0.39175
6929.98,0.39073
6924.2,0.39353
6918.41,0.39095
6912.62,0.38977
6906.84,0.38881
6901.05,0.38975
6895.26,0.39199
6889.48,0.39127
6883.69,0.39231
6877.91,0.39030
6872.12,0.39090
6866.33,0.38991
6860.55,0.38808
6854.76,0.38541
6848.97,0.38546
6843.19,0.39289
6837.4,0.39297
6831.62,0.39201
6825.83,0.39400
6820.04,0.39103
6814.26,0.39458
6808.47,0.39110
6802.68,0.39204
6796.9,0.38911
6791.11,0.39195
6785.33,0.38893
6779.54,0.39107
6773.75,0.38543
6767.97,0.38531
6762.18,0.38844
6756.39,0.39048
6750.61,0.39409
6744.82,0.39257
6739.04,0.39057
6733.25,0.39367
6727.46,0.39074
6721.68,0.39342
6715.89,0.38921
6710.1,0.39465
6704.32,0.39109
6698.53,0.38770
6692.75,0.38875
6686.96,0.39040
6681.17,0.39309
6675.39,0.39462
6669.6,0.39606
6663.82,0.39696
6658.03,0.39755
6652.24,0.39160
6646.46,0.39257
6640.67,0.38830
6634.88,0.39091
6629.1,0.39090
6623.31,0.39099
6617.53,0.38987
6611.74,0.39052
6605.95,0.38756
6600.17,0.39104
6594.38,0.39176
6588.59,0.39353
6582.81,0.39256
6577.02,0.39534
6571.24,0.38880
6565.45,0.39012
6559.66,0.39153
6553.88,0.39281
6548.09,0.38783
6542.3,0.38968
6536.52,0.38955
6530.73,0.38918
6524.95,0.39418
6519.16,0.39112
6513.37,0.39425
6507.59,0.39293
6501.8,0.39102
6496.01,0.38989
6490.23,0.39035
6484.44,0.39052
6478.66,0.39434
6472.87,0.38802
6467.08,0.39225
6461.3,0.38860
6455.51,0.39002
6449.72,0.39254
6443.94,0.39293
6438.15,0.39184
6432.37,0.39032
6426.58,0.38985
6420.79,0.38890
6415.01,0.39081
6409.22,0.39338
6403.43,0.39163
6397.65,0.38671
6391.86,0.38772
6386.08,0.39348
6380.29,0.39172
6374.5,0.39010
6368.72,0.39220
6362.93,0.38875
6357.14,0.38704
6351.36,0.39130
6345.57,0.38989
6339.79,0.38806
6334,0.38789
6328.21,0.39031
6322.43,0.39159
6316.64,0.39084
6310.85,0.39489
6305.07,0.39132
6299.28,0.38878
6293.5,0.39200
6287.71,0.39102
6281.92,0.39260
6276.14,0.39034
6270.35,0.39223
6264.56,0.38880
6258.78,0.38885
6252.99,0.39047
6247.21,0.39169
6241.42,0.38922
6235.63,0.39206
6229.85,0.38638
6224.06,0.38762
6218.27,0.38575
6212.49,0.38993
6206.7,0.38884
6200.92,0.39125
6195.13,0.38760
6189.34,0.39179
6183.56,0.38903
6177.77,0.38975
6171.98,0.38648
6166.2,0.38736
6160.41,0.38657
6154.63,0.38747
6148.84,0.38649
6143.05,0.38565
6137.27,0.38549
6131.48,0.38643
6125.7,0.38487
6119.91,0.38259
6114.12,0.38169
6108.34,0.38291
6102.55,0.38428
6096.76,0.38295
6090.98,0.38264
6085.19,0.38195
6079.41,0.38335
6073.62,0.38142
6067.83,0.38173
6062.05,0.38233
6056.26,0.38426
6050.47,0.38644
6044.69,0.38346
6038.9,0.38559
6033.12,0.38075
6027.33,0.38199
6021.54,0.38145
6015.76,0.37553
6009.97,0.37655
6004.18,0.37155
5998.4,0.36901
5992.61,0.36693
5986.83,0.36567
5981.04,0.36491
5975.25,0.35801
5969.47,0.35624
5963.68,0.35885
5957.89,0.35744
5952.11,0.35814
5946.32,0.35866
5940.54,0.35697
5934.75,0.36019
5928.96,0.36084
5923.18,0.36114
5917.39,0.36161
5911.6,0.36498
5905.82,0.36446
5900.03,0.36709
5894.25,0.36623
5888.46,0.37020
5882.67,0.37142
5876.89,0.37356
5871.1,0.37656
5865.31,0.37732
5859.53,0.37670
5853.74,0.37541
5847.96,0.37639
5842.17,0.37747
5836.38,0.37762
5830.6,0.37763
5824.81,0.37640
5819.02,0.38066
5813.24,0.38131
5807.45,0.37856
5801.67,0.37857
5795.88,0.37911
5790.09,0.37962
5784.31,0.37860
5778.52,0.38138
5772.73,0.38183
5766.95,0.38159
5761.16,0.38252
5755.38,0.38308
5749.59,0.38496
5743.8,0.38248
5738.02,0.38384
5732.23,0.38507
5726.44,0.38402
5720.66,0.38427
5714.87,0.38296
5709.09,0.38242
5703.3,0.38032
5697.51,0.37969
5691.73,0.38044
5685.94,0.38094
5680.15,0.38074
5674.37,0.38058
5668.58,0.38131
5662.8,0.38218
5657.01,0.38300
5651.22,0.38191
5645.44,0.38374
5639.65,0.38320
5633.87,0.38490
5628.08,0.38211
5622.29,0.38322
5616.51,0.38593
5610.72,0.38381
5604.93,0.38299
5599.15,0.38439
5593.36,0.38472
5587.58,0.38398
5581.79,0.38279
5576,0.38593
5570.22,0.38518
5564.43,0.38564
5558.64,0.38526
5552.86,0.38366
5547.07,0.38454
5541.29,0.38517
5535.5,0.38334
5529.71,0.38435
5523.93,0.38425
5518.14,0.38357
5512.35,0.38423
5506.57,0.38318
5500.78,0.38571
5495,0.38637
5489.21,0.38509
5483.42,0.38483
5477.64,0.38546
5471.85,0.38459
5466.06,0.38464
5460.28,0.38693
5454.49,0.38500
5448.71,0.38479
5442.92,0.38669
5437.13,0.38515
5431.35,0.38559
5425.56,0.38447
5419.77,0.38577
5413.99,0.38516
5408.2,0.38664
5402.42,0.38443
5396.63,0.38512
5390.84,0.38529
5385.06,0.38646
5379.27,0.38597
5373.48,0.38387
5367.7,0.38468
5361.91,0.38529
5356.13,0.38601
5350.34,0.38652
5344.55,0.38521
5338.77,0.38521
5332.98,0.38629
5327.19,0.38678
5321.41,0.38543
5315.62,0.38543
5309.84,0.38806
5304.05,0.38590
5298.26,0.38598
5292.48,0.38661
5286.69,0.38638
5280.9,0.38597
5275.12,0.38556
5269.33,0.38618
5263.55,0.38717
5257.76,0.38637
5251.97,0.38430
5246.19,0.38609
5240.4,0.38693
5234.61,0.38496
5228.83,0.38692
5223.04,0.38667
5217.26,0.38584
5211.47,0.38621
5205.68,0.38744
5199.9,0.38770
5194.11,0.38568
5188.32,0.38612
5182.54,0.38694
5176.75,0.38735
5170.97,0.38749
5165.18,0.38738
5159.39,0.38724
5153.61,0.38709
5147.82,0.38690
5142.03,0.38746
5136.25,0.38807
5130.46,0.38740
5124.68,0.38631
5118.89,0.38607
5113.1,0.38652
5107.32,0.38598
5101.53,0.38773
5095.75,0.38646
5089.96,0.38749
5084.17,0.38791
5078.39,0.38792
5072.6,0.38689
5066.81,0.38659
5061.03,0.38867
5055.24,0.38794
5049.46,0.38802
5043.67,0.38778
5037.88,0.38809
5032.1,0.38695
5026.31,0.38587
5020.52,0.38729
5014.74,0.38810
5008.95,0.38752
5003.17,0.38681
4997.38,0.38641
4991.59,0.38864
4985.81,0.38790
4980.02,0.38744
4974.23,0.38794
4968.45,0.38783
4962.66,0.38720
4956.88,0.38739
4951.09,0.38764
4945.3,0.38796
4939.52,0.38683
4933.73,0.38789
4927.94,0.38841
4922.16,0.38667
4916.37,0.38732
4910.59,0.38822
4904.8,0.38868
4899.01,0.38706
4893.23,0.38717
4887.44,0.38768
4881.65,0.38775
4875.87,0.38644
4870.08,0.38610
4864.3,0.38679
4858.51,0.38727
4852.72,0.38797
4846.94,0.38674
4841.15,0.38647
4835.36,0.38700
4829.58,0.38779
4823.79,0.38668
4818.01,0.38635
4812.22,0.38600
4806.43,0.38779
4800.65,0.38792
4794.86,0.38593
4789.07,0.38679
4783.29,0.38654
4777.5,0.38777
4771.72,0.38675
4765.93,0.38565
4760.14,0.38541
4754.36,0.38596
4748.57,0.38481
4742.78,0.38654
4737,0.38676
4731.21,0.38640
4725.43,0.38521
4719.64,0.38476
4713.85,0.38416
4708.07,0.38307
4702.28,0.38205
4696.49,0.38101
4690.71,0.37928
4684.92,0.37574
4679.14,0.36921
4673.35,0.35894
4667.56,0.35170
4661.78,0.35009
4655.99,0.35453
4650.2,0.36048
4644.42,0.36383
4638.63,0.36270
4632.85,0.35823
4627.06,0.35378
4621.27,0.35260
4615.49,0.35165
4609.7,0.35016
4603.92,0.35243
4598.13,0.35768
4592.34,0.36421
4586.56,0.36763
4580.77,0.36573
4574.98,0.36151
4569.2,0.36093
4563.41,0.36723
4557.63,0.37098
4551.84,0.37373
4546.05,0.37755
4540.27,0.37763
4534.48,0.37773
4528.69,0.37894
4522.91,0.37837
4517.12,0.37871
4511.34,0.37862
4505.55,0.37811
4499.76,0.37925
4493.98,0.38108
4488.19,0.38091
4482.4,0.38142
4476.62,0.38127
4470.83,0.38171
4465.05,0.38223
4459.26,0.38145
4453.47,0.38207
4447.69,0.38093
4441.9,0.37998
4436.11,0.38010
4430.33,0.38122
4424.54,0.38006
4418.76,0.38006
4412.97,0.37996
4407.18,0.37958
4401.4,0.37794
4395.61,0.37674
4389.82,0.37548
4384.04,0.37357
4378.25,0.37216
4372.47,0.37024
4366.68,0.36871
4360.89,0.36540
4355.11,0.36418
4349.32,0.36193
4343.53,0.36122
4337.75,0.35964
4331.96,0.35969
4326.18,0.36034
4320.39,0.36296
4314.6,0.36729
4308.82,0.36817
4303.03,0.36877
4297.24,0.36820
4291.46,0.36755
4285.67,0.36441
4279.89,0.36142
4274.1,0.35843
4268.31,0.35508
4262.53,0.35240
4256.74,0.34924
4250.95,0.34695
4245.17,0.34755
4239.38,0.34937
4233.6,0.35074
4227.81,0.35124
4222.02,0.35135
4216.24,0.35125
4210.45,0.35096
4204.66,0.35069
4198.88,0.35303
4193.09,0.35533
4187.31,0.35694
4181.52,0.35810
4175.73,0.35877
4169.95,0.36073
4164.16,0.36100
4158.37,0.36123
4152.59,0.36286
4146.8,0.36209
4141.02,0.36123
4135.23,0.35964
4129.44,0.35805
4123.66,0.35686
4117.87,0.35515
4112.09,0.35338
4106.3,0.35240
4100.51,0.35145
4094.73,0.34924
4088.94,0.34578
4083.15,0.34162
4077.37,0.33490
4071.58,0.32618
4065.8,0.31770
4060.01,0.31092
4054.22,0.30819
4048.44,0.30871
4042.65,0.30862
4036.86,0.30543
4031.08,0.31191
4025.29,0.32291
4019.51,0.33567
4013.72,0.34741
4007.93,0.35119
4002.15,0.35076
3996.36,0.35335
3990.57,0.35779
3984.79,0.35917
3979,0.35917
3973.22,0.35998
3967.43,0.36130
3961.64,0.36145
3955.86,0.36259
3950.07,0.36255
3944.28,0.36198
3938.5,0.36167
3932.71,0.36194
3926.93,0.36270
3921.14,0.36319
3915.35,0.36399
3909.57,0.36392
3903.78,0.36457
3897.99,0.36436
3892.21,0.36503
3886.42,0.36557
3880.64,0.36577
3874.85,0.36632
3869.06,0.36581
3863.28,0.36568
3857.49,0.36690
3851.7,0.36641
3845.92,0.36462
3840.13,0.36508
3834.35,0.36479
3828.56,0.36280
3822.77,0.36317
3816.99,0.36220
3811.2,0.36169
3805.41,0.36266
3799.63,0.36302
3793.84,0.36339
3788.06,0.36477
3782.27,0.36622
3776.48,0.36628
3770.7,0.36633
3764.91,0.36598
3759.12,0.36676
3753.34,0.36823
3747.55,0.36902
3741.77,0.36947
3735.98,0.36939
3730.19,0.36762
3724.41,0.36595
3718.62,0.36467
3712.83,0.36723
3707.05,0.36544
3701.26,0.36333
3695.48,0.36394
3689.69,0.36660
3683.9,0.36524
3678.12,0.36383
3672.33,0.36399
3666.54,0.36351
3660.76,0.36037
3654.97,0.35573
3649.19,0.35116
3643.4,0.34942
3637.61,0.35742
3631.83,0.36210
3626.04,0.35950
3620.25,0.35532
3614.47,0.35937
3608.68,0.36376
3602.9,0.36563
3597.11,0.36639
3591.32,0.36689
3585.54,0.36645
3579.75,0.36710
3573.97,0.36710
3568.18,0.36697
3562.39,0.36666
3556.61,0.36580
3550.82,0.36543
3545.03,0.36466
3539.25,0.36433
3533.46,0.36335
3527.68,0.36321
3521.89,0.36276
3516.1,0.36215
3510.32,0.36113
3504.53,0.36141
3498.74,0.36036
3492.96,0.35823
3487.17,0.35742
3481.39,0.35754
3475.6,0.35635
3469.81,0.35599
3464.03,0.35491
3458.24,0.35552
3452.45,0.35459
3446.67,0.35323
3440.88,0.35292
3435.1,0.35378
3429.31,0.35529
3423.52,0.35678
3417.74,0.35724
3411.95,0.35779
3406.16,0.35705
3400.38,0.35783
3394.59,0.35704
3388.81,0.35741
3383.02,0.35782
3377.23,0.35799
3371.45,0.35871
3365.66,0.35885
3359.87,0.35867
3354.09,0.35891
3348.3,0.35826
3342.52,0.35867
3336.73,0.35856
3330.94,0.35850
3325.16,0.35850
3319.37,0.35825
3313.58,0.35823
3307.8,0.35859
3302.01,0.35815
3296.23,0.35827
3290.44,0.35876
3284.65,0.35787
3278.87,0.35750
3273.08,0.35767
3267.29,0.35685
3261.51,0.35677
3255.72,0.35659
3249.94,0.35581
3244.15,0.35624
3238.36,0.35580
3232.58,0.35575
3226.79,0.35519
3221,0.35372
3215.22,0.35297
3209.43,0.35093
3203.65,0.34858
3197.86,0.34745
3192.07,0.34661
3186.29,0.34681
3180.5,0.34551
3174.71,0.34392
3168.93,0.33803
3163.14,0.32923
3157.36,0.33222
3151.57,0.33625
3145.78,0.33635
3140,0.33492
3134.21,0.33183
3128.42,0.32692
3122.64,0.31874
3116.85,0.30275
3111.07,0.27245
3105.28,0.23786
3099.49,0.23573
3093.71,0.23231
3087.92,0.19722
3082.14,0.17247
3076.35,0.18883
3070.56,0.18873
3064.78,0.16582
3058.99,0.15526
3053.2,0.17833
3047.42,0.19740
3041.63,0.19300
3035.85,0.16590
3030.06,0.13204
3024.27,0.12763
3018.49,0.16782
3012.7,0.20915
3006.91,0.21784
3001.13,0.20725
2995.34,0.23431
2989.56,0.26199
2983.77,0.26662
2977.98,0.25948
2972.2,0.25242
2966.41,0.24075
2960.62,0.22274
2954.84,0.20170
2949.05,0.17938
2943.27,0.15647
2937.48,0.13694
2931.69,0.12205
2925.91,0.11642
2920.12,0.12058
2914.33,0.12991
2908.55,0.14270
2902.76,0.15894
2896.98,0.17594
2891.19,0.19006
2885.4,0.20029
2879.62,0.21012
2873.83,0.21843
2868.04,0.21891
2862.26,0.20578
2856.47,0.18474
2850.69,0.17458
2844.9,0.18692
2839.11,0.22622
2833.33,0.27167
2827.54,0.29696
2821.75,0.30707
2815.97,0.31096
2810.18,0.31290
2804.4,0.31647
2798.61,0.32166
2792.82,0.32614
2787.04,0.32800
2781.25,0.32842
2775.46,0.33087
2769.68,0.33570
2763.89,0.33900
2758.11,0.34047
2752.32,0.34207
2746.53,0.34264
2740.75,0.34226
2734.96,0.34058
2729.17,0.33897
2723.39,0.33762
2717.6,0.33717
2711.82,0.33777
2706.03,0.33850
2700.24,0.33759
2694.46,0.33743
2688.67,0.33720
2682.88,0.33763
2677.1,0.33808
2671.31,0.33823
2665.53,0.33892
2659.74,0.33916
2653.95,0.33895
2648.17,0.33797
2642.38,0.33743
2636.59,0.33426
2630.81,0.33083
2625.02,0.33659
2619.24,0.34092
2613.45,0.34054
2607.66,0.33616
2601.88,0.33310
2596.09,0.33888
2590.3,0.34228
2584.52,0.33957
2578.73,0.33856
2572.95,0.34375
2567.16,0.34452
2561.37,0.34459
2555.59,0.34415
2549.8,0.34376
2544.02,0.34330
2538.23,0.34529
2532.44,0.34566
2526.66,0.34476
2520.87,0.34410
2515.08,0.34323
2509.3,0.34273
2503.51,0.34402
2497.73,0.34556
2491.94,0.34640
2486.15,0.34819
2480.37,0.34940
2474.58,0.35187
2468.79,0.35353
2463.01,0.35549
2457.22,0.35551
2451.44,0.35516
2445.65,0.35566
2439.86,0.35613
2434.08,0.35696
2428.29,0.35785
2422.5,0.35844
2416.72,0.35824
2410.93,0.35778
2405.15,0.35685
2399.36,0.35606
2393.57,0.35561
2387.79,0.35539
2382,0.35502
2376.21,0.35483
2370.43,0.35371
2364.64,0.35148
2358.86,0.34911
2353.07,0.34930
2347.28,0.34660
2341.5,0.33858
2335.71,0.33342
2329.92,0.34479
2324.14,0.35203
2318.35,0.34956
2312.57,0.34271
2306.78,0.34752
2300.99,0.35403
2295.21,0.35444
2289.42,0.35550
2283.63,0.35771
2277.85,0.35906
2272.06,0.35874
2266.28,0.35697
2260.49,0.35548
2254.7,0.35449
2248.92,0.35595
2243.13,0.35833
2237.34,0.35958
2231.56,0.36062
2225.77,0.36042
2219.99,0.36074
2214.2,0.36056
2208.41,0.36055
2202.63,0.36202
2196.84,0.36278
2191.05,0.36217
2185.27,0.36141
2179.48,0.36247
2173.7,0.36410
2167.91,0.36526
2162.12,0.36544
2156.34,0.36540
2150.55,0.36520
2144.76,0.36542
2138.98,0.36633
2133.19,0.36674
2127.41,0.36725
2121.62,0.36714
2115.83,0.36685
2110.05,0.36734
2104.26,0.36804
2098.47,0.36840
2092.69,0.36867
2086.9,0.36885
2081.12,0.36842
2075.33,0.36847
2069.54,0.36801
2063.76,0.36777
2057.97,0.36758
2052.19,0.36788
2046.4,0.36768
2040.61,0.36683
2034.83,0.36593
2029.04,0.36489
2023.25,0.36498
2017.47,0.36426
2011.68,0.36253
2005.9,0.36092
2000.11,0.35951
1994.32,0.35541
1988.54,0.34726
1982.75,0.34326
1976.96,0.34167
1971.18,0.32997
1965.39,0.30799
1959.61,0.29188
1953.82,0.28225
1948.03,0.27031
1942.25,0.26434
1936.46,0.27999
1930.67,0.30783
1924.89,0.32636
1919.1,0.33768
1913.32,0.34413
1907.53,0.34391
1901.74,0.33676
1895.96,0.32178
1890.17,0.30396
1884.38,0.29117
1878.6,0.28489
1872.81,0.27973
1867.03,0.28258
1861.24,0.30051
1855.45,0.32469
1849.67,0.34042
1843.88,0.34695
1838.09,0.34666
1832.31,0.33990
1826.52,0.32621
1820.74,0.31036
1814.95,0.29635
1809.16,0.28364
1803.38,0.27625
1797.59,0.28428
1791.8,0.30873
1786.02,0.32938
1780.23,0.33360
1774.45,0.33114
1768.66,0.33341
1762.87,0.32610
1757.09,0.30993
1751.3,0.29356
1745.51,0.28379
1739.73,0.28595
1733.94,0.29973
1728.16,0.31427
1722.37,0.32402
1716.58,0.33201
1710.8,0.33434
1705.01,0.33355
1699.22,0.33289
1693.44,0.32982
1687.65,0.32341
1681.87,0.31510
1676.08,0.30940
1670.29,0.30599
1664.51,0.30627
1658.72,0.31278
1652.93,0.32267
1647.15,0.32787
1641.36,0.33060
1635.58,0.32943
1629.79,0.32289
1624,0.31363
1618.22,0.30148
1612.43,0.26916
1606.64,0.20332
1600.86,0.16755
1595.07,0.21434
1589.29,0.24708
1583.5,0.22852
1577.71,0.27245
1571.93,0.30779
1566.14,0.32171
1560.35,0.32389
1554.57,0.31187
1548.78,0.29631
1543,0.28663
1537.21,0.29107
1531.42,0.30394
1525.64,0.31130
1519.85,0.30938
1514.07,0.29899
1508.28,0.28256
1502.49,0.23679
1496.71,0.14938
1490.92,0.14434
1485.13,0.21837
1479.35,0.26094
1473.56,0.27027
1467.78,0.26003
1461.99,0.23064
1456.2,0.15067
1450.42,0.13646
1444.63,0.17508
1438.84,0.20992
1433.06,0.25528
1427.27,0.29011
1421.49,0.30390
1415.7,0.30899
1409.91,0.30886
1404.13,0.30644
1398.34,0.29878
1392.55,0.28005
1386.77,0.25469
1380.98,0.23681
1375.2,0.22655
1369.41,0.22664
1363.62,0.23139
1357.84,0.23836
1352.05,0.24231
1346.26,0.24613
1340.48,0.25383
1334.69,0.25042
1328.91,0.24162
1323.12,0.24758
1317.33,0.24901
1311.55,0.24615
1305.76,0.25188
1299.97,0.25918
1294.19,0.26205
1288.4,0.26413
1282.62,0.26839
1276.83,0.27835
1271.04,0.29065
1265.26,0.29948
1259.47,0.30339
1253.68,0.30212
1247.9,0.29854
1242.11,0.29900
1236.33,0.30119
1230.54,0.29934
1224.75,0.29552
1218.97,0.29314
1213.18,0.28804
1207.39,0.27897
1201.61,0.26487
1195.82,0.25574
1190.04,0.25178
1184.25,0.23956
1178.46,0.24453
1172.68,0.27004
1166.89,0.27717
1161.1,0.26883
1155.32,0.24250
1149.53,0.27107
1143.75,0.30159
1137.96,0.31517
1132.17,0.31985
1126.39,0.31977
1120.6,0.31068
1114.81,0.29525
1109.03,0.29387
1103.24,0.29542
1097.46,0.28936
1091.67,0.28186
1085.88,0.26987
1080.1,0.25355
1074.31,0.23602
1068.52,0.22724
1062.74,0.24525
1056.95,0.26396
1051.17,0.27634
1045.38,0.28181
1039.59,0.27332
1033.81,0.22214
1028.02,0.19546
1022.24,0.22749
1016.45,0.25364
1010.66,0.26822
1004.88,0.26523
999.09,0.27985
993.304,0.29120
987.518,0.28409
981.731,0.27179
975.945,0.27529
970.159,0.27410
964.373,0.26311
958.586,0.27969
952.8,0.29084
947.014,0.28600
941.228,0.28429
935.441,0.29906
929.655,0.31037
923.869,0.30501
918.083,0.28544
912.297,0.24819
906.51,0.22741
900.724,0.25918
894.938,0.29918
889.152,0.31670
883.365,0.32608
877.579,0.33113
871.793,0.33302
866.007,0.33366
860.22,0.33318
854.434,0.32497
848.648,0.29886
842.862,0.27678
837.075,0.29009
831.289,0.32084
825.503,0.33046
819.717,0.32922
813.931,0.32438
808.144,0.31737
802.358,0.30829
796.572,0.29078
790.786,0.26334
784.999,0.23197
779.213,0.19854
773.427,0.16254
767.641,0.13736
761.854,0.12947
756.068,0.13684
750.282,0.15236
744.496,0.17685
738.709,0.21513
732.923,0.25376
727.137,0.27546
721.351,0.26235
715.565,0.21844
709.778,0.12731
703.992,0.07694
698.206,0.15635
692.42,0.25215
686.633,0.29847
680.847,0.31396
675.061,0.31763
669.275,0.32257
663.488,0.33106
657.702,0.34645
651.916,0.35705
646.13,0.36009
640.343,0.35270
634.557,0.33525
628.771,0.32133
622.985,0.31216
617.198,0.31582
611.412,0.32152
605.626,0.32124
599.84,0.31343