File: 01_Data/XPS_Foam_Board/FTIR/IS/XPS_Foam_Board_IS_S_220929_R8.dpt
7497.03,0.39818
7491.25,0.39653
7485.46,0.39172
7479.67,0.39659
7473.89,0.39317
7468.1,0.39110
7462.32,0.40041
7456.53,0.39669
7450.74,0.39217
7444.96,0.38781
7439.17,0.39077
7433.38,0.39010
7427.6,0.39189
7421.81,0.39081
7416.03,0.39648
7410.24,0.39626
7404.45,0.39677
7398.67,0.40647
7392.88,0.39194
7387.09,0.38765
7381.31,0.39256
7375.52,0.38493
7369.74,0.39505
7363.95,0.38452
7358.16,0.38953
7352.38,0.39509
7346.59,0.39370
7340.8,0.39757
7335.02,0.39481
7329.23,0.39013
7323.45,0.39663
7317.66,0.39337
7311.87,0.39908
7306.09,0.39067
7300.3,0.39281
7294.51,0.40275
7288.73,0.39398
7282.94,0.39025
7277.16,0.39124
7271.37,0.38399
7265.58,0.39366
7259.8,0.38541
7254.01,0.39208
7248.22,0.39141
7242.44,0.38580
7236.65,0.39087
7230.87,0.38956
7225.08,0.39069
7219.29,0.38968
7213.51,0.38913
7207.72,0.38763
7201.93,0.40160
7196.15,0.39337
7190.36,0.38956
7184.58,0.38900
7178.79,0.39612
7173,0.39158
7167.22,0.39151
7161.43,0.38935
7155.65,0.38911
7149.86,0.39073
7144.07,0.39835
7138.29,0.39478
7132.5,0.39791
7126.71,0.39141
7120.93,0.38965
7115.14,0.39691
7109.36,0.38990
7103.57,0.38895
7097.78,0.38633
7092,0.39158
7086.21,0.39069
7080.42,0.38658
7074.64,0.39012
7068.85,0.38555
7063.07,0.39245
7057.28,0.39002
7051.49,0.38799
7045.71,0.39320
7039.92,0.39176
7034.13,0.38642
7028.35,0.39292
7022.56,0.39177
7016.78,0.38904
7010.99,0.39419
7005.2,0.40218
6999.42,0.39216
6993.63,0.39209
6987.84,0.39175
6982.06,0.39519
6976.27,0.38538
6970.49,0.39627
6964.7,0.39001
6958.91,0.38830
6953.13,0.39034
6947.34,0.39670
6941.55,0.39308
6935.77,0.38869
6929.98,0.39407
6924.2,0.39500
6918.41,0.38908
6912.62,0.38963
6906.84,0.39496
6901.05,0.38878
6895.26,0.39418
6889.48,0.39266
6883.69,0.38937
6877.91,0.39025
6872.12,0.39186
6866.33,0.39461
6860.55,0.39262
6854.76,0.39143
6848.97,0.39344
6843.19,0.39140
6837.4,0.39131
6831.62,0.38980
6825.83,0.39333
6820.04,0.39082
6814.26,0.39173
6808.47,0.39395
6802.68,0.39038
6796.9,0.38710
6791.11,0.39140
6785.33,0.39172
6779.54,0.39125
6773.75,0.38850
6767.97,0.38864
6762.18,0.38893
6756.39,0.39225
6750.61,0.39332
6744.82,0.39191
6739.04,0.39419
6733.25,0.38978
6727.46,0.38859
6721.68,0.39206
6715.89,0.38823
6710.1,0.39165
6704.32,0.38952
6698.53,0.39158
6692.75,0.39090
6686.96,0.39274
6681.17,0.39372
6675.39,0.39226
6669.6,0.39256
6663.82,0.39124
6658.03,0.38977
6652.24,0.39189
6646.46,0.38927
6640.67,0.39428
6634.88,0.39390
6629.1,0.39306
6623.31,0.38942
6617.53,0.39211
6611.74,0.39528
6605.95,0.39171
6600.17,0.39341
6594.38,0.39348
6588.59,0.39188
6582.81,0.39306
6577.02,0.38761
6571.24,0.39193
6565.45,0.38599
6559.66,0.39078
6553.88,0.38939
6548.09,0.39289
6542.3,0.39133
6536.52,0.38999
6530.73,0.38986
6524.95,0.38902
6519.16,0.39283
6513.37,0.39062
6507.59,0.39258
6501.8,0.39142
6496.01,0.39141
6490.23,0.39153
6484.44,0.38908
6478.66,0.39201
6472.87,0.38874
6467.08,0.39004
6461.3,0.39012
6455.51,0.39089
6449.72,0.38894
6443.94,0.38880
6438.15,0.39239
6432.37,0.39097
6426.58,0.39057
6420.79,0.39378
6415.01,0.39259
6409.22,0.39262
6403.43,0.39032
6397.65,0.38990
6391.86,0.39413
6386.08,0.39445
6380.29,0.39084
6374.5,0.39080
6368.72,0.39151
6362.93,0.39007
6357.14,0.38651
6351.36,0.39178
6345.57,0.39203
6339.79,0.38597
6334,0.38846
6328.21,0.38920
6322.43,0.38723
6316.64,0.38980
6310.85,0.38936
6305.07,0.38871
6299.28,0.38726
6293.5,0.38856
6287.71,0.39136
6281.92,0.39176
6276.14,0.38865
6270.35,0.39020
6264.56,0.38840
6258.78,0.39003
6252.99,0.38652
6247.21,0.38856
6241.42,0.38939
6235.63,0.39006
6229.85,0.38908
6224.06,0.39088
6218.27,0.38843
6212.49,0.38820
6206.7,0.38814
6200.92,0.38819
6195.13,0.39197
6189.34,0.38645
6183.56,0.38679
6177.77,0.38707
6171.98,0.38321
6166.2,0.38493
6160.41,0.38748
6154.63,0.38489
6148.84,0.38640
6143.05,0.38196
6137.27,0.38807
6131.48,0.38463
6125.7,0.38308
6119.91,0.38503
6114.12,0.38081
6108.34,0.38296
6102.55,0.38342
6096.76,0.38378
6090.98,0.38276
6085.19,0.38137
6079.41,0.37957
6073.62,0.38219
6067.83,0.38082
6062.05,0.38215
6056.26,0.38411
6050.47,0.38508
6044.69,0.38801
6038.9,0.38579
6033.12,0.38349
6027.33,0.38136
6021.54,0.37986
6015.76,0.37774
6009.97,0.37470
6004.18,0.37287
5998.4,0.37213
5992.61,0.36927
5986.83,0.36832
5981.04,0.36339
5975.25,0.36067
5969.47,0.35863
5963.68,0.35653
5957.89,0.35890
5952.11,0.35767
5946.32,0.35655
5940.54,0.35685
5934.75,0.35840
5928.96,0.35920
5923.18,0.36492
5917.39,0.36419
5911.6,0.36530
5905.82,0.36540
5900.03,0.36403
5894.25,0.36846
5888.46,0.36790
5882.67,0.37407
5876.89,0.37438
5871.1,0.37465
5865.31,0.37550
5859.53,0.37576
5853.74,0.37628
5847.96,0.37917
5842.17,0.37885
5836.38,0.38078
5830.6,0.38093
5824.81,0.37987
5819.02,0.38216
5813.24,0.38099
5807.45,0.37794
5801.67,0.37791
5795.88,0.37758
5790.09,0.37803
5784.31,0.38039
5778.52,0.38048
5772.73,0.38020
5766.95,0.38108
5761.16,0.38462
5755.38,0.38508
5749.59,0.38433
5743.8,0.38155
5738.02,0.38248
5732.23,0.38478
5726.44,0.38636
5720.66,0.38543
5714.87,0.38367
5709.09,0.38279
5703.3,0.38370
5697.51,0.38230
5691.73,0.38359
5685.94,0.38218
5680.15,0.38108
5674.37,0.38210
5668.58,0.38048
5662.8,0.38107
5657.01,0.38215
5651.22,0.38457
5645.44,0.38404
5639.65,0.38391
5633.87,0.38353
5628.08,0.38404
5622.29,0.38391
5616.51,0.38495
5610.72,0.38545
5604.93,0.38551
5599.15,0.38389
5593.36,0.38382
5587.58,0.38492
5581.79,0.38429
5576,0.38392
5570.22,0.38330
5564.43,0.38359
5558.64,0.38525
5552.86,0.38499
5547.07,0.38450
5541.29,0.38591
5535.5,0.38500
5529.71,0.38273
5523.93,0.38394
5518.14,0.38318
5512.35,0.38524
5506.57,0.38492
5500.78,0.38503
5495,0.38637
5489.21,0.38564
5483.42,0.38606
5477.64,0.38678
5471.85,0.38595
5466.06,0.38580
5460.28,0.38613
5454.49,0.38537
5448.71,0.38485
5442.92,0.38508
5437.13,0.38570
5431.35,0.38634
5425.56,0.38577
5419.77,0.38573
5413.99,0.38516
5408.2,0.38605
5402.42,0.38643
5396.63,0.38508
5390.84,0.38633
5385.06,0.38576
5379.27,0.38621
5373.48,0.38621
5367.7,0.38579
5361.91,0.38638
5356.13,0.38589
5350.34,0.38563
5344.55,0.38726
5338.77,0.38787
5332.98,0.38734
5327.19,0.38660
5321.41,0.38679
5315.62,0.38836
5309.84,0.38690
5304.05,0.38675
5298.26,0.38643
5292.48,0.38659
5286.69,0.38722
5280.9,0.38722
5275.12,0.38794
5269.33,0.38728
5263.55,0.38719
5257.76,0.38669
5251.97,0.38712
5246.19,0.38674
5240.4,0.38656
5234.61,0.38673
5228.83,0.38678
5223.04,0.38699
5217.26,0.38613
5211.47,0.38669
5205.68,0.38735
5199.9,0.38845
5194.11,0.38658
5188.32,0.38756
5182.54,0.38770
5176.75,0.38785
5170.97,0.38683
5165.18,0.38823
5159.39,0.38688
5153.61,0.38592
5147.82,0.38804
5142.03,0.38822
5136.25,0.38749
5130.46,0.38659
5124.68,0.38778
5118.89,0.38834
5113.1,0.38652
5107.32,0.38756
5101.53,0.38780
5095.75,0.38759
5089.96,0.38849
5084.17,0.38864
5078.39,0.38761
5072.6,0.38792
5066.81,0.38823
5061.03,0.38837
5055.24,0.38866
5049.46,0.38601
5043.67,0.38767
5037.88,0.38772
5032.1,0.38785
5026.31,0.38755
5020.52,0.38765
5014.74,0.38828
5008.95,0.38798
5003.17,0.38775
4997.38,0.38742
4991.59,0.38763
4985.81,0.38801
4980.02,0.38833
4974.23,0.38808
4968.45,0.38814
4962.66,0.38829
4956.88,0.38810
4951.09,0.38796
4945.3,0.38879
4939.52,0.38838
4933.73,0.38832
4927.94,0.38750
4922.16,0.38832
4916.37,0.38803
4910.59,0.38843
4904.8,0.38758
4899.01,0.38761
4893.23,0.38762
4887.44,0.38776
4881.65,0.38902
4875.87,0.38798
4870.08,0.38784
4864.3,0.38777
4858.51,0.38858
4852.72,0.38848
4846.94,0.38812
4841.15,0.38692
4835.36,0.38738
4829.58,0.38724
4823.79,0.38773
4818.01,0.38585
4812.22,0.38785
4806.43,0.38794
4800.65,0.38736
4794.86,0.38627
4789.07,0.38737
4783.29,0.38633
4777.5,0.38688
4771.72,0.38541
4765.93,0.38737
4760.14,0.38679
4754.36,0.38656
4748.57,0.38723
4742.78,0.38621
4737,0.38649
4731.21,0.38683
4725.43,0.38571
4719.64,0.38515
4713.85,0.38389
4708.07,0.38382
4702.28,0.38237
4696.49,0.38112
4690.71,0.38008
4684.92,0.37637
4679.14,0.36966
4673.35,0.36026
4667.56,0.35267
4661.78,0.35165
4655.99,0.35576
4650.2,0.36157
4644.42,0.36469
4638.63,0.36250
4632.85,0.35746
4627.06,0.35327
4621.27,0.35326
4615.49,0.35313
4609.7,0.35052
4603.92,0.35156
4598.13,0.35766
4592.34,0.36404
4586.56,0.36810
4580.77,0.36775
4574.98,0.36209
4569.2,0.36014
4563.41,0.36669
4557.63,0.37250
4551.84,0.37457
4546.05,0.37682
4540.27,0.37849
4534.48,0.37895
4528.69,0.37944
4522.91,0.37986
4517.12,0.37973
4511.34,0.37945
4505.55,0.37824
4499.76,0.37930
4493.98,0.38185
4488.19,0.38222
4482.4,0.38224
4476.62,0.38193
4470.83,0.38286
4465.05,0.38244
4459.26,0.38244
4453.47,0.38186
4447.69,0.38062
4441.9,0.38029
4436.11,0.38091
4430.33,0.38089
4424.54,0.38101
4418.76,0.38033
4412.97,0.38006
4407.18,0.38024
4401.4,0.37855
4395.61,0.37755
4389.82,0.37553
4384.04,0.37395
4378.25,0.37350
4372.47,0.37118
4366.68,0.36921
4360.89,0.36680
4355.11,0.36436
4349.32,0.36289
4343.53,0.36151
4337.75,0.35923
4331.96,0.35999
4326.18,0.36069
4320.39,0.36375
4314.6,0.36685
4308.82,0.36944
4303.03,0.36979
4297.24,0.36908
4291.46,0.36682
4285.67,0.36451
4279.89,0.36197
4274.1,0.35941
4268.31,0.35514
4262.53,0.35135
4256.74,0.34912
4250.95,0.34664
4245.17,0.34756
4239.38,0.34952
4233.6,0.35137
4227.81,0.35136
4222.02,0.35174
4216.24,0.35096
4210.45,0.35137
4204.66,0.35208
4198.88,0.35354
4193.09,0.35626
4187.31,0.35838
4181.52,0.35828
4175.73,0.36042
4169.95,0.36096
4164.16,0.36183
4158.37,0.36254
4152.59,0.36238
4146.8,0.36277
4141.02,0.36205
4135.23,0.36082
4129.44,0.35808
4123.66,0.35670
4117.87,0.35533
4112.09,0.35449
4106.3,0.35312
4100.51,0.35146
4094.73,0.34994
4088.94,0.34622
4083.15,0.34149
4077.37,0.33460
4071.58,0.32708
4065.8,0.31784
4060.01,0.31114
4054.22,0.30895
4048.44,0.30887
4042.65,0.30747
4036.86,0.30533
4031.08,0.31258
4025.29,0.32336
4019.51,0.33586
4013.72,0.34761
4007.93,0.35221
4002.15,0.35169
3996.36,0.35312
3990.57,0.35830
3984.79,0.35967
3979,0.35998
3973.22,0.35974
3967.43,0.36097
3961.64,0.36200
3955.86,0.36250
3950.07,0.36301
3944.28,0.36268
3938.5,0.36183
3932.71,0.36250
3926.93,0.36301
3921.14,0.36297
3915.35,0.36379
3909.57,0.36396
3903.78,0.36558
3897.99,0.36425
3892.21,0.36540
3886.42,0.36630
3880.64,0.36628
3874.85,0.36671
3869.06,0.36644
3863.28,0.36671
3857.49,0.36679
3851.7,0.36780
3845.92,0.36625
3840.13,0.36575
3834.35,0.36542
3828.56,0.36406
3822.77,0.36374
3816.99,0.36263
3811.2,0.36244
3805.41,0.36323
3799.63,0.36329
3793.84,0.36399
3788.06,0.36506
3782.27,0.36674
3776.48,0.36759
3770.7,0.36689
3764.91,0.36615
3759.12,0.36707
3753.34,0.36953
3747.55,0.37039
3741.77,0.36957
3735.98,0.36939
3730.19,0.36789
3724.41,0.36587
3718.62,0.36574
3712.83,0.36759
3707.05,0.36629
3701.26,0.36414
3695.48,0.36463
3689.69,0.36746
3683.9,0.36578
3678.12,0.36506
3672.33,0.36525
3666.54,0.36419
3660.76,0.36139
3654.97,0.35637
3649.19,0.35113
3643.4,0.35067
3637.61,0.35759
3631.83,0.36251
3626.04,0.35951
3620.25,0.35584
3614.47,0.35984
3608.68,0.36527
3602.9,0.36656
3597.11,0.36675
3591.32,0.36751
3585.54,0.36770
3579.75,0.36797
3573.97,0.36763
3568.18,0.36780
3562.39,0.36704
3556.61,0.36585
3550.82,0.36577
3545.03,0.36559
3539.25,0.36494
3533.46,0.36381
3527.68,0.36375
3521.89,0.36221
3516.1,0.36234
3510.32,0.36204
3504.53,0.36143
3498.74,0.36092
3492.96,0.35938
3487.17,0.35812
3481.39,0.35753
3475.6,0.35647
3469.81,0.35637
3464.03,0.35534
3458.24,0.35540
3452.45,0.35407
3446.67,0.35406
3440.88,0.35297
3435.1,0.35462
3429.31,0.35576
3423.52,0.35654
3417.74,0.35799
3411.95,0.35760
3406.16,0.35804
3400.38,0.35764
3394.59,0.35733
3388.81,0.35761
3383.02,0.35720
3377.23,0.35814
3371.45,0.35864
3365.66,0.35918
3359.87,0.35902
3354.09,0.35954
3348.3,0.35930
3342.52,0.35874
3336.73,0.35861
3330.94,0.35837
3325.16,0.35927
3319.37,0.35867
3313.58,0.35905
3307.8,0.35929
3302.01,0.35889
3296.23,0.35872
3290.44,0.35902
3284.65,0.35796
3278.87,0.35812
3273.08,0.35736
3267.29,0.35753
3261.51,0.35696
3255.72,0.35597
3249.94,0.35589
3244.15,0.35650
3238.36,0.35649
3232.58,0.35604
3226.79,0.35543
3221,0.35466
3215.22,0.35337
3209.43,0.35113
3203.65,0.34909
3197.86,0.34790
3192.07,0.34847
3186.29,0.34786
3180.5,0.34604
3174.71,0.34425
3168.93,0.33819
3163.14,0.32938
3157.36,0.33209
3151.57,0.33617
3145.78,0.33626
3140,0.33422
3134.21,0.33177
3128.42,0.32693
3122.64,0.31967
3116.85,0.30304
3111.07,0.27264
3105.28,0.23859
3099.49,0.23574
3093.71,0.23328
3087.92,0.19729
3082.14,0.17211
3076.35,0.18857
3070.56,0.18891
3064.78,0.16582
3058.99,0.15576
3053.2,0.17868
3047.42,0.19735
3041.63,0.19283
3035.85,0.16569
3030.06,0.13250
3024.27,0.12827
3018.49,0.16764
3012.7,0.20941
3006.91,0.21854
3001.13,0.20724
2995.34,0.23477
2989.56,0.26169
2983.77,0.26653
2977.98,0.26015
2972.2,0.25297
2966.41,0.24108
2960.62,0.22307
2954.84,0.20192
2949.05,0.17926
2943.27,0.15656
2937.48,0.13691
2931.69,0.12204
2925.91,0.11644
2920.12,0.12055
2914.33,0.12981
2908.55,0.14337
2902.76,0.15955
2896.98,0.17646
2891.19,0.19046
2885.4,0.20030
2879.62,0.20998
2873.83,0.21920
2868.04,0.21912
2862.26,0.20553
2856.47,0.18480
2850.69,0.17436
2844.9,0.18735
2839.11,0.22683
2833.33,0.27187
2827.54,0.29738
2821.75,0.30769
2815.97,0.31133
2810.18,0.31302
2804.4,0.31705
2798.61,0.32213
2792.82,0.32648
2787.04,0.32853
2781.25,0.32897
2775.46,0.33147
2769.68,0.33604
2763.89,0.33903
2758.11,0.34128
2752.32,0.34238
2746.53,0.34294
2740.75,0.34245
2734.96,0.34113
2729.17,0.33906
2723.39,0.33802
2717.6,0.33741
2711.82,0.33793
2706.03,0.33866
2700.24,0.33833
2694.46,0.33751
2688.67,0.33746
2682.88,0.33783
2677.1,0.33865
2671.31,0.33814
2665.53,0.33927
2659.74,0.33975
2653.95,0.33883
2648.17,0.33914
2642.38,0.33782
2636.59,0.33399
2630.81,0.33074
2625.02,0.33663
2619.24,0.34120
2613.45,0.34135
2607.66,0.33620
2601.88,0.33324
2596.09,0.33866
2590.3,0.34260
2584.52,0.33995
2578.73,0.33946
2572.95,0.34421
2567.16,0.34532
2561.37,0.34492
2555.59,0.34490
2549.8,0.34398
2544.02,0.34350
2538.23,0.34504
2532.44,0.34617
2526.66,0.34495
2520.87,0.34423
2515.08,0.34358
2509.3,0.34330
2503.51,0.34422
2497.73,0.34581
2491.94,0.34722
2486.15,0.34830
2480.37,0.35008
2474.58,0.35202
2468.79,0.35430
2463.01,0.35569
2457.22,0.35576
2451.44,0.35559
2445.65,0.35592
2439.86,0.35653
2434.08,0.35705
2428.29,0.35858
2422.5,0.35880
2416.72,0.35895
2410.93,0.35779
2405.15,0.35685
2399.36,0.35629
2393.57,0.35551
2387.79,0.35581
2382,0.35559
2376.21,0.35548
2370.43,0.35474
2364.64,0.35251
2358.86,0.35052
2353.07,0.35054
2347.28,0.34730
2341.5,0.33958
2335.71,0.33486
2329.92,0.34606
2324.14,0.35340
2318.35,0.35077
2312.57,0.34353
2306.78,0.34776
2300.99,0.35490
2295.21,0.35500
2289.42,0.35599
2283.63,0.35819
2277.85,0.35934
2272.06,0.35930
2266.28,0.35749
2260.49,0.35576
2254.7,0.35499
2248.92,0.35604
2243.13,0.35845
2237.34,0.36028
2231.56,0.36051
2225.77,0.36106
2219.99,0.36131
2214.2,0.36110
2208.41,0.36080
2202.63,0.36249
2196.84,0.36348
2191.05,0.36212
2185.27,0.36127
2179.48,0.36274
2173.7,0.36472
2167.91,0.36574
2162.12,0.36593
2156.34,0.36595
2150.55,0.36610
2144.76,0.36579
2138.98,0.36638
2133.19,0.36710
2127.41,0.36744
2121.62,0.36768
2115.83,0.36751
2110.05,0.36788
2104.26,0.36862
2098.47,0.36895
2092.69,0.36931
2086.9,0.36920
2081.12,0.36921
2075.33,0.36878
2069.54,0.36856
2063.76,0.36835
2057.97,0.36803
2052.19,0.36790
2046.4,0.36775
2040.61,0.36734
2034.83,0.36628
2029.04,0.36533
2023.25,0.36537
2017.47,0.36472
2011.68,0.36271
2005.9,0.36127
2000.11,0.35979
1994.32,0.35595
1988.54,0.34770
1982.75,0.34382
1976.96,0.34218
1971.18,0.32985
1965.39,0.30808
1959.61,0.29212
1953.82,0.28283
1948.03,0.27064
1942.25,0.26457
1936.46,0.28060
1930.67,0.30771
1924.89,0.32651
1919.1,0.33814
1913.32,0.34447
1907.53,0.34433
1901.74,0.33696
1895.96,0.32241
1890.17,0.30467
1884.38,0.29160
1878.6,0.28502
1872.81,0.28015
1867.03,0.28302
1861.24,0.30089
1855.45,0.32475
1849.67,0.34082
1843.88,0.34751
1838.09,0.34682
1832.31,0.34020
1826.52,0.32641
1820.74,0.31067
1814.95,0.29633
1809.16,0.28368
1803.38,0.27660
1797.59,0.28498
1791.8,0.30968
1786.02,0.32979
1780.23,0.33400
1774.45,0.33134
1768.66,0.33398
1762.87,0.32675
1757.09,0.31022
1751.3,0.29385
1745.51,0.28435
1739.73,0.28577
1733.94,0.29999
1728.16,0.31463
1722.37,0.32443
1716.58,0.33260
1710.8,0.33484
1705.01,0.33450
1699.22,0.33363
1693.44,0.33034
1687.65,0.32334
1681.87,0.31580
1676.08,0.31021
1670.29,0.30670
1664.51,0.30634
1658.72,0.31331
1652.93,0.32397
1647.15,0.32839
1641.36,0.33080
1635.58,0.33008
1629.79,0.32284
1624,0.31416
1618.22,0.30162
1612.43,0.26940
1606.64,0.20374
1600.86,0.16799
1595.07,0.21469
1589.29,0.24722
1583.5,0.22877
1577.71,0.27286
1571.93,0.30859
1566.14,0.32223
1560.35,0.32438
1554.57,0.31277
1548.78,0.29641
1543,0.28752
1537.21,0.29135
1531.42,0.30427
1525.64,0.31178
1519.85,0.30961
1514.07,0.29947
1508.28,0.28344
1502.49,0.23721
1496.71,0.14986
1490.92,0.14454
1485.13,0.21851
1479.35,0.26099
1473.56,0.27064
1467.78,0.26020
1461.99,0.23099
1456.2,0.15021
1450.42,0.13644
1444.63,0.17525
1438.84,0.21022
1433.06,0.25544
1427.27,0.29077
1421.49,0.30461
1415.7,0.30908
1409.91,0.30895
1404.13,0.30668
1398.34,0.29941
1392.55,0.28070
1386.77,0.25497
1380.98,0.23735
1375.2,0.22697
1369.41,0.22661
1363.62,0.23188
1357.84,0.23879
1352.05,0.24263
1346.26,0.24618
1340.48,0.25430
1334.69,0.25093
1328.91,0.24203
1323.12,0.24768
1317.33,0.24946
1311.55,0.24609
1305.76,0.25196
1299.97,0.25892
1294.19,0.26235
1288.4,0.26435
1282.62,0.26851
1276.83,0.27807
1271.04,0.29086
1265.26,0.29976
1259.47,0.30398
1253.68,0.30224
1247.9,0.29901
1242.11,0.29938
1236.33,0.30144
1230.54,0.29906
1224.75,0.29600
1218.97,0.29325
1213.18,0.28786
1207.39,0.27887
1201.61,0.26521
1195.82,0.25565
1190.04,0.25207
1184.25,0.23901
1178.46,0.24484
1172.68,0.27007
1166.89,0.27751
1161.1,0.26837
1155.32,0.24241
1149.53,0.27113
1143.75,0.30222
1137.96,0.31554
1132.17,0.32009
1126.39,0.31988
1120.6,0.30989
1114.81,0.29487
1109.03,0.29466
1103.24,0.29556
1097.46,0.28948
1091.67,0.28126
1085.88,0.26978
1080.1,0.25374
1074.31,0.23593
1068.52,0.22720
1062.74,0.24461
1056.95,0.26369
1051.17,0.27669
1045.38,0.28164
1039.59,0.27264
1033.81,0.22236
1028.02,0.19542
1022.24,0.22744
1016.45,0.25373
1010.66,0.26803
1004.88,0.26562
999.09,0.28049
993.304,0.29114
987.518,0.28443
981.731,0.27206
975.945,0.27615
970.159,0.27463
964.373,0.26388
958.586,0.28065
952.8,0.29146
947.014,0.28664
941.228,0.28442
935.441,0.29906
929.655,0.31016
923.869,0.30480
918.083,0.28550
912.297,0.24836
906.51,0.22807
900.724,0.25940
894.938,0.30014
889.152,0.31706
883.365,0.32614
877.579,0.33140
871.793,0.33442
866.007,0.33423
860.22,0.33323
854.434,0.32385
848.648,0.29962
842.862,0.27688
837.075,0.29003
831.289,0.32078
825.503,0.32931
819.717,0.32996
813.931,0.32472
808.144,0.31789
802.358,0.30914
796.572,0.29054
790.786,0.26340
784.999,0.23317
779.213,0.19944
773.427,0.16301
767.641,0.13756
761.854,0.13003
756.068,0.13696
750.282,0.15238
744.496,0.17755
738.709,0.21534
732.923,0.25348
727.137,0.27517
721.351,0.26267
715.565,0.21939
709.778,0.12738
703.992,0.07692
698.206,0.15725
692.42,0.25145
686.633,0.29904
680.847,0.31447
675.061,0.31670
669.275,0.32053
663.488,0.33125
657.702,0.34665
651.916,0.35610
646.13,0.35926
640.343,0.35413
634.557,0.33767
628.771,0.32084
622.985,0.31254
617.198,0.31551
611.412,0.32353
605.626,0.32119
599.84,0.31424