File: 01_Data/XPS_Foam_Board/FTIR/IS/XPS_Foam_Board_IS_S_220929_R3.dpt
7497.03,0.39032
7491.25,0.40404
7485.46,0.39466
7479.67,0.38714
7473.89,0.39212
7468.1,0.38786
7462.32,0.38768
7456.53,0.39430
7450.74,0.39299
7444.96,0.38591
7439.17,0.39201
7433.38,0.39710
7427.6,0.39350
7421.81,0.39280
7416.03,0.38731
7410.24,0.38813
7404.45,0.39053
7398.67,0.38659
7392.88,0.39042
7387.09,0.38766
7381.31,0.38805
7375.52,0.38664
7369.74,0.38956
7363.95,0.39794
7358.16,0.38784
7352.38,0.39303
7346.59,0.39566
7340.8,0.39167
7335.02,0.39140
7329.23,0.39292
7323.45,0.39147
7317.66,0.39225
7311.87,0.38883
7306.09,0.39311
7300.3,0.39213
7294.51,0.39192
7288.73,0.39369
7282.94,0.39172
7277.16,0.39191
7271.37,0.38654
7265.58,0.39201
7259.8,0.39504
7254.01,0.39988
7248.22,0.39912
7242.44,0.39131
7236.65,0.40363
7230.87,0.39745
7225.08,0.39443
7219.29,0.39299
7213.51,0.38899
7207.72,0.39665
7201.93,0.38822
7196.15,0.39391
7190.36,0.38845
7184.58,0.39645
7178.79,0.39724
7173,0.39593
7167.22,0.39373
7161.43,0.39244
7155.65,0.38674
7149.86,0.39311
7144.07,0.38887
7138.29,0.39017
7132.5,0.39673
7126.71,0.39195
7120.93,0.39130
7115.14,0.39046
7109.36,0.39207
7103.57,0.39308
7097.78,0.39506
7092,0.38722
7086.21,0.38926
7080.42,0.39061
7074.64,0.38833
7068.85,0.39247
7063.07,0.39209
7057.28,0.38885
7051.49,0.38708
7045.71,0.39137
7039.92,0.38819
7034.13,0.38480
7028.35,0.38428
7022.56,0.38942
7016.78,0.38532
7010.99,0.39268
7005.2,0.39040
6999.42,0.38498
6993.63,0.38810
6987.84,0.39242
6982.06,0.39482
6976.27,0.39191
6970.49,0.39352
6964.7,0.38883
6958.91,0.39100
6953.13,0.38968
6947.34,0.38750
6941.55,0.38679
6935.77,0.39235
6929.98,0.39304
6924.2,0.38660
6918.41,0.38896
6912.62,0.39500
6906.84,0.39310
6901.05,0.39014
6895.26,0.39147
6889.48,0.39144
6883.69,0.38952
6877.91,0.38766
6872.12,0.39193
6866.33,0.39191
6860.55,0.39171
6854.76,0.39183
6848.97,0.39359
6843.19,0.39685
6837.4,0.38964
6831.62,0.39223
6825.83,0.39717
6820.04,0.39082
6814.26,0.39206
6808.47,0.39143
6802.68,0.39634
6796.9,0.38559
6791.11,0.38875
6785.33,0.38768
6779.54,0.39416
6773.75,0.39168
6767.97,0.39337
6762.18,0.38793
6756.39,0.39571
6750.61,0.39204
6744.82,0.39066
6739.04,0.38861
6733.25,0.38799
6727.46,0.38700
6721.68,0.39195
6715.89,0.39131
6710.1,0.39127
6704.32,0.39444
6698.53,0.39095
6692.75,0.39136
6686.96,0.39193
6681.17,0.39141
6675.39,0.39074
6669.6,0.38916
6663.82,0.38830
6658.03,0.38333
6652.24,0.39046
6646.46,0.38765
6640.67,0.39071
6634.88,0.38917
6629.1,0.39079
6623.31,0.39098
6617.53,0.38579
6611.74,0.38788
6605.95,0.38715
6600.17,0.39118
6594.38,0.39732
6588.59,0.38892
6582.81,0.39098
6577.02,0.39342
6571.24,0.38685
6565.45,0.39123
6559.66,0.38861
6553.88,0.38924
6548.09,0.39330
6542.3,0.39420
6536.52,0.39161
6530.73,0.38882
6524.95,0.39098
6519.16,0.38921
6513.37,0.38928
6507.59,0.39131
6501.8,0.39257
6496.01,0.39194
6490.23,0.38781
6484.44,0.39068
6478.66,0.38959
6472.87,0.39213
6467.08,0.38719
6461.3,0.38927
6455.51,0.38988
6449.72,0.39110
6443.94,0.38708
6438.15,0.38647
6432.37,0.39043
6426.58,0.38811
6420.79,0.38536
6415.01,0.39049
6409.22,0.38932
6403.43,0.39182
6397.65,0.39144
6391.86,0.38810
6386.08,0.38509
6380.29,0.39032
6374.5,0.38834
6368.72,0.38925
6362.93,0.39191
6357.14,0.38995
6351.36,0.39083
6345.57,0.39100
6339.79,0.39529
6334,0.39022
6328.21,0.39082
6322.43,0.38944
6316.64,0.38943
6310.85,0.39004
6305.07,0.38988
6299.28,0.38864
6293.5,0.39376
6287.71,0.39032
6281.92,0.39132
6276.14,0.38871
6270.35,0.38837
6264.56,0.39034
6258.78,0.38806
6252.99,0.38853
6247.21,0.39316
6241.42,0.39007
6235.63,0.38893
6229.85,0.38952
6224.06,0.38944
6218.27,0.38957
6212.49,0.38734
6206.7,0.38947
6200.92,0.38686
6195.13,0.38612
6189.34,0.38802
6183.56,0.38761
6177.77,0.38817
6171.98,0.38838
6166.2,0.38779
6160.41,0.38741
6154.63,0.38819
6148.84,0.38483
6143.05,0.38471
6137.27,0.38431
6131.48,0.38350
6125.7,0.38242
6119.91,0.38159
6114.12,0.38178
6108.34,0.38301
6102.55,0.37914
6096.76,0.37875
6090.98,0.38078
6085.19,0.38294
6079.41,0.38458
6073.62,0.38357
6067.83,0.38297
6062.05,0.38255
6056.26,0.38130
6050.47,0.38339
6044.69,0.38119
6038.9,0.38436
6033.12,0.38688
6027.33,0.37871
6021.54,0.37968
6015.76,0.38012
6009.97,0.37466
6004.18,0.37142
5998.4,0.36693
5992.61,0.36849
5986.83,0.36649
5981.04,0.36364
5975.25,0.35939
5969.47,0.36143
5963.68,0.35672
5957.89,0.35738
5952.11,0.35533
5946.32,0.35493
5940.54,0.35797
5934.75,0.36207
5928.96,0.35934
5923.18,0.36129
5917.39,0.36127
5911.6,0.36314
5905.82,0.36630
5900.03,0.36494
5894.25,0.36607
5888.46,0.36631
5882.67,0.36911
5876.89,0.36886
5871.1,0.37331
5865.31,0.37844
5859.53,0.37796
5853.74,0.37832
5847.96,0.37960
5842.17,0.37821
5836.38,0.37843
5830.6,0.37926
5824.81,0.37856
5819.02,0.38044
5813.24,0.37809
5807.45,0.37927
5801.67,0.37901
5795.88,0.37825
5790.09,0.37881
5784.31,0.38083
5778.52,0.38075
5772.73,0.38108
5766.95,0.38356
5761.16,0.38454
5755.38,0.38605
5749.59,0.38470
5743.8,0.38490
5738.02,0.38467
5732.23,0.38501
5726.44,0.38499
5720.66,0.38239
5714.87,0.38368
5709.09,0.38364
5703.3,0.38194
5697.51,0.38047
5691.73,0.37794
5685.94,0.38117
5680.15,0.38062
5674.37,0.38015
5668.58,0.37982
5662.8,0.37956
5657.01,0.38081
5651.22,0.38352
5645.44,0.38378
5639.65,0.38423
5633.87,0.38320
5628.08,0.38492
5622.29,0.38554
5616.51,0.38650
5610.72,0.38378
5604.93,0.38651
5599.15,0.38576
5593.36,0.38451
5587.58,0.38292
5581.79,0.38326
5576,0.38508
5570.22,0.38531
5564.43,0.38412
5558.64,0.38219
5552.86,0.38355
5547.07,0.38354
5541.29,0.38464
5535.5,0.38342
5529.71,0.38364
5523.93,0.38459
5518.14,0.38355
5512.35,0.38556
5506.57,0.38525
5500.78,0.38427
5495,0.38499
5489.21,0.38392
5483.42,0.38472
5477.64,0.38481
5471.85,0.38450
5466.06,0.38562
5460.28,0.38591
5454.49,0.38642
5448.71,0.38579
5442.92,0.38517
5437.13,0.38506
5431.35,0.38606
5425.56,0.38465
5419.77,0.38495
5413.99,0.38408
5408.2,0.38540
5402.42,0.38585
5396.63,0.38662
5390.84,0.38533
5385.06,0.38494
5379.27,0.38405
5373.48,0.38613
5367.7,0.38608
5361.91,0.38437
5356.13,0.38436
5350.34,0.38586
5344.55,0.38596
5338.77,0.38639
5332.98,0.38720
5327.19,0.38568
5321.41,0.38626
5315.62,0.38601
5309.84,0.38630
5304.05,0.38684
5298.26,0.38751
5292.48,0.38563
5286.69,0.38745
5280.9,0.38754
5275.12,0.38649
5269.33,0.38662
5263.55,0.38591
5257.76,0.38608
5251.97,0.38511
5246.19,0.38725
5240.4,0.38758
5234.61,0.38702
5228.83,0.38758
5223.04,0.38692
5217.26,0.38548
5211.47,0.38770
5205.68,0.38744
5199.9,0.38535
5194.11,0.38693
5188.32,0.38713
5182.54,0.38828
5176.75,0.38727
5170.97,0.38791
5165.18,0.38697
5159.39,0.38779
5153.61,0.38729
5147.82,0.38708
5142.03,0.38714
5136.25,0.38697
5130.46,0.38728
5124.68,0.38729
5118.89,0.38810
5113.1,0.38717
5107.32,0.38642
5101.53,0.38660
5095.75,0.38799
5089.96,0.38681
5084.17,0.38632
5078.39,0.38663
5072.6,0.38731
5066.81,0.38821
5061.03,0.38737
5055.24,0.38786
5049.46,0.38788
5043.67,0.38704
5037.88,0.38692
5032.1,0.38724
5026.31,0.38765
5020.52,0.38825
5014.74,0.38791
5008.95,0.38654
5003.17,0.38793
4997.38,0.38756
4991.59,0.38843
4985.81,0.38805
4980.02,0.38714
4974.23,0.38733
4968.45,0.38744
4962.66,0.38798
4956.88,0.38792
4951.09,0.38796
4945.3,0.38705
4939.52,0.38693
4933.73,0.38892
4927.94,0.38770
4922.16,0.38657
4916.37,0.38720
4910.59,0.38718
4904.8,0.38815
4899.01,0.38767
4893.23,0.38676
4887.44,0.38807
4881.65,0.38802
4875.87,0.38722
4870.08,0.38754
4864.3,0.38757
4858.51,0.38750
4852.72,0.38810
4846.94,0.38716
4841.15,0.38788
4835.36,0.38608
4829.58,0.38723
4823.79,0.38824
4818.01,0.38734
4812.22,0.38758
4806.43,0.38707
4800.65,0.38755
4794.86,0.38741
4789.07,0.38666
4783.29,0.38824
4777.5,0.38668
4771.72,0.38686
4765.93,0.38570
4760.14,0.38582
4754.36,0.38622
4748.57,0.38590
4742.78,0.38675
4737,0.38643
4731.21,0.38594
4725.43,0.38565
4719.64,0.38474
4713.85,0.38359
4708.07,0.38181
4702.28,0.38158
4696.49,0.38048
4690.71,0.37922
4684.92,0.37544
4679.14,0.36902
4673.35,0.35974
4667.56,0.35227
4661.78,0.35150
4655.99,0.35583
4650.2,0.36144
4644.42,0.36403
4638.63,0.36247
4632.85,0.35741
4627.06,0.35234
4621.27,0.35148
4615.49,0.35277
4609.7,0.35058
4603.92,0.35068
4598.13,0.35790
4592.34,0.36411
4586.56,0.36792
4580.77,0.36695
4574.98,0.36095
4569.2,0.36027
4563.41,0.36736
4557.63,0.37237
4551.84,0.37512
4546.05,0.37800
4540.27,0.37912
4534.48,0.37816
4528.69,0.37787
4522.91,0.37949
4517.12,0.37879
4511.34,0.37918
4505.55,0.37875
4499.76,0.38020
4493.98,0.38101
4488.19,0.38103
4482.4,0.38087
4476.62,0.38225
4470.83,0.38169
4465.05,0.38296
4459.26,0.38211
4453.47,0.38245
4447.69,0.38030
4441.9,0.38039
4436.11,0.38014
4430.33,0.38100
4424.54,0.38041
4418.76,0.38040
4412.97,0.37975
4407.18,0.37935
4401.4,0.37801
4395.61,0.37729
4389.82,0.37546
4384.04,0.37414
4378.25,0.37216
4372.47,0.36991
4366.68,0.36832
4360.89,0.36634
4355.11,0.36326
4349.32,0.36242
4343.53,0.36077
4337.75,0.36020
4331.96,0.35978
4326.18,0.36082
4320.39,0.36348
4314.6,0.36657
4308.82,0.36993
4303.03,0.37001
4297.24,0.36834
4291.46,0.36727
4285.67,0.36473
4279.89,0.36222
4274.1,0.35966
4268.31,0.35577
4262.53,0.35220
4256.74,0.34911
4250.95,0.34784
4245.17,0.34765
4239.38,0.34910
4233.6,0.34950
4227.81,0.35066
4222.02,0.35114
4216.24,0.35098
4210.45,0.35129
4204.66,0.35243
4198.88,0.35343
4193.09,0.35577
4187.31,0.35731
4181.52,0.35808
4175.73,0.35972
4169.95,0.36212
4164.16,0.36193
4158.37,0.36198
4152.59,0.36202
4146.8,0.36150
4141.02,0.36152
4135.23,0.36030
4129.44,0.35820
4123.66,0.35595
4117.87,0.35512
4112.09,0.35361
4106.3,0.35170
4100.51,0.35066
4094.73,0.34937
4088.94,0.34518
4083.15,0.34104
4077.37,0.33439
4071.58,0.32748
4065.8,0.31765
4060.01,0.31095
4054.22,0.30847
4048.44,0.30910
4042.65,0.30889
4036.86,0.30511
4031.08,0.31274
4025.29,0.32351
4019.51,0.33598
4013.72,0.34729
4007.93,0.35190
4002.15,0.35184
3996.36,0.35299
3990.57,0.35817
3984.79,0.36050
3979,0.35943
3973.22,0.36015
3967.43,0.36106
3961.64,0.36202
3955.86,0.36244
3950.07,0.36291
3944.28,0.36259
3938.5,0.36163
3932.71,0.36225
3926.93,0.36202
3921.14,0.36383
3915.35,0.36431
3909.57,0.36455
3903.78,0.36492
3897.99,0.36409
3892.21,0.36497
3886.42,0.36570
3880.64,0.36679
3874.85,0.36610
3869.06,0.36617
3863.28,0.36536
3857.49,0.36616
3851.7,0.36714
3845.92,0.36576
3840.13,0.36580
3834.35,0.36455
3828.56,0.36372
3822.77,0.36323
3816.99,0.36284
3811.2,0.36176
3805.41,0.36278
3799.63,0.36283
3793.84,0.36372
3788.06,0.36524
3782.27,0.36678
3776.48,0.36641
3770.7,0.36673
3764.91,0.36652
3759.12,0.36688
3753.34,0.36827
3747.55,0.36973
3741.77,0.36904
3735.98,0.36873
3730.19,0.36787
3724.41,0.36587
3718.62,0.36513
3712.83,0.36714
3707.05,0.36578
3701.26,0.36326
3695.48,0.36465
3689.69,0.36689
3683.9,0.36507
3678.12,0.36384
3672.33,0.36456
3666.54,0.36412
3660.76,0.36186
3654.97,0.35582
3649.19,0.35049
3643.4,0.35009
3637.61,0.35763
3631.83,0.36255
3626.04,0.35964
3620.25,0.35602
3614.47,0.35964
3608.68,0.36552
3602.9,0.36653
3597.11,0.36663
3591.32,0.36699
3585.54,0.36736
3579.75,0.36717
3573.97,0.36663
3568.18,0.36740
3562.39,0.36651
3556.61,0.36616
3550.82,0.36582
3545.03,0.36510
3539.25,0.36431
3533.46,0.36359
3527.68,0.36319
3521.89,0.36251
3516.1,0.36194
3510.32,0.36112
3504.53,0.36092
3498.74,0.36029
3492.96,0.35880
3487.17,0.35804
3481.39,0.35747
3475.6,0.35649
3469.81,0.35554
3464.03,0.35517
3458.24,0.35438
3452.45,0.35464
3446.67,0.35394
3440.88,0.35270
3435.1,0.35378
3429.31,0.35542
3423.52,0.35608
3417.74,0.35730
3411.95,0.35694
3406.16,0.35688
3400.38,0.35769
3394.59,0.35783
3388.81,0.35797
3383.02,0.35750
3377.23,0.35820
3371.45,0.35875
3365.66,0.35917
3359.87,0.35917
3354.09,0.35869
3348.3,0.35884
3342.52,0.35837
3336.73,0.35847
3330.94,0.35807
3325.16,0.35849
3319.37,0.35898
3313.58,0.35844
3307.8,0.35886
3302.01,0.35816
3296.23,0.35876
3290.44,0.35858
3284.65,0.35776
3278.87,0.35788
3273.08,0.35807
3267.29,0.35712
3261.51,0.35661
3255.72,0.35652
3249.94,0.35678
3244.15,0.35607
3238.36,0.35626
3232.58,0.35585
3226.79,0.35521
3221,0.35342
3215.22,0.35286
3209.43,0.35101
3203.65,0.34889
3197.86,0.34743
3192.07,0.34751
3186.29,0.34672
3180.5,0.34548
3174.71,0.34369
3168.93,0.33826
3163.14,0.32901
3157.36,0.33190
3151.57,0.33612
3145.78,0.33626
3140,0.33437
3134.21,0.33158
3128.42,0.32717
3122.64,0.31918
3116.85,0.30313
3111.07,0.27173
3105.28,0.23904
3099.49,0.23572
3093.71,0.23292
3087.92,0.19706
3082.14,0.17196
3076.35,0.18881
3070.56,0.18943
3064.78,0.16566
3058.99,0.15585
3053.2,0.17795
3047.42,0.19712
3041.63,0.19314
3035.85,0.16579
3030.06,0.13242
3024.27,0.12803
3018.49,0.16805
3012.7,0.20908
3006.91,0.21793
3001.13,0.20736
2995.34,0.23429
2989.56,0.26168
2983.77,0.26687
2977.98,0.26024
2972.2,0.25285
2966.41,0.24086
2960.62,0.22269
2954.84,0.20225
2949.05,0.17974
2943.27,0.15671
2937.48,0.13649
2931.69,0.12180
2925.91,0.11647
2920.12,0.11994
2914.33,0.13016
2908.55,0.14381
2902.76,0.15943
2896.98,0.17624
2891.19,0.19025
2885.4,0.20102
2879.62,0.21063
2873.83,0.21921
2868.04,0.21953
2862.26,0.20582
2856.47,0.18526
2850.69,0.17424
2844.9,0.18732
2839.11,0.22623
2833.33,0.27202
2827.54,0.29682
2821.75,0.30722
2815.97,0.31103
2810.18,0.31292
2804.4,0.31669
2798.61,0.32199
2792.82,0.32626
2787.04,0.32851
2781.25,0.32897
2775.46,0.33122
2769.68,0.33601
2763.89,0.33918
2758.11,0.34119
2752.32,0.34193
2746.53,0.34321
2740.75,0.34203
2734.96,0.34095
2729.17,0.33894
2723.39,0.33782
2717.6,0.33761
2711.82,0.33771
2706.03,0.33855
2700.24,0.33828
2694.46,0.33737
2688.67,0.33767
2682.88,0.33737
2677.1,0.33797
2671.31,0.33800
2665.53,0.33942
2659.74,0.33922
2653.95,0.33853
2648.17,0.33803
2642.38,0.33808
2636.59,0.33435
2630.81,0.33085
2625.02,0.33675
2619.24,0.34062
2613.45,0.34079
2607.66,0.33640
2601.88,0.33321
2596.09,0.33854
2590.3,0.34247
2584.52,0.33994
2578.73,0.33897
2572.95,0.34356
2567.16,0.34484
2561.37,0.34485
2555.59,0.34439
2549.8,0.34393
2544.02,0.34380
2538.23,0.34510
2532.44,0.34590
2526.66,0.34514
2520.87,0.34437
2515.08,0.34378
2509.3,0.34330
2503.51,0.34436
2497.73,0.34594
2491.94,0.34693
2486.15,0.34800
2480.37,0.34911
2474.58,0.35209
2468.79,0.35405
2463.01,0.35554
2457.22,0.35580
2451.44,0.35563
2445.65,0.35631
2439.86,0.35675
2434.08,0.35731
2428.29,0.35817
2422.5,0.35912
2416.72,0.35895
2410.93,0.35854
2405.15,0.35717
2399.36,0.35608
2393.57,0.35615
2387.79,0.35548
2382,0.35498
2376.21,0.35516
2370.43,0.35418
2364.64,0.35148
2358.86,0.34960
2353.07,0.34990
2347.28,0.34705
2341.5,0.33870
2335.71,0.33422
2329.92,0.34558
2324.14,0.35295
2318.35,0.35014
2312.57,0.34350
2306.78,0.34761
2300.99,0.35432
2295.21,0.35493
2289.42,0.35572
2283.63,0.35820
2277.85,0.35933
2272.06,0.35872
2266.28,0.35747
2260.49,0.35590
2254.7,0.35494
2248.92,0.35597
2243.13,0.35829
2237.34,0.36007
2231.56,0.36046
2225.77,0.36121
2219.99,0.36139
2214.2,0.36112
2208.41,0.36058
2202.63,0.36237
2196.84,0.36319
2191.05,0.36246
2185.27,0.36148
2179.48,0.36248
2173.7,0.36444
2167.91,0.36534
2162.12,0.36564
2156.34,0.36551
2150.55,0.36552
2144.76,0.36565
2138.98,0.36651
2133.19,0.36707
2127.41,0.36763
2121.62,0.36730
2115.83,0.36756
2110.05,0.36755
2104.26,0.36811
2098.47,0.36847
2092.69,0.36920
2086.9,0.36917
2081.12,0.36897
2075.33,0.36854
2069.54,0.36817
2063.76,0.36821
2057.97,0.36788
2052.19,0.36799
2046.4,0.36787
2040.61,0.36715
2034.83,0.36584
2029.04,0.36519
2023.25,0.36524
2017.47,0.36436
2011.68,0.36261
2005.9,0.36112
2000.11,0.35994
1994.32,0.35541
1988.54,0.34724
1982.75,0.34381
1976.96,0.34208
1971.18,0.32993
1965.39,0.30804
1959.61,0.29201
1953.82,0.28311
1948.03,0.27092
1942.25,0.26462
1936.46,0.28020
1930.67,0.30790
1924.89,0.32672
1919.1,0.33842
1913.32,0.34474
1907.53,0.34428
1901.74,0.33709
1895.96,0.32233
1890.17,0.30481
1884.38,0.29142
1878.6,0.28531
1872.81,0.28012
1867.03,0.28287
1861.24,0.30092
1855.45,0.32478
1849.67,0.34066
1843.88,0.34750
1838.09,0.34668
1832.31,0.34016
1826.52,0.32622
1820.74,0.31048
1814.95,0.29642
1809.16,0.28413
1803.38,0.27653
1797.59,0.28447
1791.8,0.30925
1786.02,0.32963
1780.23,0.33382
1774.45,0.33186
1768.66,0.33373
1762.87,0.32641
1757.09,0.31019
1751.3,0.29369
1745.51,0.28433
1739.73,0.28598
1733.94,0.30006
1728.16,0.31479
1722.37,0.32440
1716.58,0.33228
1710.8,0.33476
1705.01,0.33405
1699.22,0.33321
1693.44,0.32994
1687.65,0.32299
1681.87,0.31527
1676.08,0.30963
1670.29,0.30605
1664.51,0.30615
1658.72,0.31302
1652.93,0.32321
1647.15,0.32843
1641.36,0.33063
1635.58,0.32990
1629.79,0.32291
1624,0.31380
1618.22,0.30118
1612.43,0.26914
1606.64,0.20364
1600.86,0.16813
1595.07,0.21446
1589.29,0.24736
1583.5,0.22879
1577.71,0.27211
1571.93,0.30766
1566.14,0.32184
1560.35,0.32425
1554.57,0.31285
1548.78,0.29652
1543,0.28723
1537.21,0.29093
1531.42,0.30424
1525.64,0.31165
1519.85,0.30945
1514.07,0.29932
1508.28,0.28323
1502.49,0.23726
1496.71,0.14962
1490.92,0.14457
1485.13,0.21849
1479.35,0.26100
1473.56,0.27021
1467.78,0.26049
1461.99,0.23072
1456.2,0.14987
1450.42,0.13633
1444.63,0.17499
1438.84,0.20962
1433.06,0.25575
1427.27,0.29041
1421.49,0.30440
1415.7,0.30853
1409.91,0.30937
1404.13,0.30651
1398.34,0.29880
1392.55,0.28023
1386.77,0.25468
1380.98,0.23716
1375.2,0.22654
1369.41,0.22700
1363.62,0.23188
1357.84,0.23863
1352.05,0.24269
1346.26,0.24627
1340.48,0.25413
1334.69,0.25090
1328.91,0.24196
1323.12,0.24745
1317.33,0.24939
1311.55,0.24616
1305.76,0.25193
1299.97,0.25890
1294.19,0.26195
1288.4,0.26427
1282.62,0.26825
1276.83,0.27831
1271.04,0.29119
1265.26,0.29936
1259.47,0.30373
1253.68,0.30219
1247.9,0.29869
1242.11,0.29912
1236.33,0.30103
1230.54,0.29882
1224.75,0.29504
1218.97,0.29314
1213.18,0.28819
1207.39,0.27893
1201.61,0.26466
1195.82,0.25527
1190.04,0.25176
1184.25,0.23973
1178.46,0.24410
1172.68,0.26924
1166.89,0.27771
1161.1,0.26878
1155.32,0.24267
1149.53,0.27134
1143.75,0.30195
1137.96,0.31584
1132.17,0.32023
1126.39,0.31970
1120.6,0.31032
1114.81,0.29513
1109.03,0.29447
1103.24,0.29567
1097.46,0.28904
1091.67,0.28153
1085.88,0.26937
1080.1,0.25313
1074.31,0.23624
1068.52,0.22788
1062.74,0.24441
1056.95,0.26435
1051.17,0.27623
1045.38,0.28257
1039.59,0.27298
1033.81,0.22280
1028.02,0.19583
1022.24,0.22751
1016.45,0.25367
1010.66,0.26817
1004.88,0.26490
999.09,0.28047
993.304,0.29107
987.518,0.28405
981.731,0.27210
975.945,0.27566
970.159,0.27392
964.373,0.26376
958.586,0.28045
952.8,0.29177
947.014,0.28655
941.228,0.28455
935.441,0.29910
929.655,0.31030
923.869,0.30446
918.083,0.28564
912.297,0.24823
906.51,0.22786
900.724,0.25895
894.938,0.29915
889.152,0.31606
883.365,0.32583
877.579,0.33118
871.793,0.33390
866.007,0.33499
860.22,0.33255
854.434,0.32479
848.648,0.29974
842.862,0.27564
837.075,0.29023
831.289,0.32057
825.503,0.32985
819.717,0.32996
813.931,0.32496
808.144,0.31780
802.358,0.30867
796.572,0.29091
790.786,0.26463
784.999,0.23317
779.213,0.19985
773.427,0.16222
767.641,0.13774
761.854,0.12943
756.068,0.13722
750.282,0.15190
744.496,0.17707
738.709,0.21506
732.923,0.25351
727.137,0.27469
721.351,0.26338
715.565,0.21941
709.778,0.12634
703.992,0.07708
698.206,0.15698
692.42,0.25172
686.633,0.29927
680.847,0.31438
675.061,0.31819
669.275,0.32148
663.488,0.32993
657.702,0.34609
651.916,0.35684
646.13,0.35852
640.343,0.35393
634.557,0.33647
628.771,0.32138
622.985,0.31169
617.198,0.31402
611.412,0.32072
605.626,0.32123
599.84,0.31406