File: 01_Data/Vinyl_Plank_Flooring/FTIR/IS/Vinyl_Plank_Flooring_IS_S_220819_R7.dpt
7497.03,0.50649
7491.25,0.50548
7485.46,0.50433
7479.67,0.49595
7473.89,0.49726
7468.1,0.49646
7462.32,0.49728
7456.53,0.50395
7450.74,0.49870
7444.96,0.50335
7439.17,0.49230
7433.38,0.49887
7427.6,0.48936
7421.81,0.49575
7416.03,0.49436
7410.24,0.49858
7404.45,0.49705
7398.67,0.48111
7392.88,0.48475
7387.09,0.49047
7381.31,0.48379
7375.52,0.47937
7369.74,0.46999
7363.95,0.46714
7358.16,0.47850
7352.38,0.48348
7346.59,0.47444
7340.8,0.46433
7335.02,0.46422
7329.23,0.46402
7323.45,0.46415
7317.66,0.46230
7311.87,0.46414
7306.09,0.46180
7300.3,0.45709
7294.51,0.44666
7288.73,0.44869
7282.94,0.44161
7277.16,0.44120
7271.37,0.43768
7265.58,0.43151
7259.8,0.43427
7254.01,0.43322
7248.22,0.43039
7242.44,0.43314
7236.65,0.42607
7230.87,0.41688
7225.08,0.42109
7219.29,0.42493
7213.51,0.42406
7207.72,0.41570
7201.93,0.41563
7196.15,0.41887
7190.36,0.42145
7184.58,0.40892
7178.79,0.41028
7173,0.41807
7167.22,0.41736
7161.43,0.41467
7155.65,0.41785
7149.86,0.42428
7144.07,0.41794
7138.29,0.41501
7132.5,0.41363
7126.71,0.41976
7120.93,0.41731
7115.14,0.41674
7109.36,0.41458
7103.57,0.41289
7097.78,0.41266
7092,0.41719
7086.21,0.41294
7080.42,0.41200
7074.64,0.41029
7068.85,0.41072
7063.07,0.41746
7057.28,0.41460
7051.49,0.41491
7045.71,0.42047
7039.92,0.41717
7034.13,0.41459
7028.35,0.41746
7022.56,0.41938
7016.78,0.42108
7010.99,0.41969
7005.2,0.41600
6999.42,0.41993
6993.63,0.42066
6987.84,0.41530
6982.06,0.41883
6976.27,0.43055
6970.49,0.42844
6964.7,0.43422
6958.91,0.43385
6953.13,0.43049
6947.34,0.43214
6941.55,0.44105
6935.77,0.43795
6929.98,0.43795
6924.2,0.43848
6918.41,0.44721
6912.62,0.44747
6906.84,0.44374
6901.05,0.44581
6895.26,0.44548
6889.48,0.45074
6883.69,0.45069
6877.91,0.45112
6872.12,0.45186
6866.33,0.45545
6860.55,0.45253
6854.76,0.44959
6848.97,0.45556
6843.19,0.45442
6837.4,0.45359
6831.62,0.45162
6825.83,0.45896
6820.04,0.45928
6814.26,0.46188
6808.47,0.45097
6802.68,0.46141
6796.9,0.46022
6791.11,0.46058
6785.33,0.46158
6779.54,0.45888
6773.75,0.46390
6767.97,0.46394
6762.18,0.46241
6756.39,0.46506
6750.61,0.46568
6744.82,0.46493
6739.04,0.46491
6733.25,0.46812
6727.46,0.47231
6721.68,0.46950
6715.89,0.46848
6710.1,0.46838
6704.32,0.46990
6698.53,0.47295
6692.75,0.47064
6686.96,0.47500
6681.17,0.47344
6675.39,0.47022
6669.6,0.47237
6663.82,0.47385
6658.03,0.47485
6652.24,0.47885
6646.46,0.47568
6640.67,0.47689
6634.88,0.47528
6629.1,0.47590
6623.31,0.47798
6617.53,0.47774
6611.74,0.47409
6605.95,0.47655
6600.17,0.47450
6594.38,0.47755
6588.59,0.47601
6582.81,0.47814
6577.02,0.47543
6571.24,0.48149
6565.45,0.48162
6559.66,0.48067
6553.88,0.47857
6548.09,0.47740
6542.3,0.48319
6536.52,0.48299
6530.73,0.48016
6524.95,0.48273
6519.16,0.48023
6513.37,0.48037
6507.59,0.48252
6501.8,0.48316
6496.01,0.48718
6490.23,0.48675
6484.44,0.48917
6478.66,0.48628
6472.87,0.48364
6467.08,0.48720
6461.3,0.49052
6455.51,0.48821
6449.72,0.49125
6443.94,0.48884
6438.15,0.48764
6432.37,0.48607
6426.58,0.48786
6420.79,0.48297
6415.01,0.49210
6409.22,0.49187
6403.43,0.48986
6397.65,0.49301
6391.86,0.48736
6386.08,0.48853
6380.29,0.48734
6374.5,0.48447
6368.72,0.48947
6362.93,0.48904
6357.14,0.48790
6351.36,0.48624
6345.57,0.49005
6339.79,0.48846
6334,0.48956
6328.21,0.48962
6322.43,0.48406
6316.64,0.48807
6310.85,0.48967
6305.07,0.49057
6299.28,0.49018
6293.5,0.49240
6287.71,0.49260
6281.92,0.49119
6276.14,0.48775
6270.35,0.48790
6264.56,0.48996
6258.78,0.48847
6252.99,0.49271
6247.21,0.48676
6241.42,0.48833
6235.63,0.48869
6229.85,0.48885
6224.06,0.48775
6218.27,0.48646
6212.49,0.48909
6206.7,0.48499
6200.92,0.48271
6195.13,0.47783
6189.34,0.47490
6183.56,0.47948
6177.77,0.47861
6171.98,0.47969
6166.2,0.47758
6160.41,0.47575
6154.63,0.47538
6148.84,0.47497
6143.05,0.47214
6137.27,0.46769
6131.48,0.46376
6125.7,0.46477
6119.91,0.46589
6114.12,0.46263
6108.34,0.45841
6102.55,0.44845
6096.76,0.44016
6090.98,0.43112
6085.19,0.41739
6079.41,0.41173
6073.62,0.40431
6067.83,0.39779
6062.05,0.38531
6056.26,0.36996
6050.47,0.36182
6044.69,0.35269
6038.9,0.34677
6033.12,0.33996
6027.33,0.33104
6021.54,0.32037
6015.76,0.31808
6009.97,0.32105
6004.18,0.32864
5998.4,0.34256
5992.61,0.35548
5986.83,0.36151
5981.04,0.36882
5975.25,0.37339
5969.47,0.37413
5963.68,0.37672
5957.89,0.37319
5952.11,0.36171
5946.32,0.34933
5940.54,0.33394
5934.75,0.32417
5928.96,0.31240
5923.18,0.30208
5917.39,0.29196
5911.6,0.28169
5905.82,0.27269
5900.03,0.26294
5894.25,0.25211
5888.46,0.24164
5882.67,0.22926
5876.89,0.22254
5871.1,0.21420
5865.31,0.20665
5859.53,0.19616
5853.74,0.18884
5847.96,0.17957
5842.17,0.17221
5836.38,0.16376
5830.6,0.15491
5824.81,0.15509
5819.02,0.16000
5813.24,0.16741
5807.45,0.17805
5801.67,0.18854
5795.88,0.19846
5790.09,0.20851
5784.31,0.21703
5778.52,0.22332
5772.73,0.22824
5766.95,0.23127
5761.16,0.23249
5755.38,0.23197
5749.59,0.22780
5743.8,0.22483
5738.02,0.22296
5732.23,0.22236
5726.44,0.22483
5720.66,0.22590
5714.87,0.22521
5709.09,0.22377
5703.3,0.22431
5697.51,0.22644
5691.73,0.22992
5685.94,0.23586
5680.15,0.24263
5674.37,0.24741
5668.58,0.25311
5662.8,0.25669
5657.01,0.25783
5651.22,0.25913
5645.44,0.26331
5639.65,0.26631
5633.87,0.27145
5628.08,0.27642
5622.29,0.27853
5616.51,0.28230
5610.72,0.28366
5604.93,0.28505
5599.15,0.28928
5593.36,0.29047
5587.58,0.29336
5581.79,0.29721
5576,0.29825
5570.22,0.30103
5564.43,0.30323
5558.64,0.30342
5552.86,0.30824
5547.07,0.30904
5541.29,0.30975
5535.5,0.31088
5529.71,0.31168
5523.93,0.31202
5518.14,0.31349
5512.35,0.31195
5506.57,0.31321
5500.78,0.31141
5495,0.31439
5489.21,0.31201
5483.42,0.31222
5477.64,0.31173
5471.85,0.30992
5466.06,0.31080
5460.28,0.30966
5454.49,0.31526
5448.71,0.31831
5442.92,0.32257
5437.13,0.32550
5431.35,0.32767
5425.56,0.33009
5419.77,0.33371
5413.99,0.33522
5408.2,0.33660
5402.42,0.33606
5396.63,0.33677
5390.84,0.33799
5385.06,0.34029
5379.27,0.34288
5373.48,0.34333
5367.7,0.34577
5361.91,0.34848
5356.13,0.34916
5350.34,0.35142
5344.55,0.35253
5338.77,0.35247
5332.98,0.35371
5327.19,0.35460
5321.41,0.35562
5315.62,0.35629
5309.84,0.35756
5304.05,0.35791
5298.26,0.35818
5292.48,0.35804
5286.69,0.35703
5280.9,0.35335
5275.12,0.35255
5269.33,0.34834
5263.55,0.34505
5257.76,0.34511
5251.97,0.34430
5246.19,0.34598
5240.4,0.34840
5234.61,0.34914
5228.83,0.35193
5223.04,0.34894
5217.26,0.35108
5211.47,0.34916
5205.68,0.35060
5199.9,0.35119
5194.11,0.34995
5188.32,0.34923
5182.54,0.34849
5176.75,0.34668
5170.97,0.34760
5165.18,0.34923
5159.39,0.34816
5153.61,0.34779
5147.82,0.34754
5142.03,0.34672
5136.25,0.34529
5130.46,0.34473
5124.68,0.34403
5118.89,0.34442
5113.1,0.34397
5107.32,0.34511
5101.53,0.34402
5095.75,0.34418
5089.96,0.34494
5084.17,0.34607
5078.39,0.34809
5072.6,0.34967
5066.81,0.35155
5061.03,0.35259
5055.24,0.35326
5049.46,0.35434
5043.67,0.35454
5037.88,0.35533
5032.1,0.35442
5026.31,0.35345
5020.52,0.35505
5014.74,0.35325
5008.95,0.35398
5003.17,0.35265
4997.38,0.35370
4991.59,0.35299
4985.81,0.35335
4980.02,0.35447
4974.23,0.35376
4968.45,0.35503
4962.66,0.35507
4956.88,0.35553
4951.09,0.35520
4945.3,0.35401
4939.52,0.35308
4933.73,0.35290
4927.94,0.35327
4922.16,0.35299
4916.37,0.35387
4910.59,0.35273
4904.8,0.35169
4899.01,0.35244
4893.23,0.35251
4887.44,0.35238
4881.65,0.35230
4875.87,0.35243
4870.08,0.35311
4864.3,0.35318
4858.51,0.35315
4852.72,0.35401
4846.94,0.35425
4841.15,0.35438
4835.36,0.35314
4829.58,0.35281
4823.79,0.35078
4818.01,0.35064
4812.22,0.35015
4806.43,0.34866
4800.65,0.34722
4794.86,0.34588
4789.07,0.34491
4783.29,0.34399
4777.5,0.34427
4771.72,0.34656
4765.93,0.34876
4760.14,0.34897
4754.36,0.34796
4748.57,0.34624
4742.78,0.34241
4737,0.33808
4731.21,0.33350
4725.43,0.32210
4719.64,0.30920
4713.85,0.30292
4708.07,0.30112
4702.28,0.29268
4696.49,0.27909
4690.71,0.26537
4684.92,0.25816
4679.14,0.26216
4673.35,0.27210
4667.56,0.27953
4661.78,0.28256
4655.99,0.28403
4650.2,0.28368
4644.42,0.27823
4638.63,0.26681
4632.85,0.25667
4627.06,0.26050
4621.27,0.27609
4615.49,0.28996
4609.7,0.29833
4603.92,0.30200
4598.13,0.30374
4592.34,0.29917
4586.56,0.29501
4580.77,0.29537
4574.98,0.29183
4569.2,0.29595
4563.41,0.30580
4557.63,0.30962
4551.84,0.30927
4546.05,0.30704
4540.27,0.30536
4534.48,0.30327
4528.69,0.29976
4522.91,0.29660
4517.12,0.29249
4511.34,0.28544
4505.55,0.27975
4499.76,0.27087
4493.98,0.25868
4488.19,0.24798
4482.4,0.24141
4476.62,0.23634
4470.83,0.23117
4465.05,0.22467
4459.26,0.21428
4453.47,0.20174
4447.69,0.18736
4441.9,0.17339
4436.11,0.15924
4430.33,0.14479
4424.54,0.13240
4418.76,0.12160
4412.97,0.11274
4407.18,0.10536
4401.4,0.10023
4395.61,0.09770
4389.82,0.09727
4384.04,0.09293
4378.25,0.08637
4372.47,0.08010
4366.68,0.07454
4360.89,0.07036
4355.11,0.06615
4349.32,0.06325
4343.53,0.06130
4337.75,0.05913
4331.96,0.05950
4326.18,0.06059
4320.39,0.06346
4314.6,0.06648
4308.82,0.06926
4303.03,0.07100
4297.24,0.07169
4291.46,0.07139
4285.67,0.07120
4279.89,0.07079
4274.1,0.07218
4268.31,0.07276
4262.53,0.07289
4256.74,0.07344
4250.95,0.07288
4245.17,0.07264
4239.38,0.07186
4233.6,0.07190
4227.81,0.07112
4222.02,0.07039
4216.24,0.07021
4210.45,0.06968
4204.66,0.07162
4198.88,0.07294
4193.09,0.07445
4187.31,0.07558
4181.52,0.07507
4175.73,0.07407
4169.95,0.07297
4164.16,0.07494
4158.37,0.07748
4152.59,0.08061
4146.8,0.08315
4141.02,0.08597
4135.23,0.08863
4129.44,0.09117
4123.66,0.09123
4117.87,0.08998
4112.09,0.08840
4106.3,0.08634
4100.51,0.08411
4094.73,0.08140
4088.94,0.07530
4083.15,0.07297
4077.37,0.07488
4071.58,0.08036
4065.8,0.08435
4060.01,0.08916
4054.22,0.09209
4048.44,0.09447
4042.65,0.09543
4036.86,0.09605
4031.08,0.09721
4025.29,0.09668
4019.51,0.09731
4013.72,0.09901
4007.93,0.10000
4002.15,0.10326
3996.36,0.10553
3990.57,0.10869
3984.79,0.11179
3979,0.11484
3973.22,0.11621
3967.43,0.11793
3961.64,0.11843
3955.86,0.11829
3950.07,0.11851
3944.28,0.11823
3938.5,0.11883
3932.71,0.11930
3926.93,0.12040
3921.14,0.12080
3915.35,0.12253
3909.57,0.12377
3903.78,0.12564
3897.99,0.12761
3892.21,0.12935
3886.42,0.13042
3880.64,0.13186
3874.85,0.13251
3869.06,0.13311
3863.28,0.13264
3857.49,0.13349
3851.7,0.13416
3845.92,0.13488
3840.13,0.13596
3834.35,0.13713
3828.56,0.13836
3822.77,0.14050
3816.99,0.14265
3811.2,0.14392
3805.41,0.14402
3799.63,0.14612
3793.84,0.14935
3788.06,0.15164
3782.27,0.15303
3776.48,0.15434
3770.7,0.15365
3764.91,0.15252
3759.12,0.15128
3753.34,0.15217
3747.55,0.15663
3741.77,0.15935
3735.98,0.16040
3730.19,0.16089
3724.41,0.16473
3718.62,0.16548
3712.83,0.16132
3707.05,0.15517
3701.26,0.14593
3695.48,0.13349
3689.69,0.12044
3683.9,0.10983
3678.12,0.10681
3672.33,0.10557
3666.54,0.10730
3660.76,0.10798
3654.97,0.11027
3649.19,0.11061
3643.4,0.11066
3637.61,0.10902
3631.83,0.10659
3626.04,0.10354
3620.25,0.10060
3614.47,0.09782
3608.68,0.09624
3602.9,0.09379
3597.11,0.09209
3591.32,0.09000
3585.54,0.08800
3579.75,0.08646
3573.97,0.08433
3568.18,0.08080
3562.39,0.07850
3556.61,0.07601
3550.82,0.07405
3545.03,0.07319
3539.25,0.07244
3533.46,0.07219
3527.68,0.07218
3521.89,0.07124
3516.1,0.07080
3510.32,0.07066
3504.53,0.07037
3498.74,0.06991
3492.96,0.06904
3487.17,0.06851
3481.39,0.06729
3475.6,0.06669
3469.81,0.06526
3464.03,0.06496
3458.24,0.06317
3452.45,0.06118
3446.67,0.05784
3440.88,0.05587
3435.1,0.05354
3429.31,0.05134
3423.52,0.05127
3417.74,0.05125
3411.95,0.05058
3406.16,0.05191
3400.38,0.05207
3394.59,0.05351
3388.81,0.05362
3383.02,0.05588
3377.23,0.05660
3371.45,0.05743
3365.66,0.05772
3359.87,0.05814
3354.09,0.05671
3348.3,0.05795
3342.52,0.05715
3336.73,0.05578
3330.94,0.05543
3325.16,0.05686
3319.37,0.05718
3313.58,0.05677
3307.8,0.05680
3302.01,0.05695
3296.23,0.05716
3290.44,0.05882
3284.65,0.05844
3278.87,0.05938
3273.08,0.05974
3267.29,0.06029
3261.51,0.06056
3255.72,0.06143
3249.94,0.06211
3244.15,0.06084
3238.36,0.05979
3232.58,0.05775
3226.79,0.05714
3221,0.05507
3215.22,0.05626
3209.43,0.05520
3203.65,0.05578
3197.86,0.05535
3192.07,0.05557
3186.29,0.05621
3180.5,0.05676
3174.71,0.05670
3168.93,0.05733
3163.14,0.05767
3157.36,0.05832
3151.57,0.05743
3145.78,0.05768
3140,0.05733
3134.21,0.05687
3128.42,0.05625
3122.64,0.05587
3116.85,0.05695
3111.07,0.05540
3105.28,0.05463
3099.49,0.05294
3093.71,0.05244
3087.92,0.05225
3082.14,0.05079
3076.35,0.05015
3070.56,0.04940
3064.78,0.04884
3058.99,0.04845
3053.2,0.04828
3047.42,0.04861
3041.63,0.04903
3035.85,0.04809
3030.06,0.04792
3024.27,0.04684
3018.49,0.04616
3012.7,0.04546
3006.91,0.04479
3001.13,0.04510
2995.34,0.04434
2989.56,0.04374
2983.77,0.04381
2977.98,0.04351
2972.2,0.04339
2966.41,0.04415
2960.62,0.04389
2954.84,0.04458
2949.05,0.04485
2943.27,0.04479
2937.48,0.04495
2931.69,0.04616
2925.91,0.04703
2920.12,0.04796
2914.33,0.04815
2908.55,0.04809
2902.76,0.04786
2896.98,0.04800
2891.19,0.04750
2885.4,0.04730
2879.62,0.04754
2873.83,0.04797
2868.04,0.04845
2862.26,0.04875
2856.47,0.04908
2850.69,0.04969
2844.9,0.04946
2839.11,0.04964
2833.33,0.04952
2827.54,0.04937
2821.75,0.04917
2815.97,0.04887
2810.18,0.04883
2804.4,0.04920
2798.61,0.05005
2792.82,0.05066
2787.04,0.05155
2781.25,0.05286
2775.46,0.05335
2769.68,0.05405
2763.89,0.05429
2758.11,0.05420
2752.32,0.05360
2746.53,0.05340
2740.75,0.05305
2734.96,0.05234
2729.17,0.05312
2723.39,0.05473
2717.6,0.05653
2711.82,0.05780
2706.03,0.05846
2700.24,0.05918
2694.46,0.05960
2688.67,0.05960
2682.88,0.05988
2677.1,0.05939
2671.31,0.05881
2665.53,0.05995
2659.74,0.06113
2653.95,0.06234
2648.17,0.06228
2642.38,0.06213
2636.59,0.06030
2630.81,0.05819
2625.02,0.05722
2619.24,0.05622
2613.45,0.05536
2607.66,0.05450
2601.88,0.05412
2596.09,0.05383
2590.3,0.05354
2584.52,0.05339
2578.73,0.05307
2572.95,0.05276
2567.16,0.05327
2561.37,0.05336
2555.59,0.05296
2549.8,0.05267
2544.02,0.05246
2538.23,0.05219
2532.44,0.05200
2526.66,0.05107
2520.87,0.05086
2515.08,0.05076
2509.3,0.05111
2503.51,0.05181
2497.73,0.05346
2491.94,0.05474
2486.15,0.05627
2480.37,0.05927
2474.58,0.06241
2468.79,0.06538
2463.01,0.06752
2457.22,0.06799
2451.44,0.06882
2445.65,0.06938
2439.86,0.06877
2434.08,0.06845
2428.29,0.06696
2422.5,0.06639
2416.72,0.06499
2410.93,0.06434
2405.15,0.06345
2399.36,0.06277
2393.57,0.06190
2387.79,0.06108
2382,0.06135
2376.21,0.06188
2370.43,0.06312
2364.64,0.06492
2358.86,0.06622
2353.07,0.06844
2347.28,0.07056
2341.5,0.07260
2335.71,0.07491
2329.92,0.07629
2324.14,0.07568
2318.35,0.07692
2312.57,0.07838
2306.78,0.07807
2300.99,0.07726
2295.21,0.07518
2289.42,0.07302
2283.63,0.07045
2277.85,0.06863
2272.06,0.06974
2266.28,0.07149
2260.49,0.07201
2254.7,0.07097
2248.92,0.06956
2243.13,0.06707
2237.34,0.06511
2231.56,0.06438
2225.77,0.06433
2219.99,0.06495
2214.2,0.06523
2208.41,0.06510
2202.63,0.06771
2196.84,0.07143
2191.05,0.07344
2185.27,0.07601
2179.48,0.07807
2173.7,0.07912
2167.91,0.07912
2162.12,0.07825
2156.34,0.07651
2150.55,0.07488
2144.76,0.07313
2138.98,0.07306
2133.19,0.07294
2127.41,0.07376
2121.62,0.07465
2115.83,0.07526
2110.05,0.07591
2104.26,0.07631
2098.47,0.07638
2092.69,0.07609
2086.9,0.07600
2081.12,0.07482
2075.33,0.07377
2069.54,0.07344
2063.76,0.07403
2057.97,0.07450
2052.19,0.07541
2046.4,0.07671
2040.61,0.07768
2034.83,0.07850
2029.04,0.07932
2023.25,0.08027
2017.47,0.08159
2011.68,0.08164
2005.9,0.08157
2000.11,0.07981
1994.32,0.07719
1988.54,0.07487
1982.75,0.07343
1976.96,0.07195
1971.18,0.06863
1965.39,0.06427
1959.61,0.05904
1953.82,0.05498
1948.03,0.05397
1942.25,0.05634
1936.46,0.06026
1930.67,0.06435
1924.89,0.06763
1919.1,0.06893
1913.32,0.06948
1907.53,0.06968
1901.74,0.06976
1895.96,0.07017
1890.17,0.07014
1884.38,0.07024
1878.6,0.07024
1872.81,0.06967
1867.03,0.06768
1861.24,0.06597
1855.45,0.06316
1849.67,0.05989
1843.88,0.05682
1838.09,0.05359
1832.31,0.04981
1826.52,0.04644
1820.74,0.04573
1814.95,0.04550
1809.16,0.04471
1803.38,0.04262
1797.59,0.04120
1791.8,0.04049
1786.02,0.04045
1780.23,0.03996
1774.45,0.03906
1768.66,0.03780
1762.87,0.03671
1757.09,0.03546
1751.3,0.03403
1745.51,0.03262
1739.73,0.03286
1733.94,0.03675
1728.16,0.04265
1722.37,0.04842
1716.58,0.05190
1710.8,0.05263
1705.01,0.05212
1699.22,0.05163
1693.44,0.05039
1687.65,0.05014
1681.87,0.04949
1676.08,0.04919
1670.29,0.04851
1664.51,0.04872
1658.72,0.04895
1652.93,0.04915
1647.15,0.05022
1641.36,0.05026
1635.58,0.05041
1629.79,0.05010
1624,0.05006
1618.22,0.04960
1612.43,0.04837
1606.64,0.04822
1600.86,0.04854
1595.07,0.04905
1589.29,0.04839
1583.5,0.04652
1577.71,0.04490
1571.93,0.04645
1566.14,0.04939
1560.35,0.05110
1554.57,0.05245
1548.78,0.05276
1543,0.05219
1537.21,0.05006
1531.42,0.04768
1525.64,0.04657
1519.85,0.04627
1514.07,0.04541
1508.28,0.04499
1502.49,0.04463
1496.71,0.04573
1490.92,0.04478
1485.13,0.04337
1479.35,0.04173
1473.56,0.04099
1467.78,0.04140
1461.99,0.04196
1456.2,0.04305
1450.42,0.04360
1444.63,0.04425
1438.84,0.04367
1433.06,0.04358
1427.27,0.04340
1421.49,0.04295
1415.7,0.04232
1409.91,0.04182
1404.13,0.04171
1398.34,0.04104
1392.55,0.04010
1386.77,0.04035
1380.98,0.04046
1375.2,0.04111
1369.41,0.04115
1363.62,0.04107
1357.84,0.04017
1352.05,0.03992
1346.26,0.03916
1340.48,0.03895
1334.69,0.03834
1328.91,0.03804
1323.12,0.03727
1317.33,0.03729
1311.55,0.03644
1305.76,0.03552
1299.97,0.03511
1294.19,0.03489
1288.4,0.03500
1282.62,0.03567
1276.83,0.03727
1271.04,0.04000
1265.26,0.04120
1259.47,0.04122
1253.68,0.04150
1247.9,0.04299
1242.11,0.04356
1236.33,0.04373
1230.54,0.04339
1224.75,0.04413
1218.97,0.04358
1213.18,0.04348
1207.39,0.04388
1201.61,0.04342
1195.82,0.04293
1190.04,0.04306
1184.25,0.04270
1178.46,0.04278
1172.68,0.04301
1166.89,0.04367
1161.1,0.04513
1155.32,0.04666
1149.53,0.04784
1143.75,0.04874
1137.96,0.04987
1132.17,0.05133
1126.39,0.05267
1120.6,0.05670
1114.81,0.06120
1109.03,0.06348
1103.24,0.06688
1097.46,0.07021
1091.67,0.07170
1085.88,0.07181
1080.1,0.07257
1074.31,0.07418
1068.52,0.07580
1062.74,0.07509
1056.95,0.07451
1051.17,0.07399
1045.38,0.07302
1039.59,0.07265
1033.81,0.07217
1028.02,0.07055
1022.24,0.06856
1016.45,0.06770
1010.66,0.06577
1004.88,0.06437
999.09,0.06285
993.304,0.06154
987.518,0.06088
981.731,0.06066
975.945,0.06011
970.159,0.06019
964.373,0.06028
958.586,0.05992
952.8,0.06030
947.014,0.05963
941.228,0.06010
935.441,0.06041
929.655,0.05971
923.869,0.05952
918.083,0.05934
912.297,0.05899
906.51,0.05873
900.724,0.05776
894.938,0.05730
889.152,0.05707
883.365,0.05687
877.579,0.05670
871.793,0.05637
866.007,0.05627
860.22,0.05591
854.434,0.05476
848.648,0.05426
842.862,0.05381
837.075,0.05367
831.289,0.05453
825.503,0.05525
819.717,0.05571
813.931,0.05519
808.144,0.05476
802.358,0.05459
796.572,0.05446
790.786,0.05491
784.999,0.05551
779.213,0.05507
773.427,0.05574
767.641,0.05502
761.854,0.05451
756.068,0.05398
750.282,0.05372
744.496,0.05347
738.709,0.05314
732.923,0.05401
727.137,0.05597
721.351,0.05521
715.565,0.05435
709.778,0.05285
703.992,0.05300
698.206,0.05454
692.42,0.05345
686.633,0.05287
680.847,0.05098
675.061,0.05291
669.275,0.05151
663.488,0.05210
657.702,0.05036
651.916,0.05079
646.13,0.05057
640.343,0.04958
634.557,0.04973
628.771,0.05069
622.985,0.04929
617.198,0.04763
611.412,0.04736
605.626,0.04910
599.84,0.05022