File: 01_Data/Vinyl_Plank_Flooring/FTIR/IS/Vinyl_Plank_Flooring_IS_T_220819_R3.dpt
7497.03,0.01880
7491.25,0.02150
7485.46,0.02003
7479.67,0.02365
7473.89,0.02136
7468.1,0.02088
7462.32,0.02531
7456.53,0.01958
7450.74,0.02519
7444.96,0.02294
7439.17,0.03001
7433.38,0.01912
7427.6,0.01909
7421.81,0.02568
7416.03,0.02601
7410.24,0.02723
7404.45,0.02380
7398.67,0.02764
7392.88,0.01934
7387.09,0.02352
7381.31,0.02138
7375.52,0.02292
7369.74,0.01617
7363.95,0.02770
7358.16,0.02049
7352.38,0.02340
7346.59,0.02107
7340.8,0.02488
7335.02,0.02059
7329.23,0.03071
7323.45,0.02765
7317.66,0.02327
7311.87,0.02390
7306.09,0.03231
7300.3,0.03246
7294.51,0.02107
7288.73,0.02406
7282.94,0.02826
7277.16,0.02769
7271.37,0.01668
7265.58,0.02469
7259.8,0.01966
7254.01,0.02491
7248.22,0.02704
7242.44,0.02505
7236.65,0.02712
7230.87,0.02755
7225.08,0.02481
7219.29,0.02142
7213.51,0.02324
7207.72,0.02405
7201.93,0.02025
7196.15,0.02628
7190.36,0.01440
7184.58,0.02204
7178.79,0.02147
7173,0.02221
7167.22,0.02001
7161.43,0.02260
7155.65,0.02389
7149.86,0.02476
7144.07,0.02119
7138.29,0.01997
7132.5,0.02130
7126.71,0.02175
7120.93,0.01960
7115.14,0.01331
7109.36,0.01938
7103.57,0.01844
7097.78,0.01643
7092,0.02335
7086.21,0.01450
7080.42,0.01969
7074.64,0.02304
7068.85,0.01996
7063.07,0.02551
7057.28,0.02516
7051.49,0.02596
7045.71,0.01804
7039.92,0.01688
7034.13,0.02071
7028.35,0.01823
7022.56,0.02262
7016.78,0.02013
7010.99,0.01919
7005.2,0.01803
6999.42,0.02466
6993.63,0.02017
6987.84,0.01740
6982.06,0.02216
6976.27,0.02012
6970.49,0.01913
6964.7,0.02030
6958.91,0.02278
6953.13,0.02300
6947.34,0.01939
6941.55,0.02018
6935.77,0.01687
6929.98,0.02257
6924.2,0.01959
6918.41,0.02504
6912.62,0.01928
6906.84,0.01658
6901.05,0.01910
6895.26,0.02308
6889.48,0.01682
6883.69,0.01853
6877.91,0.02704
6872.12,0.02098
6866.33,0.01980
6860.55,0.02018
6854.76,0.01906
6848.97,0.01957
6843.19,0.02266
6837.4,0.02008
6831.62,0.01835
6825.83,0.01652
6820.04,0.02346
6814.26,0.02642
6808.47,0.02311
6802.68,0.02153
6796.9,0.02028
6791.11,0.02008
6785.33,0.01833
6779.54,0.02328
6773.75,0.01558
6767.97,0.02119
6762.18,0.01814
6756.39,0.01915
6750.61,0.01937
6744.82,0.01926
6739.04,0.01773
6733.25,0.02228
6727.46,0.01784
6721.68,0.01800
6715.89,0.02185
6710.1,0.02428
6704.32,0.02245
6698.53,0.01631
6692.75,0.01792
6686.96,0.02315
6681.17,0.01691
6675.39,0.02169
6669.6,0.01741
6663.82,0.01671
6658.03,0.01712
6652.24,0.01934
6646.46,0.01791
6640.67,0.02265
6634.88,0.01766
6629.1,0.02053
6623.31,0.02153
6617.53,0.02108
6611.74,0.02190
6605.95,0.02231
6600.17,0.02427
6594.38,0.01818
6588.59,0.01886
6582.81,0.02141
6577.02,0.02243
6571.24,0.02371
6565.45,0.02015
6559.66,0.02076
6553.88,0.02099
6548.09,0.01981
6542.3,0.02048
6536.52,0.01711
6530.73,0.01622
6524.95,0.01727
6519.16,0.01403
6513.37,0.01716
6507.59,0.01865
6501.8,0.01871
6496.01,0.01659
6490.23,0.02085
6484.44,0.02264
6478.66,0.01702
6472.87,0.01445
6467.08,0.02285
6461.3,0.01905
6455.51,0.01632
6449.72,0.02424
6443.94,0.01943
6438.15,0.02087
6432.37,0.01550
6426.58,0.02227
6420.79,0.01746
6415.01,0.01667
6409.22,0.01935
6403.43,0.02254
6397.65,0.01933
6391.86,0.02334
6386.08,0.02015
6380.29,0.01999
6374.5,0.01724
6368.72,0.02082
6362.93,0.02050
6357.14,0.01918
6351.36,0.01831
6345.57,0.02069
6339.79,0.01958
6334,0.01649
6328.21,0.01830
6322.43,0.01749
6316.64,0.01814
6310.85,0.02089
6305.07,0.01938
6299.28,0.01924
6293.5,0.01573
6287.71,0.01596
6281.92,0.01689
6276.14,0.01586
6270.35,0.01840
6264.56,0.01998
6258.78,0.02036
6252.99,0.01720
6247.21,0.01758
6241.42,0.02001
6235.63,0.01721
6229.85,0.01812
6224.06,0.01905
6218.27,0.02282
6212.49,0.02215
6206.7,0.01808
6200.92,0.01748
6195.13,0.01578
6189.34,0.01689
6183.56,0.01877
6177.77,0.01701
6171.98,0.01944
6166.2,0.02092
6160.41,0.02010
6154.63,0.01919
6148.84,0.02140
6143.05,0.02291
6137.27,0.02257
6131.48,0.02336
6125.7,0.01857
6119.91,0.01715
6114.12,0.01863
6108.34,0.02046
6102.55,0.02047
6096.76,0.01873
6090.98,0.01930
6085.19,0.01807
6079.41,0.01950
6073.62,0.02096
6067.83,0.01619
6062.05,0.02001
6056.26,0.01896
6050.47,0.02118
6044.69,0.01954
6038.9,0.01945
6033.12,0.01992
6027.33,0.02238
6021.54,0.01865
6015.76,0.01814
6009.97,0.02177
6004.18,0.02073
5998.4,0.01949
5992.61,0.01620
5986.83,0.02038
5981.04,0.01900
5975.25,0.01760
5969.47,0.01862
5963.68,0.01959
5957.89,0.01710
5952.11,0.01892
5946.32,0.01921
5940.54,0.01915
5934.75,0.01852
5928.96,0.01602
5923.18,0.01865
5917.39,0.02091
5911.6,0.01959
5905.82,0.02049
5900.03,0.01789
5894.25,0.01756
5888.46,0.01832
5882.67,0.02020
5876.89,0.01744
5871.1,0.01914
5865.31,0.01700
5859.53,0.01919
5853.74,0.01825
5847.96,0.01607
5842.17,0.01814
5836.38,0.01726
5830.6,0.02097
5824.81,0.01993
5819.02,0.01892
5813.24,0.01884
5807.45,0.01946
5801.67,0.01746
5795.88,0.01881
5790.09,0.01932
5784.31,0.01792
5778.52,0.01708
5772.73,0.01749
5766.95,0.01944
5761.16,0.01924
5755.38,0.01869
5749.59,0.01855
5743.8,0.01954
5738.02,0.01911
5732.23,0.01926
5726.44,0.01888
5720.66,0.01854
5714.87,0.01797
5709.09,0.01900
5703.3,0.01857
5697.51,0.01826
5691.73,0.01856
5685.94,0.01918
5680.15,0.01846
5674.37,0.01853
5668.58,0.01914
5662.8,0.01958
5657.01,0.01990
5651.22,0.02031
5645.44,0.01859
5639.65,0.01755
5633.87,0.01707
5628.08,0.01826
5622.29,0.01861
5616.51,0.01786
5610.72,0.01986
5604.93,0.01855
5599.15,0.01987
5593.36,0.01938
5587.58,0.01842
5581.79,0.01996
5576,0.02009
5570.22,0.01994
5564.43,0.01819
5558.64,0.01926
5552.86,0.01820
5547.07,0.01987
5541.29,0.01907
5535.5,0.01815
5529.71,0.01881
5523.93,0.01878
5518.14,0.01957
5512.35,0.01814
5506.57,0.01856
5500.78,0.01934
5495,0.01902
5489.21,0.02035
5483.42,0.01876
5477.64,0.01817
5471.85,0.02051
5466.06,0.01941
5460.28,0.01875
5454.49,0.01950
5448.71,0.01921
5442.92,0.01947
5437.13,0.01935
5431.35,0.01965
5425.56,0.01980
5419.77,0.01840
5413.99,0.01924
5408.2,0.01925
5402.42,0.01900
5396.63,0.01930
5390.84,0.01892
5385.06,0.01955
5379.27,0.01841
5373.48,0.01760
5367.7,0.01953
5361.91,0.02012
5356.13,0.02098
5350.34,0.01968
5344.55,0.02073
5338.77,0.01962
5332.98,0.01960
5327.19,0.01826
5321.41,0.01921
5315.62,0.01935
5309.84,0.01929
5304.05,0.01941
5298.26,0.01800
5292.48,0.01897
5286.69,0.02004
5280.9,0.01875
5275.12,0.01967
5269.33,0.01899
5263.55,0.01873
5257.76,0.01814
5251.97,0.01848
5246.19,0.01950
5240.4,0.01872
5234.61,0.02034
5228.83,0.01947
5223.04,0.01954
5217.26,0.01909
5211.47,0.01886
5205.68,0.01915
5199.9,0.01953
5194.11,0.01838
5188.32,0.01850
5182.54,0.01869
5176.75,0.01972
5170.97,0.01830
5165.18,0.01884
5159.39,0.01810
5153.61,0.01889
5147.82,0.01921
5142.03,0.01866
5136.25,0.01782
5130.46,0.01859
5124.68,0.01859
5118.89,0.01812
5113.1,0.01875
5107.32,0.01895
5101.53,0.01914
5095.75,0.01928
5089.96,0.01898
5084.17,0.01865
5078.39,0.01966
5072.6,0.01943
5066.81,0.01956
5061.03,0.01873
5055.24,0.01919
5049.46,0.01774
5043.67,0.01927
5037.88,0.01886
5032.1,0.01925
5026.31,0.01912
5020.52,0.01929
5014.74,0.01932
5008.95,0.01884
5003.17,0.02008
4997.38,0.01863
4991.59,0.02023
4985.81,0.01872
4980.02,0.01878
4974.23,0.01867
4968.45,0.01859
4962.66,0.01822
4956.88,0.01932
4951.09,0.01909
4945.3,0.01941
4939.52,0.01886
4933.73,0.01887
4927.94,0.01902
4922.16,0.01946
4916.37,0.02038
4910.59,0.01903
4904.8,0.01941
4899.01,0.01853
4893.23,0.01933
4887.44,0.01907
4881.65,0.01872
4875.87,0.01822
4870.08,0.01961
4864.3,0.01936
4858.51,0.01857
4852.72,0.01796
4846.94,0.01883
4841.15,0.01876
4835.36,0.02046
4829.58,0.01914
4823.79,0.01936
4818.01,0.01937
4812.22,0.01838
4806.43,0.01913
4800.65,0.01812
4794.86,0.01966
4789.07,0.01821
4783.29,0.01984
4777.5,0.01932
4771.72,0.01960
4765.93,0.01847
4760.14,0.01813
4754.36,0.01909
4748.57,0.01853
4742.78,0.01939
4737,0.01967
4731.21,0.01998
4725.43,0.01906
4719.64,0.01928
4713.85,0.01972
4708.07,0.02001
4702.28,0.01939
4696.49,0.01841
4690.71,0.01852
4684.92,0.01963
4679.14,0.01916
4673.35,0.01942
4667.56,0.01846
4661.78,0.01936
4655.99,0.01871
4650.2,0.02002
4644.42,0.01957
4638.63,0.01910
4632.85,0.01861
4627.06,0.01863
4621.27,0.01870
4615.49,0.01890
4609.7,0.01914
4603.92,0.01911
4598.13,0.02027
4592.34,0.01963
4586.56,0.01965
4580.77,0.01922
4574.98,0.01905
4569.2,0.01938
4563.41,0.01950
4557.63,0.02000
4551.84,0.01922
4546.05,0.01965
4540.27,0.01976
4534.48,0.01896
4528.69,0.01944
4522.91,0.01967
4517.12,0.01950
4511.34,0.01970
4505.55,0.01846
4499.76,0.01862
4493.98,0.01911
4488.19,0.01946
4482.4,0.01936
4476.62,0.02000
4470.83,0.01960
4465.05,0.01935
4459.26,0.01929
4453.47,0.01971
4447.69,0.01965
4441.9,0.01895
4436.11,0.01944
4430.33,0.01920
4424.54,0.01941
4418.76,0.01911
4412.97,0.01897
4407.18,0.01854
4401.4,0.01922
4395.61,0.01842
4389.82,0.01868
4384.04,0.01956
4378.25,0.01912
4372.47,0.01903
4366.68,0.01917
4360.89,0.01989
4355.11,0.01954
4349.32,0.01916
4343.53,0.01896
4337.75,0.01878
4331.96,0.01882
4326.18,0.02002
4320.39,0.01920
4314.6,0.01957
4308.82,0.01881
4303.03,0.01883
4297.24,0.01895
4291.46,0.01949
4285.67,0.01961
4279.89,0.01964
4274.1,0.01951
4268.31,0.01903
4262.53,0.01892
4256.74,0.01905
4250.95,0.01927
4245.17,0.01946
4239.38,0.01869
4233.6,0.01935
4227.81,0.02030
4222.02,0.01937
4216.24,0.01933
4210.45,0.01951
4204.66,0.01976
4198.88,0.01893
4193.09,0.01940
4187.31,0.01926
4181.52,0.01927
4175.73,0.01939
4169.95,0.01949
4164.16,0.01990
4158.37,0.01961
4152.59,0.01915
4146.8,0.01960
4141.02,0.01874
4135.23,0.01919
4129.44,0.01899
4123.66,0.01933
4117.87,0.01946
4112.09,0.01931
4106.3,0.01953
4100.51,0.01943
4094.73,0.01904
4088.94,0.01915
4083.15,0.01922
4077.37,0.01994
4071.58,0.02030
4065.8,0.01941
4060.01,0.01904
4054.22,0.01995
4048.44,0.01980
4042.65,0.01952
4036.86,0.01959
4031.08,0.01953
4025.29,0.01922
4019.51,0.01979
4013.72,0.01958
4007.93,0.01934
4002.15,0.01981
3996.36,0.01967
3990.57,0.01983
3984.79,0.01977
3979,0.01920
3973.22,0.01922
3967.43,0.01900
3961.64,0.01969
3955.86,0.01985
3950.07,0.01932
3944.28,0.01974
3938.5,0.01934
3932.71,0.01902
3926.93,0.01961
3921.14,0.01949
3915.35,0.01921
3909.57,0.01987
3903.78,0.01897
3897.99,0.01979
3892.21,0.01941
3886.42,0.01928
3880.64,0.01972
3874.85,0.01972
3869.06,0.01953
3863.28,0.01997
3857.49,0.01924
3851.7,0.01918
3845.92,0.01883
3840.13,0.01944
3834.35,0.01932
3828.56,0.01895
3822.77,0.01970
3816.99,0.01925
3811.2,0.01949
3805.41,0.01964
3799.63,0.01923
3793.84,0.01933
3788.06,0.01890
3782.27,0.01946
3776.48,0.01966
3770.7,0.01977
3764.91,0.01934
3759.12,0.01991
3753.34,0.01999
3747.55,0.01921
3741.77,0.01923
3735.98,0.01964
3730.19,0.01962
3724.41,0.01962
3718.62,0.01909
3712.83,0.01938
3707.05,0.01965
3701.26,0.01857
3695.48,0.01903
3689.69,0.01826
3683.9,0.01917
3678.12,0.01973
3672.33,0.01885
3666.54,0.01878
3660.76,0.01879
3654.97,0.01880
3649.19,0.01813
3643.4,0.01859
3637.61,0.01858
3631.83,0.01986
3626.04,0.01863
3620.25,0.01914
3614.47,0.01909
3608.68,0.01835
3602.9,0.01887
3597.11,0.01847
3591.32,0.01783
3585.54,0.01826
3579.75,0.01911
3573.97,0.01855
3568.18,0.01831
3562.39,0.01790
3556.61,0.01899
3550.82,0.01880
3545.03,0.01845
3539.25,0.01842
3533.46,0.01831
3527.68,0.01854
3521.89,0.01771
3516.1,0.01788
3510.32,0.01738
3504.53,0.01780
3498.74,0.01700
3492.96,0.01817
3487.17,0.01814
3481.39,0.01794
3475.6,0.01804
3469.81,0.01777
3464.03,0.01767
3458.24,0.01747
3452.45,0.01810
3446.67,0.01812
3440.88,0.01718
3435.1,0.01745
3429.31,0.01730
3423.52,0.01704
3417.74,0.01746
3411.95,0.01800
3406.16,0.01694
3400.38,0.01768
3394.59,0.01793
3388.81,0.01760
3383.02,0.01684
3377.23,0.01671
3371.45,0.01698
3365.66,0.01769
3359.87,0.01765
3354.09,0.01747
3348.3,0.01616
3342.52,0.01739
3336.73,0.01728
3330.94,0.01782
3325.16,0.01762
3319.37,0.01760
3313.58,0.01698
3307.8,0.01713
3302.01,0.01699
3296.23,0.01667
3290.44,0.01730
3284.65,0.01695
3278.87,0.01728
3273.08,0.01712
3267.29,0.01739
3261.51,0.01671
3255.72,0.01795
3249.94,0.01768
3244.15,0.01678
3238.36,0.01779
3232.58,0.01725
3226.79,0.01841
3221,0.01727
3215.22,0.01773
3209.43,0.01690
3203.65,0.01688
3197.86,0.01775
3192.07,0.01750
3186.29,0.01743
3180.5,0.01744
3174.71,0.01739
3168.93,0.01680
3163.14,0.01744
3157.36,0.01768
3151.57,0.01702
3145.78,0.01769
3140,0.01761
3134.21,0.01822
3128.42,0.01849
3122.64,0.01717
3116.85,0.01744
3111.07,0.01770
3105.28,0.01826
3099.49,0.01754
3093.71,0.01770
3087.92,0.01692
3082.14,0.01702
3076.35,0.01750
3070.56,0.01797
3064.78,0.01779
3058.99,0.01757
3053.2,0.01797
3047.42,0.01742
3041.63,0.01725
3035.85,0.01758
3030.06,0.01740
3024.27,0.01734
3018.49,0.01767
3012.7,0.01746
3006.91,0.01694
3001.13,0.01747
2995.34,0.01736
2989.56,0.01696
2983.77,0.01671
2977.98,0.01707
2972.2,0.01660
2966.41,0.01649
2960.62,0.01632
2954.84,0.01662
2949.05,0.01630
2943.27,0.01613
2937.48,0.01644
2931.69,0.01698
2925.91,0.01705
2920.12,0.01673
2914.33,0.01742
2908.55,0.01678
2902.76,0.01736
2896.98,0.01731
2891.19,0.01702
2885.4,0.01734
2879.62,0.01746
2873.83,0.01719
2868.04,0.01724
2862.26,0.01732
2856.47,0.01769
2850.69,0.01774
2844.9,0.01796
2839.11,0.01810
2833.33,0.01819
2827.54,0.01802
2821.75,0.01791
2815.97,0.01787
2810.18,0.01812
2804.4,0.01818
2798.61,0.01778
2792.82,0.01834
2787.04,0.01809
2781.25,0.01819
2775.46,0.01801
2769.68,0.01818
2763.89,0.01835
2758.11,0.01796
2752.32,0.01810
2746.53,0.01836
2740.75,0.01812
2734.96,0.01842
2729.17,0.01817
2723.39,0.01832
2717.6,0.01821
2711.82,0.01818
2706.03,0.01805
2700.24,0.01835
2694.46,0.01829
2688.67,0.01815
2682.88,0.01784
2677.1,0.01776
2671.31,0.01808
2665.53,0.01790
2659.74,0.01812
2653.95,0.01858
2648.17,0.01827
2642.38,0.01830
2636.59,0.01820
2630.81,0.01805
2625.02,0.01806
2619.24,0.01795
2613.45,0.01802
2607.66,0.01835
2601.88,0.01777
2596.09,0.01806
2590.3,0.01804
2584.52,0.01797
2578.73,0.01769
2572.95,0.01843
2567.16,0.01802
2561.37,0.01796
2555.59,0.01781
2549.8,0.01749
2544.02,0.01782
2538.23,0.01807
2532.44,0.01803
2526.66,0.01813
2520.87,0.01848
2515.08,0.01827
2509.3,0.01835
2503.51,0.01813
2497.73,0.01787
2491.94,0.01819
2486.15,0.01816
2480.37,0.01784
2474.58,0.01796
2468.79,0.01792
2463.01,0.01798
2457.22,0.01804
2451.44,0.01783
2445.65,0.01803
2439.86,0.01780
2434.08,0.01767
2428.29,0.01761
2422.5,0.01798
2416.72,0.01806
2410.93,0.01817
2405.15,0.01827
2399.36,0.01799
2393.57,0.01798
2387.79,0.01825
2382,0.01801
2376.21,0.01793
2370.43,0.01772
2364.64,0.01820
2358.86,0.01846
2353.07,0.01784
2347.28,0.01800
2341.5,0.01815
2335.71,0.01785
2329.92,0.01805
2324.14,0.01843
2318.35,0.01859
2312.57,0.01796
2306.78,0.01834
2300.99,0.01827
2295.21,0.01815
2289.42,0.01795
2283.63,0.01792
2277.85,0.01808
2272.06,0.01823
2266.28,0.01808
2260.49,0.01789
2254.7,0.01809
2248.92,0.01779
2243.13,0.01833
2237.34,0.01809
2231.56,0.01813
2225.77,0.01801
2219.99,0.01787
2214.2,0.01809
2208.41,0.01818
2202.63,0.01784
2196.84,0.01807
2191.05,0.01801
2185.27,0.01788
2179.48,0.01811
2173.7,0.01819
2167.91,0.01797
2162.12,0.01766
2156.34,0.01748
2150.55,0.01746
2144.76,0.01784
2138.98,0.01787
2133.19,0.01792
2127.41,0.01800
2121.62,0.01806
2115.83,0.01781
2110.05,0.01732
2104.26,0.01777
2098.47,0.01790
2092.69,0.01782
2086.9,0.01767
2081.12,0.01759
2075.33,0.01782
2069.54,0.01812
2063.76,0.01777
2057.97,0.01788
2052.19,0.01744
2046.4,0.01748
2040.61,0.01754
2034.83,0.01762
2029.04,0.01767
2023.25,0.01778
2017.47,0.01783
2011.68,0.01764
2005.9,0.01760
2000.11,0.01771
1994.32,0.01782
1988.54,0.01772
1982.75,0.01752
1976.96,0.01769
1971.18,0.01762
1965.39,0.01718
1959.61,0.01780
1953.82,0.01781
1948.03,0.01786
1942.25,0.01745
1936.46,0.01753
1930.67,0.01752
1924.89,0.01754
1919.1,0.01731
1913.32,0.01763
1907.53,0.01743
1901.74,0.01767
1895.96,0.01769
1890.17,0.01760
1884.38,0.01761
1878.6,0.01733
1872.81,0.01745
1867.03,0.01709
1861.24,0.01732
1855.45,0.01763
1849.67,0.01748
1843.88,0.01709
1838.09,0.01716
1832.31,0.01687
1826.52,0.01699
1820.74,0.01710
1814.95,0.01703
1809.16,0.01666
1803.38,0.01670
1797.59,0.01644
1791.8,0.01666
1786.02,0.01652
1780.23,0.01634
1774.45,0.01586
1768.66,0.01557
1762.87,0.01527
1757.09,0.01460
1751.3,0.01432
1745.51,0.01433
1739.73,0.01592
1733.94,0.01670
1728.16,0.01735
1722.37,0.01764
1716.58,0.01762
1710.8,0.01735
1705.01,0.01718
1699.22,0.01710
1693.44,0.01667
1687.65,0.01635
1681.87,0.01613
1676.08,0.01561
1670.29,0.01549
1664.51,0.01545
1658.72,0.01541
1652.93,0.01580
1647.15,0.01564
1641.36,0.01523
1635.58,0.01529
1629.79,0.01544
1624,0.01561
1618.22,0.01558
1612.43,0.01565
1606.64,0.01593
1600.86,0.01584
1595.07,0.01577
1589.29,0.01589
1583.5,0.01530
1577.71,0.01490
1571.93,0.01524
1566.14,0.01539
1560.35,0.01535
1554.57,0.01477
1548.78,0.01501
1543,0.01540
1537.21,0.01527
1531.42,0.01519
1525.64,0.01560
1519.85,0.01581
1514.07,0.01556
1508.28,0.01578
1502.49,0.01586
1496.71,0.01579
1490.92,0.01606
1485.13,0.01572
1479.35,0.01583
1473.56,0.01546
1467.78,0.01525
1461.99,0.01570
1456.2,0.01566
1450.42,0.01564
1444.63,0.01557
1438.84,0.01565
1433.06,0.01536
1427.27,0.01501
1421.49,0.01570
1415.7,0.01533
1409.91,0.01544
1404.13,0.01503
1398.34,0.01502
1392.55,0.01481
1386.77,0.01480
1380.98,0.01504
1375.2,0.01516
1369.41,0.01519
1363.62,0.01495
1357.84,0.01475
1352.05,0.01494
1346.26,0.01480
1340.48,0.01493
1334.69,0.01486
1328.91,0.01439
1323.12,0.01419
1317.33,0.01403
1311.55,0.01365
1305.76,0.01387
1299.97,0.01461
1294.19,0.01460
1288.4,0.01500
1282.62,0.01550
1276.83,0.01602
1271.04,0.01661
1265.26,0.01682
1259.47,0.01718
1253.68,0.01724
1247.9,0.01714
1242.11,0.01665
1236.33,0.01628
1230.54,0.01622
1224.75,0.01631
1218.97,0.01582
1213.18,0.01593
1207.39,0.01566
1201.61,0.01578
1195.82,0.01544
1190.04,0.01539
1184.25,0.01519
1178.46,0.01501
1172.68,0.01479
1166.89,0.01481
1161.1,0.01480
1155.32,0.01442
1149.53,0.01476
1143.75,0.01474
1137.96,0.01546
1132.17,0.01520
1126.39,0.01535
1120.6,0.01578
1114.81,0.01602
1109.03,0.01510
1103.24,0.01511
1097.46,0.01518
1091.67,0.01535
1085.88,0.01578
1080.1,0.01525
1074.31,0.01644
1068.52,0.01705
1062.74,0.01644
1056.95,0.01613
1051.17,0.01643
1045.38,0.01689
1039.59,0.01640
1033.81,0.01650
1028.02,0.01645
1022.24,0.01635
1016.45,0.01593
1010.66,0.01726
1004.88,0.01736
999.09,0.01774
993.304,0.01793
987.518,0.01796
981.731,0.01705
975.945,0.01726
970.159,0.01702
964.373,0.01751
958.586,0.01722
952.8,0.01657
947.014,0.01693
941.228,0.01682
935.441,0.01626
929.655,0.01636
923.869,0.01587
918.083,0.01585
912.297,0.01641
906.51,0.01583
900.724,0.01686
894.938,0.01663
889.152,0.01655
883.365,0.01565
877.579,0.01585
871.793,0.01549
866.007,0.01573
860.22,0.01645
854.434,0.01582
848.648,0.01650
842.862,0.01601
837.075,0.01673
831.289,0.01584
825.503,0.01588
819.717,0.01568
813.931,0.01592
808.144,0.01542
802.358,0.01562
796.572,0.01560
790.786,0.01488
784.999,0.01586
779.213,0.01532
773.427,0.01499
767.641,0.01562
761.854,0.01559
756.068,0.01541
750.282,0.01422
744.496,0.01554
738.709,0.01555
732.923,0.01517
727.137,0.01516
721.351,0.01601
715.565,0.01623
709.778,0.01521
703.992,0.01557
698.206,0.01424
692.42,0.01497
686.633,0.01557
680.847,0.01521
675.061,0.01415
669.275,0.01335
663.488,0.01411
657.702,0.01370
651.916,0.01329
646.13,0.01330
640.343,0.01396
634.557,0.01271
628.771,0.01269
622.985,0.01302
617.198,0.01559
611.412,0.01285
605.626,0.01587
599.84,0.01570