File: 01_Data/Vinyl_Plank_Flooring/FTIR/IS/Vinyl_Plank_Flooring_IS_T_220819_R6.dpt
7497.03,0.02812
7491.25,0.01112
7485.46,0.02254
7479.67,0.01772
7473.89,0.01658
7468.1,0.01794
7462.32,0.02057
7456.53,0.02552
7450.74,0.01953
7444.96,0.02514
7439.17,0.02230
7433.38,0.03142
7427.6,0.02264
7421.81,0.01429
7416.03,0.02540
7410.24,0.01809
7404.45,0.02456
7398.67,0.02295
7392.88,0.02773
7387.09,0.02276
7381.31,0.02678
7375.52,0.02285
7369.74,0.02853
7363.95,0.02044
7358.16,0.02603
7352.38,0.02317
7346.59,0.01883
7340.8,0.01354
7335.02,0.02630
7329.23,0.02072
7323.45,0.02030
7317.66,0.02220
7311.87,0.02392
7306.09,0.01596
7300.3,0.02715
7294.51,0.02361
7288.73,0.02882
7282.94,0.01791
7277.16,0.02504
7271.37,0.01965
7265.58,0.01542
7259.8,0.01766
7254.01,0.02666
7248.22,0.02012
7242.44,0.01966
7236.65,0.02570
7230.87,0.01407
7225.08,0.01707
7219.29,0.02099
7213.51,0.02074
7207.72,0.02395
7201.93,0.02828
7196.15,0.02201
7190.36,0.02335
7184.58,0.02363
7178.79,0.02780
7173,0.02618
7167.22,0.02569
7161.43,0.02652
7155.65,0.02090
7149.86,0.02633
7144.07,0.02165
7138.29,0.02162
7132.5,0.01934
7126.71,0.02261
7120.93,0.02046
7115.14,0.01624
7109.36,0.02196
7103.57,0.02079
7097.78,0.01961
7092,0.02300
7086.21,0.01767
7080.42,0.01772
7074.64,0.02074
7068.85,0.02523
7063.07,0.02125
7057.28,0.02772
7051.49,0.01804
7045.71,0.02296
7039.92,0.02151
7034.13,0.02241
7028.35,0.02711
7022.56,0.02120
7016.78,0.02098
7010.99,0.01447
7005.2,0.02046
6999.42,0.02488
6993.63,0.02484
6987.84,0.02272
6982.06,0.02588
6976.27,0.02427
6970.49,0.02102
6964.7,0.01807
6958.91,0.01993
6953.13,0.02396
6947.34,0.02411
6941.55,0.02523
6935.77,0.02512
6929.98,0.02296
6924.2,0.01793
6918.41,0.02249
6912.62,0.01882
6906.84,0.02133
6901.05,0.01967
6895.26,0.02437
6889.48,0.01744
6883.69,0.01763
6877.91,0.02028
6872.12,0.02229
6866.33,0.01760
6860.55,0.01871
6854.76,0.02173
6848.97,0.01787
6843.19,0.02017
6837.4,0.02368
6831.62,0.02082
6825.83,0.01826
6820.04,0.02057
6814.26,0.02050
6808.47,0.01738
6802.68,0.01958
6796.9,0.02427
6791.11,0.02219
6785.33,0.02225
6779.54,0.02107
6773.75,0.02236
6767.97,0.01869
6762.18,0.02560
6756.39,0.01876
6750.61,0.02571
6744.82,0.01957
6739.04,0.02318
6733.25,0.02197
6727.46,0.02131
6721.68,0.02033
6715.89,0.01978
6710.1,0.01941
6704.32,0.02436
6698.53,0.01644
6692.75,0.01708
6686.96,0.02101
6681.17,0.01753
6675.39,0.02145
6669.6,0.01748
6663.82,0.02058
6658.03,0.01974
6652.24,0.01821
6646.46,0.02025
6640.67,0.02234
6634.88,0.02196
6629.1,0.02463
6623.31,0.02346
6617.53,0.02095
6611.74,0.02148
6605.95,0.01765
6600.17,0.01520
6594.38,0.01964
6588.59,0.02468
6582.81,0.02086
6577.02,0.02090
6571.24,0.02090
6565.45,0.01745
6559.66,0.01826
6553.88,0.01922
6548.09,0.01828
6542.3,0.02018
6536.52,0.02089
6530.73,0.02358
6524.95,0.01791
6519.16,0.02216
6513.37,0.02053
6507.59,0.02078
6501.8,0.01922
6496.01,0.01856
6490.23,0.01966
6484.44,0.02166
6478.66,0.01880
6472.87,0.02094
6467.08,0.01862
6461.3,0.01834
6455.51,0.01958
6449.72,0.01851
6443.94,0.02118
6438.15,0.01840
6432.37,0.02016
6426.58,0.02145
6420.79,0.02140
6415.01,0.02112
6409.22,0.02334
6403.43,0.01894
6397.65,0.02234
6391.86,0.01895
6386.08,0.01923
6380.29,0.01616
6374.5,0.01867
6368.72,0.02031
6362.93,0.02154
6357.14,0.01984
6351.36,0.02010
6345.57,0.01856
6339.79,0.02117
6334,0.01564
6328.21,0.01830
6322.43,0.01967
6316.64,0.01727
6310.85,0.02001
6305.07,0.01828
6299.28,0.02146
6293.5,0.01838
6287.71,0.02069
6281.92,0.02083
6276.14,0.01794
6270.35,0.01685
6264.56,0.01726
6258.78,0.01599
6252.99,0.01850
6247.21,0.01652
6241.42,0.01764
6235.63,0.01947
6229.85,0.02267
6224.06,0.01876
6218.27,0.02096
6212.49,0.01899
6206.7,0.02012
6200.92,0.01764
6195.13,0.01735
6189.34,0.01694
6183.56,0.02278
6177.77,0.02243
6171.98,0.01782
6166.2,0.02043
6160.41,0.02095
6154.63,0.02000
6148.84,0.01797
6143.05,0.02074
6137.27,0.01822
6131.48,0.01731
6125.7,0.02092
6119.91,0.01890
6114.12,0.01649
6108.34,0.01845
6102.55,0.01989
6096.76,0.01664
6090.98,0.01943
6085.19,0.01752
6079.41,0.01873
6073.62,0.01806
6067.83,0.01727
6062.05,0.01663
6056.26,0.01871
6050.47,0.01698
6044.69,0.01770
6038.9,0.02020
6033.12,0.01739
6027.33,0.01871
6021.54,0.01844
6015.76,0.02080
6009.97,0.02047
6004.18,0.02077
5998.4,0.02144
5992.61,0.01904
5986.83,0.01817
5981.04,0.01948
5975.25,0.02040
5969.47,0.02098
5963.68,0.02011
5957.89,0.02069
5952.11,0.01972
5946.32,0.01983
5940.54,0.01885
5934.75,0.01894
5928.96,0.01557
5923.18,0.02077
5917.39,0.01789
5911.6,0.01994
5905.82,0.01917
5900.03,0.02010
5894.25,0.02077
5888.46,0.02088
5882.67,0.01776
5876.89,0.01870
5871.1,0.02002
5865.31,0.01840
5859.53,0.01726
5853.74,0.01865
5847.96,0.02068
5842.17,0.01917
5836.38,0.02000
5830.6,0.02119
5824.81,0.01578
5819.02,0.01809
5813.24,0.01582
5807.45,0.01827
5801.67,0.01909
5795.88,0.01885
5790.09,0.01856
5784.31,0.02019
5778.52,0.01876
5772.73,0.01828
5766.95,0.01891
5761.16,0.01722
5755.38,0.01870
5749.59,0.01770
5743.8,0.01895
5738.02,0.01739
5732.23,0.02055
5726.44,0.01877
5720.66,0.01957
5714.87,0.01787
5709.09,0.01833
5703.3,0.01673
5697.51,0.02089
5691.73,0.01950
5685.94,0.01954
5680.15,0.01892
5674.37,0.02069
5668.58,0.01890
5662.8,0.01894
5657.01,0.01964
5651.22,0.01794
5645.44,0.01892
5639.65,0.01978
5633.87,0.02044
5628.08,0.01814
5622.29,0.02058
5616.51,0.01836
5610.72,0.01772
5604.93,0.01960
5599.15,0.01858
5593.36,0.01833
5587.58,0.01772
5581.79,0.01945
5576,0.01852
5570.22,0.01890
5564.43,0.01868
5558.64,0.01933
5552.86,0.01858
5547.07,0.01793
5541.29,0.01877
5535.5,0.02011
5529.71,0.01986
5523.93,0.01779
5518.14,0.01849
5512.35,0.02003
5506.57,0.01926
5500.78,0.01923
5495,0.02089
5489.21,0.01814
5483.42,0.01791
5477.64,0.01884
5471.85,0.01882
5466.06,0.01851
5460.28,0.01910
5454.49,0.01976
5448.71,0.01981
5442.92,0.01982
5437.13,0.01939
5431.35,0.01943
5425.56,0.01888
5419.77,0.01717
5413.99,0.01890
5408.2,0.01978
5402.42,0.01988
5396.63,0.01938
5390.84,0.01901
5385.06,0.01982
5379.27,0.01890
5373.48,0.01729
5367.7,0.01918
5361.91,0.01782
5356.13,0.01825
5350.34,0.01862
5344.55,0.02083
5338.77,0.02068
5332.98,0.01954
5327.19,0.01807
5321.41,0.01904
5315.62,0.01803
5309.84,0.01905
5304.05,0.01926
5298.26,0.01855
5292.48,0.01867
5286.69,0.01977
5280.9,0.01827
5275.12,0.01791
5269.33,0.01888
5263.55,0.01973
5257.76,0.01941
5251.97,0.01953
5246.19,0.02013
5240.4,0.01897
5234.61,0.01985
5228.83,0.01919
5223.04,0.01874
5217.26,0.01859
5211.47,0.01948
5205.68,0.02026
5199.9,0.01829
5194.11,0.01754
5188.32,0.01925
5182.54,0.01703
5176.75,0.01891
5170.97,0.01833
5165.18,0.01813
5159.39,0.01836
5153.61,0.01779
5147.82,0.01892
5142.03,0.01907
5136.25,0.01940
5130.46,0.01852
5124.68,0.01904
5118.89,0.01948
5113.1,0.01879
5107.32,0.01703
5101.53,0.01896
5095.75,0.01798
5089.96,0.01865
5084.17,0.01926
5078.39,0.01866
5072.6,0.01932
5066.81,0.02002
5061.03,0.01981
5055.24,0.01892
5049.46,0.01881
5043.67,0.01913
5037.88,0.01904
5032.1,0.01998
5026.31,0.01838
5020.52,0.02101
5014.74,0.01967
5008.95,0.01971
5003.17,0.01842
4997.38,0.01939
4991.59,0.02008
4985.81,0.01883
4980.02,0.01890
4974.23,0.01877
4968.45,0.02006
4962.66,0.01943
4956.88,0.01905
4951.09,0.01907
4945.3,0.01928
4939.52,0.02009
4933.73,0.01941
4927.94,0.01910
4922.16,0.01983
4916.37,0.01949
4910.59,0.01886
4904.8,0.01845
4899.01,0.01841
4893.23,0.02013
4887.44,0.01942
4881.65,0.01955
4875.87,0.01911
4870.08,0.01922
4864.3,0.01968
4858.51,0.01854
4852.72,0.01898
4846.94,0.01976
4841.15,0.01920
4835.36,0.02002
4829.58,0.01962
4823.79,0.01788
4818.01,0.01926
4812.22,0.01852
4806.43,0.01800
4800.65,0.01842
4794.86,0.01900
4789.07,0.01956
4783.29,0.01966
4777.5,0.01974
4771.72,0.01938
4765.93,0.01864
4760.14,0.01927
4754.36,0.01883
4748.57,0.01952
4742.78,0.01928
4737,0.01966
4731.21,0.01958
4725.43,0.01927
4719.64,0.01967
4713.85,0.01922
4708.07,0.01913
4702.28,0.01850
4696.49,0.01986
4690.71,0.01942
4684.92,0.01897
4679.14,0.01963
4673.35,0.01897
4667.56,0.01934
4661.78,0.01881
4655.99,0.01890
4650.2,0.01944
4644.42,0.01900
4638.63,0.01873
4632.85,0.01898
4627.06,0.01866
4621.27,0.01762
4615.49,0.01955
4609.7,0.01860
4603.92,0.01899
4598.13,0.01922
4592.34,0.01893
4586.56,0.01914
4580.77,0.01990
4574.98,0.01902
4569.2,0.01980
4563.41,0.01912
4557.63,0.01900
4551.84,0.02017
4546.05,0.01988
4540.27,0.01865
4534.48,0.01933
4528.69,0.01858
4522.91,0.02030
4517.12,0.01922
4511.34,0.02014
4505.55,0.02048
4499.76,0.01863
4493.98,0.01840
4488.19,0.01907
4482.4,0.01888
4476.62,0.01878
4470.83,0.01893
4465.05,0.01918
4459.26,0.01943
4453.47,0.01984
4447.69,0.01967
4441.9,0.01877
4436.11,0.01925
4430.33,0.01959
4424.54,0.01936
4418.76,0.01898
4412.97,0.01931
4407.18,0.01937
4401.4,0.01914
4395.61,0.01963
4389.82,0.01949
4384.04,0.01957
4378.25,0.01976
4372.47,0.01831
4366.68,0.01936
4360.89,0.01950
4355.11,0.01983
4349.32,0.01863
4343.53,0.01956
4337.75,0.01965
4331.96,0.01970
4326.18,0.01948
4320.39,0.01947
4314.6,0.01902
4308.82,0.02010
4303.03,0.01902
4297.24,0.01935
4291.46,0.01926
4285.67,0.01995
4279.89,0.01920
4274.1,0.01904
4268.31,0.01918
4262.53,0.01893
4256.74,0.01951
4250.95,0.02028
4245.17,0.01918
4239.38,0.01949
4233.6,0.01927
4227.81,0.01938
4222.02,0.01907
4216.24,0.01894
4210.45,0.01917
4204.66,0.01962
4198.88,0.01939
4193.09,0.01952
4187.31,0.01938
4181.52,0.01945
4175.73,0.01919
4169.95,0.01969
4164.16,0.01950
4158.37,0.01906
4152.59,0.01974
4146.8,0.01925
4141.02,0.01974
4135.23,0.01945
4129.44,0.01898
4123.66,0.01902
4117.87,0.01928
4112.09,0.01962
4106.3,0.01994
4100.51,0.01980
4094.73,0.01984
4088.94,0.01935
4083.15,0.01942
4077.37,0.01929
4071.58,0.01977
4065.8,0.02023
4060.01,0.01924
4054.22,0.01997
4048.44,0.01965
4042.65,0.01924
4036.86,0.01991
4031.08,0.01915
4025.29,0.01897
4019.51,0.01958
4013.72,0.01953
4007.93,0.01968
4002.15,0.01990
3996.36,0.02017
3990.57,0.01941
3984.79,0.01988
3979,0.01969
3973.22,0.01926
3967.43,0.01964
3961.64,0.01992
3955.86,0.01948
3950.07,0.01948
3944.28,0.01940
3938.5,0.01882
3932.71,0.01945
3926.93,0.01950
3921.14,0.01958
3915.35,0.01942
3909.57,0.01999
3903.78,0.01974
3897.99,0.01970
3892.21,0.01977
3886.42,0.01962
3880.64,0.01952
3874.85,0.01969
3869.06,0.01986
3863.28,0.01906
3857.49,0.01916
3851.7,0.01920
3845.92,0.01943
3840.13,0.02015
3834.35,0.01979
3828.56,0.01945
3822.77,0.01993
3816.99,0.01971
3811.2,0.01974
3805.41,0.01968
3799.63,0.01968
3793.84,0.01994
3788.06,0.01959
3782.27,0.01910
3776.48,0.01965
3770.7,0.01926
3764.91,0.01930
3759.12,0.01919
3753.34,0.01980
3747.55,0.01989
3741.77,0.01954
3735.98,0.01930
3730.19,0.01846
3724.41,0.01940
3718.62,0.01890
3712.83,0.01968
3707.05,0.01947
3701.26,0.01991
3695.48,0.01973
3689.69,0.01976
3683.9,0.01868
3678.12,0.01935
3672.33,0.01922
3666.54,0.01873
3660.76,0.01918
3654.97,0.01888
3649.19,0.01857
3643.4,0.01877
3637.61,0.01870
3631.83,0.01937
3626.04,0.01893
3620.25,0.01859
3614.47,0.01879
3608.68,0.01873
3602.9,0.01849
3597.11,0.01914
3591.32,0.01898
3585.54,0.01793
3579.75,0.01786
3573.97,0.01860
3568.18,0.01849
3562.39,0.01821
3556.61,0.01834
3550.82,0.01818
3545.03,0.01839
3539.25,0.01847
3533.46,0.01813
3527.68,0.01863
3521.89,0.01826
3516.1,0.01778
3510.32,0.01810
3504.53,0.01758
3498.74,0.01814
3492.96,0.01789
3487.17,0.01805
3481.39,0.01768
3475.6,0.01758
3469.81,0.01749
3464.03,0.01688
3458.24,0.01791
3452.45,0.01741
3446.67,0.01703
3440.88,0.01737
3435.1,0.01698
3429.31,0.01742
3423.52,0.01720
3417.74,0.01758
3411.95,0.01742
3406.16,0.01707
3400.38,0.01696
3394.59,0.01708
3388.81,0.01762
3383.02,0.01723
3377.23,0.01720
3371.45,0.01736
3365.66,0.01680
3359.87,0.01697
3354.09,0.01744
3348.3,0.01791
3342.52,0.01728
3336.73,0.01699
3330.94,0.01675
3325.16,0.01694
3319.37,0.01814
3313.58,0.01738
3307.8,0.01693
3302.01,0.01724
3296.23,0.01684
3290.44,0.01711
3284.65,0.01713
3278.87,0.01716
3273.08,0.01736
3267.29,0.01775
3261.51,0.01816
3255.72,0.01695
3249.94,0.01780
3244.15,0.01839
3238.36,0.01653
3232.58,0.01752
3226.79,0.01777
3221,0.01717
3215.22,0.01730
3209.43,0.01651
3203.65,0.01793
3197.86,0.01778
3192.07,0.01718
3186.29,0.01768
3180.5,0.01706
3174.71,0.01718
3168.93,0.01772
3163.14,0.01751
3157.36,0.01754
3151.57,0.01776
3145.78,0.01744
3140,0.01739
3134.21,0.01799
3128.42,0.01785
3122.64,0.01728
3116.85,0.01788
3111.07,0.01867
3105.28,0.01698
3099.49,0.01751
3093.71,0.01732
3087.92,0.01732
3082.14,0.01733
3076.35,0.01735
3070.56,0.01749
3064.78,0.01735
3058.99,0.01732
3053.2,0.01735
3047.42,0.01745
3041.63,0.01711
3035.85,0.01760
3030.06,0.01693
3024.27,0.01750
3018.49,0.01749
3012.7,0.01734
3006.91,0.01725
3001.13,0.01741
2995.34,0.01730
2989.56,0.01709
2983.77,0.01658
2977.98,0.01694
2972.2,0.01645
2966.41,0.01662
2960.62,0.01642
2954.84,0.01659
2949.05,0.01585
2943.27,0.01639
2937.48,0.01662
2931.69,0.01618
2925.91,0.01697
2920.12,0.01681
2914.33,0.01761
2908.55,0.01775
2902.76,0.01765
2896.98,0.01733
2891.19,0.01743
2885.4,0.01737
2879.62,0.01731
2873.83,0.01690
2868.04,0.01759
2862.26,0.01777
2856.47,0.01740
2850.69,0.01754
2844.9,0.01825
2839.11,0.01824
2833.33,0.01810
2827.54,0.01801
2821.75,0.01834
2815.97,0.01788
2810.18,0.01789
2804.4,0.01830
2798.61,0.01828
2792.82,0.01815
2787.04,0.01825
2781.25,0.01862
2775.46,0.01832
2769.68,0.01792
2763.89,0.01782
2758.11,0.01839
2752.32,0.01815
2746.53,0.01837
2740.75,0.01810
2734.96,0.01836
2729.17,0.01826
2723.39,0.01785
2717.6,0.01818
2711.82,0.01802
2706.03,0.01752
2700.24,0.01808
2694.46,0.01826
2688.67,0.01805
2682.88,0.01836
2677.1,0.01819
2671.31,0.01829
2665.53,0.01826
2659.74,0.01819
2653.95,0.01812
2648.17,0.01776
2642.38,0.01806
2636.59,0.01791
2630.81,0.01824
2625.02,0.01802
2619.24,0.01808
2613.45,0.01773
2607.66,0.01772
2601.88,0.01835
2596.09,0.01775
2590.3,0.01794
2584.52,0.01824
2578.73,0.01858
2572.95,0.01805
2567.16,0.01840
2561.37,0.01798
2555.59,0.01771
2549.8,0.01782
2544.02,0.01818
2538.23,0.01829
2532.44,0.01794
2526.66,0.01826
2520.87,0.01821
2515.08,0.01801
2509.3,0.01794
2503.51,0.01769
2497.73,0.01835
2491.94,0.01833
2486.15,0.01819
2480.37,0.01793
2474.58,0.01850
2468.79,0.01809
2463.01,0.01812
2457.22,0.01826
2451.44,0.01778
2445.65,0.01794
2439.86,0.01796
2434.08,0.01775
2428.29,0.01835
2422.5,0.01810
2416.72,0.01805
2410.93,0.01824
2405.15,0.01769
2399.36,0.01789
2393.57,0.01776
2387.79,0.01781
2382,0.01788
2376.21,0.01797
2370.43,0.01802
2364.64,0.01781
2358.86,0.01782
2353.07,0.01801
2347.28,0.01799
2341.5,0.01782
2335.71,0.01810
2329.92,0.01796
2324.14,0.01845
2318.35,0.01812
2312.57,0.01803
2306.78,0.01763
2300.99,0.01775
2295.21,0.01767
2289.42,0.01805
2283.63,0.01781
2277.85,0.01800
2272.06,0.01785
2266.28,0.01782
2260.49,0.01764
2254.7,0.01802
2248.92,0.01817
2243.13,0.01787
2237.34,0.01786
2231.56,0.01783
2225.77,0.01801
2219.99,0.01799
2214.2,0.01794
2208.41,0.01820
2202.63,0.01815
2196.84,0.01799
2191.05,0.01816
2185.27,0.01794
2179.48,0.01804
2173.7,0.01743
2167.91,0.01776
2162.12,0.01773
2156.34,0.01788
2150.55,0.01803
2144.76,0.01807
2138.98,0.01790
2133.19,0.01772
2127.41,0.01755
2121.62,0.01795
2115.83,0.01778
2110.05,0.01769
2104.26,0.01774
2098.47,0.01794
2092.69,0.01795
2086.9,0.01802
2081.12,0.01763
2075.33,0.01768
2069.54,0.01786
2063.76,0.01795
2057.97,0.01768
2052.19,0.01749
2046.4,0.01754
2040.61,0.01827
2034.83,0.01712
2029.04,0.01769
2023.25,0.01779
2017.47,0.01793
2011.68,0.01782
2005.9,0.01784
2000.11,0.01790
1994.32,0.01761
1988.54,0.01772
1982.75,0.01785
1976.96,0.01801
1971.18,0.01781
1965.39,0.01795
1959.61,0.01764
1953.82,0.01777
1948.03,0.01768
1942.25,0.01780
1936.46,0.01762
1930.67,0.01760
1924.89,0.01744
1919.1,0.01753
1913.32,0.01730
1907.53,0.01751
1901.74,0.01741
1895.96,0.01750
1890.17,0.01735
1884.38,0.01722
1878.6,0.01755
1872.81,0.01741
1867.03,0.01733
1861.24,0.01725
1855.45,0.01726
1849.67,0.01708
1843.88,0.01723
1838.09,0.01689
1832.31,0.01683
1826.52,0.01708
1820.74,0.01679
1814.95,0.01673
1809.16,0.01667
1803.38,0.01696
1797.59,0.01650
1791.8,0.01637
1786.02,0.01615
1780.23,0.01604
1774.45,0.01572
1768.66,0.01536
1762.87,0.01521
1757.09,0.01456
1751.3,0.01418
1745.51,0.01467
1739.73,0.01556
1733.94,0.01641
1728.16,0.01705
1722.37,0.01801
1716.58,0.01792
1710.8,0.01741
1705.01,0.01690
1699.22,0.01674
1693.44,0.01605
1687.65,0.01628
1681.87,0.01563
1676.08,0.01579
1670.29,0.01564
1664.51,0.01525
1658.72,0.01516
1652.93,0.01575
1647.15,0.01528
1641.36,0.01527
1635.58,0.01549
1629.79,0.01512
1624,0.01594
1618.22,0.01600
1612.43,0.01582
1606.64,0.01599
1600.86,0.01572
1595.07,0.01566
1589.29,0.01567
1583.5,0.01576
1577.71,0.01583
1571.93,0.01531
1566.14,0.01513
1560.35,0.01512
1554.57,0.01446
1548.78,0.01498
1543,0.01554
1537.21,0.01532
1531.42,0.01560
1525.64,0.01551
1519.85,0.01529
1514.07,0.01570
1508.28,0.01600
1502.49,0.01529
1496.71,0.01582
1490.92,0.01553
1485.13,0.01542
1479.35,0.01542
1473.56,0.01531
1467.78,0.01549
1461.99,0.01539
1456.2,0.01532
1450.42,0.01525
1444.63,0.01552
1438.84,0.01529
1433.06,0.01573
1427.27,0.01560
1421.49,0.01530
1415.7,0.01520
1409.91,0.01529
1404.13,0.01485
1398.34,0.01495
1392.55,0.01498
1386.77,0.01515
1380.98,0.01546
1375.2,0.01501
1369.41,0.01545
1363.62,0.01492
1357.84,0.01481
1352.05,0.01475
1346.26,0.01484
1340.48,0.01433
1334.69,0.01459
1328.91,0.01475
1323.12,0.01436
1317.33,0.01403
1311.55,0.01400
1305.76,0.01418
1299.97,0.01436
1294.19,0.01491
1288.4,0.01498
1282.62,0.01576
1276.83,0.01613
1271.04,0.01627
1265.26,0.01678
1259.47,0.01695
1253.68,0.01738
1247.9,0.01715
1242.11,0.01651
1236.33,0.01665
1230.54,0.01657
1224.75,0.01599
1218.97,0.01637
1213.18,0.01580
1207.39,0.01577
1201.61,0.01580
1195.82,0.01569
1190.04,0.01512
1184.25,0.01500
1178.46,0.01472
1172.68,0.01519
1166.89,0.01478
1161.1,0.01502
1155.32,0.01464
1149.53,0.01472
1143.75,0.01464
1137.96,0.01506
1132.17,0.01504
1126.39,0.01551
1120.6,0.01596
1114.81,0.01655
1109.03,0.01596
1103.24,0.01549
1097.46,0.01574
1091.67,0.01553
1085.88,0.01533
1080.1,0.01524
1074.31,0.01600
1068.52,0.01717
1062.74,0.01681
1056.95,0.01639
1051.17,0.01617
1045.38,0.01657
1039.59,0.01656
1033.81,0.01616
1028.02,0.01638
1022.24,0.01608
1016.45,0.01608
1010.66,0.01749
1004.88,0.01775
999.09,0.01821
993.304,0.01775
987.518,0.01775
981.731,0.01760
975.945,0.01743
970.159,0.01733
964.373,0.01718
958.586,0.01783
952.8,0.01708
947.014,0.01690
941.228,0.01679
935.441,0.01632
929.655,0.01591
923.869,0.01627
918.083,0.01620
912.297,0.01613
906.51,0.01590
900.724,0.01629
894.938,0.01586
889.152,0.01644
883.365,0.01571
877.579,0.01564
871.793,0.01550
866.007,0.01616
860.22,0.01574
854.434,0.01593
848.648,0.01636
842.862,0.01650
837.075,0.01639
831.289,0.01589
825.503,0.01625
819.717,0.01557
813.931,0.01571
808.144,0.01602
802.358,0.01655
796.572,0.01633
790.786,0.01564
784.999,0.01588
779.213,0.01568
773.427,0.01492
767.641,0.01505
761.854,0.01434
756.068,0.01487
750.282,0.01548
744.496,0.01545
738.709,0.01581
732.923,0.01555
727.137,0.01575
721.351,0.01601
715.565,0.01476
709.778,0.01457
703.992,0.01357
698.206,0.01517
692.42,0.01522
686.633,0.01494
680.847,0.01521
675.061,0.01513
669.275,0.01389
663.488,0.01581
657.702,0.01478
651.916,0.01344
646.13,0.01302
640.343,0.01421
634.557,0.01407
628.771,0.01279
622.985,0.01469
617.198,0.01512
611.412,0.01273
605.626,0.01507
599.84,0.01133