File: 01_Data/Vinyl_Plank_Flooring/FTIR/IS/Vinyl_Plank_Flooring_IS_S_220819_R3.dpt
7497.03,0.50924
7491.25,0.49715
7485.46,0.49839
7479.67,0.49582
7473.89,0.49556
7468.1,0.49832
7462.32,0.50314
7456.53,0.49980
7450.74,0.50163
7444.96,0.49667
7439.17,0.50408
7433.38,0.49470
7427.6,0.49089
7421.81,0.49659
7416.03,0.49794
7410.24,0.48590
7404.45,0.49616
7398.67,0.50245
7392.88,0.49316
7387.09,0.48134
7381.31,0.48385
7375.52,0.48239
7369.74,0.47439
7363.95,0.47338
7358.16,0.46753
7352.38,0.47704
7346.59,0.47304
7340.8,0.47198
7335.02,0.47209
7329.23,0.46811
7323.45,0.46731
7317.66,0.46204
7311.87,0.45917
7306.09,0.46238
7300.3,0.45892
7294.51,0.45157
7288.73,0.45462
7282.94,0.45079
7277.16,0.44891
7271.37,0.44245
7265.58,0.43453
7259.8,0.43797
7254.01,0.43365
7248.22,0.43280
7242.44,0.43172
7236.65,0.43248
7230.87,0.42845
7225.08,0.42770
7219.29,0.43132
7213.51,0.41902
7207.72,0.41812
7201.93,0.42082
7196.15,0.42329
7190.36,0.42136
7184.58,0.41900
7178.79,0.41739
7173,0.41759
7167.22,0.41872
7161.43,0.41986
7155.65,0.41318
7149.86,0.41713
7144.07,0.41009
7138.29,0.42019
7132.5,0.41777
7126.71,0.41625
7120.93,0.41671
7115.14,0.42452
7109.36,0.41459
7103.57,0.41469
7097.78,0.41911
7092,0.41118
7086.21,0.41527
7080.42,0.41280
7074.64,0.41359
7068.85,0.41332
7063.07,0.41350
7057.28,0.42386
7051.49,0.42040
7045.71,0.41991
7039.92,0.41509
7034.13,0.42231
7028.35,0.42062
7022.56,0.41778
7016.78,0.41698
7010.99,0.41371
7005.2,0.41610
6999.42,0.41838
6993.63,0.41364
6987.84,0.42180
6982.06,0.42359
6976.27,0.42780
6970.49,0.43111
6964.7,0.43289
6958.91,0.43350
6953.13,0.43267
6947.34,0.43736
6941.55,0.43320
6935.77,0.44373
6929.98,0.43987
6924.2,0.43529
6918.41,0.44547
6912.62,0.44509
6906.84,0.44188
6901.05,0.44438
6895.26,0.44667
6889.48,0.44435
6883.69,0.45205
6877.91,0.45174
6872.12,0.45210
6866.33,0.45124
6860.55,0.45727
6854.76,0.45508
6848.97,0.45836
6843.19,0.45677
6837.4,0.45705
6831.62,0.45786
6825.83,0.46222
6820.04,0.45642
6814.26,0.46049
6808.47,0.46336
6802.68,0.46197
6796.9,0.46422
6791.11,0.45966
6785.33,0.46457
6779.54,0.46231
6773.75,0.46556
6767.97,0.46169
6762.18,0.46949
6756.39,0.47161
6750.61,0.47235
6744.82,0.46866
6739.04,0.46866
6733.25,0.46774
6727.46,0.47178
6721.68,0.47371
6715.89,0.47664
6710.1,0.47297
6704.32,0.47144
6698.53,0.47342
6692.75,0.47217
6686.96,0.47643
6681.17,0.47595
6675.39,0.47455
6669.6,0.47478
6663.82,0.47665
6658.03,0.47590
6652.24,0.47726
6646.46,0.47873
6640.67,0.47562
6634.88,0.48273
6629.1,0.47804
6623.31,0.47945
6617.53,0.48264
6611.74,0.48203
6605.95,0.48432
6600.17,0.47582
6594.38,0.48570
6588.59,0.47897
6582.81,0.48067
6577.02,0.48357
6571.24,0.48670
6565.45,0.48265
6559.66,0.48181
6553.88,0.48489
6548.09,0.48134
6542.3,0.48306
6536.52,0.48466
6530.73,0.48653
6524.95,0.48459
6519.16,0.48512
6513.37,0.48315
6507.59,0.48656
6501.8,0.48760
6496.01,0.48863
6490.23,0.48810
6484.44,0.48801
6478.66,0.49010
6472.87,0.49159
6467.08,0.48539
6461.3,0.49040
6455.51,0.48753
6449.72,0.48958
6443.94,0.48813
6438.15,0.49372
6432.37,0.49025
6426.58,0.49237
6420.79,0.49292
6415.01,0.49004
6409.22,0.48832
6403.43,0.49138
6397.65,0.48919
6391.86,0.49007
6386.08,0.48854
6380.29,0.49251
6374.5,0.49078
6368.72,0.49313
6362.93,0.48973
6357.14,0.48900
6351.36,0.49012
6345.57,0.48988
6339.79,0.49119
6334,0.49001
6328.21,0.49381
6322.43,0.49617
6316.64,0.49201
6310.85,0.49088
6305.07,0.49366
6299.28,0.49311
6293.5,0.49212
6287.71,0.48995
6281.92,0.49305
6276.14,0.49454
6270.35,0.49132
6264.56,0.49630
6258.78,0.49547
6252.99,0.49188
6247.21,0.49056
6241.42,0.49303
6235.63,0.49462
6229.85,0.49358
6224.06,0.49118
6218.27,0.49086
6212.49,0.48830
6206.7,0.48777
6200.92,0.48399
6195.13,0.48160
6189.34,0.47939
6183.56,0.48231
6177.77,0.48347
6171.98,0.48076
6166.2,0.48068
6160.41,0.48065
6154.63,0.47948
6148.84,0.47883
6143.05,0.47773
6137.27,0.47279
6131.48,0.47071
6125.7,0.46806
6119.91,0.46856
6114.12,0.46352
6108.34,0.45848
6102.55,0.45054
6096.76,0.44498
6090.98,0.43353
6085.19,0.42490
6079.41,0.41519
6073.62,0.40766
6067.83,0.39592
6062.05,0.38502
6056.26,0.37420
6050.47,0.35960
6044.69,0.35321
6038.9,0.34711
6033.12,0.34275
6027.33,0.33291
6021.54,0.32368
6015.76,0.32142
6009.97,0.32369
6004.18,0.32942
5998.4,0.34113
5992.61,0.35393
5986.83,0.36294
5981.04,0.37388
5975.25,0.37444
5969.47,0.37523
5963.68,0.37265
5957.89,0.37175
5952.11,0.36353
5946.32,0.35282
5940.54,0.33848
5934.75,0.32691
5928.96,0.31356
5923.18,0.30299
5917.39,0.29311
5911.6,0.28354
5905.82,0.27515
5900.03,0.26772
5894.25,0.25296
5888.46,0.24060
5882.67,0.22949
5876.89,0.22233
5871.1,0.21513
5865.31,0.20631
5859.53,0.19680
5853.74,0.18876
5847.96,0.18321
5842.17,0.17300
5836.38,0.16265
5830.6,0.15729
5824.81,0.15585
5819.02,0.16158
5813.24,0.17078
5807.45,0.18032
5801.67,0.18739
5795.88,0.19859
5790.09,0.20924
5784.31,0.21682
5778.52,0.22673
5772.73,0.23137
5766.95,0.23029
5761.16,0.23433
5755.38,0.23202
5749.59,0.22796
5743.8,0.22795
5738.02,0.22381
5732.23,0.22592
5726.44,0.22759
5720.66,0.22792
5714.87,0.22641
5709.09,0.22849
5703.3,0.22641
5697.51,0.22729
5691.73,0.23227
5685.94,0.23702
5680.15,0.24319
5674.37,0.25035
5668.58,0.25382
5662.8,0.25723
5657.01,0.25891
5651.22,0.25951
5645.44,0.26310
5639.65,0.26703
5633.87,0.27126
5628.08,0.27584
5622.29,0.28159
5616.51,0.28380
5610.72,0.28679
5604.93,0.28897
5599.15,0.29021
5593.36,0.29333
5587.58,0.29685
5581.79,0.29893
5576,0.30130
5570.22,0.30372
5564.43,0.30334
5558.64,0.30607
5552.86,0.30915
5547.07,0.31012
5541.29,0.31191
5535.5,0.31101
5529.71,0.31140
5523.93,0.31513
5518.14,0.31577
5512.35,0.31394
5506.57,0.31385
5500.78,0.31474
5495,0.31544
5489.21,0.31613
5483.42,0.31491
5477.64,0.31249
5471.85,0.31251
5466.06,0.31237
5460.28,0.31516
5454.49,0.31799
5448.71,0.31891
5442.92,0.32433
5437.13,0.32559
5431.35,0.33107
5425.56,0.33358
5419.77,0.33430
5413.99,0.33658
5408.2,0.33837
5402.42,0.33659
5396.63,0.33879
5390.84,0.33987
5385.06,0.34169
5379.27,0.34396
5373.48,0.34624
5367.7,0.34939
5361.91,0.35007
5356.13,0.35106
5350.34,0.35399
5344.55,0.35369
5338.77,0.35393
5332.98,0.35560
5327.19,0.35563
5321.41,0.35830
5315.62,0.36007
5309.84,0.35945
5304.05,0.36067
5298.26,0.36171
5292.48,0.35984
5286.69,0.35761
5280.9,0.35404
5275.12,0.35170
5269.33,0.34734
5263.55,0.34450
5257.76,0.34323
5251.97,0.34538
5246.19,0.34569
5240.4,0.34633
5234.61,0.34807
5228.83,0.34926
5223.04,0.35192
5217.26,0.35166
5211.47,0.35179
5205.68,0.35070
5199.9,0.35108
5194.11,0.35125
5188.32,0.35073
5182.54,0.34960
5176.75,0.34890
5170.97,0.34980
5165.18,0.34901
5159.39,0.34714
5153.61,0.34931
5147.82,0.34886
5142.03,0.34953
5136.25,0.34841
5130.46,0.34584
5124.68,0.34585
5118.89,0.34507
5113.1,0.34512
5107.32,0.34533
5101.53,0.34563
5095.75,0.34576
5089.96,0.34810
5084.17,0.34909
5078.39,0.34997
5072.6,0.35357
5066.81,0.35397
5061.03,0.35421
5055.24,0.35505
5049.46,0.35504
5043.67,0.35599
5037.88,0.35441
5032.1,0.35666
5026.31,0.35680
5020.52,0.35707
5014.74,0.35693
5008.95,0.35565
5003.17,0.35463
4997.38,0.35402
4991.59,0.35415
4985.81,0.35582
4980.02,0.35408
4974.23,0.35517
4968.45,0.35638
4962.66,0.35842
4956.88,0.35693
4951.09,0.35627
4945.3,0.35607
4939.52,0.35579
4933.73,0.35480
4927.94,0.35457
4922.16,0.35401
4916.37,0.35433
4910.59,0.35482
4904.8,0.35570
4899.01,0.35462
4893.23,0.35479
4887.44,0.35518
4881.65,0.35537
4875.87,0.35503
4870.08,0.35507
4864.3,0.35408
4858.51,0.35460
4852.72,0.35503
4846.94,0.35638
4841.15,0.35748
4835.36,0.35709
4829.58,0.35685
4823.79,0.35421
4818.01,0.35295
4812.22,0.35138
4806.43,0.35184
4800.65,0.34957
4794.86,0.34855
4789.07,0.34700
4783.29,0.34630
4777.5,0.34718
4771.72,0.34857
4765.93,0.35106
4760.14,0.35187
4754.36,0.35055
4748.57,0.34830
4742.78,0.34506
4737,0.33995
4731.21,0.33373
4725.43,0.32306
4719.64,0.31164
4713.85,0.30503
4708.07,0.30105
4702.28,0.29516
4696.49,0.28143
4690.71,0.26635
4684.92,0.25937
4679.14,0.26376
4673.35,0.27349
4667.56,0.28125
4661.78,0.28511
4655.99,0.28461
4650.2,0.28484
4644.42,0.27981
4638.63,0.26822
4632.85,0.25785
4627.06,0.26302
4621.27,0.27791
4615.49,0.29218
4609.7,0.30033
4603.92,0.30414
4598.13,0.30599
4592.34,0.30128
4586.56,0.29775
4580.77,0.29690
4574.98,0.29324
4569.2,0.29835
4563.41,0.30735
4557.63,0.31158
4551.84,0.31119
4546.05,0.30946
4540.27,0.30661
4534.48,0.30508
4528.69,0.30241
4522.91,0.29814
4517.12,0.29422
4511.34,0.28871
4505.55,0.28157
4499.76,0.27221
4493.98,0.26028
4488.19,0.24834
4482.4,0.24286
4476.62,0.23851
4470.83,0.23232
4465.05,0.22545
4459.26,0.21476
4453.47,0.20225
4447.69,0.18922
4441.9,0.17424
4436.11,0.15973
4430.33,0.14630
4424.54,0.13337
4418.76,0.12333
4412.97,0.11395
4407.18,0.10683
4401.4,0.10085
4395.61,0.09816
4389.82,0.09693
4384.04,0.09304
4378.25,0.08669
4372.47,0.08112
4366.68,0.07480
4360.89,0.07004
4355.11,0.06660
4349.32,0.06430
4343.53,0.06154
4337.75,0.06000
4331.96,0.05882
4326.18,0.06073
4320.39,0.06423
4314.6,0.06749
4308.82,0.06995
4303.03,0.07122
4297.24,0.07169
4291.46,0.07144
4285.67,0.07145
4279.89,0.07056
4274.1,0.07190
4268.31,0.07242
4262.53,0.07421
4256.74,0.07386
4250.95,0.07371
4245.17,0.07318
4239.38,0.07272
4233.6,0.07152
4227.81,0.07130
4222.02,0.07020
4216.24,0.07039
4210.45,0.07048
4204.66,0.07183
4198.88,0.07302
4193.09,0.07510
4187.31,0.07644
4181.52,0.07506
4175.73,0.07381
4169.95,0.07414
4164.16,0.07520
4158.37,0.07838
4152.59,0.08040
4146.8,0.08416
4141.02,0.08617
4135.23,0.08919
4129.44,0.09168
4123.66,0.09150
4117.87,0.08975
4112.09,0.08899
4106.3,0.08675
4100.51,0.08481
4094.73,0.08149
4088.94,0.07645
4083.15,0.07330
4077.37,0.07562
4071.58,0.08042
4065.8,0.08434
4060.01,0.08957
4054.22,0.09257
4048.44,0.09502
4042.65,0.09599
4036.86,0.09742
4031.08,0.09733
4025.29,0.09683
4019.51,0.09717
4013.72,0.09896
4007.93,0.10085
4002.15,0.10356
3996.36,0.10645
3990.57,0.10966
3984.79,0.11222
3979,0.11444
3973.22,0.11615
3967.43,0.11789
3961.64,0.11873
3955.86,0.11869
3950.07,0.11867
3944.28,0.11844
3938.5,0.11838
3932.71,0.11993
3926.93,0.12101
3921.14,0.12245
3915.35,0.12303
3909.57,0.12541
3903.78,0.12662
3897.99,0.12831
3892.21,0.12987
3886.42,0.13129
3880.64,0.13257
3874.85,0.13302
3869.06,0.13359
3863.28,0.13332
3857.49,0.13369
3851.7,0.13365
3845.92,0.13484
3840.13,0.13625
3834.35,0.13789
3828.56,0.13878
3822.77,0.14058
3816.99,0.14200
3811.2,0.14332
3805.41,0.14413
3799.63,0.14600
3793.84,0.14981
3788.06,0.15213
3782.27,0.15380
3776.48,0.15410
3770.7,0.15362
3764.91,0.15278
3759.12,0.15096
3753.34,0.15202
3747.55,0.15592
3741.77,0.15897
3735.98,0.15937
3730.19,0.16077
3724.41,0.16441
3718.62,0.16477
3712.83,0.16087
3707.05,0.15425
3701.26,0.14414
3695.48,0.13159
3689.69,0.11752
3683.9,0.10637
3678.12,0.10256
3672.33,0.10135
3666.54,0.10222
3660.76,0.10375
3654.97,0.10514
3649.19,0.10565
3643.4,0.10599
3637.61,0.10546
3631.83,0.10345
3626.04,0.10059
3620.25,0.09722
3614.47,0.09493
3608.68,0.09285
3602.9,0.09108
3597.11,0.08909
3591.32,0.08756
3585.54,0.08615
3579.75,0.08431
3573.97,0.08159
3568.18,0.07887
3562.39,0.07652
3556.61,0.07349
3550.82,0.07189
3545.03,0.07102
3539.25,0.06978
3533.46,0.06950
3527.68,0.06999
3521.89,0.06940
3516.1,0.06911
3510.32,0.06932
3504.53,0.06848
3498.74,0.06801
3492.96,0.06749
3487.17,0.06729
3481.39,0.06635
3475.6,0.06567
3469.81,0.06455
3464.03,0.06409
3458.24,0.06222
3452.45,0.06006
3446.67,0.05830
3440.88,0.05557
3435.1,0.05403
3429.31,0.05174
3423.52,0.05100
3417.74,0.05105
3411.95,0.05128
3406.16,0.05193
3400.38,0.05210
3394.59,0.05212
3388.81,0.05416
3383.02,0.05428
3377.23,0.05621
3371.45,0.05693
3365.66,0.05745
3359.87,0.05782
3354.09,0.05850
3348.3,0.05789
3342.52,0.05752
3336.73,0.05755
3330.94,0.05664
3325.16,0.05636
3319.37,0.05647
3313.58,0.05624
3307.8,0.05731
3302.01,0.05673
3296.23,0.05667
3290.44,0.05700
3284.65,0.05835
3278.87,0.05955
3273.08,0.06046
3267.29,0.06031
3261.51,0.06046
3255.72,0.06098
3249.94,0.06013
3244.15,0.06033
3238.36,0.05892
3232.58,0.05854
3226.79,0.05698
3221,0.05647
3215.22,0.05649
3209.43,0.05526
3203.65,0.05550
3197.86,0.05554
3192.07,0.05544
3186.29,0.05586
3180.5,0.05661
3174.71,0.05646
3168.93,0.05752
3163.14,0.05842
3157.36,0.05753
3151.57,0.05848
3145.78,0.05675
3140,0.05763
3134.21,0.05737
3128.42,0.05669
3122.64,0.05586
3116.85,0.05708
3111.07,0.05571
3105.28,0.05523
3099.49,0.05384
3093.71,0.05250
3087.92,0.05238
3082.14,0.05115
3076.35,0.05017
3070.56,0.04976
3064.78,0.04876
3058.99,0.04863
3053.2,0.04831
3047.42,0.04903
3041.63,0.04889
3035.85,0.04837
3030.06,0.04776
3024.27,0.04704
3018.49,0.04608
3012.7,0.04610
3006.91,0.04524
3001.13,0.04442
2995.34,0.04386
2989.56,0.04440
2983.77,0.04367
2977.98,0.04352
2972.2,0.04369
2966.41,0.04434
2960.62,0.04472
2954.84,0.04507
2949.05,0.04489
2943.27,0.04520
2937.48,0.04531
2931.69,0.04605
2925.91,0.04701
2920.12,0.04823
2914.33,0.04832
2908.55,0.04855
2902.76,0.04843
2896.98,0.04806
2891.19,0.04763
2885.4,0.04777
2879.62,0.04790
2873.83,0.04753
2868.04,0.04773
2862.26,0.04850
2856.47,0.04939
2850.69,0.05013
2844.9,0.05010
2839.11,0.04982
2833.33,0.04939
2827.54,0.04908
2821.75,0.04963
2815.97,0.04909
2810.18,0.04913
2804.4,0.04948
2798.61,0.05061
2792.82,0.05152
2787.04,0.05192
2781.25,0.05273
2775.46,0.05373
2769.68,0.05368
2763.89,0.05393
2758.11,0.05420
2752.32,0.05413
2746.53,0.05331
2740.75,0.05308
2734.96,0.05254
2729.17,0.05346
2723.39,0.05474
2717.6,0.05632
2711.82,0.05758
2706.03,0.05889
2700.24,0.05937
2694.46,0.05983
2688.67,0.06023
2682.88,0.05978
2677.1,0.05971
2671.31,0.05946
2665.53,0.05964
2659.74,0.06130
2653.95,0.06271
2648.17,0.06313
2642.38,0.06290
2636.59,0.06111
2630.81,0.05883
2625.02,0.05734
2619.24,0.05648
2613.45,0.05577
2607.66,0.05447
2601.88,0.05401
2596.09,0.05406
2590.3,0.05386
2584.52,0.05315
2578.73,0.05337
2572.95,0.05328
2567.16,0.05315
2561.37,0.05366
2555.59,0.05319
2549.8,0.05334
2544.02,0.05313
2538.23,0.05297
2532.44,0.05178
2526.66,0.05088
2520.87,0.05075
2515.08,0.05104
2509.3,0.05137
2503.51,0.05203
2497.73,0.05348
2491.94,0.05465
2486.15,0.05714
2480.37,0.05974
2474.58,0.06334
2468.79,0.06580
2463.01,0.06760
2457.22,0.06898
2451.44,0.06915
2445.65,0.06940
2439.86,0.06910
2434.08,0.06839
2428.29,0.06789
2422.5,0.06620
2416.72,0.06572
2410.93,0.06479
2405.15,0.06357
2399.36,0.06318
2393.57,0.06215
2387.79,0.06131
2382,0.06166
2376.21,0.06211
2370.43,0.06366
2364.64,0.06516
2358.86,0.06684
2353.07,0.06860
2347.28,0.07060
2341.5,0.07271
2335.71,0.07494
2329.92,0.07623
2324.14,0.07596
2318.35,0.07708
2312.57,0.07844
2306.78,0.07829
2300.99,0.07703
2295.21,0.07574
2289.42,0.07296
2283.63,0.07087
2277.85,0.06907
2272.06,0.07016
2266.28,0.07160
2260.49,0.07232
2254.7,0.07159
2248.92,0.06979
2243.13,0.06719
2237.34,0.06544
2231.56,0.06471
2225.77,0.06450
2219.99,0.06515
2214.2,0.06541
2208.41,0.06551
2202.63,0.06815
2196.84,0.07160
2191.05,0.07450
2185.27,0.07687
2179.48,0.07907
2173.7,0.07999
2167.91,0.07966
2162.12,0.07886
2156.34,0.07677
2150.55,0.07529
2144.76,0.07362
2138.98,0.07314
2133.19,0.07340
2127.41,0.07400
2121.62,0.07520
2115.83,0.07579
2110.05,0.07600
2104.26,0.07690
2098.47,0.07673
2092.69,0.07646
2086.9,0.07607
2081.12,0.07505
2075.33,0.07424
2069.54,0.07388
2063.76,0.07407
2057.97,0.07483
2052.19,0.07562
2046.4,0.07692
2040.61,0.07771
2034.83,0.07887
2029.04,0.07996
2023.25,0.08091
2017.47,0.08168
2011.68,0.08190
2005.9,0.08152
2000.11,0.08053
1994.32,0.07759
1988.54,0.07459
1982.75,0.07358
1976.96,0.07200
1971.18,0.06885
1965.39,0.06450
1959.61,0.05968
1953.82,0.05512
1948.03,0.05388
1942.25,0.05639
1936.46,0.06041
1930.67,0.06480
1924.89,0.06799
1919.1,0.06937
1913.32,0.06988
1907.53,0.07000
1901.74,0.06986
1895.96,0.07040
1890.17,0.07070
1884.38,0.07082
1878.6,0.07047
1872.81,0.07008
1867.03,0.06813
1861.24,0.06594
1855.45,0.06331
1849.67,0.06010
1843.88,0.05671
1838.09,0.05386
1832.31,0.05010
1826.52,0.04704
1820.74,0.04608
1814.95,0.04570
1809.16,0.04468
1803.38,0.04267
1797.59,0.04147
1791.8,0.04093
1786.02,0.03998
1780.23,0.04022
1774.45,0.03946
1768.66,0.03822
1762.87,0.03676
1757.09,0.03561
1751.3,0.03414
1745.51,0.03298
1739.73,0.03294
1733.94,0.03677
1728.16,0.04286
1722.37,0.04852
1716.58,0.05196
1710.8,0.05334
1705.01,0.05290
1699.22,0.05149
1693.44,0.05063
1687.65,0.05046
1681.87,0.04949
1676.08,0.04911
1670.29,0.04886
1664.51,0.04880
1658.72,0.04950
1652.93,0.04989
1647.15,0.05053
1641.36,0.05025
1635.58,0.05046
1629.79,0.05046
1624,0.05007
1618.22,0.04977
1612.43,0.04867
1606.64,0.04831
1600.86,0.04845
1595.07,0.04877
1589.29,0.04873
1583.5,0.04676
1577.71,0.04495
1571.93,0.04647
1566.14,0.04898
1560.35,0.05158
1554.57,0.05246
1548.78,0.05315
1543,0.05198
1537.21,0.05011
1531.42,0.04776
1525.64,0.04717
1519.85,0.04674
1514.07,0.04545
1508.28,0.04535
1502.49,0.04509
1496.71,0.04557
1490.92,0.04499
1485.13,0.04368
1479.35,0.04217
1473.56,0.04142
1467.78,0.04163
1461.99,0.04227
1456.2,0.04288
1450.42,0.04381
1444.63,0.04441
1438.84,0.04468
1433.06,0.04416
1427.27,0.04327
1421.49,0.04350
1415.7,0.04249
1409.91,0.04179
1404.13,0.04186
1398.34,0.04130
1392.55,0.04043
1386.77,0.04042
1380.98,0.04050
1375.2,0.04119
1369.41,0.04131
1363.62,0.04074
1357.84,0.04057
1352.05,0.03960
1346.26,0.03937
1340.48,0.03873
1334.69,0.03836
1328.91,0.03806
1323.12,0.03736
1317.33,0.03686
1311.55,0.03649
1305.76,0.03564
1299.97,0.03523
1294.19,0.03514
1288.4,0.03559
1282.62,0.03602
1276.83,0.03756
1271.04,0.03981
1265.26,0.04184
1259.47,0.04152
1253.68,0.04152
1247.9,0.04293
1242.11,0.04342
1236.33,0.04400
1230.54,0.04370
1224.75,0.04391
1218.97,0.04412
1213.18,0.04323
1207.39,0.04326
1201.61,0.04337
1195.82,0.04327
1190.04,0.04276
1184.25,0.04329
1178.46,0.04326
1172.68,0.04280
1166.89,0.04284
1161.1,0.04481
1155.32,0.04661
1149.53,0.04803
1143.75,0.04892
1137.96,0.05032
1132.17,0.05168
1126.39,0.05305
1120.6,0.05683
1114.81,0.06054
1109.03,0.06326
1103.24,0.06643
1097.46,0.06996
1091.67,0.07076
1085.88,0.07131
1080.1,0.07217
1074.31,0.07417
1068.52,0.07574
1062.74,0.07597
1056.95,0.07550
1051.17,0.07421
1045.38,0.07415
1039.59,0.07336
1033.81,0.07229
1028.02,0.07073
1022.24,0.06810
1016.45,0.06759
1010.66,0.06675
1004.88,0.06476
999.09,0.06341
993.304,0.06245
987.518,0.06125
981.731,0.06092
975.945,0.06073
970.159,0.06066
964.373,0.06011
958.586,0.06038
952.8,0.06037
947.014,0.06042
941.228,0.05979
935.441,0.05982
929.655,0.05972
923.869,0.05984
918.083,0.05965
912.297,0.05890
906.51,0.05839
900.724,0.05810
894.938,0.05762
889.152,0.05765
883.365,0.05703
877.579,0.05645
871.793,0.05675
866.007,0.05537
860.22,0.05571
854.434,0.05500
848.648,0.05427
842.862,0.05445
837.075,0.05469
831.289,0.05543
825.503,0.05456
819.717,0.05487
813.931,0.05486
808.144,0.05488
802.358,0.05488
796.572,0.05573
790.786,0.05482
784.999,0.05534
779.213,0.05507
773.427,0.05514
767.641,0.05392
761.854,0.05336
756.068,0.05436
750.282,0.05391
744.496,0.05468
738.709,0.05400
732.923,0.05441
727.137,0.05624
721.351,0.05462
715.565,0.05284
709.778,0.05293
703.992,0.05450
698.206,0.05367
692.42,0.05342
686.633,0.05204
680.847,0.05257
675.061,0.05242
669.275,0.05212
663.488,0.05153
657.702,0.05059
651.916,0.04942
646.13,0.04912
640.343,0.04968
634.557,0.04939
628.771,0.04959
622.985,0.04911
617.198,0.04905
611.412,0.04767
605.626,0.04775
599.84,0.04789