File: 01_Data/Vinyl_Plank_Flooring/FTIR/IS/Vinyl_Plank_Flooring_IS_S_220819_R5.dpt
7497.03,0.49988
7491.25,0.51355
7485.46,0.50784
7479.67,0.50240
7473.89,0.50268
7468.1,0.49839
7462.32,0.49717
7456.53,0.50075
7450.74,0.50069
7444.96,0.50105
7439.17,0.49642
7433.38,0.50316
7427.6,0.48603
7421.81,0.49787
7416.03,0.49434
7410.24,0.48789
7404.45,0.49131
7398.67,0.48790
7392.88,0.48109
7387.09,0.47614
7381.31,0.48114
7375.52,0.49070
7369.74,0.47633
7363.95,0.47669
7358.16,0.47244
7352.38,0.47724
7346.59,0.46646
7340.8,0.46990
7335.02,0.47063
7329.23,0.46577
7323.45,0.45693
7317.66,0.45734
7311.87,0.46027
7306.09,0.45458
7300.3,0.45765
7294.51,0.44897
7288.73,0.44923
7282.94,0.44956
7277.16,0.44157
7271.37,0.43970
7265.58,0.44279
7259.8,0.43646
7254.01,0.43468
7248.22,0.43319
7242.44,0.42652
7236.65,0.43033
7230.87,0.42246
7225.08,0.42707
7219.29,0.42736
7213.51,0.42829
7207.72,0.41935
7201.93,0.42142
7196.15,0.41558
7190.36,0.41725
7184.58,0.40778
7178.79,0.41315
7173,0.42358
7167.22,0.42187
7161.43,0.41725
7155.65,0.41727
7149.86,0.41090
7144.07,0.42051
7138.29,0.41458
7132.5,0.41996
7126.71,0.41781
7120.93,0.41493
7115.14,0.41574
7109.36,0.41890
7103.57,0.41600
7097.78,0.41370
7092,0.41252
7086.21,0.41563
7080.42,0.41339
7074.64,0.41214
7068.85,0.41030
7063.07,0.41452
7057.28,0.41632
7051.49,0.41738
7045.71,0.41443
7039.92,0.41255
7034.13,0.41609
7028.35,0.41841
7022.56,0.41161
7016.78,0.41559
7010.99,0.41677
7005.2,0.41534
6999.42,0.42129
6993.63,0.42370
6987.84,0.42068
6982.06,0.42451
6976.27,0.42175
6970.49,0.42108
6964.7,0.43034
6958.91,0.43748
6953.13,0.43437
6947.34,0.43485
6941.55,0.43377
6935.77,0.43248
6929.98,0.43830
6924.2,0.44229
6918.41,0.44295
6912.62,0.43959
6906.84,0.44542
6901.05,0.44766
6895.26,0.44172
6889.48,0.44405
6883.69,0.44889
6877.91,0.45754
6872.12,0.45073
6866.33,0.45157
6860.55,0.45507
6854.76,0.45348
6848.97,0.45585
6843.19,0.45721
6837.4,0.45813
6831.62,0.46243
6825.83,0.46090
6820.04,0.45740
6814.26,0.45822
6808.47,0.45800
6802.68,0.45980
6796.9,0.46093
6791.11,0.46456
6785.33,0.46451
6779.54,0.46170
6773.75,0.46814
6767.97,0.46649
6762.18,0.46579
6756.39,0.46959
6750.61,0.46375
6744.82,0.46800
6739.04,0.46933
6733.25,0.46767
6727.46,0.47086
6721.68,0.47234
6715.89,0.46765
6710.1,0.47257
6704.32,0.46926
6698.53,0.47133
6692.75,0.47176
6686.96,0.47025
6681.17,0.47481
6675.39,0.47452
6669.6,0.47677
6663.82,0.47819
6658.03,0.47657
6652.24,0.47931
6646.46,0.47478
6640.67,0.47675
6634.88,0.47781
6629.1,0.47821
6623.31,0.47470
6617.53,0.47651
6611.74,0.47822
6605.95,0.47798
6600.17,0.47912
6594.38,0.48154
6588.59,0.48013
6582.81,0.47907
6577.02,0.47865
6571.24,0.48364
6565.45,0.48298
6559.66,0.47868
6553.88,0.47925
6548.09,0.48473
6542.3,0.48713
6536.52,0.48506
6530.73,0.48351
6524.95,0.48579
6519.16,0.48230
6513.37,0.48621
6507.59,0.48459
6501.8,0.48895
6496.01,0.48752
6490.23,0.48772
6484.44,0.48623
6478.66,0.48752
6472.87,0.48822
6467.08,0.48865
6461.3,0.48932
6455.51,0.49181
6449.72,0.48663
6443.94,0.48602
6438.15,0.48763
6432.37,0.49136
6426.58,0.48788
6420.79,0.49183
6415.01,0.49240
6409.22,0.49143
6403.43,0.48702
6397.65,0.48823
6391.86,0.49120
6386.08,0.49198
6380.29,0.49183
6374.5,0.48377
6368.72,0.48901
6362.93,0.49052
6357.14,0.48752
6351.36,0.48296
6345.57,0.48893
6339.79,0.48613
6334,0.48857
6328.21,0.48874
6322.43,0.49020
6316.64,0.48729
6310.85,0.48789
6305.07,0.48982
6299.28,0.49031
6293.5,0.49176
6287.71,0.48862
6281.92,0.48993
6276.14,0.48839
6270.35,0.49040
6264.56,0.49080
6258.78,0.49248
6252.99,0.49400
6247.21,0.49118
6241.42,0.49161
6235.63,0.48943
6229.85,0.48642
6224.06,0.49129
6218.27,0.48934
6212.49,0.48673
6206.7,0.48511
6200.92,0.48207
6195.13,0.47922
6189.34,0.47738
6183.56,0.47888
6177.77,0.47892
6171.98,0.47986
6166.2,0.47861
6160.41,0.47948
6154.63,0.47553
6148.84,0.47444
6143.05,0.47175
6137.27,0.47091
6131.48,0.47115
6125.7,0.47176
6119.91,0.46587
6114.12,0.46277
6108.34,0.45663
6102.55,0.44711
6096.76,0.44185
6090.98,0.43042
6085.19,0.41988
6079.41,0.41246
6073.62,0.40548
6067.83,0.39464
6062.05,0.38660
6056.26,0.37304
6050.47,0.36278
6044.69,0.35203
6038.9,0.34769
6033.12,0.33788
6027.33,0.33213
6021.54,0.32664
6015.76,0.31808
6009.97,0.31920
6004.18,0.33101
5998.4,0.34062
5992.61,0.35377
5986.83,0.36392
5981.04,0.37124
5975.25,0.37388
5969.47,0.37771
5963.68,0.37600
5957.89,0.36899
5952.11,0.35834
5946.32,0.34947
5940.54,0.33710
5934.75,0.32464
5928.96,0.31247
5923.18,0.30248
5917.39,0.29340
5911.6,0.28360
5905.82,0.27365
5900.03,0.26410
5894.25,0.25319
5888.46,0.23977
5882.67,0.23020
5876.89,0.22160
5871.1,0.21466
5865.31,0.20650
5859.53,0.19884
5853.74,0.18956
5847.96,0.18165
5842.17,0.17272
5836.38,0.16426
5830.6,0.15778
5824.81,0.15607
5819.02,0.16078
5813.24,0.16966
5807.45,0.17803
5801.67,0.19027
5795.88,0.19916
5790.09,0.20769
5784.31,0.21698
5778.52,0.22515
5772.73,0.23167
5766.95,0.23111
5761.16,0.23260
5755.38,0.23131
5749.59,0.22661
5743.8,0.22501
5738.02,0.22518
5732.23,0.22465
5726.44,0.22567
5720.66,0.22969
5714.87,0.22886
5709.09,0.22591
5703.3,0.22572
5697.51,0.22736
5691.73,0.23185
5685.94,0.23677
5680.15,0.24351
5674.37,0.24968
5668.58,0.25464
5662.8,0.25648
5657.01,0.25908
5651.22,0.26201
5645.44,0.26374
5639.65,0.26658
5633.87,0.27240
5628.08,0.27467
5622.29,0.27887
5616.51,0.28024
5610.72,0.28451
5604.93,0.28734
5599.15,0.29047
5593.36,0.29205
5587.58,0.29413
5581.79,0.29653
5576,0.30063
5570.22,0.30060
5564.43,0.30194
5558.64,0.30478
5552.86,0.30784
5547.07,0.30920
5541.29,0.31018
5535.5,0.31059
5529.71,0.31312
5523.93,0.31141
5518.14,0.31330
5512.35,0.31393
5506.57,0.31577
5500.78,0.31461
5495,0.31398
5489.21,0.31321
5483.42,0.31363
5477.64,0.31098
5471.85,0.31092
5466.06,0.31030
5460.28,0.31459
5454.49,0.31624
5448.71,0.31898
5442.92,0.32342
5437.13,0.32656
5431.35,0.32868
5425.56,0.33041
5419.77,0.33541
5413.99,0.33571
5408.2,0.33581
5402.42,0.33777
5396.63,0.33666
5390.84,0.33939
5385.06,0.34051
5379.27,0.34107
5373.48,0.34416
5367.7,0.34645
5361.91,0.34956
5356.13,0.35020
5350.34,0.35118
5344.55,0.35110
5338.77,0.35353
5332.98,0.35575
5327.19,0.35445
5321.41,0.35681
5315.62,0.35866
5309.84,0.36009
5304.05,0.35975
5298.26,0.35996
5292.48,0.35988
5286.69,0.35645
5280.9,0.35494
5275.12,0.35093
5269.33,0.34847
5263.55,0.34474
5257.76,0.34473
5251.97,0.34565
5246.19,0.34648
5240.4,0.34712
5234.61,0.34957
5228.83,0.35071
5223.04,0.35100
5217.26,0.34969
5211.47,0.35135
5205.68,0.35010
5199.9,0.35015
5194.11,0.34878
5188.32,0.34846
5182.54,0.34930
5176.75,0.34845
5170.97,0.34935
5165.18,0.34837
5159.39,0.34956
5153.61,0.34908
5147.82,0.34830
5142.03,0.34727
5136.25,0.34707
5130.46,0.34564
5124.68,0.34518
5118.89,0.34443
5113.1,0.34364
5107.32,0.34463
5101.53,0.34522
5095.75,0.34533
5089.96,0.34664
5084.17,0.34830
5078.39,0.34869
5072.6,0.34968
5066.81,0.35208
5061.03,0.35399
5055.24,0.35336
5049.46,0.35302
5043.67,0.35414
5037.88,0.35498
5032.1,0.35503
5026.31,0.35506
5020.52,0.35574
5014.74,0.35513
5008.95,0.35510
5003.17,0.35240
4997.38,0.35300
4991.59,0.35297
4985.81,0.35392
4980.02,0.35339
4974.23,0.35506
4968.45,0.35408
4962.66,0.35528
4956.88,0.35572
4951.09,0.35416
4945.3,0.35416
4939.52,0.35358
4933.73,0.35417
4927.94,0.35253
4922.16,0.35277
4916.37,0.35287
4910.59,0.35396
4904.8,0.35239
4899.01,0.35370
4893.23,0.35338
4887.44,0.35304
4881.65,0.35292
4875.87,0.35325
4870.08,0.35289
4864.3,0.35342
4858.51,0.35397
4852.72,0.35413
4846.94,0.35399
4841.15,0.35550
4835.36,0.35482
4829.58,0.35416
4823.79,0.35220
4818.01,0.35128
4812.22,0.35018
4806.43,0.34967
4800.65,0.34797
4794.86,0.34737
4789.07,0.34666
4783.29,0.34580
4777.5,0.34622
4771.72,0.34773
4765.93,0.34955
4760.14,0.35035
4754.36,0.34901
4748.57,0.34639
4742.78,0.34235
4737,0.33910
4731.21,0.33217
4725.43,0.32260
4719.64,0.31061
4713.85,0.30433
4708.07,0.30115
4702.28,0.29429
4696.49,0.27842
4690.71,0.26516
4684.92,0.25901
4679.14,0.26240
4673.35,0.27213
4667.56,0.28007
4661.78,0.28323
4655.99,0.28480
4650.2,0.28425
4644.42,0.27907
4638.63,0.26743
4632.85,0.25723
4627.06,0.26108
4621.27,0.27666
4615.49,0.29043
4609.7,0.29928
4603.92,0.30325
4598.13,0.30291
4592.34,0.29994
4586.56,0.29608
4580.77,0.29529
4574.98,0.29227
4569.2,0.29669
4563.41,0.30604
4557.63,0.31031
4551.84,0.30879
4546.05,0.30757
4540.27,0.30708
4534.48,0.30429
4528.69,0.30071
4522.91,0.29733
4517.12,0.29238
4511.34,0.28665
4505.55,0.28033
4499.76,0.27103
4493.98,0.25932
4488.19,0.24743
4482.4,0.24195
4476.62,0.23723
4470.83,0.23210
4465.05,0.22464
4459.26,0.21457
4453.47,0.20239
4447.69,0.18902
4441.9,0.17334
4436.11,0.15920
4430.33,0.14502
4424.54,0.13301
4418.76,0.12228
4412.97,0.11312
4407.18,0.10523
4401.4,0.10043
4395.61,0.09842
4389.82,0.09709
4384.04,0.09339
4378.25,0.08692
4372.47,0.08047
4366.68,0.07513
4360.89,0.06979
4355.11,0.06701
4349.32,0.06421
4343.53,0.06157
4337.75,0.05956
4331.96,0.05859
4326.18,0.06025
4320.39,0.06369
4314.6,0.06789
4308.82,0.07039
4303.03,0.07154
4297.24,0.07124
4291.46,0.07162
4285.67,0.07109
4279.89,0.07071
4274.1,0.07096
4268.31,0.07213
4262.53,0.07342
4256.74,0.07399
4250.95,0.07263
4245.17,0.07269
4239.38,0.07242
4233.6,0.07163
4227.81,0.07119
4222.02,0.07050
4216.24,0.07011
4210.45,0.07013
4204.66,0.07148
4198.88,0.07296
4193.09,0.07462
4187.31,0.07591
4181.52,0.07539
4175.73,0.07393
4169.95,0.07329
4164.16,0.07483
4158.37,0.07812
4152.59,0.08099
4146.8,0.08336
4141.02,0.08599
4135.23,0.08896
4129.44,0.09119
4123.66,0.09157
4117.87,0.08991
4112.09,0.08808
4106.3,0.08633
4100.51,0.08464
4094.73,0.08037
4088.94,0.07626
4083.15,0.07291
4077.37,0.07492
4071.58,0.08033
4065.8,0.08438
4060.01,0.08899
4054.22,0.09238
4048.44,0.09483
4042.65,0.09589
4036.86,0.09684
4031.08,0.09714
4025.29,0.09639
4019.51,0.09761
4013.72,0.09856
4007.93,0.10081
4002.15,0.10272
3996.36,0.10611
3990.57,0.10915
3984.79,0.11219
3979,0.11456
3973.22,0.11638
3967.43,0.11756
3961.64,0.11802
3955.86,0.11863
3950.07,0.11807
3944.28,0.11827
3938.5,0.11880
3932.71,0.11965
3926.93,0.12133
3921.14,0.12154
3915.35,0.12225
3909.57,0.12461
3903.78,0.12632
3897.99,0.12723
3892.21,0.12945
3886.42,0.13122
3880.64,0.13168
3874.85,0.13298
3869.06,0.13326
3863.28,0.13381
3857.49,0.13327
3851.7,0.13346
3845.92,0.13440
3840.13,0.13631
3834.35,0.13755
3828.56,0.13870
3822.77,0.13984
3816.99,0.14178
3811.2,0.14344
3805.41,0.14452
3799.63,0.14531
3793.84,0.14926
3788.06,0.15179
3782.27,0.15255
3776.48,0.15382
3770.7,0.15313
3764.91,0.15290
3759.12,0.15147
3753.34,0.15208
3747.55,0.15620
3741.77,0.15862
3735.98,0.16036
3730.19,0.16118
3724.41,0.16415
3718.62,0.16511
3712.83,0.16142
3707.05,0.15460
3701.26,0.14542
3695.48,0.13281
3689.69,0.11912
3683.9,0.10839
3678.12,0.10463
3672.33,0.10307
3666.54,0.10473
3660.76,0.10554
3654.97,0.10727
3649.19,0.10841
3643.4,0.10776
3637.61,0.10688
3631.83,0.10531
3626.04,0.10191
3620.25,0.09898
3614.47,0.09625
3608.68,0.09493
3602.9,0.09254
3597.11,0.09056
3591.32,0.08874
3585.54,0.08648
3579.75,0.08491
3573.97,0.08306
3568.18,0.07989
3562.39,0.07702
3556.61,0.07423
3550.82,0.07303
3545.03,0.07251
3539.25,0.07179
3533.46,0.07126
3527.68,0.07052
3521.89,0.07115
3516.1,0.07016
3510.32,0.06999
3504.53,0.06906
3498.74,0.06981
3492.96,0.06908
3487.17,0.06812
3481.39,0.06703
3475.6,0.06655
3469.81,0.06543
3464.03,0.06393
3458.24,0.06214
3452.45,0.06003
3446.67,0.05847
3440.88,0.05648
3435.1,0.05368
3429.31,0.05205
3423.52,0.05037
3417.74,0.05077
3411.95,0.05074
3406.16,0.05166
3400.38,0.05211
3394.59,0.05364
3388.81,0.05455
3383.02,0.05510
3377.23,0.05664
3371.45,0.05695
3365.66,0.05758
3359.87,0.05736
3354.09,0.05758
3348.3,0.05842
3342.52,0.05747
3336.73,0.05690
3330.94,0.05667
3325.16,0.05604
3319.37,0.05593
3313.58,0.05689
3307.8,0.05677
3302.01,0.05710
3296.23,0.05675
3290.44,0.05714
3284.65,0.05815
3278.87,0.05937
3273.08,0.05945
3267.29,0.06069
3261.51,0.06119
3255.72,0.06062
3249.94,0.06060
3244.15,0.06044
3238.36,0.05938
3232.58,0.05809
3226.79,0.05631
3221,0.05646
3215.22,0.05478
3209.43,0.05580
3203.65,0.05601
3197.86,0.05543
3192.07,0.05618
3186.29,0.05614
3180.5,0.05737
3174.71,0.05754
3168.93,0.05771
3163.14,0.05795
3157.36,0.05826
3151.57,0.05827
3145.78,0.05776
3140,0.05755
3134.21,0.05726
3128.42,0.05626
3122.64,0.05611
3116.85,0.05637
3111.07,0.05602
3105.28,0.05400
3099.49,0.05343
3093.71,0.05258
3087.92,0.05243
3082.14,0.05065
3076.35,0.05080
3070.56,0.04958
3064.78,0.04883
3058.99,0.04818
3053.2,0.04865
3047.42,0.04860
3041.63,0.04875
3035.85,0.04867
3030.06,0.04801
3024.27,0.04705
3018.49,0.04603
3012.7,0.04624
3006.91,0.04529
3001.13,0.04460
2995.34,0.04431
2989.56,0.04437
2983.77,0.04381
2977.98,0.04345
2972.2,0.04388
2966.41,0.04393
2960.62,0.04426
2954.84,0.04445
2949.05,0.04476
2943.27,0.04507
2937.48,0.04489
2931.69,0.04596
2925.91,0.04659
2920.12,0.04779
2914.33,0.04806
2908.55,0.04818
2902.76,0.04811
2896.98,0.04780
2891.19,0.04752
2885.4,0.04763
2879.62,0.04749
2873.83,0.04755
2868.04,0.04825
2862.26,0.04880
2856.47,0.04929
2850.69,0.05008
2844.9,0.05013
2839.11,0.04965
2833.33,0.04949
2827.54,0.04966
2821.75,0.04928
2815.97,0.04932
2810.18,0.04991
2804.4,0.04958
2798.61,0.05014
2792.82,0.05051
2787.04,0.05161
2781.25,0.05253
2775.46,0.05324
2769.68,0.05350
2763.89,0.05424
2758.11,0.05396
2752.32,0.05377
2746.53,0.05338
2740.75,0.05286
2734.96,0.05255
2729.17,0.05329
2723.39,0.05478
2717.6,0.05634
2711.82,0.05764
2706.03,0.05846
2700.24,0.05885
2694.46,0.05965
2688.67,0.05981
2682.88,0.06024
2677.1,0.05957
2671.31,0.05919
2665.53,0.05993
2659.74,0.06121
2653.95,0.06229
2648.17,0.06289
2642.38,0.06272
2636.59,0.06103
2630.81,0.05876
2625.02,0.05753
2619.24,0.05665
2613.45,0.05588
2607.66,0.05497
2601.88,0.05413
2596.09,0.05396
2590.3,0.05363
2584.52,0.05358
2578.73,0.05308
2572.95,0.05331
2567.16,0.05356
2561.37,0.05302
2555.59,0.05305
2549.8,0.05310
2544.02,0.05298
2538.23,0.05233
2532.44,0.05168
2526.66,0.05094
2520.87,0.05091
2515.08,0.05099
2509.3,0.05082
2503.51,0.05227
2497.73,0.05299
2491.94,0.05476
2486.15,0.05703
2480.37,0.05935
2474.58,0.06247
2468.79,0.06551
2463.01,0.06728
2457.22,0.06885
2451.44,0.06880
2445.65,0.06920
2439.86,0.06893
2434.08,0.06795
2428.29,0.06756
2422.5,0.06622
2416.72,0.06512
2410.93,0.06458
2405.15,0.06369
2399.36,0.06295
2393.57,0.06209
2387.79,0.06152
2382,0.06115
2376.21,0.06178
2370.43,0.06301
2364.64,0.06483
2358.86,0.06636
2353.07,0.06872
2347.28,0.06992
2341.5,0.07251
2335.71,0.07483
2329.92,0.07635
2324.14,0.07558
2318.35,0.07724
2312.57,0.07811
2306.78,0.07818
2300.99,0.07702
2295.21,0.07513
2289.42,0.07299
2283.63,0.07018
2277.85,0.06882
2272.06,0.07029
2266.28,0.07174
2260.49,0.07187
2254.7,0.07140
2248.92,0.06941
2243.13,0.06694
2237.34,0.06501
2231.56,0.06407
2225.77,0.06470
2219.99,0.06508
2214.2,0.06529
2208.41,0.06522
2202.63,0.06809
2196.84,0.07123
2191.05,0.07359
2185.27,0.07672
2179.48,0.07866
2173.7,0.07945
2167.91,0.07952
2162.12,0.07849
2156.34,0.07678
2150.55,0.07490
2144.76,0.07350
2138.98,0.07274
2133.19,0.07277
2127.41,0.07374
2121.62,0.07490
2115.83,0.07573
2110.05,0.07581
2104.26,0.07650
2098.47,0.07635
2092.69,0.07606
2086.9,0.07547
2081.12,0.07463
2075.33,0.07393
2069.54,0.07365
2063.76,0.07399
2057.97,0.07443
2052.19,0.07546
2046.4,0.07628
2040.61,0.07746
2034.83,0.07843
2029.04,0.07960
2023.25,0.08086
2017.47,0.08160
2011.68,0.08153
2005.9,0.08155
2000.11,0.08005
1994.32,0.07763
1988.54,0.07485
1982.75,0.07391
1976.96,0.07162
1971.18,0.06866
1965.39,0.06425
1959.61,0.05934
1953.82,0.05529
1948.03,0.05391
1942.25,0.05654
1936.46,0.06065
1930.67,0.06464
1924.89,0.06778
1919.1,0.06911
1913.32,0.06962
1907.53,0.06951
1901.74,0.06976
1895.96,0.06984
1890.17,0.07025
1884.38,0.07047
1878.6,0.07025
1872.81,0.06944
1867.03,0.06807
1861.24,0.06574
1855.45,0.06342
1849.67,0.05989
1843.88,0.05668
1838.09,0.05349
1832.31,0.05007
1826.52,0.04717
1820.74,0.04584
1814.95,0.04528
1809.16,0.04487
1803.38,0.04242
1797.59,0.04120
1791.8,0.04088
1786.02,0.04057
1780.23,0.04012
1774.45,0.03963
1768.66,0.03800
1762.87,0.03715
1757.09,0.03519
1751.3,0.03406
1745.51,0.03283
1739.73,0.03273
1733.94,0.03677
1728.16,0.04261
1722.37,0.04844
1716.58,0.05198
1710.8,0.05307
1705.01,0.05273
1699.22,0.05137
1693.44,0.05063
1687.65,0.05035
1681.87,0.04981
1676.08,0.04891
1670.29,0.04892
1664.51,0.04886
1658.72,0.04916
1652.93,0.04995
1647.15,0.05059
1641.36,0.05041
1635.58,0.05044
1629.79,0.05025
1624,0.05010
1618.22,0.04950
1612.43,0.04842
1606.64,0.04848
1600.86,0.04841
1595.07,0.04878
1589.29,0.04852
1583.5,0.04671
1577.71,0.04486
1571.93,0.04642
1566.14,0.04944
1560.35,0.05108
1554.57,0.05232
1548.78,0.05279
1543,0.05204
1537.21,0.05036
1531.42,0.04759
1525.64,0.04682
1519.85,0.04672
1514.07,0.04561
1508.28,0.04482
1502.49,0.04473
1496.71,0.04560
1490.92,0.04471
1485.13,0.04319
1479.35,0.04219
1473.56,0.04159
1467.78,0.04167
1461.99,0.04178
1456.2,0.04272
1450.42,0.04348
1444.63,0.04390
1438.84,0.04425
1433.06,0.04387
1427.27,0.04365
1421.49,0.04314
1415.7,0.04266
1409.91,0.04242
1404.13,0.04196
1398.34,0.04112
1392.55,0.04053
1386.77,0.04055
1380.98,0.04053
1375.2,0.04133
1369.41,0.04137
1363.62,0.04091
1357.84,0.04009
1352.05,0.04035
1346.26,0.03912
1340.48,0.03885
1334.69,0.03787
1328.91,0.03813
1323.12,0.03743
1317.33,0.03714
1311.55,0.03639
1305.76,0.03553
1299.97,0.03525
1294.19,0.03510
1288.4,0.03533
1282.62,0.03576
1276.83,0.03708
1271.04,0.04021
1265.26,0.04173
1259.47,0.04149
1253.68,0.04148
1247.9,0.04320
1242.11,0.04404
1236.33,0.04361
1230.54,0.04403
1224.75,0.04389
1218.97,0.04388
1213.18,0.04361
1207.39,0.04358
1201.61,0.04342
1195.82,0.04283
1190.04,0.04338
1184.25,0.04257
1178.46,0.04278
1172.68,0.04245
1166.89,0.04370
1161.1,0.04506
1155.32,0.04646
1149.53,0.04801
1143.75,0.04908
1137.96,0.05033
1132.17,0.05161
1126.39,0.05381
1120.6,0.05655
1114.81,0.06096
1109.03,0.06343
1103.24,0.06721
1097.46,0.07034
1091.67,0.07053
1085.88,0.07142
1080.1,0.07235
1074.31,0.07441
1068.52,0.07545
1062.74,0.07572
1056.95,0.07545
1051.17,0.07479
1045.38,0.07337
1039.59,0.07339
1033.81,0.07215
1028.02,0.07079
1022.24,0.06810
1016.45,0.06759
1010.66,0.06613
1004.88,0.06453
999.09,0.06237
993.304,0.06145
987.518,0.06104
981.731,0.06087
975.945,0.06029
970.159,0.06049
964.373,0.05968
958.586,0.05994
952.8,0.06052
947.014,0.06039
941.228,0.06021
935.441,0.06007
929.655,0.05980
923.869,0.06000
918.083,0.05960
912.297,0.05903
906.51,0.05812
900.724,0.05801
894.938,0.05771
889.152,0.05693
883.365,0.05576
877.579,0.05690
871.793,0.05615
866.007,0.05547
860.22,0.05582
854.434,0.05484
848.648,0.05458
842.862,0.05448
837.075,0.05420
831.289,0.05554
825.503,0.05504
819.717,0.05519
813.931,0.05478
808.144,0.05458
802.358,0.05511
796.572,0.05526
790.786,0.05491
784.999,0.05480
779.213,0.05460
773.427,0.05436
767.641,0.05447
761.854,0.05418
756.068,0.05360
750.282,0.05368
744.496,0.05435
738.709,0.05375
732.923,0.05459
727.137,0.05620
721.351,0.05508
715.565,0.05405
709.778,0.05309
703.992,0.05335
698.206,0.05393
692.42,0.05352
686.633,0.05356
680.847,0.05342
675.061,0.05153
669.275,0.05161
663.488,0.05165
657.702,0.05061
651.916,0.05092
646.13,0.05261
640.343,0.05077
634.557,0.04940
628.771,0.05078
622.985,0.04960
617.198,0.04907
611.412,0.04982
605.626,0.04920
599.84,0.04887