File: 01_Data/Vinyl_Plank_Flooring/FTIR/IS/Vinyl_Plank_Flooring_IS_S_220819_R2.dpt
7497.03,0.49791
7491.25,0.49893
7485.46,0.49293
7479.67,0.49218
7473.89,0.49168
7468.1,0.49665
7462.32,0.50155
7456.53,0.48725
7450.74,0.50164
7444.96,0.50367
7439.17,0.49739
7433.38,0.48947
7427.6,0.50183
7421.81,0.49465
7416.03,0.48556
7410.24,0.48701
7404.45,0.49565
7398.67,0.47470
7392.88,0.48938
7387.09,0.48497
7381.31,0.48790
7375.52,0.47423
7369.74,0.47260
7363.95,0.46255
7358.16,0.47795
7352.38,0.48083
7346.59,0.47381
7340.8,0.47056
7335.02,0.46911
7329.23,0.46470
7323.45,0.46790
7317.66,0.46520
7311.87,0.45900
7306.09,0.45273
7300.3,0.45458
7294.51,0.45240
7288.73,0.45487
7282.94,0.44788
7277.16,0.44270
7271.37,0.44113
7265.58,0.43922
7259.8,0.43593
7254.01,0.42848
7248.22,0.43033
7242.44,0.43119
7236.65,0.42503
7230.87,0.41947
7225.08,0.41536
7219.29,0.42465
7213.51,0.41300
7207.72,0.41828
7201.93,0.41695
7196.15,0.41752
7190.36,0.42493
7184.58,0.41970
7178.79,0.40814
7173,0.41672
7167.22,0.41851
7161.43,0.41137
7155.65,0.41390
7149.86,0.41653
7144.07,0.41811
7138.29,0.41261
7132.5,0.41871
7126.71,0.41392
7120.93,0.40971
7115.14,0.41436
7109.36,0.41635
7103.57,0.41117
7097.78,0.41538
7092,0.41374
7086.21,0.41204
7080.42,0.41203
7074.64,0.41626
7068.85,0.41095
7063.07,0.41196
7057.28,0.40776
7051.49,0.41385
7045.71,0.41662
7039.92,0.41467
7034.13,0.41613
7028.35,0.41707
7022.56,0.41482
7016.78,0.42065
7010.99,0.41047
7005.2,0.41394
6999.42,0.41458
6993.63,0.41418
6987.84,0.41625
6982.06,0.41872
6976.27,0.42153
6970.49,0.42673
6964.7,0.43044
6958.91,0.43087
6953.13,0.42993
6947.34,0.43028
6941.55,0.43565
6935.77,0.44011
6929.98,0.43673
6924.2,0.44461
6918.41,0.44593
6912.62,0.44560
6906.84,0.44339
6901.05,0.44742
6895.26,0.44900
6889.48,0.44454
6883.69,0.44970
6877.91,0.45381
6872.12,0.44969
6866.33,0.44959
6860.55,0.45432
6854.76,0.45594
6848.97,0.45303
6843.19,0.45401
6837.4,0.45353
6831.62,0.45651
6825.83,0.45805
6820.04,0.46230
6814.26,0.45726
6808.47,0.46150
6802.68,0.45843
6796.9,0.45914
6791.11,0.46246
6785.33,0.46077
6779.54,0.46117
6773.75,0.46126
6767.97,0.46232
6762.18,0.46385
6756.39,0.45982
6750.61,0.46664
6744.82,0.46642
6739.04,0.47016
6733.25,0.46703
6727.46,0.47254
6721.68,0.47192
6715.89,0.47064
6710.1,0.46814
6704.32,0.47130
6698.53,0.46899
6692.75,0.47072
6686.96,0.47540
6681.17,0.46866
6675.39,0.47242
6669.6,0.47515
6663.82,0.47521
6658.03,0.47344
6652.24,0.47357
6646.46,0.47376
6640.67,0.47424
6634.88,0.47304
6629.1,0.47708
6623.31,0.47723
6617.53,0.47827
6611.74,0.47815
6605.95,0.47478
6600.17,0.47900
6594.38,0.47722
6588.59,0.47538
6582.81,0.48122
6577.02,0.48459
6571.24,0.48316
6565.45,0.48036
6559.66,0.47954
6553.88,0.47877
6548.09,0.47785
6542.3,0.48065
6536.52,0.48099
6530.73,0.48436
6524.95,0.47839
6519.16,0.48156
6513.37,0.47991
6507.59,0.48166
6501.8,0.48412
6496.01,0.48416
6490.23,0.48008
6484.44,0.48958
6478.66,0.48571
6472.87,0.49118
6467.08,0.48741
6461.3,0.48663
6455.51,0.48403
6449.72,0.48546
6443.94,0.48825
6438.15,0.48641
6432.37,0.49073
6426.58,0.49115
6420.79,0.48742
6415.01,0.48540
6409.22,0.48839
6403.43,0.49278
6397.65,0.49008
6391.86,0.48728
6386.08,0.48649
6380.29,0.48858
6374.5,0.48612
6368.72,0.48516
6362.93,0.48572
6357.14,0.48541
6351.36,0.48967
6345.57,0.48524
6339.79,0.48347
6334,0.48608
6328.21,0.48658
6322.43,0.48827
6316.64,0.48671
6310.85,0.48803
6305.07,0.48955
6299.28,0.48828
6293.5,0.49048
6287.71,0.48632
6281.92,0.48806
6276.14,0.49239
6270.35,0.48984
6264.56,0.48761
6258.78,0.48957
6252.99,0.48746
6247.21,0.48833
6241.42,0.48862
6235.63,0.48572
6229.85,0.48897
6224.06,0.48945
6218.27,0.48714
6212.49,0.48447
6206.7,0.48153
6200.92,0.48090
6195.13,0.47637
6189.34,0.47737
6183.56,0.48006
6177.77,0.47611
6171.98,0.47770
6166.2,0.47687
6160.41,0.47939
6154.63,0.47390
6148.84,0.46925
6143.05,0.46913
6137.27,0.46790
6131.48,0.46822
6125.7,0.46770
6119.91,0.46553
6114.12,0.45729
6108.34,0.45420
6102.55,0.45073
6096.76,0.44040
6090.98,0.43174
6085.19,0.41734
6079.41,0.41236
6073.62,0.40519
6067.83,0.39632
6062.05,0.38491
6056.26,0.36936
6050.47,0.35908
6044.69,0.35130
6038.9,0.34410
6033.12,0.33889
6027.33,0.33062
6021.54,0.31923
6015.76,0.31544
6009.97,0.32203
6004.18,0.32942
5998.4,0.34073
5992.61,0.35245
5986.83,0.36297
5981.04,0.36676
5975.25,0.37275
5969.47,0.37352
5963.68,0.37235
5957.89,0.36693
5952.11,0.35719
5946.32,0.34700
5940.54,0.33722
5934.75,0.32286
5928.96,0.31248
5923.18,0.30110
5917.39,0.29208
5911.6,0.28415
5905.82,0.27189
5900.03,0.26122
5894.25,0.25064
5888.46,0.23967
5882.67,0.22978
5876.89,0.22173
5871.1,0.21571
5865.31,0.20774
5859.53,0.19448
5853.74,0.18747
5847.96,0.17952
5842.17,0.17125
5836.38,0.16179
5830.6,0.15600
5824.81,0.15533
5819.02,0.16100
5813.24,0.16971
5807.45,0.17975
5801.67,0.18510
5795.88,0.19881
5790.09,0.20787
5784.31,0.21688
5778.52,0.22286
5772.73,0.23182
5766.95,0.23224
5761.16,0.23202
5755.38,0.22927
5749.59,0.22760
5743.8,0.22547
5738.02,0.22398
5732.23,0.22173
5726.44,0.22535
5720.66,0.22835
5714.87,0.22667
5709.09,0.22581
5703.3,0.22508
5697.51,0.22688
5691.73,0.23082
5685.94,0.23592
5680.15,0.24420
5674.37,0.24950
5668.58,0.25198
5662.8,0.25240
5657.01,0.25770
5651.22,0.25900
5645.44,0.26267
5639.65,0.26742
5633.87,0.27100
5628.08,0.27612
5622.29,0.27738
5616.51,0.28218
5610.72,0.28323
5604.93,0.28708
5599.15,0.28888
5593.36,0.29222
5587.58,0.29358
5581.79,0.29699
5576,0.29891
5570.22,0.30250
5564.43,0.30413
5558.64,0.30557
5552.86,0.30510
5547.07,0.30816
5541.29,0.30907
5535.5,0.31034
5529.71,0.31102
5523.93,0.31167
5518.14,0.31344
5512.35,0.31161
5506.57,0.31312
5500.78,0.31463
5495,0.31504
5489.21,0.31192
5483.42,0.31153
5477.64,0.30900
5471.85,0.30997
5466.06,0.31074
5460.28,0.31173
5454.49,0.31421
5448.71,0.31696
5442.92,0.32056
5437.13,0.32362
5431.35,0.32611
5425.56,0.33080
5419.77,0.33184
5413.99,0.33437
5408.2,0.33473
5402.42,0.33530
5396.63,0.33567
5390.84,0.33845
5385.06,0.33979
5379.27,0.34202
5373.48,0.34288
5367.7,0.34351
5361.91,0.34884
5356.13,0.34792
5350.34,0.34964
5344.55,0.35026
5338.77,0.35217
5332.98,0.35304
5327.19,0.35536
5321.41,0.35576
5315.62,0.35901
5309.84,0.35798
5304.05,0.35840
5298.26,0.35655
5292.48,0.35727
5286.69,0.35538
5280.9,0.35043
5275.12,0.34703
5269.33,0.34400
5263.55,0.34322
5257.76,0.34062
5251.97,0.34178
5246.19,0.34184
5240.4,0.34418
5234.61,0.34511
5228.83,0.34892
5223.04,0.34729
5217.26,0.34793
5211.47,0.34823
5205.68,0.34824
5199.9,0.34947
5194.11,0.34808
5188.32,0.34832
5182.54,0.34728
5176.75,0.34768
5170.97,0.34693
5165.18,0.34594
5159.39,0.34543
5153.61,0.34590
5147.82,0.34530
5142.03,0.34356
5136.25,0.34458
5130.46,0.34415
5124.68,0.34312
5118.89,0.34162
5113.1,0.34099
5107.32,0.34279
5101.53,0.34316
5095.75,0.34393
5089.96,0.34521
5084.17,0.34630
5078.39,0.34718
5072.6,0.34965
5066.81,0.35216
5061.03,0.35266
5055.24,0.35315
5049.46,0.35293
5043.67,0.35428
5037.88,0.35457
5032.1,0.35415
5026.31,0.35310
5020.52,0.35307
5014.74,0.35352
5008.95,0.35215
5003.17,0.35269
4997.38,0.35365
4991.59,0.35235
4985.81,0.35236
4980.02,0.35324
4974.23,0.35294
4968.45,0.35362
4962.66,0.35441
4956.88,0.35428
4951.09,0.35473
4945.3,0.35327
4939.52,0.35138
4933.73,0.35249
4927.94,0.35293
4922.16,0.35239
4916.37,0.35183
4910.59,0.35139
4904.8,0.35180
4899.01,0.35163
4893.23,0.35252
4887.44,0.35271
4881.65,0.35271
4875.87,0.35222
4870.08,0.35241
4864.3,0.35238
4858.51,0.35216
4852.72,0.35249
4846.94,0.35415
4841.15,0.35408
4835.36,0.35443
4829.58,0.35214
4823.79,0.35187
4818.01,0.35070
4812.22,0.34976
4806.43,0.34925
4800.65,0.34733
4794.86,0.34497
4789.07,0.34511
4783.29,0.34424
4777.5,0.34508
4771.72,0.34719
4765.93,0.34659
4760.14,0.34781
4754.36,0.34664
4748.57,0.34471
4742.78,0.34223
4737,0.33805
4731.21,0.33123
4725.43,0.32105
4719.64,0.30978
4713.85,0.30322
4708.07,0.29960
4702.28,0.29283
4696.49,0.27924
4690.71,0.26418
4684.92,0.25718
4679.14,0.26163
4673.35,0.27165
4667.56,0.27958
4661.78,0.28271
4655.99,0.28267
4650.2,0.28183
4644.42,0.27728
4638.63,0.26592
4632.85,0.25649
4627.06,0.26090
4621.27,0.27566
4615.49,0.28991
4609.7,0.29895
4603.92,0.30285
4598.13,0.30285
4592.34,0.29924
4586.56,0.29426
4580.77,0.29447
4574.98,0.29165
4569.2,0.29575
4563.41,0.30536
4557.63,0.30948
4551.84,0.30896
4546.05,0.30765
4540.27,0.30568
4534.48,0.30319
4528.69,0.29957
4522.91,0.29562
4517.12,0.29190
4511.34,0.28606
4505.55,0.27955
4499.76,0.27115
4493.98,0.25827
4488.19,0.24706
4482.4,0.24091
4476.62,0.23647
4470.83,0.23082
4465.05,0.22428
4459.26,0.21400
4453.47,0.20100
4447.69,0.18750
4441.9,0.17280
4436.11,0.15810
4430.33,0.14499
4424.54,0.13301
4418.76,0.12212
4412.97,0.11278
4407.18,0.10584
4401.4,0.10117
4395.61,0.09800
4389.82,0.09612
4384.04,0.09172
4378.25,0.08659
4372.47,0.08062
4366.68,0.07487
4360.89,0.06977
4355.11,0.06638
4349.32,0.06323
4343.53,0.06159
4337.75,0.05892
4331.96,0.05852
4326.18,0.06094
4320.39,0.06391
4314.6,0.06699
4308.82,0.06936
4303.03,0.07131
4297.24,0.07120
4291.46,0.07155
4285.67,0.07070
4279.89,0.07062
4274.1,0.07124
4268.31,0.07210
4262.53,0.07374
4256.74,0.07397
4250.95,0.07377
4245.17,0.07248
4239.38,0.07208
4233.6,0.07154
4227.81,0.07070
4222.02,0.07054
4216.24,0.07034
4210.45,0.07011
4204.66,0.07143
4198.88,0.07325
4193.09,0.07515
4187.31,0.07557
4181.52,0.07495
4175.73,0.07405
4169.95,0.07352
4164.16,0.07505
4158.37,0.07766
4152.59,0.08034
4146.8,0.08213
4141.02,0.08531
4135.23,0.08899
4129.44,0.09087
4123.66,0.09073
4117.87,0.09021
4112.09,0.08803
4106.3,0.08666
4100.51,0.08413
4094.73,0.08063
4088.94,0.07626
4083.15,0.07286
4077.37,0.07519
4071.58,0.07989
4065.8,0.08458
4060.01,0.08875
4054.22,0.09268
4048.44,0.09468
4042.65,0.09624
4036.86,0.09671
4031.08,0.09676
4025.29,0.09640
4019.51,0.09750
4013.72,0.09852
4007.93,0.10008
4002.15,0.10363
3996.36,0.10532
3990.57,0.10876
3984.79,0.11103
3979,0.11386
3973.22,0.11640
3967.43,0.11766
3961.64,0.11853
3955.86,0.11784
3950.07,0.11763
3944.28,0.11756
3938.5,0.11832
3932.71,0.11946
3926.93,0.11980
3921.14,0.12086
3915.35,0.12128
3909.57,0.12390
3903.78,0.12655
3897.99,0.12699
3892.21,0.12972
3886.42,0.13048
3880.64,0.13127
3874.85,0.13202
3869.06,0.13300
3863.28,0.13288
3857.49,0.13281
3851.7,0.13324
3845.92,0.13397
3840.13,0.13580
3834.35,0.13656
3828.56,0.13744
3822.77,0.14000
3816.99,0.14224
3811.2,0.14273
3805.41,0.14318
3799.63,0.14465
3793.84,0.14777
3788.06,0.15084
3782.27,0.15213
3776.48,0.15278
3770.7,0.15264
3764.91,0.15172
3759.12,0.15025
3753.34,0.15116
3747.55,0.15550
3741.77,0.15824
3735.98,0.15883
3730.19,0.15984
3724.41,0.16260
3718.62,0.16327
3712.83,0.15965
3707.05,0.15279
3701.26,0.14334
3695.48,0.12989
3689.69,0.11574
3683.9,0.10508
3678.12,0.10031
3672.33,0.09908
3666.54,0.09952
3660.76,0.10142
3654.97,0.10274
3649.19,0.10332
3643.4,0.10383
3637.61,0.10310
3631.83,0.10191
3626.04,0.09826
3620.25,0.09547
3614.47,0.09256
3608.68,0.09166
3602.9,0.08982
3597.11,0.08773
3591.32,0.08580
3585.54,0.08437
3579.75,0.08209
3573.97,0.07972
3568.18,0.07653
3562.39,0.07446
3556.61,0.07208
3550.82,0.07073
3545.03,0.06945
3539.25,0.06906
3533.46,0.06872
3527.68,0.06856
3521.89,0.06838
3516.1,0.06866
3510.32,0.06878
3504.53,0.06847
3498.74,0.06744
3492.96,0.06725
3487.17,0.06577
3481.39,0.06549
3475.6,0.06480
3469.81,0.06411
3464.03,0.06315
3458.24,0.06189
3452.45,0.05944
3446.67,0.05766
3440.88,0.05562
3435.1,0.05352
3429.31,0.05123
3423.52,0.05087
3417.74,0.05021
3411.95,0.05067
3406.16,0.05121
3400.38,0.05278
3394.59,0.05357
3388.81,0.05409
3383.02,0.05540
3377.23,0.05550
3371.45,0.05661
3365.66,0.05756
3359.87,0.05729
3354.09,0.05740
3348.3,0.05746
3342.52,0.05719
3336.73,0.05607
3330.94,0.05587
3325.16,0.05605
3319.37,0.05624
3313.58,0.05668
3307.8,0.05648
3302.01,0.05679
3296.23,0.05663
3290.44,0.05711
3284.65,0.05819
3278.87,0.05905
3273.08,0.05906
3267.29,0.06046
3261.51,0.06087
3255.72,0.06043
3249.94,0.06040
3244.15,0.06004
3238.36,0.05814
3232.58,0.05741
3226.79,0.05736
3221,0.05693
3215.22,0.05689
3209.43,0.05545
3203.65,0.05529
3197.86,0.05580
3192.07,0.05599
3186.29,0.05660
3180.5,0.05681
3174.71,0.05698
3168.93,0.05772
3163.14,0.05730
3157.36,0.05763
3151.57,0.05798
3145.78,0.05781
3140,0.05816
3134.21,0.05604
3128.42,0.05641
3122.64,0.05670
3116.85,0.05552
3111.07,0.05587
3105.28,0.05457
3099.49,0.05340
3093.71,0.05253
3087.92,0.05245
3082.14,0.05054
3076.35,0.05050
3070.56,0.05011
3064.78,0.04872
3058.99,0.04820
3053.2,0.04823
3047.42,0.04861
3041.63,0.04873
3035.85,0.04817
3030.06,0.04764
3024.27,0.04692
3018.49,0.04619
3012.7,0.04565
3006.91,0.04496
3001.13,0.04523
2995.34,0.04471
2989.56,0.04426
2983.77,0.04409
2977.98,0.04360
2972.2,0.04406
2966.41,0.04409
2960.62,0.04482
2954.84,0.04527
2949.05,0.04480
2943.27,0.04509
2937.48,0.04545
2931.69,0.04610
2925.91,0.04709
2920.12,0.04794
2914.33,0.04856
2908.55,0.04820
2902.76,0.04828
2896.98,0.04827
2891.19,0.04778
2885.4,0.04772
2879.62,0.04766
2873.83,0.04771
2868.04,0.04821
2862.26,0.04879
2856.47,0.04948
2850.69,0.04948
2844.9,0.04976
2839.11,0.04958
2833.33,0.04950
2827.54,0.04953
2821.75,0.04941
2815.97,0.04903
2810.18,0.04908
2804.4,0.04984
2798.61,0.05017
2792.82,0.05094
2787.04,0.05148
2781.25,0.05249
2775.46,0.05345
2769.68,0.05395
2763.89,0.05394
2758.11,0.05379
2752.32,0.05372
2746.53,0.05318
2740.75,0.05268
2734.96,0.05230
2729.17,0.05325
2723.39,0.05511
2717.6,0.05628
2711.82,0.05806
2706.03,0.05868
2700.24,0.05928
2694.46,0.05964
2688.67,0.06024
2682.88,0.05991
2677.1,0.05967
2671.31,0.05950
2665.53,0.06010
2659.74,0.06133
2653.95,0.06232
2648.17,0.06281
2642.38,0.06261
2636.59,0.06055
2630.81,0.05838
2625.02,0.05712
2619.24,0.05626
2613.45,0.05516
2607.66,0.05448
2601.88,0.05385
2596.09,0.05401
2590.3,0.05370
2584.52,0.05336
2578.73,0.05329
2572.95,0.05295
2567.16,0.05339
2561.37,0.05326
2555.59,0.05274
2549.8,0.05260
2544.02,0.05303
2538.23,0.05205
2532.44,0.05152
2526.66,0.05085
2520.87,0.05097
2515.08,0.05047
2509.3,0.05121
2503.51,0.05196
2497.73,0.05318
2491.94,0.05493
2486.15,0.05657
2480.37,0.05924
2474.58,0.06225
2468.79,0.06513
2463.01,0.06751
2457.22,0.06796
2451.44,0.06871
2445.65,0.06895
2439.86,0.06900
2434.08,0.06834
2428.29,0.06740
2422.5,0.06635
2416.72,0.06508
2410.93,0.06447
2405.15,0.06357
2399.36,0.06306
2393.57,0.06210
2387.79,0.06156
2382,0.06130
2376.21,0.06178
2370.43,0.06335
2364.64,0.06461
2358.86,0.06642
2353.07,0.06811
2347.28,0.07027
2341.5,0.07276
2335.71,0.07447
2329.92,0.07601
2324.14,0.07562
2318.35,0.07747
2312.57,0.07837
2306.78,0.07799
2300.99,0.07681
2295.21,0.07515
2289.42,0.07272
2283.63,0.07024
2277.85,0.06874
2272.06,0.07011
2266.28,0.07152
2260.49,0.07169
2254.7,0.07089
2248.92,0.06963
2243.13,0.06708
2237.34,0.06487
2231.56,0.06436
2225.77,0.06419
2219.99,0.06508
2214.2,0.06528
2208.41,0.06504
2202.63,0.06787
2196.84,0.07110
2191.05,0.07414
2185.27,0.07656
2179.48,0.07859
2173.7,0.07924
2167.91,0.07914
2162.12,0.07812
2156.34,0.07673
2150.55,0.07497
2144.76,0.07319
2138.98,0.07272
2133.19,0.07283
2127.41,0.07363
2121.62,0.07428
2115.83,0.07543
2110.05,0.07580
2104.26,0.07640
2098.47,0.07640
2092.69,0.07581
2086.9,0.07570
2081.12,0.07470
2075.33,0.07387
2069.54,0.07348
2063.76,0.07384
2057.97,0.07469
2052.19,0.07560
2046.4,0.07652
2040.61,0.07738
2034.83,0.07831
2029.04,0.07896
2023.25,0.08037
2017.47,0.08127
2011.68,0.08151
2005.9,0.08135
2000.11,0.08006
1994.32,0.07724
1988.54,0.07475
1982.75,0.07372
1976.96,0.07144
1971.18,0.06834
1965.39,0.06427
1959.61,0.05899
1953.82,0.05487
1948.03,0.05405
1942.25,0.05655
1936.46,0.06020
1930.67,0.06440
1924.89,0.06749
1919.1,0.06870
1913.32,0.06927
1907.53,0.06964
1901.74,0.06940
1895.96,0.06975
1890.17,0.07029
1884.38,0.07010
1878.6,0.07041
1872.81,0.06946
1867.03,0.06810
1861.24,0.06556
1855.45,0.06293
1849.67,0.05992
1843.88,0.05661
1838.09,0.05334
1832.31,0.04987
1826.52,0.04699
1820.74,0.04583
1814.95,0.04549
1809.16,0.04474
1803.38,0.04263
1797.59,0.04126
1791.8,0.04069
1786.02,0.04072
1780.23,0.03988
1774.45,0.03915
1768.66,0.03816
1762.87,0.03694
1757.09,0.03553
1751.3,0.03444
1745.51,0.03320
1739.73,0.03288
1733.94,0.03654
1728.16,0.04254
1722.37,0.04808
1716.58,0.05226
1710.8,0.05309
1705.01,0.05262
1699.22,0.05153
1693.44,0.05092
1687.65,0.05040
1681.87,0.04947
1676.08,0.04877
1670.29,0.04889
1664.51,0.04881
1658.72,0.04917
1652.93,0.05002
1647.15,0.05010
1641.36,0.04988
1635.58,0.05064
1629.79,0.05043
1624,0.04991
1618.22,0.04976
1612.43,0.04828
1606.64,0.04790
1600.86,0.04822
1595.07,0.04831
1589.29,0.04838
1583.5,0.04662
1577.71,0.04495
1571.93,0.04619
1566.14,0.04931
1560.35,0.05144
1554.57,0.05229
1548.78,0.05284
1543,0.05195
1537.21,0.05035
1531.42,0.04749
1525.64,0.04659
1519.85,0.04661
1514.07,0.04595
1508.28,0.04515
1502.49,0.04438
1496.71,0.04532
1490.92,0.04507
1485.13,0.04309
1479.35,0.04193
1473.56,0.04155
1467.78,0.04126
1461.99,0.04163
1456.2,0.04274
1450.42,0.04357
1444.63,0.04409
1438.84,0.04436
1433.06,0.04407
1427.27,0.04328
1421.49,0.04333
1415.7,0.04239
1409.91,0.04218
1404.13,0.04178
1398.34,0.04078
1392.55,0.04022
1386.77,0.04059
1380.98,0.04033
1375.2,0.04107
1369.41,0.04121
1363.62,0.04085
1357.84,0.04029
1352.05,0.04017
1346.26,0.03911
1340.48,0.03885
1334.69,0.03827
1328.91,0.03780
1323.12,0.03725
1317.33,0.03728
1311.55,0.03641
1305.76,0.03578
1299.97,0.03514
1294.19,0.03548
1288.4,0.03504
1282.62,0.03596
1276.83,0.03706
1271.04,0.03989
1265.26,0.04144
1259.47,0.04108
1253.68,0.04158
1247.9,0.04298
1242.11,0.04387
1236.33,0.04389
1230.54,0.04398
1224.75,0.04387
1218.97,0.04413
1213.18,0.04390
1207.39,0.04332
1201.61,0.04361
1195.82,0.04342
1190.04,0.04274
1184.25,0.04290
1178.46,0.04313
1172.68,0.04283
1166.89,0.04364
1161.1,0.04472
1155.32,0.04615
1149.53,0.04786
1143.75,0.04928
1137.96,0.04980
1132.17,0.05150
1126.39,0.05343
1120.6,0.05710
1114.81,0.06110
1109.03,0.06406
1103.24,0.06689
1097.46,0.06938
1091.67,0.07042
1085.88,0.07096
1080.1,0.07187
1074.31,0.07426
1068.52,0.07563
1062.74,0.07606
1056.95,0.07502
1051.17,0.07392
1045.38,0.07329
1039.59,0.07311
1033.81,0.07270
1028.02,0.06989
1022.24,0.06819
1016.45,0.06714
1010.66,0.06638
1004.88,0.06431
999.09,0.06285
993.304,0.06212
987.518,0.06079
981.731,0.06013
975.945,0.06076
970.159,0.06077
964.373,0.06052
958.586,0.06028
952.8,0.05981
947.014,0.06012
941.228,0.06030
935.441,0.06010
929.655,0.06021
923.869,0.06022
918.083,0.05873
912.297,0.05848
906.51,0.05826
900.724,0.05853
894.938,0.05788
889.152,0.05724
883.365,0.05684
877.579,0.05649
871.793,0.05702
866.007,0.05594
860.22,0.05580
854.434,0.05512
848.648,0.05435
842.862,0.05446
837.075,0.05393
831.289,0.05434
825.503,0.05569
819.717,0.05477
813.931,0.05472
808.144,0.05476
802.358,0.05535
796.572,0.05543
790.786,0.05492
784.999,0.05526
779.213,0.05459
773.427,0.05621
767.641,0.05481
761.854,0.05430
756.068,0.05364
750.282,0.05440
744.496,0.05450
738.709,0.05373
732.923,0.05449
727.137,0.05630
721.351,0.05512
715.565,0.05423
709.778,0.05364
703.992,0.05315
698.206,0.05264
692.42,0.05249
686.633,0.05385
680.847,0.05279
675.061,0.05271
669.275,0.05172
663.488,0.05129
657.702,0.05169
651.916,0.05147
646.13,0.05087
640.343,0.04998
634.557,0.04847
628.771,0.05016
622.985,0.05016
617.198,0.05129
611.412,0.05023
605.626,0.05002
599.84,0.04901