File: 01_Data/Vinyl_Plank_Flooring/FTIR/IS/Vinyl_Plank_Flooring_IS_S_220819_R6.dpt
7497.03,0.49306
7491.25,0.50828
7485.46,0.50165
7479.67,0.49525
7473.89,0.49475
7468.1,0.50879
7462.32,0.50588
7456.53,0.49771
7450.74,0.49498
7444.96,0.50448
7439.17,0.50425
7433.38,0.50412
7427.6,0.49593
7421.81,0.49929
7416.03,0.49379
7410.24,0.49762
7404.45,0.50087
7398.67,0.48674
7392.88,0.49298
7387.09,0.48540
7381.31,0.48646
7375.52,0.48171
7369.74,0.47032
7363.95,0.47956
7358.16,0.47709
7352.38,0.47950
7346.59,0.47248
7340.8,0.47175
7335.02,0.46965
7329.23,0.47154
7323.45,0.46166
7317.66,0.46888
7311.87,0.46280
7306.09,0.45149
7300.3,0.45170
7294.51,0.45036
7288.73,0.45471
7282.94,0.45331
7277.16,0.44769
7271.37,0.44769
7265.58,0.43428
7259.8,0.43987
7254.01,0.44186
7248.22,0.43668
7242.44,0.42105
7236.65,0.42383
7230.87,0.42836
7225.08,0.42462
7219.29,0.42551
7213.51,0.42252
7207.72,0.42601
7201.93,0.41548
7196.15,0.41561
7190.36,0.42363
7184.58,0.41487
7178.79,0.41446
7173,0.41524
7167.22,0.41303
7161.43,0.40929
7155.65,0.41820
7149.86,0.42200
7144.07,0.42385
7138.29,0.41581
7132.5,0.42155
7126.71,0.41856
7120.93,0.41346
7115.14,0.41742
7109.36,0.41452
7103.57,0.42097
7097.78,0.41885
7092,0.41224
7086.21,0.41346
7080.42,0.41114
7074.64,0.41456
7068.85,0.41063
7063.07,0.41948
7057.28,0.41485
7051.49,0.41359
7045.71,0.41822
7039.92,0.42164
7034.13,0.42090
7028.35,0.42067
7022.56,0.41637
7016.78,0.41706
7010.99,0.42192
7005.2,0.42413
6999.42,0.42209
6993.63,0.42041
6987.84,0.42244
6982.06,0.42541
6976.27,0.42748
6970.49,0.42998
6964.7,0.43134
6958.91,0.43018
6953.13,0.43609
6947.34,0.44230
6941.55,0.44054
6935.77,0.43780
6929.98,0.44345
6924.2,0.44393
6918.41,0.44109
6912.62,0.44336
6906.84,0.44173
6901.05,0.44997
6895.26,0.44538
6889.48,0.44561
6883.69,0.44858
6877.91,0.45317
6872.12,0.45349
6866.33,0.45793
6860.55,0.45394
6854.76,0.45612
6848.97,0.45720
6843.19,0.46299
6837.4,0.45930
6831.62,0.45556
6825.83,0.45998
6820.04,0.45976
6814.26,0.46209
6808.47,0.45806
6802.68,0.46173
6796.9,0.46439
6791.11,0.46342
6785.33,0.46195
6779.54,0.46747
6773.75,0.46512
6767.97,0.46872
6762.18,0.46535
6756.39,0.47341
6750.61,0.46637
6744.82,0.46825
6739.04,0.47147
6733.25,0.46806
6727.46,0.47003
6721.68,0.47040
6715.89,0.47436
6710.1,0.47339
6704.32,0.47211
6698.53,0.47029
6692.75,0.47477
6686.96,0.47385
6681.17,0.47670
6675.39,0.47324
6669.6,0.47164
6663.82,0.48077
6658.03,0.48184
6652.24,0.47935
6646.46,0.47571
6640.67,0.47515
6634.88,0.48135
6629.1,0.47813
6623.31,0.48021
6617.53,0.47596
6611.74,0.47678
6605.95,0.48167
6600.17,0.47922
6594.38,0.47589
6588.59,0.47835
6582.81,0.47922
6577.02,0.48039
6571.24,0.48022
6565.45,0.48070
6559.66,0.47862
6553.88,0.48369
6548.09,0.48725
6542.3,0.48239
6536.52,0.48472
6530.73,0.48380
6524.95,0.48090
6519.16,0.48373
6513.37,0.48699
6507.59,0.48296
6501.8,0.48451
6496.01,0.48921
6490.23,0.48809
6484.44,0.48620
6478.66,0.48917
6472.87,0.48649
6467.08,0.48815
6461.3,0.48714
6455.51,0.48510
6449.72,0.48993
6443.94,0.48931
6438.15,0.48941
6432.37,0.48636
6426.58,0.48717
6420.79,0.49125
6415.01,0.49068
6409.22,0.48758
6403.43,0.49058
6397.65,0.49172
6391.86,0.48845
6386.08,0.49079
6380.29,0.48839
6374.5,0.49086
6368.72,0.48861
6362.93,0.48814
6357.14,0.48977
6351.36,0.48693
6345.57,0.48962
6339.79,0.48719
6334,0.48620
6328.21,0.49000
6322.43,0.48769
6316.64,0.49280
6310.85,0.49155
6305.07,0.48972
6299.28,0.49257
6293.5,0.49087
6287.71,0.48934
6281.92,0.49401
6276.14,0.49063
6270.35,0.49014
6264.56,0.49117
6258.78,0.49085
6252.99,0.49165
6247.21,0.49247
6241.42,0.49493
6235.63,0.48985
6229.85,0.49074
6224.06,0.48967
6218.27,0.48794
6212.49,0.48739
6206.7,0.48462
6200.92,0.48128
6195.13,0.48166
6189.34,0.48109
6183.56,0.47980
6177.77,0.48063
6171.98,0.48054
6166.2,0.47963
6160.41,0.47938
6154.63,0.47691
6148.84,0.47559
6143.05,0.47306
6137.27,0.47299
6131.48,0.47318
6125.7,0.46791
6119.91,0.46816
6114.12,0.46477
6108.34,0.45803
6102.55,0.45160
6096.76,0.44403
6090.98,0.43190
6085.19,0.42237
6079.41,0.41679
6073.62,0.40767
6067.83,0.39654
6062.05,0.38583
6056.26,0.37127
6050.47,0.36489
6044.69,0.35234
6038.9,0.34824
6033.12,0.34339
6027.33,0.33328
6021.54,0.32541
6015.76,0.32013
6009.97,0.32183
6004.18,0.33154
5998.4,0.34463
5992.61,0.35408
5986.83,0.36660
5981.04,0.37202
5975.25,0.37717
5969.47,0.37566
5963.68,0.37408
5957.89,0.36940
5952.11,0.36160
5946.32,0.35069
5940.54,0.33628
5934.75,0.32595
5928.96,0.31744
5923.18,0.30507
5917.39,0.29430
5911.6,0.28409
5905.82,0.27777
5900.03,0.26524
5894.25,0.25267
5888.46,0.24114
5882.67,0.23155
5876.89,0.22315
5871.1,0.21594
5865.31,0.21053
5859.53,0.19937
5853.74,0.19117
5847.96,0.18069
5842.17,0.17487
5836.38,0.16507
5830.6,0.16137
5824.81,0.15631
5819.02,0.16175
5813.24,0.17381
5807.45,0.18160
5801.67,0.19047
5795.88,0.20002
5790.09,0.20959
5784.31,0.22107
5778.52,0.22589
5772.73,0.23311
5766.95,0.23502
5761.16,0.23283
5755.38,0.23338
5749.59,0.22993
5743.8,0.22767
5738.02,0.22780
5732.23,0.22737
5726.44,0.22693
5720.66,0.23126
5714.87,0.22875
5709.09,0.22857
5703.3,0.22942
5697.51,0.22680
5691.73,0.23372
5685.94,0.24004
5680.15,0.24593
5674.37,0.25251
5668.58,0.25549
5662.8,0.25923
5657.01,0.26116
5651.22,0.26158
5645.44,0.26575
5639.65,0.26857
5633.87,0.27371
5628.08,0.27798
5622.29,0.28202
5616.51,0.28360
5610.72,0.28890
5604.93,0.28767
5599.15,0.28983
5593.36,0.29320
5587.58,0.29770
5581.79,0.29832
5576,0.29976
5570.22,0.30273
5564.43,0.30625
5558.64,0.30900
5552.86,0.31114
5547.07,0.31157
5541.29,0.31409
5535.5,0.31446
5529.71,0.31314
5523.93,0.31467
5518.14,0.31470
5512.35,0.31665
5506.57,0.31618
5500.78,0.31600
5495,0.31710
5489.21,0.31466
5483.42,0.31379
5477.64,0.31455
5471.85,0.31362
5466.06,0.31237
5460.28,0.31473
5454.49,0.31813
5448.71,0.32092
5442.92,0.32382
5437.13,0.32774
5431.35,0.32994
5425.56,0.33353
5419.77,0.33500
5413.99,0.33766
5408.2,0.33630
5402.42,0.33786
5396.63,0.33948
5390.84,0.34048
5385.06,0.34102
5379.27,0.34315
5373.48,0.34677
5367.7,0.34900
5361.91,0.35049
5356.13,0.35265
5350.34,0.35332
5344.55,0.35424
5338.77,0.35438
5332.98,0.35696
5327.19,0.35803
5321.41,0.35834
5315.62,0.35856
5309.84,0.35982
5304.05,0.36160
5298.26,0.36056
5292.48,0.36074
5286.69,0.35839
5280.9,0.35473
5275.12,0.35273
5269.33,0.34971
5263.55,0.34882
5257.76,0.34629
5251.97,0.34698
5246.19,0.34822
5240.4,0.34911
5234.61,0.35159
5228.83,0.35245
5223.04,0.35282
5217.26,0.35251
5211.47,0.35247
5205.68,0.35348
5199.9,0.35220
5194.11,0.35389
5188.32,0.35168
5182.54,0.35202
5176.75,0.35078
5170.97,0.35082
5165.18,0.35056
5159.39,0.35016
5153.61,0.35033
5147.82,0.34985
5142.03,0.34833
5136.25,0.34927
5130.46,0.34747
5124.68,0.34579
5118.89,0.34560
5113.1,0.34602
5107.32,0.34578
5101.53,0.34560
5095.75,0.34795
5089.96,0.34891
5084.17,0.34930
5078.39,0.35094
5072.6,0.35308
5066.81,0.35396
5061.03,0.35432
5055.24,0.35598
5049.46,0.35586
5043.67,0.35603
5037.88,0.35655
5032.1,0.35689
5026.31,0.35758
5020.52,0.35697
5014.74,0.35537
5008.95,0.35523
5003.17,0.35580
4997.38,0.35535
4991.59,0.35548
4985.81,0.35625
4980.02,0.35651
4974.23,0.35653
4968.45,0.35681
4962.66,0.35744
4956.88,0.35751
4951.09,0.35644
4945.3,0.35662
4939.52,0.35551
4933.73,0.35421
4927.94,0.35483
4922.16,0.35465
4916.37,0.35563
4910.59,0.35484
4904.8,0.35489
4899.01,0.35510
4893.23,0.35526
4887.44,0.35538
4881.65,0.35522
4875.87,0.35557
4870.08,0.35606
4864.3,0.35593
4858.51,0.35572
4852.72,0.35539
4846.94,0.35582
4841.15,0.35828
4835.36,0.35659
4829.58,0.35598
4823.79,0.35409
4818.01,0.35371
4812.22,0.35177
4806.43,0.35117
4800.65,0.35122
4794.86,0.34943
4789.07,0.34719
4783.29,0.34707
4777.5,0.34796
4771.72,0.34958
4765.93,0.35122
4760.14,0.35201
4754.36,0.35114
4748.57,0.34826
4742.78,0.34471
4737,0.34015
4731.21,0.33489
4725.43,0.32439
4719.64,0.31215
4713.85,0.30559
4708.07,0.30305
4702.28,0.29501
4696.49,0.28153
4690.71,0.26696
4684.92,0.26101
4679.14,0.26559
4673.35,0.27339
4667.56,0.28147
4661.78,0.28485
4655.99,0.28564
4650.2,0.28478
4644.42,0.28112
4638.63,0.26999
4632.85,0.25929
4627.06,0.26299
4621.27,0.27846
4615.49,0.29263
4609.7,0.29990
4603.92,0.30548
4598.13,0.30618
4592.34,0.30215
4586.56,0.29802
4580.77,0.29806
4574.98,0.29421
4569.2,0.29827
4563.41,0.30782
4557.63,0.31233
4551.84,0.31199
4546.05,0.30962
4540.27,0.30827
4534.48,0.30637
4528.69,0.30241
4522.91,0.29798
4517.12,0.29374
4511.34,0.28956
4505.55,0.28212
4499.76,0.27343
4493.98,0.26153
4488.19,0.24960
4482.4,0.24301
4476.62,0.23914
4470.83,0.23327
4465.05,0.22712
4459.26,0.21650
4453.47,0.20424
4447.69,0.18967
4441.9,0.17487
4436.11,0.16082
4430.33,0.14794
4424.54,0.13549
4418.76,0.12476
4412.97,0.11619
4407.18,0.10778
4401.4,0.10357
4395.61,0.10125
4389.82,0.10006
4384.04,0.09566
4378.25,0.09014
4372.47,0.08406
4366.68,0.07773
4360.89,0.07237
4355.11,0.06935
4349.32,0.06662
4343.53,0.06480
4337.75,0.06254
4331.96,0.06246
4326.18,0.06387
4320.39,0.06753
4314.6,0.07086
4308.82,0.07217
4303.03,0.07364
4297.24,0.07502
4291.46,0.07376
4285.67,0.07321
4279.89,0.07324
4274.1,0.07404
4268.31,0.07574
4262.53,0.07584
4256.74,0.07632
4250.95,0.07599
4245.17,0.07557
4239.38,0.07523
4233.6,0.07474
4227.81,0.07325
4222.02,0.07347
4216.24,0.07364
4210.45,0.07364
4204.66,0.07422
4198.88,0.07578
4193.09,0.07778
4187.31,0.07925
4181.52,0.07881
4175.73,0.07684
4169.95,0.07645
4164.16,0.07775
4158.37,0.08090
4152.59,0.08395
4146.8,0.08671
4141.02,0.08912
4135.23,0.09157
4129.44,0.09390
4123.66,0.09415
4117.87,0.09262
4112.09,0.09182
4106.3,0.08959
4100.51,0.08798
4094.73,0.08439
4088.94,0.07890
4083.15,0.07637
4077.37,0.07715
4071.58,0.08233
4065.8,0.08720
4060.01,0.09121
4054.22,0.09544
4048.44,0.09745
4042.65,0.09887
4036.86,0.10011
4031.08,0.09987
4025.29,0.09910
4019.51,0.10022
4013.72,0.10163
4007.93,0.10336
4002.15,0.10559
3996.36,0.10860
3990.57,0.11151
3984.79,0.11441
3979,0.11690
3973.22,0.11924
3967.43,0.12080
3961.64,0.12090
3955.86,0.12144
3950.07,0.12131
3944.28,0.12069
3938.5,0.12137
3932.71,0.12258
3926.93,0.12281
3921.14,0.12369
3915.35,0.12517
3909.57,0.12713
3903.78,0.12889
3897.99,0.13043
3892.21,0.13245
3886.42,0.13364
3880.64,0.13501
3874.85,0.13560
3869.06,0.13541
3863.28,0.13609
3857.49,0.13610
3851.7,0.13627
3845.92,0.13696
3840.13,0.13930
3834.35,0.14054
3828.56,0.14157
3822.77,0.14273
3816.99,0.14493
3811.2,0.14622
3805.41,0.14715
3799.63,0.14900
3793.84,0.15165
3788.06,0.15478
3782.27,0.15609
3776.48,0.15676
3770.7,0.15617
3764.91,0.15539
3759.12,0.15388
3753.34,0.15552
3747.55,0.15874
3741.77,0.16146
3735.98,0.16289
3730.19,0.16460
3724.41,0.16769
3718.62,0.16805
3712.83,0.16438
3707.05,0.15798
3701.26,0.14842
3695.48,0.13643
3689.69,0.12261
3683.9,0.11172
3678.12,0.10850
3672.33,0.10750
3666.54,0.10908
3660.76,0.10992
3654.97,0.11168
3649.19,0.11344
3643.4,0.11283
3637.61,0.11190
3631.83,0.10924
3626.04,0.10591
3620.25,0.10308
3614.47,0.10014
3608.68,0.09849
3602.9,0.09647
3597.11,0.09429
3591.32,0.09219
3585.54,0.09048
3579.75,0.08888
3573.97,0.08699
3568.18,0.08414
3562.39,0.08131
3556.61,0.07856
3550.82,0.07680
3545.03,0.07592
3539.25,0.07520
3533.46,0.07472
3527.68,0.07433
3521.89,0.07452
3516.1,0.07366
3510.32,0.07340
3504.53,0.07317
3498.74,0.07276
3492.96,0.07189
3487.17,0.07160
3481.39,0.07095
3475.6,0.06950
3469.81,0.06885
3464.03,0.06709
3458.24,0.06550
3452.45,0.06427
3446.67,0.06202
3440.88,0.06011
3435.1,0.05665
3429.31,0.05557
3423.52,0.05428
3417.74,0.05331
3411.95,0.05392
3406.16,0.05496
3400.38,0.05529
3394.59,0.05648
3388.81,0.05682
3383.02,0.05748
3377.23,0.05887
3371.45,0.05986
3365.66,0.06088
3359.87,0.06114
3354.09,0.06059
3348.3,0.06110
3342.52,0.06102
3336.73,0.06027
3330.94,0.06044
3325.16,0.05945
3319.37,0.05890
3313.58,0.05948
3307.8,0.06008
3302.01,0.06062
3296.23,0.06064
3290.44,0.06050
3284.65,0.06086
3278.87,0.06235
3273.08,0.06313
3267.29,0.06472
3261.51,0.06408
3255.72,0.06360
3249.94,0.06408
3244.15,0.06325
3238.36,0.06196
3232.58,0.06016
3226.79,0.06028
3221,0.05942
3215.22,0.05912
3209.43,0.05857
3203.65,0.05904
3197.86,0.05812
3192.07,0.05979
3186.29,0.05957
3180.5,0.05982
3174.71,0.06019
3168.93,0.06044
3163.14,0.06097
3157.36,0.06152
3151.57,0.06166
3145.78,0.06108
3140,0.06133
3134.21,0.05947
3128.42,0.05955
3122.64,0.06003
3116.85,0.05927
3111.07,0.05878
3105.28,0.05790
3099.49,0.05694
3093.71,0.05608
3087.92,0.05509
3082.14,0.05435
3076.35,0.05402
3070.56,0.05312
3064.78,0.05243
3058.99,0.05196
3053.2,0.05133
3047.42,0.05236
3041.63,0.05255
3035.85,0.05155
3030.06,0.05093
3024.27,0.05013
3018.49,0.04944
3012.7,0.04862
3006.91,0.04875
3001.13,0.04808
2995.34,0.04773
2989.56,0.04722
2983.77,0.04672
2977.98,0.04683
2972.2,0.04705
2966.41,0.04729
2960.62,0.04728
2954.84,0.04844
2949.05,0.04788
2943.27,0.04791
2937.48,0.04848
2931.69,0.04955
2925.91,0.05062
2920.12,0.05111
2914.33,0.05119
2908.55,0.05110
2902.76,0.05115
2896.98,0.05106
2891.19,0.05105
2885.4,0.05072
2879.62,0.05084
2873.83,0.05127
2868.04,0.05170
2862.26,0.05228
2856.47,0.05276
2850.69,0.05321
2844.9,0.05348
2839.11,0.05351
2833.33,0.05289
2827.54,0.05255
2821.75,0.05258
2815.97,0.05198
2810.18,0.05229
2804.4,0.05268
2798.61,0.05352
2792.82,0.05456
2787.04,0.05515
2781.25,0.05596
2775.46,0.05679
2769.68,0.05708
2763.89,0.05755
2758.11,0.05719
2752.32,0.05727
2746.53,0.05647
2740.75,0.05625
2734.96,0.05570
2729.17,0.05603
2723.39,0.05776
2717.6,0.05986
2711.82,0.06102
2706.03,0.06197
2700.24,0.06261
2694.46,0.06290
2688.67,0.06346
2682.88,0.06321
2677.1,0.06276
2671.31,0.06245
2665.53,0.06259
2659.74,0.06420
2653.95,0.06563
2648.17,0.06602
2642.38,0.06550
2636.59,0.06366
2630.81,0.06158
2625.02,0.06012
2619.24,0.05948
2613.45,0.05917
2607.66,0.05806
2601.88,0.05722
2596.09,0.05724
2590.3,0.05682
2584.52,0.05680
2578.73,0.05650
2572.95,0.05623
2567.16,0.05636
2561.37,0.05595
2555.59,0.05586
2549.8,0.05585
2544.02,0.05596
2538.23,0.05553
2532.44,0.05450
2526.66,0.05425
2520.87,0.05392
2515.08,0.05405
2509.3,0.05435
2503.51,0.05526
2497.73,0.05656
2491.94,0.05791
2486.15,0.05994
2480.37,0.06203
2474.58,0.06512
2468.79,0.06843
2463.01,0.07037
2457.22,0.07130
2451.44,0.07194
2445.65,0.07227
2439.86,0.07184
2434.08,0.07143
2428.29,0.07047
2422.5,0.06910
2416.72,0.06852
2410.93,0.06747
2405.15,0.06681
2399.36,0.06561
2393.57,0.06484
2387.79,0.06465
2382,0.06477
2376.21,0.06498
2370.43,0.06632
2364.64,0.06794
2358.86,0.06956
2353.07,0.07158
2347.28,0.07312
2341.5,0.07545
2335.71,0.07781
2329.92,0.07988
2324.14,0.07848
2318.35,0.07985
2312.57,0.08129
2306.78,0.08116
2300.99,0.08013
2295.21,0.07812
2289.42,0.07573
2283.63,0.07323
2277.85,0.07188
2272.06,0.07254
2266.28,0.07423
2260.49,0.07468
2254.7,0.07407
2248.92,0.07266
2243.13,0.07006
2237.34,0.06835
2231.56,0.06756
2225.77,0.06741
2219.99,0.06807
2214.2,0.06807
2208.41,0.06818
2202.63,0.07064
2196.84,0.07448
2191.05,0.07636
2185.27,0.07925
2179.48,0.08156
2173.7,0.08251
2167.91,0.08207
2162.12,0.08091
2156.34,0.07966
2150.55,0.07794
2144.76,0.07617
2138.98,0.07593
2133.19,0.07555
2127.41,0.07669
2121.62,0.07753
2115.83,0.07846
2110.05,0.07899
2104.26,0.07939
2098.47,0.07899
2092.69,0.07891
2086.9,0.07861
2081.12,0.07776
2075.33,0.07708
2069.54,0.07680
2063.76,0.07676
2057.97,0.07726
2052.19,0.07835
2046.4,0.07963
2040.61,0.08035
2034.83,0.08138
2029.04,0.08214
2023.25,0.08332
2017.47,0.08422
2011.68,0.08444
2005.9,0.08410
2000.11,0.08285
1994.32,0.08023
1988.54,0.07731
1982.75,0.07662
1976.96,0.07456
1971.18,0.07167
1965.39,0.06725
1959.61,0.06219
1953.82,0.05808
1948.03,0.05693
1942.25,0.05924
1936.46,0.06343
1930.67,0.06754
1924.89,0.07045
1919.1,0.07207
1913.32,0.07268
1907.53,0.07226
1901.74,0.07299
1895.96,0.07286
1890.17,0.07294
1884.38,0.07306
1878.6,0.07266
1872.81,0.07250
1867.03,0.07064
1861.24,0.06877
1855.45,0.06620
1849.67,0.06286
1843.88,0.05984
1838.09,0.05641
1832.31,0.05283
1826.52,0.04982
1820.74,0.04876
1814.95,0.04834
1809.16,0.04755
1803.38,0.04591
1797.59,0.04457
1791.8,0.04346
1786.02,0.04348
1780.23,0.04314
1774.45,0.04230
1768.66,0.04110
1762.87,0.03973
1757.09,0.03833
1751.3,0.03703
1745.51,0.03549
1739.73,0.03568
1733.94,0.03983
1728.16,0.04591
1722.37,0.05193
1716.58,0.05530
1710.8,0.05647
1705.01,0.05635
1699.22,0.05507
1693.44,0.05402
1687.65,0.05354
1681.87,0.05293
1676.08,0.05286
1670.29,0.05206
1664.51,0.05194
1658.72,0.05270
1652.93,0.05353
1647.15,0.05337
1641.36,0.05350
1635.58,0.05391
1629.79,0.05385
1624,0.05378
1618.22,0.05353
1612.43,0.05186
1606.64,0.05153
1600.86,0.05168
1595.07,0.05231
1589.29,0.05197
1583.5,0.04995
1577.71,0.04861
1571.93,0.04989
1566.14,0.05263
1560.35,0.05486
1554.57,0.05550
1548.78,0.05603
1543,0.05593
1537.21,0.05360
1531.42,0.05102
1525.64,0.05022
1519.85,0.04979
1514.07,0.04882
1508.28,0.04827
1502.49,0.04774
1496.71,0.04873
1490.92,0.04802
1485.13,0.04675
1479.35,0.04549
1473.56,0.04450
1467.78,0.04460
1461.99,0.04506
1456.2,0.04606
1450.42,0.04678
1444.63,0.04749
1438.84,0.04797
1433.06,0.04760
1427.27,0.04681
1421.49,0.04683
1415.7,0.04545
1409.91,0.04529
1404.13,0.04510
1398.34,0.04437
1392.55,0.04371
1386.77,0.04363
1380.98,0.04351
1375.2,0.04437
1369.41,0.04469
1363.62,0.04446
1357.84,0.04341
1352.05,0.04291
1346.26,0.04269
1340.48,0.04204
1334.69,0.04153
1328.91,0.04103
1323.12,0.04083
1317.33,0.04025
1311.55,0.03942
1305.76,0.03838
1299.97,0.03822
1294.19,0.03803
1288.4,0.03842
1282.62,0.03886
1276.83,0.04076
1271.04,0.04326
1265.26,0.04511
1259.47,0.04463
1253.68,0.04472
1247.9,0.04629
1242.11,0.04679
1236.33,0.04702
1230.54,0.04690
1224.75,0.04735
1218.97,0.04708
1213.18,0.04672
1207.39,0.04708
1201.61,0.04669
1195.82,0.04632
1190.04,0.04600
1184.25,0.04640
1178.46,0.04632
1172.68,0.04637
1166.89,0.04703
1161.1,0.04867
1155.32,0.04995
1149.53,0.05137
1143.75,0.05240
1137.96,0.05339
1132.17,0.05461
1126.39,0.05685
1120.6,0.06040
1114.81,0.06437
1109.03,0.06750
1103.24,0.07072
1097.46,0.07344
1091.67,0.07523
1085.88,0.07536
1080.1,0.07650
1074.31,0.07836
1068.52,0.07967
1062.74,0.07997
1056.95,0.07933
1051.17,0.07858
1045.38,0.07748
1039.59,0.07710
1033.81,0.07662
1028.02,0.07469
1022.24,0.07284
1016.45,0.07085
1010.66,0.06985
1004.88,0.06860
999.09,0.06668
993.304,0.06592
987.518,0.06564
981.731,0.06486
975.945,0.06418
970.159,0.06426
964.373,0.06400
958.586,0.06399
952.8,0.06419
947.014,0.06401
941.228,0.06427
935.441,0.06375
929.655,0.06377
923.869,0.06313
918.083,0.06256
912.297,0.06210
906.51,0.06206
900.724,0.06189
894.938,0.06149
889.152,0.06099
883.365,0.06099
877.579,0.06054
871.793,0.05983
866.007,0.05968
860.22,0.05977
854.434,0.05805
848.648,0.05787
842.862,0.05816
837.075,0.05728
831.289,0.05781
825.503,0.05849
819.717,0.05773
813.931,0.05849
808.144,0.05960
802.358,0.05939
796.572,0.05837
790.786,0.05852
784.999,0.05873
779.213,0.05884
773.427,0.05893
767.641,0.05869
761.854,0.05810
756.068,0.05765
750.282,0.05798
744.496,0.05827
738.709,0.05663
732.923,0.05871
727.137,0.06130
721.351,0.05911
715.565,0.05784
709.778,0.05649
703.992,0.05769
698.206,0.05667
692.42,0.05644
686.633,0.05623
680.847,0.05704
675.061,0.05660
669.275,0.05553
663.488,0.05665
657.702,0.05517
651.916,0.05459
646.13,0.05488
640.343,0.05475
634.557,0.05143
628.771,0.05175
622.985,0.05025
617.198,0.05190
611.412,0.05204
605.626,0.05033
599.84,0.05293