File: 01_Data/Vinyl_Plank_Flooring/FTIR/IS/Vinyl_Plank_Flooring_IS_S_220819_R1.dpt
7497.03,0.50079
7491.25,0.49723
7485.46,0.50132
7479.67,0.50684
7473.89,0.49832
7468.1,0.49817
7462.32,0.49754
7456.53,0.49621
7450.74,0.49867
7444.96,0.48901
7439.17,0.50230
7433.38,0.49602
7427.6,0.50182
7421.81,0.49866
7416.03,0.48511
7410.24,0.48520
7404.45,0.48669
7398.67,0.48155
7392.88,0.48355
7387.09,0.48446
7381.31,0.48702
7375.52,0.47941
7369.74,0.48560
7363.95,0.48274
7358.16,0.47172
7352.38,0.46844
7346.59,0.46776
7340.8,0.46737
7335.02,0.45953
7329.23,0.46701
7323.45,0.46343
7317.66,0.46065
7311.87,0.45892
7306.09,0.45607
7300.3,0.45788
7294.51,0.45407
7288.73,0.44757
7282.94,0.44650
7277.16,0.44427
7271.37,0.44343
7265.58,0.42966
7259.8,0.43449
7254.01,0.43708
7248.22,0.42901
7242.44,0.42956
7236.65,0.43452
7230.87,0.42003
7225.08,0.42134
7219.29,0.41932
7213.51,0.42314
7207.72,0.41537
7201.93,0.41461
7196.15,0.41766
7190.36,0.41791
7184.58,0.41395
7178.79,0.40687
7173,0.41246
7167.22,0.41794
7161.43,0.41753
7155.65,0.41507
7149.86,0.41581
7144.07,0.41064
7138.29,0.41145
7132.5,0.41447
7126.71,0.42106
7120.93,0.41833
7115.14,0.41890
7109.36,0.42001
7103.57,0.41210
7097.78,0.41036
7092,0.41120
7086.21,0.41000
7080.42,0.41086
7074.64,0.41063
7068.85,0.41273
7063.07,0.41547
7057.28,0.40897
7051.49,0.41051
7045.71,0.41097
7039.92,0.42101
7034.13,0.41688
7028.35,0.42194
7022.56,0.42123
7016.78,0.41733
7010.99,0.41710
7005.2,0.41782
6999.42,0.41329
6993.63,0.41256
6987.84,0.41413
6982.06,0.42049
6976.27,0.42462
6970.49,0.42708
6964.7,0.42908
6958.91,0.43184
6953.13,0.43472
6947.34,0.43555
6941.55,0.43395
6935.77,0.43777
6929.98,0.43786
6924.2,0.43856
6918.41,0.43649
6912.62,0.43937
6906.84,0.44324
6901.05,0.44920
6895.26,0.44784
6889.48,0.44706
6883.69,0.44413
6877.91,0.45231
6872.12,0.44774
6866.33,0.45113
6860.55,0.44702
6854.76,0.45301
6848.97,0.45620
6843.19,0.45476
6837.4,0.45819
6831.62,0.45667
6825.83,0.45437
6820.04,0.45498
6814.26,0.45838
6808.47,0.46487
6802.68,0.45808
6796.9,0.46277
6791.11,0.46474
6785.33,0.46211
6779.54,0.45850
6773.75,0.46081
6767.97,0.46337
6762.18,0.46717
6756.39,0.46480
6750.61,0.45946
6744.82,0.46967
6739.04,0.46949
6733.25,0.46587
6727.46,0.46837
6721.68,0.46318
6715.89,0.46943
6710.1,0.46954
6704.32,0.46993
6698.53,0.46912
6692.75,0.47204
6686.96,0.46803
6681.17,0.46688
6675.39,0.46780
6669.6,0.47426
6663.82,0.47678
6658.03,0.47339
6652.24,0.47295
6646.46,0.47159
6640.67,0.47201
6634.88,0.47881
6629.1,0.47954
6623.31,0.47286
6617.53,0.47717
6611.74,0.47730
6605.95,0.47870
6600.17,0.47946
6594.38,0.47949
6588.59,0.47973
6582.81,0.48084
6577.02,0.47993
6571.24,0.47516
6565.45,0.47644
6559.66,0.47404
6553.88,0.47942
6548.09,0.48176
6542.3,0.47934
6536.52,0.47824
6530.73,0.47734
6524.95,0.47987
6519.16,0.48231
6513.37,0.48087
6507.59,0.48278
6501.8,0.48380
6496.01,0.48384
6490.23,0.48461
6484.44,0.48541
6478.66,0.48737
6472.87,0.48571
6467.08,0.48528
6461.3,0.48646
6455.51,0.49247
6449.72,0.48904
6443.94,0.48948
6438.15,0.49097
6432.37,0.48642
6426.58,0.48832
6420.79,0.48788
6415.01,0.49148
6409.22,0.49204
6403.43,0.49083
6397.65,0.48871
6391.86,0.48731
6386.08,0.48756
6380.29,0.48801
6374.5,0.48824
6368.72,0.48653
6362.93,0.48707
6357.14,0.48582
6351.36,0.48431
6345.57,0.48652
6339.79,0.48256
6334,0.48611
6328.21,0.48764
6322.43,0.48603
6316.64,0.48939
6310.85,0.48512
6305.07,0.48656
6299.28,0.48824
6293.5,0.48672
6287.71,0.49121
6281.92,0.49138
6276.14,0.48984
6270.35,0.49019
6264.56,0.48916
6258.78,0.49013
6252.99,0.48825
6247.21,0.48890
6241.42,0.49111
6235.63,0.48851
6229.85,0.48543
6224.06,0.48833
6218.27,0.48822
6212.49,0.48514
6206.7,0.48445
6200.92,0.48336
6195.13,0.47920
6189.34,0.47328
6183.56,0.47741
6177.77,0.47915
6171.98,0.47638
6166.2,0.47559
6160.41,0.47591
6154.63,0.46969
6148.84,0.47112
6143.05,0.47137
6137.27,0.46950
6131.48,0.46963
6125.7,0.46851
6119.91,0.46532
6114.12,0.46239
6108.34,0.45239
6102.55,0.45019
6096.76,0.43903
6090.98,0.42973
6085.19,0.41705
6079.41,0.41248
6073.62,0.40539
6067.83,0.39169
6062.05,0.38028
6056.26,0.36950
6050.47,0.36057
6044.69,0.35130
6038.9,0.34576
6033.12,0.33660
6027.33,0.32646
6021.54,0.32167
6015.76,0.31781
6009.97,0.31863
6004.18,0.32642
5998.4,0.34153
5992.61,0.35501
5986.83,0.36246
5981.04,0.37061
5975.25,0.37164
5969.47,0.37300
5963.68,0.37427
5957.89,0.36948
5952.11,0.36058
5946.32,0.34549
5940.54,0.33563
5934.75,0.32539
5928.96,0.31390
5923.18,0.30243
5917.39,0.29016
5911.6,0.28347
5905.82,0.27194
5900.03,0.26356
5894.25,0.25235
5888.46,0.24122
5882.67,0.22980
5876.89,0.22237
5871.1,0.21521
5865.31,0.20674
5859.53,0.19733
5853.74,0.18713
5847.96,0.17811
5842.17,0.17022
5836.38,0.16336
5830.6,0.15671
5824.81,0.15630
5819.02,0.16295
5813.24,0.17064
5807.45,0.17766
5801.67,0.18844
5795.88,0.19705
5790.09,0.20877
5784.31,0.21481
5778.52,0.22430
5772.73,0.22757
5766.95,0.23209
5761.16,0.23131
5755.38,0.22896
5749.59,0.22761
5743.8,0.22501
5738.02,0.22483
5732.23,0.22387
5726.44,0.22463
5720.66,0.22511
5714.87,0.22579
5709.09,0.22594
5703.3,0.22319
5697.51,0.22461
5691.73,0.23044
5685.94,0.23505
5680.15,0.24239
5674.37,0.24767
5668.58,0.25314
5662.8,0.25430
5657.01,0.25770
5651.22,0.25954
5645.44,0.26281
5639.65,0.26572
5633.87,0.26914
5628.08,0.27447
5622.29,0.27839
5616.51,0.28091
5610.72,0.28404
5604.93,0.28534
5599.15,0.28757
5593.36,0.29096
5587.58,0.29328
5581.79,0.29699
5576,0.29968
5570.22,0.29940
5564.43,0.30391
5558.64,0.30596
5552.86,0.30490
5547.07,0.30862
5541.29,0.30759
5535.5,0.31139
5529.71,0.31151
5523.93,0.31132
5518.14,0.31246
5512.35,0.31228
5506.57,0.31369
5500.78,0.31364
5495,0.31290
5489.21,0.31263
5483.42,0.31041
5477.64,0.31098
5471.85,0.31106
5466.06,0.31240
5460.28,0.31131
5454.49,0.31399
5448.71,0.31753
5442.92,0.32078
5437.13,0.32576
5431.35,0.32796
5425.56,0.32987
5419.77,0.33128
5413.99,0.33326
5408.2,0.33560
5402.42,0.33422
5396.63,0.33749
5390.84,0.33947
5385.06,0.34051
5379.27,0.33962
5373.48,0.34299
5367.7,0.34631
5361.91,0.34597
5356.13,0.34841
5350.34,0.34974
5344.55,0.35004
5338.77,0.34986
5332.98,0.35265
5327.19,0.35499
5321.41,0.35569
5315.62,0.35630
5309.84,0.35808
5304.05,0.35726
5298.26,0.35764
5292.48,0.35703
5286.69,0.35439
5280.9,0.35138
5275.12,0.34568
5269.33,0.34292
5263.55,0.34188
5257.76,0.33967
5251.97,0.33934
5246.19,0.34029
5240.4,0.34345
5234.61,0.34455
5228.83,0.34490
5223.04,0.34732
5217.26,0.34720
5211.47,0.34804
5205.68,0.34762
5199.9,0.34656
5194.11,0.34660
5188.32,0.34808
5182.54,0.34556
5176.75,0.34691
5170.97,0.34651
5165.18,0.34655
5159.39,0.34669
5153.61,0.34571
5147.82,0.34502
5142.03,0.34532
5136.25,0.34436
5130.46,0.34311
5124.68,0.34158
5118.89,0.34042
5113.1,0.34218
5107.32,0.34216
5101.53,0.34333
5095.75,0.34370
5089.96,0.34445
5084.17,0.34631
5078.39,0.34703
5072.6,0.35042
5066.81,0.35123
5061.03,0.35041
5055.24,0.35136
5049.46,0.35152
5043.67,0.35287
5037.88,0.35237
5032.1,0.35374
5026.31,0.35342
5020.52,0.35287
5014.74,0.35254
5008.95,0.35172
5003.17,0.35252
4997.38,0.35234
4991.59,0.35132
4985.81,0.35246
4980.02,0.35276
4974.23,0.35242
4968.45,0.35382
4962.66,0.35307
4956.88,0.35358
4951.09,0.35399
4945.3,0.35412
4939.52,0.35198
4933.73,0.35114
4927.94,0.35210
4922.16,0.35178
4916.37,0.35094
4910.59,0.35153
4904.8,0.35219
4899.01,0.35179
4893.23,0.35048
4887.44,0.35144
4881.65,0.35134
4875.87,0.35190
4870.08,0.35235
4864.3,0.35291
4858.51,0.35189
4852.72,0.35258
4846.94,0.35276
4841.15,0.35330
4835.36,0.35336
4829.58,0.35229
4823.79,0.35188
4818.01,0.34917
4812.22,0.34913
4806.43,0.34895
4800.65,0.34659
4794.86,0.34592
4789.07,0.34389
4783.29,0.34420
4777.5,0.34430
4771.72,0.34596
4765.93,0.34780
4760.14,0.34861
4754.36,0.34683
4748.57,0.34544
4742.78,0.34193
4737,0.33787
4731.21,0.33063
4725.43,0.32025
4719.64,0.30876
4713.85,0.30273
4708.07,0.29984
4702.28,0.29288
4696.49,0.27836
4690.71,0.26348
4684.92,0.25753
4679.14,0.26141
4673.35,0.27167
4667.56,0.27883
4661.78,0.28244
4655.99,0.28198
4650.2,0.28236
4644.42,0.27688
4638.63,0.26636
4632.85,0.25650
4627.06,0.26081
4621.27,0.27577
4615.49,0.28991
4609.7,0.29773
4603.92,0.30210
4598.13,0.30245
4592.34,0.29905
4586.56,0.29476
4580.77,0.29418
4574.98,0.29111
4569.2,0.29562
4563.41,0.30477
4557.63,0.30920
4551.84,0.30818
4546.05,0.30641
4540.27,0.30394
4534.48,0.30251
4528.69,0.29938
4522.91,0.29556
4517.12,0.29082
4511.34,0.28559
4505.55,0.27826
4499.76,0.26952
4493.98,0.25749
4488.19,0.24704
4482.4,0.24076
4476.62,0.23633
4470.83,0.23040
4465.05,0.22342
4459.26,0.21346
4453.47,0.20070
4447.69,0.18772
4441.9,0.17290
4436.11,0.15854
4430.33,0.14529
4424.54,0.13286
4418.76,0.12195
4412.97,0.11242
4407.18,0.10462
4401.4,0.10050
4395.61,0.09807
4389.82,0.09635
4384.04,0.09204
4378.25,0.08617
4372.47,0.08012
4366.68,0.07506
4360.89,0.06993
4355.11,0.06705
4349.32,0.06372
4343.53,0.06163
4337.75,0.05952
4331.96,0.05927
4326.18,0.06036
4320.39,0.06353
4314.6,0.06744
4308.82,0.06956
4303.03,0.07094
4297.24,0.07154
4291.46,0.07131
4285.67,0.07017
4279.89,0.07022
4274.1,0.07144
4268.31,0.07211
4262.53,0.07367
4256.74,0.07302
4250.95,0.07316
4245.17,0.07314
4239.38,0.07272
4233.6,0.07115
4227.81,0.07074
4222.02,0.07005
4216.24,0.06906
4210.45,0.06981
4204.66,0.07147
4198.88,0.07337
4193.09,0.07498
4187.31,0.07579
4181.52,0.07520
4175.73,0.07369
4169.95,0.07306
4164.16,0.07472
4158.37,0.07767
4152.59,0.08062
4146.8,0.08316
4141.02,0.08615
4135.23,0.08933
4129.44,0.09066
4123.66,0.09105
4117.87,0.08940
4112.09,0.08721
4106.3,0.08636
4100.51,0.08435
4094.73,0.08173
4088.94,0.07625
4083.15,0.07199
4077.37,0.07513
4071.58,0.08013
4065.8,0.08449
4060.01,0.08850
4054.22,0.09219
4048.44,0.09492
4042.65,0.09596
4036.86,0.09670
4031.08,0.09675
4025.29,0.09693
4019.51,0.09665
4013.72,0.09832
4007.93,0.10043
4002.15,0.10274
3996.36,0.10587
3990.57,0.10820
3984.79,0.11132
3979,0.11341
3973.22,0.11610
3967.43,0.11727
3961.64,0.11785
3955.86,0.11753
3950.07,0.11733
3944.28,0.11748
3938.5,0.11791
3932.71,0.11874
3926.93,0.12004
3921.14,0.12159
3915.35,0.12214
3909.57,0.12392
3903.78,0.12578
3897.99,0.12727
3892.21,0.12866
3886.42,0.13055
3880.64,0.13120
3874.85,0.13196
3869.06,0.13246
3863.28,0.13292
3857.49,0.13279
3851.7,0.13290
3845.92,0.13380
3840.13,0.13538
3834.35,0.13654
3828.56,0.13774
3822.77,0.13958
3816.99,0.14145
3811.2,0.14191
3805.41,0.14304
3799.63,0.14444
3793.84,0.14740
3788.06,0.15057
3782.27,0.15187
3776.48,0.15218
3770.7,0.15163
3764.91,0.15105
3759.12,0.14943
3753.34,0.15044
3747.55,0.15461
3741.77,0.15771
3735.98,0.15828
3730.19,0.15971
3724.41,0.16257
3718.62,0.16246
3712.83,0.15878
3707.05,0.15145
3701.26,0.14131
3695.48,0.12843
3689.69,0.11402
3683.9,0.10245
3678.12,0.09932
3672.33,0.09669
3666.54,0.09759
3660.76,0.09889
3654.97,0.10005
3649.19,0.10158
3643.4,0.10175
3637.61,0.10133
3631.83,0.09983
3626.04,0.09641
3620.25,0.09333
3614.47,0.09224
3608.68,0.09018
3602.9,0.08852
3597.11,0.08616
3591.32,0.08366
3585.54,0.08258
3579.75,0.08095
3573.97,0.07826
3568.18,0.07610
3562.39,0.07318
3556.61,0.07111
3550.82,0.06983
3545.03,0.06849
3539.25,0.06839
3533.46,0.06706
3527.68,0.06795
3521.89,0.06758
3516.1,0.06668
3510.32,0.06639
3504.53,0.06658
3498.74,0.06720
3492.96,0.06581
3487.17,0.06586
3481.39,0.06522
3475.6,0.06389
3469.81,0.06336
3464.03,0.06271
3458.24,0.06130
3452.45,0.05912
3446.67,0.05734
3440.88,0.05502
3435.1,0.05263
3429.31,0.05122
3423.52,0.05015
3417.74,0.05045
3411.95,0.05070
3406.16,0.05162
3400.38,0.05207
3394.59,0.05186
3388.81,0.05288
3383.02,0.05402
3377.23,0.05541
3371.45,0.05609
3365.66,0.05640
3359.87,0.05756
3354.09,0.05827
3348.3,0.05711
3342.52,0.05641
3336.73,0.05549
3330.94,0.05492
3325.16,0.05574
3319.37,0.05579
3313.58,0.05580
3307.8,0.05619
3302.01,0.05607
3296.23,0.05699
3290.44,0.05710
3284.65,0.05791
3278.87,0.05840
3273.08,0.05960
3267.29,0.05944
3261.51,0.06021
3255.72,0.06108
3249.94,0.06100
3244.15,0.05915
3238.36,0.05858
3232.58,0.05689
3226.79,0.05677
3221,0.05540
3215.22,0.05500
3209.43,0.05579
3203.65,0.05482
3197.86,0.05637
3192.07,0.05578
3186.29,0.05589
3180.5,0.05628
3174.71,0.05639
3168.93,0.05645
3163.14,0.05775
3157.36,0.05750
3151.57,0.05753
3145.78,0.05747
3140,0.05725
3134.21,0.05681
3128.42,0.05566
3122.64,0.05619
3116.85,0.05618
3111.07,0.05498
3105.28,0.05454
3099.49,0.05305
3093.71,0.05290
3087.92,0.05176
3082.14,0.05102
3076.35,0.05067
3070.56,0.04947
3064.78,0.04903
3058.99,0.04846
3053.2,0.04855
3047.42,0.04825
3041.63,0.04839
3035.85,0.04851
3030.06,0.04784
3024.27,0.04674
3018.49,0.04585
3012.7,0.04593
3006.91,0.04553
3001.13,0.04522
2995.34,0.04436
2989.56,0.04351
2983.77,0.04355
2977.98,0.04407
2972.2,0.04385
2966.41,0.04369
2960.62,0.04434
2954.84,0.04478
2949.05,0.04493
2943.27,0.04444
2937.48,0.04511
2931.69,0.04590
2925.91,0.04736
2920.12,0.04802
2914.33,0.04842
2908.55,0.04826
2902.76,0.04796
2896.98,0.04793
2891.19,0.04777
2885.4,0.04764
2879.62,0.04788
2873.83,0.04766
2868.04,0.04783
2862.26,0.04832
2856.47,0.04908
2850.69,0.04964
2844.9,0.04947
2839.11,0.04931
2833.33,0.04931
2827.54,0.04905
2821.75,0.04920
2815.97,0.04917
2810.18,0.04881
2804.4,0.04966
2798.61,0.05011
2792.82,0.05101
2787.04,0.05180
2781.25,0.05234
2775.46,0.05325
2769.68,0.05390
2763.89,0.05386
2758.11,0.05386
2752.32,0.05358
2746.53,0.05314
2740.75,0.05267
2734.96,0.05277
2729.17,0.05313
2723.39,0.05497
2717.6,0.05633
2711.82,0.05749
2706.03,0.05859
2700.24,0.05948
2694.46,0.05958
2688.67,0.05997
2682.88,0.06011
2677.1,0.05941
2671.31,0.05928
2665.53,0.05961
2659.74,0.06088
2653.95,0.06219
2648.17,0.06284
2642.38,0.06226
2636.59,0.06071
2630.81,0.05835
2625.02,0.05709
2619.24,0.05625
2613.45,0.05549
2607.66,0.05411
2601.88,0.05454
2596.09,0.05369
2590.3,0.05360
2584.52,0.05305
2578.73,0.05327
2572.95,0.05340
2567.16,0.05317
2561.37,0.05322
2555.59,0.05307
2549.8,0.05298
2544.02,0.05290
2538.23,0.05213
2532.44,0.05158
2526.66,0.05067
2520.87,0.05078
2515.08,0.05070
2509.3,0.05107
2503.51,0.05181
2497.73,0.05279
2491.94,0.05466
2486.15,0.05684
2480.37,0.05930
2474.58,0.06245
2468.79,0.06552
2463.01,0.06707
2457.22,0.06813
2451.44,0.06868
2445.65,0.06900
2439.86,0.06856
2434.08,0.06823
2428.29,0.06693
2422.5,0.06619
2416.72,0.06487
2410.93,0.06418
2405.15,0.06376
2399.36,0.06267
2393.57,0.06169
2387.79,0.06126
2382,0.06146
2376.21,0.06169
2370.43,0.06285
2364.64,0.06478
2358.86,0.06623
2353.07,0.06838
2347.28,0.07009
2341.5,0.07240
2335.71,0.07488
2329.92,0.07615
2324.14,0.07535
2318.35,0.07683
2312.57,0.07813
2306.78,0.07806
2300.99,0.07696
2295.21,0.07521
2289.42,0.07246
2283.63,0.07014
2277.85,0.06877
2272.06,0.06966
2266.28,0.07112
2260.49,0.07144
2254.7,0.07086
2248.92,0.06915
2243.13,0.06682
2237.34,0.06511
2231.56,0.06433
2225.77,0.06419
2219.99,0.06484
2214.2,0.06489
2208.41,0.06538
2202.63,0.06783
2196.84,0.07103
2191.05,0.07351
2185.27,0.07651
2179.48,0.07832
2173.7,0.07936
2167.91,0.07879
2162.12,0.07799
2156.34,0.07678
2150.55,0.07443
2144.76,0.07317
2138.98,0.07217
2133.19,0.07233
2127.41,0.07347
2121.62,0.07454
2115.83,0.07530
2110.05,0.07573
2104.26,0.07627
2098.47,0.07638
2092.69,0.07607
2086.9,0.07532
2081.12,0.07480
2075.33,0.07374
2069.54,0.07349
2063.76,0.07403
2057.97,0.07461
2052.19,0.07496
2046.4,0.07624
2040.61,0.07751
2034.83,0.07809
2029.04,0.07885
2023.25,0.08007
2017.47,0.08122
2011.68,0.08152
2005.9,0.08081
2000.11,0.08007
1994.32,0.07727
1988.54,0.07436
1982.75,0.07318
1976.96,0.07147
1971.18,0.06825
1965.39,0.06398
1959.61,0.05907
1953.82,0.05489
1948.03,0.05364
1942.25,0.05638
1936.46,0.06048
1930.67,0.06439
1924.89,0.06726
1919.1,0.06857
1913.32,0.06951
1907.53,0.06945
1901.74,0.06959
1895.96,0.06951
1890.17,0.06980
1884.38,0.07003
1878.6,0.07005
1872.81,0.06940
1867.03,0.06781
1861.24,0.06549
1855.45,0.06291
1849.67,0.05979
1843.88,0.05634
1838.09,0.05322
1832.31,0.04952
1826.52,0.04690
1820.74,0.04568
1814.95,0.04551
1809.16,0.04441
1803.38,0.04258
1797.59,0.04113
1791.8,0.04057
1786.02,0.04068
1780.23,0.04006
1774.45,0.03942
1768.66,0.03787
1762.87,0.03675
1757.09,0.03542
1751.3,0.03406
1745.51,0.03279
1739.73,0.03302
1733.94,0.03724
1728.16,0.04245
1722.37,0.04833
1716.58,0.05190
1710.8,0.05280
1705.01,0.05255
1699.22,0.05183
1693.44,0.05088
1687.65,0.05036
1681.87,0.04959
1676.08,0.04903
1670.29,0.04869
1664.51,0.04864
1658.72,0.04880
1652.93,0.04953
1647.15,0.04974
1641.36,0.05000
1635.58,0.05034
1629.79,0.05002
1624,0.04973
1618.22,0.04943
1612.43,0.04866
1606.64,0.04816
1600.86,0.04817
1595.07,0.04857
1589.29,0.04851
1583.5,0.04645
1577.71,0.04538
1571.93,0.04635
1566.14,0.04914
1560.35,0.05104
1554.57,0.05241
1548.78,0.05245
1543,0.05202
1537.21,0.05036
1531.42,0.04777
1525.64,0.04667
1519.85,0.04661
1514.07,0.04571
1508.28,0.04497
1502.49,0.04487
1496.71,0.04580
1490.92,0.04497
1485.13,0.04300
1479.35,0.04171
1473.56,0.04159
1467.78,0.04065
1461.99,0.04173
1456.2,0.04290
1450.42,0.04346
1444.63,0.04411
1438.84,0.04412
1433.06,0.04396
1427.27,0.04370
1421.49,0.04326
1415.7,0.04230
1409.91,0.04175
1404.13,0.04187
1398.34,0.04123
1392.55,0.04008
1386.77,0.03980
1380.98,0.04054
1375.2,0.04126
1369.41,0.04118
1363.62,0.04036
1357.84,0.04038
1352.05,0.04003
1346.26,0.03918
1340.48,0.03880
1334.69,0.03873
1328.91,0.03808
1323.12,0.03778
1317.33,0.03730
1311.55,0.03618
1305.76,0.03573
1299.97,0.03497
1294.19,0.03488
1288.4,0.03502
1282.62,0.03573
1276.83,0.03726
1271.04,0.03999
1265.26,0.04157
1259.47,0.04153
1253.68,0.04168
1247.9,0.04311
1242.11,0.04348
1236.33,0.04352
1230.54,0.04370
1224.75,0.04374
1218.97,0.04394
1213.18,0.04348
1207.39,0.04333
1201.61,0.04328
1195.82,0.04301
1190.04,0.04253
1184.25,0.04295
1178.46,0.04274
1172.68,0.04280
1166.89,0.04379
1161.1,0.04492
1155.32,0.04673
1149.53,0.04790
1143.75,0.04889
1137.96,0.05013
1132.17,0.05097
1126.39,0.05320
1120.6,0.05656
1114.81,0.06039
1109.03,0.06356
1103.24,0.06685
1097.46,0.06986
1091.67,0.07063
1085.88,0.07189
1080.1,0.07215
1074.31,0.07346
1068.52,0.07487
1062.74,0.07644
1056.95,0.07562
1051.17,0.07431
1045.38,0.07384
1039.59,0.07351
1033.81,0.07189
1028.02,0.07026
1022.24,0.06834
1016.45,0.06732
1010.66,0.06541
1004.88,0.06433
999.09,0.06295
993.304,0.06198
987.518,0.06143
981.731,0.06063
975.945,0.06040
970.159,0.06052
964.373,0.05995
958.586,0.05974
952.8,0.06086
947.014,0.06065
941.228,0.05967
935.441,0.06026
929.655,0.06029
923.869,0.05926
918.083,0.05891
912.297,0.05853
906.51,0.05808
900.724,0.05776
894.938,0.05769
889.152,0.05688
883.365,0.05729
877.579,0.05688
871.793,0.05636
866.007,0.05591
860.22,0.05552
854.434,0.05433
848.648,0.05477
842.862,0.05387
837.075,0.05434
831.289,0.05479
825.503,0.05437
819.717,0.05446
813.931,0.05495
808.144,0.05504
802.358,0.05558
796.572,0.05522
790.786,0.05493
784.999,0.05471
779.213,0.05459
773.427,0.05569
767.641,0.05557
761.854,0.05413
756.068,0.05420
750.282,0.05402
744.496,0.05434
738.709,0.05255
732.923,0.05382
727.137,0.05550
721.351,0.05505
715.565,0.05397
709.778,0.05373
703.992,0.05357
698.206,0.05299
692.42,0.05397
686.633,0.05331
680.847,0.05197
675.061,0.05193
669.275,0.05124
663.488,0.05136
657.702,0.05251
651.916,0.05083
646.13,0.05079
640.343,0.05043
634.557,0.05068
628.771,0.05184
622.985,0.04882
617.198,0.05102
611.412,0.04849
605.626,0.04866
599.84,0.05068