File: 01_Data/Vinyl_Plank_Flooring/FTIR/IS/Vinyl_Plank_Flooring_IS_S_220819_R4.dpt
7497.03,0.50393
7491.25,0.50586
7485.46,0.50562
7479.67,0.49982
7473.89,0.49906
7468.1,0.49946
7462.32,0.49729
7456.53,0.49697
7450.74,0.48753
7444.96,0.49963
7439.17,0.49828
7433.38,0.49033
7427.6,0.49834
7421.81,0.49485
7416.03,0.49177
7410.24,0.48810
7404.45,0.48330
7398.67,0.47846
7392.88,0.48254
7387.09,0.48427
7381.31,0.48156
7375.52,0.47433
7369.74,0.47322
7363.95,0.47488
7358.16,0.47380
7352.38,0.47149
7346.59,0.46903
7340.8,0.47447
7335.02,0.46709
7329.23,0.47305
7323.45,0.46597
7317.66,0.45635
7311.87,0.45499
7306.09,0.45165
7300.3,0.45557
7294.51,0.45335
7288.73,0.44514
7282.94,0.44485
7277.16,0.44735
7271.37,0.44082
7265.58,0.43381
7259.8,0.43183
7254.01,0.43352
7248.22,0.43337
7242.44,0.42423
7236.65,0.42281
7230.87,0.42436
7225.08,0.42183
7219.29,0.41825
7213.51,0.41643
7207.72,0.42266
7201.93,0.41822
7196.15,0.41562
7190.36,0.41082
7184.58,0.41013
7178.79,0.41770
7173,0.41147
7167.22,0.41597
7161.43,0.41868
7155.65,0.41525
7149.86,0.41510
7144.07,0.41134
7138.29,0.41389
7132.5,0.41417
7126.71,0.41719
7120.93,0.41375
7115.14,0.41764
7109.36,0.41445
7103.57,0.41615
7097.78,0.41511
7092,0.41804
7086.21,0.41402
7080.42,0.41256
7074.64,0.41007
7068.85,0.40479
7063.07,0.41065
7057.28,0.40380
7051.49,0.40942
7045.71,0.41381
7039.92,0.41767
7034.13,0.41435
7028.35,0.41726
7022.56,0.41702
7016.78,0.41523
7010.99,0.41488
7005.2,0.41730
6999.42,0.41545
6993.63,0.42465
6987.84,0.42072
6982.06,0.42260
6976.27,0.42569
6970.49,0.42736
6964.7,0.42550
6958.91,0.42886
6953.13,0.43101
6947.34,0.43385
6941.55,0.43508
6935.77,0.43212
6929.98,0.44083
6924.2,0.44021
6918.41,0.44036
6912.62,0.44220
6906.84,0.44161
6901.05,0.44252
6895.26,0.44738
6889.48,0.44413
6883.69,0.44748
6877.91,0.45280
6872.12,0.44997
6866.33,0.45335
6860.55,0.45229
6854.76,0.45143
6848.97,0.45815
6843.19,0.45817
6837.4,0.46111
6831.62,0.45656
6825.83,0.45898
6820.04,0.45833
6814.26,0.45791
6808.47,0.45958
6802.68,0.45810
6796.9,0.45802
6791.11,0.45907
6785.33,0.46622
6779.54,0.46850
6773.75,0.46222
6767.97,0.46162
6762.18,0.46177
6756.39,0.46485
6750.61,0.46251
6744.82,0.46328
6739.04,0.46225
6733.25,0.46512
6727.46,0.47038
6721.68,0.47184
6715.89,0.46990
6710.1,0.46721
6704.32,0.47024
6698.53,0.46882
6692.75,0.47332
6686.96,0.47078
6681.17,0.47256
6675.39,0.47285
6669.6,0.46859
6663.82,0.47086
6658.03,0.47513
6652.24,0.47407
6646.46,0.47668
6640.67,0.47432
6634.88,0.47504
6629.1,0.47851
6623.31,0.47172
6617.53,0.47533
6611.74,0.47515
6605.95,0.47457
6600.17,0.47573
6594.38,0.47387
6588.59,0.47831
6582.81,0.47942
6577.02,0.48075
6571.24,0.47839
6565.45,0.48216
6559.66,0.48154
6553.88,0.48310
6548.09,0.48045
6542.3,0.48266
6536.52,0.47840
6530.73,0.48251
6524.95,0.47674
6519.16,0.47869
6513.37,0.47972
6507.59,0.48547
6501.8,0.48351
6496.01,0.48626
6490.23,0.48607
6484.44,0.48466
6478.66,0.48293
6472.87,0.48949
6467.08,0.48421
6461.3,0.48510
6455.51,0.48246
6449.72,0.48607
6443.94,0.48928
6438.15,0.49028
6432.37,0.48846
6426.58,0.48563
6420.79,0.48577
6415.01,0.48738
6409.22,0.48844
6403.43,0.48909
6397.65,0.49024
6391.86,0.48847
6386.08,0.48792
6380.29,0.48892
6374.5,0.48473
6368.72,0.48666
6362.93,0.48796
6357.14,0.48553
6351.36,0.48591
6345.57,0.48233
6339.79,0.48498
6334,0.48650
6328.21,0.48285
6322.43,0.48438
6316.64,0.48712
6310.85,0.48865
6305.07,0.48607
6299.28,0.48570
6293.5,0.48853
6287.71,0.48963
6281.92,0.48962
6276.14,0.48845
6270.35,0.48727
6264.56,0.48580
6258.78,0.48761
6252.99,0.48708
6247.21,0.48777
6241.42,0.48594
6235.63,0.48757
6229.85,0.48668
6224.06,0.48711
6218.27,0.48893
6212.49,0.48718
6206.7,0.48411
6200.92,0.48063
6195.13,0.47774
6189.34,0.47690
6183.56,0.47657
6177.77,0.47804
6171.98,0.47616
6166.2,0.47644
6160.41,0.47049
6154.63,0.47399
6148.84,0.47227
6143.05,0.46807
6137.27,0.46652
6131.48,0.46723
6125.7,0.46605
6119.91,0.46308
6114.12,0.46012
6108.34,0.45510
6102.55,0.44861
6096.76,0.44101
6090.98,0.43203
6085.19,0.42269
6079.41,0.41215
6073.62,0.40303
6067.83,0.39541
6062.05,0.38193
6056.26,0.37104
6050.47,0.36002
6044.69,0.35106
6038.9,0.34677
6033.12,0.33856
6027.33,0.33144
6021.54,0.32366
6015.76,0.31489
6009.97,0.31923
6004.18,0.33030
5998.4,0.33967
5992.61,0.34987
5986.83,0.36226
5981.04,0.36818
5975.25,0.36873
5969.47,0.37067
5963.68,0.36955
5957.89,0.36897
5952.11,0.36056
5946.32,0.34610
5940.54,0.33615
5934.75,0.32585
5928.96,0.31383
5923.18,0.30195
5917.39,0.29192
5911.6,0.27938
5905.82,0.27106
5900.03,0.26328
5894.25,0.25246
5888.46,0.24114
5882.67,0.23010
5876.89,0.22273
5871.1,0.21263
5865.31,0.20502
5859.53,0.19745
5853.74,0.18778
5847.96,0.17837
5842.17,0.17088
5836.38,0.16266
5830.6,0.15854
5824.81,0.15460
5819.02,0.15984
5813.24,0.16773
5807.45,0.17671
5801.67,0.18847
5795.88,0.19775
5790.09,0.20756
5784.31,0.21647
5778.52,0.22226
5772.73,0.22735
5766.95,0.23122
5761.16,0.23249
5755.38,0.22849
5749.59,0.22578
5743.8,0.22479
5738.02,0.22472
5732.23,0.22325
5726.44,0.22412
5720.66,0.22830
5714.87,0.22782
5709.09,0.22522
5703.3,0.22460
5697.51,0.22695
5691.73,0.23172
5685.94,0.23612
5680.15,0.24450
5674.37,0.24777
5668.58,0.25369
5662.8,0.25449
5657.01,0.25680
5651.22,0.26007
5645.44,0.26314
5639.65,0.26360
5633.87,0.26993
5628.08,0.27257
5622.29,0.27812
5616.51,0.27965
5610.72,0.28362
5604.93,0.28584
5599.15,0.28754
5593.36,0.29096
5587.58,0.29485
5581.79,0.29493
5576,0.29924
5570.22,0.30119
5564.43,0.30264
5558.64,0.30282
5552.86,0.30655
5547.07,0.30837
5541.29,0.30923
5535.5,0.30953
5529.71,0.31075
5523.93,0.31265
5518.14,0.31260
5512.35,0.31212
5506.57,0.31255
5500.78,0.31251
5495,0.31200
5489.21,0.31278
5483.42,0.31282
5477.64,0.30941
5471.85,0.30973
5466.06,0.31037
5460.28,0.31183
5454.49,0.31617
5448.71,0.31742
5442.92,0.32173
5437.13,0.32563
5431.35,0.32699
5425.56,0.32890
5419.77,0.33124
5413.99,0.33295
5408.2,0.33594
5402.42,0.33556
5396.63,0.33805
5390.84,0.33571
5385.06,0.33948
5379.27,0.33942
5373.48,0.34204
5367.7,0.34345
5361.91,0.34521
5356.13,0.34910
5350.34,0.34988
5344.55,0.34987
5338.77,0.35108
5332.98,0.35200
5327.19,0.35390
5321.41,0.35509
5315.62,0.35693
5309.84,0.35716
5304.05,0.35779
5298.26,0.35719
5292.48,0.35655
5286.69,0.35403
5280.9,0.35153
5275.12,0.34898
5269.33,0.34663
5263.55,0.34337
5257.76,0.34164
5251.97,0.34186
5246.19,0.34461
5240.4,0.34510
5234.61,0.34644
5228.83,0.34853
5223.04,0.34900
5217.26,0.34849
5211.47,0.34708
5205.68,0.34819
5199.9,0.34779
5194.11,0.34765
5188.32,0.34648
5182.54,0.34626
5176.75,0.34693
5170.97,0.34624
5165.18,0.34678
5159.39,0.34600
5153.61,0.34614
5147.82,0.34475
5142.03,0.34579
5136.25,0.34468
5130.46,0.34383
5124.68,0.34247
5118.89,0.34250
5113.1,0.34235
5107.32,0.34263
5101.53,0.34271
5095.75,0.34359
5089.96,0.34525
5084.17,0.34650
5078.39,0.34716
5072.6,0.34994
5066.81,0.35078
5061.03,0.35209
5055.24,0.35215
5049.46,0.35195
5043.67,0.35358
5037.88,0.35357
5032.1,0.35360
5026.31,0.35488
5020.52,0.35354
5014.74,0.35386
5008.95,0.35263
5003.17,0.35153
4997.38,0.35138
4991.59,0.35194
4985.81,0.35209
4980.02,0.35219
4974.23,0.35347
4968.45,0.35252
4962.66,0.35321
4956.88,0.35400
4951.09,0.35338
4945.3,0.35380
4939.52,0.35095
4933.73,0.35213
4927.94,0.35108
4922.16,0.35067
4916.37,0.35126
4910.59,0.35267
4904.8,0.35210
4899.01,0.35180
4893.23,0.35207
4887.44,0.35215
4881.65,0.35195
4875.87,0.35117
4870.08,0.35172
4864.3,0.35132
4858.51,0.35112
4852.72,0.35260
4846.94,0.35319
4841.15,0.35347
4835.36,0.35282
4829.58,0.35197
4823.79,0.35063
4818.01,0.34964
4812.22,0.34830
4806.43,0.34838
4800.65,0.34617
4794.86,0.34483
4789.07,0.34485
4783.29,0.34375
4777.5,0.34459
4771.72,0.34604
4765.93,0.34797
4760.14,0.34850
4754.36,0.34623
4748.57,0.34469
4742.78,0.34189
4737,0.33738
4731.21,0.33073
4725.43,0.32060
4719.64,0.30856
4713.85,0.30265
4708.07,0.30010
4702.28,0.29184
4696.49,0.27837
4690.71,0.26378
4684.92,0.25726
4679.14,0.26113
4673.35,0.27035
4667.56,0.27874
4661.78,0.28253
4655.99,0.28261
4650.2,0.28304
4644.42,0.27813
4638.63,0.26580
4632.85,0.25545
4627.06,0.26027
4621.27,0.27593
4615.49,0.28920
4609.7,0.29841
4603.92,0.30163
4598.13,0.30279
4592.34,0.29911
4586.56,0.29479
4580.77,0.29409
4574.98,0.29088
4569.2,0.29500
4563.41,0.30459
4557.63,0.30807
4551.84,0.30882
4546.05,0.30702
4540.27,0.30431
4534.48,0.30267
4528.69,0.29897
4522.91,0.29584
4517.12,0.29119
4511.34,0.28491
4505.55,0.27885
4499.76,0.26934
4493.98,0.25811
4488.19,0.24691
4482.4,0.24046
4476.62,0.23596
4470.83,0.23077
4465.05,0.22255
4459.26,0.21336
4453.47,0.20106
4447.69,0.18718
4441.9,0.17342
4436.11,0.15868
4430.33,0.14466
4424.54,0.13284
4418.76,0.12092
4412.97,0.11247
4407.18,0.10486
4401.4,0.10038
4395.61,0.09801
4389.82,0.09634
4384.04,0.09128
4378.25,0.08579
4372.47,0.08037
4366.68,0.07494
4360.89,0.06969
4355.11,0.06630
4349.32,0.06290
4343.53,0.06076
4337.75,0.05845
4331.96,0.05845
4326.18,0.06029
4320.39,0.06412
4314.6,0.06720
4308.82,0.07011
4303.03,0.07060
4297.24,0.07142
4291.46,0.07119
4285.67,0.07021
4279.89,0.07054
4274.1,0.07139
4268.31,0.07199
4262.53,0.07313
4256.74,0.07364
4250.95,0.07296
4245.17,0.07207
4239.38,0.07207
4233.6,0.07157
4227.81,0.07150
4222.02,0.06973
4216.24,0.06916
4210.45,0.07018
4204.66,0.07163
4198.88,0.07330
4193.09,0.07470
4187.31,0.07578
4181.52,0.07512
4175.73,0.07357
4169.95,0.07264
4164.16,0.07438
4158.37,0.07738
4152.59,0.08058
4146.8,0.08243
4141.02,0.08565
4135.23,0.08823
4129.44,0.09066
4123.66,0.09138
4117.87,0.08940
4112.09,0.08848
4106.3,0.08628
4100.51,0.08418
4094.73,0.08076
4088.94,0.07549
4083.15,0.07214
4077.37,0.07520
4071.58,0.07987
4065.8,0.08382
4060.01,0.08873
4054.22,0.09241
4048.44,0.09384
4042.65,0.09529
4036.86,0.09679
4031.08,0.09662
4025.29,0.09738
4019.51,0.09677
4013.72,0.09864
4007.93,0.10102
4002.15,0.10265
3996.36,0.10607
3990.57,0.10852
3984.79,0.11140
3979,0.11397
3973.22,0.11617
3967.43,0.11772
3961.64,0.11758
3955.86,0.11784
3950.07,0.11801
3944.28,0.11761
3938.5,0.11818
3932.71,0.11886
3926.93,0.11970
3921.14,0.12103
3915.35,0.12239
3909.57,0.12341
3903.78,0.12546
3897.99,0.12759
3892.21,0.12925
3886.42,0.13034
3880.64,0.13211
3874.85,0.13242
3869.06,0.13273
3863.28,0.13240
3857.49,0.13221
3851.7,0.13312
3845.92,0.13475
3840.13,0.13579
3834.35,0.13712
3828.56,0.13821
3822.77,0.13968
3816.99,0.14195
3811.2,0.14264
3805.41,0.14358
3799.63,0.14476
3793.84,0.14808
3788.06,0.15070
3782.27,0.15322
3776.48,0.15329
3770.7,0.15245
3764.91,0.15160
3759.12,0.15033
3753.34,0.15121
3747.55,0.15547
3741.77,0.15784
3735.98,0.15919
3730.19,0.15994
3724.41,0.16342
3718.62,0.16407
3712.83,0.16025
3707.05,0.15351
3701.26,0.14405
3695.48,0.13135
3689.69,0.11801
3683.9,0.10601
3678.12,0.10344
3672.33,0.10204
3666.54,0.10368
3660.76,0.10375
3654.97,0.10521
3649.19,0.10668
3643.4,0.10663
3637.61,0.10543
3631.83,0.10433
3626.04,0.10113
3620.25,0.09779
3614.47,0.09478
3608.68,0.09341
3602.9,0.09134
3597.11,0.08983
3591.32,0.08777
3585.54,0.08588
3579.75,0.08421
3573.97,0.08129
3568.18,0.07911
3562.39,0.07582
3556.61,0.07400
3550.82,0.07175
3545.03,0.07104
3539.25,0.07066
3533.46,0.07050
3527.68,0.07052
3521.89,0.06954
3516.1,0.06938
3510.32,0.06836
3504.53,0.06904
3498.74,0.06815
3492.96,0.06800
3487.17,0.06642
3481.39,0.06625
3475.6,0.06604
3469.81,0.06480
3464.03,0.06414
3458.24,0.06186
3452.45,0.05967
3446.67,0.05835
3440.88,0.05552
3435.1,0.05370
3429.31,0.05163
3423.52,0.05060
3417.74,0.05049
3411.95,0.05082
3406.16,0.05154
3400.38,0.05218
3394.59,0.05236
3388.81,0.05388
3383.02,0.05482
3377.23,0.05617
3371.45,0.05631
3365.66,0.05766
3359.87,0.05745
3354.09,0.05790
3348.3,0.05722
3342.52,0.05738
3336.73,0.05705
3330.94,0.05675
3325.16,0.05557
3319.37,0.05595
3313.58,0.05555
3307.8,0.05562
3302.01,0.05747
3296.23,0.05656
3290.44,0.05679
3284.65,0.05797
3278.87,0.05838
3273.08,0.05992
3267.29,0.06052
3261.51,0.06132
3255.72,0.05954
3249.94,0.06051
3244.15,0.06029
3238.36,0.05979
3232.58,0.05867
3226.79,0.05779
3221,0.05706
3215.22,0.05605
3209.43,0.05607
3203.65,0.05452
3197.86,0.05547
3192.07,0.05529
3186.29,0.05529
3180.5,0.05596
3174.71,0.05663
3168.93,0.05689
3163.14,0.05835
3157.36,0.05766
3151.57,0.05819
3145.78,0.05837
3140,0.05781
3134.21,0.05642
3128.42,0.05629
3122.64,0.05596
3116.85,0.05544
3111.07,0.05477
3105.28,0.05388
3099.49,0.05357
3093.71,0.05295
3087.92,0.05197
3082.14,0.05059
3076.35,0.04993
3070.56,0.04949
3064.78,0.04907
3058.99,0.04843
3053.2,0.04805
3047.42,0.04861
3041.63,0.04866
3035.85,0.04811
3030.06,0.04732
3024.27,0.04624
3018.49,0.04620
3012.7,0.04589
3006.91,0.04512
3001.13,0.04476
2995.34,0.04464
2989.56,0.04406
2983.77,0.04407
2977.98,0.04363
2972.2,0.04366
2966.41,0.04378
2960.62,0.04428
2954.84,0.04471
2949.05,0.04472
2943.27,0.04463
2937.48,0.04571
2931.69,0.04603
2925.91,0.04720
2920.12,0.04795
2914.33,0.04820
2908.55,0.04813
2902.76,0.04833
2896.98,0.04788
2891.19,0.04730
2885.4,0.04765
2879.62,0.04739
2873.83,0.04785
2868.04,0.04792
2862.26,0.04827
2856.47,0.04917
2850.69,0.04965
2844.9,0.05005
2839.11,0.04946
2833.33,0.04956
2827.54,0.04883
2821.75,0.04895
2815.97,0.04914
2810.18,0.04919
2804.4,0.04948
2798.61,0.05002
2792.82,0.05119
2787.04,0.05154
2781.25,0.05227
2775.46,0.05310
2769.68,0.05373
2763.89,0.05404
2758.11,0.05369
2752.32,0.05357
2746.53,0.05310
2740.75,0.05259
2734.96,0.05186
2729.17,0.05300
2723.39,0.05513
2717.6,0.05633
2711.82,0.05716
2706.03,0.05801
2700.24,0.05926
2694.46,0.05947
2688.67,0.05989
2682.88,0.05995
2677.1,0.05904
2671.31,0.05897
2665.53,0.05949
2659.74,0.06063
2653.95,0.06226
2648.17,0.06283
2642.38,0.06205
2636.59,0.06071
2630.81,0.05880
2625.02,0.05727
2619.24,0.05611
2613.45,0.05515
2607.66,0.05484
2601.88,0.05375
2596.09,0.05387
2590.3,0.05382
2584.52,0.05336
2578.73,0.05290
2572.95,0.05309
2567.16,0.05281
2561.37,0.05305
2555.59,0.05287
2549.8,0.05321
2544.02,0.05241
2538.23,0.05209
2532.44,0.05140
2526.66,0.05089
2520.87,0.05044
2515.08,0.05073
2509.3,0.05100
2503.51,0.05179
2497.73,0.05305
2491.94,0.05473
2486.15,0.05665
2480.37,0.05903
2474.58,0.06216
2468.79,0.06498
2463.01,0.06698
2457.22,0.06791
2451.44,0.06841
2445.65,0.06851
2439.86,0.06860
2434.08,0.06818
2428.29,0.06731
2422.5,0.06605
2416.72,0.06489
2410.93,0.06395
2405.15,0.06348
2399.36,0.06273
2393.57,0.06195
2387.79,0.06151
2382,0.06142
2376.21,0.06155
2370.43,0.06313
2364.64,0.06443
2358.86,0.06638
2353.07,0.06778
2347.28,0.06971
2341.5,0.07156
2335.71,0.07454
2329.92,0.07612
2324.14,0.07529
2318.35,0.07667
2312.57,0.07794
2306.78,0.07764
2300.99,0.07644
2295.21,0.07504
2289.42,0.07276
2283.63,0.06971
2277.85,0.06886
2272.06,0.06960
2266.28,0.07113
2260.49,0.07143
2254.7,0.07060
2248.92,0.06900
2243.13,0.06682
2237.34,0.06456
2231.56,0.06396
2225.77,0.06422
2219.99,0.06471
2214.2,0.06490
2208.41,0.06507
2202.63,0.06764
2196.84,0.07114
2191.05,0.07362
2185.27,0.07586
2179.48,0.07780
2173.7,0.07866
2167.91,0.07899
2162.12,0.07772
2156.34,0.07660
2150.55,0.07494
2144.76,0.07285
2138.98,0.07232
2133.19,0.07283
2127.41,0.07321
2121.62,0.07451
2115.83,0.07497
2110.05,0.07557
2104.26,0.07596
2098.47,0.07583
2092.69,0.07575
2086.9,0.07546
2081.12,0.07452
2075.33,0.07378
2069.54,0.07349
2063.76,0.07349
2057.97,0.07476
2052.19,0.07550
2046.4,0.07651
2040.61,0.07702
2034.83,0.07835
2029.04,0.07867
2023.25,0.08009
2017.47,0.08121
2011.68,0.08143
2005.9,0.08088
2000.11,0.07989
1994.32,0.07734
1988.54,0.07441
1982.75,0.07319
1976.96,0.07170
1971.18,0.06871
1965.39,0.06400
1959.61,0.05913
1953.82,0.05465
1948.03,0.05318
1942.25,0.05616
1936.46,0.06014
1930.67,0.06435
1924.89,0.06709
1919.1,0.06896
1913.32,0.06948
1907.53,0.06967
1901.74,0.06975
1895.96,0.06973
1890.17,0.06986
1884.38,0.07007
1878.6,0.07011
1872.81,0.06945
1867.03,0.06742
1861.24,0.06596
1855.45,0.06288
1849.67,0.05977
1843.88,0.05639
1838.09,0.05318
1832.31,0.04977
1826.52,0.04701
1820.74,0.04592
1814.95,0.04545
1809.16,0.04435
1803.38,0.04258
1797.59,0.04087
1791.8,0.04018
1786.02,0.04054
1780.23,0.03998
1774.45,0.03921
1768.66,0.03788
1762.87,0.03656
1757.09,0.03497
1751.3,0.03377
1745.51,0.03252
1739.73,0.03307
1733.94,0.03662
1728.16,0.04236
1722.37,0.04857
1716.58,0.05190
1710.8,0.05286
1705.01,0.05220
1699.22,0.05128
1693.44,0.05043
1687.65,0.05005
1681.87,0.04932
1676.08,0.04903
1670.29,0.04900
1664.51,0.04856
1658.72,0.04894
1652.93,0.05001
1647.15,0.05028
1641.36,0.05015
1635.58,0.04983
1629.79,0.04965
1624,0.04949
1618.22,0.04940
1612.43,0.04826
1606.64,0.04795
1600.86,0.04816
1595.07,0.04879
1589.29,0.04835
1583.5,0.04619
1577.71,0.04488
1571.93,0.04612
1566.14,0.04914
1560.35,0.05127
1554.57,0.05226
1548.78,0.05249
1543,0.05228
1537.21,0.04980
1531.42,0.04723
1525.64,0.04635
1519.85,0.04650
1514.07,0.04524
1508.28,0.04477
1502.49,0.04433
1496.71,0.04514
1490.92,0.04489
1485.13,0.04288
1479.35,0.04214
1473.56,0.04142
1467.78,0.04113
1461.99,0.04196
1456.2,0.04324
1450.42,0.04370
1444.63,0.04369
1438.84,0.04431
1433.06,0.04393
1427.27,0.04363
1421.49,0.04296
1415.7,0.04260
1409.91,0.04214
1404.13,0.04153
1398.34,0.04083
1392.55,0.04030
1386.77,0.04000
1380.98,0.04025
1375.2,0.04110
1369.41,0.04119
1363.62,0.04063
1357.84,0.04022
1352.05,0.03989
1346.26,0.03941
1340.48,0.03851
1334.69,0.03810
1328.91,0.03807
1323.12,0.03743
1317.33,0.03682
1311.55,0.03606
1305.76,0.03537
1299.97,0.03546
1294.19,0.03501
1288.4,0.03521
1282.62,0.03537
1276.83,0.03711
1271.04,0.03996
1265.26,0.04185
1259.47,0.04148
1253.68,0.04185
1247.9,0.04291
1242.11,0.04373
1236.33,0.04349
1230.54,0.04375
1224.75,0.04340
1218.97,0.04347
1213.18,0.04352
1207.39,0.04344
1201.61,0.04337
1195.82,0.04318
1190.04,0.04270
1184.25,0.04257
1178.46,0.04234
1172.68,0.04274
1166.89,0.04334
1161.1,0.04480
1155.32,0.04714
1149.53,0.04754
1143.75,0.04951
1137.96,0.05013
1132.17,0.05130
1126.39,0.05292
1120.6,0.05594
1114.81,0.06049
1109.03,0.06411
1103.24,0.06732
1097.46,0.06991
1091.67,0.07049
1085.88,0.07153
1080.1,0.07237
1074.31,0.07442
1068.52,0.07563
1062.74,0.07520
1056.95,0.07520
1051.17,0.07374
1045.38,0.07329
1039.59,0.07288
1033.81,0.07235
1028.02,0.07037
1022.24,0.06834
1016.45,0.06790
1010.66,0.06618
1004.88,0.06461
999.09,0.06286
993.304,0.06200
987.518,0.06062
981.731,0.06051
975.945,0.06018
970.159,0.06017
964.373,0.06039
958.586,0.06004
952.8,0.06029
947.014,0.06001
941.228,0.05997
935.441,0.06006
929.655,0.05969
923.869,0.06008
918.083,0.05918
912.297,0.05856
906.51,0.05758
900.724,0.05782
894.938,0.05798
889.152,0.05714
883.365,0.05654
877.579,0.05620
871.793,0.05677
866.007,0.05611
860.22,0.05540
854.434,0.05502
848.648,0.05445
842.862,0.05423
837.075,0.05441
831.289,0.05382
825.503,0.05465
819.717,0.05377
813.931,0.05493
808.144,0.05505
802.358,0.05504
796.572,0.05535
790.786,0.05512
784.999,0.05453
779.213,0.05496
773.427,0.05501
767.641,0.05528
761.854,0.05419
756.068,0.05374
750.282,0.05370
744.496,0.05420
738.709,0.05292
732.923,0.05370
727.137,0.05587
721.351,0.05515
715.565,0.05355
709.778,0.05404
703.992,0.05412
698.206,0.05351
692.42,0.05218
686.633,0.05251
680.847,0.05220
675.061,0.05162
669.275,0.05227
663.488,0.05246
657.702,0.05176
651.916,0.05121
646.13,0.05020
640.343,0.04944
634.557,0.05007
628.771,0.05075
622.985,0.04894
617.198,0.05071
611.412,0.04921
605.626,0.04938
599.84,0.04918