File: 01_Data/Vinyl_Plank_Flooring/FTIR/IS/Vinyl_Plank_Flooring_IS_T_220819_R7.dpt
7497.03,0.00925
7491.25,0.02732
7485.46,0.01666
7479.67,0.01679
7473.89,0.01669
7468.1,0.02054
7462.32,0.02763
7456.53,0.02776
7450.74,0.02670
7444.96,0.02087
7439.17,0.02543
7433.38,0.02664
7427.6,0.02471
7421.81,0.01945
7416.03,0.01800
7410.24,0.02111
7404.45,0.01655
7398.67,0.02397
7392.88,0.02213
7387.09,0.01733
7381.31,0.01862
7375.52,0.02706
7369.74,0.03257
7363.95,0.01993
7358.16,0.02512
7352.38,0.02043
7346.59,0.02041
7340.8,0.02100
7335.02,0.01957
7329.23,0.02165
7323.45,0.01637
7317.66,0.01945
7311.87,0.01752
7306.09,0.01773
7300.3,0.02101
7294.51,0.01831
7288.73,0.02753
7282.94,0.02577
7277.16,0.02606
7271.37,0.02948
7265.58,0.02548
7259.8,0.02049
7254.01,0.02255
7248.22,0.02170
7242.44,0.02699
7236.65,0.02809
7230.87,0.02529
7225.08,0.02076
7219.29,0.02321
7213.51,0.02168
7207.72,0.02539
7201.93,0.02168
7196.15,0.02012
7190.36,0.02645
7184.58,0.02001
7178.79,0.02163
7173,0.02221
7167.22,0.01818
7161.43,0.02157
7155.65,0.01852
7149.86,0.02343
7144.07,0.02569
7138.29,0.02452
7132.5,0.01798
7126.71,0.02286
7120.93,0.02924
7115.14,0.02359
7109.36,0.01826
7103.57,0.01812
7097.78,0.02550
7092,0.02525
7086.21,0.02847
7080.42,0.01958
7074.64,0.02246
7068.85,0.01422
7063.07,0.02433
7057.28,0.02612
7051.49,0.02104
7045.71,0.01537
7039.92,0.02226
7034.13,0.02907
7028.35,0.01968
7022.56,0.02380
7016.78,0.01827
7010.99,0.02231
7005.2,0.01973
6999.42,0.01609
6993.63,0.01775
6987.84,0.02628
6982.06,0.02014
6976.27,0.01991
6970.49,0.01601
6964.7,0.02131
6958.91,0.02079
6953.13,0.01804
6947.34,0.02537
6941.55,0.02593
6935.77,0.02025
6929.98,0.02157
6924.2,0.02538
6918.41,0.02439
6912.62,0.02100
6906.84,0.02468
6901.05,0.02374
6895.26,0.01879
6889.48,0.02101
6883.69,0.01800
6877.91,0.02146
6872.12,0.02006
6866.33,0.02052
6860.55,0.02485
6854.76,0.01460
6848.97,0.02020
6843.19,0.02309
6837.4,0.02589
6831.62,0.01703
6825.83,0.01414
6820.04,0.01650
6814.26,0.01950
6808.47,0.01753
6802.68,0.02270
6796.9,0.01911
6791.11,0.02128
6785.33,0.01800
6779.54,0.01888
6773.75,0.01661
6767.97,0.02567
6762.18,0.01547
6756.39,0.02122
6750.61,0.01809
6744.82,0.02435
6739.04,0.02198
6733.25,0.01604
6727.46,0.01759
6721.68,0.02375
6715.89,0.02038
6710.1,0.02047
6704.32,0.01888
6698.53,0.01742
6692.75,0.01888
6686.96,0.01873
6681.17,0.01946
6675.39,0.01787
6669.6,0.01875
6663.82,0.01908
6658.03,0.01905
6652.24,0.01792
6646.46,0.02053
6640.67,0.02091
6634.88,0.02151
6629.1,0.01862
6623.31,0.01473
6617.53,0.01468
6611.74,0.02025
6605.95,0.02418
6600.17,0.01647
6594.38,0.02000
6588.59,0.02212
6582.81,0.02376
6577.02,0.02082
6571.24,0.02142
6565.45,0.01834
6559.66,0.01982
6553.88,0.01809
6548.09,0.01690
6542.3,0.01939
6536.52,0.02401
6530.73,0.02237
6524.95,0.02099
6519.16,0.01559
6513.37,0.02124
6507.59,0.01946
6501.8,0.01780
6496.01,0.01977
6490.23,0.02179
6484.44,0.01988
6478.66,0.01858
6472.87,0.02062
6467.08,0.01865
6461.3,0.02207
6455.51,0.01924
6449.72,0.02239
6443.94,0.01499
6438.15,0.02240
6432.37,0.02225
6426.58,0.02126
6420.79,0.01996
6415.01,0.01803
6409.22,0.01792
6403.43,0.01850
6397.65,0.01765
6391.86,0.01499
6386.08,0.01959
6380.29,0.01986
6374.5,0.01937
6368.72,0.02177
6362.93,0.01881
6357.14,0.02222
6351.36,0.02000
6345.57,0.01804
6339.79,0.01822
6334,0.01814
6328.21,0.01880
6322.43,0.01774
6316.64,0.01932
6310.85,0.01984
6305.07,0.02217
6299.28,0.02085
6293.5,0.02149
6287.71,0.01951
6281.92,0.01993
6276.14,0.02316
6270.35,0.01820
6264.56,0.01737
6258.78,0.02180
6252.99,0.02008
6247.21,0.02278
6241.42,0.01865
6235.63,0.01851
6229.85,0.01645
6224.06,0.01752
6218.27,0.02029
6212.49,0.01927
6206.7,0.01794
6200.92,0.02005
6195.13,0.01890
6189.34,0.01916
6183.56,0.02075
6177.77,0.02116
6171.98,0.01874
6166.2,0.02046
6160.41,0.02048
6154.63,0.02264
6148.84,0.01693
6143.05,0.01995
6137.27,0.01805
6131.48,0.01920
6125.7,0.01648
6119.91,0.01741
6114.12,0.01675
6108.34,0.02098
6102.55,0.01681
6096.76,0.01650
6090.98,0.01819
6085.19,0.01920
6079.41,0.01663
6073.62,0.01898
6067.83,0.02112
6062.05,0.02031
6056.26,0.01924
6050.47,0.01970
6044.69,0.02015
6038.9,0.02104
6033.12,0.01842
6027.33,0.01922
6021.54,0.01815
6015.76,0.01726
6009.97,0.02035
6004.18,0.02172
5998.4,0.01826
5992.61,0.01814
5986.83,0.01899
5981.04,0.01774
5975.25,0.02091
5969.47,0.01866
5963.68,0.01898
5957.89,0.01904
5952.11,0.01917
5946.32,0.02054
5940.54,0.02156
5934.75,0.01915
5928.96,0.01844
5923.18,0.01982
5917.39,0.01982
5911.6,0.01840
5905.82,0.01929
5900.03,0.01970
5894.25,0.01891
5888.46,0.01830
5882.67,0.02049
5876.89,0.02026
5871.1,0.01915
5865.31,0.01695
5859.53,0.01763
5853.74,0.01872
5847.96,0.01945
5842.17,0.01812
5836.38,0.01868
5830.6,0.01877
5824.81,0.01877
5819.02,0.02006
5813.24,0.01974
5807.45,0.01905
5801.67,0.01986
5795.88,0.01991
5790.09,0.01766
5784.31,0.01686
5778.52,0.01976
5772.73,0.01911
5766.95,0.01883
5761.16,0.01746
5755.38,0.01952
5749.59,0.02017
5743.8,0.01805
5738.02,0.01928
5732.23,0.01885
5726.44,0.01766
5720.66,0.01941
5714.87,0.02101
5709.09,0.02066
5703.3,0.01707
5697.51,0.01890
5691.73,0.02005
5685.94,0.02024
5680.15,0.02184
5674.37,0.02026
5668.58,0.02008
5662.8,0.01781
5657.01,0.01879
5651.22,0.01864
5645.44,0.02069
5639.65,0.01837
5633.87,0.02002
5628.08,0.01905
5622.29,0.01910
5616.51,0.01989
5610.72,0.01863
5604.93,0.01896
5599.15,0.01794
5593.36,0.01933
5587.58,0.01560
5581.79,0.01964
5576,0.01696
5570.22,0.01984
5564.43,0.01964
5558.64,0.01839
5552.86,0.01927
5547.07,0.02007
5541.29,0.01994
5535.5,0.01865
5529.71,0.01906
5523.93,0.01839
5518.14,0.01792
5512.35,0.01767
5506.57,0.02000
5500.78,0.02104
5495,0.02026
5489.21,0.01943
5483.42,0.01960
5477.64,0.01956
5471.85,0.01937
5466.06,0.01926
5460.28,0.01835
5454.49,0.01866
5448.71,0.01784
5442.92,0.01939
5437.13,0.01814
5431.35,0.01860
5425.56,0.01748
5419.77,0.01885
5413.99,0.01908
5408.2,0.02017
5402.42,0.02075
5396.63,0.01840
5390.84,0.01848
5385.06,0.02006
5379.27,0.02036
5373.48,0.01928
5367.7,0.01920
5361.91,0.02044
5356.13,0.01839
5350.34,0.01823
5344.55,0.02006
5338.77,0.01975
5332.98,0.01988
5327.19,0.01973
5321.41,0.01852
5315.62,0.01832
5309.84,0.01979
5304.05,0.01837
5298.26,0.01959
5292.48,0.01763
5286.69,0.01793
5280.9,0.01837
5275.12,0.01818
5269.33,0.02061
5263.55,0.01816
5257.76,0.01934
5251.97,0.02024
5246.19,0.01891
5240.4,0.02039
5234.61,0.01866
5228.83,0.02035
5223.04,0.01900
5217.26,0.01943
5211.47,0.01847
5205.68,0.01831
5199.9,0.01931
5194.11,0.02021
5188.32,0.01975
5182.54,0.01876
5176.75,0.01999
5170.97,0.02008
5165.18,0.01915
5159.39,0.01760
5153.61,0.01927
5147.82,0.01921
5142.03,0.01893
5136.25,0.01960
5130.46,0.01931
5124.68,0.01836
5118.89,0.01845
5113.1,0.02028
5107.32,0.01910
5101.53,0.02076
5095.75,0.01879
5089.96,0.01895
5084.17,0.01873
5078.39,0.01910
5072.6,0.01885
5066.81,0.01942
5061.03,0.01885
5055.24,0.01919
5049.46,0.01881
5043.67,0.01879
5037.88,0.01976
5032.1,0.01954
5026.31,0.02024
5020.52,0.02075
5014.74,0.01965
5008.95,0.02049
5003.17,0.01984
4997.38,0.01895
4991.59,0.01915
4985.81,0.01945
4980.02,0.02006
4974.23,0.01775
4968.45,0.01891
4962.66,0.01858
4956.88,0.01906
4951.09,0.01915
4945.3,0.01932
4939.52,0.02008
4933.73,0.01966
4927.94,0.01884
4922.16,0.01940
4916.37,0.02043
4910.59,0.01907
4904.8,0.01850
4899.01,0.02028
4893.23,0.01913
4887.44,0.01996
4881.65,0.01960
4875.87,0.01871
4870.08,0.01950
4864.3,0.01950
4858.51,0.01997
4852.72,0.02036
4846.94,0.02050
4841.15,0.01918
4835.36,0.01970
4829.58,0.01896
4823.79,0.01907
4818.01,0.01867
4812.22,0.01935
4806.43,0.01968
4800.65,0.02012
4794.86,0.01855
4789.07,0.01993
4783.29,0.02071
4777.5,0.01975
4771.72,0.01975
4765.93,0.01899
4760.14,0.01992
4754.36,0.01999
4748.57,0.01948
4742.78,0.02002
4737,0.01978
4731.21,0.02038
4725.43,0.02036
4719.64,0.01927
4713.85,0.01966
4708.07,0.01972
4702.28,0.01920
4696.49,0.01928
4690.71,0.02018
4684.92,0.02035
4679.14,0.01998
4673.35,0.02002
4667.56,0.01933
4661.78,0.01961
4655.99,0.01963
4650.2,0.01992
4644.42,0.02026
4638.63,0.01996
4632.85,0.02013
4627.06,0.02033
4621.27,0.02002
4615.49,0.01926
4609.7,0.01930
4603.92,0.01936
4598.13,0.01920
4592.34,0.01929
4586.56,0.02019
4580.77,0.01969
4574.98,0.01932
4569.2,0.01894
4563.41,0.01931
4557.63,0.01976
4551.84,0.01956
4546.05,0.02042
4540.27,0.02052
4534.48,0.02011
4528.69,0.01982
4522.91,0.01918
4517.12,0.01978
4511.34,0.01917
4505.55,0.01979
4499.76,0.02000
4493.98,0.02029
4488.19,0.01898
4482.4,0.02003
4476.62,0.02051
4470.83,0.02005
4465.05,0.01912
4459.26,0.01903
4453.47,0.01926
4447.69,0.02006
4441.9,0.01970
4436.11,0.01984
4430.33,0.01968
4424.54,0.01968
4418.76,0.01988
4412.97,0.01997
4407.18,0.01920
4401.4,0.01952
4395.61,0.01952
4389.82,0.01924
4384.04,0.01998
4378.25,0.01941
4372.47,0.01936
4366.68,0.02023
4360.89,0.02020
4355.11,0.01996
4349.32,0.01981
4343.53,0.01979
4337.75,0.01987
4331.96,0.01975
4326.18,0.01997
4320.39,0.01960
4314.6,0.01981
4308.82,0.01960
4303.03,0.01947
4297.24,0.01913
4291.46,0.01954
4285.67,0.01961
4279.89,0.02031
4274.1,0.01984
4268.31,0.01899
4262.53,0.02029
4256.74,0.01987
4250.95,0.01955
4245.17,0.01971
4239.38,0.01913
4233.6,0.01985
4227.81,0.01940
4222.02,0.01935
4216.24,0.01993
4210.45,0.02023
4204.66,0.01989
4198.88,0.01969
4193.09,0.01918
4187.31,0.01997
4181.52,0.02082
4175.73,0.02010
4169.95,0.01946
4164.16,0.01996
4158.37,0.01922
4152.59,0.01952
4146.8,0.01987
4141.02,0.01983
4135.23,0.02017
4129.44,0.01999
4123.66,0.02065
4117.87,0.02034
4112.09,0.01998
4106.3,0.02025
4100.51,0.02014
4094.73,0.02040
4088.94,0.01982
4083.15,0.02020
4077.37,0.02046
4071.58,0.01948
4065.8,0.01928
4060.01,0.01984
4054.22,0.02026
4048.44,0.02004
4042.65,0.01983
4036.86,0.02011
4031.08,0.02000
4025.29,0.01990
4019.51,0.01983
4013.72,0.02004
4007.93,0.02017
4002.15,0.01988
3996.36,0.01957
3990.57,0.01977
3984.79,0.01971
3979,0.02092
3973.22,0.02034
3967.43,0.02036
3961.64,0.02026
3955.86,0.02086
3950.07,0.02057
3944.28,0.01984
3938.5,0.01980
3932.71,0.01994
3926.93,0.02003
3921.14,0.02074
3915.35,0.01939
3909.57,0.01957
3903.78,0.01995
3897.99,0.02024
3892.21,0.01994
3886.42,0.01949
3880.64,0.02040
3874.85,0.01990
3869.06,0.01932
3863.28,0.01973
3857.49,0.02085
3851.7,0.01998
3845.92,0.02005
3840.13,0.02010
3834.35,0.01989
3828.56,0.02045
3822.77,0.02088
3816.99,0.02047
3811.2,0.01949
3805.41,0.02060
3799.63,0.01987
3793.84,0.02018
3788.06,0.01977
3782.27,0.01965
3776.48,0.01983
3770.7,0.01970
3764.91,0.01977
3759.12,0.02005
3753.34,0.02069
3747.55,0.02046
3741.77,0.01943
3735.98,0.01970
3730.19,0.02010
3724.41,0.01955
3718.62,0.01974
3712.83,0.01998
3707.05,0.01942
3701.26,0.02026
3695.48,0.01963
3689.69,0.01947
3683.9,0.01986
3678.12,0.01931
3672.33,0.01924
3666.54,0.01891
3660.76,0.01938
3654.97,0.02007
3649.19,0.01991
3643.4,0.01977
3637.61,0.01997
3631.83,0.01918
3626.04,0.01852
3620.25,0.01876
3614.47,0.01895
3608.68,0.01900
3602.9,0.01906
3597.11,0.01903
3591.32,0.01917
3585.54,0.01935
3579.75,0.01913
3573.97,0.01885
3568.18,0.01919
3562.39,0.01902
3556.61,0.01864
3550.82,0.01849
3545.03,0.01836
3539.25,0.01847
3533.46,0.01880
3527.68,0.01834
3521.89,0.01838
3516.1,0.01796
3510.32,0.01829
3504.53,0.01854
3498.74,0.01849
3492.96,0.01821
3487.17,0.01863
3481.39,0.01867
3475.6,0.01860
3469.81,0.01739
3464.03,0.01839
3458.24,0.01792
3452.45,0.01801
3446.67,0.01774
3440.88,0.01794
3435.1,0.01784
3429.31,0.01751
3423.52,0.01824
3417.74,0.01831
3411.95,0.01762
3406.16,0.01783
3400.38,0.01729
3394.59,0.01816
3388.81,0.01757
3383.02,0.01768
3377.23,0.01801
3371.45,0.01755
3365.66,0.01821
3359.87,0.01794
3354.09,0.01722
3348.3,0.01664
3342.52,0.01726
3336.73,0.01761
3330.94,0.01809
3325.16,0.01812
3319.37,0.01700
3313.58,0.01696
3307.8,0.01767
3302.01,0.01712
3296.23,0.01718
3290.44,0.01743
3284.65,0.01814
3278.87,0.01786
3273.08,0.01761
3267.29,0.01737
3261.51,0.01714
3255.72,0.01689
3249.94,0.01733
3244.15,0.01788
3238.36,0.01773
3232.58,0.01753
3226.79,0.01699
3221,0.01703
3215.22,0.01796
3209.43,0.01794
3203.65,0.01767
3197.86,0.01815
3192.07,0.01847
3186.29,0.01791
3180.5,0.01822
3174.71,0.01818
3168.93,0.01799
3163.14,0.01826
3157.36,0.01828
3151.57,0.01824
3145.78,0.01779
3140,0.01829
3134.21,0.01856
3128.42,0.01860
3122.64,0.01818
3116.85,0.01818
3111.07,0.01791
3105.28,0.01805
3099.49,0.01829
3093.71,0.01827
3087.92,0.01777
3082.14,0.01780
3076.35,0.01855
3070.56,0.01831
3064.78,0.01777
3058.99,0.01811
3053.2,0.01786
3047.42,0.01748
3041.63,0.01768
3035.85,0.01781
3030.06,0.01811
3024.27,0.01741
3018.49,0.01719
3012.7,0.01777
3006.91,0.01770
3001.13,0.01771
2995.34,0.01723
2989.56,0.01725
2983.77,0.01718
2977.98,0.01683
2972.2,0.01700
2966.41,0.01707
2960.62,0.01701
2954.84,0.01707
2949.05,0.01670
2943.27,0.01646
2937.48,0.01660
2931.69,0.01711
2925.91,0.01770
2920.12,0.01752
2914.33,0.01752
2908.55,0.01791
2902.76,0.01781
2896.98,0.01766
2891.19,0.01792
2885.4,0.01805
2879.62,0.01814
2873.83,0.01822
2868.04,0.01822
2862.26,0.01748
2856.47,0.01763
2850.69,0.01853
2844.9,0.01851
2839.11,0.01876
2833.33,0.01836
2827.54,0.01869
2821.75,0.01827
2815.97,0.01901
2810.18,0.01843
2804.4,0.01854
2798.61,0.01853
2792.82,0.01825
2787.04,0.01838
2781.25,0.01830
2775.46,0.01893
2769.68,0.01893
2763.89,0.01845
2758.11,0.01887
2752.32,0.01841
2746.53,0.01826
2740.75,0.01858
2734.96,0.01879
2729.17,0.01891
2723.39,0.01899
2717.6,0.01886
2711.82,0.01820
2706.03,0.01859
2700.24,0.01850
2694.46,0.01834
2688.67,0.01873
2682.88,0.01842
2677.1,0.01889
2671.31,0.01878
2665.53,0.01856
2659.74,0.01855
2653.95,0.01876
2648.17,0.01834
2642.38,0.01869
2636.59,0.01849
2630.81,0.01896
2625.02,0.01892
2619.24,0.01881
2613.45,0.01822
2607.66,0.01815
2601.88,0.01865
2596.09,0.01882
2590.3,0.01866
2584.52,0.01837
2578.73,0.01863
2572.95,0.01851
2567.16,0.01904
2561.37,0.01864
2555.59,0.01857
2549.8,0.01889
2544.02,0.01856
2538.23,0.01850
2532.44,0.01861
2526.66,0.01866
2520.87,0.01854
2515.08,0.01867
2509.3,0.01878
2503.51,0.01872
2497.73,0.01867
2491.94,0.01883
2486.15,0.01835
2480.37,0.01826
2474.58,0.01857
2468.79,0.01873
2463.01,0.01867
2457.22,0.01888
2451.44,0.01835
2445.65,0.01840
2439.86,0.01849
2434.08,0.01834
2428.29,0.01851
2422.5,0.01868
2416.72,0.01875
2410.93,0.01875
2405.15,0.01869
2399.36,0.01873
2393.57,0.01888
2387.79,0.01835
2382,0.01839
2376.21,0.01859
2370.43,0.01852
2364.64,0.01829
2358.86,0.01880
2353.07,0.01867
2347.28,0.01849
2341.5,0.01853
2335.71,0.01869
2329.92,0.01880
2324.14,0.01856
2318.35,0.01878
2312.57,0.01838
2306.78,0.01850
2300.99,0.01857
2295.21,0.01900
2289.42,0.01848
2283.63,0.01876
2277.85,0.01904
2272.06,0.01861
2266.28,0.01908
2260.49,0.01874
2254.7,0.01851
2248.92,0.01845
2243.13,0.01862
2237.34,0.01866
2231.56,0.01881
2225.77,0.01835
2219.99,0.01836
2214.2,0.01799
2208.41,0.01798
2202.63,0.01825
2196.84,0.01831
2191.05,0.01816
2185.27,0.01854
2179.48,0.01886
2173.7,0.01850
2167.91,0.01840
2162.12,0.01869
2156.34,0.01881
2150.55,0.01830
2144.76,0.01822
2138.98,0.01868
2133.19,0.01856
2127.41,0.01857
2121.62,0.01850
2115.83,0.01801
2110.05,0.01828
2104.26,0.01854
2098.47,0.01809
2092.69,0.01846
2086.9,0.01801
2081.12,0.01801
2075.33,0.01815
2069.54,0.01835
2063.76,0.01821
2057.97,0.01829
2052.19,0.01810
2046.4,0.01819
2040.61,0.01826
2034.83,0.01843
2029.04,0.01838
2023.25,0.01822
2017.47,0.01805
2011.68,0.01807
2005.9,0.01837
2000.11,0.01830
1994.32,0.01824
1988.54,0.01823
1982.75,0.01849
1976.96,0.01860
1971.18,0.01836
1965.39,0.01826
1959.61,0.01809
1953.82,0.01815
1948.03,0.01792
1942.25,0.01786
1936.46,0.01776
1930.67,0.01802
1924.89,0.01816
1919.1,0.01807
1913.32,0.01815
1907.53,0.01823
1901.74,0.01807
1895.96,0.01803
1890.17,0.01825
1884.38,0.01791
1878.6,0.01801
1872.81,0.01797
1867.03,0.01794
1861.24,0.01781
1855.45,0.01766
1849.67,0.01782
1843.88,0.01772
1838.09,0.01799
1832.31,0.01785
1826.52,0.01758
1820.74,0.01726
1814.95,0.01719
1809.16,0.01719
1803.38,0.01707
1797.59,0.01731
1791.8,0.01700
1786.02,0.01674
1780.23,0.01617
1774.45,0.01643
1768.66,0.01552
1762.87,0.01527
1757.09,0.01500
1751.3,0.01479
1745.51,0.01503
1739.73,0.01631
1733.94,0.01690
1728.16,0.01783
1722.37,0.01790
1716.58,0.01802
1710.8,0.01827
1705.01,0.01760
1699.22,0.01753
1693.44,0.01690
1687.65,0.01667
1681.87,0.01625
1676.08,0.01628
1670.29,0.01597
1664.51,0.01549
1658.72,0.01622
1652.93,0.01593
1647.15,0.01573
1641.36,0.01617
1635.58,0.01616
1629.79,0.01620
1624,0.01594
1618.22,0.01664
1612.43,0.01621
1606.64,0.01605
1600.86,0.01592
1595.07,0.01653
1589.29,0.01592
1583.5,0.01592
1577.71,0.01588
1571.93,0.01566
1566.14,0.01554
1560.35,0.01583
1554.57,0.01576
1548.78,0.01588
1543,0.01575
1537.21,0.01545
1531.42,0.01556
1525.64,0.01638
1519.85,0.01601
1514.07,0.01567
1508.28,0.01614
1502.49,0.01595
1496.71,0.01610
1490.92,0.01631
1485.13,0.01607
1479.35,0.01566
1473.56,0.01588
1467.78,0.01588
1461.99,0.01604
1456.2,0.01575
1450.42,0.01597
1444.63,0.01601
1438.84,0.01625
1433.06,0.01596
1427.27,0.01612
1421.49,0.01591
1415.7,0.01620
1409.91,0.01586
1404.13,0.01576
1398.34,0.01509
1392.55,0.01520
1386.77,0.01543
1380.98,0.01545
1375.2,0.01530
1369.41,0.01554
1363.62,0.01565
1357.84,0.01570
1352.05,0.01576
1346.26,0.01544
1340.48,0.01528
1334.69,0.01480
1328.91,0.01484
1323.12,0.01455
1317.33,0.01450
1311.55,0.01427
1305.76,0.01506
1299.97,0.01497
1294.19,0.01559
1288.4,0.01577
1282.62,0.01622
1276.83,0.01617
1271.04,0.01656
1265.26,0.01693
1259.47,0.01692
1253.68,0.01741
1247.9,0.01717
1242.11,0.01745
1236.33,0.01643
1230.54,0.01690
1224.75,0.01654
1218.97,0.01640
1213.18,0.01647
1207.39,0.01563
1201.61,0.01578
1195.82,0.01591
1190.04,0.01518
1184.25,0.01504
1178.46,0.01508
1172.68,0.01526
1166.89,0.01454
1161.1,0.01491
1155.32,0.01492
1149.53,0.01458
1143.75,0.01460
1137.96,0.01505
1132.17,0.01549
1126.39,0.01565
1120.6,0.01667
1114.81,0.01610
1109.03,0.01595
1103.24,0.01572
1097.46,0.01519
1091.67,0.01518
1085.88,0.01557
1080.1,0.01631
1074.31,0.01621
1068.52,0.01694
1062.74,0.01671
1056.95,0.01658
1051.17,0.01673
1045.38,0.01685
1039.59,0.01746
1033.81,0.01622
1028.02,0.01690
1022.24,0.01631
1016.45,0.01690
1010.66,0.01762
1004.88,0.01768
999.09,0.01811
993.304,0.01810
987.518,0.01794
981.731,0.01765
975.945,0.01780
970.159,0.01775
964.373,0.01734
958.586,0.01737
952.8,0.01702
947.014,0.01683
941.228,0.01704
935.441,0.01697
929.655,0.01696
923.869,0.01660
918.083,0.01673
912.297,0.01637
906.51,0.01689
900.724,0.01635
894.938,0.01679
889.152,0.01658
883.365,0.01651
877.579,0.01641
871.793,0.01619
866.007,0.01665
860.22,0.01601
854.434,0.01610
848.648,0.01604
842.862,0.01580
837.075,0.01580
831.289,0.01698
825.503,0.01655
819.717,0.01625
813.931,0.01656
808.144,0.01621
802.358,0.01603
796.572,0.01583
790.786,0.01585
784.999,0.01592
779.213,0.01582
773.427,0.01520
767.641,0.01572
761.854,0.01540
756.068,0.01464
750.282,0.01479
744.496,0.01434
738.709,0.01495
732.923,0.01483
727.137,0.01474
721.351,0.01508
715.565,0.01472
709.778,0.01550
703.992,0.01529
698.206,0.01521
692.42,0.01525
686.633,0.01444
680.847,0.01295
675.061,0.01363
669.275,0.01415
663.488,0.01288
657.702,0.01386
651.916,0.01475
646.13,0.01216
640.343,0.01179
634.557,0.01278
628.771,0.01333
622.985,0.01273
617.198,0.01366
611.412,0.01306
605.626,0.01073
599.84,0.01222