File: 01_Data/Vinyl_Plank_Flooring/FTIR/IS/Vinyl_Plank_Flooring_IS_T_220819_R2.dpt
7497.03,0.02518
7491.25,0.02444
7485.46,0.02490
7479.67,0.02050
7473.89,0.02372
7468.1,0.02728
7462.32,0.01928
7456.53,0.01566
7450.74,0.02325
7444.96,0.02881
7439.17,0.02907
7433.38,0.02082
7427.6,0.01335
7421.81,0.02400
7416.03,0.02366
7410.24,0.01650
7404.45,0.03301
7398.67,0.01773
7392.88,0.01608
7387.09,0.02090
7381.31,0.02146
7375.52,0.02061
7369.74,0.01954
7363.95,0.02294
7358.16,0.02122
7352.38,0.02387
7346.59,0.02561
7340.8,0.01979
7335.02,0.03039
7329.23,0.02304
7323.45,0.02235
7317.66,0.02080
7311.87,0.02344
7306.09,0.01468
7300.3,0.01371
7294.51,0.01800
7288.73,0.02300
7282.94,0.01694
7277.16,0.01565
7271.37,0.01681
7265.58,0.02053
7259.8,0.02375
7254.01,0.02153
7248.22,0.02569
7242.44,0.01822
7236.65,0.01999
7230.87,0.02867
7225.08,0.01940
7219.29,0.01566
7213.51,0.02351
7207.72,0.02636
7201.93,0.02139
7196.15,0.01488
7190.36,0.02287
7184.58,0.01594
7178.79,0.02421
7173,0.02147
7167.22,0.01784
7161.43,0.02231
7155.65,0.02068
7149.86,0.01853
7144.07,0.02267
7138.29,0.02039
7132.5,0.02575
7126.71,0.02115
7120.93,0.02331
7115.14,0.01848
7109.36,0.02045
7103.57,0.01991
7097.78,0.02347
7092,0.01990
7086.21,0.01635
7080.42,0.02348
7074.64,0.01921
7068.85,0.01976
7063.07,0.02225
7057.28,0.01858
7051.49,0.02219
7045.71,0.02108
7039.92,0.02407
7034.13,0.02001
7028.35,0.02069
7022.56,0.02205
7016.78,0.01544
7010.99,0.02390
7005.2,0.01956
6999.42,0.01842
6993.63,0.02597
6987.84,0.02414
6982.06,0.01911
6976.27,0.02094
6970.49,0.02302
6964.7,0.02158
6958.91,0.02358
6953.13,0.01992
6947.34,0.02144
6941.55,0.01939
6935.77,0.01659
6929.98,0.02169
6924.2,0.01933
6918.41,0.01906
6912.62,0.02172
6906.84,0.01943
6901.05,0.02222
6895.26,0.02278
6889.48,0.02331
6883.69,0.01967
6877.91,0.01811
6872.12,0.02302
6866.33,0.02127
6860.55,0.01849
6854.76,0.02102
6848.97,0.02467
6843.19,0.02008
6837.4,0.02160
6831.62,0.01870
6825.83,0.01971
6820.04,0.01731
6814.26,0.01820
6808.47,0.02105
6802.68,0.01864
6796.9,0.01958
6791.11,0.02229
6785.33,0.02977
6779.54,0.02309
6773.75,0.01796
6767.97,0.01608
6762.18,0.02107
6756.39,0.02269
6750.61,0.02121
6744.82,0.01980
6739.04,0.01914
6733.25,0.01969
6727.46,0.01463
6721.68,0.01803
6715.89,0.02266
6710.1,0.02399
6704.32,0.02256
6698.53,0.01997
6692.75,0.01835
6686.96,0.02112
6681.17,0.01994
6675.39,0.02326
6669.6,0.02449
6663.82,0.01738
6658.03,0.01810
6652.24,0.01729
6646.46,0.01930
6640.67,0.02188
6634.88,0.01969
6629.1,0.02271
6623.31,0.02018
6617.53,0.01916
6611.74,0.02007
6605.95,0.02252
6600.17,0.01856
6594.38,0.01813
6588.59,0.02057
6582.81,0.01949
6577.02,0.02022
6571.24,0.02193
6565.45,0.02047
6559.66,0.01757
6553.88,0.01916
6548.09,0.01896
6542.3,0.01621
6536.52,0.01847
6530.73,0.02175
6524.95,0.01995
6519.16,0.01629
6513.37,0.02165
6507.59,0.01743
6501.8,0.01670
6496.01,0.02102
6490.23,0.01894
6484.44,0.01424
6478.66,0.01618
6472.87,0.01932
6467.08,0.01901
6461.3,0.01767
6455.51,0.02219
6449.72,0.01980
6443.94,0.01920
6438.15,0.02262
6432.37,0.02125
6426.58,0.02222
6420.79,0.01463
6415.01,0.01751
6409.22,0.01990
6403.43,0.01814
6397.65,0.01682
6391.86,0.01956
6386.08,0.01803
6380.29,0.01841
6374.5,0.01870
6368.72,0.01848
6362.93,0.01910
6357.14,0.02108
6351.36,0.02086
6345.57,0.01972
6339.79,0.01922
6334,0.01833
6328.21,0.02041
6322.43,0.02000
6316.64,0.01935
6310.85,0.02072
6305.07,0.01783
6299.28,0.01857
6293.5,0.01715
6287.71,0.01686
6281.92,0.01985
6276.14,0.01947
6270.35,0.01701
6264.56,0.01809
6258.78,0.01745
6252.99,0.01619
6247.21,0.01958
6241.42,0.01649
6235.63,0.01903
6229.85,0.01913
6224.06,0.01863
6218.27,0.01656
6212.49,0.02087
6206.7,0.01908
6200.92,0.01998
6195.13,0.01836
6189.34,0.01878
6183.56,0.01721
6177.77,0.02058
6171.98,0.01959
6166.2,0.01925
6160.41,0.02102
6154.63,0.02171
6148.84,0.01816
6143.05,0.01789
6137.27,0.01940
6131.48,0.02108
6125.7,0.01858
6119.91,0.01708
6114.12,0.01853
6108.34,0.02137
6102.55,0.01715
6096.76,0.02012
6090.98,0.02245
6085.19,0.02026
6079.41,0.01895
6073.62,0.02152
6067.83,0.01824
6062.05,0.01526
6056.26,0.01771
6050.47,0.01979
6044.69,0.01882
6038.9,0.01867
6033.12,0.01714
6027.33,0.01881
6021.54,0.01936
6015.76,0.01680
6009.97,0.01900
6004.18,0.01967
5998.4,0.02020
5992.61,0.01881
5986.83,0.02014
5981.04,0.01963
5975.25,0.01981
5969.47,0.01865
5963.68,0.01794
5957.89,0.02009
5952.11,0.01952
5946.32,0.02075
5940.54,0.01988
5934.75,0.01840
5928.96,0.01812
5923.18,0.01859
5917.39,0.01761
5911.6,0.01787
5905.82,0.01824
5900.03,0.01714
5894.25,0.01772
5888.46,0.02138
5882.67,0.02145
5876.89,0.01979
5871.1,0.02057
5865.31,0.01922
5859.53,0.01988
5853.74,0.01904
5847.96,0.01889
5842.17,0.02006
5836.38,0.01785
5830.6,0.02288
5824.81,0.02035
5819.02,0.01914
5813.24,0.02080
5807.45,0.01957
5801.67,0.02087
5795.88,0.01863
5790.09,0.01765
5784.31,0.01717
5778.52,0.01675
5772.73,0.01928
5766.95,0.01893
5761.16,0.02044
5755.38,0.02059
5749.59,0.01982
5743.8,0.01781
5738.02,0.01893
5732.23,0.01829
5726.44,0.01875
5720.66,0.01929
5714.87,0.02000
5709.09,0.01921
5703.3,0.02005
5697.51,0.02005
5691.73,0.01887
5685.94,0.01934
5680.15,0.01829
5674.37,0.01910
5668.58,0.01801
5662.8,0.01895
5657.01,0.01864
5651.22,0.02065
5645.44,0.02029
5639.65,0.01905
5633.87,0.01970
5628.08,0.02138
5622.29,0.01739
5616.51,0.01714
5610.72,0.01945
5604.93,0.01991
5599.15,0.01981
5593.36,0.02000
5587.58,0.01954
5581.79,0.01905
5576,0.01807
5570.22,0.02032
5564.43,0.01962
5558.64,0.01880
5552.86,0.01927
5547.07,0.01790
5541.29,0.01893
5535.5,0.01973
5529.71,0.01861
5523.93,0.01934
5518.14,0.01963
5512.35,0.02006
5506.57,0.01982
5500.78,0.02015
5495,0.01928
5489.21,0.01875
5483.42,0.02077
5477.64,0.01909
5471.85,0.01801
5466.06,0.01910
5460.28,0.01995
5454.49,0.01913
5448.71,0.01768
5442.92,0.01762
5437.13,0.01990
5431.35,0.01848
5425.56,0.01979
5419.77,0.02085
5413.99,0.02118
5408.2,0.01904
5402.42,0.02060
5396.63,0.02020
5390.84,0.01809
5385.06,0.01927
5379.27,0.01891
5373.48,0.01998
5367.7,0.01905
5361.91,0.01686
5356.13,0.01843
5350.34,0.01840
5344.55,0.01883
5338.77,0.01718
5332.98,0.01834
5327.19,0.01976
5321.41,0.01959
5315.62,0.01926
5309.84,0.01917
5304.05,0.01907
5298.26,0.01882
5292.48,0.02030
5286.69,0.02017
5280.9,0.01991
5275.12,0.01975
5269.33,0.02089
5263.55,0.01986
5257.76,0.01843
5251.97,0.01874
5246.19,0.02024
5240.4,0.02042
5234.61,0.02012
5228.83,0.01989
5223.04,0.02037
5217.26,0.01920
5211.47,0.01979
5205.68,0.01883
5199.9,0.01941
5194.11,0.02006
5188.32,0.01945
5182.54,0.01937
5176.75,0.01820
5170.97,0.01935
5165.18,0.01916
5159.39,0.02028
5153.61,0.01975
5147.82,0.02022
5142.03,0.01876
5136.25,0.02016
5130.46,0.01970
5124.68,0.01994
5118.89,0.01810
5113.1,0.01864
5107.32,0.01985
5101.53,0.02064
5095.75,0.01985
5089.96,0.01957
5084.17,0.01888
5078.39,0.01935
5072.6,0.02000
5066.81,0.01931
5061.03,0.01910
5055.24,0.01843
5049.46,0.01960
5043.67,0.01933
5037.88,0.01859
5032.1,0.01958
5026.31,0.01994
5020.52,0.02047
5014.74,0.01932
5008.95,0.01871
5003.17,0.01965
4997.38,0.01950
4991.59,0.01906
4985.81,0.01863
4980.02,0.01883
4974.23,0.01828
4968.45,0.01988
4962.66,0.02035
4956.88,0.01913
4951.09,0.01956
4945.3,0.01924
4939.52,0.01931
4933.73,0.01980
4927.94,0.01925
4922.16,0.01978
4916.37,0.01879
4910.59,0.02036
4904.8,0.01935
4899.01,0.01931
4893.23,0.01966
4887.44,0.01916
4881.65,0.01964
4875.87,0.01955
4870.08,0.02126
4864.3,0.02037
4858.51,0.02027
4852.72,0.02033
4846.94,0.02054
4841.15,0.02000
4835.36,0.02051
4829.58,0.01980
4823.79,0.01837
4818.01,0.01873
4812.22,0.01943
4806.43,0.01963
4800.65,0.01969
4794.86,0.01905
4789.07,0.01926
4783.29,0.01911
4777.5,0.02000
4771.72,0.02014
4765.93,0.02009
4760.14,0.01995
4754.36,0.01961
4748.57,0.02017
4742.78,0.01968
4737,0.02036
4731.21,0.02064
4725.43,0.02108
4719.64,0.02043
4713.85,0.02097
4708.07,0.02005
4702.28,0.01997
4696.49,0.01949
4690.71,0.02006
4684.92,0.01890
4679.14,0.01917
4673.35,0.01902
4667.56,0.01908
4661.78,0.01986
4655.99,0.01951
4650.2,0.01971
4644.42,0.01848
4638.63,0.01896
4632.85,0.01983
4627.06,0.01980
4621.27,0.01976
4615.49,0.02071
4609.7,0.01961
4603.92,0.01930
4598.13,0.01917
4592.34,0.02036
4586.56,0.02002
4580.77,0.01928
4574.98,0.02060
4569.2,0.02039
4563.41,0.02005
4557.63,0.01955
4551.84,0.01993
4546.05,0.02029
4540.27,0.01960
4534.48,0.01934
4528.69,0.01923
4522.91,0.02008
4517.12,0.01949
4511.34,0.01967
4505.55,0.01879
4499.76,0.01924
4493.98,0.02022
4488.19,0.01994
4482.4,0.01960
4476.62,0.01928
4470.83,0.01980
4465.05,0.01975
4459.26,0.01943
4453.47,0.01972
4447.69,0.01993
4441.9,0.02046
4436.11,0.02015
4430.33,0.01941
4424.54,0.01976
4418.76,0.02029
4412.97,0.02025
4407.18,0.01933
4401.4,0.02035
4395.61,0.01952
4389.82,0.01990
4384.04,0.01933
4378.25,0.01986
4372.47,0.02013
4366.68,0.02060
4360.89,0.01973
4355.11,0.01956
4349.32,0.01994
4343.53,0.01985
4337.75,0.02003
4331.96,0.02002
4326.18,0.02020
4320.39,0.01977
4314.6,0.02000
4308.82,0.02024
4303.03,0.01943
4297.24,0.01945
4291.46,0.01996
4285.67,0.01990
4279.89,0.01936
4274.1,0.01977
4268.31,0.01937
4262.53,0.01971
4256.74,0.01963
4250.95,0.01929
4245.17,0.01949
4239.38,0.01963
4233.6,0.01964
4227.81,0.01989
4222.02,0.01917
4216.24,0.01908
4210.45,0.01939
4204.66,0.02037
4198.88,0.01993
4193.09,0.01972
4187.31,0.01937
4181.52,0.02009
4175.73,0.01993
4169.95,0.01895
4164.16,0.01950
4158.37,0.01983
4152.59,0.01964
4146.8,0.01982
4141.02,0.02018
4135.23,0.01990
4129.44,0.02029
4123.66,0.01994
4117.87,0.02028
4112.09,0.01963
4106.3,0.01985
4100.51,0.02006
4094.73,0.02007
4088.94,0.01960
4083.15,0.01937
4077.37,0.02018
4071.58,0.01974
4065.8,0.01995
4060.01,0.01978
4054.22,0.01973
4048.44,0.02008
4042.65,0.02005
4036.86,0.02012
4031.08,0.01983
4025.29,0.02016
4019.51,0.02018
4013.72,0.01938
4007.93,0.02017
4002.15,0.01964
3996.36,0.01968
3990.57,0.02065
3984.79,0.01996
3979,0.01974
3973.22,0.01917
3967.43,0.02044
3961.64,0.01997
3955.86,0.01986
3950.07,0.01947
3944.28,0.01977
3938.5,0.01955
3932.71,0.02003
3926.93,0.01968
3921.14,0.01983
3915.35,0.02014
3909.57,0.01948
3903.78,0.01976
3897.99,0.01968
3892.21,0.01974
3886.42,0.02004
3880.64,0.02034
3874.85,0.02022
3869.06,0.02030
3863.28,0.02002
3857.49,0.02016
3851.7,0.01890
3845.92,0.02039
3840.13,0.02027
3834.35,0.02006
3828.56,0.01991
3822.77,0.01994
3816.99,0.02015
3811.2,0.02027
3805.41,0.01933
3799.63,0.02045
3793.84,0.02003
3788.06,0.02018
3782.27,0.01983
3776.48,0.01972
3770.7,0.02010
3764.91,0.02005
3759.12,0.01958
3753.34,0.01971
3747.55,0.01989
3741.77,0.01993
3735.98,0.01962
3730.19,0.01886
3724.41,0.01933
3718.62,0.02023
3712.83,0.01980
3707.05,0.01889
3701.26,0.01962
3695.48,0.01939
3689.69,0.02019
3683.9,0.01933
3678.12,0.01955
3672.33,0.01940
3666.54,0.01934
3660.76,0.01966
3654.97,0.01977
3649.19,0.01970
3643.4,0.01993
3637.61,0.01952
3631.83,0.02001
3626.04,0.01949
3620.25,0.01910
3614.47,0.01937
3608.68,0.01920
3602.9,0.01903
3597.11,0.01926
3591.32,0.01883
3585.54,0.01871
3579.75,0.01872
3573.97,0.01889
3568.18,0.01863
3562.39,0.01921
3556.61,0.01910
3550.82,0.01869
3545.03,0.01829
3539.25,0.01821
3533.46,0.01868
3527.68,0.01841
3521.89,0.01832
3516.1,0.01869
3510.32,0.01849
3504.53,0.01841
3498.74,0.01900
3492.96,0.01836
3487.17,0.01857
3481.39,0.01855
3475.6,0.01876
3469.81,0.01809
3464.03,0.01852
3458.24,0.01831
3452.45,0.01763
3446.67,0.01804
3440.88,0.01844
3435.1,0.01847
3429.31,0.01744
3423.52,0.01789
3417.74,0.01766
3411.95,0.01717
3406.16,0.01699
3400.38,0.01737
3394.59,0.01736
3388.81,0.01717
3383.02,0.01719
3377.23,0.01767
3371.45,0.01800
3365.66,0.01778
3359.87,0.01732
3354.09,0.01724
3348.3,0.01849
3342.52,0.01771
3336.73,0.01767
3330.94,0.01727
3325.16,0.01691
3319.37,0.01707
3313.58,0.01790
3307.8,0.01833
3302.01,0.01862
3296.23,0.01737
3290.44,0.01688
3284.65,0.01664
3278.87,0.01762
3273.08,0.01767
3267.29,0.01790
3261.51,0.01783
3255.72,0.01745
3249.94,0.01748
3244.15,0.01735
3238.36,0.01691
3232.58,0.01777
3226.79,0.01673
3221,0.01733
3215.22,0.01778
3209.43,0.01778
3203.65,0.01733
3197.86,0.01755
3192.07,0.01756
3186.29,0.01825
3180.5,0.01843
3174.71,0.01806
3168.93,0.01801
3163.14,0.01832
3157.36,0.01787
3151.57,0.01770
3145.78,0.01816
3140,0.01799
3134.21,0.01777
3128.42,0.01796
3122.64,0.01849
3116.85,0.01789
3111.07,0.01829
3105.28,0.01780
3099.49,0.01802
3093.71,0.01817
3087.92,0.01747
3082.14,0.01795
3076.35,0.01766
3070.56,0.01831
3064.78,0.01824
3058.99,0.01789
3053.2,0.01831
3047.42,0.01851
3041.63,0.01805
3035.85,0.01771
3030.06,0.01798
3024.27,0.01792
3018.49,0.01804
3012.7,0.01787
3006.91,0.01783
3001.13,0.01759
2995.34,0.01762
2989.56,0.01705
2983.77,0.01680
2977.98,0.01686
2972.2,0.01688
2966.41,0.01710
2960.62,0.01641
2954.84,0.01685
2949.05,0.01721
2943.27,0.01777
2937.48,0.01720
2931.69,0.01706
2925.91,0.01768
2920.12,0.01730
2914.33,0.01768
2908.55,0.01790
2902.76,0.01809
2896.98,0.01774
2891.19,0.01815
2885.4,0.01800
2879.62,0.01835
2873.83,0.01784
2868.04,0.01780
2862.26,0.01742
2856.47,0.01771
2850.69,0.01833
2844.9,0.01864
2839.11,0.01846
2833.33,0.01873
2827.54,0.01828
2821.75,0.01810
2815.97,0.01829
2810.18,0.01793
2804.4,0.01868
2798.61,0.01869
2792.82,0.01869
2787.04,0.01880
2781.25,0.01818
2775.46,0.01886
2769.68,0.01857
2763.89,0.01908
2758.11,0.01904
2752.32,0.01850
2746.53,0.01891
2740.75,0.01875
2734.96,0.01854
2729.17,0.01923
2723.39,0.01832
2717.6,0.01860
2711.82,0.01845
2706.03,0.01873
2700.24,0.01870
2694.46,0.01850
2688.67,0.01889
2682.88,0.01875
2677.1,0.01840
2671.31,0.01833
2665.53,0.01829
2659.74,0.01854
2653.95,0.01844
2648.17,0.01893
2642.38,0.01880
2636.59,0.01882
2630.81,0.01865
2625.02,0.01833
2619.24,0.01839
2613.45,0.01816
2607.66,0.01849
2601.88,0.01825
2596.09,0.01878
2590.3,0.01853
2584.52,0.01862
2578.73,0.01828
2572.95,0.01880
2567.16,0.01916
2561.37,0.01852
2555.59,0.01830
2549.8,0.01850
2544.02,0.01876
2538.23,0.01880
2532.44,0.01856
2526.66,0.01871
2520.87,0.01836
2515.08,0.01838
2509.3,0.01832
2503.51,0.01808
2497.73,0.01841
2491.94,0.01863
2486.15,0.01852
2480.37,0.01895
2474.58,0.01899
2468.79,0.01847
2463.01,0.01837
2457.22,0.01867
2451.44,0.01844
2445.65,0.01843
2439.86,0.01859
2434.08,0.01853
2428.29,0.01890
2422.5,0.01852
2416.72,0.01862
2410.93,0.01869
2405.15,0.01869
2399.36,0.01842
2393.57,0.01843
2387.79,0.01864
2382,0.01836
2376.21,0.01852
2370.43,0.01822
2364.64,0.01852
2358.86,0.01882
2353.07,0.01850
2347.28,0.01845
2341.5,0.01858
2335.71,0.01860
2329.92,0.01827
2324.14,0.01814
2318.35,0.01861
2312.57,0.01850
2306.78,0.01834
2300.99,0.01832
2295.21,0.01872
2289.42,0.01830
2283.63,0.01859
2277.85,0.01845
2272.06,0.01831
2266.28,0.01860
2260.49,0.01839
2254.7,0.01833
2248.92,0.01839
2243.13,0.01869
2237.34,0.01854
2231.56,0.01893
2225.77,0.01872
2219.99,0.01847
2214.2,0.01842
2208.41,0.01821
2202.63,0.01824
2196.84,0.01834
2191.05,0.01876
2185.27,0.01839
2179.48,0.01849
2173.7,0.01835
2167.91,0.01851
2162.12,0.01823
2156.34,0.01847
2150.55,0.01825
2144.76,0.01844
2138.98,0.01813
2133.19,0.01835
2127.41,0.01854
2121.62,0.01842
2115.83,0.01831
2110.05,0.01812
2104.26,0.01838
2098.47,0.01841
2092.69,0.01838
2086.9,0.01831
2081.12,0.01837
2075.33,0.01805
2069.54,0.01836
2063.76,0.01826
2057.97,0.01830
2052.19,0.01834
2046.4,0.01855
2040.61,0.01860
2034.83,0.01831
2029.04,0.01839
2023.25,0.01847
2017.47,0.01855
2011.68,0.01832
2005.9,0.01802
2000.11,0.01829
1994.32,0.01842
1988.54,0.01843
1982.75,0.01814
1976.96,0.01809
1971.18,0.01821
1965.39,0.01843
1959.61,0.01841
1953.82,0.01812
1948.03,0.01839
1942.25,0.01822
1936.46,0.01807
1930.67,0.01789
1924.89,0.01818
1919.1,0.01809
1913.32,0.01832
1907.53,0.01791
1901.74,0.01814
1895.96,0.01815
1890.17,0.01803
1884.38,0.01795
1878.6,0.01815
1872.81,0.01818
1867.03,0.01785
1861.24,0.01795
1855.45,0.01777
1849.67,0.01790
1843.88,0.01752
1838.09,0.01729
1832.31,0.01730
1826.52,0.01770
1820.74,0.01739
1814.95,0.01716
1809.16,0.01723
1803.38,0.01710
1797.59,0.01698
1791.8,0.01659
1786.02,0.01671
1780.23,0.01646
1774.45,0.01640
1768.66,0.01579
1762.87,0.01555
1757.09,0.01491
1751.3,0.01482
1745.51,0.01542
1739.73,0.01594
1733.94,0.01673
1728.16,0.01788
1722.37,0.01823
1716.58,0.01824
1710.8,0.01791
1705.01,0.01760
1699.22,0.01718
1693.44,0.01671
1687.65,0.01653
1681.87,0.01630
1676.08,0.01619
1670.29,0.01599
1664.51,0.01580
1658.72,0.01595
1652.93,0.01620
1647.15,0.01561
1641.36,0.01573
1635.58,0.01588
1629.79,0.01619
1624,0.01660
1618.22,0.01643
1612.43,0.01626
1606.64,0.01612
1600.86,0.01624
1595.07,0.01613
1589.29,0.01587
1583.5,0.01564
1577.71,0.01580
1571.93,0.01573
1566.14,0.01518
1560.35,0.01543
1554.57,0.01574
1548.78,0.01584
1543,0.01554
1537.21,0.01555
1531.42,0.01584
1525.64,0.01614
1519.85,0.01567
1514.07,0.01594
1508.28,0.01595
1502.49,0.01616
1496.71,0.01635
1490.92,0.01628
1485.13,0.01588
1479.35,0.01568
1473.56,0.01583
1467.78,0.01541
1461.99,0.01571
1456.2,0.01612
1450.42,0.01627
1444.63,0.01617
1438.84,0.01614
1433.06,0.01621
1427.27,0.01614
1421.49,0.01569
1415.7,0.01575
1409.91,0.01571
1404.13,0.01561
1398.34,0.01519
1392.55,0.01523
1386.77,0.01530
1380.98,0.01567
1375.2,0.01517
1369.41,0.01575
1363.62,0.01535
1357.84,0.01550
1352.05,0.01523
1346.26,0.01574
1340.48,0.01543
1334.69,0.01479
1328.91,0.01468
1323.12,0.01439
1317.33,0.01447
1311.55,0.01442
1305.76,0.01432
1299.97,0.01479
1294.19,0.01508
1288.4,0.01550
1282.62,0.01579
1276.83,0.01618
1271.04,0.01663
1265.26,0.01704
1259.47,0.01707
1253.68,0.01728
1247.9,0.01774
1242.11,0.01695
1236.33,0.01712
1230.54,0.01693
1224.75,0.01655
1218.97,0.01649
1213.18,0.01618
1207.39,0.01601
1201.61,0.01592
1195.82,0.01565
1190.04,0.01542
1184.25,0.01543
1178.46,0.01559
1172.68,0.01535
1166.89,0.01503
1161.1,0.01513
1155.32,0.01523
1149.53,0.01481
1143.75,0.01481
1137.96,0.01508
1132.17,0.01512
1126.39,0.01586
1120.6,0.01639
1114.81,0.01688
1109.03,0.01610
1103.24,0.01572
1097.46,0.01525
1091.67,0.01534
1085.88,0.01472
1080.1,0.01605
1074.31,0.01667
1068.52,0.01698
1062.74,0.01791
1056.95,0.01700
1051.17,0.01649
1045.38,0.01716
1039.59,0.01736
1033.81,0.01674
1028.02,0.01653
1022.24,0.01608
1016.45,0.01647
1010.66,0.01714
1004.88,0.01824
999.09,0.01857
993.304,0.01808
987.518,0.01825
981.731,0.01755
975.945,0.01761
970.159,0.01755
964.373,0.01740
958.586,0.01773
952.8,0.01726
947.014,0.01732
941.228,0.01626
935.441,0.01676
929.655,0.01701
923.869,0.01647
918.083,0.01687
912.297,0.01674
906.51,0.01620
900.724,0.01637
894.938,0.01642
889.152,0.01595
883.365,0.01621
877.579,0.01626
871.793,0.01562
866.007,0.01647
860.22,0.01595
854.434,0.01643
848.648,0.01541
842.862,0.01653
837.075,0.01541
831.289,0.01621
825.503,0.01579
819.717,0.01656
813.931,0.01663
808.144,0.01561
802.358,0.01528
796.572,0.01608
790.786,0.01620
784.999,0.01567
779.213,0.01554
773.427,0.01528
767.641,0.01576
761.854,0.01523
756.068,0.01579
750.282,0.01452
744.496,0.01515
738.709,0.01641
732.923,0.01604
727.137,0.01555
721.351,0.01506
715.565,0.01437
709.778,0.01412
703.992,0.01466
698.206,0.01553
692.42,0.01458
686.633,0.01500
680.847,0.01592
675.061,0.01384
669.275,0.01387
663.488,0.01383
657.702,0.01393
651.916,0.01450
646.13,0.01417
640.343,0.01440
634.557,0.01275
628.771,0.01366
622.985,0.01367
617.198,0.01285
611.412,0.01198
605.626,0.01189
599.84,0.00933