File: 01_Data/Vinyl_Plank_Flooring/FTIR/IS/Vinyl_Plank_Flooring_IS_T_220819_R1.dpt
7497.03,0.01907
7491.25,0.02201
7485.46,0.02846
7479.67,0.02748
7473.89,0.02213
7468.1,0.01903
7462.32,0.02685
7456.53,0.02839
7450.74,0.02282
7444.96,0.02404
7439.17,0.02625
7433.38,0.02688
7427.6,0.02156
7421.81,0.02047
7416.03,0.02700
7410.24,0.02604
7404.45,0.01676
7398.67,0.01605
7392.88,0.00675
7387.09,0.02463
7381.31,0.02787
7375.52,0.02238
7369.74,0.01941
7363.95,0.02231
7358.16,0.01504
7352.38,0.01980
7346.59,0.02416
7340.8,0.02755
7335.02,0.02130
7329.23,0.02260
7323.45,0.02111
7317.66,0.01440
7311.87,0.02034
7306.09,0.02660
7300.3,0.02090
7294.51,0.02771
7288.73,0.02206
7282.94,0.01883
7277.16,0.02732
7271.37,0.02028
7265.58,0.01712
7259.8,0.02105
7254.01,0.01481
7248.22,0.01922
7242.44,0.02811
7236.65,0.01828
7230.87,0.02154
7225.08,0.02641
7219.29,0.02586
7213.51,0.02335
7207.72,0.02086
7201.93,0.02709
7196.15,0.02025
7190.36,0.02704
7184.58,0.02671
7178.79,0.01192
7173,0.02327
7167.22,0.02205
7161.43,0.02279
7155.65,0.02554
7149.86,0.02201
7144.07,0.02133
7138.29,0.02045
7132.5,0.01546
7126.71,0.01953
7120.93,0.02196
7115.14,0.02733
7109.36,0.02658
7103.57,0.01711
7097.78,0.01783
7092,0.02628
7086.21,0.02573
7080.42,0.02837
7074.64,0.01348
7068.85,0.02117
7063.07,0.02532
7057.28,0.02362
7051.49,0.02130
7045.71,0.02081
7039.92,0.01661
7034.13,0.02010
7028.35,0.02653
7022.56,0.01811
7016.78,0.02081
7010.99,0.02858
7005.2,0.02260
6999.42,0.01603
6993.63,0.01592
6987.84,0.01416
6982.06,0.01802
6976.27,0.02301
6970.49,0.02609
6964.7,0.01872
6958.91,0.02159
6953.13,0.02286
6947.34,0.02147
6941.55,0.01958
6935.77,0.02032
6929.98,0.02101
6924.2,0.02282
6918.41,0.02739
6912.62,0.02460
6906.84,0.02522
6901.05,0.02592
6895.26,0.02297
6889.48,0.02726
6883.69,0.01989
6877.91,0.01926
6872.12,0.02100
6866.33,0.02108
6860.55,0.02335
6854.76,0.02186
6848.97,0.02104
6843.19,0.02579
6837.4,0.02230
6831.62,0.02413
6825.83,0.01979
6820.04,0.02063
6814.26,0.02674
6808.47,0.02107
6802.68,0.01638
6796.9,0.02442
6791.11,0.01980
6785.33,0.01701
6779.54,0.01331
6773.75,0.01815
6767.97,0.01842
6762.18,0.01955
6756.39,0.01888
6750.61,0.01697
6744.82,0.01887
6739.04,0.01977
6733.25,0.01555
6727.46,0.01687
6721.68,0.02105
6715.89,0.02219
6710.1,0.01830
6704.32,0.02029
6698.53,0.02185
6692.75,0.01942
6686.96,0.01828
6681.17,0.01518
6675.39,0.02081
6669.6,0.01632
6663.82,0.01903
6658.03,0.01724
6652.24,0.01507
6646.46,0.01769
6640.67,0.01736
6634.88,0.02122
6629.1,0.02125
6623.31,0.02021
6617.53,0.02254
6611.74,0.02263
6605.95,0.02112
6600.17,0.01908
6594.38,0.01634
6588.59,0.01848
6582.81,0.02019
6577.02,0.01751
6571.24,0.01824
6565.45,0.01711
6559.66,0.01860
6553.88,0.02434
6548.09,0.02286
6542.3,0.02129
6536.52,0.02387
6530.73,0.01907
6524.95,0.01952
6519.16,0.01917
6513.37,0.02059
6507.59,0.02251
6501.8,0.02004
6496.01,0.01790
6490.23,0.01882
6484.44,0.01750
6478.66,0.01971
6472.87,0.01723
6467.08,0.01517
6461.3,0.01521
6455.51,0.01718
6449.72,0.02165
6443.94,0.02261
6438.15,0.01921
6432.37,0.02099
6426.58,0.01955
6420.79,0.01858
6415.01,0.01900
6409.22,0.01658
6403.43,0.01859
6397.65,0.01670
6391.86,0.02142
6386.08,0.01927
6380.29,0.01972
6374.5,0.01902
6368.72,0.01768
6362.93,0.01937
6357.14,0.02038
6351.36,0.01859
6345.57,0.01802
6339.79,0.01713
6334,0.01791
6328.21,0.01854
6322.43,0.01710
6316.64,0.02151
6310.85,0.01878
6305.07,0.02217
6299.28,0.01750
6293.5,0.02015
6287.71,0.01830
6281.92,0.01986
6276.14,0.01952
6270.35,0.01852
6264.56,0.01669
6258.78,0.01783
6252.99,0.01882
6247.21,0.01613
6241.42,0.02044
6235.63,0.02054
6229.85,0.01912
6224.06,0.01911
6218.27,0.01871
6212.49,0.02091
6206.7,0.02137
6200.92,0.01946
6195.13,0.01732
6189.34,0.01716
6183.56,0.01755
6177.77,0.01675
6171.98,0.02029
6166.2,0.01936
6160.41,0.01826
6154.63,0.02197
6148.84,0.01803
6143.05,0.01681
6137.27,0.02108
6131.48,0.01802
6125.7,0.01831
6119.91,0.01591
6114.12,0.01748
6108.34,0.01965
6102.55,0.01883
6096.76,0.01753
6090.98,0.02040
6085.19,0.01703
6079.41,0.01975
6073.62,0.01662
6067.83,0.01816
6062.05,0.01790
6056.26,0.01503
6050.47,0.01889
6044.69,0.02118
6038.9,0.02141
6033.12,0.02053
6027.33,0.01912
6021.54,0.01944
6015.76,0.01854
6009.97,0.01808
6004.18,0.02105
5998.4,0.02385
5992.61,0.01867
5986.83,0.01982
5981.04,0.01823
5975.25,0.01972
5969.47,0.01925
5963.68,0.01925
5957.89,0.01952
5952.11,0.01855
5946.32,0.02131
5940.54,0.02140
5934.75,0.01905
5928.96,0.02054
5923.18,0.02015
5917.39,0.01947
5911.6,0.02013
5905.82,0.02110
5900.03,0.01652
5894.25,0.01939
5888.46,0.02024
5882.67,0.01657
5876.89,0.01862
5871.1,0.01939
5865.31,0.01704
5859.53,0.02008
5853.74,0.01922
5847.96,0.01819
5842.17,0.01985
5836.38,0.02134
5830.6,0.02119
5824.81,0.01833
5819.02,0.01882
5813.24,0.01621
5807.45,0.01723
5801.67,0.02180
5795.88,0.02016
5790.09,0.01968
5784.31,0.01873
5778.52,0.01929
5772.73,0.01885
5766.95,0.01824
5761.16,0.02013
5755.38,0.01665
5749.59,0.01897
5743.8,0.02106
5738.02,0.01788
5732.23,0.01667
5726.44,0.01944
5720.66,0.02183
5714.87,0.01921
5709.09,0.01948
5703.3,0.01973
5697.51,0.01949
5691.73,0.01877
5685.94,0.02030
5680.15,0.01888
5674.37,0.01916
5668.58,0.01845
5662.8,0.01872
5657.01,0.01884
5651.22,0.01996
5645.44,0.01786
5639.65,0.01666
5633.87,0.01912
5628.08,0.01970
5622.29,0.02003
5616.51,0.02068
5610.72,0.01978
5604.93,0.02043
5599.15,0.01777
5593.36,0.01923
5587.58,0.01945
5581.79,0.01896
5576,0.01894
5570.22,0.01961
5564.43,0.02049
5558.64,0.02066
5552.86,0.02063
5547.07,0.01811
5541.29,0.01939
5535.5,0.01915
5529.71,0.01862
5523.93,0.01823
5518.14,0.01884
5512.35,0.02017
5506.57,0.01828
5500.78,0.01982
5495,0.01873
5489.21,0.01887
5483.42,0.02088
5477.64,0.02045
5471.85,0.01914
5466.06,0.01837
5460.28,0.02000
5454.49,0.01898
5448.71,0.02097
5442.92,0.01982
5437.13,0.01825
5431.35,0.01917
5425.56,0.01924
5419.77,0.01742
5413.99,0.01702
5408.2,0.01987
5402.42,0.01981
5396.63,0.01729
5390.84,0.01776
5385.06,0.01776
5379.27,0.01961
5373.48,0.01822
5367.7,0.02148
5361.91,0.02041
5356.13,0.01793
5350.34,0.01925
5344.55,0.01876
5338.77,0.01827
5332.98,0.01882
5327.19,0.01886
5321.41,0.01955
5315.62,0.01763
5309.84,0.01894
5304.05,0.01984
5298.26,0.01827
5292.48,0.01921
5286.69,0.01925
5280.9,0.02028
5275.12,0.01839
5269.33,0.01974
5263.55,0.01913
5257.76,0.01860
5251.97,0.01877
5246.19,0.01893
5240.4,0.01893
5234.61,0.01985
5228.83,0.01915
5223.04,0.01969
5217.26,0.01980
5211.47,0.01848
5205.68,0.01956
5199.9,0.01745
5194.11,0.01870
5188.32,0.01889
5182.54,0.01985
5176.75,0.01942
5170.97,0.01965
5165.18,0.01955
5159.39,0.01876
5153.61,0.01909
5147.82,0.01838
5142.03,0.02097
5136.25,0.01982
5130.46,0.01907
5124.68,0.02042
5118.89,0.01893
5113.1,0.01964
5107.32,0.01865
5101.53,0.01927
5095.75,0.02018
5089.96,0.02061
5084.17,0.01770
5078.39,0.01922
5072.6,0.01976
5066.81,0.01884
5061.03,0.01946
5055.24,0.01929
5049.46,0.01963
5043.67,0.01952
5037.88,0.02028
5032.1,0.02029
5026.31,0.01923
5020.52,0.01912
5014.74,0.01904
5008.95,0.01873
5003.17,0.01900
4997.38,0.01983
4991.59,0.01817
4985.81,0.01939
4980.02,0.01923
4974.23,0.02013
4968.45,0.01882
4962.66,0.01995
4956.88,0.02010
4951.09,0.02037
4945.3,0.01983
4939.52,0.02011
4933.73,0.01915
4927.94,0.01950
4922.16,0.01907
4916.37,0.01894
4910.59,0.02057
4904.8,0.01979
4899.01,0.02012
4893.23,0.01947
4887.44,0.01909
4881.65,0.01990
4875.87,0.01986
4870.08,0.01952
4864.3,0.02028
4858.51,0.01912
4852.72,0.01905
4846.94,0.01937
4841.15,0.01999
4835.36,0.02030
4829.58,0.02015
4823.79,0.01924
4818.01,0.01978
4812.22,0.02034
4806.43,0.01914
4800.65,0.01969
4794.86,0.01940
4789.07,0.01892
4783.29,0.02023
4777.5,0.01913
4771.72,0.01833
4765.93,0.01862
4760.14,0.02036
4754.36,0.02019
4748.57,0.02062
4742.78,0.01975
4737,0.01869
4731.21,0.01977
4725.43,0.01934
4719.64,0.01990
4713.85,0.02040
4708.07,0.02022
4702.28,0.01853
4696.49,0.01913
4690.71,0.01939
4684.92,0.01979
4679.14,0.01895
4673.35,0.01976
4667.56,0.01948
4661.78,0.01921
4655.99,0.01926
4650.2,0.02047
4644.42,0.01932
4638.63,0.01952
4632.85,0.01866
4627.06,0.02023
4621.27,0.01860
4615.49,0.01948
4609.7,0.01954
4603.92,0.01897
4598.13,0.02029
4592.34,0.02015
4586.56,0.01932
4580.77,0.01921
4574.98,0.01968
4569.2,0.02016
4563.41,0.01900
4557.63,0.01910
4551.84,0.01989
4546.05,0.01931
4540.27,0.01962
4534.48,0.01934
4528.69,0.02020
4522.91,0.01919
4517.12,0.01995
4511.34,0.01961
4505.55,0.01875
4499.76,0.01937
4493.98,0.01843
4488.19,0.01908
4482.4,0.01905
4476.62,0.02004
4470.83,0.01986
4465.05,0.02005
4459.26,0.01930
4453.47,0.01927
4447.69,0.01990
4441.9,0.02019
4436.11,0.01949
4430.33,0.01950
4424.54,0.01956
4418.76,0.01983
4412.97,0.01847
4407.18,0.01914
4401.4,0.01868
4395.61,0.01874
4389.82,0.01959
4384.04,0.01981
4378.25,0.01936
4372.47,0.01953
4366.68,0.01941
4360.89,0.01997
4355.11,0.01946
4349.32,0.01897
4343.53,0.01893
4337.75,0.01954
4331.96,0.01899
4326.18,0.01961
4320.39,0.01956
4314.6,0.01929
4308.82,0.01899
4303.03,0.01891
4297.24,0.01901
4291.46,0.01945
4285.67,0.01951
4279.89,0.01922
4274.1,0.01945
4268.31,0.01985
4262.53,0.01991
4256.74,0.01963
4250.95,0.02008
4245.17,0.01978
4239.38,0.01954
4233.6,0.01984
4227.81,0.01971
4222.02,0.01970
4216.24,0.01984
4210.45,0.01965
4204.66,0.01945
4198.88,0.01918
4193.09,0.01962
4187.31,0.01974
4181.52,0.02030
4175.73,0.01905
4169.95,0.02009
4164.16,0.01945
4158.37,0.01956
4152.59,0.01972
4146.8,0.01955
4141.02,0.01940
4135.23,0.01916
4129.44,0.01940
4123.66,0.01967
4117.87,0.01972
4112.09,0.01989
4106.3,0.01955
4100.51,0.01920
4094.73,0.01990
4088.94,0.01917
4083.15,0.01963
4077.37,0.01969
4071.58,0.01946
4065.8,0.01871
4060.01,0.01967
4054.22,0.01945
4048.44,0.01980
4042.65,0.01954
4036.86,0.01955
4031.08,0.01914
4025.29,0.01983
4019.51,0.02025
4013.72,0.01975
4007.93,0.01942
4002.15,0.01955
3996.36,0.02029
3990.57,0.01981
3984.79,0.01962
3979,0.02000
3973.22,0.01991
3967.43,0.01997
3961.64,0.01996
3955.86,0.01974
3950.07,0.01970
3944.28,0.01976
3938.5,0.01926
3932.71,0.01950
3926.93,0.01955
3921.14,0.01940
3915.35,0.01987
3909.57,0.01970
3903.78,0.02007
3897.99,0.02064
3892.21,0.02014
3886.42,0.01971
3880.64,0.02021
3874.85,0.02011
3869.06,0.01931
3863.28,0.01991
3857.49,0.01982
3851.7,0.02011
3845.92,0.01950
3840.13,0.01949
3834.35,0.01999
3828.56,0.02000
3822.77,0.02036
3816.99,0.01958
3811.2,0.02006
3805.41,0.01956
3799.63,0.01979
3793.84,0.02039
3788.06,0.01994
3782.27,0.02027
3776.48,0.01933
3770.7,0.02011
3764.91,0.01965
3759.12,0.01995
3753.34,0.01991
3747.55,0.01981
3741.77,0.01950
3735.98,0.01956
3730.19,0.01943
3724.41,0.01949
3718.62,0.01952
3712.83,0.01910
3707.05,0.01976
3701.26,0.02008
3695.48,0.01920
3689.69,0.01986
3683.9,0.01955
3678.12,0.01961
3672.33,0.01927
3666.54,0.01908
3660.76,0.01959
3654.97,0.01983
3649.19,0.01956
3643.4,0.01932
3637.61,0.01894
3631.83,0.01905
3626.04,0.01932
3620.25,0.01870
3614.47,0.01863
3608.68,0.01887
3602.9,0.01879
3597.11,0.01869
3591.32,0.01850
3585.54,0.01856
3579.75,0.01846
3573.97,0.01805
3568.18,0.01823
3562.39,0.01836
3556.61,0.01868
3550.82,0.01809
3545.03,0.01758
3539.25,0.01858
3533.46,0.01809
3527.68,0.01833
3521.89,0.01853
3516.1,0.01817
3510.32,0.01890
3504.53,0.01795
3498.74,0.01789
3492.96,0.01785
3487.17,0.01743
3481.39,0.01749
3475.6,0.01770
3469.81,0.01806
3464.03,0.01808
3458.24,0.01757
3452.45,0.01773
3446.67,0.01807
3440.88,0.01769
3435.1,0.01762
3429.31,0.01785
3423.52,0.01743
3417.74,0.01716
3411.95,0.01768
3406.16,0.01726
3400.38,0.01724
3394.59,0.01805
3388.81,0.01754
3383.02,0.01762
3377.23,0.01727
3371.45,0.01795
3365.66,0.01758
3359.87,0.01641
3354.09,0.01694
3348.3,0.01733
3342.52,0.01772
3336.73,0.01747
3330.94,0.01789
3325.16,0.01773
3319.37,0.01764
3313.58,0.01766
3307.8,0.01764
3302.01,0.01731
3296.23,0.01759
3290.44,0.01679
3284.65,0.01707
3278.87,0.01721
3273.08,0.01679
3267.29,0.01765
3261.51,0.01766
3255.72,0.01731
3249.94,0.01718
3244.15,0.01759
3238.36,0.01732
3232.58,0.01660
3226.79,0.01738
3221,0.01734
3215.22,0.01787
3209.43,0.01762
3203.65,0.01756
3197.86,0.01761
3192.07,0.01727
3186.29,0.01741
3180.5,0.01721
3174.71,0.01830
3168.93,0.01757
3163.14,0.01817
3157.36,0.01789
3151.57,0.01837
3145.78,0.01822
3140,0.01791
3134.21,0.01791
3128.42,0.01822
3122.64,0.01831
3116.85,0.01764
3111.07,0.01691
3105.28,0.01809
3099.49,0.01755
3093.71,0.01773
3087.92,0.01798
3082.14,0.01786
3076.35,0.01751
3070.56,0.01762
3064.78,0.01747
3058.99,0.01737
3053.2,0.01759
3047.42,0.01774
3041.63,0.01760
3035.85,0.01761
3030.06,0.01767
3024.27,0.01764
3018.49,0.01722
3012.7,0.01771
3006.91,0.01715
3001.13,0.01737
2995.34,0.01682
2989.56,0.01725
2983.77,0.01667
2977.98,0.01631
2972.2,0.01648
2966.41,0.01679
2960.62,0.01670
2954.84,0.01617
2949.05,0.01653
2943.27,0.01660
2937.48,0.01693
2931.69,0.01649
2925.91,0.01706
2920.12,0.01698
2914.33,0.01710
2908.55,0.01703
2902.76,0.01728
2896.98,0.01695
2891.19,0.01761
2885.4,0.01763
2879.62,0.01734
2873.83,0.01738
2868.04,0.01753
2862.26,0.01749
2856.47,0.01784
2850.69,0.01831
2844.9,0.01830
2839.11,0.01814
2833.33,0.01832
2827.54,0.01837
2821.75,0.01854
2815.97,0.01858
2810.18,0.01841
2804.4,0.01783
2798.61,0.01833
2792.82,0.01868
2787.04,0.01796
2781.25,0.01835
2775.46,0.01809
2769.68,0.01876
2763.89,0.01872
2758.11,0.01834
2752.32,0.01830
2746.53,0.01808
2740.75,0.01807
2734.96,0.01863
2729.17,0.01872
2723.39,0.01829
2717.6,0.01807
2711.82,0.01823
2706.03,0.01878
2700.24,0.01807
2694.46,0.01820
2688.67,0.01815
2682.88,0.01836
2677.1,0.01835
2671.31,0.01807
2665.53,0.01827
2659.74,0.01793
2653.95,0.01853
2648.17,0.01815
2642.38,0.01811
2636.59,0.01840
2630.81,0.01820
2625.02,0.01831
2619.24,0.01868
2613.45,0.01867
2607.66,0.01836
2601.88,0.01818
2596.09,0.01821
2590.3,0.01852
2584.52,0.01819
2578.73,0.01808
2572.95,0.01831
2567.16,0.01795
2561.37,0.01827
2555.59,0.01821
2549.8,0.01838
2544.02,0.01829
2538.23,0.01817
2532.44,0.01854
2526.66,0.01826
2520.87,0.01822
2515.08,0.01808
2509.3,0.01859
2503.51,0.01844
2497.73,0.01848
2491.94,0.01854
2486.15,0.01792
2480.37,0.01816
2474.58,0.01804
2468.79,0.01833
2463.01,0.01853
2457.22,0.01856
2451.44,0.01855
2445.65,0.01832
2439.86,0.01845
2434.08,0.01812
2428.29,0.01822
2422.5,0.01807
2416.72,0.01818
2410.93,0.01807
2405.15,0.01846
2399.36,0.01834
2393.57,0.01810
2387.79,0.01803
2382,0.01785
2376.21,0.01824
2370.43,0.01840
2364.64,0.01833
2358.86,0.01838
2353.07,0.01837
2347.28,0.01820
2341.5,0.01816
2335.71,0.01814
2329.92,0.01794
2324.14,0.01789
2318.35,0.01856
2312.57,0.01807
2306.78,0.01831
2300.99,0.01808
2295.21,0.01787
2289.42,0.01853
2283.63,0.01793
2277.85,0.01808
2272.06,0.01847
2266.28,0.01795
2260.49,0.01784
2254.7,0.01871
2248.92,0.01842
2243.13,0.01817
2237.34,0.01817
2231.56,0.01790
2225.77,0.01817
2219.99,0.01789
2214.2,0.01831
2208.41,0.01816
2202.63,0.01796
2196.84,0.01827
2191.05,0.01828
2185.27,0.01825
2179.48,0.01833
2173.7,0.01842
2167.91,0.01824
2162.12,0.01832
2156.34,0.01815
2150.55,0.01843
2144.76,0.01811
2138.98,0.01779
2133.19,0.01807
2127.41,0.01791
2121.62,0.01777
2115.83,0.01791
2110.05,0.01790
2104.26,0.01805
2098.47,0.01776
2092.69,0.01800
2086.9,0.01843
2081.12,0.01829
2075.33,0.01797
2069.54,0.01792
2063.76,0.01828
2057.97,0.01799
2052.19,0.01801
2046.4,0.01802
2040.61,0.01810
2034.83,0.01790
2029.04,0.01797
2023.25,0.01815
2017.47,0.01796
2011.68,0.01805
2005.9,0.01782
2000.11,0.01778
1994.32,0.01809
1988.54,0.01777
1982.75,0.01756
1976.96,0.01778
1971.18,0.01756
1965.39,0.01777
1959.61,0.01797
1953.82,0.01810
1948.03,0.01794
1942.25,0.01783
1936.46,0.01773
1930.67,0.01787
1924.89,0.01765
1919.1,0.01764
1913.32,0.01741
1907.53,0.01768
1901.74,0.01738
1895.96,0.01778
1890.17,0.01758
1884.38,0.01788
1878.6,0.01757
1872.81,0.01731
1867.03,0.01739
1861.24,0.01702
1855.45,0.01758
1849.67,0.01750
1843.88,0.01734
1838.09,0.01733
1832.31,0.01707
1826.52,0.01674
1820.74,0.01684
1814.95,0.01691
1809.16,0.01700
1803.38,0.01710
1797.59,0.01654
1791.8,0.01656
1786.02,0.01655
1780.23,0.01608
1774.45,0.01614
1768.66,0.01586
1762.87,0.01540
1757.09,0.01496
1751.3,0.01440
1745.51,0.01468
1739.73,0.01567
1733.94,0.01682
1728.16,0.01763
1722.37,0.01795
1716.58,0.01801
1710.8,0.01781
1705.01,0.01692
1699.22,0.01650
1693.44,0.01682
1687.65,0.01654
1681.87,0.01586
1676.08,0.01575
1670.29,0.01549
1664.51,0.01603
1658.72,0.01561
1652.93,0.01530
1647.15,0.01566
1641.36,0.01554
1635.58,0.01573
1629.79,0.01577
1624,0.01553
1618.22,0.01593
1612.43,0.01621
1606.64,0.01637
1600.86,0.01570
1595.07,0.01594
1589.29,0.01596
1583.5,0.01576
1577.71,0.01596
1571.93,0.01563
1566.14,0.01565
1560.35,0.01528
1554.57,0.01532
1548.78,0.01499
1543,0.01586
1537.21,0.01539
1531.42,0.01559
1525.64,0.01567
1519.85,0.01589
1514.07,0.01592
1508.28,0.01606
1502.49,0.01594
1496.71,0.01603
1490.92,0.01587
1485.13,0.01568
1479.35,0.01535
1473.56,0.01525
1467.78,0.01531
1461.99,0.01588
1456.2,0.01600
1450.42,0.01606
1444.63,0.01591
1438.84,0.01610
1433.06,0.01566
1427.27,0.01539
1421.49,0.01529
1415.7,0.01537
1409.91,0.01556
1404.13,0.01522
1398.34,0.01497
1392.55,0.01515
1386.77,0.01531
1380.98,0.01519
1375.2,0.01505
1369.41,0.01495
1363.62,0.01493
1357.84,0.01497
1352.05,0.01511
1346.26,0.01496
1340.48,0.01503
1334.69,0.01462
1328.91,0.01471
1323.12,0.01415
1317.33,0.01394
1311.55,0.01431
1305.76,0.01446
1299.97,0.01456
1294.19,0.01462
1288.4,0.01504
1282.62,0.01564
1276.83,0.01559
1271.04,0.01642
1265.26,0.01621
1259.47,0.01717
1253.68,0.01716
1247.9,0.01719
1242.11,0.01705
1236.33,0.01664
1230.54,0.01646
1224.75,0.01653
1218.97,0.01642
1213.18,0.01558
1207.39,0.01576
1201.61,0.01608
1195.82,0.01571
1190.04,0.01510
1184.25,0.01562
1178.46,0.01509
1172.68,0.01489
1166.89,0.01483
1161.1,0.01447
1155.32,0.01467
1149.53,0.01447
1143.75,0.01477
1137.96,0.01528
1132.17,0.01526
1126.39,0.01561
1120.6,0.01614
1114.81,0.01616
1109.03,0.01534
1103.24,0.01533
1097.46,0.01569
1091.67,0.01588
1085.88,0.01579
1080.1,0.01608
1074.31,0.01642
1068.52,0.01789
1062.74,0.01678
1056.95,0.01698
1051.17,0.01654
1045.38,0.01634
1039.59,0.01688
1033.81,0.01650
1028.02,0.01646
1022.24,0.01587
1016.45,0.01690
1010.66,0.01771
1004.88,0.01811
999.09,0.01783
993.304,0.01780
987.518,0.01751
981.731,0.01805
975.945,0.01788
970.159,0.01751
964.373,0.01749
958.586,0.01746
952.8,0.01709
947.014,0.01706
941.228,0.01660
935.441,0.01663
929.655,0.01636
923.869,0.01670
918.083,0.01665
912.297,0.01671
906.51,0.01658
900.724,0.01580
894.938,0.01663
889.152,0.01644
883.365,0.01602
877.579,0.01644
871.793,0.01662
866.007,0.01645
860.22,0.01640
854.434,0.01577
848.648,0.01608
842.862,0.01540
837.075,0.01553
831.289,0.01553
825.503,0.01570
819.717,0.01597
813.931,0.01550
808.144,0.01568
802.358,0.01542
796.572,0.01595
790.786,0.01640
784.999,0.01614
779.213,0.01543
773.427,0.01490
767.641,0.01542
761.854,0.01512
756.068,0.01482
750.282,0.01485
744.496,0.01522
738.709,0.01597
732.923,0.01600
727.137,0.01538
721.351,0.01571
715.565,0.01480
709.778,0.01447
703.992,0.01463
698.206,0.01370
692.42,0.01504
686.633,0.01509
680.847,0.01460
675.061,0.01509
669.275,0.01453
663.488,0.01373
657.702,0.01414
651.916,0.01412
646.13,0.01287
640.343,0.01258
634.557,0.01233
628.771,0.01243
622.985,0.01403
617.198,0.01316
611.412,0.01004
605.626,0.01143
599.84,0.01099