File: 01_Data/Vinyl_Plank_Flooring/FTIR/IS/Vinyl_Plank_Flooring_IS_S_220819_R8.dpt
7497.03,0.50344
7491.25,0.50183
7485.46,0.49521
7479.67,0.49633
7473.89,0.50123
7468.1,0.50650
7462.32,0.50285
7456.53,0.49652
7450.74,0.51046
7444.96,0.50224
7439.17,0.49282
7433.38,0.48897
7427.6,0.49519
7421.81,0.49455
7416.03,0.49309
7410.24,0.49011
7404.45,0.48786
7398.67,0.49560
7392.88,0.48907
7387.09,0.49329
7381.31,0.48966
7375.52,0.48368
7369.74,0.47115
7363.95,0.47207
7358.16,0.47860
7352.38,0.47085
7346.59,0.47154
7340.8,0.47606
7335.02,0.47726
7329.23,0.46750
7323.45,0.45829
7317.66,0.45567
7311.87,0.45473
7306.09,0.45462
7300.3,0.45917
7294.51,0.45062
7288.73,0.45083
7282.94,0.44515
7277.16,0.43646
7271.37,0.44213
7265.58,0.43699
7259.8,0.44581
7254.01,0.42927
7248.22,0.43131
7242.44,0.43267
7236.65,0.43081
7230.87,0.42640
7225.08,0.41935
7219.29,0.42093
7213.51,0.42015
7207.72,0.41999
7201.93,0.41485
7196.15,0.41989
7190.36,0.41776
7184.58,0.41636
7178.79,0.42039
7173,0.41755
7167.22,0.42064
7161.43,0.41370
7155.65,0.42076
7149.86,0.41265
7144.07,0.41809
7138.29,0.41165
7132.5,0.41814
7126.71,0.41655
7120.93,0.42197
7115.14,0.41360
7109.36,0.41765
7103.57,0.41882
7097.78,0.41800
7092,0.41291
7086.21,0.41313
7080.42,0.41510
7074.64,0.41674
7068.85,0.41621
7063.07,0.41361
7057.28,0.41897
7051.49,0.41858
7045.71,0.41902
7039.92,0.42371
7034.13,0.41925
7028.35,0.41618
7022.56,0.41723
7016.78,0.41536
7010.99,0.41761
7005.2,0.41545
6999.42,0.41820
6993.63,0.41833
6987.84,0.41933
6982.06,0.42113
6976.27,0.42843
6970.49,0.42527
6964.7,0.43096
6958.91,0.43074
6953.13,0.43581
6947.34,0.44297
6941.55,0.43569
6935.77,0.44435
6929.98,0.44185
6924.2,0.44232
6918.41,0.44743
6912.62,0.44726
6906.84,0.44788
6901.05,0.44880
6895.26,0.44844
6889.48,0.44714
6883.69,0.45556
6877.91,0.44984
6872.12,0.45520
6866.33,0.45050
6860.55,0.45753
6854.76,0.45710
6848.97,0.45476
6843.19,0.45739
6837.4,0.45984
6831.62,0.46104
6825.83,0.45758
6820.04,0.46440
6814.26,0.45937
6808.47,0.46346
6802.68,0.45963
6796.9,0.46414
6791.11,0.46160
6785.33,0.46084
6779.54,0.46260
6773.75,0.46474
6767.97,0.46108
6762.18,0.46155
6756.39,0.47006
6750.61,0.46739
6744.82,0.46560
6739.04,0.46779
6733.25,0.46892
6727.46,0.46496
6721.68,0.46491
6715.89,0.46980
6710.1,0.47550
6704.32,0.46890
6698.53,0.47405
6692.75,0.47515
6686.96,0.47928
6681.17,0.47477
6675.39,0.47502
6669.6,0.47201
6663.82,0.47762
6658.03,0.47531
6652.24,0.47467
6646.46,0.48180
6640.67,0.48147
6634.88,0.48128
6629.1,0.48053
6623.31,0.47868
6617.53,0.47441
6611.74,0.47881
6605.95,0.47950
6600.17,0.47961
6594.38,0.48294
6588.59,0.48188
6582.81,0.47929
6577.02,0.48177
6571.24,0.47936
6565.45,0.47838
6559.66,0.48079
6553.88,0.48472
6548.09,0.48474
6542.3,0.48463
6536.52,0.48198
6530.73,0.48249
6524.95,0.48579
6519.16,0.48911
6513.37,0.48510
6507.59,0.48693
6501.8,0.48438
6496.01,0.48665
6490.23,0.48893
6484.44,0.48708
6478.66,0.49008
6472.87,0.48728
6467.08,0.48784
6461.3,0.48763
6455.51,0.48846
6449.72,0.49098
6443.94,0.49120
6438.15,0.48553
6432.37,0.48736
6426.58,0.49395
6420.79,0.49588
6415.01,0.49098
6409.22,0.49401
6403.43,0.48722
6397.65,0.48918
6391.86,0.48955
6386.08,0.49321
6380.29,0.49019
6374.5,0.49104
6368.72,0.49147
6362.93,0.49077
6357.14,0.48814
6351.36,0.49103
6345.57,0.49072
6339.79,0.48832
6334,0.49346
6328.21,0.48890
6322.43,0.48987
6316.64,0.49060
6310.85,0.49178
6305.07,0.48963
6299.28,0.49171
6293.5,0.48990
6287.71,0.48929
6281.92,0.49162
6276.14,0.49293
6270.35,0.49038
6264.56,0.49011
6258.78,0.49105
6252.99,0.48934
6247.21,0.49274
6241.42,0.49297
6235.63,0.49266
6229.85,0.49042
6224.06,0.48881
6218.27,0.49136
6212.49,0.48873
6206.7,0.48685
6200.92,0.48514
6195.13,0.48017
6189.34,0.47855
6183.56,0.47835
6177.77,0.48156
6171.98,0.47861
6166.2,0.48178
6160.41,0.47535
6154.63,0.47630
6148.84,0.47559
6143.05,0.47587
6137.27,0.47346
6131.48,0.47022
6125.7,0.46911
6119.91,0.46615
6114.12,0.46337
6108.34,0.45734
6102.55,0.44976
6096.76,0.44088
6090.98,0.43117
6085.19,0.42137
6079.41,0.41518
6073.62,0.40879
6067.83,0.39776
6062.05,0.38402
6056.26,0.37211
6050.47,0.36130
6044.69,0.35615
6038.9,0.34641
6033.12,0.34107
6027.33,0.33210
6021.54,0.32236
6015.76,0.31715
6009.97,0.31906
6004.18,0.32947
5998.4,0.34108
5992.61,0.35338
5986.83,0.36687
5981.04,0.37051
5975.25,0.37156
5969.47,0.37616
5963.68,0.37517
5957.89,0.36815
5952.11,0.35950
5946.32,0.35000
5940.54,0.33774
5934.75,0.32503
5928.96,0.31539
5923.18,0.30327
5917.39,0.29286
5911.6,0.28130
5905.82,0.27161
5900.03,0.26373
5894.25,0.25381
5888.46,0.24247
5882.67,0.22928
5876.89,0.22287
5871.1,0.21477
5865.31,0.20859
5859.53,0.19827
5853.74,0.19006
5847.96,0.18094
5842.17,0.16965
5836.38,0.16284
5830.6,0.15697
5824.81,0.15701
5819.02,0.16131
5813.24,0.17016
5807.45,0.17730
5801.67,0.19107
5795.88,0.20096
5790.09,0.20780
5784.31,0.21837
5778.52,0.22357
5772.73,0.22997
5766.95,0.23292
5761.16,0.23101
5755.38,0.23096
5749.59,0.22953
5743.8,0.22698
5738.02,0.22386
5732.23,0.22346
5726.44,0.22519
5720.66,0.22722
5714.87,0.22979
5709.09,0.22734
5703.3,0.22630
5697.51,0.22732
5691.73,0.23079
5685.94,0.23781
5680.15,0.24504
5674.37,0.24914
5668.58,0.25279
5662.8,0.25631
5657.01,0.25782
5651.22,0.26028
5645.44,0.26404
5639.65,0.26701
5633.87,0.27314
5628.08,0.27567
5622.29,0.27891
5616.51,0.28486
5610.72,0.28410
5604.93,0.28933
5599.15,0.29128
5593.36,0.29483
5587.58,0.29454
5581.79,0.29801
5576,0.29996
5570.22,0.30233
5564.43,0.30531
5558.64,0.30801
5552.86,0.30917
5547.07,0.31063
5541.29,0.31088
5535.5,0.31300
5529.71,0.31258
5523.93,0.31370
5518.14,0.31439
5512.35,0.31508
5506.57,0.31470
5500.78,0.31346
5495,0.31431
5489.21,0.31361
5483.42,0.31454
5477.64,0.31221
5471.85,0.31065
5466.06,0.31061
5460.28,0.31225
5454.49,0.31683
5448.71,0.31977
5442.92,0.32551
5437.13,0.32748
5431.35,0.33119
5425.56,0.33151
5419.77,0.33373
5413.99,0.33655
5408.2,0.33705
5402.42,0.33763
5396.63,0.33994
5390.84,0.34037
5385.06,0.34152
5379.27,0.34459
5373.48,0.34608
5367.7,0.34771
5361.91,0.35011
5356.13,0.35084
5350.34,0.35330
5344.55,0.35224
5338.77,0.35468
5332.98,0.35604
5327.19,0.35633
5321.41,0.35820
5315.62,0.35976
5309.84,0.36043
5304.05,0.36125
5298.26,0.36132
5292.48,0.36077
5286.69,0.35999
5280.9,0.35654
5275.12,0.35283
5269.33,0.34998
5263.55,0.34832
5257.76,0.34916
5251.97,0.34671
5246.19,0.34817
5240.4,0.34907
5234.61,0.35158
5228.83,0.35138
5223.04,0.35289
5217.26,0.35193
5211.47,0.35291
5205.68,0.35183
5199.9,0.35289
5194.11,0.35074
5188.32,0.35120
5182.54,0.35126
5176.75,0.34952
5170.97,0.34946
5165.18,0.34977
5159.39,0.35218
5153.61,0.35002
5147.82,0.34936
5142.03,0.34897
5136.25,0.34782
5130.46,0.34691
5124.68,0.34654
5118.89,0.34529
5113.1,0.34497
5107.32,0.34615
5101.53,0.34554
5095.75,0.34627
5089.96,0.34890
5084.17,0.35002
5078.39,0.35030
5072.6,0.35187
5066.81,0.35362
5061.03,0.35418
5055.24,0.35501
5049.46,0.35555
5043.67,0.35777
5037.88,0.35729
5032.1,0.35665
5026.31,0.35668
5020.52,0.35739
5014.74,0.35663
5008.95,0.35455
5003.17,0.35355
4997.38,0.35352
4991.59,0.35409
4985.81,0.35536
4980.02,0.35492
4974.23,0.35665
4968.45,0.35622
4962.66,0.35672
4956.88,0.35716
4951.09,0.35617
4945.3,0.35546
4939.52,0.35579
4933.73,0.35404
4927.94,0.35330
4922.16,0.35409
4916.37,0.35379
4910.59,0.35410
4904.8,0.35431
4899.01,0.35494
4893.23,0.35478
4887.44,0.35568
4881.65,0.35565
4875.87,0.35445
4870.08,0.35527
4864.3,0.35391
4858.51,0.35372
4852.72,0.35511
4846.94,0.35597
4841.15,0.35615
4835.36,0.35644
4829.58,0.35370
4823.79,0.35340
4818.01,0.35217
4812.22,0.35181
4806.43,0.35235
4800.65,0.35003
4794.86,0.34746
4789.07,0.34824
4783.29,0.34698
4777.5,0.34644
4771.72,0.34814
4765.93,0.35027
4760.14,0.35170
4754.36,0.34891
4748.57,0.34778
4742.78,0.34503
4737,0.33991
4731.21,0.33396
4725.43,0.32469
4719.64,0.31103
4713.85,0.30498
4708.07,0.30147
4702.28,0.29367
4696.49,0.28127
4690.71,0.26638
4684.92,0.25931
4679.14,0.26319
4673.35,0.27302
4667.56,0.28055
4661.78,0.28454
4655.99,0.28568
4650.2,0.28523
4644.42,0.27873
4638.63,0.26856
4632.85,0.25853
4627.06,0.26260
4621.27,0.27767
4615.49,0.29144
4609.7,0.29978
4603.92,0.30398
4598.13,0.30586
4592.34,0.30163
4586.56,0.29732
4580.77,0.29617
4574.98,0.29351
4569.2,0.29853
4563.41,0.30645
4557.63,0.31143
4551.84,0.31166
4546.05,0.30941
4540.27,0.30688
4534.48,0.30496
4528.69,0.30171
4522.91,0.29810
4517.12,0.29401
4511.34,0.28821
4505.55,0.28104
4499.76,0.27195
4493.98,0.25924
4488.19,0.24974
4482.4,0.24334
4476.62,0.23725
4470.83,0.23223
4465.05,0.22545
4459.26,0.21503
4453.47,0.20279
4447.69,0.18827
4441.9,0.17404
4436.11,0.15971
4430.33,0.14590
4424.54,0.13308
4418.76,0.12249
4412.97,0.11356
4407.18,0.10586
4401.4,0.10085
4395.61,0.09865
4389.82,0.09722
4384.04,0.09264
4378.25,0.08674
4372.47,0.08021
4366.68,0.07544
4360.89,0.07023
4355.11,0.06631
4349.32,0.06441
4343.53,0.06114
4337.75,0.06022
4331.96,0.05887
4326.18,0.06052
4320.39,0.06344
4314.6,0.06850
4308.82,0.07014
4303.03,0.07131
4297.24,0.07158
4291.46,0.07149
4285.67,0.07065
4279.89,0.07055
4274.1,0.07123
4268.31,0.07208
4262.53,0.07313
4256.74,0.07329
4250.95,0.07347
4245.17,0.07278
4239.38,0.07250
4233.6,0.07140
4227.81,0.07056
4222.02,0.07014
4216.24,0.07034
4210.45,0.06999
4204.66,0.07169
4198.88,0.07396
4193.09,0.07531
4187.31,0.07681
4181.52,0.07607
4175.73,0.07419
4169.95,0.07316
4164.16,0.07445
4158.37,0.07824
4152.59,0.08102
4146.8,0.08282
4141.02,0.08611
4135.23,0.08906
4129.44,0.09127
4123.66,0.09207
4117.87,0.09021
4112.09,0.08798
4106.3,0.08644
4100.51,0.08475
4094.73,0.08198
4088.94,0.07574
4083.15,0.07339
4077.37,0.07550
4071.58,0.08018
4065.8,0.08406
4060.01,0.08865
4054.22,0.09254
4048.44,0.09476
4042.65,0.09619
4036.86,0.09692
4031.08,0.09822
4025.29,0.09759
4019.51,0.09818
4013.72,0.09938
4007.93,0.10133
4002.15,0.10388
3996.36,0.10640
3990.57,0.10924
3984.79,0.11263
3979,0.11481
3973.22,0.11720
3967.43,0.11792
3961.64,0.11873
3955.86,0.11905
3950.07,0.11916
3944.28,0.11871
3938.5,0.11886
3932.71,0.12035
3926.93,0.12121
3921.14,0.12123
3915.35,0.12322
3909.57,0.12507
3903.78,0.12744
3897.99,0.12819
3892.21,0.13051
3886.42,0.13200
3880.64,0.13294
3874.85,0.13353
3869.06,0.13356
3863.28,0.13385
3857.49,0.13398
3851.7,0.13384
3845.92,0.13543
3840.13,0.13631
3834.35,0.13764
3828.56,0.13903
3822.77,0.14127
3816.99,0.14299
3811.2,0.14447
3805.41,0.14546
3799.63,0.14692
3793.84,0.15023
3788.06,0.15292
3782.27,0.15454
3776.48,0.15468
3770.7,0.15406
3764.91,0.15399
3759.12,0.15235
3753.34,0.15327
3747.55,0.15679
3741.77,0.15989
3735.98,0.16143
3730.19,0.16272
3724.41,0.16603
3718.62,0.16663
3712.83,0.16347
3707.05,0.15609
3701.26,0.14722
3695.48,0.13526
3689.69,0.12184
3683.9,0.11082
3678.12,0.10860
3672.33,0.10733
3666.54,0.10852
3660.76,0.11017
3654.97,0.11149
3649.19,0.11193
3643.4,0.11222
3637.61,0.11049
3631.83,0.10913
3626.04,0.10524
3620.25,0.10101
3614.47,0.09864
3608.68,0.09686
3602.9,0.09450
3597.11,0.09314
3591.32,0.09095
3585.54,0.08859
3579.75,0.08744
3573.97,0.08525
3568.18,0.08240
3562.39,0.07938
3556.61,0.07679
3550.82,0.07493
3545.03,0.07352
3539.25,0.07324
3533.46,0.07270
3527.68,0.07196
3521.89,0.07190
3516.1,0.07179
3510.32,0.07218
3504.53,0.07137
3498.74,0.07021
3492.96,0.06972
3487.17,0.06868
3481.39,0.06779
3475.6,0.06727
3469.81,0.06672
3464.03,0.06495
3458.24,0.06280
3452.45,0.06113
3446.67,0.05879
3440.88,0.05602
3435.1,0.05406
3429.31,0.05257
3423.52,0.05117
3417.74,0.04974
3411.95,0.05126
3406.16,0.05195
3400.38,0.05296
3394.59,0.05290
3388.81,0.05432
3383.02,0.05572
3377.23,0.05618
3371.45,0.05698
3365.66,0.05849
3359.87,0.05794
3354.09,0.05809
3348.3,0.05792
3342.52,0.05832
3336.73,0.05724
3330.94,0.05651
3325.16,0.05665
3319.37,0.05613
3313.58,0.05646
3307.8,0.05758
3302.01,0.05658
3296.23,0.05699
3290.44,0.05716
3284.65,0.05844
3278.87,0.06002
3273.08,0.05982
3267.29,0.06085
3261.51,0.06118
3255.72,0.06180
3249.94,0.06079
3244.15,0.06053
3238.36,0.05903
3232.58,0.05740
3226.79,0.05758
3221,0.05710
3215.22,0.05626
3209.43,0.05686
3203.65,0.05570
3197.86,0.05591
3192.07,0.05618
3186.29,0.05666
3180.5,0.05710
3174.71,0.05664
3168.93,0.05792
3163.14,0.05811
3157.36,0.05767
3151.57,0.05757
3145.78,0.05837
3140,0.05878
3134.21,0.05738
3128.42,0.05656
3122.64,0.05615
3116.85,0.05583
3111.07,0.05622
3105.28,0.05477
3099.49,0.05365
3093.71,0.05274
3087.92,0.05229
3082.14,0.05072
3076.35,0.05042
3070.56,0.04974
3064.78,0.04892
3058.99,0.04887
3053.2,0.04859
3047.42,0.04854
3041.63,0.04844
3035.85,0.04790
3030.06,0.04757
3024.27,0.04710
3018.49,0.04656
3012.7,0.04594
3006.91,0.04523
3001.13,0.04525
2995.34,0.04471
2989.56,0.04417
2983.77,0.04378
2977.98,0.04394
2972.2,0.04387
2966.41,0.04404
2960.62,0.04458
2954.84,0.04507
2949.05,0.04495
2943.27,0.04497
2937.48,0.04529
2931.69,0.04578
2925.91,0.04702
2920.12,0.04810
2914.33,0.04809
2908.55,0.04795
2902.76,0.04790
2896.98,0.04801
2891.19,0.04832
2885.4,0.04785
2879.62,0.04768
2873.83,0.04816
2868.04,0.04830
2862.26,0.04859
2856.47,0.04891
2850.69,0.04956
2844.9,0.05019
2839.11,0.04956
2833.33,0.05043
2827.54,0.04971
2821.75,0.04911
2815.97,0.04897
2810.18,0.04958
2804.4,0.04973
2798.61,0.04997
2792.82,0.05099
2787.04,0.05181
2781.25,0.05266
2775.46,0.05360
2769.68,0.05383
2763.89,0.05400
2758.11,0.05445
2752.32,0.05425
2746.53,0.05324
2740.75,0.05311
2734.96,0.05285
2729.17,0.05294
2723.39,0.05489
2717.6,0.05646
2711.82,0.05747
2706.03,0.05902
2700.24,0.05935
2694.46,0.05984
2688.67,0.06010
2682.88,0.06013
2677.1,0.05935
2671.31,0.05925
2665.53,0.05980
2659.74,0.06142
2653.95,0.06224
2648.17,0.06295
2642.38,0.06205
2636.59,0.06069
2630.81,0.05840
2625.02,0.05712
2619.24,0.05639
2613.45,0.05572
2607.66,0.05455
2601.88,0.05395
2596.09,0.05378
2590.3,0.05348
2584.52,0.05372
2578.73,0.05327
2572.95,0.05307
2567.16,0.05334
2561.37,0.05321
2555.59,0.05300
2549.8,0.05297
2544.02,0.05280
2538.23,0.05254
2532.44,0.05178
2526.66,0.05134
2520.87,0.05115
2515.08,0.05076
2509.3,0.05154
2503.51,0.05229
2497.73,0.05321
2491.94,0.05489
2486.15,0.05667
2480.37,0.05917
2474.58,0.06263
2468.79,0.06561
2463.01,0.06739
2457.22,0.06878
2451.44,0.06911
2445.65,0.06906
2439.86,0.06913
2434.08,0.06851
2428.29,0.06756
2422.5,0.06606
2416.72,0.06547
2410.93,0.06447
2405.15,0.06396
2399.36,0.06324
2393.57,0.06219
2387.79,0.06133
2382,0.06144
2376.21,0.06204
2370.43,0.06320
2364.64,0.06482
2358.86,0.06653
2353.07,0.06835
2347.28,0.07041
2341.5,0.07303
2335.71,0.07517
2329.92,0.07604
2324.14,0.07613
2318.35,0.07742
2312.57,0.07885
2306.78,0.07831
2300.99,0.07726
2295.21,0.07583
2289.42,0.07323
2283.63,0.07036
2277.85,0.06903
2272.06,0.07048
2266.28,0.07140
2260.49,0.07181
2254.7,0.07118
2248.92,0.06999
2243.13,0.06711
2237.34,0.06552
2231.56,0.06480
2225.77,0.06464
2219.99,0.06488
2214.2,0.06562
2208.41,0.06551
2202.63,0.06801
2196.84,0.07177
2191.05,0.07390
2185.27,0.07659
2179.48,0.07911
2173.7,0.07936
2167.91,0.07974
2162.12,0.07846
2156.34,0.07701
2150.55,0.07520
2144.76,0.07388
2138.98,0.07296
2133.19,0.07328
2127.41,0.07394
2121.62,0.07492
2115.83,0.07566
2110.05,0.07626
2104.26,0.07672
2098.47,0.07667
2092.69,0.07641
2086.9,0.07581
2081.12,0.07502
2075.33,0.07417
2069.54,0.07371
2063.76,0.07410
2057.97,0.07493
2052.19,0.07582
2046.4,0.07675
2040.61,0.07788
2034.83,0.07870
2029.04,0.07972
2023.25,0.08109
2017.47,0.08187
2011.68,0.08224
2005.9,0.08210
2000.11,0.08058
1994.32,0.07769
1988.54,0.07502
1982.75,0.07376
1976.96,0.07217
1971.18,0.06941
1965.39,0.06482
1959.61,0.05930
1953.82,0.05510
1948.03,0.05396
1942.25,0.05676
1936.46,0.06073
1930.67,0.06494
1924.89,0.06769
1919.1,0.06916
1913.32,0.06979
1907.53,0.06979
1901.74,0.07000
1895.96,0.07003
1890.17,0.07066
1884.38,0.07066
1878.6,0.07049
1872.81,0.06961
1867.03,0.06814
1861.24,0.06591
1855.45,0.06318
1849.67,0.06007
1843.88,0.05695
1838.09,0.05366
1832.31,0.04996
1826.52,0.04690
1820.74,0.04625
1814.95,0.04546
1809.16,0.04447
1803.38,0.04300
1797.59,0.04151
1791.8,0.04055
1786.02,0.04052
1780.23,0.04030
1774.45,0.03934
1768.66,0.03814
1762.87,0.03673
1757.09,0.03558
1751.3,0.03383
1745.51,0.03308
1739.73,0.03328
1733.94,0.03740
1728.16,0.04260
1722.37,0.04833
1716.58,0.05211
1710.8,0.05334
1705.01,0.05280
1699.22,0.05198
1693.44,0.05082
1687.65,0.05006
1681.87,0.04981
1676.08,0.04912
1670.29,0.04883
1664.51,0.04854
1658.72,0.04934
1652.93,0.05028
1647.15,0.05028
1641.36,0.05060
1635.58,0.05017
1629.79,0.05028
1624,0.05037
1618.22,0.04966
1612.43,0.04861
1606.64,0.04822
1600.86,0.04867
1595.07,0.04895
1589.29,0.04854
1583.5,0.04653
1577.71,0.04505
1571.93,0.04633
1566.14,0.04900
1560.35,0.05173
1554.57,0.05262
1548.78,0.05287
1543,0.05248
1537.21,0.05053
1531.42,0.04754
1525.64,0.04678
1519.85,0.04651
1514.07,0.04580
1508.28,0.04521
1502.49,0.04451
1496.71,0.04538
1490.92,0.04466
1485.13,0.04348
1479.35,0.04237
1473.56,0.04134
1467.78,0.04104
1461.99,0.04170
1456.2,0.04262
1450.42,0.04333
1444.63,0.04415
1438.84,0.04422
1433.06,0.04448
1427.27,0.04386
1421.49,0.04327
1415.7,0.04264
1409.91,0.04198
1404.13,0.04166
1398.34,0.04121
1392.55,0.04049
1386.77,0.04024
1380.98,0.04068
1375.2,0.04121
1369.41,0.04128
1363.62,0.04074
1357.84,0.04018
1352.05,0.04003
1346.26,0.03961
1340.48,0.03880
1334.69,0.03834
1328.91,0.03780
1323.12,0.03770
1317.33,0.03716
1311.55,0.03617
1305.76,0.03578
1299.97,0.03502
1294.19,0.03517
1288.4,0.03503
1282.62,0.03578
1276.83,0.03762
1271.04,0.04010
1265.26,0.04177
1259.47,0.04144
1253.68,0.04182
1247.9,0.04318
1242.11,0.04410
1236.33,0.04385
1230.54,0.04391
1224.75,0.04404
1218.97,0.04360
1213.18,0.04352
1207.39,0.04369
1201.61,0.04368
1195.82,0.04322
1190.04,0.04300
1184.25,0.04308
1178.46,0.04283
1172.68,0.04278
1166.89,0.04355
1161.1,0.04462
1155.32,0.04643
1149.53,0.04761
1143.75,0.04920
1137.96,0.04958
1132.17,0.05120
1126.39,0.05293
1120.6,0.05671
1114.81,0.06164
1109.03,0.06360
1103.24,0.06760
1097.46,0.07000
1091.67,0.07031
1085.88,0.07136
1080.1,0.07342
1074.31,0.07414
1068.52,0.07526
1062.74,0.07530
1056.95,0.07534
1051.17,0.07375
1045.38,0.07278
1039.59,0.07277
1033.81,0.07188
1028.02,0.07045
1022.24,0.06860
1016.45,0.06790
1010.66,0.06598
1004.88,0.06467
999.09,0.06385
993.304,0.06216
987.518,0.06080
981.731,0.06066
975.945,0.06006
970.159,0.06022
964.373,0.06021
958.586,0.06042
952.8,0.06036
947.014,0.06023
941.228,0.05995
935.441,0.06038
929.655,0.06038
923.869,0.05962
918.083,0.05945
912.297,0.05874
906.51,0.05845
900.724,0.05794
894.938,0.05740
889.152,0.05693
883.365,0.05726
877.579,0.05645
871.793,0.05651
866.007,0.05578
860.22,0.05516
854.434,0.05483
848.648,0.05378
842.862,0.05398
837.075,0.05397
831.289,0.05478
825.503,0.05472
819.717,0.05460
813.931,0.05465
808.144,0.05472
802.358,0.05392
796.572,0.05471
790.786,0.05443
784.999,0.05568
779.213,0.05477
773.427,0.05440
767.641,0.05486
761.854,0.05426
756.068,0.05415
750.282,0.05368
744.496,0.05332
738.709,0.05333
732.923,0.05415
727.137,0.05642
721.351,0.05492
715.565,0.05377
709.778,0.05293
703.992,0.05343
698.206,0.05348
692.42,0.05423
686.633,0.05325
680.847,0.05246
675.061,0.05244
669.275,0.05242
663.488,0.05197
657.702,0.05146
651.916,0.05214
646.13,0.05002
640.343,0.04838
634.557,0.04808
628.771,0.04956
622.985,0.05143
617.198,0.04769
611.412,0.04967
605.626,0.04626
599.84,0.04994