File: 01_Data/HDPE/Cone/HDPE_HRRPUA_50.csv
Time after Ignition,HDPE_R1,HDPE_R3,HDPE_R2,HDPE_R4,Mean,Std. Dev.
0.0,9.3,10.8,17.9,24.8,15.7,7.1
0.25,11.3,12.7,19.6,27.1,17.7,7.3
0.5,13.2,14.3,21.7,29.2,19.6,7.4
0.75,14.7,15.9,23.0,31.5,21.3,7.7
1.0,17.8,17.0,25.2,34.3,23.6,8.0
1.25,20.3,19.0,27.2,36.8,25.8,8.1
1.5,23.2,20.9,28.4,39.5,28.0,8.3
1.75,25.5,22.4,30.0,42.2,30.0,8.7
2.0,29.0,24.1,31.6,45.7,32.6,9.3
2.25,31.4,25.2,32.5,47.9,34.3,9.6
2.5,34.2,27.8,34.6,50.6,36.8,9.7
2.75,36.3,29.4,36.4,54.1,39.0,10.6
3.0,38.5,31.2,38.0,56.2,41.0,10.7
3.25,40.6,32.7,40.1,58.9,43.1,11.2
3.5,43.9,33.7,40.6,61.2,44.8,11.7
3.75,46.9,35.8,42.1,62.7,46.9,11.5
4.0,49.6,37.2,43.5,65.2,48.9,12.0
4.25,51.5,40.4,45.6,67.8,51.3,11.9
4.5,54.6,41.5,46.8,70.1,53.3,12.5
4.75,57.0,42.8,48.5,73.3,55.4,13.3
5.0,59.2,45.0,50.8,74.5,57.4,12.8
5.25,61.5,46.9,52.7,78.4,59.9,13.7
5.5,63.9,48.8,55.6,78.8,61.8,12.9
5.75,67.7,49.9,55.9,81.4,63.7,13.9
6.0,71.1,51.6,58.8,84.8,66.6,14.6
6.25,72.4,53.7,60.7,85.5,68.1,14.0
6.5,74.3,55.4,64.3,89.5,70.9,14.6
6.75,78.1,57.3,66.3,92.5,73.5,15.3
7.0,81.2,59.2,67.5,94.2,75.5,15.4
7.25,83.1,59.8,71.7,96.1,77.7,15.5
7.5,85.0,63.0,73.7,101.7,80.8,16.6
7.75,87.6,65.6,77.9,104.3,83.8,16.4
8.0,90.0,67.5,79.7,108.1,86.3,17.2
8.25,93.0,69.7,80.8,109.8,88.3,17.2
8.5,95.1,73.5,86.0,114.3,92.2,17.2
8.75,95.9,74.6,88.7,117.9,94.3,18.0
9.0,100.1,78.9,91.8,122.5,98.3,18.3
9.25,103.3,79.4,95.7,122.8,100.3,18.0
9.5,105.7,80.3,97.7,127.8,102.9,19.7
9.75,106.2,84.0,102.1,130.0,105.6,18.9
10.0,110.7,86.5,104.0,131.3,108.1,18.5
10.25,114.0,89.2,106.5,135.7,111.4,19.3
10.5,116.3,89.5,111.0,138.1,113.7,20.0
10.75,116.6,93.9,111.5,142.0,116.0,19.9
11.0,121.2,96.7,115.7,143.6,119.3,19.3
11.25,121.6,98.5,120.6,148.0,122.2,20.3
11.5,126.7,101.3,123.8,152.8,126.2,21.1
11.75,128.9,105.1,126.6,153.1,128.4,19.6
12.0,131.2,109.2,129.9,158.2,132.1,20.1
12.25,132.7,112.1,135.9,156.4,134.3,18.1
12.5,137.5,115.9,137.6,163.8,138.7,19.6
12.75,140.8,115.3,142.1,166.3,141.1,20.8
13.0,146.5,119.7,143.6,169.7,144.9,20.4
13.25,150.1,125.2,150.4,171.7,149.4,19.0
13.5,151.9,125.1,154.6,177.1,152.2,21.3
13.75,159.2,133.0,158.6,182.9,158.4,20.4
14.0,160.5,131.3,161.7,184.3,159.5,21.7
14.25,167.2,136.7,168.8,184.9,164.4,20.1
14.5,175.0,142.1,172.6,186.2,169.0,18.9
14.75,177.9,142.4,179.1,191.5,172.7,21.2
15.0,180.1,146.5,182.7,195.4,176.2,20.9
15.25,193.4,152.5,191.8,198.2,184.0,21.2
15.5,186.8,156.0,191.9,204.2,184.7,20.5
15.75,196.4,160.6,196.0,202.5,188.9,19.1
16.0,198.4,162.8,201.8,206.0,192.2,19.9
16.25,206.9,166.9,209.6,207.6,197.8,20.6
16.5,215.3,171.5,212.9,212.0,202.9,21.0
16.75,212.6,176.5,216.1,221.1,206.6,20.4
17.0,216.0,177.5,217.7,219.9,207.8,20.2
17.25,219.6,179.3,221.9,222.2,210.8,21.0
17.5,231.2,186.9,225.2,228.5,217.9,20.9
17.75,235.0,189.9,229.9,230.8,221.4,21.1
18.0,235.3,192.9,237.5,235.4,225.3,21.6
18.25,233.3,195.4,238.9,235.8,225.8,20.4
18.5,241.3,195.9,246.6,241.2,231.2,23.7
18.75,244.4,200.9,250.0,240.6,233.9,22.4
19.0,252.0,205.3,253.4,252.3,240.7,23.6
19.25,255.4,207.6,259.4,250.8,243.3,24.0
19.5,260.6,210.4,263.2,249.6,245.9,24.4
19.75,268.1,212.7,267.6,259.3,251.9,26.4
20.0,264.2,219.8,275.9,263.5,255.9,24.7
20.25,273.2,222.8,280.1,266.0,260.5,25.8
20.5,274.9,230.0,290.1,273.3,267.1,25.8
20.75,282.3,234.9,291.6,280.4,272.3,25.4
21.0,286.7,238.8,299.3,284.8,277.4,26.5
21.25,291.5,238.9,305.9,286.2,280.6,29.0
21.5,290.8,245.3,312.5,291.0,284.9,28.3
21.75,300.8,250.5,316.1,295.7,290.8,28.2
22.0,300.8,251.7,324.3,299.1,294.0,30.5
22.25,316.9,260.9,331.3,299.6,302.2,30.4
22.5,320.6,260.3,333.9,308.2,305.8,32.1
22.75,311.4,271.5,335.9,317.8,309.1,27.2
23.0,325.8,270.9,338.6,320.8,314.0,29.7
23.25,324.4,270.4,337.6,324.2,314.1,29.8
23.5,330.5,276.2,335.5,329.3,317.9,27.9
23.75,339.8,276.1,344.6,328.3,322.2,31.5
24.0,336.8,286.3,357.7,327.2,327.0,30.0
24.25,336.9,286.5,357.9,335.3,329.1,30.2
24.5,338.5,291.0,353.6,336.2,329.8,27.0
24.75,361.0,294.3,370.3,339.5,341.2,33.8
25.0,372.0,304.9,373.8,342.0,348.2,32.3
25.25,361.1,299.9,373.5,349.5,346.0,32.2
25.5,362.6,294.9,381.9,353.0,348.1,37.5
25.75,367.0,308.7,377.8,349.1,350.6,30.3
26.0,372.8,313.1,389.5,355.4,357.7,32.8
26.25,390.9,314.1,394.8,352.9,363.2,37.8
26.5,390.5,320.1,384.4,367.1,365.5,31.8
26.75,397.0,324.3,396.0,373.7,372.8,34.1
27.0,407.9,319.7,391.3,364.3,370.8,38.5
27.25,402.4,322.3,404.4,375.7,376.2,38.2
27.5,420.6,332.6,399.6,370.9,380.9,38.1
27.75,412.4,333.9,410.2,385.7,385.6,36.5
28.0,428.7,335.8,412.0,379.5,389.0,40.9
28.25,439.1,347.1,413.8,389.2,397.3,39.2
28.5,441.8,358.7,410.4,401.9,403.2,34.3
28.75,444.9,354.1,418.1,403.5,405.1,38.1
29.0,445.8,349.6,419.0,399.7,403.5,40.6
29.25,471.0,380.1,430.1,401.5,420.6,39.3
29.5,474.6,374.1,429.1,409.9,421.9,41.9
29.75,462.0,378.1,429.6,421.9,422.9,34.5
30.0,495.1,384.3,440.8,420.0,435.0,46.3
30.25,491.4,391.2,435.0,418.6,434.1,42.3
30.5,497.7,386.7,458.8,425.2,442.1,47.3
30.75,484.1,390.9,446.1,416.3,434.4,40.1
31.0,491.7,396.8,454.2,415.7,439.6,42.2
31.25,518.3,397.1,451.5,439.1,451.5,50.3
31.5,514.3,407.8,460.6,446.4,457.3,44.1
31.75,537.5,419.5,467.3,431.8,464.0,53.0
32.0,540.9,423.8,461.8,448.6,468.8,50.6
32.25,551.0,434.5,471.9,455.9,478.4,50.8
32.5,550.9,415.5,472.7,453.1,473.1,57.1
32.75,548.3,439.7,475.3,468.2,482.9,46.3
33.0,560.6,430.7,490.1,476.0,489.4,53.8
33.25,563.9,441.7,481.7,459.4,486.7,54.0
33.5,561.7,438.7,477.8,468.8,486.8,52.7
33.75,578.1,443.8,486.7,486.8,498.8,56.6
34.0,594.4,450.8,490.0,485.3,505.1,62.0
34.25,601.5,451.5,495.7,501.0,512.4,63.4
34.5,585.7,465.5,509.3,504.7,516.3,50.3
34.75,616.9,457.8,511.5,476.4,515.6,71.1
35.0,628.5,470.0,511.7,491.5,525.4,70.8
35.25,615.4,466.7,528.1,489.4,524.9,65.4
35.5,659.2,468.1,511.9,514.8,538.5,83.2
35.75,633.9,482.3,511.1,516.1,535.8,67.0
36.0,677.9,482.6,525.9,516.5,550.7,86.8
36.25,697.2,481.4,531.2,533.3,560.8,94.1
36.5,692.4,501.4,526.7,528.8,562.3,87.6
36.75,685.3,483.7,532.0,518.8,554.9,89.3
37.0,690.9,496.6,538.8,542.8,567.3,85.0
37.25,700.4,503.8,531.3,534.0,567.4,89.7
37.5,728.4,524.0,541.9,536.0,582.6,97.5
37.75,709.1,500.4,554.4,549.0,578.2,90.6
38.0,735.3,523.8,549.1,546.8,588.8,98.4
38.25,769.3,535.2,553.5,546.4,601.1,112.4
38.5,744.9,539.0,558.9,548.8,597.9,98.3
38.75,774.3,530.6,559.8,550.5,603.8,114.3
39.0,780.1,531.5,552.6,570.9,608.8,115.3
39.25,772.2,523.0,549.3,564.5,602.2,114.6
39.5,809.9,546.5,566.1,577.1,624.9,124.0
39.75,788.6,554.3,569.2,566.3,619.6,112.8
40.0,816.4,556.8,580.7,584.4,634.6,121.8
40.25,781.5,539.0,566.2,569.5,614.1,112.5
40.5,794.8,571.1,562.7,590.6,629.8,110.6
40.75,813.3,578.1,573.6,596.7,640.4,115.7
41.0,825.0,559.5,574.7,600.4,639.9,124.6
41.25,808.3,589.2,575.6,595.1,642.1,111.1
41.5,833.5,582.9,575.2,588.6,645.1,125.8
41.75,899.4,586.4,580.6,611.6,669.5,153.8
42.0,811.0,578.3,575.4,610.8,643.9,112.6
42.25,854.8,600.5,587.4,629.7,668.1,125.7
42.5,875.0,595.7,587.6,612.3,667.6,138.6
42.75,881.1,609.7,596.0,629.9,679.2,135.3
43.0,838.8,599.9,591.0,643.1,668.2,116.0
43.25,868.5,602.9,607.8,638.1,679.3,127.1
43.5,894.6,616.1,587.3,621.8,679.9,143.9
43.75,893.7,634.1,598.4,619.4,686.4,139.0
44.0,926.4,649.5,600.9,648.0,706.2,148.5
44.25,972.9,635.1,601.7,673.7,720.8,170.6
44.5,954.4,630.4,593.5,655.7,708.5,165.9
44.75,866.3,631.9,601.9,676.9,694.2,118.8
45.0,951.7,661.3,626.9,661.9,725.5,151.7
45.25,978.4,635.1,610.2,666.3,722.5,172.2
45.5,958.7,632.6,633.5,679.9,726.2,156.6
45.75,888.0,651.5,600.7,696.8,709.2,125.5
46.0,992.0,671.6,653.0,674.8,747.9,163.1
46.25,896.3,684.1,628.5,705.5,728.6,116.4
46.5,1016.0,642.6,658.2,700.6,754.4,176.1
46.75,955.2,687.5,640.3,720.0,750.7,140.1
47.0,1036.0,655.3,650.0,725.9,766.8,182.8
47.25,965.7,675.4,641.0,753.6,758.9,145.7
47.5,968.3,686.4,657.5,707.2,754.8,143.8
47.75,1100.6,691.2,654.9,752.0,799.7,204.6
48.0,999.3,676.4,671.2,752.4,774.8,154.2
48.25,1052.2,689.5,676.9,747.2,791.4,176.5
48.5,974.6,699.8,665.0,716.3,763.9,142.1
48.75,1014.1,695.3,674.8,756.3,785.1,156.5
49.0,1060.4,699.3,707.9,790.0,814.4,169.0
49.25,1051.7,705.9,708.8,765.6,808.0,164.8
49.5,987.5,704.2,703.7,777.3,793.2,134.1
49.75,1087.6,759.0,721.0,793.0,840.2,167.5
50.0,993.7,722.8,688.7,785.2,797.6,136.7
50.25,1156.9,742.8,704.8,813.8,854.6,206.6
50.5,1109.5,784.2,721.6,808.3,855.9,173.0
50.75,1066.5,750.8,699.1,813.7,832.5,162.9
51.0,1076.6,762.5,710.4,847.3,849.2,161.8
51.25,1157.6,765.5,726.7,839.1,872.2,195.9
51.5,1109.5,756.2,744.5,861.4,867.9,169.4
51.75,1122.8,788.0,736.3,876.6,880.9,171.3
52.0,1032.9,741.5,767.5,886.1,857.0,133.1
52.25,1120.6,753.9,747.2,904.9,881.6,175.2
52.5,1136.2,780.4,784.3,860.3,890.3,168.0
52.75,1198.6,822.6,766.4,855.3,910.7,195.4
53.0,1075.3,797.5,754.7,912.6,885.0,143.3
53.25,1199.4,807.2,776.6,887.9,917.8,193.5
53.5,1105.6,812.6,789.0,919.2,906.6,144.2
53.75,1142.8,783.7,796.3,911.8,908.7,166.4
54.0,1162.2,794.1,798.8,859.4,903.6,174.9
54.25,1198.0,787.3,795.4,921.8,925.6,191.7
54.5,1150.8,810.3,839.7,919.4,930.0,154.2
54.75,1151.5,819.7,820.0,945.2,934.1,156.5
55.0,1209.4,835.4,825.3,925.4,948.9,179.4
55.25,1175.0,792.5,871.8,941.4,945.2,164.8
55.5,1178.2,815.6,856.7,970.9,955.4,162.5
55.75,1244.5,828.7,888.4,949.5,977.8,184.5
56.0,1229.9,796.3,858.3,979.7,966.0,191.7
56.25,1194.3,862.7,880.9,988.5,981.6,152.3
56.5,1113.4,808.3,921.8,934.4,944.5,126.1
56.75,1248.4,856.4,868.6,998.6,993.0,182.0
57.0,1127.6,811.5,904.7,963.7,951.9,132.9
57.25,1211.6,849.5,885.4,992.5,984.8,163.0
57.5,1270.8,905.1,958.9,986.8,1030.4,163.9
57.75,1178.0,839.0,907.1,1025.9,987.5,148.6
58.0,1192.9,893.1,913.3,1039.8,1009.8,138.2
58.25,1340.5,911.0,971.9,942.4,1041.5,200.9
58.5,1110.0,899.0,952.7,1027.7,997.4,91.8
58.75,1332.4,858.1,960.8,1060.4,1052.9,203.8
59.0,1234.1,919.1,977.1,1033.6,1041.0,137.0
59.25,1232.1,908.5,1011.8,1061.2,1053.4,135.1
59.5,1218.6,853.1,990.1,1035.8,1024.4,151.0
59.75,1273.3,906.2,1013.9,1088.1,1070.4,154.5
60.0,1260.9,912.8,964.1,978.4,1029.0,157.1
60.25,1281.4,921.6,1065.5,1057.9,1081.6,148.7
60.5,1314.4,909.4,1016.6,1023.7,1066.0,173.6
60.75,1307.9,952.5,1017.2,1108.1,1096.4,154.8
61.0,1292.5,894.1,1037.5,961.9,1046.5,174.1
61.25,1226.7,954.3,1034.8,1113.7,1082.4,116.2
61.5,1275.9,993.3,1020.9,1041.5,1082.9,130.2
61.75,1223.5,934.1,1002.9,1147.0,1076.9,132.0
62.0,1390.1,936.2,1048.7,1056.2,1107.8,196.1
62.25,1334.4,995.0,1032.5,1052.7,1103.7,155.7
62.5,1306.6,913.5,1101.0,1039.1,1090.1,164.1
62.75,1300.3,979.8,1104.8,1057.0,1110.4,136.6
63.0,1325.0,950.3,1035.3,1107.1,1104.4,160.4
63.25,1365.8,954.8,1113.0,1098.5,1133.0,170.8
63.5,1296.0,973.5,1085.3,1068.3,1105.8,136.0
63.75,1216.6,1016.2,1147.3,1102.7,1120.7,84.0
64.0,1251.4,975.0,1071.8,1172.1,1117.6,120.1
64.25,1326.5,1008.1,1098.2,1094.7,1131.9,136.3
64.5,1236.4,993.7,1102.6,1074.2,1101.7,100.9
64.75,1176.5,1039.2,1137.9,1148.7,1125.6,59.8
65.0,1317.0,1013.2,1168.2,1177.2,1168.9,124.1
65.25,1184.5,1082.2,1101.4,1099.3,1116.8,45.9
65.5,1379.2,950.4,1096.1,1219.5,1161.3,182.2
65.75,1279.9,1170.8,1114.0,1083.8,1162.1,86.4
66.0,1318.5,1017.2,1074.6,1217.6,1157.0,136.7
66.25,1463.9,1026.6,1178.1,1227.2,1223.9,181.3
66.5,1333.7,1029.0,1120.8,1188.6,1168.0,128.4
66.75,1349.0,1030.3,1159.4,1140.7,1169.9,132.4
67.0,1259.0,1023.1,1130.8,1252.8,1166.4,112.3
67.25,1297.4,1074.6,1150.9,1185.8,1177.2,92.6
67.5,1431.6,1032.1,1197.0,1273.5,1233.6,166.1
67.75,1362.2,1035.8,1175.0,1229.0,1200.5,135.1
68.0,1354.2,1052.7,1277.5,1358.5,1260.7,143.6
68.25,1275.5,1030.4,1168.3,1188.5,1165.7,101.5
68.5,1281.3,1016.2,1236.5,1249.4,1195.8,121.2
68.75,1444.7,1033.1,1172.6,1248.1,1224.6,171.6
69.0,1408.1,1044.1,1231.1,1313.1,1249.1,154.6
69.25,1304.0,1164.3,1168.3,1259.1,1223.9,69.0
69.5,1416.4,1035.6,1286.6,1291.9,1257.6,159.7
69.75,1356.5,1120.8,1189.9,1283.0,1237.6,103.5
70.0,1445.7,1118.5,1243.9,1279.4,1271.9,134.9
70.25,1343.5,1053.9,1231.9,1336.8,1241.5,135.1
70.5,1363.5,1106.3,1185.0,1302.8,1239.4,115.6
70.75,1561.2,1208.4,1331.9,1372.0,1368.4,146.2
71.0,1498.9,1156.7,1270.6,1375.7,1325.5,146.2
71.25,1451.1,1113.0,1361.5,1309.3,1308.7,143.0
71.5,1466.3,1175.7,1229.4,1307.5,1294.7,126.5
71.75,1361.3,1147.2,1324.8,1387.3,1305.2,108.4
72.0,1533.5,1093.4,1292.9,1272.6,1298.1,180.8
72.25,1425.3,1159.2,1292.6,1311.5,1297.1,109.1
72.5,1567.7,1164.4,1333.3,1346.3,1352.9,165.4
72.75,1464.6,1124.3,1352.2,1369.3,1327.6,144.3
73.0,1443.3,1128.8,1292.1,1344.2,1302.1,131.5
73.25,1581.2,1065.6,1312.9,1407.6,1341.8,215.0
73.5,1438.1,1222.5,1268.6,1575.9,1376.3,162.2
73.75,1532.6,1147.1,1270.2,1465.3,1353.8,177.1
74.0,1382.9,1122.9,1265.8,1487.0,1314.7,156.5
74.25,1558.4,1249.0,1212.2,1531.1,1387.7,182.3
74.5,1566.6,1174.5,1307.9,1444.7,1373.4,169.6
74.75,1694.2,1127.5,1359.2,1347.8,1382.2,233.8
75.0,1553.3,1365.2,1320.2,1583.0,1455.4,132.0
75.25,1605.1,1159.6,1335.7,1370.4,1367.7,183.2
75.5,1735.8,1340.3,1301.6,1431.7,1452.4,196.7
75.75,1425.7,1057.3,1289.8,1483.1,1314.0,189.3
76.0,1796.7,1214.0,1380.2,1404.6,1448.9,246.9
76.25,1642.4,1136.7,1398.4,1420.9,1399.6,207.0
76.5,1700.7,1335.9,1369.9,1599.4,1501.5,177.0
76.75,1437.1,1201.3,1400.6,1294.5,1333.4,106.8
77.0,1761.1,1281.6,1404.8,1383.5,1457.7,209.3
77.25,1849.6,1341.0,1320.8,1461.0,1493.1,245.6
77.5,1690.5,1221.5,1351.6,1421.2,1421.2,197.7
77.75,1563.0,1388.4,1310.0,1461.0,1430.6,107.7
78.0,1689.5,1298.0,1483.8,1454.3,1481.4,160.9
78.25,1749.9,1256.6,1370.4,1446.1,1455.8,211.0
78.5,1475.9,1272.0,1415.3,1436.0,1399.8,88.8
78.75,1978.4,1445.4,1406.8,1524.2,1588.7,264.4
79.0,1775.2,1328.1,1405.8,1427.9,1484.2,198.7
79.25,1688.4,1249.9,1393.0,1674.6,1501.5,216.0
79.5,1747.2,1367.0,1457.8,1635.6,1551.9,171.5
79.75,1817.2,1280.3,1407.2,1589.5,1523.5,233.3
80.0,1739.1,1330.0,1469.0,1552.4,1522.6,171.0
80.25,1631.0,1336.6,1471.9,1676.8,1529.1,155.5
80.5,1747.0,1302.4,1442.3,1579.3,1517.7,190.1
80.75,1855.0,1492.1,1392.2,1485.5,1556.2,204.3
81.0,1800.7,1599.7,1367.2,1720.1,1621.9,188.9
81.25,1800.5,1367.9,1465.6,1646.1,1570.0,192.0
81.5,1606.1,1408.7,1467.5,1569.1,1512.9,90.8
81.75,1796.9,1408.0,1574.7,1455.6,1558.8,173.5
82.0,1740.4,1261.5,1487.0,1558.6,1511.9,198.1
82.25,1520.8,1425.0,1519.8,1675.8,1535.3,103.8
82.5,2323.2,1255.4,1566.8,1539.2,1671.1,456.9
82.75,1553.9,1466.7,1510.9,1663.0,1548.6,84.1
83.0,1761.2,1633.8,1607.7,1680.3,1670.7,67.4
83.25,2319.2,1355.6,1478.1,1554.0,1676.7,436.1
83.5,1779.4,1392.3,1453.9,1779.0,1601.1,207.1
83.75,1814.7,1574.3,1590.6,1711.5,1672.8,112.7
84.0,1929.7,1410.4,1483.7,1659.2,1620.7,230.9
84.25,1887.4,1403.1,1625.3,1736.8,1663.2,203.9
84.5,2417.0,1499.2,1520.5,1825.9,1815.6,427.8
84.75,1800.4,1595.1,1483.3,1714.6,1648.3,138.5
85.0,2231.9,1398.9,1491.7,1646.8,1692.3,374.0
85.25,1611.1,1569.2,1547.4,1736.7,1616.1,84.6
85.5,2262.0,1446.3,1651.4,1569.8,1732.4,363.0
85.75,1824.4,1398.9,1522.5,1700.3,1611.5,188.3
86.0,2328.1,1494.5,1521.6,1670.8,1753.8,390.6
86.25,1950.9,1592.6,1468.1,1689.4,1675.2,204.9
86.5,1894.5,1648.6,1682.0,1700.4,1731.4,110.8
86.75,2490.2,1544.2,1591.5,1593.5,1804.9,457.5
87.0,1711.4,1529.1,1594.9,1914.0,1687.4,168.8
87.25,2457.3,1605.2,1606.7,1703.7,1843.2,412.0
87.5,2121.0,1562.1,1583.7,1747.3,1753.5,258.6
87.75,2330.8,1588.1,1568.5,1794.0,1820.4,355.3
88.0,1982.9,1459.4,1543.3,1764.2,1687.4,235.2
88.25,2418.2,1640.9,1732.6,1802.6,1898.6,352.7
88.5,2038.7,1540.2,1599.3,1666.4,1711.1,224.4
88.75,2101.6,1573.9,1557.9,1869.4,1775.7,260.2
89.0,2682.9,1522.7,1596.1,1685.2,1871.7,544.9
89.25,2199.3,1695.4,1725.0,1854.9,1868.7,231.1
89.5,2206.2,1480.6,1693.7,1785.1,1791.4,304.5
89.75,2116.8,1528.7,1744.7,1853.8,1811.0,244.6
90.0,2121.9,1854.0,1733.4,1765.3,1868.6,176.4
90.25,2649.6,1579.8,1755.3,1742.2,1931.7,485.2
90.5,2133.6,1600.9,1637.5,1653.5,1756.4,252.4
90.75,1805.2,1414.1,1583.3,1664.7,1616.8,163.3
91.0,2374.5,1760.3,1828.9,1832.9,1949.2,285.5
91.25,2146.3,1626.4,1674.0,1817.7,1816.1,234.6
91.5,2425.2,1642.0,1704.9,1723.5,1873.9,369.2
91.75,2235.3,1654.9,1756.4,1765.5,1853.0,259.7
92.0,2243.0,1621.8,1784.2,1744.2,1848.3,272.0
92.25,2585.3,1474.4,1677.1,1929.0,1916.5,483.1
92.5,1836.3,1782.9,1805.0,2080.4,1876.1,137.9
92.75,1995.1,1559.1,1816.9,1907.5,1819.6,188.3
93.0,2194.4,1458.8,1732.8,2024.9,1852.7,324.5
93.25,2143.1,1741.0,1633.0,1973.5,1872.6,229.5
93.5,2800.6,1553.9,1799.4,1944.7,2024.7,541.9
93.75,2474.9,1885.0,1611.2,2059.4,2007.6,362.0
94.0,2095.8,1761.6,1619.7,1803.0,1820.0,199.9
94.25,2715.1,1547.8,1875.6,1945.4,2021.0,494.1
94.5,2474.2,1806.0,1764.3,2004.3,2012.2,325.3
94.75,2190.8,1712.2,1780.9,1747.9,1857.9,223.7
95.0,2595.9,1622.1,1815.8,2038.8,2018.2,421.1
95.25,2990.9,1657.5,1672.3,2088.1,2102.2,625.2
95.5,1933.7,1587.2,1779.6,1867.4,1792.0,150.4
95.75,2468.7,1698.8,1717.7,2026.3,1977.9,360.0
96.0,2427.5,1541.2,1725.7,2066.6,1940.3,391.0
96.25,2291.2,1722.5,1988.5,2095.5,2024.4,237.1
96.5,2580.4,1796.9,1869.7,2002.2,2062.3,355.7
96.75,2761.3,1950.7,1987.2,2193.7,2223.2,374.3
97.0,2634.8,1903.6,1990.8,2121.9,2162.8,327.2
97.25,2043.3,1821.7,1726.2,1889.2,1870.1,133.5
97.5,2926.2,1508.6,1928.6,1889.1,2063.1,605.7
97.75,2130.7,2098.8,1976.7,2196.1,2100.6,92.0
98.0,2300.0,1580.1,1882.2,1695.3,1864.4,316.0
98.25,2636.4,2165.4,1975.8,2096.1,2218.4,289.5
98.5,2798.6,1709.6,1784.6,2121.2,2103.5,496.8
98.75,2755.7,1828.5,1969.4,1817.2,2092.7,447.4
99.0,2041.4,1813.3,1930.7,2339.9,2031.3,225.8
99.25,2168.6,1869.1,1812.9,2060.0,1977.7,165.5
99.5,2658.8,2184.6,1841.6,2257.2,2235.5,335.4
99.75,2432.4,1629.1,1941.9,2014.3,2004.4,330.7
100.0,1988.3,1683.6,1931.7,2159.6,1940.8,196.9
100.25,2385.4,1908.6,2011.4,2133.6,2109.7,205.5
100.5,2235.0,1715.6,2108.3,2158.7,2054.4,231.8
100.75,1966.8,1887.2,2023.6,2265.9,2035.9,163.2
101.0,2166.2,1961.0,1898.3,2128.8,2038.6,129.3
101.25,2616.6,1693.9,1967.7,1827.5,2026.4,409.0
101.5,2371.8,2012.2,1886.4,2126.7,2099.3,206.5
101.75,2251.6,1720.0,1813.6,2260.4,2011.4,285.0
102.0,2384.1,1950.9,2100.0,2192.1,2156.8,181.2
102.25,2223.7,2036.1,1910.7,1990.4,2040.2,132.8
102.5,2183.5,2019.4,1914.9,2435.8,2138.4,227.0
102.75,2140.5,1692.0,2044.3,2219.4,2024.0,232.6
103.0,2306.5,1850.6,1909.4,2322.2,2097.2,252.0
103.25,2071.0,2013.2,2078.8,2116.5,2069.9,42.7
103.5,2184.8,2215.3,1881.4,2336.6,2154.5,193.5
103.75,2079.9,1962.3,1943.0,2289.9,2068.8,159.4
104.0,2045.8,1917.4,2109.7,1986.5,2014.9,82.2
104.25,2049.8,2234.6,2036.1,2010.7,2082.8,102.5
104.5,1910.1,2113.0,2305.8,1995.6,2081.1,171.3
104.75,1963.6,1765.6,1937.3,2015.5,1920.5,108.3
105.0,2011.1,1982.8,1824.3,2224.4,2010.7,164.5
105.25,1907.7,2339.3,2148.8,1937.6,2083.4,201.6
105.5,1849.9,2053.2,2011.3,2351.0,2066.4,209.0
105.75,1765.8,1928.9,2280.9,2060.7,2009.1,217.7
106.0,1740.6,1777.5,2088.7,2265.6,1968.1,252.4
106.25,1687.0,1914.3,1952.1,2000.2,1888.4,138.8
106.5,1686.3,1945.7,2042.4,2151.1,1956.4,198.6
106.75,1629.0,2054.9,1959.1,2108.9,1938.0,215.1
107.0,1592.4,2111.5,1862.4,2309.9,1969.1,310.8
107.25,1521.3,1748.2,2323.3,2248.2,1960.2,388.3
107.5,1466.1,2350.7,2276.2,2196.9,2072.5,409.1
107.75,1397.1,1969.3,1948.1,2288.2,1900.7,370.0
108.0,1339.4,2241.1,2315.1,2185.1,2020.2,457.0
108.25,1323.3,2390.5,2258.7,2215.1,2046.9,488.1
108.5,1258.0,2435.1,2185.9,1921.8,1950.2,506.8
108.75,1169.1,2040.7,2153.9,2258.8,1905.6,499.0
109.0,1141.8,2208.6,2323.5,2007.5,1920.3,535.2
109.25,1093.7,2216.7,2181.1,2071.6,1890.8,535.0
109.5,1031.0,2367.3,2169.2,2295.7,1965.8,628.6
109.75,1001.6,1881.7,2502.4,2219.1,1901.2,651.2
110.0,956.7,2532.8,2231.5,2203.6,1981.2,699.0
110.25,904.9,1570.8,2219.9,2210.9,1726.6,626.5
110.5,843.8,1849.2,2444.0,2290.0,1856.8,720.8
110.75,819.5,2334.8,2233.6,2050.9,1859.7,703.4
111.0,794.7,2172.9,2380.4,1985.1,1833.3,710.9
111.25,738.6,1996.5,2229.6,2087.7,1763.1,689.7
111.5,718.9,2548.2,2309.8,1991.5,1892.1,814.7
111.75,678.8,1896.2,2069.8,2407.9,1763.2,753.5
112.0,652.0,2435.0,2403.4,2193.1,1920.9,852.7
112.25,624.2,1734.3,2476.4,2131.8,1741.7,804.3
112.5,601.9,2270.9,2343.1,2142.4,1839.6,829.3