File: 01_Data/HDPE/Cone/HDPE_HRRPUA_25.csv
Time after Ignition,HDPE_R1,HDPE_R2,HDPE_R3,HDPE_R4,HDPE_R5,HDPE_R6,Mean,Std. Dev.
0.0,37.9,85.0,8.4,73.2,8.1,4.8,36.2,35.5
0.25,39.9,85.5,8.9,73.5,8.5,5.1,36.9,35.5
0.5,41.3,88.2,9.2,74.7,8.7,5.7,38.0,36.4
0.75,43.9,88.9,9.9,76.8,8.9,6.2,39.1,36.8
1.0,45.5,90.8,10.2,77.5,9.2,6.6,40.0,37.3
1.25,47.8,92.6,10.8,77.5,9.5,7.1,40.9,37.7
1.5,49.1,94.4,11.2,78.1,9.7,7.5,41.7,38.2
1.75,50.4,95.3,11.8,79.1,10.0,8.4,42.5,38.3
2.0,52.5,98.2,12.4,80.2,10.5,9.2,43.8,39.1
2.25,54.9,98.8,12.9,80.8,10.8,10.0,44.7,39.2
2.5,55.6,102.4,13.2,80.7,11.2,10.5,45.6,40.1
2.75,57.4,101.3,13.7,82.2,12.1,11.6,46.4,39.7
3.0,58.7,105.8,14.1,82.7,12.7,12.7,47.8,40.7
3.25,58.8,108.2,14.5,83.5,13.5,13.5,48.7,41.2
3.5,61.6,107.7,15.1,83.1,13.9,14.3,49.3,40.9
3.75,61.4,111.1,15.3,83.2,15.1,15.5,50.3,41.4
4.0,63.3,111.2,15.5,84.8,16.1,16.6,51.3,41.4
4.25,64.4,114.0,15.8,86.1,17.2,17.5,52.5,42.1
4.5,65.8,115.9,16.5,85.7,17.9,18.7,53.4,42.3
4.75,65.8,117.0,16.9,86.2,19.3,20.3,54.2,42.1
5.0,66.8,119.0,17.2,87.6,20.3,21.5,55.4,42.6
5.25,68.5,120.0,17.9,88.0,21.4,22.6,56.4,42.5
5.5,69.3,121.8,18.0,88.4,22.1,23.5,57.2,42.9
5.75,71.2,123.0,18.7,90.2,23.6,24.8,58.6,43.0
6.0,72.8,127.0,19.1,90.7,25.0,25.7,60.0,44.0
6.25,73.2,128.4,19.9,90.6,25.8,26.6,60.8,44.0
6.5,74.1,129.1,20.3,91.4,27.0,27.2,61.5,44.0
6.75,74.3,131.6,21.0,93.1,28.1,28.2,62.7,44.6
7.0,75.7,133.5,21.8,94.5,28.6,28.9,63.8,45.1
7.25,78.4,134.5,22.3,94.8,30.1,29.9,65.0,45.1
7.5,78.7,137.3,22.7,96.7,30.3,30.5,66.0,46.0
7.75,80.6,140.9,23.9,99.7,30.9,31.6,67.9,47.2
8.0,84.1,141.8,24.1,100.1,31.6,32.0,69.0,47.5
8.25,83.4,150.4,25.0,102.7,32.7,32.8,71.2,50.0
8.5,84.7,149.6,26.0,104.4,33.3,33.8,72.0,49.6
8.75,87.7,153.4,26.5,105.3,34.0,34.7,73.6,50.7
9.0,88.9,153.7,26.5,108.2,34.2,34.8,74.4,51.2
9.25,90.3,156.1,27.1,108.6,35.3,35.3,75.4,51.7
9.5,92.6,158.7,27.6,108.7,35.7,35.6,76.5,52.5
9.75,96.3,160.2,28.3,111.0,36.5,36.5,78.1,53.1
10.0,96.0,159.6,29.1,114.2,37.2,37.3,78.9,52.9
10.25,97.3,163.1,29.7,113.8,37.4,37.7,79.8,53.8
10.5,99.0,166.2,30.4,113.2,38.4,38.3,80.9,54.4
10.75,100.5,171.1,31.2,115.7,38.6,39.5,82.8,56.0
11.0,102.2,172.9,32.2,117.7,39.2,40.0,84.0,56.5
11.25,103.6,173.7,32.5,115.5,40.8,40.5,84.4,56.3
11.5,103.7,177.6,33.4,118.9,40.9,40.6,85.9,57.7
11.75,106.6,178.8,34.5,120.5,41.6,41.3,87.2,58.1
12.0,107.0,183.8,35.5,120.5,42.0,42.0,88.5,59.3
12.25,109.7,183.5,36.7,122.0,43.0,42.4,89.6,59.1
12.5,111.2,187.8,38.4,122.2,43.9,44.3,91.3,59.9
12.75,111.9,191.5,40.1,124.2,44.8,44.2,92.8,60.9
13.0,112.1,194.0,41.4,125.7,45.6,44.2,93.8,61.5
13.25,115.3,193.6,42.2,126.2,46.6,44.7,94.8,61.3
13.5,117.8,198.2,46.1,128.8,48.6,45.2,97.4,62.1
13.75,118.7,203.9,48.6,131.1,49.7,46.1,99.7,63.5
14.0,118.1,205.3,50.4,130.3,50.8,46.1,100.2,63.4
14.25,122.5,208.6,53.0,131.5,52.4,46.9,102.5,64.1
14.5,123.4,209.9,56.5,132.3,52.7,46.9,103.6,64.1
14.75,123.6,206.1,59.8,133.2,55.5,47.9,104.4,61.8
15.0,127.0,214.7,62.7,135.2,56.7,49.0,107.5,64.3
15.25,129.2,216.6,65.6,136.4,58.1,48.8,109.1,64.6
15.5,128.0,217.6,68.6,136.4,59.1,49.3,109.8,64.2
15.75,128.7,221.6,71.5,137.0,61.3,50.3,111.7,64.7
16.0,131.6,223.1,74.8,137.1,61.7,50.6,113.1,64.9
16.25,135.2,224.2,76.2,140.5,62.6,51.7,115.1,65.2
16.5,134.6,228.3,80.4,141.1,64.6,52.6,116.9,65.6
16.75,135.0,233.5,82.7,142.8,65.4,53.4,118.8,67.0
17.0,136.9,234.4,84.9,142.6,66.6,54.4,120.0,66.7
17.25,139.9,240.3,86.3,144.1,68.2,54.8,122.3,68.5
17.5,138.2,241.0,91.0,144.9,69.7,55.8,123.4,67.8
17.75,144.2,239.9,92.3,144.8,71.2,57.0,124.9,67.2
18.0,145.8,242.8,94.1,147.6,71.5,56.9,126.4,68.2
18.25,144.0,253.9,95.8,147.8,73.3,58.3,128.9,71.3
18.5,148.1,260.8,98.9,147.8,74.3,58.8,131.5,73.3
18.75,149.0,256.9,99.5,149.5,74.4,59.8,131.5,71.8
19.0,150.7,260.0,102.3,150.6,76.9,60.5,133.5,72.2
19.25,150.9,261.0,104.8,151.8,78.0,61.1,134.6,72.2
19.5,155.2,258.4,107.4,152.1,78.3,61.9,135.5,71.1
19.75,156.9,263.5,108.2,155.4,80.4,62.6,137.8,72.5
20.0,158.6,270.8,109.7,153.8,82.2,64.7,140.0,74.3
20.25,162.6,270.9,111.6,156.4,82.1,65.4,141.5,74.3
20.5,164.9,276.3,114.5,158.0,82.8,65.8,143.7,76.0
20.75,168.2,274.3,115.3,157.1,83.1,65.6,144.0,75.4
21.0,171.4,284.8,118.1,159.5,85.0,67.5,147.7,78.4
21.25,170.9,287.9,120.7,160.8,85.4,68.1,149.0,79.1
21.5,176.9,290.3,118.9,162.5,86.1,68.5,150.5,80.3
21.75,179.5,288.0,122.6,164.6,86.7,70.5,152.0,79.0
22.0,181.4,291.2,125.0,161.6,88.7,70.5,153.1,79.7
22.25,181.1,293.2,127.2,163.9,91.6,71.1,154.7,79.6
22.5,181.9,303.7,128.2,167.2,90.1,72.9,157.3,83.2
22.75,183.1,298.7,130.5,167.1,90.8,73.8,157.3,81.1
23.0,189.5,309.8,133.9,172.5,91.3,74.4,161.9,85.0
23.25,192.0,311.2,135.5,170.9,93.2,75.3,163.0,85.1
23.5,194.4,306.6,135.1,170.3,93.9,76.3,162.8,83.4
23.75,196.0,318.3,137.3,170.5,94.1,78.0,165.7,87.0
24.0,195.0,317.7,139.7,170.9,95.0,79.1,166.2,86.2
24.25,198.5,317.3,140.0,174.3,96.6,79.3,167.7,86.0
24.5,202.3,315.1,141.4,174.2,96.9,80.8,168.5,85.1
24.75,204.5,322.2,139.8,174.5,97.6,81.9,170.1,87.5
25.0,203.1,325.2,143.5,176.0,100.2,82.3,171.7,87.7
25.25,206.5,329.4,144.1,176.4,99.8,84.5,173.4,89.0
25.5,210.9,337.0,143.7,178.6,100.5,84.0,175.8,92.0
25.75,212.8,340.0,147.8,180.4,100.8,86.4,178.1,92.4
26.0,211.6,342.1,145.9,183.2,103.3,87.4,178.9,92.6
26.25,209.9,350.2,148.2,181.0,104.1,87.0,180.1,95.2
26.5,215.7,345.5,149.1,181.8,103.7,89.3,180.8,93.4
26.75,212.8,361.5,150.7,183.0,106.2,91.6,184.3,98.0
27.0,218.1,352.1,152.9,185.6,107.2,92.8,184.8,94.4
27.25,217.0,357.9,153.5,186.9,109.2,94.4,186.5,95.8
27.5,219.1,358.5,155.3,188.6,109.3,95.5,187.7,95.8
27.75,221.4,365.3,154.2,189.4,109.9,95.9,189.4,98.2
28.0,227.5,364.1,154.9,189.1,112.1,98.4,191.0,97.4
28.25,225.9,371.9,155.9,190.7,113.4,100.1,193.0,99.4
28.5,227.0,380.2,155.9,195.0,114.5,102.1,195.8,102.0
28.75,230.9,375.0,157.7,192.8,116.5,102.4,195.9,99.8
29.0,229.6,389.8,158.1,196.3,118.0,103.8,199.3,104.5
29.25,234.9,389.2,160.3,198.2,117.9,106.8,201.2,103.9
29.5,232.4,406.0,162.5,198.4,117.6,105.1,203.7,110.1
29.75,241.1,398.4,163.3,198.4,119.3,107.8,204.7,107.0
30.0,234.6,416.4,163.4,205.5,120.2,107.7,208.0,113.0
30.25,246.2,401.0,165.3,206.5,120.9,110.6,208.4,107.3
30.5,243.9,415.4,164.1,206.7,122.7,111.2,210.7,112.1
30.75,242.4,413.7,167.4,207.7,123.5,111.5,211.0,110.9
31.0,248.3,427.3,170.2,209.7,122.3,112.8,215.1,116.0
31.25,244.4,430.8,169.6,212.4,123.1,113.7,215.7,116.8
31.5,252.8,442.3,170.1,213.8,122.8,114.1,219.3,121.4
31.75,255.2,428.4,171.6,215.6,124.6,118.0,218.9,115.3
32.0,257.7,428.0,172.2,217.7,126.3,117.1,219.8,115.2
32.25,258.0,438.9,174.3,221.9,125.8,117.7,222.8,118.9
32.5,262.9,449.5,172.0,222.3,126.0,120.4,225.5,122.8
32.75,270.6,447.0,172.0,225.3,128.6,120.8,227.4,121.9
33.0,267.0,446.8,173.2,221.5,128.2,125.5,227.0,120.8
33.25,270.3,452.9,178.3,226.8,129.6,123.1,230.2,122.9
33.5,282.2,469.1,176.9,226.1,130.5,122.4,234.5,129.7
33.75,277.7,470.2,177.2,227.3,130.1,123.8,234.4,129.5
34.0,280.5,459.4,180.9,229.7,132.3,123.9,234.5,125.1
34.25,287.5,463.2,178.4,233.5,132.9,127.4,237.1,126.5
34.5,283.9,469.9,183.0,231.2,132.4,127.5,238.0,128.3
34.75,293.5,463.8,182.2,235.2,136.4,128.1,239.9,126.2
35.0,298.1,478.4,185.9,234.7,137.9,129.5,244.1,130.9
35.25,302.4,480.0,186.3,241.4,136.0,128.7,245.8,132.2
35.5,305.1,485.1,187.9,238.5,139.0,127.7,247.2,133.8
35.75,304.8,489.9,189.4,239.8,138.5,129.3,248.6,135.1
36.0,310.4,481.7,189.8,246.2,142.2,130.3,250.1,131.9
36.25,317.8,478.3,191.9,243.6,142.5,131.3,250.9,131.0
36.5,310.8,499.9,191.1,243.8,146.4,131.9,254.0,137.3
36.75,314.6,489.5,191.4,249.3,146.0,130.1,253.5,134.2
37.0,323.3,507.4,194.6,250.6,146.2,132.1,259.0,140.6
37.25,330.6,492.2,195.1,249.9,151.2,134.6,258.9,134.7
37.5,327.3,508.6,198.2,251.1,152.5,134.2,262.0,139.7
37.75,336.4,511.7,197.9,254.7,154.6,133.4,264.8,141.5
38.0,335.6,509.1,202.0,257.0,154.3,137.0,265.8,139.4
38.25,339.8,506.9,203.4,256.7,158.1,135.7,266.7,138.6
38.5,333.7,505.8,205.7,255.6,159.9,138.7,266.6,136.6
38.75,343.8,514.2,206.0,260.7,161.8,137.1,270.6,140.5
39.0,342.2,509.9,204.7,257.9,161.5,137.1,268.9,139.0
39.25,341.6,530.1,206.5,260.4,166.6,141.8,274.5,144.2
39.5,340.3,538.6,210.9,265.4,168.7,141.1,277.5,146.4
39.75,360.6,515.5,210.0,266.6,172.2,143.6,278.1,139.5
40.0,351.6,526.0,213.9,268.1,172.9,143.9,279.4,141.5
40.25,354.2,539.7,216.2,264.9,173.4,141.0,281.6,146.9
40.5,357.4,539.5,217.3,271.5,180.6,144.6,285.2,145.2
40.75,364.7,529.0,219.1,276.7,178.8,146.4,285.8,142.0
41.0,369.6,541.2,217.9,274.2,182.9,145.2,288.5,146.5
41.25,369.8,550.2,218.2,278.0,185.7,147.2,291.5,148.7
41.5,377.1,540.2,222.3,276.1,185.3,147.2,291.4,145.8
41.75,379.0,553.3,224.2,280.0,190.7,148.7,296.0,149.2
42.0,394.2,558.7,225.0,280.4,186.6,149.0,299.0,153.3
42.25,377.4,551.8,229.1,283.2,192.0,150.3,297.3,147.5
42.5,388.0,541.8,231.5,287.8,197.9,151.0,299.7,144.0
42.75,391.3,559.5,233.2,285.8,193.3,151.3,302.4,150.9
43.0,392.5,568.5,241.0,292.3,198.8,151.9,307.5,152.3
43.25,393.3,561.6,239.9,292.3,195.7,154.5,306.2,150.1
43.5,409.5,556.9,247.1,297.5,200.2,151.9,310.5,149.7
43.75,406.9,571.0,242.9,300.2,204.5,154.3,313.3,153.2
44.0,393.7,566.0,246.8,296.6,204.6,155.9,310.6,149.4
44.25,408.0,589.6,251.6,302.1,203.7,157.4,318.7,158.3
44.5,422.7,576.1,251.9,301.0,206.5,155.4,318.9,155.6
44.75,413.6,586.0,251.9,310.0,207.7,158.5,321.3,156.8
45.0,413.8,587.9,259.7,305.5,211.4,157.9,322.7,156.5
45.25,410.9,594.9,261.8,306.3,216.2,160.3,325.1,157.2
45.5,411.9,573.6,262.1,311.5,214.8,160.7,322.4,150.1
45.75,423.2,565.9,262.5,319.5,219.0,161.4,325.3,148.1
46.0,420.1,578.3,266.0,323.1,223.5,163.2,329.0,150.4
46.25,424.1,587.3,268.0,322.9,224.1,164.6,331.8,153.3
46.5,418.2,608.1,271.4,321.5,224.7,165.7,334.9,159.1
46.75,433.2,594.5,275.9,321.8,228.4,165.6,336.6,155.4
47.0,440.5,586.6,278.1,324.9,234.1,163.5,337.9,153.2
47.25,432.2,605.2,280.8,327.3,238.0,164.7,341.4,157.2
47.5,445.0,596.6,282.2,335.1,237.3,169.6,344.3,154.7
47.75,440.9,583.8,281.8,338.8,234.8,170.1,341.7,150.3
48.0,440.9,583.9,290.3,331.8,242.8,169.6,343.2,148.8
48.25,459.1,583.8,287.7,343.4,242.3,171.0,347.9,151.1
48.5,465.7,610.1,296.6,342.6,244.7,169.9,355.0,159.6
48.75,454.0,606.0,294.3,348.1,248.0,172.0,353.8,155.9
49.0,456.8,583.9,297.9,350.9,253.0,172.2,352.4,148.2
49.25,463.3,595.2,304.0,354.0,251.5,174.6,357.1,151.8
49.5,465.8,594.6,302.5,355.6,259.6,174.0,358.7,151.1
49.75,459.5,618.7,309.5,358.1,261.1,175.8,363.8,156.8
50.0,464.2,630.6,311.3,370.3,257.1,175.4,368.2,161.8
50.25,463.5,624.0,311.4,363.7,262.4,176.4,366.9,158.6
50.5,469.2,626.9,321.9,372.6,264.2,175.8,371.7,159.4
50.75,461.7,639.3,326.3,371.0,263.0,175.9,372.9,162.4
51.0,476.8,649.0,326.7,379.4,264.8,178.2,379.1,166.5
51.25,472.6,636.8,333.7,376.8,271.6,178.3,378.3,160.7
51.5,492.0,659.2,336.2,385.5,269.5,181.5,387.3,169.5
51.75,472.4,629.7,336.8,379.8,271.3,182.1,378.7,157.3
52.0,474.4,666.8,333.4,389.6,275.0,183.5,387.1,168.9
52.25,486.1,653.8,341.2,388.3,276.7,182.4,388.1,165.6
52.5,475.8,645.8,340.3,384.3,283.2,184.0,385.6,160.7
52.75,492.1,650.7,346.4,381.8,280.8,186.6,389.7,163.5
53.0,503.6,661.1,347.7,394.8,278.6,187.7,395.6,168.1
53.25,490.5,661.0,353.3,398.9,282.6,188.7,395.8,165.4
53.5,495.9,661.1,353.6,395.8,283.6,188.4,396.4,166.0
53.75,497.4,683.2,357.6,398.0,288.4,189.7,402.4,172.1
54.0,491.0,664.5,365.7,398.6,290.5,191.5,400.3,164.2
54.25,496.3,643.9,363.9,392.6,292.7,190.8,396.7,158.3
54.5,492.9,660.6,367.8,402.1,291.5,193.2,401.4,162.6
54.75,510.3,687.2,371.4,398.4,286.0,197.4,408.4,172.7
55.0,500.8,660.9,370.5,405.9,295.0,197.2,405.1,162.0
55.25,514.3,686.0,375.4,415.1,296.7,197.7,414.2,170.9
55.5,509.3,674.7,383.4,403.2,297.5,198.1,411.1,166.3
55.75,508.1,662.9,388.4,407.6,294.9,198.4,410.1,162.5
56.0,513.9,699.7,378.8,428.9,302.8,200.9,420.8,173.5
56.25,516.5,705.2,383.9,432.8,301.9,205.3,424.3,174.4
56.5,537.3,678.4,394.3,414.1,301.0,204.2,421.6,168.5
56.75,516.5,707.0,394.1,424.2,302.1,204.5,424.7,174.7
57.0,532.9,685.4,402.4,430.9,310.4,207.4,428.3,167.6
57.25,521.3,718.4,393.7,431.0,303.0,206.6,429.0,178.3
57.5,513.7,728.6,396.4,427.9,309.0,207.1,430.4,179.8
57.75,511.2,698.6,402.4,425.2,312.3,209.1,426.5,168.6
58.0,538.4,714.1,414.0,444.0,308.5,211.9,438.5,176.0
58.25,545.1,724.7,412.4,435.1,307.3,214.0,439.8,179.8
58.5,541.7,721.2,406.8,439.7,310.2,215.7,439.2,177.6
58.75,535.9,732.7,423.0,455.7,310.3,214.0,445.3,180.6
59.0,558.7,724.8,420.7,446.2,312.1,218.2,446.8,179.4
59.25,553.3,726.0,416.5,449.6,311.2,215.2,445.3,180.1
59.5,524.0,758.0,423.9,443.3,319.4,220.0,448.1,184.9
59.75,535.5,736.7,432.1,452.7,309.7,226.3,448.8,178.6
60.0,559.0,728.6,428.5,449.9,317.3,223.0,451.1,178.4
60.25,552.6,716.7,432.4,461.5,316.0,225.1,450.7,173.6
60.5,560.5,707.7,440.1,457.2,314.4,223.4,450.6,172.3
60.75,558.7,692.5,435.4,460.8,315.8,228.8,448.6,166.1
61.0,564.1,766.2,442.2,454.9,323.6,226.5,462.9,188.7
61.25,573.8,743.2,450.0,455.0,327.8,230.6,463.4,180.7
61.5,561.4,723.8,446.4,460.8,320.2,234.2,457.8,173.5
61.75,571.6,719.4,442.5,460.5,327.0,236.2,459.5,171.9
62.0,578.8,745.7,454.5,465.7,325.8,236.0,467.8,180.9
62.25,581.9,742.9,462.7,461.9,328.1,243.8,470.2,178.0
62.5,560.5,739.4,463.4,472.3,327.8,240.2,467.3,175.4
62.75,571.9,750.9,465.2,462.3,337.6,239.7,471.3,178.9
63.0,570.2,740.3,474.9,470.7,336.5,247.9,473.4,173.3
63.25,589.7,733.2,463.0,467.0,333.9,248.8,472.6,173.8
63.5,579.2,735.7,464.7,470.8,342.3,244.6,472.9,173.0
63.75,571.7,719.5,470.4,470.5,330.4,250.3,468.8,167.5
64.0,585.8,733.5,469.6,485.3,339.7,245.7,476.6,173.3
64.25,577.4,744.2,490.1,476.2,335.4,250.4,478.9,174.9
64.5,566.1,752.6,480.4,475.0,342.4,246.5,477.2,176.2
64.75,593.1,716.0,492.5,477.0,332.2,253.0,477.3,168.5
65.0,621.4,771.2,483.9,481.1,347.7,258.3,493.9,184.6
65.25,578.4,760.8,488.9,479.6,342.0,254.8,484.1,177.9
65.5,580.4,717.9,491.0,496.0,346.5,262.2,482.3,162.6
65.75,602.7,761.9,490.8,491.6,339.7,257.6,490.7,180.7
66.0,605.1,756.1,499.4,492.0,343.7,255.9,492.0,179.1
66.25,594.2,740.3,485.9,490.4,346.7,259.6,486.2,171.5
66.5,609.0,746.0,500.8,502.4,342.1,264.4,494.1,174.7
66.75,598.6,759.2,501.7,495.1,348.8,264.2,494.6,176.2
67.0,633.3,745.8,511.7,500.5,351.3,266.9,501.6,175.9
67.25,606.4,757.7,501.6,491.0,350.2,266.9,495.6,175.8
67.5,618.6,743.9,505.3,492.0,350.9,268.7,496.6,172.8
67.75,600.1,755.1,500.3,485.6,349.7,268.0,493.1,174.0
68.0,630.6,745.7,501.2,515.5,354.6,270.1,502.9,174.1
68.25,627.6,742.3,512.4,502.2,352.2,268.8,500.9,173.5
68.5,589.7,765.8,521.5,499.9,356.8,266.8,500.1,175.5
68.75,597.8,790.7,510.9,505.5,359.0,270.3,505.7,182.6
69.0,646.4,749.4,508.8,511.0,357.2,276.5,508.2,175.4
69.25,620.8,740.3,519.0,510.6,357.6,271.6,503.3,170.4
69.5,651.4,770.3,529.2,510.4,353.0,276.9,515.2,182.7
69.75,626.3,749.7,529.4,508.2,363.0,278.1,509.1,171.3
70.0,645.7,787.0,531.1,516.4,361.9,280.7,520.5,184.1
70.25,632.8,781.9,531.4,524.2,361.6,278.4,518.4,181.6
70.5,638.1,752.5,531.5,510.4,360.4,278.1,511.8,174.3
70.75,645.8,751.7,543.7,533.5,361.4,278.7,519.1,175.3
71.0,611.8,742.6,529.2,525.5,364.9,277.9,508.7,167.3
71.25,656.0,791.0,527.9,533.7,368.4,283.9,526.8,184.7
71.5,639.2,782.1,548.8,539.7,364.6,278.5,525.5,182.4
71.75,659.9,768.7,560.3,524.7,362.2,281.6,526.2,181.4
72.0,647.0,767.7,547.5,545.2,367.9,281.9,526.2,178.0
72.25,644.2,751.1,545.6,538.9,369.8,286.6,522.7,171.4
72.5,662.1,768.4,537.4,533.2,372.7,278.7,525.4,180.1
72.75,667.4,811.2,551.5,566.9,369.2,276.9,540.5,194.4
73.0,668.5,795.5,561.4,537.1,372.1,286.2,536.8,187.0
73.25,658.3,782.7,544.7,541.9,377.0,287.3,532.0,180.6
73.5,661.2,775.5,566.1,542.0,375.6,286.1,534.4,180.1
73.75,647.0,788.7,566.5,546.5,374.9,287.3,535.2,181.7
74.0,649.1,778.2,563.2,547.9,374.9,284.4,533.0,179.7
74.25,658.2,811.6,567.7,547.2,375.0,287.5,541.2,189.5
74.5,685.6,805.9,574.1,544.5,378.1,290.6,546.5,190.4
74.75,677.6,802.1,577.6,556.1,377.8,299.7,548.5,186.0
75.0,679.4,791.5,587.1,547.4,380.2,296.0,546.9,184.2
75.25,665.5,771.8,578.3,557.4,378.8,299.1,541.8,176.2
75.5,681.9,816.0,570.1,557.7,375.0,300.4,550.2,190.5
75.75,678.2,774.8,588.5,552.4,382.2,301.6,546.3,177.9
76.0,675.4,810.2,593.8,563.0,376.4,305.8,554.1,187.2
76.25,676.9,836.3,578.0,554.2,373.9,313.3,555.4,192.7
76.5,686.0,777.9,580.0,567.6,371.4,295.6,546.4,183.4
76.75,681.5,775.6,596.1,558.2,381.0,312.9,550.9,176.1
77.0,707.6,819.5,593.2,564.0,381.5,307.2,562.2,192.8
77.25,683.2,835.1,604.4,559.7,382.5,320.6,564.2,190.5
77.5,721.5,832.1,593.1,556.8,380.4,310.9,565.8,197.7
77.75,714.3,803.8,600.1,575.9,377.5,311.5,563.9,189.8
78.0,700.0,813.4,606.0,561.7,386.5,325.6,565.5,184.8
78.25,714.2,803.1,589.4,576.2,381.7,323.1,564.6,185.4
78.5,688.8,820.4,605.4,576.1,385.6,319.8,566.0,186.9
78.75,708.8,808.5,588.8,570.3,382.4,325.9,564.1,185.0
79.0,685.3,868.7,604.2,575.7,387.5,328.4,575.0,197.6
79.25,705.8,822.8,609.7,598.6,386.5,325.6,574.8,188.7
79.5,736.9,841.0,621.8,572.7,385.2,331.8,581.6,197.0
79.75,700.2,833.3,602.9,580.0,385.7,334.5,572.8,188.1
80.0,694.8,830.0,626.7,583.3,392.4,334.9,577.0,186.1
80.25,710.1,857.9,614.2,571.2,390.1,338.4,580.3,194.8
80.5,699.9,831.3,601.4,587.6,393.3,337.4,575.1,185.3
80.75,698.2,828.3,608.7,581.7,395.2,337.7,575.0,183.9
81.0,694.2,899.0,617.8,580.6,393.9,334.5,586.7,205.4
81.25,727.2,868.5,623.2,594.1,395.0,340.0,591.3,199.0
81.5,718.8,876.1,620.3,589.0,391.4,345.7,590.2,199.2
81.75,740.8,864.8,625.5,584.6,389.9,344.0,591.6,200.1
82.0,758.0,880.4,615.3,610.8,393.2,347.8,600.9,205.1
82.25,731.1,867.9,608.2,593.2,384.8,349.2,589.1,198.8
82.5,739.2,884.5,631.5,591.2,400.0,366.1,602.1,198.0
82.75,728.5,903.2,606.1,588.6,398.7,359.7,597.5,203.4
83.0,754.3,891.7,633.2,599.0,394.8,352.5,604.3,206.5
83.25,758.1,883.4,633.8,608.6,397.9,347.1,604.8,205.5
83.5,738.1,904.2,615.5,598.2,398.2,353.2,601.2,206.6
83.75,734.3,926.7,646.3,607.4,394.1,361.4,611.7,212.4
84.0,740.8,860.1,646.1,600.4,400.5,363.8,601.9,192.4
84.25,765.3,899.4,633.2,599.4,397.7,357.1,608.7,208.6
84.5,767.6,958.9,625.7,599.8,393.7,366.3,618.6,224.8
84.75,755.8,956.1,638.4,613.9,406.2,370.7,623.5,218.9
85.0,760.0,891.0,644.9,604.9,399.5,376.5,612.8,200.7
85.25,753.4,938.2,657.7,602.1,403.7,378.3,622.2,212.6
85.5,764.7,987.1,637.5,599.0,395.1,371.2,625.8,231.8
85.75,779.6,962.1,630.0,597.4,398.7,375.1,623.8,224.5
86.0,775.4,922.4,656.8,603.5,400.0,380.7,623.1,211.1
86.25,785.0,1002.5,647.5,596.6,401.0,367.6,633.4,238.9
86.5,759.3,928.9,640.0,615.8,396.0,382.4,620.4,210.7
86.75,773.5,967.6,656.0,613.0,408.9,389.3,634.7,220.1
87.0,736.6,1029.5,659.0,608.2,407.3,384.6,637.5,237.4
87.25,783.3,1043.0,632.7,609.2,407.2,382.4,643.0,246.8
87.5,772.9,995.6,665.0,636.1,407.8,387.6,644.2,229.0
87.75,733.0,971.9,663.5,619.6,405.2,386.8,630.0,218.4
88.0,765.0,1015.5,664.0,629.3,399.6,385.8,643.2,236.5
88.25,732.7,972.8,651.1,632.4,421.8,390.2,633.5,214.1
88.5,759.8,1012.0,642.6,630.4,409.5,406.0,643.4,228.3
88.75,777.5,957.7,655.8,630.6,403.5,399.0,637.3,216.4
89.0,783.4,999.1,656.6,628.0,408.2,398.8,645.7,228.8
89.25,753.0,1082.5,664.3,635.1,403.2,396.9,655.8,254.1
89.5,767.9,1044.1,675.1,634.1,405.9,400.6,654.6,241.5
89.75,791.1,1082.2,675.9,630.2,415.0,391.9,664.4,256.3
90.0,783.9,1013.7,654.0,620.3,411.1,402.4,647.6,232.2
90.25,781.3,963.0,666.5,641.4,419.1,397.1,644.7,215.7
90.5,778.3,993.2,679.8,635.3,411.0,400.9,649.7,225.6
90.75,798.3,983.1,669.9,660.7,413.7,401.2,654.5,224.1
91.0,778.1,1056.6,668.0,628.7,413.4,413.3,659.7,242.5
91.25,767.1,949.3,678.4,638.7,407.2,407.3,641.3,210.5
91.5,805.4,970.1,660.4,633.2,410.4,403.0,647.1,221.5
91.75,770.0,1077.3,670.6,637.9,419.4,417.0,665.4,246.4
92.0,786.3,1082.3,672.6,648.6,417.1,427.7,672.4,247.6
92.25,823.1,1104.9,695.5,644.6,412.1,427.8,684.7,259.9
92.5,807.0,1112.8,660.6,669.0,422.3,417.5,681.5,260.5
92.75,789.2,1073.0,678.1,645.4,415.4,412.9,669.0,248.3
93.0,793.1,1088.2,685.5,634.5,410.7,409.0,670.2,255.7
93.25,771.5,1064.9,662.7,657.5,416.1,424.7,666.2,241.3
93.5,803.4,1100.7,698.5,651.1,421.2,419.2,682.3,256.2
93.75,820.8,1090.6,696.7,657.5,416.2,425.1,684.5,254.4
94.0,806.2,1177.3,672.4,661.0,423.0,418.4,693.1,281.8
94.25,821.1,1133.8,691.1,663.7,417.7,418.1,690.9,269.4
94.5,866.3,1147.0,691.0,661.3,416.4,423.3,700.9,277.8
94.75,816.0,1159.0,696.6,652.8,427.6,428.6,696.8,273.6
95.0,837.2,1221.0,682.3,673.9,415.4,429.8,709.9,298.2
95.25,860.4,1187.4,691.7,690.3,430.7,419.8,713.4,287.5
95.5,806.8,1097.0,684.1,675.7,429.8,425.4,686.5,251.9
95.75,875.5,1113.7,687.9,663.9,437.5,439.0,702.9,260.9
96.0,853.7,1189.5,697.0,666.7,427.7,424.0,709.8,287.8
96.25,886.6,1126.7,698.1,664.8,422.1,432.4,705.1,270.9
96.5,871.3,1106.4,693.9,678.9,424.0,442.7,702.9,259.7
96.75,831.2,1283.4,718.5,672.5,427.4,439.2,728.7,314.9
97.0,837.8,1135.6,697.2,694.7,428.2,435.0,704.8,265.6
97.25,888.0,1214.4,711.2,662.5,430.6,435.2,723.7,296.9
97.5,866.4,1215.5,697.0,679.9,425.6,441.3,720.9,294.4
97.75,872.0,1171.9,697.5,690.4,430.5,439.3,716.9,279.7
98.0,828.7,1369.6,700.2,700.9,429.9,437.6,744.5,344.9
98.25,859.3,1197.6,706.7,680.6,435.8,449.4,721.6,284.0
98.5,897.3,1213.2,709.8,677.2,438.4,439.5,729.3,294.7
98.75,933.4,1247.4,718.3,693.1,434.8,444.7,745.3,309.1
99.0,851.8,1327.4,708.5,694.1,432.2,444.4,743.1,329.5
99.25,895.7,1279.7,727.6,697.7,427.2,448.0,746.0,316.3
99.5,884.6,1307.7,707.7,690.0,438.8,451.5,746.7,322.6
99.75,883.4,1267.3,715.7,702.6,434.5,450.7,742.4,309.1
100.0,871.0,1341.4,713.0,683.9,447.3,447.2,750.6,332.7
100.25,898.5,1241.2,734.7,685.0,438.4,445.9,740.6,302.3
100.5,895.1,1269.1,726.7,696.7,440.9,453.5,747.0,309.0
100.75,873.0,1324.4,750.0,696.5,437.3,444.9,754.3,328.2
101.0,866.0,1391.2,719.0,697.9,434.7,445.4,759.0,352.1
101.25,895.8,1328.9,753.3,697.5,443.1,448.6,761.2,329.7
101.5,913.1,1283.2,714.1,674.7,440.5,437.9,743.9,319.6
101.75,847.3,1222.5,733.9,703.8,439.9,450.1,732.9,289.6
102.0,920.3,1230.9,733.8,731.7,449.1,456.0,753.6,295.9
102.25,936.3,1227.8,730.1,705.6,434.1,456.3,748.4,300.5
102.5,915.7,1331.1,731.4,703.1,435.8,454.1,761.9,332.6
102.75,917.4,1412.3,761.5,714.9,452.4,465.0,787.3,354.8
103.0,974.8,1351.7,743.9,715.0,453.9,457.3,782.8,340.8
103.25,929.3,1405.9,727.8,726.7,429.8,467.1,781.1,357.8
103.5,931.4,1244.2,719.6,711.0,454.1,457.4,752.9,300.9
103.75,950.2,1365.9,730.2,742.7,449.9,456.3,782.5,343.5
104.0,875.9,1350.4,743.5,708.7,448.0,462.3,764.8,331.9
104.25,930.3,1263.8,765.2,727.7,440.2,460.1,764.6,308.5
104.5,914.8,1282.9,743.8,710.0,452.4,453.9,759.6,312.5
104.75,1020.5,1340.0,739.9,726.1,441.5,452.7,786.8,345.7
105.0,1010.0,1332.7,752.8,740.9,445.1,465.9,791.2,337.9
105.25,935.9,1456.7,757.3,734.6,446.0,455.0,797.6,374.2
105.5,976.6,1447.8,739.9,727.0,457.9,458.6,801.3,372.4
105.75,974.6,1192.2,756.4,710.9,461.4,469.1,760.8,286.0
106.0,981.7,1445.5,745.4,729.2,456.3,464.7,803.8,371.0
106.25,992.5,1264.9,747.5,737.0,461.2,460.3,777.2,312.1
106.5,981.4,1416.7,750.5,737.8,457.8,455.3,799.9,362.1
106.75,1006.8,1318.7,753.7,721.6,457.7,458.8,786.2,332.4
107.0,1026.8,1379.9,778.0,749.5,468.8,470.4,812.2,348.8
107.25,997.6,1421.4,780.9,740.6,465.7,464.6,811.8,361.2
107.5,975.2,1489.9,765.4,736.5,465.8,458.8,815.3,384.4
107.75,1083.5,1364.5,780.9,726.3,473.2,465.2,815.6,352.7
108.0,964.2,1406.2,784.6,717.9,462.1,476.1,801.8,352.3
108.25,968.0,1368.3,788.6,746.7,458.3,465.8,799.3,341.3
108.5,974.5,1424.8,779.8,766.8,460.8,469.3,812.6,359.4
108.75,994.1,1297.5,773.3,744.2,473.2,480.8,793.9,315.4
109.0,1064.8,1364.3,808.9,733.0,465.9,470.0,817.8,349.8
109.25,1141.1,1351.0,797.9,735.2,466.3,483.8,829.2,355.1
109.5,976.4,1269.8,792.5,735.7,470.0,474.9,786.5,306.4
109.75,1003.1,1541.7,812.5,735.6,481.6,468.8,840.5,399.2
110.0,970.0,1243.6,786.9,729.8,469.0,470.1,778.2,298.8
110.25,1010.5,1461.4,817.7,739.7,477.0,475.2,830.2,371.5
110.5,1013.6,1343.0,793.4,721.4,480.8,484.7,806.2,331.0
110.75,1078.6,1231.4,810.9,762.1,484.3,479.8,807.9,305.6
111.0,1054.4,1369.1,809.6,751.6,480.9,472.5,823.0,345.5
111.25,1035.2,1419.8,815.7,748.4,486.1,481.5,831.1,356.8
111.5,1024.2,1417.0,826.7,736.5,489.4,475.1,828.1,355.8
111.75,1090.7,1375.2,783.2,761.2,482.4,489.2,830.3,349.0
112.0,996.0,1404.0,801.3,762.8,491.1,480.0,822.6,346.2
112.25,1116.0,1259.1,812.2,757.7,478.7,487.3,818.5,319.9
112.5,1086.9,1312.0,841.6,770.4,500.6,484.3,832.6,325.6
112.75,1141.2,1325.3,825.2,744.6,483.5,484.7,834.1,343.1
113.0,1024.8,1388.2,832.5,784.0,484.9,486.4,833.5,343.2
113.25,1176.5,1422.5,837.6,783.2,500.4,494.8,869.2,370.2
113.5,1010.9,1231.8,811.6,759.1,498.3,482.9,799.1,291.3
113.75,1148.4,1371.3,833.9,762.3,484.6,504.6,850.9,352.6
114.0,1117.4,1311.8,832.0,755.8,493.1,494.4,834.1,330.6
114.25,1120.7,1335.9,825.2,769.3,491.6,487.6,838.4,339.3
114.5,1148.7,1341.6,813.8,767.5,495.5,490.6,843.0,344.5
114.75,1098.2,1430.9,828.0,767.6,506.9,491.1,853.8,361.3
115.0,1110.2,1306.7,836.8,788.7,501.0,513.1,842.8,321.0
115.25,1036.2,1341.8,859.4,794.3,508.1,504.4,840.7,321.1
115.5,1211.8,1325.7,879.3,781.0,499.5,511.5,868.1,345.9
115.75,1062.8,1348.0,841.6,783.4,519.2,492.8,841.3,326.9
116.0,1145.6,1300.3,846.1,786.7,494.8,501.8,845.9,329.1
116.25,1092.9,1359.9,840.5,792.7,500.3,491.3,846.3,338.6
116.5,1148.1,1245.3,846.2,812.8,502.0,513.4,844.6,310.1
116.75,1121.6,1247.5,861.5,777.9,510.7,500.2,836.6,307.7
117.0,1247.0,1209.1,841.9,781.3,521.9,501.0,850.3,322.7
117.25,1086.3,1197.5,867.6,762.6,508.3,504.3,821.1,288.4
117.5,1154.1,1264.7,851.4,807.1,509.0,498.5,847.5,318.2
117.75,1156.8,1342.6,854.3,813.0,512.4,507.0,864.4,337.2
118.0,1181.8,1195.6,877.1,797.9,525.1,515.2,848.8,300.2
118.25,1089.6,1215.3,862.5,764.2,517.0,504.5,825.5,291.6
118.5,1316.8,1168.1,882.5,793.1,522.1,505.8,864.7,331.1
118.75,1057.8,1206.8,885.2,802.1,519.3,526.9,833.0,277.9
119.0,1190.6,1245.1,872.8,801.3,521.1,528.9,860.0,311.7
119.25,1067.9,1151.1,890.7,781.1,523.2,498.6,818.7,271.6
119.5,1062.9,1250.9,879.2,778.6,517.3,511.0,833.3,295.3
119.75,1242.1,1179.9,895.3,804.0,529.8,509.8,860.2,311.3
120.0,1126.7,1167.1,836.3,780.2,537.1,532.0,829.9,275.3
120.25,1174.5,1153.7,883.8,802.8,525.4,507.0,841.2,291.0
120.5,1206.4,1122.0,890.9,772.8,544.0,516.6,842.1,287.4
120.75,1215.1,1111.7,867.6,804.6,531.9,516.1,841.2,288.6
121.0,1121.9,1093.2,885.8,783.4,528.0,524.7,822.8,262.2
121.25,1296.5,1153.3,915.5,824.4,529.1,542.9,877.0,312.8
121.5,1177.8,1061.4,881.7,786.1,537.4,519.8,827.4,268.7
121.75,1131.5,1041.0,866.7,813.4,535.9,525.7,819.0,251.2
122.0,1151.3,1071.8,858.1,779.8,536.5,537.7,822.6,259.3
122.25,1217.5,1053.3,898.5,804.9,548.9,525.1,841.4,274.4
122.5,1261.9,1049.5,902.0,841.6,550.4,529.6,855.9,284.4
122.75,1267.1,1027.5,877.8,778.8,534.3,526.3,835.3,287.9
123.0,1271.2,988.7,874.8,814.3,542.3,527.5,836.5,281.5
123.25,1143.7,990.6,881.6,810.4,556.4,537.6,820.1,239.6
123.5,1233.0,988.3,905.2,811.3,551.8,525.6,835.9,269.6
123.75,1218.6,958.4,892.2,826.4,552.8,533.9,830.4,259.2
124.0,1196.1,911.9,885.8,808.6,542.4,531.2,812.7,250.8
124.25,1236.1,898.7,861.7,820.2,548.5,542.9,818.0,257.5
124.5,1142.1,893.2,934.0,820.8,558.5,538.4,814.5,232.2
124.75,1240.3,875.5,951.8,840.2,549.4,532.6,831.6,265.5
125.0,1254.3,838.8,911.4,832.5,551.5,532.8,820.2,265.3
125.25,1165.1,819.3,880.0,811.0,564.9,536.7,796.1,230.1
125.5,1274.4,783.5,911.5,836.1,554.0,537.2,816.1,271.0
125.75,1253.5,752.8,904.2,815.2,568.0,532.4,804.4,262.4
126.0,1283.5,734.5,911.9,862.4,544.9,546.1,813.9,276.7
126.25,1354.9,697.9,936.3,835.8,540.8,550.7,819.4,305.1
126.5,1410.8,699.3,904.5,810.4,553.5,528.2,817.8,324.6
126.75,1370.6,652.9,917.5,815.8,564.1,537.2,809.7,311.6
127.0,1230.2,635.6,876.3,821.8,572.1,540.5,779.4,258.9
127.25,1309.5,612.8,892.0,830.2,564.8,539.0,791.4,292.2
127.5,1363.0,588.2,940.1,801.7,571.2,548.1,802.1,315.4
127.75,1251.0,567.2,939.7,834.7,566.6,545.1,784.0,281.5
128.0,1309.7,552.2,930.1,861.1,579.9,546.2,796.6,301.5
128.25,1350.3,520.8,925.7,827.5,545.4,542.2,785.3,324.7
128.5,1408.5,510.4,939.4,829.2,568.9,543.3,799.9,344.6
128.75,1330.7,495.9,915.3,830.2,563.0,547.3,780.4,318.1
129.0,1378.8,476.2,934.8,811.2,578.4,547.2,787.8,337.7
129.25,1258.1,464.5,938.1,858.3,563.5,571.3,775.6,299.9
129.5,1358.1,445.9,944.5,844.3,553.1,550.4,782.7,340.9
129.75,1318.9,433.0,920.6,866.4,556.6,544.7,773.4,329.6
130.0,1479.0,416.4,910.0,839.3,568.2,551.2,794.0,384.0
130.25,1338.2,409.8,944.4,867.5,579.9,551.9,781.9,339.2
130.5,1261.5,390.0,924.9,837.3,572.4,555.0,756.9,315.8
130.75,1332.3,377.2,942.3,822.9,580.7,547.1,767.1,343.0
131.0,1337.7,372.0,932.1,842.3,575.2,544.8,767.4,346.6
131.25,1446.0,352.8,955.6,892.9,562.1,552.1,793.6,391.9
131.5,1303.6,341.6,957.1,837.6,576.0,545.0,760.2,345.1
131.75,1299.6,334.1,957.4,843.2,585.6,577.6,766.3,341.2
132.0,1490.7,328.7,986.6,858.4,574.1,567.1,800.9,410.5
132.25,1392.3,317.6,974.6,866.9,580.4,554.4,781.0,380.8
132.5,1325.4,310.1,929.8,832.4,599.2,547.4,757.4,354.2
132.75,1410.8,296.5,998.1,853.7,596.1,564.0,786.5,391.1
133.0,1409.3,285.5,991.8,861.5,595.8,561.6,784.2,393.3
133.25,1215.3,283.4,936.6,873.8,578.4,545.1,738.8,333.2
133.5,1322.1,266.5,962.7,847.6,590.0,551.6,756.7,368.9
133.75,1366.2,,995.3,900.0,576.5,569.8,881.5,331.1
134.0,1342.5,,1004.8,846.0,583.7,560.1,867.4,324.0
134.25,1479.5,,972.2,821.2,600.2,555.3,885.7,372.4
134.5,1453.2,,980.8,875.1,603.6,565.4,895.6,358.1
134.75,1378.1,,950.7,885.0,586.1,562.1,872.4,331.8
135.0,1459.1,,956.0,859.1,587.2,577.7,887.8,360.0
135.25,1370.3,,980.0,844.7,600.2,569.4,872.9,326.4
135.5,1430.4,,960.3,873.5,592.8,586.1,888.6,345.7
135.75,1345.0,,1007.3,864.2,599.9,575.2,878.3,317.8
136.0,1567.7,,1030.5,860.2,617.9,578.2,930.9,400.9
136.25,1329.9,,979.1,888.7,594.1,577.5,873.9,310.4
136.5,1526.4,,969.0,866.7,587.5,601.9,910.3,382.2
136.75,1280.0,,1014.3,856.3,598.7,589.3,867.7,292.2
137.0,1532.4,,1045.8,890.5,592.5,589.7,930.2,389.8
137.25,1309.0,,1044.6,855.8,608.9,571.2,877.9,308.5
137.5,1596.2,,1022.6,856.9,606.7,558.7,928.2,418.4
137.75,1269.5,,1007.0,880.5,600.7,595.5,870.6,285.7
138.0,1429.8,,1016.0,874.9,607.3,575.1,900.6,348.6
138.25,1364.8,,970.1,862.5,594.3,572.6,872.9,323.8
138.5,1438.3,,1041.3,858.5,614.0,575.1,905.5,353.1
138.75,1406.0,,1027.3,880.4,625.9,596.0,907.1,331.6
139.0,1432.1,,979.0,889.3,584.5,582.9,893.6,349.8
139.25,1404.9,,996.6,880.7,613.4,587.8,896.7,333.2
139.5,1465.1,,1016.8,869.7,614.2,576.6,908.5,360.5
139.75,1463.7,,1017.4,854.2,622.1,585.2,908.5,356.9
140.0,1383.0,,979.2,885.0,613.5,606.7,893.5,319.2
140.25,1381.5,,1031.5,933.0,609.9,603.2,911.8,324.7
140.5,1461.8,,1070.1,891.3,632.0,574.7,926.0,360.2
140.75,1380.3,,1040.6,928.7,636.0,572.5,911.6,326.9
141.0,1502.7,,1061.3,872.4,641.0,587.0,932.9,370.7
141.25,1350.1,,1044.9,883.4,632.4,599.4,902.0,310.6
141.5,1431.9,,1033.1,949.9,624.9,602.6,928.5,340.3
141.75,1361.7,,1074.6,914.7,615.5,609.1,915.1,319.5
142.0,1543.7,,1046.4,910.1,632.4,580.6,942.6,387.4
142.25,1303.3,,1063.3,865.9,609.3,584.8,885.3,305.5
142.5,1398.7,,1058.2,895.7,645.8,594.4,918.6,327.9
142.75,1440.6,,1080.8,890.6,629.6,603.4,929.0,347.1
143.0,1447.5,,1102.5,956.2,632.3,617.0,951.1,347.3
143.25,1463.8,,1039.2,885.6,640.9,590.2,923.9,352.7
143.5,1339.9,,1073.4,933.9,655.2,590.4,918.5,307.7
143.75,1410.0,,1136.9,891.5,620.3,586.7,929.1,349.5
144.0,1395.8,,1080.5,901.5,628.8,600.3,921.4,331.5
144.25,1476.4,,1113.9,882.5,637.2,610.6,944.1,361.0
144.5,1424.0,,1127.1,944.4,640.5,610.0,949.2,341.8
144.75,1507.8,,1125.1,899.5,642.5,616.3,958.2,370.8
145.0,1391.5,,1106.8,870.2,657.1,606.2,926.3,326.8
145.25,1476.9,,1062.6,924.3,647.3,604.9,943.2,354.1
145.5,1324.2,,1079.8,900.3,656.1,587.1,909.5,303.8
145.75,1434.2,,1087.9,877.1,657.8,621.2,935.6,335.9
146.0,1357.8,,1114.3,907.7,651.5,597.3,925.7,318.4
146.25,1417.7,,1114.1,1001.2,648.5,591.3,954.6,342.0
146.5,1344.9,,1115.4,908.5,640.2,629.4,927.7,308.7
146.75,1296.9,,1121.3,939.1,656.5,596.2,922.0,298.8
147.0,1407.4,,1148.8,902.1,624.3,603.6,937.2,345.1
147.25,1352.5,,1103.7,968.7,639.2,620.0,936.8,312.5
147.5,1324.6,,1139.5,928.5,664.0,605.6,932.4,306.4
147.75,1344.5,,1117.8,941.6,652.2,609.4,933.1,311.1
148.0,1414.5,,1096.6,937.8,653.1,617.2,943.8,330.2
148.25,1373.6,,1122.6,917.1,654.0,627.3,939.0,316.8
148.5,1286.8,,1109.9,924.0,680.2,626.2,925.4,280.3
148.75,1269.7,,1126.5,931.7,653.3,616.4,919.5,286.5
149.0,1268.1,,1115.6,942.3,655.2,609.5,918.1,285.7
149.25,1352.4,,1162.8,902.5,655.8,599.8,934.7,323.1
149.5,1256.9,,1067.2,919.3,677.3,638.1,911.8,261.3
149.75,1300.5,,1144.2,961.1,660.9,629.5,939.3,294.3
150.0,1310.6,,1149.8,918.1,654.0,628.3,932.2,300.2
150.25,1339.3,,1070.5,953.1,651.2,617.3,926.3,301.4
150.5,1299.6,,1124.7,941.0,681.2,621.5,933.6,287.9
150.75,1278.8,,1141.2,913.3,652.6,615.2,920.2,292.4
151.0,1188.7,,1160.9,942.8,665.2,622.0,915.9,266.6
151.25,1297.0,,1108.3,938.8,671.8,646.0,932.4,280.1
151.5,1250.4,,1141.3,944.8,674.3,628.2,927.8,275.6
151.75,1196.7,,1165.6,918.9,671.2,630.4,916.5,265.8
152.0,1181.0,,1082.1,949.4,685.0,627.4,905.0,242.4
152.25,1237.9,,1137.4,961.3,669.2,614.7,924.1,276.6
152.5,1230.3,,1176.5,952.6,674.6,608.9,928.6,282.8
152.75,1224.9,,1144.2,956.2,670.6,643.9,928.0,265.8
153.0,1148.0,,1142.3,934.7,685.2,650.3,912.1,239.4
153.25,1195.2,,1148.6,944.2,668.3,642.4,919.8,259.3
153.5,1210.0,,1146.7,983.2,669.0,632.7,928.3,266.8
153.75,1210.3,,1127.3,982.6,686.3,647.4,930.8,254.7
154.0,1188.1,,1149.2,929.3,686.9,619.6,914.6,259.3
154.25,1221.4,,1256.3,960.6,690.0,643.5,954.3,286.8
154.5,1165.9,,1182.4,975.2,690.9,651.2,933.1,253.1
154.75,1145.8,,1130.9,974.1,692.6,634.2,915.5,240.7
155.0,1153.9,,1143.0,998.9,684.7,645.2,925.1,245.7
155.25,1141.9,,1216.0,959.8,666.6,629.2,922.7,268.0
155.5,1070.9,,1195.4,1013.6,692.4,638.2,922.1,244.2
155.75,1151.9,,1217.8,968.3,708.6,654.2,940.2,254.0
156.0,1119.0,,1216.8,1042.6,681.7,644.6,941.0,261.3
156.25,1120.3,,1196.0,993.7,685.4,640.2,927.1,252.4
156.5,1088.1,,1144.3,1006.4,694.8,638.2,914.3,232.4
156.75,1104.8,,1163.3,953.9,669.0,688.3,915.9,229.7
157.0,1102.1,,1186.3,965.1,708.7,644.2,921.3,238.1
157.25,1060.0,,1194.6,1023.8,687.2,652.0,923.5,240.7
157.5,1058.5,,1207.0,969.1,686.2,634.3,911.0,244.9
157.75,1024.0,,1202.4,981.7,719.4,641.9,913.9,230.1
158.0,1016.2,,1198.6,971.3,678.6,656.7,904.3,232.3
158.25,1011.8,,1253.8,955.8,671.7,637.9,906.2,255.6
158.5,1009.4,,1123.9,1021.5,704.4,659.4,903.7,207.9
158.75,986.8,,1306.2,1039.8,698.4,653.2,936.9,267.8
159.0,977.4,,1213.9,959.8,709.0,658.8,903.8,225.1
159.25,978.1,,1198.9,1017.6,669.6,664.8,905.8,233.2
159.5,999.0,,1217.3,1067.1,690.3,668.5,928.4,240.8
159.75,938.9,,1238.1,997.3,706.5,647.6,905.7,237.8
160.0,910.5,,1264.2,1005.1,697.7,659.8,907.5,246.0
160.25,904.7,,1211.8,1006.4,716.9,656.7,899.3,224.3
160.5,892.5,,1288.7,1012.1,708.4,663.5,913.0,252.7
160.75,932.7,,1258.2,989.5,698.3,649.8,905.7,245.2
161.0,895.2,,1160.0,1036.1,733.8,677.0,900.4,202.2
161.25,872.3,,1311.0,977.5,697.2,657.1,903.0,262.6
161.5,838.3,,1237.6,1047.6,684.1,679.7,897.5,242.2
161.75,850.6,,1239.2,991.0,710.4,657.8,889.8,234.5
162.0,837.6,,1300.6,1006.1,710.4,685.4,908.0,253.6
162.25,829.3,,1216.8,1037.3,689.2,661.7,886.8,237.0
162.5,803.5,,1218.7,1022.3,724.5,674.8,888.7,227.4
162.75,805.3,,1284.1,1020.1,712.2,667.8,897.9,255.0
163.0,771.5,,1235.5,1008.6,714.9,653.5,876.8,241.5
163.25,795.1,,1217.0,1033.7,710.8,707.3,892.8,224.7
163.5,757.0,,1223.9,1081.5,720.8,647.8,886.2,251.5
163.75,781.2,,1163.8,1088.9,720.0,686.9,888.2,221.6
164.0,751.5,,1246.8,1013.7,751.4,679.4,888.5,237.4
164.25,740.6,,1333.8,1085.3,719.7,682.1,912.3,286.0
164.5,721.7,,1275.7,992.9,716.0,671.0,875.4,257.3
164.75,712.6,,1277.2,1066.9,734.7,695.1,897.3,262.0
165.0,677.1,,1298.8,1106.0,760.8,682.1,905.0,281.9
165.25,677.7,,1227.1,986.7,719.7,668.8,856.0,245.1
165.5,668.1,,1279.4,1001.2,719.0,672.4,868.0,268.0
165.75,638.9,,1273.7,1026.7,733.6,691.4,872.9,269.9
166.0,629.2,,1281.4,1006.8,714.3,682.0,862.7,276.3
166.25,626.3,,1278.3,1002.1,730.0,680.1,863.4,273.4
166.5,600.0,,1369.3,1046.9,741.2,699.1,891.3,315.0
166.75,586.9,,1253.7,1064.4,731.5,687.6,864.8,281.7
167.0,569.5,,1387.3,1104.1,749.4,685.8,899.2,338.0
167.25,556.0,,1233.4,1038.9,742.3,711.0,856.3,273.8
167.5,533.8,,1422.4,1040.8,720.8,686.1,880.8,354.6
167.75,525.5,,1242.4,1006.3,773.2,716.7,852.8,277.2
168.0,501.1,,1274.3,1002.7,742.2,676.8,839.4,302.5
168.25,491.1,,1315.2,1033.7,741.6,691.8,854.7,322.3
168.5,477.0,,1350.3,1035.1,754.4,700.6,863.5,337.0
168.75,454.5,,1235.5,1081.6,750.1,708.0,845.9,311.8
169.0,444.2,,1339.2,1005.6,734.0,689.8,842.6,341.7
169.25,429.3,,1266.8,1055.1,727.2,692.1,834.1,328.4
169.5,428.1,,1342.8,1073.1,742.7,696.5,856.6,355.5
169.75,409.6,,1284.9,1027.5,744.6,711.5,835.7,333.1
170.0,392.3,,1329.4,988.6,739.7,695.5,829.1,350.9
170.25,384.9,,1336.8,1011.4,725.2,705.5,832.8,358.6
170.5,366.0,,1356.6,1000.8,712.3,686.2,824.4,372.9
170.75,360.4,,1380.6,1022.7,730.2,699.9,838.8,383.2
171.0,347.8,,1413.8,1043.5,719.0,684.1,841.6,403.7
171.25,337.8,,1330.4,1063.1,731.3,709.5,834.4,377.9
171.5,323.1,,1315.1,989.4,769.8,684.0,816.3,368.0
171.75,311.7,,1325.1,1038.5,748.2,709.4,826.6,380.3
172.0,303.3,,1315.4,1029.5,741.0,704.1,818.7,379.5
172.25,294.9,,1312.3,989.0,745.6,678.3,804.0,377.8
172.5,287.6,,1328.2,1066.9,725.7,695.9,820.9,395.9
172.75,278.0,,1361.4,1105.4,727.0,701.2,834.6,415.4
173.0,267.1,,1317.9,1010.1,732.5,702.5,806.0,390.6
173.25,261.3,,1372.7,1065.0,764.7,710.3,834.8,415.8
173.5,246.8,,1359.9,998.8,753.6,708.6,813.5,408.9
173.75,244.4,,1350.7,1039.1,736.2,733.6,820.8,410.9
174.0,240.0,,1331.3,1070.6,719.2,711.8,814.6,413.0
174.25,227.2,,1482.2,1072.8,768.4,690.6,848.2,466.1
174.5,226.7,,1287.1,1062.7,771.0,708.5,811.2,401.1
174.75,218.4,,1277.9,1027.0,742.5,690.0,791.2,397.8
175.0,212.3,,1288.3,1026.6,756.5,747.5,806.2,399.9
175.25,207.0,,1205.9,999.0,739.4,684.4,767.1,376.7
175.5,203.6,,1380.4,1025.9,758.6,714.5,816.6,433.4
175.75,200.1,,1365.6,1040.1,766.0,701.0,814.6,432.2
176.0,191.5,,1394.0,1026.4,790.9,703.8,821.3,442.0
176.25,189.5,,1338.6,1072.5,762.8,719.9,816.7,431.1
176.5,186.9,,1410.7,1032.7,780.2,707.4,823.6,449.8
176.75,182.3,,1355.9,999.6,794.6,726.2,811.7,428.7
177.0,181.4,,1394.8,1026.6,749.1,711.0,812.6,446.5
177.25,177.3,,1286.6,1072.5,790.6,716.4,808.7,420.0
177.5,175.1,,1349.9,1047.3,771.9,710.7,811.0,436.5
177.75,173.2,,1341.4,1013.6,767.6,711.1,801.3,430.3
178.0,170.5,,1413.7,1033.9,761.7,728.0,821.6,456.1
178.25,167.7,,1378.6,1063.2,748.1,728.9,817.3,450.0
178.5,164.8,,1255.1,1115.9,758.0,736.8,806.1,423.1
178.75,165.3,,1340.3,1041.0,768.9,722.1,807.5,435.8
179.0,163.3,,1384.0,1029.5,790.9,709.3,815.4,449.0
179.25,160.6,,1338.8,1087.7,789.3,735.9,822.5,442.6
179.5,160.2,,1353.9,1032.8,802.0,761.5,822.1,438.6