File: 01_Data/HIPS/MCC/HIPS_MCC_30K_min_211021_R3.txt
Sample ID:	C:\MCC\MCC Cal\Test\PlasticB_MCC_30K_min_211021_R3.txt
Sample Weight (mg):	4.83
Heating Rate (C/s):	0.5
Combustor Temp (C):	900
N2 Flow Rate (cc/min):	80
O2 Flow Rate (cc/min):	20
Calibration File:	C:\MCC\MCC Cal\Coeff1 JN10440_30_210304.txt.txt
T Correction Coefficients:	0	1.024463	0
Time Shift (s):	14
*
Time (s)	Temperature (C)	N2 flow rate (cc/min)	O2 flow rate (cc/min)	Flow Rate (cc/min)	Oxygen (%)	HRR (W/g)	Heating rate (C/s)
-0.001	107.450	79.999	19.995	103.020	20.390	-0.341	-0.009
2.000	107.445	80.003	19.995	103.026	20.385	-0.020	-0.029
4.000	107.431	79.999	19.995	103.012	20.383	0.135	-0.030
6.000	107.443	79.997	19.995	103.024	20.387	-0.157	0.020
8.000	107.438	80.001	19.996	103.012	20.389	-0.249	-0.006
9.999	107.391	79.999	19.995	103.025	20.380	0.337	0.004
12.000	107.417	79.995	19.995	103.057	20.381	0.273	0.015
13.998	107.386	80.001	19.995	103.075	20.377	0.526	-0.011
15.999	107.448	80.004	19.995	103.057	20.379	0.376	-0.021
17.998	107.496	80.001	19.996	103.086	20.375	0.690	0.031
19.999	107.536	80.001	19.994	103.114	20.370	0.978	0.025
21.999	107.608	80.005	19.995	103.123	20.371	0.948	0.039
23.998	107.714	80.002	19.995	103.124	20.369	1.080	0.045
25.999	107.815	80.001	19.994	103.153	20.364	1.421	0.053
27.999	107.953	79.996	19.996	103.176	20.359	1.731	0.081
29.998	108.184	79.999	19.995	103.194	20.355	2.008	0.130
31.999	108.386	79.997	19.996	103.194	20.350	2.316	0.112
34.000	108.623	79.998	19.996	103.195	20.350	2.322	0.142
35.998	108.922	80.001	19.996	103.205	20.345	2.667	0.136
37.998	109.260	80.000	19.996	103.214	20.348	2.485	0.179
39.999	109.532	80.001	19.997	103.204	20.347	2.512	0.147
41.999	109.907	80.002	19.996	103.209	20.348	2.471	0.193
44.000	110.260	80.002	19.996	103.206	20.346	2.577	0.179
45.999	110.634	80.004	19.997	103.219	20.346	2.628	0.159
47.999	111.078	80.000	19.997	103.232	20.342	2.854	0.201
50.000	111.473	79.999	19.997	103.225	20.341	2.944	0.179
52.000	111.921	80.001	19.997	103.207	20.340	3.023	0.227
53.999	112.410	80.003	19.996	103.230	20.341	2.941	0.233
55.998	112.892	80.001	19.996	103.212	20.341	2.967	0.257
57.998	113.342	80.000	19.996	103.218	20.343	2.819	0.218
60.000	113.845	80.000	19.996	103.223	20.342	2.887	0.219
61.999	114.351	80.000	19.996	103.220	20.340	3.031	0.225
63.999	114.904	80.001	19.997	103.232	20.339	3.057	0.266
65.998	115.454	80.001	19.997	103.233	20.339	3.074	0.293
67.999	116.037	80.002	19.996	103.235	20.338	3.122	0.277
70.000	116.604	80.002	19.995	103.235	20.335	3.306	0.287
71.999	117.213	80.001	19.994	103.238	20.333	3.491	0.324
74.000	117.880	80.000	19.996	103.243	20.336	3.266	0.348
75.998	118.473	80.000	19.995	103.241	20.335	3.358	0.320
77.999	119.132	80.000	19.995	103.239	20.334	3.408	0.317
79.998	119.772	80.000	19.996	103.236	20.335	3.341	0.346
81.998	120.463	80.000	19.994	103.236	20.334	3.392	0.337
83.998	121.150	80.000	19.996	103.235	20.333	3.478	0.336
85.999	121.827	79.998	19.995	103.234	20.333	3.462	0.348
87.998	122.565	80.001	19.997	103.237	20.337	3.200	0.356
90.000	123.301	80.000	19.995	103.243	20.337	3.231	0.353
91.999	124.008	80.000	19.996	103.240	20.338	3.167	0.349
94.000	124.752	80.000	19.996	103.251	20.336	3.281	0.375
95.999	125.500	80.000	19.997	103.244	20.336	3.291	0.387
97.999	126.214	79.999	19.995	103.256	20.334	3.410	0.367
99.999	127.006	80.000	19.996	103.263	20.334	3.395	0.364
101.999	127.811	80.002	19.997	103.258	20.334	3.414	0.409
103.999	128.581	80.000	19.995	103.259	20.332	3.540	0.385
106.000	129.368	80.000	19.995	103.259	20.331	3.582	0.376
108.000	130.195	80.000	19.995	103.265	20.331	3.610	0.383
110.000	130.980	80.001	19.996	103.254	20.334	3.438	0.405
111.999	131.820	80.001	19.995	103.257	20.326	3.942	0.393
113.998	132.666	80.000	19.996	103.275	20.329	3.765	0.409
115.999	133.509	79.999	19.997	103.259	20.332	3.512	0.379
117.999	134.358	79.999	19.996	103.270	20.330	3.652	0.378
120.000	135.232	80.001	19.995	103.270	20.331	3.573	0.447
121.999	136.092	80.002	19.996	103.252	20.329	3.721	0.438
123.999	136.959	80.000	19.996	103.264	20.326	3.915	0.446
126.000	137.859	79.999	19.997	103.270	20.330	3.671	0.472
127.998	138.691	80.001	19.994	103.261	20.331	3.629	0.437
130.000	139.629	80.001	19.997	103.263	20.329	3.748	0.489
131.999	140.525	80.003	19.996	103.270	20.331	3.614	0.452
134.000	141.453	80.000	19.998	103.271	20.328	3.794	0.448
136.000	142.335	79.998	19.990	103.267	20.329	3.713	0.468
138.000	143.298	79.999	19.992	103.272	20.330	3.686	0.459
140.000	144.224	79.998	19.996	103.263	20.329	3.761	0.448
141.998	145.167	80.003	19.994	103.268	20.328	3.786	0.455
143.999	146.081	79.999	19.994	103.249	20.330	3.663	0.471
145.999	147.025	80.000	19.999	103.252	20.329	3.750	0.480
147.998	147.950	79.999	19.998	103.263	20.329	3.724	0.467
149.999	148.923	80.002	19.996	103.264	20.326	3.927	0.488
151.999	149.873	80.002	19.995	103.246	20.329	3.715	0.491
153.999	150.818	79.999	19.998	103.242	20.324	4.076	0.472
155.999	151.772	80.000	19.999	103.250	20.327	3.875	0.494
158.000	152.720	80.004	19.996	103.248	20.328	3.807	0.466
159.999	153.655	79.999	19.998	103.237	20.329	3.744	0.439
161.998	154.622	80.001	19.996	103.244	20.329	3.755	0.489
163.998	155.570	80.000	19.994	103.252	20.330	3.644	0.473
165.998	156.488	80.006	19.991	103.234	20.331	3.622	0.471
167.998	157.476	80.001	19.990	103.240	20.327	3.853	0.508
169.999	158.409	79.996	20.000	103.252	20.328	3.777	0.469
171.998	159.381	79.999	19.997	103.240	20.327	3.853	0.478
174.000	160.326	79.999	19.999	103.251	20.325	4.032	0.497
176.000	161.343	80.002	19.996	103.235	20.326	3.942	0.520
177.998	162.334	79.999	19.994	103.236	20.323	4.135	0.481
179.998	163.322	80.000	19.996	103.237	20.321	4.299	0.489
181.999	164.304	80.003	19.991	103.234	20.320	4.305	0.504
183.998	165.256	80.006	19.995	103.241	20.323	4.108	0.521
185.998	166.274	80.001	19.995	103.241	20.320	4.366	0.490
187.998	167.203	79.995	19.998	103.240	20.325	3.988	0.482
189.999	168.216	79.996	19.997	103.234	20.322	4.211	0.490
191.998	169.210	80.003	19.992	103.239	20.320	4.305	0.493
193.998	170.200	80.003	19.992	103.248	20.323	4.143	0.484
195.999	171.174	80.000	19.999	103.246	20.321	4.259	0.464
198.000	172.128	79.999	19.996	103.237	20.322	4.181	0.494
199.999	173.171	80.005	19.991	103.240	20.319	4.390	0.507
202.000	174.169	79.997	19.997	103.238	20.322	4.185	0.504
203.999	175.133	79.998	19.996	103.238	20.318	4.447	0.483
205.999	176.160	80.000	19.991	103.235	20.319	4.403	0.470
208.000	177.093	80.005	19.996	103.231	20.320	4.364	0.477
210.001	178.122	80.003	19.995	103.230	20.321	4.284	0.488
212.000	179.120	80.001	19.996	103.231	20.319	4.386	0.515
214.001	180.086	80.000	19.993	103.231	20.317	4.545	0.544
216.000	181.047	80.000	19.997	103.233	20.314	4.733	0.467
218.000	182.029	79.999	19.999	103.232	20.317	4.554	0.460
220.000	183.068	80.000	19.994	103.228	20.320	4.349	0.492
221.999	184.086	79.998	19.998	103.233	20.320	4.332	0.505
224.001	185.091	79.999	19.999	103.225	20.319	4.420	0.512
225.999	186.084	80.002	19.995	103.227	20.318	4.470	0.491
228.000	187.020	80.000	19.997	103.225	20.318	4.478	0.457
229.999	188.089	80.002	19.994	103.226	20.318	4.498	0.531
232.000	189.047	80.006	19.993	103.230	20.316	4.571	0.492
234.001	190.094	80.004	19.992	103.213	20.316	4.578	0.507
236.000	191.047	80.002	19.993	103.206	20.317	4.553	0.469
238.001	192.039	80.001	19.995	103.219	20.320	4.346	0.535
240.000	193.079	80.000	19.996	103.224	20.315	4.684	0.511
241.999	194.024	80.004	19.993	103.216	20.312	4.883	0.493
244.001	195.030	79.998	19.996	103.205	20.312	4.863	0.505
246.000	196.022	79.997	19.994	103.201	20.314	4.728	0.509
247.999	197.004	80.003	19.995	103.209	20.314	4.743	0.479
249.999	197.966	80.002	19.997	103.206	20.314	4.723	0.477
252.000	198.989	79.994	19.998	103.205	20.308	5.130	0.494
253.999	199.951	80.001	19.995	103.208	20.310	5.003	0.500
255.999	200.980	79.999	19.995	103.211	20.312	4.892	0.492
257.999	201.904	79.999	19.998	103.203	20.307	5.208	0.490
260.001	202.927	79.998	19.997	103.211	20.312	4.865	0.520
262.000	203.889	80.003	20.000	103.196	20.313	4.814	0.524
264.000	204.882	80.001	19.992	103.208	20.312	4.870	0.507
265.999	205.829	79.996	20.001	103.201	20.312	4.878	0.485
268.000	206.854	80.000	19.993	103.197	20.308	5.119	0.500
269.999	207.855	80.001	19.992	103.203	20.311	4.947	0.524
271.999	208.887	79.998	19.990	103.194	20.311	4.947	0.507
273.999	209.887	80.002	19.995	103.193	20.310	5.030	0.512
275.999	210.848	80.000	19.998	103.199	20.308	5.106	0.492
278.000	211.856	80.000	19.994	103.195	20.311	4.905	0.517
280.000	212.842	80.000	19.995	103.192	20.309	5.082	0.478
281.999	213.821	79.998	20.002	103.192	20.311	4.909	0.518
284.000	214.784	80.000	19.994	103.195	20.307	5.235	0.492
286.000	215.768	80.000	19.993	103.196	20.308	5.161	0.470
288.000	216.766	80.002	19.995	103.200	20.307	5.178	0.518
289.999	217.759	80.001	19.995	103.193	20.310	4.988	0.521
291.999	218.743	79.999	19.997	103.192	20.310	5.006	0.508
293.999	219.718	80.002	19.996	103.198	20.310	5.004	0.462
296.000	220.687	80.001	19.997	103.193	20.305	5.325	0.506
297.999	221.662	80.001	19.995	103.191	20.305	5.327	0.496
299.999	222.680	80.000	19.995	103.193	20.303	5.471	0.521
302.000	223.653	80.001	19.996	103.193	20.302	5.545	0.503
304.000	224.648	80.001	19.995	103.193	20.303	5.479	0.487
305.999	225.619	80.001	19.996	103.189	20.305	5.323	0.497
308.001	226.647	80.002	19.996	103.193	20.300	5.681	0.504
310.000	227.611	80.001	19.996	103.192	20.300	5.663	0.514
312.000	228.617	80.000	19.996	103.194	20.303	5.486	0.518
314.001	229.561	80.001	19.996	103.189	20.297	5.861	0.505
316.000	230.560	80.003	19.996	103.192	20.299	5.739	0.474
318.000	231.535	80.001	19.996	103.184	20.299	5.705	0.494
319.999	232.515	80.003	19.996	103.193	20.296	5.967	0.487
321.999	233.515	79.999	19.994	103.187	20.296	5.944	0.483
323.999	234.481	80.000	19.996	103.191	20.297	5.876	0.483
326.000	235.492	80.002	19.994	103.198	20.297	5.857	0.487
327.999	236.455	79.999	19.995	103.193	20.297	5.865	0.478
330.000	237.470	80.000	19.995	103.192	20.295	6.019	0.499
331.999	238.466	80.001	19.995	103.191	20.294	6.080	0.512
334.000	239.401	79.999	19.996	103.197	20.294	6.094	0.471
336.000	240.440	80.000	19.996	103.195	20.291	6.239	0.513
337.999	241.400	80.000	19.995	103.179	20.291	6.281	0.461
340.001	242.408	80.000	19.995	103.186	20.291	6.238	0.508
342.000	243.353	80.000	19.998	103.186	20.289	6.400	0.453
343.999	244.368	80.000	19.997	103.172	20.285	6.646	0.496
345.999	245.358	79.999	19.996	103.181	20.288	6.483	0.459
348.000	246.344	80.000	19.996	103.191	20.284	6.718	0.483
350.000	247.307	80.001	19.996	103.179	20.282	6.842	0.485
351.999	248.361	79.999	19.996	103.175	20.280	7.029	0.487
354.000	249.376	80.001	19.995	103.181	20.285	6.679	0.535
356.001	250.390	79.999	19.996	103.181	20.282	6.838	0.524
357.999	251.393	79.999	19.996	103.175	20.286	6.608	0.504
359.999	252.388	80.001	19.997	103.190	20.284	6.735	0.499
361.999	253.355	80.000	19.996	103.183	20.282	6.842	0.464
364.000	254.367	79.999	19.996	103.169	20.281	6.911	0.475
366.000	255.371	80.000	19.995	103.186	20.281	6.935	0.498
368.000	256.455	80.000	19.996	103.177	20.282	6.871	0.491
370.001	257.452	80.001	19.996	103.177	20.283	6.789	0.507
371.999	258.463	79.999	19.999	103.191	20.283	6.779	0.496
374.000	259.510	80.002	19.995	103.179	20.279	7.047	0.512
375.999	260.522	80.003	19.995	103.163	20.279	7.081	0.504
378.000	261.540	80.001	19.995	103.174	20.277	7.170	0.520
380.001	262.528	80.002	19.996	103.174	20.277	7.175	0.480
382.001	263.520	80.001	19.996	103.162	20.278	7.146	0.492
383.999	264.538	80.001	19.996	103.167	20.277	7.180	0.530
386.000	265.517	80.002	19.996	103.166	20.277	7.215	0.480
388.000	266.541	80.001	19.995	103.179	20.276	7.268	0.515
389.999	267.538	79.999	19.995	103.176	20.274	7.411	0.507
392.000	268.514	80.001	19.996	103.163	20.274	7.421	0.512
394.000	269.533	80.001	19.995	103.160	20.276	7.279	0.470
396.000	270.578	80.002	19.996	103.160	20.271	7.581	0.530
398.000	271.615	80.003	19.995	103.158	20.272	7.514	0.519
400.001	272.581	80.002	19.995	103.148	20.274	7.410	0.481
402.000	273.568	80.002	19.995	103.154	20.275	7.345	0.495
403.999	274.557	80.003	19.995	103.156	20.272	7.526	0.469
406.000	275.558	80.001	19.996	103.153	20.273	7.454	0.507
407.999	276.543	80.002	19.995	103.149	20.272	7.554	0.508
410.001	277.511	79.998	19.996	103.150	20.267	7.881	0.488
412.000	278.502	79.999	19.996	103.155	20.271	7.616	0.498
414.001	279.515	80.001	19.996	103.152	20.270	7.699	0.509
416.001	280.482	80.000	19.995	103.152	20.272	7.511	0.501
418.000	281.414	80.000	19.997	103.156	20.268	7.797	0.472
419.999	282.398	80.001	19.995	103.157	20.266	7.913	0.487
422.000	283.424	80.001	19.995	103.161	20.267	7.867	0.514
423.999	284.356	80.000	19.996	103.155	20.265	7.994	0.483
426.000	285.378	79.999	19.995	103.157	20.270	7.640	0.502
428.001	286.363	80.000	19.995	103.156	20.266	7.929	0.524
429.999	287.395	80.000	19.997	103.152	20.267	7.865	0.534
431.999	288.373	80.001	19.996	103.156	20.269	7.724	0.445
434.000	289.392	79.999	19.998	103.154	20.266	7.933	0.505
436.000	290.392	79.999	19.997	103.151	20.267	7.896	0.483
437.999	291.402	79.998	19.996	103.147	20.266	7.900	0.488
440.000	292.446	79.998	19.996	103.151	20.268	7.828	0.514
442.001	293.413	79.999	19.996	103.147	20.264	8.082	0.480
443.999	294.426	79.999	19.996	103.150	20.266	7.944	0.503
446.000	295.423	79.999	19.995	103.149	20.265	7.978	0.511
448.000	296.410	79.999	19.995	103.150	20.261	8.246	0.470
449.999	297.399	80.000	19.995	103.154	20.261	8.265	0.475
452.000	298.434	80.001	19.995	103.150	20.262	8.191	0.520
454.000	299.413	80.000	19.995	103.134	20.262	8.191	0.497
456.000	300.390	80.002	19.996	103.149	20.265	8.003	0.509
458.000	301.384	80.002	19.995	103.146	20.269	7.760	0.510
460.001	302.331	79.999	19.996	103.147	20.266	7.928	0.486
461.999	303.328	80.001	19.994	103.147	20.268	7.787	0.482
463.999	304.308	80.001	19.994	103.152	20.264	8.052	0.502
466.001	305.299	80.000	19.996	103.138	20.265	7.989	0.488
467.999	306.262	80.000	19.996	103.148	20.264	8.046	0.517
470.001	307.259	80.000	19.997	103.150	20.264	8.091	0.513
472.001	308.261	80.001	19.997	103.146	20.262	8.208	0.522
473.999	309.247	80.002	19.995	103.143	20.262	8.175	0.504
476.001	310.223	80.002	19.995	103.143	20.264	8.053	0.486
478.000	311.230	80.002	19.995	103.152	20.262	8.223	0.468
480.000	312.235	80.003	19.995	103.147	20.264	8.094	0.522
482.000	313.312	80.002	19.996	103.139	20.263	8.116	0.527
484.001	314.260	80.002	19.996	103.152	20.264	8.089	0.485
486.001	315.290	80.003	19.993	103.152	20.263	8.147	0.498
488.000	316.282	80.003	19.995	103.143	20.259	8.396	0.491
490.000	317.324	80.000	19.997	103.151	20.261	8.267	0.461
492.000	318.333	80.000	19.996	103.151	20.259	8.423	0.512
493.999	319.350	79.999	19.995	103.147	20.261	8.257	0.483
495.999	320.406	80.001	19.995	103.141	20.261	8.251	0.522
498.000	321.432	80.000	19.997	103.150	20.262	8.212	0.504
500.001	322.471	79.999	19.996	103.144	20.267	7.879	0.539
501.999	323.471	80.000	19.995	103.153	20.256	8.618	0.521
504.000	324.527	80.000	19.996	103.137	20.258	8.490	0.548
505.999	325.558	80.001	19.995	103.152	20.262	8.193	0.485
507.999	326.593	80.000	19.996	103.144	20.260	8.309	0.515
509.999	327.627	80.000	19.996	103.132	20.261	8.287	0.510
512.000	328.797	80.000	19.995	103.138	20.263	8.123	0.629
514.000	329.833	80.000	19.996	103.129	20.265	8.030	0.633
516.000	330.701	80.000	19.995	103.136	20.263	8.117	0.245
517.999	331.759	80.000	19.996	103.147	20.260	8.327	0.414
519.999	332.777	80.000	19.996	103.135	20.259	8.418	0.640
521.999	333.758	79.999	19.996	103.141	20.261	8.268	0.477
523.999	334.801	79.999	19.996	103.140	20.258	8.475	0.439
526.000	335.951	80.000	19.997	103.131	20.258	8.440	0.557
528.000	337.019	79.998	19.996	103.146	20.258	8.473	0.585
529.999	338.040	79.999	19.997	103.153	20.257	8.521	0.551
532.000	339.037	80.001	19.998	103.144	20.259	8.405	0.502
534.001	340.089	80.000	19.997	103.141	20.257	8.539	0.555
535.999	341.161	80.001	19.997	103.148	20.257	8.522	0.529
538.001	342.174	80.002	19.998	103.135	20.255	8.655	0.506
540.001	343.237	80.002	19.996	103.146	20.256	8.615	0.506
542.001	344.249	80.002	19.995	103.139	20.258	8.457	0.532
543.999	345.301	80.002	19.996	103.142	20.255	8.681	0.525
545.999	346.380	80.002	19.996	103.136	20.254	8.739	0.515
547.999	347.399	80.002	19.996	103.127	20.255	8.680	0.493
549.999	348.439	80.001	19.995	103.118	20.253	8.824	0.509
551.999	349.467	80.002	19.996	103.122	20.250	8.996	0.526
554.000	350.545	80.001	19.996	103.130	20.250	9.017	0.509
555.999	351.578	80.002	19.996	103.124	20.250	9.002	0.550
557.999	352.600	80.002	19.996	103.124	20.246	9.264	0.557
559.999	353.625	80.001	19.995	103.130	20.245	9.343	0.495
562.000	354.689	80.002	19.996	103.118	20.243	9.467	0.500
564.000	355.713	80.004	19.997	103.114	20.244	9.426	0.485
565.999	356.730	80.004	19.995	103.116	20.238	9.779	0.517
567.999	357.750	80.003	19.996	103.119	20.238	9.775	0.502
569.999	358.747	80.003	19.996	103.118	20.237	9.855	0.500
571.999	359.742	80.001	19.996	103.117	20.234	10.068	0.483
574.001	360.754	80.001	19.995	103.117	20.232	10.199	0.513
575.999	361.746	80.001	19.996	103.121	20.227	10.527	0.493
577.999	362.714	80.001	19.995	103.128	20.226	10.572	0.497
579.999	363.689	79.999	19.996	103.123	20.217	11.173	0.481
582.000	364.671	80.000	19.996	103.120	20.216	11.243	0.509
583.999	365.673	79.999	19.996	103.121	20.212	11.525	0.512
585.999	366.633	80.002	19.996	103.120	20.208	11.805	0.481
588.001	367.609	80.001	19.996	103.122	20.201	12.234	0.499
589.999	368.588	80.001	19.995	103.127	20.197	12.557	0.492
591.999	369.555	80.000	19.996	103.133	20.186	13.261	0.481
594.000	370.548	80.000	19.995	103.141	20.174	14.087	0.451
595.999	371.505	80.001	19.995	103.121	20.163	14.820	0.488
598.000	372.483	80.001	19.996	103.119	20.153	15.440	0.444
599.999	373.515	80.000	19.995	103.115	20.146	15.926	0.506
602.000	374.497	80.001	19.995	103.113	20.143	16.124	0.482
604.000	375.465	80.000	19.998	103.113	20.143	16.116	0.478
606.001	376.431	80.001	19.995	103.114	20.138	16.424	0.446
607.999	377.426	80.000	19.996	103.131	20.133	16.809	0.525
609.999	378.392	80.000	19.996	103.140	20.122	17.542	0.487
611.999	379.383	80.000	19.995	103.128	20.112	18.163	0.457
613.999	380.395	79.999	19.997	103.117	20.101	18.910	0.514
616.000	381.321	80.000	19.997	103.116	20.092	19.558	0.472
617.999	382.276	80.001	19.996	103.115	20.095	19.309	0.474
620.000	383.262	80.001	19.996	103.100	20.091	19.587	0.482
622.000	384.251	80.002	19.996	103.110	20.086	19.949	0.502
624.000	385.212	80.001	19.997	103.136	20.069	21.038	0.485
625.999	386.190	80.002	19.997	103.150	20.050	22.303	0.468
627.999	387.153	80.001	19.998	103.128	20.034	23.415	0.483
629.999	388.154	80.002	19.996	103.108	20.019	24.378	0.488
632.000	389.099	80.000	19.997	103.116	20.014	24.749	0.455
634.000	390.128	80.000	19.996	103.103	20.013	24.753	0.499
635.999	391.085	80.000	19.997	103.111	20.000	25.665	0.488
637.999	392.079	80.001	19.996	103.131	19.968	27.783	0.485
639.999	393.086	80.001	19.996	103.178	19.936	29.953	0.492
642.000	394.098	80.003	19.995	103.159	19.916	31.261	0.524
643.999	395.110	80.002	19.995	103.095	19.902	32.185	0.481
645.999	396.097	80.001	19.995	103.090	19.869	34.378	0.469
647.999	397.113	80.002	19.996	103.135	19.847	35.838	0.539
650.000	398.118	80.003	19.995	103.135	19.808	38.441	0.501
651.999	399.097	80.002	19.996	103.155	19.764	41.410	0.506
653.999	400.110	80.002	19.995	103.134	19.733	43.464	0.510
655.999	401.085	80.000	19.995	103.134	19.708	45.061	0.487
658.000	402.143	80.000	19.995	103.124	19.655	48.638	0.547
659.999	403.140	80.000	19.996	103.152	19.586	53.241	0.510
662.000	404.137	80.000	19.995	103.198	19.523	57.471	0.498
663.999	405.111	79.999	19.996	103.164	19.484	60.045	0.487
665.999	406.122	79.999	19.996	103.097	19.423	64.117	0.502
668.000	407.075	80.000	19.995	103.120	19.336	69.965	0.449
669.999	408.116	79.998	19.996	103.177	19.268	74.436	0.513
672.000	409.114	80.000	19.996	103.168	19.174	80.731	0.487
673.999	410.133	80.000	19.995	103.189	19.070	87.654	0.507
676.000	411.131	80.001	19.996	103.161	18.952	95.533	0.496
677.999	412.107	80.000	19.996	103.200	18.829	103.745	0.473
680.001	413.146	80.000	19.995	103.181	18.701	112.324	0.495
681.999	414.128	80.000	19.996	103.163	18.582	120.242	0.494
683.999	415.082	80.001	19.996	103.147	18.439	129.759	0.473
686.000	416.079	79.999	19.996	103.196	18.294	139.527	0.498
687.999	417.117	79.999	19.997	103.225	18.135	150.124	0.532
690.000	418.134	79.998	19.996	103.228	17.977	160.572	0.502
691.999	419.142	80.000	19.997	103.221	17.804	172.072	0.512
694.000	420.168	80.000	19.996	103.212	17.609	185.135	0.471
695.999	421.189	80.000	19.997	103.262	17.397	199.319	0.519
697.999	422.167	80.000	19.997	103.244	17.182	213.754	0.517
699.999	423.211	80.001	19.996	103.259	16.972	227.641	0.476
702.000	424.262	80.002	19.996	103.240	16.766	241.308	0.506
704.000	425.293	80.001	19.996	103.207	16.531	257.052	0.517
705.999	426.314	80.002	19.996	103.271	16.284	273.485	0.479
708.000	427.321	80.001	19.996	103.284	16.032	290.162	0.497
710.000	428.357	80.001	19.995	103.286	15.787	306.518	0.490
711.999	429.348	80.002	19.995	103.250	15.540	323.024	0.490
713.999	430.367	79.999	19.996	103.255	15.296	339.381	0.474
716.000	431.366	80.000	19.998	103.250	15.071	354.383	0.489
717.999	432.378	79.999	19.997	103.211	14.857	368.568	0.513
720.000	433.385	80.000	19.997	103.189	14.640	383.264	0.483
722.000	434.385	80.000	19.996	103.200	14.439	396.685	0.536
723.999	435.376	80.000	19.996	103.235	14.260	408.559	0.512
726.000	436.380	80.001	19.996	103.238	14.101	419.257	0.513
728.001	437.375	80.001	19.995	103.240	13.966	428.407	0.485
729.999	438.392	80.003	19.997	103.222	13.854	435.952	0.487
732.001	439.422	80.004	19.995	103.266	13.767	441.898	0.524
734.000	440.436	80.002	19.995	103.293	13.713	445.628	0.521
735.999	441.392	80.003	19.995	103.307	13.687	447.408	0.489
737.999	442.446	80.001	19.996	103.322	13.686	447.544	0.547
740.000	443.462	80.000	19.996	103.337	13.721	445.351	0.499
742.000	444.506	79.999	19.996	103.346	13.784	441.145	0.534
744.000	445.521	80.001	19.995	103.359	13.873	435.237	0.538
746.000	446.611	80.000	19.995	103.381	13.991	427.281	0.534
748.000	447.655	80.001	19.995	103.430	14.128	418.144	0.545
750.000	448.712	80.000	19.996	103.425	14.287	407.357	0.532
752.001	449.730	80.019	20.002	103.451	14.470	395.251	0.501
754.000	450.828	80.008	19.999	103.463	14.674	381.788	0.559
756.000	451.884	80.002	20.000	103.453	14.895	366.757	0.525
758.000	452.929	80.001	19.997	103.452	15.127	351.148	0.501
760.000	454.014	80.001	19.997	103.437	15.373	334.701	0.535
762.000	455.054	80.001	19.998	103.420	15.625	317.806	0.537
764.001	456.146	80.002	19.996	103.490	15.886	300.312	0.530
765.999	457.207	80.000	19.996	103.458	16.141	283.225	0.550
767.999	458.275	80.000	19.996	103.406	16.390	266.594	0.556
769.999	459.357	80.003	19.996	103.385	16.630	250.420	0.548
771.999	460.411	80.001	19.997	103.373	16.866	234.886	0.510
774.000	461.456	80.000	19.996	103.357	17.093	219.705	0.532
775.999	462.516	80.001	19.998	103.330	17.309	205.227	0.551
777.999	463.578	80.000	19.996	103.318	17.512	191.613	0.500
779.999	464.632	80.000	19.997	103.284	17.698	179.218	0.551
781.999	465.721	80.001	19.997	103.235	17.876	167.325	0.542
784.000	466.783	80.000	19.997	103.339	18.042	156.189	0.532
785.999	467.814	80.000	19.995	103.274	18.194	146.024	0.511
787.999	468.896	80.002	19.995	103.259	18.338	136.409	0.572
789.999	469.931	80.002	19.997	103.242	18.468	127.718	0.534
792.000	471.019	80.002	19.996	103.233	18.587	119.803	0.526
793.999	472.073	80.001	19.996	103.224	18.698	112.426	0.548
795.999	473.150	80.002	19.997	103.201	18.803	105.403	0.560
797.999	474.274	80.001	19.996	103.189	18.899	99.049	0.571
800.001	475.327	80.001	19.996	103.175	18.990	92.949	0.553
802.000	476.376	80.002	19.996	103.159	19.078	87.123	0.519
804.000	477.475	80.000	19.997	103.154	19.150	82.318	0.550
806.000	478.518	80.002	19.996	103.154	19.223	77.440	0.553
808.001	479.578	80.002	19.995	103.152	19.293	72.755	0.526
809.999	480.583	80.003	19.997	103.149	19.361	68.238	0.498
811.999	481.661	80.002	19.996	103.150	19.424	64.006	0.537
814.000	482.704	80.002	19.997	103.149	19.490	59.651	0.521
815.999	483.801	80.003	19.996	103.151	19.547	55.849	0.537
817.999	484.796	80.002	19.997	103.148	19.608	51.804	0.514
820.001	485.842	80.003	19.998	103.140	19.664	48.052	0.514
821.999	486.856	80.001	19.996	103.135	19.716	44.557	0.517
824.001	487.874	80.001	19.997	103.128	19.768	41.081	0.493
825.999	488.861	80.002	19.996	103.131	19.817	37.814	0.504
828.000	489.905	80.000	19.997	103.146	19.868	34.418	0.516
829.999	490.909	80.001	19.998	103.149	19.913	31.443	0.500
831.999	491.902	80.000	19.996	103.131	19.955	28.660	0.494
833.999	492.859	80.002	19.995	103.138	19.997	25.873	0.500
836.000	493.876	80.000	19.995	103.140	20.037	23.195	0.486
837.999	494.898	80.000	19.994	103.126	20.077	20.553	0.502
840.001	495.871	80.001	19.995	103.124	20.107	18.514	0.476
842.000	496.858	80.000	19.995	103.122	20.138	16.449	0.470
844.000	497.813	80.001	19.996	103.121	20.165	14.629	0.485
846.000	498.780	80.001	19.996	103.117	20.189	13.036	0.487
848.001	499.804	80.001	19.997	103.119	20.214	11.379	0.534
849.999	500.780	80.000	19.997	103.117	20.230	10.353	0.497
851.999	501.760	80.000	19.995	103.116	20.250	9.003	0.494
853.999	502.731	80.001	19.995	103.114	20.260	8.356	0.486
855.999	503.691	80.002	19.996	103.114	20.272	7.543	0.478
857.999	504.643	80.000	19.996	103.116	20.280	6.980	0.487
860.001	505.580	80.001	19.996	103.113	20.291	6.265	0.498
861.999	506.544	80.001	19.995	103.111	20.293	6.153	0.466
864.000	507.513	80.001	19.996	103.104	20.296	5.942	0.484
865.999	508.477	80.000	19.996	103.106	20.292	6.209	0.476
868.000	509.441	80.003	19.997	103.106	20.300	5.689	0.473
870.000	510.398	80.002	19.997	103.101	20.301	5.615	0.482
871.999	511.372	80.002	19.996	103.096	20.303	5.494	0.477
874.000	512.329	80.002	19.996	103.024	20.302	5.513	0.502
875.999	513.312	80.001	19.997	103.146	20.301	5.631	0.500
878.000	514.344	80.000	19.997	103.104	20.304	5.398	0.494
880.000	515.324	80.001	19.995	103.090	20.302	5.502	0.504
882.000	516.342	80.001	19.997	103.087	20.303	5.467	0.495
883.999	517.366	80.000	19.997	103.108	20.304	5.390	0.510
886.000	518.414	80.002	19.996	103.101	20.307	5.220	0.521
887.999	519.414	80.001	19.996	103.109	20.306	5.241	0.522
890.000	520.453	80.002	19.996	103.101	20.307	5.179	0.505
892.000	521.482	80.001	19.995	103.111	20.304	5.367	0.518
893.999	522.495	80.004	19.995	103.111	20.303	5.480	0.516
895.999	523.508	80.002	19.996	103.112	20.302	5.511	0.498
897.999	524.576	80.002	19.996	103.104	20.306	5.296	0.505
900.000	525.645	80.002	19.995	103.094	20.300	5.641	0.537
901.999	526.685	80.000	19.996	103.098	20.301	5.588	0.524
904.001	527.699	80.000	19.997	103.100	20.305	5.316	0.494
905.999	528.715	79.999	19.998	103.111	20.300	5.659	0.481
908.000	529.770	79.999	19.997	103.103	20.303	5.463	0.506
910.000	530.817	79.999	19.997	103.089	20.302	5.519	0.537
912.001	531.840	80.001	19.998	103.094	20.303	5.475	0.506
914.001	532.874	79.999	19.996	103.105	20.303	5.446	0.507
916.000	533.926	79.999	19.996	103.098	20.304	5.426	0.522
917.999	535.013	80.001	19.996	103.096	20.304	5.378	0.526
920.000	536.013	80.001	19.996	103.093	20.304	5.422	0.497
922.000	537.094	80.000	19.995	103.091	20.301	5.609	0.537
924.000	538.139	80.001	19.994	103.096	20.300	5.692	0.520
926.000	539.157	80.002	19.996	103.100	20.303	5.481	0.525
927.999	540.195	80.001	19.996	103.101	20.303	5.476	0.518
930.000	541.233	80.001	19.997	103.103	20.302	5.564	0.504
932.000	542.251	79.999	19.996	103.106	20.299	5.747	0.503
934.000	543.299	80.000	19.996	103.107	20.303	5.443	0.500
935.999	544.277	79.999	19.996	103.108	20.302	5.552	0.479
937.999	545.318	79.998	19.996	103.105	20.303	5.432	0.526
940.000	546.326	80.000	19.996	103.107	20.305	5.362	0.526
941.999	547.385	80.000	19.997	103.108	20.305	5.362	0.542
943.999	548.415	79.999	19.997	103.109	20.305	5.303	0.512
945.999	549.385	80.001	19.995	103.116	20.307	5.183	0.481
947.999	550.454	80.000	19.997	103.110	20.303	5.489	0.511
950.000	551.437	80.001	19.996	103.113	20.301	5.572	0.499
952.000	552.468	80.002	19.996	103.114	20.306	5.274	0.507
953.999	553.512	80.003	19.996	103.113	20.303	5.462	0.503
955.999	554.524	80.002	19.995	103.106	20.306	5.246	0.506
958.000	555.589	80.002	19.995	103.113	20.303	5.451	0.521
959.999	556.641	80.002	19.995	103.115	20.301	5.600	0.527
962.001	557.634	80.002	19.995	103.117	20.303	5.459	0.496
964.001	558.682	80.001	19.995	103.117	20.302	5.552	0.513
965.999	559.749	80.001	19.997	103.117	20.301	5.583	0.512
968.000	560.795	80.000	19.997	103.118	20.300	5.668	0.514
969.999	561.846	80.000	19.996	103.118	20.304	5.429	0.537
972.000	562.864	80.001	19.996	103.127	20.303	5.443	0.505
973.999	563.901	80.002	19.996	103.124	20.303	5.454	0.534
975.999	564.897	80.000	19.996	103.118	20.303	5.434	0.517
977.999	565.918	80.001	19.996	103.118	20.303	5.493	0.494
980.000	567.011	80.002	19.995	103.120	20.300	5.644	0.511
982.001	568.022	80.002	19.995	103.119	20.301	5.631	0.513
984.001	569.092	80.001	19.995	103.119	20.299	5.714	0.542
986.000	570.110	80.001	19.996	103.118	20.301	5.598	0.516
987.999	571.129	79.999	19.996	103.116	20.304	5.399	0.515
989.999	572.138	79.999	19.995	103.116	20.305	5.353	0.519
991.999	573.190	80.000	19.996	103.112	20.300	5.644	0.532
993.999	574.205	80.001	19.997	103.107	20.301	5.603	0.520
996.000	575.294	80.000	19.998	103.114	20.302	5.520	0.522
997.999	576.276	80.001	19.998	103.114	20.301	5.594	0.504
1000.001	577.326	80.000	19.996	103.113	20.303	5.491	0.516
1002.000	578.322	79.999	19.997	103.111	20.303	5.432	0.502
1004.000	579.367	79.999	19.996	103.105	20.302	5.556	0.538
1005.999	580.384	80.001	19.997	103.107	20.301	5.579	0.513
1007.999	581.388	80.000	19.996	103.112	20.301	5.628	0.504
1010.000	582.411	80.000	19.997	103.116	20.302	5.528	0.510
1011.999	583.469	80.001	19.997	103.114	20.302	5.500	0.503
1013.999	584.492	80.000	19.997	103.115	20.302	5.526	0.535
1015.999	585.480	80.000	19.996	103.111	20.302	5.545	0.504
1018.001	586.430	80.000	19.995	103.111	20.299	5.727	0.477
1019.999	587.480	80.000	19.996	103.118	20.303	5.434	0.511
1022.000	588.537	79.999	19.996	103.115	20.299	5.759	0.537
1023.999	589.587	80.000	19.995	103.117	20.300	5.683	0.583
1025.999	590.591	79.999	19.996	103.117	20.305	5.329	0.519
1027.999	591.607	80.001	19.996	103.115	20.303	5.478	0.525
1030.000	592.619	80.002	19.996	103.112	20.298	5.799	0.501
1031.999	593.691	80.002	19.996	103.118	20.300	5.677	0.533
1034.000	594.755	80.001	19.996	103.118	20.302	5.537	0.527
1036.000	595.819	80.001	19.995	103.117	20.298	5.773	0.500
1038.000	596.837	80.002	19.995	103.117	20.300	5.694	0.541
1040.000	597.919	80.002	19.995	103.116	20.300	5.672	0.544
1042.000	598.972	80.001	19.995	103.115	20.302	5.534	0.521
1044.001	599.936	80.002	19.995	103.118	20.303	5.458	0.532
1046.001	600.990	80.001	19.996	103.115	20.300	5.642	0.524
1047.999	602.054	80.001	19.994	103.117	20.300	5.679	0.508
1049.999	603.070	80.002	19.994	103.116	20.300	5.675	0.531
1052.000	604.105	80.001	19.995	103.117	20.304	5.382	0.506
1053.999	605.166	80.003	19.996	103.112	20.303	5.443	0.535
1056.000	606.178	80.003	19.995	103.113	20.303	5.491	0.532
1058.000	607.261	80.003	19.996	103.115	20.300	5.668	0.537
1060.000	608.268	80.003	19.996	103.110	20.300	5.670	0.516
1061.999	609.285	80.004	19.995	103.108	20.298	5.815	0.521
1064.000	610.332	80.004	19.997	103.111	20.303	5.470	0.516
1066.000	611.362	80.002	19.996	103.112	20.301	5.629	0.543
1068.001	612.392	80.002	19.998	103.113	20.302	5.519	0.522
1070.000	613.458	80.000	19.998	103.112	20.301	5.576	0.533
1072.000	614.473	80.000	19.997	103.108	20.303	5.485	0.513
1074.000	615.500	80.000	19.996	103.102	20.298	5.782	0.515
1075.999	616.542	80.002	19.995	103.109	20.298	5.795	0.507
1078.000	617.570	80.001	19.997	103.114	20.300	5.639	0.536
1079.999	618.560	80.001	19.996	103.111	20.298	5.825	0.501
1082.000	619.647	80.001	19.996	103.111	20.299	5.749	0.509
1084.001	620.672	80.001	19.996	103.113	20.300	5.668	0.525
1086.000	621.708	80.001	19.997	103.115	20.299	5.738	0.520
1088.000	622.734	80.000	19.996	103.115	20.296	5.922	0.480
1090.000	623.758	80.000	19.996	103.113	20.298	5.777	0.517
1092.001	624.787	80.001	19.996	103.115	20.297	5.889	0.511
1094.001	625.813	80.000	19.998	103.115	20.300	5.634	0.535
1095.999	626.853	80.001	19.996	103.113	20.298	5.794	0.529
1098.000	627.862	79.999	19.996	103.107	20.301	5.593	0.543
1099.999	628.878	79.999	19.997	103.112	20.297	5.879	0.485
1101.999	629.874	80.001	19.995	103.112	20.302	5.541	0.463
1103.999	630.906	80.000	19.996	103.097	20.297	5.847	0.529
1106.001	631.942	79.999	19.996	103.113	20.300	5.675	0.499
1107.999	632.967	80.000	19.995	103.117	20.298	5.789	0.487
1110.000	634.004	80.000	19.995	103.117	20.299	5.738	0.510
1112.001	635.034	80.001	19.994	103.116	20.297	5.872	0.532
1114.000	636.071	80.002	19.995	103.104	20.298	5.802	0.544
1116.000	637.109	80.002	19.996	103.111	20.297	5.847	0.547
1118.000	638.068	80.003	19.996	103.108	20.301	5.616	0.499
1120.001	639.123	80.002	19.995	103.109	20.295	5.983	0.527
1122.000	640.103	80.002	19.996	103.109	20.298	5.821	0.508
1124.001	641.115	80.002	19.996	103.091	20.299	5.723	0.507
1126.000	642.106	80.003	19.996	103.112	20.298	5.791	0.507
1128.000	643.108	80.002	19.996	103.113	20.297	5.832	0.504
1129.998	644.104	80.001	19.995	103.105	20.297	5.852	0.518
1131.998	645.067	80.002	19.996	103.110	20.296	5.920	0.459
1134.000	646.049	80.003	19.996	103.111	20.297	5.880	0.471
1135.999	647.066	80.004	19.996	103.101	20.296	5.908	0.500
1138.001	648.100	80.003	19.996	103.113	20.297	5.876	0.526
1140.001	649.123	80.004	19.996	103.114	20.296	5.908	0.510
1141.999	650.121	80.002	19.995	103.108	20.296	5.945	0.501
1144.000	651.133	80.004	19.994	103.110	20.297	5.853	0.519
1146.000	652.102	80.001	19.995	103.111	20.301	5.615	0.520
1148.000	653.114	80.003	19.996	103.106	20.301	5.624	0.517
1149.999	654.100	80.001	19.995	103.109	20.298	5.830	0.472
1152.000	655.140	80.001	19.996	103.115	20.298	5.792	0.512
1153.999	656.148	80.001	19.996	103.115	20.296	5.920	0.496
1156.001	657.168	80.000	19.995	103.111	20.297	5.884	0.522
1158.000	658.169	80.002	19.996	103.115	20.301	5.615	0.510
1159.999	659.198	80.001	19.997	103.116	20.296	5.949	0.494
1161.999	660.201	79.999	19.997	103.117	20.296	5.936	0.503
1163.999	661.181	79.999	19.996	103.115	20.299	5.755	0.485
1166.000	662.181	80.000	19.994	103.108	20.295	5.972	0.501
1168.000	663.209	80.001	19.996	103.116	20.299	5.709	0.500
1170.000	664.180	80.001	19.996	103.117	20.300	5.637	0.505
1172.000	665.207	80.001	19.995	103.117	20.296	5.898	0.532
1173.999	666.214	79.999	19.996	103.113	20.295	6.014	0.485
1175.999	667.243	80.001	19.997	103.114	20.294	6.097	0.526
1178.000	668.258	79.999	19.996	103.116	20.298	5.824	0.495
1179.999	669.294	80.000	19.996	103.120	20.294	6.062	0.520
1182.000	670.346	80.001	19.997	103.115	20.296	5.921	0.529
1184.001	671.418	80.000	19.997	103.109	20.295	6.029	0.514
1186.001	672.474	80.000	19.997	103.104	20.297	5.873	0.505
1188.000	673.506	80.001	19.996	103.111	20.294	6.079	0.533
1190.000	674.548	79.999	19.998	103.100	20.293	6.145	0.515
1192.000	675.631	80.000	19.996	103.109	20.292	6.186	0.524
1193.999	676.693	80.001	19.996	103.113	20.293	6.149	0.522
1196.001	677.780	80.002	19.996	103.113	20.294	6.051	0.555
1198.000	678.805	80.002	19.997	103.108	20.294	6.055	0.530
1199.999	679.888	80.002	19.996	103.110	20.295	6.024	0.565
1202.000	680.901	80.003	19.996	103.103	20.293	6.103	0.531
1204.000	681.905	80.002	19.995	103.107	20.290	6.328	0.525
1206.001	682.939	80.002	19.995	103.110	20.292	6.199	0.518
1207.999	683.966	80.002	19.995	103.108	20.294	6.073	0.543
1209.999	684.985	80.003	19.996	103.108	20.292	6.166	0.522
1211.999	686.042	80.002	19.995	103.112	20.294	6.048	0.537
1214.000	687.083	80.001	19.995	103.113	20.293	6.111	0.508
1216.000	688.094	80.001	19.997	103.113	20.293	6.125	0.536
1218.000	689.110	80.002	19.995	103.102	20.292	6.208	0.493
1220.000	690.109	80.003	19.995	103.111	20.289	6.376	0.496
1222.001	691.136	80.002	19.996	103.114	20.288	6.450	0.490
1224.000	692.146	80.003	19.997	103.113	20.290	6.299	0.518
1226.000	693.116	80.003	19.995	103.111	20.291	6.267	0.472
1228.000	694.177	80.004	19.995	103.109	20.294	6.059	0.521
1229.999	695.186	80.002	19.995	103.115	20.292	6.225	0.519
1232.000	696.155	80.001	19.995	103.111	20.291	6.293	0.514
1234.000	697.149	80.000	19.995	103.114	20.290	6.364	0.479
1235.999	698.136	80.001	19.997	103.115	20.289	6.380	0.492
1237.999	699.120	80.001	19.995	103.117	20.293	6.125	0.504
1239.999	700.120	80.001	19.996	103.115	20.291	6.243	0.472
1242.000	701.028	80.001	19.996	103.116	20.291	6.262	0.487
1244.000	702.035	80.000	19.995	103.118	20.293	6.101	0.512
1245.999	702.971	80.001	19.995	103.120	20.289	6.403	0.491
1248.000	703.935	80.001	19.995	103.114	20.287	6.540	0.507
1249.999	704.875	80.001	19.996	103.104	20.289	6.422	0.487
1252.000	705.873	80.001	19.997	103.100	20.292	6.196	0.477
1253.999	706.816	80.002	19.996	103.110	20.292	6.226	0.465
1256.001	707.825	80.001	19.996	103.100	20.290	6.359	0.498
1258.000	708.796	80.002	19.996	103.108	20.286	6.606	0.482
1259.999	709.752	80.001	19.996	103.109	20.288	6.457	0.487
1261.999	710.730	80.002	19.996	103.098	20.292	6.177	0.478
1264.000	711.696	80.000	19.996	103.107	20.285	6.667	0.472
1265.999	712.709	80.001	19.995	103.109	20.284	6.735	0.497
1268.000	713.684	80.002	19.997	103.112	20.286	6.606	0.513
1270.000	714.646	80.000	19.996	103.113	20.285	6.658	0.506
1272.000	715.598	80.002	19.997	103.112	20.284	6.732	0.494
1274.000	716.601	79.999	19.997	103.114	20.286	6.581	0.476
1275.999	717.542	80.003	19.997	103.114	20.285	6.634	0.451
1278.000	718.516	80.001	19.996	103.107	20.287	6.562	0.477
1279.999	719.496	80.002	19.996	103.107	20.287	6.521	0.473
1282.000	720.512	80.003	19.996	103.119	20.286	6.610	0.482
1284.000	721.488	80.003	19.996	103.113	20.285	6.671	0.497
1286.001	722.477	80.002	19.996	103.113	20.285	6.671	0.506
1288.000	723.462	80.001	19.996	103.115	20.279	7.041	0.489
1290.000	724.495	80.002	19.996	103.109	20.284	6.731	0.503
1291.999	725.476	80.003	19.995	103.107	20.283	6.799	0.457
1293.999	726.473	80.002	19.995	103.115	20.280	6.980	0.479
1296.000	727.439	80.003	19.994	103.114	20.279	7.050	0.469
1298.000	728.447	80.002	19.995	103.111	20.282	6.860	0.507
1299.999	729.438	80.002	19.994	103.099	20.280	6.991	0.499
1302.001	730.405	80.003	19.996	103.108	20.280	6.971	0.467
1304.000	731.401	80.002	19.994	103.091	20.282	6.846	0.488
1305.999	732.421	80.003	19.996	103.103	20.277	7.167	0.503
1308.000	733.350	80.003	19.995	103.097	20.282	6.837	0.491
1310.000	734.355	80.005	19.996	103.106	20.280	7.016	0.460
1312.001	735.345	80.003	19.994	103.109	20.280	7.018	0.501
1314.000	736.365	80.003	19.994	103.107	20.282	6.845	0.512
1315.999	737.333	80.001	19.995	103.113	20.280	6.995	0.479
1317.999	738.337	80.001	19.994	103.114	20.279	7.060	0.499
1320.000	739.311	80.003	19.995	103.116	20.278	7.099	0.461
1321.999	740.353	80.002	19.995	103.114	20.277	7.180	0.500
1323.999	741.346	80.002	19.995	103.115	20.278	7.112	0.524
1325.999	742.392	80.003	19.995	103.114	20.278	7.145	0.528
1327.999	743.391	80.002	19.995	103.110	20.278	7.150	0.521
1328.499	743.640	80.002	19.996	103.110	20.280	7.009	0.501