File: 01_Data/HIPS/MCC/HIPS_MCC_30K_min_211020_R1.txt
Sample ID:	C:\MCC\MCC Cal\Test\PlasticB_MCC_30K_min_211020_R1.txt
Sample Weight (mg):	4.55
Heating Rate (C/s):	0.5
Combustor Temp (C):	900
N2 Flow Rate (cc/min):	80
O2 Flow Rate (cc/min):	20
Calibration File:	C:\MCC\MCC Cal\Coeff1 JN10440_30_210304.txt.txt
T Correction Coefficients:	0	1.024463	0
Time Shift (s):	14
*
Time (s)	Temperature (C)	N2 flow rate (cc/min)	O2 flow rate (cc/min)	Flow Rate (cc/min)	Oxygen (%)	HRR (W/g)	Heating rate (C/s)
0.000	107.762	80.003	19.995	102.991	20.030	0.278	-0.017
2.000	107.757	80.000	19.995	102.989	20.032	0.134	-0.028
4.000	107.721	80.000	19.996	102.989	20.034	0.019	-0.009
6.000	107.749	80.001	19.995	102.993	20.032	0.115	0.012
8.000	107.744	80.000	19.995	102.995	20.033	0.046	-0.009
10.000	107.723	80.001	19.994	102.988	20.032	0.151	-0.041
12.000	107.748	80.002	19.994	102.990	20.034	-0.008	-0.008
14.000	107.713	80.001	19.994	102.994	20.033	0.071	0.003
16.000	107.745	80.002	19.994	102.992	20.033	0.065	0.024
18.000	107.699	80.001	19.994	102.991	20.033	0.061	-0.001
20.000	107.716	80.001	19.993	103.004	20.032	0.167	0.000
22.000	107.729	80.002	19.995	103.002	20.031	0.190	0.001
24.000	107.725	80.002	19.995	103.009	20.029	0.351	-0.007
26.000	107.770	80.001	19.994	103.010	20.031	0.186	0.043
28.000	107.708	80.000	19.994	103.027	20.029	0.333	-0.034
30.000	107.776	80.000	19.994	103.027	20.026	0.539	0.006
32.000	107.849	80.000	19.993	103.056	20.027	0.462	0.023
34.000	107.857	80.002	19.993	103.053	20.026	0.591	-0.002
36.000	107.917	80.002	19.993	103.061	20.025	0.644	0.018
38.000	107.989	80.002	19.993	103.058	20.027	0.514	0.021
40.000	108.085	80.002	19.993	103.051	20.020	0.965	0.035
42.000	108.178	80.001	19.993	103.071	20.024	0.714	0.070
44.001	108.230	80.002	19.994	103.096	20.018	1.126	0.067
46.001	108.337	80.001	19.994	103.110	20.017	1.189	0.047
48.000	108.508	80.002	19.994	103.114	20.017	1.174	0.092
50.000	108.682	80.001	19.993	103.129	20.015	1.328	0.089
52.001	108.828	80.001	19.994	103.133	20.012	1.556	0.103
54.000	109.050	80.000	19.993	103.154	20.010	1.671	0.080
56.000	109.266	80.001	19.994	103.155	20.009	1.785	0.121
58.000	109.517	80.003	19.994	103.153	20.005	2.063	0.131
60.000	109.809	80.003	19.994	103.165	20.005	2.019	0.142
62.000	110.083	80.004	19.993	103.180	20.003	2.171	0.145
64.001	110.390	80.004	19.995	103.181	20.002	2.282	0.168
66.000	110.677	80.003	19.994	103.180	19.999	2.466	0.139
68.000	111.030	80.003	19.993	103.180	20.000	2.403	0.133
70.000	111.386	80.003	19.995	103.185	20.000	2.438	0.140
72.000	111.783	80.003	19.994	103.192	20.001	2.352	0.159
74.001	112.185	80.001	19.995	103.201	20.000	2.388	0.218
76.000	112.622	80.000	19.995	103.191	19.997	2.603	0.213
78.000	113.062	80.001	19.995	103.203	19.995	2.776	0.221
80.000	113.544	80.001	19.995	103.218	19.998	2.582	0.254
82.000	113.966	80.002	19.995	103.217	19.996	2.720	0.214
84.001	114.524	80.003	19.995	103.224	19.996	2.701	0.274
86.001	114.992	80.002	19.994	103.224	19.997	2.655	0.232
88.000	115.556	80.001	19.995	103.220	19.996	2.722	0.261
90.000	116.150	79.999	19.994	103.218	19.992	2.943	0.299
92.000	116.698	80.002	19.995	103.217	19.991	3.020	0.293
94.000	117.306	80.000	19.995	103.221	19.994	2.857	0.305
96.000	117.936	80.001	19.995	103.219	19.990	3.109	0.351
98.001	118.555	80.001	19.995	103.223	19.991	3.053	0.311
100.000	119.179	80.001	19.995	103.226	19.992	2.984	0.326
102.000	119.864	80.001	19.995	103.233	19.989	3.199	0.329
104.000	120.512	80.001	19.994	103.226	19.992	3.011	0.318
106.000	121.209	80.001	19.996	103.231	19.990	3.101	0.346
108.000	121.884	80.001	19.996	103.237	19.990	3.097	0.329
110.000	122.619	80.002	19.996	103.243	19.987	3.330	0.353
112.001	123.338	80.000	19.995	103.230	19.990	3.143	0.343
114.000	124.076	80.001	19.995	103.252	19.989	3.155	0.370
116.000	124.811	80.002	19.994	103.253	19.987	3.295	0.361
118.000	125.610	80.002	19.993	103.239	19.985	3.507	0.393
120.000	126.355	80.001	19.994	103.258	19.989	3.186	0.396
122.001	127.156	80.002	19.994	103.255	19.987	3.359	0.392
124.000	127.932	80.004	19.993	103.244	19.987	3.311	0.415
126.000	128.748	80.002	19.995	103.242	19.987	3.305	0.441
128.000	129.592	80.003	19.994	103.240	19.985	3.438	0.437
130.000	130.403	80.001	19.995	103.261	19.984	3.564	0.387
132.000	131.218	80.002	19.995	103.245	19.987	3.336	0.419
134.000	132.056	80.002	19.995	103.254	19.986	3.382	0.432
136.000	132.943	80.003	19.994	103.252	19.987	3.343	0.440
138.000	133.808	80.001	19.994	103.259	19.985	3.439	0.434
140.000	134.706	80.004	19.993	103.258	19.987	3.359	0.463
142.000	135.548	80.004	19.994	103.255	19.986	3.430	0.453
144.000	136.440	80.005	19.994	103.260	19.982	3.707	0.449
146.000	137.354	80.005	19.994	103.253	19.984	3.531	0.437
148.000	138.283	80.005	19.994	103.246	19.989	3.182	0.471
150.000	139.190	80.003	19.995	103.247	19.988	3.251	0.450
152.000	140.110	80.003	19.995	103.255	19.987	3.332	0.470
154.000	141.015	80.002	19.996	103.258	19.988	3.240	0.455
156.000	141.939	80.000	19.995	103.258	19.987	3.334	0.449
158.000	142.862	80.000	19.994	103.247	19.986	3.412	0.461
160.000	143.816	80.000	19.995	103.258	19.987	3.316	0.489
162.000	144.799	80.001	19.995	103.257	19.986	3.406	0.498
164.000	145.740	80.000	19.995	103.254	19.985	3.468	0.488
166.000	146.675	80.001	19.995	103.246	19.987	3.308	0.430
168.000	147.646	80.002	19.995	103.245	19.985	3.443	0.483
170.000	148.610	80.003	19.995	103.239	19.985	3.487	0.483
172.000	149.606	80.002	19.995	103.235	19.987	3.300	0.500
174.000	150.537	80.002	19.994	103.243	19.986	3.424	0.463
176.000	151.496	80.002	19.995	103.235	19.988	3.226	0.462
178.000	152.496	80.001	19.995	103.242	19.986	3.379	0.506
180.000	153.468	79.999	19.995	103.229	19.989	3.218	0.521
182.000	154.377	79.999	19.995	103.230	19.985	3.462	0.453
184.000	155.351	80.000	19.996	103.238	19.985	3.438	0.477
186.000	156.311	80.001	19.995	103.238	19.985	3.448	0.517
188.000	157.321	79.999	19.996	103.231	19.989	3.199	0.474
190.000	158.275	80.001	19.995	103.228	19.988	3.231	0.491
192.000	159.253	79.999	19.997	103.229	19.989	3.189	0.507
194.000	160.254	80.001	19.995	103.228	19.988	3.262	0.482
196.000	161.211	80.002	19.995	103.224	19.987	3.300	0.478
198.000	162.176	80.003	19.995	103.223	19.987	3.342	0.475
200.000	163.169	80.003	19.995	103.225	19.988	3.229	0.469
202.000	164.191	80.003	19.995	103.225	19.988	3.271	0.525
204.001	165.192	80.004	19.994	103.223	19.989	3.204	0.500
206.000	166.168	80.003	19.995	103.221	19.989	3.168	0.509
208.000	167.140	80.003	19.994	103.216	19.991	3.029	0.489
210.000	168.128	80.001	19.994	103.225	19.988	3.260	0.500
212.000	169.086	80.002	19.994	103.222	19.987	3.339	0.501
214.000	170.054	80.002	19.994	103.228	19.987	3.296	0.453
216.000	171.086	80.002	19.995	103.217	19.988	3.246	0.490
218.000	172.027	80.003	19.995	103.222	19.987	3.294	0.474
220.000	173.014	80.003	19.994	103.223	19.988	3.225	0.489
222.001	174.042	80.004	19.994	103.221	19.990	3.081	0.513
224.001	174.970	80.005	19.993	103.221	19.990	3.135	0.474
226.000	175.928	80.004	19.995	103.222	19.987	3.325	0.470
228.000	176.949	80.005	19.994	103.224	19.991	3.054	0.493
230.000	177.915	80.003	19.994	103.222	19.992	2.974	0.486
232.000	178.870	80.002	19.995	103.225	19.992	2.960	0.489
234.000	179.828	80.001	19.994	103.225	19.993	2.893	0.464
236.000	180.836	80.001	19.994	103.223	19.990	3.133	0.468
238.000	181.795	80.002	19.995	103.219	19.993	2.876	0.493
240.000	182.792	80.001	19.995	103.217	19.990	3.081	0.477
242.000	183.727	79.999	19.994	103.222	19.994	2.845	0.472
244.000	184.715	80.001	19.995	103.215	19.989	3.181	0.474
246.000	185.742	80.001	19.995	103.224	19.990	3.106	0.497
248.000	186.706	80.001	19.995	103.223	19.991	3.031	0.478
250.000	187.668	80.001	19.995	103.217	19.988	3.288	0.476
252.000	188.663	80.000	19.996	103.220	19.988	3.225	0.490
254.000	189.607	80.002	19.995	103.218	19.990	3.121	0.494
256.000	190.620	80.001	19.995	103.207	19.990	3.081	0.511
258.000	191.587	80.001	19.995	103.208	19.990	3.144	0.501
260.000	192.512	80.001	19.995	103.200	19.986	3.415	0.466
262.000	193.495	80.002	19.995	103.191	19.984	3.522	0.480
264.000	194.501	80.002	19.995	103.203	19.987	3.332	0.478
266.000	195.486	80.001	19.994	103.197	19.988	3.230	0.513
268.000	196.435	80.001	19.995	103.200	19.990	3.128	0.501
270.000	197.416	80.001	19.995	103.205	19.989	3.163	0.495
272.000	198.398	80.001	19.995	103.200	19.993	2.875	0.471
274.000	199.343	80.002	19.996	103.198	19.991	3.025	0.463
276.000	200.328	80.001	19.995	103.199	19.987	3.311	0.505
278.000	201.334	80.001	19.995	103.192	19.992	2.992	0.488
280.000	202.318	80.003	19.996	103.190	19.992	3.008	0.492
282.000	203.306	80.003	19.996	103.192	19.988	3.224	0.499
284.000	204.300	80.004	19.996	103.196	19.989	3.207	0.487
286.000	205.290	80.004	19.995	103.186	19.989	3.152	0.480
288.000	206.289	80.002	19.995	103.198	19.991	3.078	0.485
290.000	207.237	80.002	19.995	103.195	19.990	3.082	0.483
292.000	208.291	80.002	19.993	103.193	19.991	3.040	0.502
294.000	209.273	80.003	19.994	103.196	19.989	3.159	0.478
296.000	210.234	80.002	19.994	103.205	19.990	3.127	0.493
298.000	211.185	80.003	19.993	103.194	19.988	3.278	0.457
300.000	212.174	80.003	19.994	103.190	19.986	3.390	0.464
302.000	213.190	80.004	19.995	103.190	19.985	3.438	0.481
304.000	214.182	80.002	19.993	103.190	19.986	3.424	0.505
306.000	215.178	80.004	19.993	103.201	19.989	3.209	0.483
308.000	216.110	80.002	19.994	103.197	19.986	3.390	0.471
310.000	217.115	80.003	19.994	103.190	19.988	3.276	0.500
312.000	218.121	80.002	19.994	103.197	19.986	3.376	0.480
314.000	219.069	80.001	19.994	103.202	19.982	3.656	0.502
316.000	220.061	80.002	19.995	103.191	19.985	3.451	0.514
318.000	221.057	80.001	19.995	103.199	19.982	3.687	0.507
320.000	222.056	80.002	19.994	103.193	19.985	3.485	0.477
322.000	223.094	80.003	19.993	103.188	19.983	3.606	0.502
324.000	224.035	80.003	19.995	103.190	19.983	3.589	0.469
326.000	225.069	80.002	19.994	103.186	19.985	3.443	0.529
328.000	226.028	80.002	19.994	103.188	19.984	3.539	0.462
330.000	227.053	80.003	19.994	103.188	19.986	3.433	0.524
332.000	228.036	80.001	19.994	103.192	19.982	3.691	0.526
334.000	229.055	80.003	19.994	103.193	19.983	3.602	0.523
336.000	230.099	80.000	19.994	103.198	19.980	3.856	0.524
338.000	231.078	80.001	19.995	103.184	19.979	3.925	0.519
340.000	232.092	80.001	19.994	103.185	19.980	3.810	0.469
342.000	233.088	80.002	19.995	103.188	19.978	3.950	0.463
344.000	234.109	80.001	19.995	103.189	19.982	3.694	0.516
346.000	235.118	80.002	19.996	103.187	19.976	4.107	0.506
348.000	236.077	80.000	19.994	103.195	19.978	3.946	0.482
350.000	237.139	80.000	19.995	103.190	19.978	3.992	0.496
352.000	238.188	80.001	19.995	103.193	19.978	3.940	0.540
354.000	239.185	80.003	19.994	103.191	19.979	3.859	0.482
356.001	240.173	80.002	19.994	103.189	19.976	4.138	0.505
358.000	241.226	80.004	19.994	103.188	19.977	4.005	0.539
360.000	242.249	80.002	19.995	103.189	19.980	3.819	0.548
362.000	243.276	80.003	19.994	103.187	19.979	3.861	0.497
364.000	244.321	80.002	19.995	103.187	19.976	4.080	0.501
366.000	245.302	80.002	19.996	103.185	19.978	3.936	0.481
368.000	246.364	80.001	19.996	103.185	19.977	4.068	0.501
370.000	247.393	80.003	19.995	103.175	19.975	4.183	0.518
372.000	248.413	80.001	19.995	103.182	19.978	3.979	0.514
374.000	249.433	80.002	19.995	103.180	19.974	4.260	0.502
376.000	250.482	80.002	19.995	103.177	19.973	4.314	0.525
378.000	251.483	80.001	19.996	103.183	19.975	4.208	0.507
380.000	252.483	80.001	19.994	103.173	19.972	4.367	0.511
382.000	253.480	80.003	19.994	103.172	19.972	4.381	0.489
384.000	254.438	80.005	19.995	103.167	19.973	4.312	0.468
386.000	255.455	80.003	19.994	103.182	19.975	4.180	0.555
388.000	256.425	80.003	19.994	103.162	19.970	4.561	0.476
390.000	257.413	80.004	19.995	103.169	19.971	4.433	0.493
392.000	258.393	80.003	19.995	103.168	19.970	4.554	0.508
394.000	259.392	80.002	19.995	103.172	19.972	4.412	0.503
396.000	260.330	80.002	19.995	103.178	19.969	4.589	0.481
398.000	261.293	80.001	19.994	103.171	19.967	4.736	0.468
400.000	262.283	80.001	19.993	103.170	19.970	4.527	0.512
402.000	263.256	80.001	19.994	103.180	19.969	4.637	0.497
404.000	264.271	80.001	19.995	103.180	19.968	4.676	0.495
406.000	265.277	80.000	19.994	103.179	19.968	4.694	0.521
408.000	266.269	80.001	19.994	103.186	19.968	4.696	0.507
410.000	267.257	80.002	19.995	103.180	19.966	4.800	0.517
412.000	268.255	80.001	19.994	103.193	19.964	4.972	0.496
414.000	269.260	80.001	19.994	103.171	19.965	4.859	0.489
416.000	270.258	80.001	19.994	103.176	19.958	5.358	0.478
418.001	271.321	80.002	19.994	103.181	19.960	5.245	0.488
420.000	272.332	80.002	19.993	103.179	19.964	4.929	0.505
422.000	273.349	80.001	19.994	103.181	19.963	5.008	0.519
424.001	274.368	80.000	19.994	103.172	19.961	5.173	0.505
426.000	275.409	80.001	19.993	103.174	19.962	5.075	0.530
428.000	276.431	80.000	19.994	103.180	19.962	5.123	0.516
430.000	277.422	80.001	19.994	103.177	19.959	5.293	0.510
432.000	278.446	80.000	19.995	103.164	19.961	5.181	0.528
434.000	279.512	80.001	19.995	103.172	19.960	5.254	0.553
436.000	280.545	80.001	19.995	103.169	19.958	5.362	0.502
438.000	281.575	80.002	19.994	103.164	19.963	5.040	0.537
440.000	282.585	80.002	19.995	103.163	19.961	5.191	0.536
442.000	283.590	80.002	19.994	103.161	19.961	5.159	0.497
444.000	284.636	80.003	19.995	103.176	19.960	5.257	0.508
446.000	285.666	80.003	19.995	103.152	19.961	5.183	0.503
448.000	286.684	80.002	19.994	103.152	19.959	5.337	0.556
450.000	287.747	80.001	19.996	103.147	19.960	5.216	0.526
452.000	288.777	80.002	19.995	103.151	19.957	5.456	0.503
454.000	289.761	80.000	19.995	103.155	19.960	5.259	0.492
456.000	290.785	80.002	19.995	103.161	19.958	5.372	0.515
458.000	291.795	80.001	19.996	103.160	19.959	5.289	0.496
460.000	292.793	80.002	19.996	103.147	19.962	5.128	0.484
462.000	293.819	80.003	19.995	103.148	19.961	5.199	0.507
464.000	294.823	80.002	19.995	103.150	19.961	5.151	0.511
466.000	295.837	80.004	19.996	103.150	19.961	5.141	0.498
468.000	296.844	80.004	19.996	103.147	19.957	5.437	0.496
470.000	297.844	80.002	19.996	103.145	19.956	5.537	0.485
472.000	298.894	80.002	19.994	103.145	19.958	5.397	0.531
474.000	299.878	79.999	19.995	103.143	19.958	5.391	0.484
476.000	300.868	80.001	19.994	103.144	19.955	5.591	0.494
478.000	301.829	80.000	19.995	103.149	19.959	5.283	0.507
480.000	302.864	80.001	19.995	103.146	19.956	5.531	0.508
482.000	303.871	80.000	19.995	103.153	19.959	5.285	0.488
484.000	304.830	80.000	19.993	103.150	19.955	5.560	0.484
486.000	305.808	80.001	19.994	103.153	19.954	5.652	0.509
488.000	306.835	80.000	19.994	103.155	19.956	5.510	0.512
490.000	307.792	79.999	19.995	103.146	19.955	5.604	0.459
492.000	308.817	80.001	19.994	103.151	19.959	5.314	0.477
494.000	309.801	80.001	19.995	103.148	19.959	5.339	0.503
496.000	310.773	80.001	19.993	103.150	19.956	5.487	0.500
498.000	311.744	79.999	19.995	103.151	19.957	5.414	0.490
500.000	312.770	80.000	19.994	103.148	19.960	5.247	0.501
502.000	313.779	80.000	19.995	103.148	19.957	5.452	0.474
504.000	314.743	80.000	19.993	103.148	19.959	5.318	0.483
506.000	315.735	80.000	19.993	103.148	19.957	5.458	0.501
508.000	316.716	80.001	19.994	103.150	19.958	5.373	0.467
510.000	317.695	79.999	19.995	103.149	19.958	5.349	0.469
512.000	318.672	80.001	19.996	103.148	19.956	5.496	0.472
514.000	319.676	80.002	19.995	103.146	19.956	5.510	0.504
516.000	320.660	80.003	19.994	103.146	19.960	5.226	0.491
518.000	321.664	80.002	19.993	103.145	19.958	5.412	0.496
520.000	322.666	80.002	19.995	103.148	19.959	5.337	0.504
522.000	323.689	80.004	19.996	103.146	19.960	5.216	0.503
524.000	324.637	80.004	19.995	103.145	19.960	5.270	0.477
526.000	325.646	80.003	19.995	103.144	19.958	5.407	0.517
528.000	326.653	80.002	19.994	103.142	19.958	5.371	0.525
530.000	327.609	80.002	19.996	103.144	19.955	5.555	0.481
532.000	328.622	80.002	19.996	103.143	19.956	5.502	0.511
534.000	329.625	80.002	19.995	103.148	19.960	5.264	0.479
536.000	330.609	80.001	19.994	103.145	19.957	5.456	0.491
538.000	331.609	80.002	19.995	103.188	19.956	5.492	0.493
540.000	332.589	80.001	19.996	103.132	19.956	5.498	0.474
542.000	333.625	80.002	19.995	103.139	19.957	5.465	0.522
544.000	334.637	80.002	19.994	103.144	19.952	5.824	0.496
546.000	335.648	80.004	19.994	103.144	19.953	5.736	0.509
548.000	336.626	80.002	19.995	103.144	19.953	5.763	0.483
550.000	337.595	80.003	19.994	103.146	19.955	5.579	0.526
552.000	338.600	80.003	19.995	103.146	19.954	5.655	0.510
554.000	339.635	80.003	19.996	103.146	19.953	5.723	0.500
556.000	340.613	80.000	19.995	103.141	19.954	5.650	0.499
558.000	341.680	80.001	19.995	103.146	19.955	5.618	0.539
560.000	342.633	80.000	19.994	103.150	19.954	5.686	0.490
562.000	343.606	80.001	19.996	103.146	19.954	5.636	0.518
564.000	344.614	80.001	19.996	103.147	19.957	5.437	0.501
566.000	345.623	80.001	19.994	103.149	19.954	5.669	0.499
568.001	346.620	80.000	19.994	103.156	19.956	5.481	0.512
570.000	347.699	80.002	19.993	103.164	19.953	5.737	0.526
572.000	348.698	80.002	19.994	103.143	19.950	5.924	0.505
574.000	349.715	80.002	19.994	103.147	19.951	5.895	0.528
576.000	350.740	80.002	19.994	103.150	19.946	6.198	0.498
578.000	351.773	80.002	19.995	103.075	19.950	5.958	0.507
580.000	352.796	80.003	19.994	103.159	19.947	6.171	0.513
582.000	353.866	80.002	19.995	103.203	19.946	6.250	0.558
584.000	354.846	80.002	19.995	103.145	19.944	6.363	0.510
586.000	355.903	80.002	19.996	103.145	19.940	6.623	0.513
588.000	356.930	80.002	19.995	103.143	19.938	6.757	0.523
590.000	357.916	80.001	19.995	103.144	19.935	6.986	0.459
592.000	358.955	80.002	19.994	103.144	19.933	7.114	0.537
594.000	359.939	80.001	19.994	103.144	19.933	7.164	0.474
596.000	360.913	80.002	19.994	103.145	19.931	7.255	0.490
598.000	361.940	80.002	19.994	103.123	19.927	7.583	0.480
600.000	363.025	80.003	19.995	103.129	19.920	8.086	0.546
602.000	363.959	80.003	19.994	103.138	19.918	8.226	0.496
604.000	364.968	80.003	19.994	103.125	19.915	8.394	0.509
606.000	365.937	80.003	19.993	103.136	19.907	8.972	0.492
608.000	367.028	80.002	19.994	103.132	19.907	8.972	0.501
610.000	368.094	80.002	19.994	103.146	19.908	8.926	0.489
612.000	368.977	80.002	19.994	103.145	19.900	9.458	0.436
614.000	369.975	80.001	19.995	103.143	19.900	9.510	0.342
616.000	371.185	80.002	19.996	103.138	19.892	10.066	0.436
618.000	371.764	80.001	19.995	103.142	19.886	10.455	0.173
620.000	372.773	80.002	19.996	103.141	19.880	10.862	0.094
622.001	374.069	80.003	19.995	103.146	19.877	11.113	0.495
624.000	375.082	80.002	19.994	103.148	19.868	11.722	0.568
626.000	375.965	80.004	19.995	103.148	19.856	12.572	0.510
628.000	377.012	80.003	19.994	103.147	19.848	13.157	0.484
630.000	377.961	80.005	19.994	103.143	19.832	14.277	0.458
632.000	378.984	80.002	19.994	103.146	19.824	14.819	0.522
634.000	379.982	80.003	19.995	103.137	19.808	15.976	0.516
636.000	381.029	80.001	19.995	103.140	19.771	18.626	0.501
638.000	381.986	80.001	19.995	103.165	19.753	19.910	0.476
640.000	383.056	80.002	19.996	103.121	19.760	19.364	0.506
642.000	384.031	80.000	19.994	103.072	19.771	18.600	0.508
644.000	385.015	80.000	19.996	103.082	19.780	17.941	0.478
646.000	386.057	80.001	19.996	103.109	19.779	18.014	0.487
648.000	387.081	80.002	19.996	103.117	19.770	18.654	0.508
650.000	388.107	80.002	19.996	103.243	19.761	19.332	0.546
652.000	389.116	80.000	19.995	103.153	19.732	21.381	0.497
654.000	390.107	80.001	19.995	103.151	19.701	23.529	0.486
656.000	391.095	80.001	19.995	103.144	19.682	24.893	0.507
658.000	392.126	80.002	19.994	103.096	19.680	25.058	0.493
660.000	393.130	80.000	19.995	103.071	19.677	25.229	0.497
662.000	394.175	80.000	19.995	103.096	19.658	26.593	0.521
664.000	395.170	80.002	19.995	103.160	19.629	28.656	0.496
666.000	396.154	80.001	19.996	103.188	19.599	30.737	0.507
668.000	397.149	80.001	19.995	103.163	19.582	31.949	0.538
670.000	398.117	80.000	19.995	103.113	19.549	34.315	0.471
672.000	399.131	80.000	19.994	103.129	19.484	38.945	0.498
674.000	400.141	80.001	19.995	103.190	19.456	40.927	0.515
676.000	401.110	80.001	19.994	103.125	19.440	41.985	0.518
678.000	402.044	80.002	19.995	103.110	19.384	45.987	0.467
680.000	403.060	80.003	19.995	103.146	19.333	49.618	0.503
682.000	404.007	80.004	19.993	103.174	19.295	52.287	0.481
684.000	405.003	80.003	19.994	103.186	19.211	58.215	0.518
686.000	406.003	80.004	19.994	103.190	19.148	62.732	0.497
688.000	406.934	80.002	19.994	103.135	19.069	68.290	0.472
690.001	407.965	80.002	19.994	103.192	19.002	73.074	0.515
692.000	408.927	80.003	19.995	103.163	18.935	77.743	0.476
694.000	409.927	80.001	19.994	103.139	18.850	83.735	0.493
696.000	410.908	80.003	19.994	103.207	18.745	91.198	0.512
698.000	411.890	80.002	19.995	103.209	18.629	99.466	0.513
700.000	412.875	80.004	19.996	103.236	18.498	108.721	0.500
702.000	413.858	80.005	19.994	103.213	18.386	116.670	0.476
704.000	414.858	80.004	19.994	103.148	18.268	125.005	0.503
706.000	415.798	80.003	19.995	103.171	18.117	135.711	0.508
708.000	416.798	80.004	19.995	103.225	17.970	146.135	0.482
710.000	417.837	80.005	19.994	103.236	17.826	156.377	0.480
712.000	418.811	80.004	19.994	103.241	17.678	166.804	0.504
714.000	419.821	80.002	19.996	103.192	17.512	178.612	0.496
716.000	420.831	80.002	19.994	103.240	17.343	190.583	0.499
718.000	421.826	80.002	19.994	103.257	17.174	202.582	0.504
720.000	422.791	80.002	19.995	103.260	16.991	215.498	0.492
722.000	423.768	80.001	19.994	103.261	16.794	229.500	0.519
724.000	424.756	80.002	19.996	103.279	16.595	243.574	0.483
726.000	425.772	80.002	19.995	103.270	16.389	258.141	0.518
728.000	426.771	80.001	19.996	103.283	16.176	273.292	0.526
730.000	427.805	80.001	19.996	103.291	15.956	288.810	0.520
732.000	428.772	80.000	19.995	103.308	15.727	304.988	0.513
734.000	429.758	80.001	19.995	103.314	15.505	320.665	0.511
736.000	430.752	80.000	19.995	103.309	15.282	336.404	0.518
738.000	431.715	80.000	19.995	103.290	15.065	351.853	0.498
740.000	432.724	80.000	19.995	103.284	14.857	366.579	0.484
742.000	433.737	80.001	19.995	103.278	14.648	381.493	0.511
744.000	434.706	80.001	19.996	103.263	14.456	395.037	0.500
746.000	435.709	80.002	19.994	103.251	14.285	407.196	0.490
748.001	436.708	80.001	19.995	103.251	14.131	418.114	0.485
750.000	437.706	80.001	19.995	103.261	13.993	428.061	0.503
752.000	438.695	80.000	19.994	103.277	13.888	435.514	0.489
754.000	439.766	80.001	19.995	103.283	13.819	440.528	0.513
756.000	440.731	80.002	19.995	103.278	13.788	442.869	0.490
758.000	441.737	80.000	19.994	103.287	13.791	442.734	0.487
760.000	442.790	80.003	19.994	103.317	13.830	439.954	0.539
762.000	443.816	80.003	19.995	103.344	13.896	435.253	0.524
764.000	444.834	80.004	19.995	103.358	13.983	429.133	0.523
766.000	445.868	80.003	19.995	103.390	14.097	421.093	0.497
768.000	446.972	80.002	19.995	103.413	14.232	411.514	0.517
770.000	447.987	80.001	19.995	103.409	14.389	400.375	0.515
772.001	449.027	80.003	19.995	103.412	14.568	387.544	0.520
774.000	450.095	80.002	19.994	103.410	14.766	373.443	0.520
776.000	451.182	80.002	19.994	103.429	14.973	358.765	0.507
778.001	452.196	80.002	19.995	103.432	15.201	342.580	0.535
780.000	453.277	80.001	19.995	103.422	15.428	326.426	0.534
782.000	454.354	80.003	19.995	103.423	15.670	309.169	0.512
784.000	455.434	80.003	19.994	103.405	15.911	292.030	0.543
786.000	456.484	80.005	19.994	103.388	16.150	275.114	0.509
788.000	457.551	80.005	19.994	103.371	16.378	258.940	0.568
790.000	458.596	80.004	19.995	103.362	16.600	243.173	0.536
792.000	459.699	80.004	19.995	103.337	16.821	227.502	0.557
794.000	460.713	80.002	19.994	103.304	17.025	212.982	0.511
796.000	461.782	80.002	19.994	103.300	17.224	198.922	0.493
798.000	462.860	80.002	19.995	103.298	17.407	185.922	0.545
800.000	463.912	79.999	19.995	103.289	17.582	173.556	0.541
802.000	464.952	79.999	19.994	103.271	17.746	161.907	0.518
804.000	465.992	80.001	19.995	103.249	17.898	151.196	0.521
806.000	467.064	80.001	19.995	103.244	18.037	141.308	0.526
808.000	468.122	80.002	19.996	103.238	18.175	131.566	0.548
810.000	469.175	80.001	19.995	103.226	18.296	122.949	0.523
812.000	470.182	80.001	19.994	103.216	18.410	114.889	0.496
814.000	471.266	80.001	19.994	103.200	18.518	107.264	0.508
816.000	472.317	80.002	19.993	103.213	18.614	100.491	0.534
818.000	473.367	80.002	19.994	103.190	18.705	94.061	0.527
820.000	474.326	80.001	19.994	103.186	18.790	88.025	0.498
822.000	475.430	80.001	19.994	103.186	18.869	82.375	0.527
824.000	476.412	79.998	19.995	103.186	18.940	77.375	0.485
826.000	477.453	80.000	19.996	103.196	19.012	72.259	0.512
828.000	478.494	80.000	19.996	103.181	19.074	67.896	0.537
830.000	479.549	80.000	19.997	103.175	19.136	63.536	0.542
832.000	480.551	79.999	19.997	103.164	19.195	59.356	0.491
834.000	481.558	79.999	19.997	103.150	19.251	55.373	0.499
836.000	482.594	80.002	19.995	103.150	19.305	51.575	0.509
838.000	483.605	80.001	19.994	103.153	19.357	47.883	0.505
840.000	484.626	80.002	19.995	103.150	19.402	44.668	0.501
842.000	485.643	80.002	19.993	103.153	19.451	41.251	0.499
844.000	486.657	80.002	19.994	103.142	19.503	37.572	0.510
846.000	487.671	80.003	19.993	103.144	19.546	34.536	0.516
848.000	488.637	80.001	19.994	103.141	19.587	31.580	0.503
850.000	489.683	80.002	19.995	103.128	19.635	28.233	0.544
852.000	490.689	80.002	19.994	103.125	19.675	25.383	0.491
854.000	491.660	80.002	19.994	103.140	19.712	22.792	0.491
856.000	492.705	80.002	19.994	103.123	19.749	20.183	0.518
858.000	493.714	80.001	19.995	103.126	19.781	17.905	0.514
860.000	494.756	80.002	19.994	103.139	19.810	15.850	0.521
862.000	495.810	80.002	19.994	103.118	19.837	13.902	0.543
864.000	496.794	80.003	19.995	103.119	19.860	12.278	0.504
866.000	497.821	80.003	19.993	103.111	19.882	10.776	0.497
868.000	498.830	80.003	19.994	103.118	19.907	8.947	0.497
870.000	499.822	80.003	19.995	103.111	19.922	7.953	0.502
872.000	500.841	80.002	19.994	103.113	19.937	6.844	0.486
874.000	501.841	80.003	19.993	103.114	19.950	5.933	0.518
876.001	502.895	80.002	19.994	103.119	19.961	5.143	0.531
878.000	503.891	80.000	19.994	103.115	19.975	4.165	0.531
880.000	504.885	80.001	19.994	103.111	19.980	3.852	0.496
882.000	505.919	80.000	19.994	103.109	19.982	3.673	0.539
884.000	506.917	80.001	19.995	103.108	19.986	3.411	0.503
886.000	507.975	80.001	19.996	103.109	19.990	3.141	0.521
888.000	508.976	80.001	19.994	103.105	19.992	2.953	0.510
890.000	510.008	80.001	19.994	103.104	19.993	2.867	0.519
892.000	511.022	80.001	19.995	103.079	19.993	2.920	0.505
894.000	512.015	80.002	19.996	103.091	19.992	3.001	0.500
896.000	512.995	80.003	19.995	103.096	19.993	2.905	0.500
898.000	514.035	80.001	19.994	103.094	19.996	2.668	0.524
900.000	515.023	80.001	19.995	103.102	19.995	2.760	0.485
902.000	516.039	80.002	19.995	103.102	19.998	2.562	0.499
904.000	517.073	80.001	19.993	103.106	19.998	2.518	0.500
906.000	518.058	80.002	19.994	103.104	19.998	2.549	0.500
908.000	519.031	80.001	19.995	103.107	19.993	2.886	0.496
910.000	520.078	80.000	19.995	103.111	19.997	2.648	0.523
912.000	521.093	79.999	19.994	103.112	19.997	2.604	0.530
914.000	522.103	80.000	19.996	103.116	19.996	2.685	0.476
916.000	523.132	80.000	19.994	103.113	19.997	2.585	0.505
918.000	524.107	80.000	19.995	103.122	20.000	2.428	0.490
920.000	525.145	80.002	19.996	103.107	19.998	2.557	0.517
922.000	526.168	80.003	19.996	103.108	19.993	2.934	0.521
924.000	527.198	80.001	19.996	103.114	19.994	2.850	0.514
926.000	528.243	80.001	19.996	103.120	19.999	2.485	0.548
928.000	529.253	80.003	19.996	103.112	19.993	2.871	0.512
930.000	530.297	80.003	19.995	103.118	19.996	2.698	0.530
932.000	531.346	80.003	19.994	103.119	19.994	2.796	0.552
934.000	532.361	80.004	19.995	103.110	20.000	2.436	0.503
936.000	533.397	80.002	19.993	103.117	20.000	2.418	0.512
938.000	534.434	80.002	19.994	103.120	19.998	2.549	0.520
940.000	535.523	80.004	19.995	103.117	19.993	2.869	0.528
942.000	536.529	80.002	19.995	103.114	19.999	2.476	0.529
944.000	537.570	80.002	19.994	103.117	20.001	2.369	0.508
946.000	538.582	80.002	19.995	103.116	19.999	2.480	0.513
948.000	539.660	80.002	19.993	103.119	19.999	2.484	0.531
950.000	540.701	80.004	19.993	103.119	20.001	2.305	0.500
952.000	541.754	80.003	19.993	103.126	20.000	2.409	0.514
954.000	542.751	80.003	19.994	103.127	19.999	2.474	0.516
956.000	543.766	80.004	19.994	103.116	19.998	2.533	0.536
958.000	544.805	80.003	19.995	103.112	20.001	2.367	0.511
960.000	545.795	80.001	19.995	103.117	19.998	2.518	0.513
962.000	546.849	80.003	19.994	103.116	19.999	2.443	0.523
964.000	547.891	80.001	19.996	103.107	20.000	2.409	0.525
966.000	548.904	80.001	19.994	103.111	20.004	2.154	0.504
968.000	549.927	80.003	19.993	103.120	20.002	2.230	0.497
970.000	550.912	80.002	19.994	103.120	20.002	2.240	0.497
972.000	551.976	80.003	19.993	103.121	20.005	2.019	0.514
974.000	552.958	80.002	19.994	103.120	20.001	2.307	0.508
976.000	553.988	80.002	19.995	103.127	20.002	2.231	0.536
978.000	555.021	80.000	19.994	103.111	20.000	2.428	0.519
980.000	556.074	80.001	19.994	103.124	20.001	2.355	0.541
982.000	557.012	80.002	19.995	103.112	19.996	2.656	0.486
984.000	558.044	80.001	19.995	103.106	20.001	2.315	0.484
986.000	559.109	80.000	19.994	103.113	20.000	2.413	0.541
988.000	560.133	80.002	19.994	103.132	19.999	2.480	0.519
990.001	561.106	80.002	19.996	103.112	20.002	2.240	0.491
992.000	562.160	80.001	19.996	103.119	20.000	2.424	0.521
994.000	563.193	80.000	19.995	103.111	19.999	2.499	0.538
996.000	564.169	80.001	19.994	103.114	20.000	2.430	0.500
998.000	565.221	80.002	19.996	103.115	20.001	2.305	0.534
1000.000	566.267	80.002	19.994	103.112	19.997	2.597	0.534
1002.000	567.279	80.002	19.995	103.110	20.003	2.203	0.478
1004.000	568.308	80.002	19.995	103.108	20.002	2.297	0.510
1006.000	569.302	80.002	19.997	103.115	19.999	2.495	0.510
1008.000	570.385	80.002	19.997	103.111	20.002	2.238	0.547
1010.000	571.405	80.002	19.995	103.107	19.998	2.514	0.498
1012.000	572.436	80.001	19.995	103.108	19.999	2.451	0.518
1014.000	573.447	80.002	19.995	103.108	19.999	2.451	0.510
1016.000	574.539	80.000	19.996	103.111	19.999	2.468	0.524
1018.000	575.552	80.002	19.995	103.117	19.997	2.593	0.488
1020.000	576.586	80.002	19.995	103.112	19.999	2.456	0.499
1022.000	577.611	80.004	19.995	103.109	19.996	2.706	0.524
1024.000	578.656	80.000	19.994	103.112	20.003	2.194	0.523
1026.001	579.680	80.004	19.995	103.110	20.000	2.378	0.511
1028.000	580.679	80.004	19.993	103.108	19.997	2.604	0.535
1030.000	581.713	80.006	19.994	103.106	20.000	2.430	0.512
1032.000	582.710	80.004	19.994	103.102	20.002	2.244	0.503
1034.000	583.754	80.003	19.995	103.101	19.998	2.554	0.512
1036.000	584.796	80.003	19.994	103.104	20.001	2.359	0.499
1038.000	585.812	80.004	19.995	103.105	20.003	2.180	0.524
1040.000	586.834	80.002	19.993	103.107	19.998	2.539	0.504
1042.001	587.867	80.002	19.995	103.106	20.000	2.435	0.510
1044.001	588.899	80.003	19.994	103.108	19.999	2.501	0.507
1046.000	589.955	79.999	19.996	103.107	20.002	2.295	0.524
1048.000	590.908	80.002	19.993	103.102	19.998	2.528	0.503
1050.000	591.988	80.002	19.994	103.096	20.003	2.182	0.516
1052.000	592.989	80.002	19.995	103.101	20.001	2.367	0.539
1054.001	594.045	80.001	19.994	103.106	20.001	2.355	0.554
1056.001	595.047	80.003	19.994	103.106	20.003	2.225	0.478
1058.001	596.087	80.002	19.994	103.110	19.995	2.737	0.492
1060.000	597.173	80.003	19.995	103.108	19.997	2.618	0.562
1062.000	598.195	80.002	19.995	103.111	19.997	2.585	0.534
1064.000	599.269	80.002	19.994	103.110	19.999	2.510	0.527
1066.000	600.225	80.002	19.994	103.110	20.002	2.273	0.508
1068.000	601.295	80.003	19.997	103.111	19.999	2.462	0.507
1070.000	602.343	80.001	19.995	103.109	20.001	2.349	0.510
1072.001	603.350	80.002	19.994	103.109	20.005	2.063	0.511
1074.000	604.361	79.999	19.996	103.106	20.004	2.150	0.519
1076.001	605.422	80.001	19.994	103.108	20.000	2.409	0.533
1078.001	606.431	80.000	19.994	103.111	20.003	2.213	0.487
1080.001	607.456	80.001	19.995	103.111	20.000	2.382	0.537
1082.001	608.495	80.001	19.995	103.113	20.002	2.242	0.546
1084.000	609.528	80.003	19.996	103.105	20.000	2.386	0.518
1086.001	610.563	80.002	19.995	103.107	20.000	2.416	0.525
1088.000	611.581	80.003	19.995	103.102	20.002	2.232	0.531
1090.000	612.572	80.004	19.995	103.099	20.002	2.255	0.504
1092.000	613.615	80.004	19.995	103.109	19.999	2.445	0.537
1094.000	614.638	80.003	19.995	103.103	20.000	2.410	0.509
1096.000	615.646	80.002	19.995	103.105	20.004	2.146	0.482
1098.000	616.678	80.001	19.996	103.101	20.000	2.376	0.517
1100.000	617.680	80.001	19.996	103.098	20.004	2.123	0.499
1102.000	618.736	80.004	19.995	103.102	20.005	2.077	0.516
1104.000	619.733	80.002	19.995	103.099	20.003	2.221	0.519
1106.001	620.673	80.002	19.996	103.102	20.004	2.144	0.474
1108.000	621.697	80.004	19.995	103.104	20.002	2.244	0.495
1110.000	622.764	80.003	19.995	103.105	20.003	2.176	0.528
1112.000	623.745	80.004	19.994	103.107	20.004	2.088	0.514
1114.000	624.789	80.004	19.995	103.101	19.997	2.585	0.546
1116.000	625.817	80.004	19.995	103.102	20.000	2.416	0.559
1118.000	626.782	80.002	19.995	103.102	20.001	2.355	0.496
1120.001	627.772	80.001	19.994	103.102	19.999	2.499	0.508
1122.001	628.823	79.998	19.994	103.100	20.000	2.376	0.527
1124.000	629.839	80.001	19.995	103.099	19.999	2.493	0.526
1126.000	630.895	80.003	19.995	103.105	20.001	2.326	0.509
1128.000	631.875	80.003	19.993	103.101	20.002	2.255	0.487
1130.000	632.873	80.002	19.995	103.104	20.001	2.324	0.507
1132.000	633.947	80.001	19.993	103.107	20.004	2.146	0.538
1134.001	634.950	80.001	19.994	103.108	20.005	2.084	0.507
1136.000	636.001	80.002	19.992	103.106	20.001	2.361	0.534
1138.000	637.005	80.001	19.994	103.104	20.005	2.044	0.511
1140.001	638.010	80.001	19.994	103.097	20.002	2.249	0.491
1142.000	639.035	80.001	19.994	103.103	20.002	2.276	0.503
1144.001	640.045	80.001	19.994	103.106	20.003	2.180	0.525
1146.000	641.090	80.000	19.994	103.104	20.001	2.353	0.511
1148.000	642.126	80.001	19.994	103.104	20.005	2.034	0.494
1150.000	643.138	80.001	19.994	103.093	19.998	2.554	0.499
1152.000	644.142	80.002	19.994	103.096	20.004	2.155	0.493
1154.000	645.218	80.001	19.994	103.107	20.007	1.939	0.540
1156.000	646.171	80.000	19.994	103.107	20.007	1.914	0.505
1158.001	647.186	80.003	19.995	103.101	20.004	2.117	0.510
1160.000	648.177	80.002	19.994	103.099	20.006	2.014	0.477
1162.001	649.264	80.004	19.995	103.106	20.000	2.406	0.557
1164.000	650.229	80.003	19.995	103.102	20.007	1.940	0.501
1166.000	651.299	80.004	19.995	103.101	20.005	2.065	0.518
1168.000	652.329	80.005	19.996	103.094	20.006	1.973	0.531
1170.000	653.317	80.005	19.996	103.113	20.008	1.860	0.494
1172.000	654.376	80.003	19.996	103.101	20.007	1.944	0.547
1174.000	655.387	80.003	19.995	103.087	20.005	2.054	0.533
1176.000	656.406	80.003	19.995	103.092	20.005	2.019	0.473
1178.000	657.422	80.002	19.996	103.082	20.003	2.161	0.517
1180.000	658.444	80.000	19.994	103.088	20.000	2.383	0.535
1182.000	659.502	80.002	19.995	103.089	20.005	2.042	0.535
1184.000	660.491	80.003	19.995	103.097	20.009	1.795	0.509
1186.001	661.507	80.004	19.995	103.101	20.007	1.946	0.502
1188.001	662.491	80.002	19.993	103.102	20.006	1.992	0.508
1190.000	663.551	80.004	19.995	103.090	20.006	1.956	0.499
1192.001	664.504	80.005	19.994	103.095	20.008	1.816	0.502
1194.000	665.481	80.004	19.996	103.096	20.006	2.013	0.461
1196.001	666.571	80.003	19.995	103.100	20.004	2.100	0.548
1198.000	667.596	80.004	19.997	103.094	20.007	1.904	0.534
1200.000	668.559	80.001	19.996	103.092	20.005	2.038	0.482
1202.001	669.570	80.002	19.995	103.104	20.004	2.127	0.478
1204.000	670.599	80.000	19.995	103.084	20.006	2.010	0.500
1206.000	671.571	79.999	19.995	103.087	20.004	2.102	0.506
1208.000	672.632	80.001	19.995	103.098	19.998	2.531	0.515
1210.000	673.634	80.000	19.993	103.107	20.006	1.989	0.534
1212.001	674.660	80.002	19.994	103.101	20.004	2.106	0.493
1214.000	675.690	80.002	19.994	103.105	20.005	2.054	0.515
1216.000	676.696	80.001	19.993	103.104	20.005	2.056	0.504
1218.000	677.716	80.003	19.994	103.100	20.004	2.099	0.497
1220.000	678.726	80.003	19.994	103.091	19.998	2.523	0.499
1222.001	679.714	80.001	19.993	103.103	19.998	2.517	0.483
1224.000	680.699	80.001	19.994	103.102	20.001	2.349	0.497
1226.000	681.830	80.001	19.995	103.102	20.001	2.324	0.594
1228.000	682.771	80.000	19.995	103.086	19.999	2.462	0.517
1230.000	683.750	80.001	19.995	103.093	20.002	2.232	0.499
1232.000	684.771	79.999	19.994	103.093	20.000	2.385	0.502
1234.000	685.746	80.000	19.995	103.095	20.002	2.249	0.518
1236.000	686.748	80.001	19.994	103.103	19.997	2.612	0.517
1238.000	687.772	80.002	19.994	103.100	20.001	2.324	0.530
1240.000	688.810	80.002	19.995	103.106	20.000	2.380	0.504
1242.000	689.823	80.001	19.993	103.096	19.998	2.575	0.528
1244.001	690.827	80.002	19.995	103.101	20.000	2.376	0.497
1246.000	691.855	80.003	19.993	103.102	19.999	2.464	0.498
1248.001	692.883	80.001	19.994	103.101	20.001	2.316	0.518
1250.000	693.903	80.002	19.993	103.107	20.003	2.194	0.489
1252.000	694.952	80.002	19.995	103.106	20.001	2.343	0.540
1254.000	695.973	80.001	19.994	103.095	20.004	2.119	0.536
1256.000	696.983	80.003	19.993	103.095	20.002	2.288	0.493
1258.000	697.986	80.000	19.993	103.093	20.003	2.190	0.514
1260.001	698.998	80.002	19.995	103.091	20.000	2.403	0.483
1262.000	700.072	80.002	19.995	103.101	20.004	2.096	0.529
1264.001	701.072	80.002	19.995	103.104	20.006	1.962	0.525
1266.000	702.069	80.002	19.996	103.101	20.005	2.023	0.525
1268.000	703.099	80.004	19.996	103.104	20.002	2.238	0.546
1270.000	704.116	80.003	19.994	103.108	20.005	2.069	0.509
1272.000	705.085	80.004	19.994	103.108	20.001	2.335	0.503
1274.000	706.103	80.005	19.995	103.104	20.000	2.405	0.489
1276.000	707.125	80.004	19.993	103.102	20.002	2.297	0.503
1278.000	708.111	80.003	19.995	103.104	20.006	1.994	0.506
1280.001	709.099	80.001	19.995	103.103	19.997	2.600	0.483
1282.000	710.095	80.001	19.995	103.098	20.001	2.318	0.505
1284.000	711.090	80.002	19.995	103.098	20.002	2.267	0.500
1286.001	712.097	80.001	19.996	103.103	20.002	2.234	0.494
1288.000	713.078	80.002	19.997	103.095	19.997	2.585	0.490
1290.002	714.067	80.001	19.996	103.096	19.998	2.543	0.491
1292.000	715.080	80.000	19.995	103.091	19.998	2.543	0.507
1294.001	716.071	79.999	19.995	103.101	19.998	2.545	0.504
1296.001	717.125	80.002	19.997	103.101	20.001	2.357	0.495
1298.000	718.092	80.002	19.995	103.096	20.002	2.270	0.479
1300.000	719.012	80.004	19.995	103.091	19.999	2.485	0.499
1302.001	720.052	80.002	19.995	103.104	19.994	2.832	0.514
1304.000	721.046	80.003	19.994	103.096	20.001	2.353	0.501
1306.000	722.043	80.000	19.994	103.101	19.996	2.667	0.505
1308.000	723.067	80.002	19.993	103.106	19.998	2.556	0.494
1310.001	724.027	80.000	19.996	103.106	19.995	2.777	0.485
1312.000	725.025	80.003	19.996	103.105	19.995	2.752	0.521
1314.000	726.011	80.000	19.996	103.106	19.992	2.940	0.475
1316.000	727.045	80.002	19.994	103.109	19.996	2.694	0.488
1318.000	728.118	80.001	19.995	103.104	19.994	2.857	0.554
1320.000	729.073	80.001	19.995	103.106	19.992	2.999	0.485
1322.000	730.122	80.002	19.995	103.109	19.994	2.850	0.544
1324.000	731.058	80.003	19.995	103.107	19.992	2.940	0.466
1326.000	732.132	80.004	19.994	103.111	19.997	2.610	0.546
1328.001	733.112	80.002	19.995	103.110	19.992	2.976	0.501
1330.000	734.098	80.002	19.994	103.106	19.997	2.606	0.502
1332.000	735.153	80.003	19.993	103.107	19.992	3.005	0.510
1334.000	736.166	80.002	19.994	103.110	19.993	2.886	0.503
1336.001	737.158	80.003	19.995	103.109	19.994	2.817	0.527
1338.001	738.201	80.001	19.994	103.108	19.993	2.882	0.510
1340.000	739.240	80.004	19.993	103.103	19.994	2.865	0.503
1342.000	740.231	80.001	19.994	103.105	19.991	3.018	0.529
1344.000	741.252	80.002	19.994	103.091	19.989	3.176	0.513
1346.000	742.255	80.003	19.994	103.097	19.993	2.932	0.514
1348.000	743.310	80.004	19.994	103.106	19.988	3.243	0.525
1349.000	743.777	80.003	19.994	103.104	19.993	2.936	0.480