File: 01_Data/HIPS/MCC/HIPS_MCC_30K_min_211021_R2.txt
Sample ID:	C:\MCC\MCC Cal\Test\PlasticB_MCC_30K_min_211021_R2.txt
Sample Weight (mg):	4.3
Heating Rate (C/s):	0.5
Combustor Temp (C):	900
N2 Flow Rate (cc/min):	80
O2 Flow Rate (cc/min):	20
Calibration File:	C:\MCC\MCC Cal\Coeff1 JN10440_30_210304.txt.txt
T Correction Coefficients:	0	1.024463	0
Time Shift (s):	14
*
Time (s)	Temperature (C)	N2 flow rate (cc/min)	O2 flow rate (cc/min)	Flow Rate (cc/min)	Oxygen (%)	HRR (W/g)	Heating rate (C/s)
0.001	107.657	80.001	19.997	103.057	20.170	-0.435	-0.011
2.001	107.679	80.003	19.996	103.069	20.165	-0.021	-0.003
4.000	107.691	80.004	19.996	103.062	20.170	-0.404	0.026
6.000	107.665	80.004	19.995	103.064	20.169	-0.333	-0.009
8.001	107.656	80.005	19.995	103.065	20.167	-0.209	-0.016
10.002	107.700	80.003	19.996	103.068	20.165	-0.060	0.023
12.002	107.655	80.003	19.995	103.077	20.165	-0.025	-0.006
14.002	107.674	80.002	19.995	103.079	20.169	-0.305	-0.032
16.001	107.681	80.001	19.996	103.092	20.165	0.008	0.002
18.000	107.734	80.003	19.997	103.110	20.160	0.313	0.018
20.000	107.747	80.002	19.997	103.137	20.156	0.632	0.025
22.001	107.817	80.002	19.996	103.153	20.151	1.004	0.021
24.000	107.859	80.003	19.996	103.154	20.148	1.273	0.005
26.001	107.975	80.003	19.996	103.187	20.144	1.561	0.032
28.001	108.094	80.004	19.997	103.150	20.140	1.825	0.040
30.001	108.247	80.005	19.996	103.144	20.141	1.775	0.072
32.000	108.382	80.004	19.996	103.254	20.138	1.979	0.054
34.000	108.595	80.004	19.996	103.196	20.140	1.873	0.104
36.000	108.783	80.003	19.996	103.195	20.134	2.271	0.093
38.001	109.004	80.002	19.996	103.209	20.133	2.390	0.128
40.002	109.256	80.001	19.996	103.233	20.134	2.278	0.146
42.001	109.556	80.001	19.994	103.246	20.131	2.537	0.144
44.000	109.857	80.000	19.997	103.270	20.128	2.743	0.145
46.001	110.209	80.001	19.997	103.272	20.128	2.751	0.171
48.000	110.591	80.001	19.996	103.276	20.124	3.024	0.193
50.001	110.993	80.001	19.997	103.282	20.124	3.037	0.188
52.002	111.445	80.001	19.996	103.281	20.123	3.135	0.229
54.000	111.904	80.001	19.996	103.277	20.122	3.210	0.270
56.001	112.347	80.001	19.996	103.281	20.121	3.245	0.226
58.000	112.849	80.002	19.997	103.273	20.119	3.442	0.245
60.000	113.358	80.001	19.997	103.283	20.121	3.303	0.280
62.002	113.856	80.001	19.996	103.304	20.122	3.210	0.269
64.001	114.409	80.002	19.996	103.292	20.119	3.395	0.299
66.001	114.966	80.002	19.995	103.296	20.121	3.260	0.278
68.000	115.525	80.002	19.996	103.297	20.121	3.264	0.271
70.001	116.159	80.001	19.995	103.287	20.122	3.216	0.323
72.000	116.740	80.001	19.996	103.296	20.119	3.420	0.293
74.001	117.385	80.001	19.997	103.295	20.117	3.565	0.307
76.001	118.077	80.000	19.996	103.310	20.117	3.532	0.338
78.000	118.704	80.001	19.997	103.305	20.117	3.540	0.311
80.001	119.392	80.001	19.996	103.303	20.119	3.420	0.311
82.001	120.105	80.002	19.996	103.309	20.118	3.482	0.334
84.000	120.829	80.002	19.995	103.317	20.118	3.488	0.351
86.000	121.564	80.002	19.996	103.309	20.117	3.594	0.387
88.000	122.299	80.002	19.995	103.310	20.113	3.858	0.346
90.000	123.070	80.003	19.996	103.309	20.112	3.961	0.366
92.000	123.889	80.003	19.995	103.314	20.115	3.702	0.396
94.000	124.622	80.004	19.995	103.309	20.111	3.982	0.414
96.000	125.444	80.002	19.995	103.311	20.113	3.837	0.405
98.001	126.244	80.002	19.996	103.313	20.117	3.602	0.397
100.000	127.077	80.003	19.995	103.312	20.114	3.768	0.403
102.001	127.891	80.003	19.995	103.314	20.114	3.773	0.402
104.001	128.761	80.003	19.995	103.311	20.113	3.849	0.449
106.001	129.619	80.002	19.996	103.313	20.115	3.737	0.437
108.001	130.447	80.002	19.996	103.314	20.116	3.652	0.429
110.001	131.339	80.003	19.996	103.314	20.116	3.667	0.479
112.001	132.229	80.004	19.995	103.315	20.117	3.604	0.450
114.001	133.136	80.005	19.995	103.313	20.114	3.769	0.467
116.000	134.020	80.005	19.996	103.313	20.117	3.603	0.441
118.001	134.925	80.004	19.996	103.312	20.118	3.474	0.471
120.001	135.831	80.004	19.996	103.309	20.117	3.563	0.471
122.001	136.743	80.001	19.996	103.311	20.116	3.669	0.470
124.001	137.684	80.001	19.996	103.320	20.112	3.937	0.467
126.001	138.639	80.001	19.995	103.321	20.116	3.660	0.476
128.001	139.568	80.001	19.997	103.316	20.115	3.756	0.510
130.001	140.534	80.000	19.996	103.314	20.115	3.691	0.485
132.000	141.494	80.001	19.996	103.316	20.117	3.604	0.481
134.000	142.413	80.001	19.996	103.317	20.119	3.403	0.483
136.000	143.377	80.001	19.995	103.310	20.116	3.640	0.501
138.000	144.343	80.002	19.996	103.313	20.119	3.426	0.467
140.001	145.350	80.003	19.997	103.307	20.117	3.563	0.472
142.001	146.338	80.002	19.996	103.309	20.119	3.411	0.531
144.001	147.259	80.001	19.997	103.309	20.117	3.554	0.475
146.001	148.274	80.003	19.997	103.305	20.115	3.707	0.505
148.001	149.298	80.001	19.997	103.306	20.118	3.473	0.521
150.001	150.273	80.001	19.997	103.307	20.120	3.336	0.490
152.002	151.233	80.002	19.997	103.300	20.118	3.475	0.501
154.001	152.231	80.000	19.996	103.302	20.118	3.469	0.516
156.001	153.250	80.001	19.996	103.296	20.116	3.633	0.489
158.002	154.198	80.000	19.996	103.280	20.119	3.450	0.462
160.002	155.192	80.001	19.995	103.292	20.118	3.487	0.473
162.002	156.149	80.002	19.996	103.295	20.117	3.560	0.507
164.001	157.204	80.003	19.996	103.280	20.117	3.593	0.515
166.001	158.185	80.003	19.996	103.291	20.117	3.566	0.488
168.001	159.212	80.003	19.997	103.276	20.119	3.394	0.507
170.001	160.164	80.003	19.996	103.282	20.120	3.332	0.514
172.001	161.152	80.004	19.996	103.279	20.121	3.261	0.462
174.001	162.167	80.003	19.995	103.279	20.120	3.373	0.466
176.001	163.164	80.005	19.995	103.292	20.119	3.441	0.495
178.001	164.185	80.002	19.995	103.283	20.120	3.325	0.504
180.001	165.209	80.002	19.994	103.282	20.118	3.456	0.505
182.001	166.210	80.002	19.995	103.275	20.122	3.192	0.522
184.001	167.259	80.002	19.995	103.278	20.116	3.613	0.507
186.001	168.184	80.002	19.995	103.273	20.120	3.352	0.486
188.000	169.201	80.003	19.996	103.270	20.118	3.468	0.478
190.001	170.210	80.001	19.995	103.272	20.118	3.510	0.534
192.002	171.178	80.003	19.995	103.273	20.122	3.217	0.514
194.001	172.187	80.005	19.996	103.271	20.121	3.234	0.512
196.001	173.208	80.003	19.995	103.276	20.120	3.345	0.501
198.001	174.156	80.004	19.996	103.275	20.121	3.273	0.519
200.001	175.161	80.005	19.995	103.274	20.119	3.451	0.500
202.000	176.137	80.004	19.995	103.269	20.120	3.358	0.493
204.001	177.095	80.004	19.995	103.264	20.123	3.152	0.458
206.001	178.145	80.004	19.995	103.261	20.122	3.179	0.483
208.000	179.088	80.001	19.996	103.260	20.124	3.065	0.493
210.000	180.090	80.002	19.996	103.266	20.124	3.059	0.494
212.000	181.068	80.001	19.997	103.264	20.121	3.247	0.462
214.000	182.038	80.001	19.997	103.255	20.123	3.128	0.472
216.000	183.027	80.002	19.997	103.248	20.121	3.285	0.487
218.000	184.032	80.001	19.996	103.246	20.122	3.217	0.503
220.000	184.992	80.001	19.996	103.246	20.121	3.248	0.458
222.000	186.010	80.002	19.997	103.244	20.120	3.378	0.501
224.000	187.007	80.003	19.996	103.252	20.124	3.017	0.480
226.001	187.966	80.002	19.995	103.249	20.127	2.804	0.472
228.001	188.942	80.002	19.997	103.252	20.122	3.177	0.467
230.000	189.910	80.002	19.998	103.257	20.121	3.268	0.441
232.000	190.885	80.002	19.997	103.255	20.123	3.138	0.483
234.001	191.879	80.002	19.997	103.245	20.122	3.219	0.467
236.000	192.794	80.003	19.998	103.250	20.119	3.436	0.468
238.001	193.824	80.001	19.997	103.244	20.117	3.558	0.486
240.000	194.813	80.000	19.997	103.240	20.116	3.665	0.505
242.000	195.763	80.000	19.997	103.250	20.120	3.331	0.501
244.000	196.742	80.001	19.998	103.252	20.120	3.324	0.466
246.000	197.719	80.000	19.998	103.252	20.117	3.543	0.465
248.001	198.671	80.000	19.998	103.240	20.119	3.397	0.446
250.001	199.659	80.001	19.997	103.247	20.119	3.444	0.483
252.001	200.652	80.002	19.996	103.255	20.119	3.426	0.483
254.000	201.635	80.003	19.997	103.242	20.116	3.650	0.458
256.000	202.565	80.003	19.996	103.255	20.114	3.760	0.471
258.002	203.555	80.003	19.996	103.254	20.116	3.625	0.473
260.000	204.555	80.003	19.996	103.242	20.115	3.693	0.463
262.000	205.577	80.002	19.995	103.239	20.120	3.378	0.515
264.000	206.534	80.003	19.997	103.237	20.117	3.544	0.483
266.001	207.504	80.001	19.994	103.240	20.113	3.898	0.464
268.002	208.505	80.002	19.995	103.240	20.114	3.828	0.477
270.001	209.472	80.002	19.996	103.235	20.117	3.564	0.461
272.002	210.478	80.002	19.996	103.234	20.114	3.821	0.502
274.000	211.450	80.001	19.996	103.233	20.118	3.506	0.491
276.000	212.431	80.004	19.996	103.238	20.112	3.952	0.496
278.001	213.427	80.002	19.996	103.234	20.116	3.641	0.495
280.002	214.422	80.003	19.995	103.232	20.116	3.664	0.478
282.002	215.399	80.004	19.995	103.232	20.115	3.741	0.499
284.000	216.394	80.003	19.995	103.231	20.113	3.869	0.475
286.001	217.357	80.004	19.995	103.232	20.114	3.782	0.488
288.000	218.373	80.002	19.995	103.230	20.111	4.039	0.540
290.000	219.283	80.004	19.995	103.232	20.112	3.969	0.464
292.001	220.304	80.001	19.996	103.230	20.113	3.902	0.492
294.000	221.260	80.002	19.996	103.231	20.111	3.985	0.514
296.001	222.230	80.002	19.996	103.235	20.111	3.996	0.472
298.000	223.220	80.002	19.995	103.234	20.109	4.143	0.482
300.000	224.195	80.002	19.995	103.235	20.111	3.996	0.493
302.001	225.158	80.003	19.996	103.234	20.113	3.846	0.473
304.000	226.143	80.000	19.997	103.234	20.109	4.129	0.513
306.001	227.103	80.001	19.996	103.237	20.113	3.894	0.474
308.002	228.092	80.000	19.996	103.235	20.109	4.182	0.475
310.001	229.067	80.001	19.995	103.235	20.108	4.240	0.490
312.000	230.124	80.002	19.996	103.235	20.107	4.282	0.503
314.000	231.092	80.002	19.996	103.237	20.112	3.946	0.517
316.001	232.072	80.001	19.996	103.234	20.110	4.064	0.503
318.000	233.012	80.001	19.996	103.234	20.110	4.102	0.481
320.001	234.009	80.001	19.996	103.233	20.110	4.085	0.488
322.000	235.052	80.003	19.996	103.237	20.108	4.245	0.497
324.001	236.034	80.001	19.997	103.237	20.109	4.203	0.485
326.002	237.014	80.001	19.996	103.236	20.106	4.369	0.487
328.000	238.060	80.001	19.997	103.237	20.104	4.522	0.536
330.001	239.039	80.001	19.996	103.238	20.107	4.352	0.507
332.002	239.999	80.002	19.997	103.236	20.107	4.294	0.513
334.000	241.031	80.003	19.997	103.236	20.111	4.024	0.517
336.001	242.019	80.002	19.997	103.234	20.102	4.657	0.505
338.000	243.007	80.001	19.997	103.231	20.099	4.891	0.516
340.000	244.039	80.000	19.997	103.229	20.104	4.545	0.515
342.001	244.857	80.005	19.997	103.230	20.106	4.404	0.473
344.001	245.974	80.000	19.996	103.222	20.105	4.441	0.549
346.002	247.097	80.004	19.997	103.224	20.103	4.644	0.586
348.001	247.997	80.003	19.998	103.220	20.104	4.534	0.360
350.002	248.909	80.001	19.997	103.219	20.099	4.907	0.484
352.000	249.935	80.002	19.997	103.221	20.100	4.841	0.497
354.001	250.981	79.999	19.996	103.231	20.100	4.852	0.532
356.001	251.958	80.002	19.995	103.226	20.098	4.967	0.552
358.001	252.967	80.004	19.997	103.223	20.099	4.926	0.488
360.001	253.943	80.003	19.996	103.215	20.101	4.781	0.517
362.002	254.933	80.003	19.996	103.225	20.098	4.997	0.497
364.001	255.893	80.004	19.996	103.226	20.099	4.933	0.494
366.001	256.929	80.006	19.994	103.228	20.099	4.897	0.510
368.000	257.945	80.004	19.995	103.218	20.098	5.018	0.568
370.001	258.924	80.006	19.994	103.220	20.099	4.937	0.512
372.001	259.881	80.003	19.995	103.222	20.098	4.984	0.495
374.000	260.895	80.003	19.996	103.230	20.098	4.984	0.477
376.001	261.881	80.001	19.995	103.227	20.097	5.088	0.495
378.001	262.887	80.001	19.996	103.221	20.099	4.889	0.495
380.000	263.874	80.001	19.997	103.231	20.095	5.178	0.514
382.001	264.875	80.001	19.996	103.227	20.098	4.989	0.481
384.000	265.865	80.001	19.995	103.223	20.100	4.858	0.488
386.000	266.825	80.002	19.996	103.224	20.094	5.283	0.474
388.000	267.871	80.002	19.996	103.225	20.097	5.075	0.488
390.001	268.851	80.002	19.995	103.233	20.098	5.005	0.468
392.000	269.890	80.002	19.997	103.232	20.098	5.004	0.507
394.001	270.871	80.001	19.997	103.225	20.091	5.544	0.526
396.000	271.958	80.002	19.994	103.224	20.094	5.293	0.516
398.001	272.937	80.002	19.997	103.218	20.096	5.135	0.501
400.001	273.936	80.002	19.997	103.212	20.092	5.454	0.497
402.002	274.962	80.002	19.996	103.211	20.090	5.564	0.516
404.000	275.964	80.001	19.997	103.211	20.094	5.315	0.499
406.001	276.984	80.000	19.998	103.217	20.092	5.413	0.523
408.002	277.975	80.000	19.996	103.206	20.093	5.328	0.514
410.000	279.002	80.002	19.997	103.204	20.087	5.787	0.508
412.002	280.017	79.998	19.997	103.203	20.090	5.552	0.524
414.001	281.015	80.003	19.998	103.205	20.092	5.423	0.494
416.000	282.045	80.002	19.996	103.206	20.088	5.715	0.472
418.000	283.059	80.002	19.997	103.208	20.087	5.794	0.505
420.001	284.096	80.003	19.996	103.205	20.088	5.703	0.499
422.001	285.085	80.003	19.996	103.206	20.090	5.563	0.497
424.001	286.080	80.006	19.996	103.210	20.090	5.584	0.518
426.002	287.114	80.003	19.996	103.210	20.087	5.785	0.490
428.001	288.139	80.002	19.997	103.196	20.087	5.775	0.548
430.000	289.111	80.002	19.996	103.205	20.088	5.744	0.464
432.000	290.111	80.002	19.997	103.208	20.087	5.846	0.498
434.000	291.185	80.001	19.996	103.200	20.089	5.677	0.514
436.001	292.169	80.001	19.996	103.196	20.085	5.963	0.504
438.002	293.216	80.002	19.997	103.196	20.086	5.903	0.517
440.001	294.203	80.002	19.997	103.195	20.084	6.040	0.496
442.001	295.217	80.003	19.997	103.201	20.080	6.330	0.502
444.000	296.213	80.001	19.995	103.196	20.079	6.396	0.522
446.000	297.203	80.004	19.995	103.196	20.079	6.384	0.491
448.002	298.233	80.006	19.995	103.193	20.075	6.720	0.522
450.001	299.210	80.003	19.995	103.195	20.075	6.691	0.490
452.000	300.229	80.001	19.995	103.195	20.074	6.811	0.494
454.001	301.227	80.004	19.994	103.193	20.071	7.037	0.493
456.000	302.237	80.003	19.995	103.193	20.072	6.958	0.470
458.000	303.241	80.003	19.995	103.197	20.071	7.010	0.499
460.001	304.267	80.003	19.996	103.196	20.075	6.695	0.498
462.002	305.275	80.001	19.996	103.197	20.076	6.672	0.502
464.002	306.313	80.000	19.996	103.197	20.072	6.958	0.513
466.000	307.338	80.001	19.996	103.194	20.076	6.670	0.518
468.001	308.316	80.001	19.996	103.188	20.073	6.894	0.509
470.000	309.374	80.002	19.996	103.192	20.075	6.743	0.508
472.000	310.362	80.003	19.995	103.192	20.079	6.436	0.501
474.001	311.348	80.003	19.996	103.193	20.078	6.506	0.482
476.001	312.448	80.002	19.996	103.195	20.078	6.511	0.500
478.000	313.460	80.000	19.997	103.195	20.081	6.295	0.545
480.000	314.487	80.004	19.995	103.194	20.082	6.164	0.510
482.000	315.466	80.001	19.996	103.195	20.082	6.200	0.517
484.001	316.482	80.002	19.995	103.193	20.084	6.028	0.507
486.001	317.529	80.001	19.995	103.196	20.085	5.967	0.499
488.001	318.504	80.002	19.996	103.198	20.085	5.965	0.482
490.001	319.510	80.002	19.996	103.194	20.084	6.007	0.524
492.000	320.499	80.001	19.997	103.195	20.087	5.795	0.484
494.000	321.514	80.001	19.994	103.193	20.088	5.735	0.497
496.001	322.518	79.999	19.997	103.194	20.089	5.686	0.491
498.001	323.539	80.001	19.997	103.193	20.090	5.622	0.485
500.002	324.546	80.000	19.997	103.196	20.089	5.653	0.499
502.001	325.540	80.001	19.998	103.190	20.089	5.640	0.472
504.000	326.515	80.003	19.997	103.196	20.087	5.794	0.463
506.001	327.545	80.003	19.996	103.195	20.087	5.827	0.477
508.000	328.520	80.002	19.997	103.195	20.091	5.501	0.485
510.001	329.551	80.003	19.996	103.162	20.088	5.712	0.514
512.001	330.485	80.003	19.996	103.166	20.089	5.690	0.491
514.000	331.448	80.003	19.997	103.235	20.093	5.381	0.468
516.001	332.483	80.002	19.996	103.188	20.084	6.003	0.526
518.000	333.458	80.002	19.997	103.196	20.085	5.928	0.521
520.001	334.442	80.003	19.996	103.192	20.085	5.986	0.480
522.001	335.443	80.002	19.997	103.191	20.088	5.710	0.492
524.002	336.471	80.002	19.997	103.194	20.088	5.702	0.520
526.001	337.418	80.002	19.997	103.197	20.088	5.754	0.472
528.002	338.410	80.002	19.995	103.195	20.087	5.782	0.479
530.001	339.381	80.003	19.997	103.195	20.087	5.813	0.486
532.001	340.371	80.004	19.998	103.190	20.088	5.754	0.496
534.000	341.409	80.002	19.994	103.189	20.087	5.838	0.512
536.001	342.383	80.003	19.996	103.186	20.089	5.640	0.494
538.001	343.378	80.003	19.996	103.182	20.090	5.584	0.507
540.001	344.281	80.003	19.996	103.179	20.087	5.806	0.489
542.000	345.275	80.003	19.996	103.180	20.085	5.938	0.473
544.001	346.227	80.001	19.995	103.185	20.085	5.984	0.502
546.000	347.236	80.002	19.996	103.183	20.083	6.114	0.501
548.000	348.238	80.002	19.995	103.191	20.081	6.282	0.497
550.000	349.213	80.001	19.996	103.193	20.088	5.750	0.530
552.000	350.204	80.002	19.996	103.188	20.084	6.032	0.492
554.001	351.164	80.001	19.996	103.192	20.082	6.189	0.477
556.002	352.172	80.001	19.995	103.189	20.079	6.428	0.499
558.000	353.191	80.001	19.996	103.193	20.073	6.855	0.512
560.000	354.207	80.001	19.996	103.191	20.076	6.652	0.503
562.001	355.219	80.002	19.997	103.193	20.080	6.343	0.536
564.000	356.222	80.001	19.998	103.194	20.070	7.107	0.497
566.002	357.259	80.002	19.997	103.194	20.075	6.701	0.508
568.001	358.249	80.002	19.995	103.194	20.070	7.097	0.522
570.000	359.244	80.000	19.997	103.195	20.067	7.317	0.481
572.001	360.248	80.000	19.995	103.193	20.064	7.501	0.487
574.002	361.332	80.002	19.994	103.194	20.064	7.526	0.525
576.001	362.315	80.001	19.997	103.189	20.057	8.038	0.528
578.002	363.346	80.001	19.995	103.199	20.052	8.399	0.501
580.001	364.357	80.003	19.995	103.194	20.052	8.451	0.506
582.000	365.360	80.001	19.996	103.189	20.047	8.837	0.503
584.001	366.395	80.002	19.995	103.197	20.046	8.910	0.510
586.002	367.421	80.003	19.995	103.194	20.046	8.913	0.539
588.002	368.462	80.003	19.996	103.197	20.034	9.748	0.511
590.000	369.534	80.003	19.996	103.197	20.031	9.988	0.532
592.000	370.548	80.003	19.995	103.185	20.022	10.667	0.525
594.001	371.585	80.003	19.997	103.182	20.018	10.941	0.529
596.001	372.646	80.003	19.995	103.191	20.020	10.851	0.544
598.002	373.725	80.003	19.996	103.195	20.015	11.213	0.557
600.000	374.749	80.002	19.998	103.187	20.016	11.099	0.538
602.000	375.726	80.002	19.998	103.190	20.007	11.821	0.491
604.000	376.769	80.003	19.996	103.181	19.998	12.496	0.541
606.001	377.808	80.002	19.997	103.191	19.987	13.335	0.525
608.001	378.850	80.001	19.997	103.192	19.973	14.325	0.505
610.002	379.915	80.003	19.997	103.176	19.967	14.817	0.517
612.001	381.012	80.001	19.997	103.173	19.955	15.722	0.521
614.000	382.012	80.004	19.999	103.184	19.939	16.874	0.525
616.001	383.086	80.005	19.996	103.191	19.925	17.972	0.525
618.001	384.158	80.003	19.998	103.186	19.920	18.334	0.530
620.001	385.130	80.003	19.999	103.166	19.913	18.814	0.512
622.001	386.163	80.001	19.996	103.151	19.915	18.667	0.503
624.000	387.199	80.001	19.996	103.155	19.921	18.237	0.511
626.002	388.230	80.001	19.997	103.162	19.925	17.964	0.520
628.002	389.264	80.000	19.997	103.189	19.912	18.923	0.499
630.002	390.296	79.999	19.996	103.203	19.895	20.199	0.538
632.001	391.276	80.000	19.997	103.197	19.866	22.375	0.481
634.001	392.306	79.999	19.996	103.190	19.838	24.483	0.523
636.001	393.290	80.000	19.995	103.188	19.792	27.909	0.499
638.001	394.327	80.002	19.997	103.175	19.764	29.996	0.497
640.002	395.351	80.001	19.996	103.154	19.748	31.213	0.499
642.001	396.315	80.001	19.995	103.149	19.734	32.219	0.473
644.000	397.309	80.000	19.996	103.157	19.707	34.254	0.491
646.001	398.318	80.001	19.996	103.182	19.668	37.210	0.510
648.001	399.340	80.002	19.995	103.238	19.625	40.445	0.523
650.001	400.292	80.002	19.995	103.218	19.595	42.685	0.497
652.001	401.291	80.002	19.997	103.160	19.572	44.357	0.488
654.001	402.230	80.000	19.997	103.140	19.535	47.112	0.485
656.002	403.225	80.000	19.996	103.186	19.474	51.769	0.489
658.001	404.216	80.001	19.996	103.230	19.414	56.259	0.494
660.001	405.136	80.001	19.996	103.238	19.358	60.438	0.492
662.000	406.127	80.001	19.996	103.185	19.316	63.576	0.486
664.000	407.096	80.001	19.996	103.143	19.252	68.363	0.467
666.000	408.045	80.003	19.997	103.189	19.163	74.991	0.480
668.000	409.053	80.002	19.995	103.253	19.075	81.620	0.483
670.001	410.021	80.002	19.996	103.264	18.973	89.228	0.482
672.001	410.991	80.003	19.997	103.216	18.871	96.914	0.529
674.000	412.005	80.003	19.994	103.178	18.751	105.891	0.508
676.000	412.965	80.004	19.995	103.220	18.634	114.713	0.490
678.000	413.953	80.004	19.997	103.223	18.523	123.039	0.498
680.002	414.914	80.003	19.995	103.230	18.397	132.507	0.498
682.001	415.936	80.003	19.994	103.237	18.267	142.176	0.521
684.001	416.902	80.003	19.996	103.253	18.118	153.323	0.504
686.001	417.926	80.002	19.997	103.279	17.954	165.640	0.547
688.001	418.908	80.002	19.996	103.282	17.781	178.671	0.534
690.000	419.925	80.002	19.996	103.296	17.603	191.995	0.511
692.001	420.915	80.003	19.997	103.272	17.424	205.411	0.502
694.001	421.927	80.003	19.997	103.236	17.244	218.929	0.534
696.001	422.908	80.003	19.997	103.274	17.039	234.335	0.517
698.001	423.917	80.005	19.997	103.296	16.838	249.389	0.502
700.000	424.912	80.004	19.995	103.310	16.632	264.887	0.467
702.001	425.946	80.004	19.996	103.318	16.420	280.782	0.511
704.001	426.909	80.005	19.997	103.281	16.211	296.427	0.485
706.000	427.931	80.003	19.995	103.327	15.996	312.478	0.511
708.001	428.970	80.003	19.996	103.327	15.777	328.740	0.523
710.001	429.966	80.001	19.995	103.324	15.558	345.180	0.513
712.001	430.919	80.001	19.996	103.318	15.340	361.596	0.500
714.001	431.977	80.001	19.997	103.331	15.132	377.290	0.516
716.000	432.959	80.001	19.996	103.321	14.946	391.092	0.491
718.001	434.020	80.001	19.997	103.285	14.770	404.239	0.515
720.001	435.059	80.001	19.996	103.263	14.609	416.413	0.520
722.001	436.107	80.000	19.996	103.282	14.455	428.111	0.526
724.001	437.082	80.001	19.996	103.316	14.331	437.497	0.521
726.000	438.117	80.002	19.996	103.300	14.246	443.911	0.503
728.001	439.158	80.002	19.997	103.284	14.185	448.529	0.517
730.001	440.156	80.002	19.996	103.280	14.162	450.398	0.509
732.001	441.190	80.003	19.996	103.320	14.163	450.278	0.507
734.001	442.226	80.001	19.996	103.355	14.191	448.289	0.513
736.001	443.240	80.000	19.995	103.368	14.247	444.175	0.524
738.000	444.261	80.001	19.996	103.379	14.335	437.645	0.498
740.002	445.294	80.001	19.995	103.396	14.452	428.849	0.530
742.000	446.302	80.001	19.995	103.402	14.597	417.938	0.501
744.000	447.355	80.002	19.996	103.405	14.762	405.578	0.525
746.001	448.443	80.001	19.995	103.439	14.946	391.791	0.551
748.000	449.476	80.001	19.996	103.456	15.145	376.833	0.492
750.000	450.555	80.001	19.995	103.461	15.362	360.409	0.566
752.000	451.599	80.001	19.995	103.474	15.583	343.716	0.538
754.000	452.616	80.002	19.996	103.465	15.808	326.781	0.522
756.001	453.687	80.004	19.995	103.454	16.046	308.978	0.537
758.001	454.713	80.004	19.995	103.460	16.273	291.818	0.521
760.001	455.815	80.004	19.996	103.442	16.509	274.118	0.509
762.001	456.825	80.002	19.995	103.418	16.729	257.617	0.495
764.000	457.830	80.003	19.997	103.388	16.943	241.559	0.486
766.001	458.868	80.002	19.995	103.384	17.156	225.538	0.535
768.001	459.918	80.003	19.994	103.370	17.350	210.906	0.530
770.001	460.922	80.002	19.995	103.345	17.542	196.531	0.496
772.001	461.936	80.001	19.995	103.333	17.715	183.525	0.500
774.001	462.973	80.003	19.995	103.334	17.888	170.565	0.520
776.000	463.981	80.002	19.995	103.315	18.041	159.139	0.451
778.002	464.973	80.004	19.996	103.295	18.187	148.181	0.482
780.000	465.969	80.004	19.996	103.280	18.321	138.141	0.501
782.001	466.959	80.004	19.996	103.273	18.447	128.696	0.504
784.000	467.960	80.005	19.995	103.272	18.564	119.872	0.489
786.001	468.994	80.003	19.995	103.270	18.664	112.428	0.508
788.001	469.986	80.003	19.997	103.259	18.764	104.933	0.494
790.001	471.057	80.003	19.997	103.257	18.855	98.082	0.514
792.001	472.075	80.003	19.997	103.249	18.935	92.068	0.543
794.000	473.163	80.001	19.996	103.235	19.018	85.841	0.556
796.001	474.208	80.000	19.996	103.236	19.088	80.618	0.555
798.001	475.285	80.002	19.996	103.231	19.147	76.197	0.527
800.001	476.360	80.002	19.995	103.208	19.210	71.503	0.534
802.000	477.429	80.003	19.996	103.198	19.273	66.764	0.505
804.002	478.488	80.003	19.997	103.193	19.329	62.554	0.516
806.001	479.567	80.001	19.996	103.193	19.386	58.274	0.518
808.001	480.686	80.003	19.997	103.192	19.433	54.770	0.562
810.000	481.800	80.002	19.997	103.191	19.481	51.160	0.540
812.001	482.874	80.004	19.997	103.187	19.529	47.593	0.540
814.000	483.984	80.001	19.996	103.178	19.575	44.112	0.550
816.000	485.104	80.002	19.998	103.178	19.623	40.573	0.564
818.000	486.211	80.001	19.998	103.166	19.666	37.288	0.576
820.001	487.328	80.001	19.997	103.181	19.711	33.962	0.585
822.000	488.402	80.002	19.996	103.174	19.746	31.299	0.532
824.001	489.581	80.002	19.997	103.161	19.786	28.320	0.592
826.000	490.692	80.000	19.998	103.171	19.822	25.628	0.577
828.000	491.786	80.001	19.996	103.164	19.859	22.838	0.557
830.000	492.934	80.001	19.996	103.161	19.899	19.892	0.581
832.001	494.001	80.002	19.996	103.161	19.927	17.762	0.531
834.001	495.129	80.002	19.996	103.153	19.957	15.544	0.548
836.001	496.252	80.002	19.995	103.138	19.978	13.941	0.574
838.001	497.349	80.004	19.997	103.155	20.014	11.260	0.570
840.000	498.467	80.004	19.995	103.155	20.033	9.886	0.572
842.001	499.534	80.004	19.995	103.140	20.058	7.977	0.556
844.001	500.638	80.004	19.996	103.136	20.070	7.082	0.517
846.001	501.744	80.002	19.995	103.139	20.089	5.646	0.545
848.000	502.837	80.004	19.996	103.146	20.103	4.616	0.543
850.001	503.898	80.003	19.994	103.146	20.116	3.630	0.508
852.001	504.975	80.003	19.996	103.153	20.115	3.737	0.535
854.001	506.050	80.003	19.996	103.154	20.121	3.286	0.535
856.002	507.126	80.002	19.995	103.142	20.127	2.828	0.542
858.001	508.172	80.003	19.996	103.153	20.131	2.526	0.542
860.000	509.257	80.002	19.996	103.151	20.131	2.480	0.535
862.000	510.331	80.004	19.996	103.141	20.133	2.339	0.539
864.000	511.325	80.006	19.995	103.142	20.137	2.037	0.495
866.001	512.400	80.004	19.994	103.143	20.132	2.424	0.537
868.001	513.406	80.005	19.995	103.153	20.139	1.931	0.519
870.000	514.510	80.005	19.996	103.152	20.135	2.184	0.555
872.000	515.554	80.006	19.996	103.148	20.138	1.987	0.519
874.001	516.633	80.003	19.996	103.141	20.140	1.836	0.518
876.001	517.648	80.003	19.995	103.152	20.141	1.778	0.541
878.001	518.727	80.004	19.997	103.140	20.138	2.001	0.546
880.001	519.780	80.004	19.996	103.151	20.140	1.873	0.553
882.000	520.823	80.001	19.996	103.146	20.141	1.784	0.511
884.000	521.863	80.002	19.997	103.150	20.138	2.018	0.518
886.000	522.956	80.003	19.997	103.148	20.139	1.921	0.549
888.000	524.015	80.002	19.997	103.146	20.145	1.463	0.523
890.000	525.030	80.002	19.996	103.149	20.140	1.831	0.526
892.001	526.071	80.002	19.996	103.148	20.147	1.336	0.515
894.001	527.114	80.002	19.997	103.147	20.146	1.384	0.552
896.001	528.191	80.002	19.997	103.157	20.135	2.180	0.533
898.001	529.223	80.004	19.996	103.153	20.142	1.687	0.530
900.000	530.255	80.003	19.996	103.140	20.145	1.475	0.511
902.000	531.306	80.001	19.996	103.155	20.142	1.662	0.533
904.001	532.346	80.000	19.995	103.157	20.144	1.545	0.519
906.001	533.404	80.001	19.997	103.158	20.142	1.670	0.549
908.000	534.443	80.002	19.997	103.160	20.150	1.096	0.542
910.000	535.490	80.000	19.996	103.154	20.145	1.436	0.517
912.000	536.508	80.000	19.996	103.146	20.147	1.334	0.501
914.000	537.586	80.000	19.998	103.148	20.145	1.452	0.519
916.001	538.620	80.001	19.998	103.143	20.142	1.676	0.531
918.000	539.622	80.001	19.998	103.155	20.145	1.440	0.515
920.000	540.700	80.004	19.997	103.153	20.143	1.653	0.530
922.000	541.681	80.003	19.997	103.153	20.146	1.396	0.485
924.002	542.721	80.003	19.996	103.143	20.143	1.628	0.498
926.001	543.770	80.004	19.996	103.152	20.144	1.575	0.504
928.002	544.818	80.005	19.995	103.153	20.148	1.247	0.506
930.000	545.816	80.005	19.995	103.153	20.143	1.639	0.489
932.000	546.874	80.004	19.996	103.152	20.143	1.591	0.534
934.001	547.883	80.004	19.997	103.149	20.145	1.494	0.533
936.002	548.937	80.002	19.996	103.148	20.146	1.365	0.502
938.000	549.971	80.005	19.996	103.147	20.147	1.349	0.541
940.000	550.935	80.004	19.997	103.138	20.144	1.541	0.515
942.000	551.994	80.003	19.996	103.142	20.144	1.527	0.503
944.001	552.982	80.002	19.995	103.144	20.146	1.376	0.487
946.001	554.046	80.005	19.997	103.140	20.143	1.636	0.522
948.000	555.097	80.005	19.995	103.141	20.140	1.829	0.546
950.000	556.079	80.005	19.995	103.144	20.143	1.602	0.515
952.000	557.095	80.005	19.996	103.129	20.146	1.367	0.465
954.000	558.163	80.004	19.995	103.146	20.147	1.297	0.514
956.000	559.164	80.004	19.995	103.128	20.146	1.421	0.511
958.000	560.153	80.005	19.996	103.139	20.144	1.543	0.497
960.001	561.147	80.001	19.996	103.152	20.148	1.237	0.481
962.000	562.174	80.003	19.996	103.153	20.148	1.245	0.513
964.001	563.183	80.002	19.996	103.145	20.146	1.396	0.480
966.001	564.198	80.003	19.996	103.130	20.150	1.121	0.511
968.000	565.174	80.002	19.996	103.132	20.143	1.647	0.485
970.000	566.214	80.003	19.996	103.144	20.148	1.226	0.556
972.001	567.235	80.003	19.997	103.143	20.149	1.197	0.503
974.000	568.253	80.001	19.996	103.151	20.151	0.984	0.489
976.001	569.233	80.001	19.997	103.133	20.149	1.181	0.486
978.001	570.258	80.002	19.996	103.149	20.145	1.498	0.496
980.000	571.260	80.004	19.997	103.126	20.147	1.320	0.509
982.000	572.283	80.004	19.999	103.132	20.151	0.988	0.504
984.000	573.330	80.002	19.997	103.129	20.148	1.216	0.545
986.001	574.309	80.001	19.997	103.127	20.148	1.208	0.492
988.000	575.401	80.002	19.999	103.123	20.150	1.071	0.525
990.001	576.393	80.001	19.997	103.130	20.151	1.054	0.511
992.001	577.408	80.000	19.995	103.144	20.148	1.245	0.506
994.000	578.399	80.001	19.995	103.141	20.146	1.427	0.499
996.001	579.397	80.002	19.997	103.124	20.147	1.348	0.502
998.000	580.440	80.001	19.996	103.129	20.148	1.266	0.539
1000.000	581.481	80.004	19.997	103.126	20.149	1.166	0.515
1002.000	582.501	80.005	19.997	103.126	20.147	1.282	0.517
1004.001	583.491	80.001	19.997	103.138	20.151	1.004	0.500
1006.001	584.514	80.002	19.997	103.134	20.148	1.257	0.504
1008.001	585.447	80.000	19.996	103.125	20.148	1.278	0.449
1010.001	586.458	80.004	19.998	103.132	20.149	1.135	0.499
1012.000	587.490	80.004	19.997	103.133	20.156	0.646	0.531
1014.002	588.490	80.003	19.997	103.116	20.150	1.063	0.507
1016.001	589.440	80.002	19.997	103.119	20.152	0.959	0.505
1018.001	590.453	80.001	19.996	103.123	20.146	1.392	0.508
1020.001	591.416	80.002	19.996	103.123	20.151	1.050	0.468
1022.001	592.429	80.005	19.997	103.122	20.147	1.303	0.486
1024.000	593.374	80.006	19.996	103.124	20.149	1.199	0.477
1026.001	594.419	80.003	19.996	103.126	20.148	1.235	0.495
1028.000	595.357	80.004	19.995	103.117	20.151	1.038	0.485
1030.002	596.345	80.005	19.995	103.130	20.149	1.183	0.470
1032.002	597.304	80.005	19.996	103.125	20.152	0.978	0.453
1034.002	598.279	80.003	19.996	103.131	20.153	0.897	0.502
1036.001	599.231	80.003	19.995	103.121	20.150	1.071	0.476
1038.000	600.186	80.004	19.996	103.134	20.150	1.106	0.498
1040.000	601.178	80.004	19.996	103.129	20.147	1.309	0.505
1042.000	602.124	80.002	19.995	103.136	20.150	1.117	0.469
1044.002	603.143	80.003	19.997	103.140	20.142	1.674	0.507
1046.000	604.088	80.003	19.996	103.128	20.146	1.402	0.475
1048.001	605.095	80.003	19.996	103.139	20.151	1.050	0.498
1050.001	606.047	80.001	19.995	103.140	20.147	1.305	0.470
1052.001	607.040	80.004	19.995	103.144	20.147	1.324	0.511
1054.000	608.005	80.000	19.996	103.139	20.151	0.982	0.489
1056.001	608.989	80.002	19.996	103.145	20.154	0.781	0.494
1058.001	609.973	80.002	19.995	103.129	20.151	1.050	0.488
1060.000	610.989	80.001	19.995	103.131	20.151	1.048	0.517
1062.001	612.000	80.001	19.996	103.144	20.149	1.166	0.498
1064.001	612.991	80.003	19.997	103.145	20.145	1.502	0.499
1066.000	614.030	80.005	19.995	103.124	20.148	1.249	0.529
1068.000	615.020	80.000	19.998	103.120	20.151	1.032	0.496
1070.001	615.996	80.003	19.996	103.124	20.149	1.158	0.493
1072.000	616.997	80.001	19.997	103.140	20.151	1.027	0.467
1074.000	618.008	80.001	19.998	103.136	20.150	1.059	0.494
1076.000	619.008	80.002	19.997	103.138	20.153	0.833	0.490
1078.000	620.019	80.002	19.997	103.147	20.155	0.748	0.483
1080.000	620.995	80.000	19.997	103.136	20.158	0.505	0.474
1082.000	622.040	80.002	19.997	103.132	20.152	0.924	0.537
1084.000	623.043	80.002	19.996	103.130	20.155	0.735	0.512
1086.002	624.031	80.000	19.995	103.128	20.155	0.713	0.489
1088.001	625.079	80.003	19.996	103.121	20.156	0.655	0.543
1090.000	626.098	80.004	19.996	103.129	20.159	0.385	0.506
1092.002	627.052	80.005	19.996	103.129	20.155	0.729	0.519
1094.002	628.153	80.004	19.997	103.136	20.160	0.373	0.506
1096.000	629.157	80.004	19.996	103.140	20.154	0.762	0.549
1098.001	630.134	80.003	19.997	103.150	20.161	0.294	0.507
1100.001	631.203	80.002	19.997	103.134	20.158	0.514	0.529
1102.000	632.222	80.003	19.996	103.145	20.157	0.555	0.495
1104.002	633.220	80.002	19.997	103.142	20.157	0.561	0.510
1106.001	634.235	80.002	19.997	103.136	20.159	0.435	0.500
1108.002	635.300	80.005	19.998	103.143	20.159	0.435	0.510
1110.001	636.303	80.005	19.997	103.139	20.160	0.342	0.518
1112.000	637.326	80.004	19.997	103.127	20.156	0.669	0.509
1114.000	638.372	80.006	19.997	103.133	20.161	0.284	0.549
1116.000	639.414	80.005	19.997	103.141	20.171	-0.454	0.509
1118.000	640.402	80.004	19.995	103.153	20.164	0.017	0.485
1120.002	641.395	80.006	19.995	103.145	20.154	0.798	0.464
1122.000	642.538	80.004	19.995	103.147	20.152	0.959	0.557
1124.001	643.535	80.005	19.995	103.154	20.162	0.211	0.521
1126.001	644.532	80.004	19.996	103.155	20.153	0.878	0.536
1128.001	645.540	80.002	19.996	103.137	20.153	0.878	0.488
1130.001	646.588	80.001	19.995	103.139	20.153	0.833	0.521
1132.001	647.609	80.003	19.996	103.136	20.158	0.524	0.502
1134.000	648.670	80.001	19.995	103.143	20.155	0.690	0.488
1136.001	649.705	80.002	19.996	103.131	20.158	0.495	0.520
1138.000	650.744	80.001	19.997	103.122	20.159	0.398	0.533
1140.000	651.763	80.003	19.998	103.141	20.162	0.215	0.473
1142.000	652.811	80.002	19.996	103.137	20.156	0.613	0.548
1144.001	653.857	80.002	19.995	103.133	20.159	0.418	0.517
1146.002	654.866	80.003	19.996	103.139	20.170	-0.408	0.524
1148.001	655.929	80.004	19.997	103.129	20.154	0.827	0.518
1150.000	656.954	80.004	19.996	103.139	20.156	0.621	0.508
1152.002	657.966	80.004	19.996	103.143	20.155	0.684	0.511
1154.001	659.010	80.003	19.996	103.137	20.156	0.630	0.520
1156.000	659.985	80.002	19.996	103.138	20.154	0.810	0.498
1158.001	661.014	80.003	19.997	103.151	20.154	0.800	0.489
1160.000	661.993	80.003	19.996	103.132	20.154	0.775	0.468
1162.000	663.035	80.002	19.996	103.131	20.156	0.611	0.532
1164.001	664.116	80.004	19.996	103.124	20.151	0.988	0.495
1166.001	665.080	80.002	19.997	103.134	20.151	1.038	0.523
1168.001	666.099	80.002	19.996	103.141	20.154	0.808	0.485
1170.001	667.152	80.003	19.997	103.138	20.155	0.709	0.520
1172.000	668.128	80.004	19.996	103.143	20.153	0.853	0.513
1174.000	669.133	80.005	19.997	103.150	20.158	0.474	0.489
1176.001	670.169	80.005	19.996	103.136	20.156	0.617	0.504
1178.000	671.129	80.005	19.996	103.144	20.154	0.771	0.479
1180.000	672.114	80.005	19.997	103.134	20.156	0.663	0.443
1182.001	673.156	80.004	19.997	103.139	20.159	0.439	0.517
1184.001	674.176	80.002	19.995	103.134	20.159	0.421	0.508
1186.000	675.229	80.004	19.995	103.141	20.157	0.605	0.505
1188.001	676.253	80.003	19.996	103.142	20.154	0.773	0.518
1190.000	677.210	80.004	19.997	103.140	20.156	0.677	0.472
1192.000	678.224	80.003	19.998	103.129	20.155	0.723	0.495
1194.002	679.222	80.005	19.997	103.135	20.155	0.688	0.495
1196.000	680.167	80.005	19.997	103.128	20.157	0.582	0.466
1198.001	681.168	80.005	19.997	103.140	20.155	0.704	0.495
1200.001	682.170	80.005	19.997	103.127	20.158	0.530	0.516
1202.001	683.154	80.004	19.997	103.126	20.158	0.528	0.470
1204.002	684.144	80.004	19.997	103.118	20.155	0.715	0.493
1206.000	685.122	80.004	19.996	103.126	20.154	0.808	0.518
1208.001	686.154	80.002	19.996	103.125	20.153	0.847	0.500
1210.000	687.114	80.003	19.996	103.135	20.156	0.630	0.476
1212.001	688.108	80.004	19.996	103.138	20.155	0.746	0.493
1214.000	689.119	80.003	19.995	103.132	20.153	0.845	0.533
1216.000	690.088	80.002	19.996	103.140	20.151	0.990	0.473
1218.001	691.128	80.004	19.996	103.147	20.154	0.793	0.504
1220.000	692.133	80.003	19.996	103.134	20.156	0.657	0.496
1222.001	693.158	80.003	19.995	103.141	20.155	0.733	0.516
1224.000	694.190	80.003	19.996	103.142	20.157	0.586	0.495
1226.001	695.188	80.004	19.997	103.145	20.155	0.686	0.512
1228.002	696.213	80.003	19.995	103.126	20.155	0.692	0.501
1230.002	697.250	80.002	19.996	103.134	20.156	0.653	0.504
1232.001	698.241	80.003	19.996	103.121	20.151	1.003	0.504
1234.000	699.222	80.003	19.997	103.124	20.155	0.704	0.465
1236.001	700.257	80.004	19.996	103.144	20.153	0.903	0.525
1238.001	701.287	80.004	19.997	103.138	20.152	0.913	0.528
1240.002	702.262	80.002	19.996	103.128	20.153	0.847	0.495
1242.001	703.251	80.003	19.995	103.130	20.154	0.766	0.518
1244.000	704.251	80.003	19.995	103.131	20.153	0.882	0.510
1246.001	705.227	80.003	19.996	103.140	20.150	1.090	0.495
1248.001	706.242	80.002	19.995	103.124	20.152	0.914	0.500
1250.000	707.231	80.003	19.996	103.127	20.154	0.822	0.487
1252.001	708.216	80.002	19.996	103.141	20.158	0.516	0.479
1254.002	709.166	80.003	19.996	103.127	20.156	0.609	0.490
1256.000	710.128	80.004	19.995	103.128	20.157	0.593	0.472
1258.000	711.158	80.005	19.996	103.126	20.155	0.706	0.536
1260.000	712.132	80.003	19.996	103.141	20.155	0.708	0.486
1262.001	713.103	80.002	19.996	103.137	20.157	0.590	0.517
1264.000	714.101	80.004	19.996	103.123	20.153	0.845	0.508
1266.000	715.124	80.003	19.997	103.137	20.155	0.752	0.518
1268.002	716.159	80.002	19.996	103.129	20.153	0.833	0.533
1270.000	717.129	80.004	19.996	103.125	20.154	0.791	0.473
1272.001	718.095	80.004	19.997	103.124	20.152	0.926	0.473
1274.000	719.111	80.004	19.997	103.118	20.157	0.597	0.496
1276.001	720.067	80.005	19.995	103.120	20.154	0.831	0.468
1278.001	721.084	80.004	19.996	103.131	20.154	0.820	0.492
1280.001	722.093	80.007	19.995	103.115	20.151	1.013	0.536
1282.000	723.037	80.005	19.996	103.125	20.152	0.922	0.508
1284.001	724.073	80.005	19.995	103.123	20.153	0.897	0.518
1286.002	725.099	80.004	19.996	103.128	20.157	0.570	0.523
1288.002	726.143	80.003	19.996	103.123	20.153	0.847	0.516
1290.002	727.158	80.001	19.997	103.141	20.152	0.913	0.506
1292.000	728.267	80.002	19.997	103.145	20.154	0.779	0.567
1294.000	729.327	80.000	19.997	103.136	20.153	0.891	0.527
1296.001	730.419	80.001	19.996	103.123	20.153	0.856	0.534
1298.000	731.527	80.002	19.997	103.133	20.152	0.932	0.552
1300.001	732.661	80.002	19.996	103.129	20.152	0.916	0.553
1302.002	733.751	80.002	19.996	103.124	20.153	0.901	0.562
1304.000	734.803	80.001	19.996	103.133	20.151	0.990	0.554
1306.001	735.947	80.003	19.995	103.131	20.154	0.791	0.536
1308.001	737.019	80.002	19.995	103.134	20.151	0.998	0.560
1310.001	738.113	80.003	19.995	103.122	20.152	0.972	0.574
1312.001	739.251	80.004	19.995	103.132	20.153	0.862	0.591
1314.001	740.348	80.003	19.996	103.137	20.157	0.580	0.463
1316.000	741.469	80.002	19.996	103.140	20.158	0.532	0.574
1318.000	742.566	80.002	19.996	103.126	20.158	0.474	0.563
1319.000	743.098	80.002	19.996	103.126	20.155	0.708	0.561