File: 01_Data/Roof_Felt/FTIR/IS/Roof_Felt_IS_S_220829_R3.dpt
7497.03,0.17089
7491.25,0.16650
7485.46,0.17544
7479.67,0.16590
7473.89,0.16814
7468.1,0.17107
7462.32,0.16837
7456.53,0.17449
7450.74,0.17137
7444.96,0.16976
7439.17,0.17817
7433.38,0.17799
7427.6,0.17811
7421.81,0.16909
7416.03,0.17090
7410.24,0.17139
7404.45,0.17306
7398.67,0.17412
7392.88,0.17392
7387.09,0.17154
7381.31,0.17714
7375.52,0.18126
7369.74,0.18272
7363.95,0.17699
7358.16,0.17467
7352.38,0.17479
7346.59,0.17989
7340.8,0.17780
7335.02,0.17104
7329.23,0.17502
7323.45,0.17477
7317.66,0.18270
7311.87,0.17691
7306.09,0.17483
7300.3,0.17792
7294.51,0.17918
7288.73,0.17507
7282.94,0.17660
7277.16,0.17568
7271.37,0.17913
7265.58,0.17873
7259.8,0.17741
7254.01,0.17946
7248.22,0.17820
7242.44,0.18083
7236.65,0.17891
7230.87,0.17767
7225.08,0.17652
7219.29,0.17513
7213.51,0.17861
7207.72,0.17592
7201.93,0.18165
7196.15,0.18033
7190.36,0.18088
7184.58,0.17770
7178.79,0.17757
7173,0.17700
7167.22,0.17112
7161.43,0.17618
7155.65,0.18127
7149.86,0.17420
7144.07,0.18011
7138.29,0.18036
7132.5,0.17918
7126.71,0.17978
7120.93,0.17882
7115.14,0.17546
7109.36,0.18661
7103.57,0.18383
7097.78,0.18200
7092,0.18274
7086.21,0.18556
7080.42,0.17437
7074.64,0.17618
7068.85,0.17918
7063.07,0.17689
7057.28,0.17756
7051.49,0.17334
7045.71,0.17696
7039.92,0.17970
7034.13,0.18543
7028.35,0.18814
7022.56,0.17607
7016.78,0.18183
7010.99,0.18701
7005.2,0.17769
6999.42,0.18157
6993.63,0.18082
6987.84,0.17812
6982.06,0.18103
6976.27,0.18008
6970.49,0.18223
6964.7,0.18274
6958.91,0.17891
6953.13,0.18755
6947.34,0.18124
6941.55,0.18268
6935.77,0.18066
6929.98,0.18374
6924.2,0.18165
6918.41,0.18164
6912.62,0.18012
6906.84,0.18179
6901.05,0.18281
6895.26,0.18951
6889.48,0.18659
6883.69,0.18645
6877.91,0.18354
6872.12,0.18476
6866.33,0.18522
6860.55,0.18028
6854.76,0.17790
6848.97,0.18260
6843.19,0.18420
6837.4,0.18593
6831.62,0.18740
6825.83,0.18578
6820.04,0.18816
6814.26,0.18781
6808.47,0.18877
6802.68,0.19019
6796.9,0.18849
6791.11,0.18767
6785.33,0.18400
6779.54,0.18581
6773.75,0.18776
6767.97,0.18756
6762.18,0.18792
6756.39,0.18759
6750.61,0.18643
6744.82,0.18597
6739.04,0.18972
6733.25,0.19470
6727.46,0.19230
6721.68,0.19025
6715.89,0.18906
6710.1,0.19002
6704.32,0.19137
6698.53,0.19169
6692.75,0.19018
6686.96,0.19038
6681.17,0.19406
6675.39,0.19188
6669.6,0.19388
6663.82,0.19722
6658.03,0.18747
6652.24,0.19075
6646.46,0.19259
6640.67,0.18994
6634.88,0.19090
6629.1,0.19475
6623.31,0.19581
6617.53,0.19288
6611.74,0.19521
6605.95,0.19803
6600.17,0.19791
6594.38,0.19467
6588.59,0.19665
6582.81,0.19778
6577.02,0.19669
6571.24,0.20048
6565.45,0.19648
6559.66,0.19745
6553.88,0.19631
6548.09,0.19992
6542.3,0.19989
6536.52,0.20331
6530.73,0.19958
6524.95,0.20434
6519.16,0.19729
6513.37,0.19896
6507.59,0.20309
6501.8,0.20234
6496.01,0.19866
6490.23,0.20070
6484.44,0.20108
6478.66,0.19982
6472.87,0.19959
6467.08,0.19953
6461.3,0.20382
6455.51,0.20256
6449.72,0.20349
6443.94,0.20103
6438.15,0.20547
6432.37,0.20595
6426.58,0.20500
6420.79,0.20543
6415.01,0.20369
6409.22,0.20696
6403.43,0.20776
6397.65,0.20429
6391.86,0.20595
6386.08,0.20662
6380.29,0.20921
6374.5,0.20730
6368.72,0.20952
6362.93,0.20984
6357.14,0.21109
6351.36,0.21344
6345.57,0.21166
6339.79,0.20823
6334,0.20839
6328.21,0.21272
6322.43,0.21240
6316.64,0.21226
6310.85,0.20866
6305.07,0.20921
6299.28,0.21399
6293.5,0.21427
6287.71,0.21333
6281.92,0.21772
6276.14,0.21325
6270.35,0.21365
6264.56,0.21655
6258.78,0.21349
6252.99,0.21465
6247.21,0.21964
6241.42,0.21535
6235.63,0.21567
6229.85,0.21794
6224.06,0.21887
6218.27,0.22127
6212.49,0.21903
6206.7,0.22116
6200.92,0.21975
6195.13,0.22000
6189.34,0.21914
6183.56,0.22060
6177.77,0.22278
6171.98,0.22245
6166.2,0.22233
6160.41,0.22223
6154.63,0.22168
6148.84,0.22230
6143.05,0.22425
6137.27,0.22381
6131.48,0.22521
6125.7,0.22433
6119.91,0.22453
6114.12,0.22613
6108.34,0.22652
6102.55,0.22514
6096.76,0.22719
6090.98,0.22712
6085.19,0.22845
6079.41,0.22957
6073.62,0.23069
6067.83,0.23009
6062.05,0.22939
6056.26,0.22837
6050.47,0.22773
6044.69,0.23168
6038.9,0.22769
6033.12,0.22770
6027.33,0.22808
6021.54,0.23167
6015.76,0.22832
6009.97,0.22830
6004.18,0.22657
5998.4,0.22644
5992.61,0.22900
5986.83,0.22693
5981.04,0.22801
5975.25,0.22819
5969.47,0.22595
5963.68,0.22562
5957.89,0.22438
5952.11,0.22334
5946.32,0.22425
5940.54,0.22104
5934.75,0.22089
5928.96,0.22242
5923.18,0.22249
5917.39,0.22269
5911.6,0.21964
5905.82,0.21517
5900.03,0.21591
5894.25,0.21767
5888.46,0.21439
5882.67,0.21654
5876.89,0.21299
5871.1,0.21471
5865.31,0.21132
5859.53,0.21252
5853.74,0.21213
5847.96,0.21182
5842.17,0.21290
5836.38,0.21168
5830.6,0.21182
5824.81,0.21041
5819.02,0.21124
5813.24,0.21245
5807.45,0.20974
5801.67,0.20769
5795.88,0.20725
5790.09,0.20799
5784.31,0.21079
5778.52,0.20940
5772.73,0.20991
5766.95,0.21333
5761.16,0.21420
5755.38,0.21430
5749.59,0.21615
5743.8,0.21909
5738.02,0.21880
5732.23,0.21799
5726.44,0.22041
5720.66,0.21968
5714.87,0.21931
5709.09,0.22000
5703.3,0.22026
5697.51,0.21911
5691.73,0.22132
5685.94,0.22093
5680.15,0.22020
5674.37,0.21918
5668.58,0.21981
5662.8,0.21989
5657.01,0.22098
5651.22,0.22261
5645.44,0.22445
5639.65,0.22455
5633.87,0.22558
5628.08,0.22810
5622.29,0.22803
5616.51,0.23094
5610.72,0.23270
5604.93,0.23411
5599.15,0.23542
5593.36,0.23521
5587.58,0.23596
5581.79,0.23697
5576,0.23613
5570.22,0.23715
5564.43,0.23690
5558.64,0.23993
5552.86,0.23861
5547.07,0.23748
5541.29,0.23862
5535.5,0.23911
5529.71,0.24039
5523.93,0.24038
5518.14,0.24186
5512.35,0.24059
5506.57,0.24101
5500.78,0.24125
5495,0.24124
5489.21,0.24256
5483.42,0.24171
5477.64,0.24356
5471.85,0.24511
5466.06,0.24334
5460.28,0.24410
5454.49,0.24345
5448.71,0.24456
5442.92,0.24578
5437.13,0.24749
5431.35,0.24817
5425.56,0.24862
5419.77,0.24872
5413.99,0.24990
5408.2,0.25066
5402.42,0.25241
5396.63,0.25225
5390.84,0.25140
5385.06,0.25135
5379.27,0.25489
5373.48,0.25335
5367.7,0.25424
5361.91,0.25539
5356.13,0.25550
5350.34,0.25613
5344.55,0.25492
5338.77,0.25574
5332.98,0.25671
5327.19,0.25589
5321.41,0.25434
5315.62,0.25376
5309.84,0.25356
5304.05,0.25385
5298.26,0.25213
5292.48,0.24923
5286.69,0.24809
5280.9,0.24658
5275.12,0.24505
5269.33,0.24305
5263.55,0.24120
5257.76,0.23924
5251.97,0.23619
5246.19,0.23451
5240.4,0.23158
5234.61,0.22972
5228.83,0.22836
5223.04,0.22597
5217.26,0.22599
5211.47,0.22574
5205.68,0.22472
5199.9,0.22475
5194.11,0.22281
5188.32,0.22354
5182.54,0.22482
5176.75,0.22487
5170.97,0.22446
5165.18,0.22495
5159.39,0.22667
5153.61,0.22869
5147.82,0.23035
5142.03,0.23075
5136.25,0.23189
5130.46,0.23196
5124.68,0.23285
5118.89,0.23442
5113.1,0.23659
5107.32,0.23820
5101.53,0.23811
5095.75,0.23894
5089.96,0.23945
5084.17,0.24141
5078.39,0.24286
5072.6,0.24276
5066.81,0.24549
5061.03,0.24626
5055.24,0.24669
5049.46,0.24764
5043.67,0.24743
5037.88,0.24936
5032.1,0.24978
5026.31,0.24942
5020.52,0.25014
5014.74,0.25172
5008.95,0.25288
5003.17,0.25230
4997.38,0.25284
4991.59,0.25201
4985.81,0.25257
4980.02,0.25199
4974.23,0.25320
4968.45,0.25263
4962.66,0.25232
4956.88,0.25223
4951.09,0.25095
4945.3,0.25050
4939.52,0.24950
4933.73,0.24791
4927.94,0.24646
4922.16,0.24569
4916.37,0.24489
4910.59,0.24227
4904.8,0.24065
4899.01,0.23821
4893.23,0.23701
4887.44,0.23440
4881.65,0.23422
4875.87,0.23274
4870.08,0.23043
4864.3,0.22821
4858.51,0.22688
4852.72,0.22599
4846.94,0.22304
4841.15,0.22191
4835.36,0.21968
4829.58,0.21958
4823.79,0.21670
4818.01,0.21536
4812.22,0.21432
4806.43,0.21396
4800.65,0.21310
4794.86,0.21239
4789.07,0.21072
4783.29,0.21133
4777.5,0.21046
4771.72,0.20933
4765.93,0.21001
4760.14,0.20947
4754.36,0.20869
4748.57,0.20973
4742.78,0.20910
4737,0.20940
4731.21,0.20973
4725.43,0.21011
4719.64,0.21052
4713.85,0.21163
4708.07,0.21248
4702.28,0.21307
4696.49,0.21403
4690.71,0.21423
4684.92,0.21468
4679.14,0.21486
4673.35,0.21563
4667.56,0.21595
4661.78,0.21734
4655.99,0.21756
4650.2,0.21861
4644.42,0.21913
4638.63,0.21952
4632.85,0.21965
4627.06,0.22048
4621.27,0.22159
4615.49,0.22218
4609.7,0.22384
4603.92,0.22483
4598.13,0.22587
4592.34,0.22689
4586.56,0.22820
4580.77,0.22930
4574.98,0.23110
4569.2,0.23258
4563.41,0.23370
4557.63,0.23316
4551.84,0.23426
4546.05,0.23608
4540.27,0.23545
4534.48,0.23590
4528.69,0.23540
4522.91,0.23682
4517.12,0.23687
4511.34,0.23695
4505.55,0.23650
4499.76,0.23619
4493.98,0.23325
4488.19,0.23320
4482.4,0.23186
4476.62,0.22888
4470.83,0.22690
4465.05,0.22316
4459.26,0.22093
4453.47,0.21639
4447.69,0.21264
4441.9,0.20714
4436.11,0.20184
4430.33,0.19585
4424.54,0.19004
4418.76,0.18313
4412.97,0.17637
4407.18,0.16996
4401.4,0.16546
4395.61,0.16198
4389.82,0.16077
4384.04,0.16097
4378.25,0.16096
4372.47,0.16018
4366.68,0.15931
4360.89,0.15816
4355.11,0.15475
4349.32,0.14995
4343.53,0.14558
4337.75,0.14065
4331.96,0.13751
4326.18,0.13698
4320.39,0.13937
4314.6,0.14369
4308.82,0.14709
4303.03,0.14828
4297.24,0.14984
4291.46,0.15024
4285.67,0.15013
4279.89,0.14843
4274.1,0.14707
4268.31,0.14402
4262.53,0.14139
4256.74,0.14054
4250.95,0.14123
4245.17,0.14412
4239.38,0.14767
4233.6,0.15012
4227.81,0.15125
4222.02,0.15168
4216.24,0.15177
4210.45,0.15337
4204.66,0.15322
4198.88,0.15345
4193.09,0.15406
4187.31,0.15314
4181.52,0.15405
4175.73,0.15372
4169.95,0.15365
4164.16,0.15394
4158.37,0.15433
4152.59,0.15470
4146.8,0.15563
4141.02,0.15480
4135.23,0.15572
4129.44,0.15512
4123.66,0.15517
4117.87,0.15400
4112.09,0.15361
4106.3,0.15279
4100.51,0.15168
4094.73,0.15096
4088.94,0.14914
4083.15,0.14705
4077.37,0.14438
4071.58,0.14261
4065.8,0.14011
4060.01,0.13943
4054.22,0.13781
4048.44,0.13770
4042.65,0.13714
4036.86,0.13653
4031.08,0.13591
4025.29,0.13566
4019.51,0.13561
4013.72,0.13623
4007.93,0.13747
4002.15,0.13755
3996.36,0.13917
3990.57,0.13938
3984.79,0.14038
3979,0.14153
3973.22,0.14256
3967.43,0.14310
3961.64,0.14429
3955.86,0.14593
3950.07,0.14723
3944.28,0.14859
3938.5,0.14982
3932.71,0.15062
3926.93,0.15236
3921.14,0.15370
3915.35,0.15422
3909.57,0.15541
3903.78,0.15713
3897.99,0.15760
3892.21,0.15853
3886.42,0.16020
3880.64,0.16043
3874.85,0.16195
3869.06,0.16346
3863.28,0.16439
3857.49,0.16582
3851.7,0.16737
3845.92,0.16970
3840.13,0.17056
3834.35,0.17105
3828.56,0.17143
3822.77,0.17232
3816.99,0.17296
3811.2,0.17320
3805.41,0.17248
3799.63,0.17361
3793.84,0.17333
3788.06,0.17422
3782.27,0.17471
3776.48,0.17428
3770.7,0.17433
3764.91,0.17364
3759.12,0.17353
3753.34,0.17303
3747.55,0.17271
3741.77,0.17070
3735.98,0.16977
3730.19,0.16771
3724.41,0.16506
3718.62,0.16155
3712.83,0.15686
3707.05,0.14902
3701.26,0.13836
3695.48,0.12892
3689.69,0.12907
3683.9,0.12853
3678.12,0.12482
3672.33,0.11707
3666.54,0.11020
3660.76,0.10474
3654.97,0.09782
3649.19,0.09339
3643.4,0.08939
3637.61,0.08601
3631.83,0.08252
3626.04,0.07889
3620.25,0.07502
3614.47,0.07284
3608.68,0.07065
3602.9,0.06827
3597.11,0.06609
3591.32,0.06405
3585.54,0.06263
3579.75,0.06032
3573.97,0.05897
3568.18,0.05832
3562.39,0.05692
3556.61,0.05558
3550.82,0.05443
3545.03,0.05369
3539.25,0.05289
3533.46,0.05199
3527.68,0.05161
3521.89,0.05123
3516.1,0.04966
3510.32,0.04898
3504.53,0.04873
3498.74,0.04855
3492.96,0.04825
3487.17,0.04789
3481.39,0.04682
3475.6,0.04616
3469.81,0.04680
3464.03,0.04643
3458.24,0.04570
3452.45,0.04646
3446.67,0.04554
3440.88,0.04452
3435.1,0.04481
3429.31,0.04506
3423.52,0.04486
3417.74,0.04546
3411.95,0.04428
3406.16,0.04442
3400.38,0.04410
3394.59,0.04429
3388.81,0.04421
3383.02,0.04428
3377.23,0.04414
3371.45,0.04405
3365.66,0.04417
3359.87,0.04354
3354.09,0.04340
3348.3,0.04393
3342.52,0.04445
3336.73,0.04450
3330.94,0.04474
3325.16,0.04487
3319.37,0.04566
3313.58,0.04531
3307.8,0.04562
3302.01,0.04620
3296.23,0.04611
3290.44,0.04590
3284.65,0.04549
3278.87,0.04629
3273.08,0.04684
3267.29,0.04782
3261.51,0.04757
3255.72,0.04810
3249.94,0.04862
3244.15,0.04961
3238.36,0.04962
3232.58,0.05039
3226.79,0.05033
3221,0.05046
3215.22,0.05150
3209.43,0.05183
3203.65,0.05140
3197.86,0.05220
3192.07,0.05302
3186.29,0.05399
3180.5,0.05405
3174.71,0.05429
3168.93,0.05491
3163.14,0.05573
3157.36,0.05533
3151.57,0.05558
3145.78,0.05749
3140,0.05711
3134.21,0.05756
3128.42,0.05849
3122.64,0.05838
3116.85,0.05935
3111.07,0.05909
3105.28,0.05992
3099.49,0.06087
3093.71,0.06091
3087.92,0.06079
3082.14,0.06116
3076.35,0.06091
3070.56,0.06106
3064.78,0.06104
3058.99,0.06116
3053.2,0.06142
3047.42,0.06171
3041.63,0.06197
3035.85,0.06113
3030.06,0.06111
3024.27,0.06123
3018.49,0.06136
3012.7,0.06038
3006.91,0.05956
3001.13,0.05889
2995.34,0.05794
2989.56,0.05613
2983.77,0.05413
2977.98,0.05148
2972.2,0.04908
2966.41,0.04788
2960.62,0.04727
2954.84,0.04817
2949.05,0.04792
2943.27,0.04827
2937.48,0.04735
2931.69,0.04894
2925.91,0.05062
2920.12,0.05294
2914.33,0.05402
2908.55,0.05324
2902.76,0.05311
2896.98,0.05231
2891.19,0.05314
2885.4,0.05300
2879.62,0.05291
2873.83,0.05212
2868.04,0.05219
2862.26,0.05243
2856.47,0.05342
2850.69,0.05554
2844.9,0.05749
2839.11,0.05874
2833.33,0.05985
2827.54,0.06122
2821.75,0.06271
2815.97,0.06448
2810.18,0.06592
2804.4,0.06700
2798.61,0.06799
2792.82,0.06910
2787.04,0.06988
2781.25,0.07059
2775.46,0.07135
2769.68,0.07170
2763.89,0.07187
2758.11,0.07223
2752.32,0.07217
2746.53,0.07302
2740.75,0.07218
2734.96,0.07220
2729.17,0.07198
2723.39,0.07290
2717.6,0.07342
2711.82,0.07424
2706.03,0.07509
2700.24,0.07613
2694.46,0.07654
2688.67,0.07718
2682.88,0.07759
2677.1,0.07820
2671.31,0.07882
2665.53,0.07982
2659.74,0.07978
2653.95,0.08105
2648.17,0.08161
2642.38,0.08216
2636.59,0.08328
2630.81,0.08361
2625.02,0.08418
2619.24,0.08484
2613.45,0.08557
2607.66,0.08639
2601.88,0.08678
2596.09,0.08760
2590.3,0.08825
2584.52,0.08925
2578.73,0.08983
2572.95,0.09017
2567.16,0.09065
2561.37,0.09079
2555.59,0.09103
2549.8,0.09132
2544.02,0.09144
2538.23,0.09175
2532.44,0.09228
2526.66,0.09281
2520.87,0.09400
2515.08,0.09435
2509.3,0.09555
2503.51,0.09691
2497.73,0.09797
2491.94,0.09884
2486.15,0.10032
2480.37,0.10128
2474.58,0.10210
2468.79,0.10321
2463.01,0.10446
2457.22,0.10488
2451.44,0.10543
2445.65,0.10680
2439.86,0.10822
2434.08,0.10857
2428.29,0.10983
2422.5,0.11096
2416.72,0.11206
2410.93,0.11337
2405.15,0.11442
2399.36,0.11516
2393.57,0.11619
2387.79,0.11744
2382,0.11819
2376.21,0.11943
2370.43,0.12032
2364.64,0.12163
2358.86,0.12239
2353.07,0.12271
2347.28,0.12393
2341.5,0.12456
2335.71,0.12514
2329.92,0.12577
2324.14,0.12592
2318.35,0.12651
2312.57,0.12702
2306.78,0.12678
2300.99,0.12693
2295.21,0.12692
2289.42,0.12735
2283.63,0.12714
2277.85,0.12744
2272.06,0.12724
2266.28,0.12650
2260.49,0.12597
2254.7,0.12522
2248.92,0.12450
2243.13,0.12468
2237.34,0.12447
2231.56,0.12449
2225.77,0.12488
2219.99,0.12532
2214.2,0.12574
2208.41,0.12584
2202.63,0.12551
2196.84,0.12495
2191.05,0.12430
2185.27,0.12327
2179.48,0.12169
2173.7,0.12005
2167.91,0.11874
2162.12,0.11702
2156.34,0.11621
2150.55,0.11575
2144.76,0.11529
2138.98,0.11447
2133.19,0.11476
2127.41,0.11578
2121.62,0.11644
2115.83,0.11744
2110.05,0.11813
2104.26,0.11921
2098.47,0.11966
2092.69,0.12059
2086.9,0.12141
2081.12,0.12204
2075.33,0.12136
2069.54,0.12112
2063.76,0.12073
2057.97,0.12098
2052.19,0.12102
2046.4,0.12103
2040.61,0.12213
2034.83,0.12358
2029.04,0.12477
2023.25,0.12689
2017.47,0.12929
2011.68,0.13134
2005.9,0.13302
2000.11,0.13406
1994.32,0.13527
1988.54,0.13674
1982.75,0.13789
1976.96,0.13858
1971.18,0.13879
1965.39,0.13918
1959.61,0.13909
1953.82,0.13940
1948.03,0.14003
1942.25,0.14061
1936.46,0.14090
1930.67,0.14126
1924.89,0.14126
1919.1,0.14057
1913.32,0.13993
1907.53,0.13954
1901.74,0.13967
1895.96,0.13971
1890.17,0.13992
1884.38,0.13987
1878.6,0.14011
1872.81,0.14006
1867.03,0.13982
1861.24,0.13907
1855.45,0.13816
1849.67,0.13789
1843.88,0.13670
1838.09,0.13607
1832.31,0.13459
1826.52,0.13363
1820.74,0.13150
1814.95,0.12964
1809.16,0.12684
1803.38,0.12293
1797.59,0.11775
1791.8,0.11389
1786.02,0.11098
1780.23,0.10576
1774.45,0.09926
1768.66,0.09121
1762.87,0.08269
1757.09,0.07546
1751.3,0.07092
1745.51,0.06767
1739.73,0.06599
1733.94,0.06544
1728.16,0.06556
1722.37,0.06614
1716.58,0.06635
1710.8,0.06660
1705.01,0.06580
1699.22,0.06539
1693.44,0.06400
1687.65,0.06319
1681.87,0.06176
1676.08,0.06026
1670.29,0.05838
1664.51,0.05722
1658.72,0.05613
1652.93,0.05646
1647.15,0.05605
1641.36,0.05530
1635.58,0.05472
1629.79,0.05369
1624,0.05330
1618.22,0.05233
1612.43,0.05142
1606.64,0.05061
1600.86,0.05012
1595.07,0.05026
1589.29,0.05057
1583.5,0.05225
1577.71,0.05332
1571.93,0.05419
1566.14,0.05523
1560.35,0.05607
1554.57,0.05736
1548.78,0.05841
1543,0.05954
1537.21,0.06041
1531.42,0.06038
1525.64,0.05901
1519.85,0.05517
1514.07,0.05265
1508.28,0.05213
1502.49,0.05215
1496.71,0.05324
1490.92,0.05361
1485.13,0.05225
1479.35,0.04992
1473.56,0.04682
1467.78,0.04452
1461.99,0.04478
1456.2,0.04625
1450.42,0.04656
1444.63,0.04697
1438.84,0.04703
1433.06,0.04627
1427.27,0.04607
1421.49,0.04695
1415.7,0.04862
1409.91,0.04877
1404.13,0.04929
1398.34,0.04866
1392.55,0.04795
1386.77,0.04659
1380.98,0.04475
1375.2,0.04456
1369.41,0.04513
1363.62,0.04586
1357.84,0.04618
1352.05,0.04616
1346.26,0.04594
1340.48,0.04572
1334.69,0.04492
1328.91,0.04516
1323.12,0.04491
1317.33,0.04514
1311.55,0.04624
1305.76,0.04687
1299.97,0.04772
1294.19,0.04772
1288.4,0.04675
1282.62,0.04598
1276.83,0.04617
1271.04,0.04612
1265.26,0.04600
1259.47,0.04621
1253.68,0.04610
1247.9,0.04620
1242.11,0.04589
1236.33,0.04587
1230.54,0.04617
1224.75,0.04667
1218.97,0.04795
1213.18,0.04806
1207.39,0.04746
1201.61,0.04715
1195.82,0.04839
1190.04,0.04903
1184.25,0.04884
1178.46,0.04727
1172.68,0.04483
1166.89,0.04312
1161.1,0.04381
1155.32,0.04253
1149.53,0.04178
1143.75,0.04057
1137.96,0.03884
1132.17,0.03693
1126.39,0.03635
1120.6,0.03710
1114.81,0.03786
1109.03,0.03911
1103.24,0.03958
1097.46,0.03887
1091.67,0.03906
1085.88,0.03994
1080.1,0.04046
1074.31,0.04297
1068.52,0.04703
1062.74,0.05575
1056.95,0.06081
1051.17,0.05985
1045.38,0.05818
1039.59,0.05942
1033.81,0.06477
1028.02,0.06648
1022.24,0.06587
1016.45,0.06550
1010.66,0.06625
1004.88,0.06580
999.09,0.06599
993.304,0.06715
987.518,0.06820
981.731,0.07012
975.945,0.07230
970.159,0.07274
964.373,0.07405
958.586,0.07634
952.8,0.07810
947.014,0.07900
941.228,0.07883
935.441,0.07862
929.655,0.07748
923.869,0.07697
918.083,0.07573
912.297,0.07267
906.51,0.07033
900.724,0.06711
894.938,0.06765
889.152,0.07069
883.365,0.07169
877.579,0.07124
871.793,0.07132
866.007,0.07173
860.22,0.07162
854.434,0.07079
848.648,0.07198
842.862,0.07105
837.075,0.07008
831.289,0.06950
825.503,0.06793
819.717,0.06641
813.931,0.06493
808.144,0.06516
802.358,0.06523
796.572,0.06521
790.786,0.06456
784.999,0.06418
779.213,0.06304
773.427,0.06223
767.641,0.06105
761.854,0.05977
756.068,0.05931
750.282,0.05765
744.496,0.05646
738.709,0.05609
732.923,0.05399
727.137,0.05385
721.351,0.05242
715.565,0.05283
709.778,0.05141
703.992,0.05172
698.206,0.05179
692.42,0.05057
686.633,0.05091
680.847,0.04963
675.061,0.04975
669.275,0.04994
663.488,0.05014
657.702,0.04962
651.916,0.04892
646.13,0.04987
640.343,0.04811
634.557,0.04762
628.771,0.04830
622.985,0.04815
617.198,0.05112
611.412,0.05346
605.626,0.05089
599.84,0.05210