File: 01_Data/Roof_Felt/FTIR/IS/Roof_Felt_IS_S_220829_R2.dpt
7497.03,0.16867
7491.25,0.17546
7485.46,0.17769
7479.67,0.16305
7473.89,0.17298
7468.1,0.17200
7462.32,0.17113
7456.53,0.17028
7450.74,0.17213
7444.96,0.16726
7439.17,0.16773
7433.38,0.17775
7427.6,0.17566
7421.81,0.17706
7416.03,0.18041
7410.24,0.17690
7404.45,0.17401
7398.67,0.16951
7392.88,0.17316
7387.09,0.16719
7381.31,0.17749
7375.52,0.17655
7369.74,0.17242
7363.95,0.17438
7358.16,0.17982
7352.38,0.17588
7346.59,0.16845
7340.8,0.17558
7335.02,0.17417
7329.23,0.16976
7323.45,0.17324
7317.66,0.17370
7311.87,0.17279
7306.09,0.17159
7300.3,0.17568
7294.51,0.17187
7288.73,0.17888
7282.94,0.16976
7277.16,0.17612
7271.37,0.17735
7265.58,0.17903
7259.8,0.17342
7254.01,0.17900
7248.22,0.17617
7242.44,0.18073
7236.65,0.18831
7230.87,0.17187
7225.08,0.18004
7219.29,0.17860
7213.51,0.17206
7207.72,0.18276
7201.93,0.17516
7196.15,0.17369
7190.36,0.17837
7184.58,0.17767
7178.79,0.17406
7173,0.18226
7167.22,0.17730
7161.43,0.17926
7155.65,0.17948
7149.86,0.17960
7144.07,0.17866
7138.29,0.18412
7132.5,0.18189
7126.71,0.17426
7120.93,0.17800
7115.14,0.17952
7109.36,0.18947
7103.57,0.18575
7097.78,0.17729
7092,0.18493
7086.21,0.18027
7080.42,0.17707
7074.64,0.18128
7068.85,0.18017
7063.07,0.17725
7057.28,0.18233
7051.49,0.18187
7045.71,0.18132
7039.92,0.17986
7034.13,0.17178
7028.35,0.17419
7022.56,0.17750
7016.78,0.18022
7010.99,0.17529
7005.2,0.17703
6999.42,0.18106
6993.63,0.17984
6987.84,0.18282
6982.06,0.18107
6976.27,0.17938
6970.49,0.18186
6964.7,0.18265
6958.91,0.18383
6953.13,0.18578
6947.34,0.18279
6941.55,0.18389
6935.77,0.18344
6929.98,0.18399
6924.2,0.18259
6918.41,0.18234
6912.62,0.17632
6906.84,0.17961
6901.05,0.18371
6895.26,0.18170
6889.48,0.18370
6883.69,0.17899
6877.91,0.17883
6872.12,0.18165
6866.33,0.18420
6860.55,0.18239
6854.76,0.18359
6848.97,0.18292
6843.19,0.18331
6837.4,0.18393
6831.62,0.18450
6825.83,0.17935
6820.04,0.18131
6814.26,0.18693
6808.47,0.18179
6802.68,0.18654
6796.9,0.18724
6791.11,0.18803
6785.33,0.18179
6779.54,0.19014
6773.75,0.18752
6767.97,0.18634
6762.18,0.18923
6756.39,0.18731
6750.61,0.18834
6744.82,0.18882
6739.04,0.18943
6733.25,0.18781
6727.46,0.18717
6721.68,0.18752
6715.89,0.18727
6710.1,0.18766
6704.32,0.18767
6698.53,0.19044
6692.75,0.19210
6686.96,0.19140
6681.17,0.19786
6675.39,0.19107
6669.6,0.19579
6663.82,0.19375
6658.03,0.19011
6652.24,0.18895
6646.46,0.19690
6640.67,0.19590
6634.88,0.19511
6629.1,0.19703
6623.31,0.19478
6617.53,0.19173
6611.74,0.19528
6605.95,0.19821
6600.17,0.19755
6594.38,0.19353
6588.59,0.19298
6582.81,0.19398
6577.02,0.20023
6571.24,0.19517
6565.45,0.19969
6559.66,0.19933
6553.88,0.20101
6548.09,0.20034
6542.3,0.19905
6536.52,0.20012
6530.73,0.19936
6524.95,0.20180
6519.16,0.19429
6513.37,0.20353
6507.59,0.20151
6501.8,0.19832
6496.01,0.20212
6490.23,0.20631
6484.44,0.20145
6478.66,0.20300
6472.87,0.20514
6467.08,0.20388
6461.3,0.20114
6455.51,0.20449
6449.72,0.20654
6443.94,0.20841
6438.15,0.20570
6432.37,0.20774
6426.58,0.20569
6420.79,0.20774
6415.01,0.20354
6409.22,0.20664
6403.43,0.20953
6397.65,0.20786
6391.86,0.21009
6386.08,0.20935
6380.29,0.20802
6374.5,0.20427
6368.72,0.20629
6362.93,0.20742
6357.14,0.21026
6351.36,0.20976
6345.57,0.20730
6339.79,0.21292
6334,0.20998
6328.21,0.21053
6322.43,0.21003
6316.64,0.21435
6310.85,0.21315
6305.07,0.21393
6299.28,0.21262
6293.5,0.21333
6287.71,0.21538
6281.92,0.21385
6276.14,0.21247
6270.35,0.21741
6264.56,0.21530
6258.78,0.21081
6252.99,0.21559
6247.21,0.21799
6241.42,0.21739
6235.63,0.21831
6229.85,0.21726
6224.06,0.21782
6218.27,0.21807
6212.49,0.21636
6206.7,0.22035
6200.92,0.21964
6195.13,0.22297
6189.34,0.22016
6183.56,0.22143
6177.77,0.22271
6171.98,0.22271
6166.2,0.22426
6160.41,0.22164
6154.63,0.22421
6148.84,0.22500
6143.05,0.22362
6137.27,0.22229
6131.48,0.22351
6125.7,0.22472
6119.91,0.22514
6114.12,0.22531
6108.34,0.22462
6102.55,0.22920
6096.76,0.22707
6090.98,0.22653
6085.19,0.22762
6079.41,0.22839
6073.62,0.22910
6067.83,0.22884
6062.05,0.22869
6056.26,0.22972
6050.47,0.22645
6044.69,0.22896
6038.9,0.22760
6033.12,0.22442
6027.33,0.23079
6021.54,0.22939
6015.76,0.23025
6009.97,0.22917
6004.18,0.22879
5998.4,0.22811
5992.61,0.22792
5986.83,0.22577
5981.04,0.22769
5975.25,0.22684
5969.47,0.22790
5963.68,0.22362
5957.89,0.22592
5952.11,0.22631
5946.32,0.22357
5940.54,0.22526
5934.75,0.22463
5928.96,0.22212
5923.18,0.21809
5917.39,0.21898
5911.6,0.21948
5905.82,0.22058
5900.03,0.21932
5894.25,0.21915
5888.46,0.21663
5882.67,0.21777
5876.89,0.21645
5871.1,0.21197
5865.31,0.21338
5859.53,0.21115
5853.74,0.21466
5847.96,0.21471
5842.17,0.21367
5836.38,0.21100
5830.6,0.21099
5824.81,0.21093
5819.02,0.21095
5813.24,0.20947
5807.45,0.20720
5801.67,0.20879
5795.88,0.20823
5790.09,0.21018
5784.31,0.20920
5778.52,0.20859
5772.73,0.20838
5766.95,0.21397
5761.16,0.21662
5755.38,0.21874
5749.59,0.21734
5743.8,0.22066
5738.02,0.21887
5732.23,0.21977
5726.44,0.22072
5720.66,0.22207
5714.87,0.22024
5709.09,0.22296
5703.3,0.22039
5697.51,0.21921
5691.73,0.21963
5685.94,0.21774
5680.15,0.21939
5674.37,0.21905
5668.58,0.22026
5662.8,0.22207
5657.01,0.22162
5651.22,0.22217
5645.44,0.22529
5639.65,0.22497
5633.87,0.22769
5628.08,0.22877
5622.29,0.22926
5616.51,0.22923
5610.72,0.23312
5604.93,0.23396
5599.15,0.23509
5593.36,0.23648
5587.58,0.23585
5581.79,0.23756
5576,0.23624
5570.22,0.23779
5564.43,0.23779
5558.64,0.23953
5552.86,0.23940
5547.07,0.23911
5541.29,0.23921
5535.5,0.23875
5529.71,0.23964
5523.93,0.24041
5518.14,0.24154
5512.35,0.24117
5506.57,0.24249
5500.78,0.24133
5495,0.24295
5489.21,0.24199
5483.42,0.24140
5477.64,0.24285
5471.85,0.24331
5466.06,0.24492
5460.28,0.24555
5454.49,0.24490
5448.71,0.24463
5442.92,0.24763
5437.13,0.24746
5431.35,0.24745
5425.56,0.24921
5419.77,0.25062
5413.99,0.24881
5408.2,0.25068
5402.42,0.25200
5396.63,0.25319
5390.84,0.25239
5385.06,0.25237
5379.27,0.25319
5373.48,0.25510
5367.7,0.25570
5361.91,0.25406
5356.13,0.25376
5350.34,0.25336
5344.55,0.25485
5338.77,0.25556
5332.98,0.25539
5327.19,0.25401
5321.41,0.25646
5315.62,0.25426
5309.84,0.25409
5304.05,0.25319
5298.26,0.24953
5292.48,0.25038
5286.69,0.24877
5280.9,0.24768
5275.12,0.24454
5269.33,0.24310
5263.55,0.23930
5257.76,0.23749
5251.97,0.23322
5246.19,0.23190
5240.4,0.23014
5234.61,0.22730
5228.83,0.22471
5223.04,0.22468
5217.26,0.22429
5211.47,0.22347
5205.68,0.22176
5199.9,0.22127
5194.11,0.22151
5188.32,0.22033
5182.54,0.22173
5176.75,0.22278
5170.97,0.22272
5165.18,0.22291
5159.39,0.22475
5153.61,0.22627
5147.82,0.22562
5142.03,0.22696
5136.25,0.22883
5130.46,0.22991
5124.68,0.23088
5118.89,0.23253
5113.1,0.23501
5107.32,0.23412
5101.53,0.23529
5095.75,0.23716
5089.96,0.23776
5084.17,0.23917
5078.39,0.23906
5072.6,0.24042
5066.81,0.24210
5061.03,0.24200
5055.24,0.24373
5049.46,0.24567
5043.67,0.24580
5037.88,0.24670
5032.1,0.24657
5026.31,0.24907
5020.52,0.24907
5014.74,0.25049
5008.95,0.24952
5003.17,0.25025
4997.38,0.25125
4991.59,0.25174
4985.81,0.25193
4980.02,0.25113
4974.23,0.25089
4968.45,0.25051
4962.66,0.25060
4956.88,0.25010
4951.09,0.24997
4945.3,0.24901
4939.52,0.24776
4933.73,0.24832
4927.94,0.24630
4922.16,0.24593
4916.37,0.24350
4910.59,0.24256
4904.8,0.24032
4899.01,0.23900
4893.23,0.23769
4887.44,0.23507
4881.65,0.23259
4875.87,0.23118
4870.08,0.23043
4864.3,0.22892
4858.51,0.22725
4852.72,0.22442
4846.94,0.22404
4841.15,0.22212
4835.36,0.21973
4829.58,0.21928
4823.79,0.21605
4818.01,0.21585
4812.22,0.21589
4806.43,0.21469
4800.65,0.21355
4794.86,0.21246
4789.07,0.21213
4783.29,0.21098
4777.5,0.21090
4771.72,0.21073
4765.93,0.20886
4760.14,0.20915
4754.36,0.20793
4748.57,0.20919
4742.78,0.20890
4737,0.20936
4731.21,0.21015
4725.43,0.21054
4719.64,0.21095
4713.85,0.21163
4708.07,0.21219
4702.28,0.21262
4696.49,0.21315
4690.71,0.21463
4684.92,0.21447
4679.14,0.21576
4673.35,0.21540
4667.56,0.21726
4661.78,0.21696
4655.99,0.21679
4650.2,0.21840
4644.42,0.21950
4638.63,0.22000
4632.85,0.22005
4627.06,0.21999
4621.27,0.22141
4615.49,0.22258
4609.7,0.22260
4603.92,0.22450
4598.13,0.22553
4592.34,0.22673
4586.56,0.22851
4580.77,0.22955
4574.98,0.23046
4569.2,0.23190
4563.41,0.23309
4557.63,0.23395
4551.84,0.23406
4546.05,0.23392
4540.27,0.23426
4534.48,0.23547
4528.69,0.23585
4522.91,0.23601
4517.12,0.23516
4511.34,0.23705
4505.55,0.23536
4499.76,0.23491
4493.98,0.23429
4488.19,0.23313
4482.4,0.23111
4476.62,0.22951
4470.83,0.22691
4465.05,0.22373
4459.26,0.22079
4453.47,0.21632
4447.69,0.21242
4441.9,0.20682
4436.11,0.20162
4430.33,0.19575
4424.54,0.18948
4418.76,0.18284
4412.97,0.17608
4407.18,0.17072
4401.4,0.16477
4395.61,0.16216
4389.82,0.16093
4384.04,0.16063
4378.25,0.16072
4372.47,0.16047
4366.68,0.15967
4360.89,0.15842
4355.11,0.15512
4349.32,0.15039
4343.53,0.14568
4337.75,0.14103
4331.96,0.13770
4326.18,0.13737
4320.39,0.14017
4314.6,0.14404
4308.82,0.14636
4303.03,0.14832
4297.24,0.14934
4291.46,0.15045
4285.67,0.15071
4279.89,0.14907
4274.1,0.14701
4268.31,0.14407
4262.53,0.14140
4256.74,0.14069
4250.95,0.14145
4245.17,0.14479
4239.38,0.14751
4233.6,0.14970
4227.81,0.15082
4222.02,0.15225
4216.24,0.15230
4210.45,0.15264
4204.66,0.15267
4198.88,0.15349
4193.09,0.15397
4187.31,0.15386
4181.52,0.15362
4175.73,0.15336
4169.95,0.15439
4164.16,0.15435
4158.37,0.15333
4152.59,0.15462
4146.8,0.15511
4141.02,0.15521
4135.23,0.15558
4129.44,0.15588
4123.66,0.15452
4117.87,0.15463
4112.09,0.15301
4106.3,0.15240
4100.51,0.15124
4094.73,0.14989
4088.94,0.14889
4083.15,0.14683
4077.37,0.14379
4071.58,0.14246
4065.8,0.14098
4060.01,0.13891
4054.22,0.13779
4048.44,0.13753
4042.65,0.13664
4036.86,0.13639
4031.08,0.13588
4025.29,0.13547
4019.51,0.13584
4013.72,0.13584
4007.93,0.13669
4002.15,0.13768
3996.36,0.13885
3990.57,0.13972
3984.79,0.13994
3979,0.14081
3973.22,0.14197
3967.43,0.14322
3961.64,0.14428
3955.86,0.14497
3950.07,0.14637
3944.28,0.14811
3938.5,0.14907
3932.71,0.15041
3926.93,0.15206
3921.14,0.15313
3915.35,0.15438
3909.57,0.15524
3903.78,0.15620
3897.99,0.15708
3892.21,0.15868
3886.42,0.15920
3880.64,0.16063
3874.85,0.16163
3869.06,0.16203
3863.28,0.16466
3857.49,0.16628
3851.7,0.16712
3845.92,0.16886
3840.13,0.16965
3834.35,0.17009
3828.56,0.17098
3822.77,0.17113
3816.99,0.17116
3811.2,0.17168
3805.41,0.17266
3799.63,0.17253
3793.84,0.17251
3788.06,0.17271
3782.27,0.17354
3776.48,0.17323
3770.7,0.17367
3764.91,0.17230
3759.12,0.17236
3753.34,0.17153
3747.55,0.17018
3741.77,0.16969
3735.98,0.16906
3730.19,0.16585
3724.41,0.16343
3718.62,0.15939
3712.83,0.15428
3707.05,0.14794
3701.26,0.13773
3695.48,0.12829
3689.69,0.12716
3683.9,0.12621
3678.12,0.12265
3672.33,0.11524
3666.54,0.10787
3660.76,0.10219
3654.97,0.09658
3649.19,0.09172
3643.4,0.08757
3637.61,0.08408
3631.83,0.08093
3626.04,0.07680
3620.25,0.07350
3614.47,0.07177
3608.68,0.06874
3602.9,0.06744
3597.11,0.06499
3591.32,0.06320
3585.54,0.06123
3579.75,0.06046
3573.97,0.05876
3568.18,0.05767
3562.39,0.05612
3556.61,0.05496
3550.82,0.05424
3545.03,0.05324
3539.25,0.05268
3533.46,0.05225
3527.68,0.05176
3521.89,0.05071
3516.1,0.05018
3510.32,0.04989
3504.53,0.04852
3498.74,0.04802
3492.96,0.04831
3487.17,0.04758
3481.39,0.04698
3475.6,0.04633
3469.81,0.04575
3464.03,0.04579
3458.24,0.04584
3452.45,0.04544
3446.67,0.04561
3440.88,0.04545
3435.1,0.04499
3429.31,0.04417
3423.52,0.04448
3417.74,0.04396
3411.95,0.04438
3406.16,0.04460
3400.38,0.04423
3394.59,0.04370
3388.81,0.04404
3383.02,0.04394
3377.23,0.04380
3371.45,0.04350
3365.66,0.04368
3359.87,0.04457
3354.09,0.04370
3348.3,0.04490
3342.52,0.04427
3336.73,0.04467
3330.94,0.04415
3325.16,0.04540
3319.37,0.04580
3313.58,0.04606
3307.8,0.04528
3302.01,0.04523
3296.23,0.04591
3290.44,0.04643
3284.65,0.04627
3278.87,0.04693
3273.08,0.04679
3267.29,0.04780
3261.51,0.04786
3255.72,0.04795
3249.94,0.04935
3244.15,0.04936
3238.36,0.05018
3232.58,0.05007
3226.79,0.04977
3221,0.05087
3215.22,0.05144
3209.43,0.05204
3203.65,0.05194
3197.86,0.05241
3192.07,0.05254
3186.29,0.05308
3180.5,0.05408
3174.71,0.05503
3168.93,0.05512
3163.14,0.05500
3157.36,0.05572
3151.57,0.05622
3145.78,0.05716
3140,0.05691
3134.21,0.05685
3128.42,0.05816
3122.64,0.05878
3116.85,0.05908
3111.07,0.05869
3105.28,0.05901
3099.49,0.06015
3093.71,0.06043
3087.92,0.06081
3082.14,0.06024
3076.35,0.06040
3070.56,0.06025
3064.78,0.06061
3058.99,0.06033
3053.2,0.06188
3047.42,0.06110
3041.63,0.06073
3035.85,0.06164
3030.06,0.06115
3024.27,0.06137
3018.49,0.06086
3012.7,0.06032
3006.91,0.05947
3001.13,0.05854
2995.34,0.05737
2989.56,0.05578
2983.77,0.05387
2977.98,0.05130
2972.2,0.04906
2966.41,0.04760
2960.62,0.04773
2954.84,0.04851
2949.05,0.04851
2943.27,0.04764
2937.48,0.04777
2931.69,0.04902
2925.91,0.05081
2920.12,0.05303
2914.33,0.05382
2908.55,0.05334
2902.76,0.05296
2896.98,0.05280
2891.19,0.05242
2885.4,0.05305
2879.62,0.05298
2873.83,0.05217
2868.04,0.05230
2862.26,0.05268
2856.47,0.05301
2850.69,0.05521
2844.9,0.05745
2839.11,0.05856
2833.33,0.06007
2827.54,0.06193
2821.75,0.06329
2815.97,0.06483
2810.18,0.06586
2804.4,0.06717
2798.61,0.06827
2792.82,0.06919
2787.04,0.06973
2781.25,0.07067
2775.46,0.07112
2769.68,0.07156
2763.89,0.07176
2758.11,0.07193
2752.32,0.07283
2746.53,0.07237
2740.75,0.07242
2734.96,0.07187
2729.17,0.07212
2723.39,0.07245
2717.6,0.07304
2711.82,0.07430
2706.03,0.07513
2700.24,0.07561
2694.46,0.07646
2688.67,0.07681
2682.88,0.07762
2677.1,0.07795
2671.31,0.07870
2665.53,0.07923
2659.74,0.08001
2653.95,0.08031
2648.17,0.08130
2642.38,0.08218
2636.59,0.08299
2630.81,0.08345
2625.02,0.08449
2619.24,0.08510
2613.45,0.08602
2607.66,0.08614
2601.88,0.08649
2596.09,0.08763
2590.3,0.08838
2584.52,0.08873
2578.73,0.08929
2572.95,0.09011
2567.16,0.09019
2561.37,0.09096
2555.59,0.09126
2549.8,0.09132
2544.02,0.09115
2538.23,0.09209
2532.44,0.09218
2526.66,0.09264
2520.87,0.09347
2515.08,0.09428
2509.3,0.09512
2503.51,0.09638
2497.73,0.09799
2491.94,0.09925
2486.15,0.09991
2480.37,0.10099
2474.58,0.10234
2468.79,0.10324
2463.01,0.10416
2457.22,0.10486
2451.44,0.10566
2445.65,0.10668
2439.86,0.10755
2434.08,0.10878
2428.29,0.10926
2422.5,0.11093
2416.72,0.11201
2410.93,0.11325
2405.15,0.11397
2399.36,0.11505
2393.57,0.11645
2387.79,0.11708
2382,0.11760
2376.21,0.11911
2370.43,0.11998
2364.64,0.12043
2358.86,0.12130
2353.07,0.12225
2347.28,0.12274
2341.5,0.12346
2335.71,0.12460
2329.92,0.12499
2324.14,0.12553
2318.35,0.12556
2312.57,0.12620
2306.78,0.12627
2300.99,0.12644
2295.21,0.12654
2289.42,0.12655
2283.63,0.12663
2277.85,0.12670
2272.06,0.12644
2266.28,0.12518
2260.49,0.12459
2254.7,0.12442
2248.92,0.12405
2243.13,0.12384
2237.34,0.12357
2231.56,0.12312
2225.77,0.12382
2219.99,0.12404
2214.2,0.12506
2208.41,0.12506
2202.63,0.12457
2196.84,0.12389
2191.05,0.12311
2185.27,0.12179
2179.48,0.12047
2173.7,0.11894
2167.91,0.11735
2162.12,0.11613
2156.34,0.11524
2150.55,0.11404
2144.76,0.11380
2138.98,0.11359
2133.19,0.11365
2127.41,0.11473
2121.62,0.11525
2115.83,0.11618
2110.05,0.11718
2104.26,0.11820
2098.47,0.11925
2092.69,0.11967
2086.9,0.12045
2081.12,0.12041
2075.33,0.12009
2069.54,0.11995
2063.76,0.11966
2057.97,0.11991
2052.19,0.11983
2046.4,0.11998
2040.61,0.12102
2034.83,0.12269
2029.04,0.12412
2023.25,0.12562
2017.47,0.12836
2011.68,0.13048
2005.9,0.13190
2000.11,0.13336
1994.32,0.13422
1988.54,0.13544
1982.75,0.13693
1976.96,0.13720
1971.18,0.13763
1965.39,0.13777
1959.61,0.13805
1953.82,0.13865
1948.03,0.13871
1942.25,0.13927
1936.46,0.13976
1930.67,0.14026
1924.89,0.14015
1919.1,0.13964
1913.32,0.13910
1907.53,0.13859
1901.74,0.13858
1895.96,0.13903
1890.17,0.13872
1884.38,0.13903
1878.6,0.13882
1872.81,0.13902
1867.03,0.13869
1861.24,0.13821
1855.45,0.13784
1849.67,0.13691
1843.88,0.13593
1838.09,0.13481
1832.31,0.13378
1826.52,0.13264
1820.74,0.13088
1814.95,0.12846
1809.16,0.12578
1803.38,0.12131
1797.59,0.11657
1791.8,0.11384
1786.02,0.11051
1780.23,0.10509
1774.45,0.09893
1768.66,0.09113
1762.87,0.08231
1757.09,0.07574
1751.3,0.07122
1745.51,0.06739
1739.73,0.06554
1733.94,0.06535
1728.16,0.06538
1722.37,0.06585
1716.58,0.06632
1710.8,0.06649
1705.01,0.06600
1699.22,0.06460
1693.44,0.06304
1687.65,0.06265
1681.87,0.06068
1676.08,0.05972
1670.29,0.05771
1664.51,0.05684
1658.72,0.05645
1652.93,0.05589
1647.15,0.05544
1641.36,0.05493
1635.58,0.05409
1629.79,0.05394
1624,0.05265
1618.22,0.05199
1612.43,0.05090
1606.64,0.05015
1600.86,0.05015
1595.07,0.05009
1589.29,0.05052
1583.5,0.05208
1577.71,0.05326
1571.93,0.05437
1566.14,0.05553
1560.35,0.05631
1554.57,0.05695
1548.78,0.05813
1543,0.05969
1537.21,0.06018
1531.42,0.05991
1525.64,0.05885
1519.85,0.05540
1514.07,0.05244
1508.28,0.05198
1502.49,0.05180
1496.71,0.05329
1490.92,0.05332
1485.13,0.05216
1479.35,0.04984
1473.56,0.04659
1467.78,0.04433
1461.99,0.04509
1456.2,0.04553
1450.42,0.04658
1444.63,0.04704
1438.84,0.04630
1433.06,0.04558
1427.27,0.04609
1421.49,0.04704
1415.7,0.04875
1409.91,0.04898
1404.13,0.04912
1398.34,0.04842
1392.55,0.04814
1386.77,0.04676
1380.98,0.04501
1375.2,0.04464
1369.41,0.04518
1363.62,0.04589
1357.84,0.04603
1352.05,0.04602
1346.26,0.04610
1340.48,0.04543
1334.69,0.04513
1328.91,0.04505
1323.12,0.04491
1317.33,0.04516
1311.55,0.04584
1305.76,0.04701
1299.97,0.04753
1294.19,0.04784
1288.4,0.04697
1282.62,0.04613
1276.83,0.04652
1271.04,0.04655
1265.26,0.04639
1259.47,0.04602
1253.68,0.04634
1247.9,0.04591
1242.11,0.04604
1236.33,0.04587
1230.54,0.04632
1224.75,0.04713
1218.97,0.04766
1213.18,0.04693
1207.39,0.04662
1201.61,0.04758
1195.82,0.04868
1190.04,0.04928
1184.25,0.04844
1178.46,0.04763
1172.68,0.04530
1166.89,0.04344
1161.1,0.04303
1155.32,0.04294
1149.53,0.04164
1143.75,0.04054
1137.96,0.03913
1132.17,0.03736
1126.39,0.03681
1120.6,0.03660
1114.81,0.03819
1109.03,0.03976
1103.24,0.03974
1097.46,0.03850
1091.67,0.03865
1085.88,0.03893
1080.1,0.04104
1074.31,0.04318
1068.52,0.04792
1062.74,0.05528
1056.95,0.06044
1051.17,0.06010
1045.38,0.05856
1039.59,0.05996
1033.81,0.06537
1028.02,0.06698
1022.24,0.06614
1016.45,0.06620
1010.66,0.06679
1004.88,0.06548
999.09,0.06608
993.304,0.06717
987.518,0.06820
981.731,0.06992
975.945,0.07161
970.159,0.07237
964.373,0.07379
958.586,0.07624
952.8,0.07783
947.014,0.07820
941.228,0.07878
935.441,0.07778
929.655,0.07721
923.869,0.07628
918.083,0.07527
912.297,0.07248
906.51,0.07082
900.724,0.06770
894.938,0.06771
889.152,0.06943
883.365,0.07102
877.579,0.07077
871.793,0.07038
866.007,0.07177
860.22,0.07129
854.434,0.07085
848.648,0.07101
842.862,0.07025
837.075,0.06979
831.289,0.06896
825.503,0.06678
819.717,0.06609
813.931,0.06518
808.144,0.06494
802.358,0.06526
796.572,0.06486
790.786,0.06454
784.999,0.06367
779.213,0.06245
773.427,0.06147
767.641,0.06089
761.854,0.05987
756.068,0.05852
750.282,0.05794
744.496,0.05598
738.709,0.05582
732.923,0.05443
727.137,0.05233
721.351,0.05193
715.565,0.05082
709.778,0.05261
703.992,0.05269
698.206,0.05129
692.42,0.05212
686.633,0.05095
680.847,0.05059
675.061,0.04940
669.275,0.04937
663.488,0.05007
657.702,0.05035
651.916,0.05073
646.13,0.05026
640.343,0.05031
634.557,0.04753
628.771,0.04854
622.985,0.04895
617.198,0.04733
611.412,0.04992
605.626,0.05095
599.84,0.05158