File: 01_Data/Roof_Felt/FTIR/IS/Roof_Felt_IS_S_220829_R7.dpt
7497.03,0.17128
7491.25,0.17284
7485.46,0.17133
7479.67,0.16493
7473.89,0.17019
7468.1,0.17039
7462.32,0.17214
7456.53,0.17450
7450.74,0.16904
7444.96,0.16663
7439.17,0.17124
7433.38,0.17295
7427.6,0.17837
7421.81,0.17188
7416.03,0.17753
7410.24,0.17583
7404.45,0.17683
7398.67,0.17836
7392.88,0.17610
7387.09,0.16862
7381.31,0.17360
7375.52,0.17047
7369.74,0.17255
7363.95,0.17805
7358.16,0.16812
7352.38,0.17296
7346.59,0.17424
7340.8,0.17480
7335.02,0.17567
7329.23,0.17470
7323.45,0.17228
7317.66,0.17656
7311.87,0.17475
7306.09,0.17428
7300.3,0.17615
7294.51,0.17836
7288.73,0.17788
7282.94,0.17475
7277.16,0.17121
7271.37,0.16596
7265.58,0.17873
7259.8,0.17674
7254.01,0.17465
7248.22,0.17780
7242.44,0.18739
7236.65,0.17656
7230.87,0.17526
7225.08,0.17293
7219.29,0.18143
7213.51,0.18450
7207.72,0.17866
7201.93,0.17519
7196.15,0.17597
7190.36,0.18348
7184.58,0.17764
7178.79,0.17548
7173,0.18630
7167.22,0.17654
7161.43,0.18358
7155.65,0.17539
7149.86,0.18030
7144.07,0.18305
7138.29,0.17414
7132.5,0.18010
7126.71,0.17941
7120.93,0.18200
7115.14,0.17548
7109.36,0.18270
7103.57,0.18089
7097.78,0.18311
7092,0.18359
7086.21,0.18079
7080.42,0.17673
7074.64,0.18005
7068.85,0.17724
7063.07,0.18269
7057.28,0.17961
7051.49,0.18199
7045.71,0.18661
7039.92,0.17894
7034.13,0.18444
7028.35,0.18171
7022.56,0.18415
7016.78,0.17848
7010.99,0.17388
7005.2,0.17927
6999.42,0.18499
6993.63,0.17635
6987.84,0.17654
6982.06,0.18183
6976.27,0.17817
6970.49,0.17436
6964.7,0.18183
6958.91,0.18246
6953.13,0.18166
6947.34,0.18623
6941.55,0.18255
6935.77,0.18208
6929.98,0.17798
6924.2,0.18290
6918.41,0.18228
6912.62,0.18806
6906.84,0.18277
6901.05,0.18472
6895.26,0.18185
6889.48,0.18746
6883.69,0.18425
6877.91,0.18376
6872.12,0.18069
6866.33,0.18231
6860.55,0.18671
6854.76,0.19060
6848.97,0.18321
6843.19,0.18187
6837.4,0.18280
6831.62,0.18589
6825.83,0.19230
6820.04,0.18850
6814.26,0.18846
6808.47,0.18740
6802.68,0.18780
6796.9,0.18976
6791.11,0.18884
6785.33,0.18871
6779.54,0.18780
6773.75,0.18905
6767.97,0.18680
6762.18,0.18482
6756.39,0.19055
6750.61,0.19559
6744.82,0.18696
6739.04,0.18961
6733.25,0.18888
6727.46,0.18759
6721.68,0.18566
6715.89,0.19028
6710.1,0.18649
6704.32,0.18426
6698.53,0.18502
6692.75,0.18823
6686.96,0.19144
6681.17,0.19362
6675.39,0.19282
6669.6,0.18823
6663.82,0.19003
6658.03,0.19074
6652.24,0.19235
6646.46,0.19060
6640.67,0.19381
6634.88,0.19255
6629.1,0.19356
6623.31,0.19199
6617.53,0.19678
6611.74,0.19382
6605.95,0.19652
6600.17,0.19579
6594.38,0.19532
6588.59,0.19390
6582.81,0.19725
6577.02,0.19831
6571.24,0.19513
6565.45,0.19776
6559.66,0.19465
6553.88,0.19826
6548.09,0.19628
6542.3,0.19654
6536.52,0.19923
6530.73,0.19647
6524.95,0.20127
6519.16,0.20492
6513.37,0.19916
6507.59,0.19895
6501.8,0.20417
6496.01,0.20296
6490.23,0.20264
6484.44,0.19868
6478.66,0.19775
6472.87,0.20107
6467.08,0.20023
6461.3,0.20612
6455.51,0.20660
6449.72,0.20286
6443.94,0.20163
6438.15,0.20156
6432.37,0.20220
6426.58,0.20620
6420.79,0.20349
6415.01,0.20355
6409.22,0.20593
6403.43,0.20515
6397.65,0.20305
6391.86,0.20696
6386.08,0.20697
6380.29,0.20682
6374.5,0.20697
6368.72,0.20734
6362.93,0.20741
6357.14,0.20725
6351.36,0.20775
6345.57,0.21091
6339.79,0.21088
6334,0.20879
6328.21,0.20970
6322.43,0.21069
6316.64,0.21448
6310.85,0.21172
6305.07,0.21207
6299.28,0.21538
6293.5,0.21224
6287.71,0.21171
6281.92,0.21373
6276.14,0.21228
6270.35,0.21341
6264.56,0.21354
6258.78,0.21662
6252.99,0.21485
6247.21,0.21641
6241.42,0.21602
6235.63,0.21419
6229.85,0.21918
6224.06,0.22010
6218.27,0.21906
6212.49,0.21718
6206.7,0.22183
6200.92,0.22223
6195.13,0.21983
6189.34,0.21716
6183.56,0.21926
6177.77,0.22078
6171.98,0.21968
6166.2,0.22264
6160.41,0.22271
6154.63,0.22271
6148.84,0.22307
6143.05,0.22741
6137.27,0.22459
6131.48,0.22747
6125.7,0.22528
6119.91,0.22289
6114.12,0.22654
6108.34,0.22349
6102.55,0.22632
6096.76,0.22791
6090.98,0.22960
6085.19,0.22734
6079.41,0.22735
6073.62,0.22775
6067.83,0.22565
6062.05,0.22650
6056.26,0.22743
6050.47,0.22586
6044.69,0.22549
6038.9,0.22872
6033.12,0.22717
6027.33,0.22607
6021.54,0.22864
6015.76,0.23012
6009.97,0.22987
6004.18,0.22667
5998.4,0.22481
5992.61,0.22546
5986.83,0.22470
5981.04,0.22509
5975.25,0.22449
5969.47,0.22496
5963.68,0.22543
5957.89,0.22502
5952.11,0.22596
5946.32,0.22232
5940.54,0.22336
5934.75,0.21916
5928.96,0.22106
5923.18,0.21924
5917.39,0.22082
5911.6,0.21723
5905.82,0.21653
5900.03,0.21944
5894.25,0.21780
5888.46,0.21489
5882.67,0.21532
5876.89,0.21300
5871.1,0.21352
5865.31,0.21172
5859.53,0.21379
5853.74,0.21278
5847.96,0.21150
5842.17,0.21100
5836.38,0.20978
5830.6,0.21084
5824.81,0.21240
5819.02,0.20889
5813.24,0.20793
5807.45,0.20779
5801.67,0.20687
5795.88,0.20893
5790.09,0.20800
5784.31,0.20842
5778.52,0.20757
5772.73,0.21132
5766.95,0.21431
5761.16,0.21169
5755.38,0.21694
5749.59,0.21835
5743.8,0.22038
5738.02,0.22048
5732.23,0.21952
5726.44,0.21921
5720.66,0.22031
5714.87,0.21756
5709.09,0.22123
5703.3,0.21907
5697.51,0.22033
5691.73,0.21923
5685.94,0.21790
5680.15,0.21770
5674.37,0.21980
5668.58,0.22075
5662.8,0.22237
5657.01,0.22268
5651.22,0.22340
5645.44,0.22282
5639.65,0.22391
5633.87,0.22673
5628.08,0.22789
5622.29,0.23032
5616.51,0.23014
5610.72,0.23332
5604.93,0.23426
5599.15,0.23241
5593.36,0.23480
5587.58,0.23454
5581.79,0.23591
5576,0.23704
5570.22,0.23612
5564.43,0.23908
5558.64,0.23771
5552.86,0.24017
5547.07,0.23962
5541.29,0.23764
5535.5,0.23806
5529.71,0.24021
5523.93,0.24149
5518.14,0.24089
5512.35,0.24193
5506.57,0.24221
5500.78,0.24358
5495,0.24157
5489.21,0.24148
5483.42,0.24195
5477.64,0.24193
5471.85,0.24433
5466.06,0.24307
5460.28,0.24301
5454.49,0.24480
5448.71,0.24545
5442.92,0.24575
5437.13,0.24699
5431.35,0.24731
5425.56,0.24744
5419.77,0.24600
5413.99,0.24944
5408.2,0.24887
5402.42,0.24992
5396.63,0.25218
5390.84,0.25170
5385.06,0.25328
5379.27,0.25229
5373.48,0.25304
5367.7,0.25467
5361.91,0.25422
5356.13,0.25548
5350.34,0.25589
5344.55,0.25611
5338.77,0.25506
5332.98,0.25448
5327.19,0.25382
5321.41,0.25614
5315.62,0.25394
5309.84,0.25265
5304.05,0.25340
5298.26,0.25240
5292.48,0.25071
5286.69,0.24969
5280.9,0.24805
5275.12,0.24695
5269.33,0.24378
5263.55,0.24180
5257.76,0.23916
5251.97,0.23628
5246.19,0.23475
5240.4,0.23332
5234.61,0.23139
5228.83,0.22987
5223.04,0.23006
5217.26,0.22773
5211.47,0.22592
5205.68,0.22704
5199.9,0.22670
5194.11,0.22582
5188.32,0.22571
5182.54,0.22728
5176.75,0.22689
5170.97,0.22678
5165.18,0.22885
5159.39,0.22983
5153.61,0.23138
5147.82,0.23205
5142.03,0.23171
5136.25,0.23223
5130.46,0.23483
5124.68,0.23520
5118.89,0.23749
5113.1,0.23663
5107.32,0.23926
5101.53,0.23880
5095.75,0.24118
5089.96,0.24124
5084.17,0.24202
5078.39,0.24349
5072.6,0.24485
5066.81,0.24558
5061.03,0.24810
5055.24,0.24722
5049.46,0.24769
5043.67,0.24994
5037.88,0.24982
5032.1,0.25038
5026.31,0.25057
5020.52,0.25209
5014.74,0.25289
5008.95,0.25314
5003.17,0.25321
4997.38,0.25372
4991.59,0.25331
4985.81,0.25476
4980.02,0.25409
4974.23,0.25323
4968.45,0.25264
4962.66,0.25131
4956.88,0.25171
4951.09,0.25100
4945.3,0.24971
4939.52,0.24888
4933.73,0.24789
4927.94,0.24654
4922.16,0.24545
4916.37,0.24409
4910.59,0.24306
4904.8,0.23986
4899.01,0.23785
4893.23,0.23665
4887.44,0.23501
4881.65,0.23253
4875.87,0.23121
4870.08,0.22981
4864.3,0.22829
4858.51,0.22722
4852.72,0.22477
4846.94,0.22396
4841.15,0.22131
4835.36,0.21975
4829.58,0.21917
4823.79,0.21751
4818.01,0.21608
4812.22,0.21506
4806.43,0.21321
4800.65,0.21269
4794.86,0.21110
4789.07,0.21110
4783.29,0.21135
4777.5,0.20945
4771.72,0.21039
4765.93,0.20955
4760.14,0.20857
4754.36,0.20801
4748.57,0.20848
4742.78,0.20796
4737,0.20975
4731.21,0.20836
4725.43,0.20977
4719.64,0.21042
4713.85,0.21151
4708.07,0.21256
4702.28,0.21289
4696.49,0.21398
4690.71,0.21438
4684.92,0.21500
4679.14,0.21552
4673.35,0.21691
4667.56,0.21639
4661.78,0.21715
4655.99,0.21694
4650.2,0.21792
4644.42,0.21815
4638.63,0.21824
4632.85,0.21862
4627.06,0.21966
4621.27,0.22036
4615.49,0.22254
4609.7,0.22303
4603.92,0.22436
4598.13,0.22506
4592.34,0.22671
4586.56,0.22733
4580.77,0.22936
4574.98,0.23009
4569.2,0.23065
4563.41,0.23290
4557.63,0.23326
4551.84,0.23415
4546.05,0.23533
4540.27,0.23567
4534.48,0.23551
4528.69,0.23518
4522.91,0.23604
4517.12,0.23520
4511.34,0.23651
4505.55,0.23545
4499.76,0.23549
4493.98,0.23371
4488.19,0.23200
4482.4,0.23162
4476.62,0.22882
4470.83,0.22649
4465.05,0.22426
4459.26,0.22005
4453.47,0.21544
4447.69,0.21158
4441.9,0.20667
4436.11,0.20157
4430.33,0.19541
4424.54,0.18947
4418.76,0.18237
4412.97,0.17558
4407.18,0.16981
4401.4,0.16524
4395.61,0.16226
4389.82,0.16066
4384.04,0.15981
4378.25,0.15972
4372.47,0.15961
4366.68,0.15920
4360.89,0.15785
4355.11,0.15461
4349.32,0.14980
4343.53,0.14477
4337.75,0.14108
4331.96,0.13759
4326.18,0.13789
4320.39,0.13936
4314.6,0.14286
4308.82,0.14575
4303.03,0.14819
4297.24,0.14942
4291.46,0.14972
4285.67,0.14951
4279.89,0.14866
4274.1,0.14621
4268.31,0.14312
4262.53,0.14153
4256.74,0.13999
4250.95,0.14146
4245.17,0.14518
4239.38,0.14673
4233.6,0.14935
4227.81,0.15085
4222.02,0.15109
4216.24,0.15151
4210.45,0.15240
4204.66,0.15228
4198.88,0.15233
4193.09,0.15357
4187.31,0.15367
4181.52,0.15386
4175.73,0.15384
4169.95,0.15318
4164.16,0.15373
4158.37,0.15429
4152.59,0.15444
4146.8,0.15467
4141.02,0.15555
4135.23,0.15572
4129.44,0.15441
4123.66,0.15395
4117.87,0.15346
4112.09,0.15327
4106.3,0.15246
4100.51,0.15144
4094.73,0.15044
4088.94,0.14854
4083.15,0.14712
4077.37,0.14491
4071.58,0.14207
4065.8,0.14025
4060.01,0.13960
4054.22,0.13812
4048.44,0.13744
4042.65,0.13659
4036.86,0.13624
4031.08,0.13578
4025.29,0.13540
4019.51,0.13547
4013.72,0.13520
4007.93,0.13611
4002.15,0.13825
3996.36,0.13899
3990.57,0.13957
3984.79,0.14084
3979,0.14168
3973.22,0.14210
3967.43,0.14336
3961.64,0.14480
3955.86,0.14607
3950.07,0.14706
3944.28,0.14855
3938.5,0.14921
3932.71,0.15105
3926.93,0.15241
3921.14,0.15344
3915.35,0.15464
3909.57,0.15593
3903.78,0.15676
3897.99,0.15767
3892.21,0.15883
3886.42,0.15993
3880.64,0.16120
3874.85,0.16185
3869.06,0.16409
3863.28,0.16494
3857.49,0.16644
3851.7,0.16771
3845.92,0.16918
3840.13,0.17038
3834.35,0.17107
3828.56,0.17207
3822.77,0.17236
3816.99,0.17277
3811.2,0.17278
3805.41,0.17400
3799.63,0.17384
3793.84,0.17444
3788.06,0.17461
3782.27,0.17449
3776.48,0.17515
3770.7,0.17547
3764.91,0.17462
3759.12,0.17461
3753.34,0.17385
3747.55,0.17303
3741.77,0.17125
3735.98,0.17127
3730.19,0.16900
3724.41,0.16631
3718.62,0.16273
3712.83,0.15801
3707.05,0.15115
3701.26,0.13906
3695.48,0.13036
3689.69,0.13028
3683.9,0.13029
3678.12,0.12644
3672.33,0.11932
3666.54,0.11229
3660.76,0.10744
3654.97,0.10098
3649.19,0.09622
3643.4,0.09180
3637.61,0.08780
3631.83,0.08475
3626.04,0.07968
3620.25,0.07666
3614.47,0.07447
3608.68,0.07210
3602.9,0.06943
3597.11,0.06684
3591.32,0.06445
3585.54,0.06278
3579.75,0.06091
3573.97,0.06007
3568.18,0.05785
3562.39,0.05656
3556.61,0.05547
3550.82,0.05465
3545.03,0.05425
3539.25,0.05288
3533.46,0.05211
3527.68,0.05155
3521.89,0.05033
3516.1,0.05034
3510.32,0.04971
3504.53,0.04876
3498.74,0.04783
3492.96,0.04782
3487.17,0.04807
3481.39,0.04740
3475.6,0.04674
3469.81,0.04621
3464.03,0.04632
3458.24,0.04595
3452.45,0.04559
3446.67,0.04470
3440.88,0.04462
3435.1,0.04468
3429.31,0.04536
3423.52,0.04443
3417.74,0.04499
3411.95,0.04455
3406.16,0.04416
3400.38,0.04459
3394.59,0.04376
3388.81,0.04436
3383.02,0.04395
3377.23,0.04476
3371.45,0.04371
3365.66,0.04372
3359.87,0.04317
3354.09,0.04418
3348.3,0.04471
3342.52,0.04448
3336.73,0.04430
3330.94,0.04452
3325.16,0.04475
3319.37,0.04532
3313.58,0.04496
3307.8,0.04565
3302.01,0.04526
3296.23,0.04576
3290.44,0.04601
3284.65,0.04637
3278.87,0.04685
3273.08,0.04700
3267.29,0.04719
3261.51,0.04824
3255.72,0.04864
3249.94,0.04869
3244.15,0.04898
3238.36,0.04972
3232.58,0.05007
3226.79,0.05049
3221,0.05115
3215.22,0.05125
3209.43,0.05092
3203.65,0.05265
3197.86,0.05267
3192.07,0.05258
3186.29,0.05294
3180.5,0.05403
3174.71,0.05421
3168.93,0.05525
3163.14,0.05537
3157.36,0.05548
3151.57,0.05729
3145.78,0.05692
3140,0.05748
3134.21,0.05877
3128.42,0.05863
3122.64,0.05898
3116.85,0.05928
3111.07,0.06026
3105.28,0.06023
3099.49,0.06074
3093.71,0.06097
3087.92,0.06073
3082.14,0.06132
3076.35,0.06142
3070.56,0.06144
3064.78,0.06081
3058.99,0.06114
3053.2,0.06145
3047.42,0.06236
3041.63,0.06229
3035.85,0.06199
3030.06,0.06165
3024.27,0.06122
3018.49,0.06116
3012.7,0.06049
3006.91,0.05963
3001.13,0.05893
2995.34,0.05724
2989.56,0.05581
2983.77,0.05389
2977.98,0.05108
2972.2,0.04928
2966.41,0.04782
2960.62,0.04748
2954.84,0.04812
2949.05,0.04791
2943.27,0.04777
2937.48,0.04764
2931.69,0.04874
2925.91,0.05105
2920.12,0.05329
2914.33,0.05366
2908.55,0.05331
2902.76,0.05305
2896.98,0.05300
2891.19,0.05285
2885.4,0.05309
2879.62,0.05211
2873.83,0.05188
2868.04,0.05245
2862.26,0.05293
2856.47,0.05314
2850.69,0.05535
2844.9,0.05690
2839.11,0.05864
2833.33,0.05961
2827.54,0.06161
2821.75,0.06286
2815.97,0.06470
2810.18,0.06595
2804.4,0.06677
2798.61,0.06812
2792.82,0.06932
2787.04,0.07039
2781.25,0.07077
2775.46,0.07166
2769.68,0.07180
2763.89,0.07213
2758.11,0.07231
2752.32,0.07243
2746.53,0.07253
2740.75,0.07183
2734.96,0.07216
2729.17,0.07288
2723.39,0.07237
2717.6,0.07353
2711.82,0.07447
2706.03,0.07549
2700.24,0.07628
2694.46,0.07638
2688.67,0.07751
2682.88,0.07806
2677.1,0.07878
2671.31,0.07875
2665.53,0.07937
2659.74,0.08032
2653.95,0.08077
2648.17,0.08173
2642.38,0.08238
2636.59,0.08288
2630.81,0.08320
2625.02,0.08437
2619.24,0.08477
2613.45,0.08611
2607.66,0.08607
2601.88,0.08679
2596.09,0.08761
2590.3,0.08811
2584.52,0.08915
2578.73,0.08980
2572.95,0.09015
2567.16,0.09113
2561.37,0.09086
2555.59,0.09102
2549.8,0.09113
2544.02,0.09169
2538.23,0.09206
2532.44,0.09237
2526.66,0.09318
2520.87,0.09348
2515.08,0.09419
2509.3,0.09534
2503.51,0.09652
2497.73,0.09800
2491.94,0.09888
2486.15,0.10029
2480.37,0.10125
2474.58,0.10234
2468.79,0.10342
2463.01,0.10401
2457.22,0.10523
2451.44,0.10586
2445.65,0.10715
2439.86,0.10806
2434.08,0.10884
2428.29,0.10999
2422.5,0.11108
2416.72,0.11233
2410.93,0.11346
2405.15,0.11441
2399.36,0.11567
2393.57,0.11692
2387.79,0.11707
2382,0.11850
2376.21,0.11931
2370.43,0.12040
2364.64,0.12095
2358.86,0.12229
2353.07,0.12280
2347.28,0.12388
2341.5,0.12476
2335.71,0.12494
2329.92,0.12565
2324.14,0.12626
2318.35,0.12707
2312.57,0.12716
2306.78,0.12704
2300.99,0.12759
2295.21,0.12777
2289.42,0.12770
2283.63,0.12846
2277.85,0.12823
2272.06,0.12772
2266.28,0.12672
2260.49,0.12597
2254.7,0.12581
2248.92,0.12546
2243.13,0.12494
2237.34,0.12516
2231.56,0.12494
2225.77,0.12553
2219.99,0.12616
2214.2,0.12670
2208.41,0.12697
2202.63,0.12651
2196.84,0.12609
2191.05,0.12518
2185.27,0.12385
2179.48,0.12204
2173.7,0.12034
2167.91,0.11919
2162.12,0.11793
2156.34,0.11682
2150.55,0.11615
2144.76,0.11571
2138.98,0.11551
2133.19,0.11556
2127.41,0.11648
2121.62,0.11722
2115.83,0.11791
2110.05,0.11943
2104.26,0.12031
2098.47,0.12103
2092.69,0.12135
2086.9,0.12225
2081.12,0.12272
2075.33,0.12223
2069.54,0.12191
2063.76,0.12155
2057.97,0.12144
2052.19,0.12163
2046.4,0.12221
2040.61,0.12248
2034.83,0.12399
2029.04,0.12521
2023.25,0.12748
2017.47,0.12977
2011.68,0.13229
2005.9,0.13397
2000.11,0.13522
1994.32,0.13644
1988.54,0.13749
1982.75,0.13888
1976.96,0.13949
1971.18,0.13952
1965.39,0.14002
1959.61,0.13986
1953.82,0.14038
1948.03,0.14050
1942.25,0.14102
1936.46,0.14179
1930.67,0.14218
1924.89,0.14223
1919.1,0.14181
1913.32,0.14053
1907.53,0.14017
1901.74,0.14004
1895.96,0.14063
1890.17,0.14082
1884.38,0.14068
1878.6,0.14090
1872.81,0.14047
1867.03,0.14058
1861.24,0.14001
1855.45,0.13936
1849.67,0.13829
1843.88,0.13743
1838.09,0.13619
1832.31,0.13504
1826.52,0.13406
1820.74,0.13249
1814.95,0.13025
1809.16,0.12709
1803.38,0.12290
1797.59,0.11809
1791.8,0.11445
1786.02,0.11095
1780.23,0.10577
1774.45,0.09946
1768.66,0.09073
1762.87,0.08236
1757.09,0.07545
1751.3,0.07089
1745.51,0.06713
1739.73,0.06548
1733.94,0.06520
1728.16,0.06580
1722.37,0.06632
1716.58,0.06664
1710.8,0.06649
1705.01,0.06657
1699.22,0.06542
1693.44,0.06430
1687.65,0.06320
1681.87,0.06163
1676.08,0.06042
1670.29,0.05895
1664.51,0.05760
1658.72,0.05673
1652.93,0.05627
1647.15,0.05590
1641.36,0.05543
1635.58,0.05476
1629.79,0.05424
1624,0.05322
1618.22,0.05236
1612.43,0.05116
1606.64,0.05020
1600.86,0.04982
1595.07,0.04973
1589.29,0.05029
1583.5,0.05187
1577.71,0.05342
1571.93,0.05472
1566.14,0.05534
1560.35,0.05649
1554.57,0.05733
1548.78,0.05830
1543,0.05935
1537.21,0.05999
1531.42,0.06023
1525.64,0.05864
1519.85,0.05515
1514.07,0.05253
1508.28,0.05206
1502.49,0.05196
1496.71,0.05327
1490.92,0.05345
1485.13,0.05200
1479.35,0.04947
1473.56,0.04686
1467.78,0.04471
1461.99,0.04487
1456.2,0.04595
1450.42,0.04642
1444.63,0.04716
1438.84,0.04658
1433.06,0.04570
1427.27,0.04593
1421.49,0.04681
1415.7,0.04812
1409.91,0.04932
1404.13,0.04869
1398.34,0.04837
1392.55,0.04773
1386.77,0.04633
1380.98,0.04486
1375.2,0.04493
1369.41,0.04496
1363.62,0.04526
1357.84,0.04592
1352.05,0.04627
1346.26,0.04596
1340.48,0.04511
1334.69,0.04495
1328.91,0.04494
1323.12,0.04490
1317.33,0.04511
1311.55,0.04604
1305.76,0.04693
1299.97,0.04762
1294.19,0.04745
1288.4,0.04702
1282.62,0.04569
1276.83,0.04553
1271.04,0.04604
1265.26,0.04611
1259.47,0.04610
1253.68,0.04596
1247.9,0.04555
1242.11,0.04531
1236.33,0.04568
1230.54,0.04577
1224.75,0.04683
1218.97,0.04727
1213.18,0.04735
1207.39,0.04704
1201.61,0.04743
1195.82,0.04827
1190.04,0.04865
1184.25,0.04858
1178.46,0.04707
1172.68,0.04487
1166.89,0.04313
1161.1,0.04317
1155.32,0.04253
1149.53,0.04176
1143.75,0.04016
1137.96,0.03882
1132.17,0.03747
1126.39,0.03724
1120.6,0.03667
1114.81,0.03772
1109.03,0.03910
1103.24,0.03957
1097.46,0.03920
1091.67,0.03955
1085.88,0.03936
1080.1,0.04099
1074.31,0.04315
1068.52,0.04700
1062.74,0.05522
1056.95,0.06038
1051.17,0.05966
1045.38,0.05778
1039.59,0.05987
1033.81,0.06561
1028.02,0.06662
1022.24,0.06578
1016.45,0.06576
1010.66,0.06615
1004.88,0.06559
999.09,0.06574
993.304,0.06752
987.518,0.06784
981.731,0.07037
975.945,0.07201
970.159,0.07268
964.373,0.07396
958.586,0.07578
952.8,0.07791
947.014,0.07881
941.228,0.07884
935.441,0.07834
929.655,0.07786
923.869,0.07774
918.083,0.07549
912.297,0.07397
906.51,0.07030
900.724,0.06817
894.938,0.06804
889.152,0.07030
883.365,0.07140
877.579,0.07115
871.793,0.07108
866.007,0.07179
860.22,0.07150
854.434,0.07171
848.648,0.07137
842.862,0.07090
837.075,0.07052
831.289,0.06900
825.503,0.06783
819.717,0.06693
813.931,0.06576
808.144,0.06607
802.358,0.06612
796.572,0.06523
790.786,0.06499
784.999,0.06396
779.213,0.06424
773.427,0.06187
767.641,0.06164
761.854,0.06058
756.068,0.05991
750.282,0.05750
744.496,0.05608
738.709,0.05635
732.923,0.05467
727.137,0.05334
721.351,0.05267
715.565,0.05217
709.778,0.05347
703.992,0.05190
698.206,0.05142
692.42,0.05103
686.633,0.05088
680.847,0.05063
675.061,0.04894
669.275,0.04966
663.488,0.05110
657.702,0.05083
651.916,0.05135
646.13,0.04943
640.343,0.04874
634.557,0.04867
628.771,0.04796
622.985,0.04875
617.198,0.04776
611.412,0.05101
605.626,0.05349
599.84,0.05313