File: 01_Data/Roof_Felt/FTIR/IS/Roof_Felt_IS_S_220829_R1.dpt
7497.03,0.17194
7491.25,0.16444
7485.46,0.16766
7479.67,0.17576
7473.89,0.17422
7468.1,0.16361
7462.32,0.17146
7456.53,0.16590
7450.74,0.17204
7444.96,0.17573
7439.17,0.16689
7433.38,0.17933
7427.6,0.16863
7421.81,0.17657
7416.03,0.17364
7410.24,0.16849
7404.45,0.17784
7398.67,0.16681
7392.88,0.16897
7387.09,0.17392
7381.31,0.17793
7375.52,0.17240
7369.74,0.17233
7363.95,0.17049
7358.16,0.17308
7352.38,0.17660
7346.59,0.17162
7340.8,0.17300
7335.02,0.17429
7329.23,0.17805
7323.45,0.17363
7317.66,0.17625
7311.87,0.17857
7306.09,0.17553
7300.3,0.17349
7294.51,0.17535
7288.73,0.17957
7282.94,0.16836
7277.16,0.17466
7271.37,0.17416
7265.58,0.16820
7259.8,0.17057
7254.01,0.16498
7248.22,0.17885
7242.44,0.17468
7236.65,0.17223
7230.87,0.18008
7225.08,0.17885
7219.29,0.17668
7213.51,0.17667
7207.72,0.17779
7201.93,0.17942
7196.15,0.18130
7190.36,0.17952
7184.58,0.18071
7178.79,0.17872
7173,0.18050
7167.22,0.17861
7161.43,0.17062
7155.65,0.17245
7149.86,0.18166
7144.07,0.18730
7138.29,0.17738
7132.5,0.17851
7126.71,0.18583
7120.93,0.18670
7115.14,0.17755
7109.36,0.17827
7103.57,0.18062
7097.78,0.18124
7092,0.18303
7086.21,0.18019
7080.42,0.17882
7074.64,0.17717
7068.85,0.17863
7063.07,0.18416
7057.28,0.18323
7051.49,0.17891
7045.71,0.17920
7039.92,0.18138
7034.13,0.18436
7028.35,0.18057
7022.56,0.18364
7016.78,0.18450
7010.99,0.18650
7005.2,0.18101
6999.42,0.18002
6993.63,0.18058
6987.84,0.18350
6982.06,0.18107
6976.27,0.18094
6970.49,0.18010
6964.7,0.18202
6958.91,0.18417
6953.13,0.18186
6947.34,0.18353
6941.55,0.18287
6935.77,0.18020
6929.98,0.18152
6924.2,0.17653
6918.41,0.18338
6912.62,0.18710
6906.84,0.18661
6901.05,0.18113
6895.26,0.17905
6889.48,0.17830
6883.69,0.18358
6877.91,0.18413
6872.12,0.18104
6866.33,0.18545
6860.55,0.18639
6854.76,0.18754
6848.97,0.18544
6843.19,0.18045
6837.4,0.18336
6831.62,0.18254
6825.83,0.18715
6820.04,0.18343
6814.26,0.18903
6808.47,0.18864
6802.68,0.18895
6796.9,0.18850
6791.11,0.18827
6785.33,0.19140
6779.54,0.18976
6773.75,0.18595
6767.97,0.18454
6762.18,0.18716
6756.39,0.18471
6750.61,0.18656
6744.82,0.18842
6739.04,0.18807
6733.25,0.18984
6727.46,0.18924
6721.68,0.18834
6715.89,0.19248
6710.1,0.18839
6704.32,0.19055
6698.53,0.19074
6692.75,0.18866
6686.96,0.18806
6681.17,0.18829
6675.39,0.19055
6669.6,0.18485
6663.82,0.19419
6658.03,0.19128
6652.24,0.19168
6646.46,0.19203
6640.67,0.19514
6634.88,0.19482
6629.1,0.19099
6623.31,0.19320
6617.53,0.19303
6611.74,0.19683
6605.95,0.19531
6600.17,0.19752
6594.38,0.19519
6588.59,0.19989
6582.81,0.19659
6577.02,0.19747
6571.24,0.19953
6565.45,0.19460
6559.66,0.20061
6553.88,0.19795
6548.09,0.19732
6542.3,0.19901
6536.52,0.19740
6530.73,0.19702
6524.95,0.19994
6519.16,0.20103
6513.37,0.19775
6507.59,0.19768
6501.8,0.20082
6496.01,0.20389
6490.23,0.20161
6484.44,0.20363
6478.66,0.19937
6472.87,0.20264
6467.08,0.20296
6461.3,0.20116
6455.51,0.20333
6449.72,0.20389
6443.94,0.20696
6438.15,0.20580
6432.37,0.20673
6426.58,0.20727
6420.79,0.20741
6415.01,0.20458
6409.22,0.20482
6403.43,0.20602
6397.65,0.20810
6391.86,0.20635
6386.08,0.20506
6380.29,0.20733
6374.5,0.20692
6368.72,0.20702
6362.93,0.20841
6357.14,0.21055
6351.36,0.20916
6345.57,0.20870
6339.79,0.21122
6334,0.21234
6328.21,0.20936
6322.43,0.21055
6316.64,0.21170
6310.85,0.20786
6305.07,0.21116
6299.28,0.21172
6293.5,0.21168
6287.71,0.21262
6281.92,0.21547
6276.14,0.21389
6270.35,0.21420
6264.56,0.21584
6258.78,0.21613
6252.99,0.21787
6247.21,0.21621
6241.42,0.21781
6235.63,0.21742
6229.85,0.21363
6224.06,0.21929
6218.27,0.22072
6212.49,0.21918
6206.7,0.22063
6200.92,0.22274
6195.13,0.21920
6189.34,0.22184
6183.56,0.22048
6177.77,0.22162
6171.98,0.22154
6166.2,0.22150
6160.41,0.22423
6154.63,0.22372
6148.84,0.22626
6143.05,0.22492
6137.27,0.22677
6131.48,0.22525
6125.7,0.22536
6119.91,0.22589
6114.12,0.22550
6108.34,0.22328
6102.55,0.22500
6096.76,0.22442
6090.98,0.22675
6085.19,0.22690
6079.41,0.22816
6073.62,0.22770
6067.83,0.22707
6062.05,0.22844
6056.26,0.22874
6050.47,0.22929
6044.69,0.22980
6038.9,0.22863
6033.12,0.22613
6027.33,0.22787
6021.54,0.22712
6015.76,0.22943
6009.97,0.22730
6004.18,0.22462
5998.4,0.22607
5992.61,0.22524
5986.83,0.22978
5981.04,0.22688
5975.25,0.22547
5969.47,0.22576
5963.68,0.22727
5957.89,0.22560
5952.11,0.22343
5946.32,0.22313
5940.54,0.22345
5934.75,0.22271
5928.96,0.22276
5923.18,0.21898
5917.39,0.21987
5911.6,0.21940
5905.82,0.21790
5900.03,0.21993
5894.25,0.21649
5888.46,0.21573
5882.67,0.21601
5876.89,0.21501
5871.1,0.21125
5865.31,0.21171
5859.53,0.21016
5853.74,0.21109
5847.96,0.21210
5842.17,0.21352
5836.38,0.21245
5830.6,0.21085
5824.81,0.21178
5819.02,0.21028
5813.24,0.21202
5807.45,0.20866
5801.67,0.20850
5795.88,0.20808
5790.09,0.20832
5784.31,0.20743
5778.52,0.21017
5772.73,0.21262
5766.95,0.21437
5761.16,0.21430
5755.38,0.21562
5749.59,0.21716
5743.8,0.21653
5738.02,0.21974
5732.23,0.21919
5726.44,0.22043
5720.66,0.22247
5714.87,0.21887
5709.09,0.21965
5703.3,0.22027
5697.51,0.22080
5691.73,0.21995
5685.94,0.21806
5680.15,0.22013
5674.37,0.21932
5668.58,0.21997
5662.8,0.22013
5657.01,0.22085
5651.22,0.22303
5645.44,0.22556
5639.65,0.22434
5633.87,0.22948
5628.08,0.23036
5622.29,0.22972
5616.51,0.23013
5610.72,0.23321
5604.93,0.23225
5599.15,0.23376
5593.36,0.23677
5587.58,0.23590
5581.79,0.23520
5576,0.23671
5570.22,0.23839
5564.43,0.23858
5558.64,0.23904
5552.86,0.23852
5547.07,0.23932
5541.29,0.24015
5535.5,0.23893
5529.71,0.24119
5523.93,0.23982
5518.14,0.24128
5512.35,0.24022
5506.57,0.24036
5500.78,0.24161
5495,0.24189
5489.21,0.24269
5483.42,0.24369
5477.64,0.24384
5471.85,0.24458
5466.06,0.24414
5460.28,0.24498
5454.49,0.24494
5448.71,0.24650
5442.92,0.24774
5437.13,0.24623
5431.35,0.24786
5425.56,0.24779
5419.77,0.24839
5413.99,0.24966
5408.2,0.25010
5402.42,0.24974
5396.63,0.25226
5390.84,0.25099
5385.06,0.25280
5379.27,0.25273
5373.48,0.25301
5367.7,0.25403
5361.91,0.25515
5356.13,0.25565
5350.34,0.25581
5344.55,0.25503
5338.77,0.25618
5332.98,0.25571
5327.19,0.25469
5321.41,0.25372
5315.62,0.25365
5309.84,0.25273
5304.05,0.25393
5298.26,0.25299
5292.48,0.25144
5286.69,0.24856
5280.9,0.24606
5275.12,0.24368
5269.33,0.24014
5263.55,0.23883
5257.76,0.23629
5251.97,0.23347
5246.19,0.22927
5240.4,0.22906
5234.61,0.22636
5228.83,0.22398
5223.04,0.22470
5217.26,0.22209
5211.47,0.22119
5205.68,0.22070
5199.9,0.21983
5194.11,0.21925
5188.32,0.21933
5182.54,0.21914
5176.75,0.22002
5170.97,0.22202
5165.18,0.22259
5159.39,0.22314
5153.61,0.22490
5147.82,0.22480
5142.03,0.22735
5136.25,0.22797
5130.46,0.22908
5124.68,0.23016
5118.89,0.23143
5113.1,0.23162
5107.32,0.23350
5101.53,0.23489
5095.75,0.23428
5089.96,0.23557
5084.17,0.23800
5078.39,0.23819
5072.6,0.23873
5066.81,0.24107
5061.03,0.24319
5055.24,0.24307
5049.46,0.24353
5043.67,0.24486
5037.88,0.24575
5032.1,0.24670
5026.31,0.24705
5020.52,0.24852
5014.74,0.24787
5008.95,0.24799
5003.17,0.24992
4997.38,0.25046
4991.59,0.25092
4985.81,0.25118
4980.02,0.25101
4974.23,0.25135
4968.45,0.24932
4962.66,0.24943
4956.88,0.24950
4951.09,0.24808
4945.3,0.24771
4939.52,0.24828
4933.73,0.24702
4927.94,0.24659
4922.16,0.24555
4916.37,0.24334
4910.59,0.24185
4904.8,0.24014
4899.01,0.23772
4893.23,0.23697
4887.44,0.23495
4881.65,0.23353
4875.87,0.23152
4870.08,0.22973
4864.3,0.22809
4858.51,0.22596
4852.72,0.22423
4846.94,0.22319
4841.15,0.22127
4835.36,0.22052
4829.58,0.21782
4823.79,0.21764
4818.01,0.21568
4812.22,0.21493
4806.43,0.21368
4800.65,0.21299
4794.86,0.21201
4789.07,0.21113
4783.29,0.21065
4777.5,0.21053
4771.72,0.20934
4765.93,0.20857
4760.14,0.20835
4754.36,0.20883
4748.57,0.20904
4742.78,0.20851
4737,0.20928
4731.21,0.20951
4725.43,0.20968
4719.64,0.21046
4713.85,0.21088
4708.07,0.21112
4702.28,0.21192
4696.49,0.21325
4690.71,0.21352
4684.92,0.21549
4679.14,0.21545
4673.35,0.21524
4667.56,0.21567
4661.78,0.21613
4655.99,0.21716
4650.2,0.21722
4644.42,0.21884
4638.63,0.21863
4632.85,0.21914
4627.06,0.22029
4621.27,0.22176
4615.49,0.22237
4609.7,0.22335
4603.92,0.22538
4598.13,0.22443
4592.34,0.22588
4586.56,0.22780
4580.77,0.22846
4574.98,0.23026
4569.2,0.23132
4563.41,0.23242
4557.63,0.23308
4551.84,0.23395
4546.05,0.23428
4540.27,0.23445
4534.48,0.23544
4528.69,0.23577
4522.91,0.23575
4517.12,0.23673
4511.34,0.23635
4505.55,0.23564
4499.76,0.23561
4493.98,0.23395
4488.19,0.23311
4482.4,0.23175
4476.62,0.22928
4470.83,0.22648
4465.05,0.22401
4459.26,0.21992
4453.47,0.21647
4447.69,0.21158
4441.9,0.20706
4436.11,0.20091
4430.33,0.19540
4424.54,0.18876
4418.76,0.18249
4412.97,0.17604
4407.18,0.17058
4401.4,0.16506
4395.61,0.16226
4389.82,0.16082
4384.04,0.16086
4378.25,0.16020
4372.47,0.16060
4366.68,0.15907
4360.89,0.15813
4355.11,0.15452
4349.32,0.15013
4343.53,0.14495
4337.75,0.14174
4331.96,0.13817
4326.18,0.13799
4320.39,0.14049
4314.6,0.14406
4308.82,0.14653
4303.03,0.14868
4297.24,0.14986
4291.46,0.15046
4285.67,0.15051
4279.89,0.14901
4274.1,0.14710
4268.31,0.14360
4262.53,0.14199
4256.74,0.14085
4250.95,0.14089
4245.17,0.14405
4239.38,0.14776
4233.6,0.14980
4227.81,0.15167
4222.02,0.15155
4216.24,0.15180
4210.45,0.15259
4204.66,0.15229
4198.88,0.15306
4193.09,0.15339
4187.31,0.15323
4181.52,0.15366
4175.73,0.15391
4169.95,0.15387
4164.16,0.15398
4158.37,0.15369
4152.59,0.15447
4146.8,0.15410
4141.02,0.15567
4135.23,0.15455
4129.44,0.15442
4123.66,0.15465
4117.87,0.15345
4112.09,0.15252
4106.3,0.15225
4100.51,0.15167
4094.73,0.14995
4088.94,0.14871
4083.15,0.14666
4077.37,0.14472
4071.58,0.14214
4065.8,0.14015
4060.01,0.13854
4054.22,0.13758
4048.44,0.13695
4042.65,0.13631
4036.86,0.13655
4031.08,0.13531
4025.29,0.13517
4019.51,0.13613
4013.72,0.13600
4007.93,0.13638
4002.15,0.13701
3996.36,0.13769
3990.57,0.13942
3984.79,0.13974
3979,0.14066
3973.22,0.14186
3967.43,0.14319
3961.64,0.14342
3955.86,0.14532
3950.07,0.14670
3944.28,0.14721
3938.5,0.14919
3932.71,0.15034
3926.93,0.15117
3921.14,0.15259
3915.35,0.15375
3909.57,0.15478
3903.78,0.15543
3897.99,0.15646
3892.21,0.15779
3886.42,0.15871
3880.64,0.15951
3874.85,0.16056
3869.06,0.16234
3863.28,0.16398
3857.49,0.16580
3851.7,0.16733
3845.92,0.16708
3840.13,0.16929
3834.35,0.17012
3828.56,0.16998
3822.77,0.17085
3816.99,0.17113
3811.2,0.17142
3805.41,0.17204
3799.63,0.17219
3793.84,0.17251
3788.06,0.17226
3782.27,0.17287
3776.48,0.17255
3770.7,0.17182
3764.91,0.17223
3759.12,0.17201
3753.34,0.17124
3747.55,0.16979
3741.77,0.16884
3735.98,0.16694
3730.19,0.16521
3724.41,0.16270
3718.62,0.15879
3712.83,0.15396
3707.05,0.14699
3701.26,0.13657
3695.48,0.12791
3689.69,0.12613
3683.9,0.12564
3678.12,0.12105
3672.33,0.11346
3666.54,0.10694
3660.76,0.10148
3654.97,0.09531
3649.19,0.09028
3643.4,0.08655
3637.61,0.08299
3631.83,0.08014
3626.04,0.07601
3620.25,0.07244
3614.47,0.07049
3608.68,0.06863
3602.9,0.06715
3597.11,0.06491
3591.32,0.06329
3585.54,0.06117
3579.75,0.06046
3573.97,0.05842
3568.18,0.05675
3562.39,0.05586
3556.61,0.05503
3550.82,0.05420
3545.03,0.05344
3539.25,0.05235
3533.46,0.05183
3527.68,0.05145
3521.89,0.05067
3516.1,0.04973
3510.32,0.04925
3504.53,0.04873
3498.74,0.04896
3492.96,0.04810
3487.17,0.04779
3481.39,0.04676
3475.6,0.04686
3469.81,0.04666
3464.03,0.04662
3458.24,0.04559
3452.45,0.04622
3446.67,0.04520
3440.88,0.04532
3435.1,0.04489
3429.31,0.04442
3423.52,0.04409
3417.74,0.04447
3411.95,0.04433
3406.16,0.04398
3400.38,0.04372
3394.59,0.04474
3388.81,0.04464
3383.02,0.04445
3377.23,0.04438
3371.45,0.04450
3365.66,0.04364
3359.87,0.04370
3354.09,0.04378
3348.3,0.04401
3342.52,0.04419
3336.73,0.04437
3330.94,0.04462
3325.16,0.04538
3319.37,0.04549
3313.58,0.04510
3307.8,0.04529
3302.01,0.04536
3296.23,0.04569
3290.44,0.04603
3284.65,0.04672
3278.87,0.04685
3273.08,0.04711
3267.29,0.04788
3261.51,0.04817
3255.72,0.04871
3249.94,0.04860
3244.15,0.04921
3238.36,0.04891
3232.58,0.04944
3226.79,0.05009
3221,0.05068
3215.22,0.05112
3209.43,0.05160
3203.65,0.05223
3197.86,0.05297
3192.07,0.05264
3186.29,0.05310
3180.5,0.05381
3174.71,0.05438
3168.93,0.05501
3163.14,0.05474
3157.36,0.05554
3151.57,0.05596
3145.78,0.05672
3140,0.05756
3134.21,0.05795
3128.42,0.05748
3122.64,0.05835
3116.85,0.05843
3111.07,0.05815
3105.28,0.05914
3099.49,0.05907
3093.71,0.05989
3087.92,0.06035
3082.14,0.06008
3076.35,0.05992
3070.56,0.06056
3064.78,0.06046
3058.99,0.06106
3053.2,0.06082
3047.42,0.06098
3041.63,0.06149
3035.85,0.06116
3030.06,0.06098
3024.27,0.06099
3018.49,0.06055
3012.7,0.05948
3006.91,0.05949
3001.13,0.05817
2995.34,0.05736
2989.56,0.05599
2983.77,0.05348
2977.98,0.05107
2972.2,0.04927
2966.41,0.04764
2960.62,0.04798
2954.84,0.04809
2949.05,0.04835
2943.27,0.04759
2937.48,0.04708
2931.69,0.04887
2925.91,0.05082
2920.12,0.05310
2914.33,0.05405
2908.55,0.05348
2902.76,0.05297
2896.98,0.05242
2891.19,0.05224
2885.4,0.05260
2879.62,0.05180
2873.83,0.05174
2868.04,0.05235
2862.26,0.05260
2856.47,0.05352
2850.69,0.05550
2844.9,0.05692
2839.11,0.05858
2833.33,0.06011
2827.54,0.06165
2821.75,0.06311
2815.97,0.06437
2810.18,0.06580
2804.4,0.06718
2798.61,0.06845
2792.82,0.06922
2787.04,0.06969
2781.25,0.07048
2775.46,0.07089
2769.68,0.07140
2763.89,0.07165
2758.11,0.07224
2752.32,0.07221
2746.53,0.07210
2740.75,0.07175
2734.96,0.07199
2729.17,0.07163
2723.39,0.07261
2717.6,0.07347
2711.82,0.07416
2706.03,0.07472
2700.24,0.07586
2694.46,0.07622
2688.67,0.07670
2682.88,0.07712
2677.1,0.07834
2671.31,0.07857
2665.53,0.07950
2659.74,0.08004
2653.95,0.08032
2648.17,0.08109
2642.38,0.08209
2636.59,0.08255
2630.81,0.08327
2625.02,0.08412
2619.24,0.08469
2613.45,0.08548
2607.66,0.08592
2601.88,0.08682
2596.09,0.08749
2590.3,0.08782
2584.52,0.08870
2578.73,0.08934
2572.95,0.09000
2567.16,0.09051
2561.37,0.09133
2555.59,0.09142
2549.8,0.09156
2544.02,0.09165
2538.23,0.09152
2532.44,0.09241
2526.66,0.09275
2520.87,0.09346
2515.08,0.09412
2509.3,0.09478
2503.51,0.09646
2497.73,0.09767
2491.94,0.09889
2486.15,0.10032
2480.37,0.10084
2474.58,0.10188
2468.79,0.10313
2463.01,0.10375
2457.22,0.10468
2451.44,0.10561
2445.65,0.10640
2439.86,0.10694
2434.08,0.10861
2428.29,0.10986
2422.5,0.11079
2416.72,0.11169
2410.93,0.11249
2405.15,0.11377
2399.36,0.11467
2393.57,0.11581
2387.79,0.11681
2382,0.11763
2376.21,0.11866
2370.43,0.11965
2364.64,0.12034
2358.86,0.12115
2353.07,0.12209
2347.28,0.12279
2341.5,0.12352
2335.71,0.12371
2329.92,0.12458
2324.14,0.12503
2318.35,0.12516
2312.57,0.12590
2306.78,0.12600
2300.99,0.12548
2295.21,0.12601
2289.42,0.12594
2283.63,0.12629
2277.85,0.12627
2272.06,0.12558
2266.28,0.12500
2260.49,0.12431
2254.7,0.12342
2248.92,0.12311
2243.13,0.12324
2237.34,0.12317
2231.56,0.12308
2225.77,0.12317
2219.99,0.12377
2214.2,0.12431
2208.41,0.12438
2202.63,0.12433
2196.84,0.12380
2191.05,0.12240
2185.27,0.12107
2179.48,0.12005
2173.7,0.11839
2167.91,0.11685
2162.12,0.11570
2156.34,0.11446
2150.55,0.11392
2144.76,0.11343
2138.98,0.11321
2133.19,0.11354
2127.41,0.11409
2121.62,0.11450
2115.83,0.11567
2110.05,0.11671
2104.26,0.11748
2098.47,0.11829
2092.69,0.11913
2086.9,0.11963
2081.12,0.11981
2075.33,0.11961
2069.54,0.11920
2063.76,0.11877
2057.97,0.11908
2052.19,0.11952
2046.4,0.11967
2040.61,0.12020
2034.83,0.12156
2029.04,0.12336
2023.25,0.12495
2017.47,0.12718
2011.68,0.12945
2005.9,0.13128
2000.11,0.13274
1994.32,0.13383
1988.54,0.13492
1982.75,0.13602
1976.96,0.13670
1971.18,0.13684
1965.39,0.13727
1959.61,0.13724
1953.82,0.13781
1948.03,0.13828
1942.25,0.13828
1936.46,0.13884
1930.67,0.13966
1924.89,0.13993
1919.1,0.13922
1913.32,0.13819
1907.53,0.13805
1901.74,0.13827
1895.96,0.13843
1890.17,0.13871
1884.38,0.13840
1878.6,0.13862
1872.81,0.13850
1867.03,0.13803
1861.24,0.13775
1855.45,0.13704
1849.67,0.13638
1843.88,0.13549
1838.09,0.13419
1832.31,0.13319
1826.52,0.13203
1820.74,0.13055
1814.95,0.12817
1809.16,0.12539
1803.38,0.12109
1797.59,0.11654
1791.8,0.11295
1786.02,0.10992
1780.23,0.10520
1774.45,0.09907
1768.66,0.09069
1762.87,0.08264
1757.09,0.07579
1751.3,0.07110
1745.51,0.06812
1739.73,0.06572
1733.94,0.06536
1728.16,0.06545
1722.37,0.06576
1716.58,0.06622
1710.8,0.06615
1705.01,0.06536
1699.22,0.06432
1693.44,0.06343
1687.65,0.06231
1681.87,0.06022
1676.08,0.05930
1670.29,0.05791
1664.51,0.05666
1658.72,0.05588
1652.93,0.05513
1647.15,0.05506
1641.36,0.05495
1635.58,0.05441
1629.79,0.05374
1624,0.05264
1618.22,0.05247
1612.43,0.05089
1606.64,0.05025
1600.86,0.05033
1595.07,0.05003
1589.29,0.05068
1583.5,0.05198
1577.71,0.05297
1571.93,0.05440
1566.14,0.05502
1560.35,0.05607
1554.57,0.05647
1548.78,0.05771
1543,0.05925
1537.21,0.06006
1531.42,0.06019
1525.64,0.05857
1519.85,0.05509
1514.07,0.05254
1508.28,0.05163
1502.49,0.05174
1496.71,0.05301
1490.92,0.05342
1485.13,0.05201
1479.35,0.05003
1473.56,0.04688
1467.78,0.04452
1461.99,0.04471
1456.2,0.04571
1450.42,0.04644
1444.63,0.04710
1438.84,0.04658
1433.06,0.04643
1427.27,0.04605
1421.49,0.04738
1415.7,0.04846
1409.91,0.04913
1404.13,0.04924
1398.34,0.04908
1392.55,0.04820
1386.77,0.04640
1380.98,0.04461
1375.2,0.04460
1369.41,0.04501
1363.62,0.04552
1357.84,0.04580
1352.05,0.04607
1346.26,0.04615
1340.48,0.04565
1334.69,0.04488
1328.91,0.04518
1323.12,0.04510
1317.33,0.04477
1311.55,0.04582
1305.76,0.04706
1299.97,0.04744
1294.19,0.04759
1288.4,0.04696
1282.62,0.04588
1276.83,0.04566
1271.04,0.04582
1265.26,0.04600
1259.47,0.04636
1253.68,0.04642
1247.9,0.04557
1242.11,0.04544
1236.33,0.04575
1230.54,0.04625
1224.75,0.04728
1218.97,0.04744
1213.18,0.04785
1207.39,0.04734
1201.61,0.04757
1195.82,0.04857
1190.04,0.04902
1184.25,0.04880
1178.46,0.04708
1172.68,0.04514
1166.89,0.04317
1161.1,0.04326
1155.32,0.04271
1149.53,0.04158
1143.75,0.04029
1137.96,0.03919
1132.17,0.03736
1126.39,0.03653
1120.6,0.03666
1114.81,0.03747
1109.03,0.03972
1103.24,0.03989
1097.46,0.03923
1091.67,0.03953
1085.88,0.03909
1080.1,0.04006
1074.31,0.04231
1068.52,0.04735
1062.74,0.05611
1056.95,0.06030
1051.17,0.05995
1045.38,0.05786
1039.59,0.05937
1033.81,0.06517
1028.02,0.06677
1022.24,0.06637
1016.45,0.06574
1010.66,0.06603
1004.88,0.06621
999.09,0.06603
993.304,0.06700
987.518,0.06804
981.731,0.07026
975.945,0.07156
970.159,0.07214
964.373,0.07367
958.586,0.07568
952.8,0.07763
947.014,0.07901
941.228,0.07821
935.441,0.07776
929.655,0.07724
923.869,0.07690
918.083,0.07499
912.297,0.07272
906.51,0.06984
900.724,0.06764
894.938,0.06841
889.152,0.07071
883.365,0.07143
877.579,0.07137
871.793,0.07095
866.007,0.07041
860.22,0.07101
854.434,0.07078
848.648,0.07120
842.862,0.07020
837.075,0.06960
831.289,0.06787
825.503,0.06677
819.717,0.06494
813.931,0.06565
808.144,0.06462
802.358,0.06484
796.572,0.06551
790.786,0.06485
784.999,0.06263
779.213,0.06271
773.427,0.06155
767.641,0.05976
761.854,0.05833
756.068,0.05815
750.282,0.05776
744.496,0.05594
738.709,0.05537
732.923,0.05371
727.137,0.05255
721.351,0.05124
715.565,0.05173
709.778,0.05173
703.992,0.05102
698.206,0.05158
692.42,0.05088
686.633,0.04961
680.847,0.05086
675.061,0.04928
669.275,0.05009
663.488,0.05007
657.702,0.05008
651.916,0.04942
646.13,0.04850
640.343,0.04928
634.557,0.04632
628.771,0.04822
622.985,0.04843
617.198,0.04962
611.412,0.05139
605.626,0.05469
599.84,0.05184