File: 01_Data/Roof_Felt/FTIR/IS/Roof_Felt_IS_S_220829_R8.dpt
7497.03,0.16597
7491.25,0.17245
7485.46,0.16597
7479.67,0.16707
7473.89,0.17349
7468.1,0.16581
7462.32,0.16476
7456.53,0.17428
7450.74,0.16538
7444.96,0.16692
7439.17,0.16669
7433.38,0.16931
7427.6,0.17751
7421.81,0.16249
7416.03,0.17142
7410.24,0.17949
7404.45,0.17508
7398.67,0.18149
7392.88,0.17856
7387.09,0.18330
7381.31,0.16740
7375.52,0.17808
7369.74,0.16614
7363.95,0.17182
7358.16,0.17717
7352.38,0.17727
7346.59,0.17946
7340.8,0.17541
7335.02,0.17533
7329.23,0.17574
7323.45,0.17252
7317.66,0.17654
7311.87,0.16953
7306.09,0.17414
7300.3,0.17439
7294.51,0.18409
7288.73,0.17179
7282.94,0.17920
7277.16,0.17337
7271.37,0.17353
7265.58,0.17341
7259.8,0.17540
7254.01,0.17671
7248.22,0.17276
7242.44,0.17633
7236.65,0.17481
7230.87,0.17478
7225.08,0.17661
7219.29,0.18083
7213.51,0.18635
7207.72,0.17747
7201.93,0.18059
7196.15,0.18064
7190.36,0.17885
7184.58,0.18100
7178.79,0.17896
7173,0.17541
7167.22,0.18026
7161.43,0.17663
7155.65,0.17780
7149.86,0.17599
7144.07,0.18386
7138.29,0.17908
7132.5,0.18769
7126.71,0.18696
7120.93,0.18456
7115.14,0.18072
7109.36,0.17693
7103.57,0.18172
7097.78,0.17879
7092,0.18443
7086.21,0.18323
7080.42,0.18155
7074.64,0.18266
7068.85,0.18032
7063.07,0.17801
7057.28,0.17876
7051.49,0.18060
7045.71,0.18036
7039.92,0.17612
7034.13,0.18481
7028.35,0.17694
7022.56,0.17498
7016.78,0.18030
7010.99,0.17943
7005.2,0.17477
6999.42,0.17656
6993.63,0.18023
6987.84,0.18056
6982.06,0.17565
6976.27,0.18744
6970.49,0.18210
6964.7,0.18634
6958.91,0.17943
6953.13,0.17886
6947.34,0.18398
6941.55,0.18413
6935.77,0.18286
6929.98,0.18500
6924.2,0.18336
6918.41,0.18223
6912.62,0.18322
6906.84,0.18180
6901.05,0.17913
6895.26,0.17800
6889.48,0.18252
6883.69,0.18458
6877.91,0.18594
6872.12,0.18006
6866.33,0.18604
6860.55,0.18193
6854.76,0.17962
6848.97,0.18217
6843.19,0.18151
6837.4,0.18933
6831.62,0.18328
6825.83,0.18661
6820.04,0.18626
6814.26,0.19045
6808.47,0.18559
6802.68,0.18624
6796.9,0.18656
6791.11,0.18922
6785.33,0.18935
6779.54,0.18525
6773.75,0.19127
6767.97,0.19118
6762.18,0.18729
6756.39,0.18471
6750.61,0.18579
6744.82,0.18623
6739.04,0.19138
6733.25,0.18633
6727.46,0.18500
6721.68,0.19245
6715.89,0.18818
6710.1,0.18858
6704.32,0.19291
6698.53,0.19023
6692.75,0.19611
6686.96,0.19207
6681.17,0.18669
6675.39,0.19158
6669.6,0.19100
6663.82,0.19476
6658.03,0.18674
6652.24,0.19677
6646.46,0.19093
6640.67,0.19298
6634.88,0.19671
6629.1,0.19524
6623.31,0.19897
6617.53,0.19315
6611.74,0.19545
6605.95,0.19553
6600.17,0.19299
6594.38,0.19381
6588.59,0.19586
6582.81,0.19743
6577.02,0.19570
6571.24,0.20381
6565.45,0.20050
6559.66,0.20152
6553.88,0.19769
6548.09,0.19970
6542.3,0.19894
6536.52,0.19979
6530.73,0.19981
6524.95,0.20569
6519.16,0.19954
6513.37,0.19986
6507.59,0.20048
6501.8,0.20284
6496.01,0.19827
6490.23,0.20392
6484.44,0.20100
6478.66,0.20388
6472.87,0.20329
6467.08,0.20447
6461.3,0.20229
6455.51,0.20358
6449.72,0.20507
6443.94,0.20677
6438.15,0.20223
6432.37,0.20456
6426.58,0.20594
6420.79,0.20502
6415.01,0.20483
6409.22,0.20584
6403.43,0.20555
6397.65,0.20911
6391.86,0.20895
6386.08,0.20708
6380.29,0.20405
6374.5,0.20636
6368.72,0.20811
6362.93,0.21018
6357.14,0.20730
6351.36,0.20857
6345.57,0.20905
6339.79,0.20975
6334,0.21071
6328.21,0.21161
6322.43,0.21222
6316.64,0.21289
6310.85,0.21180
6305.07,0.21242
6299.28,0.21167
6293.5,0.20944
6287.71,0.21321
6281.92,0.21411
6276.14,0.21588
6270.35,0.21529
6264.56,0.21257
6258.78,0.21563
6252.99,0.21514
6247.21,0.21346
6241.42,0.21615
6235.63,0.21596
6229.85,0.21686
6224.06,0.21936
6218.27,0.21661
6212.49,0.22014
6206.7,0.21958
6200.92,0.21993
6195.13,0.22319
6189.34,0.22134
6183.56,0.22135
6177.77,0.22307
6171.98,0.22186
6166.2,0.22242
6160.41,0.22101
6154.63,0.22485
6148.84,0.22403
6143.05,0.22311
6137.27,0.22419
6131.48,0.22619
6125.7,0.22526
6119.91,0.22248
6114.12,0.22550
6108.34,0.22703
6102.55,0.22501
6096.76,0.22549
6090.98,0.22603
6085.19,0.22687
6079.41,0.22828
6073.62,0.22761
6067.83,0.22749
6062.05,0.22622
6056.26,0.23001
6050.47,0.22669
6044.69,0.22918
6038.9,0.22992
6033.12,0.22724
6027.33,0.22787
6021.54,0.22862
6015.76,0.22809
6009.97,0.22883
6004.18,0.22747
5998.4,0.22486
5992.61,0.22412
5986.83,0.22836
5981.04,0.22462
5975.25,0.22741
5969.47,0.22415
5963.68,0.22206
5957.89,0.22142
5952.11,0.22337
5946.32,0.22285
5940.54,0.22285
5934.75,0.21993
5928.96,0.22215
5923.18,0.21948
5917.39,0.22224
5911.6,0.21739
5905.82,0.21813
5900.03,0.21510
5894.25,0.21517
5888.46,0.21436
5882.67,0.21578
5876.89,0.21466
5871.1,0.21340
5865.31,0.21272
5859.53,0.21115
5853.74,0.21037
5847.96,0.21130
5842.17,0.20787
5836.38,0.21242
5830.6,0.20951
5824.81,0.20934
5819.02,0.20696
5813.24,0.20946
5807.45,0.20815
5801.67,0.20693
5795.88,0.20738
5790.09,0.20670
5784.31,0.20865
5778.52,0.20907
5772.73,0.20895
5766.95,0.21042
5761.16,0.21193
5755.38,0.21579
5749.59,0.21918
5743.8,0.21895
5738.02,0.22138
5732.23,0.22072
5726.44,0.22068
5720.66,0.22093
5714.87,0.22254
5709.09,0.22008
5703.3,0.21874
5697.51,0.22149
5691.73,0.21975
5685.94,0.21828
5680.15,0.22119
5674.37,0.22023
5668.58,0.22159
5662.8,0.22204
5657.01,0.22222
5651.22,0.22195
5645.44,0.22348
5639.65,0.22509
5633.87,0.22662
5628.08,0.22944
5622.29,0.22886
5616.51,0.23006
5610.72,0.23284
5604.93,0.23247
5599.15,0.23338
5593.36,0.23589
5587.58,0.23528
5581.79,0.23555
5576,0.23676
5570.22,0.23772
5564.43,0.23869
5558.64,0.23804
5552.86,0.23861
5547.07,0.24022
5541.29,0.24005
5535.5,0.23940
5529.71,0.23998
5523.93,0.24100
5518.14,0.23941
5512.35,0.24009
5506.57,0.24152
5500.78,0.24279
5495,0.24262
5489.21,0.24197
5483.42,0.24215
5477.64,0.24387
5471.85,0.24474
5466.06,0.24200
5460.28,0.24500
5454.49,0.24570
5448.71,0.24534
5442.92,0.24523
5437.13,0.24726
5431.35,0.24607
5425.56,0.24940
5419.77,0.24938
5413.99,0.25025
5408.2,0.25092
5402.42,0.25099
5396.63,0.25112
5390.84,0.25199
5385.06,0.25343
5379.27,0.25444
5373.48,0.25243
5367.7,0.25271
5361.91,0.25454
5356.13,0.25468
5350.34,0.25600
5344.55,0.25671
5338.77,0.25572
5332.98,0.25667
5327.19,0.25696
5321.41,0.25569
5315.62,0.25384
5309.84,0.25379
5304.05,0.25289
5298.26,0.25233
5292.48,0.25320
5286.69,0.25010
5280.9,0.24816
5275.12,0.24762
5269.33,0.24432
5263.55,0.24287
5257.76,0.23990
5251.97,0.23899
5246.19,0.23654
5240.4,0.23246
5234.61,0.23162
5228.83,0.23120
5223.04,0.23065
5217.26,0.22880
5211.47,0.22891
5205.68,0.22787
5199.9,0.22844
5194.11,0.22758
5188.32,0.22768
5182.54,0.22878
5176.75,0.22819
5170.97,0.22836
5165.18,0.22972
5159.39,0.23086
5153.61,0.23110
5147.82,0.23126
5142.03,0.23268
5136.25,0.23499
5130.46,0.23568
5124.68,0.23593
5118.89,0.23827
5113.1,0.23993
5107.32,0.24003
5101.53,0.24114
5095.75,0.24153
5089.96,0.24308
5084.17,0.24440
5078.39,0.24377
5072.6,0.24455
5066.81,0.24646
5061.03,0.24846
5055.24,0.24769
5049.46,0.24954
5043.67,0.25134
5037.88,0.25130
5032.1,0.25067
5026.31,0.25147
5020.52,0.25267
5014.74,0.25357
5008.95,0.25166
5003.17,0.25349
4997.38,0.25375
4991.59,0.25444
4985.81,0.25485
4980.02,0.25347
4974.23,0.25215
4968.45,0.25402
4962.66,0.25257
4956.88,0.25312
4951.09,0.25244
4945.3,0.25171
4939.52,0.24968
4933.73,0.24924
4927.94,0.24770
4922.16,0.24579
4916.37,0.24522
4910.59,0.24352
4904.8,0.24191
4899.01,0.23942
4893.23,0.23711
4887.44,0.23528
4881.65,0.23384
4875.87,0.23227
4870.08,0.23089
4864.3,0.22788
4858.51,0.22646
4852.72,0.22593
4846.94,0.22365
4841.15,0.22180
4835.36,0.22020
4829.58,0.21806
4823.79,0.21697
4818.01,0.21594
4812.22,0.21540
4806.43,0.21413
4800.65,0.21243
4794.86,0.21152
4789.07,0.21134
4783.29,0.21079
4777.5,0.20932
4771.72,0.20862
4765.93,0.21006
4760.14,0.20904
4754.36,0.20920
4748.57,0.20903
4742.78,0.20941
4737,0.20933
4731.21,0.20933
4725.43,0.21062
4719.64,0.21110
4713.85,0.21145
4708.07,0.21151
4702.28,0.21242
4696.49,0.21333
4690.71,0.21399
4684.92,0.21492
4679.14,0.21570
4673.35,0.21577
4667.56,0.21700
4661.78,0.21731
4655.99,0.21684
4650.2,0.21758
4644.42,0.21960
4638.63,0.21938
4632.85,0.21968
4627.06,0.21989
4621.27,0.22204
4615.49,0.22298
4609.7,0.22402
4603.92,0.22437
4598.13,0.22559
4592.34,0.22581
4586.56,0.22859
4580.77,0.22960
4574.98,0.23062
4569.2,0.23172
4563.41,0.23328
4557.63,0.23512
4551.84,0.23473
4546.05,0.23469
4540.27,0.23589
4534.48,0.23552
4528.69,0.23558
4522.91,0.23650
4517.12,0.23632
4511.34,0.23585
4505.55,0.23620
4499.76,0.23599
4493.98,0.23482
4488.19,0.23329
4482.4,0.23221
4476.62,0.22997
4470.83,0.22702
4465.05,0.22347
4459.26,0.22020
4453.47,0.21692
4447.69,0.21181
4441.9,0.20671
4436.11,0.20106
4430.33,0.19559
4424.54,0.18845
4418.76,0.18221
4412.97,0.17626
4407.18,0.17036
4401.4,0.16625
4395.61,0.16242
4389.82,0.16112
4384.04,0.16117
4378.25,0.16046
4372.47,0.16068
4366.68,0.15936
4360.89,0.15726
4355.11,0.15459
4349.32,0.15009
4343.53,0.14475
4337.75,0.14048
4331.96,0.13767
4326.18,0.13762
4320.39,0.14037
4314.6,0.14379
4308.82,0.14591
4303.03,0.14759
4297.24,0.14868
4291.46,0.15041
4285.67,0.15005
4279.89,0.14843
4274.1,0.14678
4268.31,0.14386
4262.53,0.14076
4256.74,0.14052
4250.95,0.14164
4245.17,0.14459
4239.38,0.14791
4233.6,0.15028
4227.81,0.15079
4222.02,0.15139
4216.24,0.15189
4210.45,0.15317
4204.66,0.15297
4198.88,0.15408
4193.09,0.15386
4187.31,0.15330
4181.52,0.15378
4175.73,0.15403
4169.95,0.15373
4164.16,0.15418
4158.37,0.15404
4152.59,0.15524
4146.8,0.15524
4141.02,0.15532
4135.23,0.15540
4129.44,0.15572
4123.66,0.15551
4117.87,0.15406
4112.09,0.15322
4106.3,0.15301
4100.51,0.15157
4094.73,0.15079
4088.94,0.14842
4083.15,0.14657
4077.37,0.14441
4071.58,0.14228
4065.8,0.14079
4060.01,0.13949
4054.22,0.13822
4048.44,0.13756
4042.65,0.13726
4036.86,0.13669
4031.08,0.13622
4025.29,0.13562
4019.51,0.13559
4013.72,0.13599
4007.93,0.13706
4002.15,0.13822
3996.36,0.13935
3990.57,0.13958
3984.79,0.14100
3979,0.14195
3973.22,0.14207
3967.43,0.14366
3961.64,0.14533
3955.86,0.14618
3950.07,0.14774
3944.28,0.14853
3938.5,0.14980
3932.71,0.15113
3926.93,0.15294
3921.14,0.15344
3915.35,0.15473
3909.57,0.15599
3903.78,0.15730
3897.99,0.15851
3892.21,0.16009
3886.42,0.16032
3880.64,0.16134
3874.85,0.16185
3869.06,0.16394
3863.28,0.16580
3857.49,0.16719
3851.7,0.16936
3845.92,0.16980
3840.13,0.17053
3834.35,0.17198
3828.56,0.17285
3822.77,0.17297
3816.99,0.17380
3811.2,0.17325
3805.41,0.17333
3799.63,0.17472
3793.84,0.17480
3788.06,0.17550
3782.27,0.17564
3776.48,0.17580
3770.7,0.17584
3764.91,0.17527
3759.12,0.17496
3753.34,0.17464
3747.55,0.17379
3741.77,0.17272
3735.98,0.17169
3730.19,0.16955
3724.41,0.16723
3718.62,0.16335
3712.83,0.15866
3707.05,0.15119
3701.26,0.14069
3695.48,0.13109
3689.69,0.13047
3683.9,0.13035
3678.12,0.12667
3672.33,0.12039
3666.54,0.11324
3660.76,0.10731
3654.97,0.10048
3649.19,0.09607
3643.4,0.09230
3637.61,0.08822
3631.83,0.08463
3626.04,0.08041
3620.25,0.07698
3614.47,0.07417
3608.68,0.07173
3602.9,0.06972
3597.11,0.06752
3591.32,0.06570
3585.54,0.06326
3579.75,0.06063
3573.97,0.05979
3568.18,0.05830
3562.39,0.05666
3556.61,0.05619
3550.82,0.05497
3545.03,0.05376
3539.25,0.05328
3533.46,0.05207
3527.68,0.05158
3521.89,0.05096
3516.1,0.04982
3510.32,0.04895
3504.53,0.04886
3498.74,0.04906
3492.96,0.04820
3487.17,0.04712
3481.39,0.04687
3475.6,0.04626
3469.81,0.04609
3464.03,0.04558
3458.24,0.04519
3452.45,0.04573
3446.67,0.04498
3440.88,0.04499
3435.1,0.04526
3429.31,0.04488
3423.52,0.04479
3417.74,0.04444
3411.95,0.04353
3406.16,0.04430
3400.38,0.04467
3394.59,0.04408
3388.81,0.04381
3383.02,0.04412
3377.23,0.04445
3371.45,0.04334
3365.66,0.04441
3359.87,0.04431
3354.09,0.04413
3348.3,0.04452
3342.52,0.04492
3336.73,0.04517
3330.94,0.04467
3325.16,0.04582
3319.37,0.04510
3313.58,0.04525
3307.8,0.04500
3302.01,0.04627
3296.23,0.04553
3290.44,0.04559
3284.65,0.04688
3278.87,0.04630
3273.08,0.04692
3267.29,0.04744
3261.51,0.04786
3255.72,0.04823
3249.94,0.04926
3244.15,0.04973
3238.36,0.05008
3232.58,0.05087
3226.79,0.05112
3221,0.05118
3215.22,0.05135
3209.43,0.05151
3203.65,0.05244
3197.86,0.05306
3192.07,0.05317
3186.29,0.05401
3180.5,0.05444
3174.71,0.05454
3168.93,0.05508
3163.14,0.05612
3157.36,0.05593
3151.57,0.05651
3145.78,0.05679
3140,0.05719
3134.21,0.05784
3128.42,0.05796
3122.64,0.05883
3116.85,0.05912
3111.07,0.06013
3105.28,0.06060
3099.49,0.06059
3093.71,0.06020
3087.92,0.06098
3082.14,0.06138
3076.35,0.06116
3070.56,0.06156
3064.78,0.06176
3058.99,0.06170
3053.2,0.06127
3047.42,0.06163
3041.63,0.06224
3035.85,0.06228
3030.06,0.06180
3024.27,0.06138
3018.49,0.06039
3012.7,0.06069
3006.91,0.05937
3001.13,0.05872
2995.34,0.05807
2989.56,0.05612
2983.77,0.05376
2977.98,0.05138
2972.2,0.04882
2966.41,0.04771
2960.62,0.04751
2954.84,0.04801
2949.05,0.04805
2943.27,0.04744
2937.48,0.04680
2931.69,0.04872
2925.91,0.05057
2920.12,0.05297
2914.33,0.05403
2908.55,0.05335
2902.76,0.05312
2896.98,0.05301
2891.19,0.05268
2885.4,0.05308
2879.62,0.05222
2873.83,0.05218
2868.04,0.05170
2862.26,0.05253
2856.47,0.05318
2850.69,0.05505
2844.9,0.05750
2839.11,0.05843
2833.33,0.05972
2827.54,0.06153
2821.75,0.06325
2815.97,0.06481
2810.18,0.06605
2804.4,0.06703
2798.61,0.06818
2792.82,0.06932
2787.04,0.07008
2781.25,0.07081
2775.46,0.07123
2769.68,0.07210
2763.89,0.07235
2758.11,0.07252
2752.32,0.07246
2746.53,0.07275
2740.75,0.07265
2734.96,0.07237
2729.17,0.07252
2723.39,0.07245
2717.6,0.07374
2711.82,0.07430
2706.03,0.07520
2700.24,0.07583
2694.46,0.07671
2688.67,0.07719
2682.88,0.07780
2677.1,0.07837
2671.31,0.07904
2665.53,0.07948
2659.74,0.08020
2653.95,0.08091
2648.17,0.08146
2642.38,0.08258
2636.59,0.08291
2630.81,0.08380
2625.02,0.08448
2619.24,0.08524
2613.45,0.08575
2607.66,0.08641
2601.88,0.08712
2596.09,0.08770
2590.3,0.08851
2584.52,0.08873
2578.73,0.08954
2572.95,0.08993
2567.16,0.09069
2561.37,0.09071
2555.59,0.09111
2549.8,0.09163
2544.02,0.09197
2538.23,0.09234
2532.44,0.09284
2526.66,0.09336
2520.87,0.09411
2515.08,0.09386
2509.3,0.09521
2503.51,0.09682
2497.73,0.09801
2491.94,0.09902
2486.15,0.10041
2480.37,0.10137
2474.58,0.10259
2468.79,0.10367
2463.01,0.10457
2457.22,0.10504
2451.44,0.10618
2445.65,0.10697
2439.86,0.10833
2434.08,0.10917
2428.29,0.11038
2422.5,0.11145
2416.72,0.11247
2410.93,0.11335
2405.15,0.11454
2399.36,0.11574
2393.57,0.11678
2387.79,0.11791
2382,0.11870
2376.21,0.11982
2370.43,0.12053
2364.64,0.12175
2358.86,0.12204
2353.07,0.12337
2347.28,0.12426
2341.5,0.12490
2335.71,0.12554
2329.92,0.12601
2324.14,0.12667
2318.35,0.12742
2312.57,0.12792
2306.78,0.12744
2300.99,0.12761
2295.21,0.12808
2289.42,0.12801
2283.63,0.12798
2277.85,0.12842
2272.06,0.12788
2266.28,0.12737
2260.49,0.12662
2254.7,0.12648
2248.92,0.12593
2243.13,0.12554
2237.34,0.12543
2231.56,0.12547
2225.77,0.12581
2219.99,0.12666
2214.2,0.12737
2208.41,0.12703
2202.63,0.12713
2196.84,0.12647
2191.05,0.12563
2185.27,0.12408
2179.48,0.12315
2173.7,0.12127
2167.91,0.11951
2162.12,0.11789
2156.34,0.11739
2150.55,0.11639
2144.76,0.11625
2138.98,0.11592
2133.19,0.11620
2127.41,0.11673
2121.62,0.11744
2115.83,0.11825
2110.05,0.11915
2104.26,0.12054
2098.47,0.12142
2092.69,0.12218
2086.9,0.12253
2081.12,0.12315
2075.33,0.12294
2069.54,0.12200
2063.76,0.12182
2057.97,0.12206
2052.19,0.12188
2046.4,0.12222
2040.61,0.12346
2034.83,0.12463
2029.04,0.12610
2023.25,0.12794
2017.47,0.13023
2011.68,0.13258
2005.9,0.13466
2000.11,0.13582
1994.32,0.13668
1988.54,0.13817
1982.75,0.13936
1976.96,0.13983
1971.18,0.14010
1965.39,0.14022
1959.61,0.14029
1953.82,0.14042
1948.03,0.14085
1942.25,0.14159
1936.46,0.14191
1930.67,0.14244
1924.89,0.14250
1919.1,0.14200
1913.32,0.14122
1907.53,0.14078
1901.74,0.14061
1895.96,0.14093
1890.17,0.14081
1884.38,0.14108
1878.6,0.14129
1872.81,0.14089
1867.03,0.14061
1861.24,0.14018
1855.45,0.13961
1849.67,0.13889
1843.88,0.13767
1838.09,0.13666
1832.31,0.13560
1826.52,0.13436
1820.74,0.13261
1814.95,0.13011
1809.16,0.12762
1803.38,0.12333
1797.59,0.11824
1791.8,0.11460
1786.02,0.11119
1780.23,0.10605
1774.45,0.09927
1768.66,0.09105
1762.87,0.08277
1757.09,0.07568
1751.3,0.07059
1745.51,0.06766
1739.73,0.06610
1733.94,0.06560
1728.16,0.06597
1722.37,0.06651
1716.58,0.06711
1710.8,0.06707
1705.01,0.06649
1699.22,0.06527
1693.44,0.06423
1687.65,0.06362
1681.87,0.06183
1676.08,0.06017
1670.29,0.05889
1664.51,0.05757
1658.72,0.05693
1652.93,0.05649
1647.15,0.05604
1641.36,0.05554
1635.58,0.05502
1629.79,0.05441
1624,0.05358
1618.22,0.05212
1612.43,0.05131
1606.64,0.05050
1600.86,0.05024
1595.07,0.04992
1589.29,0.05068
1583.5,0.05207
1577.71,0.05278
1571.93,0.05444
1566.14,0.05520
1560.35,0.05629
1554.57,0.05691
1548.78,0.05869
1543,0.05977
1537.21,0.05995
1531.42,0.06031
1525.64,0.05914
1519.85,0.05520
1514.07,0.05231
1508.28,0.05156
1502.49,0.05232
1496.71,0.05321
1490.92,0.05342
1485.13,0.05198
1479.35,0.04964
1473.56,0.04692
1467.78,0.04469
1461.99,0.04460
1456.2,0.04609
1450.42,0.04625
1444.63,0.04662
1438.84,0.04658
1433.06,0.04621
1427.27,0.04609
1421.49,0.04692
1415.7,0.04796
1409.91,0.04902
1404.13,0.04884
1398.34,0.04869
1392.55,0.04805
1386.77,0.04618
1380.98,0.04463
1375.2,0.04446
1369.41,0.04487
1363.62,0.04545
1357.84,0.04595
1352.05,0.04646
1346.26,0.04606
1340.48,0.04538
1334.69,0.04518
1328.91,0.04498
1323.12,0.04504
1317.33,0.04483
1311.55,0.04556
1305.76,0.04690
1299.97,0.04785
1294.19,0.04702
1288.4,0.04679
1282.62,0.04571
1276.83,0.04571
1271.04,0.04573
1265.26,0.04629
1259.47,0.04586
1253.68,0.04615
1247.9,0.04578
1242.11,0.04623
1236.33,0.04584
1230.54,0.04615
1224.75,0.04679
1218.97,0.04707
1213.18,0.04746
1207.39,0.04712
1201.61,0.04755
1195.82,0.04818
1190.04,0.04877
1184.25,0.04859
1178.46,0.04750
1172.68,0.04528
1166.89,0.04325
1161.1,0.04344
1155.32,0.04323
1149.53,0.04117
1143.75,0.04068
1137.96,0.03888
1132.17,0.03727
1126.39,0.03627
1120.6,0.03720
1114.81,0.03824
1109.03,0.03926
1103.24,0.03974
1097.46,0.03975
1091.67,0.03905
1085.88,0.03943
1080.1,0.04039
1074.31,0.04344
1068.52,0.04841
1062.74,0.05567
1056.95,0.06050
1051.17,0.05930
1045.38,0.05765
1039.59,0.06025
1033.81,0.06526
1028.02,0.06729
1022.24,0.06604
1016.45,0.06568
1010.66,0.06629
1004.88,0.06592
999.09,0.06599
993.304,0.06707
987.518,0.06831
981.731,0.07052
975.945,0.07125
970.159,0.07269
964.373,0.07328
958.586,0.07587
952.8,0.07810
947.014,0.07910
941.228,0.07865
935.441,0.07834
929.655,0.07830
923.869,0.07696
918.083,0.07533
912.297,0.07306
906.51,0.07041
900.724,0.06836
894.938,0.06799
889.152,0.07032
883.365,0.07182
877.579,0.07081
871.793,0.07141
866.007,0.07133
860.22,0.07234
854.434,0.07243
848.648,0.07173
842.862,0.07136
837.075,0.07043
831.289,0.06883
825.503,0.06787
819.717,0.06731
813.931,0.06619
808.144,0.06523
802.358,0.06656
796.572,0.06625
790.786,0.06504
784.999,0.06465
779.213,0.06460
773.427,0.06251
767.641,0.06112
761.854,0.05921
756.068,0.05888
750.282,0.05778
744.496,0.05701
738.709,0.05617
732.923,0.05476
727.137,0.05300
721.351,0.05297
715.565,0.05319
709.778,0.05272
703.992,0.05144
698.206,0.05174
692.42,0.05131
686.633,0.05235
680.847,0.05067
675.061,0.04915
669.275,0.04946
663.488,0.04893
657.702,0.05020
651.916,0.05072
646.13,0.04947
640.343,0.04801
634.557,0.04664
628.771,0.04895
622.985,0.04792
617.198,0.05008
611.412,0.04948
605.626,0.05270
599.84,0.05226