File: 01_Data/Roof_Felt/FTIR/IS/Roof_Felt_IS_S_220829_R4.dpt
7497.03,0.15986
7491.25,0.16595
7485.46,0.15782
7479.67,0.17590
7473.89,0.16584
7468.1,0.17250
7462.32,0.17354
7456.53,0.16803
7450.74,0.17648
7444.96,0.17465
7439.17,0.17881
7433.38,0.16539
7427.6,0.17016
7421.81,0.17137
7416.03,0.17497
7410.24,0.17191
7404.45,0.18006
7398.67,0.17413
7392.88,0.16745
7387.09,0.18345
7381.31,0.17889
7375.52,0.17672
7369.74,0.17466
7363.95,0.17668
7358.16,0.17888
7352.38,0.17658
7346.59,0.18222
7340.8,0.17130
7335.02,0.17247
7329.23,0.18005
7323.45,0.17281
7317.66,0.17528
7311.87,0.17922
7306.09,0.18234
7300.3,0.18200
7294.51,0.17767
7288.73,0.17773
7282.94,0.17568
7277.16,0.17342
7271.37,0.17050
7265.58,0.17554
7259.8,0.17394
7254.01,0.17572
7248.22,0.17310
7242.44,0.17641
7236.65,0.18290
7230.87,0.17773
7225.08,0.17192
7219.29,0.18401
7213.51,0.17231
7207.72,0.17483
7201.93,0.17654
7196.15,0.17564
7190.36,0.17562
7184.58,0.17461
7178.79,0.18000
7173,0.18343
7167.22,0.17741
7161.43,0.18426
7155.65,0.17543
7149.86,0.17919
7144.07,0.17972
7138.29,0.17729
7132.5,0.17870
7126.71,0.18168
7120.93,0.18044
7115.14,0.17550
7109.36,0.17484
7103.57,0.17713
7097.78,0.18383
7092,0.18027
7086.21,0.18276
7080.42,0.17930
7074.64,0.18646
7068.85,0.17915
7063.07,0.18335
7057.28,0.18161
7051.49,0.17897
7045.71,0.18270
7039.92,0.18206
7034.13,0.18106
7028.35,0.17707
7022.56,0.17660
7016.78,0.18376
7010.99,0.18042
7005.2,0.17751
6999.42,0.18355
6993.63,0.18544
6987.84,0.18621
6982.06,0.18024
6976.27,0.18228
6970.49,0.17954
6964.7,0.18026
6958.91,0.17763
6953.13,0.18107
6947.34,0.17758
6941.55,0.18463
6935.77,0.18424
6929.98,0.17960
6924.2,0.18299
6918.41,0.18601
6912.62,0.18587
6906.84,0.18328
6901.05,0.18318
6895.26,0.18479
6889.48,0.18328
6883.69,0.18320
6877.91,0.18685
6872.12,0.18630
6866.33,0.18535
6860.55,0.18560
6854.76,0.18585
6848.97,0.18527
6843.19,0.18652
6837.4,0.18689
6831.62,0.19202
6825.83,0.18574
6820.04,0.18737
6814.26,0.18626
6808.47,0.18889
6802.68,0.19084
6796.9,0.18353
6791.11,0.18886
6785.33,0.18986
6779.54,0.18699
6773.75,0.18528
6767.97,0.18957
6762.18,0.18919
6756.39,0.18358
6750.61,0.18950
6744.82,0.19156
6739.04,0.19167
6733.25,0.19286
6727.46,0.19041
6721.68,0.18910
6715.89,0.19000
6710.1,0.18969
6704.32,0.19329
6698.53,0.19150
6692.75,0.19120
6686.96,0.18940
6681.17,0.19079
6675.39,0.18790
6669.6,0.19486
6663.82,0.19226
6658.03,0.19552
6652.24,0.19399
6646.46,0.18975
6640.67,0.19486
6634.88,0.19907
6629.1,0.19223
6623.31,0.19327
6617.53,0.19490
6611.74,0.19518
6605.95,0.19713
6600.17,0.19427
6594.38,0.19390
6588.59,0.19657
6582.81,0.19775
6577.02,0.19532
6571.24,0.19531
6565.45,0.19617
6559.66,0.19580
6553.88,0.19665
6548.09,0.19869
6542.3,0.19789
6536.52,0.20006
6530.73,0.19872
6524.95,0.19844
6519.16,0.20094
6513.37,0.19944
6507.59,0.20227
6501.8,0.20120
6496.01,0.20187
6490.23,0.20111
6484.44,0.20115
6478.66,0.19978
6472.87,0.20036
6467.08,0.20158
6461.3,0.20231
6455.51,0.20698
6449.72,0.19885
6443.94,0.20179
6438.15,0.20486
6432.37,0.20466
6426.58,0.20350
6420.79,0.20530
6415.01,0.20645
6409.22,0.20719
6403.43,0.20482
6397.65,0.20992
6391.86,0.20527
6386.08,0.20725
6380.29,0.20685
6374.5,0.21017
6368.72,0.20751
6362.93,0.20605
6357.14,0.20582
6351.36,0.21057
6345.57,0.21249
6339.79,0.20959
6334,0.21329
6328.21,0.20940
6322.43,0.21034
6316.64,0.20828
6310.85,0.20735
6305.07,0.21063
6299.28,0.20964
6293.5,0.21058
6287.71,0.21093
6281.92,0.21321
6276.14,0.21250
6270.35,0.21385
6264.56,0.21481
6258.78,0.21714
6252.99,0.21565
6247.21,0.21549
6241.42,0.21730
6235.63,0.21798
6229.85,0.21856
6224.06,0.21885
6218.27,0.21877
6212.49,0.21874
6206.7,0.21925
6200.92,0.21814
6195.13,0.22157
6189.34,0.22354
6183.56,0.21992
6177.77,0.22118
6171.98,0.22431
6166.2,0.22319
6160.41,0.22120
6154.63,0.22472
6148.84,0.21994
6143.05,0.22585
6137.27,0.22339
6131.48,0.22311
6125.7,0.22378
6119.91,0.22588
6114.12,0.22340
6108.34,0.22443
6102.55,0.22570
6096.76,0.22679
6090.98,0.22635
6085.19,0.22482
6079.41,0.22541
6073.62,0.22818
6067.83,0.22957
6062.05,0.22756
6056.26,0.22718
6050.47,0.22880
6044.69,0.22837
6038.9,0.22808
6033.12,0.22954
6027.33,0.23023
6021.54,0.22843
6015.76,0.23065
6009.97,0.22773
6004.18,0.22682
5998.4,0.22847
5992.61,0.22585
5986.83,0.22614
5981.04,0.22806
5975.25,0.22328
5969.47,0.22305
5963.68,0.22516
5957.89,0.22660
5952.11,0.22505
5946.32,0.22559
5940.54,0.22387
5934.75,0.22368
5928.96,0.22246
5923.18,0.22181
5917.39,0.21992
5911.6,0.21763
5905.82,0.21853
5900.03,0.21498
5894.25,0.21530
5888.46,0.21675
5882.67,0.21777
5876.89,0.21493
5871.1,0.21350
5865.31,0.21127
5859.53,0.21110
5853.74,0.21034
5847.96,0.21157
5842.17,0.21080
5836.38,0.21232
5830.6,0.21185
5824.81,0.20948
5819.02,0.21102
5813.24,0.20938
5807.45,0.20695
5801.67,0.20696
5795.88,0.20749
5790.09,0.20836
5784.31,0.20815
5778.52,0.20820
5772.73,0.20838
5766.95,0.21149
5761.16,0.21302
5755.38,0.21452
5749.59,0.21620
5743.8,0.21789
5738.02,0.21914
5732.23,0.21863
5726.44,0.21993
5720.66,0.22212
5714.87,0.22044
5709.09,0.21932
5703.3,0.21879
5697.51,0.22063
5691.73,0.22068
5685.94,0.21977
5680.15,0.21816
5674.37,0.22047
5668.58,0.22030
5662.8,0.22054
5657.01,0.22068
5651.22,0.22382
5645.44,0.22507
5639.65,0.22364
5633.87,0.22528
5628.08,0.22565
5622.29,0.22862
5616.51,0.23058
5610.72,0.22991
5604.93,0.23141
5599.15,0.23265
5593.36,0.23460
5587.58,0.23431
5581.79,0.23603
5576,0.23678
5570.22,0.23714
5564.43,0.23701
5558.64,0.23809
5552.86,0.23890
5547.07,0.23697
5541.29,0.23993
5535.5,0.23993
5529.71,0.24018
5523.93,0.24062
5518.14,0.23976
5512.35,0.24009
5506.57,0.24029
5500.78,0.24064
5495,0.24310
5489.21,0.24162
5483.42,0.24108
5477.64,0.24369
5471.85,0.24331
5466.06,0.24369
5460.28,0.24482
5454.49,0.24623
5448.71,0.24596
5442.92,0.24499
5437.13,0.24657
5431.35,0.24868
5425.56,0.24895
5419.77,0.24908
5413.99,0.24874
5408.2,0.24924
5402.42,0.25130
5396.63,0.25191
5390.84,0.25300
5385.06,0.25194
5379.27,0.25438
5373.48,0.25466
5367.7,0.25545
5361.91,0.25464
5356.13,0.25383
5350.34,0.25522
5344.55,0.25625
5338.77,0.25552
5332.98,0.25410
5327.19,0.25515
5321.41,0.25574
5315.62,0.25479
5309.84,0.25282
5304.05,0.25377
5298.26,0.25304
5292.48,0.25153
5286.69,0.25053
5280.9,0.24858
5275.12,0.24517
5269.33,0.24280
5263.55,0.24057
5257.76,0.23798
5251.97,0.23628
5246.19,0.23309
5240.4,0.23380
5234.61,0.23036
5228.83,0.22678
5223.04,0.22698
5217.26,0.22600
5211.47,0.22463
5205.68,0.22370
5199.9,0.22559
5194.11,0.22461
5188.32,0.22461
5182.54,0.22426
5176.75,0.22585
5170.97,0.22630
5165.18,0.22568
5159.39,0.22702
5153.61,0.22864
5147.82,0.23056
5142.03,0.23113
5136.25,0.23139
5130.46,0.23469
5124.68,0.23490
5118.89,0.23503
5113.1,0.23637
5107.32,0.23574
5101.53,0.23741
5095.75,0.23881
5089.96,0.23966
5084.17,0.24157
5078.39,0.24133
5072.6,0.24223
5066.81,0.24379
5061.03,0.24676
5055.24,0.24813
5049.46,0.24734
5043.67,0.24872
5037.88,0.24941
5032.1,0.25055
5026.31,0.24972
5020.52,0.25200
5014.74,0.25307
5008.95,0.25100
5003.17,0.25194
4997.38,0.25114
4991.59,0.25139
4985.81,0.25213
4980.02,0.25249
4974.23,0.25268
4968.45,0.25129
4962.66,0.25248
4956.88,0.25074
4951.09,0.25057
4945.3,0.25098
4939.52,0.24867
4933.73,0.24754
4927.94,0.24681
4922.16,0.24533
4916.37,0.24355
4910.59,0.24195
4904.8,0.24073
4899.01,0.23888
4893.23,0.23660
4887.44,0.23517
4881.65,0.23357
4875.87,0.23178
4870.08,0.22888
4864.3,0.22784
4858.51,0.22719
4852.72,0.22582
4846.94,0.22293
4841.15,0.22133
4835.36,0.22033
4829.58,0.21853
4823.79,0.21752
4818.01,0.21601
4812.22,0.21485
4806.43,0.21400
4800.65,0.21313
4794.86,0.21225
4789.07,0.21240
4783.29,0.21107
4777.5,0.21129
4771.72,0.20966
4765.93,0.20899
4760.14,0.20904
4754.36,0.20822
4748.57,0.20781
4742.78,0.20872
4737,0.20944
4731.21,0.20974
4725.43,0.21046
4719.64,0.21121
4713.85,0.21134
4708.07,0.21200
4702.28,0.21164
4696.49,0.21347
4690.71,0.21401
4684.92,0.21426
4679.14,0.21470
4673.35,0.21480
4667.56,0.21619
4661.78,0.21705
4655.99,0.21745
4650.2,0.21828
4644.42,0.21908
4638.63,0.21924
4632.85,0.22063
4627.06,0.22059
4621.27,0.22032
4615.49,0.22221
4609.7,0.22259
4603.92,0.22485
4598.13,0.22529
4592.34,0.22662
4586.56,0.22852
4580.77,0.22851
4574.98,0.23061
4569.2,0.23104
4563.41,0.23248
4557.63,0.23358
4551.84,0.23447
4546.05,0.23530
4540.27,0.23563
4534.48,0.23596
4528.69,0.23560
4522.91,0.23591
4517.12,0.23639
4511.34,0.23573
4505.55,0.23533
4499.76,0.23556
4493.98,0.23459
4488.19,0.23277
4482.4,0.23126
4476.62,0.22920
4470.83,0.22637
4465.05,0.22349
4459.26,0.22012
4453.47,0.21551
4447.69,0.21159
4441.9,0.20769
4436.11,0.20191
4430.33,0.19597
4424.54,0.18923
4418.76,0.18248
4412.97,0.17634
4407.18,0.16999
4401.4,0.16552
4395.61,0.16234
4389.82,0.16088
4384.04,0.16054
4378.25,0.15940
4372.47,0.15923
4366.68,0.15944
4360.89,0.15772
4355.11,0.15369
4349.32,0.14947
4343.53,0.14484
4337.75,0.14059
4331.96,0.13779
4326.18,0.13740
4320.39,0.14008
4314.6,0.14288
4308.82,0.14571
4303.03,0.14797
4297.24,0.14991
4291.46,0.14991
4285.67,0.14980
4279.89,0.14850
4274.1,0.14666
4268.31,0.14393
4262.53,0.14163
4256.74,0.14025
4250.95,0.14152
4245.17,0.14443
4239.38,0.14719
4233.6,0.14994
4227.81,0.15063
4222.02,0.15134
4216.24,0.15154
4210.45,0.15181
4204.66,0.15208
4198.88,0.15311
4193.09,0.15344
4187.31,0.15380
4181.52,0.15376
4175.73,0.15358
4169.95,0.15379
4164.16,0.15373
4158.37,0.15398
4152.59,0.15452
4146.8,0.15534
4141.02,0.15498
4135.23,0.15508
4129.44,0.15559
4123.66,0.15521
4117.87,0.15484
4112.09,0.15355
4106.3,0.15180
4100.51,0.15161
4094.73,0.15005
4088.94,0.14848
4083.15,0.14658
4077.37,0.14446
4071.58,0.14218
4065.8,0.14020
4060.01,0.13893
4054.22,0.13826
4048.44,0.13718
4042.65,0.13706
4036.86,0.13580
4031.08,0.13640
4025.29,0.13628
4019.51,0.13549
4013.72,0.13604
4007.93,0.13697
4002.15,0.13751
3996.36,0.13778
3990.57,0.13928
3984.79,0.14075
3979,0.14128
3973.22,0.14191
3967.43,0.14312
3961.64,0.14488
3955.86,0.14565
3950.07,0.14691
3944.28,0.14814
3938.5,0.14916
3932.71,0.15074
3926.93,0.15207
3921.14,0.15342
3915.35,0.15432
3909.57,0.15573
3903.78,0.15697
3897.99,0.15764
3892.21,0.15894
3886.42,0.16008
3880.64,0.16012
3874.85,0.16181
3869.06,0.16300
3863.28,0.16499
3857.49,0.16661
3851.7,0.16789
3845.92,0.16890
3840.13,0.17019
3834.35,0.17108
3828.56,0.17157
3822.77,0.17209
3816.99,0.17229
3811.2,0.17256
3805.41,0.17245
3799.63,0.17367
3793.84,0.17398
3788.06,0.17440
3782.27,0.17463
3776.48,0.17433
3770.7,0.17472
3764.91,0.17439
3759.12,0.17314
3753.34,0.17253
3747.55,0.17205
3741.77,0.17148
3735.98,0.16959
3730.19,0.16741
3724.41,0.16533
3718.62,0.16177
3712.83,0.15736
3707.05,0.14918
3701.26,0.13853
3695.48,0.13012
3689.69,0.12961
3683.9,0.12857
3678.12,0.12557
3672.33,0.11814
3666.54,0.11068
3660.76,0.10548
3654.97,0.09879
3649.19,0.09400
3643.4,0.09034
3637.61,0.08636
3631.83,0.08321
3626.04,0.07917
3620.25,0.07556
3614.47,0.07344
3608.68,0.07129
3602.9,0.06822
3597.11,0.06635
3591.32,0.06427
3585.54,0.06264
3579.75,0.06089
3573.97,0.05957
3568.18,0.05772
3562.39,0.05673
3556.61,0.05576
3550.82,0.05427
3545.03,0.05328
3539.25,0.05343
3533.46,0.05178
3527.68,0.05119
3521.89,0.05022
3516.1,0.05056
3510.32,0.04929
3504.53,0.04878
3498.74,0.04885
3492.96,0.04813
3487.17,0.04769
3481.39,0.04793
3475.6,0.04668
3469.81,0.04656
3464.03,0.04646
3458.24,0.04575
3452.45,0.04518
3446.67,0.04485
3440.88,0.04505
3435.1,0.04534
3429.31,0.04461
3423.52,0.04491
3417.74,0.04434
3411.95,0.04470
3406.16,0.04477
3400.38,0.04476
3394.59,0.04464
3388.81,0.04449
3383.02,0.04469
3377.23,0.04370
3371.45,0.04380
3365.66,0.04300
3359.87,0.04391
3354.09,0.04446
3348.3,0.04490
3342.52,0.04408
3336.73,0.04401
3330.94,0.04476
3325.16,0.04491
3319.37,0.04555
3313.58,0.04556
3307.8,0.04546
3302.01,0.04527
3296.23,0.04560
3290.44,0.04607
3284.65,0.04646
3278.87,0.04697
3273.08,0.04742
3267.29,0.04714
3261.51,0.04821
3255.72,0.04884
3249.94,0.04843
3244.15,0.04888
3238.36,0.04951
3232.58,0.04952
3226.79,0.05088
3221,0.05092
3215.22,0.05105
3209.43,0.05208
3203.65,0.05207
3197.86,0.05258
3192.07,0.05296
3186.29,0.05455
3180.5,0.05389
3174.71,0.05480
3168.93,0.05482
3163.14,0.05539
3157.36,0.05594
3151.57,0.05647
3145.78,0.05733
3140,0.05741
3134.21,0.05764
3128.42,0.05804
3122.64,0.05939
3116.85,0.05940
3111.07,0.05921
3105.28,0.06007
3099.49,0.06002
3093.71,0.06087
3087.92,0.06091
3082.14,0.06099
3076.35,0.06101
3070.56,0.06143
3064.78,0.06035
3058.99,0.06123
3053.2,0.06157
3047.42,0.06155
3041.63,0.06202
3035.85,0.06164
3030.06,0.06166
3024.27,0.06160
3018.49,0.06082
3012.7,0.06032
3006.91,0.05931
3001.13,0.05855
2995.34,0.05725
2989.56,0.05615
2983.77,0.05366
2977.98,0.05144
2972.2,0.04896
2966.41,0.04781
2960.62,0.04742
2954.84,0.04793
2949.05,0.04843
2943.27,0.04756
2937.48,0.04749
2931.69,0.04832
2925.91,0.05105
2920.12,0.05320
2914.33,0.05398
2908.55,0.05289
2902.76,0.05305
2896.98,0.05261
2891.19,0.05358
2885.4,0.05287
2879.62,0.05233
2873.83,0.05187
2868.04,0.05224
2862.26,0.05232
2856.47,0.05321
2850.69,0.05532
2844.9,0.05717
2839.11,0.05827
2833.33,0.05959
2827.54,0.06184
2821.75,0.06310
2815.97,0.06482
2810.18,0.06621
2804.4,0.06729
2798.61,0.06835
2792.82,0.06946
2787.04,0.07051
2781.25,0.07064
2775.46,0.07143
2769.68,0.07174
2763.89,0.07234
2758.11,0.07265
2752.32,0.07250
2746.53,0.07240
2740.75,0.07220
2734.96,0.07197
2729.17,0.07225
2723.39,0.07276
2717.6,0.07364
2711.82,0.07439
2706.03,0.07518
2700.24,0.07566
2694.46,0.07659
2688.67,0.07713
2682.88,0.07794
2677.1,0.07860
2671.31,0.07865
2665.53,0.07920
2659.74,0.07995
2653.95,0.08102
2648.17,0.08148
2642.38,0.08221
2636.59,0.08305
2630.81,0.08340
2625.02,0.08387
2619.24,0.08491
2613.45,0.08542
2607.66,0.08632
2601.88,0.08662
2596.09,0.08780
2590.3,0.08793
2584.52,0.08891
2578.73,0.08970
2572.95,0.08978
2567.16,0.09027
2561.37,0.09090
2555.59,0.09131
2549.8,0.09150
2544.02,0.09130
2538.23,0.09191
2532.44,0.09215
2526.66,0.09318
2520.87,0.09375
2515.08,0.09405
2509.3,0.09511
2503.51,0.09617
2497.73,0.09778
2491.94,0.09940
2486.15,0.10036
2480.37,0.10129
2474.58,0.10258
2468.79,0.10357
2463.01,0.10389
2457.22,0.10476
2451.44,0.10595
2445.65,0.10676
2439.86,0.10768
2434.08,0.10885
2428.29,0.10995
2422.5,0.11105
2416.72,0.11229
2410.93,0.11303
2405.15,0.11435
2399.36,0.11526
2393.57,0.11680
2387.79,0.11737
2382,0.11868
2376.21,0.11903
2370.43,0.12047
2364.64,0.12113
2358.86,0.12204
2353.07,0.12279
2347.28,0.12352
2341.5,0.12429
2335.71,0.12493
2329.92,0.12499
2324.14,0.12555
2318.35,0.12605
2312.57,0.12697
2306.78,0.12732
2300.99,0.12699
2295.21,0.12729
2289.42,0.12724
2283.63,0.12730
2277.85,0.12727
2272.06,0.12700
2266.28,0.12650
2260.49,0.12574
2254.7,0.12551
2248.92,0.12497
2243.13,0.12488
2237.34,0.12486
2231.56,0.12445
2225.77,0.12471
2219.99,0.12571
2214.2,0.12574
2208.41,0.12637
2202.63,0.12572
2196.84,0.12545
2191.05,0.12469
2185.27,0.12347
2179.48,0.12176
2173.7,0.12010
2167.91,0.11852
2162.12,0.11723
2156.34,0.11608
2150.55,0.11541
2144.76,0.11536
2138.98,0.11481
2133.19,0.11501
2127.41,0.11582
2121.62,0.11664
2115.83,0.11740
2110.05,0.11841
2104.26,0.11970
2098.47,0.12032
2092.69,0.12106
2086.9,0.12161
2081.12,0.12193
2075.33,0.12168
2069.54,0.12091
2063.76,0.12099
2057.97,0.12108
2052.19,0.12125
2046.4,0.12130
2040.61,0.12220
2034.83,0.12340
2029.04,0.12494
2023.25,0.12694
2017.47,0.12928
2011.68,0.13151
2005.9,0.13324
2000.11,0.13440
1994.32,0.13563
1988.54,0.13679
1982.75,0.13834
1976.96,0.13914
1971.18,0.13915
1965.39,0.13912
1959.61,0.13929
1953.82,0.13966
1948.03,0.14006
1942.25,0.14039
1936.46,0.14088
1930.67,0.14159
1924.89,0.14151
1919.1,0.14088
1913.32,0.14012
1907.53,0.13959
1901.74,0.13971
1895.96,0.13986
1890.17,0.14002
1884.38,0.13973
1878.6,0.14021
1872.81,0.13997
1867.03,0.13975
1861.24,0.13943
1855.45,0.13872
1849.67,0.13801
1843.88,0.13661
1838.09,0.13587
1832.31,0.13476
1826.52,0.13350
1820.74,0.13148
1814.95,0.12943
1809.16,0.12650
1803.38,0.12254
1797.59,0.11757
1791.8,0.11405
1786.02,0.11073
1780.23,0.10571
1774.45,0.09932
1768.66,0.09090
1762.87,0.08214
1757.09,0.07542
1751.3,0.07062
1745.51,0.06754
1739.73,0.06582
1733.94,0.06549
1728.16,0.06549
1722.37,0.06620
1716.58,0.06672
1710.8,0.06626
1705.01,0.06583
1699.22,0.06508
1693.44,0.06396
1687.65,0.06298
1681.87,0.06124
1676.08,0.05971
1670.29,0.05848
1664.51,0.05748
1658.72,0.05631
1652.93,0.05639
1647.15,0.05602
1641.36,0.05534
1635.58,0.05506
1629.79,0.05399
1624,0.05322
1618.22,0.05191
1612.43,0.05092
1606.64,0.05053
1600.86,0.04983
1595.07,0.04998
1589.29,0.05019
1583.5,0.05185
1577.71,0.05351
1571.93,0.05434
1566.14,0.05535
1560.35,0.05569
1554.57,0.05703
1548.78,0.05784
1543,0.05905
1537.21,0.06011
1531.42,0.05989
1525.64,0.05876
1519.85,0.05520
1514.07,0.05242
1508.28,0.05150
1502.49,0.05195
1496.71,0.05283
1490.92,0.05339
1485.13,0.05200
1479.35,0.04981
1473.56,0.04669
1467.78,0.04487
1461.99,0.04517
1456.2,0.04561
1450.42,0.04665
1444.63,0.04693
1438.84,0.04700
1433.06,0.04603
1427.27,0.04607
1421.49,0.04675
1415.7,0.04837
1409.91,0.04924
1404.13,0.04917
1398.34,0.04851
1392.55,0.04752
1386.77,0.04647
1380.98,0.04509
1375.2,0.04451
1369.41,0.04506
1363.62,0.04590
1357.84,0.04564
1352.05,0.04615
1346.26,0.04593
1340.48,0.04524
1334.69,0.04479
1328.91,0.04485
1323.12,0.04485
1317.33,0.04505
1311.55,0.04629
1305.76,0.04698
1299.97,0.04749
1294.19,0.04772
1288.4,0.04684
1282.62,0.04591
1276.83,0.04576
1271.04,0.04610
1265.26,0.04603
1259.47,0.04672
1253.68,0.04577
1247.9,0.04531
1242.11,0.04549
1236.33,0.04600
1230.54,0.04616
1224.75,0.04670
1218.97,0.04738
1213.18,0.04731
1207.39,0.04713
1201.61,0.04754
1195.82,0.04790
1190.04,0.04880
1184.25,0.04883
1178.46,0.04703
1172.68,0.04509
1166.89,0.04347
1161.1,0.04354
1155.32,0.04312
1149.53,0.04185
1143.75,0.04082
1137.96,0.03908
1132.17,0.03757
1126.39,0.03660
1120.6,0.03692
1114.81,0.03789
1109.03,0.03879
1103.24,0.04044
1097.46,0.03984
1091.67,0.03922
1085.88,0.03937
1080.1,0.04092
1074.31,0.04319
1068.52,0.04713
1062.74,0.05434
1056.95,0.06005
1051.17,0.06049
1045.38,0.05810
1039.59,0.05926
1033.81,0.06533
1028.02,0.06682
1022.24,0.06596
1016.45,0.06618
1010.66,0.06673
1004.88,0.06599
999.09,0.06623
993.304,0.06702
987.518,0.06794
981.731,0.07076
975.945,0.07167
970.159,0.07247
964.373,0.07354
958.586,0.07570
952.8,0.07782
947.014,0.07919
941.228,0.07859
935.441,0.07843
929.655,0.07815
923.869,0.07701
918.083,0.07515
912.297,0.07353
906.51,0.07065
900.724,0.06747
894.938,0.06820
889.152,0.06975
883.365,0.07168
877.579,0.07155
871.793,0.07102
866.007,0.07245
860.22,0.07147
854.434,0.07215
848.648,0.07209
842.862,0.07073
837.075,0.06957
831.289,0.06944
825.503,0.06778
819.717,0.06590
813.931,0.06551
808.144,0.06580
802.358,0.06590
796.572,0.06502
790.786,0.06465
784.999,0.06419
779.213,0.06292
773.427,0.06264
767.641,0.06160
761.854,0.05981
756.068,0.05841
750.282,0.05766
744.496,0.05663
738.709,0.05570
732.923,0.05533
727.137,0.05332
721.351,0.05203
715.565,0.05263
709.778,0.05174
703.992,0.05284
698.206,0.05121
692.42,0.05101
686.633,0.05059
680.847,0.05052
675.061,0.04926
669.275,0.04903
663.488,0.05029
657.702,0.05148
651.916,0.05094
646.13,0.05089
640.343,0.04981
634.557,0.04956
628.771,0.04743
622.985,0.04753
617.198,0.05069
611.412,0.04949
605.626,0.05233
599.84,0.05291