File: 01_Data/Roof_Felt/FTIR/IS/Roof_Felt_IS_S_220829_R5.dpt
7497.03,0.17191
7491.25,0.16673
7485.46,0.16888
7479.67,0.17015
7473.89,0.17241
7468.1,0.17155
7462.32,0.17884
7456.53,0.16842
7450.74,0.16628
7444.96,0.16630
7439.17,0.16247
7433.38,0.16321
7427.6,0.17038
7421.81,0.17678
7416.03,0.16723
7410.24,0.16311
7404.45,0.17334
7398.67,0.17469
7392.88,0.17517
7387.09,0.16724
7381.31,0.18155
7375.52,0.17136
7369.74,0.16923
7363.95,0.16964
7358.16,0.17682
7352.38,0.18193
7346.59,0.17297
7340.8,0.17358
7335.02,0.17573
7329.23,0.17569
7323.45,0.17524
7317.66,0.17941
7311.87,0.17913
7306.09,0.17810
7300.3,0.17798
7294.51,0.17628
7288.73,0.17433
7282.94,0.17249
7277.16,0.17903
7271.37,0.17761
7265.58,0.17314
7259.8,0.18591
7254.01,0.17829
7248.22,0.18218
7242.44,0.16915
7236.65,0.17228
7230.87,0.17386
7225.08,0.16796
7219.29,0.17214
7213.51,0.17839
7207.72,0.17619
7201.93,0.18404
7196.15,0.17838
7190.36,0.17697
7184.58,0.16868
7178.79,0.17603
7173,0.17661
7167.22,0.16901
7161.43,0.17164
7155.65,0.18174
7149.86,0.18412
7144.07,0.17700
7138.29,0.17590
7132.5,0.18268
7126.71,0.17907
7120.93,0.18174
7115.14,0.18191
7109.36,0.17921
7103.57,0.18056
7097.78,0.18207
7092,0.17961
7086.21,0.18099
7080.42,0.17517
7074.64,0.17930
7068.85,0.17856
7063.07,0.17897
7057.28,0.17947
7051.49,0.18363
7045.71,0.17997
7039.92,0.17962
7034.13,0.18212
7028.35,0.18040
7022.56,0.17543
7016.78,0.17284
7010.99,0.17662
7005.2,0.17891
6999.42,0.17409
6993.63,0.17589
6987.84,0.18381
6982.06,0.17993
6976.27,0.17330
6970.49,0.18110
6964.7,0.17779
6958.91,0.18083
6953.13,0.17515
6947.34,0.18234
6941.55,0.18137
6935.77,0.18159
6929.98,0.17854
6924.2,0.18458
6918.41,0.18012
6912.62,0.17831
6906.84,0.18375
6901.05,0.17737
6895.26,0.18431
6889.48,0.18318
6883.69,0.18120
6877.91,0.18354
6872.12,0.18480
6866.33,0.18668
6860.55,0.18443
6854.76,0.18131
6848.97,0.18282
6843.19,0.18598
6837.4,0.18477
6831.62,0.18990
6825.83,0.18545
6820.04,0.18799
6814.26,0.18766
6808.47,0.18721
6802.68,0.19066
6796.9,0.18384
6791.11,0.18487
6785.33,0.19000
6779.54,0.18860
6773.75,0.18680
6767.97,0.19096
6762.18,0.18480
6756.39,0.19076
6750.61,0.18942
6744.82,0.18620
6739.04,0.18702
6733.25,0.19128
6727.46,0.18875
6721.68,0.18855
6715.89,0.18708
6710.1,0.18443
6704.32,0.18748
6698.53,0.18687
6692.75,0.19267
6686.96,0.18922
6681.17,0.19067
6675.39,0.19458
6669.6,0.19066
6663.82,0.19180
6658.03,0.19572
6652.24,0.19270
6646.46,0.19429
6640.67,0.19274
6634.88,0.19667
6629.1,0.19319
6623.31,0.19702
6617.53,0.19732
6611.74,0.19793
6605.95,0.19610
6600.17,0.19858
6594.38,0.19706
6588.59,0.19970
6582.81,0.19628
6577.02,0.19373
6571.24,0.19808
6565.45,0.20048
6559.66,0.19861
6553.88,0.20155
6548.09,0.19787
6542.3,0.19339
6536.52,0.20241
6530.73,0.20145
6524.95,0.20116
6519.16,0.20436
6513.37,0.19958
6507.59,0.20034
6501.8,0.20148
6496.01,0.20121
6490.23,0.20074
6484.44,0.20253
6478.66,0.20244
6472.87,0.20306
6467.08,0.20597
6461.3,0.20162
6455.51,0.20347
6449.72,0.20110
6443.94,0.20631
6438.15,0.20511
6432.37,0.20655
6426.58,0.20482
6420.79,0.20237
6415.01,0.20740
6409.22,0.20450
6403.43,0.20688
6397.65,0.20826
6391.86,0.20537
6386.08,0.20760
6380.29,0.20885
6374.5,0.20783
6368.72,0.20909
6362.93,0.21108
6357.14,0.20867
6351.36,0.20612
6345.57,0.20695
6339.79,0.20884
6334,0.20865
6328.21,0.21036
6322.43,0.20990
6316.64,0.21124
6310.85,0.21049
6305.07,0.21366
6299.28,0.21492
6293.5,0.21537
6287.71,0.21583
6281.92,0.21270
6276.14,0.21294
6270.35,0.21764
6264.56,0.21631
6258.78,0.21566
6252.99,0.21624
6247.21,0.21842
6241.42,0.21750
6235.63,0.21641
6229.85,0.21787
6224.06,0.21984
6218.27,0.22228
6212.49,0.21964
6206.7,0.22151
6200.92,0.22112
6195.13,0.22211
6189.34,0.22001
6183.56,0.22147
6177.77,0.22097
6171.98,0.22115
6166.2,0.22324
6160.41,0.22466
6154.63,0.22380
6148.84,0.22322
6143.05,0.22632
6137.27,0.22157
6131.48,0.22391
6125.7,0.22562
6119.91,0.22389
6114.12,0.22505
6108.34,0.22496
6102.55,0.22821
6096.76,0.22546
6090.98,0.22569
6085.19,0.22819
6079.41,0.22736
6073.62,0.22632
6067.83,0.22556
6062.05,0.22597
6056.26,0.22861
6050.47,0.22875
6044.69,0.22932
6038.9,0.22799
6033.12,0.22924
6027.33,0.22841
6021.54,0.22650
6015.76,0.23009
6009.97,0.22908
6004.18,0.22335
5998.4,0.22792
5992.61,0.22709
5986.83,0.22732
5981.04,0.22911
5975.25,0.22693
5969.47,0.22458
5963.68,0.22500
5957.89,0.22564
5952.11,0.22596
5946.32,0.22450
5940.54,0.22338
5934.75,0.22296
5928.96,0.22312
5923.18,0.22161
5917.39,0.22161
5911.6,0.21859
5905.82,0.21771
5900.03,0.21788
5894.25,0.21915
5888.46,0.21515
5882.67,0.21714
5876.89,0.21477
5871.1,0.21306
5865.31,0.21269
5859.53,0.21303
5853.74,0.21545
5847.96,0.21534
5842.17,0.21251
5836.38,0.21222
5830.6,0.21050
5824.81,0.21102
5819.02,0.20930
5813.24,0.20826
5807.45,0.20714
5801.67,0.20740
5795.88,0.20810
5790.09,0.20644
5784.31,0.20747
5778.52,0.20938
5772.73,0.21204
5766.95,0.21222
5761.16,0.21514
5755.38,0.21619
5749.59,0.21957
5743.8,0.21816
5738.02,0.21983
5732.23,0.22095
5726.44,0.22110
5720.66,0.22231
5714.87,0.22152
5709.09,0.22279
5703.3,0.22208
5697.51,0.22014
5691.73,0.22050
5685.94,0.22111
5680.15,0.22089
5674.37,0.21932
5668.58,0.22019
5662.8,0.22107
5657.01,0.22474
5651.22,0.22255
5645.44,0.22487
5639.65,0.22638
5633.87,0.22778
5628.08,0.22996
5622.29,0.23093
5616.51,0.23081
5610.72,0.23182
5604.93,0.23495
5599.15,0.23283
5593.36,0.23398
5587.58,0.23624
5581.79,0.23861
5576,0.23780
5570.22,0.23757
5564.43,0.23916
5558.64,0.23927
5552.86,0.24082
5547.07,0.23980
5541.29,0.24034
5535.5,0.24230
5529.71,0.24086
5523.93,0.24232
5518.14,0.24338
5512.35,0.24041
5506.57,0.24267
5500.78,0.24246
5495,0.24144
5489.21,0.24260
5483.42,0.24497
5477.64,0.24400
5471.85,0.24435
5466.06,0.24360
5460.28,0.24539
5454.49,0.24598
5448.71,0.24809
5442.92,0.24863
5437.13,0.24716
5431.35,0.24745
5425.56,0.24740
5419.77,0.24997
5413.99,0.25204
5408.2,0.25158
5402.42,0.25297
5396.63,0.25292
5390.84,0.25226
5385.06,0.25261
5379.27,0.25430
5373.48,0.25552
5367.7,0.25638
5361.91,0.25745
5356.13,0.25596
5350.34,0.25650
5344.55,0.25707
5338.77,0.25670
5332.98,0.25535
5327.19,0.25655
5321.41,0.25446
5315.62,0.25509
5309.84,0.25310
5304.05,0.25500
5298.26,0.25294
5292.48,0.25210
5286.69,0.25013
5280.9,0.24944
5275.12,0.24631
5269.33,0.24405
5263.55,0.24344
5257.76,0.23946
5251.97,0.23703
5246.19,0.23561
5240.4,0.23442
5234.61,0.23273
5228.83,0.22937
5223.04,0.22836
5217.26,0.22749
5211.47,0.22568
5205.68,0.22410
5199.9,0.22547
5194.11,0.22552
5188.32,0.22508
5182.54,0.22653
5176.75,0.22793
5170.97,0.22776
5165.18,0.22768
5159.39,0.22952
5153.61,0.22996
5147.82,0.23068
5142.03,0.23274
5136.25,0.23360
5130.46,0.23377
5124.68,0.23620
5118.89,0.23649
5113.1,0.23738
5107.32,0.23812
5101.53,0.23950
5095.75,0.24107
5089.96,0.24277
5084.17,0.24301
5078.39,0.24316
5072.6,0.24444
5066.81,0.24503
5061.03,0.24752
5055.24,0.24863
5049.46,0.24885
5043.67,0.24961
5037.88,0.24972
5032.1,0.25028
5026.31,0.25175
5020.52,0.25212
5014.74,0.25350
5008.95,0.25276
5003.17,0.25438
4997.38,0.25434
4991.59,0.25309
4985.81,0.25518
4980.02,0.25471
4974.23,0.25331
4968.45,0.25325
4962.66,0.25247
4956.88,0.25156
4951.09,0.25105
4945.3,0.25163
4939.52,0.25014
4933.73,0.24844
4927.94,0.24743
4922.16,0.24621
4916.37,0.24541
4910.59,0.24380
4904.8,0.24056
4899.01,0.24106
4893.23,0.23901
4887.44,0.23633
4881.65,0.23414
4875.87,0.23224
4870.08,0.23169
4864.3,0.22905
4858.51,0.22667
4852.72,0.22541
4846.94,0.22425
4841.15,0.22134
4835.36,0.22135
4829.58,0.22048
4823.79,0.21752
4818.01,0.21679
4812.22,0.21550
4806.43,0.21396
4800.65,0.21359
4794.86,0.21306
4789.07,0.21271
4783.29,0.21169
4777.5,0.21122
4771.72,0.21123
4765.93,0.21004
4760.14,0.21022
4754.36,0.21009
4748.57,0.21015
4742.78,0.20962
4737,0.20939
4731.21,0.21079
4725.43,0.21160
4719.64,0.21204
4713.85,0.21271
4708.07,0.21305
4702.28,0.21319
4696.49,0.21488
4690.71,0.21463
4684.92,0.21538
4679.14,0.21702
4673.35,0.21728
4667.56,0.21708
4661.78,0.21741
4655.99,0.21704
4650.2,0.21799
4644.42,0.21883
4638.63,0.21998
4632.85,0.22055
4627.06,0.22183
4621.27,0.22280
4615.49,0.22268
4609.7,0.22322
4603.92,0.22514
4598.13,0.22574
4592.34,0.22799
4586.56,0.22912
4580.77,0.22957
4574.98,0.23175
4569.2,0.23183
4563.41,0.23320
4557.63,0.23429
4551.84,0.23525
4546.05,0.23669
4540.27,0.23652
4534.48,0.23675
4528.69,0.23546
4522.91,0.23676
4517.12,0.23747
4511.34,0.23692
4505.55,0.23654
4499.76,0.23645
4493.98,0.23463
4488.19,0.23395
4482.4,0.23212
4476.62,0.22998
4470.83,0.22716
4465.05,0.22477
4459.26,0.22172
4453.47,0.21800
4447.69,0.21295
4441.9,0.20817
4436.11,0.20171
4430.33,0.19624
4424.54,0.19009
4418.76,0.18314
4412.97,0.17730
4407.18,0.17050
4401.4,0.16600
4395.61,0.16227
4389.82,0.16187
4384.04,0.16094
4378.25,0.16049
4372.47,0.16057
4366.68,0.16016
4360.89,0.15856
4355.11,0.15555
4349.32,0.15060
4343.53,0.14558
4337.75,0.14163
4331.96,0.13812
4326.18,0.13820
4320.39,0.14012
4314.6,0.14337
4308.82,0.14675
4303.03,0.14883
4297.24,0.15037
4291.46,0.15082
4285.67,0.15068
4279.89,0.14903
4274.1,0.14747
4268.31,0.14413
4262.53,0.14249
4256.74,0.14146
4250.95,0.14204
4245.17,0.14504
4239.38,0.14734
4233.6,0.15002
4227.81,0.15127
4222.02,0.15182
4216.24,0.15286
4210.45,0.15322
4204.66,0.15365
4198.88,0.15341
4193.09,0.15414
4187.31,0.15454
4181.52,0.15443
4175.73,0.15390
4169.95,0.15401
4164.16,0.15467
4158.37,0.15530
4152.59,0.15584
4146.8,0.15654
4141.02,0.15605
4135.23,0.15578
4129.44,0.15536
4123.66,0.15496
4117.87,0.15438
4112.09,0.15387
4106.3,0.15281
4100.51,0.15181
4094.73,0.15057
4088.94,0.14869
4083.15,0.14735
4077.37,0.14501
4071.58,0.14252
4065.8,0.14158
4060.01,0.14007
4054.22,0.13820
4048.44,0.13757
4042.65,0.13741
4036.86,0.13707
4031.08,0.13615
4025.29,0.13613
4019.51,0.13616
4013.72,0.13676
4007.93,0.13748
4002.15,0.13790
3996.36,0.13874
3990.57,0.14076
3984.79,0.14122
3979,0.14174
3973.22,0.14296
3967.43,0.14379
3961.64,0.14493
3955.86,0.14587
3950.07,0.14733
3944.28,0.14835
3938.5,0.15005
3932.71,0.15119
3926.93,0.15283
3921.14,0.15475
3915.35,0.15526
3909.57,0.15627
3903.78,0.15757
3897.99,0.15826
3892.21,0.15967
3886.42,0.15968
3880.64,0.16165
3874.85,0.16230
3869.06,0.16391
3863.28,0.16534
3857.49,0.16679
3851.7,0.16842
3845.92,0.17008
3840.13,0.17146
3834.35,0.17152
3828.56,0.17246
3822.77,0.17330
3816.99,0.17285
3811.2,0.17355
3805.41,0.17345
3799.63,0.17424
3793.84,0.17492
3788.06,0.17519
3782.27,0.17551
3776.48,0.17552
3770.7,0.17520
3764.91,0.17528
3759.12,0.17480
3753.34,0.17465
3747.55,0.17343
3741.77,0.17228
3735.98,0.17096
3730.19,0.16868
3724.41,0.16645
3718.62,0.16312
3712.83,0.15809
3707.05,0.15043
3701.26,0.13995
3695.48,0.13092
3689.69,0.12999
3683.9,0.13010
3678.12,0.12568
3672.33,0.11849
3666.54,0.11186
3660.76,0.10591
3654.97,0.09919
3649.19,0.09471
3643.4,0.09082
3637.61,0.08781
3631.83,0.08381
3626.04,0.07985
3620.25,0.07613
3614.47,0.07359
3608.68,0.07139
3602.9,0.06877
3597.11,0.06666
3591.32,0.06445
3585.54,0.06248
3579.75,0.06090
3573.97,0.05975
3568.18,0.05825
3562.39,0.05615
3556.61,0.05540
3550.82,0.05469
3545.03,0.05312
3539.25,0.05333
3533.46,0.05249
3527.68,0.05179
3521.89,0.05085
3516.1,0.05003
3510.32,0.04924
3504.53,0.04878
3498.74,0.04813
3492.96,0.04786
3487.17,0.04677
3481.39,0.04666
3475.6,0.04665
3469.81,0.04564
3464.03,0.04594
3458.24,0.04611
3452.45,0.04533
3446.67,0.04539
3440.88,0.04450
3435.1,0.04411
3429.31,0.04488
3423.52,0.04476
3417.74,0.04467
3411.95,0.04408
3406.16,0.04431
3400.38,0.04467
3394.59,0.04456
3388.81,0.04476
3383.02,0.04375
3377.23,0.04434
3371.45,0.04432
3365.66,0.04380
3359.87,0.04393
3354.09,0.04407
3348.3,0.04391
3342.52,0.04413
3336.73,0.04461
3330.94,0.04473
3325.16,0.04545
3319.37,0.04455
3313.58,0.04475
3307.8,0.04573
3302.01,0.04618
3296.23,0.04641
3290.44,0.04597
3284.65,0.04567
3278.87,0.04673
3273.08,0.04709
3267.29,0.04769
3261.51,0.04779
3255.72,0.04903
3249.94,0.04999
3244.15,0.04887
3238.36,0.04948
3232.58,0.04893
3226.79,0.05002
3221,0.05103
3215.22,0.05126
3209.43,0.05180
3203.65,0.05203
3197.86,0.05215
3192.07,0.05320
3186.29,0.05339
3180.5,0.05464
3174.71,0.05447
3168.93,0.05547
3163.14,0.05493
3157.36,0.05609
3151.57,0.05637
3145.78,0.05717
3140,0.05747
3134.21,0.05823
3128.42,0.05880
3122.64,0.05910
3116.85,0.05883
3111.07,0.05918
3105.28,0.05976
3099.49,0.06079
3093.71,0.06086
3087.92,0.06075
3082.14,0.06147
3076.35,0.06134
3070.56,0.06106
3064.78,0.06122
3058.99,0.06148
3053.2,0.06176
3047.42,0.06169
3041.63,0.06188
3035.85,0.06191
3030.06,0.06149
3024.27,0.06169
3018.49,0.06102
3012.7,0.06032
3006.91,0.05951
3001.13,0.05876
2995.34,0.05773
2989.56,0.05614
2983.77,0.05444
2977.98,0.05142
2972.2,0.04946
2966.41,0.04828
2960.62,0.04762
2954.84,0.04791
2949.05,0.04854
2943.27,0.04757
2937.48,0.04775
2931.69,0.04863
2925.91,0.05116
2920.12,0.05280
2914.33,0.05409
2908.55,0.05301
2902.76,0.05283
2896.98,0.05267
2891.19,0.05314
2885.4,0.05288
2879.62,0.05222
2873.83,0.05227
2868.04,0.05227
2862.26,0.05264
2856.47,0.05288
2850.69,0.05568
2844.9,0.05734
2839.11,0.05822
2833.33,0.05997
2827.54,0.06170
2821.75,0.06337
2815.97,0.06483
2810.18,0.06611
2804.4,0.06711
2798.61,0.06829
2792.82,0.06906
2787.04,0.06995
2781.25,0.07056
2775.46,0.07162
2769.68,0.07235
2763.89,0.07203
2758.11,0.07289
2752.32,0.07315
2746.53,0.07254
2740.75,0.07271
2734.96,0.07270
2729.17,0.07229
2723.39,0.07327
2717.6,0.07352
2711.82,0.07454
2706.03,0.07519
2700.24,0.07607
2694.46,0.07676
2688.67,0.07738
2682.88,0.07808
2677.1,0.07839
2671.31,0.07926
2665.53,0.07982
2659.74,0.08064
2653.95,0.08107
2648.17,0.08149
2642.38,0.08203
2636.59,0.08322
2630.81,0.08368
2625.02,0.08444
2619.24,0.08519
2613.45,0.08577
2607.66,0.08721
2601.88,0.08721
2596.09,0.08781
2590.3,0.08851
2584.52,0.08916
2578.73,0.09021
2572.95,0.09046
2567.16,0.09094
2561.37,0.09139
2555.59,0.09150
2549.8,0.09163
2544.02,0.09219
2538.23,0.09245
2532.44,0.09254
2526.66,0.09333
2520.87,0.09356
2515.08,0.09418
2509.3,0.09549
2503.51,0.09683
2497.73,0.09805
2491.94,0.09994
2486.15,0.10111
2480.37,0.10140
2474.58,0.10283
2468.79,0.10371
2463.01,0.10440
2457.22,0.10559
2451.44,0.10610
2445.65,0.10744
2439.86,0.10833
2434.08,0.10945
2428.29,0.11037
2422.5,0.11162
2416.72,0.11298
2410.93,0.11383
2405.15,0.11476
2399.36,0.11571
2393.57,0.11693
2387.79,0.11817
2382,0.11899
2376.21,0.11994
2370.43,0.12099
2364.64,0.12153
2358.86,0.12253
2353.07,0.12337
2347.28,0.12408
2341.5,0.12503
2335.71,0.12544
2329.92,0.12564
2324.14,0.12684
2318.35,0.12675
2312.57,0.12732
2306.78,0.12755
2300.99,0.12758
2295.21,0.12773
2289.42,0.12794
2283.63,0.12847
2277.85,0.12859
2272.06,0.12809
2266.28,0.12727
2260.49,0.12628
2254.7,0.12605
2248.92,0.12554
2243.13,0.12548
2237.34,0.12509
2231.56,0.12533
2225.77,0.12589
2219.99,0.12633
2214.2,0.12672
2208.41,0.12685
2202.63,0.12704
2196.84,0.12596
2191.05,0.12492
2185.27,0.12376
2179.48,0.12221
2173.7,0.12037
2167.91,0.11903
2162.12,0.11806
2156.34,0.11705
2150.55,0.11630
2144.76,0.11601
2138.98,0.11564
2133.19,0.11565
2127.41,0.11639
2121.62,0.11742
2115.83,0.11827
2110.05,0.11923
2104.26,0.11989
2098.47,0.12064
2092.69,0.12175
2086.9,0.12254
2081.12,0.12253
2075.33,0.12238
2069.54,0.12187
2063.76,0.12160
2057.97,0.12163
2052.19,0.12161
2046.4,0.12209
2040.61,0.12267
2034.83,0.12409
2029.04,0.12555
2023.25,0.12769
2017.47,0.13001
2011.68,0.13224
2005.9,0.13384
2000.11,0.13510
1994.32,0.13674
1988.54,0.13767
1982.75,0.13899
1976.96,0.13989
1971.18,0.13991
1965.39,0.13986
1959.61,0.14004
1953.82,0.14019
1948.03,0.14075
1942.25,0.14109
1936.46,0.14153
1930.67,0.14260
1924.89,0.14244
1919.1,0.14148
1913.32,0.14096
1907.53,0.14034
1901.74,0.14040
1895.96,0.14076
1890.17,0.14069
1884.38,0.14097
1878.6,0.14087
1872.81,0.14099
1867.03,0.14065
1861.24,0.14020
1855.45,0.13951
1849.67,0.13875
1843.88,0.13765
1838.09,0.13658
1832.31,0.13559
1826.52,0.13411
1820.74,0.13242
1814.95,0.13058
1809.16,0.12733
1803.38,0.12329
1797.59,0.11830
1791.8,0.11469
1786.02,0.11124
1780.23,0.10595
1774.45,0.09965
1768.66,0.09103
1762.87,0.08254
1757.09,0.07591
1751.3,0.07148
1745.51,0.06782
1739.73,0.06602
1733.94,0.06552
1728.16,0.06610
1722.37,0.06674
1716.58,0.06699
1710.8,0.06682
1705.01,0.06635
1699.22,0.06530
1693.44,0.06428
1687.65,0.06303
1681.87,0.06142
1676.08,0.06007
1670.29,0.05858
1664.51,0.05748
1658.72,0.05686
1652.93,0.05656
1647.15,0.05625
1641.36,0.05544
1635.58,0.05486
1629.79,0.05447
1624,0.05350
1618.22,0.05252
1612.43,0.05170
1606.64,0.05072
1600.86,0.04990
1595.07,0.05011
1589.29,0.05099
1583.5,0.05231
1577.71,0.05329
1571.93,0.05468
1566.14,0.05553
1560.35,0.05619
1554.57,0.05721
1548.78,0.05822
1543,0.05982
1537.21,0.06034
1531.42,0.06039
1525.64,0.05901
1519.85,0.05581
1514.07,0.05270
1508.28,0.05185
1502.49,0.05256
1496.71,0.05331
1490.92,0.05384
1485.13,0.05180
1479.35,0.04995
1473.56,0.04717
1467.78,0.04472
1461.99,0.04537
1456.2,0.04611
1450.42,0.04651
1444.63,0.04715
1438.84,0.04697
1433.06,0.04644
1427.27,0.04619
1421.49,0.04771
1415.7,0.04838
1409.91,0.04915
1404.13,0.04927
1398.34,0.04897
1392.55,0.04825
1386.77,0.04661
1380.98,0.04490
1375.2,0.04467
1369.41,0.04523
1363.62,0.04591
1357.84,0.04586
1352.05,0.04618
1346.26,0.04603
1340.48,0.04531
1334.69,0.04511
1328.91,0.04482
1323.12,0.04488
1317.33,0.04540
1311.55,0.04609
1305.76,0.04744
1299.97,0.04796
1294.19,0.04770
1288.4,0.04664
1282.62,0.04615
1276.83,0.04601
1271.04,0.04646
1265.26,0.04597
1259.47,0.04614
1253.68,0.04609
1247.9,0.04575
1242.11,0.04607
1236.33,0.04592
1230.54,0.04640
1224.75,0.04654
1218.97,0.04751
1213.18,0.04742
1207.39,0.04735
1201.61,0.04778
1195.82,0.04876
1190.04,0.04819
1184.25,0.04870
1178.46,0.04748
1172.68,0.04554
1166.89,0.04357
1161.1,0.04335
1155.32,0.04293
1149.53,0.04186
1143.75,0.04105
1137.96,0.03888
1132.17,0.03760
1126.39,0.03721
1120.6,0.03715
1114.81,0.03784
1109.03,0.03991
1103.24,0.03993
1097.46,0.03877
1091.67,0.03927
1085.88,0.03958
1080.1,0.04081
1074.31,0.04332
1068.52,0.04775
1062.74,0.05507
1056.95,0.06068
1051.17,0.06061
1045.38,0.05753
1039.59,0.05992
1033.81,0.06519
1028.02,0.06721
1022.24,0.06660
1016.45,0.06609
1010.66,0.06655
1004.88,0.06604
999.09,0.06566
993.304,0.06725
987.518,0.06829
981.731,0.07033
975.945,0.07220
970.159,0.07303
964.373,0.07461
958.586,0.07649
952.8,0.07816
947.014,0.07826
941.228,0.07918
935.441,0.07866
929.655,0.07779
923.869,0.07765
918.083,0.07570
912.297,0.07426
906.51,0.07041
900.724,0.06774
894.938,0.06843
889.152,0.07069
883.365,0.07157
877.579,0.07163
871.793,0.07181
866.007,0.07173
860.22,0.07228
854.434,0.07105
848.648,0.07186
842.862,0.07126
837.075,0.07049
831.289,0.06893
825.503,0.06773
819.717,0.06623
813.931,0.06509
808.144,0.06573
802.358,0.06582
796.572,0.06524
790.786,0.06521
784.999,0.06414
779.213,0.06243
773.427,0.06218
767.641,0.06119
761.854,0.05987
756.068,0.05909
750.282,0.05752
744.496,0.05701
738.709,0.05545
732.923,0.05454
727.137,0.05249
721.351,0.05254
715.565,0.05270
709.778,0.05159
703.992,0.05064
698.206,0.05128
692.42,0.05121
686.633,0.05073
680.847,0.05133
675.061,0.04942
669.275,0.04982
663.488,0.05091
657.702,0.05145
651.916,0.04986
646.13,0.05042
640.343,0.04888
634.557,0.04848
628.771,0.04816
622.985,0.04909
617.198,0.05176
611.412,0.05124
605.626,0.05255
599.84,0.05470