File: 01_Data/Roof_Felt/FTIR/IS/Roof_Felt_IS_S_220829_R6.dpt
7497.03,0.16620
7491.25,0.17085
7485.46,0.16869
7479.67,0.16536
7473.89,0.16066
7468.1,0.16897
7462.32,0.17144
7456.53,0.17464
7450.74,0.15674
7444.96,0.16262
7439.17,0.16971
7433.38,0.16982
7427.6,0.17428
7421.81,0.17193
7416.03,0.17027
7410.24,0.16576
7404.45,0.16521
7398.67,0.17528
7392.88,0.17285
7387.09,0.16875
7381.31,0.17067
7375.52,0.17835
7369.74,0.17238
7363.95,0.17682
7358.16,0.18227
7352.38,0.17841
7346.59,0.17330
7340.8,0.16735
7335.02,0.16954
7329.23,0.16945
7323.45,0.17497
7317.66,0.17721
7311.87,0.17611
7306.09,0.17886
7300.3,0.18361
7294.51,0.17191
7288.73,0.17768
7282.94,0.17419
7277.16,0.17179
7271.37,0.18114
7265.58,0.18848
7259.8,0.18053
7254.01,0.17122
7248.22,0.18484
7242.44,0.17793
7236.65,0.17494
7230.87,0.18264
7225.08,0.17871
7219.29,0.18341
7213.51,0.17498
7207.72,0.17632
7201.93,0.17877
7196.15,0.18371
7190.36,0.17809
7184.58,0.17453
7178.79,0.17742
7173,0.17665
7167.22,0.18074
7161.43,0.17536
7155.65,0.17732
7149.86,0.18105
7144.07,0.18058
7138.29,0.17891
7132.5,0.17493
7126.71,0.18124
7120.93,0.17910
7115.14,0.18459
7109.36,0.18410
7103.57,0.17830
7097.78,0.18384
7092,0.17908
7086.21,0.17958
7080.42,0.18395
7074.64,0.17544
7068.85,0.17568
7063.07,0.18379
7057.28,0.18396
7051.49,0.17971
7045.71,0.18022
7039.92,0.18201
7034.13,0.17843
7028.35,0.17995
7022.56,0.18466
7016.78,0.17931
7010.99,0.17994
7005.2,0.18102
6999.42,0.17926
6993.63,0.18208
6987.84,0.17172
6982.06,0.17718
6976.27,0.18333
6970.49,0.18113
6964.7,0.17829
6958.91,0.18308
6953.13,0.17967
6947.34,0.18333
6941.55,0.17460
6935.77,0.17831
6929.98,0.18248
6924.2,0.18012
6918.41,0.18147
6912.62,0.18234
6906.84,0.17886
6901.05,0.18194
6895.26,0.18588
6889.48,0.18673
6883.69,0.18565
6877.91,0.18388
6872.12,0.18500
6866.33,0.18077
6860.55,0.18642
6854.76,0.17959
6848.97,0.18818
6843.19,0.18444
6837.4,0.18614
6831.62,0.18434
6825.83,0.18503
6820.04,0.18136
6814.26,0.18129
6808.47,0.18504
6802.68,0.18751
6796.9,0.18959
6791.11,0.19204
6785.33,0.18691
6779.54,0.18442
6773.75,0.18594
6767.97,0.18759
6762.18,0.19315
6756.39,0.18794
6750.61,0.18554
6744.82,0.18928
6739.04,0.18660
6733.25,0.19325
6727.46,0.18862
6721.68,0.19102
6715.89,0.18709
6710.1,0.18894
6704.32,0.19073
6698.53,0.19388
6692.75,0.19100
6686.96,0.19116
6681.17,0.19282
6675.39,0.19241
6669.6,0.19361
6663.82,0.19624
6658.03,0.19430
6652.24,0.19223
6646.46,0.19015
6640.67,0.19584
6634.88,0.19686
6629.1,0.19550
6623.31,0.20062
6617.53,0.19573
6611.74,0.19588
6605.95,0.19595
6600.17,0.19579
6594.38,0.19696
6588.59,0.20070
6582.81,0.19832
6577.02,0.19566
6571.24,0.19663
6565.45,0.19860
6559.66,0.20155
6553.88,0.19738
6548.09,0.19624
6542.3,0.19643
6536.52,0.19745
6530.73,0.20268
6524.95,0.20145
6519.16,0.20116
6513.37,0.20047
6507.59,0.20130
6501.8,0.19984
6496.01,0.20302
6490.23,0.19666
6484.44,0.19945
6478.66,0.20276
6472.87,0.20099
6467.08,0.20097
6461.3,0.20414
6455.51,0.20321
6449.72,0.20437
6443.94,0.20163
6438.15,0.20488
6432.37,0.20558
6426.58,0.20521
6420.79,0.20541
6415.01,0.20961
6409.22,0.20625
6403.43,0.20520
6397.65,0.20327
6391.86,0.20580
6386.08,0.20544
6380.29,0.20768
6374.5,0.20532
6368.72,0.20772
6362.93,0.20749
6357.14,0.21028
6351.36,0.20973
6345.57,0.20864
6339.79,0.20764
6334,0.21278
6328.21,0.21372
6322.43,0.21194
6316.64,0.21120
6310.85,0.21370
6305.07,0.21426
6299.28,0.21358
6293.5,0.21072
6287.71,0.21151
6281.92,0.21169
6276.14,0.21209
6270.35,0.21263
6264.56,0.21539
6258.78,0.21257
6252.99,0.21736
6247.21,0.21668
6241.42,0.21994
6235.63,0.21809
6229.85,0.21483
6224.06,0.22092
6218.27,0.21853
6212.49,0.21506
6206.7,0.21881
6200.92,0.21980
6195.13,0.22296
6189.34,0.22123
6183.56,0.22132
6177.77,0.22090
6171.98,0.22272
6166.2,0.22357
6160.41,0.22188
6154.63,0.22148
6148.84,0.22335
6143.05,0.22419
6137.27,0.22334
6131.48,0.22783
6125.7,0.22841
6119.91,0.22562
6114.12,0.22751
6108.34,0.22682
6102.55,0.22638
6096.76,0.22658
6090.98,0.22788
6085.19,0.22787
6079.41,0.23004
6073.62,0.22677
6067.83,0.23129
6062.05,0.22754
6056.26,0.22814
6050.47,0.22831
6044.69,0.22964
6038.9,0.23283
6033.12,0.22890
6027.33,0.22924
6021.54,0.22852
6015.76,0.22661
6009.97,0.22626
6004.18,0.22708
5998.4,0.22731
5992.61,0.22616
5986.83,0.22464
5981.04,0.22638
5975.25,0.22563
5969.47,0.22428
5963.68,0.22683
5957.89,0.22543
5952.11,0.22411
5946.32,0.22560
5940.54,0.22550
5934.75,0.22394
5928.96,0.22158
5923.18,0.22038
5917.39,0.21867
5911.6,0.21827
5905.82,0.21778
5900.03,0.21644
5894.25,0.21720
5888.46,0.21353
5882.67,0.21563
5876.89,0.21340
5871.1,0.21651
5865.31,0.21191
5859.53,0.21207
5853.74,0.21390
5847.96,0.21319
5842.17,0.21278
5836.38,0.21332
5830.6,0.21079
5824.81,0.21108
5819.02,0.21034
5813.24,0.20983
5807.45,0.20724
5801.67,0.20901
5795.88,0.20868
5790.09,0.21110
5784.31,0.20909
5778.52,0.20973
5772.73,0.21027
5766.95,0.21250
5761.16,0.21451
5755.38,0.21534
5749.59,0.21705
5743.8,0.21621
5738.02,0.21922
5732.23,0.22216
5726.44,0.21960
5720.66,0.22156
5714.87,0.22010
5709.09,0.22173
5703.3,0.22078
5697.51,0.21994
5691.73,0.22043
5685.94,0.21882
5680.15,0.22057
5674.37,0.21761
5668.58,0.21904
5662.8,0.22185
5657.01,0.22188
5651.22,0.22375
5645.44,0.22725
5639.65,0.22448
5633.87,0.22532
5628.08,0.22771
5622.29,0.22824
5616.51,0.23212
5610.72,0.23192
5604.93,0.23302
5599.15,0.23474
5593.36,0.23510
5587.58,0.23634
5581.79,0.23705
5576,0.23691
5570.22,0.23869
5564.43,0.23913
5558.64,0.23928
5552.86,0.24006
5547.07,0.23811
5541.29,0.23925
5535.5,0.23986
5529.71,0.24205
5523.93,0.24292
5518.14,0.24213
5512.35,0.24256
5506.57,0.24155
5500.78,0.24090
5495,0.24232
5489.21,0.24342
5483.42,0.24285
5477.64,0.24366
5471.85,0.24281
5466.06,0.24502
5460.28,0.24458
5454.49,0.24465
5448.71,0.24559
5442.92,0.24577
5437.13,0.24607
5431.35,0.24864
5425.56,0.24706
5419.77,0.24855
5413.99,0.25040
5408.2,0.25036
5402.42,0.25261
5396.63,0.25286
5390.84,0.25226
5385.06,0.25143
5379.27,0.25326
5373.48,0.25294
5367.7,0.25479
5361.91,0.25470
5356.13,0.25628
5350.34,0.25676
5344.55,0.25543
5338.77,0.25676
5332.98,0.25530
5327.19,0.25463
5321.41,0.25496
5315.62,0.25593
5309.84,0.25587
5304.05,0.25365
5298.26,0.25318
5292.48,0.25222
5286.69,0.25085
5280.9,0.24880
5275.12,0.24610
5269.33,0.24481
5263.55,0.24175
5257.76,0.23927
5251.97,0.23719
5246.19,0.23501
5240.4,0.23491
5234.61,0.23256
5228.83,0.23103
5223.04,0.22889
5217.26,0.22870
5211.47,0.22629
5205.68,0.22576
5199.9,0.22582
5194.11,0.22538
5188.32,0.22512
5182.54,0.22590
5176.75,0.22700
5170.97,0.22739
5165.18,0.22788
5159.39,0.23050
5153.61,0.23159
5147.82,0.23181
5142.03,0.23275
5136.25,0.23268
5130.46,0.23630
5124.68,0.23593
5118.89,0.23693
5113.1,0.24069
5107.32,0.23954
5101.53,0.24093
5095.75,0.24164
5089.96,0.24114
5084.17,0.24224
5078.39,0.24479
5072.6,0.24439
5066.81,0.24513
5061.03,0.24571
5055.24,0.24796
5049.46,0.24898
5043.67,0.25067
5037.88,0.25092
5032.1,0.25106
5026.31,0.25164
5020.52,0.25284
5014.74,0.25291
5008.95,0.25285
5003.17,0.25364
4997.38,0.25379
4991.59,0.25374
4985.81,0.25503
4980.02,0.25396
4974.23,0.25341
4968.45,0.25437
4962.66,0.25405
4956.88,0.25230
4951.09,0.25139
4945.3,0.25302
4939.52,0.24952
4933.73,0.24887
4927.94,0.24859
4922.16,0.24671
4916.37,0.24595
4910.59,0.24357
4904.8,0.24149
4899.01,0.24023
4893.23,0.23803
4887.44,0.23594
4881.65,0.23457
4875.87,0.23186
4870.08,0.23034
4864.3,0.22817
4858.51,0.22703
4852.72,0.22575
4846.94,0.22391
4841.15,0.22259
4835.36,0.22049
4829.58,0.21885
4823.79,0.21847
4818.01,0.21676
4812.22,0.21559
4806.43,0.21421
4800.65,0.21338
4794.86,0.21245
4789.07,0.21278
4783.29,0.21163
4777.5,0.21169
4771.72,0.20972
4765.93,0.20998
4760.14,0.21048
4754.36,0.20979
4748.57,0.20998
4742.78,0.20987
4737,0.20932
4731.21,0.21138
4725.43,0.21120
4719.64,0.21265
4713.85,0.21319
4708.07,0.21277
4702.28,0.21389
4696.49,0.21338
4690.71,0.21394
4684.92,0.21501
4679.14,0.21469
4673.35,0.21611
4667.56,0.21701
4661.78,0.21838
4655.99,0.21840
4650.2,0.21898
4644.42,0.21977
4638.63,0.21985
4632.85,0.21981
4627.06,0.22091
4621.27,0.22143
4615.49,0.22290
4609.7,0.22373
4603.92,0.22450
4598.13,0.22637
4592.34,0.22757
4586.56,0.22796
4580.77,0.22967
4574.98,0.23073
4569.2,0.23206
4563.41,0.23374
4557.63,0.23423
4551.84,0.23414
4546.05,0.23553
4540.27,0.23701
4534.48,0.23635
4528.69,0.23624
4522.91,0.23749
4517.12,0.23648
4511.34,0.23680
4505.55,0.23672
4499.76,0.23573
4493.98,0.23448
4488.19,0.23358
4482.4,0.23157
4476.62,0.23053
4470.83,0.22780
4465.05,0.22405
4459.26,0.22035
4453.47,0.21670
4447.69,0.21237
4441.9,0.20829
4436.11,0.20175
4430.33,0.19540
4424.54,0.19004
4418.76,0.18254
4412.97,0.17576
4407.18,0.17113
4401.4,0.16599
4395.61,0.16246
4389.82,0.16148
4384.04,0.16150
4378.25,0.16074
4372.47,0.16074
4366.68,0.15928
4360.89,0.15799
4355.11,0.15567
4349.32,0.15073
4343.53,0.14581
4337.75,0.14135
4331.96,0.13754
4326.18,0.13762
4320.39,0.14006
4314.6,0.14362
4308.82,0.14670
4303.03,0.14845
4297.24,0.15004
4291.46,0.15041
4285.67,0.15076
4279.89,0.14903
4274.1,0.14644
4268.31,0.14404
4262.53,0.14146
4256.74,0.14010
4250.95,0.14161
4245.17,0.14518
4239.38,0.14856
4233.6,0.15015
4227.81,0.15048
4222.02,0.15162
4216.24,0.15210
4210.45,0.15298
4204.66,0.15319
4198.88,0.15351
4193.09,0.15376
4187.31,0.15406
4181.52,0.15360
4175.73,0.15418
4169.95,0.15433
4164.16,0.15483
4158.37,0.15440
4152.59,0.15450
4146.8,0.15541
4141.02,0.15560
4135.23,0.15607
4129.44,0.15575
4123.66,0.15523
4117.87,0.15418
4112.09,0.15475
4106.3,0.15343
4100.51,0.15175
4094.73,0.15014
4088.94,0.14919
4083.15,0.14718
4077.37,0.14468
4071.58,0.14292
4065.8,0.14097
4060.01,0.13950
4054.22,0.13847
4048.44,0.13817
4042.65,0.13718
4036.86,0.13703
4031.08,0.13643
4025.29,0.13564
4019.51,0.13623
4013.72,0.13675
4007.93,0.13684
4002.15,0.13779
3996.36,0.13912
3990.57,0.13949
3984.79,0.14076
3979,0.14153
3973.22,0.14271
3967.43,0.14431
3961.64,0.14528
3955.86,0.14614
3950.07,0.14763
3944.28,0.14865
3938.5,0.15035
3932.71,0.15128
3926.93,0.15225
3921.14,0.15374
3915.35,0.15523
3909.57,0.15589
3903.78,0.15700
3897.99,0.15831
3892.21,0.15934
3886.42,0.15973
3880.64,0.16075
3874.85,0.16285
3869.06,0.16368
3863.28,0.16519
3857.49,0.16700
3851.7,0.16883
3845.92,0.16979
3840.13,0.17128
3834.35,0.17143
3828.56,0.17218
3822.77,0.17286
3816.99,0.17309
3811.2,0.17434
3805.41,0.17327
3799.63,0.17432
3793.84,0.17473
3788.06,0.17479
3782.27,0.17561
3776.48,0.17573
3770.7,0.17520
3764.91,0.17474
3759.12,0.17451
3753.34,0.17362
3747.55,0.17315
3741.77,0.17263
3735.98,0.17116
3730.19,0.16916
3724.41,0.16675
3718.62,0.16312
3712.83,0.15822
3707.05,0.15043
3701.26,0.14021
3695.48,0.13065
3689.69,0.13012
3683.9,0.12971
3678.12,0.12559
3672.33,0.11914
3666.54,0.11247
3660.76,0.10657
3654.97,0.10007
3649.19,0.09523
3643.4,0.09158
3637.61,0.08785
3631.83,0.08441
3626.04,0.07996
3620.25,0.07644
3614.47,0.07439
3608.68,0.07113
3602.9,0.06948
3597.11,0.06623
3591.32,0.06481
3585.54,0.06317
3579.75,0.06091
3573.97,0.05976
3568.18,0.05841
3562.39,0.05727
3556.61,0.05529
3550.82,0.05440
3545.03,0.05364
3539.25,0.05293
3533.46,0.05197
3527.68,0.05067
3521.89,0.05050
3516.1,0.05052
3510.32,0.05051
3504.53,0.04909
3498.74,0.04824
3492.96,0.04789
3487.17,0.04748
3481.39,0.04737
3475.6,0.04717
3469.81,0.04699
3464.03,0.04587
3458.24,0.04671
3452.45,0.04590
3446.67,0.04581
3440.88,0.04518
3435.1,0.04541
3429.31,0.04486
3423.52,0.04520
3417.74,0.04485
3411.95,0.04483
3406.16,0.04488
3400.38,0.04446
3394.59,0.04421
3388.81,0.04449
3383.02,0.04423
3377.23,0.04395
3371.45,0.04458
3365.66,0.04400
3359.87,0.04420
3354.09,0.04468
3348.3,0.04381
3342.52,0.04393
3336.73,0.04446
3330.94,0.04481
3325.16,0.04483
3319.37,0.04485
3313.58,0.04554
3307.8,0.04549
3302.01,0.04509
3296.23,0.04567
3290.44,0.04701
3284.65,0.04698
3278.87,0.04612
3273.08,0.04686
3267.29,0.04798
3261.51,0.04783
3255.72,0.04867
3249.94,0.04910
3244.15,0.04919
3238.36,0.04883
3232.58,0.05037
3226.79,0.05092
3221,0.05151
3215.22,0.05131
3209.43,0.05197
3203.65,0.05198
3197.86,0.05304
3192.07,0.05276
3186.29,0.05339
3180.5,0.05344
3174.71,0.05512
3168.93,0.05531
3163.14,0.05552
3157.36,0.05639
3151.57,0.05674
3145.78,0.05680
3140,0.05784
3134.21,0.05848
3128.42,0.05816
3122.64,0.05880
3116.85,0.05946
3111.07,0.05998
3105.28,0.05995
3099.49,0.06032
3093.71,0.06033
3087.92,0.06075
3082.14,0.06082
3076.35,0.06076
3070.56,0.06118
3064.78,0.06130
3058.99,0.06127
3053.2,0.06140
3047.42,0.06151
3041.63,0.06191
3035.85,0.06193
3030.06,0.06155
3024.27,0.06144
3018.49,0.06116
3012.7,0.06046
3006.91,0.05989
3001.13,0.05869
2995.34,0.05751
2989.56,0.05632
2983.77,0.05350
2977.98,0.05126
2972.2,0.04951
2966.41,0.04788
2960.62,0.04783
2954.84,0.04829
2949.05,0.04803
2943.27,0.04748
2937.48,0.04732
2931.69,0.04890
2925.91,0.05075
2920.12,0.05331
2914.33,0.05412
2908.55,0.05334
2902.76,0.05307
2896.98,0.05296
2891.19,0.05327
2885.4,0.05223
2879.62,0.05238
2873.83,0.05215
2868.04,0.05234
2862.26,0.05252
2856.47,0.05340
2850.69,0.05532
2844.9,0.05720
2839.11,0.05900
2833.33,0.06012
2827.54,0.06185
2821.75,0.06323
2815.97,0.06528
2810.18,0.06632
2804.4,0.06691
2798.61,0.06864
2792.82,0.06889
2787.04,0.06990
2781.25,0.07048
2775.46,0.07141
2769.68,0.07232
2763.89,0.07246
2758.11,0.07268
2752.32,0.07268
2746.53,0.07232
2740.75,0.07266
2734.96,0.07240
2729.17,0.07198
2723.39,0.07273
2717.6,0.07328
2711.82,0.07449
2706.03,0.07533
2700.24,0.07624
2694.46,0.07681
2688.67,0.07793
2682.88,0.07796
2677.1,0.07858
2671.31,0.07971
2665.53,0.07967
2659.74,0.08008
2653.95,0.08085
2648.17,0.08150
2642.38,0.08200
2636.59,0.08267
2630.81,0.08365
2625.02,0.08462
2619.24,0.08494
2613.45,0.08594
2607.66,0.08627
2601.88,0.08740
2596.09,0.08787
2590.3,0.08881
2584.52,0.08921
2578.73,0.08955
2572.95,0.09026
2567.16,0.09083
2561.37,0.09098
2555.59,0.09116
2549.8,0.09196
2544.02,0.09188
2538.23,0.09244
2532.44,0.09260
2526.66,0.09294
2520.87,0.09370
2515.08,0.09453
2509.3,0.09518
2503.51,0.09659
2497.73,0.09826
2491.94,0.09939
2486.15,0.10053
2480.37,0.10170
2474.58,0.10283
2468.79,0.10363
2463.01,0.10416
2457.22,0.10508
2451.44,0.10598
2445.65,0.10728
2439.86,0.10867
2434.08,0.10932
2428.29,0.11048
2422.5,0.11170
2416.72,0.11266
2410.93,0.11390
2405.15,0.11472
2399.36,0.11586
2393.57,0.11722
2387.79,0.11753
2382,0.11854
2376.21,0.11981
2370.43,0.12068
2364.64,0.12179
2358.86,0.12284
2353.07,0.12369
2347.28,0.12388
2341.5,0.12524
2335.71,0.12561
2329.92,0.12583
2324.14,0.12631
2318.35,0.12687
2312.57,0.12734
2306.78,0.12760
2300.99,0.12787
2295.21,0.12778
2289.42,0.12801
2283.63,0.12803
2277.85,0.12816
2272.06,0.12797
2266.28,0.12720
2260.49,0.12644
2254.7,0.12609
2248.92,0.12585
2243.13,0.12545
2237.34,0.12548
2231.56,0.12562
2225.77,0.12583
2219.99,0.12612
2214.2,0.12667
2208.41,0.12733
2202.63,0.12706
2196.84,0.12616
2191.05,0.12502
2185.27,0.12442
2179.48,0.12259
2173.7,0.12086
2167.91,0.11931
2162.12,0.11819
2156.34,0.11715
2150.55,0.11651
2144.76,0.11568
2138.98,0.11561
2133.19,0.11571
2127.41,0.11661
2121.62,0.11739
2115.83,0.11827
2110.05,0.11933
2104.26,0.12031
2098.47,0.12108
2092.69,0.12155
2086.9,0.12253
2081.12,0.12262
2075.33,0.12231
2069.54,0.12188
2063.76,0.12164
2057.97,0.12170
2052.19,0.12170
2046.4,0.12203
2040.61,0.12304
2034.83,0.12425
2029.04,0.12611
2023.25,0.12804
2017.47,0.13021
2011.68,0.13241
2005.9,0.13412
2000.11,0.13516
1994.32,0.13640
1988.54,0.13825
1982.75,0.13939
1976.96,0.13971
1971.18,0.13982
1965.39,0.13994
1959.61,0.14038
1953.82,0.14052
1948.03,0.14054
1942.25,0.14100
1936.46,0.14194
1930.67,0.14241
1924.89,0.14211
1919.1,0.14187
1913.32,0.14104
1907.53,0.14048
1901.74,0.14058
1895.96,0.14061
1890.17,0.14096
1884.38,0.14137
1878.6,0.14095
1872.81,0.14091
1867.03,0.14076
1861.24,0.14008
1855.45,0.13933
1849.67,0.13841
1843.88,0.13764
1838.09,0.13683
1832.31,0.13543
1826.52,0.13428
1820.74,0.13244
1814.95,0.13029
1809.16,0.12722
1803.38,0.12309
1797.59,0.11811
1791.8,0.11472
1786.02,0.11115
1780.23,0.10619
1774.45,0.09950
1768.66,0.09140
1762.87,0.08235
1757.09,0.07559
1751.3,0.07099
1745.51,0.06794
1739.73,0.06616
1733.94,0.06591
1728.16,0.06614
1722.37,0.06694
1716.58,0.06692
1710.8,0.06698
1705.01,0.06640
1699.22,0.06529
1693.44,0.06448
1687.65,0.06352
1681.87,0.06184
1676.08,0.06016
1670.29,0.05916
1664.51,0.05725
1658.72,0.05702
1652.93,0.05669
1647.15,0.05592
1641.36,0.05571
1635.58,0.05510
1629.79,0.05408
1624,0.05344
1618.22,0.05248
1612.43,0.05143
1606.64,0.05074
1600.86,0.05025
1595.07,0.04998
1589.29,0.05067
1583.5,0.05237
1577.71,0.05346
1571.93,0.05445
1566.14,0.05564
1560.35,0.05626
1554.57,0.05693
1548.78,0.05847
1543,0.05994
1537.21,0.06039
1531.42,0.06054
1525.64,0.05887
1519.85,0.05552
1514.07,0.05250
1508.28,0.05177
1502.49,0.05214
1496.71,0.05355
1490.92,0.05352
1485.13,0.05220
1479.35,0.04964
1473.56,0.04704
1467.78,0.04451
1461.99,0.04492
1456.2,0.04594
1450.42,0.04601
1444.63,0.04694
1438.84,0.04707
1433.06,0.04608
1427.27,0.04595
1421.49,0.04722
1415.7,0.04810
1409.91,0.04899
1404.13,0.04937
1398.34,0.04878
1392.55,0.04815
1386.77,0.04646
1380.98,0.04482
1375.2,0.04489
1369.41,0.04515
1363.62,0.04578
1357.84,0.04631
1352.05,0.04605
1346.26,0.04613
1340.48,0.04535
1334.69,0.04488
1328.91,0.04505
1323.12,0.04501
1317.33,0.04470
1311.55,0.04568
1305.76,0.04732
1299.97,0.04782
1294.19,0.04791
1288.4,0.04700
1282.62,0.04598
1276.83,0.04572
1271.04,0.04572
1265.26,0.04624
1259.47,0.04621
1253.68,0.04616
1247.9,0.04583
1242.11,0.04569
1236.33,0.04611
1230.54,0.04606
1224.75,0.04694
1218.97,0.04759
1213.18,0.04798
1207.39,0.04726
1201.61,0.04754
1195.82,0.04875
1190.04,0.04925
1184.25,0.04869
1178.46,0.04779
1172.68,0.04496
1166.89,0.04363
1161.1,0.04357
1155.32,0.04273
1149.53,0.04130
1143.75,0.04051
1137.96,0.03845
1132.17,0.03767
1126.39,0.03686
1120.6,0.03667
1114.81,0.03761
1109.03,0.03927
1103.24,0.03950
1097.46,0.03971
1091.67,0.03891
1085.88,0.03918
1080.1,0.04092
1074.31,0.04348
1068.52,0.04768
1062.74,0.05547
1056.95,0.06032
1051.17,0.05985
1045.38,0.05799
1039.59,0.06055
1033.81,0.06594
1028.02,0.06688
1022.24,0.06540
1016.45,0.06589
1010.66,0.06689
1004.88,0.06661
999.09,0.06610
993.304,0.06735
987.518,0.06871
981.731,0.07063
975.945,0.07243
970.159,0.07243
964.373,0.07396
958.586,0.07642
952.8,0.07806
947.014,0.07864
941.228,0.07829
935.441,0.07857
929.655,0.07861
923.869,0.07761
918.083,0.07625
912.297,0.07292
906.51,0.07007
900.724,0.06795
894.938,0.06786
889.152,0.07038
883.365,0.07212
877.579,0.07109
871.793,0.07152
866.007,0.07255
860.22,0.07297
854.434,0.07233
848.648,0.07191
842.862,0.07180
837.075,0.07094
831.289,0.07012
825.503,0.06865
819.717,0.06719
813.931,0.06598
808.144,0.06596
802.358,0.06564
796.572,0.06617
790.786,0.06538
784.999,0.06497
779.213,0.06368
773.427,0.06273
767.641,0.06134
761.854,0.06015
756.068,0.05867
750.282,0.05780
744.496,0.05694
738.709,0.05528
732.923,0.05404
727.137,0.05344
721.351,0.05305
715.565,0.05281
709.778,0.05293
703.992,0.05215
698.206,0.05216
692.42,0.05224
686.633,0.05027
680.847,0.04980
675.061,0.04819
669.275,0.04804
663.488,0.05072
657.702,0.04935
651.916,0.05065
646.13,0.04954
640.343,0.04913
634.557,0.04862
628.771,0.04991
622.985,0.04919
617.198,0.04970
611.412,0.05076
605.626,0.05244
599.84,0.05109