File: 01_Data/Concrete_Block/FTIR/IS/Concrete_Block_IS_S_221214_R7.dpt
7497.03,0.27538
7491.25,0.28187
7485.46,0.28281
7479.67,0.26485
7473.89,0.27522
7468.1,0.27561
7462.32,0.28188
7456.53,0.27588
7450.74,0.28103
7444.96,0.27548
7439.17,0.28369
7433.38,0.28777
7427.6,0.27654
7421.81,0.27356
7416.03,0.26989
7410.24,0.27474
7404.45,0.27975
7398.67,0.26608
7392.88,0.27561
7387.09,0.27561
7381.31,0.27824
7375.52,0.27024
7369.74,0.26781
7363.95,0.26705
7358.16,0.27458
7352.38,0.27785
7346.59,0.27638
7340.8,0.27843
7335.02,0.27804
7329.23,0.27318
7323.45,0.27716
7317.66,0.27165
7311.87,0.26882
7306.09,0.27040
7300.3,0.27439
7294.51,0.27774
7288.73,0.27764
7282.94,0.27733
7277.16,0.27614
7271.37,0.27603
7265.58,0.27573
7259.8,0.27475
7254.01,0.27055
7248.22,0.27837
7242.44,0.27168
7236.65,0.27005
7230.87,0.27864
7225.08,0.28200
7219.29,0.27888
7213.51,0.26968
7207.72,0.27447
7201.93,0.28110
7196.15,0.26544
7190.36,0.27478
7184.58,0.27922
7178.79,0.27425
7173,0.27395
7167.22,0.26943
7161.43,0.27563
7155.65,0.26956
7149.86,0.27313
7144.07,0.27527
7138.29,0.27359
7132.5,0.28361
7126.71,0.27610
7120.93,0.27165
7115.14,0.26792
7109.36,0.27280
7103.57,0.27036
7097.78,0.26730
7092,0.26799
7086.21,0.27184
7080.42,0.26978
7074.64,0.27139
7068.85,0.27925
7063.07,0.27020
7057.28,0.28321
7051.49,0.27685
7045.71,0.27652
7039.92,0.27811
7034.13,0.26824
7028.35,0.26917
7022.56,0.27777
7016.78,0.27008
7010.99,0.27282
7005.2,0.27710
6999.42,0.27616
6993.63,0.26979
6987.84,0.27058
6982.06,0.27397
6976.27,0.27082
6970.49,0.26852
6964.7,0.27035
6958.91,0.27375
6953.13,0.27143
6947.34,0.26872
6941.55,0.27233
6935.77,0.27663
6929.98,0.27398
6924.2,0.27618
6918.41,0.27155
6912.62,0.26571
6906.84,0.26627
6901.05,0.27579
6895.26,0.27771
6889.48,0.28024
6883.69,0.26923
6877.91,0.27595
6872.12,0.27769
6866.33,0.27351
6860.55,0.27328
6854.76,0.27147
6848.97,0.26877
6843.19,0.27408
6837.4,0.27354
6831.62,0.27467
6825.83,0.27085
6820.04,0.27400
6814.26,0.27270
6808.47,0.27544
6802.68,0.27703
6796.9,0.27549
6791.11,0.27549
6785.33,0.27566
6779.54,0.27704
6773.75,0.27363
6767.97,0.27393
6762.18,0.27284
6756.39,0.26924
6750.61,0.26922
6744.82,0.27357
6739.04,0.27566
6733.25,0.27918
6727.46,0.27216
6721.68,0.27238
6715.89,0.27307
6710.1,0.27665
6704.32,0.27534
6698.53,0.27107
6692.75,0.27418
6686.96,0.27016
6681.17,0.27216
6675.39,0.27644
6669.6,0.27946
6663.82,0.27378
6658.03,0.27579
6652.24,0.27536
6646.46,0.27377
6640.67,0.27675
6634.88,0.27258
6629.1,0.27558
6623.31,0.27785
6617.53,0.27915
6611.74,0.27669
6605.95,0.26922
6600.17,0.27455
6594.38,0.27665
6588.59,0.27630
6582.81,0.27436
6577.02,0.28130
6571.24,0.27368
6565.45,0.27489
6559.66,0.27924
6553.88,0.27714
6548.09,0.27454
6542.3,0.27611
6536.52,0.27811
6530.73,0.28108
6524.95,0.27619
6519.16,0.27828
6513.37,0.27738
6507.59,0.27492
6501.8,0.28035
6496.01,0.27782
6490.23,0.27548
6484.44,0.27363
6478.66,0.27418
6472.87,0.27512
6467.08,0.27143
6461.3,0.27602
6455.51,0.27940
6449.72,0.27566
6443.94,0.27676
6438.15,0.27586
6432.37,0.27415
6426.58,0.27365
6420.79,0.27707
6415.01,0.27910
6409.22,0.27703
6403.43,0.27508
6397.65,0.27510
6391.86,0.27519
6386.08,0.28103
6380.29,0.27601
6374.5,0.27200
6368.72,0.27731
6362.93,0.27561
6357.14,0.27269
6351.36,0.27632
6345.57,0.27420
6339.79,0.27649
6334,0.27623
6328.21,0.27529
6322.43,0.28118
6316.64,0.27844
6310.85,0.27462
6305.07,0.27255
6299.28,0.27785
6293.5,0.27838
6287.71,0.27719
6281.92,0.27595
6276.14,0.27610
6270.35,0.27724
6264.56,0.27399
6258.78,0.27643
6252.99,0.27415
6247.21,0.27827
6241.42,0.27430
6235.63,0.27330
6229.85,0.27354
6224.06,0.27601
6218.27,0.27308
6212.49,0.27321
6206.7,0.27526
6200.92,0.27177
6195.13,0.27695
6189.34,0.27598
6183.56,0.27709
6177.77,0.27511
6171.98,0.27587
6166.2,0.27297
6160.41,0.27475
6154.63,0.27587
6148.84,0.27444
6143.05,0.27626
6137.27,0.27482
6131.48,0.27689
6125.7,0.27667
6119.91,0.27338
6114.12,0.27304
6108.34,0.27498
6102.55,0.27500
6096.76,0.27354
6090.98,0.27421
6085.19,0.27486
6079.41,0.27610
6073.62,0.27493
6067.83,0.27502
6062.05,0.27438
6056.26,0.27401
6050.47,0.27470
6044.69,0.27594
6038.9,0.27691
6033.12,0.27626
6027.33,0.27505
6021.54,0.27388
6015.76,0.27339
6009.97,0.27503
6004.18,0.27547
5998.4,0.27497
5992.61,0.27396
5986.83,0.27550
5981.04,0.27338
5975.25,0.27731
5969.47,0.27782
5963.68,0.27633
5957.89,0.27564
5952.11,0.27488
5946.32,0.27508
5940.54,0.27763
5934.75,0.27426
5928.96,0.27347
5923.18,0.27652
5917.39,0.27517
5911.6,0.27303
5905.82,0.27478
5900.03,0.27406
5894.25,0.27570
5888.46,0.27499
5882.67,0.27610
5876.89,0.27457
5871.1,0.27433
5865.31,0.27248
5859.53,0.27401
5853.74,0.27392
5847.96,0.27560
5842.17,0.27483
5836.38,0.27427
5830.6,0.27600
5824.81,0.27421
5819.02,0.27337
5813.24,0.27467
5807.45,0.27556
5801.67,0.27866
5795.88,0.27612
5790.09,0.27441
5784.31,0.27593
5778.52,0.27295
5772.73,0.27488
5766.95,0.27466
5761.16,0.27317
5755.38,0.27380
5749.59,0.27335
5743.8,0.27476
5738.02,0.27618
5732.23,0.27308
5726.44,0.27755
5720.66,0.27350
5714.87,0.27624
5709.09,0.27217
5703.3,0.27302
5697.51,0.27474
5691.73,0.27377
5685.94,0.27308
5680.15,0.27386
5674.37,0.27395
5668.58,0.27430
5662.8,0.27313
5657.01,0.27276
5651.22,0.27552
5645.44,0.27482
5639.65,0.27383
5633.87,0.27366
5628.08,0.27308
5622.29,0.27252
5616.51,0.27494
5610.72,0.27329
5604.93,0.27449
5599.15,0.27460
5593.36,0.27365
5587.58,0.27523
5581.79,0.27497
5576,0.27379
5570.22,0.27381
5564.43,0.27366
5558.64,0.27330
5552.86,0.27360
5547.07,0.27371
5541.29,0.27238
5535.5,0.27242
5529.71,0.27367
5523.93,0.27365
5518.14,0.27441
5512.35,0.27506
5506.57,0.27373
5500.78,0.27406
5495,0.27442
5489.21,0.27359
5483.42,0.27261
5477.64,0.27133
5471.85,0.27369
5466.06,0.27319
5460.28,0.27200
5454.49,0.27282
5448.71,0.27287
5442.92,0.27311
5437.13,0.27269
5431.35,0.27254
5425.56,0.27317
5419.77,0.27237
5413.99,0.27209
5408.2,0.27174
5402.42,0.27259
5396.63,0.27157
5390.84,0.27189
5385.06,0.27096
5379.27,0.27132
5373.48,0.27050
5367.7,0.27028
5361.91,0.27024
5356.13,0.26895
5350.34,0.26993
5344.55,0.26977
5338.77,0.27034
5332.98,0.26906
5327.19,0.26885
5321.41,0.26759
5315.62,0.26857
5309.84,0.26691
5304.05,0.26579
5298.26,0.26583
5292.48,0.26407
5286.69,0.26423
5280.9,0.26393
5275.12,0.26134
5269.33,0.25990
5263.55,0.25843
5257.76,0.25668
5251.97,0.25647
5246.19,0.25393
5240.4,0.25355
5234.61,0.25318
5228.83,0.25303
5223.04,0.25274
5217.26,0.25045
5211.47,0.25002
5205.68,0.24911
5199.9,0.25039
5194.11,0.24898
5188.32,0.24965
5182.54,0.24971
5176.75,0.24800
5170.97,0.24985
5165.18,0.24979
5159.39,0.24844
5153.61,0.24872
5147.82,0.24871
5142.03,0.25100
5136.25,0.25062
5130.46,0.25019
5124.68,0.24948
5118.89,0.25051
5113.1,0.25251
5107.32,0.25204
5101.53,0.25120
5095.75,0.25192
5089.96,0.25166
5084.17,0.25183
5078.39,0.25403
5072.6,0.25287
5066.81,0.25403
5061.03,0.25342
5055.24,0.25478
5049.46,0.25504
5043.67,0.25334
5037.88,0.25555
5032.1,0.25474
5026.31,0.25591
5020.52,0.25642
5014.74,0.25419
5008.95,0.25606
5003.17,0.25658
4997.38,0.25719
4991.59,0.25733
4985.81,0.25926
4980.02,0.25824
4974.23,0.25887
4968.45,0.25832
4962.66,0.25913
4956.88,0.25942
4951.09,0.26019
4945.3,0.25963
4939.52,0.26004
4933.73,0.26110
4927.94,0.26085
4922.16,0.26126
4916.37,0.26173
4910.59,0.26120
4904.8,0.26096
4899.01,0.26193
4893.23,0.26237
4887.44,0.26125
4881.65,0.26223
4875.87,0.26241
4870.08,0.26095
4864.3,0.26245
4858.51,0.26275
4852.72,0.26154
4846.94,0.26213
4841.15,0.26236
4835.36,0.26171
4829.58,0.26311
4823.79,0.26310
4818.01,0.26332
4812.22,0.26196
4806.43,0.26240
4800.65,0.26263
4794.86,0.26232
4789.07,0.26206
4783.29,0.26247
4777.5,0.26230
4771.72,0.26274
4765.93,0.26155
4760.14,0.26268
4754.36,0.26288
4748.57,0.26282
4742.78,0.26245
4737,0.26291
4731.21,0.26312
4725.43,0.26306
4719.64,0.26167
4713.85,0.26151
4708.07,0.26219
4702.28,0.26121
4696.49,0.26191
4690.71,0.26216
4684.92,0.26165
4679.14,0.26044
4673.35,0.26060
4667.56,0.26179
4661.78,0.26016
4655.99,0.26026
4650.2,0.26041
4644.42,0.26040
4638.63,0.25971
4632.85,0.26010
4627.06,0.25951
4621.27,0.25978
4615.49,0.25995
4609.7,0.25923
4603.92,0.25942
4598.13,0.25902
4592.34,0.25939
4586.56,0.25861
4580.77,0.25786
4574.98,0.25859
4569.2,0.25785
4563.41,0.25791
4557.63,0.25719
4551.84,0.25740
4546.05,0.25569
4540.27,0.25503
4534.48,0.25342
4528.69,0.25249
4522.91,0.25206
4517.12,0.25278
4511.34,0.25223
4505.55,0.25197
4499.76,0.25157
4493.98,0.25141
4488.19,0.25028
4482.4,0.25046
4476.62,0.25054
4470.83,0.25071
4465.05,0.25005
4459.26,0.25074
4453.47,0.25055
4447.69,0.25004
4441.9,0.24946
4436.11,0.24880
4430.33,0.24855
4424.54,0.24788
4418.76,0.24677
4412.97,0.24581
4407.18,0.24527
4401.4,0.24438
4395.61,0.24406
4389.82,0.24356
4384.04,0.24249
4378.25,0.24195
4372.47,0.24236
4366.68,0.24179
4360.89,0.24069
4355.11,0.23978
4349.32,0.23891
4343.53,0.23886
4337.75,0.23795
4331.96,0.23705
4326.18,0.23601
4320.39,0.23529
4314.6,0.23493
4308.82,0.23456
4303.03,0.23351
4297.24,0.23300
4291.46,0.23242
4285.67,0.23320
4279.89,0.23393
4274.1,0.23534
4268.31,0.23539
4262.53,0.23667
4256.74,0.23910
4250.95,0.23993
4245.17,0.24064
4239.38,0.24211
4233.6,0.24292
4227.81,0.24432
4222.02,0.24416
4216.24,0.24501
4210.45,0.24447
4204.66,0.24338
4198.88,0.24300
4193.09,0.24303
4187.31,0.24214
4181.52,0.24153
4175.73,0.24111
4169.95,0.24008
4164.16,0.23970
4158.37,0.23891
4152.59,0.23803
4146.8,0.23773
4141.02,0.23701
4135.23,0.23553
4129.44,0.23452
4123.66,0.23300
4117.87,0.23201
4112.09,0.23043
4106.3,0.22855
4100.51,0.22706
4094.73,0.22594
4088.94,0.22365
4083.15,0.22184
4077.37,0.22049
4071.58,0.21906
4065.8,0.21808
4060.01,0.21706
4054.22,0.21540
4048.44,0.21476
4042.65,0.21416
4036.86,0.21197
4031.08,0.21091
4025.29,0.20918
4019.51,0.20816
4013.72,0.20663
4007.93,0.20580
4002.15,0.20461
3996.36,0.20293
3990.57,0.20253
3984.79,0.20139
3979,0.20029
3973.22,0.19977
3967.43,0.19991
3961.64,0.19898
3955.86,0.19977
3950.07,0.19979
3944.28,0.20161
3938.5,0.20368
3932.71,0.20655
3926.93,0.20949
3921.14,0.21293
3915.35,0.21499
3909.57,0.21770
3903.78,0.21852
3897.99,0.22035
3892.21,0.21982
3886.42,0.22108
3880.64,0.22121
3874.85,0.22150
3869.06,0.22115
3863.28,0.22119
3857.49,0.22114
3851.7,0.22039
3845.92,0.22030
3840.13,0.22048
3834.35,0.22048
3828.56,0.21994
3822.77,0.21929
3816.99,0.21911
3811.2,0.21837
3805.41,0.21707
3799.63,0.21590
3793.84,0.21497
3788.06,0.21353
3782.27,0.21296
3776.48,0.21147
3770.7,0.20930
3764.91,0.20742
3759.12,0.20561
3753.34,0.20257
3747.55,0.19855
3741.77,0.19237
3735.98,0.18752
3730.19,0.18140
3724.41,0.17307
3718.62,0.16385
3712.83,0.15366
3707.05,0.14306
3701.26,0.12975
3695.48,0.12122
3689.69,0.12219
3683.9,0.12191
3678.12,0.11758
3672.33,0.11131
3666.54,0.10538
3660.76,0.10051
3654.97,0.09408
3649.19,0.08974
3643.4,0.08614
3637.61,0.08252
3631.83,0.07901
3626.04,0.07631
3620.25,0.07274
3614.47,0.07278
3608.68,0.07179
3602.9,0.07115
3597.11,0.07128
3591.32,0.07027
3585.54,0.07090
3579.75,0.07082
3573.97,0.07017
3568.18,0.06961
3562.39,0.06945
3556.61,0.06868
3550.82,0.06809
3545.03,0.06731
3539.25,0.06724
3533.46,0.06643
3527.68,0.06589
3521.89,0.06567
3516.1,0.06540
3510.32,0.06557
3504.53,0.06483
3498.74,0.06388
3492.96,0.06379
3487.17,0.06335
3481.39,0.06392
3475.6,0.06329
3469.81,0.06290
3464.03,0.06284
3458.24,0.06267
3452.45,0.06170
3446.67,0.06183
3440.88,0.06191
3435.1,0.06190
3429.31,0.06119
3423.52,0.06143
3417.74,0.06020
3411.95,0.06005
3406.16,0.06023
3400.38,0.06031
3394.59,0.06028
3388.81,0.06069
3383.02,0.06086
3377.23,0.06109
3371.45,0.06225
3365.66,0.06144
3359.87,0.06144
3354.09,0.06155
3348.3,0.06242
3342.52,0.06269
3336.73,0.06224
3330.94,0.06266
3325.16,0.06265
3319.37,0.06396
3313.58,0.06238
3307.8,0.06321
3302.01,0.06283
3296.23,0.06434
3290.44,0.06379
3284.65,0.06459
3278.87,0.06405
3273.08,0.06429
3267.29,0.06454
3261.51,0.06530
3255.72,0.06522
3249.94,0.06603
3244.15,0.06623
3238.36,0.06537
3232.58,0.06585
3226.79,0.06734
3221,0.06761
3215.22,0.06785
3209.43,0.06829
3203.65,0.06860
3197.86,0.06979
3192.07,0.07018
3186.29,0.07073
3180.5,0.07116
3174.71,0.07157
3168.93,0.07184
3163.14,0.07213
3157.36,0.07302
3151.57,0.07407
3145.78,0.07437
3140,0.07478
3134.21,0.07561
3128.42,0.07631
3122.64,0.07692
3116.85,0.07726
3111.07,0.07745
3105.28,0.07855
3099.49,0.07754
3093.71,0.07866
3087.92,0.07900
3082.14,0.07952
3076.35,0.07942
3070.56,0.07928
3064.78,0.08016
3058.99,0.08001
3053.2,0.07970
3047.42,0.07889
3041.63,0.07820
3035.85,0.07614
3030.06,0.07300
3024.27,0.07077
3018.49,0.07076
3012.7,0.07144
3006.91,0.07127
3001.13,0.07135
2995.34,0.07019
2989.56,0.06758
2983.77,0.06731
2977.98,0.06816
2972.2,0.06964
2966.41,0.06964
2960.62,0.07002
2954.84,0.06973
2949.05,0.07004
2943.27,0.06998
2937.48,0.06993
2931.69,0.06852
2925.91,0.06935
2920.12,0.06902
2914.33,0.06891
2908.55,0.06846
2902.76,0.06745
2896.98,0.06689
2891.19,0.06754
2885.4,0.06685
2879.62,0.06556
2873.83,0.06614
2868.04,0.06872
2862.26,0.07100
2856.47,0.07418
2850.69,0.07791
2844.9,0.08301
2839.11,0.08788
2833.33,0.09245
2827.54,0.09678
2821.75,0.09849
2815.97,0.09998
2810.18,0.10275
2804.4,0.10524
2798.61,0.10634
2792.82,0.10806
2787.04,0.10998
2781.25,0.11113
2775.46,0.11257
2769.68,0.11321
2763.89,0.11425
2758.11,0.11471
2752.32,0.11564
2746.53,0.11630
2740.75,0.11657
2734.96,0.11742
2729.17,0.11747
2723.39,0.11752
2717.6,0.11768
2711.82,0.11772
2706.03,0.11734
2700.24,0.11688
2694.46,0.11651
2688.67,0.11586
2682.88,0.11509
2677.1,0.11405
2671.31,0.11105
2665.53,0.10726
2659.74,0.10356
2653.95,0.10031
2648.17,0.09716
2642.38,0.09361
2636.59,0.09009
2630.81,0.08635
2625.02,0.08391
2619.24,0.08449
2613.45,0.08426
2607.66,0.08388
2601.88,0.08289
2596.09,0.08142
2590.3,0.07851
2584.52,0.07619
2578.73,0.07563
2572.95,0.07501
2567.16,0.07381
2561.37,0.07210
2555.59,0.06950
2549.8,0.06685
2544.02,0.06559
2538.23,0.06390
2532.44,0.06091
2526.66,0.05780
2520.87,0.05645
2515.08,0.05774
2509.3,0.06077
2503.51,0.06531
2497.73,0.07194
2491.94,0.07860
2486.15,0.08535
2480.37,0.09135
2474.58,0.09685
2468.79,0.10187
2463.01,0.10579
2457.22,0.10884
2451.44,0.11123
2445.65,0.11328
2439.86,0.11476
2434.08,0.11562
2428.29,0.11638
2422.5,0.11731
2416.72,0.11725
2410.93,0.11755
2405.15,0.11851
2399.36,0.11886
2393.57,0.11936
2387.79,0.11930
2382,0.11940
2376.21,0.11861
2370.43,0.11789
2364.64,0.11686
2358.86,0.11697
2353.07,0.11641
2347.28,0.11576
2341.5,0.11481
2335.71,0.11411
2329.92,0.11402
2324.14,0.11368
2318.35,0.11283
2312.57,0.11274
2306.78,0.11321
2300.99,0.11390
2295.21,0.11507
2289.42,0.11432
2283.63,0.11265
2277.85,0.11094
2272.06,0.10936
2266.28,0.10779
2260.49,0.10558
2254.7,0.10401
2248.92,0.10357
2243.13,0.10357
2237.34,0.10370
2231.56,0.10368
2225.77,0.10372
2219.99,0.10281
2214.2,0.10177
2208.41,0.10115
2202.63,0.10052
2196.84,0.10015
2191.05,0.09857
2185.27,0.09740
2179.48,0.09601
2173.7,0.09404
2167.91,0.09244
2162.12,0.09181
2156.34,0.09118
2150.55,0.08975
2144.76,0.08972
2138.98,0.09152
2133.19,0.09331
2127.41,0.09611
2121.62,0.09840
2115.83,0.10043
2110.05,0.10115
2104.26,0.10189
2098.47,0.10176
2092.69,0.10231
2086.9,0.10117
2081.12,0.10159
2075.33,0.10096
2069.54,0.10025
2063.76,0.10029
2057.97,0.09899
2052.19,0.09827
2046.4,0.09725
2040.61,0.09548
2034.83,0.09380
2029.04,0.09305
2023.25,0.09212
2017.47,0.09141
2011.68,0.09018
2005.9,0.08969
2000.11,0.08866
1994.32,0.08792
1988.54,0.08720
1982.75,0.08577
1976.96,0.08318
1971.18,0.08285
1965.39,0.08373
1959.61,0.08358
1953.82,0.08416
1948.03,0.08377
1942.25,0.08298
1936.46,0.08234
1930.67,0.08142
1924.89,0.08032
1919.1,0.07894
1913.32,0.07762
1907.53,0.07520
1901.74,0.07349
1895.96,0.07162
1890.17,0.06981
1884.38,0.06876
1878.6,0.06740
1872.81,0.06609
1867.03,0.06512
1861.24,0.06401
1855.45,0.06314
1849.67,0.06205
1843.88,0.05969
1838.09,0.05664
1832.31,0.05307
1826.52,0.04875
1820.74,0.04572
1814.95,0.04409
1809.16,0.04274
1803.38,0.04010
1797.59,0.03738
1791.8,0.03827
1786.02,0.04274
1780.23,0.04505
1774.45,0.04664
1768.66,0.04748
1762.87,0.04763
1757.09,0.04729
1751.3,0.04663
1745.51,0.04550
1739.73,0.04497
1733.94,0.04456
1728.16,0.04433
1722.37,0.04359
1716.58,0.04319
1710.8,0.04284
1705.01,0.04150
1699.22,0.04105
1693.44,0.03958
1687.65,0.03896
1681.87,0.03768
1676.08,0.03751
1670.29,0.03749
1664.51,0.03734
1658.72,0.03715
1652.93,0.03723
1647.15,0.03706
1641.36,0.03759
1635.58,0.03923
1629.79,0.04023
1624,0.04235
1618.22,0.04442
1612.43,0.04707
1606.64,0.04998
1600.86,0.05417
1595.07,0.05988
1589.29,0.06755
1583.5,0.07917
1577.71,0.09397
1571.93,0.10948
1566.14,0.11744
1560.35,0.12085
1554.57,0.12246
1548.78,0.12101
1543,0.11688
1537.21,0.11351
1531.42,0.11097
1525.64,0.10897
1519.85,0.10652
1514.07,0.10365
1508.28,0.10158
1502.49,0.09902
1496.71,0.09737
1490.92,0.09616
1485.13,0.09447
1479.35,0.09294
1473.56,0.09169
1467.78,0.09121
1461.99,0.09014
1456.2,0.08896
1450.42,0.08790
1444.63,0.08690
1438.84,0.08754
1433.06,0.08778
1427.27,0.08867
1421.49,0.08698
1415.7,0.08383
1409.91,0.08158
1404.13,0.07781
1398.34,0.07447
1392.55,0.07229
1386.77,0.07169
1380.98,0.07160
1375.2,0.07247
1369.41,0.07436
1363.62,0.07672
1357.84,0.07892
1352.05,0.08089
1346.26,0.08195
1340.48,0.08270
1334.69,0.08374
1328.91,0.08468
1323.12,0.08542
1317.33,0.08661
1311.55,0.08723
1305.76,0.08760
1299.97,0.08840
1294.19,0.08923
1288.4,0.08997
1282.62,0.09084
1276.83,0.09166
1271.04,0.09194
1265.26,0.09134
1259.47,0.09258
1253.68,0.09351
1247.9,0.09285
1242.11,0.09314
1236.33,0.09368
1230.54,0.09447
1224.75,0.09582
1218.97,0.09598
1213.18,0.09413
1207.39,0.09037
1201.61,0.08617
1195.82,0.08165
1190.04,0.07844
1184.25,0.07558
1178.46,0.07380
1172.68,0.07256
1166.89,0.07034
1161.1,0.06592
1155.32,0.06738
1149.53,0.06943
1143.75,0.07019
1137.96,0.07061
1132.17,0.07019
1126.39,0.07037
1120.6,0.06965
1114.81,0.06980
1109.03,0.06953
1103.24,0.06882
1097.46,0.06798
1091.67,0.06806
1085.88,0.06772
1080.1,0.06857
1074.31,0.06739
1068.52,0.06646
1062.74,0.06248
1056.95,0.05915
1051.17,0.05660
1045.38,0.05471
1039.59,0.05295
1033.81,0.05187
1028.02,0.05059
1022.24,0.05057
1016.45,0.05045
1010.66,0.05072
1004.88,0.05029
999.09,0.05004
993.304,0.05010
987.518,0.05041
981.731,0.05111
975.945,0.05183
970.159,0.05302
964.373,0.05405
958.586,0.05532
952.8,0.05592
947.014,0.05665
941.228,0.05668
935.441,0.05710
929.655,0.05795
923.869,0.05836
918.083,0.05920
912.297,0.05929
906.51,0.06366
900.724,0.07245
894.938,0.08049
889.152,0.07307
883.365,0.06258
877.579,0.05785
871.793,0.05649
866.007,0.05707
860.22,0.05578
854.434,0.05271
848.648,0.05196
842.862,0.05319
837.075,0.05236
831.289,0.05124
825.503,0.05000
819.717,0.05005
813.931,0.04889
808.144,0.05044
802.358,0.05228
796.572,0.05169
790.786,0.05037
784.999,0.05158
779.213,0.05214
773.427,0.04982
767.641,0.04815
761.854,0.04754
756.068,0.04642
750.282,0.04425
744.496,0.04266
738.709,0.03898
732.923,0.03614
727.137,0.03879
721.351,0.03947
715.565,0.03747
709.778,0.04085
703.992,0.04112
698.206,0.04187
692.42,0.04197
686.633,0.04209
680.847,0.04219
675.061,0.04180
669.275,0.04104
663.488,0.04004
657.702,0.03977
651.916,0.03877
646.13,0.03832
640.343,0.03790
634.557,0.03648
628.771,0.03683
622.985,0.03773
617.198,0.03491
611.412,0.03284
605.626,0.03107
599.84,0.03487