File: 01_Data/Concrete_Block/FTIR/IS/Concrete_Block_IS_S_221214_R2.dpt
7497.03,0.27788
7491.25,0.28094
7485.46,0.27650
7479.67,0.28645
7473.89,0.28020
7468.1,0.26807
7462.32,0.26442
7456.53,0.26474
7450.74,0.27698
7444.96,0.28344
7439.17,0.28032
7433.38,0.27642
7427.6,0.27538
7421.81,0.27375
7416.03,0.27741
7410.24,0.28175
7404.45,0.27078
7398.67,0.26597
7392.88,0.27317
7387.09,0.27964
7381.31,0.28019
7375.52,0.27693
7369.74,0.29129
7363.95,0.27972
7358.16,0.27338
7352.38,0.27856
7346.59,0.28471
7340.8,0.27250
7335.02,0.27682
7329.23,0.28103
7323.45,0.27992
7317.66,0.27456
7311.87,0.27401
7306.09,0.28418
7300.3,0.27513
7294.51,0.27297
7288.73,0.26705
7282.94,0.27891
7277.16,0.28141
7271.37,0.27603
7265.58,0.28595
7259.8,0.27531
7254.01,0.27853
7248.22,0.28160
7242.44,0.27784
7236.65,0.27852
7230.87,0.27846
7225.08,0.28040
7219.29,0.27341
7213.51,0.27560
7207.72,0.27545
7201.93,0.27740
7196.15,0.27575
7190.36,0.27766
7184.58,0.27264
7178.79,0.27734
7173,0.27299
7167.22,0.27235
7161.43,0.26416
7155.65,0.27298
7149.86,0.26984
7144.07,0.26974
7138.29,0.27176
7132.5,0.27332
7126.71,0.26696
7120.93,0.26655
7115.14,0.27029
7109.36,0.28056
7103.57,0.27528
7097.78,0.27172
7092,0.27759
7086.21,0.27401
7080.42,0.27661
7074.64,0.27521
7068.85,0.26781
7063.07,0.27605
7057.28,0.27365
7051.49,0.27232
7045.71,0.26456
7039.92,0.27712
7034.13,0.27562
7028.35,0.26907
7022.56,0.27358
7016.78,0.27655
7010.99,0.27125
7005.2,0.26997
6999.42,0.27270
6993.63,0.26843
6987.84,0.26722
6982.06,0.27338
6976.27,0.27120
6970.49,0.26838
6964.7,0.27071
6958.91,0.27490
6953.13,0.27675
6947.34,0.27115
6941.55,0.27187
6935.77,0.27466
6929.98,0.27289
6924.2,0.26871
6918.41,0.27722
6912.62,0.27634
6906.84,0.27484
6901.05,0.27412
6895.26,0.26988
6889.48,0.27483
6883.69,0.27179
6877.91,0.27052
6872.12,0.27006
6866.33,0.27385
6860.55,0.27459
6854.76,0.27371
6848.97,0.27427
6843.19,0.27040
6837.4,0.27032
6831.62,0.27389
6825.83,0.27520
6820.04,0.26999
6814.26,0.27676
6808.47,0.26956
6802.68,0.27237
6796.9,0.27305
6791.11,0.27635
6785.33,0.27428
6779.54,0.27346
6773.75,0.26958
6767.97,0.27595
6762.18,0.27678
6756.39,0.27605
6750.61,0.26924
6744.82,0.27392
6739.04,0.27483
6733.25,0.26677
6727.46,0.27271
6721.68,0.27090
6715.89,0.27221
6710.1,0.27551
6704.32,0.27676
6698.53,0.27278
6692.75,0.27232
6686.96,0.26875
6681.17,0.27249
6675.39,0.27579
6669.6,0.27272
6663.82,0.27762
6658.03,0.27579
6652.24,0.27635
6646.46,0.27620
6640.67,0.27330
6634.88,0.27442
6629.1,0.27363
6623.31,0.27503
6617.53,0.26923
6611.74,0.27502
6605.95,0.27472
6600.17,0.27377
6594.38,0.27578
6588.59,0.27379
6582.81,0.27465
6577.02,0.27519
6571.24,0.27743
6565.45,0.27447
6559.66,0.27287
6553.88,0.27237
6548.09,0.28042
6542.3,0.27596
6536.52,0.27784
6530.73,0.27118
6524.95,0.27552
6519.16,0.27610
6513.37,0.27484
6507.59,0.27610
6501.8,0.27674
6496.01,0.27548
6490.23,0.27708
6484.44,0.27329
6478.66,0.27170
6472.87,0.27491
6467.08,0.27762
6461.3,0.27711
6455.51,0.27491
6449.72,0.27606
6443.94,0.27671
6438.15,0.27735
6432.37,0.27702
6426.58,0.27311
6420.79,0.27494
6415.01,0.27616
6409.22,0.27521
6403.43,0.27428
6397.65,0.27275
6391.86,0.27239
6386.08,0.27147
6380.29,0.27662
6374.5,0.27768
6368.72,0.27386
6362.93,0.27746
6357.14,0.27504
6351.36,0.27604
6345.57,0.27580
6339.79,0.27604
6334,0.27261
6328.21,0.27223
6322.43,0.27761
6316.64,0.27565
6310.85,0.27413
6305.07,0.27427
6299.28,0.27809
6293.5,0.27429
6287.71,0.27548
6281.92,0.27197
6276.14,0.27423
6270.35,0.27790
6264.56,0.27323
6258.78,0.27500
6252.99,0.27193
6247.21,0.27497
6241.42,0.27704
6235.63,0.27467
6229.85,0.27462
6224.06,0.27428
6218.27,0.27555
6212.49,0.27339
6206.7,0.27882
6200.92,0.27540
6195.13,0.27685
6189.34,0.27436
6183.56,0.27610
6177.77,0.27820
6171.98,0.27713
6166.2,0.27514
6160.41,0.27377
6154.63,0.27531
6148.84,0.27957
6143.05,0.27827
6137.27,0.27658
6131.48,0.27304
6125.7,0.27167
6119.91,0.27458
6114.12,0.27356
6108.34,0.27524
6102.55,0.27521
6096.76,0.27316
6090.98,0.27450
6085.19,0.27275
6079.41,0.27576
6073.62,0.27516
6067.83,0.27758
6062.05,0.27700
6056.26,0.27435
6050.47,0.27590
6044.69,0.27477
6038.9,0.27475
6033.12,0.27588
6027.33,0.27601
6021.54,0.27359
6015.76,0.27362
6009.97,0.27414
6004.18,0.27476
5998.4,0.27575
5992.61,0.27721
5986.83,0.27253
5981.04,0.27371
5975.25,0.27309
5969.47,0.27607
5963.68,0.27298
5957.89,0.27258
5952.11,0.27503
5946.32,0.27540
5940.54,0.27389
5934.75,0.27299
5928.96,0.27408
5923.18,0.27468
5917.39,0.27538
5911.6,0.27555
5905.82,0.27229
5900.03,0.27380
5894.25,0.27388
5888.46,0.27475
5882.67,0.27507
5876.89,0.27258
5871.1,0.27383
5865.31,0.27259
5859.53,0.27399
5853.74,0.27299
5847.96,0.27500
5842.17,0.27467
5836.38,0.27490
5830.6,0.27400
5824.81,0.27246
5819.02,0.27154
5813.24,0.27341
5807.45,0.27425
5801.67,0.27521
5795.88,0.27263
5790.09,0.27624
5784.31,0.27376
5778.52,0.27150
5772.73,0.27244
5766.95,0.27322
5761.16,0.27491
5755.38,0.27448
5749.59,0.27389
5743.8,0.27313
5738.02,0.27345
5732.23,0.27465
5726.44,0.27363
5720.66,0.27226
5714.87,0.27387
5709.09,0.27428
5703.3,0.27103
5697.51,0.27124
5691.73,0.27138
5685.94,0.27327
5680.15,0.27354
5674.37,0.27260
5668.58,0.27324
5662.8,0.27368
5657.01,0.27322
5651.22,0.27340
5645.44,0.27328
5639.65,0.27316
5633.87,0.27032
5628.08,0.27190
5622.29,0.27198
5616.51,0.27328
5610.72,0.27514
5604.93,0.27369
5599.15,0.27500
5593.36,0.27346
5587.58,0.27242
5581.79,0.27366
5576,0.27237
5570.22,0.27258
5564.43,0.27253
5558.64,0.27390
5552.86,0.27009
5547.07,0.27362
5541.29,0.27272
5535.5,0.27278
5529.71,0.27246
5523.93,0.27283
5518.14,0.27249
5512.35,0.27276
5506.57,0.27329
5500.78,0.27328
5495,0.27295
5489.21,0.27061
5483.42,0.27271
5477.64,0.27128
5471.85,0.27211
5466.06,0.26973
5460.28,0.26983
5454.49,0.27256
5448.71,0.27206
5442.92,0.27135
5437.13,0.27141
5431.35,0.27248
5425.56,0.27080
5419.77,0.27055
5413.99,0.27097
5408.2,0.27171
5402.42,0.27149
5396.63,0.27107
5390.84,0.26920
5385.06,0.26946
5379.27,0.27119
5373.48,0.27086
5367.7,0.26860
5361.91,0.26957
5356.13,0.26748
5350.34,0.26875
5344.55,0.26794
5338.77,0.26840
5332.98,0.26768
5327.19,0.26811
5321.41,0.26659
5315.62,0.26631
5309.84,0.26603
5304.05,0.26434
5298.26,0.26219
5292.48,0.26445
5286.69,0.26162
5280.9,0.26116
5275.12,0.26003
5269.33,0.25829
5263.55,0.25750
5257.76,0.25638
5251.97,0.25542
5246.19,0.25368
5240.4,0.25226
5234.61,0.25141
5228.83,0.25046
5223.04,0.24947
5217.26,0.24804
5211.47,0.24792
5205.68,0.24934
5199.9,0.24833
5194.11,0.24838
5188.32,0.24694
5182.54,0.24823
5176.75,0.24714
5170.97,0.24751
5165.18,0.24697
5159.39,0.24726
5153.61,0.24728
5147.82,0.24688
5142.03,0.24786
5136.25,0.24873
5130.46,0.24814
5124.68,0.24848
5118.89,0.24913
5113.1,0.24993
5107.32,0.24969
5101.53,0.25017
5095.75,0.25006
5089.96,0.25032
5084.17,0.25073
5078.39,0.25093
5072.6,0.25308
5066.81,0.25266
5061.03,0.25245
5055.24,0.25360
5049.46,0.25203
5043.67,0.25376
5037.88,0.25292
5032.1,0.25350
5026.31,0.25326
5020.52,0.25336
5014.74,0.25407
5008.95,0.25480
5003.17,0.25470
4997.38,0.25611
4991.59,0.25616
4985.81,0.25600
4980.02,0.25722
4974.23,0.25725
4968.45,0.25803
4962.66,0.25764
4956.88,0.25930
4951.09,0.25837
4945.3,0.25876
4939.52,0.25844
4933.73,0.25903
4927.94,0.25952
4922.16,0.26058
4916.37,0.25983
4910.59,0.25941
4904.8,0.26053
4899.01,0.26009
4893.23,0.26025
4887.44,0.26016
4881.65,0.26019
4875.87,0.26002
4870.08,0.26102
4864.3,0.26032
4858.51,0.26039
4852.72,0.26085
4846.94,0.26034
4841.15,0.26134
4835.36,0.26046
4829.58,0.26128
4823.79,0.26086
4818.01,0.26031
4812.22,0.26139
4806.43,0.26095
4800.65,0.26209
4794.86,0.26105
4789.07,0.26069
4783.29,0.26091
4777.5,0.26262
4771.72,0.26169
4765.93,0.26113
4760.14,0.26106
4754.36,0.26033
4748.57,0.25987
4742.78,0.26120
4737,0.26110
4731.21,0.26063
4725.43,0.26125
4719.64,0.26049
4713.85,0.26068
4708.07,0.25993
4702.28,0.25974
4696.49,0.25946
4690.71,0.25995
4684.92,0.25925
4679.14,0.25905
4673.35,0.25989
4667.56,0.26037
4661.78,0.25918
4655.99,0.25996
4650.2,0.25919
4644.42,0.25863
4638.63,0.25853
4632.85,0.25833
4627.06,0.25880
4621.27,0.25875
4615.49,0.25788
4609.7,0.25778
4603.92,0.25769
4598.13,0.25782
4592.34,0.25777
4586.56,0.25777
4580.77,0.25672
4574.98,0.25718
4569.2,0.25638
4563.41,0.25555
4557.63,0.25478
4551.84,0.25524
4546.05,0.25499
4540.27,0.25435
4534.48,0.25357
4528.69,0.25163
4522.91,0.25169
4517.12,0.25092
4511.34,0.25115
4505.55,0.25005
4499.76,0.25016
4493.98,0.24955
4488.19,0.25012
4482.4,0.24906
4476.62,0.24933
4470.83,0.24954
4465.05,0.24908
4459.26,0.24905
4453.47,0.24837
4447.69,0.24925
4441.9,0.24806
4436.11,0.24745
4430.33,0.24718
4424.54,0.24585
4418.76,0.24541
4412.97,0.24515
4407.18,0.24361
4401.4,0.24319
4395.61,0.24278
4389.82,0.24280
4384.04,0.24163
4378.25,0.24152
4372.47,0.24108
4366.68,0.24102
4360.89,0.23885
4355.11,0.23873
4349.32,0.23826
4343.53,0.23595
4337.75,0.23580
4331.96,0.23576
4326.18,0.23623
4320.39,0.23454
4314.6,0.23337
4308.82,0.23244
4303.03,0.23149
4297.24,0.23149
4291.46,0.23189
4285.67,0.23173
4279.89,0.23283
4274.1,0.23234
4268.31,0.23443
4262.53,0.23570
4256.74,0.23776
4250.95,0.23903
4245.17,0.23942
4239.38,0.24033
4233.6,0.24201
4227.81,0.24267
4222.02,0.24276
4216.24,0.24300
4210.45,0.24336
4204.66,0.24178
4198.88,0.24229
4193.09,0.24134
4187.31,0.24028
4181.52,0.24012
4175.73,0.23960
4169.95,0.23935
4164.16,0.23823
4158.37,0.23710
4152.59,0.23624
4146.8,0.23579
4141.02,0.23472
4135.23,0.23416
4129.44,0.23227
4123.66,0.23086
4117.87,0.22961
4112.09,0.22784
4106.3,0.22647
4100.51,0.22561
4094.73,0.22399
4088.94,0.22238
4083.15,0.22108
4077.37,0.21951
4071.58,0.21783
4065.8,0.21642
4060.01,0.21502
4054.22,0.21401
4048.44,0.21269
4042.65,0.21138
4036.86,0.21076
4031.08,0.20986
4025.29,0.20845
4019.51,0.20646
4013.72,0.20504
4007.93,0.20385
4002.15,0.20346
3996.36,0.20107
3990.57,0.20096
3984.79,0.19953
3979,0.19935
3973.22,0.19818
3967.43,0.19779
3961.64,0.19777
3955.86,0.19812
3950.07,0.19870
3944.28,0.20067
3938.5,0.20217
3932.71,0.20497
3926.93,0.20817
3921.14,0.21114
3915.35,0.21365
3909.57,0.21529
3903.78,0.21691
3897.99,0.21784
3892.21,0.21835
3886.42,0.21979
3880.64,0.21926
3874.85,0.21916
3869.06,0.21919
3863.28,0.21937
3857.49,0.21955
3851.7,0.21882
3845.92,0.21905
3840.13,0.21895
3834.35,0.21806
3828.56,0.21788
3822.77,0.21708
3816.99,0.21721
3811.2,0.21563
3805.41,0.21576
3799.63,0.21436
3793.84,0.21327
3788.06,0.21171
3782.27,0.21132
3776.48,0.20956
3770.7,0.20789
3764.91,0.20586
3759.12,0.20313
3753.34,0.20063
3747.55,0.19726
3741.77,0.19123
3735.98,0.18671
3730.19,0.18085
3724.41,0.17290
3718.62,0.16369
3712.83,0.15367
3707.05,0.14223
3701.26,0.12880
3695.48,0.12134
3689.69,0.12130
3683.9,0.12095
3678.12,0.11704
3672.33,0.11064
3666.54,0.10481
3660.76,0.09921
3654.97,0.09430
3649.19,0.09001
3643.4,0.08545
3637.61,0.08145
3631.83,0.07807
3626.04,0.07523
3620.25,0.07287
3614.47,0.07135
3608.68,0.07113
3602.9,0.07056
3597.11,0.06990
3591.32,0.06958
3585.54,0.06951
3579.75,0.06838
3573.97,0.06925
3568.18,0.06869
3562.39,0.06781
3556.61,0.06683
3550.82,0.06675
3545.03,0.06575
3539.25,0.06661
3533.46,0.06482
3527.68,0.06518
3521.89,0.06463
3516.1,0.06456
3510.32,0.06414
3504.53,0.06412
3498.74,0.06383
3492.96,0.06354
3487.17,0.06288
3481.39,0.06285
3475.6,0.06198
3469.81,0.06171
3464.03,0.06187
3458.24,0.06187
3452.45,0.06146
3446.67,0.06127
3440.88,0.05956
3435.1,0.05980
3429.31,0.05951
3423.52,0.05984
3417.74,0.05956
3411.95,0.05917
3406.16,0.05922
3400.38,0.05944
3394.59,0.05936
3388.81,0.05947
3383.02,0.05972
3377.23,0.05919
3371.45,0.05918
3365.66,0.06063
3359.87,0.06005
3354.09,0.06147
3348.3,0.06126
3342.52,0.06096
3336.73,0.06084
3330.94,0.06108
3325.16,0.06155
3319.37,0.06192
3313.58,0.06234
3307.8,0.06208
3302.01,0.06208
3296.23,0.06234
3290.44,0.06305
3284.65,0.06297
3278.87,0.06413
3273.08,0.06328
3267.29,0.06332
3261.51,0.06408
3255.72,0.06458
3249.94,0.06468
3244.15,0.06476
3238.36,0.06448
3232.58,0.06565
3226.79,0.06628
3221,0.06632
3215.22,0.06607
3209.43,0.06699
3203.65,0.06745
3197.86,0.06786
3192.07,0.06888
3186.29,0.06943
3180.5,0.06986
3174.71,0.06974
3168.93,0.07020
3163.14,0.07121
3157.36,0.07259
3151.57,0.07303
3145.78,0.07307
3140,0.07385
3134.21,0.07425
3128.42,0.07475
3122.64,0.07554
3116.85,0.07582
3111.07,0.07638
3105.28,0.07663
3099.49,0.07674
3093.71,0.07724
3087.92,0.07781
3082.14,0.07775
3076.35,0.07822
3070.56,0.07823
3064.78,0.07879
3058.99,0.07857
3053.2,0.07817
3047.42,0.07796
3041.63,0.07732
3035.85,0.07544
3030.06,0.07231
3024.27,0.07012
3018.49,0.07013
3012.7,0.07080
3006.91,0.07104
3001.13,0.07033
2995.34,0.06884
2989.56,0.06690
2983.77,0.06646
2977.98,0.06751
2972.2,0.06882
2966.41,0.06909
2960.62,0.06932
2954.84,0.06967
2949.05,0.06941
2943.27,0.06897
2937.48,0.06893
2931.69,0.06866
2925.91,0.06866
2920.12,0.06867
2914.33,0.06829
2908.55,0.06756
2902.76,0.06692
2896.98,0.06663
2891.19,0.06636
2885.4,0.06654
2879.62,0.06587
2873.83,0.06604
2868.04,0.06746
2862.26,0.07019
2856.47,0.07405
2850.69,0.07716
2844.9,0.08229
2839.11,0.08726
2833.33,0.09225
2827.54,0.09547
2821.75,0.09757
2815.97,0.09895
2810.18,0.10173
2804.4,0.10391
2798.61,0.10550
2792.82,0.10704
2787.04,0.10879
2781.25,0.10994
2775.46,0.11131
2769.68,0.11202
2763.89,0.11319
2758.11,0.11371
2752.32,0.11475
2746.53,0.11506
2740.75,0.11544
2734.96,0.11594
2729.17,0.11659
2723.39,0.11704
2717.6,0.11674
2711.82,0.11671
2706.03,0.11644
2700.24,0.11637
2694.46,0.11558
2688.67,0.11461
2682.88,0.11402
2677.1,0.11266
2671.31,0.10989
2665.53,0.10634
2659.74,0.10283
2653.95,0.09917
2648.17,0.09649
2642.38,0.09310
2636.59,0.08958
2630.81,0.08576
2625.02,0.08392
2619.24,0.08376
2613.45,0.08413
2607.66,0.08356
2601.88,0.08281
2596.09,0.08079
2590.3,0.07755
2584.52,0.07600
2578.73,0.07524
2572.95,0.07456
2567.16,0.07328
2561.37,0.07158
2555.59,0.06878
2549.8,0.06691
2544.02,0.06570
2538.23,0.06371
2532.44,0.06016
2526.66,0.05754
2520.87,0.05652
2515.08,0.05720
2509.3,0.06050
2503.51,0.06504
2497.73,0.07136
2491.94,0.07838
2486.15,0.08491
2480.37,0.09041
2474.58,0.09623
2468.79,0.10131
2463.01,0.10485
2457.22,0.10752
2451.44,0.11078
2445.65,0.11226
2439.86,0.11350
2434.08,0.11461
2428.29,0.11552
2422.5,0.11617
2416.72,0.11640
2410.93,0.11658
2405.15,0.11722
2399.36,0.11813
2393.57,0.11817
2387.79,0.11851
2382,0.11794
2376.21,0.11748
2370.43,0.11697
2364.64,0.11653
2358.86,0.11548
2353.07,0.11490
2347.28,0.11429
2341.5,0.11352
2335.71,0.11304
2329.92,0.11274
2324.14,0.11234
2318.35,0.11209
2312.57,0.11192
2306.78,0.11220
2300.99,0.11283
2295.21,0.11334
2289.42,0.11252
2283.63,0.11123
2277.85,0.11007
2272.06,0.10824
2266.28,0.10660
2260.49,0.10504
2254.7,0.10358
2248.92,0.10262
2243.13,0.10271
2237.34,0.10287
2231.56,0.10276
2225.77,0.10212
2219.99,0.10138
2214.2,0.10072
2208.41,0.09983
2202.63,0.09945
2196.84,0.09878
2191.05,0.09754
2185.27,0.09627
2179.48,0.09519
2173.7,0.09385
2167.91,0.09214
2162.12,0.09119
2156.34,0.09008
2150.55,0.08885
2144.76,0.08909
2138.98,0.09068
2133.19,0.09259
2127.41,0.09527
2121.62,0.09723
2115.83,0.09881
2110.05,0.09991
2104.26,0.10081
2098.47,0.10056
2092.69,0.10077
2086.9,0.10057
2081.12,0.10031
2075.33,0.09970
2069.54,0.09961
2063.76,0.09889
2057.97,0.09861
2052.19,0.09756
2046.4,0.09628
2040.61,0.09452
2034.83,0.09290
2029.04,0.09196
2023.25,0.09163
2017.47,0.09069
2011.68,0.08964
2005.9,0.08891
2000.11,0.08822
1994.32,0.08725
1988.54,0.08630
1982.75,0.08532
1976.96,0.08254
1971.18,0.08256
1965.39,0.08306
1959.61,0.08256
1953.82,0.08349
1948.03,0.08297
1942.25,0.08236
1936.46,0.08168
1930.67,0.08067
1924.89,0.07973
1919.1,0.07846
1913.32,0.07676
1907.53,0.07458
1901.74,0.07269
1895.96,0.07098
1890.17,0.06958
1884.38,0.06832
1878.6,0.06729
1872.81,0.06579
1867.03,0.06481
1861.24,0.06383
1855.45,0.06264
1849.67,0.06120
1843.88,0.05953
1838.09,0.05636
1832.31,0.05270
1826.52,0.04820
1820.74,0.04542
1814.95,0.04413
1809.16,0.04277
1803.38,0.03967
1797.59,0.03729
1791.8,0.03846
1786.02,0.04210
1780.23,0.04499
1774.45,0.04688
1768.66,0.04729
1762.87,0.04733
1757.09,0.04702
1751.3,0.04648
1745.51,0.04559
1739.73,0.04457
1733.94,0.04413
1728.16,0.04399
1722.37,0.04346
1716.58,0.04290
1710.8,0.04198
1705.01,0.04137
1699.22,0.04039
1693.44,0.03942
1687.65,0.03843
1681.87,0.03780
1676.08,0.03742
1670.29,0.03717
1664.51,0.03677
1658.72,0.03637
1652.93,0.03695
1647.15,0.03712
1641.36,0.03760
1635.58,0.03877
1629.79,0.04003
1624,0.04176
1618.22,0.04388
1612.43,0.04669
1606.64,0.04997
1600.86,0.05351
1595.07,0.05947
1589.29,0.06712
1583.5,0.07902
1577.71,0.09429
1571.93,0.10968
1566.14,0.11690
1560.35,0.12026
1554.57,0.12152
1548.78,0.12025
1543,0.11716
1537.21,0.11330
1531.42,0.11061
1525.64,0.10837
1519.85,0.10607
1514.07,0.10333
1508.28,0.10135
1502.49,0.09847
1496.71,0.09670
1490.92,0.09528
1485.13,0.09362
1479.35,0.09261
1473.56,0.09178
1467.78,0.09018
1461.99,0.08986
1456.2,0.08853
1450.42,0.08753
1444.63,0.08709
1438.84,0.08685
1433.06,0.08736
1427.27,0.08824
1421.49,0.08697
1415.7,0.08317
1409.91,0.08133
1404.13,0.07785
1398.34,0.07431
1392.55,0.07206
1386.77,0.07102
1380.98,0.07133
1375.2,0.07260
1369.41,0.07363
1363.62,0.07642
1357.84,0.07861
1352.05,0.08044
1346.26,0.08162
1340.48,0.08246
1334.69,0.08349
1328.91,0.08434
1323.12,0.08542
1317.33,0.08603
1311.55,0.08684
1305.76,0.08736
1299.97,0.08794
1294.19,0.08896
1288.4,0.08921
1282.62,0.08999
1276.83,0.09154
1271.04,0.09132
1265.26,0.09101
1259.47,0.09187
1253.68,0.09276
1247.9,0.09311
1242.11,0.09286
1236.33,0.09306
1230.54,0.09398
1224.75,0.09554
1218.97,0.09551
1213.18,0.09409
1207.39,0.08998
1201.61,0.08615
1195.82,0.08136
1190.04,0.07785
1184.25,0.07521
1178.46,0.07398
1172.68,0.07273
1166.89,0.07019
1161.1,0.06612
1155.32,0.06704
1149.53,0.06934
1143.75,0.06996
1137.96,0.07071
1132.17,0.07001
1126.39,0.06956
1120.6,0.06939
1114.81,0.06883
1109.03,0.06855
1103.24,0.06770
1097.46,0.06728
1091.67,0.06827
1085.88,0.06811
1080.1,0.06796
1074.31,0.06792
1068.52,0.06597
1062.74,0.06181
1056.95,0.05953
1051.17,0.05676
1045.38,0.05453
1039.59,0.05336
1033.81,0.05227
1028.02,0.05075
1022.24,0.04934
1016.45,0.05003
1010.66,0.05039
1004.88,0.04944
999.09,0.04994
993.304,0.05008
987.518,0.05033
981.731,0.05133
975.945,0.05171
970.159,0.05240
964.373,0.05390
958.586,0.05528
952.8,0.05621
947.014,0.05714
941.228,0.05743
935.441,0.05741
929.655,0.05774
923.869,0.05818
918.083,0.05857
912.297,0.06000
906.51,0.06291
900.724,0.07250
894.938,0.07945
889.152,0.07292
883.365,0.06168
877.579,0.05798
871.793,0.05670
866.007,0.05666
860.22,0.05588
854.434,0.05220
848.648,0.05175
842.862,0.05314
837.075,0.05193
831.289,0.05071
825.503,0.05048
819.717,0.04965
813.931,0.04883
808.144,0.05023
802.358,0.05284
796.572,0.05188
790.786,0.05096
784.999,0.05226
779.213,0.05214
773.427,0.05020
767.641,0.04840
761.854,0.04768
756.068,0.04609
750.282,0.04483
744.496,0.04343
738.709,0.04008
732.923,0.03677
727.137,0.03938
721.351,0.03965
715.565,0.03744
709.778,0.04068
703.992,0.04040
698.206,0.04182
692.42,0.04302
686.633,0.04157
680.847,0.04113
675.061,0.04111
669.275,0.04094
663.488,0.04005
657.702,0.03932
651.916,0.03827
646.13,0.03880
640.343,0.03832
634.557,0.03795
628.771,0.03550
622.985,0.03497
617.198,0.03470
611.412,0.03519
605.626,0.03347
599.84,0.03356