File: 01_Data/Concrete_Block/FTIR/IS/Concrete_Block_IS_S_221214_R3.dpt
7497.03,0.27148
7491.25,0.27718
7485.46,0.27900
7479.67,0.26972
7473.89,0.27434
7468.1,0.28239
7462.32,0.27588
7456.53,0.27548
7450.74,0.27767
7444.96,0.27043
7439.17,0.26848
7433.38,0.27797
7427.6,0.28965
7421.81,0.27015
7416.03,0.27922
7410.24,0.28023
7404.45,0.28621
7398.67,0.27441
7392.88,0.26549
7387.09,0.27716
7381.31,0.27318
7375.52,0.27107
7369.74,0.27631
7363.95,0.27735
7358.16,0.27551
7352.38,0.28017
7346.59,0.28201
7340.8,0.28211
7335.02,0.26854
7329.23,0.28117
7323.45,0.28249
7317.66,0.27743
7311.87,0.27455
7306.09,0.27577
7300.3,0.28210
7294.51,0.27340
7288.73,0.26895
7282.94,0.27688
7277.16,0.27059
7271.37,0.27687
7265.58,0.27799
7259.8,0.27737
7254.01,0.27538
7248.22,0.28124
7242.44,0.27838
7236.65,0.28736
7230.87,0.28127
7225.08,0.27697
7219.29,0.28040
7213.51,0.28141
7207.72,0.28212
7201.93,0.27828
7196.15,0.27134
7190.36,0.27267
7184.58,0.27218
7178.79,0.27226
7173,0.27397
7167.22,0.26693
7161.43,0.27593
7155.65,0.27661
7149.86,0.27860
7144.07,0.27648
7138.29,0.27268
7132.5,0.27475
7126.71,0.27462
7120.93,0.27065
7115.14,0.26848
7109.36,0.27105
7103.57,0.26865
7097.78,0.27259
7092,0.27443
7086.21,0.27138
7080.42,0.26771
7074.64,0.27258
7068.85,0.28104
7063.07,0.27598
7057.28,0.27445
7051.49,0.26735
7045.71,0.27834
7039.92,0.27543
7034.13,0.27239
7028.35,0.27290
7022.56,0.27371
7016.78,0.28158
7010.99,0.27360
7005.2,0.27698
6999.42,0.27297
6993.63,0.27564
6987.84,0.27424
6982.06,0.27403
6976.27,0.27617
6970.49,0.26914
6964.7,0.27747
6958.91,0.27242
6953.13,0.26651
6947.34,0.26663
6941.55,0.27424
6935.77,0.27481
6929.98,0.27378
6924.2,0.26928
6918.41,0.27587
6912.62,0.27225
6906.84,0.26924
6901.05,0.26954
6895.26,0.27285
6889.48,0.27305
6883.69,0.27575
6877.91,0.27272
6872.12,0.27410
6866.33,0.27408
6860.55,0.27763
6854.76,0.27654
6848.97,0.27063
6843.19,0.26949
6837.4,0.27156
6831.62,0.27299
6825.83,0.27445
6820.04,0.27764
6814.26,0.27010
6808.47,0.26908
6802.68,0.27386
6796.9,0.27628
6791.11,0.27164
6785.33,0.27628
6779.54,0.27391
6773.75,0.26894
6767.97,0.27292
6762.18,0.28030
6756.39,0.27338
6750.61,0.27424
6744.82,0.27474
6739.04,0.27741
6733.25,0.27213
6727.46,0.26768
6721.68,0.27471
6715.89,0.27543
6710.1,0.27695
6704.32,0.27874
6698.53,0.27585
6692.75,0.27188
6686.96,0.27132
6681.17,0.27231
6675.39,0.27045
6669.6,0.27518
6663.82,0.27468
6658.03,0.27468
6652.24,0.27156
6646.46,0.27585
6640.67,0.27046
6634.88,0.26925
6629.1,0.27587
6623.31,0.27373
6617.53,0.27748
6611.74,0.27358
6605.95,0.27194
6600.17,0.27429
6594.38,0.27143
6588.59,0.27299
6582.81,0.27374
6577.02,0.27313
6571.24,0.27800
6565.45,0.27071
6559.66,0.27254
6553.88,0.27386
6548.09,0.27914
6542.3,0.27687
6536.52,0.27710
6530.73,0.26809
6524.95,0.26916
6519.16,0.27242
6513.37,0.27245
6507.59,0.27669
6501.8,0.27458
6496.01,0.27341
6490.23,0.27709
6484.44,0.27585
6478.66,0.27665
6472.87,0.27451
6467.08,0.27760
6461.3,0.27387
6455.51,0.27754
6449.72,0.27620
6443.94,0.27735
6438.15,0.27661
6432.37,0.27836
6426.58,0.27761
6420.79,0.27337
6415.01,0.27534
6409.22,0.27517
6403.43,0.27666
6397.65,0.27740
6391.86,0.27587
6386.08,0.27600
6380.29,0.27555
6374.5,0.27548
6368.72,0.27424
6362.93,0.27273
6357.14,0.27822
6351.36,0.27508
6345.57,0.27385
6339.79,0.27410
6334,0.27651
6328.21,0.27413
6322.43,0.27428
6316.64,0.27527
6310.85,0.27593
6305.07,0.27881
6299.28,0.27609
6293.5,0.27801
6287.71,0.27584
6281.92,0.27454
6276.14,0.27277
6270.35,0.27598
6264.56,0.27789
6258.78,0.27580
6252.99,0.27300
6247.21,0.27592
6241.42,0.27453
6235.63,0.27393
6229.85,0.27783
6224.06,0.27554
6218.27,0.27524
6212.49,0.27677
6206.7,0.27588
6200.92,0.27108
6195.13,0.27169
6189.34,0.27585
6183.56,0.27453
6177.77,0.27233
6171.98,0.27672
6166.2,0.27653
6160.41,0.27579
6154.63,0.27459
6148.84,0.27314
6143.05,0.27589
6137.27,0.27691
6131.48,0.27699
6125.7,0.27403
6119.91,0.27346
6114.12,0.27544
6108.34,0.27401
6102.55,0.27396
6096.76,0.27933
6090.98,0.27539
6085.19,0.27329
6079.41,0.27833
6073.62,0.27709
6067.83,0.27637
6062.05,0.27573
6056.26,0.27397
6050.47,0.27186
6044.69,0.27135
6038.9,0.27616
6033.12,0.27443
6027.33,0.27145
6021.54,0.27480
6015.76,0.27426
6009.97,0.27528
6004.18,0.27518
5998.4,0.27184
5992.61,0.27354
5986.83,0.27713
5981.04,0.27574
5975.25,0.27395
5969.47,0.27484
5963.68,0.27813
5957.89,0.27336
5952.11,0.27285
5946.32,0.27615
5940.54,0.27658
5934.75,0.27440
5928.96,0.27360
5923.18,0.27480
5917.39,0.27547
5911.6,0.27294
5905.82,0.27261
5900.03,0.27415
5894.25,0.27397
5888.46,0.27193
5882.67,0.27251
5876.89,0.27351
5871.1,0.27666
5865.31,0.27512
5859.53,0.27497
5853.74,0.27582
5847.96,0.27476
5842.17,0.27537
5836.38,0.27223
5830.6,0.27518
5824.81,0.27365
5819.02,0.27367
5813.24,0.27401
5807.45,0.27548
5801.67,0.27314
5795.88,0.27389
5790.09,0.27506
5784.31,0.27500
5778.52,0.27377
5772.73,0.27314
5766.95,0.27464
5761.16,0.27371
5755.38,0.27406
5749.59,0.27364
5743.8,0.27093
5738.02,0.27397
5732.23,0.27521
5726.44,0.27625
5720.66,0.27258
5714.87,0.27286
5709.09,0.27335
5703.3,0.27401
5697.51,0.27440
5691.73,0.27608
5685.94,0.27424
5680.15,0.27256
5674.37,0.27359
5668.58,0.27192
5662.8,0.27596
5657.01,0.27337
5651.22,0.27205
5645.44,0.27409
5639.65,0.27184
5633.87,0.27286
5628.08,0.27487
5622.29,0.27332
5616.51,0.27377
5610.72,0.27312
5604.93,0.27329
5599.15,0.27423
5593.36,0.27314
5587.58,0.27163
5581.79,0.27231
5576,0.27432
5570.22,0.27264
5564.43,0.27222
5558.64,0.27201
5552.86,0.27180
5547.07,0.27240
5541.29,0.27298
5535.5,0.27329
5529.71,0.27377
5523.93,0.27219
5518.14,0.27436
5512.35,0.27170
5506.57,0.27296
5500.78,0.27310
5495,0.27360
5489.21,0.27170
5483.42,0.27049
5477.64,0.27221
5471.85,0.27274
5466.06,0.27255
5460.28,0.27233
5454.49,0.27225
5448.71,0.27196
5442.92,0.27022
5437.13,0.27312
5431.35,0.27244
5425.56,0.27155
5419.77,0.27070
5413.99,0.27048
5408.2,0.26957
5402.42,0.27087
5396.63,0.27255
5390.84,0.27028
5385.06,0.27024
5379.27,0.26966
5373.48,0.27025
5367.7,0.26922
5361.91,0.26992
5356.13,0.26922
5350.34,0.26849
5344.55,0.26863
5338.77,0.26980
5332.98,0.26712
5327.19,0.26800
5321.41,0.26602
5315.62,0.26698
5309.84,0.26656
5304.05,0.26688
5298.26,0.26474
5292.48,0.26541
5286.69,0.26257
5280.9,0.26143
5275.12,0.26153
5269.33,0.26050
5263.55,0.25884
5257.76,0.25469
5251.97,0.25595
5246.19,0.25321
5240.4,0.25248
5234.61,0.25145
5228.83,0.25135
5223.04,0.24927
5217.26,0.24939
5211.47,0.24809
5205.68,0.25041
5199.9,0.24740
5194.11,0.24776
5188.32,0.24719
5182.54,0.24709
5176.75,0.24706
5170.97,0.24821
5165.18,0.24807
5159.39,0.24846
5153.61,0.24886
5147.82,0.24869
5142.03,0.24750
5136.25,0.24843
5130.46,0.24771
5124.68,0.24960
5118.89,0.24972
5113.1,0.25017
5107.32,0.24976
5101.53,0.25186
5095.75,0.25123
5089.96,0.25168
5084.17,0.25117
5078.39,0.25147
5072.6,0.25207
5066.81,0.25355
5061.03,0.25188
5055.24,0.25377
5049.46,0.25346
5043.67,0.25469
5037.88,0.25466
5032.1,0.25426
5026.31,0.25432
5020.52,0.25510
5014.74,0.25479
5008.95,0.25635
5003.17,0.25503
4997.38,0.25724
4991.59,0.25747
4985.81,0.25701
4980.02,0.25673
4974.23,0.25835
4968.45,0.25828
4962.66,0.25729
4956.88,0.25818
4951.09,0.25814
4945.3,0.25822
4939.52,0.25815
4933.73,0.25878
4927.94,0.25886
4922.16,0.25935
4916.37,0.25969
4910.59,0.26053
4904.8,0.25894
4899.01,0.26036
4893.23,0.25999
4887.44,0.25982
4881.65,0.26100
4875.87,0.26097
4870.08,0.26026
4864.3,0.26082
4858.51,0.26133
4852.72,0.26182
4846.94,0.26115
4841.15,0.26052
4835.36,0.26098
4829.58,0.26166
4823.79,0.26023
4818.01,0.26090
4812.22,0.26225
4806.43,0.26143
4800.65,0.26234
4794.86,0.26165
4789.07,0.26147
4783.29,0.26167
4777.5,0.26098
4771.72,0.26138
4765.93,0.26092
4760.14,0.26183
4754.36,0.26197
4748.57,0.26123
4742.78,0.26131
4737,0.26123
4731.21,0.26271
4725.43,0.26181
4719.64,0.26146
4713.85,0.26254
4708.07,0.26300
4702.28,0.26054
4696.49,0.26049
4690.71,0.26079
4684.92,0.26031
4679.14,0.26072
4673.35,0.25995
4667.56,0.26172
4661.78,0.26071
4655.99,0.26048
4650.2,0.25936
4644.42,0.26022
4638.63,0.25985
4632.85,0.25939
4627.06,0.25747
4621.27,0.25892
4615.49,0.25848
4609.7,0.25799
4603.92,0.25854
4598.13,0.25868
4592.34,0.25865
4586.56,0.25816
4580.77,0.25752
4574.98,0.25658
4569.2,0.25683
4563.41,0.25701
4557.63,0.25710
4551.84,0.25540
4546.05,0.25551
4540.27,0.25357
4534.48,0.25294
4528.69,0.25106
4522.91,0.25197
4517.12,0.25149
4511.34,0.25104
4505.55,0.25082
4499.76,0.24982
4493.98,0.25015
4488.19,0.24977
4482.4,0.24944
4476.62,0.25054
4470.83,0.25101
4465.05,0.24966
4459.26,0.24980
4453.47,0.24962
4447.69,0.24894
4441.9,0.24792
4436.11,0.24796
4430.33,0.24766
4424.54,0.24648
4418.76,0.24558
4412.97,0.24580
4407.18,0.24452
4401.4,0.24342
4395.61,0.24349
4389.82,0.24253
4384.04,0.24219
4378.25,0.24212
4372.47,0.24096
4366.68,0.24005
4360.89,0.24054
4355.11,0.23962
4349.32,0.23866
4343.53,0.23777
4337.75,0.23740
4331.96,0.23698
4326.18,0.23551
4320.39,0.23454
4314.6,0.23380
4308.82,0.23246
4303.03,0.23285
4297.24,0.23187
4291.46,0.23235
4285.67,0.23286
4279.89,0.23321
4274.1,0.23384
4268.31,0.23534
4262.53,0.23600
4256.74,0.23745
4250.95,0.23960
4245.17,0.24098
4239.38,0.24132
4233.6,0.24215
4227.81,0.24377
4222.02,0.24388
4216.24,0.24366
4210.45,0.24290
4204.66,0.24258
4198.88,0.24216
4193.09,0.24165
4187.31,0.24117
4181.52,0.24108
4175.73,0.24066
4169.95,0.23976
4164.16,0.23857
4158.37,0.23765
4152.59,0.23767
4146.8,0.23629
4141.02,0.23621
4135.23,0.23450
4129.44,0.23341
4123.66,0.23219
4117.87,0.22964
4112.09,0.22953
4106.3,0.22777
4100.51,0.22668
4094.73,0.22420
4088.94,0.22337
4083.15,0.22130
4077.37,0.22023
4071.58,0.21885
4065.8,0.21745
4060.01,0.21599
4054.22,0.21461
4048.44,0.21373
4042.65,0.21292
4036.86,0.21141
4031.08,0.20944
4025.29,0.20890
4019.51,0.20719
4013.72,0.20653
4007.93,0.20457
4002.15,0.20297
3996.36,0.20216
3990.57,0.20136
3984.79,0.20052
3979,0.19925
3973.22,0.19818
3967.43,0.19866
3961.64,0.19809
3955.86,0.19862
3950.07,0.19941
3944.28,0.20112
3938.5,0.20224
3932.71,0.20579
3926.93,0.20924
3921.14,0.21204
3915.35,0.21508
3909.57,0.21654
3903.78,0.21798
3897.99,0.21847
3892.21,0.21891
3886.42,0.22000
3880.64,0.22011
3874.85,0.21969
3869.06,0.22037
3863.28,0.22010
3857.49,0.22023
3851.7,0.21931
3845.92,0.21960
3840.13,0.21902
3834.35,0.21894
3828.56,0.21855
3822.77,0.21806
3816.99,0.21731
3811.2,0.21613
3805.41,0.21616
3799.63,0.21475
3793.84,0.21415
3788.06,0.21211
3782.27,0.21115
3776.48,0.20983
3770.7,0.20838
3764.91,0.20570
3759.12,0.20403
3753.34,0.20122
3747.55,0.19789
3741.77,0.19261
3735.98,0.18742
3730.19,0.18064
3724.41,0.17272
3718.62,0.16413
3712.83,0.15345
3707.05,0.14259
3701.26,0.12922
3695.48,0.12098
3689.69,0.12179
3683.9,0.12079
3678.12,0.11718
3672.33,0.11079
3666.54,0.10484
3660.76,0.09984
3654.97,0.09331
3649.19,0.08877
3643.4,0.08526
3637.61,0.08244
3631.83,0.07926
3626.04,0.07540
3620.25,0.07280
3614.47,0.07220
3608.68,0.07110
3602.9,0.07086
3597.11,0.07015
3591.32,0.07065
3585.54,0.07045
3579.75,0.06997
3573.97,0.06971
3568.18,0.06958
3562.39,0.06830
3556.61,0.06782
3550.82,0.06685
3545.03,0.06655
3539.25,0.06626
3533.46,0.06550
3527.68,0.06611
3521.89,0.06512
3516.1,0.06465
3510.32,0.06465
3504.53,0.06373
3498.74,0.06402
3492.96,0.06325
3487.17,0.06326
3481.39,0.06347
3475.6,0.06315
3469.81,0.06273
3464.03,0.06218
3458.24,0.06197
3452.45,0.06185
3446.67,0.06167
3440.88,0.06098
3435.1,0.06082
3429.31,0.06101
3423.52,0.06035
3417.74,0.06019
3411.95,0.05954
3406.16,0.05935
3400.38,0.05946
3394.59,0.05980
3388.81,0.05993
3383.02,0.05989
3377.23,0.05968
3371.45,0.06054
3365.66,0.06050
3359.87,0.06149
3354.09,0.06090
3348.3,0.06107
3342.52,0.06155
3336.73,0.06199
3330.94,0.06248
3325.16,0.06274
3319.37,0.06250
3313.58,0.06247
3307.8,0.06307
3302.01,0.06354
3296.23,0.06274
3290.44,0.06353
3284.65,0.06330
3278.87,0.06384
3273.08,0.06388
3267.29,0.06452
3261.51,0.06475
3255.72,0.06430
3249.94,0.06471
3244.15,0.06575
3238.36,0.06566
3232.58,0.06614
3226.79,0.06669
3221,0.06697
3215.22,0.06671
3209.43,0.06768
3203.65,0.06783
3197.86,0.06878
3192.07,0.06804
3186.29,0.06922
3180.5,0.06984
3174.71,0.06965
3168.93,0.07152
3163.14,0.07136
3157.36,0.07185
3151.57,0.07309
3145.78,0.07373
3140,0.07476
3134.21,0.07491
3128.42,0.07555
3122.64,0.07570
3116.85,0.07622
3111.07,0.07722
3105.28,0.07705
3099.49,0.07764
3093.71,0.07806
3087.92,0.07840
3082.14,0.07899
3076.35,0.07858
3070.56,0.07851
3064.78,0.07901
3058.99,0.07951
3053.2,0.07902
3047.42,0.07882
3041.63,0.07766
3035.85,0.07533
3030.06,0.07205
3024.27,0.06986
3018.49,0.07012
3012.7,0.07070
3006.91,0.07116
3001.13,0.07091
2995.34,0.06903
2989.56,0.06735
2983.77,0.06693
2977.98,0.06808
2972.2,0.06857
2966.41,0.06952
2960.62,0.06970
2954.84,0.06959
2949.05,0.06964
2943.27,0.06949
2937.48,0.06900
2931.69,0.06875
2925.91,0.06933
2920.12,0.06906
2914.33,0.06885
2908.55,0.06782
2902.76,0.06747
2896.98,0.06671
2891.19,0.06725
2885.4,0.06651
2879.62,0.06591
2873.83,0.06599
2868.04,0.06800
2862.26,0.07064
2856.47,0.07410
2850.69,0.07776
2844.9,0.08254
2839.11,0.08744
2833.33,0.09179
2827.54,0.09598
2821.75,0.09824
2815.97,0.09908
2810.18,0.10219
2804.4,0.10443
2798.61,0.10527
2792.82,0.10756
2787.04,0.10929
2781.25,0.11054
2775.46,0.11158
2769.68,0.11246
2763.89,0.11321
2758.11,0.11430
2752.32,0.11513
2746.53,0.11547
2740.75,0.11584
2734.96,0.11626
2729.17,0.11653
2723.39,0.11755
2717.6,0.11742
2711.82,0.11700
2706.03,0.11671
2700.24,0.11627
2694.46,0.11584
2688.67,0.11560
2682.88,0.11449
2677.1,0.11292
2671.31,0.11025
2665.53,0.10626
2659.74,0.10286
2653.95,0.09976
2648.17,0.09678
2642.38,0.09345
2636.59,0.08966
2630.81,0.08611
2625.02,0.08412
2619.24,0.08369
2613.45,0.08427
2607.66,0.08402
2601.88,0.08275
2596.09,0.08080
2590.3,0.07786
2584.52,0.07615
2578.73,0.07530
2572.95,0.07423
2567.16,0.07384
2561.37,0.07207
2555.59,0.06942
2549.8,0.06754
2544.02,0.06599
2538.23,0.06398
2532.44,0.06046
2526.66,0.05765
2520.87,0.05635
2515.08,0.05766
2509.3,0.06020
2503.51,0.06522
2497.73,0.07112
2491.94,0.07808
2486.15,0.08462
2480.37,0.09090
2474.58,0.09628
2468.79,0.10111
2463.01,0.10472
2457.22,0.10808
2451.44,0.11052
2445.65,0.11266
2439.86,0.11408
2434.08,0.11513
2428.29,0.11615
2422.5,0.11663
2416.72,0.11725
2410.93,0.11704
2405.15,0.11761
2399.36,0.11860
2393.57,0.11865
2387.79,0.11870
2382,0.11896
2376.21,0.11828
2370.43,0.11759
2364.64,0.11686
2358.86,0.11620
2353.07,0.11590
2347.28,0.11559
2341.5,0.11441
2335.71,0.11327
2329.92,0.11265
2324.14,0.11240
2318.35,0.11225
2312.57,0.11237
2306.78,0.11246
2300.99,0.11337
2295.21,0.11434
2289.42,0.11325
2283.63,0.11226
2277.85,0.11045
2272.06,0.10868
2266.28,0.10678
2260.49,0.10491
2254.7,0.10394
2248.92,0.10319
2243.13,0.10295
2237.34,0.10349
2231.56,0.10354
2225.77,0.10298
2219.99,0.10205
2214.2,0.10092
2208.41,0.10059
2202.63,0.10001
2196.84,0.09914
2191.05,0.09791
2185.27,0.09682
2179.48,0.09539
2173.7,0.09392
2167.91,0.09237
2162.12,0.09161
2156.34,0.09061
2150.55,0.08925
2144.76,0.08942
2138.98,0.09089
2133.19,0.09270
2127.41,0.09525
2121.62,0.09797
2115.83,0.09974
2110.05,0.10064
2104.26,0.10119
2098.47,0.10100
2092.69,0.10151
2086.9,0.10101
2081.12,0.10047
2075.33,0.10031
2069.54,0.10010
2063.76,0.09927
2057.97,0.09882
2052.19,0.09793
2046.4,0.09650
2040.61,0.09495
2034.83,0.09331
2029.04,0.09250
2023.25,0.09193
2017.47,0.09106
2011.68,0.09001
2005.9,0.08874
2000.11,0.08812
1994.32,0.08753
1988.54,0.08684
1982.75,0.08522
1976.96,0.08265
1971.18,0.08282
1965.39,0.08362
1959.61,0.08286
1953.82,0.08345
1948.03,0.08313
1942.25,0.08323
1936.46,0.08181
1930.67,0.08099
1924.89,0.07994
1919.1,0.07836
1913.32,0.07701
1907.53,0.07535
1901.74,0.07306
1895.96,0.07143
1890.17,0.06988
1884.38,0.06832
1878.6,0.06682
1872.81,0.06566
1867.03,0.06534
1861.24,0.06409
1855.45,0.06288
1849.67,0.06175
1843.88,0.05970
1838.09,0.05634
1832.31,0.05260
1826.52,0.04839
1820.74,0.04556
1814.95,0.04420
1809.16,0.04247
1803.38,0.03956
1797.59,0.03720
1791.8,0.03880
1786.02,0.04222
1780.23,0.04506
1774.45,0.04663
1768.66,0.04729
1762.87,0.04780
1757.09,0.04704
1751.3,0.04649
1745.51,0.04562
1739.73,0.04495
1733.94,0.04442
1728.16,0.04395
1722.37,0.04368
1716.58,0.04319
1710.8,0.04264
1705.01,0.04191
1699.22,0.04057
1693.44,0.03944
1687.65,0.03878
1681.87,0.03801
1676.08,0.03725
1670.29,0.03687
1664.51,0.03721
1658.72,0.03697
1652.93,0.03706
1647.15,0.03726
1641.36,0.03754
1635.58,0.03890
1629.79,0.04018
1624,0.04220
1618.22,0.04395
1612.43,0.04679
1606.64,0.04950
1600.86,0.05407
1595.07,0.05944
1589.29,0.06721
1583.5,0.07896
1577.71,0.09412
1571.93,0.10962
1566.14,0.11669
1560.35,0.12012
1554.57,0.12188
1548.78,0.12060
1543,0.11734
1537.21,0.11345
1531.42,0.11068
1525.64,0.10848
1519.85,0.10622
1514.07,0.10369
1508.28,0.10187
1502.49,0.09886
1496.71,0.09698
1490.92,0.09542
1485.13,0.09353
1479.35,0.09248
1473.56,0.09203
1467.78,0.09069
1461.99,0.08973
1456.2,0.08866
1450.42,0.08786
1444.63,0.08704
1438.84,0.08729
1433.06,0.08788
1427.27,0.08794
1421.49,0.08704
1415.7,0.08366
1409.91,0.08141
1404.13,0.07770
1398.34,0.07440
1392.55,0.07213
1386.77,0.07131
1380.98,0.07119
1375.2,0.07225
1369.41,0.07400
1363.62,0.07637
1357.84,0.07863
1352.05,0.08097
1346.26,0.08177
1340.48,0.08300
1334.69,0.08357
1328.91,0.08464
1323.12,0.08582
1317.33,0.08643
1311.55,0.08670
1305.76,0.08735
1299.97,0.08769
1294.19,0.08897
1288.4,0.08977
1282.62,0.09013
1276.83,0.09134
1271.04,0.09122
1265.26,0.09116
1259.47,0.09228
1253.68,0.09316
1247.9,0.09330
1242.11,0.09307
1236.33,0.09372
1230.54,0.09386
1224.75,0.09551
1218.97,0.09605
1213.18,0.09378
1207.39,0.09031
1201.61,0.08577
1195.82,0.08113
1190.04,0.07807
1184.25,0.07569
1178.46,0.07373
1172.68,0.07235
1166.89,0.07067
1161.1,0.06633
1155.32,0.06693
1149.53,0.06950
1143.75,0.07008
1137.96,0.07037
1132.17,0.06994
1126.39,0.06999
1120.6,0.06960
1114.81,0.06959
1109.03,0.06919
1103.24,0.06811
1097.46,0.06777
1091.67,0.06769
1085.88,0.06840
1080.1,0.06837
1074.31,0.06804
1068.52,0.06617
1062.74,0.06161
1056.95,0.05876
1051.17,0.05673
1045.38,0.05447
1039.59,0.05283
1033.81,0.05233
1028.02,0.05139
1022.24,0.05042
1016.45,0.05038
1010.66,0.05030
1004.88,0.05021
999.09,0.04993
993.304,0.04998
987.518,0.05078
981.731,0.05101
975.945,0.05185
970.159,0.05367
964.373,0.05370
958.586,0.05550
952.8,0.05647
947.014,0.05693
941.228,0.05714
935.441,0.05750
929.655,0.05768
923.869,0.05799
918.083,0.05868
912.297,0.06002
906.51,0.06331
900.724,0.07265
894.938,0.08004
889.152,0.07338
883.365,0.06278
877.579,0.05878
871.793,0.05702
866.007,0.05708
860.22,0.05649
854.434,0.05266
848.648,0.05084
842.862,0.05280
837.075,0.05261
831.289,0.05139
825.503,0.05058
819.717,0.04967
813.931,0.04867
808.144,0.05087
802.358,0.05193
796.572,0.05194
790.786,0.05025
784.999,0.05130
779.213,0.05221
773.427,0.05052
767.641,0.04854
761.854,0.04712
756.068,0.04690
750.282,0.04511
744.496,0.04283
738.709,0.03974
732.923,0.03642
727.137,0.03932
721.351,0.03868
715.565,0.03772
709.778,0.04134
703.992,0.04273
698.206,0.04161
692.42,0.04162
686.633,0.04271
680.847,0.04208
675.061,0.04095
669.275,0.04132
663.488,0.04129
657.702,0.03933
651.916,0.03724
646.13,0.03680
640.343,0.03632
634.557,0.03760
628.771,0.03717
622.985,0.03519
617.198,0.03252
611.412,0.03491
605.626,0.03577
599.84,0.03525