File: 01_Data/Concrete_Block/FTIR/IS/Concrete_Block_IS_T_221214_R8.dpt
7497.03,0.02451
7491.25,0.02885
7485.46,0.02211
7479.67,0.03218
7473.89,0.02759
7468.1,0.02927
7462.32,0.01798
7456.53,0.02537
7450.74,0.02046
7444.96,0.02951
7439.17,0.02297
7433.38,0.02637
7427.6,0.02082
7421.81,0.01907
7416.03,0.02546
7410.24,0.02430
7404.45,0.02367
7398.67,0.02576
7392.88,0.02299
7387.09,0.02019
7381.31,0.02496
7375.52,0.02870
7369.74,0.01663
7363.95,0.02776
7358.16,0.02663
7352.38,0.02493
7346.59,0.02007
7340.8,0.02469
7335.02,0.01609
7329.23,0.01320
7323.45,0.02276
7317.66,0.02289
7311.87,0.02799
7306.09,0.03200
7300.3,0.02601
7294.51,0.03441
7288.73,0.02225
7282.94,0.02614
7277.16,0.01664
7271.37,0.02617
7265.58,0.02602
7259.8,0.02678
7254.01,0.02843
7248.22,0.02865
7242.44,0.02010
7236.65,0.02353
7230.87,0.02479
7225.08,0.02385
7219.29,0.01636
7213.51,0.02100
7207.72,0.03143
7201.93,0.02308
7196.15,0.02241
7190.36,0.02286
7184.58,0.03174
7178.79,0.02985
7173,0.01980
7167.22,0.03001
7161.43,0.02095
7155.65,0.02362
7149.86,0.01821
7144.07,0.02425
7138.29,0.01964
7132.5,0.02277
7126.71,0.02404
7120.93,0.02231
7115.14,0.02372
7109.36,0.02506
7103.57,0.02053
7097.78,0.02254
7092,0.02468
7086.21,0.02287
7080.42,0.02533
7074.64,0.02638
7068.85,0.02126
7063.07,0.02079
7057.28,0.02352
7051.49,0.02941
7045.71,0.02236
7039.92,0.01680
7034.13,0.02217
7028.35,0.02105
7022.56,0.03496
7016.78,0.02149
7010.99,0.02291
7005.2,0.01831
6999.42,0.01821
6993.63,0.02535
6987.84,0.02132
6982.06,0.02469
6976.27,0.02162
6970.49,0.02341
6964.7,0.02152
6958.91,0.02190
6953.13,0.01857
6947.34,0.03026
6941.55,0.02359
6935.77,0.02644
6929.98,0.02218
6924.2,0.02327
6918.41,0.02917
6912.62,0.01895
6906.84,0.02498
6901.05,0.02498
6895.26,0.02232
6889.48,0.02239
6883.69,0.02601
6877.91,0.02293
6872.12,0.01999
6866.33,0.02229
6860.55,0.02287
6854.76,0.02218
6848.97,0.02737
6843.19,0.02333
6837.4,0.02181
6831.62,0.02446
6825.83,0.02735
6820.04,0.02485
6814.26,0.02133
6808.47,0.02552
6802.68,0.02690
6796.9,0.02178
6791.11,0.02076
6785.33,0.02764
6779.54,0.02669
6773.75,0.02384
6767.97,0.02000
6762.18,0.02417
6756.39,0.02399
6750.61,0.02401
6744.82,0.02557
6739.04,0.02560
6733.25,0.02598
6727.46,0.02257
6721.68,0.02336
6715.89,0.02601
6710.1,0.02123
6704.32,0.01813
6698.53,0.02255
6692.75,0.02305
6686.96,0.02268
6681.17,0.02516
6675.39,0.02105
6669.6,0.02660
6663.82,0.02181
6658.03,0.02625
6652.24,0.02112
6646.46,0.02612
6640.67,0.02392
6634.88,0.02317
6629.1,0.02842
6623.31,0.02635
6617.53,0.02055
6611.74,0.02553
6605.95,0.02401
6600.17,0.02540
6594.38,0.02148
6588.59,0.02557
6582.81,0.02287
6577.02,0.02477
6571.24,0.02540
6565.45,0.02635
6559.66,0.02375
6553.88,0.02216
6548.09,0.02643
6542.3,0.02383
6536.52,0.02438
6530.73,0.02370
6524.95,0.02170
6519.16,0.01711
6513.37,0.02545
6507.59,0.02168
6501.8,0.02337
6496.01,0.02816
6490.23,0.02200
6484.44,0.01688
6478.66,0.02222
6472.87,0.02304
6467.08,0.02775
6461.3,0.02530
6455.51,0.02112
6449.72,0.01968
6443.94,0.02221
6438.15,0.02794
6432.37,0.02123
6426.58,0.02189
6420.79,0.02004
6415.01,0.02331
6409.22,0.02374
6403.43,0.02930
6397.65,0.02113
6391.86,0.02312
6386.08,0.02342
6380.29,0.02567
6374.5,0.02091
6368.72,0.02453
6362.93,0.02448
6357.14,0.02135
6351.36,0.02074
6345.57,0.02577
6339.79,0.02488
6334,0.02561
6328.21,0.02056
6322.43,0.01988
6316.64,0.02131
6310.85,0.02574
6305.07,0.02521
6299.28,0.01948
6293.5,0.02025
6287.71,0.01983
6281.92,0.02212
6276.14,0.02152
6270.35,0.02378
6264.56,0.02412
6258.78,0.02649
6252.99,0.02278
6247.21,0.02506
6241.42,0.02706
6235.63,0.02053
6229.85,0.02573
6224.06,0.02390
6218.27,0.01900
6212.49,0.02038
6206.7,0.02287
6200.92,0.02430
6195.13,0.02377
6189.34,0.02099
6183.56,0.02575
6177.77,0.02711
6171.98,0.02412
6166.2,0.02264
6160.41,0.02611
6154.63,0.02235
6148.84,0.02157
6143.05,0.02415
6137.27,0.02072
6131.48,0.02499
6125.7,0.02216
6119.91,0.02280
6114.12,0.02122
6108.34,0.02581
6102.55,0.02582
6096.76,0.02334
6090.98,0.02292
6085.19,0.02401
6079.41,0.02358
6073.62,0.02589
6067.83,0.02241
6062.05,0.02427
6056.26,0.02108
6050.47,0.02213
6044.69,0.02121
6038.9,0.01912
6033.12,0.02285
6027.33,0.02319
6021.54,0.02464
6015.76,0.02278
6009.97,0.02202
6004.18,0.02155
5998.4,0.01999
5992.61,0.02144
5986.83,0.02380
5981.04,0.02261
5975.25,0.02181
5969.47,0.02336
5963.68,0.02280
5957.89,0.02247
5952.11,0.01843
5946.32,0.02443
5940.54,0.02476
5934.75,0.02540
5928.96,0.02073
5923.18,0.02127
5917.39,0.02425
5911.6,0.02389
5905.82,0.02417
5900.03,0.02248
5894.25,0.02298
5888.46,0.02254
5882.67,0.02288
5876.89,0.02238
5871.1,0.02284
5865.31,0.02342
5859.53,0.01967
5853.74,0.02213
5847.96,0.02492
5842.17,0.02314
5836.38,0.02340
5830.6,0.02273
5824.81,0.02370
5819.02,0.02359
5813.24,0.02346
5807.45,0.02352
5801.67,0.02275
5795.88,0.02209
5790.09,0.02202
5784.31,0.02081
5778.52,0.02268
5772.73,0.02326
5766.95,0.02225
5761.16,0.02369
5755.38,0.02483
5749.59,0.02189
5743.8,0.02170
5738.02,0.02263
5732.23,0.02101
5726.44,0.02474
5720.66,0.02221
5714.87,0.02318
5709.09,0.02334
5703.3,0.02283
5697.51,0.02232
5691.73,0.02242
5685.94,0.02144
5680.15,0.02477
5674.37,0.02300
5668.58,0.02278
5662.8,0.02224
5657.01,0.02353
5651.22,0.02429
5645.44,0.02401
5639.65,0.02227
5633.87,0.02292
5628.08,0.02275
5622.29,0.02137
5616.51,0.02106
5610.72,0.02194
5604.93,0.02323
5599.15,0.02280
5593.36,0.02397
5587.58,0.02239
5581.79,0.02239
5576,0.02324
5570.22,0.02379
5564.43,0.02225
5558.64,0.02455
5552.86,0.02289
5547.07,0.02253
5541.29,0.02285
5535.5,0.02273
5529.71,0.02286
5523.93,0.02210
5518.14,0.02346
5512.35,0.02437
5506.57,0.02411
5500.78,0.02195
5495,0.02423
5489.21,0.02265
5483.42,0.02233
5477.64,0.02333
5471.85,0.02282
5466.06,0.02330
5460.28,0.02530
5454.49,0.02362
5448.71,0.02417
5442.92,0.02254
5437.13,0.02259
5431.35,0.02328
5425.56,0.02195
5419.77,0.02272
5413.99,0.02268
5408.2,0.02348
5402.42,0.02408
5396.63,0.02354
5390.84,0.02256
5385.06,0.02265
5379.27,0.02259
5373.48,0.02167
5367.7,0.02308
5361.91,0.02348
5356.13,0.02398
5350.34,0.02362
5344.55,0.02234
5338.77,0.02380
5332.98,0.02394
5327.19,0.02246
5321.41,0.02366
5315.62,0.02216
5309.84,0.02315
5304.05,0.02430
5298.26,0.02222
5292.48,0.02164
5286.69,0.02203
5280.9,0.02300
5275.12,0.02400
5269.33,0.02254
5263.55,0.02385
5257.76,0.02316
5251.97,0.02234
5246.19,0.02217
5240.4,0.02288
5234.61,0.02339
5228.83,0.02210
5223.04,0.02243
5217.26,0.02305
5211.47,0.02454
5205.68,0.02355
5199.9,0.02295
5194.11,0.02399
5188.32,0.02283
5182.54,0.02273
5176.75,0.02292
5170.97,0.02393
5165.18,0.02254
5159.39,0.02252
5153.61,0.02345
5147.82,0.02195
5142.03,0.02390
5136.25,0.02265
5130.46,0.02254
5124.68,0.02331
5118.89,0.02245
5113.1,0.02269
5107.32,0.02246
5101.53,0.02278
5095.75,0.02254
5089.96,0.02462
5084.17,0.02210
5078.39,0.02333
5072.6,0.02376
5066.81,0.02331
5061.03,0.02353
5055.24,0.02414
5049.46,0.02380
5043.67,0.02364
5037.88,0.02166
5032.1,0.02223
5026.31,0.02261
5020.52,0.02298
5014.74,0.02298
5008.95,0.02304
5003.17,0.02299
4997.38,0.02321
4991.59,0.02376
4985.81,0.02287
4980.02,0.02298
4974.23,0.02311
4968.45,0.02410
4962.66,0.02325
4956.88,0.02304
4951.09,0.02309
4945.3,0.02379
4939.52,0.02399
4933.73,0.02304
4927.94,0.02239
4922.16,0.02298
4916.37,0.02218
4910.59,0.02203
4904.8,0.02240
4899.01,0.02344
4893.23,0.02358
4887.44,0.02374
4881.65,0.02385
4875.87,0.02430
4870.08,0.02331
4864.3,0.02316
4858.51,0.02333
4852.72,0.02304
4846.94,0.02376
4841.15,0.02307
4835.36,0.02274
4829.58,0.02394
4823.79,0.02293
4818.01,0.02350
4812.22,0.02347
4806.43,0.02274
4800.65,0.02324
4794.86,0.02321
4789.07,0.02384
4783.29,0.02251
4777.5,0.02437
4771.72,0.02304
4765.93,0.02373
4760.14,0.02287
4754.36,0.02372
4748.57,0.02400
4742.78,0.02312
4737,0.02384
4731.21,0.02226
4725.43,0.02298
4719.64,0.02335
4713.85,0.02373
4708.07,0.02391
4702.28,0.02397
4696.49,0.02368
4690.71,0.02400
4684.92,0.02338
4679.14,0.02257
4673.35,0.02247
4667.56,0.02380
4661.78,0.02397
4655.99,0.02341
4650.2,0.02308
4644.42,0.02287
4638.63,0.02404
4632.85,0.02402
4627.06,0.02290
4621.27,0.02303
4615.49,0.02285
4609.7,0.02364
4603.92,0.02364
4598.13,0.02283
4592.34,0.02274
4586.56,0.02313
4580.77,0.02406
4574.98,0.02358
4569.2,0.02415
4563.41,0.02247
4557.63,0.02317
4551.84,0.02330
4546.05,0.02376
4540.27,0.02472
4534.48,0.02334
4528.69,0.02413
4522.91,0.02400
4517.12,0.02366
4511.34,0.02325
4505.55,0.02446
4499.76,0.02328
4493.98,0.02256
4488.19,0.02358
4482.4,0.02436
4476.62,0.02383
4470.83,0.02388
4465.05,0.02399
4459.26,0.02384
4453.47,0.02372
4447.69,0.02387
4441.9,0.02358
4436.11,0.02322
4430.33,0.02378
4424.54,0.02368
4418.76,0.02321
4412.97,0.02443
4407.18,0.02370
4401.4,0.02375
4395.61,0.02408
4389.82,0.02360
4384.04,0.02365
4378.25,0.02330
4372.47,0.02355
4366.68,0.02324
4360.89,0.02328
4355.11,0.02309
4349.32,0.02362
4343.53,0.02344
4337.75,0.02333
4331.96,0.02390
4326.18,0.02277
4320.39,0.02377
4314.6,0.02325
4308.82,0.02280
4303.03,0.02346
4297.24,0.02356
4291.46,0.02410
4285.67,0.02442
4279.89,0.02340
4274.1,0.02404
4268.31,0.02334
4262.53,0.02244
4256.74,0.02369
4250.95,0.02308
4245.17,0.02369
4239.38,0.02402
4233.6,0.02324
4227.81,0.02286
4222.02,0.02384
4216.24,0.02341
4210.45,0.02318
4204.66,0.02369
4198.88,0.02292
4193.09,0.02409
4187.31,0.02312
4181.52,0.02377
4175.73,0.02407
4169.95,0.02467
4164.16,0.02294
4158.37,0.02398
4152.59,0.02378
4146.8,0.02420
4141.02,0.02358
4135.23,0.02358
4129.44,0.02413
4123.66,0.02433
4117.87,0.02401
4112.09,0.02391
4106.3,0.02421
4100.51,0.02388
4094.73,0.02326
4088.94,0.02379
4083.15,0.02390
4077.37,0.02358
4071.58,0.02326
4065.8,0.02350
4060.01,0.02370
4054.22,0.02358
4048.44,0.02396
4042.65,0.02394
4036.86,0.02425
4031.08,0.02330
4025.29,0.02367
4019.51,0.02360
4013.72,0.02354
4007.93,0.02394
4002.15,0.02388
3996.36,0.02385
3990.57,0.02297
3984.79,0.02313
3979,0.02437
3973.22,0.02384
3967.43,0.02406
3961.64,0.02355
3955.86,0.02382
3950.07,0.02388
3944.28,0.02426
3938.5,0.02370
3932.71,0.02422
3926.93,0.02367
3921.14,0.02360
3915.35,0.02371
3909.57,0.02419
3903.78,0.02382
3897.99,0.02388
3892.21,0.02488
3886.42,0.02401
3880.64,0.02378
3874.85,0.02441
3869.06,0.02429
3863.28,0.02377
3857.49,0.02463
3851.7,0.02438
3845.92,0.02392
3840.13,0.02403
3834.35,0.02377
3828.56,0.02356
3822.77,0.02415
3816.99,0.02429
3811.2,0.02349
3805.41,0.02405
3799.63,0.02412
3793.84,0.02389
3788.06,0.02377
3782.27,0.02357
3776.48,0.02395
3770.7,0.02401
3764.91,0.02409
3759.12,0.02386
3753.34,0.02448
3747.55,0.02431
3741.77,0.02419
3735.98,0.02421
3730.19,0.02444
3724.41,0.02410
3718.62,0.02352
3712.83,0.02424
3707.05,0.02407
3701.26,0.02455
3695.48,0.02408
3689.69,0.02314
3683.9,0.02386
3678.12,0.02406
3672.33,0.02344
3666.54,0.02334
3660.76,0.02337
3654.97,0.02296
3649.19,0.02326
3643.4,0.02259
3637.61,0.02298
3631.83,0.02342
3626.04,0.02314
3620.25,0.02279
3614.47,0.02283
3608.68,0.02353
3602.9,0.02315
3597.11,0.02311
3591.32,0.02307
3585.54,0.02266
3579.75,0.02301
3573.97,0.02291
3568.18,0.02245
3562.39,0.02258
3556.61,0.02273
3550.82,0.02296
3545.03,0.02253
3539.25,0.02288
3533.46,0.02236
3527.68,0.02258
3521.89,0.02240
3516.1,0.02228
3510.32,0.02257
3504.53,0.02293
3498.74,0.02243
3492.96,0.02213
3487.17,0.02248
3481.39,0.02228
3475.6,0.02217
3469.81,0.02206
3464.03,0.02199
3458.24,0.02210
3452.45,0.02178
3446.67,0.02185
3440.88,0.02142
3435.1,0.02232
3429.31,0.02177
3423.52,0.02091
3417.74,0.02157
3411.95,0.02199
3406.16,0.02134
3400.38,0.02183
3394.59,0.02311
3388.81,0.02230
3383.02,0.02157
3377.23,0.02145
3371.45,0.02173
3365.66,0.02152
3359.87,0.02131
3354.09,0.02108
3348.3,0.02196
3342.52,0.02184
3336.73,0.02112
3330.94,0.02143
3325.16,0.02116
3319.37,0.02151
3313.58,0.02127
3307.8,0.02125
3302.01,0.02207
3296.23,0.02157
3290.44,0.02154
3284.65,0.02173
3278.87,0.02155
3273.08,0.02099
3267.29,0.02251
3261.51,0.02228
3255.72,0.02107
3249.94,0.02176
3244.15,0.02134
3238.36,0.02213
3232.58,0.02269
3226.79,0.02197
3221,0.02215
3215.22,0.02200
3209.43,0.02251
3203.65,0.02201
3197.86,0.02229
3192.07,0.02169
3186.29,0.02234
3180.5,0.02192
3174.71,0.02214
3168.93,0.02234
3163.14,0.02201
3157.36,0.02228
3151.57,0.02229
3145.78,0.02204
3140,0.02200
3134.21,0.02195
3128.42,0.02243
3122.64,0.02186
3116.85,0.02237
3111.07,0.02249
3105.28,0.02222
3099.49,0.02214
3093.71,0.02222
3087.92,0.02128
3082.14,0.02208
3076.35,0.02230
3070.56,0.02201
3064.78,0.02156
3058.99,0.02165
3053.2,0.02262
3047.42,0.02232
3041.63,0.02200
3035.85,0.02161
3030.06,0.02183
3024.27,0.02184
3018.49,0.02231
3012.7,0.02173
3006.91,0.02209
3001.13,0.02227
2995.34,0.02169
2989.56,0.02175
2983.77,0.02142
2977.98,0.02118
2972.2,0.02096
2966.41,0.02120
2960.62,0.02010
2954.84,0.02082
2949.05,0.02118
2943.27,0.02070
2937.48,0.02109
2931.69,0.02090
2925.91,0.02179
2920.12,0.02169
2914.33,0.02154
2908.55,0.02216
2902.76,0.02200
2896.98,0.02183
2891.19,0.02167
2885.4,0.02213
2879.62,0.02222
2873.83,0.02212
2868.04,0.02155
2862.26,0.02201
2856.47,0.02160
2850.69,0.02217
2844.9,0.02292
2839.11,0.02247
2833.33,0.02250
2827.54,0.02272
2821.75,0.02314
2815.97,0.02277
2810.18,0.02259
2804.4,0.02301
2798.61,0.02309
2792.82,0.02277
2787.04,0.02275
2781.25,0.02284
2775.46,0.02271
2769.68,0.02297
2763.89,0.02330
2758.11,0.02259
2752.32,0.02305
2746.53,0.02297
2740.75,0.02290
2734.96,0.02269
2729.17,0.02309
2723.39,0.02282
2717.6,0.02311
2711.82,0.02310
2706.03,0.02274
2700.24,0.02287
2694.46,0.02226
2688.67,0.02278
2682.88,0.02318
2677.1,0.02306
2671.31,0.02302
2665.53,0.02265
2659.74,0.02292
2653.95,0.02290
2648.17,0.02299
2642.38,0.02269
2636.59,0.02298
2630.81,0.02316
2625.02,0.02287
2619.24,0.02308
2613.45,0.02303
2607.66,0.02301
2601.88,0.02296
2596.09,0.02297
2590.3,0.02290
2584.52,0.02287
2578.73,0.02317
2572.95,0.02323
2567.16,0.02313
2561.37,0.02340
2555.59,0.02295
2549.8,0.02286
2544.02,0.02289
2538.23,0.02262
2532.44,0.02284
2526.66,0.02281
2520.87,0.02297
2515.08,0.02344
2509.3,0.02292
2503.51,0.02292
2497.73,0.02303
2491.94,0.02266
2486.15,0.02320
2480.37,0.02301
2474.58,0.02264
2468.79,0.02318
2463.01,0.02330
2457.22,0.02280
2451.44,0.02310
2445.65,0.02281
2439.86,0.02256
2434.08,0.02334
2428.29,0.02306
2422.5,0.02302
2416.72,0.02348
2410.93,0.02321
2405.15,0.02306
2399.36,0.02299
2393.57,0.02258
2387.79,0.02302
2382,0.02297
2376.21,0.02297
2370.43,0.02368
2364.64,0.02357
2358.86,0.02295
2353.07,0.02281
2347.28,0.02277
2341.5,0.02267
2335.71,0.02298
2329.92,0.02282
2324.14,0.02328
2318.35,0.02321
2312.57,0.02322
2306.78,0.02279
2300.99,0.02271
2295.21,0.02309
2289.42,0.02298
2283.63,0.02302
2277.85,0.02271
2272.06,0.02286
2266.28,0.02310
2260.49,0.02296
2254.7,0.02312
2248.92,0.02304
2243.13,0.02305
2237.34,0.02264
2231.56,0.02253
2225.77,0.02305
2219.99,0.02300
2214.2,0.02304
2208.41,0.02283
2202.63,0.02303
2196.84,0.02267
2191.05,0.02311
2185.27,0.02257
2179.48,0.02272
2173.7,0.02303
2167.91,0.02296
2162.12,0.02293
2156.34,0.02290
2150.55,0.02252
2144.76,0.02294
2138.98,0.02321
2133.19,0.02289
2127.41,0.02256
2121.62,0.02296
2115.83,0.02298
2110.05,0.02289
2104.26,0.02263
2098.47,0.02295
2092.69,0.02291
2086.9,0.02282
2081.12,0.02264
2075.33,0.02277
2069.54,0.02285
2063.76,0.02308
2057.97,0.02264
2052.19,0.02264
2046.4,0.02294
2040.61,0.02280
2034.83,0.02274
2029.04,0.02292
2023.25,0.02272
2017.47,0.02264
2011.68,0.02283
2005.9,0.02278
2000.11,0.02281
1994.32,0.02292
1988.54,0.02248
1982.75,0.02266
1976.96,0.02251
1971.18,0.02265
1965.39,0.02304
1959.61,0.02291
1953.82,0.02285
1948.03,0.02291
1942.25,0.02302
1936.46,0.02273
1930.67,0.02299
1924.89,0.02261
1919.1,0.02245
1913.32,0.02245
1907.53,0.02265
1901.74,0.02270
1895.96,0.02268
1890.17,0.02259
1884.38,0.02275
1878.6,0.02274
1872.81,0.02245
1867.03,0.02232
1861.24,0.02255
1855.45,0.02242
1849.67,0.02230
1843.88,0.02229
1838.09,0.02196
1832.31,0.02197
1826.52,0.02223
1820.74,0.02196
1814.95,0.02192
1809.16,0.02173
1803.38,0.02160
1797.59,0.02155
1791.8,0.02170
1786.02,0.02143
1780.23,0.02105
1774.45,0.02077
1768.66,0.02037
1762.87,0.02006
1757.09,0.01973
1751.3,0.01961
1745.51,0.01946
1739.73,0.02087
1733.94,0.02129
1728.16,0.02207
1722.37,0.02260
1716.58,0.02281
1710.8,0.02240
1705.01,0.02211
1699.22,0.02163
1693.44,0.02130
1687.65,0.02104
1681.87,0.02102
1676.08,0.02085
1670.29,0.02069
1664.51,0.02057
1658.72,0.02026
1652.93,0.02083
1647.15,0.02039
1641.36,0.02046
1635.58,0.02042
1629.79,0.02060
1624,0.02068
1618.22,0.02053
1612.43,0.02071
1606.64,0.02058
1600.86,0.02096
1595.07,0.02069
1589.29,0.02042
1583.5,0.02022
1577.71,0.02038
1571.93,0.02004
1566.14,0.02007
1560.35,0.02028
1554.57,0.02026
1548.78,0.02042
1543,0.02037
1537.21,0.02029
1531.42,0.02026
1525.64,0.02063
1519.85,0.02055
1514.07,0.02044
1508.28,0.02074
1502.49,0.02019
1496.71,0.02071
1490.92,0.02063
1485.13,0.02020
1479.35,0.01984
1473.56,0.01998
1467.78,0.02003
1461.99,0.02022
1456.2,0.01992
1450.42,0.02036
1444.63,0.02059
1438.84,0.02027
1433.06,0.02017
1427.27,0.02035
1421.49,0.02016
1415.7,0.02023
1409.91,0.02013
1404.13,0.01984
1398.34,0.01998
1392.55,0.01966
1386.77,0.01961
1380.98,0.01967
1375.2,0.01989
1369.41,0.01957
1363.62,0.01985
1357.84,0.01963
1352.05,0.01951
1346.26,0.01922
1340.48,0.01930
1334.69,0.01954
1328.91,0.01949
1323.12,0.01898
1317.33,0.01824
1311.55,0.01831
1305.76,0.01840
1299.97,0.01890
1294.19,0.01936
1288.4,0.01997
1282.62,0.02025
1276.83,0.02078
1271.04,0.02101
1265.26,0.02142
1259.47,0.02152
1253.68,0.02190
1247.9,0.02183
1242.11,0.02137
1236.33,0.02123
1230.54,0.02152
1224.75,0.02126
1218.97,0.02090
1213.18,0.02113
1207.39,0.02077
1201.61,0.02029
1195.82,0.02030
1190.04,0.01985
1184.25,0.01962
1178.46,0.02010
1172.68,0.01931
1166.89,0.01902
1161.1,0.01904
1155.32,0.01921
1149.53,0.01894
1143.75,0.01886
1137.96,0.01959
1132.17,0.01986
1126.39,0.01999
1120.6,0.02038
1114.81,0.02081
1109.03,0.02036
1103.24,0.02011
1097.46,0.02036
1091.67,0.01957
1085.88,0.02015
1080.1,0.01981
1074.31,0.02174
1068.52,0.02149
1062.74,0.02129
1056.95,0.02144
1051.17,0.02069
1045.38,0.02121
1039.59,0.02105
1033.81,0.02120
1028.02,0.02137
1022.24,0.02165
1016.45,0.02143
1010.66,0.02164
1004.88,0.02224
999.09,0.02263
993.304,0.02310
987.518,0.02246
981.731,0.02216
975.945,0.02228
970.159,0.02202
964.373,0.02212
958.586,0.02196
952.8,0.02247
947.014,0.02225
941.228,0.02223
935.441,0.02206
929.655,0.02189
923.869,0.02246
918.083,0.02134
912.297,0.02191
906.51,0.02137
900.724,0.02127
894.938,0.02136
889.152,0.02151
883.365,0.02141
877.579,0.02064
871.793,0.02101
866.007,0.02119
860.22,0.02099
854.434,0.02016
848.648,0.02065
842.862,0.02035
837.075,0.02080
831.289,0.02065
825.503,0.02042
819.717,0.02092
813.931,0.02041
808.144,0.02102
802.358,0.02072
796.572,0.02185
790.786,0.02059
784.999,0.01988
779.213,0.01980
773.427,0.02061
767.641,0.01998
761.854,0.01977
756.068,0.01995
750.282,0.01971
744.496,0.02011
738.709,0.02012
732.923,0.01963
727.137,0.02123
721.351,0.02042
715.565,0.02033
709.778,0.01927
703.992,0.01994
698.206,0.01956
692.42,0.01903
686.633,0.01998
680.847,0.01842
675.061,0.01851
669.275,0.01849
663.488,0.01776
657.702,0.01857
651.916,0.01853
646.13,0.01884
640.343,0.01967
634.557,0.01856
628.771,0.01742
622.985,0.01772
617.198,0.01774
611.412,0.01580
605.626,0.01652
599.84,0.01771