File: 01_Data/Concrete_Block/FTIR/IS/Concrete_Block_IS_S_221214_R8.dpt
7497.03,0.28331
7491.25,0.27577
7485.46,0.28101
7479.67,0.28557
7473.89,0.28561
7468.1,0.27685
7462.32,0.27720
7456.53,0.27362
7450.74,0.28087
7444.96,0.27464
7439.17,0.27857
7433.38,0.26385
7427.6,0.27304
7421.81,0.28631
7416.03,0.27780
7410.24,0.27322
7404.45,0.27653
7398.67,0.27930
7392.88,0.27777
7387.09,0.27394
7381.31,0.27175
7375.52,0.28346
7369.74,0.27780
7363.95,0.27999
7358.16,0.27595
7352.38,0.28583
7346.59,0.28518
7340.8,0.28144
7335.02,0.26913
7329.23,0.27868
7323.45,0.26926
7317.66,0.27251
7311.87,0.28180
7306.09,0.27042
7300.3,0.27928
7294.51,0.28056
7288.73,0.27651
7282.94,0.26167
7277.16,0.27545
7271.37,0.27980
7265.58,0.27185
7259.8,0.26878
7254.01,0.27918
7248.22,0.28039
7242.44,0.27504
7236.65,0.27704
7230.87,0.27379
7225.08,0.27097
7219.29,0.27299
7213.51,0.27972
7207.72,0.27907
7201.93,0.26801
7196.15,0.26764
7190.36,0.27736
7184.58,0.28207
7178.79,0.28235
7173,0.27410
7167.22,0.27284
7161.43,0.26934
7155.65,0.27727
7149.86,0.27218
7144.07,0.27651
7138.29,0.27133
7132.5,0.26953
7126.71,0.26398
7120.93,0.26961
7115.14,0.27381
7109.36,0.27702
7103.57,0.27844
7097.78,0.27177
7092,0.27750
7086.21,0.27211
7080.42,0.27314
7074.64,0.27033
7068.85,0.27013
7063.07,0.27503
7057.28,0.26460
7051.49,0.27640
7045.71,0.26632
7039.92,0.27215
7034.13,0.27073
7028.35,0.27442
7022.56,0.27273
7016.78,0.26994
7010.99,0.27504
7005.2,0.27285
6999.42,0.27075
6993.63,0.27275
6987.84,0.27648
6982.06,0.27658
6976.27,0.27105
6970.49,0.27116
6964.7,0.27608
6958.91,0.27541
6953.13,0.26745
6947.34,0.27065
6941.55,0.27177
6935.77,0.27615
6929.98,0.27138
6924.2,0.27715
6918.41,0.27727
6912.62,0.27603
6906.84,0.27688
6901.05,0.27600
6895.26,0.27384
6889.48,0.27548
6883.69,0.27237
6877.91,0.27356
6872.12,0.27246
6866.33,0.27494
6860.55,0.27594
6854.76,0.27189
6848.97,0.26781
6843.19,0.26819
6837.4,0.27522
6831.62,0.27757
6825.83,0.26761
6820.04,0.27368
6814.26,0.26885
6808.47,0.27448
6802.68,0.27509
6796.9,0.27693
6791.11,0.27512
6785.33,0.27571
6779.54,0.27208
6773.75,0.27557
6767.97,0.27921
6762.18,0.27175
6756.39,0.27939
6750.61,0.27671
6744.82,0.27071
6739.04,0.27435
6733.25,0.27247
6727.46,0.27149
6721.68,0.27963
6715.89,0.27767
6710.1,0.27424
6704.32,0.28005
6698.53,0.27384
6692.75,0.27267
6686.96,0.27619
6681.17,0.27469
6675.39,0.28011
6669.6,0.27109
6663.82,0.27489
6658.03,0.27474
6652.24,0.27448
6646.46,0.27108
6640.67,0.27519
6634.88,0.27153
6629.1,0.27608
6623.31,0.27416
6617.53,0.27078
6611.74,0.27561
6605.95,0.27674
6600.17,0.27684
6594.38,0.27655
6588.59,0.27362
6582.81,0.27507
6577.02,0.27335
6571.24,0.27458
6565.45,0.27181
6559.66,0.27652
6553.88,0.27430
6548.09,0.27646
6542.3,0.27673
6536.52,0.27522
6530.73,0.27078
6524.95,0.27662
6519.16,0.27862
6513.37,0.27972
6507.59,0.27144
6501.8,0.27437
6496.01,0.27430
6490.23,0.27440
6484.44,0.27402
6478.66,0.27413
6472.87,0.27587
6467.08,0.27592
6461.3,0.27445
6455.51,0.27615
6449.72,0.27574
6443.94,0.27423
6438.15,0.27782
6432.37,0.27527
6426.58,0.27237
6420.79,0.27287
6415.01,0.27517
6409.22,0.27579
6403.43,0.27348
6397.65,0.27611
6391.86,0.28252
6386.08,0.27510
6380.29,0.27495
6374.5,0.27301
6368.72,0.27325
6362.93,0.27639
6357.14,0.27669
6351.36,0.27561
6345.57,0.27494
6339.79,0.27520
6334,0.27778
6328.21,0.27829
6322.43,0.27656
6316.64,0.27726
6310.85,0.27489
6305.07,0.27712
6299.28,0.27389
6293.5,0.27525
6287.71,0.27577
6281.92,0.27625
6276.14,0.27713
6270.35,0.27769
6264.56,0.27605
6258.78,0.27530
6252.99,0.27245
6247.21,0.27049
6241.42,0.27489
6235.63,0.27389
6229.85,0.27719
6224.06,0.27439
6218.27,0.27413
6212.49,0.27356
6206.7,0.27510
6200.92,0.27746
6195.13,0.27375
6189.34,0.27307
6183.56,0.27419
6177.77,0.27884
6171.98,0.27586
6166.2,0.27587
6160.41,0.27471
6154.63,0.27567
6148.84,0.27653
6143.05,0.27333
6137.27,0.27145
6131.48,0.27547
6125.7,0.27739
6119.91,0.27379
6114.12,0.27467
6108.34,0.27430
6102.55,0.27462
6096.76,0.27682
6090.98,0.27627
6085.19,0.27783
6079.41,0.27829
6073.62,0.27564
6067.83,0.27296
6062.05,0.27961
6056.26,0.27725
6050.47,0.27417
6044.69,0.27386
6038.9,0.27522
6033.12,0.27555
6027.33,0.27523
6021.54,0.27789
6015.76,0.27675
6009.97,0.27660
6004.18,0.27476
5998.4,0.27148
5992.61,0.27243
5986.83,0.27254
5981.04,0.27650
5975.25,0.27478
5969.47,0.27379
5963.68,0.27588
5957.89,0.27615
5952.11,0.27617
5946.32,0.27397
5940.54,0.27403
5934.75,0.27608
5928.96,0.27642
5923.18,0.27691
5917.39,0.27679
5911.6,0.27541
5905.82,0.27443
5900.03,0.27638
5894.25,0.27684
5888.46,0.27539
5882.67,0.27401
5876.89,0.27211
5871.1,0.27275
5865.31,0.27575
5859.53,0.27385
5853.74,0.27529
5847.96,0.27383
5842.17,0.27597
5836.38,0.27457
5830.6,0.27288
5824.81,0.27481
5819.02,0.27541
5813.24,0.27331
5807.45,0.27246
5801.67,0.27416
5795.88,0.27617
5790.09,0.27344
5784.31,0.27862
5778.52,0.27587
5772.73,0.27526
5766.95,0.27400
5761.16,0.27207
5755.38,0.27404
5749.59,0.27427
5743.8,0.27507
5738.02,0.27517
5732.23,0.27540
5726.44,0.27475
5720.66,0.27397
5714.87,0.27684
5709.09,0.27264
5703.3,0.27323
5697.51,0.27450
5691.73,0.27624
5685.94,0.27490
5680.15,0.27548
5674.37,0.27375
5668.58,0.27324
5662.8,0.27312
5657.01,0.27347
5651.22,0.27569
5645.44,0.27597
5639.65,0.27611
5633.87,0.27646
5628.08,0.27496
5622.29,0.27622
5616.51,0.27541
5610.72,0.27450
5604.93,0.27591
5599.15,0.27198
5593.36,0.27159
5587.58,0.27411
5581.79,0.27311
5576,0.27411
5570.22,0.27258
5564.43,0.27453
5558.64,0.27388
5552.86,0.27638
5547.07,0.27372
5541.29,0.27212
5535.5,0.27443
5529.71,0.27452
5523.93,0.27316
5518.14,0.27459
5512.35,0.27225
5506.57,0.27130
5500.78,0.27179
5495,0.27195
5489.21,0.27311
5483.42,0.27374
5477.64,0.27220
5471.85,0.27187
5466.06,0.27221
5460.28,0.27370
5454.49,0.27378
5448.71,0.27195
5442.92,0.27346
5437.13,0.27226
5431.35,0.27189
5425.56,0.27249
5419.77,0.27181
5413.99,0.27199
5408.2,0.27205
5402.42,0.27216
5396.63,0.27289
5390.84,0.27168
5385.06,0.27095
5379.27,0.27192
5373.48,0.27093
5367.7,0.27033
5361.91,0.27177
5356.13,0.27238
5350.34,0.27063
5344.55,0.27139
5338.77,0.26838
5332.98,0.26903
5327.19,0.26723
5321.41,0.26798
5315.62,0.26754
5309.84,0.26847
5304.05,0.26647
5298.26,0.26493
5292.48,0.26480
5286.69,0.26485
5280.9,0.26310
5275.12,0.26327
5269.33,0.26019
5263.55,0.25791
5257.76,0.25791
5251.97,0.25727
5246.19,0.25412
5240.4,0.25320
5234.61,0.25333
5228.83,0.25282
5223.04,0.25133
5217.26,0.25106
5211.47,0.25114
5205.68,0.25035
5199.9,0.24882
5194.11,0.24795
5188.32,0.24893
5182.54,0.24875
5176.75,0.24865
5170.97,0.24925
5165.18,0.24991
5159.39,0.24941
5153.61,0.24936
5147.82,0.24982
5142.03,0.25036
5136.25,0.25075
5130.46,0.24985
5124.68,0.24988
5118.89,0.25316
5113.1,0.25069
5107.32,0.25315
5101.53,0.25310
5095.75,0.25174
5089.96,0.25277
5084.17,0.25359
5078.39,0.25306
5072.6,0.25300
5066.81,0.25539
5061.03,0.25447
5055.24,0.25451
5049.46,0.25438
5043.67,0.25468
5037.88,0.25512
5032.1,0.25523
5026.31,0.25483
5020.52,0.25483
5014.74,0.25525
5008.95,0.25607
5003.17,0.25619
4997.38,0.25655
4991.59,0.25784
4985.81,0.25823
4980.02,0.25874
4974.23,0.25948
4968.45,0.25932
4962.66,0.25890
4956.88,0.25982
4951.09,0.26037
4945.3,0.26045
4939.52,0.25958
4933.73,0.26122
4927.94,0.26112
4922.16,0.26149
4916.37,0.26081
4910.59,0.26249
4904.8,0.26204
4899.01,0.26187
4893.23,0.26128
4887.44,0.26208
4881.65,0.26208
4875.87,0.26267
4870.08,0.26216
4864.3,0.26240
4858.51,0.26174
4852.72,0.26228
4846.94,0.26312
4841.15,0.26265
4835.36,0.26176
4829.58,0.26197
4823.79,0.26290
4818.01,0.26191
4812.22,0.26312
4806.43,0.26254
4800.65,0.26274
4794.86,0.26267
4789.07,0.26270
4783.29,0.26295
4777.5,0.26222
4771.72,0.26238
4765.93,0.26272
4760.14,0.26143
4754.36,0.26260
4748.57,0.26298
4742.78,0.26260
4737,0.26189
4731.21,0.26236
4725.43,0.26296
4719.64,0.26228
4713.85,0.26281
4708.07,0.26223
4702.28,0.26220
4696.49,0.26128
4690.71,0.26167
4684.92,0.26115
4679.14,0.26250
4673.35,0.26135
4667.56,0.26143
4661.78,0.26066
4655.99,0.26090
4650.2,0.26092
4644.42,0.26009
4638.63,0.26051
4632.85,0.26023
4627.06,0.25933
4621.27,0.25881
4615.49,0.25881
4609.7,0.25976
4603.92,0.25939
4598.13,0.25913
4592.34,0.25847
4586.56,0.25875
4580.77,0.25884
4574.98,0.25778
4569.2,0.25709
4563.41,0.25756
4557.63,0.25740
4551.84,0.25725
4546.05,0.25624
4540.27,0.25541
4534.48,0.25434
4528.69,0.25368
4522.91,0.25227
4517.12,0.25256
4511.34,0.25241
4505.55,0.25206
4499.76,0.25152
4493.98,0.25149
4488.19,0.25086
4482.4,0.25104
4476.62,0.25013
4470.83,0.25101
4465.05,0.25133
4459.26,0.25049
4453.47,0.25007
4447.69,0.24986
4441.9,0.24961
4436.11,0.24856
4430.33,0.24781
4424.54,0.24754
4418.76,0.24703
4412.97,0.24616
4407.18,0.24486
4401.4,0.24580
4395.61,0.24527
4389.82,0.24342
4384.04,0.24395
4378.25,0.24352
4372.47,0.24239
4366.68,0.24159
4360.89,0.24073
4355.11,0.24032
4349.32,0.23934
4343.53,0.23920
4337.75,0.23734
4331.96,0.23741
4326.18,0.23671
4320.39,0.23549
4314.6,0.23512
4308.82,0.23365
4303.03,0.23278
4297.24,0.23212
4291.46,0.23256
4285.67,0.23323
4279.89,0.23418
4274.1,0.23540
4268.31,0.23552
4262.53,0.23689
4256.74,0.23890
4250.95,0.24067
4245.17,0.24095
4239.38,0.24340
4233.6,0.24400
4227.81,0.24433
4222.02,0.24463
4216.24,0.24427
4210.45,0.24357
4204.66,0.24443
4198.88,0.24370
4193.09,0.24280
4187.31,0.24261
4181.52,0.24196
4175.73,0.24105
4169.95,0.24078
4164.16,0.23918
4158.37,0.23880
4152.59,0.23729
4146.8,0.23803
4141.02,0.23592
4135.23,0.23540
4129.44,0.23421
4123.66,0.23347
4117.87,0.23112
4112.09,0.23093
4106.3,0.22917
4100.51,0.22680
4094.73,0.22582
4088.94,0.22300
4083.15,0.22240
4077.37,0.22020
4071.58,0.21925
4065.8,0.21868
4060.01,0.21755
4054.22,0.21591
4048.44,0.21475
4042.65,0.21365
4036.86,0.21270
4031.08,0.21095
4025.29,0.21015
4019.51,0.20832
4013.72,0.20706
4007.93,0.20541
4002.15,0.20409
3996.36,0.20398
3990.57,0.20279
3984.79,0.20136
3979,0.20054
3973.22,0.20006
3967.43,0.19969
3961.64,0.19957
3955.86,0.19954
3950.07,0.20045
3944.28,0.20171
3938.5,0.20328
3932.71,0.20708
3926.93,0.20926
3921.14,0.21313
3915.35,0.21517
3909.57,0.21730
3903.78,0.21799
3897.99,0.21915
3892.21,0.22112
3886.42,0.22065
3880.64,0.22054
3874.85,0.22123
3869.06,0.22124
3863.28,0.22130
3857.49,0.22142
3851.7,0.22139
3845.92,0.22055
3840.13,0.22028
3834.35,0.22001
3828.56,0.21965
3822.77,0.21923
3816.99,0.21863
3811.2,0.21785
3805.41,0.21686
3799.63,0.21650
3793.84,0.21475
3788.06,0.21385
3782.27,0.21245
3776.48,0.21090
3770.7,0.20945
3764.91,0.20790
3759.12,0.20572
3753.34,0.20234
3747.55,0.19743
3741.77,0.19155
3735.98,0.18615
3730.19,0.18097
3724.41,0.17302
3718.62,0.16433
3712.83,0.15386
3707.05,0.14302
3701.26,0.12947
3695.48,0.12150
3689.69,0.12219
3683.9,0.12177
3678.12,0.11743
3672.33,0.11138
3666.54,0.10570
3660.76,0.10041
3654.97,0.09474
3649.19,0.09046
3643.4,0.08619
3637.61,0.08219
3631.83,0.07883
3626.04,0.07615
3620.25,0.07377
3614.47,0.07267
3608.68,0.07234
3602.9,0.07110
3597.11,0.07057
3591.32,0.07115
3585.54,0.07043
3579.75,0.07063
3573.97,0.06966
3568.18,0.06969
3562.39,0.06901
3556.61,0.06906
3550.82,0.06787
3545.03,0.06756
3539.25,0.06666
3533.46,0.06645
3527.68,0.06650
3521.89,0.06587
3516.1,0.06636
3510.32,0.06498
3504.53,0.06490
3498.74,0.06455
3492.96,0.06468
3487.17,0.06405
3481.39,0.06363
3475.6,0.06395
3469.81,0.06360
3464.03,0.06361
3458.24,0.06280
3452.45,0.06251
3446.67,0.06161
3440.88,0.06188
3435.1,0.06164
3429.31,0.06157
3423.52,0.06081
3417.74,0.06082
3411.95,0.06075
3406.16,0.06144
3400.38,0.06074
3394.59,0.06033
3388.81,0.06041
3383.02,0.06063
3377.23,0.06080
3371.45,0.06173
3365.66,0.06135
3359.87,0.06187
3354.09,0.06174
3348.3,0.06174
3342.52,0.06211
3336.73,0.06261
3330.94,0.06320
3325.16,0.06237
3319.37,0.06319
3313.58,0.06329
3307.8,0.06347
3302.01,0.06378
3296.23,0.06440
3290.44,0.06434
3284.65,0.06451
3278.87,0.06430
3273.08,0.06512
3267.29,0.06551
3261.51,0.06554
3255.72,0.06590
3249.94,0.06585
3244.15,0.06571
3238.36,0.06649
3232.58,0.06650
3226.79,0.06699
3221,0.06730
3215.22,0.06778
3209.43,0.06838
3203.65,0.06865
3197.86,0.06943
3192.07,0.06995
3186.29,0.06960
3180.5,0.07082
3174.71,0.07129
3168.93,0.07165
3163.14,0.07309
3157.36,0.07299
3151.57,0.07398
3145.78,0.07495
3140,0.07491
3134.21,0.07550
3128.42,0.07618
3122.64,0.07705
3116.85,0.07708
3111.07,0.07749
3105.28,0.07826
3099.49,0.07887
3093.71,0.07866
3087.92,0.07872
3082.14,0.07944
3076.35,0.07929
3070.56,0.07953
3064.78,0.08002
3058.99,0.07984
3053.2,0.07982
3047.42,0.07900
3041.63,0.07879
3035.85,0.07627
3030.06,0.07332
3024.27,0.07117
3018.49,0.07065
3012.7,0.07103
3006.91,0.07165
3001.13,0.07100
2995.34,0.06978
2989.56,0.06746
2983.77,0.06742
2977.98,0.06796
2972.2,0.06887
2966.41,0.06960
2960.62,0.06988
2954.84,0.06979
2949.05,0.07012
2943.27,0.07013
2937.48,0.06943
2931.69,0.06972
2925.91,0.06942
2920.12,0.06948
2914.33,0.06904
2908.55,0.06778
2902.76,0.06727
2896.98,0.06716
2891.19,0.06739
2885.4,0.06717
2879.62,0.06650
2873.83,0.06692
2868.04,0.06905
2862.26,0.07160
2856.47,0.07428
2850.69,0.07804
2844.9,0.08327
2839.11,0.08805
2833.33,0.09280
2827.54,0.09630
2821.75,0.09844
2815.97,0.10020
2810.18,0.10238
2804.4,0.10463
2798.61,0.10649
2792.82,0.10810
2787.04,0.10986
2781.25,0.11098
2775.46,0.11218
2769.68,0.11264
2763.89,0.11392
2758.11,0.11446
2752.32,0.11598
2746.53,0.11643
2740.75,0.11646
2734.96,0.11732
2729.17,0.11729
2723.39,0.11814
2717.6,0.11778
2711.82,0.11783
2706.03,0.11757
2700.24,0.11703
2694.46,0.11667
2688.67,0.11608
2682.88,0.11480
2677.1,0.11350
2671.31,0.11079
2665.53,0.10722
2659.74,0.10344
2653.95,0.10031
2648.17,0.09738
2642.38,0.09358
2636.59,0.08993
2630.81,0.08627
2625.02,0.08436
2619.24,0.08440
2613.45,0.08478
2607.66,0.08413
2601.88,0.08285
2596.09,0.08073
2590.3,0.07828
2584.52,0.07644
2578.73,0.07531
2572.95,0.07481
2567.16,0.07395
2561.37,0.07206
2555.59,0.06940
2549.8,0.06694
2544.02,0.06563
2538.23,0.06355
2532.44,0.06053
2526.66,0.05846
2520.87,0.05668
2515.08,0.05782
2509.3,0.06069
2503.51,0.06490
2497.73,0.07163
2491.94,0.07814
2486.15,0.08486
2480.37,0.09102
2474.58,0.09682
2468.79,0.10215
2463.01,0.10586
2457.22,0.10859
2451.44,0.11114
2445.65,0.11301
2439.86,0.11481
2434.08,0.11581
2428.29,0.11652
2422.5,0.11695
2416.72,0.11720
2410.93,0.11739
2405.15,0.11842
2399.36,0.11926
2393.57,0.11944
2387.79,0.11955
2382,0.11947
2376.21,0.11850
2370.43,0.11804
2364.64,0.11733
2358.86,0.11712
2353.07,0.11711
2347.28,0.11584
2341.5,0.11480
2335.71,0.11331
2329.92,0.11348
2324.14,0.11296
2318.35,0.11281
2312.57,0.11311
2306.78,0.11335
2300.99,0.11395
2295.21,0.11468
2289.42,0.11422
2283.63,0.11257
2277.85,0.11096
2272.06,0.10946
2266.28,0.10729
2260.49,0.10601
2254.7,0.10427
2248.92,0.10365
2243.13,0.10388
2237.34,0.10420
2231.56,0.10427
2225.77,0.10357
2219.99,0.10297
2214.2,0.10181
2208.41,0.10086
2202.63,0.10061
2196.84,0.09984
2191.05,0.09887
2185.27,0.09752
2179.48,0.09626
2173.7,0.09462
2167.91,0.09318
2162.12,0.09186
2156.34,0.09070
2150.55,0.09013
2144.76,0.08988
2138.98,0.09129
2133.19,0.09367
2127.41,0.09586
2121.62,0.09833
2115.83,0.10027
2110.05,0.10113
2104.26,0.10175
2098.47,0.10198
2092.69,0.10174
2086.9,0.10189
2081.12,0.10142
2075.33,0.10080
2069.54,0.10044
2063.76,0.09972
2057.97,0.09911
2052.19,0.09847
2046.4,0.09665
2040.61,0.09546
2034.83,0.09427
2029.04,0.09288
2023.25,0.09211
2017.47,0.09135
2011.68,0.09005
2005.9,0.08899
2000.11,0.08867
1994.32,0.08799
1988.54,0.08720
1982.75,0.08568
1976.96,0.08315
1971.18,0.08305
1965.39,0.08410
1959.61,0.08323
1953.82,0.08398
1948.03,0.08362
1942.25,0.08315
1936.46,0.08254
1930.67,0.08131
1924.89,0.07990
1919.1,0.07869
1913.32,0.07737
1907.53,0.07544
1901.74,0.07317
1895.96,0.07157
1890.17,0.07013
1884.38,0.06856
1878.6,0.06740
1872.81,0.06641
1867.03,0.06531
1861.24,0.06406
1855.45,0.06283
1849.67,0.06152
1843.88,0.05985
1838.09,0.05674
1832.31,0.05296
1826.52,0.04856
1820.74,0.04583
1814.95,0.04395
1809.16,0.04276
1803.38,0.03991
1797.59,0.03730
1791.8,0.03834
1786.02,0.04242
1780.23,0.04533
1774.45,0.04681
1768.66,0.04735
1762.87,0.04754
1757.09,0.04709
1751.3,0.04672
1745.51,0.04578
1739.73,0.04488
1733.94,0.04443
1728.16,0.04426
1722.37,0.04382
1716.58,0.04326
1710.8,0.04269
1705.01,0.04181
1699.22,0.04090
1693.44,0.03951
1687.65,0.03867
1681.87,0.03794
1676.08,0.03771
1670.29,0.03741
1664.51,0.03706
1658.72,0.03705
1652.93,0.03706
1647.15,0.03735
1641.36,0.03771
1635.58,0.03827
1629.79,0.04012
1624,0.04231
1618.22,0.04439
1612.43,0.04699
1606.64,0.04965
1600.86,0.05409
1595.07,0.05926
1589.29,0.06757
1583.5,0.07965
1577.71,0.09476
1571.93,0.10958
1566.14,0.11683
1560.35,0.12048
1554.57,0.12221
1548.78,0.12097
1543,0.11754
1537.21,0.11409
1531.42,0.11135
1525.64,0.10868
1519.85,0.10665
1514.07,0.10409
1508.28,0.10192
1502.49,0.09909
1496.71,0.09720
1490.92,0.09573
1485.13,0.09398
1479.35,0.09290
1473.56,0.09210
1467.78,0.09093
1461.99,0.08976
1456.2,0.08846
1450.42,0.08814
1444.63,0.08748
1438.84,0.08747
1433.06,0.08774
1427.27,0.08811
1421.49,0.08722
1415.7,0.08383
1409.91,0.08155
1404.13,0.07781
1398.34,0.07423
1392.55,0.07199
1386.77,0.07113
1380.98,0.07137
1375.2,0.07264
1369.41,0.07425
1363.62,0.07655
1357.84,0.07897
1352.05,0.08089
1346.26,0.08197
1340.48,0.08295
1334.69,0.08419
1328.91,0.08516
1323.12,0.08603
1317.33,0.08643
1311.55,0.08742
1305.76,0.08791
1299.97,0.08787
1294.19,0.08865
1288.4,0.08950
1282.62,0.09055
1276.83,0.09157
1271.04,0.09167
1265.26,0.09108
1259.47,0.09230
1253.68,0.09341
1247.9,0.09328
1242.11,0.09327
1236.33,0.09367
1230.54,0.09453
1224.75,0.09570
1218.97,0.09573
1213.18,0.09350
1207.39,0.08985
1201.61,0.08607
1195.82,0.08164
1190.04,0.07796
1184.25,0.07602
1178.46,0.07417
1172.68,0.07309
1166.89,0.06976
1161.1,0.06613
1155.32,0.06707
1149.53,0.06981
1143.75,0.07050
1137.96,0.07030
1132.17,0.07044
1126.39,0.07058
1120.6,0.06989
1114.81,0.06896
1109.03,0.06940
1103.24,0.06838
1097.46,0.06802
1091.67,0.06735
1085.88,0.06768
1080.1,0.06843
1074.31,0.06828
1068.52,0.06474
1062.74,0.06194
1056.95,0.05856
1051.17,0.05667
1045.38,0.05481
1039.59,0.05367
1033.81,0.05207
1028.02,0.05081
1022.24,0.05024
1016.45,0.04990
1010.66,0.04972
1004.88,0.05024
999.09,0.04986
993.304,0.04995
987.518,0.05087
981.731,0.05087
975.945,0.05138
970.159,0.05283
964.373,0.05383
958.586,0.05532
952.8,0.05637
947.014,0.05689
941.228,0.05695
935.441,0.05765
929.655,0.05809
923.869,0.05882
918.083,0.05894
912.297,0.05996
906.51,0.06422
900.724,0.07281
894.938,0.08030
889.152,0.07300
883.365,0.06215
877.579,0.05851
871.793,0.05692
866.007,0.05706
860.22,0.05590
854.434,0.05198
848.648,0.05154
842.862,0.05375
837.075,0.05214
831.289,0.05104
825.503,0.05024
819.717,0.04990
813.931,0.04863
808.144,0.04989
802.358,0.05253
796.572,0.05211
790.786,0.05013
784.999,0.05272
779.213,0.05186
773.427,0.05113
767.641,0.04921
761.854,0.04857
756.068,0.04614
750.282,0.04431
744.496,0.04290
738.709,0.03944
732.923,0.03626
727.137,0.03815
721.351,0.03812
715.565,0.03725
709.778,0.04103
703.992,0.04174
698.206,0.04091
692.42,0.04368
686.633,0.04243
680.847,0.04087
675.061,0.04175
669.275,0.04012
663.488,0.04069
657.702,0.04075
651.916,0.03721
646.13,0.03761
640.343,0.03757
634.557,0.03507
628.771,0.03582
622.985,0.03492
617.198,0.03625
611.412,0.03731
605.626,0.03361
599.84,0.03007