File: 01_Data/Concrete_Block/FTIR/IS/Concrete_Block_IS_S_221214_R5.dpt
7497.03,0.26903
7491.25,0.26898
7485.46,0.27762
7479.67,0.27616
7473.89,0.27519
7468.1,0.28468
7462.32,0.28178
7456.53,0.26386
7450.74,0.27225
7444.96,0.27767
7439.17,0.27929
7433.38,0.27238
7427.6,0.28153
7421.81,0.28071
7416.03,0.28361
7410.24,0.27533
7404.45,0.27733
7398.67,0.28005
7392.88,0.26468
7387.09,0.26226
7381.31,0.26575
7375.52,0.26701
7369.74,0.27274
7363.95,0.27600
7358.16,0.28513
7352.38,0.28481
7346.59,0.27482
7340.8,0.28234
7335.02,0.28150
7329.23,0.27649
7323.45,0.27043
7317.66,0.26448
7311.87,0.28023
7306.09,0.26720
7300.3,0.28236
7294.51,0.27386
7288.73,0.28418
7282.94,0.27707
7277.16,0.27789
7271.37,0.27705
7265.58,0.28170
7259.8,0.27538
7254.01,0.27762
7248.22,0.27636
7242.44,0.27810
7236.65,0.27464
7230.87,0.26497
7225.08,0.27242
7219.29,0.27062
7213.51,0.27616
7207.72,0.27347
7201.93,0.27663
7196.15,0.27493
7190.36,0.27429
7184.58,0.27798
7178.79,0.26797
7173,0.27546
7167.22,0.27709
7161.43,0.27590
7155.65,0.27287
7149.86,0.27772
7144.07,0.27395
7138.29,0.27972
7132.5,0.27614
7126.71,0.27406
7120.93,0.27872
7115.14,0.27195
7109.36,0.27318
7103.57,0.27009
7097.78,0.26798
7092,0.26940
7086.21,0.27433
7080.42,0.26564
7074.64,0.26989
7068.85,0.26822
7063.07,0.27525
7057.28,0.27678
7051.49,0.27031
7045.71,0.27347
7039.92,0.26850
7034.13,0.27034
7028.35,0.27389
7022.56,0.27092
7016.78,0.26469
7010.99,0.27049
7005.2,0.27387
6999.42,0.27160
6993.63,0.26796
6987.84,0.27108
6982.06,0.26881
6976.27,0.27476
6970.49,0.27769
6964.7,0.27331
6958.91,0.27739
6953.13,0.27180
6947.34,0.27481
6941.55,0.27478
6935.77,0.27115
6929.98,0.27176
6924.2,0.27286
6918.41,0.27327
6912.62,0.27341
6906.84,0.27249
6901.05,0.27411
6895.26,0.27064
6889.48,0.27107
6883.69,0.26855
6877.91,0.27129
6872.12,0.27489
6866.33,0.27107
6860.55,0.27557
6854.76,0.27450
6848.97,0.27571
6843.19,0.27288
6837.4,0.27497
6831.62,0.27487
6825.83,0.27468
6820.04,0.27598
6814.26,0.26676
6808.47,0.26997
6802.68,0.27096
6796.9,0.27387
6791.11,0.27234
6785.33,0.27437
6779.54,0.27538
6773.75,0.27211
6767.97,0.27055
6762.18,0.27532
6756.39,0.28103
6750.61,0.27542
6744.82,0.27343
6739.04,0.27328
6733.25,0.27671
6727.46,0.27347
6721.68,0.26709
6715.89,0.27185
6710.1,0.27388
6704.32,0.27604
6698.53,0.28189
6692.75,0.27206
6686.96,0.27562
6681.17,0.27036
6675.39,0.27547
6669.6,0.27563
6663.82,0.26969
6658.03,0.27585
6652.24,0.27577
6646.46,0.26667
6640.67,0.27393
6634.88,0.27893
6629.1,0.26987
6623.31,0.27439
6617.53,0.27390
6611.74,0.27459
6605.95,0.27557
6600.17,0.27833
6594.38,0.27733
6588.59,0.27905
6582.81,0.27652
6577.02,0.27488
6571.24,0.27699
6565.45,0.27529
6559.66,0.27079
6553.88,0.26944
6548.09,0.27543
6542.3,0.28034
6536.52,0.27560
6530.73,0.27515
6524.95,0.27431
6519.16,0.27577
6513.37,0.27255
6507.59,0.27929
6501.8,0.27404
6496.01,0.27785
6490.23,0.27487
6484.44,0.27513
6478.66,0.27359
6472.87,0.27882
6467.08,0.27478
6461.3,0.27484
6455.51,0.27576
6449.72,0.27363
6443.94,0.27378
6438.15,0.27643
6432.37,0.27580
6426.58,0.27837
6420.79,0.27459
6415.01,0.27646
6409.22,0.27802
6403.43,0.27249
6397.65,0.27746
6391.86,0.27374
6386.08,0.27522
6380.29,0.27387
6374.5,0.27648
6368.72,0.27584
6362.93,0.27470
6357.14,0.27486
6351.36,0.27827
6345.57,0.27771
6339.79,0.27585
6334,0.27663
6328.21,0.27403
6322.43,0.27400
6316.64,0.27529
6310.85,0.27534
6305.07,0.27696
6299.28,0.27783
6293.5,0.27578
6287.71,0.27326
6281.92,0.27407
6276.14,0.27879
6270.35,0.27864
6264.56,0.27681
6258.78,0.28010
6252.99,0.27442
6247.21,0.27692
6241.42,0.27623
6235.63,0.27918
6229.85,0.27430
6224.06,0.27687
6218.27,0.27600
6212.49,0.27736
6206.7,0.27711
6200.92,0.27788
6195.13,0.27612
6189.34,0.27659
6183.56,0.27340
6177.77,0.27645
6171.98,0.27530
6166.2,0.27347
6160.41,0.27678
6154.63,0.27965
6148.84,0.27876
6143.05,0.27768
6137.27,0.27767
6131.48,0.27434
6125.7,0.27747
6119.91,0.27557
6114.12,0.27610
6108.34,0.27592
6102.55,0.27879
6096.76,0.27467
6090.98,0.27813
6085.19,0.27406
6079.41,0.27656
6073.62,0.27341
6067.83,0.27571
6062.05,0.27691
6056.26,0.27624
6050.47,0.27771
6044.69,0.27528
6038.9,0.27513
6033.12,0.27613
6027.33,0.27523
6021.54,0.27687
6015.76,0.27605
6009.97,0.27481
6004.18,0.27356
5998.4,0.27375
5992.61,0.27502
5986.83,0.27654
5981.04,0.27763
5975.25,0.27502
5969.47,0.27313
5963.68,0.27443
5957.89,0.27623
5952.11,0.27601
5946.32,0.27545
5940.54,0.27399
5934.75,0.27561
5928.96,0.27446
5923.18,0.27501
5917.39,0.27670
5911.6,0.27797
5905.82,0.27670
5900.03,0.27372
5894.25,0.27470
5888.46,0.27676
5882.67,0.27603
5876.89,0.27891
5871.1,0.27776
5865.31,0.27710
5859.53,0.27746
5853.74,0.27452
5847.96,0.27531
5842.17,0.27622
5836.38,0.27591
5830.6,0.27669
5824.81,0.27511
5819.02,0.27662
5813.24,0.27335
5807.45,0.27442
5801.67,0.27436
5795.88,0.27594
5790.09,0.27633
5784.31,0.27724
5778.52,0.27603
5772.73,0.27405
5766.95,0.27667
5761.16,0.27581
5755.38,0.27386
5749.59,0.27357
5743.8,0.27232
5738.02,0.27239
5732.23,0.27271
5726.44,0.27343
5720.66,0.27659
5714.87,0.27576
5709.09,0.27326
5703.3,0.27538
5697.51,0.27537
5691.73,0.27265
5685.94,0.27506
5680.15,0.27553
5674.37,0.27461
5668.58,0.27557
5662.8,0.27594
5657.01,0.27265
5651.22,0.27603
5645.44,0.27522
5639.65,0.27560
5633.87,0.27292
5628.08,0.27445
5622.29,0.27369
5616.51,0.27378
5610.72,0.27144
5604.93,0.27383
5599.15,0.27496
5593.36,0.27468
5587.58,0.27459
5581.79,0.27669
5576,0.27444
5570.22,0.27486
5564.43,0.27442
5558.64,0.27378
5552.86,0.27483
5547.07,0.27541
5541.29,0.27437
5535.5,0.27271
5529.71,0.27218
5523.93,0.27410
5518.14,0.27181
5512.35,0.27379
5506.57,0.27392
5500.78,0.27404
5495,0.27425
5489.21,0.27456
5483.42,0.27319
5477.64,0.27360
5471.85,0.27258
5466.06,0.27303
5460.28,0.27398
5454.49,0.27532
5448.71,0.27401
5442.92,0.27228
5437.13,0.27221
5431.35,0.27443
5425.56,0.27465
5419.77,0.27242
5413.99,0.27176
5408.2,0.27135
5402.42,0.27284
5396.63,0.27132
5390.84,0.27335
5385.06,0.27323
5379.27,0.27144
5373.48,0.27158
5367.7,0.27245
5361.91,0.27153
5356.13,0.27011
5350.34,0.26989
5344.55,0.26904
5338.77,0.27103
5332.98,0.26901
5327.19,0.26958
5321.41,0.26675
5315.62,0.26751
5309.84,0.26739
5304.05,0.26693
5298.26,0.26662
5292.48,0.26466
5286.69,0.26410
5280.9,0.26397
5275.12,0.26224
5269.33,0.25944
5263.55,0.25979
5257.76,0.25798
5251.97,0.25704
5246.19,0.25620
5240.4,0.25485
5234.61,0.25382
5228.83,0.25146
5223.04,0.25210
5217.26,0.25059
5211.47,0.25078
5205.68,0.24990
5199.9,0.24977
5194.11,0.24874
5188.32,0.24819
5182.54,0.24854
5176.75,0.24956
5170.97,0.25019
5165.18,0.24689
5159.39,0.24800
5153.61,0.24820
5147.82,0.24954
5142.03,0.25022
5136.25,0.25058
5130.46,0.25024
5124.68,0.25074
5118.89,0.25072
5113.1,0.25261
5107.32,0.25203
5101.53,0.25371
5095.75,0.25205
5089.96,0.25357
5084.17,0.25238
5078.39,0.25192
5072.6,0.25281
5066.81,0.25358
5061.03,0.25359
5055.24,0.25377
5049.46,0.25446
5043.67,0.25501
5037.88,0.25628
5032.1,0.25486
5026.31,0.25633
5020.52,0.25634
5014.74,0.25693
5008.95,0.25739
5003.17,0.25755
4997.38,0.25799
4991.59,0.25859
4985.81,0.25904
4980.02,0.25873
4974.23,0.26001
4968.45,0.26067
4962.66,0.26019
4956.88,0.26029
4951.09,0.26122
4945.3,0.26076
4939.52,0.26072
4933.73,0.26184
4927.94,0.26044
4922.16,0.26173
4916.37,0.26091
4910.59,0.26171
4904.8,0.26117
4899.01,0.26237
4893.23,0.26147
4887.44,0.26248
4881.65,0.26224
4875.87,0.26213
4870.08,0.26252
4864.3,0.26198
4858.51,0.26209
4852.72,0.26263
4846.94,0.26185
4841.15,0.26149
4835.36,0.26134
4829.58,0.26297
4823.79,0.26324
4818.01,0.26280
4812.22,0.26205
4806.43,0.26317
4800.65,0.26136
4794.86,0.26248
4789.07,0.26237
4783.29,0.26244
4777.5,0.26339
4771.72,0.26267
4765.93,0.26289
4760.14,0.26271
4754.36,0.26297
4748.57,0.26259
4742.78,0.26256
4737,0.26257
4731.21,0.26217
4725.43,0.26269
4719.64,0.26335
4713.85,0.26259
4708.07,0.26191
4702.28,0.26194
4696.49,0.26144
4690.71,0.26219
4684.92,0.26171
4679.14,0.26188
4673.35,0.26171
4667.56,0.26093
4661.78,0.26054
4655.99,0.26126
4650.2,0.26070
4644.42,0.26087
4638.63,0.26046
4632.85,0.25970
4627.06,0.25966
4621.27,0.26000
4615.49,0.26014
4609.7,0.25921
4603.92,0.25963
4598.13,0.25962
4592.34,0.25967
4586.56,0.25975
4580.77,0.25891
4574.98,0.25933
4569.2,0.25780
4563.41,0.25738
4557.63,0.25764
4551.84,0.25589
4546.05,0.25592
4540.27,0.25595
4534.48,0.25460
4528.69,0.25334
4522.91,0.25269
4517.12,0.25236
4511.34,0.25217
4505.55,0.25144
4499.76,0.25168
4493.98,0.25110
4488.19,0.25079
4482.4,0.25159
4476.62,0.25235
4470.83,0.25232
4465.05,0.25124
4459.26,0.25044
4453.47,0.25055
4447.69,0.25008
4441.9,0.25035
4436.11,0.24952
4430.33,0.24868
4424.54,0.24826
4418.76,0.24691
4412.97,0.24611
4407.18,0.24607
4401.4,0.24573
4395.61,0.24408
4389.82,0.24411
4384.04,0.24328
4378.25,0.24345
4372.47,0.24268
4366.68,0.24240
4360.89,0.24147
4355.11,0.24007
4349.32,0.24031
4343.53,0.23891
4337.75,0.23872
4331.96,0.23742
4326.18,0.23709
4320.39,0.23591
4314.6,0.23507
4308.82,0.23435
4303.03,0.23451
4297.24,0.23316
4291.46,0.23313
4285.67,0.23388
4279.89,0.23439
4274.1,0.23568
4268.31,0.23670
4262.53,0.23820
4256.74,0.23866
4250.95,0.24109
4245.17,0.24237
4239.38,0.24313
4233.6,0.24390
4227.81,0.24427
4222.02,0.24495
4216.24,0.24521
4210.45,0.24542
4204.66,0.24411
4198.88,0.24412
4193.09,0.24375
4187.31,0.24321
4181.52,0.24270
4175.73,0.24226
4169.95,0.24105
4164.16,0.24067
4158.37,0.23958
4152.59,0.23959
4146.8,0.23791
4141.02,0.23665
4135.23,0.23581
4129.44,0.23423
4123.66,0.23314
4117.87,0.23187
4112.09,0.23058
4106.3,0.22895
4100.51,0.22860
4094.73,0.22541
4088.94,0.22392
4083.15,0.22259
4077.37,0.22136
4071.58,0.21967
4065.8,0.21800
4060.01,0.21705
4054.22,0.21569
4048.44,0.21521
4042.65,0.21403
4036.86,0.21278
4031.08,0.21167
4025.29,0.21056
4019.51,0.20882
4013.72,0.20751
4007.93,0.20605
4002.15,0.20452
3996.36,0.20295
3990.57,0.20198
3984.79,0.20178
3979,0.20070
3973.22,0.20027
3967.43,0.20010
3961.64,0.19978
3955.86,0.19975
3950.07,0.19977
3944.28,0.20175
3938.5,0.20453
3932.71,0.20688
3926.93,0.21020
3921.14,0.21276
3915.35,0.21498
3909.57,0.21709
3903.78,0.21886
3897.99,0.21943
3892.21,0.22101
3886.42,0.22092
3880.64,0.22072
3874.85,0.22187
3869.06,0.22109
3863.28,0.22095
3857.49,0.22146
3851.7,0.22095
3845.92,0.22158
3840.13,0.22034
3834.35,0.22051
3828.56,0.21965
3822.77,0.21936
3816.99,0.21883
3811.2,0.21806
3805.41,0.21727
3799.63,0.21621
3793.84,0.21477
3788.06,0.21385
3782.27,0.21315
3776.48,0.21199
3770.7,0.20979
3764.91,0.20834
3759.12,0.20569
3753.34,0.20250
3747.55,0.19819
3741.77,0.19230
3735.98,0.18743
3730.19,0.18169
3724.41,0.17419
3718.62,0.16436
3712.83,0.15434
3707.05,0.14334
3701.26,0.12991
3695.48,0.12190
3689.69,0.12217
3683.9,0.12139
3678.12,0.11783
3672.33,0.11131
3666.54,0.10609
3660.76,0.10003
3654.97,0.09521
3649.19,0.08995
3643.4,0.08663
3637.61,0.08251
3631.83,0.07934
3626.04,0.07643
3620.25,0.07340
3614.47,0.07322
3608.68,0.07179
3602.9,0.07127
3597.11,0.07086
3591.32,0.07096
3585.54,0.07078
3579.75,0.07063
3573.97,0.07046
3568.18,0.06909
3562.39,0.06971
3556.61,0.06841
3550.82,0.06750
3545.03,0.06754
3539.25,0.06678
3533.46,0.06628
3527.68,0.06588
3521.89,0.06596
3516.1,0.06519
3510.32,0.06497
3504.53,0.06526
3498.74,0.06398
3492.96,0.06391
3487.17,0.06396
3481.39,0.06393
3475.6,0.06323
3469.81,0.06263
3464.03,0.06339
3458.24,0.06205
3452.45,0.06248
3446.67,0.06164
3440.88,0.06123
3435.1,0.06149
3429.31,0.06079
3423.52,0.06076
3417.74,0.05981
3411.95,0.06007
3406.16,0.06018
3400.38,0.06008
3394.59,0.06026
3388.81,0.06092
3383.02,0.06024
3377.23,0.06078
3371.45,0.06085
3365.66,0.06135
3359.87,0.06190
3354.09,0.06170
3348.3,0.06170
3342.52,0.06223
3336.73,0.06250
3330.94,0.06212
3325.16,0.06272
3319.37,0.06303
3313.58,0.06343
3307.8,0.06359
3302.01,0.06377
3296.23,0.06354
3290.44,0.06371
3284.65,0.06415
3278.87,0.06482
3273.08,0.06513
3267.29,0.06475
3261.51,0.06477
3255.72,0.06556
3249.94,0.06586
3244.15,0.06528
3238.36,0.06613
3232.58,0.06644
3226.79,0.06673
3221,0.06774
3215.22,0.06737
3209.43,0.06781
3203.65,0.06819
3197.86,0.06913
3192.07,0.06980
3186.29,0.07073
3180.5,0.07076
3174.71,0.07204
3168.93,0.07162
3163.14,0.07234
3157.36,0.07324
3151.57,0.07396
3145.78,0.07498
3140,0.07544
3134.21,0.07570
3128.42,0.07593
3122.64,0.07640
3116.85,0.07732
3111.07,0.07776
3105.28,0.07808
3099.49,0.07878
3093.71,0.07850
3087.92,0.07893
3082.14,0.07895
3076.35,0.07917
3070.56,0.07951
3064.78,0.07982
3058.99,0.07939
3053.2,0.07893
3047.42,0.07877
3041.63,0.07840
3035.85,0.07641
3030.06,0.07314
3024.27,0.07074
3018.49,0.07093
3012.7,0.07157
3006.91,0.07175
3001.13,0.07139
2995.34,0.06998
2989.56,0.06771
2983.77,0.06697
2977.98,0.06764
2972.2,0.06899
2966.41,0.06978
2960.62,0.06966
2954.84,0.07021
2949.05,0.06990
2943.27,0.07052
2937.48,0.07007
2931.69,0.06939
2925.91,0.06914
2920.12,0.06921
2914.33,0.06930
2908.55,0.06829
2902.76,0.06784
2896.98,0.06750
2891.19,0.06744
2885.4,0.06719
2879.62,0.06632
2873.83,0.06672
2868.04,0.06852
2862.26,0.07122
2856.47,0.07437
2850.69,0.07781
2844.9,0.08284
2839.11,0.08782
2833.33,0.09299
2827.54,0.09670
2821.75,0.09818
2815.97,0.09946
2810.18,0.10221
2804.4,0.10502
2798.61,0.10627
2792.82,0.10794
2787.04,0.11005
2781.25,0.11128
2775.46,0.11206
2769.68,0.11281
2763.89,0.11411
2758.11,0.11465
2752.32,0.11549
2746.53,0.11611
2740.75,0.11658
2734.96,0.11722
2729.17,0.11722
2723.39,0.11785
2717.6,0.11800
2711.82,0.11778
2706.03,0.11757
2700.24,0.11742
2694.46,0.11676
2688.67,0.11589
2682.88,0.11509
2677.1,0.11367
2671.31,0.11061
2665.53,0.10667
2659.74,0.10388
2653.95,0.10026
2648.17,0.09703
2642.38,0.09356
2636.59,0.09002
2630.81,0.08636
2625.02,0.08385
2619.24,0.08429
2613.45,0.08474
2607.66,0.08447
2601.88,0.08336
2596.09,0.08111
2590.3,0.07860
2584.52,0.07690
2578.73,0.07526
2572.95,0.07462
2567.16,0.07386
2561.37,0.07251
2555.59,0.06977
2549.8,0.06754
2544.02,0.06597
2538.23,0.06394
2532.44,0.06054
2526.66,0.05793
2520.87,0.05655
2515.08,0.05739
2509.3,0.06045
2503.51,0.06574
2497.73,0.07142
2491.94,0.07835
2486.15,0.08514
2480.37,0.09109
2474.58,0.09665
2468.79,0.10185
2463.01,0.10562
2457.22,0.10869
2451.44,0.11096
2445.65,0.11318
2439.86,0.11468
2434.08,0.11548
2428.29,0.11628
2422.5,0.11759
2416.72,0.11794
2410.93,0.11792
2405.15,0.11890
2399.36,0.11928
2393.57,0.11943
2387.79,0.11946
2382,0.11920
2376.21,0.11917
2370.43,0.11795
2364.64,0.11717
2358.86,0.11666
2353.07,0.11661
2347.28,0.11564
2341.5,0.11519
2335.71,0.11427
2329.92,0.11333
2324.14,0.11331
2318.35,0.11295
2312.57,0.11302
2306.78,0.11334
2300.99,0.11466
2295.21,0.11493
2289.42,0.11451
2283.63,0.11257
2277.85,0.11088
2272.06,0.10951
2266.28,0.10752
2260.49,0.10569
2254.7,0.10469
2248.92,0.10390
2243.13,0.10391
2237.34,0.10395
2231.56,0.10398
2225.77,0.10403
2219.99,0.10300
2214.2,0.10185
2208.41,0.10183
2202.63,0.10071
2196.84,0.09965
2191.05,0.09880
2185.27,0.09768
2179.48,0.09590
2173.7,0.09430
2167.91,0.09302
2162.12,0.09185
2156.34,0.09081
2150.55,0.08970
2144.76,0.09003
2138.98,0.09177
2133.19,0.09326
2127.41,0.09599
2121.62,0.09848
2115.83,0.10026
2110.05,0.10178
2104.26,0.10183
2098.47,0.10211
2092.69,0.10223
2086.9,0.10182
2081.12,0.10140
2075.33,0.10090
2069.54,0.10072
2063.76,0.09996
2057.97,0.09947
2052.19,0.09850
2046.4,0.09704
2040.61,0.09549
2034.83,0.09410
2029.04,0.09337
2023.25,0.09250
2017.47,0.09128
2011.68,0.09029
2005.9,0.08964
2000.11,0.08867
1994.32,0.08816
1988.54,0.08737
1982.75,0.08600
1976.96,0.08354
1971.18,0.08289
1965.39,0.08395
1959.61,0.08357
1953.82,0.08433
1948.03,0.08373
1942.25,0.08319
1936.46,0.08226
1930.67,0.08125
1924.89,0.08022
1919.1,0.07863
1913.32,0.07714
1907.53,0.07519
1901.74,0.07353
1895.96,0.07159
1890.17,0.06998
1884.38,0.06881
1878.6,0.06772
1872.81,0.06644
1867.03,0.06521
1861.24,0.06412
1855.45,0.06336
1849.67,0.06184
1843.88,0.05945
1838.09,0.05690
1832.31,0.05292
1826.52,0.04850
1820.74,0.04590
1814.95,0.04424
1809.16,0.04291
1803.38,0.03973
1797.59,0.03758
1791.8,0.03832
1786.02,0.04267
1780.23,0.04538
1774.45,0.04691
1768.66,0.04742
1762.87,0.04755
1757.09,0.04710
1751.3,0.04649
1745.51,0.04537
1739.73,0.04475
1733.94,0.04472
1728.16,0.04421
1722.37,0.04360
1716.58,0.04330
1710.8,0.04236
1705.01,0.04181
1699.22,0.04067
1693.44,0.03952
1687.65,0.03817
1681.87,0.03800
1676.08,0.03778
1670.29,0.03748
1664.51,0.03706
1658.72,0.03694
1652.93,0.03764
1647.15,0.03751
1641.36,0.03750
1635.58,0.03896
1629.79,0.04040
1624,0.04186
1618.22,0.04441
1612.43,0.04706
1606.64,0.04968
1600.86,0.05418
1595.07,0.05975
1589.29,0.06801
1583.5,0.07969
1577.71,0.09462
1571.93,0.11034
1566.14,0.11752
1560.35,0.12047
1554.57,0.12215
1548.78,0.12102
1543,0.11759
1537.21,0.11406
1531.42,0.11154
1525.64,0.10925
1519.85,0.10662
1514.07,0.10404
1508.28,0.10208
1502.49,0.09942
1496.71,0.09741
1490.92,0.09551
1485.13,0.09424
1479.35,0.09344
1473.56,0.09241
1467.78,0.09112
1461.99,0.08998
1456.2,0.08918
1450.42,0.08818
1444.63,0.08738
1438.84,0.08756
1433.06,0.08811
1427.27,0.08847
1421.49,0.08745
1415.7,0.08443
1409.91,0.08142
1404.13,0.07810
1398.34,0.07452
1392.55,0.07228
1386.77,0.07140
1380.98,0.07169
1375.2,0.07257
1369.41,0.07404
1363.62,0.07647
1357.84,0.07891
1352.05,0.08099
1346.26,0.08217
1340.48,0.08323
1334.69,0.08378
1328.91,0.08528
1323.12,0.08595
1317.33,0.08689
1311.55,0.08753
1305.76,0.08824
1299.97,0.08882
1294.19,0.08921
1288.4,0.08962
1282.62,0.09086
1276.83,0.09201
1271.04,0.09208
1265.26,0.09157
1259.47,0.09264
1253.68,0.09354
1247.9,0.09313
1242.11,0.09325
1236.33,0.09385
1230.54,0.09430
1224.75,0.09606
1218.97,0.09617
1213.18,0.09348
1207.39,0.09089
1201.61,0.08630
1195.82,0.08152
1190.04,0.07830
1184.25,0.07581
1178.46,0.07433
1172.68,0.07272
1166.89,0.07078
1161.1,0.06644
1155.32,0.06745
1149.53,0.06998
1143.75,0.06998
1137.96,0.07037
1132.17,0.07007
1126.39,0.07032
1120.6,0.06953
1114.81,0.06929
1109.03,0.06906
1103.24,0.06822
1097.46,0.06801
1091.67,0.06906
1085.88,0.06810
1080.1,0.06852
1074.31,0.06907
1068.52,0.06628
1062.74,0.06231
1056.95,0.05898
1051.17,0.05669
1045.38,0.05459
1039.59,0.05334
1033.81,0.05260
1028.02,0.05134
1022.24,0.05060
1016.45,0.04985
1010.66,0.04951
1004.88,0.05017
999.09,0.04998
993.304,0.05028
987.518,0.05067
981.731,0.05146
975.945,0.05154
970.159,0.05245
964.373,0.05359
958.586,0.05511
952.8,0.05657
947.014,0.05695
941.228,0.05771
935.441,0.05776
929.655,0.05755
923.869,0.05849
918.083,0.05913
912.297,0.06101
906.51,0.06367
900.724,0.07267
894.938,0.08034
889.152,0.07331
883.365,0.06233
877.579,0.05888
871.793,0.05657
866.007,0.05694
860.22,0.05538
854.434,0.05231
848.648,0.05157
842.862,0.05285
837.075,0.05220
831.289,0.05133
825.503,0.05013
819.717,0.04909
813.931,0.04933
808.144,0.05032
802.358,0.05230
796.572,0.05180
790.786,0.05009
784.999,0.05217
779.213,0.05205
773.427,0.04952
767.641,0.04828
761.854,0.04651
756.068,0.04664
750.282,0.04479
744.496,0.04318
738.709,0.04030
732.923,0.03619
727.137,0.03875
721.351,0.03836
715.565,0.03699
709.778,0.03912
703.992,0.04095
698.206,0.04177
692.42,0.04163
686.633,0.04080
680.847,0.04127
675.061,0.04034
669.275,0.04039
663.488,0.03947
657.702,0.03972
651.916,0.03795
646.13,0.03816
640.343,0.03742
634.557,0.03643
628.771,0.03517
622.985,0.03511
617.198,0.03385
611.412,0.03358
605.626,0.03344
599.84,0.03232