File: 01_Data/Concrete_Block/FTIR/IS/Concrete_Block_IS_S_221214_R1.dpt
7497.03,0.26596
7491.25,0.27006
7485.46,0.27422
7479.67,0.26834
7473.89,0.27284
7468.1,0.28029
7462.32,0.27737
7456.53,0.28080
7450.74,0.28289
7444.96,0.27567
7439.17,0.27868
7433.38,0.27677
7427.6,0.28162
7421.81,0.27840
7416.03,0.26758
7410.24,0.28449
7404.45,0.26955
7398.67,0.27019
7392.88,0.26950
7387.09,0.27132
7381.31,0.28395
7375.52,0.28475
7369.74,0.27367
7363.95,0.27234
7358.16,0.27519
7352.38,0.27798
7346.59,0.27259
7340.8,0.28327
7335.02,0.27264
7329.23,0.26758
7323.45,0.27322
7317.66,0.27890
7311.87,0.28137
7306.09,0.27364
7300.3,0.28225
7294.51,0.28234
7288.73,0.28134
7282.94,0.28153
7277.16,0.28124
7271.37,0.27486
7265.58,0.27287
7259.8,0.27336
7254.01,0.27923
7248.22,0.27809
7242.44,0.27050
7236.65,0.27265
7230.87,0.27533
7225.08,0.27326
7219.29,0.28552
7213.51,0.27608
7207.72,0.26879
7201.93,0.27933
7196.15,0.27425
7190.36,0.26966
7184.58,0.27553
7178.79,0.26967
7173,0.27144
7167.22,0.27328
7161.43,0.27429
7155.65,0.27495
7149.86,0.27465
7144.07,0.27613
7138.29,0.26676
7132.5,0.27401
7126.71,0.27499
7120.93,0.26696
7115.14,0.27370
7109.36,0.26434
7103.57,0.26529
7097.78,0.27012
7092,0.26936
7086.21,0.26485
7080.42,0.27383
7074.64,0.27374
7068.85,0.27020
7063.07,0.27006
7057.28,0.26659
7051.49,0.26778
7045.71,0.26796
7039.92,0.26149
7034.13,0.27371
7028.35,0.27484
7022.56,0.27289
7016.78,0.26780
7010.99,0.27818
7005.2,0.27465
6999.42,0.27217
6993.63,0.27617
6987.84,0.27456
6982.06,0.27306
6976.27,0.27241
6970.49,0.27203
6964.7,0.27511
6958.91,0.27301
6953.13,0.27201
6947.34,0.26749
6941.55,0.27360
6935.77,0.27574
6929.98,0.27021
6924.2,0.27841
6918.41,0.27360
6912.62,0.26714
6906.84,0.27317
6901.05,0.27926
6895.26,0.27632
6889.48,0.27184
6883.69,0.27715
6877.91,0.26926
6872.12,0.26981
6866.33,0.27977
6860.55,0.27205
6854.76,0.26908
6848.97,0.27550
6843.19,0.27946
6837.4,0.27252
6831.62,0.27743
6825.83,0.27018
6820.04,0.27156
6814.26,0.27393
6808.47,0.27140
6802.68,0.27224
6796.9,0.27568
6791.11,0.27324
6785.33,0.27092
6779.54,0.26961
6773.75,0.27381
6767.97,0.27566
6762.18,0.27341
6756.39,0.27173
6750.61,0.27477
6744.82,0.26587
6739.04,0.26822
6733.25,0.27265
6727.46,0.27097
6721.68,0.27046
6715.89,0.26945
6710.1,0.26735
6704.32,0.27388
6698.53,0.27093
6692.75,0.27117
6686.96,0.27781
6681.17,0.27232
6675.39,0.27724
6669.6,0.27511
6663.82,0.27539
6658.03,0.27240
6652.24,0.27260
6646.46,0.27333
6640.67,0.27706
6634.88,0.27225
6629.1,0.27329
6623.31,0.27629
6617.53,0.27057
6611.74,0.27866
6605.95,0.27179
6600.17,0.27268
6594.38,0.27373
6588.59,0.27619
6582.81,0.27562
6577.02,0.27197
6571.24,0.27286
6565.45,0.27993
6559.66,0.27415
6553.88,0.27369
6548.09,0.27254
6542.3,0.27257
6536.52,0.27044
6530.73,0.27702
6524.95,0.27230
6519.16,0.27482
6513.37,0.27588
6507.59,0.27334
6501.8,0.27672
6496.01,0.27649
6490.23,0.27534
6484.44,0.27384
6478.66,0.27414
6472.87,0.27427
6467.08,0.27339
6461.3,0.27393
6455.51,0.27343
6449.72,0.27286
6443.94,0.27709
6438.15,0.27690
6432.37,0.27492
6426.58,0.27387
6420.79,0.27685
6415.01,0.27464
6409.22,0.27502
6403.43,0.27489
6397.65,0.27340
6391.86,0.27875
6386.08,0.27515
6380.29,0.27414
6374.5,0.27615
6368.72,0.27794
6362.93,0.27271
6357.14,0.27616
6351.36,0.27522
6345.57,0.27609
6339.79,0.27197
6334,0.27669
6328.21,0.27450
6322.43,0.27621
6316.64,0.27616
6310.85,0.27270
6305.07,0.27548
6299.28,0.27647
6293.5,0.27224
6287.71,0.27437
6281.92,0.27212
6276.14,0.27439
6270.35,0.27514
6264.56,0.27627
6258.78,0.27701
6252.99,0.27203
6247.21,0.27530
6241.42,0.27806
6235.63,0.27293
6229.85,0.27267
6224.06,0.27248
6218.27,0.27332
6212.49,0.27289
6206.7,0.27104
6200.92,0.27546
6195.13,0.27759
6189.34,0.27447
6183.56,0.27300
6177.77,0.27408
6171.98,0.27585
6166.2,0.27411
6160.41,0.27231
6154.63,0.27551
6148.84,0.27600
6143.05,0.27427
6137.27,0.27331
6131.48,0.27683
6125.7,0.27589
6119.91,0.27502
6114.12,0.27333
6108.34,0.27383
6102.55,0.27110
6096.76,0.27181
6090.98,0.27155
6085.19,0.27641
6079.41,0.27330
6073.62,0.27464
6067.83,0.27290
6062.05,0.27224
6056.26,0.27479
6050.47,0.27507
6044.69,0.27348
6038.9,0.27401
6033.12,0.27365
6027.33,0.27464
6021.54,0.27398
6015.76,0.27118
6009.97,0.27355
6004.18,0.27570
5998.4,0.27692
5992.61,0.27616
5986.83,0.27703
5981.04,0.27603
5975.25,0.27509
5969.47,0.27298
5963.68,0.27608
5957.89,0.27479
5952.11,0.27603
5946.32,0.27424
5940.54,0.27460
5934.75,0.27171
5928.96,0.27410
5923.18,0.27580
5917.39,0.27239
5911.6,0.27249
5905.82,0.27422
5900.03,0.27272
5894.25,0.27200
5888.46,0.27473
5882.67,0.27378
5876.89,0.27481
5871.1,0.27504
5865.31,0.27708
5859.53,0.27536
5853.74,0.27503
5847.96,0.27415
5842.17,0.27440
5836.38,0.27515
5830.6,0.27397
5824.81,0.27330
5819.02,0.27294
5813.24,0.27571
5807.45,0.27327
5801.67,0.27226
5795.88,0.27191
5790.09,0.27416
5784.31,0.27330
5778.52,0.27357
5772.73,0.27292
5766.95,0.27281
5761.16,0.27409
5755.38,0.27339
5749.59,0.27456
5743.8,0.27465
5738.02,0.27308
5732.23,0.27200
5726.44,0.27139
5720.66,0.27276
5714.87,0.27152
5709.09,0.27387
5703.3,0.27324
5697.51,0.27260
5691.73,0.27302
5685.94,0.27348
5680.15,0.27230
5674.37,0.27364
5668.58,0.27400
5662.8,0.27529
5657.01,0.27385
5651.22,0.27254
5645.44,0.27157
5639.65,0.27072
5633.87,0.27335
5628.08,0.27316
5622.29,0.27258
5616.51,0.27387
5610.72,0.27304
5604.93,0.27214
5599.15,0.27293
5593.36,0.27110
5587.58,0.27288
5581.79,0.27440
5576,0.27326
5570.22,0.27139
5564.43,0.27144
5558.64,0.27271
5552.86,0.27153
5547.07,0.27272
5541.29,0.27308
5535.5,0.27312
5529.71,0.27246
5523.93,0.27397
5518.14,0.27376
5512.35,0.27310
5506.57,0.27400
5500.78,0.27123
5495,0.27192
5489.21,0.27079
5483.42,0.27008
5477.64,0.27019
5471.85,0.27047
5466.06,0.27278
5460.28,0.27048
5454.49,0.27165
5448.71,0.27059
5442.92,0.26973
5437.13,0.27146
5431.35,0.26990
5425.56,0.27113
5419.77,0.27209
5413.99,0.27049
5408.2,0.27140
5402.42,0.27245
5396.63,0.27110
5390.84,0.27248
5385.06,0.27089
5379.27,0.27123
5373.48,0.26835
5367.7,0.26942
5361.91,0.26942
5356.13,0.26835
5350.34,0.26827
5344.55,0.26742
5338.77,0.26857
5332.98,0.26940
5327.19,0.26713
5321.41,0.26696
5315.62,0.26662
5309.84,0.26739
5304.05,0.26548
5298.26,0.26306
5292.48,0.26319
5286.69,0.26219
5280.9,0.26115
5275.12,0.26063
5269.33,0.25947
5263.55,0.25618
5257.76,0.25410
5251.97,0.25426
5246.19,0.25248
5240.4,0.25225
5234.61,0.25202
5228.83,0.25076
5223.04,0.24989
5217.26,0.24870
5211.47,0.24736
5205.68,0.24639
5199.9,0.24687
5194.11,0.24690
5188.32,0.24584
5182.54,0.24514
5176.75,0.24574
5170.97,0.24648
5165.18,0.24713
5159.39,0.24742
5153.61,0.24641
5147.82,0.24700
5142.03,0.24660
5136.25,0.24758
5130.46,0.24861
5124.68,0.24776
5118.89,0.24762
5113.1,0.24960
5107.32,0.24922
5101.53,0.24961
5095.75,0.24964
5089.96,0.25125
5084.17,0.24984
5078.39,0.25057
5072.6,0.25147
5066.81,0.24996
5061.03,0.25186
5055.24,0.25085
5049.46,0.25290
5043.67,0.25295
5037.88,0.25324
5032.1,0.25284
5026.31,0.25316
5020.52,0.25362
5014.74,0.25309
5008.95,0.25441
5003.17,0.25453
4997.38,0.25489
4991.59,0.25612
4985.81,0.25742
4980.02,0.25694
4974.23,0.25675
4968.45,0.25671
4962.66,0.25762
4956.88,0.25856
4951.09,0.25768
4945.3,0.25722
4939.52,0.25832
4933.73,0.25708
4927.94,0.25867
4922.16,0.26044
4916.37,0.25927
4910.59,0.26042
4904.8,0.25917
4899.01,0.25994
4893.23,0.25944
4887.44,0.25987
4881.65,0.26144
4875.87,0.26071
4870.08,0.26013
4864.3,0.26017
4858.51,0.26024
4852.72,0.25932
4846.94,0.26060
4841.15,0.26082
4835.36,0.25983
4829.58,0.26061
4823.79,0.26128
4818.01,0.26078
4812.22,0.26032
4806.43,0.26103
4800.65,0.25931
4794.86,0.26058
4789.07,0.26129
4783.29,0.26134
4777.5,0.26116
4771.72,0.26033
4765.93,0.26072
4760.14,0.26065
4754.36,0.25992
4748.57,0.26046
4742.78,0.26098
4737,0.26126
4731.21,0.26147
4725.43,0.26158
4719.64,0.26172
4713.85,0.26137
4708.07,0.26104
4702.28,0.26022
4696.49,0.26080
4690.71,0.26108
4684.92,0.26056
4679.14,0.25988
4673.35,0.26067
4667.56,0.25977
4661.78,0.25937
4655.99,0.25903
4650.2,0.25818
4644.42,0.25850
4638.63,0.25881
4632.85,0.25879
4627.06,0.25786
4621.27,0.25752
4615.49,0.25763
4609.7,0.25725
4603.92,0.25714
4598.13,0.25760
4592.34,0.25784
4586.56,0.25736
4580.77,0.25722
4574.98,0.25652
4569.2,0.25623
4563.41,0.25579
4557.63,0.25550
4551.84,0.25508
4546.05,0.25434
4540.27,0.25429
4534.48,0.25245
4528.69,0.25155
4522.91,0.25163
4517.12,0.25106
4511.34,0.25084
4505.55,0.24913
4499.76,0.24970
4493.98,0.24988
4488.19,0.24966
4482.4,0.24914
4476.62,0.24973
4470.83,0.24974
4465.05,0.24922
4459.26,0.24950
4453.47,0.24909
4447.69,0.24783
4441.9,0.24824
4436.11,0.24735
4430.33,0.24660
4424.54,0.24685
4418.76,0.24507
4412.97,0.24435
4407.18,0.24325
4401.4,0.24301
4395.61,0.24327
4389.82,0.24253
4384.04,0.24215
4378.25,0.24131
4372.47,0.24107
4366.68,0.24062
4360.89,0.23918
4355.11,0.23918
4349.32,0.23792
4343.53,0.23661
4337.75,0.23669
4331.96,0.23510
4326.18,0.23451
4320.39,0.23494
4314.6,0.23339
4308.82,0.23294
4303.03,0.23192
4297.24,0.23160
4291.46,0.23118
4285.67,0.23142
4279.89,0.23120
4274.1,0.23348
4268.31,0.23449
4262.53,0.23511
4256.74,0.23734
4250.95,0.23840
4245.17,0.24056
4239.38,0.24108
4233.6,0.24154
4227.81,0.24268
4222.02,0.24262
4216.24,0.24266
4210.45,0.24254
4204.66,0.24265
4198.88,0.24145
4193.09,0.24180
4187.31,0.24045
4181.52,0.24059
4175.73,0.23896
4169.95,0.23908
4164.16,0.23744
4158.37,0.23742
4152.59,0.23689
4146.8,0.23564
4141.02,0.23487
4135.23,0.23417
4129.44,0.23282
4123.66,0.23067
4117.87,0.22926
4112.09,0.22805
4106.3,0.22687
4100.51,0.22483
4094.73,0.22351
4088.94,0.22255
4083.15,0.22099
4077.37,0.21999
4071.58,0.21748
4065.8,0.21716
4060.01,0.21581
4054.22,0.21456
4048.44,0.21312
4042.65,0.21072
4036.86,0.21043
4031.08,0.20976
4025.29,0.20846
4019.51,0.20601
4013.72,0.20539
4007.93,0.20354
4002.15,0.20208
3996.36,0.20153
3990.57,0.20073
3984.79,0.19940
3979,0.19874
3973.22,0.19825
3967.43,0.19708
3961.64,0.19748
3955.86,0.19804
3950.07,0.19878
3944.28,0.19951
3938.5,0.20144
3932.71,0.20487
3926.93,0.20759
3921.14,0.21151
3915.35,0.21316
3909.57,0.21553
3903.78,0.21619
3897.99,0.21680
3892.21,0.21820
3886.42,0.21854
3880.64,0.21953
3874.85,0.21916
3869.06,0.21950
3863.28,0.21892
3857.49,0.21913
3851.7,0.21836
3845.92,0.21888
3840.13,0.21874
3834.35,0.21810
3828.56,0.21742
3822.77,0.21688
3816.99,0.21662
3811.2,0.21558
3805.41,0.21481
3799.63,0.21369
3793.84,0.21306
3788.06,0.21171
3782.27,0.20988
3776.48,0.20913
3770.7,0.20726
3764.91,0.20511
3759.12,0.20262
3753.34,0.20025
3747.55,0.19711
3741.77,0.19201
3735.98,0.18683
3730.19,0.18064
3724.41,0.17350
3718.62,0.16354
3712.83,0.15300
3707.05,0.14204
3701.26,0.12833
3695.48,0.12106
3689.69,0.12151
3683.9,0.12075
3678.12,0.11658
3672.33,0.11076
3666.54,0.10478
3660.76,0.09932
3654.97,0.09394
3649.19,0.08898
3643.4,0.08506
3637.61,0.08148
3631.83,0.07784
3626.04,0.07470
3620.25,0.07188
3614.47,0.07096
3608.68,0.07096
3602.9,0.06973
3597.11,0.07027
3591.32,0.06963
3585.54,0.06986
3579.75,0.06861
3573.97,0.06897
3568.18,0.06818
3562.39,0.06757
3556.61,0.06646
3550.82,0.06653
3545.03,0.06595
3539.25,0.06617
3533.46,0.06511
3527.68,0.06467
3521.89,0.06401
3516.1,0.06459
3510.32,0.06387
3504.53,0.06337
3498.74,0.06272
3492.96,0.06204
3487.17,0.06247
3481.39,0.06237
3475.6,0.06193
3469.81,0.06167
3464.03,0.06124
3458.24,0.06058
3452.45,0.06108
3446.67,0.06014
3440.88,0.06009
3435.1,0.05968
3429.31,0.05997
3423.52,0.05949
3417.74,0.05960
3411.95,0.05902
3406.16,0.05867
3400.38,0.05886
3394.59,0.05903
3388.81,0.05939
3383.02,0.05884
3377.23,0.05958
3371.45,0.05924
3365.66,0.06020
3359.87,0.06000
3354.09,0.05958
3348.3,0.06052
3342.52,0.06053
3336.73,0.06068
3330.94,0.06077
3325.16,0.06138
3319.37,0.06189
3313.58,0.06212
3307.8,0.06271
3302.01,0.06259
3296.23,0.06242
3290.44,0.06217
3284.65,0.06204
3278.87,0.06264
3273.08,0.06301
3267.29,0.06353
3261.51,0.06351
3255.72,0.06374
3249.94,0.06457
3244.15,0.06495
3238.36,0.06525
3232.58,0.06492
3226.79,0.06510
3221,0.06568
3215.22,0.06584
3209.43,0.06634
3203.65,0.06731
3197.86,0.06776
3192.07,0.06821
3186.29,0.06816
3180.5,0.06856
3174.71,0.06982
3168.93,0.07041
3163.14,0.07128
3157.36,0.07149
3151.57,0.07255
3145.78,0.07311
3140,0.07397
3134.21,0.07391
3128.42,0.07407
3122.64,0.07462
3116.85,0.07550
3111.07,0.07585
3105.28,0.07589
3099.49,0.07663
3093.71,0.07696
3087.92,0.07700
3082.14,0.07756
3076.35,0.07783
3070.56,0.07776
3064.78,0.07809
3058.99,0.07761
3053.2,0.07801
3047.42,0.07747
3041.63,0.07726
3035.85,0.07461
3030.06,0.07174
3024.27,0.06992
3018.49,0.06982
3012.7,0.06976
3006.91,0.07041
3001.13,0.07036
2995.34,0.06855
2989.56,0.06682
2983.77,0.06671
2977.98,0.06732
2972.2,0.06840
2966.41,0.06926
2960.62,0.06928
2954.84,0.06943
2949.05,0.06887
2943.27,0.06941
2937.48,0.06913
2931.69,0.06920
2925.91,0.06880
2920.12,0.06780
2914.33,0.06845
2908.55,0.06784
2902.76,0.06674
2896.98,0.06714
2891.19,0.06677
2885.4,0.06624
2879.62,0.06530
2873.83,0.06602
2868.04,0.06751
2862.26,0.07043
2856.47,0.07405
2850.69,0.07747
2844.9,0.08193
2839.11,0.08696
2833.33,0.09198
2827.54,0.09542
2821.75,0.09760
2815.97,0.09890
2810.18,0.10163
2804.4,0.10371
2798.61,0.10510
2792.82,0.10707
2787.04,0.10869
2781.25,0.11002
2775.46,0.11066
2769.68,0.11188
2763.89,0.11260
2758.11,0.11325
2752.32,0.11444
2746.53,0.11472
2740.75,0.11552
2734.96,0.11599
2729.17,0.11601
2723.39,0.11634
2717.6,0.11641
2711.82,0.11648
2706.03,0.11638
2700.24,0.11609
2694.46,0.11542
2688.67,0.11441
2682.88,0.11396
2677.1,0.11242
2671.31,0.10954
2665.53,0.10597
2659.74,0.10234
2653.95,0.09939
2648.17,0.09647
2642.38,0.09321
2636.59,0.08960
2630.81,0.08565
2625.02,0.08314
2619.24,0.08370
2613.45,0.08385
2607.66,0.08366
2601.88,0.08265
2596.09,0.08095
2590.3,0.07784
2584.52,0.07587
2578.73,0.07461
2572.95,0.07450
2567.16,0.07352
2561.37,0.07121
2555.59,0.06934
2549.8,0.06731
2544.02,0.06537
2538.23,0.06350
2532.44,0.06035
2526.66,0.05782
2520.87,0.05662
2515.08,0.05745
2509.3,0.06012
2503.51,0.06510
2497.73,0.07115
2491.94,0.07826
2486.15,0.08467
2480.37,0.09049
2474.58,0.09622
2468.79,0.10085
2463.01,0.10457
2457.22,0.10761
2451.44,0.11022
2445.65,0.11224
2439.86,0.11379
2434.08,0.11440
2428.29,0.11542
2422.5,0.11590
2416.72,0.11631
2410.93,0.11682
2405.15,0.11682
2399.36,0.11791
2393.57,0.11808
2387.79,0.11808
2382,0.11827
2376.21,0.11749
2370.43,0.11648
2364.64,0.11617
2358.86,0.11529
2353.07,0.11557
2347.28,0.11459
2341.5,0.11326
2335.71,0.11268
2329.92,0.11183
2324.14,0.11186
2318.35,0.11178
2312.57,0.11184
2306.78,0.11159
2300.99,0.11251
2295.21,0.11310
2289.42,0.11239
2283.63,0.11111
2277.85,0.10971
2272.06,0.10796
2266.28,0.10607
2260.49,0.10380
2254.7,0.10320
2248.92,0.10239
2243.13,0.10218
2237.34,0.10243
2231.56,0.10249
2225.77,0.10220
2219.99,0.10133
2214.2,0.10016
2208.41,0.10003
2202.63,0.09948
2196.84,0.09822
2191.05,0.09737
2185.27,0.09629
2179.48,0.09491
2173.7,0.09309
2167.91,0.09206
2162.12,0.09081
2156.34,0.08991
2150.55,0.08872
2144.76,0.08889
2138.98,0.09041
2133.19,0.09216
2127.41,0.09450
2121.62,0.09694
2115.83,0.09916
2110.05,0.09994
2104.26,0.10021
2098.47,0.10014
2092.69,0.10059
2086.9,0.10009
2081.12,0.09976
2075.33,0.09975
2069.54,0.09949
2063.76,0.09865
2057.97,0.09776
2052.19,0.09720
2046.4,0.09576
2040.61,0.09448
2034.83,0.09327
2029.04,0.09185
2023.25,0.09106
2017.47,0.09018
2011.68,0.08943
2005.9,0.08847
2000.11,0.08745
1994.32,0.08714
1988.54,0.08650
1982.75,0.08477
1976.96,0.08217
1971.18,0.08205
1965.39,0.08304
1959.61,0.08247
1953.82,0.08332
1948.03,0.08302
1942.25,0.08209
1936.46,0.08162
1930.67,0.08058
1924.89,0.07970
1919.1,0.07838
1913.32,0.07675
1907.53,0.07453
1901.74,0.07320
1895.96,0.07138
1890.17,0.06973
1884.38,0.06798
1878.6,0.06738
1872.81,0.06602
1867.03,0.06463
1861.24,0.06413
1855.45,0.06293
1849.67,0.06146
1843.88,0.05948
1838.09,0.05621
1832.31,0.05249
1826.52,0.04826
1820.74,0.04564
1814.95,0.04392
1809.16,0.04277
1803.38,0.03963
1797.59,0.03707
1791.8,0.03848
1786.02,0.04238
1780.23,0.04514
1774.45,0.04667
1768.66,0.04742
1762.87,0.04727
1757.09,0.04683
1751.3,0.04618
1745.51,0.04545
1739.73,0.04483
1733.94,0.04433
1728.16,0.04333
1722.37,0.04332
1716.58,0.04259
1710.8,0.04242
1705.01,0.04142
1699.22,0.04064
1693.44,0.03945
1687.65,0.03869
1681.87,0.03749
1676.08,0.03760
1670.29,0.03691
1664.51,0.03683
1658.72,0.03684
1652.93,0.03708
1647.15,0.03681
1641.36,0.03748
1635.58,0.03907
1629.79,0.04039
1624,0.04162
1618.22,0.04428
1612.43,0.04666
1606.64,0.04961
1600.86,0.05362
1595.07,0.05899
1589.29,0.06705
1583.5,0.07916
1577.71,0.09417
1571.93,0.10943
1566.14,0.11681
1560.35,0.12002
1554.57,0.12194
1548.78,0.12010
1543,0.11709
1537.21,0.11356
1531.42,0.11040
1525.64,0.10866
1519.85,0.10660
1514.07,0.10402
1508.28,0.10129
1502.49,0.09878
1496.71,0.09693
1490.92,0.09547
1485.13,0.09377
1479.35,0.09267
1473.56,0.09171
1467.78,0.09073
1461.99,0.08954
1456.2,0.08831
1450.42,0.08763
1444.63,0.08713
1438.84,0.08715
1433.06,0.08782
1427.27,0.08827
1421.49,0.08722
1415.7,0.08391
1409.91,0.08139
1404.13,0.07736
1398.34,0.07407
1392.55,0.07217
1386.77,0.07085
1380.98,0.07110
1375.2,0.07206
1369.41,0.07397
1363.62,0.07626
1357.84,0.07881
1352.05,0.08088
1346.26,0.08182
1340.48,0.08282
1334.69,0.08401
1328.91,0.08491
1323.12,0.08583
1317.33,0.08636
1311.55,0.08705
1305.76,0.08734
1299.97,0.08787
1294.19,0.08880
1288.4,0.08943
1282.62,0.08994
1276.83,0.09132
1271.04,0.09144
1265.26,0.09117
1259.47,0.09248
1253.68,0.09276
1247.9,0.09290
1242.11,0.09313
1236.33,0.09350
1230.54,0.09434
1224.75,0.09577
1218.97,0.09603
1213.18,0.09396
1207.39,0.09039
1201.61,0.08629
1195.82,0.08173
1190.04,0.07804
1184.25,0.07572
1178.46,0.07369
1172.68,0.07254
1166.89,0.07021
1161.1,0.06627
1155.32,0.06732
1149.53,0.06944
1143.75,0.07018
1137.96,0.07020
1132.17,0.07007
1126.39,0.06927
1120.6,0.06982
1114.81,0.06930
1109.03,0.06880
1103.24,0.06847
1097.46,0.06808
1091.67,0.06822
1085.88,0.06778
1080.1,0.06808
1074.31,0.06893
1068.52,0.06543
1062.74,0.06162
1056.95,0.05892
1051.17,0.05625
1045.38,0.05478
1039.59,0.05316
1033.81,0.05147
1028.02,0.05072
1022.24,0.05103
1016.45,0.05020
1010.66,0.05000
1004.88,0.05046
999.09,0.04979
993.304,0.05048
987.518,0.05062
981.731,0.05111
975.945,0.05130
970.159,0.05232
964.373,0.05382
958.586,0.05514
952.8,0.05631
947.014,0.05734
941.228,0.05775
935.441,0.05715
929.655,0.05807
923.869,0.05838
918.083,0.05921
912.297,0.05970
906.51,0.06344
900.724,0.07245
894.938,0.07934
889.152,0.07214
883.365,0.06214
877.579,0.05868
871.793,0.05669
866.007,0.05745
860.22,0.05584
854.434,0.05233
848.648,0.05149
842.862,0.05324
837.075,0.05187
831.289,0.05080
825.503,0.05039
819.717,0.04925
813.931,0.04868
808.144,0.05008
802.358,0.05241
796.572,0.05186
790.786,0.05038
784.999,0.05091
779.213,0.05227
773.427,0.05042
767.641,0.04818
761.854,0.04717
756.068,0.04585
750.282,0.04464
744.496,0.04246
738.709,0.03939
732.923,0.03632
727.137,0.03838
721.351,0.03893
715.565,0.03796
709.778,0.04098
703.992,0.04172
698.206,0.04156
692.42,0.04198
686.633,0.04260
680.847,0.04154
675.061,0.04029
669.275,0.04036
663.488,0.04007
657.702,0.03917
651.916,0.03627
646.13,0.03790
640.343,0.03691
634.557,0.03736
628.771,0.03594
622.985,0.03644
617.198,0.03293
611.412,0.03306
605.626,0.03431
599.84,0.03373