File: 01_Data/Concrete_Block/FTIR/IS/Concrete_Block_IS_S_221214_R4.dpt
7497.03,0.27616
7491.25,0.26935
7485.46,0.27525
7479.67,0.28047
7473.89,0.28476
7468.1,0.26896
7462.32,0.27018
7456.53,0.27407
7450.74,0.27193
7444.96,0.26909
7439.17,0.27318
7433.38,0.27856
7427.6,0.28209
7421.81,0.27233
7416.03,0.27799
7410.24,0.27555
7404.45,0.27833
7398.67,0.27601
7392.88,0.27734
7387.09,0.27726
7381.31,0.27198
7375.52,0.27418
7369.74,0.27728
7363.95,0.27449
7358.16,0.27335
7352.38,0.28139
7346.59,0.27161
7340.8,0.27580
7335.02,0.27336
7329.23,0.27261
7323.45,0.27899
7317.66,0.28086
7311.87,0.27659
7306.09,0.27262
7300.3,0.28171
7294.51,0.27958
7288.73,0.27556
7282.94,0.27657
7277.16,0.27026
7271.37,0.27039
7265.58,0.27154
7259.8,0.28190
7254.01,0.27828
7248.22,0.28143
7242.44,0.27796
7236.65,0.27757
7230.87,0.27388
7225.08,0.27148
7219.29,0.28119
7213.51,0.27119
7207.72,0.27554
7201.93,0.27475
7196.15,0.27824
7190.36,0.27554
7184.58,0.27327
7178.79,0.28037
7173,0.27716
7167.22,0.27583
7161.43,0.26887
7155.65,0.28039
7149.86,0.27581
7144.07,0.27518
7138.29,0.27785
7132.5,0.27238
7126.71,0.27206
7120.93,0.26988
7115.14,0.26848
7109.36,0.26400
7103.57,0.27308
7097.78,0.26940
7092,0.26956
7086.21,0.27160
7080.42,0.27109
7074.64,0.27808
7068.85,0.27067
7063.07,0.26837
7057.28,0.26873
7051.49,0.26934
7045.71,0.26727
7039.92,0.27138
7034.13,0.27153
7028.35,0.26842
7022.56,0.27040
7016.78,0.27025
7010.99,0.27152
7005.2,0.26825
6999.42,0.27170
6993.63,0.26842
6987.84,0.27515
6982.06,0.27279
6976.27,0.27569
6970.49,0.27977
6964.7,0.27153
6958.91,0.26949
6953.13,0.27218
6947.34,0.27456
6941.55,0.27332
6935.77,0.27228
6929.98,0.27181
6924.2,0.27596
6918.41,0.28029
6912.62,0.27587
6906.84,0.26998
6901.05,0.27502
6895.26,0.27338
6889.48,0.27709
6883.69,0.27113
6877.91,0.26708
6872.12,0.27705
6866.33,0.27233
6860.55,0.27531
6854.76,0.27672
6848.97,0.27471
6843.19,0.27569
6837.4,0.27395
6831.62,0.27206
6825.83,0.27373
6820.04,0.27569
6814.26,0.27395
6808.47,0.27659
6802.68,0.26905
6796.9,0.26729
6791.11,0.27890
6785.33,0.27537
6779.54,0.27523
6773.75,0.27032
6767.97,0.27741
6762.18,0.27456
6756.39,0.26952
6750.61,0.26931
6744.82,0.27244
6739.04,0.27173
6733.25,0.27186
6727.46,0.27274
6721.68,0.27618
6715.89,0.26749
6710.1,0.26585
6704.32,0.27581
6698.53,0.27257
6692.75,0.27460
6686.96,0.27363
6681.17,0.27730
6675.39,0.27246
6669.6,0.27659
6663.82,0.28122
6658.03,0.27593
6652.24,0.27732
6646.46,0.27118
6640.67,0.27741
6634.88,0.27564
6629.1,0.27353
6623.31,0.27332
6617.53,0.27316
6611.74,0.27481
6605.95,0.27747
6600.17,0.27684
6594.38,0.27273
6588.59,0.27404
6582.81,0.27817
6577.02,0.27312
6571.24,0.27687
6565.45,0.27542
6559.66,0.27619
6553.88,0.27719
6548.09,0.27212
6542.3,0.27253
6536.52,0.27833
6530.73,0.27444
6524.95,0.27549
6519.16,0.27827
6513.37,0.27000
6507.59,0.27519
6501.8,0.26999
6496.01,0.27501
6490.23,0.27910
6484.44,0.27337
6478.66,0.27453
6472.87,0.27782
6467.08,0.27593
6461.3,0.27340
6455.51,0.27186
6449.72,0.27197
6443.94,0.27527
6438.15,0.27358
6432.37,0.27472
6426.58,0.27622
6420.79,0.27304
6415.01,0.27338
6409.22,0.27224
6403.43,0.27169
6397.65,0.27470
6391.86,0.27507
6386.08,0.27150
6380.29,0.27412
6374.5,0.27355
6368.72,0.27106
6362.93,0.27271
6357.14,0.27759
6351.36,0.27499
6345.57,0.27614
6339.79,0.27441
6334,0.27337
6328.21,0.27365
6322.43,0.27612
6316.64,0.27326
6310.85,0.27758
6305.07,0.27798
6299.28,0.27616
6293.5,0.27594
6287.71,0.27792
6281.92,0.27462
6276.14,0.27643
6270.35,0.27674
6264.56,0.27396
6258.78,0.27824
6252.99,0.27646
6247.21,0.27620
6241.42,0.27293
6235.63,0.27281
6229.85,0.27949
6224.06,0.27508
6218.27,0.27569
6212.49,0.27780
6206.7,0.27414
6200.92,0.27453
6195.13,0.27228
6189.34,0.27615
6183.56,0.27062
6177.77,0.27169
6171.98,0.27600
6166.2,0.27502
6160.41,0.27575
6154.63,0.27416
6148.84,0.27483
6143.05,0.27814
6137.27,0.27573
6131.48,0.27747
6125.7,0.27128
6119.91,0.27408
6114.12,0.27603
6108.34,0.27479
6102.55,0.27548
6096.76,0.27474
6090.98,0.27523
6085.19,0.27525
6079.41,0.27637
6073.62,0.27387
6067.83,0.27571
6062.05,0.27289
6056.26,0.27332
6050.47,0.27743
6044.69,0.27592
6038.9,0.27542
6033.12,0.27535
6027.33,0.27600
6021.54,0.27719
6015.76,0.27283
6009.97,0.27485
6004.18,0.27379
5998.4,0.27473
5992.61,0.27434
5986.83,0.27515
5981.04,0.27587
5975.25,0.27603
5969.47,0.27340
5963.68,0.27391
5957.89,0.27536
5952.11,0.27488
5946.32,0.27375
5940.54,0.27375
5934.75,0.27370
5928.96,0.27378
5923.18,0.27632
5917.39,0.27465
5911.6,0.27564
5905.82,0.27449
5900.03,0.27403
5894.25,0.27423
5888.46,0.27469
5882.67,0.27318
5876.89,0.27407
5871.1,0.27461
5865.31,0.27589
5859.53,0.27475
5853.74,0.27502
5847.96,0.27554
5842.17,0.27437
5836.38,0.27645
5830.6,0.27514
5824.81,0.27338
5819.02,0.27642
5813.24,0.27389
5807.45,0.27345
5801.67,0.27074
5795.88,0.27196
5790.09,0.27067
5784.31,0.27478
5778.52,0.27275
5772.73,0.27413
5766.95,0.27300
5761.16,0.27409
5755.38,0.27426
5749.59,0.27318
5743.8,0.27395
5738.02,0.27287
5732.23,0.27501
5726.44,0.27318
5720.66,0.27431
5714.87,0.27386
5709.09,0.27245
5703.3,0.27167
5697.51,0.27016
5691.73,0.27472
5685.94,0.27500
5680.15,0.27645
5674.37,0.27393
5668.58,0.27204
5662.8,0.27089
5657.01,0.27159
5651.22,0.27515
5645.44,0.27304
5639.65,0.27280
5633.87,0.27240
5628.08,0.27352
5622.29,0.27281
5616.51,0.27391
5610.72,0.27270
5604.93,0.27352
5599.15,0.27414
5593.36,0.27163
5587.58,0.27257
5581.79,0.27047
5576,0.27150
5570.22,0.27266
5564.43,0.27200
5558.64,0.27354
5552.86,0.27161
5547.07,0.27312
5541.29,0.27220
5535.5,0.27009
5529.71,0.27250
5523.93,0.27169
5518.14,0.27279
5512.35,0.27389
5506.57,0.27177
5500.78,0.27190
5495,0.27270
5489.21,0.27283
5483.42,0.27268
5477.64,0.27264
5471.85,0.27270
5466.06,0.27363
5460.28,0.27220
5454.49,0.27130
5448.71,0.27294
5442.92,0.27210
5437.13,0.27285
5431.35,0.27080
5425.56,0.27187
5419.77,0.27238
5413.99,0.27238
5408.2,0.27098
5402.42,0.27016
5396.63,0.27271
5390.84,0.27096
5385.06,0.26941
5379.27,0.27082
5373.48,0.26938
5367.7,0.27118
5361.91,0.27015
5356.13,0.26949
5350.34,0.27083
5344.55,0.26892
5338.77,0.26880
5332.98,0.26892
5327.19,0.26847
5321.41,0.26740
5315.62,0.26795
5309.84,0.26476
5304.05,0.26448
5298.26,0.26580
5292.48,0.26258
5286.69,0.26212
5280.9,0.26232
5275.12,0.26276
5269.33,0.26149
5263.55,0.25821
5257.76,0.25692
5251.97,0.25561
5246.19,0.25373
5240.4,0.25151
5234.61,0.25157
5228.83,0.25086
5223.04,0.25024
5217.26,0.24972
5211.47,0.24956
5205.68,0.24767
5199.9,0.24774
5194.11,0.24854
5188.32,0.24887
5182.54,0.24735
5176.75,0.24832
5170.97,0.24860
5165.18,0.24859
5159.39,0.24924
5153.61,0.24817
5147.82,0.24921
5142.03,0.24943
5136.25,0.24830
5130.46,0.25006
5124.68,0.24998
5118.89,0.24954
5113.1,0.25128
5107.32,0.25035
5101.53,0.25145
5095.75,0.25156
5089.96,0.25239
5084.17,0.25190
5078.39,0.25369
5072.6,0.25327
5066.81,0.25331
5061.03,0.25128
5055.24,0.25271
5049.46,0.25291
5043.67,0.25486
5037.88,0.25320
5032.1,0.25470
5026.31,0.25498
5020.52,0.25480
5014.74,0.25486
5008.95,0.25637
5003.17,0.25547
4997.38,0.25569
4991.59,0.25673
4985.81,0.25605
4980.02,0.25729
4974.23,0.25671
4968.45,0.25737
4962.66,0.25825
4956.88,0.26081
4951.09,0.25900
4945.3,0.25881
4939.52,0.25951
4933.73,0.25937
4927.94,0.26046
4922.16,0.25944
4916.37,0.25926
4910.59,0.26098
4904.8,0.26026
4899.01,0.26053
4893.23,0.26022
4887.44,0.26096
4881.65,0.26064
4875.87,0.26064
4870.08,0.26066
4864.3,0.26060
4858.51,0.26072
4852.72,0.26095
4846.94,0.26050
4841.15,0.26169
4835.36,0.26183
4829.58,0.26142
4823.79,0.26221
4818.01,0.26182
4812.22,0.26090
4806.43,0.26149
4800.65,0.26097
4794.86,0.26144
4789.07,0.26210
4783.29,0.26015
4777.5,0.26069
4771.72,0.26150
4765.93,0.26172
4760.14,0.26047
4754.36,0.26143
4748.57,0.26127
4742.78,0.26158
4737,0.26192
4731.21,0.26185
4725.43,0.26181
4719.64,0.26178
4713.85,0.26068
4708.07,0.26125
4702.28,0.26128
4696.49,0.26099
4690.71,0.26029
4684.92,0.26051
4679.14,0.26024
4673.35,0.26003
4667.56,0.25994
4661.78,0.26056
4655.99,0.25978
4650.2,0.25976
4644.42,0.25933
4638.63,0.25851
4632.85,0.25882
4627.06,0.25908
4621.27,0.25781
4615.49,0.25867
4609.7,0.25899
4603.92,0.25776
4598.13,0.25761
4592.34,0.25792
4586.56,0.25747
4580.77,0.25732
4574.98,0.25764
4569.2,0.25680
4563.41,0.25620
4557.63,0.25557
4551.84,0.25509
4546.05,0.25558
4540.27,0.25354
4534.48,0.25297
4528.69,0.25221
4522.91,0.25155
4517.12,0.25157
4511.34,0.25128
4505.55,0.25078
4499.76,0.25052
4493.98,0.25031
4488.19,0.24978
4482.4,0.24899
4476.62,0.25026
4470.83,0.25031
4465.05,0.25004
4459.26,0.24942
4453.47,0.24939
4447.69,0.24799
4441.9,0.24816
4436.11,0.24738
4430.33,0.24752
4424.54,0.24709
4418.76,0.24612
4412.97,0.24515
4407.18,0.24441
4401.4,0.24403
4395.61,0.24346
4389.82,0.24296
4384.04,0.24269
4378.25,0.24227
4372.47,0.24148
4366.68,0.24053
4360.89,0.23983
4355.11,0.23946
4349.32,0.23795
4343.53,0.23799
4337.75,0.23685
4331.96,0.23515
4326.18,0.23574
4320.39,0.23411
4314.6,0.23413
4308.82,0.23379
4303.03,0.23285
4297.24,0.23235
4291.46,0.23261
4285.67,0.23182
4279.89,0.23255
4274.1,0.23467
4268.31,0.23438
4262.53,0.23590
4256.74,0.23788
4250.95,0.23956
4245.17,0.24044
4239.38,0.24178
4233.6,0.24252
4227.81,0.24347
4222.02,0.24368
4216.24,0.24351
4210.45,0.24347
4204.66,0.24201
4198.88,0.24215
4193.09,0.24178
4187.31,0.24173
4181.52,0.24071
4175.73,0.24096
4169.95,0.23952
4164.16,0.23880
4158.37,0.23858
4152.59,0.23692
4146.8,0.23655
4141.02,0.23586
4135.23,0.23509
4129.44,0.23321
4123.66,0.23156
4117.87,0.23048
4112.09,0.22893
4106.3,0.22798
4100.51,0.22626
4094.73,0.22461
4088.94,0.22266
4083.15,0.22170
4077.37,0.22000
4071.58,0.21858
4065.8,0.21672
4060.01,0.21635
4054.22,0.21456
4048.44,0.21336
4042.65,0.21241
4036.86,0.21164
4031.08,0.20969
4025.29,0.20921
4019.51,0.20717
4013.72,0.20590
4007.93,0.20427
4002.15,0.20421
3996.36,0.20228
3990.57,0.20057
3984.79,0.20041
3979,0.19970
3973.22,0.19857
3967.43,0.19757
3961.64,0.19843
3955.86,0.19879
3950.07,0.19985
3944.28,0.20003
3938.5,0.20279
3932.71,0.20573
3926.93,0.20860
3921.14,0.21143
3915.35,0.21405
3909.57,0.21570
3903.78,0.21741
3897.99,0.21845
3892.21,0.21899
3886.42,0.21994
3880.64,0.22052
3874.85,0.22039
3869.06,0.21976
3863.28,0.22023
3857.49,0.22056
3851.7,0.22005
3845.92,0.21930
3840.13,0.22015
3834.35,0.21927
3828.56,0.21803
3822.77,0.21833
3816.99,0.21752
3811.2,0.21634
3805.41,0.21629
3799.63,0.21473
3793.84,0.21387
3788.06,0.21255
3782.27,0.21143
3776.48,0.21016
3770.7,0.20866
3764.91,0.20651
3759.12,0.20380
3753.34,0.20168
3747.55,0.19715
3741.77,0.19133
3735.98,0.18654
3730.19,0.18057
3724.41,0.17322
3718.62,0.16316
3712.83,0.15347
3707.05,0.14215
3701.26,0.12953
3695.48,0.12123
3689.69,0.12180
3683.9,0.12078
3678.12,0.11760
3672.33,0.11142
3666.54,0.10513
3660.76,0.09993
3654.97,0.09426
3649.19,0.08939
3643.4,0.08546
3637.61,0.08241
3631.83,0.07903
3626.04,0.07537
3620.25,0.07287
3614.47,0.07274
3608.68,0.07177
3602.9,0.07099
3597.11,0.07012
3591.32,0.06979
3585.54,0.06995
3579.75,0.06994
3573.97,0.06981
3568.18,0.06934
3562.39,0.06854
3556.61,0.06859
3550.82,0.06748
3545.03,0.06680
3539.25,0.06659
3533.46,0.06618
3527.68,0.06594
3521.89,0.06514
3516.1,0.06488
3510.32,0.06541
3504.53,0.06445
3498.74,0.06396
3492.96,0.06420
3487.17,0.06409
3481.39,0.06306
3475.6,0.06265
3469.81,0.06236
3464.03,0.06229
3458.24,0.06196
3452.45,0.06161
3446.67,0.06146
3440.88,0.06123
3435.1,0.06114
3429.31,0.06044
3423.52,0.06048
3417.74,0.06055
3411.95,0.06020
3406.16,0.06025
3400.38,0.05952
3394.59,0.06005
3388.81,0.06011
3383.02,0.05998
3377.23,0.06059
3371.45,0.06091
3365.66,0.06146
3359.87,0.06136
3354.09,0.06111
3348.3,0.06169
3342.52,0.06190
3336.73,0.06255
3330.94,0.06177
3325.16,0.06222
3319.37,0.06270
3313.58,0.06247
3307.8,0.06293
3302.01,0.06379
3296.23,0.06306
3290.44,0.06334
3284.65,0.06377
3278.87,0.06334
3273.08,0.06445
3267.29,0.06507
3261.51,0.06536
3255.72,0.06457
3249.94,0.06477
3244.15,0.06509
3238.36,0.06630
3232.58,0.06644
3226.79,0.06673
3221,0.06617
3215.22,0.06640
3209.43,0.06752
3203.65,0.06868
3197.86,0.06868
3192.07,0.06904
3186.29,0.06995
3180.5,0.07024
3174.71,0.07069
3168.93,0.07152
3163.14,0.07231
3157.36,0.07299
3151.57,0.07328
3145.78,0.07407
3140,0.07449
3134.21,0.07499
3128.42,0.07506
3122.64,0.07628
3116.85,0.07649
3111.07,0.07679
3105.28,0.07695
3099.49,0.07757
3093.71,0.07754
3087.92,0.07816
3082.14,0.07889
3076.35,0.07900
3070.56,0.07927
3064.78,0.07947
3058.99,0.07911
3053.2,0.07872
3047.42,0.07849
3041.63,0.07798
3035.85,0.07571
3030.06,0.07236
3024.27,0.07055
3018.49,0.07026
3012.7,0.07113
3006.91,0.07154
3001.13,0.07101
2995.34,0.06953
2989.56,0.06736
2983.77,0.06599
2977.98,0.06794
2972.2,0.06872
2966.41,0.06949
2960.62,0.06980
2954.84,0.06976
2949.05,0.06913
2943.27,0.06966
2937.48,0.06933
2931.69,0.06861
2925.91,0.06914
2920.12,0.06878
2914.33,0.06864
2908.55,0.06861
2902.76,0.06715
2896.98,0.06720
2891.19,0.06685
2885.4,0.06671
2879.62,0.06565
2873.83,0.06650
2868.04,0.06806
2862.26,0.07027
2856.47,0.07414
2850.69,0.07785
2844.9,0.08301
2839.11,0.08758
2833.33,0.09233
2827.54,0.09604
2821.75,0.09802
2815.97,0.09930
2810.18,0.10234
2804.4,0.10391
2798.61,0.10611
2792.82,0.10793
2787.04,0.10966
2781.25,0.11063
2775.46,0.11209
2769.68,0.11275
2763.89,0.11364
2758.11,0.11444
2752.32,0.11524
2746.53,0.11589
2740.75,0.11596
2734.96,0.11636
2729.17,0.11674
2723.39,0.11696
2717.6,0.11728
2711.82,0.11744
2706.03,0.11666
2700.24,0.11646
2694.46,0.11586
2688.67,0.11541
2682.88,0.11436
2677.1,0.11299
2671.31,0.11058
2665.53,0.10699
2659.74,0.10295
2653.95,0.09994
2648.17,0.09638
2642.38,0.09349
2636.59,0.08961
2630.81,0.08584
2625.02,0.08361
2619.24,0.08401
2613.45,0.08419
2607.66,0.08381
2601.88,0.08262
2596.09,0.08098
2590.3,0.07806
2584.52,0.07628
2578.73,0.07529
2572.95,0.07443
2567.16,0.07329
2561.37,0.07147
2555.59,0.06904
2549.8,0.06720
2544.02,0.06571
2538.23,0.06317
2532.44,0.06010
2526.66,0.05770
2520.87,0.05637
2515.08,0.05712
2509.3,0.06061
2503.51,0.06492
2497.73,0.07079
2491.94,0.07791
2486.15,0.08451
2480.37,0.09060
2474.58,0.09659
2468.79,0.10138
2463.01,0.10521
2457.22,0.10801
2451.44,0.11048
2445.65,0.11226
2439.86,0.11410
2434.08,0.11525
2428.29,0.11593
2422.5,0.11643
2416.72,0.11696
2410.93,0.11714
2405.15,0.11754
2399.36,0.11834
2393.57,0.11886
2387.79,0.11888
2382,0.11898
2376.21,0.11802
2370.43,0.11698
2364.64,0.11664
2358.86,0.11662
2353.07,0.11590
2347.28,0.11512
2341.5,0.11370
2335.71,0.11303
2329.92,0.11326
2324.14,0.11285
2318.35,0.11285
2312.57,0.11213
2306.78,0.11241
2300.99,0.11387
2295.21,0.11439
2289.42,0.11299
2283.63,0.11185
2277.85,0.11013
2272.06,0.10848
2266.28,0.10673
2260.49,0.10519
2254.7,0.10369
2248.92,0.10306
2243.13,0.10294
2237.34,0.10333
2231.56,0.10352
2225.77,0.10300
2219.99,0.10187
2214.2,0.10106
2208.41,0.10078
2202.63,0.09981
2196.84,0.09947
2191.05,0.09839
2185.27,0.09664
2179.48,0.09559
2173.7,0.09414
2167.91,0.09263
2162.12,0.09146
2156.34,0.09044
2150.55,0.08936
2144.76,0.08968
2138.98,0.09086
2133.19,0.09312
2127.41,0.09540
2121.62,0.09787
2115.83,0.09935
2110.05,0.10018
2104.26,0.10108
2098.47,0.10140
2092.69,0.10115
2086.9,0.10103
2081.12,0.10058
2075.33,0.10029
2069.54,0.10034
2063.76,0.09955
2057.97,0.09883
2052.19,0.09807
2046.4,0.09660
2040.61,0.09459
2034.83,0.09347
2029.04,0.09248
2023.25,0.09173
2017.47,0.09109
2011.68,0.08990
2005.9,0.08913
2000.11,0.08819
1994.32,0.08749
1988.54,0.08675
1982.75,0.08513
1976.96,0.08254
1971.18,0.08268
1965.39,0.08359
1959.61,0.08302
1953.82,0.08385
1948.03,0.08345
1942.25,0.08302
1936.46,0.08218
1930.67,0.08100
1924.89,0.07988
1919.1,0.07828
1913.32,0.07682
1907.53,0.07514
1901.74,0.07299
1895.96,0.07129
1890.17,0.06945
1884.38,0.06817
1878.6,0.06707
1872.81,0.06591
1867.03,0.06475
1861.24,0.06340
1855.45,0.06303
1849.67,0.06162
1843.88,0.05910
1838.09,0.05650
1832.31,0.05255
1826.52,0.04813
1820.74,0.04581
1814.95,0.04441
1809.16,0.04272
1803.38,0.03989
1797.59,0.03696
1791.8,0.03832
1786.02,0.04242
1780.23,0.04501
1774.45,0.04641
1768.66,0.04730
1762.87,0.04721
1757.09,0.04695
1751.3,0.04657
1745.51,0.04543
1739.73,0.04488
1733.94,0.04447
1728.16,0.04386
1722.37,0.04331
1716.58,0.04281
1710.8,0.04224
1705.01,0.04173
1699.22,0.04082
1693.44,0.03930
1687.65,0.03844
1681.87,0.03767
1676.08,0.03779
1670.29,0.03768
1664.51,0.03714
1658.72,0.03686
1652.93,0.03725
1647.15,0.03758
1641.36,0.03754
1635.58,0.03904
1629.79,0.04025
1624,0.04231
1618.22,0.04456
1612.43,0.04710
1606.64,0.04961
1600.86,0.05379
1595.07,0.05943
1589.29,0.06741
1583.5,0.07933
1577.71,0.09412
1571.93,0.10968
1566.14,0.11703
1560.35,0.12027
1554.57,0.12157
1548.78,0.12028
1543,0.11717
1537.21,0.11330
1531.42,0.11041
1525.64,0.10844
1519.85,0.10602
1514.07,0.10420
1508.28,0.10173
1502.49,0.09872
1496.71,0.09681
1490.92,0.09537
1485.13,0.09408
1479.35,0.09253
1473.56,0.09204
1467.78,0.09070
1461.99,0.08965
1456.2,0.08897
1450.42,0.08760
1444.63,0.08691
1438.84,0.08714
1433.06,0.08748
1427.27,0.08763
1421.49,0.08702
1415.7,0.08393
1409.91,0.08133
1404.13,0.07719
1398.34,0.07424
1392.55,0.07225
1386.77,0.07101
1380.98,0.07096
1375.2,0.07187
1369.41,0.07359
1363.62,0.07626
1357.84,0.07890
1352.05,0.08087
1346.26,0.08181
1340.48,0.08295
1334.69,0.08403
1328.91,0.08508
1323.12,0.08545
1317.33,0.08609
1311.55,0.08669
1305.76,0.08716
1299.97,0.08798
1294.19,0.08916
1288.4,0.08965
1282.62,0.09009
1276.83,0.09099
1271.04,0.09155
1265.26,0.09106
1259.47,0.09190
1253.68,0.09293
1247.9,0.09312
1242.11,0.09278
1236.33,0.09346
1230.54,0.09395
1224.75,0.09550
1218.97,0.09558
1213.18,0.09360
1207.39,0.09026
1201.61,0.08610
1195.82,0.08162
1190.04,0.07852
1184.25,0.07584
1178.46,0.07379
1172.68,0.07273
1166.89,0.07021
1161.1,0.06586
1155.32,0.06736
1149.53,0.06917
1143.75,0.06956
1137.96,0.07008
1132.17,0.07023
1126.39,0.07002
1120.6,0.06949
1114.81,0.06937
1109.03,0.06872
1103.24,0.06863
1097.46,0.06771
1091.67,0.06855
1085.88,0.06875
1080.1,0.06876
1074.31,0.06732
1068.52,0.06577
1062.74,0.06182
1056.95,0.05908
1051.17,0.05662
1045.38,0.05433
1039.59,0.05272
1033.81,0.05233
1028.02,0.05119
1022.24,0.05024
1016.45,0.04989
1010.66,0.05011
1004.88,0.05016
999.09,0.05010
993.304,0.05024
987.518,0.05046
981.731,0.05090
975.945,0.05158
970.159,0.05289
964.373,0.05418
958.586,0.05502
952.8,0.05619
947.014,0.05722
941.228,0.05752
935.441,0.05687
929.655,0.05788
923.869,0.05839
918.083,0.05968
912.297,0.05950
906.51,0.06354
900.724,0.07250
894.938,0.08001
889.152,0.07309
883.365,0.06271
877.579,0.05818
871.793,0.05694
866.007,0.05719
860.22,0.05614
854.434,0.05251
848.648,0.05147
842.862,0.05256
837.075,0.05228
831.289,0.05123
825.503,0.05096
819.717,0.04881
813.931,0.04882
808.144,0.05010
802.358,0.05254
796.572,0.05188
790.786,0.05016
784.999,0.05198
779.213,0.05256
773.427,0.04987
767.641,0.04752
761.854,0.04677
756.068,0.04595
750.282,0.04529
744.496,0.04332
738.709,0.03969
732.923,0.03646
727.137,0.03843
721.351,0.03976
715.565,0.03761
709.778,0.04072
703.992,0.04202
698.206,0.04234
692.42,0.04182
686.633,0.04166
680.847,0.04149
675.061,0.04112
669.275,0.04003
663.488,0.03944
657.702,0.03874
651.916,0.03861
646.13,0.03912
640.343,0.03874
634.557,0.03845
628.771,0.03742
622.985,0.03675
617.198,0.03577
611.412,0.03262
605.626,0.03412
599.84,0.03230