File: 01_Data/Concrete_Block/FTIR/IS/Concrete_Block_IS_S_221214_R6.dpt
7497.03,0.27613
7491.25,0.27494
7485.46,0.28319
7479.67,0.28421
7473.89,0.27965
7468.1,0.27839
7462.32,0.28040
7456.53,0.27685
7450.74,0.27939
7444.96,0.28012
7439.17,0.27545
7433.38,0.27454
7427.6,0.27276
7421.81,0.27098
7416.03,0.27498
7410.24,0.28182
7404.45,0.28650
7398.67,0.27438
7392.88,0.27654
7387.09,0.27017
7381.31,0.28329
7375.52,0.27202
7369.74,0.27031
7363.95,0.27775
7358.16,0.27872
7352.38,0.27465
7346.59,0.27839
7340.8,0.27247
7335.02,0.27207
7329.23,0.26711
7323.45,0.27168
7317.66,0.27300
7311.87,0.28081
7306.09,0.27474
7300.3,0.27682
7294.51,0.27992
7288.73,0.27586
7282.94,0.28148
7277.16,0.26943
7271.37,0.27967
7265.58,0.27995
7259.8,0.27862
7254.01,0.28065
7248.22,0.27432
7242.44,0.27245
7236.65,0.27478
7230.87,0.28065
7225.08,0.28142
7219.29,0.27221
7213.51,0.27588
7207.72,0.26490
7201.93,0.26780
7196.15,0.27758
7190.36,0.27556
7184.58,0.27141
7178.79,0.28047
7173,0.27562
7167.22,0.27846
7161.43,0.26945
7155.65,0.27610
7149.86,0.27398
7144.07,0.27275
7138.29,0.27486
7132.5,0.27824
7126.71,0.27493
7120.93,0.26899
7115.14,0.27271
7109.36,0.27101
7103.57,0.27541
7097.78,0.27130
7092,0.27501
7086.21,0.27124
7080.42,0.27175
7074.64,0.27619
7068.85,0.27262
7063.07,0.27002
7057.28,0.27055
7051.49,0.26615
7045.71,0.26368
7039.92,0.27048
7034.13,0.27164
7028.35,0.27475
7022.56,0.27420
7016.78,0.27399
7010.99,0.27562
7005.2,0.27087
6999.42,0.27404
6993.63,0.27568
6987.84,0.27441
6982.06,0.27706
6976.27,0.27810
6970.49,0.27286
6964.7,0.27547
6958.91,0.27780
6953.13,0.26652
6947.34,0.27442
6941.55,0.27906
6935.77,0.26584
6929.98,0.26832
6924.2,0.27408
6918.41,0.27357
6912.62,0.27068
6906.84,0.27399
6901.05,0.27422
6895.26,0.27064
6889.48,0.27539
6883.69,0.27213
6877.91,0.27358
6872.12,0.27504
6866.33,0.27602
6860.55,0.27989
6854.76,0.27723
6848.97,0.27934
6843.19,0.27968
6837.4,0.27300
6831.62,0.27605
6825.83,0.27552
6820.04,0.27280
6814.26,0.26903
6808.47,0.27997
6802.68,0.27389
6796.9,0.27746
6791.11,0.27367
6785.33,0.27875
6779.54,0.27380
6773.75,0.26701
6767.97,0.26658
6762.18,0.27559
6756.39,0.27706
6750.61,0.27941
6744.82,0.27226
6739.04,0.27719
6733.25,0.26914
6727.46,0.27610
6721.68,0.27258
6715.89,0.27217
6710.1,0.27597
6704.32,0.27528
6698.53,0.27422
6692.75,0.27322
6686.96,0.27744
6681.17,0.27430
6675.39,0.26954
6669.6,0.27750
6663.82,0.27498
6658.03,0.27366
6652.24,0.27840
6646.46,0.27318
6640.67,0.27134
6634.88,0.27691
6629.1,0.27226
6623.31,0.28140
6617.53,0.27613
6611.74,0.27228
6605.95,0.27954
6600.17,0.27561
6594.38,0.27731
6588.59,0.28132
6582.81,0.27941
6577.02,0.27404
6571.24,0.27006
6565.45,0.27517
6559.66,0.27182
6553.88,0.27118
6548.09,0.27826
6542.3,0.27574
6536.52,0.27344
6530.73,0.27365
6524.95,0.27641
6519.16,0.27347
6513.37,0.27650
6507.59,0.27664
6501.8,0.27856
6496.01,0.27516
6490.23,0.27600
6484.44,0.27370
6478.66,0.28227
6472.87,0.27747
6467.08,0.27537
6461.3,0.27454
6455.51,0.27548
6449.72,0.27678
6443.94,0.27665
6438.15,0.27961
6432.37,0.27350
6426.58,0.27127
6420.79,0.27329
6415.01,0.27743
6409.22,0.27573
6403.43,0.27401
6397.65,0.27383
6391.86,0.27337
6386.08,0.27444
6380.29,0.27518
6374.5,0.27575
6368.72,0.27800
6362.93,0.27229
6357.14,0.27371
6351.36,0.27038
6345.57,0.27499
6339.79,0.27566
6334,0.28068
6328.21,0.27647
6322.43,0.27474
6316.64,0.27254
6310.85,0.27189
6305.07,0.27517
6299.28,0.27451
6293.5,0.27451
6287.71,0.27761
6281.92,0.27737
6276.14,0.27547
6270.35,0.27335
6264.56,0.27508
6258.78,0.27634
6252.99,0.27810
6247.21,0.27901
6241.42,0.27736
6235.63,0.27628
6229.85,0.27647
6224.06,0.27416
6218.27,0.27381
6212.49,0.27600
6206.7,0.27461
6200.92,0.27602
6195.13,0.27647
6189.34,0.27575
6183.56,0.27823
6177.77,0.27688
6171.98,0.27532
6166.2,0.27327
6160.41,0.27851
6154.63,0.27436
6148.84,0.27236
6143.05,0.27418
6137.27,0.27479
6131.48,0.27362
6125.7,0.27235
6119.91,0.27728
6114.12,0.27609
6108.34,0.27219
6102.55,0.27655
6096.76,0.27556
6090.98,0.27746
6085.19,0.27595
6079.41,0.27542
6073.62,0.27704
6067.83,0.27514
6062.05,0.27416
6056.26,0.27924
6050.47,0.27344
6044.69,0.27525
6038.9,0.27422
6033.12,0.27546
6027.33,0.27604
6021.54,0.27619
6015.76,0.27528
6009.97,0.27418
6004.18,0.27376
5998.4,0.27191
5992.61,0.27354
5986.83,0.27332
5981.04,0.27623
5975.25,0.27610
5969.47,0.27760
5963.68,0.27605
5957.89,0.27186
5952.11,0.27316
5946.32,0.27506
5940.54,0.27370
5934.75,0.27230
5928.96,0.27415
5923.18,0.27574
5917.39,0.27602
5911.6,0.27364
5905.82,0.27615
5900.03,0.27785
5894.25,0.27546
5888.46,0.27565
5882.67,0.27536
5876.89,0.27666
5871.1,0.27477
5865.31,0.27651
5859.53,0.27598
5853.74,0.27566
5847.96,0.27528
5842.17,0.27515
5836.38,0.27415
5830.6,0.27380
5824.81,0.27452
5819.02,0.27404
5813.24,0.27315
5807.45,0.27442
5801.67,0.27530
5795.88,0.27269
5790.09,0.27581
5784.31,0.27349
5778.52,0.27711
5772.73,0.27310
5766.95,0.27488
5761.16,0.27440
5755.38,0.27342
5749.59,0.27365
5743.8,0.27185
5738.02,0.27458
5732.23,0.27609
5726.44,0.27228
5720.66,0.27581
5714.87,0.27366
5709.09,0.27342
5703.3,0.27290
5697.51,0.27275
5691.73,0.27414
5685.94,0.27440
5680.15,0.27326
5674.37,0.27239
5668.58,0.27172
5662.8,0.27276
5657.01,0.27301
5651.22,0.27420
5645.44,0.27378
5639.65,0.27164
5633.87,0.27257
5628.08,0.27146
5622.29,0.27256
5616.51,0.27331
5610.72,0.27329
5604.93,0.27348
5599.15,0.27411
5593.36,0.27472
5587.58,0.27308
5581.79,0.27359
5576,0.27325
5570.22,0.27434
5564.43,0.27371
5558.64,0.27434
5552.86,0.27303
5547.07,0.27168
5541.29,0.27412
5535.5,0.27264
5529.71,0.27355
5523.93,0.27395
5518.14,0.27342
5512.35,0.27343
5506.57,0.27187
5500.78,0.27294
5495,0.27385
5489.21,0.27197
5483.42,0.27245
5477.64,0.27127
5471.85,0.27159
5466.06,0.27095
5460.28,0.27268
5454.49,0.27153
5448.71,0.27344
5442.92,0.27091
5437.13,0.26996
5431.35,0.27129
5425.56,0.27038
5419.77,0.27119
5413.99,0.27194
5408.2,0.27403
5402.42,0.27076
5396.63,0.27177
5390.84,0.27144
5385.06,0.27113
5379.27,0.27145
5373.48,0.27116
5367.7,0.27042
5361.91,0.26838
5356.13,0.26845
5350.34,0.26951
5344.55,0.27034
5338.77,0.26946
5332.98,0.26750
5327.19,0.26813
5321.41,0.26779
5315.62,0.26672
5309.84,0.26803
5304.05,0.26405
5298.26,0.26388
5292.48,0.26476
5286.69,0.26341
5280.9,0.26291
5275.12,0.26027
5269.33,0.26003
5263.55,0.25939
5257.76,0.25720
5251.97,0.25584
5246.19,0.25425
5240.4,0.25356
5234.61,0.25354
5228.83,0.25033
5223.04,0.25069
5217.26,0.24871
5211.47,0.25006
5205.68,0.24999
5199.9,0.24972
5194.11,0.24904
5188.32,0.25074
5182.54,0.24819
5176.75,0.24818
5170.97,0.24819
5165.18,0.24828
5159.39,0.24856
5153.61,0.24926
5147.82,0.24845
5142.03,0.24939
5136.25,0.24938
5130.46,0.25102
5124.68,0.25063
5118.89,0.25031
5113.1,0.24967
5107.32,0.25007
5101.53,0.25098
5095.75,0.25058
5089.96,0.25071
5084.17,0.25345
5078.39,0.25230
5072.6,0.25328
5066.81,0.25360
5061.03,0.25290
5055.24,0.25417
5049.46,0.25313
5043.67,0.25420
5037.88,0.25330
5032.1,0.25519
5026.31,0.25451
5020.52,0.25418
5014.74,0.25581
5008.95,0.25578
5003.17,0.25480
4997.38,0.25731
4991.59,0.25700
4985.81,0.25808
4980.02,0.25972
4974.23,0.25877
4968.45,0.25881
4962.66,0.25853
4956.88,0.26054
4951.09,0.26075
4945.3,0.25912
4939.52,0.25931
4933.73,0.25956
4927.94,0.26008
4922.16,0.26044
4916.37,0.25980
4910.59,0.26107
4904.8,0.26091
4899.01,0.26043
4893.23,0.26023
4887.44,0.26011
4881.65,0.26188
4875.87,0.26150
4870.08,0.26212
4864.3,0.26220
4858.51,0.26145
4852.72,0.26101
4846.94,0.26147
4841.15,0.26221
4835.36,0.26191
4829.58,0.26228
4823.79,0.26219
4818.01,0.26177
4812.22,0.26203
4806.43,0.26187
4800.65,0.26169
4794.86,0.26279
4789.07,0.26218
4783.29,0.26182
4777.5,0.26250
4771.72,0.26175
4765.93,0.26173
4760.14,0.26289
4754.36,0.26264
4748.57,0.26258
4742.78,0.26168
4737,0.26237
4731.21,0.26255
4725.43,0.26130
4719.64,0.26218
4713.85,0.26154
4708.07,0.26099
4702.28,0.26072
4696.49,0.26081
4690.71,0.26112
4684.92,0.26195
4679.14,0.26093
4673.35,0.26049
4667.56,0.26088
4661.78,0.26086
4655.99,0.26058
4650.2,0.25983
4644.42,0.25986
4638.63,0.25956
4632.85,0.25906
4627.06,0.25931
4621.27,0.25888
4615.49,0.25912
4609.7,0.25986
4603.92,0.25845
4598.13,0.25753
4592.34,0.25848
4586.56,0.25753
4580.77,0.25747
4574.98,0.25786
4569.2,0.25692
4563.41,0.25697
4557.63,0.25658
4551.84,0.25602
4546.05,0.25566
4540.27,0.25499
4534.48,0.25349
4528.69,0.25245
4522.91,0.25205
4517.12,0.25094
4511.34,0.25162
4505.55,0.25125
4499.76,0.25172
4493.98,0.25142
4488.19,0.25060
4482.4,0.25076
4476.62,0.25070
4470.83,0.25058
4465.05,0.25022
4459.26,0.24963
4453.47,0.25014
4447.69,0.24952
4441.9,0.24884
4436.11,0.24926
4430.33,0.24743
4424.54,0.24644
4418.76,0.24605
4412.97,0.24564
4407.18,0.24454
4401.4,0.24442
4395.61,0.24370
4389.82,0.24321
4384.04,0.24299
4378.25,0.24221
4372.47,0.24246
4366.68,0.24114
4360.89,0.24050
4355.11,0.23911
4349.32,0.23880
4343.53,0.23763
4337.75,0.23702
4331.96,0.23662
4326.18,0.23565
4320.39,0.23449
4314.6,0.23416
4308.82,0.23347
4303.03,0.23262
4297.24,0.23293
4291.46,0.23296
4285.67,0.23316
4279.89,0.23388
4274.1,0.23468
4268.31,0.23561
4262.53,0.23713
4256.74,0.23801
4250.95,0.23983
4245.17,0.24096
4239.38,0.24182
4233.6,0.24346
4227.81,0.24345
4222.02,0.24380
4216.24,0.24418
4210.45,0.24363
4204.66,0.24287
4198.88,0.24269
4193.09,0.24209
4187.31,0.24148
4181.52,0.24187
4175.73,0.24013
4169.95,0.23938
4164.16,0.23864
4158.37,0.23840
4152.59,0.23827
4146.8,0.23744
4141.02,0.23674
4135.23,0.23451
4129.44,0.23339
4123.66,0.23266
4117.87,0.23087
4112.09,0.22988
4106.3,0.22851
4100.51,0.22657
4094.73,0.22498
4088.94,0.22375
4083.15,0.22127
4077.37,0.22014
4071.58,0.21927
4065.8,0.21770
4060.01,0.21579
4054.22,0.21528
4048.44,0.21357
4042.65,0.21297
4036.86,0.21129
4031.08,0.21047
4025.29,0.20945
4019.51,0.20744
4013.72,0.20660
4007.93,0.20502
4002.15,0.20464
3996.36,0.20319
3990.57,0.20226
3984.79,0.20109
3979,0.19979
3973.22,0.19937
3967.43,0.19897
3961.64,0.19854
3955.86,0.19861
3950.07,0.19943
3944.28,0.20090
3938.5,0.20356
3932.71,0.20646
3926.93,0.20857
3921.14,0.21245
3915.35,0.21431
3909.57,0.21637
3903.78,0.21829
3897.99,0.21872
3892.21,0.21982
3886.42,0.22047
3880.64,0.22062
3874.85,0.22109
3869.06,0.22129
3863.28,0.22115
3857.49,0.22090
3851.7,0.22098
3845.92,0.22118
3840.13,0.22006
3834.35,0.21875
3828.56,0.21942
3822.77,0.21888
3816.99,0.21779
3811.2,0.21682
3805.41,0.21634
3799.63,0.21533
3793.84,0.21452
3788.06,0.21327
3782.27,0.21236
3776.48,0.21073
3770.7,0.20839
3764.91,0.20665
3759.12,0.20438
3753.34,0.20169
3747.55,0.19792
3741.77,0.19180
3735.98,0.18720
3730.19,0.18054
3724.41,0.17305
3718.62,0.16342
3712.83,0.15413
3707.05,0.14308
3701.26,0.12892
3695.48,0.12184
3689.69,0.12244
3683.9,0.12151
3678.12,0.11786
3672.33,0.11093
3666.54,0.10486
3660.76,0.10006
3654.97,0.09394
3649.19,0.08943
3643.4,0.08575
3637.61,0.08257
3631.83,0.07917
3626.04,0.07589
3620.25,0.07235
3614.47,0.07239
3608.68,0.07162
3602.9,0.07102
3597.11,0.07072
3591.32,0.07043
3585.54,0.06971
3579.75,0.07055
3573.97,0.07002
3568.18,0.06923
3562.39,0.06933
3556.61,0.06818
3550.82,0.06820
3545.03,0.06754
3539.25,0.06698
3533.46,0.06666
3527.68,0.06683
3521.89,0.06578
3516.1,0.06580
3510.32,0.06489
3504.53,0.06445
3498.74,0.06418
3492.96,0.06410
3487.17,0.06353
3481.39,0.06351
3475.6,0.06357
3469.81,0.06316
3464.03,0.06257
3458.24,0.06188
3452.45,0.06182
3446.67,0.06179
3440.88,0.06162
3435.1,0.06117
3429.31,0.06097
3423.52,0.06092
3417.74,0.06021
3411.95,0.06049
3406.16,0.06002
3400.38,0.05976
3394.59,0.05965
3388.81,0.06084
3383.02,0.06024
3377.23,0.06075
3371.45,0.06140
3365.66,0.06138
3359.87,0.06129
3354.09,0.06187
3348.3,0.06169
3342.52,0.06236
3336.73,0.06253
3330.94,0.06230
3325.16,0.06269
3319.37,0.06307
3313.58,0.06318
3307.8,0.06353
3302.01,0.06375
3296.23,0.06365
3290.44,0.06357
3284.65,0.06399
3278.87,0.06461
3273.08,0.06462
3267.29,0.06405
3261.51,0.06499
3255.72,0.06549
3249.94,0.06556
3244.15,0.06681
3238.36,0.06586
3232.58,0.06665
3226.79,0.06633
3221,0.06658
3215.22,0.06725
3209.43,0.06815
3203.65,0.06856
3197.86,0.06939
3192.07,0.06947
3186.29,0.07018
3180.5,0.07021
3174.71,0.07096
3168.93,0.07160
3163.14,0.07263
3157.36,0.07318
3151.57,0.07413
3145.78,0.07389
3140,0.07447
3134.21,0.07540
3128.42,0.07568
3122.64,0.07649
3116.85,0.07668
3111.07,0.07749
3105.28,0.07786
3099.49,0.07775
3093.71,0.07811
3087.92,0.07873
3082.14,0.07918
3076.35,0.07955
3070.56,0.07972
3064.78,0.07936
3058.99,0.07956
3053.2,0.07964
3047.42,0.07887
3041.63,0.07794
3035.85,0.07573
3030.06,0.07295
3024.27,0.07118
3018.49,0.07072
3012.7,0.07124
3006.91,0.07110
3001.13,0.07106
2995.34,0.06963
2989.56,0.06754
2983.77,0.06716
2977.98,0.06808
2972.2,0.06872
2966.41,0.06938
2960.62,0.06958
2954.84,0.06945
2949.05,0.06969
2943.27,0.06962
2937.48,0.06926
2931.69,0.06975
2925.91,0.06880
2920.12,0.06904
2914.33,0.06853
2908.55,0.06794
2902.76,0.06727
2896.98,0.06702
2891.19,0.06730
2885.4,0.06648
2879.62,0.06618
2873.83,0.06652
2868.04,0.06799
2862.26,0.07084
2856.47,0.07378
2850.69,0.07801
2844.9,0.08259
2839.11,0.08792
2833.33,0.09259
2827.54,0.09622
2821.75,0.09853
2815.97,0.09964
2810.18,0.10257
2804.4,0.10458
2798.61,0.10642
2792.82,0.10800
2787.04,0.10982
2781.25,0.11120
2775.46,0.11178
2769.68,0.11280
2763.89,0.11393
2758.11,0.11434
2752.32,0.11521
2746.53,0.11606
2740.75,0.11625
2734.96,0.11739
2729.17,0.11739
2723.39,0.11789
2717.6,0.11754
2711.82,0.11761
2706.03,0.11715
2700.24,0.11674
2694.46,0.11624
2688.67,0.11569
2682.88,0.11472
2677.1,0.11322
2671.31,0.11093
2665.53,0.10709
2659.74,0.10326
2653.95,0.10018
2648.17,0.09652
2642.38,0.09339
2636.59,0.09013
2630.81,0.08632
2625.02,0.08429
2619.24,0.08397
2613.45,0.08405
2607.66,0.08411
2601.88,0.08286
2596.09,0.08084
2590.3,0.07818
2584.52,0.07662
2578.73,0.07522
2572.95,0.07446
2567.16,0.07374
2561.37,0.07200
2555.59,0.06949
2549.8,0.06752
2544.02,0.06583
2538.23,0.06361
2532.44,0.06088
2526.66,0.05807
2520.87,0.05662
2515.08,0.05764
2509.3,0.06058
2503.51,0.06501
2497.73,0.07123
2491.94,0.07811
2486.15,0.08488
2480.37,0.09093
2474.58,0.09665
2468.79,0.10130
2463.01,0.10506
2457.22,0.10838
2451.44,0.11091
2445.65,0.11289
2439.86,0.11460
2434.08,0.11530
2428.29,0.11627
2422.5,0.11649
2416.72,0.11698
2410.93,0.11724
2405.15,0.11817
2399.36,0.11845
2393.57,0.11907
2387.79,0.11898
2382,0.11917
2376.21,0.11887
2370.43,0.11802
2364.64,0.11759
2358.86,0.11678
2353.07,0.11630
2347.28,0.11581
2341.5,0.11440
2335.71,0.11345
2329.92,0.11356
2324.14,0.11299
2318.35,0.11248
2312.57,0.11272
2306.78,0.11297
2300.99,0.11382
2295.21,0.11437
2289.42,0.11371
2283.63,0.11262
2277.85,0.11070
2272.06,0.10892
2266.28,0.10688
2260.49,0.10574
2254.7,0.10436
2248.92,0.10351
2243.13,0.10313
2237.34,0.10357
2231.56,0.10359
2225.77,0.10331
2219.99,0.10252
2214.2,0.10141
2208.41,0.10077
2202.63,0.10045
2196.84,0.09973
2191.05,0.09872
2185.27,0.09730
2179.48,0.09605
2173.7,0.09406
2167.91,0.09269
2162.12,0.09185
2156.34,0.09068
2150.55,0.08979
2144.76,0.08983
2138.98,0.09122
2133.19,0.09331
2127.41,0.09546
2121.62,0.09821
2115.83,0.09971
2110.05,0.10082
2104.26,0.10149
2098.47,0.10208
2092.69,0.10164
2086.9,0.10165
2081.12,0.10109
2075.33,0.10074
2069.54,0.10042
2063.76,0.09951
2057.97,0.09892
2052.19,0.09770
2046.4,0.09679
2040.61,0.09505
2034.83,0.09380
2029.04,0.09281
2023.25,0.09201
2017.47,0.09105
2011.68,0.09001
2005.9,0.08940
2000.11,0.08848
1994.32,0.08781
1988.54,0.08695
1982.75,0.08565
1976.96,0.08278
1971.18,0.08299
1965.39,0.08333
1959.61,0.08298
1953.82,0.08358
1948.03,0.08387
1942.25,0.08272
1936.46,0.08181
1930.67,0.08092
1924.89,0.08013
1919.1,0.07878
1913.32,0.07716
1907.53,0.07558
1901.74,0.07327
1895.96,0.07104
1890.17,0.06977
1884.38,0.06811
1878.6,0.06751
1872.81,0.06596
1867.03,0.06488
1861.24,0.06405
1855.45,0.06298
1849.67,0.06157
1843.88,0.05973
1838.09,0.05656
1832.31,0.05264
1826.52,0.04848
1820.74,0.04565
1814.95,0.04423
1809.16,0.04228
1803.38,0.03990
1797.59,0.03712
1791.8,0.03826
1786.02,0.04221
1780.23,0.04498
1774.45,0.04677
1768.66,0.04765
1762.87,0.04758
1757.09,0.04707
1751.3,0.04673
1745.51,0.04541
1739.73,0.04495
1733.94,0.04466
1728.16,0.04411
1722.37,0.04403
1716.58,0.04340
1710.8,0.04235
1705.01,0.04171
1699.22,0.04061
1693.44,0.03944
1687.65,0.03847
1681.87,0.03803
1676.08,0.03737
1670.29,0.03741
1664.51,0.03699
1658.72,0.03701
1652.93,0.03718
1647.15,0.03732
1641.36,0.03742
1635.58,0.03888
1629.79,0.04060
1624,0.04197
1618.22,0.04422
1612.43,0.04742
1606.64,0.04990
1600.86,0.05389
1595.07,0.05949
1589.29,0.06748
1583.5,0.07891
1577.71,0.09423
1571.93,0.10937
1566.14,0.11709
1560.35,0.12064
1554.57,0.12195
1548.78,0.11994
1543,0.11719
1537.21,0.11363
1531.42,0.11090
1525.64,0.10848
1519.85,0.10587
1514.07,0.10380
1508.28,0.10147
1502.49,0.09910
1496.71,0.09685
1490.92,0.09528
1485.13,0.09386
1479.35,0.09297
1473.56,0.09216
1467.78,0.09046
1461.99,0.08953
1456.2,0.08903
1450.42,0.08757
1444.63,0.08728
1438.84,0.08740
1433.06,0.08755
1427.27,0.08821
1421.49,0.08688
1415.7,0.08362
1409.91,0.08097
1404.13,0.07752
1398.34,0.07423
1392.55,0.07227
1386.77,0.07112
1380.98,0.07132
1375.2,0.07227
1369.41,0.07387
1363.62,0.07644
1357.84,0.07882
1352.05,0.08099
1346.26,0.08194
1340.48,0.08274
1334.69,0.08359
1328.91,0.08452
1323.12,0.08560
1317.33,0.08614
1311.55,0.08682
1305.76,0.08750
1299.97,0.08808
1294.19,0.08896
1288.4,0.08996
1282.62,0.09004
1276.83,0.09118
1271.04,0.09161
1265.26,0.09114
1259.47,0.09199
1253.68,0.09311
1247.9,0.09299
1242.11,0.09297
1236.33,0.09363
1230.54,0.09463
1224.75,0.09563
1218.97,0.09595
1213.18,0.09383
1207.39,0.09050
1201.61,0.08622
1195.82,0.08162
1190.04,0.07769
1184.25,0.07544
1178.46,0.07382
1172.68,0.07200
1166.89,0.07009
1161.1,0.06638
1155.32,0.06715
1149.53,0.06937
1143.75,0.07005
1137.96,0.07051
1132.17,0.07052
1126.39,0.06976
1120.6,0.06977
1114.81,0.06893
1109.03,0.06884
1103.24,0.06807
1097.46,0.06796
1091.67,0.06804
1085.88,0.06830
1080.1,0.06884
1074.31,0.06804
1068.52,0.06607
1062.74,0.06180
1056.95,0.05923
1051.17,0.05655
1045.38,0.05420
1039.59,0.05267
1033.81,0.05240
1028.02,0.05106
1022.24,0.05018
1016.45,0.04990
1010.66,0.05065
1004.88,0.04981
999.09,0.05018
993.304,0.04989
987.518,0.05043
981.731,0.05119
975.945,0.05152
970.159,0.05286
964.373,0.05386
958.586,0.05535
952.8,0.05637
947.014,0.05692
941.228,0.05767
935.441,0.05761
929.655,0.05775
923.869,0.05869
918.083,0.05922
912.297,0.06009
906.51,0.06348
900.724,0.07307
894.938,0.07985
889.152,0.07229
883.365,0.06265
877.579,0.05820
871.793,0.05621
866.007,0.05665
860.22,0.05591
854.434,0.05261
848.648,0.05194
842.862,0.05343
837.075,0.05188
831.289,0.05148
825.503,0.04998
819.717,0.04914
813.931,0.04969
808.144,0.05023
802.358,0.05227
796.572,0.05114
790.786,0.05143
784.999,0.05260
779.213,0.05185
773.427,0.05092
767.641,0.04952
761.854,0.04691
756.068,0.04698
750.282,0.04485
744.496,0.04334
738.709,0.03977
732.923,0.03621
727.137,0.03815
721.351,0.03945
715.565,0.03735
709.778,0.04039
703.992,0.04053
698.206,0.04151
692.42,0.04234
686.633,0.04217
680.847,0.04111
675.061,0.04145
669.275,0.04119
663.488,0.04051
657.702,0.03945
651.916,0.03855
646.13,0.03904
640.343,0.03709
634.557,0.03561
628.771,0.03315
622.985,0.03443
617.198,0.03676
611.412,0.03512
605.626,0.03450
599.84,0.03297