File: 01_Data/Nylon_Carpet_High_Pile/Cone/Nylon_Carpet_High_Pile_HRRPUA_50.csv
Time after Ignition,Nylon_Carpet_High_Pile_R1,Nylon_Carpet_High_Pile_R2,Nylon_Carpet_High_Pile_R3,Mean,Std. Dev.
0.0,24.3,10.4,7.5,14.1,9.0
0.25,30.7,13.7,9.0,17.8,11.4
0.5,36.4,16.0,10.0,20.8,13.8
0.75,41.9,24.7,15.1,27.2,13.5
1.0,52.3,33.2,19.6,35.0,16.4
1.25,61.0,41.0,23.1,41.7,19.0
1.5,67.1,47.5,26.7,47.1,20.2
1.75,75.3,53.1,34.5,54.3,20.4
2.0,87.6,62.4,41.2,63.7,23.2
2.25,96.9,69.9,47.0,71.3,25.0
2.5,107.2,78.2,51.6,79.0,27.8
2.75,117.6,83.5,63.5,88.2,27.4
3.0,127.6,92.2,71.3,97.0,28.4
3.25,124.8,100.9,81.6,102.4,21.6
3.5,136.0,108.8,89.1,111.3,23.6
3.75,145.8,115.8,97.4,119.7,24.4
4.0,149.6,122.8,106.1,126.1,21.9
4.25,161.4,126.3,114.3,134.0,24.5
4.5,169.4,133.3,123.4,142.0,24.2
4.75,174.9,141.0,130.7,148.9,23.1
5.0,177.5,147.8,139.9,155.1,19.8
5.25,186.7,151.2,149.4,162.4,21.0
5.5,190.4,160.2,148.2,166.3,21.7
5.75,198.0,164.8,168.9,177.3,18.1
6.0,201.4,170.0,174.8,182.1,16.9
6.25,202.6,180.4,177.0,186.7,13.9
6.5,207.1,184.8,189.7,193.9,11.7
6.75,212.1,185.5,188.6,195.4,14.5
7.0,218.6,196.1,207.3,207.3,11.2
7.25,226.6,194.4,219.1,213.4,16.9
7.5,226.4,201.1,206.7,211.4,13.3
7.75,228.9,203.8,219.8,217.5,12.7
8.0,235.1,213.1,230.4,226.2,11.6
8.25,233.3,217.9,237.5,229.6,10.3
8.5,239.8,227.1,251.9,239.6,12.4
8.75,240.4,225.4,249.5,238.4,12.2
9.0,241.1,236.4,261.5,246.3,13.4
9.25,250.8,233.2,268.4,250.8,17.6
9.5,253.7,243.0,273.0,256.6,15.2
9.75,250.0,245.8,282.3,259.4,20.0
10.0,255.5,252.5,290.3,266.1,21.0
10.25,257.5,251.5,298.0,269.0,25.3
10.5,262.7,253.6,302.2,272.8,25.9
10.75,266.2,264.8,311.8,280.9,26.8
11.0,270.8,267.4,313.0,283.7,25.4
11.25,264.7,269.5,316.0,283.4,28.3
11.5,269.6,272.7,326.6,289.7,32.1
11.75,275.0,274.0,331.7,293.6,33.0
12.0,271.8,279.2,332.2,294.4,32.9
12.25,275.8,276.7,342.7,298.4,38.4
12.5,278.2,281.5,341.6,300.4,35.6
12.75,280.7,289.3,356.1,308.7,41.3
13.0,288.2,292.0,353.3,311.1,36.5
13.25,284.5,298.5,356.1,313.0,37.9
13.5,284.9,299.7,357.7,314.1,38.5
13.75,298.3,297.6,357.3,317.7,34.2
14.0,294.7,295.1,366.2,318.7,41.2
14.25,298.0,303.2,367.0,322.7,38.4
14.5,292.0,304.5,364.1,320.2,38.5
14.75,297.3,311.3,366.7,325.1,36.7
15.0,299.3,310.8,374.4,328.2,40.5
15.25,298.1,324.4,372.9,331.8,37.9
15.5,306.2,326.9,379.0,337.3,37.5
15.75,310.7,323.5,381.9,338.7,37.9
16.0,307.2,339.1,397.1,347.8,45.6
16.25,309.4,329.7,395.3,344.8,44.9
16.5,315.7,330.2,390.1,345.4,39.4
16.75,315.9,336.4,398.2,350.1,42.8
17.0,312.3,340.7,390.0,347.7,39.3
17.25,321.7,348.2,398.9,356.2,39.2
17.5,320.0,349.6,398.4,356.0,39.6
17.75,320.3,356.2,391.9,356.1,35.8
18.0,315.8,357.7,396.9,356.8,40.5
18.25,323.1,360.1,399.6,360.9,38.3
18.5,328.3,360.2,396.0,361.5,33.9
18.75,327.6,361.3,395.8,361.6,34.1
19.0,324.8,372.1,399.9,365.6,38.0
19.25,325.9,378.1,403.0,369.0,39.3
19.5,327.1,369.2,397.3,364.6,35.3
19.75,331.1,380.9,388.2,366.7,31.1
20.0,335.1,374.7,397.4,369.1,31.5
20.25,338.8,381.6,403.5,374.6,32.9
20.5,329.2,387.6,400.4,372.4,38.0
20.75,329.6,382.6,401.3,371.1,37.2
21.0,341.6,387.1,393.9,374.2,28.4
21.25,341.5,391.4,388.3,373.7,28.0
21.5,346.8,398.6,396.5,380.6,29.3
21.75,352.8,403.7,391.8,382.7,26.6
22.0,352.5,409.3,390.5,384.1,28.9
22.25,345.5,410.8,402.2,386.2,35.5
22.5,355.0,415.5,393.5,388.0,30.6
22.75,351.2,403.8,389.8,381.6,27.2
23.0,357.6,414.6,397.8,390.0,29.3
23.25,362.0,421.7,404.9,396.2,30.8
23.5,364.6,420.5,405.4,396.8,28.9
23.75,369.3,427.9,403.8,400.3,29.4
24.0,375.5,432.6,406.7,404.9,28.6
24.25,376.0,428.8,410.5,405.1,26.8
24.5,379.1,432.2,404.0,405.1,26.6
24.75,375.4,447.1,406.7,409.8,35.9
25.0,382.1,433.6,406.3,407.3,25.8
25.25,382.1,435.1,401.8,406.3,26.8
25.5,394.1,442.4,408.2,414.9,24.8
25.75,398.2,445.5,403.1,415.6,26.0
26.0,393.8,448.9,406.9,416.5,28.8
26.25,402.1,449.2,399.7,417.0,27.9
26.5,407.2,444.5,411.1,420.9,20.5
26.75,396.5,447.4,415.7,419.9,25.7
27.0,404.1,458.3,405.8,422.8,30.8
27.25,413.4,454.7,414.8,427.6,23.4
27.5,408.0,464.3,410.3,427.6,31.9
27.75,404.2,462.3,414.9,427.1,30.9
28.0,418.2,450.9,416.7,428.6,19.3
28.25,412.8,460.6,424.7,432.7,24.9
28.5,422.7,472.9,417.1,437.6,30.7
28.75,432.8,463.5,415.6,437.3,24.2
29.0,441.0,472.9,410.6,441.5,31.2
29.25,425.1,466.6,415.9,435.9,27.0
29.5,425.9,466.0,418.1,436.7,25.7
29.75,426.2,472.0,424.6,440.9,27.0
30.0,436.5,471.2,426.9,444.9,23.3
30.25,435.4,465.8,419.0,440.1,23.7
30.5,446.6,474.9,433.4,451.6,21.2
30.75,432.5,461.5,427.9,440.7,18.2
31.0,442.4,478.2,429.3,449.9,25.3
31.25,447.2,480.9,431.2,453.1,25.4
31.5,442.0,476.9,432.9,450.6,23.2
31.75,453.6,465.8,447.6,455.6,9.3
32.0,441.2,480.3,444.7,455.4,21.7
32.25,450.6,486.1,431.8,456.2,27.6
32.5,458.2,499.9,436.6,464.9,32.2
32.75,450.3,499.3,438.5,462.7,32.3
33.0,470.7,470.0,442.3,461.0,16.2
33.25,458.5,484.6,442.3,461.8,21.3
33.5,450.9,483.2,445.0,459.7,20.5
33.75,448.0,482.5,460.2,463.6,17.5
34.0,465.0,484.8,438.8,462.9,23.1
34.25,453.8,476.2,446.2,458.7,15.6
34.5,461.0,474.9,447.0,461.0,14.0
34.75,464.6,487.6,438.6,463.6,24.5
35.0,457.1,485.3,444.9,462.4,20.8
35.25,459.9,487.2,447.8,465.0,20.2
35.5,459.7,497.5,439.4,465.5,29.5
35.75,464.6,480.9,452.2,465.9,14.4
36.0,467.7,487.5,449.4,468.2,19.1
36.25,476.3,489.0,458.8,474.7,15.1
36.5,483.0,494.3,456.3,477.9,19.5
36.75,460.4,493.3,448.3,467.3,23.3
37.0,483.1,498.9,439.3,473.8,30.9
37.25,482.2,501.1,450.9,478.1,25.4
37.5,485.6,488.4,443.1,472.3,25.4
37.75,478.8,493.9,458.1,476.9,17.9
38.0,498.0,500.2,458.9,485.7,23.2
38.25,489.1,497.6,441.4,476.0,30.3
38.5,481.1,501.4,458.9,480.5,21.3
38.75,488.5,483.5,454.8,475.6,18.2
39.0,482.4,508.2,449.0,479.9,29.7
39.25,480.8,511.6,460.5,484.3,25.7
39.5,476.7,507.8,451.2,478.5,28.4
39.75,487.9,504.8,461.8,484.9,21.6
40.0,498.4,494.5,459.5,484.1,21.4
40.25,482.3,506.1,459.7,482.7,23.2
40.5,486.3,498.7,451.3,478.8,24.6
40.75,500.7,502.5,475.0,492.7,15.4
41.0,499.5,499.1,460.2,486.3,22.6
41.25,489.2,495.4,446.8,477.1,26.5
41.5,494.3,508.4,461.4,488.1,24.1
41.75,504.6,506.3,462.1,491.0,25.0
42.0,493.1,495.9,458.6,482.5,20.8
42.25,485.6,492.3,453.9,477.3,20.5
42.5,494.9,494.4,457.4,482.2,21.5
42.75,487.2,512.9,461.8,487.3,25.5
43.0,508.8,513.3,476.8,499.6,19.9
43.25,496.5,521.3,457.3,491.7,32.3
43.5,517.9,514.8,458.9,497.2,33.2
43.75,505.4,513.6,473.5,497.5,21.2
44.0,510.9,506.3,464.5,493.9,25.6
44.25,509.0,510.7,454.2,491.3,32.1
44.5,504.9,516.7,464.3,495.3,27.5
44.75,492.0,522.6,462.7,492.4,29.9
45.0,512.3,531.8,453.3,499.2,40.9
45.25,516.3,524.1,460.0,500.1,35.0
45.5,513.3,515.6,458.7,495.8,32.2
45.75,512.2,520.0,466.0,499.4,29.2
46.0,515.0,514.2,465.0,498.1,28.6
46.25,508.8,513.0,456.5,492.8,31.5
46.5,512.2,521.6,462.6,498.8,31.7
46.75,534.5,524.5,463.7,507.5,38.3
47.0,516.1,522.3,447.7,495.4,41.4
47.25,510.1,535.1,464.9,503.4,35.6
47.5,518.6,537.0,452.4,502.7,44.5
47.75,519.4,527.2,461.3,502.6,36.0
48.0,517.6,526.4,455.7,499.9,38.5
48.25,528.4,534.8,453.3,505.5,45.3
48.5,517.3,540.1,452.0,503.1,45.7
48.75,520.1,535.8,458.7,504.9,40.8
49.0,522.7,542.2,456.6,507.1,44.9
49.25,511.4,543.3,447.9,500.9,48.6
49.5,528.7,540.8,452.6,507.4,47.8
49.75,511.8,528.1,450.0,496.6,41.2
50.0,527.5,542.9,447.8,506.1,51.1
50.25,519.0,549.8,451.3,506.7,50.4
50.5,523.6,535.6,454.2,504.5,44.0
50.75,520.5,547.6,441.0,503.0,55.4
51.0,514.4,540.8,443.1,499.4,50.5
51.25,510.0,528.8,437.3,492.0,48.3
51.5,516.3,543.2,430.0,496.5,59.1
51.75,510.1,525.0,431.7,488.9,50.1
52.0,514.2,541.2,433.7,496.4,55.9
52.25,516.7,541.2,428.6,495.5,59.2
52.5,516.5,536.8,430.7,494.7,56.3
52.75,525.5,540.5,439.7,501.9,54.4
53.0,518.5,534.0,419.8,490.8,61.9
53.25,516.6,537.2,430.0,494.6,56.9
53.5,506.6,535.2,422.6,488.1,58.5
53.75,519.2,537.7,424.7,493.9,60.6
54.0,499.8,534.4,428.1,487.4,54.2
54.25,505.8,532.9,428.5,489.0,54.2
54.5,525.2,523.0,426.8,491.6,56.2
54.75,517.2,530.1,422.9,490.1,58.6
55.0,522.0,534.2,425.6,493.9,59.5
55.25,501.4,526.6,421.4,483.1,55.0
55.5,501.4,523.1,418.9,481.1,55.0
55.75,514.6,530.1,416.5,487.1,61.6
56.0,506.7,531.2,415.0,484.3,61.3
56.25,512.7,515.7,415.6,481.4,56.9
56.5,505.3,537.7,416.0,486.3,63.0
56.75,499.4,512.3,415.3,475.7,52.7
57.0,510.4,520.5,416.8,482.6,57.2
57.25,505.0,523.1,409.0,479.0,61.3
57.5,489.5,520.2,409.1,473.0,57.4
57.75,498.0,519.6,410.1,475.9,58.0
58.0,500.0,521.4,411.8,477.7,58.1
58.25,516.9,511.8,412.2,480.3,59.0
58.5,490.5,522.1,408.4,473.7,58.7
58.75,493.7,503.9,398.1,465.2,58.3
59.0,503.5,504.8,407.8,472.0,55.6
59.25,507.5,510.8,398.0,472.1,64.2
59.5,505.4,499.9,404.3,469.8,56.8
59.75,501.0,498.6,401.0,466.9,57.0
60.0,510.5,507.7,403.4,473.9,61.0
60.25,505.7,497.7,390.2,464.5,64.5
60.5,509.2,493.7,399.9,467.6,59.2
60.75,499.2,496.8,388.5,461.5,63.2
61.0,494.1,500.2,394.4,462.9,59.4
61.25,485.4,500.5,396.9,460.9,56.0
61.5,494.6,489.7,396.9,460.4,55.0
61.75,482.6,491.9,393.6,456.1,54.3
62.0,489.1,489.6,393.6,457.4,55.3
62.25,485.5,485.6,384.9,452.0,58.1
62.5,492.2,477.7,391.4,453.8,54.5
62.75,483.4,490.3,381.2,451.6,61.1
63.0,483.2,482.3,384.4,450.0,56.8
63.25,496.3,476.0,379.6,450.6,62.4
63.5,492.1,478.1,377.7,449.3,62.4
63.75,473.5,465.0,386.9,441.8,47.7
64.0,477.8,458.5,374.5,436.9,55.0
64.25,474.9,462.4,388.5,442.0,46.7
64.5,482.1,469.3,378.0,443.1,56.8
64.75,476.1,463.1,382.7,440.6,50.6
65.0,480.5,459.8,378.5,439.6,53.9
65.25,480.0,458.3,376.0,438.1,54.8
65.5,470.8,476.9,369.7,439.1,60.2
65.75,473.4,459.7,368.8,434.0,56.8
66.0,470.3,450.8,374.8,432.0,50.4
66.25,472.4,454.8,368.6,431.9,55.5
66.5,473.0,447.3,372.8,431.0,52.0
66.75,469.2,446.8,361.8,425.9,56.7
67.0,470.8,445.8,364.9,427.1,55.3
67.25,471.5,445.3,374.5,430.4,50.2
67.5,465.7,449.4,373.4,429.5,49.3
67.75,456.0,442.5,367.4,422.0,47.8
68.0,457.5,441.1,363.3,420.6,50.3
68.25,462.4,444.3,362.5,423.1,53.2
68.5,456.2,437.2,363.6,419.0,48.9
68.75,458.3,433.9,362.4,418.2,49.9
69.0,467.8,443.4,364.9,425.4,53.8
69.25,455.7,430.1,358.2,414.7,50.5
69.5,455.0,431.1,364.1,416.7,47.1
69.75,450.2,429.6,356.4,412.1,49.3
70.0,442.5,422.6,354.8,406.6,46.0
70.25,450.9,426.4,357.6,411.6,48.4
70.5,447.4,408.9,362.8,406.4,42.4
70.75,439.8,419.9,350.7,403.5,46.8
71.0,450.6,417.7,362.3,410.2,44.6
71.25,445.8,410.1,352.5,402.8,47.1
71.5,444.5,407.0,357.7,403.1,43.5
71.75,444.6,405.4,348.0,399.3,48.6
72.0,437.1,400.5,350.8,396.1,43.4
72.25,440.6,399.5,359.3,399.8,40.6
72.5,429.0,392.6,347.3,389.6,40.9
72.75,445.2,396.8,353.7,398.6,45.7
73.0,443.7,391.9,353.5,396.4,45.3
73.25,435.1,397.7,345.4,392.7,45.1
73.5,425.2,397.2,349.7,390.7,38.2
73.75,434.2,386.9,348.3,389.8,43.1
74.0,438.8,391.8,345.6,392.1,46.6
74.25,430.0,383.7,350.1,387.9,40.1
74.5,421.9,385.3,346.2,384.5,37.9
74.75,421.2,385.4,345.9,384.1,37.7
75.0,432.1,380.8,340.4,384.5,46.0
75.25,431.3,383.4,334.0,382.9,48.6
75.5,418.1,379.5,342.3,380.0,37.9
75.75,430.9,385.4,333.3,383.2,48.8
76.0,422.5,387.8,339.8,383.4,41.6
76.25,427.7,371.6,342.7,380.7,43.2
76.5,416.4,377.6,342.6,378.9,36.9
76.75,423.1,370.1,332.7,375.3,45.4
77.0,421.8,373.0,337.4,377.4,42.4
77.25,417.4,379.7,332.8,376.6,42.4
77.5,420.6,371.1,329.0,373.5,45.8
77.75,413.7,365.9,329.5,369.7,42.3
78.0,412.8,368.1,316.6,365.9,48.2
78.25,419.3,376.7,326.7,374.2,46.3
78.5,418.4,365.8,332.2,372.1,43.4
78.75,419.4,371.6,323.1,371.4,48.1
79.0,430.1,361.6,328.9,373.5,51.6
79.25,412.6,365.7,326.0,368.1,43.4
79.5,409.7,363.7,326.9,366.8,41.5
79.75,407.6,358.1,326.5,364.1,40.9
80.0,398.5,357.5,322.3,359.4,38.1
80.25,402.1,357.2,325.5,361.6,38.5
80.5,399.8,353.3,324.1,359.1,38.2
80.75,415.3,351.7,326.1,364.4,45.9
81.0,410.0,363.7,327.2,367.0,41.5
81.25,400.6,348.8,320.5,356.6,40.6
81.5,406.6,351.1,324.5,360.7,41.9
81.75,400.0,349.4,316.7,355.4,42.0
82.0,401.4,354.1,314.6,356.7,43.5
82.25,403.5,351.6,323.2,359.4,40.7
82.5,402.5,350.9,318.6,357.3,42.3
82.75,395.9,347.2,320.9,354.7,38.0
83.0,397.7,349.7,317.9,355.1,40.2
83.25,397.4,346.6,314.0,352.6,42.0
83.5,396.3,339.8,321.3,352.5,39.1
83.75,399.8,348.0,313.6,353.8,43.4
84.0,397.6,342.2,315.4,351.8,41.9
84.25,389.8,339.6,322.4,350.6,35.0
84.5,388.2,343.5,316.7,349.5,36.2
84.75,381.9,344.7,314.6,347.1,33.7
85.0,389.9,335.4,306.5,343.9,42.3
85.25,390.7,340.0,315.3,348.7,38.5
85.5,381.2,327.9,311.4,340.1,36.5
85.75,388.0,332.7,309.2,343.3,40.4
86.0,380.1,336.7,311.0,342.6,34.9
86.25,375.8,332.4,310.8,339.7,33.1
86.5,376.3,338.7,307.2,340.7,34.6
86.75,367.0,332.1,309.0,336.1,29.2
87.0,365.4,332.7,312.6,336.9,26.6
87.25,366.5,334.5,310.5,337.2,28.1
87.5,376.4,329.8,311.6,339.3,33.4
87.75,362.7,323.0,301.1,328.9,31.2
88.0,365.4,322.6,307.2,331.8,30.2
88.25,364.3,326.5,308.7,333.2,28.4
88.5,361.6,328.3,306.3,332.0,27.9
88.75,363.9,327.5,304.3,331.9,30.0
89.0,360.9,321.5,297.3,326.6,32.1
89.25,351.0,321.2,301.8,324.7,24.8
89.5,368.7,322.5,302.0,331.1,34.2
89.75,367.1,321.0,296.1,328.1,36.0
90.0,358.1,323.0,300.4,327.2,29.0
90.25,349.8,318.8,303.6,324.1,23.5
90.5,354.7,314.0,300.0,322.9,28.5
90.75,350.0,316.5,297.3,321.3,26.7
91.0,354.1,315.5,291.8,320.4,31.5
91.25,354.0,310.6,296.5,320.4,30.0
91.5,351.1,308.6,296.8,318.8,28.6
91.75,352.0,308.3,291.2,317.2,31.4
92.0,355.3,312.9,293.2,320.5,31.7
92.25,354.7,312.6,296.6,321.3,30.0
92.5,351.8,309.7,296.4,319.3,28.9
92.75,346.9,305.1,297.0,316.4,26.8
93.0,347.9,310.3,293.0,317.1,28.0
93.25,348.2,302.1,299.5,316.6,27.4
93.5,339.9,308.0,291.7,313.2,24.5
93.75,341.5,299.9,291.7,311.0,26.7
94.0,344.1,299.9,291.5,311.8,28.3
94.25,341.9,299.9,287.6,309.8,28.5
94.5,336.4,301.9,293.5,310.6,22.7
94.75,343.7,298.0,286.2,309.3,30.3
95.0,336.9,298.8,290.0,308.6,25.0
95.25,333.3,297.4,285.5,305.4,24.9
95.5,331.8,298.2,288.4,306.1,22.8
95.75,333.1,296.4,290.7,306.7,23.1
96.0,330.2,296.8,295.1,307.4,19.8
96.25,332.6,296.0,287.7,305.5,23.9
96.5,326.0,293.7,290.9,303.5,19.5
96.75,323.3,295.9,282.1,300.5,21.0
97.0,322.8,294.4,287.0,301.4,18.8
97.25,323.7,296.8,290.0,303.5,17.8
97.5,319.9,291.6,286.3,299.3,18.0
97.75,314.7,295.8,285.5,298.6,14.8
98.0,315.7,302.6,286.3,301.5,14.7
98.25,314.5,292.0,283.7,296.7,15.9
98.5,319.1,292.2,285.1,298.8,18.0
98.75,309.1,294.0,279.5,294.2,14.8
99.0,310.9,295.2,285.0,297.0,13.0
99.25,310.8,296.1,283.7,296.8,13.6
99.5,307.9,295.6,286.2,296.6,10.9
99.75,306.6,291.9,282.9,293.8,12.0
100.0,308.1,290.6,280.4,293.0,14.0
100.25,308.4,290.9,280.1,293.1,14.3
100.5,305.0,286.3,278.3,289.9,13.7
100.75,308.6,288.9,282.9,293.5,13.5
101.0,306.6,286.9,281.9,291.8,13.0
101.25,301.2,286.7,280.5,289.5,10.6
101.5,304.6,290.3,278.2,291.0,13.2
101.75,306.8,286.9,279.3,291.0,14.2
102.0,308.7,295.2,275.7,293.2,16.6
102.25,302.5,288.2,277.4,289.4,12.6
102.5,297.1,281.4,274.6,284.4,11.6
102.75,297.8,283.8,275.2,285.6,11.4
103.0,299.1,285.3,274.1,286.1,12.5
103.25,301.8,285.3,276.8,287.9,12.7
103.5,299.8,281.8,272.3,284.6,13.9
103.75,299.8,285.8,271.0,285.5,14.4
104.0,293.2,279.1,272.5,281.6,10.6
104.25,293.6,282.1,274.3,283.4,9.7
104.5,295.2,281.5,272.6,283.1,11.4
104.75,293.5,280.7,269.8,281.3,11.8
105.0,289.3,276.5,273.5,279.8,8.4
105.25,289.6,278.0,273.7,280.4,8.2
105.5,289.9,277.6,275.2,280.9,7.9
105.75,290.2,270.5,273.7,278.1,10.5
106.0,284.6,275.0,275.0,278.2,5.5
106.25,283.7,272.9,270.9,275.9,6.9
106.5,280.0,274.5,273.4,276.0,3.5
106.75,283.7,272.3,274.2,276.7,6.1
107.0,286.0,271.4,271.0,276.1,8.5
107.25,276.1,269.1,268.2,271.2,4.3
107.5,271.4,265.2,271.8,269.5,3.7
107.75,272.4,261.5,269.5,267.8,5.6
108.0,280.0,261.7,269.0,270.2,9.2
108.25,277.5,270.1,267.9,271.8,5.0
108.5,278.7,265.6,272.3,272.2,6.5
108.75,272.7,265.8,272.3,270.2,3.9
109.0,273.2,260.9,263.5,265.9,6.4
109.25,273.0,260.0,269.7,267.6,6.7
109.5,276.0,264.7,269.3,270.0,5.7
109.75,274.2,264.1,264.8,267.7,5.6
110.0,272.5,258.1,263.9,264.9,7.2
110.25,273.7,262.8,265.3,267.3,5.7
110.5,274.9,265.8,265.7,268.8,5.3
110.75,266.8,263.9,266.5,265.7,1.6
111.0,269.9,260.1,263.2,264.4,5.0
111.25,266.3,261.0,265.7,264.3,2.9
111.5,265.6,263.9,260.3,263.3,2.7
111.75,268.8,257.5,261.5,262.6,5.7
112.0,267.9,254.3,258.3,260.2,7.0
112.25,267.2,254.9,263.8,261.9,6.4
112.5,269.0,258.0,266.8,264.6,5.8
112.75,268.3,257.2,265.0,263.5,5.7
113.0,267.2,257.2,260.5,261.6,5.1
113.25,267.8,253.7,258.4,260.0,7.2
113.5,264.5,256.8,258.7,260.0,4.0
113.75,265.0,256.3,260.2,260.5,4.4
114.0,262.6,256.9,260.7,260.0,2.9
114.25,266.2,255.5,257.7,259.8,5.6
114.5,261.0,257.9,259.8,259.6,1.6
114.75,262.5,256.9,259.8,259.7,2.8
115.0,262.0,256.6,257.6,258.7,2.9
115.25,263.5,256.6,258.1,259.4,3.6
115.5,263.7,249.4,255.2,256.1,7.2
115.75,258.3,250.9,262.8,257.3,6.0
116.0,258.9,256.3,256.7,257.3,1.4
116.25,260.5,251.5,254.9,255.7,4.5
116.5,260.0,255.9,261.4,259.1,2.8
116.75,257.6,257.7,252.7,256.0,2.9
117.0,257.5,258.4,256.7,257.5,0.8
117.25,262.1,254.5,257.1,257.9,3.8
117.5,259.5,251.4,258.1,256.3,4.3
117.75,256.6,254.4,258.1,256.4,1.9
118.0,255.3,254.0,259.1,256.1,2.6
118.25,260.1,255.5,258.6,258.1,2.3
118.5,258.5,247.4,255.7,253.9,5.8
118.75,254.5,252.6,257.9,255.0,2.7
119.0,252.8,256.7,257.2,255.6,2.4
119.25,259.1,251.4,254.8,255.1,3.9
119.5,254.4,252.4,257.7,254.8,2.7
119.75,249.4,252.3,259.0,253.5,4.9
120.0,257.3,250.9,256.4,254.9,3.4
120.25,253.6,249.2,257.7,253.5,4.2
120.5,249.6,250.9,255.6,252.0,3.2
120.75,253.9,250.5,253.9,252.8,2.0
121.0,245.9,249.8,253.6,249.8,3.9
121.25,248.9,249.6,253.4,250.7,2.4
121.5,249.0,248.4,254.9,250.7,3.6
121.75,250.8,246.6,258.9,252.1,6.2
122.0,249.2,242.7,256.2,249.4,6.8
122.25,247.1,241.6,251.7,246.8,5.0
122.5,248.1,245.0,250.2,247.7,2.6
122.75,243.0,244.1,256.5,247.8,7.5
123.0,246.9,244.9,250.3,247.4,2.8
123.25,242.5,240.8,247.5,243.6,3.5
123.5,242.1,244.9,256.7,247.9,7.8
123.75,244.0,243.4,255.7,247.7,6.9
124.0,246.4,244.0,251.5,247.3,3.8
124.25,240.4,238.8,252.4,243.9,7.4
124.5,240.0,241.0,253.0,244.6,7.2
124.75,244.9,236.2,251.3,244.1,7.6
125.0,240.0,234.4,259.2,244.5,13.0
125.25,241.5,236.8,250.7,243.0,7.1
125.5,242.0,238.4,249.5,243.3,5.6
125.75,238.6,240.4,252.6,243.9,7.6
126.0,242.4,237.6,249.7,243.2,6.1
126.25,241.3,233.8,248.5,241.2,7.3
126.5,238.2,234.3,251.7,241.4,9.2
126.75,236.9,233.6,249.6,240.1,8.4
127.0,237.7,232.7,251.2,240.6,9.6
127.25,233.9,234.4,247.3,238.5,7.6
127.5,243.1,234.3,249.4,242.3,7.6
127.75,237.6,237.8,247.2,240.9,5.5
128.0,235.0,234.7,245.7,238.5,6.3
128.25,235.0,230.2,246.0,237.1,8.1
128.5,234.3,232.1,251.0,239.1,10.3
128.75,238.0,233.7,253.0,241.6,10.2
129.0,233.0,233.0,243.8,236.6,6.2
129.25,231.5,230.1,248.6,236.7,10.3
129.5,227.4,227.7,247.4,234.2,11.5
129.75,229.4,231.3,245.0,235.2,8.5
130.0,231.6,225.0,245.5,234.0,10.5
130.25,226.3,230.7,250.8,235.9,13.1
130.5,229.9,228.5,247.2,235.2,10.4
130.75,231.0,227.3,245.6,234.6,9.7
131.0,230.1,230.5,244.7,235.1,8.3
131.25,236.0,226.9,249.2,237.4,11.2
131.5,228.4,233.7,243.3,235.1,7.6
131.75,228.2,226.2,242.4,232.3,8.9
132.0,228.0,226.7,248.6,234.4,12.3
132.25,230.7,227.1,246.8,234.9,10.5
132.5,230.4,226.5,248.9,235.3,11.9
132.75,224.0,228.1,248.7,233.6,13.2
133.0,229.0,222.6,240.8,230.8,9.2
133.25,225.3,225.6,244.6,231.8,11.1
133.5,229.8,230.0,243.5,234.5,7.8
133.75,229.0,223.2,244.6,232.2,11.1
134.0,228.3,224.5,244.4,232.4,10.5
134.25,225.8,225.9,244.5,232.0,10.8
134.5,229.0,224.4,246.8,233.4,11.8
134.75,229.6,226.4,247.9,234.6,11.6
135.0,226.0,221.8,245.0,230.9,12.4
135.25,227.4,224.2,242.7,231.4,9.9
135.5,224.9,218.3,239.2,227.4,10.7
135.75,228.1,219.4,242.1,229.9,11.5
136.0,227.1,223.5,244.2,231.6,11.1
136.25,225.3,219.8,243.1,229.4,12.2
136.5,227.5,219.7,239.2,228.8,9.8
136.75,225.7,218.0,240.1,227.9,11.2
137.0,223.0,218.9,237.2,226.3,9.6
137.25,221.3,218.4,239.8,226.5,11.6
137.5,222.6,217.6,234.9,225.0,8.9
137.75,223.7,217.9,241.0,227.6,12.0
138.0,222.5,222.3,236.9,227.2,8.3
138.25,220.5,216.3,241.1,226.0,13.3
138.5,222.5,219.5,238.6,226.9,10.3
138.75,222.7,216.5,238.1,225.8,11.2
139.0,220.6,215.5,236.7,224.2,11.1
139.25,215.0,215.2,237.1,222.4,12.7
139.5,219.8,215.4,236.4,223.9,11.1
139.75,222.2,215.1,233.1,223.5,9.0
140.0,219.5,208.8,235.1,221.1,13.2
140.25,221.0,216.0,236.9,224.6,10.9
140.5,215.1,216.9,237.5,223.2,12.5
140.75,217.2,212.8,236.7,222.2,12.7
141.0,212.2,212.7,236.5,220.5,13.9
141.25,215.3,213.1,236.2,221.5,12.8
141.5,218.1,209.7,237.2,221.7,14.1
141.75,213.8,211.0,234.5,219.7,12.8
142.0,212.3,212.3,231.0,218.5,10.8
142.25,213.8,211.2,233.4,219.5,12.2
142.5,210.7,209.2,235.5,218.4,14.8
142.75,211.7,210.3,235.4,219.1,14.1
143.0,211.5,209.0,234.1,218.2,13.8
143.25,213.6,209.0,231.7,218.1,12.0
143.5,211.2,212.4,233.9,219.1,12.8
143.75,207.8,208.1,234.4,216.8,15.3
144.0,208.4,210.8,236.8,218.7,15.8
144.25,208.0,209.3,233.6,217.0,14.4
144.5,207.0,207.5,231.9,215.5,14.2
144.75,206.4,209.2,235.6,217.1,16.1
145.0,204.5,206.5,237.9,216.3,18.7
145.25,209.5,209.4,234.2,217.7,14.3
145.5,207.9,208.4,232.5,216.3,14.0
145.75,208.8,209.3,231.3,216.5,12.9
146.0,206.3,210.2,231.0,215.8,13.3
146.25,206.8,204.4,232.0,214.4,15.3
146.5,205.5,206.5,230.9,214.3,14.4
146.75,205.5,208.3,230.4,214.8,13.6
147.0,203.7,205.0,228.5,212.4,14.0
147.25,205.5,205.5,226.3,212.4,12.0
147.5,207.3,205.4,230.4,214.3,13.9
147.75,204.0,207.0,228.1,213.0,13.1
148.0,205.1,207.7,231.0,214.6,14.3
148.25,202.2,203.5,232.8,212.8,17.3
148.5,202.8,205.0,230.5,212.8,15.4
148.75,199.8,204.6,225.7,210.0,13.8
149.0,202.5,202.1,228.6,211.1,15.2
149.25,201.9,204.6,228.8,211.8,14.8
149.5,200.2,203.2,229.5,211.0,16.1
149.75,198.4,202.5,224.6,208.5,14.1
150.0,198.1,203.9,227.2,209.7,15.4
150.25,199.9,207.2,226.6,211.2,13.8
150.5,199.6,202.2,227.9,209.9,15.6
150.75,199.5,201.2,223.9,208.2,13.6
151.0,195.8,201.1,231.4,209.4,19.2
151.25,195.7,199.8,227.3,207.6,17.2
151.5,196.4,205.3,228.7,210.2,16.7
151.75,196.9,201.0,226.0,208.0,15.7
152.0,196.5,203.1,222.9,207.5,13.8
152.25,194.2,204.5,225.1,207.9,15.7
152.5,190.7,204.3,229.2,208.1,19.6
152.75,194.1,201.1,221.0,205.4,14.0
153.0,191.6,201.5,224.3,205.8,16.7
153.25,192.5,202.1,224.3,206.3,16.3
153.5,191.7,199.3,227.5,206.2,18.8
153.75,189.8,204.8,218.7,204.4,14.5
154.0,187.7,202.7,221.5,204.0,16.9
154.25,192.5,201.3,223.9,205.9,16.2
154.5,187.8,203.3,221.9,204.3,17.1
154.75,183.8,200.1,220.2,201.4,18.2
155.0,185.8,193.5,219.3,199.5,17.6
155.25,184.1,200.5,215.1,199.9,15.5
155.5,186.3,198.4,220.2,201.6,17.2
155.75,182.9,197.9,219.0,199.9,18.1
156.0,187.2,197.6,217.3,200.7,15.3
156.25,182.5,196.8,221.0,200.1,19.5
156.5,179.8,199.6,221.3,200.2,20.8
156.75,180.5,198.0,218.7,199.1,19.1
157.0,181.3,194.3,219.8,198.5,19.6
157.25,179.9,195.5,217.4,197.6,18.8
157.5,178.3,198.6,219.3,198.7,20.5
157.75,177.8,195.9,218.5,197.4,20.4
158.0,178.1,196.9,217.5,197.5,19.7
158.25,177.4,198.2,218.3,198.0,20.4
158.5,174.1,198.2,216.8,196.3,21.4
158.75,171.4,196.6,219.2,195.8,23.9
159.0,173.9,195.2,218.6,195.9,22.3
159.25,172.5,196.1,220.2,196.3,23.9
159.5,170.2,196.4,215.7,194.1,22.8
159.75,167.4,194.7,216.3,192.8,24.5
160.0,170.5,197.4,214.2,194.0,22.1
160.25,167.8,196.2,216.7,193.5,24.5
160.5,166.1,195.3,219.6,193.7,26.8
160.75,164.5,193.1,218.0,191.9,26.8
161.0,164.4,196.5,215.4,192.1,25.8
161.25,162.8,197.7,215.3,191.9,26.7
161.5,161.9,194.7,215.8,190.8,27.2
161.75,163.5,192.6,214.3,190.1,25.4
162.0,162.8,192.7,212.4,189.3,25.0
162.25,159.5,192.7,212.0,188.1,26.6
162.5,159.7,191.5,214.0,188.4,27.2
162.75,156.6,191.4,208.5,185.5,26.5
163.0,155.6,196.3,209.0,187.0,27.9
163.25,153.7,197.6,209.8,187.0,29.5
163.5,153.7,191.9,210.1,185.2,28.8
163.75,152.9,194.9,209.1,185.6,29.2
164.0,151.3,192.3,209.8,184.5,30.0
164.25,149.7,192.4,205.9,182.7,29.3
164.5,150.9,192.7,206.8,183.5,29.0
164.75,152.2,194.0,205.8,184.0,28.1
165.0,151.3,191.9,206.5,183.2,28.6
165.25,149.8,190.3,202.9,181.0,27.7
165.5,148.9,191.1,207.3,182.4,30.2
165.75,147.3,195.9,204.4,182.5,30.8
166.0,146.3,194.7,204.8,181.9,31.3
166.25,147.4,191.2,204.9,181.2,30.1
166.5,146.6,191.8,202.2,180.2,29.6
166.75,143.7,188.3,203.8,178.6,31.2
167.0,143.1,193.3,201.7,179.4,31.7
167.25,145.1,191.8,197.4,178.1,28.7
167.5,141.8,191.3,199.4,177.5,31.2
167.75,143.8,191.0,197.5,177.4,29.3
168.0,141.7,192.3,199.3,177.8,31.4
168.25,139.4,187.5,198.1,175.0,31.3
168.5,138.4,186.5,198.9,174.6,32.0
168.75,138.3,189.4,193.7,173.8,30.9
169.0,139.9,188.8,196.0,174.9,30.6
169.25,137.1,187.4,196.8,173.8,32.1
169.5,137.1,186.7,193.0,172.2,30.6
169.75,136.7,185.3,192.0,171.3,30.2
170.0,132.9,185.6,190.5,169.7,32.0
170.25,133.4,186.8,190.9,170.4,32.1
170.5,133.4,183.4,189.4,168.7,30.7
170.75,133.0,187.1,190.1,170.1,32.1
171.0,133.7,185.3,194.1,171.0,32.7
171.25,133.0,187.7,192.2,171.0,33.0
171.5,133.1,184.0,190.5,169.2,31.4
171.75,132.1,182.2,184.7,166.3,29.7
172.0,131.0,184.2,187.0,167.4,31.5
172.25,136.1,181.5,188.3,168.6,28.3
172.5,130.8,186.1,186.1,167.7,31.9
172.75,131.1,182.8,188.0,167.3,31.5
173.0,131.7,179.9,186.6,166.1,30.0
173.25,130.3,185.6,185.6,167.2,31.9
173.5,129.9,181.7,187.0,166.2,31.6
173.75,130.1,183.5,185.6,166.4,31.5
174.0,128.3,182.9,185.3,165.5,32.2
174.25,129.6,181.3,184.6,165.2,30.9
174.5,129.6,180.6,181.5,163.9,29.7
174.75,129.6,180.3,184.6,164.8,30.6
175.0,127.3,180.9,184.7,164.3,32.1
175.25,126.4,181.0,181.0,162.8,31.5
175.5,125.6,179.2,181.6,162.1,31.6
175.75,127.7,178.0,180.9,162.2,29.9
176.0,126.8,179.8,183.2,163.3,31.6
176.25,123.6,176.8,177.4,159.3,30.9
176.5,124.0,180.5,178.4,161.0,32.0
176.75,123.9,177.5,179.6,160.4,31.6
177.0,123.8,177.4,179.9,160.4,31.7
177.25,122.2,176.5,181.1,159.9,32.7
177.5,122.6,176.0,180.2,159.6,32.2
177.75,121.4,175.9,178.0,158.4,32.0
178.0,121.1,177.3,178.5,158.9,32.8
178.25,120.0,176.8,178.1,158.3,33.2
178.5,119.6,174.4,177.0,157.0,32.4
178.75,118.1,175.7,179.8,157.9,34.5
179.0,118.4,175.9,177.2,157.2,33.6
179.25,116.9,175.4,178.4,156.9,34.7
179.5,116.0,174.6,177.6,156.1,34.7
179.75,117.0,174.2,177.3,156.1,34.0
180.0,113.8,178.6,176.7,156.4,36.9
180.25,115.5,176.4,180.3,157.4,36.3
180.5,114.3,175.1,177.1,155.5,35.7
180.75,113.6,173.8,176.8,154.7,35.7
181.0,113.0,171.9,179.6,154.8,36.4
181.25,113.0,174.1,174.7,154.0,35.4
181.5,112.7,174.5,175.1,154.1,35.9
181.75,113.8,172.4,173.2,153.1,34.1
182.0,111.0,173.7,175.3,153.3,36.7
182.25,110.5,171.6,174.3,152.1,36.1
182.5,110.7,172.7,173.3,152.2,35.9
182.75,109.0,174.8,172.8,152.2,37.4
183.0,108.3,174.7,172.7,151.9,37.8
183.25,108.0,172.3,172.4,150.9,37.2
183.5,107.0,171.2,173.0,150.4,37.6
183.75,106.7,173.7,171.3,150.6,38.0
184.0,107.6,173.4,171.6,150.9,37.5
184.25,105.3,174.6,171.1,150.3,39.0
184.5,104.5,170.4,169.3,148.1,37.7
184.75,103.0,172.0,170.5,148.5,39.4
185.0,103.2,173.6,170.7,149.2,39.8
185.25,103.0,172.2,168.0,147.8,38.8
185.5,101.6,171.9,169.5,147.7,39.9
185.75,100.5,170.9,168.6,146.7,40.0
186.0,102.1,170.4,165.3,146.0,38.1
186.25,101.9,172.3,167.4,147.2,39.3
186.5,99.4,172.0,168.2,146.5,40.9
186.75,99.8,171.5,166.5,145.9,40.0
187.0,99.0,170.6,164.8,144.8,39.8
187.25,99.2,168.8,167.0,145.0,39.7
187.5,97.2,175.0,167.3,146.5,42.9
187.75,96.5,169.6,163.5,143.2,40.5
188.0,96.7,168.2,166.3,143.7,40.8
188.25,93.9,171.8,165.2,143.6,43.2
188.5,95.0,173.4,164.2,144.2,42.9
188.75,93.5,168.8,160.5,140.9,41.3
189.0,92.0,170.6,163.4,142.0,43.5
189.25,90.2,172.4,162.1,141.6,44.8
189.5,89.4,169.9,161.0,140.1,44.1
189.75,87.8,171.6,157.9,139.1,44.9
190.0,86.8,169.5,161.3,139.2,45.6
190.25,83.3,169.3,157.9,136.8,46.7
190.5,83.2,171.2,157.4,137.3,47.3
190.75,81.9,170.1,160.1,137.4,48.3
191.0,80.6,167.7,160.5,136.3,48.3
191.25,79.0,169.0,157.0,135.0,48.8
191.5,77.9,169.7,155.9,134.5,49.5
191.75,77.8,169.1,156.1,134.3,49.4
192.0,75.0,168.6,154.8,132.8,50.5
192.25,74.1,167.5,155.1,132.2,50.7
192.5,72.9,168.9,153.0,131.6,51.5
192.75,72.6,167.5,154.8,131.6,51.5
193.0,72.1,168.6,153.9,131.6,52.0
193.25,71.2,165.9,150.8,129.3,50.9
193.5,69.7,167.8,150.8,129.4,52.4
193.75,67.8,166.2,151.3,128.5,53.0
194.0,67.5,171.0,149.3,129.3,54.6
194.25,65.5,166.5,150.4,127.5,54.3
194.5,64.6,166.2,151.0,127.3,54.8
194.75,63.9,168.2,151.9,128.0,56.1
195.0,63.9,166.9,151.0,127.3,55.5
195.25,62.2,165.1,150.6,125.9,55.7
195.5,59.9,165.9,149.8,125.2,57.1
195.75,59.4,164.9,146.7,123.7,56.4
196.0,58.0,164.3,146.6,123.0,57.0
196.25,57.5,165.8,148.7,124.0,58.3
196.5,55.6,166.3,147.7,123.2,59.3
196.75,54.3,165.7,148.6,122.9,60.0
197.0,52.7,163.5,144.5,120.2,59.3
197.25,50.2,164.0,148.2,120.8,61.6
197.5,48.2,164.1,146.3,119.6,62.4
197.75,45.8,163.2,141.4,116.8,62.4
198.0,44.6,164.6,146.0,118.4,64.6
198.25,43.4,163.8,147.2,118.1,65.3
198.5,42.4,163.8,146.4,117.5,65.7
198.75,41.2,164.4,144.7,116.8,66.2
199.0,39.6,163.9,143.2,115.6,66.6
199.25,37.9,165.8,142.9,115.5,68.2
199.5,37.6,164.1,141.5,114.4,67.5
199.75,36.5,161.3,144.8,114.2,67.8
200.0,34.5,158.9,143.6,112.3,67.8