File: 01_Data/Nylon_Carpet_High_Pile/Cone/Nylon_Carpet_High_Pile_HRRPUA_25.csv
Time after Ignition,Nylon_Carpet_High_Pile_R1,Nylon_Carpet_High_Pile_R2,Nylon_Carpet_High_Pile_R3,Mean,Std. Dev.
0.0,48.8,134.4,113.6,98.9,44.7
0.25,48.9,136.2,113.9,99.6,45.3
0.5,49.1,137.7,114.2,100.3,45.9
0.75,49.1,137.8,113.4,100.1,45.8
1.0,50.8,137.5,115.0,101.1,45.0
1.25,51.0,138.5,115.5,101.7,45.3
1.5,51.1,139.5,115.7,102.1,45.7
1.75,51.9,139.0,118.3,103.0,45.5
2.0,53.5,139.1,117.5,103.4,44.5
2.25,53.3,141.9,120.3,105.2,46.2
2.5,54.2,142.3,118.9,105.1,45.6
2.75,55.3,144.5,121.3,107.0,46.3
3.0,55.9,143.5,120.3,106.5,45.4
3.25,55.7,143.0,121.8,106.9,45.5
3.5,57.7,144.8,120.0,107.5,44.9
3.75,58.4,143.5,120.5,107.5,44.0
4.0,59.0,146.3,120.7,108.7,44.9
4.25,58.5,146.0,122.1,108.9,45.2
4.5,59.7,149.8,123.7,111.0,46.4
4.75,60.9,148.7,125.0,111.5,45.4
5.0,61.1,151.2,124.0,112.1,46.2
5.25,61.5,150.6,124.6,112.2,45.8
5.5,61.6,153.0,127.2,113.9,47.1
5.75,62.7,151.1,125.4,113.1,45.5
6.0,63.4,154.3,126.6,114.8,46.6
6.25,63.0,153.6,128.4,115.0,46.8
6.5,63.7,154.5,128.3,115.5,46.7
6.75,64.9,152.3,130.7,115.9,45.5
7.0,64.5,153.7,131.6,116.6,46.4
7.25,65.3,155.6,132.6,117.8,46.9
7.5,65.4,156.7,133.5,118.6,47.5
7.75,66.0,157.0,133.3,118.8,47.2
8.0,66.8,160.4,135.4,120.9,48.5
8.25,67.0,157.8,136.1,120.3,47.4
8.5,66.5,158.9,137.9,121.1,48.4
8.75,66.8,162.1,138.2,122.4,49.6
9.0,67.5,163.2,137.1,122.6,49.5
9.25,68.7,158.5,138.2,121.8,47.1
9.5,68.7,164.1,141.0,124.6,49.8
9.75,68.7,162.9,141.4,124.4,49.4
10.0,68.3,162.6,141.6,124.2,49.5
10.25,70.7,163.0,144.6,126.1,48.9
10.5,70.2,164.1,144.6,126.3,49.6
10.75,70.8,165.7,144.7,127.1,49.8
11.0,71.6,166.0,144.2,127.3,49.4
11.25,71.4,168.6,145.7,128.6,50.8
11.5,71.6,168.6,147.8,129.4,51.1
11.75,73.5,168.5,145.3,129.1,49.5
12.0,71.7,166.5,146.6,128.3,50.0
12.25,73.1,170.3,147.0,130.1,50.7
12.5,72.2,167.4,146.9,128.8,50.1
12.75,74.3,168.3,151.1,131.2,50.1
13.0,73.8,174.3,150.5,132.9,52.5
13.25,73.4,172.3,150.5,132.1,52.0
13.5,74.3,174.2,151.9,133.4,52.4
13.75,74.8,171.4,152.6,132.9,51.2
14.0,74.2,172.8,153.5,133.5,52.3
14.25,76.5,174.8,150.8,134.0,51.2
14.5,75.4,172.1,153.1,133.5,51.3
14.75,76.6,176.9,154.0,135.8,52.6
15.0,76.8,176.6,156.5,136.6,52.8
15.25,76.2,177.1,156.1,136.4,53.2
15.5,76.4,175.2,157.5,136.3,52.7
15.75,76.8,180.7,158.8,138.8,54.7
16.0,79.3,177.4,159.0,138.6,52.1
16.25,77.9,175.4,162.0,138.4,52.9
16.5,79.2,180.7,163.4,141.1,54.3
16.75,79.4,186.6,166.7,144.2,57.0
17.0,78.6,184.2,166.7,143.2,56.6
17.25,78.5,181.6,166.2,142.1,55.6
17.5,79.0,182.9,169.6,143.8,56.5
17.75,78.6,184.6,170.2,144.5,57.5
18.0,78.9,184.6,170.9,144.8,57.5
18.25,79.9,186.3,169.9,145.4,57.3
18.5,80.7,191.2,173.5,148.5,59.3
18.75,80.8,192.0,174.7,149.2,59.9
19.0,81.5,191.6,173.7,149.0,59.1
19.25,81.6,193.6,175.0,150.1,60.0
19.5,81.8,197.3,177.3,152.1,61.7
19.75,82.1,196.8,174.6,151.2,60.9
20.0,83.3,202.9,175.3,153.8,62.6
20.25,84.7,201.2,176.1,154.0,61.3
20.5,84.7,205.3,182.3,157.4,64.0
20.75,85.3,206.6,178.7,156.8,63.5
21.0,86.3,206.4,179.0,157.2,62.9
21.25,84.6,213.9,181.2,159.9,67.2
21.5,85.6,207.6,182.1,158.4,64.3
21.75,85.7,213.9,180.7,160.1,66.6
22.0,86.3,216.3,185.4,162.7,67.9
22.25,87.3,219.4,183.0,163.3,68.2
22.5,87.4,220.0,185.6,164.4,68.8
22.75,86.9,217.1,187.8,163.9,68.3
23.0,86.9,226.5,185.2,166.2,71.7
23.25,87.5,224.1,186.0,165.9,70.5
23.5,87.0,222.4,188.7,166.0,70.5
23.75,87.8,231.3,186.7,168.6,73.4
24.0,88.8,232.5,188.4,169.9,73.6
24.25,87.9,232.4,189.6,170.0,74.2
24.5,88.2,234.3,188.3,170.3,74.7
24.75,89.7,241.6,190.3,173.9,77.3
25.0,89.9,238.0,188.4,172.1,75.4
25.25,89.8,246.2,188.9,175.0,79.1
25.5,89.8,250.5,191.6,177.3,81.3
25.75,89.1,249.7,193.9,177.5,81.5
26.0,90.4,252.0,192.0,178.1,81.7
26.25,89.4,255.7,195.6,180.2,84.2
26.5,89.2,258.5,194.8,180.8,85.5
26.75,90.2,267.2,194.7,184.0,89.0
27.0,90.1,269.4,201.7,187.1,90.5
27.25,91.6,267.4,198.1,185.7,88.5
27.5,90.3,278.2,200.3,189.6,94.4
27.75,91.0,272.3,201.8,188.4,91.4
28.0,90.6,281.9,199.2,190.6,95.9
28.25,90.3,281.3,197.6,189.7,95.8
28.5,90.3,282.9,201.7,191.6,96.7
28.75,90.0,284.8,201.5,192.1,97.7
29.0,89.1,283.1,201.5,191.3,97.4
29.25,90.5,290.8,203.2,194.8,100.4
29.5,90.8,291.9,204.5,195.7,100.9
29.75,89.1,290.2,205.0,194.8,100.9
30.0,89.8,300.5,208.0,199.4,105.6
30.25,91.9,295.5,210.7,199.4,102.3
30.5,91.9,299.4,207.7,199.7,104.0
30.75,91.8,305.1,205.7,200.9,106.8
31.0,91.7,303.9,207.2,200.9,106.2
31.25,92.5,305.4,211.7,203.2,106.7
31.5,93.6,306.0,212.4,204.0,106.5
31.75,90.7,311.2,209.6,203.8,110.4
32.0,93.5,309.2,213.5,205.4,108.1
32.25,94.5,305.7,213.1,204.5,105.8
32.5,95.6,309.8,214.4,206.6,107.3
32.75,95.3,308.9,217.1,207.1,107.2
33.0,95.1,312.9,214.3,207.4,109.1
33.25,96.3,307.6,218.3,207.4,106.1
33.5,95.9,307.6,222.0,208.5,106.5
33.75,96.0,316.5,221.6,211.4,110.6
34.0,96.3,316.3,223.0,211.8,110.4
34.25,96.7,314.7,219.5,210.3,109.3
34.5,98.3,314.2,228.1,213.6,108.7
34.75,98.4,317.6,222.1,212.7,109.9
35.0,98.3,328.4,228.4,218.3,115.4
35.25,98.6,320.7,228.9,216.1,111.6
35.5,100.4,322.6,232.8,218.6,111.8
35.75,99.2,324.5,229.0,217.6,113.1
36.0,99.0,323.6,228.3,217.0,112.7
36.25,101.3,327.1,237.3,221.9,113.7
36.5,102.0,326.4,236.3,221.6,112.9
36.75,102.6,327.7,235.5,221.9,113.2
37.0,100.9,330.0,236.5,222.5,115.2
37.25,102.7,336.2,235.9,224.9,117.1
37.5,102.2,333.6,236.7,224.2,116.2
37.75,104.0,330.5,241.5,225.3,114.1
38.0,103.6,329.5,245.8,226.3,114.2
38.25,102.3,338.7,245.2,228.7,119.0
38.5,104.2,336.9,249.5,230.2,117.5
38.75,105.2,336.7,244.0,228.6,116.5
39.0,105.6,328.1,247.5,227.1,112.7
39.25,104.2,325.0,253.3,227.5,112.7
39.5,105.5,329.3,254.5,229.8,113.9
39.75,106.1,342.9,251.8,233.6,119.5
40.0,106.5,338.1,252.5,232.3,117.1
40.25,108.6,336.4,256.0,233.6,115.6
40.5,109.0,334.6,256.3,233.3,114.5
40.75,108.6,337.7,257.0,234.4,116.2
41.0,109.6,339.7,256.3,235.2,116.5
41.25,109.2,334.3,256.8,233.4,114.3
41.5,109.9,331.8,260.2,234.0,113.3
41.75,111.0,340.9,261.8,237.9,116.8
42.0,111.3,340.7,259.9,237.3,116.3
42.25,112.3,336.6,262.5,237.1,114.3
42.5,115.5,337.5,262.2,238.4,112.9
42.75,114.3,335.2,262.5,237.3,112.6
43.0,114.9,328.9,262.3,235.4,109.5
43.25,117.6,330.9,259.6,236.0,108.6
43.5,118.1,341.9,263.1,241.0,113.5
43.75,118.9,343.9,264.8,242.6,114.1
44.0,118.6,337.7,263.7,240.0,111.4
44.25,120.5,344.2,263.6,242.7,113.3
44.5,121.7,341.6,257.1,240.1,110.9
44.75,123.1,344.3,258.8,242.0,111.5
45.0,122.8,344.6,261.7,243.0,112.1
45.25,124.4,344.7,264.3,244.5,111.5
45.5,124.1,354.5,269.1,249.2,116.5
45.75,125.2,352.3,267.0,248.2,114.7
46.0,126.6,343.2,264.2,244.7,109.6
46.25,126.0,354.0,262.0,247.3,114.7
46.5,126.0,350.0,264.4,246.8,113.0
46.75,128.2,356.3,266.1,250.2,114.9
47.0,128.0,346.6,262.4,245.7,110.2
47.25,128.8,348.7,268.7,248.7,111.3
47.5,131.2,349.7,263.2,248.0,110.1
47.75,132.0,348.9,267.3,249.4,109.6
48.0,131.7,352.4,269.2,251.1,111.5
48.25,130.6,351.1,263.8,248.5,111.0
48.5,131.4,351.7,264.9,249.3,111.0
48.75,133.3,350.6,266.0,250.0,109.6
49.0,132.4,356.5,266.8,251.9,112.8
49.25,132.7,350.1,263.0,248.6,109.4
49.5,130.9,360.4,259.1,250.1,115.0
49.75,132.9,360.0,268.2,253.7,114.2
50.0,133.3,357.5,269.3,253.4,113.0
50.25,137.2,354.9,269.9,254.0,109.7
50.5,132.6,356.9,269.1,252.9,113.0
50.75,133.8,350.9,272.1,252.3,109.9
51.0,135.9,353.5,268.2,252.5,109.6
51.25,135.7,360.5,269.6,255.3,113.1
51.5,138.3,355.4,269.7,254.5,109.4
51.75,136.1,350.0,277.2,254.4,108.7
52.0,134.8,354.5,274.6,254.6,111.2
52.25,139.2,348.6,276.9,254.9,106.4
52.5,136.9,359.2,270.5,255.6,111.9
52.75,140.0,350.5,280.9,257.1,107.2
53.0,140.6,350.2,274.9,255.2,106.2
53.25,137.7,361.6,276.5,258.6,113.0
53.5,138.1,359.1,279.0,258.7,111.9
53.75,138.8,355.5,279.6,258.0,110.0
54.0,140.3,356.5,287.5,261.4,110.4
54.25,140.7,353.4,278.3,257.5,107.9
54.5,142.6,360.2,281.1,261.3,110.2
54.75,142.6,361.6,283.8,262.7,111.0
55.0,144.2,357.3,279.7,260.4,107.9
55.25,142.5,360.3,282.3,261.7,110.4
55.5,143.2,371.2,284.3,266.2,115.1
55.75,143.7,350.4,286.7,260.3,105.9
56.0,144.6,358.6,286.3,263.2,108.9
56.25,146.2,362.2,287.4,265.3,109.7
56.5,145.3,364.0,284.8,264.7,110.8
56.75,143.7,364.7,288.4,265.6,112.3
57.0,146.5,360.7,284.1,263.8,108.5
57.25,145.1,360.3,289.0,264.8,109.6
57.5,146.7,363.6,285.1,265.1,109.8
57.75,146.6,367.3,293.4,269.1,112.3
58.0,146.3,364.5,293.4,268.1,111.3
58.25,146.7,359.6,290.2,265.5,108.6
58.5,145.6,356.5,290.8,264.3,107.9
58.75,147.3,362.1,291.5,267.0,109.5
59.0,147.5,360.9,293.4,267.3,109.0
59.25,146.4,362.0,298.0,268.8,110.7
59.5,147.3,362.6,297.3,269.1,110.4
59.75,148.1,367.4,300.4,271.9,112.4
60.0,147.9,368.3,292.1,269.4,111.9
60.25,148.0,367.6,293.1,269.6,111.7
60.5,148.6,368.3,299.7,272.2,112.4
60.75,148.6,372.1,297.6,272.8,113.8
61.0,148.5,373.2,298.7,273.5,114.4
61.25,150.4,377.1,300.2,275.9,115.3
61.5,149.1,381.9,302.0,277.6,118.3
61.75,149.1,374.5,301.4,275.0,115.0
62.0,148.7,378.0,306.7,277.8,117.4
62.25,150.3,382.5,302.5,278.5,118.0
62.5,150.7,372.7,310.8,278.1,114.6
62.75,148.2,378.7,304.4,277.1,117.6
63.0,150.8,373.4,304.9,276.4,114.0
63.25,153.1,373.6,306.7,277.8,113.1
63.5,151.3,375.2,303.7,276.7,114.4
63.75,153.4,381.9,302.0,279.1,115.9
64.0,152.5,382.7,306.4,280.5,117.3
64.25,149.8,366.5,309.8,275.4,112.4
64.5,151.5,375.6,308.3,278.5,115.0
64.75,153.4,380.4,310.1,281.3,116.2
65.0,153.6,381.2,314.0,282.9,116.9
65.25,156.4,377.9,310.8,281.7,113.5
65.5,155.4,374.2,310.8,280.1,112.5
65.75,154.4,383.7,307.7,281.9,116.8
66.0,155.4,380.8,318.1,284.8,116.3
66.25,156.5,392.5,308.6,285.9,119.6
66.5,157.1,386.4,311.7,285.0,117.0
66.75,157.5,389.3,312.6,286.5,118.1
67.0,156.5,390.5,306.0,284.3,118.5
67.25,151.9,390.2,308.1,283.4,121.1
67.5,156.1,401.9,310.8,289.6,124.2
67.75,159.2,400.1,310.5,289.9,121.8
68.0,158.5,394.1,310.3,287.6,119.4
68.25,159.9,401.7,302.9,288.2,121.6
68.5,160.6,383.7,310.8,285.0,113.7
68.75,159.2,388.5,305.4,284.4,116.1
69.0,160.0,391.9,305.6,285.8,117.2
69.25,160.9,401.7,305.9,289.5,121.2
69.5,161.7,394.3,310.5,288.8,117.8
69.75,162.9,382.5,305.4,283.6,111.4
70.0,164.5,393.9,308.2,288.8,115.9
70.25,162.6,397.4,307.1,289.1,118.4
70.5,163.4,403.5,307.4,291.4,120.8
70.75,165.0,405.5,304.9,291.8,120.8
71.0,166.7,398.5,305.4,290.2,116.6
71.25,166.7,400.3,306.1,291.0,117.5
71.5,165.2,400.2,302.6,289.3,118.0
71.75,167.7,393.0,308.2,289.6,113.8
72.0,167.5,400.9,307.8,292.0,117.5
72.25,169.1,402.3,307.9,293.1,117.3
72.5,166.7,397.2,311.4,291.8,116.5
72.75,171.1,394.8,307.9,291.3,112.8
73.0,168.0,394.5,304.8,289.1,114.1
73.25,170.5,416.8,308.4,298.6,123.5
73.5,169.2,415.4,310.4,298.3,123.5
73.75,171.9,406.3,304.4,294.2,117.5
74.0,168.1,406.0,306.9,293.6,119.5
74.25,168.9,400.9,307.1,292.3,116.7
74.5,172.6,406.6,306.2,295.2,117.4
74.75,169.8,394.6,311.9,292.1,113.7
75.0,172.1,410.3,308.0,296.8,119.5
75.25,171.0,419.4,309.8,300.1,124.4
75.5,172.2,407.0,312.3,297.2,118.2
75.75,171.4,410.7,309.7,297.3,120.2
76.0,174.6,403.3,311.9,296.6,115.1
76.25,173.0,417.1,312.3,300.8,122.4
76.5,172.9,409.6,310.7,297.7,118.9
76.75,173.6,406.8,308.6,296.4,117.1
77.0,173.8,415.5,306.3,298.5,121.0
77.25,175.4,403.2,306.3,295.0,114.3
77.5,176.2,408.0,303.3,295.9,116.1
77.75,175.4,407.0,309.3,297.2,116.3
78.0,177.7,407.4,314.2,299.8,115.5
78.25,173.5,416.3,311.4,300.4,121.8
78.5,175.5,407.6,308.9,297.3,116.5
78.75,179.1,411.9,313.6,301.6,116.9
79.0,177.9,411.4,319.3,302.9,117.6
79.25,178.9,419.9,311.5,303.5,120.7
79.5,178.6,410.1,307.4,298.7,116.0
79.75,179.3,410.4,312.6,300.8,116.0
80.0,180.8,409.2,313.0,301.0,114.7
80.25,179.1,413.6,311.5,301.4,117.6
80.5,180.0,412.1,320.5,304.2,116.9
80.75,180.3,417.3,312.3,303.3,118.8
81.0,180.5,417.4,315.9,304.6,118.8
81.25,179.0,417.2,314.2,303.5,119.5
81.5,180.0,407.3,317.2,301.5,114.4
81.75,182.9,415.1,319.2,305.7,116.7
82.0,183.7,413.5,314.5,303.9,115.3
82.25,185.5,406.6,316.6,302.9,111.2
82.5,183.6,414.8,316.0,304.8,116.0
82.75,184.6,403.0,314.9,300.8,109.9
83.0,183.6,400.6,312.4,298.8,109.1
83.25,183.1,401.8,317.5,300.8,110.3
83.5,181.4,399.6,317.9,299.6,110.2
83.75,182.7,404.8,311.4,299.6,111.5
84.0,182.6,406.2,315.8,301.5,112.5
84.25,184.4,406.3,313.5,301.4,111.5
84.5,183.9,405.2,310.9,300.0,111.1
84.75,183.7,403.6,315.8,301.0,110.7
85.0,189.8,406.7,316.4,304.3,109.0
85.25,187.0,406.5,310.9,301.4,110.1
85.5,186.2,417.0,312.7,305.3,115.6
85.75,188.5,415.7,317.2,307.2,113.9
86.0,187.6,411.4,320.8,306.6,112.5
86.25,186.4,405.6,318.8,303.6,110.4
86.5,189.0,415.5,309.3,304.6,113.4
86.75,188.1,403.4,310.9,300.8,108.0
87.0,189.5,410.5,313.4,304.5,110.8
87.25,186.4,401.3,312.2,300.0,107.9
87.5,190.3,408.0,316.7,305.0,109.3
87.75,190.4,399.9,314.8,301.7,105.3
88.0,194.0,408.2,315.1,305.8,107.4
88.25,190.6,399.8,314.2,301.6,105.2
88.5,190.3,403.1,305.0,299.4,106.5
88.75,194.5,403.4,304.0,300.7,104.5
89.0,191.8,401.2,310.2,301.1,105.0
89.25,196.3,405.1,314.7,305.4,104.7
89.5,195.9,398.2,303.9,299.3,101.2
89.75,195.2,400.9,307.9,301.3,103.0
90.0,197.0,399.5,307.6,301.4,101.4
90.25,196.2,405.0,307.7,303.0,104.5
90.5,195.7,412.9,305.1,304.6,108.6
90.75,197.6,405.7,303.2,302.1,104.0
91.0,196.4,411.5,305.1,304.3,107.6
91.25,198.1,398.6,307.7,301.5,100.4
91.5,197.9,400.2,307.6,301.9,101.3
91.75,199.3,389.8,303.4,297.5,95.4
92.0,197.8,404.0,303.3,301.7,103.1
92.25,199.2,406.9,307.5,304.5,103.9
92.5,195.8,391.3,298.4,295.2,97.8
92.75,199.1,401.9,299.3,300.1,101.4
93.0,202.3,399.7,304.9,302.3,98.7
93.25,207.1,401.2,310.2,306.2,97.1
93.5,199.4,403.0,302.3,301.5,101.8
93.75,201.2,391.0,294.4,295.5,94.9
94.0,201.1,404.4,295.3,300.3,101.8
94.25,202.8,400.1,299.6,300.8,98.7
94.5,201.3,402.7,299.7,301.2,100.7
94.75,202.2,402.4,297.0,300.5,100.2
95.0,201.4,399.2,293.9,298.2,99.0
95.25,204.0,400.3,295.1,299.8,98.2
95.5,203.9,404.6,295.1,301.2,100.5
95.75,206.0,402.6,293.7,300.8,98.5
96.0,202.3,404.5,293.6,300.1,101.2
96.25,206.0,394.9,296.4,299.1,94.5
96.5,204.7,406.5,293.1,301.4,101.1
96.75,203.9,401.1,292.6,299.2,98.8
97.0,204.0,405.5,293.9,301.1,100.9
97.25,203.9,395.0,293.3,297.4,95.6
97.5,204.5,391.4,290.6,295.5,93.5
97.75,206.7,396.1,284.0,295.6,95.2
98.0,210.1,395.2,290.4,298.6,92.8
98.25,204.7,400.9,285.8,297.1,98.6
98.5,207.0,392.3,290.6,296.6,92.8
98.75,212.6,392.0,290.6,298.4,89.9
99.0,208.2,401.3,291.3,300.3,96.8
99.25,205.8,393.8,285.3,295.0,94.4
99.5,206.8,388.5,286.0,293.8,91.1
99.75,207.6,391.9,283.7,294.4,92.6
100.0,207.2,401.5,285.6,298.1,97.8
100.25,206.6,399.9,292.9,299.8,96.8
100.5,208.5,398.0,294.6,300.3,94.9
100.75,205.8,389.8,289.4,295.0,92.1
101.0,202.7,400.5,288.2,297.1,99.2
101.25,207.6,393.1,283.2,294.6,93.3
101.5,205.4,392.8,285.6,294.6,94.0
101.75,204.4,398.3,293.0,298.6,97.1
102.0,204.7,397.3,285.2,295.7,96.7
102.25,203.2,400.2,286.6,296.7,98.9
102.5,206.1,393.0,287.0,295.4,93.7
102.75,206.3,391.1,283.0,293.5,92.8
103.0,203.7,405.7,286.9,298.8,101.5
103.25,203.5,394.3,287.9,295.2,95.6
103.5,202.9,409.7,284.8,299.1,104.1
103.75,202.8,410.9,287.1,300.3,104.7
104.0,205.8,408.8,283.8,299.5,102.4
104.25,207.7,394.8,285.7,296.1,94.0
104.5,205.6,405.6,283.5,298.2,100.8
104.75,203.1,396.9,279.1,293.0,97.6
105.0,203.2,392.5,289.5,295.1,94.7
105.25,202.4,390.3,282.0,291.5,94.3
105.5,201.0,399.9,283.8,294.9,100.0
105.75,205.5,403.8,281.8,297.0,100.0
106.0,202.2,390.8,282.3,291.8,94.7
106.25,203.6,389.4,281.0,291.3,93.3
106.5,203.7,392.2,279.6,291.9,94.9
106.75,200.1,401.5,280.3,294.0,101.4
107.0,202.5,405.5,274.0,294.0,103.0
107.25,200.9,391.1,280.7,290.9,95.5
107.5,200.0,389.0,282.7,290.6,94.7
107.75,199.6,394.3,277.1,290.3,98.0
108.0,200.7,402.8,280.2,294.6,101.8
108.25,204.0,397.3,270.9,290.7,98.2
108.5,201.2,393.4,271.9,288.9,97.2
108.75,202.1,387.1,278.3,289.2,93.0
109.0,200.3,394.4,269.4,288.0,98.4
109.25,200.8,396.6,272.6,290.0,99.1
109.5,204.6,392.4,269.4,288.8,95.4
109.75,200.8,382.1,273.0,285.3,91.3
110.0,198.3,385.3,271.5,285.0,94.2
110.25,198.8,385.7,277.5,287.3,93.8
110.5,199.8,389.1,277.1,288.7,95.2
110.75,201.5,388.3,272.2,287.3,94.3
111.0,204.2,378.0,263.9,282.0,88.3
111.25,200.3,388.0,273.8,287.4,94.6
111.5,203.0,377.5,269.8,283.5,88.0
111.75,201.9,384.1,267.9,284.6,92.2
112.0,200.7,378.7,271.3,283.6,89.6
112.25,201.8,371.7,272.9,282.1,85.4
112.5,201.7,372.1,270.1,281.3,85.7
112.75,202.0,372.2,273.6,282.6,85.5
113.0,200.9,369.6,270.9,280.5,84.7
113.25,202.7,369.1,266.7,279.5,83.9
113.5,200.4,372.4,259.3,277.4,87.4
113.75,205.7,362.6,264.9,277.7,79.3
114.0,201.9,370.9,268.5,280.4,85.1
114.25,205.6,371.7,268.1,281.8,83.9
114.5,206.3,371.1,270.7,282.7,83.1
114.75,202.0,364.2,267.7,278.0,81.6
115.0,203.6,359.4,272.1,278.4,78.1
115.25,204.9,358.6,269.7,277.7,77.2
115.5,209.0,362.1,268.6,279.9,77.2
115.75,207.0,361.9,273.8,280.9,77.7
116.0,208.9,359.7,270.0,279.6,75.9
116.25,209.6,357.0,274.3,280.3,73.9
116.5,208.5,354.7,275.2,279.5,73.2
116.75,207.3,354.7,274.2,278.7,73.8
117.0,207.1,357.1,273.1,279.1,75.2
117.25,213.4,350.5,268.8,277.6,69.0
117.5,210.4,353.0,269.9,277.8,71.7
117.75,209.9,352.2,273.2,278.4,71.3
118.0,209.0,358.6,273.5,280.3,75.0
118.25,209.2,358.9,272.3,280.1,75.2
118.5,211.3,354.7,278.1,281.3,71.8
118.75,215.4,356.8,273.0,281.7,71.1
119.0,211.4,350.3,274.9,278.9,69.6
119.25,209.7,352.4,277.6,279.9,71.4
119.5,215.1,347.5,273.1,278.6,66.4
119.75,216.5,346.7,269.5,277.6,65.5
120.0,213.4,348.6,272.5,278.2,67.8
120.25,209.7,351.5,271.5,277.6,71.1
120.5,211.1,341.1,275.7,276.0,65.0
120.75,212.7,341.6,273.4,275.9,64.5
121.0,212.8,344.9,276.4,278.0,66.1
121.25,213.6,338.9,267.0,273.1,62.9
121.5,216.1,337.4,270.8,274.8,60.8
121.75,210.2,342.4,270.4,274.3,66.2
122.0,214.9,332.5,269.8,272.4,58.8
122.25,215.0,330.7,269.3,271.7,57.9
122.5,217.0,336.3,273.0,275.5,59.7
122.75,216.8,334.2,272.0,274.3,58.8
123.0,214.7,326.9,270.9,270.8,56.1
123.25,217.4,329.1,273.7,273.4,55.9
123.5,214.9,332.0,269.8,272.2,58.6
123.75,213.1,333.5,270.2,272.3,60.2
124.0,215.3,325.9,274.0,271.8,55.3
124.25,214.1,321.5,271.9,269.2,53.8
124.5,212.3,326.1,268.9,269.1,56.9
124.75,216.8,324.2,273.9,271.6,53.7
125.0,214.2,319.9,276.2,270.1,53.1
125.25,214.3,320.8,266.3,267.1,53.3
125.5,214.7,319.9,269.4,268.0,52.6
125.75,213.9,314.0,266.9,264.9,50.1
126.0,219.0,316.6,270.6,268.7,48.8
126.25,214.9,317.0,271.1,267.7,51.1
126.5,216.6,315.6,265.8,266.0,49.5
126.75,214.7,315.1,271.6,267.1,50.4
127.0,216.7,312.6,276.8,268.7,48.4
127.25,214.9,316.7,270.6,267.4,50.9
127.5,214.9,317.1,270.9,267.6,51.2
127.75,218.7,311.7,271.2,267.2,46.6
128.0,217.0,311.1,272.4,266.8,47.3
128.25,221.1,308.8,274.8,268.2,44.2
128.5,218.1,313.2,270.2,267.2,47.7
128.75,216.9,304.5,275.7,265.7,44.6
129.0,216.6,304.2,275.4,265.4,44.7
129.25,220.6,305.2,269.9,265.2,42.5
129.5,218.2,303.9,272.2,264.8,43.3
129.75,225.4,297.5,274.4,265.8,36.8
130.0,218.9,295.1,271.3,261.8,39.0
130.25,222.3,292.5,272.6,262.5,36.2
130.5,221.5,289.0,266.4,259.0,34.4
130.75,223.4,292.5,266.8,260.9,34.9
131.0,227.3,290.0,271.5,262.9,32.2
131.25,220.0,287.8,274.7,260.8,36.0
131.5,224.2,284.7,267.4,258.7,31.2
131.75,223.4,283.8,266.4,257.8,31.1
132.0,231.4,280.7,266.9,259.7,25.4
132.25,228.6,284.1,271.0,261.3,29.0
132.5,228.9,280.8,270.3,260.0,27.4
132.75,230.0,275.7,268.6,258.1,24.6
133.0,228.8,280.3,273.4,260.8,27.9
133.25,226.0,276.7,264.0,255.6,26.4
133.5,231.7,276.5,266.1,258.1,23.4
133.75,232.2,280.4,273.1,261.9,26.0
134.0,231.9,271.1,265.2,256.1,21.1
134.25,231.3,271.8,264.8,256.0,21.7
134.5,232.5,267.2,267.0,255.6,19.9
134.75,233.6,269.5,268.8,257.3,20.5
135.0,235.3,273.1,268.3,258.9,20.6
135.25,228.0,268.9,262.4,253.1,22.0
135.5,234.3,266.3,272.5,257.7,20.5
135.75,229.5,262.2,269.1,253.6,21.1
136.0,232.5,261.7,263.2,252.5,17.3
136.25,235.6,258.0,266.2,253.3,15.8
136.5,232.1,260.3,264.4,252.3,17.6
136.75,235.0,261.8,266.8,254.5,17.1
137.0,237.9,260.5,268.0,255.5,15.7
137.25,235.6,257.2,262.5,251.8,14.2
137.5,232.8,256.8,268.0,252.5,18.0
137.75,239.0,252.2,267.3,252.8,14.2
138.0,234.9,251.5,265.4,250.6,15.3
138.25,236.1,250.0,267.2,251.1,15.6
138.5,236.7,248.3,263.8,249.6,13.6
138.75,235.1,245.8,261.9,247.6,13.5
139.0,238.9,247.6,264.5,250.4,13.0
139.25,233.0,243.4,264.9,247.1,16.3
139.5,240.1,247.2,267.0,251.5,13.9
139.75,234.9,245.8,264.0,248.2,14.7
140.0,236.5,245.2,265.0,248.9,14.6
140.25,239.7,242.0,265.6,249.1,14.3
140.5,239.6,239.4,265.9,248.3,15.2
140.75,243.0,239.2,269.7,250.6,16.6
141.0,242.8,239.0,268.2,250.0,15.9
141.25,241.3,235.3,267.2,247.9,17.0
141.5,248.0,230.7,263.9,247.5,16.6
141.75,248.0,226.9,263.2,246.0,18.2
142.0,245.3,228.5,265.4,246.4,18.5
142.25,243.8,230.4,270.3,248.1,20.3
142.5,241.2,227.5,270.6,246.4,22.0
142.75,243.3,228.4,265.6,245.8,18.7
143.0,248.5,226.7,264.5,246.6,19.0
143.25,246.8,225.7,267.2,246.5,20.8
143.5,246.4,220.0,268.8,245.1,24.5
143.75,252.9,220.2,268.0,247.0,24.4
144.0,255.0,213.5,266.6,245.0,27.9
144.25,253.7,220.5,263.2,245.8,22.4
144.5,248.2,216.8,260.8,242.0,22.6
144.75,251.3,213.0,264.9,243.0,26.9
145.0,251.7,209.9,265.5,242.4,29.0
145.25,247.9,208.0,265.5,240.4,29.5
145.5,250.6,208.6,269.5,242.9,31.2
145.75,255.8,205.6,265.1,242.2,32.0
146.0,258.6,203.7,269.6,243.9,35.3
146.25,254.6,205.5,267.7,242.6,32.8
146.5,252.6,200.3,267.8,240.2,35.4
146.75,249.5,204.6,271.2,241.8,34.0
147.0,256.5,202.9,267.2,242.2,34.5
147.25,255.7,196.9,270.8,241.1,39.1
147.5,254.3,198.0,265.5,239.3,36.2
147.75,253.7,195.5,265.2,238.1,37.4
148.0,252.7,193.8,267.4,238.0,39.0
148.25,256.0,192.7,267.4,238.7,40.2
148.5,251.3,190.7,264.4,235.5,39.3
148.75,253.7,192.8,264.0,236.8,38.5
149.0,257.1,192.4,262.6,237.4,39.1
149.25,253.8,188.0,270.9,237.6,43.8
149.5,256.1,190.5,268.2,238.3,41.8
149.75,259.6,189.1,262.6,237.1,41.6
150.0,257.9,186.7,261.0,235.2,42.1
150.25,258.5,184.4,265.4,236.1,44.9
150.5,257.5,185.0,265.3,235.9,44.3
150.75,265.8,182.3,267.9,238.7,48.8
151.0,259.0,181.4,269.5,236.7,48.1
151.25,263.2,180.0,265.3,236.1,48.6
151.5,263.6,180.2,263.4,235.7,48.1
151.75,261.9,178.5,263.9,234.8,48.7
152.0,257.2,176.7,259.4,231.1,47.1
152.25,257.6,174.2,263.0,231.6,49.8
152.5,266.3,173.3,262.8,234.1,52.7
152.75,265.5,171.2,260.6,232.5,53.1
153.0,263.0,170.1,262.2,231.8,53.4
153.25,264.2,167.7,262.0,231.3,55.1
153.5,267.1,166.8,263.2,232.4,56.8
153.75,263.3,163.8,258.0,228.4,56.0
154.0,264.1,163.9,260.0,229.3,56.7
154.25,266.7,164.0,258.9,229.9,57.1
154.5,260.2,161.5,261.5,227.8,57.4
154.75,264.5,160.1,262.3,228.9,59.7
155.0,267.6,155.7,264.5,229.3,63.7
155.25,270.1,155.3,260.1,228.5,63.6
155.5,268.8,155.1,261.3,228.4,63.6
155.75,266.0,155.9,261.3,227.7,62.3
156.0,265.9,151.3,258.5,225.2,64.1
156.25,269.8,153.2,260.1,227.7,64.7
156.5,270.7,149.3,257.8,225.9,66.7
156.75,264.4,148.6,261.5,224.8,66.1
157.0,262.2,145.2,257.3,221.6,66.2
157.25,271.4,143.7,259.6,224.9,70.6
157.5,268.4,144.5,252.9,222.0,67.5
157.75,270.4,142.0,261.6,224.7,71.7
158.0,269.5,139.4,256.7,221.9,71.7
158.25,265.8,137.7,253.6,219.0,70.7
158.5,266.7,137.1,252.1,218.6,71.0
158.75,266.8,134.4,256.9,219.3,73.8
159.0,264.0,133.7,257.4,218.4,73.4
159.25,269.0,136.5,253.3,219.6,72.4
159.5,263.9,135.3,252.1,217.1,71.1
159.75,262.4,130.6,251.2,214.7,73.1
160.0,257.9,131.3,253.2,214.1,71.8
160.25,257.9,130.1,251.2,213.1,71.9
160.5,261.4,130.2,252.5,214.7,73.3
160.75,257.2,129.8,254.7,213.9,72.9
161.0,260.3,128.4,251.6,213.5,73.8
161.25,256.4,128.4,251.7,212.2,72.6
161.5,255.6,125.8,250.0,210.5,73.4
161.75,256.7,124.2,248.2,209.7,74.2
162.0,256.8,123.1,245.9,208.6,74.3
162.25,255.4,122.7,249.4,209.2,74.9
162.5,257.3,120.9,248.4,208.9,76.3
162.75,256.5,121.0,245.0,207.5,75.1
163.0,258.0,118.0,251.7,209.2,79.1
163.25,256.0,118.5,246.9,207.1,76.9
163.5,256.2,118.1,248.0,207.4,77.5
163.75,255.2,117.4,250.8,207.8,78.3
164.0,255.8,115.6,248.0,206.5,78.8
164.25,256.3,114.1,241.4,203.9,78.2
164.5,258.1,112.1,251.1,207.1,82.3
164.75,256.4,110.7,241.3,202.8,80.1
165.0,258.6,110.8,246.4,205.3,82.0
165.25,253.2,108.7,247.9,203.3,82.0
165.5,258.4,109.3,247.7,205.1,83.2
165.75,258.7,108.1,244.8,203.9,83.2
166.0,256.3,106.0,243.3,201.9,83.3
166.25,261.4,104.8,237.6,201.3,84.4
166.5,259.1,103.5,239.1,200.5,84.7
166.75,262.2,103.0,239.2,201.5,86.0
167.0,258.1,100.9,237.0,198.7,85.4
167.25,261.8,101.6,233.0,198.8,85.4
167.5,257.1,100.1,234.3,197.2,84.8
167.75,263.0,96.7,234.9,198.2,89.0
168.0,261.7,97.4,233.9,197.7,87.9
168.25,264.4,98.5,230.3,197.7,87.6
168.5,271.0,98.8,230.5,200.1,90.1
168.75,262.8,95.8,229.1,195.9,88.3
169.0,267.4,95.8,230.1,197.7,90.3
169.25,268.5,93.9,223.5,195.3,90.7
169.5,271.0,94.6,222.7,196.1,91.2
169.75,273.0,92.7,224.3,196.7,93.3
170.0,271.7,91.4,222.6,195.2,93.2
170.25,268.5,90.6,221.8,193.6,92.3
170.5,273.2,90.7,218.6,194.2,93.7
170.75,268.8,89.8,214.7,191.1,91.8
171.0,274.0,87.5,216.0,192.5,95.4
171.25,275.8,87.3,217.0,193.4,96.4
171.5,274.6,85.2,214.1,191.3,96.7
171.75,266.2,84.5,216.0,188.9,93.8
172.0,273.2,84.6,214.3,190.7,96.5
172.25,277.7,82.4,211.9,190.7,99.3
172.5,269.2,80.8,212.3,187.4,96.6
172.75,275.9,81.7,212.3,189.9,99.0
173.0,281.5,81.1,212.2,191.6,101.8
173.25,276.6,79.0,210.3,188.6,100.6
173.5,274.6,77.5,213.2,188.5,100.9
173.75,281.1,77.8,209.0,189.3,103.1
174.0,285.2,77.7,208.2,190.4,104.9
174.25,278.1,76.6,209.2,187.9,102.4
174.5,282.9,76.6,209.3,189.6,104.5
174.75,274.9,77.3,209.6,187.3,100.7
175.0,277.9,75.4,208.2,187.2,102.9
175.25,280.4,74.4,212.9,189.2,105.0
175.5,277.5,74.1,209.8,187.1,103.6
175.75,275.7,73.2,208.7,185.9,103.2
176.0,281.0,72.0,207.3,186.8,106.0
176.25,276.9,71.5,213.6,187.3,105.2
176.5,274.2,70.3,208.9,184.5,104.1
176.75,274.6,68.7,202.4,181.9,104.5
177.0,271.3,68.2,203.7,181.0,103.4
177.25,275.6,67.6,206.3,183.2,105.9
177.5,274.1,65.5,208.0,182.5,106.6
177.75,278.6,64.2,205.1,182.6,109.0
178.0,274.5,63.0,204.4,180.6,107.8
178.25,272.1,61.4,203.4,179.0,107.5
178.5,274.5,61.6,203.8,180.0,108.4
178.75,271.7,59.1,203.2,178.0,108.5
179.0,268.8,57.7,201.4,176.0,107.8
179.25,266.6,57.5,204.2,176.1,107.3
179.5,275.1,56.0,198.9,176.6,111.2
179.75,271.2,56.3,198.2,175.3,109.3
180.0,268.1,54.8,194.6,172.5,108.3
180.25,264.5,53.8,201.1,173.1,108.1
180.5,266.2,52.8,200.4,173.1,109.3
180.75,263.6,52.4,193.7,169.9,107.6
181.0,266.9,52.0,193.9,170.9,109.3
181.25,270.5,51.4,191.0,171.0,110.9
181.5,266.6,50.6,196.2,171.1,110.2
181.75,265.9,50.4,196.0,170.7,109.9
182.0,261.7,50.1,195.0,168.9,108.2
182.25,263.2,49.3,193.4,168.6,109.1
182.5,263.4,49.2,190.7,167.8,109.0
182.75,262.8,48.5,192.5,167.9,109.3
183.0,265.7,47.8,191.2,168.2,110.8
183.25,260.9,46.5,191.6,166.3,109.4
183.5,262.2,47.2,191.9,167.1,109.6
183.75,263.7,45.3,194.1,167.7,111.6
184.0,263.1,44.5,194.0,167.2,111.7
184.25,265.3,44.9,189.5,166.5,112.0
184.5,260.5,43.7,189.5,164.6,110.6
184.75,267.4,43.2,191.7,167.4,114.0
185.0,265.2,42.2,191.8,166.4,113.6
185.25,265.8,41.0,189.4,165.4,114.3
185.5,263.1,40.9,193.4,165.8,113.6
185.75,263.5,39.4,192.4,165.1,114.5
186.0,264.6,38.5,190.0,164.3,115.2
186.25,265.6,37.6,188.6,163.9,116.0
186.5,261.8,37.7,189.3,162.9,114.3
186.75,260.2,36.6,186.3,161.1,113.9
187.0,260.6,35.8,189.7,162.1,114.9
187.25,263.3,34.7,187.6,161.9,116.5
187.5,264.0,34.3,185.8,161.4,116.8
187.75,265.6,34.0,184.4,161.3,117.5
188.0,260.6,33.5,182.2,158.7,115.4
188.25,262.5,33.5,184.3,160.1,116.4
188.5,268.2,32.7,187.1,162.7,119.6
188.75,264.6,32.8,182.4,159.9,117.5
189.0,256.9,31.9,184.0,157.6,114.8
189.25,253.9,30.9,177.8,154.2,113.4
189.5,256.7,30.8,181.4,156.3,115.0
189.75,257.4,30.4,176.1,154.6,115.0
190.0,259.3,29.5,178.3,155.7,116.5
190.25,258.3,29.0,180.2,155.9,116.6
190.5,258.0,28.0,177.5,154.5,116.7
190.75,258.4,27.4,178.8,154.8,117.4
191.0,259.5,27.7,177.0,154.7,117.5
191.25,260.4,27.1,178.9,155.5,118.4
191.5,259.7,26.7,177.0,154.5,118.1
191.75,261.8,26.5,174.6,154.3,118.9
192.0,259.4,25.3,175.3,153.3,118.6
192.25,257.6,24.9,173.8,152.1,117.9
192.5,263.7,25.0,175.2,154.6,120.7
192.75,258.6,24.2,173.3,152.0,118.7
193.0,256.0,24.2,173.4,151.2,117.5
193.25,262.8,23.1,176.4,154.1,121.4
193.5,261.0,23.1,168.2,150.8,119.9
193.75,260.8,22.8,171.9,151.8,120.2
194.0,259.4,22.3,172.6,151.4,119.9
194.25,254.3,22.1,173.5,149.9,117.9
194.5,253.5,21.9,171.7,149.0,117.5
194.75,253.3,21.6,168.5,147.8,117.2
195.0,254.9,21.4,167.6,148.0,118.0
195.25,256.3,21.6,168.6,148.8,118.6
195.5,258.7,21.1,172.1,150.6,120.3
195.75,253.4,20.7,164.6,146.3,117.4
196.0,255.7,20.7,161.8,146.1,118.3
196.25,256.1,20.4,164.8,147.1,118.8
196.5,253.6,20.2,163.9,145.9,117.7
196.75,255.8,20.1,161.8,145.9,118.7
197.0,253.1,19.6,163.1,145.3,117.8
197.25,252.5,19.6,162.8,145.0,117.5
197.5,250.9,19.5,160.7,143.7,116.7
197.75,253.5,19.3,163.4,145.4,118.1
198.0,251.3,19.0,162.1,144.1,117.2
198.25,252.0,18.5,161.5,144.0,117.7
198.5,253.2,18.0,162.2,144.5,118.6
198.75,250.8,17.7,161.0,143.2,117.5
199.0,256.8,17.5,161.2,145.2,120.4
199.25,252.3,,159.3,205.8,65.8
199.5,251.7,,158.4,205.1,66.0
199.75,257.6,,159.9,208.8,69.1
200.0,254.4,,160.9,207.7,66.1
200.25,249.9,,159.1,204.5,64.2
200.5,255.2,,159.8,207.5,67.4
200.75,254.3,,159.9,207.1,66.7
201.0,251.1,,158.5,204.8,65.5
201.25,253.2,,155.0,204.1,69.5
201.5,250.9,,158.9,204.9,65.0
201.75,249.5,,159.2,204.4,63.9
202.0,245.8,,152.5,199.1,66.0
202.25,245.1,,154.3,199.7,64.2
202.5,249.7,,151.9,200.8,69.2
202.75,245.0,,156.9,200.9,62.3
203.0,246.8,,153.7,200.2,65.8
203.25,246.8,,152.9,199.8,66.4
203.5,237.1,,153.7,195.4,58.9
203.75,239.4,,152.5,195.9,61.5
204.0,242.3,,152.7,197.5,63.3
204.25,242.8,,152.3,197.6,64.0
204.5,245.1,,148.7,196.9,68.2
204.75,245.7,,149.1,197.4,68.3
205.0,243.4,,148.8,196.1,66.9
205.25,240.9,,149.1,195.0,64.9
205.5,242.5,,146.4,194.4,67.9
205.75,243.4,,146.8,195.1,68.3
206.0,244.1,,148.4,196.3,67.6
206.25,240.3,,149.7,195.0,64.0
206.5,241.9,,146.4,194.2,67.5
206.75,241.0,,145.9,193.5,67.2
207.0,241.3,,143.5,192.4,69.2
207.25,234.9,,144.9,189.9,63.6
207.5,236.9,,144.8,190.9,65.2
207.75,239.9,,144.4,192.2,67.6
208.0,238.3,,143.8,191.0,66.8
208.25,234.4,,143.1,188.8,64.6
208.5,236.1,,139.7,187.9,68.2
208.75,234.5,,141.8,188.2,65.6
209.0,235.9,,142.6,189.2,66.0
209.25,235.8,,139.1,187.5,68.4
209.5,239.0,,138.8,188.9,70.9
209.75,233.8,,137.3,185.6,68.3
210.0,232.6,,140.5,186.6,65.1
210.25,238.3,,137.1,187.7,71.6
210.5,233.0,,137.7,185.4,67.4
210.75,229.8,,137.7,183.8,65.1
211.0,231.4,,135.9,183.6,67.5
211.25,232.3,,135.8,184.0,68.2
211.5,233.9,,138.0,185.9,67.8
211.75,232.5,,136.1,184.3,68.1
212.0,231.6,,136.3,183.9,67.3
212.25,230.2,,135.2,182.7,67.1
212.5,233.9,,134.5,184.2,70.3
212.75,231.2,,134.3,182.7,68.5
213.0,225.9,,133.1,179.5,65.6
213.25,227.3,,135.0,181.2,65.3
213.5,228.9,,133.5,181.2,67.4
213.75,230.2,,131.8,181.0,69.5
214.0,225.8,,131.0,178.4,67.0
214.25,231.7,,131.8,181.8,70.6
214.5,228.1,,131.9,180.0,68.0
214.75,226.8,,129.8,178.3,68.6
215.0,230.0,,128.8,179.4,71.6
215.25,227.0,,130.1,178.6,68.5
215.5,228.6,,127.6,178.1,71.4
215.75,233.9,,127.9,180.9,74.9
216.0,228.7,,128.8,178.8,70.7
216.25,228.6,,126.5,177.5,72.2
216.5,224.2,,125.2,174.7,70.0
216.75,228.8,,125.7,177.3,73.0
217.0,226.1,,124.6,175.3,71.8
217.25,228.0,,125.2,176.6,72.7
217.5,223.4,,124.2,173.8,70.2
217.75,222.1,,122.7,172.4,70.3
218.0,225.5,,122.4,173.9,72.9
218.25,222.3,,122.8,172.6,70.4
218.5,222.3,,121.9,172.1,71.0
218.75,223.8,,121.1,172.4,72.6
219.0,222.6,,120.9,171.7,71.9
219.25,225.3,,120.0,172.6,74.5
219.5,222.5,,119.6,171.1,72.7
219.75,218.8,,118.4,168.6,71.0
220.0,218.6,,117.0,167.8,71.8
220.25,220.8,,115.9,168.4,74.2
220.5,215.6,,117.6,166.6,69.2
220.75,218.0,,115.9,166.9,72.2
221.0,218.6,,114.3,166.4,73.7
221.25,219.9,,113.3,166.6,75.3
221.5,221.8,,113.1,167.5,76.9
221.75,218.7,,112.6,165.7,75.0
222.0,217.6,,112.1,164.8,74.6
222.25,214.5,,111.7,163.1,72.7
222.5,209.1,,110.4,159.8,69.8
222.75,213.9,,110.0,162.0,73.5
223.0,214.3,,107.9,161.1,75.2
223.25,213.0,,108.3,160.7,74.0
223.5,210.3,,106.1,158.2,73.6
223.75,214.9,,106.4,160.7,76.8
224.0,210.3,,104.6,157.4,74.8
224.25,214.5,,103.3,158.9,78.7
224.5,209.3,,104.1,156.7,74.4
224.75,208.5,,103.3,155.9,74.4
225.0,215.1,,104.3,159.7,78.3
225.25,207.3,,101.2,154.2,75.0
225.5,204.3,,101.4,152.8,72.7
225.75,204.0,,102.1,153.0,72.0
226.0,208.2,,101.2,154.7,75.6
226.25,204.7,,100.6,152.7,73.6
226.5,204.5,,98.3,151.4,75.1
226.75,205.9,,100.0,153.0,74.9
227.0,201.9,,98.5,150.2,73.1
227.25,200.8,,97.8,149.3,72.8
227.5,201.2,,96.3,148.8,74.1
227.75,205.6,,96.3,150.9,77.3
228.0,199.9,,96.0,147.9,73.5
228.25,197.9,,95.0,146.5,72.8
228.5,200.1,,95.0,147.6,74.3
228.75,198.3,,94.1,146.2,73.7
229.0,196.2,,94.2,145.2,72.1
229.25,197.5,,92.8,145.1,74.0
229.5,197.7,,92.2,145.0,74.6
229.75,192.3,,92.5,142.4,70.6
230.0,194.1,,90.1,142.1,73.5
230.25,196.7,,88.7,142.7,76.4
230.5,195.1,,87.8,141.4,75.8
230.75,194.7,,86.7,140.7,76.4
231.0,193.3,,86.9,140.1,75.2
231.25,193.2,,86.7,140.0,75.4
231.5,191.9,,85.0,138.5,75.5
231.75,194.8,,85.0,139.9,77.7
232.0,194.5,,83.0,138.7,78.8
232.25,194.3,,82.9,138.6,78.8
232.5,189.7,,81.7,135.7,76.4
232.75,192.0,,80.2,136.1,79.1
233.0,193.1,,80.0,136.5,79.9
233.25,189.5,,79.4,134.5,77.8
233.5,192.8,,79.7,136.2,80.0
233.75,186.6,,77.9,132.2,76.9
234.0,190.1,,78.1,134.1,79.2
234.25,192.1,,76.3,134.2,81.8
234.5,186.4,,77.0,131.7,77.4
234.75,187.8,,75.6,131.7,79.3
235.0,185.3,,74.6,129.9,78.3
235.25,186.4,,72.8,129.6,80.3
235.5,182.2,,73.8,128.0,76.7
235.75,184.9,,71.8,128.4,80.0
236.0,182.5,,69.3,125.9,80.1
236.25,186.0,,68.3,127.2,83.3
236.5,184.6,,67.0,125.8,83.1
236.75,183.6,,66.9,125.3,82.5
237.0,180.4,,66.6,123.5,80.5
237.25,179.6,,63.8,121.7,81.8
237.5,178.1,,62.2,120.2,81.9
237.75,180.1,,62.7,121.4,83.0
238.0,178.2,,60.0,119.1,83.5
238.25,179.1,,59.9,119.5,84.3
238.5,177.9,,58.3,118.1,84.5
238.75,175.2,,56.7,116.0,83.8
239.0,173.5,,55.4,114.4,83.5
239.25,173.4,,54.9,114.1,83.8
239.5,173.2,,53.8,113.5,84.4
239.75,173.4,,52.6,113.0,85.4
240.0,174.4,,52.1,113.2,86.4
240.25,171.8,,50.8,111.3,85.6
240.5,168.0,,50.1,109.0,83.4
240.75,169.9,,49.4,109.6,85.2
241.0,169.2,,48.9,109.1,85.1
241.25,170.5,,47.4,109.0,87.1
241.5,166.5,,46.7,106.6,84.7
241.75,168.9,,46.0,107.5,87.0
242.0,165.8,,45.5,105.6,85.0
242.25,166.3,,44.5,105.4,86.2
242.5,164.8,,43.8,104.3,85.5
242.75,163.8,,43.1,103.4,85.3
243.0,161.2,,42.2,101.7,84.1
243.25,161.8,,41.8,101.8,84.8
243.5,162.1,,40.5,101.3,86.0
243.75,160.6,,39.8,100.2,85.5
244.0,163.0,,38.9,100.9,87.8
244.25,160.2,,38.5,99.4,86.1
244.5,158.5,,37.4,97.9,85.6
244.75,157.0,,36.4,96.7,85.3
245.0,157.9,,35.8,96.9,86.3
245.25,157.5,,34.2,95.8,87.2
245.5,155.0,,34.3,94.7,85.3
245.75,155.0,,33.7,94.4,85.8
246.0,156.3,,33.1,94.7,87.2
246.25,156.0,,32.3,94.1,87.5
246.5,154.7,,31.4,93.0,87.2
246.75,154.5,,30.8,92.7,87.5
247.0,155.1,,29.7,92.4,88.6
247.25,154.2,,30.0,92.1,87.8
247.5,156.5,,29.0,92.8,90.2
247.75,155.9,,28.9,92.4,89.8
248.0,151.2,,28.4,89.8,86.8
248.25,149.9,,28.1,89.0,86.1
248.5,153.0,,26.9,90.0,89.2
248.75,152.6,,26.7,89.7,89.0
249.0,153.0,,26.5,89.7,89.4
249.25,154.1,,26.0,90.0,90.6
249.5,150.4,,25.1,87.8,88.6
249.75,153.4,,24.8,89.1,90.9
250.0,150.5,,23.7,87.1,89.7
250.25,150.3,,,150.3,
250.5,150.3,,,150.3,
250.75,149.7,,,149.7,
251.0,150.2,,,150.2,
251.25,147.8,,,147.8,
251.5,148.6,,,148.6,
251.75,145.8,,,145.8,
252.0,144.3,,,144.3,
252.25,145.5,,,145.5,
252.5,145.0,,,145.0,
252.75,141.5,,,141.5,
253.0,141.8,,,141.8,
253.25,140.7,,,140.7,
253.5,136.5,,,136.5,
253.75,136.0,,,136.0,
254.0,135.2,,,135.2,
254.25,134.9,,,134.9,
254.5,132.8,,,132.8,
254.75,133.9,,,133.9,
255.0,131.7,,,131.7,
255.25,132.5,,,132.5,
255.5,129.6,,,129.6,
255.75,127.8,,,127.8,
256.0,129.2,,,129.2,
256.25,129.7,,,129.7,
256.5,128.9,,,128.9,
256.75,126.0,,,126.0,
257.0,127.2,,,127.2,
257.25,126.2,,,126.2,
257.5,127.1,,,127.1,
257.75,127.3,,,127.3,
258.0,124.9,,,124.9,
258.25,126.9,,,126.9,
258.5,125.6,,,125.6,
258.75,123.8,,,123.8,
259.0,124.6,,,124.6,
259.25,125.0,,,125.0,
259.5,123.9,,,123.9,
259.75,122.6,,,122.6,
260.0,123.4,,,123.4,
260.25,121.0,,,121.0,
260.5,120.6,,,120.6,
260.75,120.6,,,120.6,
261.0,123.7,,,123.7,
261.25,121.6,,,121.6,
261.5,121.7,,,121.7,
261.75,120.4,,,120.4,
262.0,119.4,,,119.4,
262.25,118.4,,,118.4,
262.5,119.2,,,119.2,
262.75,117.2,,,117.2,
263.0,117.5,,,117.5,
263.25,117.4,,,117.4,
263.5,117.9,,,117.9,
263.75,116.0,,,116.0,
264.0,116.8,,,116.8,
264.25,114.6,,,114.6,
264.5,114.7,,,114.7,
264.75,114.9,,,114.9,
265.0,114.2,,,114.2,
265.25,113.8,,,113.8,
265.5,111.7,,,111.7,
265.75,111.6,,,111.6,
266.0,111.1,,,111.1,
266.25,111.5,,,111.5,
266.5,111.7,,,111.7,
266.75,110.5,,,110.5,
267.0,108.6,,,108.6,
267.25,108.5,,,108.5,
267.5,108.3,,,108.3,
267.75,108.1,,,108.1,
268.0,107.0,,,107.0,
268.25,106.6,,,106.6,
268.5,107.0,,,107.0,
268.75,105.7,,,105.7,
269.0,107.1,,,107.1,
269.25,106.4,,,106.4,
269.5,105.0,,,105.0,
269.75,104.6,,,104.6,
270.0,103.2,,,103.2,
270.25,104.6,,,104.6,
270.5,103.1,,,103.1,
270.75,102.6,,,102.6,
271.0,100.8,,,100.8,
271.25,103.1,,,103.1,
271.5,100.8,,,100.8,
271.75,101.8,,,101.8,
272.0,98.5,,,98.5,
272.25,98.0,,,98.0,
272.5,97.5,,,97.5,
272.75,96.6,,,96.6,
273.0,95.3,,,95.3,
273.25,95.4,,,95.4,
273.5,93.9,,,93.9,
273.75,92.6,,,92.6,
274.0,91.9,,,91.9,
274.25,90.3,,,90.3,
274.5,90.8,,,90.8,
274.75,89.5,,,89.5,
275.0,89.8,,,89.8,
275.25,87.5,,,87.5,
275.5,87.4,,,87.4,
275.75,87.1,,,87.1,
276.0,86.0,,,86.0,
276.25,86.7,,,86.7,
276.5,86.5,,,86.5,
276.75,83.6,,,83.6,
277.0,84.1,,,84.1,
277.25,82.3,,,82.3,
277.5,82.1,,,82.1,
277.75,82.8,,,82.8,
278.0,81.6,,,81.6,
278.25,80.0,,,80.0,
278.5,79.7,,,79.7,
278.75,79.3,,,79.3,
279.0,77.8,,,77.8,
279.25,77.7,,,77.7,
279.5,77.0,,,77.0,
279.75,75.6,,,75.6,
280.0,75.9,,,75.9,
280.25,74.6,,,74.6,
280.5,72.5,,,72.5,
280.75,70.9,,,70.9,
281.0,70.9,,,70.9,
281.25,69.7,,,69.7,
281.5,69.3,,,69.3,
281.75,68.9,,,68.9,
282.0,67.9,,,67.9,
282.25,68.3,,,68.3,
282.5,66.3,,,66.3,
282.75,66.2,,,66.2,
283.0,64.7,,,64.7,
283.25,64.3,,,64.3,
283.5,63.9,,,63.9,
283.75,63.6,,,63.6,
284.0,62.3,,,62.3,
284.25,61.7,,,61.7,
284.5,60.8,,,60.8,
284.75,60.5,,,60.5,
285.0,59.4,,,59.4,
285.25,58.9,,,58.9,
285.5,57.7,,,57.7,
285.75,56.8,,,56.8,
286.0,56.5,,,56.5,
286.25,54.6,,,54.6,
286.5,53.8,,,53.8,
286.75,53.0,,,53.0,
287.0,51.4,,,51.4,
287.25,51.0,,,51.0,
287.5,49.7,,,49.7,
287.75,49.5,,,49.5,
288.0,48.5,,,48.5,
288.25,47.4,,,47.4,
288.5,46.8,,,46.8,
288.75,46.2,,,46.2,
289.0,46.2,,,46.2,
289.25,44.7,,,44.7,
289.5,44.6,,,44.6,
289.75,43.8,,,43.8,
290.0,43.1,,,43.1,
290.25,42.3,,,42.3,
290.5,42.0,,,42.0,
290.75,41.7,,,41.7,
291.0,40.6,,,40.6,
291.25,40.4,,,40.4,
291.5,40.1,,,40.1,
291.75,39.6,,,39.6,
292.0,39.0,,,39.0,
292.25,39.4,,,39.4,
292.5,38.4,,,38.4,
292.75,37.2,,,37.2,
293.0,36.5,,,36.5,
293.25,35.5,,,35.5,
293.5,34.7,,,34.7,
293.75,33.4,,,33.4,
294.0,32.7,,,32.7,
294.25,32.2,,,32.2,
294.5,31.1,,,31.1,
294.75,30.5,,,30.5,
295.0,29.7,,,29.7,
295.25,28.8,,,28.8,
295.5,28.5,,,28.5,
295.75,27.7,,,27.7,
296.0,27.1,,,27.1,
296.25,26.4,,,26.4,
296.5,26.1,,,26.1,
296.75,25.3,,,25.3,
297.0,24.7,,,24.7,
297.25,24.5,,,24.5,
297.5,24.5,,,24.5,
297.75,23.8,,,23.8,
298.0,23.3,,,23.3,
298.25,23.3,,,23.3,
298.5,22.5,,,22.5,
298.75,22.4,,,22.4,