File: 01_Data/Cotton_Rug/FTIR/IS/Cotton_Rug_IS_S_220822_R8.dpt
7497.03,0.69246
7491.25,0.68862
7485.46,0.68754
7479.67,0.67823
7473.89,0.67933
7468.1,0.69282
7462.32,0.68030
7456.53,0.68480
7450.74,0.67795
7444.96,0.67863
7439.17,0.67806
7433.38,0.67643
7427.6,0.67275
7421.81,0.66785
7416.03,0.67929
7410.24,0.67186
7404.45,0.67454
7398.67,0.67552
7392.88,0.66715
7387.09,0.65786
7381.31,0.66363
7375.52,0.66893
7369.74,0.67022
7363.95,0.65832
7358.16,0.65763
7352.38,0.66286
7346.59,0.65741
7340.8,0.65759
7335.02,0.65331
7329.23,0.65039
7323.45,0.64918
7317.66,0.64742
7311.87,0.64800
7306.09,0.64665
7300.3,0.65625
7294.51,0.65810
7288.73,0.65241
7282.94,0.64388
7277.16,0.64648
7271.37,0.64961
7265.58,0.64785
7259.8,0.64722
7254.01,0.64580
7248.22,0.65649
7242.44,0.63928
7236.65,0.65549
7230.87,0.65533
7225.08,0.64749
7219.29,0.64901
7213.51,0.64804
7207.72,0.64129
7201.93,0.64610
7196.15,0.65377
7190.36,0.65106
7184.58,0.64929
7178.79,0.65077
7173,0.64328
7167.22,0.64048
7161.43,0.64351
7155.65,0.64683
7149.86,0.64038
7144.07,0.63961
7138.29,0.64138
7132.5,0.64091
7126.71,0.63443
7120.93,0.63268
7115.14,0.62813
7109.36,0.63264
7103.57,0.62246
7097.78,0.62540
7092,0.62164
7086.21,0.61676
7080.42,0.61373
7074.64,0.61354
7068.85,0.60857
7063.07,0.60207
7057.28,0.60125
7051.49,0.60412
7045.71,0.59901
7039.92,0.59595
7034.13,0.58525
7028.35,0.58358
7022.56,0.58460
7016.78,0.57907
7010.99,0.57774
7005.2,0.57412
6999.42,0.57270
6993.63,0.57474
6987.84,0.57050
6982.06,0.57257
6976.27,0.56649
6970.49,0.56306
6964.7,0.56520
6958.91,0.56137
6953.13,0.55972
6947.34,0.55873
6941.55,0.55652
6935.77,0.55646
6929.98,0.55659
6924.2,0.55691
6918.41,0.56115
6912.62,0.55483
6906.84,0.55825
6901.05,0.55070
6895.26,0.55553
6889.48,0.55696
6883.69,0.54924
6877.91,0.54880
6872.12,0.54845
6866.33,0.54677
6860.55,0.54712
6854.76,0.54791
6848.97,0.54623
6843.19,0.54105
6837.4,0.54054
6831.62,0.54059
6825.83,0.53937
6820.04,0.53891
6814.26,0.53871
6808.47,0.53570
6802.68,0.53362
6796.9,0.53212
6791.11,0.53577
6785.33,0.53467
6779.54,0.52540
6773.75,0.52992
6767.97,0.52828
6762.18,0.52552
6756.39,0.53393
6750.61,0.52916
6744.82,0.52536
6739.04,0.52358
6733.25,0.52760
6727.46,0.52399
6721.68,0.51994
6715.89,0.52663
6710.1,0.53003
6704.32,0.52471
6698.53,0.52212
6692.75,0.53081
6686.96,0.52511
6681.17,0.52687
6675.39,0.52662
6669.6,0.52666
6663.82,0.52872
6658.03,0.52821
6652.24,0.53191
6646.46,0.53222
6640.67,0.53111
6634.88,0.53054
6629.1,0.53685
6623.31,0.53550
6617.53,0.54210
6611.74,0.53339
6605.95,0.53359
6600.17,0.53707
6594.38,0.53862
6588.59,0.53673
6582.81,0.53790
6577.02,0.53708
6571.24,0.53825
6565.45,0.54305
6559.66,0.54161
6553.88,0.53799
6548.09,0.54013
6542.3,0.54238
6536.52,0.54122
6530.73,0.54399
6524.95,0.53953
6519.16,0.53972
6513.37,0.54368
6507.59,0.53914
6501.8,0.54166
6496.01,0.53998
6490.23,0.53662
6484.44,0.54293
6478.66,0.53966
6472.87,0.54117
6467.08,0.53801
6461.3,0.53860
6455.51,0.54347
6449.72,0.54015
6443.94,0.54111
6438.15,0.54053
6432.37,0.54173
6426.58,0.54063
6420.79,0.54339
6415.01,0.54476
6409.22,0.54659
6403.43,0.54464
6397.65,0.54751
6391.86,0.54546
6386.08,0.54494
6380.29,0.54629
6374.5,0.54551
6368.72,0.54497
6362.93,0.54712
6357.14,0.54692
6351.36,0.54595
6345.57,0.54770
6339.79,0.54534
6334,0.54393
6328.21,0.54722
6322.43,0.54776
6316.64,0.54531
6310.85,0.54643
6305.07,0.54753
6299.28,0.54902
6293.5,0.54930
6287.71,0.55080
6281.92,0.55189
6276.14,0.55139
6270.35,0.55242
6264.56,0.55574
6258.78,0.55366
6252.99,0.55937
6247.21,0.55971
6241.42,0.56041
6235.63,0.56519
6229.85,0.56707
6224.06,0.56835
6218.27,0.56560
6212.49,0.57030
6206.7,0.57008
6200.92,0.57533
6195.13,0.57328
6189.34,0.57555
6183.56,0.57553
6177.77,0.57856
6171.98,0.57999
6166.2,0.58107
6160.41,0.58406
6154.63,0.58492
6148.84,0.58434
6143.05,0.58860
6137.27,0.58653
6131.48,0.58768
6125.7,0.58763
6119.91,0.58513
6114.12,0.58803
6108.34,0.58743
6102.55,0.58550
6096.76,0.58086
6090.98,0.57907
6085.19,0.57811
6079.41,0.57712
6073.62,0.57518
6067.83,0.57340
6062.05,0.56659
6056.26,0.56500
6050.47,0.56220
6044.69,0.56112
6038.9,0.55862
6033.12,0.55389
6027.33,0.55248
6021.54,0.54725
6015.76,0.54828
6009.97,0.55216
6004.18,0.55725
5998.4,0.56014
5992.61,0.56961
5986.83,0.57158
5981.04,0.57342
5975.25,0.57707
5969.47,0.57854
5963.68,0.58113
5957.89,0.58083
5952.11,0.58335
5946.32,0.58108
5940.54,0.58018
5934.75,0.58190
5928.96,0.58766
5923.18,0.58632
5917.39,0.58918
5911.6,0.58952
5905.82,0.59057
5900.03,0.58757
5894.25,0.58846
5888.46,0.58326
5882.67,0.58027
5876.89,0.58053
5871.1,0.57747
5865.31,0.57553
5859.53,0.57505
5853.74,0.57328
5847.96,0.57616
5842.17,0.57745
5836.38,0.57703
5830.6,0.57524
5824.81,0.57524
5819.02,0.57504
5813.24,0.57449
5807.45,0.57550
5801.67,0.57470
5795.88,0.57322
5790.09,0.57374
5784.31,0.57250
5778.52,0.57229
5772.73,0.57375
5766.95,0.57132
5761.16,0.57345
5755.38,0.57344
5749.59,0.57476
5743.8,0.57511
5738.02,0.57740
5732.23,0.57790
5726.44,0.57722
5720.66,0.57878
5714.87,0.57632
5709.09,0.57921
5703.3,0.57881
5697.51,0.57742
5691.73,0.57929
5685.94,0.57887
5680.15,0.57829
5674.37,0.57817
5668.58,0.58009
5662.8,0.57929
5657.01,0.57843
5651.22,0.58054
5645.44,0.57697
5639.65,0.57824
5633.87,0.57980
5628.08,0.57961
5622.29,0.58295
5616.51,0.58082
5610.72,0.58342
5604.93,0.58130
5599.15,0.58214
5593.36,0.58222
5587.58,0.58235
5581.79,0.58150
5576,0.58117
5570.22,0.58118
5564.43,0.58175
5558.64,0.58204
5552.86,0.58385
5547.07,0.58412
5541.29,0.58430
5535.5,0.58306
5529.71,0.58185
5523.93,0.58274
5518.14,0.58187
5512.35,0.58292
5506.57,0.58350
5500.78,0.58381
5495,0.58577
5489.21,0.58431
5483.42,0.58548
5477.64,0.58411
5471.85,0.58442
5466.06,0.58384
5460.28,0.58458
5454.49,0.58634
5448.71,0.58975
5442.92,0.58999
5437.13,0.59015
5431.35,0.59204
5425.56,0.59414
5419.77,0.59516
5413.99,0.59605
5408.2,0.59732
5402.42,0.59760
5396.63,0.59688
5390.84,0.59930
5385.06,0.60073
5379.27,0.60032
5373.48,0.60123
5367.7,0.60119
5361.91,0.60121
5356.13,0.60135
5350.34,0.60118
5344.55,0.60089
5338.77,0.60049
5332.98,0.59941
5327.19,0.59781
5321.41,0.59773
5315.62,0.59534
5309.84,0.59331
5304.05,0.59128
5298.26,0.58691
5292.48,0.58623
5286.69,0.58192
5280.9,0.57676
5275.12,0.57136
5269.33,0.56463
5263.55,0.55849
5257.76,0.55241
5251.97,0.54429
5246.19,0.54081
5240.4,0.53537
5234.61,0.53141
5228.83,0.52729
5223.04,0.52264
5217.26,0.51975
5211.47,0.51713
5205.68,0.51609
5199.9,0.51514
5194.11,0.51343
5188.32,0.51284
5182.54,0.51302
5176.75,0.51444
5170.97,0.51421
5165.18,0.51230
5159.39,0.51262
5153.61,0.51467
5147.82,0.51599
5142.03,0.51779
5136.25,0.51928
5130.46,0.52164
5124.68,0.52185
5118.89,0.52265
5113.1,0.52395
5107.32,0.52773
5101.53,0.52971
5095.75,0.53304
5089.96,0.53676
5084.17,0.53667
5078.39,0.53895
5072.6,0.54115
5066.81,0.54235
5061.03,0.54456
5055.24,0.54578
5049.46,0.54727
5043.67,0.54922
5037.88,0.55005
5032.1,0.55015
5026.31,0.55001
5020.52,0.55057
5014.74,0.55175
5008.95,0.55207
5003.17,0.55053
4997.38,0.55099
4991.59,0.55104
4985.81,0.54998
4980.02,0.54975
4974.23,0.54783
4968.45,0.54450
4962.66,0.54250
4956.88,0.53936
4951.09,0.53616
4945.3,0.53255
4939.52,0.52823
4933.73,0.52321
4927.94,0.51916
4922.16,0.51404
4916.37,0.50931
4910.59,0.50376
4904.8,0.49830
4899.01,0.49242
4893.23,0.48479
4887.44,0.47931
4881.65,0.47438
4875.87,0.46823
4870.08,0.46194
4864.3,0.45783
4858.51,0.45318
4852.72,0.44873
4846.94,0.44455
4841.15,0.43967
4835.36,0.43678
4829.58,0.42989
4823.79,0.42676
4818.01,0.42243
4812.22,0.41916
4806.43,0.41621
4800.65,0.41309
4794.86,0.41157
4789.07,0.41019
4783.29,0.40831
4777.5,0.40703
4771.72,0.40690
4765.93,0.40737
4760.14,0.40505
4754.36,0.40336
4748.57,0.40262
4742.78,0.40205
4737,0.40235
4731.21,0.40249
4725.43,0.40117
4719.64,0.40041
4713.85,0.40216
4708.07,0.40394
4702.28,0.40270
4696.49,0.40070
4690.71,0.40192
4684.92,0.40417
4679.14,0.40961
4673.35,0.41632
4667.56,0.42093
4661.78,0.42417
4655.99,0.42597
4650.2,0.42637
4644.42,0.42510
4638.63,0.42467
4632.85,0.42543
4627.06,0.43055
4621.27,0.43755
4615.49,0.44285
4609.7,0.44702
4603.92,0.44847
4598.13,0.44929
4592.34,0.44844
4586.56,0.44940
4580.77,0.45006
4574.98,0.45323
4569.2,0.45968
4563.41,0.46425
4557.63,0.46775
4551.84,0.47019
4546.05,0.47092
4540.27,0.47357
4534.48,0.47376
4528.69,0.47592
4522.91,0.47518
4517.12,0.47503
4511.34,0.47374
4505.55,0.47162
4499.76,0.46781
4493.98,0.46373
4488.19,0.45949
4482.4,0.45599
4476.62,0.45293
4470.83,0.44578
4465.05,0.43620
4459.26,0.42601
4453.47,0.42089
4447.69,0.41682
4441.9,0.41013
4436.11,0.40141
4430.33,0.39524
4424.54,0.39183
4418.76,0.38848
4412.97,0.38371
4407.18,0.37905
4401.4,0.37413
4395.61,0.37529
4389.82,0.37926
4384.04,0.38306
4378.25,0.38609
4372.47,0.38875
4366.68,0.38985
4360.89,0.38931
4355.11,0.38666
4349.32,0.38595
4343.53,0.38313
4337.75,0.38108
4331.96,0.37708
4326.18,0.37339
4320.39,0.36976
4314.6,0.36688
4308.82,0.36394
4303.03,0.35990
4297.24,0.35504
4291.46,0.35230
4285.67,0.34963
4279.89,0.35013
4274.1,0.34994
4268.31,0.35049
4262.53,0.35233
4256.74,0.35267
4250.95,0.35285
4245.17,0.35349
4239.38,0.35526
4233.6,0.35619
4227.81,0.35714
4222.02,0.35908
4216.24,0.36083
4210.45,0.36387
4204.66,0.36622
4198.88,0.36822
4193.09,0.36911
4187.31,0.36828
4181.52,0.36590
4175.73,0.36529
4169.95,0.36921
4164.16,0.37260
4158.37,0.37443
4152.59,0.37451
4146.8,0.37281
4141.02,0.37014
4135.23,0.36746
4129.44,0.36456
4123.66,0.36162
4117.87,0.35763
4112.09,0.35258
4106.3,0.34497
4100.51,0.33599
4094.73,0.32323
4088.94,0.31556
4083.15,0.31411
4077.37,0.31682
4071.58,0.31698
4065.8,0.31524
4060.01,0.31035
4054.22,0.30567
4048.44,0.29969
4042.65,0.29575
4036.86,0.29242
4031.08,0.29075
4025.29,0.28936
4019.51,0.28895
4013.72,0.28911
4007.93,0.29148
4002.15,0.29357
3996.36,0.29620
3990.57,0.29947
3984.79,0.30171
3979,0.30341
3973.22,0.30543
3967.43,0.30688
3961.64,0.31031
3955.86,0.31200
3950.07,0.31507
3944.28,0.31818
3938.5,0.32113
3932.71,0.32428
3926.93,0.32690
3921.14,0.32990
3915.35,0.33259
3909.57,0.33559
3903.78,0.33846
3897.99,0.34170
3892.21,0.34478
3886.42,0.34771
3880.64,0.34966
3874.85,0.35129
3869.06,0.35477
3863.28,0.35913
3857.49,0.36253
3851.7,0.36549
3845.92,0.36874
3840.13,0.37102
3834.35,0.37300
3828.56,0.37433
3822.77,0.37413
3816.99,0.37333
3811.2,0.37182
3805.41,0.37238
3799.63,0.37285
3793.84,0.37494
3788.06,0.37552
3782.27,0.37574
3776.48,0.37478
3770.7,0.37324
3764.91,0.37119
3759.12,0.36941
3753.34,0.37040
3747.55,0.37036
3741.77,0.36893
3735.98,0.36563
3730.19,0.36185
3724.41,0.35937
3718.62,0.35640
3712.83,0.35134
3707.05,0.34365
3701.26,0.33422
3695.48,0.32340
3689.69,0.31051
3683.9,0.29826
3678.12,0.28837
3672.33,0.27704
3666.54,0.26024
3660.76,0.24376
3654.97,0.22694
3649.19,0.21163
3643.4,0.19570
3637.61,0.18193
3631.83,0.16895
3626.04,0.15651
3620.25,0.14649
3614.47,0.13484
3608.68,0.12589
3602.9,0.11614
3597.11,0.10756
3591.32,0.09942
3585.54,0.09275
3579.75,0.08645
3573.97,0.08061
3568.18,0.07552
3562.39,0.07150
3556.61,0.06643
3550.82,0.06379
3545.03,0.05992
3539.25,0.05796
3533.46,0.05571
3527.68,0.05363
3521.89,0.05192
3516.1,0.05041
3510.32,0.04884
3504.53,0.04783
3498.74,0.04638
3492.96,0.04497
3487.17,0.04421
3481.39,0.04377
3475.6,0.04212
3469.81,0.04156
3464.03,0.03995
3458.24,0.03914
3452.45,0.03856
3446.67,0.03779
3440.88,0.03710
3435.1,0.03628
3429.31,0.03558
3423.52,0.03598
3417.74,0.03745
3411.95,0.03855
3406.16,0.03954
3400.38,0.04067
3394.59,0.04033
3388.81,0.03999
3383.02,0.04021
3377.23,0.04075
3371.45,0.04093
3365.66,0.04025
3359.87,0.04020
3354.09,0.04147
3348.3,0.04062
3342.52,0.04037
3336.73,0.04222
3330.94,0.04244
3325.16,0.04245
3319.37,0.04312
3313.58,0.04307
3307.8,0.04286
3302.01,0.04267
3296.23,0.04341
3290.44,0.04337
3284.65,0.04476
3278.87,0.04456
3273.08,0.04537
3267.29,0.04643
3261.51,0.04693
3255.72,0.04784
3249.94,0.04855
3244.15,0.04923
3238.36,0.04993
3232.58,0.05140
3226.79,0.05162
3221,0.05350
3215.22,0.05489
3209.43,0.05580
3203.65,0.05709
3197.86,0.05867
3192.07,0.06004
3186.29,0.06161
3180.5,0.06301
3174.71,0.06469
3168.93,0.06592
3163.14,0.06765
3157.36,0.06915
3151.57,0.07094
3145.78,0.07216
3140,0.07420
3134.21,0.07593
3128.42,0.07788
3122.64,0.08035
3116.85,0.08165
3111.07,0.08293
3105.28,0.08385
3099.49,0.08604
3093.71,0.08969
3087.92,0.09068
3082.14,0.09144
3076.35,0.09373
3070.56,0.09576
3064.78,0.09823
3058.99,0.09857
3053.2,0.09998
3047.42,0.10610
3041.63,0.11093
3035.85,0.11276
3030.06,0.11373
3024.27,0.11331
3018.49,0.11068
3012.7,0.10832
3006.91,0.10678
3001.13,0.10576
2995.34,0.10198
2989.56,0.09681
2983.77,0.08796
2977.98,0.07696
2972.2,0.06441
2966.41,0.06063
2960.62,0.06079
2954.84,0.05952
2949.05,0.05786
2943.27,0.05795
2937.48,0.05870
2931.69,0.05806
2925.91,0.05493
2920.12,0.05101
2914.33,0.04685
2908.55,0.04458
2902.76,0.04553
2896.98,0.04831
2891.19,0.05084
2885.4,0.05265
2879.62,0.05578
2873.83,0.05689
2868.04,0.05851
2862.26,0.06097
2856.47,0.06347
2850.69,0.06740
2844.9,0.07476
2839.11,0.08394
2833.33,0.09080
2827.54,0.09591
2821.75,0.10105
2815.97,0.10559
2810.18,0.10987
2804.4,0.11364
2798.61,0.11764
2792.82,0.12157
2787.04,0.12434
2781.25,0.12632
2775.46,0.12845
2769.68,0.12959
2763.89,0.13092
2758.11,0.13182
2752.32,0.13283
2746.53,0.13228
2740.75,0.13222
2734.96,0.13352
2729.17,0.13498
2723.39,0.13735
2717.6,0.13927
2711.82,0.14182
2706.03,0.14491
2700.24,0.14884
2694.46,0.15285
2688.67,0.15621
2682.88,0.15949
2677.1,0.16252
2671.31,0.16529
2665.53,0.16708
2659.74,0.16846
2653.95,0.17000
2648.17,0.17227
2642.38,0.17350
2636.59,0.17468
2630.81,0.17611
2625.02,0.17856
2619.24,0.18146
2613.45,0.18278
2607.66,0.18431
2601.88,0.18601
2596.09,0.18781
2590.3,0.18777
2584.52,0.18836
2578.73,0.18894
2572.95,0.18972
2567.16,0.18947
2561.37,0.18893
2555.59,0.18796
2549.8,0.18720
2544.02,0.18651
2538.23,0.18595
2532.44,0.18731
2526.66,0.18879
2520.87,0.19065
2515.08,0.19251
2509.3,0.19566
2503.51,0.20045
2497.73,0.20436
2491.94,0.20799
2486.15,0.21156
2480.37,0.21496
2474.58,0.21882
2468.79,0.22199
2463.01,0.22421
2457.22,0.22613
2451.44,0.22800
2445.65,0.22989
2439.86,0.23234
2434.08,0.23427
2428.29,0.23586
2422.5,0.23687
2416.72,0.23834
2410.93,0.23936
2405.15,0.23947
2399.36,0.24038
2393.57,0.24198
2387.79,0.24373
2382,0.24659
2376.21,0.24968
2370.43,0.25371
2364.64,0.25821
2358.86,0.26239
2353.07,0.26686
2347.28,0.27095
2341.5,0.27499
2335.71,0.27763
2329.92,0.27940
2324.14,0.28162
2318.35,0.28389
2312.57,0.28564
2306.78,0.28443
2300.99,0.28149
2295.21,0.27669
2289.42,0.27234
2283.63,0.27069
2277.85,0.26976
2272.06,0.26766
2266.28,0.26309
2260.49,0.25659
2254.7,0.24876
2248.92,0.23925
2243.13,0.23446
2237.34,0.23993
2231.56,0.25343
2225.77,0.26018
2219.99,0.26345
2214.2,0.26647
2208.41,0.26863
2202.63,0.27042
2196.84,0.26982
2191.05,0.26790
2185.27,0.26491
2179.48,0.26000
2173.7,0.25428
2167.91,0.24781
2162.12,0.24140
2156.34,0.23622
2150.55,0.23193
2144.76,0.22866
2138.98,0.22522
2133.19,0.22336
2127.41,0.22265
2121.62,0.22306
2115.83,0.22400
2110.05,0.22643
2104.26,0.22935
2098.47,0.23168
2092.69,0.23476
2086.9,0.23847
2081.12,0.24166
2075.33,0.24426
2069.54,0.24658
2063.76,0.24966
2057.97,0.25281
2052.19,0.25506
2046.4,0.25671
2040.61,0.25916
2034.83,0.26183
2029.04,0.26573
2023.25,0.26895
2017.47,0.27185
2011.68,0.27293
2005.9,0.27251
2000.11,0.27067
1994.32,0.26871
1988.54,0.26704
1982.75,0.26611
1976.96,0.26370
1971.18,0.25864
1965.39,0.25033
1959.61,0.24438
1953.82,0.24871
1948.03,0.25711
1942.25,0.26790
1936.46,0.27800
1930.67,0.28681
1924.89,0.29323
1919.1,0.29801
1913.32,0.30274
1907.53,0.30577
1901.74,0.30808
1895.96,0.30908
1890.17,0.30878
1884.38,0.30809
1878.6,0.30683
1872.81,0.30426
1867.03,0.30008
1861.24,0.29405
1855.45,0.28543
1849.67,0.27440
1843.88,0.26281
1838.09,0.25240
1832.31,0.24418
1826.52,0.23787
1820.74,0.23427
1814.95,0.23175
1809.16,0.22836
1803.38,0.22433
1797.59,0.22043
1791.8,0.21490
1786.02,0.20832
1780.23,0.20007
1774.45,0.19077
1768.66,0.17846
1762.87,0.16429
1757.09,0.14494
1751.3,0.12165
1745.51,0.09908
1739.73,0.08914
1733.94,0.08876
1728.16,0.09200
1722.37,0.09574
1716.58,0.09876
1710.8,0.09852
1705.01,0.10269
1699.22,0.10971
1693.44,0.11233
1687.65,0.11095
1681.87,0.10803
1676.08,0.10852
1670.29,0.10813
1664.51,0.10968
1658.72,0.11070
1652.93,0.10988
1647.15,0.10877
1641.36,0.10855
1635.58,0.10974
1629.79,0.11133
1624,0.11390
1618.22,0.11361
1612.43,0.11396
1606.64,0.12144
1600.86,0.12804
1595.07,0.13203
1589.29,0.13225
1583.5,0.12412
1577.71,0.11663
1571.93,0.12896
1566.14,0.13850
1560.35,0.14171
1554.57,0.14058
1548.78,0.14028
1543,0.13979
1537.21,0.13768
1531.42,0.13361
1525.64,0.12808
1519.85,0.12497
1514.07,0.11802
1508.28,0.09465
1502.49,0.08978
1496.71,0.10558
1490.92,0.10040
1485.13,0.08168
1479.35,0.06599
1473.56,0.05600
1467.78,0.05025
1461.99,0.04336
1456.2,0.03851
1450.42,0.03721
1444.63,0.03779
1438.84,0.03642
1433.06,0.03580
1427.27,0.03695
1421.49,0.03702
1415.7,0.03377
1409.91,0.03306
1404.13,0.03602
1398.34,0.03904
1392.55,0.03879
1386.77,0.03471
1380.98,0.02968
1375.2,0.02691
1369.41,0.02645
1363.62,0.02820
1357.84,0.02862
1352.05,0.02849
1346.26,0.02713
1340.48,0.02666
1334.69,0.02713
1328.91,0.02893
1323.12,0.02743
1317.33,0.02563
1311.55,0.02615
1305.76,0.02805
1299.97,0.02996
1294.19,0.03057
1288.4,0.03111
1282.62,0.03129
1276.83,0.03487
1271.04,0.03841
1265.26,0.03926
1259.47,0.03902
1253.68,0.03865
1247.9,0.03784
1242.11,0.03715
1236.33,0.03555
1230.54,0.03756
1224.75,0.04009
1218.97,0.04365
1213.18,0.04318
1207.39,0.03911
1201.61,0.03962
1195.82,0.04274
1190.04,0.04350
1184.25,0.03983
1178.46,0.03387
1172.68,0.03260
1166.89,0.03574
1161.1,0.03311
1155.32,0.02887
1149.53,0.02487
1143.75,0.02189
1137.96,0.02055
1132.17,0.02091
1126.39,0.02200
1120.6,0.02373
1114.81,0.02448
1109.03,0.02538
1103.24,0.02529
1097.46,0.02454
1091.67,0.02487
1085.88,0.02576
1080.1,0.03055
1074.31,0.03691
1068.52,0.04305
1062.74,0.04971
1056.95,0.04847
1051.17,0.04361
1045.38,0.03876
1039.59,0.03973
1033.81,0.04271
1028.02,0.03981
1022.24,0.03733
1016.45,0.03907
1010.66,0.04693
1004.88,0.05094
999.09,0.05264
993.304,0.05458
987.518,0.05479
981.731,0.05771
975.945,0.06405
970.159,0.07041
964.373,0.08249
958.586,0.09844
952.8,0.11290
947.014,0.12491
941.228,0.13046
935.441,0.13309
929.655,0.13382
923.869,0.13509
918.083,0.13095
912.297,0.11824
906.51,0.10323
900.724,0.09236
894.938,0.09115
889.152,0.10038
883.365,0.10646
877.579,0.10378
871.793,0.10671
866.007,0.12482
860.22,0.12553
854.434,0.11780
848.648,0.11042
842.862,0.11596
837.075,0.12350
831.289,0.12760
825.503,0.12936
819.717,0.12780
813.931,0.12371
808.144,0.11935
802.358,0.11414
796.572,0.10505
790.786,0.10000
784.999,0.10486
779.213,0.10469
773.427,0.10214
767.641,0.09862
761.854,0.09476
756.068,0.08773
750.282,0.08002
744.496,0.06826
738.709,0.05198
732.923,0.04196
727.137,0.04158
721.351,0.04644
715.565,0.05723
709.778,0.05930
703.992,0.06060
698.206,0.06517
692.42,0.06527
686.633,0.06424
680.847,0.05955
675.061,0.05801
669.275,0.05744
663.488,0.05822
657.702,0.06126
651.916,0.05975
646.13,0.05855
640.343,0.05795
634.557,0.05244
628.771,0.05119
622.985,0.05413
617.198,0.05290
611.412,0.05497
605.626,0.05748
599.84,0.05640