File: 01_Data/Cotton_Rug/FTIR/IS/Cotton_Rug_IS_T_220822_R8.dpt
7497.03,0.01920
7491.25,0.01834
7485.46,0.01579
7479.67,0.03157
7473.89,0.01486
7468.1,0.02576
7462.32,0.03154
7456.53,0.02136
7450.74,0.01939
7444.96,0.02278
7439.17,0.03189
7433.38,0.02800
7427.6,0.02225
7421.81,0.02511
7416.03,0.02136
7410.24,0.02192
7404.45,0.00944
7398.67,0.02156
7392.88,0.03752
7387.09,0.02397
7381.31,0.02088
7375.52,0.02687
7369.74,0.01584
7363.95,0.01704
7358.16,0.02822
7352.38,0.02242
7346.59,0.03263
7340.8,0.02495
7335.02,0.02693
7329.23,0.01737
7323.45,0.02342
7317.66,0.02462
7311.87,0.02366
7306.09,0.02078
7300.3,0.01695
7294.51,0.01908
7288.73,0.02057
7282.94,0.02691
7277.16,0.02918
7271.37,0.01707
7265.58,0.01557
7259.8,0.02101
7254.01,0.02106
7248.22,0.02140
7242.44,0.01835
7236.65,0.01998
7230.87,0.01542
7225.08,0.02010
7219.29,0.02132
7213.51,0.02575
7207.72,0.02263
7201.93,0.01630
7196.15,0.02561
7190.36,0.02099
7184.58,0.02458
7178.79,0.02488
7173,0.02015
7167.22,0.01541
7161.43,0.01833
7155.65,0.01863
7149.86,0.02212
7144.07,0.02149
7138.29,0.02743
7132.5,0.02209
7126.71,0.02194
7120.93,0.02335
7115.14,0.02287
7109.36,0.01639
7103.57,0.02025
7097.78,0.02474
7092,0.01483
7086.21,0.02600
7080.42,0.02112
7074.64,0.02642
7068.85,0.01517
7063.07,0.02259
7057.28,0.02031
7051.49,0.02503
7045.71,0.01775
7039.92,0.01832
7034.13,0.02425
7028.35,0.02443
7022.56,0.02079
7016.78,0.02110
7010.99,0.02325
7005.2,0.01818
6999.42,0.01826
6993.63,0.02012
6987.84,0.01361
6982.06,0.02214
6976.27,0.01657
6970.49,0.02619
6964.7,0.02069
6958.91,0.01326
6953.13,0.02344
6947.34,0.01822
6941.55,0.01541
6935.77,0.01556
6929.98,0.02061
6924.2,0.02306
6918.41,0.02338
6912.62,0.01801
6906.84,0.01772
6901.05,0.02401
6895.26,0.01968
6889.48,0.01966
6883.69,0.02152
6877.91,0.02402
6872.12,0.02306
6866.33,0.02458
6860.55,0.01830
6854.76,0.01883
6848.97,0.02254
6843.19,0.02152
6837.4,0.01516
6831.62,0.02217
6825.83,0.02126
6820.04,0.02067
6814.26,0.01492
6808.47,0.01790
6802.68,0.02401
6796.9,0.02007
6791.11,0.02137
6785.33,0.01812
6779.54,0.01981
6773.75,0.01299
6767.97,0.01965
6762.18,0.02181
6756.39,0.02047
6750.61,0.01788
6744.82,0.01749
6739.04,0.02008
6733.25,0.02546
6727.46,0.02152
6721.68,0.02067
6715.89,0.01838
6710.1,0.02475
6704.32,0.02368
6698.53,0.02003
6692.75,0.01859
6686.96,0.02281
6681.17,0.01937
6675.39,0.02030
6669.6,0.02075
6663.82,0.01911
6658.03,0.02005
6652.24,0.01994
6646.46,0.02198
6640.67,0.01795
6634.88,0.01867
6629.1,0.02057
6623.31,0.01641
6617.53,0.02022
6611.74,0.02097
6605.95,0.02001
6600.17,0.02274
6594.38,0.02073
6588.59,0.01590
6582.81,0.01948
6577.02,0.02458
6571.24,0.01356
6565.45,0.02038
6559.66,0.01887
6553.88,0.01949
6548.09,0.02259
6542.3,0.01896
6536.52,0.01819
6530.73,0.01715
6524.95,0.01530
6519.16,0.02198
6513.37,0.02205
6507.59,0.01248
6501.8,0.01238
6496.01,0.01412
6490.23,0.01764
6484.44,0.01524
6478.66,0.01539
6472.87,0.01819
6467.08,0.02060
6461.3,0.01826
6455.51,0.01529
6449.72,0.01787
6443.94,0.02057
6438.15,0.01735
6432.37,0.01836
6426.58,0.01631
6420.79,0.01739
6415.01,0.01708
6409.22,0.01815
6403.43,0.01825
6397.65,0.01680
6391.86,0.02092
6386.08,0.01893
6380.29,0.02142
6374.5,0.02226
6368.72,0.01757
6362.93,0.01782
6357.14,0.01962
6351.36,0.02132
6345.57,0.01684
6339.79,0.01875
6334,0.01798
6328.21,0.01801
6322.43,0.02051
6316.64,0.01775
6310.85,0.01624
6305.07,0.01901
6299.28,0.01987
6293.5,0.01828
6287.71,0.01730
6281.92,0.02120
6276.14,0.01844
6270.35,0.01856
6264.56,0.02167
6258.78,0.01958
6252.99,0.02080
6247.21,0.01786
6241.42,0.01947
6235.63,0.02093
6229.85,0.02059
6224.06,0.02091
6218.27,0.01588
6212.49,0.02107
6206.7,0.01765
6200.92,0.01989
6195.13,0.01780
6189.34,0.01571
6183.56,0.02027
6177.77,0.01995
6171.98,0.02021
6166.2,0.01707
6160.41,0.01917
6154.63,0.01954
6148.84,0.01560
6143.05,0.01763
6137.27,0.01921
6131.48,0.02122
6125.7,0.02058
6119.91,0.01714
6114.12,0.01831
6108.34,0.02011
6102.55,0.01769
6096.76,0.01847
6090.98,0.02027
6085.19,0.01814
6079.41,0.01759
6073.62,0.01991
6067.83,0.02073
6062.05,0.02021
6056.26,0.01797
6050.47,0.02074
6044.69,0.01954
6038.9,0.01848
6033.12,0.01827
6027.33,0.01952
6021.54,0.01951
6015.76,0.01783
6009.97,0.02144
6004.18,0.01989
5998.4,0.01867
5992.61,0.01924
5986.83,0.01666
5981.04,0.01738
5975.25,0.01943
5969.47,0.01924
5963.68,0.01891
5957.89,0.01824
5952.11,0.01797
5946.32,0.01718
5940.54,0.01888
5934.75,0.01872
5928.96,0.01931
5923.18,0.01860
5917.39,0.01652
5911.6,0.01818
5905.82,0.01788
5900.03,0.02011
5894.25,0.01801
5888.46,0.01805
5882.67,0.01881
5876.89,0.01910
5871.1,0.01971
5865.31,0.01885
5859.53,0.02029
5853.74,0.01897
5847.96,0.01732
5842.17,0.01813
5836.38,0.01702
5830.6,0.01851
5824.81,0.01881
5819.02,0.01869
5813.24,0.01866
5807.45,0.02074
5801.67,0.01960
5795.88,0.02004
5790.09,0.01666
5784.31,0.01679
5778.52,0.01712
5772.73,0.01838
5766.95,0.01762
5761.16,0.01925
5755.38,0.02002
5749.59,0.01994
5743.8,0.01885
5738.02,0.01869
5732.23,0.01942
5726.44,0.01823
5720.66,0.01939
5714.87,0.01827
5709.09,0.01849
5703.3,0.01847
5697.51,0.01844
5691.73,0.01910
5685.94,0.02075
5680.15,0.02007
5674.37,0.01959
5668.58,0.02116
5662.8,0.02002
5657.01,0.01821
5651.22,0.01722
5645.44,0.01903
5639.65,0.01754
5633.87,0.01885
5628.08,0.01828
5622.29,0.01902
5616.51,0.01906
5610.72,0.02033
5604.93,0.01855
5599.15,0.01915
5593.36,0.01848
5587.58,0.02034
5581.79,0.01925
5576,0.01901
5570.22,0.01948
5564.43,0.01978
5558.64,0.01859
5552.86,0.02112
5547.07,0.01985
5541.29,0.02012
5535.5,0.01842
5529.71,0.01840
5523.93,0.01672
5518.14,0.01847
5512.35,0.01964
5506.57,0.01901
5500.78,0.01820
5495,0.01936
5489.21,0.01990
5483.42,0.01966
5477.64,0.01991
5471.85,0.01783
5466.06,0.01918
5460.28,0.01933
5454.49,0.02033
5448.71,0.02139
5442.92,0.01822
5437.13,0.01868
5431.35,0.02038
5425.56,0.01878
5419.77,0.01979
5413.99,0.01967
5408.2,0.01859
5402.42,0.01862
5396.63,0.01769
5390.84,0.02038
5385.06,0.01840
5379.27,0.01760
5373.48,0.01904
5367.7,0.01814
5361.91,0.01900
5356.13,0.01984
5350.34,0.01968
5344.55,0.01923
5338.77,0.01881
5332.98,0.01874
5327.19,0.01919
5321.41,0.01845
5315.62,0.01782
5309.84,0.01894
5304.05,0.02040
5298.26,0.01967
5292.48,0.01861
5286.69,0.01968
5280.9,0.01793
5275.12,0.01872
5269.33,0.01856
5263.55,0.01972
5257.76,0.01835
5251.97,0.01875
5246.19,0.01836
5240.4,0.01920
5234.61,0.01885
5228.83,0.01873
5223.04,0.01908
5217.26,0.01945
5211.47,0.02015
5205.68,0.01870
5199.9,0.01846
5194.11,0.01882
5188.32,0.01981
5182.54,0.01959
5176.75,0.01901
5170.97,0.02031
5165.18,0.01942
5159.39,0.01996
5153.61,0.01939
5147.82,0.01953
5142.03,0.01899
5136.25,0.01920
5130.46,0.01901
5124.68,0.01861
5118.89,0.02094
5113.1,0.01859
5107.32,0.01935
5101.53,0.02062
5095.75,0.01941
5089.96,0.01887
5084.17,0.01785
5078.39,0.01886
5072.6,0.02027
5066.81,0.02000
5061.03,0.01892
5055.24,0.01861
5049.46,0.01904
5043.67,0.01906
5037.88,0.01926
5032.1,0.02013
5026.31,0.01966
5020.52,0.01936
5014.74,0.01783
5008.95,0.01872
5003.17,0.01805
4997.38,0.01988
4991.59,0.01987
4985.81,0.01885
4980.02,0.01918
4974.23,0.02003
4968.45,0.01959
4962.66,0.01974
4956.88,0.01881
4951.09,0.01935
4945.3,0.01970
4939.52,0.01884
4933.73,0.01931
4927.94,0.01860
4922.16,0.02008
4916.37,0.01978
4910.59,0.01911
4904.8,0.01955
4899.01,0.01991
4893.23,0.01951
4887.44,0.01876
4881.65,0.01882
4875.87,0.01999
4870.08,0.01930
4864.3,0.01947
4858.51,0.01963
4852.72,0.01897
4846.94,0.01910
4841.15,0.01935
4835.36,0.01972
4829.58,0.01822
4823.79,0.01912
4818.01,0.01856
4812.22,0.01863
4806.43,0.01992
4800.65,0.02041
4794.86,0.01955
4789.07,0.01985
4783.29,0.01948
4777.5,0.01928
4771.72,0.01935
4765.93,0.01959
4760.14,0.01984
4754.36,0.01949
4748.57,0.01924
4742.78,0.01851
4737,0.01977
4731.21,0.01932
4725.43,0.01932
4719.64,0.01878
4713.85,0.01912
4708.07,0.01943
4702.28,0.01888
4696.49,0.01928
4690.71,0.01916
4684.92,0.01964
4679.14,0.01959
4673.35,0.01975
4667.56,0.01997
4661.78,0.01822
4655.99,0.01976
4650.2,0.01868
4644.42,0.01922
4638.63,0.01955
4632.85,0.01942
4627.06,0.01899
4621.27,0.01989
4615.49,0.01923
4609.7,0.01865
4603.92,0.01995
4598.13,0.01971
4592.34,0.02039
4586.56,0.02006
4580.77,0.02023
4574.98,0.01872
4569.2,0.01951
4563.41,0.02000
4557.63,0.01985
4551.84,0.01961
4546.05,0.01946
4540.27,0.01941
4534.48,0.01877
4528.69,0.01935
4522.91,0.01987
4517.12,0.01960
4511.34,0.01920
4505.55,0.01892
4499.76,0.01895
4493.98,0.01951
4488.19,0.01904
4482.4,0.01940
4476.62,0.01841
4470.83,0.02012
4465.05,0.01949
4459.26,0.01961
4453.47,0.01980
4447.69,0.01977
4441.9,0.01825
4436.11,0.01926
4430.33,0.01980
4424.54,0.01967
4418.76,0.01910
4412.97,0.01925
4407.18,0.01953
4401.4,0.01901
4395.61,0.01934
4389.82,0.01963
4384.04,0.01937
4378.25,0.02017
4372.47,0.01900
4366.68,0.01973
4360.89,0.01933
4355.11,0.01866
4349.32,0.01889
4343.53,0.01990
4337.75,0.01995
4331.96,0.01896
4326.18,0.01945
4320.39,0.02003
4314.6,0.01938
4308.82,0.01990
4303.03,0.01917
4297.24,0.01974
4291.46,0.01923
4285.67,0.01913
4279.89,0.01928
4274.1,0.01912
4268.31,0.01934
4262.53,0.01896
4256.74,0.01945
4250.95,0.01940
4245.17,0.01915
4239.38,0.02003
4233.6,0.01942
4227.81,0.01967
4222.02,0.02036
4216.24,0.01976
4210.45,0.01974
4204.66,0.02004
4198.88,0.01923
4193.09,0.01876
4187.31,0.01963
4181.52,0.01980
4175.73,0.01941
4169.95,0.01974
4164.16,0.01921
4158.37,0.01979
4152.59,0.01984
4146.8,0.01922
4141.02,0.01927
4135.23,0.02017
4129.44,0.01998
4123.66,0.01951
4117.87,0.01916
4112.09,0.01945
4106.3,0.01989
4100.51,0.01992
4094.73,0.01950
4088.94,0.02002
4083.15,0.01960
4077.37,0.01982
4071.58,0.02003
4065.8,0.01983
4060.01,0.02008
4054.22,0.01943
4048.44,0.02061
4042.65,0.02012
4036.86,0.01928
4031.08,0.01989
4025.29,0.01995
4019.51,0.01979
4013.72,0.01952
4007.93,0.01991
4002.15,0.01939
3996.36,0.02023
3990.57,0.01981
3984.79,0.01979
3979,0.02001
3973.22,0.01900
3967.43,0.01933
3961.64,0.01937
3955.86,0.01892
3950.07,0.01972
3944.28,0.01965
3938.5,0.01975
3932.71,0.02019
3926.93,0.01981
3921.14,0.01952
3915.35,0.01975
3909.57,0.01902
3903.78,0.01967
3897.99,0.02047
3892.21,0.01997
3886.42,0.02031
3880.64,0.01991
3874.85,0.01968
3869.06,0.01991
3863.28,0.01974
3857.49,0.01982
3851.7,0.01970
3845.92,0.01946
3840.13,0.01962
3834.35,0.01945
3828.56,0.01928
3822.77,0.01970
3816.99,0.01989
3811.2,0.01992
3805.41,0.01953
3799.63,0.01924
3793.84,0.01964
3788.06,0.01954
3782.27,0.01993
3776.48,0.01949
3770.7,0.02015
3764.91,0.01960
3759.12,0.01967
3753.34,0.01989
3747.55,0.01937
3741.77,0.01905
3735.98,0.01957
3730.19,0.01979
3724.41,0.01892
3718.62,0.01853
3712.83,0.01980
3707.05,0.01984
3701.26,0.01933
3695.48,0.01984
3689.69,0.01892
3683.9,0.01920
3678.12,0.01900
3672.33,0.01920
3666.54,0.01869
3660.76,0.01925
3654.97,0.01929
3649.19,0.01925
3643.4,0.01933
3637.61,0.01955
3631.83,0.01941
3626.04,0.01889
3620.25,0.01892
3614.47,0.01895
3608.68,0.01890
3602.9,0.01888
3597.11,0.01839
3591.32,0.01862
3585.54,0.01819
3579.75,0.01864
3573.97,0.01826
3568.18,0.01772
3562.39,0.01811
3556.61,0.01866
3550.82,0.01839
3545.03,0.01875
3539.25,0.01828
3533.46,0.01901
3527.68,0.01834
3521.89,0.01898
3516.1,0.01783
3510.32,0.01761
3504.53,0.01805
3498.74,0.01861
3492.96,0.01803
3487.17,0.01765
3481.39,0.01820
3475.6,0.01761
3469.81,0.01758
3464.03,0.01755
3458.24,0.01782
3452.45,0.01774
3446.67,0.01837
3440.88,0.01769
3435.1,0.01770
3429.31,0.01792
3423.52,0.01785
3417.74,0.01790
3411.95,0.01698
3406.16,0.01723
3400.38,0.01724
3394.59,0.01769
3388.81,0.01799
3383.02,0.01704
3377.23,0.01715
3371.45,0.01720
3365.66,0.01709
3359.87,0.01793
3354.09,0.01733
3348.3,0.01763
3342.52,0.01690
3336.73,0.01774
3330.94,0.01727
3325.16,0.01754
3319.37,0.01787
3313.58,0.01684
3307.8,0.01775
3302.01,0.01733
3296.23,0.01732
3290.44,0.01787
3284.65,0.01782
3278.87,0.01743
3273.08,0.01799
3267.29,0.01753
3261.51,0.01717
3255.72,0.01810
3249.94,0.01759
3244.15,0.01767
3238.36,0.01774
3232.58,0.01745
3226.79,0.01796
3221,0.01865
3215.22,0.01767
3209.43,0.01757
3203.65,0.01753
3197.86,0.01830
3192.07,0.01776
3186.29,0.01813
3180.5,0.01718
3174.71,0.01730
3168.93,0.01788
3163.14,0.01742
3157.36,0.01810
3151.57,0.01796
3145.78,0.01747
3140,0.01805
3134.21,0.01819
3128.42,0.01849
3122.64,0.01799
3116.85,0.01819
3111.07,0.01837
3105.28,0.01807
3099.49,0.01794
3093.71,0.01834
3087.92,0.01840
3082.14,0.01734
3076.35,0.01816
3070.56,0.01838
3064.78,0.01786
3058.99,0.01820
3053.2,0.01788
3047.42,0.01763
3041.63,0.01782
3035.85,0.01797
3030.06,0.01809
3024.27,0.01825
3018.49,0.01791
3012.7,0.01742
3006.91,0.01781
3001.13,0.01723
2995.34,0.01720
2989.56,0.01719
2983.77,0.01744
2977.98,0.01721
2972.2,0.01674
2966.41,0.01676
2960.62,0.01717
2954.84,0.01676
2949.05,0.01651
2943.27,0.01674
2937.48,0.01714
2931.69,0.01663
2925.91,0.01724
2920.12,0.01727
2914.33,0.01766
2908.55,0.01727
2902.76,0.01757
2896.98,0.01729
2891.19,0.01737
2885.4,0.01718
2879.62,0.01701
2873.83,0.01763
2868.04,0.01749
2862.26,0.01747
2856.47,0.01793
2850.69,0.01778
2844.9,0.01838
2839.11,0.01843
2833.33,0.01859
2827.54,0.01843
2821.75,0.01829
2815.97,0.01831
2810.18,0.01857
2804.4,0.01856
2798.61,0.01841
2792.82,0.01859
2787.04,0.01849
2781.25,0.01832
2775.46,0.01862
2769.68,0.01803
2763.89,0.01842
2758.11,0.01823
2752.32,0.01767
2746.53,0.01840
2740.75,0.01805
2734.96,0.01818
2729.17,0.01861
2723.39,0.01834
2717.6,0.01797
2711.82,0.01829
2706.03,0.01871
2700.24,0.01791
2694.46,0.01838
2688.67,0.01800
2682.88,0.01828
2677.1,0.01838
2671.31,0.01806
2665.53,0.01842
2659.74,0.01839
2653.95,0.01831
2648.17,0.01863
2642.38,0.01827
2636.59,0.01852
2630.81,0.01823
2625.02,0.01844
2619.24,0.01865
2613.45,0.01839
2607.66,0.01843
2601.88,0.01827
2596.09,0.01805
2590.3,0.01791
2584.52,0.01842
2578.73,0.01838
2572.95,0.01811
2567.16,0.01834
2561.37,0.01811
2555.59,0.01829
2549.8,0.01822
2544.02,0.01804
2538.23,0.01872
2532.44,0.01852
2526.66,0.01803
2520.87,0.01853
2515.08,0.01854
2509.3,0.01840
2503.51,0.01841
2497.73,0.01833
2491.94,0.01865
2486.15,0.01839
2480.37,0.01831
2474.58,0.01817
2468.79,0.01865
2463.01,0.01857
2457.22,0.01832
2451.44,0.01851
2445.65,0.01843
2439.86,0.01835
2434.08,0.01841
2428.29,0.01866
2422.5,0.01864
2416.72,0.01822
2410.93,0.01838
2405.15,0.01845
2399.36,0.01838
2393.57,0.01817
2387.79,0.01823
2382,0.01851
2376.21,0.01838
2370.43,0.01846
2364.64,0.01821
2358.86,0.01841
2353.07,0.01844
2347.28,0.01866
2341.5,0.01849
2335.71,0.01838
2329.92,0.01846
2324.14,0.01818
2318.35,0.01824
2312.57,0.01825
2306.78,0.01843
2300.99,0.01828
2295.21,0.01825
2289.42,0.01841
2283.63,0.01799
2277.85,0.01831
2272.06,0.01827
2266.28,0.01845
2260.49,0.01786
2254.7,0.01860
2248.92,0.01860
2243.13,0.01806
2237.34,0.01848
2231.56,0.01797
2225.77,0.01804
2219.99,0.01821
2214.2,0.01796
2208.41,0.01833
2202.63,0.01826
2196.84,0.01838
2191.05,0.01800
2185.27,0.01776
2179.48,0.01829
2173.7,0.01846
2167.91,0.01809
2162.12,0.01797
2156.34,0.01839
2150.55,0.01831
2144.76,0.01823
2138.98,0.01821
2133.19,0.01840
2127.41,0.01833
2121.62,0.01806
2115.83,0.01827
2110.05,0.01812
2104.26,0.01824
2098.47,0.01796
2092.69,0.01810
2086.9,0.01810
2081.12,0.01793
2075.33,0.01835
2069.54,0.01811
2063.76,0.01793
2057.97,0.01826
2052.19,0.01795
2046.4,0.01777
2040.61,0.01799
2034.83,0.01829
2029.04,0.01812
2023.25,0.01801
2017.47,0.01799
2011.68,0.01782
2005.9,0.01788
2000.11,0.01780
1994.32,0.01814
1988.54,0.01823
1982.75,0.01796
1976.96,0.01782
1971.18,0.01803
1965.39,0.01788
1959.61,0.01789
1953.82,0.01793
1948.03,0.01784
1942.25,0.01798
1936.46,0.01756
1930.67,0.01787
1924.89,0.01816
1919.1,0.01823
1913.32,0.01797
1907.53,0.01784
1901.74,0.01793
1895.96,0.01767
1890.17,0.01804
1884.38,0.01769
1878.6,0.01758
1872.81,0.01772
1867.03,0.01735
1861.24,0.01739
1855.45,0.01750
1849.67,0.01718
1843.88,0.01760
1838.09,0.01740
1832.31,0.01727
1826.52,0.01729
1820.74,0.01670
1814.95,0.01710
1809.16,0.01683
1803.38,0.01706
1797.59,0.01694
1791.8,0.01661
1786.02,0.01644
1780.23,0.01602
1774.45,0.01590
1768.66,0.01563
1762.87,0.01532
1757.09,0.01470
1751.3,0.01441
1745.51,0.01517
1739.73,0.01602
1733.94,0.01679
1728.16,0.01742
1722.37,0.01768
1716.58,0.01797
1710.8,0.01758
1705.01,0.01736
1699.22,0.01689
1693.44,0.01630
1687.65,0.01613
1681.87,0.01595
1676.08,0.01601
1670.29,0.01602
1664.51,0.01604
1658.72,0.01539
1652.93,0.01539
1647.15,0.01600
1641.36,0.01560
1635.58,0.01561
1629.79,0.01583
1624,0.01640
1618.22,0.01605
1612.43,0.01627
1606.64,0.01615
1600.86,0.01631
1595.07,0.01616
1589.29,0.01606
1583.5,0.01549
1577.71,0.01607
1571.93,0.01564
1566.14,0.01501
1560.35,0.01553
1554.57,0.01502
1548.78,0.01576
1543,0.01567
1537.21,0.01567
1531.42,0.01622
1525.64,0.01615
1519.85,0.01535
1514.07,0.01558
1508.28,0.01593
1502.49,0.01549
1496.71,0.01595
1490.92,0.01599
1485.13,0.01604
1479.35,0.01553
1473.56,0.01554
1467.78,0.01544
1461.99,0.01568
1456.2,0.01552
1450.42,0.01605
1444.63,0.01546
1438.84,0.01554
1433.06,0.01598
1427.27,0.01569
1421.49,0.01571
1415.7,0.01565
1409.91,0.01542
1404.13,0.01530
1398.34,0.01545
1392.55,0.01577
1386.77,0.01526
1380.98,0.01550
1375.2,0.01551
1369.41,0.01552
1363.62,0.01537
1357.84,0.01535
1352.05,0.01530
1346.26,0.01517
1340.48,0.01486
1334.69,0.01476
1328.91,0.01449
1323.12,0.01428
1317.33,0.01450
1311.55,0.01436
1305.76,0.01409
1299.97,0.01482
1294.19,0.01476
1288.4,0.01547
1282.62,0.01556
1276.83,0.01586
1271.04,0.01679
1265.26,0.01697
1259.47,0.01675
1253.68,0.01689
1247.9,0.01739
1242.11,0.01745
1236.33,0.01673
1230.54,0.01636
1224.75,0.01618
1218.97,0.01633
1213.18,0.01548
1207.39,0.01527
1201.61,0.01547
1195.82,0.01614
1190.04,0.01545
1184.25,0.01548
1178.46,0.01492
1172.68,0.01462
1166.89,0.01484
1161.1,0.01461
1155.32,0.01430
1149.53,0.01458
1143.75,0.01484
1137.96,0.01540
1132.17,0.01449
1126.39,0.01513
1120.6,0.01577
1114.81,0.01626
1109.03,0.01581
1103.24,0.01524
1097.46,0.01526
1091.67,0.01486
1085.88,0.01488
1080.1,0.01566
1074.31,0.01676
1068.52,0.01735
1062.74,0.01669
1056.95,0.01614
1051.17,0.01651
1045.38,0.01677
1039.59,0.01683
1033.81,0.01684
1028.02,0.01633
1022.24,0.01687
1016.45,0.01741
1010.66,0.01731
1004.88,0.01797
999.09,0.01802
993.304,0.01843
987.518,0.01804
981.731,0.01724
975.945,0.01715
970.159,0.01715
964.373,0.01728
958.586,0.01694
952.8,0.01730
947.014,0.01693
941.228,0.01647
935.441,0.01603
929.655,0.01604
923.869,0.01650
918.083,0.01677
912.297,0.01601
906.51,0.01663
900.724,0.01587
894.938,0.01581
889.152,0.01643
883.365,0.01568
877.579,0.01654
871.793,0.01619
866.007,0.01565
860.22,0.01602
854.434,0.01704
848.648,0.01633
842.862,0.01576
837.075,0.01570
831.289,0.01679
825.503,0.01608
819.717,0.01652
813.931,0.01538
808.144,0.01585
802.358,0.01594
796.572,0.01659
790.786,0.01635
784.999,0.01518
779.213,0.01607
773.427,0.01579
767.641,0.01523
761.854,0.01504
756.068,0.01575
750.282,0.01507
744.496,0.01488
738.709,0.01630
732.923,0.01595
727.137,0.01530
721.351,0.01529
715.565,0.01560
709.778,0.01440
703.992,0.01493
698.206,0.01424
692.42,0.01391
686.633,0.01488
680.847,0.01549
675.061,0.01294
669.275,0.01390
663.488,0.01339
657.702,0.01520
651.916,0.01446
646.13,0.01341
640.343,0.01316
634.557,0.01376
628.771,0.01382
622.985,0.01395
617.198,0.01161
611.412,0.01334
605.626,0.01495
599.84,0.01130