File: 01_Data/Cotton_Rug/FTIR/IS/Cotton_Rug_IS_S_220822_R2.dpt
7497.03,0.68184
7491.25,0.68746
7485.46,0.68897
7479.67,0.68518
7473.89,0.67538
7468.1,0.67667
7462.32,0.67726
7456.53,0.67484
7450.74,0.68096
7444.96,0.66745
7439.17,0.66785
7433.38,0.66792
7427.6,0.66952
7421.81,0.66366
7416.03,0.66923
7410.24,0.67183
7404.45,0.66674
7398.67,0.66578
7392.88,0.66942
7387.09,0.66363
7381.31,0.65776
7375.52,0.65650
7369.74,0.65524
7363.95,0.65437
7358.16,0.65906
7352.38,0.65364
7346.59,0.64668
7340.8,0.65221
7335.02,0.64817
7329.23,0.64475
7323.45,0.65193
7317.66,0.65184
7311.87,0.64489
7306.09,0.64858
7300.3,0.64788
7294.51,0.64957
7288.73,0.63899
7282.94,0.63877
7277.16,0.64583
7271.37,0.63785
7265.58,0.64564
7259.8,0.65085
7254.01,0.64941
7248.22,0.63952
7242.44,0.64391
7236.65,0.64004
7230.87,0.64101
7225.08,0.63929
7219.29,0.63998
7213.51,0.64152
7207.72,0.64337
7201.93,0.63885
7196.15,0.63840
7190.36,0.63324
7184.58,0.63348
7178.79,0.64159
7173,0.63754
7167.22,0.63674
7161.43,0.63442
7155.65,0.63542
7149.86,0.63862
7144.07,0.63610
7138.29,0.62419
7132.5,0.62297
7126.71,0.62949
7120.93,0.62185
7115.14,0.62355
7109.36,0.62035
7103.57,0.61378
7097.78,0.61189
7092,0.61075
7086.21,0.61371
7080.42,0.61043
7074.64,0.60580
7068.85,0.60408
7063.07,0.59668
7057.28,0.59293
7051.49,0.58722
7045.71,0.58537
7039.92,0.58345
7034.13,0.57886
7028.35,0.57744
7022.56,0.57143
7016.78,0.57075
7010.99,0.57165
7005.2,0.57106
6999.42,0.56954
6993.63,0.56110
6987.84,0.56012
6982.06,0.56869
6976.27,0.55138
6970.49,0.55307
6964.7,0.55704
6958.91,0.55536
6953.13,0.55337
6947.34,0.55691
6941.55,0.54894
6935.77,0.54645
6929.98,0.54748
6924.2,0.54865
6918.41,0.55030
6912.62,0.54843
6906.84,0.54823
6901.05,0.54857
6895.26,0.54880
6889.48,0.54404
6883.69,0.54370
6877.91,0.54581
6872.12,0.54137
6866.33,0.53819
6860.55,0.54048
6854.76,0.54235
6848.97,0.53621
6843.19,0.53903
6837.4,0.53179
6831.62,0.53320
6825.83,0.53058
6820.04,0.53324
6814.26,0.52965
6808.47,0.52708
6802.68,0.53140
6796.9,0.53052
6791.11,0.52515
6785.33,0.52644
6779.54,0.52466
6773.75,0.52410
6767.97,0.52075
6762.18,0.52433
6756.39,0.52175
6750.61,0.52317
6744.82,0.51871
6739.04,0.52381
6733.25,0.52318
6727.46,0.51947
6721.68,0.51924
6715.89,0.52002
6710.1,0.51968
6704.32,0.51794
6698.53,0.51755
6692.75,0.51956
6686.96,0.51512
6681.17,0.52178
6675.39,0.52274
6669.6,0.52102
6663.82,0.52069
6658.03,0.52096
6652.24,0.51794
6646.46,0.52588
6640.67,0.52456
6634.88,0.52085
6629.1,0.52691
6623.31,0.52768
6617.53,0.52516
6611.74,0.52966
6605.95,0.52590
6600.17,0.53154
6594.38,0.53043
6588.59,0.53022
6582.81,0.53347
6577.02,0.53545
6571.24,0.53152
6565.45,0.53569
6559.66,0.53715
6553.88,0.53298
6548.09,0.53490
6542.3,0.53229
6536.52,0.52727
6530.73,0.53214
6524.95,0.53613
6519.16,0.53322
6513.37,0.53355
6507.59,0.53452
6501.8,0.52902
6496.01,0.52674
6490.23,0.53147
6484.44,0.53438
6478.66,0.53456
6472.87,0.53377
6467.08,0.53039
6461.3,0.53000
6455.51,0.53527
6449.72,0.53302
6443.94,0.53399
6438.15,0.53120
6432.37,0.53997
6426.58,0.53638
6420.79,0.53437
6415.01,0.53633
6409.22,0.53663
6403.43,0.53933
6397.65,0.53634
6391.86,0.54127
6386.08,0.53856
6380.29,0.53771
6374.5,0.53876
6368.72,0.54185
6362.93,0.54258
6357.14,0.53696
6351.36,0.53699
6345.57,0.53787
6339.79,0.54141
6334,0.54032
6328.21,0.54216
6322.43,0.53980
6316.64,0.54134
6310.85,0.54628
6305.07,0.54333
6299.28,0.54066
6293.5,0.54383
6287.71,0.54254
6281.92,0.54443
6276.14,0.54474
6270.35,0.54845
6264.56,0.54957
6258.78,0.55185
6252.99,0.54932
6247.21,0.55547
6241.42,0.55774
6235.63,0.55601
6229.85,0.55753
6224.06,0.56203
6218.27,0.56209
6212.49,0.56251
6206.7,0.56145
6200.92,0.56479
6195.13,0.56802
6189.34,0.56438
6183.56,0.57073
6177.77,0.57040
6171.98,0.57204
6166.2,0.57410
6160.41,0.57543
6154.63,0.57748
6148.84,0.57700
6143.05,0.57621
6137.27,0.57877
6131.48,0.57981
6125.7,0.58059
6119.91,0.58011
6114.12,0.58205
6108.34,0.57838
6102.55,0.57936
6096.76,0.57568
6090.98,0.57405
6085.19,0.57133
6079.41,0.57346
6073.62,0.57145
6067.83,0.56969
6062.05,0.56295
6056.26,0.55873
6050.47,0.55409
6044.69,0.55447
6038.9,0.55447
6033.12,0.54829
6027.33,0.54516
6021.54,0.54379
6015.76,0.54261
6009.97,0.54796
6004.18,0.55492
5998.4,0.55899
5992.61,0.56320
5986.83,0.56218
5981.04,0.56854
5975.25,0.56907
5969.47,0.57152
5963.68,0.57420
5957.89,0.57603
5952.11,0.57583
5946.32,0.57692
5940.54,0.57494
5934.75,0.57631
5928.96,0.57808
5923.18,0.57993
5917.39,0.58294
5911.6,0.58198
5905.82,0.58292
5900.03,0.58274
5894.25,0.58165
5888.46,0.57796
5882.67,0.57866
5876.89,0.57402
5871.1,0.57179
5865.31,0.57065
5859.53,0.57022
5853.74,0.57062
5847.96,0.56859
5842.17,0.57413
5836.38,0.57015
5830.6,0.56985
5824.81,0.56962
5819.02,0.56991
5813.24,0.56976
5807.45,0.56652
5801.67,0.56844
5795.88,0.56874
5790.09,0.56714
5784.31,0.56526
5778.52,0.56523
5772.73,0.56748
5766.95,0.56447
5761.16,0.56870
5755.38,0.56832
5749.59,0.56724
5743.8,0.57153
5738.02,0.57004
5732.23,0.57079
5726.44,0.57459
5720.66,0.57326
5714.87,0.57277
5709.09,0.57106
5703.3,0.57237
5697.51,0.57189
5691.73,0.57113
5685.94,0.57357
5680.15,0.57211
5674.37,0.57265
5668.58,0.57087
5662.8,0.57184
5657.01,0.57264
5651.22,0.57293
5645.44,0.57132
5639.65,0.57145
5633.87,0.57284
5628.08,0.57406
5622.29,0.57395
5616.51,0.57558
5610.72,0.57590
5604.93,0.57578
5599.15,0.57616
5593.36,0.57573
5587.58,0.57640
5581.79,0.57679
5576,0.57525
5570.22,0.57465
5564.43,0.57652
5558.64,0.57372
5552.86,0.57492
5547.07,0.57749
5541.29,0.57668
5535.5,0.57554
5529.71,0.57438
5523.93,0.57467
5518.14,0.57614
5512.35,0.57605
5506.57,0.57671
5500.78,0.57688
5495,0.57486
5489.21,0.57668
5483.42,0.57673
5477.64,0.57629
5471.85,0.57773
5466.06,0.57840
5460.28,0.57804
5454.49,0.58027
5448.71,0.57941
5442.92,0.58233
5437.13,0.58409
5431.35,0.58448
5425.56,0.58656
5419.77,0.58728
5413.99,0.59040
5408.2,0.58963
5402.42,0.59035
5396.63,0.59171
5390.84,0.59203
5385.06,0.59082
5379.27,0.59094
5373.48,0.59231
5367.7,0.59102
5361.91,0.59297
5356.13,0.59247
5350.34,0.59103
5344.55,0.59083
5338.77,0.59050
5332.98,0.58778
5327.19,0.58550
5321.41,0.58349
5315.62,0.58265
5309.84,0.57945
5304.05,0.57607
5298.26,0.57250
5292.48,0.56839
5286.69,0.56162
5280.9,0.55438
5275.12,0.54648
5269.33,0.53951
5263.55,0.53331
5257.76,0.52460
5251.97,0.51545
5246.19,0.50866
5240.4,0.50408
5234.61,0.49769
5228.83,0.49290
5223.04,0.48838
5217.26,0.48668
5211.47,0.48195
5205.68,0.48139
5199.9,0.47963
5194.11,0.47877
5188.32,0.47680
5182.54,0.47652
5176.75,0.47634
5170.97,0.47752
5165.18,0.47643
5159.39,0.47764
5153.61,0.47894
5147.82,0.48009
5142.03,0.48190
5136.25,0.48566
5130.46,0.48633
5124.68,0.48936
5118.89,0.48957
5113.1,0.49132
5107.32,0.49446
5101.53,0.49726
5095.75,0.49923
5089.96,0.50297
5084.17,0.50447
5078.39,0.50812
5072.6,0.51003
5066.81,0.51319
5061.03,0.51554
5055.24,0.51704
5049.46,0.51943
5043.67,0.52002
5037.88,0.52155
5032.1,0.52354
5026.31,0.52494
5020.52,0.52599
5014.74,0.52754
5008.95,0.52761
5003.17,0.52849
4997.38,0.52932
4991.59,0.53018
4985.81,0.52946
4980.02,0.52895
4974.23,0.52775
4968.45,0.52712
4962.66,0.52572
4956.88,0.52296
4951.09,0.52073
4945.3,0.51721
4939.52,0.51579
4933.73,0.51252
4927.94,0.50821
4922.16,0.50273
4916.37,0.50038
4910.59,0.49456
4904.8,0.48961
4899.01,0.48300
4893.23,0.47809
4887.44,0.47271
4881.65,0.46783
4875.87,0.46187
4870.08,0.45603
4864.3,0.45325
4858.51,0.44885
4852.72,0.44511
4846.94,0.44017
4841.15,0.43675
4835.36,0.43253
4829.58,0.42809
4823.79,0.42296
4818.01,0.41878
4812.22,0.41637
4806.43,0.41310
4800.65,0.40913
4794.86,0.40782
4789.07,0.40629
4783.29,0.40535
4777.5,0.40416
4771.72,0.40309
4765.93,0.40108
4760.14,0.40022
4754.36,0.40073
4748.57,0.39899
4742.78,0.39784
4737,0.39756
4731.21,0.39801
4725.43,0.39661
4719.64,0.39655
4713.85,0.39721
4708.07,0.39878
4702.28,0.39910
4696.49,0.39732
4690.71,0.39705
4684.92,0.40045
4679.14,0.40522
4673.35,0.41178
4667.56,0.41597
4661.78,0.41857
4655.99,0.42092
4650.2,0.42218
4644.42,0.42175
4638.63,0.41937
4632.85,0.42109
4627.06,0.42553
4621.27,0.43279
4615.49,0.43864
4609.7,0.44210
4603.92,0.44333
4598.13,0.44415
4592.34,0.44251
4586.56,0.44455
4580.77,0.44510
4574.98,0.44780
4569.2,0.45473
4563.41,0.45993
4557.63,0.46142
4551.84,0.46407
4546.05,0.46651
4540.27,0.46849
4534.48,0.47016
4528.69,0.47024
4522.91,0.46970
4517.12,0.46915
4511.34,0.46857
4505.55,0.46646
4499.76,0.46379
4493.98,0.45830
4488.19,0.45396
4482.4,0.45171
4476.62,0.44791
4470.83,0.44240
4465.05,0.43233
4459.26,0.42221
4453.47,0.41768
4447.69,0.41271
4441.9,0.40590
4436.11,0.39834
4430.33,0.39161
4424.54,0.38873
4418.76,0.38533
4412.97,0.38041
4407.18,0.37505
4401.4,0.37079
4395.61,0.37210
4389.82,0.37535
4384.04,0.38012
4378.25,0.38412
4372.47,0.38632
4366.68,0.38713
4360.89,0.38654
4355.11,0.38537
4349.32,0.38254
4343.53,0.37997
4337.75,0.37743
4331.96,0.37451
4326.18,0.37104
4320.39,0.36746
4314.6,0.36491
4308.82,0.36113
4303.03,0.35638
4297.24,0.35246
4291.46,0.34866
4285.67,0.34749
4279.89,0.34591
4274.1,0.34599
4268.31,0.34680
4262.53,0.34830
4256.74,0.34976
4250.95,0.34904
4245.17,0.34917
4239.38,0.35062
4233.6,0.35263
4227.81,0.35462
4222.02,0.35576
4216.24,0.35610
4210.45,0.35884
4204.66,0.36108
4198.88,0.36445
4193.09,0.36466
4187.31,0.36341
4181.52,0.36128
4175.73,0.36083
4169.95,0.36353
4164.16,0.36760
4158.37,0.36943
4152.59,0.36948
4146.8,0.36728
4141.02,0.36464
4135.23,0.36169
4129.44,0.35933
4123.66,0.35710
4117.87,0.35250
4112.09,0.34741
4106.3,0.34030
4100.51,0.33105
4094.73,0.31832
4088.94,0.31013
4083.15,0.31019
4077.37,0.31254
4071.58,0.31329
4065.8,0.31003
4060.01,0.30660
4054.22,0.30199
4048.44,0.29691
4042.65,0.29212
4036.86,0.28859
4031.08,0.28665
4025.29,0.28546
4019.51,0.28501
4013.72,0.28527
4007.93,0.28733
4002.15,0.28937
3996.36,0.29144
3990.57,0.29423
3984.79,0.29692
3979,0.29846
3973.22,0.29940
3967.43,0.30163
3961.64,0.30438
3955.86,0.30702
3950.07,0.30952
3944.28,0.31190
3938.5,0.31483
3932.71,0.31771
3926.93,0.32083
3921.14,0.32424
3915.35,0.32594
3909.57,0.32878
3903.78,0.33148
3897.99,0.33409
3892.21,0.33683
3886.42,0.33979
3880.64,0.34174
3874.85,0.34329
3869.06,0.34574
3863.28,0.34987
3857.49,0.35391
3851.7,0.35708
3845.92,0.35880
3840.13,0.36158
3834.35,0.36302
3828.56,0.36387
3822.77,0.36360
3816.99,0.36302
3811.2,0.36158
3805.41,0.36030
3799.63,0.36123
3793.84,0.36285
3788.06,0.36344
3782.27,0.36264
3776.48,0.36085
3770.7,0.35940
3764.91,0.35777
3759.12,0.35521
3753.34,0.35407
3747.55,0.35415
3741.77,0.35193
3735.98,0.34855
3730.19,0.34455
3724.41,0.34194
3718.62,0.33702
3712.83,0.33173
3707.05,0.32337
3701.26,0.31284
3695.48,0.30120
3689.69,0.28653
3683.9,0.27228
3678.12,0.26059
3672.33,0.24355
3666.54,0.22602
3660.76,0.20839
3654.97,0.19067
3649.19,0.17528
3643.4,0.16080
3637.61,0.14893
3631.83,0.13754
3626.04,0.12726
3620.25,0.11883
3614.47,0.11069
3608.68,0.10339
3602.9,0.09593
3597.11,0.09022
3591.32,0.08430
3585.54,0.07900
3579.75,0.07471
3573.97,0.07026
3568.18,0.06658
3562.39,0.06265
3556.61,0.05998
3550.82,0.05715
3545.03,0.05475
3539.25,0.05303
3533.46,0.05102
3527.68,0.04922
3521.89,0.04773
3516.1,0.04716
3510.32,0.04594
3504.53,0.04563
3498.74,0.04360
3492.96,0.04323
3487.17,0.04228
3481.39,0.04147
3475.6,0.04127
3469.81,0.04022
3464.03,0.03901
3458.24,0.03821
3452.45,0.03761
3446.67,0.03606
3440.88,0.03592
3435.1,0.03545
3429.31,0.03508
3423.52,0.03533
3417.74,0.03691
3411.95,0.03744
3406.16,0.03852
3400.38,0.03882
3394.59,0.03943
3388.81,0.03970
3383.02,0.03956
3377.23,0.04001
3371.45,0.03961
3365.66,0.03940
3359.87,0.04011
3354.09,0.04035
3348.3,0.04090
3342.52,0.04060
3336.73,0.04076
3330.94,0.04182
3325.16,0.04192
3319.37,0.04181
3313.58,0.04215
3307.8,0.04290
3302.01,0.04284
3296.23,0.04329
3290.44,0.04335
3284.65,0.04361
3278.87,0.04348
3273.08,0.04500
3267.29,0.04518
3261.51,0.04662
3255.72,0.04680
3249.94,0.04729
3244.15,0.04812
3238.36,0.04850
3232.58,0.04899
3226.79,0.05035
3221,0.05103
3215.22,0.05276
3209.43,0.05423
3203.65,0.05521
3197.86,0.05578
3192.07,0.05657
3186.29,0.05808
3180.5,0.05934
3174.71,0.06066
3168.93,0.06182
3163.14,0.06302
3157.36,0.06479
3151.57,0.06593
3145.78,0.06758
3140,0.06891
3134.21,0.07019
3128.42,0.07149
3122.64,0.07337
3116.85,0.07528
3111.07,0.07635
3105.28,0.07693
3099.49,0.07916
3093.71,0.08165
3087.92,0.08345
3082.14,0.08345
3076.35,0.08582
3070.56,0.08762
3064.78,0.08941
3058.99,0.09120
3053.2,0.09247
3047.42,0.09727
3041.63,0.10242
3035.85,0.10417
3030.06,0.10548
3024.27,0.10487
3018.49,0.10247
3012.7,0.10090
3006.91,0.10084
3001.13,0.09879
2995.34,0.09682
2989.56,0.09206
2983.77,0.08388
2977.98,0.07390
2972.2,0.06312
2966.41,0.05924
2960.62,0.05949
2954.84,0.05827
2949.05,0.05693
2943.27,0.05681
2937.48,0.05785
2931.69,0.05733
2925.91,0.05494
2920.12,0.05096
2914.33,0.04670
2908.55,0.04454
2902.76,0.04536
2896.98,0.04844
2891.19,0.05076
2885.4,0.05245
2879.62,0.05533
2873.83,0.05699
2868.04,0.05829
2862.26,0.06088
2856.47,0.06351
2850.69,0.06609
2844.9,0.07368
2839.11,0.08197
2833.33,0.08861
2827.54,0.09382
2821.75,0.09810
2815.97,0.10249
2810.18,0.10679
2804.4,0.11027
2798.61,0.11510
2792.82,0.11869
2787.04,0.12084
2781.25,0.12323
2775.46,0.12479
2769.68,0.12624
2763.89,0.12721
2758.11,0.12852
2752.32,0.12926
2746.53,0.12899
2740.75,0.12943
2734.96,0.12975
2729.17,0.13130
2723.39,0.13350
2717.6,0.13592
2711.82,0.13815
2706.03,0.14151
2700.24,0.14488
2694.46,0.14899
2688.67,0.15242
2682.88,0.15579
2677.1,0.15871
2671.31,0.16140
2665.53,0.16291
2659.74,0.16472
2653.95,0.16673
2648.17,0.16892
2642.38,0.17021
2636.59,0.17132
2630.81,0.17278
2625.02,0.17521
2619.24,0.17745
2613.45,0.17907
2607.66,0.18103
2601.88,0.18288
2596.09,0.18388
2590.3,0.18461
2584.52,0.18490
2578.73,0.18557
2572.95,0.18597
2567.16,0.18611
2561.37,0.18512
2555.59,0.18460
2549.8,0.18372
2544.02,0.18297
2538.23,0.18319
2532.44,0.18335
2526.66,0.18551
2520.87,0.18740
2515.08,0.18897
2509.3,0.19260
2503.51,0.19635
2497.73,0.20049
2491.94,0.20426
2486.15,0.20724
2480.37,0.21130
2474.58,0.21540
2468.79,0.21852
2463.01,0.22073
2457.22,0.22192
2451.44,0.22396
2445.65,0.22660
2439.86,0.22806
2434.08,0.23015
2428.29,0.23203
2422.5,0.23291
2416.72,0.23407
2410.93,0.23465
2405.15,0.23527
2399.36,0.23604
2393.57,0.23741
2387.79,0.23933
2382,0.24127
2376.21,0.24433
2370.43,0.24852
2364.64,0.25256
2358.86,0.25682
2353.07,0.26073
2347.28,0.26421
2341.5,0.26807
2335.71,0.26997
2329.92,0.27248
2324.14,0.27408
2318.35,0.27646
2312.57,0.27749
2306.78,0.27660
2300.99,0.27329
2295.21,0.26837
2289.42,0.26424
2283.63,0.26257
2277.85,0.26150
2272.06,0.25934
2266.28,0.25495
2260.49,0.24905
2254.7,0.24083
2248.92,0.23182
2243.13,0.22726
2237.34,0.23246
2231.56,0.24517
2225.77,0.25079
2219.99,0.25408
2214.2,0.25666
2208.41,0.25827
2202.63,0.25990
2196.84,0.25939
2191.05,0.25668
2185.27,0.25395
2179.48,0.24921
2173.7,0.24384
2167.91,0.23825
2162.12,0.23193
2156.34,0.22672
2150.55,0.22275
2144.76,0.21965
2138.98,0.21656
2133.19,0.21460
2127.41,0.21403
2121.62,0.21438
2115.83,0.21553
2110.05,0.21770
2104.26,0.22009
2098.47,0.22277
2092.69,0.22542
2086.9,0.22898
2081.12,0.23211
2075.33,0.23432
2069.54,0.23645
2063.76,0.23939
2057.97,0.24247
2052.19,0.24507
2046.4,0.24665
2040.61,0.24845
2034.83,0.25155
2029.04,0.25507
2023.25,0.25803
2017.47,0.26058
2011.68,0.26261
2005.9,0.26208
2000.11,0.26037
1994.32,0.25872
1988.54,0.25747
1982.75,0.25664
1976.96,0.25452
1971.18,0.24988
1965.39,0.24208
1959.61,0.23666
1953.82,0.24130
1948.03,0.24952
1942.25,0.25907
1936.46,0.26897
1930.67,0.27734
1924.89,0.28335
1919.1,0.28807
1913.32,0.29183
1907.53,0.29502
1901.74,0.29718
1895.96,0.29792
1890.17,0.29802
1884.38,0.29774
1878.6,0.29641
1872.81,0.29346
1867.03,0.28946
1861.24,0.28362
1855.45,0.27613
1849.67,0.26543
1843.88,0.25435
1838.09,0.24480
1832.31,0.23685
1826.52,0.23098
1820.74,0.22754
1814.95,0.22509
1809.16,0.22161
1803.38,0.21816
1797.59,0.21398
1791.8,0.20862
1786.02,0.20207
1780.23,0.19432
1774.45,0.18535
1768.66,0.17342
1762.87,0.16012
1757.09,0.14175
1751.3,0.11907
1745.51,0.09684
1739.73,0.08717
1733.94,0.08669
1728.16,0.08953
1722.37,0.09286
1716.58,0.09485
1710.8,0.09406
1705.01,0.09677
1699.22,0.10186
1693.44,0.10417
1687.65,0.10198
1681.87,0.09782
1676.08,0.09748
1670.29,0.09655
1664.51,0.09693
1658.72,0.09674
1652.93,0.09602
1647.15,0.09529
1641.36,0.09520
1635.58,0.09648
1629.79,0.09796
1624,0.10084
1618.22,0.10184
1612.43,0.10398
1606.64,0.11165
1600.86,0.11895
1595.07,0.12331
1589.29,0.12378
1583.5,0.11724
1577.71,0.11032
1571.93,0.12236
1566.14,0.13171
1560.35,0.13418
1554.57,0.13438
1548.78,0.13380
1543,0.13348
1537.21,0.13185
1531.42,0.12859
1525.64,0.12354
1519.85,0.12100
1514.07,0.11383
1508.28,0.09163
1502.49,0.08752
1496.71,0.10279
1490.92,0.09787
1485.13,0.07941
1479.35,0.06485
1473.56,0.05533
1467.78,0.04968
1461.99,0.04354
1456.2,0.03807
1450.42,0.03705
1444.63,0.03722
1438.84,0.03627
1433.06,0.03587
1427.27,0.03662
1421.49,0.03647
1415.7,0.03366
1409.91,0.03352
1404.13,0.03598
1398.34,0.03902
1392.55,0.03892
1386.77,0.03477
1380.98,0.02958
1375.2,0.02666
1369.41,0.02662
1363.62,0.02839
1357.84,0.02863
1352.05,0.02834
1346.26,0.02755
1340.48,0.02683
1334.69,0.02719
1328.91,0.02878
1323.12,0.02728
1317.33,0.02572
1311.55,0.02634
1305.76,0.02810
1299.97,0.03021
1294.19,0.03086
1288.4,0.03099
1282.62,0.03108
1276.83,0.03445
1271.04,0.03851
1265.26,0.03924
1259.47,0.03914
1253.68,0.03879
1247.9,0.03785
1242.11,0.03729
1236.33,0.03587
1230.54,0.03798
1224.75,0.04052
1218.97,0.04376
1213.18,0.04353
1207.39,0.03985
1201.61,0.04023
1195.82,0.04308
1190.04,0.04403
1184.25,0.03972
1178.46,0.03346
1172.68,0.03263
1166.89,0.03512
1161.1,0.03277
1155.32,0.02892
1149.53,0.02523
1143.75,0.02211
1137.96,0.02036
1132.17,0.02047
1126.39,0.02216
1120.6,0.02349
1114.81,0.02402
1109.03,0.02556
1103.24,0.02631
1097.46,0.02547
1091.67,0.02554
1085.88,0.02605
1080.1,0.03057
1074.31,0.03705
1068.52,0.04347
1062.74,0.04922
1056.95,0.04873
1051.17,0.04344
1045.38,0.03804
1039.59,0.03993
1033.81,0.04274
1028.02,0.03956
1022.24,0.03712
1016.45,0.03929
1010.66,0.04642
1004.88,0.05099
999.09,0.05268
993.304,0.05452
987.518,0.05411
981.731,0.05918
975.945,0.06497
970.159,0.07029
964.373,0.08196
958.586,0.09705
952.8,0.11186
947.014,0.12309
941.228,0.12927
935.441,0.13050
929.655,0.13057
923.869,0.13122
918.083,0.12712
912.297,0.11469
906.51,0.09999
900.724,0.08946
894.938,0.08856
889.152,0.09764
883.365,0.10262
877.579,0.10000
871.793,0.10144
866.007,0.11756
860.22,0.11737
854.434,0.10922
848.648,0.10273
842.862,0.10612
837.075,0.11355
831.289,0.11739
825.503,0.11865
819.717,0.11579
813.931,0.11281
808.144,0.10761
802.358,0.10434
796.572,0.09580
790.786,0.09155
784.999,0.09504
779.213,0.09528
773.427,0.09327
767.641,0.08954
761.854,0.08607
756.068,0.08032
750.282,0.07391
744.496,0.06360
738.709,0.04803
732.923,0.04027
727.137,0.03968
721.351,0.04619
715.565,0.05615
709.778,0.05712
703.992,0.05803
698.206,0.06205
692.42,0.06337
686.633,0.06132
680.847,0.05923
675.061,0.05742
669.275,0.05638
663.488,0.05796
657.702,0.05892
651.916,0.05939
646.13,0.05747
640.343,0.05738
634.557,0.05228
628.771,0.05079
622.985,0.05181
617.198,0.05228
611.412,0.05411
605.626,0.05837
599.84,0.05455