File: 01_Data/Cotton_Rug/FTIR/IS/Cotton_Rug_IS_S_220822_R6.dpt
7497.03,0.67701
7491.25,0.68888
7485.46,0.67599
7479.67,0.68097
7473.89,0.68278
7468.1,0.68001
7462.32,0.68244
7456.53,0.67771
7450.74,0.67526
7444.96,0.67947
7439.17,0.67323
7433.38,0.67280
7427.6,0.67668
7421.81,0.68024
7416.03,0.67735
7410.24,0.67165
7404.45,0.67189
7398.67,0.66892
7392.88,0.66890
7387.09,0.66519
7381.31,0.66366
7375.52,0.66838
7369.74,0.65842
7363.95,0.65623
7358.16,0.64994
7352.38,0.65949
7346.59,0.64967
7340.8,0.65498
7335.02,0.65218
7329.23,0.64879
7323.45,0.65579
7317.66,0.64297
7311.87,0.64885
7306.09,0.65912
7300.3,0.65096
7294.51,0.65029
7288.73,0.64225
7282.94,0.64487
7277.16,0.64895
7271.37,0.64753
7265.58,0.64736
7259.8,0.64879
7254.01,0.65605
7248.22,0.65118
7242.44,0.64799
7236.65,0.64350
7230.87,0.64391
7225.08,0.65027
7219.29,0.65269
7213.51,0.64965
7207.72,0.64483
7201.93,0.64719
7196.15,0.64719
7190.36,0.63824
7184.58,0.64109
7178.79,0.63547
7173,0.64474
7167.22,0.63756
7161.43,0.63695
7155.65,0.64124
7149.86,0.64443
7144.07,0.63818
7138.29,0.63655
7132.5,0.63377
7126.71,0.63237
7120.93,0.63418
7115.14,0.63283
7109.36,0.62576
7103.57,0.62176
7097.78,0.62190
7092,0.61148
7086.21,0.61743
7080.42,0.61342
7074.64,0.60734
7068.85,0.61169
7063.07,0.59995
7057.28,0.59717
7051.49,0.59657
7045.71,0.60021
7039.92,0.58949
7034.13,0.58665
7028.35,0.58228
7022.56,0.58000
7016.78,0.58115
7010.99,0.57500
7005.2,0.57003
6999.42,0.56841
6993.63,0.56405
6987.84,0.56546
6982.06,0.56774
6976.27,0.55331
6970.49,0.56283
6964.7,0.56128
6958.91,0.55822
6953.13,0.56491
6947.34,0.56037
6941.55,0.55806
6935.77,0.55566
6929.98,0.55037
6924.2,0.55516
6918.41,0.55698
6912.62,0.55620
6906.84,0.55231
6901.05,0.54844
6895.26,0.55015
6889.48,0.54916
6883.69,0.55193
6877.91,0.54728
6872.12,0.54840
6866.33,0.54978
6860.55,0.54444
6854.76,0.54548
6848.97,0.54907
6843.19,0.54645
6837.4,0.54041
6831.62,0.54302
6825.83,0.53699
6820.04,0.53726
6814.26,0.53161
6808.47,0.53390
6802.68,0.53325
6796.9,0.53595
6791.11,0.53656
6785.33,0.53087
6779.54,0.52972
6773.75,0.53133
6767.97,0.52464
6762.18,0.52625
6756.39,0.52304
6750.61,0.53023
6744.82,0.52530
6739.04,0.52532
6733.25,0.52251
6727.46,0.52395
6721.68,0.52877
6715.89,0.52603
6710.1,0.52490
6704.32,0.51838
6698.53,0.52365
6692.75,0.52318
6686.96,0.52383
6681.17,0.52804
6675.39,0.52443
6669.6,0.52123
6663.82,0.52268
6658.03,0.52664
6652.24,0.52925
6646.46,0.52852
6640.67,0.53170
6634.88,0.52834
6629.1,0.53349
6623.31,0.52978
6617.53,0.53040
6611.74,0.53067
6605.95,0.53209
6600.17,0.54024
6594.38,0.53941
6588.59,0.53729
6582.81,0.53651
6577.02,0.53946
6571.24,0.54300
6565.45,0.53834
6559.66,0.53687
6553.88,0.53723
6548.09,0.53548
6542.3,0.53605
6536.52,0.54234
6530.73,0.53959
6524.95,0.54213
6519.16,0.53519
6513.37,0.53661
6507.59,0.53926
6501.8,0.53949
6496.01,0.53612
6490.23,0.53720
6484.44,0.53637
6478.66,0.53869
6472.87,0.54040
6467.08,0.54225
6461.3,0.53680
6455.51,0.54131
6449.72,0.53838
6443.94,0.53748
6438.15,0.53510
6432.37,0.53799
6426.58,0.54195
6420.79,0.54298
6415.01,0.54476
6409.22,0.53971
6403.43,0.54474
6397.65,0.54218
6391.86,0.53698
6386.08,0.54506
6380.29,0.54180
6374.5,0.54013
6368.72,0.54106
6362.93,0.54510
6357.14,0.54614
6351.36,0.54299
6345.57,0.54417
6339.79,0.54411
6334,0.54385
6328.21,0.54190
6322.43,0.54427
6316.64,0.54474
6310.85,0.54548
6305.07,0.54718
6299.28,0.54905
6293.5,0.55117
6287.71,0.55298
6281.92,0.55129
6276.14,0.55073
6270.35,0.55485
6264.56,0.55448
6258.78,0.55474
6252.99,0.55715
6247.21,0.55849
6241.42,0.55781
6235.63,0.56273
6229.85,0.56362
6224.06,0.56586
6218.27,0.56419
6212.49,0.56650
6206.7,0.56741
6200.92,0.57162
6195.13,0.57090
6189.34,0.57028
6183.56,0.57757
6177.77,0.57730
6171.98,0.57787
6166.2,0.57941
6160.41,0.58071
6154.63,0.58462
6148.84,0.58109
6143.05,0.58042
6137.27,0.58534
6131.48,0.58544
6125.7,0.58401
6119.91,0.58549
6114.12,0.58580
6108.34,0.58312
6102.55,0.58566
6096.76,0.58349
6090.98,0.57869
6085.19,0.57979
6079.41,0.57471
6073.62,0.57319
6067.83,0.57095
6062.05,0.56824
6056.26,0.56208
6050.47,0.56068
6044.69,0.56039
6038.9,0.55453
6033.12,0.55199
6027.33,0.54697
6021.54,0.54830
6015.76,0.54976
6009.97,0.55226
6004.18,0.55613
5998.4,0.55852
5992.61,0.56759
5986.83,0.57302
5981.04,0.57684
5975.25,0.57709
5969.47,0.57905
5963.68,0.58014
5957.89,0.58166
5952.11,0.57926
5946.32,0.58143
5940.54,0.57882
5934.75,0.58296
5928.96,0.58341
5923.18,0.58436
5917.39,0.58392
5911.6,0.58686
5905.82,0.58736
5900.03,0.58787
5894.25,0.58451
5888.46,0.58578
5882.67,0.57919
5876.89,0.57650
5871.1,0.57622
5865.31,0.57670
5859.53,0.57665
5853.74,0.57313
5847.96,0.57943
5842.17,0.57611
5836.38,0.57488
5830.6,0.57420
5824.81,0.57467
5819.02,0.57122
5813.24,0.57143
5807.45,0.57085
5801.67,0.56956
5795.88,0.57153
5790.09,0.57049
5784.31,0.56757
5778.52,0.56884
5772.73,0.56882
5766.95,0.57121
5761.16,0.57261
5755.38,0.57164
5749.59,0.57423
5743.8,0.57406
5738.02,0.57631
5732.23,0.57656
5726.44,0.57685
5720.66,0.57703
5714.87,0.57595
5709.09,0.57707
5703.3,0.57908
5697.51,0.57625
5691.73,0.57511
5685.94,0.57856
5680.15,0.57892
5674.37,0.57539
5668.58,0.57682
5662.8,0.57484
5657.01,0.57680
5651.22,0.57552
5645.44,0.57528
5639.65,0.57700
5633.87,0.57743
5628.08,0.57816
5622.29,0.57901
5616.51,0.57965
5610.72,0.58008
5604.93,0.57895
5599.15,0.58211
5593.36,0.57955
5587.58,0.58028
5581.79,0.57895
5576,0.58076
5570.22,0.57948
5564.43,0.57840
5558.64,0.58057
5552.86,0.58166
5547.07,0.58051
5541.29,0.58059
5535.5,0.58290
5529.71,0.58263
5523.93,0.58212
5518.14,0.58092
5512.35,0.58027
5506.57,0.58141
5500.78,0.58212
5495,0.58240
5489.21,0.58214
5483.42,0.58094
5477.64,0.58041
5471.85,0.58212
5466.06,0.58202
5460.28,0.58189
5454.49,0.58380
5448.71,0.58641
5442.92,0.58691
5437.13,0.58933
5431.35,0.59154
5425.56,0.59147
5419.77,0.59107
5413.99,0.59354
5408.2,0.59578
5402.42,0.59621
5396.63,0.59708
5390.84,0.59820
5385.06,0.59721
5379.27,0.59638
5373.48,0.59658
5367.7,0.59757
5361.91,0.59821
5356.13,0.59849
5350.34,0.59844
5344.55,0.59888
5338.77,0.59621
5332.98,0.59617
5327.19,0.59280
5321.41,0.59465
5315.62,0.59229
5309.84,0.59062
5304.05,0.58830
5298.26,0.58486
5292.48,0.58149
5286.69,0.57635
5280.9,0.57098
5275.12,0.56541
5269.33,0.55901
5263.55,0.55317
5257.76,0.54509
5251.97,0.54056
5246.19,0.53391
5240.4,0.52766
5234.61,0.52225
5228.83,0.52001
5223.04,0.51747
5217.26,0.51394
5211.47,0.51212
5205.68,0.50901
5199.9,0.50679
5194.11,0.50646
5188.32,0.50665
5182.54,0.50457
5176.75,0.50644
5170.97,0.50655
5165.18,0.50687
5159.39,0.50753
5153.61,0.50822
5147.82,0.50743
5142.03,0.50881
5136.25,0.51157
5130.46,0.51265
5124.68,0.51414
5118.89,0.51537
5113.1,0.51681
5107.32,0.52134
5101.53,0.52413
5095.75,0.52494
5089.96,0.52767
5084.17,0.53104
5078.39,0.53241
5072.6,0.53416
5066.81,0.53730
5061.03,0.53735
5055.24,0.53940
5049.46,0.53992
5043.67,0.54197
5037.88,0.54339
5032.1,0.54388
5026.31,0.54467
5020.52,0.54509
5014.74,0.54629
5008.95,0.54582
5003.17,0.54595
4997.38,0.54687
4991.59,0.54639
4985.81,0.54512
4980.02,0.54419
4974.23,0.54352
4968.45,0.54058
4962.66,0.53904
4956.88,0.53614
4951.09,0.53267
4945.3,0.52842
4939.52,0.52547
4933.73,0.52125
4927.94,0.51731
4922.16,0.51240
4916.37,0.50680
4910.59,0.50089
4904.8,0.49598
4899.01,0.49064
4893.23,0.48342
4887.44,0.47701
4881.65,0.47206
4875.87,0.46589
4870.08,0.46018
4864.3,0.45632
4858.51,0.45313
4852.72,0.44868
4846.94,0.44329
4841.15,0.43804
4835.36,0.43368
4829.58,0.43028
4823.79,0.42585
4818.01,0.42120
4812.22,0.41748
4806.43,0.41449
4800.65,0.41269
4794.86,0.41073
4789.07,0.40862
4783.29,0.40725
4777.5,0.40652
4771.72,0.40582
4765.93,0.40494
4760.14,0.40362
4754.36,0.40247
4748.57,0.40137
4742.78,0.40126
4737,0.40205
4731.21,0.40025
4725.43,0.39990
4719.64,0.39918
4713.85,0.40041
4708.07,0.40239
4702.28,0.40128
4696.49,0.40105
4690.71,0.40007
4684.92,0.40315
4679.14,0.40915
4673.35,0.41529
4667.56,0.41972
4661.78,0.42231
4655.99,0.42403
4650.2,0.42564
4644.42,0.42412
4638.63,0.42304
4632.85,0.42343
4627.06,0.42955
4621.27,0.43655
4615.49,0.44152
4609.7,0.44553
4603.92,0.44708
4598.13,0.44779
4592.34,0.44637
4586.56,0.44820
4580.77,0.44847
4574.98,0.45219
4569.2,0.45816
4563.41,0.46315
4557.63,0.46602
4551.84,0.46846
4546.05,0.47020
4540.27,0.47056
4534.48,0.47221
4528.69,0.47258
4522.91,0.47342
4517.12,0.47348
4511.34,0.47176
4505.55,0.46973
4499.76,0.46618
4493.98,0.46141
4488.19,0.45784
4482.4,0.45469
4476.62,0.45066
4470.83,0.44419
4465.05,0.43525
4459.26,0.42516
4453.47,0.41941
4447.69,0.41567
4441.9,0.40886
4436.11,0.40107
4430.33,0.39324
4424.54,0.39012
4418.76,0.38814
4412.97,0.38215
4407.18,0.37697
4401.4,0.37429
4395.61,0.37472
4389.82,0.37844
4384.04,0.38191
4378.25,0.38530
4372.47,0.38752
4366.68,0.38857
4360.89,0.38815
4355.11,0.38748
4349.32,0.38559
4343.53,0.38122
4337.75,0.37898
4331.96,0.37704
4326.18,0.37214
4320.39,0.36885
4314.6,0.36610
4308.82,0.36303
4303.03,0.35873
4297.24,0.35508
4291.46,0.35128
4285.67,0.34918
4279.89,0.34880
4274.1,0.34844
4268.31,0.34895
4262.53,0.35069
4256.74,0.35187
4250.95,0.35160
4245.17,0.35165
4239.38,0.35285
4233.6,0.35578
4227.81,0.35723
4222.02,0.35757
4216.24,0.35969
4210.45,0.36208
4204.66,0.36470
4198.88,0.36775
4193.09,0.36859
4187.31,0.36627
4181.52,0.36410
4175.73,0.36386
4169.95,0.36658
4164.16,0.37092
4158.37,0.37343
4152.59,0.37349
4146.8,0.37150
4141.02,0.36860
4135.23,0.36565
4129.44,0.36337
4123.66,0.36035
4117.87,0.35655
4112.09,0.35105
4106.3,0.34339
4100.51,0.33426
4094.73,0.32247
4088.94,0.31362
4083.15,0.31344
4077.37,0.31511
4071.58,0.31569
4065.8,0.31341
4060.01,0.30953
4054.22,0.30447
4048.44,0.29892
4042.65,0.29545
4036.86,0.29218
4031.08,0.28925
4025.29,0.28803
4019.51,0.28723
4013.72,0.28794
4007.93,0.28986
4002.15,0.29167
3996.36,0.29377
3990.57,0.29712
3984.79,0.30019
3979,0.30269
3973.22,0.30390
3967.43,0.30588
3961.64,0.30848
3955.86,0.31075
3950.07,0.31346
3944.28,0.31641
3938.5,0.32018
3932.71,0.32298
3926.93,0.32612
3921.14,0.32822
3915.35,0.33129
3909.57,0.33362
3903.78,0.33658
3897.99,0.33894
3892.21,0.34263
3886.42,0.34525
3880.64,0.34713
3874.85,0.34932
3869.06,0.35243
3863.28,0.35701
3857.49,0.36073
3851.7,0.36437
3845.92,0.36740
3840.13,0.36957
3834.35,0.37069
3828.56,0.37141
3822.77,0.37226
3816.99,0.37148
3811.2,0.36995
3805.41,0.37000
3799.63,0.37062
3793.84,0.37170
3788.06,0.37328
3782.27,0.37266
3776.48,0.37239
3770.7,0.37030
3764.91,0.36860
3759.12,0.36678
3753.34,0.36599
3747.55,0.36664
3741.77,0.36528
3735.98,0.36229
3730.19,0.35881
3724.41,0.35597
3718.62,0.35277
3712.83,0.34762
3707.05,0.33995
3701.26,0.32997
3695.48,0.31865
3689.69,0.30646
3683.9,0.29371
3678.12,0.28423
3672.33,0.27043
3666.54,0.25383
3660.76,0.23638
3654.97,0.21972
3649.19,0.20450
3643.4,0.18885
3637.61,0.17530
3631.83,0.16367
3626.04,0.15096
3620.25,0.14089
3614.47,0.13032
3608.68,0.12152
3602.9,0.11196
3597.11,0.10364
3591.32,0.09682
3585.54,0.08994
3579.75,0.08420
3573.97,0.07876
3568.18,0.07393
3562.39,0.06958
3556.61,0.06530
3550.82,0.06245
3545.03,0.05878
3539.25,0.05608
3533.46,0.05423
3527.68,0.05289
3521.89,0.05103
3516.1,0.04936
3510.32,0.04889
3504.53,0.04707
3498.74,0.04572
3492.96,0.04489
3487.17,0.04399
3481.39,0.04320
3475.6,0.04241
3469.81,0.04130
3464.03,0.04033
3458.24,0.03934
3452.45,0.03850
3446.67,0.03689
3440.88,0.03641
3435.1,0.03564
3429.31,0.03513
3423.52,0.03638
3417.74,0.03751
3411.95,0.03838
3406.16,0.03946
3400.38,0.03947
3394.59,0.04002
3388.81,0.03985
3383.02,0.04011
3377.23,0.04047
3371.45,0.04048
3365.66,0.04038
3359.87,0.03992
3354.09,0.04071
3348.3,0.04087
3342.52,0.04152
3336.73,0.04154
3330.94,0.04190
3325.16,0.04250
3319.37,0.04246
3313.58,0.04278
3307.8,0.04346
3302.01,0.04374
3296.23,0.04321
3290.44,0.04357
3284.65,0.04464
3278.87,0.04483
3273.08,0.04569
3267.29,0.04583
3261.51,0.04675
3255.72,0.04738
3249.94,0.04829
3244.15,0.04849
3238.36,0.04932
3232.58,0.05053
3226.79,0.05209
3221,0.05278
3215.22,0.05411
3209.43,0.05565
3203.65,0.05665
3197.86,0.05853
3192.07,0.05986
3186.29,0.06096
3180.5,0.06252
3174.71,0.06464
3168.93,0.06578
3163.14,0.06701
3157.36,0.06881
3151.57,0.07022
3145.78,0.07234
3140,0.07379
3134.21,0.07436
3128.42,0.07590
3122.64,0.07836
3116.85,0.08076
3111.07,0.08196
3105.28,0.08264
3099.49,0.08405
3093.71,0.08792
3087.92,0.08996
3082.14,0.09025
3076.35,0.09225
3070.56,0.09391
3064.78,0.09602
3058.99,0.09737
3053.2,0.09939
3047.42,0.10463
3041.63,0.10950
3035.85,0.11191
3030.06,0.11297
3024.27,0.11207
3018.49,0.10971
3012.7,0.10727
3006.91,0.10623
3001.13,0.10442
2995.34,0.10113
2989.56,0.09577
2983.77,0.08759
2977.98,0.07628
2972.2,0.06499
2966.41,0.05994
2960.62,0.06049
2954.84,0.05889
2949.05,0.05754
2943.27,0.05700
2937.48,0.05873
2931.69,0.05765
2925.91,0.05541
2920.12,0.05115
2914.33,0.04715
2908.55,0.04473
2902.76,0.04596
2896.98,0.04878
2891.19,0.05097
2885.4,0.05288
2879.62,0.05589
2873.83,0.05694
2868.04,0.05849
2862.26,0.06113
2856.47,0.06415
2850.69,0.06677
2844.9,0.07457
2839.11,0.08388
2833.33,0.09008
2827.54,0.09523
2821.75,0.10045
2815.97,0.10505
2810.18,0.10865
2804.4,0.11287
2798.61,0.11685
2792.82,0.12089
2787.04,0.12371
2781.25,0.12549
2775.46,0.12753
2769.68,0.12882
2763.89,0.13045
2758.11,0.13102
2752.32,0.13172
2746.53,0.13148
2740.75,0.13199
2734.96,0.13280
2729.17,0.13392
2723.39,0.13634
2717.6,0.13824
2711.82,0.14085
2706.03,0.14392
2700.24,0.14790
2694.46,0.15149
2688.67,0.15526
2682.88,0.15888
2677.1,0.16198
2671.31,0.16439
2665.53,0.16552
2659.74,0.16725
2653.95,0.16932
2648.17,0.17126
2642.38,0.17306
2636.59,0.17402
2630.81,0.17511
2625.02,0.17791
2619.24,0.17998
2613.45,0.18159
2607.66,0.18361
2601.88,0.18536
2596.09,0.18692
2590.3,0.18746
2584.52,0.18731
2578.73,0.18797
2572.95,0.18899
2567.16,0.18856
2561.37,0.18760
2555.59,0.18697
2549.8,0.18644
2544.02,0.18551
2538.23,0.18546
2532.44,0.18594
2526.66,0.18812
2520.87,0.18998
2515.08,0.19212
2509.3,0.19523
2503.51,0.19891
2497.73,0.20286
2491.94,0.20675
2486.15,0.21035
2480.37,0.21411
2474.58,0.21810
2468.79,0.22110
2463.01,0.22362
2457.22,0.22544
2451.44,0.22698
2445.65,0.22925
2439.86,0.23127
2434.08,0.23314
2428.29,0.23443
2422.5,0.23633
2416.72,0.23737
2410.93,0.23814
2405.15,0.23849
2399.36,0.23915
2393.57,0.24077
2387.79,0.24268
2382,0.24491
2376.21,0.24815
2370.43,0.25270
2364.64,0.25664
2358.86,0.26103
2353.07,0.26528
2347.28,0.26953
2341.5,0.27367
2335.71,0.27603
2329.92,0.27824
2324.14,0.28023
2318.35,0.28257
2312.57,0.28379
2306.78,0.28242
2300.99,0.27956
2295.21,0.27500
2289.42,0.27097
2283.63,0.26878
2277.85,0.26839
2272.06,0.26613
2266.28,0.26111
2260.49,0.25512
2254.7,0.24719
2248.92,0.23787
2243.13,0.23307
2237.34,0.23815
2231.56,0.25185
2225.77,0.25857
2219.99,0.26169
2214.2,0.26465
2208.41,0.26651
2202.63,0.26838
2196.84,0.26820
2191.05,0.26578
2185.27,0.26268
2179.48,0.25801
2173.7,0.25234
2167.91,0.24574
2162.12,0.23972
2156.34,0.23451
2150.55,0.23013
2144.76,0.22681
2138.98,0.22338
2133.19,0.22118
2127.41,0.22138
2121.62,0.22108
2115.83,0.22229
2110.05,0.22458
2104.26,0.22733
2098.47,0.22976
2092.69,0.23287
2086.9,0.23655
2081.12,0.23976
2075.33,0.24204
2069.54,0.24495
2063.76,0.24730
2057.97,0.25105
2052.19,0.25321
2046.4,0.25494
2040.61,0.25722
2034.83,0.26000
2029.04,0.26330
2023.25,0.26674
2017.47,0.26945
2011.68,0.27089
2005.9,0.27056
2000.11,0.26858
1994.32,0.26669
1988.54,0.26516
1982.75,0.26406
1976.96,0.26166
1971.18,0.25664
1965.39,0.24825
1959.61,0.24263
1953.82,0.24713
1948.03,0.25567
1942.25,0.26594
1936.46,0.27642
1930.67,0.28459
1924.89,0.29130
1919.1,0.29637
1913.32,0.30054
1907.53,0.30346
1901.74,0.30549
1895.96,0.30629
1890.17,0.30671
1884.38,0.30612
1878.6,0.30482
1872.81,0.30203
1867.03,0.29778
1861.24,0.29189
1855.45,0.28365
1849.67,0.27254
1843.88,0.26086
1838.09,0.25083
1832.31,0.24269
1826.52,0.23631
1820.74,0.23292
1814.95,0.23013
1809.16,0.22680
1803.38,0.22335
1797.59,0.21923
1791.8,0.21389
1786.02,0.20709
1780.23,0.19915
1774.45,0.18945
1768.66,0.17752
1762.87,0.16319
1757.09,0.14467
1751.3,0.12080
1745.51,0.09842
1739.73,0.08908
1733.94,0.08821
1728.16,0.09128
1722.37,0.09542
1716.58,0.09784
1710.8,0.09788
1705.01,0.10183
1699.22,0.10792
1693.44,0.11112
1687.65,0.10919
1681.87,0.10578
1676.08,0.10666
1670.29,0.10615
1664.51,0.10703
1658.72,0.10768
1652.93,0.10737
1647.15,0.10629
1641.36,0.10626
1635.58,0.10739
1629.79,0.10881
1624,0.11113
1618.22,0.11136
1612.43,0.11214
1606.64,0.11982
1600.86,0.12589
1595.07,0.13029
1589.29,0.13050
1583.5,0.12263
1577.71,0.11541
1571.93,0.12778
1566.14,0.13751
1560.35,0.13988
1554.57,0.13942
1548.78,0.13874
1543,0.13829
1537.21,0.13627
1531.42,0.13239
1525.64,0.12709
1519.85,0.12386
1514.07,0.11693
1508.28,0.09364
1502.49,0.08910
1496.71,0.10513
1490.92,0.09969
1485.13,0.08100
1479.35,0.06591
1473.56,0.05597
1467.78,0.04991
1461.99,0.04319
1456.2,0.03824
1450.42,0.03741
1444.63,0.03679
1438.84,0.03655
1433.06,0.03624
1427.27,0.03667
1421.49,0.03675
1415.7,0.03397
1409.91,0.03320
1404.13,0.03581
1398.34,0.03920
1392.55,0.03837
1386.77,0.03457
1380.98,0.02955
1375.2,0.02701
1369.41,0.02645
1363.62,0.02800
1357.84,0.02864
1352.05,0.02846
1346.26,0.02757
1340.48,0.02703
1334.69,0.02769
1328.91,0.02901
1323.12,0.02771
1317.33,0.02591
1311.55,0.02621
1305.76,0.02829
1299.97,0.02990
1294.19,0.03053
1288.4,0.03109
1282.62,0.03116
1276.83,0.03449
1271.04,0.03831
1265.26,0.03863
1259.47,0.03912
1253.68,0.03826
1247.9,0.03807
1242.11,0.03660
1236.33,0.03535
1230.54,0.03735
1224.75,0.04073
1218.97,0.04328
1213.18,0.04319
1207.39,0.03926
1201.61,0.04066
1195.82,0.04281
1190.04,0.04400
1184.25,0.04004
1178.46,0.03361
1172.68,0.03279
1166.89,0.03558
1161.1,0.03335
1155.32,0.02888
1149.53,0.02450
1143.75,0.02218
1137.96,0.02050
1132.17,0.02073
1126.39,0.02218
1120.6,0.02380
1114.81,0.02441
1109.03,0.02539
1103.24,0.02547
1097.46,0.02570
1091.67,0.02511
1085.88,0.02582
1080.1,0.03087
1074.31,0.03661
1068.52,0.04356
1062.74,0.04928
1056.95,0.04810
1051.17,0.04346
1045.38,0.03838
1039.59,0.04014
1033.81,0.04322
1028.02,0.03978
1022.24,0.03673
1016.45,0.03848
1010.66,0.04648
1004.88,0.05081
999.09,0.05317
993.304,0.05468
987.518,0.05431
981.731,0.05875
975.945,0.06391
970.159,0.06965
964.373,0.08182
958.586,0.09866
952.8,0.11338
947.014,0.12432
941.228,0.13093
935.441,0.13234
929.655,0.13348
923.869,0.13416
918.083,0.12988
912.297,0.11713
906.51,0.10260
900.724,0.09154
894.938,0.09038
889.152,0.09967
883.365,0.10491
877.579,0.10310
871.793,0.10545
866.007,0.12404
860.22,0.12453
854.434,0.11589
848.648,0.10990
842.862,0.11544
837.075,0.12115
831.289,0.12597
825.503,0.12759
819.717,0.12547
813.931,0.12150
808.144,0.11784
802.358,0.11250
796.572,0.10302
790.786,0.09977
784.999,0.10350
779.213,0.10320
773.427,0.10137
767.641,0.09735
761.854,0.09355
756.068,0.08707
750.282,0.07846
744.496,0.06756
738.709,0.05080
732.923,0.04226
727.137,0.04189
721.351,0.04776
715.565,0.05780
709.778,0.05847
703.992,0.06033
698.206,0.06461
692.42,0.06551
686.633,0.06349
680.847,0.06023
675.061,0.05812
669.275,0.05787
663.488,0.05818
657.702,0.06014
651.916,0.05975
646.13,0.06032
640.343,0.05621
634.557,0.05068
628.771,0.05166
622.985,0.05139
617.198,0.05420
611.412,0.05558
605.626,0.05567
599.84,0.05648