File: 01_Data/Cotton_Rug/FTIR/IS/Cotton_Rug_IS_S_220822_R3.dpt
7497.03,0.68214
7491.25,0.68351
7485.46,0.67804
7479.67,0.68229
7473.89,0.69068
7468.1,0.68269
7462.32,0.67567
7456.53,0.68562
7450.74,0.67646
7444.96,0.67262
7439.17,0.67717
7433.38,0.66749
7427.6,0.66852
7421.81,0.66550
7416.03,0.67491
7410.24,0.67483
7404.45,0.67039
7398.67,0.66850
7392.88,0.66671
7387.09,0.66422
7381.31,0.67193
7375.52,0.66197
7369.74,0.66317
7363.95,0.66118
7358.16,0.65299
7352.38,0.66423
7346.59,0.65993
7340.8,0.65888
7335.02,0.64867
7329.23,0.64365
7323.45,0.64650
7317.66,0.64369
7311.87,0.65570
7306.09,0.64277
7300.3,0.64871
7294.51,0.64960
7288.73,0.64834
7282.94,0.64787
7277.16,0.64869
7271.37,0.64349
7265.58,0.64438
7259.8,0.64600
7254.01,0.64721
7248.22,0.64181
7242.44,0.64525
7236.65,0.65186
7230.87,0.64538
7225.08,0.63770
7219.29,0.64620
7213.51,0.64121
7207.72,0.64536
7201.93,0.64338
7196.15,0.64581
7190.36,0.64065
7184.58,0.63948
7178.79,0.63801
7173,0.64091
7167.22,0.64485
7161.43,0.63885
7155.65,0.63539
7149.86,0.63345
7144.07,0.63609
7138.29,0.63357
7132.5,0.63071
7126.71,0.62176
7120.93,0.63016
7115.14,0.62415
7109.36,0.62259
7103.57,0.62897
7097.78,0.61321
7092,0.61576
7086.21,0.61220
7080.42,0.60858
7074.64,0.60572
7068.85,0.60179
7063.07,0.60671
7057.28,0.59472
7051.49,0.58926
7045.71,0.58590
7039.92,0.58861
7034.13,0.58416
7028.35,0.57987
7022.56,0.57730
7016.78,0.57520
7010.99,0.57225
7005.2,0.57525
6999.42,0.56922
6993.63,0.57161
6987.84,0.56685
6982.06,0.56815
6976.27,0.56347
6970.49,0.56223
6964.7,0.56039
6958.91,0.55655
6953.13,0.56006
6947.34,0.56341
6941.55,0.55682
6935.77,0.55305
6929.98,0.55279
6924.2,0.55198
6918.41,0.54934
6912.62,0.55425
6906.84,0.55129
6901.05,0.54789
6895.26,0.54734
6889.48,0.54728
6883.69,0.54731
6877.91,0.54660
6872.12,0.53901
6866.33,0.54105
6860.55,0.53859
6854.76,0.53868
6848.97,0.54149
6843.19,0.53980
6837.4,0.53796
6831.62,0.53847
6825.83,0.53436
6820.04,0.53336
6814.26,0.53694
6808.47,0.53360
6802.68,0.53259
6796.9,0.52829
6791.11,0.52751
6785.33,0.53176
6779.54,0.52059
6773.75,0.52404
6767.97,0.52763
6762.18,0.52426
6756.39,0.52733
6750.61,0.52113
6744.82,0.51777
6739.04,0.52161
6733.25,0.52170
6727.46,0.52388
6721.68,0.51965
6715.89,0.52790
6710.1,0.52169
6704.32,0.51719
6698.53,0.51629
6692.75,0.52160
6686.96,0.51766
6681.17,0.51963
6675.39,0.52174
6669.6,0.52470
6663.82,0.52882
6658.03,0.52157
6652.24,0.52173
6646.46,0.52381
6640.67,0.52648
6634.88,0.53035
6629.1,0.52711
6623.31,0.52824
6617.53,0.53276
6611.74,0.52650
6605.95,0.52911
6600.17,0.53159
6594.38,0.53752
6588.59,0.53164
6582.81,0.53477
6577.02,0.53352
6571.24,0.53328
6565.45,0.53516
6559.66,0.53384
6553.88,0.53693
6548.09,0.53582
6542.3,0.53569
6536.52,0.53748
6530.73,0.53643
6524.95,0.53939
6519.16,0.53685
6513.37,0.53350
6507.59,0.53792
6501.8,0.53270
6496.01,0.53754
6490.23,0.53593
6484.44,0.53629
6478.66,0.53742
6472.87,0.53779
6467.08,0.53606
6461.3,0.53610
6455.51,0.53655
6449.72,0.53381
6443.94,0.53744
6438.15,0.53987
6432.37,0.54250
6426.58,0.54051
6420.79,0.53836
6415.01,0.54035
6409.22,0.53681
6403.43,0.53791
6397.65,0.54070
6391.86,0.54232
6386.08,0.53977
6380.29,0.54151
6374.5,0.54059
6368.72,0.53908
6362.93,0.54051
6357.14,0.54312
6351.36,0.54374
6345.57,0.53838
6339.79,0.54205
6334,0.54295
6328.21,0.54227
6322.43,0.54025
6316.64,0.54161
6310.85,0.54699
6305.07,0.54297
6299.28,0.54317
6293.5,0.54950
6287.71,0.54856
6281.92,0.54427
6276.14,0.54829
6270.35,0.54886
6264.56,0.55242
6258.78,0.55328
6252.99,0.55125
6247.21,0.55509
6241.42,0.55911
6235.63,0.56052
6229.85,0.56129
6224.06,0.56336
6218.27,0.56292
6212.49,0.56184
6206.7,0.56768
6200.92,0.57129
6195.13,0.57126
6189.34,0.57142
6183.56,0.57535
6177.77,0.58044
6171.98,0.57354
6166.2,0.57603
6160.41,0.57945
6154.63,0.57881
6148.84,0.57727
6143.05,0.58330
6137.27,0.58326
6131.48,0.58163
6125.7,0.58451
6119.91,0.58245
6114.12,0.58488
6108.34,0.58464
6102.55,0.58206
6096.76,0.57902
6090.98,0.57694
6085.19,0.57575
6079.41,0.57209
6073.62,0.56861
6067.83,0.56749
6062.05,0.56399
6056.26,0.56454
6050.47,0.55789
6044.69,0.55495
6038.9,0.55408
6033.12,0.55032
6027.33,0.54912
6021.54,0.54537
6015.76,0.54552
6009.97,0.54959
6004.18,0.55353
5998.4,0.56074
5992.61,0.56636
5986.83,0.57038
5981.04,0.57083
5975.25,0.57293
5969.47,0.57201
5963.68,0.57516
5957.89,0.57691
5952.11,0.58007
5946.32,0.57750
5940.54,0.57867
5934.75,0.58103
5928.96,0.58301
5923.18,0.58423
5917.39,0.58267
5911.6,0.58356
5905.82,0.58702
5900.03,0.58776
5894.25,0.58645
5888.46,0.58310
5882.67,0.57806
5876.89,0.57799
5871.1,0.57344
5865.31,0.57247
5859.53,0.57378
5853.74,0.57294
5847.96,0.57450
5842.17,0.57466
5836.38,0.57399
5830.6,0.57383
5824.81,0.57203
5819.02,0.57276
5813.24,0.56908
5807.45,0.57016
5801.67,0.57220
5795.88,0.57151
5790.09,0.56911
5784.31,0.56986
5778.52,0.56736
5772.73,0.56928
5766.95,0.56753
5761.16,0.57025
5755.38,0.57250
5749.59,0.57236
5743.8,0.57300
5738.02,0.57366
5732.23,0.57380
5726.44,0.57515
5720.66,0.57436
5714.87,0.57527
5709.09,0.57463
5703.3,0.57376
5697.51,0.57383
5691.73,0.57620
5685.94,0.57541
5680.15,0.57682
5674.37,0.57552
5668.58,0.57319
5662.8,0.57374
5657.01,0.57681
5651.22,0.57463
5645.44,0.57637
5639.65,0.57484
5633.87,0.57573
5628.08,0.57658
5622.29,0.57685
5616.51,0.57735
5610.72,0.57775
5604.93,0.57868
5599.15,0.57728
5593.36,0.57879
5587.58,0.57906
5581.79,0.57834
5576,0.57810
5570.22,0.57716
5564.43,0.57875
5558.64,0.57989
5552.86,0.57713
5547.07,0.57841
5541.29,0.58020
5535.5,0.57913
5529.71,0.57987
5523.93,0.58061
5518.14,0.57883
5512.35,0.57738
5506.57,0.57748
5500.78,0.57915
5495,0.57751
5489.21,0.57802
5483.42,0.57877
5477.64,0.57955
5471.85,0.57758
5466.06,0.57965
5460.28,0.58256
5454.49,0.58177
5448.71,0.58505
5442.92,0.58494
5437.13,0.58692
5431.35,0.58824
5425.56,0.58943
5419.77,0.58961
5413.99,0.59193
5408.2,0.59240
5402.42,0.59365
5396.63,0.59497
5390.84,0.59657
5385.06,0.59714
5379.27,0.59443
5373.48,0.59575
5367.7,0.59591
5361.91,0.59388
5356.13,0.59540
5350.34,0.59398
5344.55,0.59253
5338.77,0.59270
5332.98,0.59093
5327.19,0.59200
5321.41,0.58922
5315.62,0.58839
5309.84,0.58441
5304.05,0.58194
5298.26,0.57794
5292.48,0.57194
5286.69,0.56918
5280.9,0.56331
5275.12,0.55630
5269.33,0.54760
5263.55,0.54008
5257.76,0.53194
5251.97,0.52446
5246.19,0.51878
5240.4,0.51318
5234.61,0.50774
5228.83,0.50243
5223.04,0.49954
5217.26,0.49490
5211.47,0.49377
5205.68,0.49265
5199.9,0.49017
5194.11,0.48861
5188.32,0.48743
5182.54,0.48712
5176.75,0.48613
5170.97,0.48667
5165.18,0.48765
5159.39,0.48862
5153.61,0.48862
5147.82,0.49015
5142.03,0.49291
5136.25,0.49464
5130.46,0.49622
5124.68,0.49819
5118.89,0.49951
5113.1,0.50078
5107.32,0.50446
5101.53,0.50653
5095.75,0.51104
5089.96,0.51236
5084.17,0.51570
5078.39,0.51745
5072.6,0.51956
5066.81,0.52207
5061.03,0.52393
5055.24,0.52588
5049.46,0.52623
5043.67,0.52812
5037.88,0.53015
5032.1,0.53078
5026.31,0.53281
5020.52,0.53391
5014.74,0.53528
5008.95,0.53614
5003.17,0.53647
4997.38,0.53695
4991.59,0.53559
4985.81,0.53554
4980.02,0.53517
4974.23,0.53471
4968.45,0.53354
4962.66,0.53188
4956.88,0.52884
4951.09,0.52656
4945.3,0.52364
4939.52,0.52018
4933.73,0.51615
4927.94,0.51202
4922.16,0.50791
4916.37,0.50322
4910.59,0.49843
4904.8,0.49205
4899.01,0.48743
4893.23,0.48094
4887.44,0.47614
4881.65,0.47110
4875.87,0.46461
4870.08,0.45912
4864.3,0.45450
4858.51,0.45070
4852.72,0.44760
4846.94,0.44324
4841.15,0.43869
4835.36,0.43405
4829.58,0.42929
4823.79,0.42534
4818.01,0.42119
4812.22,0.41744
4806.43,0.41368
4800.65,0.41271
4794.86,0.40960
4789.07,0.40796
4783.29,0.40654
4777.5,0.40585
4771.72,0.40511
4765.93,0.40525
4760.14,0.40437
4754.36,0.40191
4748.57,0.40080
4742.78,0.40066
4737,0.39970
4731.21,0.39932
4725.43,0.39868
4719.64,0.39741
4713.85,0.39984
4708.07,0.40015
4702.28,0.39934
4696.49,0.39840
4690.71,0.39985
4684.92,0.40224
4679.14,0.40754
4673.35,0.41378
4667.56,0.41856
4661.78,0.42116
4655.99,0.42266
4650.2,0.42416
4644.42,0.42295
4638.63,0.42300
4632.85,0.42346
4627.06,0.42742
4621.27,0.43464
4615.49,0.44057
4609.7,0.44409
4603.92,0.44639
4598.13,0.44628
4592.34,0.44641
4586.56,0.44682
4580.77,0.44754
4574.98,0.45062
4569.2,0.45589
4563.41,0.46165
4557.63,0.46465
4551.84,0.46607
4546.05,0.46808
4540.27,0.46888
4534.48,0.47151
4528.69,0.47084
4522.91,0.47188
4517.12,0.47109
4511.34,0.47114
4505.55,0.46888
4499.76,0.46523
4493.98,0.45941
4488.19,0.45569
4482.4,0.45384
4476.62,0.44992
4470.83,0.44408
4465.05,0.43422
4459.26,0.42388
4453.47,0.41913
4447.69,0.41406
4441.9,0.40704
4436.11,0.39928
4430.33,0.39356
4424.54,0.38992
4418.76,0.38656
4412.97,0.38142
4407.18,0.37620
4401.4,0.37362
4395.61,0.37424
4389.82,0.37759
4384.04,0.38142
4378.25,0.38517
4372.47,0.38702
4366.68,0.38925
4360.89,0.38766
4355.11,0.38602
4349.32,0.38371
4343.53,0.38125
4337.75,0.37848
4331.96,0.37547
4326.18,0.37220
4320.39,0.36854
4314.6,0.36637
4308.82,0.36272
4303.03,0.35760
4297.24,0.35401
4291.46,0.35015
4285.67,0.34932
4279.89,0.34768
4274.1,0.34747
4268.31,0.34930
4262.53,0.34935
4256.74,0.35134
4250.95,0.35070
4245.17,0.35090
4239.38,0.35272
4233.6,0.35500
4227.81,0.35624
4222.02,0.35699
4216.24,0.35857
4210.45,0.35999
4204.66,0.36298
4198.88,0.36560
4193.09,0.36698
4187.31,0.36581
4181.52,0.36324
4175.73,0.36228
4169.95,0.36538
4164.16,0.37021
4158.37,0.37168
4152.59,0.37072
4146.8,0.36979
4141.02,0.36713
4135.23,0.36342
4129.44,0.36113
4123.66,0.35921
4117.87,0.35482
4112.09,0.34942
4106.3,0.34195
4100.51,0.33324
4094.73,0.32043
4088.94,0.31308
4083.15,0.31175
4077.37,0.31423
4071.58,0.31489
4065.8,0.31179
4060.01,0.30805
4054.22,0.30286
4048.44,0.29748
4042.65,0.29326
4036.86,0.29018
4031.08,0.28813
4025.29,0.28610
4019.51,0.28622
4013.72,0.28673
4007.93,0.28811
4002.15,0.29039
3996.36,0.29375
3990.57,0.29588
3984.79,0.29894
3979,0.30006
3973.22,0.30162
3967.43,0.30416
3961.64,0.30652
3955.86,0.30893
3950.07,0.31137
3944.28,0.31420
3938.5,0.31741
3932.71,0.32061
3926.93,0.32308
3921.14,0.32655
3915.35,0.32844
3909.57,0.33163
3903.78,0.33422
3897.99,0.33649
3892.21,0.33980
3886.42,0.34162
3880.64,0.34373
3874.85,0.34531
3869.06,0.34889
3863.28,0.35329
3857.49,0.35705
3851.7,0.36054
3845.92,0.36328
3840.13,0.36548
3834.35,0.36678
3828.56,0.36758
3822.77,0.36736
3816.99,0.36639
3811.2,0.36528
3805.41,0.36408
3799.63,0.36541
3793.84,0.36753
3788.06,0.36754
3782.27,0.36657
3776.48,0.36588
3770.7,0.36413
3764.91,0.36236
3759.12,0.35984
3753.34,0.35964
3747.55,0.36006
3741.77,0.35841
3735.98,0.35418
3730.19,0.35012
3724.41,0.34719
3718.62,0.34316
3712.83,0.33705
3707.05,0.32913
3701.26,0.31904
3695.48,0.30745
3689.69,0.29365
3683.9,0.28010
3678.12,0.26856
3672.33,0.25330
3666.54,0.23498
3660.76,0.21844
3654.97,0.20125
3649.19,0.18483
3643.4,0.17041
3637.61,0.15741
3631.83,0.14656
3626.04,0.13548
3620.25,0.12611
3614.47,0.11743
3608.68,0.10970
3602.9,0.10139
3597.11,0.09454
3591.32,0.08828
3585.54,0.08291
3579.75,0.07760
3573.97,0.07276
3568.18,0.06882
3562.39,0.06557
3556.61,0.06179
3550.82,0.05804
3545.03,0.05541
3539.25,0.05453
3533.46,0.05209
3527.68,0.05131
3521.89,0.04958
3516.1,0.04800
3510.32,0.04723
3504.53,0.04557
3498.74,0.04477
3492.96,0.04415
3487.17,0.04336
3481.39,0.04210
3475.6,0.04148
3469.81,0.04049
3464.03,0.03996
3458.24,0.03886
3452.45,0.03847
3446.67,0.03728
3440.88,0.03657
3435.1,0.03454
3429.31,0.03513
3423.52,0.03567
3417.74,0.03705
3411.95,0.03729
3406.16,0.03839
3400.38,0.03821
3394.59,0.03958
3388.81,0.03977
3383.02,0.03935
3377.23,0.03964
3371.45,0.03934
3365.66,0.04012
3359.87,0.04046
3354.09,0.04063
3348.3,0.04067
3342.52,0.04044
3336.73,0.04138
3330.94,0.04189
3325.16,0.04212
3319.37,0.04245
3313.58,0.04239
3307.8,0.04210
3302.01,0.04294
3296.23,0.04331
3290.44,0.04370
3284.65,0.04426
3278.87,0.04451
3273.08,0.04520
3267.29,0.04552
3261.51,0.04656
3255.72,0.04752
3249.94,0.04806
3244.15,0.04849
3238.36,0.04880
3232.58,0.04943
3226.79,0.05103
3221,0.05093
3215.22,0.05326
3209.43,0.05426
3203.65,0.05494
3197.86,0.05665
3192.07,0.05799
3186.29,0.05922
3180.5,0.06037
3174.71,0.06232
3168.93,0.06322
3163.14,0.06510
3157.36,0.06667
3151.57,0.06764
3145.78,0.06882
3140,0.07061
3134.21,0.07247
3128.42,0.07313
3122.64,0.07554
3116.85,0.07667
3111.07,0.07816
3105.28,0.07879
3099.49,0.08102
3093.71,0.08374
3087.92,0.08471
3082.14,0.08613
3076.35,0.08840
3070.56,0.09026
3064.78,0.09261
3058.99,0.09323
3053.2,0.09488
3047.42,0.10001
3041.63,0.10528
3035.85,0.10757
3030.06,0.10778
3024.27,0.10755
3018.49,0.10526
3012.7,0.10325
3006.91,0.10241
3001.13,0.10109
2995.34,0.09775
2989.56,0.09337
2983.77,0.08465
2977.98,0.07571
2972.2,0.06332
2966.41,0.05950
2960.62,0.05995
2954.84,0.05881
2949.05,0.05683
2943.27,0.05677
2937.48,0.05818
2931.69,0.05748
2925.91,0.05537
2920.12,0.05112
2914.33,0.04686
2908.55,0.04465
2902.76,0.04595
2896.98,0.04873
2891.19,0.05064
2885.4,0.05294
2879.62,0.05544
2873.83,0.05702
2868.04,0.05827
2862.26,0.06086
2856.47,0.06347
2850.69,0.06654
2844.9,0.07460
2839.11,0.08292
2833.33,0.08903
2827.54,0.09438
2821.75,0.09935
2815.97,0.10383
2810.18,0.10756
2804.4,0.11176
2798.61,0.11591
2792.82,0.11917
2787.04,0.12237
2781.25,0.12434
2775.46,0.12611
2769.68,0.12754
2763.89,0.12853
2758.11,0.12967
2752.32,0.13043
2746.53,0.13014
2740.75,0.12987
2734.96,0.13061
2729.17,0.13323
2723.39,0.13454
2717.6,0.13642
2711.82,0.13977
2706.03,0.14263
2700.24,0.14628
2694.46,0.14990
2688.67,0.15363
2682.88,0.15655
2677.1,0.16000
2671.31,0.16274
2665.53,0.16427
2659.74,0.16622
2653.95,0.16779
2648.17,0.16999
2642.38,0.17200
2636.59,0.17292
2630.81,0.17419
2625.02,0.17626
2619.24,0.17873
2613.45,0.18088
2607.66,0.18276
2601.88,0.18422
2596.09,0.18502
2590.3,0.18602
2584.52,0.18616
2578.73,0.18681
2572.95,0.18740
2567.16,0.18720
2561.37,0.18646
2555.59,0.18603
2549.8,0.18528
2544.02,0.18460
2538.23,0.18432
2532.44,0.18507
2526.66,0.18643
2520.87,0.18849
2515.08,0.19067
2509.3,0.19352
2503.51,0.19775
2497.73,0.20175
2491.94,0.20524
2486.15,0.20932
2480.37,0.21245
2474.58,0.21684
2468.79,0.22006
2463.01,0.22193
2457.22,0.22375
2451.44,0.22582
2445.65,0.22771
2439.86,0.23000
2434.08,0.23146
2428.29,0.23330
2422.5,0.23490
2416.72,0.23574
2410.93,0.23659
2405.15,0.23692
2399.36,0.23786
2393.57,0.23941
2387.79,0.24095
2382,0.24309
2376.21,0.24666
2370.43,0.25010
2364.64,0.25409
2358.86,0.25897
2353.07,0.26273
2347.28,0.26684
2341.5,0.27096
2335.71,0.27284
2329.92,0.27441
2324.14,0.27686
2318.35,0.27925
2312.57,0.28009
2306.78,0.27907
2300.99,0.27626
2295.21,0.27122
2289.42,0.26742
2283.63,0.26524
2277.85,0.26491
2272.06,0.26245
2266.28,0.25771
2260.49,0.25159
2254.7,0.24397
2248.92,0.23388
2243.13,0.22938
2237.34,0.23476
2231.56,0.24800
2225.77,0.25417
2219.99,0.25742
2214.2,0.25974
2208.41,0.26178
2202.63,0.26327
2196.84,0.26282
2191.05,0.26056
2185.27,0.25775
2179.48,0.25292
2173.7,0.24718
2167.91,0.24106
2162.12,0.23508
2156.34,0.22976
2150.55,0.22579
2144.76,0.22229
2138.98,0.21914
2133.19,0.21742
2127.41,0.21695
2121.62,0.21700
2115.83,0.21823
2110.05,0.22038
2104.26,0.22307
2098.47,0.22574
2092.69,0.22826
2086.9,0.23152
2081.12,0.23494
2075.33,0.23756
2069.54,0.23959
2063.76,0.24263
2057.97,0.24559
2052.19,0.24821
2046.4,0.24999
2040.61,0.25193
2034.83,0.25507
2029.04,0.25833
2023.25,0.26157
2017.47,0.26457
2011.68,0.26600
2005.9,0.26581
2000.11,0.26362
1994.32,0.26171
1988.54,0.26094
1982.75,0.26000
1976.96,0.25716
1971.18,0.25299
1965.39,0.24461
1959.61,0.23938
1953.82,0.24382
1948.03,0.25225
1942.25,0.26220
1936.46,0.27235
1930.67,0.28033
1924.89,0.28682
1919.1,0.29163
1913.32,0.29553
1907.53,0.29863
1901.74,0.30085
1895.96,0.30149
1890.17,0.30200
1884.38,0.30127
1878.6,0.29972
1872.81,0.29698
1867.03,0.29274
1861.24,0.28720
1855.45,0.27927
1849.67,0.26870
1843.88,0.25711
1838.09,0.24747
1832.31,0.23915
1826.52,0.23331
1820.74,0.22973
1814.95,0.22730
1809.16,0.22384
1803.38,0.22070
1797.59,0.21612
1791.8,0.21094
1786.02,0.20475
1780.23,0.19649
1774.45,0.18737
1768.66,0.17523
1762.87,0.16137
1757.09,0.14284
1751.3,0.11994
1745.51,0.09764
1739.73,0.08804
1733.94,0.08733
1728.16,0.09019
1722.37,0.09400
1716.58,0.09656
1710.8,0.09576
1705.01,0.09898
1699.22,0.10418
1693.44,0.10655
1687.65,0.10461
1681.87,0.10041
1676.08,0.10057
1670.29,0.09993
1664.51,0.10044
1658.72,0.10035
1652.93,0.09972
1647.15,0.09850
1641.36,0.09851
1635.58,0.09923
1629.79,0.10167
1624,0.10503
1618.22,0.10585
1612.43,0.10687
1606.64,0.11428
1600.86,0.12165
1595.07,0.12587
1589.29,0.12610
1583.5,0.11895
1577.71,0.11250
1571.93,0.12444
1566.14,0.13375
1560.35,0.13629
1554.57,0.13665
1548.78,0.13578
1543,0.13527
1537.21,0.13346
1531.42,0.12983
1525.64,0.12498
1519.85,0.12235
1514.07,0.11495
1508.28,0.09325
1502.49,0.08804
1496.71,0.10334
1490.92,0.09891
1485.13,0.08018
1479.35,0.06492
1473.56,0.05515
1467.78,0.04930
1461.99,0.04327
1456.2,0.03829
1450.42,0.03723
1444.63,0.03690
1438.84,0.03627
1433.06,0.03583
1427.27,0.03672
1421.49,0.03686
1415.7,0.03400
1409.91,0.03329
1404.13,0.03610
1398.34,0.03914
1392.55,0.03885
1386.77,0.03462
1380.98,0.02975
1375.2,0.02668
1369.41,0.02650
1363.62,0.02809
1357.84,0.02892
1352.05,0.02875
1346.26,0.02775
1340.48,0.02721
1334.69,0.02786
1328.91,0.02898
1323.12,0.02752
1317.33,0.02559
1311.55,0.02652
1305.76,0.02806
1299.97,0.02968
1294.19,0.03078
1288.4,0.03120
1282.62,0.03123
1276.83,0.03480
1271.04,0.03851
1265.26,0.03924
1259.47,0.03870
1253.68,0.03858
1247.9,0.03746
1242.11,0.03709
1236.33,0.03591
1230.54,0.03746
1224.75,0.04048
1218.97,0.04369
1213.18,0.04363
1207.39,0.03922
1201.61,0.04004
1195.82,0.04236
1190.04,0.04403
1184.25,0.03955
1178.46,0.03355
1172.68,0.03251
1166.89,0.03558
1161.1,0.03361
1155.32,0.02856
1149.53,0.02514
1143.75,0.02213
1137.96,0.01991
1132.17,0.02063
1126.39,0.02191
1120.6,0.02367
1114.81,0.02375
1109.03,0.02596
1103.24,0.02608
1097.46,0.02564
1091.67,0.02493
1085.88,0.02649
1080.1,0.03071
1074.31,0.03700
1068.52,0.04325
1062.74,0.04980
1056.95,0.04862
1051.17,0.04340
1045.38,0.03876
1039.59,0.03974
1033.81,0.04278
1028.02,0.03944
1022.24,0.03731
1016.45,0.03926
1010.66,0.04670
1004.88,0.05069
999.09,0.05324
993.304,0.05500
987.518,0.05460
981.731,0.05896
975.945,0.06442
970.159,0.07023
964.373,0.08165
958.586,0.09815
952.8,0.11289
947.014,0.12410
941.228,0.12983
935.441,0.13080
929.655,0.13190
923.869,0.13310
918.083,0.12856
912.297,0.11619
906.51,0.10162
900.724,0.09046
894.938,0.08871
889.152,0.09839
883.365,0.10360
877.579,0.10099
871.793,0.10233
866.007,0.11970
860.22,0.12001
854.434,0.11097
848.648,0.10430
842.862,0.10929
837.075,0.11587
831.289,0.12084
825.503,0.12184
819.717,0.12003
813.931,0.11556
808.144,0.11095
802.358,0.10681
796.572,0.09812
790.786,0.09404
784.999,0.09796
779.213,0.09793
773.427,0.09508
767.641,0.09281
761.854,0.08874
756.068,0.08262
750.282,0.07457
744.496,0.06504
738.709,0.04920
732.923,0.04019
727.137,0.04066
721.351,0.04579
715.565,0.05540
709.778,0.05803
703.992,0.05956
698.206,0.06230
692.42,0.06371
686.633,0.06256
680.847,0.05860
675.061,0.05650
669.275,0.05657
663.488,0.05759
657.702,0.05878
651.916,0.05949
646.13,0.05857
640.343,0.05677
634.557,0.05108
628.771,0.05185
622.985,0.05262
617.198,0.05223
611.412,0.05425
605.626,0.05290
599.84,0.05728