File: 01_Data/Cotton_Rug/FTIR/IS/Cotton_Rug_IS_S_220822_R1.dpt
7497.03,0.68504
7491.25,0.67850
7485.46,0.67321
7479.67,0.68462
7473.89,0.67476
7468.1,0.68251
7462.32,0.67398
7456.53,0.67624
7450.74,0.67797
7444.96,0.67181
7439.17,0.67189
7433.38,0.67527
7427.6,0.67448
7421.81,0.68279
7416.03,0.66962
7410.24,0.67514
7404.45,0.66149
7398.67,0.66776
7392.88,0.66120
7387.09,0.65744
7381.31,0.66332
7375.52,0.65825
7369.74,0.65748
7363.95,0.64863
7358.16,0.65752
7352.38,0.65490
7346.59,0.64276
7340.8,0.65383
7335.02,0.64919
7329.23,0.64545
7323.45,0.64741
7317.66,0.64448
7311.87,0.64775
7306.09,0.64840
7300.3,0.65583
7294.51,0.64261
7288.73,0.63826
7282.94,0.64118
7277.16,0.64545
7271.37,0.64540
7265.58,0.64033
7259.8,0.64186
7254.01,0.64006
7248.22,0.64373
7242.44,0.64377
7236.65,0.64141
7230.87,0.63557
7225.08,0.64193
7219.29,0.63994
7213.51,0.63954
7207.72,0.63790
7201.93,0.63931
7196.15,0.63693
7190.36,0.63109
7184.58,0.63359
7178.79,0.63803
7173,0.63964
7167.22,0.63354
7161.43,0.63471
7155.65,0.63019
7149.86,0.62712
7144.07,0.63571
7138.29,0.63187
7132.5,0.62498
7126.71,0.63080
7120.93,0.61840
7115.14,0.61868
7109.36,0.61401
7103.57,0.61283
7097.78,0.60567
7092,0.60903
7086.21,0.60576
7080.42,0.59344
7074.64,0.60624
7068.85,0.59350
7063.07,0.59590
7057.28,0.59155
7051.49,0.58561
7045.71,0.58592
7039.92,0.58292
7034.13,0.58078
7028.35,0.57463
7022.56,0.57159
7016.78,0.57151
7010.99,0.57381
7005.2,0.56197
6999.42,0.56197
6993.63,0.56139
6987.84,0.56373
6982.06,0.55921
6976.27,0.55469
6970.49,0.55685
6964.7,0.55743
6958.91,0.55050
6953.13,0.55213
6947.34,0.55245
6941.55,0.54988
6935.77,0.53994
6929.98,0.54442
6924.2,0.54158
6918.41,0.54587
6912.62,0.54813
6906.84,0.54251
6901.05,0.54437
6895.26,0.54048
6889.48,0.54350
6883.69,0.54558
6877.91,0.53859
6872.12,0.53929
6866.33,0.54326
6860.55,0.53608
6854.76,0.53145
6848.97,0.53521
6843.19,0.53667
6837.4,0.53198
6831.62,0.52928
6825.83,0.52948
6820.04,0.52511
6814.26,0.53238
6808.47,0.52832
6802.68,0.52760
6796.9,0.53029
6791.11,0.52476
6785.33,0.52657
6779.54,0.51752
6773.75,0.51807
6767.97,0.52075
6762.18,0.52014
6756.39,0.51679
6750.61,0.51763
6744.82,0.51829
6739.04,0.51439
6733.25,0.51474
6727.46,0.51511
6721.68,0.51448
6715.89,0.51812
6710.1,0.51409
6704.32,0.51728
6698.53,0.51868
6692.75,0.51795
6686.96,0.51825
6681.17,0.52180
6675.39,0.51778
6669.6,0.51401
6663.82,0.51540
6658.03,0.52086
6652.24,0.51854
6646.46,0.52118
6640.67,0.52682
6634.88,0.52264
6629.1,0.52858
6623.31,0.52639
6617.53,0.52302
6611.74,0.52978
6605.95,0.52185
6600.17,0.52800
6594.38,0.53171
6588.59,0.52740
6582.81,0.52516
6577.02,0.52979
6571.24,0.53015
6565.45,0.53024
6559.66,0.53128
6553.88,0.52985
6548.09,0.53102
6542.3,0.53374
6536.52,0.53293
6530.73,0.53095
6524.95,0.53082
6519.16,0.53057
6513.37,0.53137
6507.59,0.53231
6501.8,0.53114
6496.01,0.52922
6490.23,0.52741
6484.44,0.52699
6478.66,0.52974
6472.87,0.53045
6467.08,0.53275
6461.3,0.53417
6455.51,0.53011
6449.72,0.53083
6443.94,0.53146
6438.15,0.53311
6432.37,0.53347
6426.58,0.53317
6420.79,0.53108
6415.01,0.53435
6409.22,0.53338
6403.43,0.53989
6397.65,0.53450
6391.86,0.53617
6386.08,0.53623
6380.29,0.53491
6374.5,0.53590
6368.72,0.53372
6362.93,0.53682
6357.14,0.53508
6351.36,0.53759
6345.57,0.53916
6339.79,0.53794
6334,0.53745
6328.21,0.53958
6322.43,0.54057
6316.64,0.54214
6310.85,0.53779
6305.07,0.53830
6299.28,0.53543
6293.5,0.53794
6287.71,0.54249
6281.92,0.54541
6276.14,0.54388
6270.35,0.54531
6264.56,0.54858
6258.78,0.54885
6252.99,0.54850
6247.21,0.55261
6241.42,0.55323
6235.63,0.55542
6229.85,0.55654
6224.06,0.55741
6218.27,0.55814
6212.49,0.55860
6206.7,0.56350
6200.92,0.56132
6195.13,0.56211
6189.34,0.56492
6183.56,0.56711
6177.77,0.57094
6171.98,0.57079
6166.2,0.56837
6160.41,0.57229
6154.63,0.57676
6148.84,0.57806
6143.05,0.57372
6137.27,0.57642
6131.48,0.57879
6125.7,0.57827
6119.91,0.57868
6114.12,0.58050
6108.34,0.57644
6102.55,0.57812
6096.76,0.57446
6090.98,0.56879
6085.19,0.56995
6079.41,0.56820
6073.62,0.56625
6067.83,0.56786
6062.05,0.56505
6056.26,0.55724
6050.47,0.55529
6044.69,0.55155
6038.9,0.54917
6033.12,0.54997
6027.33,0.54419
6021.54,0.54095
6015.76,0.54191
6009.97,0.54690
6004.18,0.55170
5998.4,0.55752
5992.61,0.56076
5986.83,0.56503
5981.04,0.56562
5975.25,0.56893
5969.47,0.56802
5963.68,0.57119
5957.89,0.57537
5952.11,0.57482
5946.32,0.57354
5940.54,0.57380
5934.75,0.57399
5928.96,0.57776
5923.18,0.58009
5917.39,0.57973
5911.6,0.58251
5905.82,0.58268
5900.03,0.58291
5894.25,0.57887
5888.46,0.58000
5882.67,0.57432
5876.89,0.57104
5871.1,0.56938
5865.31,0.57011
5859.53,0.56874
5853.74,0.56846
5847.96,0.57117
5842.17,0.57046
5836.38,0.57130
5830.6,0.56899
5824.81,0.56728
5819.02,0.56977
5813.24,0.57010
5807.45,0.56807
5801.67,0.56774
5795.88,0.56509
5790.09,0.56580
5784.31,0.56617
5778.52,0.56627
5772.73,0.56541
5766.95,0.56521
5761.16,0.56540
5755.38,0.56687
5749.59,0.56788
5743.8,0.56884
5738.02,0.57207
5732.23,0.57000
5726.44,0.57082
5720.66,0.57096
5714.87,0.57159
5709.09,0.57311
5703.3,0.56999
5697.51,0.57300
5691.73,0.57112
5685.94,0.57149
5680.15,0.56886
5674.37,0.57228
5668.58,0.56841
5662.8,0.56914
5657.01,0.56975
5651.22,0.57260
5645.44,0.57098
5639.65,0.57271
5633.87,0.57235
5628.08,0.57409
5622.29,0.57296
5616.51,0.57471
5610.72,0.57460
5604.93,0.57344
5599.15,0.57355
5593.36,0.57412
5587.58,0.57274
5581.79,0.57392
5576,0.57401
5570.22,0.57287
5564.43,0.57387
5558.64,0.57210
5552.86,0.57282
5547.07,0.57377
5541.29,0.57251
5535.5,0.57165
5529.71,0.57323
5523.93,0.57283
5518.14,0.57313
5512.35,0.57440
5506.57,0.57445
5500.78,0.57550
5495,0.57503
5489.21,0.57304
5483.42,0.57451
5477.64,0.57498
5471.85,0.57652
5466.06,0.57628
5460.28,0.57452
5454.49,0.57718
5448.71,0.57963
5442.92,0.58062
5437.13,0.58019
5431.35,0.58285
5425.56,0.58332
5419.77,0.58535
5413.99,0.58485
5408.2,0.58873
5402.42,0.58756
5396.63,0.58918
5390.84,0.58818
5385.06,0.59087
5379.27,0.59193
5373.48,0.59033
5367.7,0.58886
5361.91,0.58702
5356.13,0.58892
5350.34,0.58678
5344.55,0.58526
5338.77,0.58602
5332.98,0.58527
5327.19,0.58372
5321.41,0.58118
5315.62,0.57887
5309.84,0.57539
5304.05,0.57072
5298.26,0.56693
5292.48,0.56118
5286.69,0.55460
5280.9,0.54731
5275.12,0.54120
5269.33,0.53298
5263.55,0.52343
5257.76,0.51476
5251.97,0.50814
5246.19,0.50070
5240.4,0.49387
5234.61,0.48824
5228.83,0.48539
5223.04,0.48068
5217.26,0.47541
5211.47,0.47303
5205.68,0.47051
5199.9,0.46816
5194.11,0.46763
5188.32,0.46579
5182.54,0.46728
5176.75,0.46592
5170.97,0.46753
5165.18,0.46747
5159.39,0.46721
5153.61,0.46862
5147.82,0.47129
5142.03,0.47081
5136.25,0.47416
5130.46,0.47597
5124.68,0.47891
5118.89,0.48054
5113.1,0.48210
5107.32,0.48652
5101.53,0.48812
5095.75,0.49055
5089.96,0.49393
5084.17,0.49683
5078.39,0.49894
5072.6,0.50088
5066.81,0.50307
5061.03,0.50644
5055.24,0.50894
5049.46,0.51045
5043.67,0.51159
5037.88,0.51216
5032.1,0.51432
5026.31,0.51592
5020.52,0.51672
5014.74,0.51867
5008.95,0.52036
5003.17,0.52126
4997.38,0.52272
4991.59,0.52169
4985.81,0.52298
4980.02,0.52304
4974.23,0.52215
4968.45,0.52160
4962.66,0.52116
4956.88,0.51912
4951.09,0.51569
4945.3,0.51390
4939.52,0.51196
4933.73,0.50786
4927.94,0.50404
4922.16,0.50001
4916.37,0.49599
4910.59,0.49181
4904.8,0.48675
4899.01,0.48181
4893.23,0.47584
4887.44,0.47141
4881.65,0.46582
4875.87,0.46022
4870.08,0.45650
4864.3,0.45227
4858.51,0.44674
4852.72,0.44403
4846.94,0.43913
4841.15,0.43513
4835.36,0.43154
4829.58,0.42647
4823.79,0.42237
4818.01,0.41906
4812.22,0.41571
4806.43,0.41216
4800.65,0.40917
4794.86,0.40734
4789.07,0.40513
4783.29,0.40339
4777.5,0.40318
4771.72,0.40278
4765.93,0.40192
4760.14,0.39983
4754.36,0.39893
4748.57,0.39848
4742.78,0.39662
4737,0.39734
4731.21,0.39718
4725.43,0.39662
4719.64,0.39593
4713.85,0.39766
4708.07,0.39887
4702.28,0.39862
4696.49,0.39643
4690.71,0.39649
4684.92,0.39920
4679.14,0.40500
4673.35,0.41132
4667.56,0.41518
4661.78,0.41781
4655.99,0.42059
4650.2,0.42114
4644.42,0.42013
4638.63,0.41732
4632.85,0.41935
4627.06,0.42477
4621.27,0.43186
4615.49,0.43645
4609.7,0.44048
4603.92,0.44236
4598.13,0.44297
4592.34,0.44211
4586.56,0.44378
4580.77,0.44399
4574.98,0.44684
4569.2,0.45354
4563.41,0.45857
4557.63,0.46131
4551.84,0.46392
4546.05,0.46570
4540.27,0.46661
4534.48,0.46697
4528.69,0.46746
4522.91,0.46843
4517.12,0.46672
4511.34,0.46766
4505.55,0.46563
4499.76,0.46223
4493.98,0.45716
4488.19,0.45332
4482.4,0.45006
4476.62,0.44682
4470.83,0.44052
4465.05,0.43147
4459.26,0.42202
4453.47,0.41594
4447.69,0.41112
4441.9,0.40423
4436.11,0.39792
4430.33,0.39212
4424.54,0.38735
4418.76,0.38468
4412.97,0.37939
4407.18,0.37415
4401.4,0.37108
4395.61,0.37148
4389.82,0.37556
4384.04,0.37965
4378.25,0.38342
4372.47,0.38564
4366.68,0.38809
4360.89,0.38636
4355.11,0.38429
4349.32,0.38226
4343.53,0.37885
4337.75,0.37612
4331.96,0.37335
4326.18,0.36934
4320.39,0.36609
4314.6,0.36310
4308.82,0.36055
4303.03,0.35564
4297.24,0.35247
4291.46,0.34807
4285.67,0.34618
4279.89,0.34593
4274.1,0.34592
4268.31,0.34557
4262.53,0.34853
4256.74,0.34827
4250.95,0.34823
4245.17,0.34830
4239.38,0.34977
4233.6,0.35198
4227.81,0.35276
4222.02,0.35407
4216.24,0.35607
4210.45,0.35839
4204.66,0.36100
4198.88,0.36302
4193.09,0.36380
4187.31,0.36227
4181.52,0.35986
4175.73,0.35906
4169.95,0.36171
4164.16,0.36603
4158.37,0.36763
4152.59,0.36755
4146.8,0.36576
4141.02,0.36298
4135.23,0.36025
4129.44,0.35824
4123.66,0.35541
4117.87,0.35043
4112.09,0.34526
4106.3,0.33902
4100.51,0.32989
4094.73,0.31690
4088.94,0.30972
4083.15,0.30977
4077.37,0.31093
4071.58,0.31199
4065.8,0.30953
4060.01,0.30513
4054.22,0.30012
4048.44,0.29509
4042.65,0.29105
4036.86,0.28749
4031.08,0.28559
4025.29,0.28434
4019.51,0.28413
4013.72,0.28425
4007.93,0.28565
4002.15,0.28810
3996.36,0.29064
3990.57,0.29238
3984.79,0.29554
3979,0.29679
3973.22,0.29850
3967.43,0.30072
3961.64,0.30343
3955.86,0.30526
3950.07,0.30773
3944.28,0.31045
3938.5,0.31368
3932.71,0.31728
3926.93,0.31941
3921.14,0.32171
3915.35,0.32442
3909.57,0.32679
3903.78,0.32992
3897.99,0.33241
3892.21,0.33563
3886.42,0.33789
3880.64,0.33974
3874.85,0.34115
3869.06,0.34485
3863.28,0.34827
3857.49,0.35102
3851.7,0.35436
3845.92,0.35647
3840.13,0.35933
3834.35,0.36038
3828.56,0.36158
3822.77,0.36111
3816.99,0.35953
3811.2,0.35797
3805.41,0.35732
3799.63,0.35772
3793.84,0.35917
3788.06,0.35951
3782.27,0.35866
3776.48,0.35809
3770.7,0.35555
3764.91,0.35309
3759.12,0.35083
3753.34,0.34992
3747.55,0.34973
3741.77,0.34824
3735.98,0.34450
3730.19,0.33911
3724.41,0.33595
3718.62,0.33158
3712.83,0.32504
3707.05,0.31626
3701.26,0.30547
3695.48,0.29372
3689.69,0.27933
3683.9,0.26313
3678.12,0.25050
3672.33,0.23439
3666.54,0.21609
3660.76,0.19794
3654.97,0.18139
3649.19,0.16593
3643.4,0.15132
3637.61,0.13943
3631.83,0.12940
3626.04,0.11937
3620.25,0.11117
3614.47,0.10418
3608.68,0.09720
3602.9,0.09068
3597.11,0.08487
3591.32,0.07929
3585.54,0.07532
3579.75,0.07130
3573.97,0.06725
3568.18,0.06340
3562.39,0.06013
3556.61,0.05721
3550.82,0.05534
3545.03,0.05288
3539.25,0.05093
3533.46,0.04934
3527.68,0.04856
3521.89,0.04718
3516.1,0.04573
3510.32,0.04528
3504.53,0.04418
3498.74,0.04330
3492.96,0.04212
3487.17,0.04166
3481.39,0.04119
3475.6,0.04074
3469.81,0.03994
3464.03,0.03925
3458.24,0.03836
3452.45,0.03649
3446.67,0.03640
3440.88,0.03548
3435.1,0.03436
3429.31,0.03398
3423.52,0.03543
3417.74,0.03682
3411.95,0.03682
3406.16,0.03795
3400.38,0.03850
3394.59,0.03848
3388.81,0.03887
3383.02,0.03910
3377.23,0.03854
3371.45,0.03987
3365.66,0.03957
3359.87,0.03999
3354.09,0.04026
3348.3,0.04004
3342.52,0.04060
3336.73,0.04089
3330.94,0.04217
3325.16,0.04251
3319.37,0.04235
3313.58,0.04240
3307.8,0.04224
3302.01,0.04194
3296.23,0.04284
3290.44,0.04289
3284.65,0.04327
3278.87,0.04382
3273.08,0.04465
3267.29,0.04485
3261.51,0.04600
3255.72,0.04608
3249.94,0.04687
3244.15,0.04760
3238.36,0.04829
3232.58,0.04935
3226.79,0.04932
3221,0.05073
3215.22,0.05165
3209.43,0.05247
3203.65,0.05383
3197.86,0.05471
3192.07,0.05561
3186.29,0.05677
3180.5,0.05875
3174.71,0.05953
3168.93,0.06022
3163.14,0.06186
3157.36,0.06353
3151.57,0.06507
3145.78,0.06610
3140,0.06719
3134.21,0.06803
3128.42,0.06964
3122.64,0.07137
3116.85,0.07274
3111.07,0.07391
3105.28,0.07483
3099.49,0.07700
3093.71,0.07943
3087.92,0.08039
3082.14,0.08121
3076.35,0.08346
3070.56,0.08518
3064.78,0.08644
3058.99,0.08888
3053.2,0.09009
3047.42,0.09489
3041.63,0.09986
3035.85,0.10183
3030.06,0.10226
3024.27,0.10202
3018.49,0.09999
3012.7,0.09870
3006.91,0.09774
3001.13,0.09678
2995.34,0.09471
2989.56,0.08994
2983.77,0.08239
2977.98,0.07276
2972.2,0.06210
2966.41,0.05788
2960.62,0.05917
2954.84,0.05829
2949.05,0.05684
2943.27,0.05677
2937.48,0.05833
2931.69,0.05734
2925.91,0.05434
2920.12,0.04992
2914.33,0.04664
2908.55,0.04407
2902.76,0.04548
2896.98,0.04815
2891.19,0.04965
2885.4,0.05240
2879.62,0.05494
2873.83,0.05636
2868.04,0.05837
2862.26,0.06051
2856.47,0.06292
2850.69,0.06553
2844.9,0.07338
2839.11,0.08200
2833.33,0.08785
2827.54,0.09309
2821.75,0.09776
2815.97,0.10211
2810.18,0.10581
2804.4,0.10932
2798.61,0.11405
2792.82,0.11802
2787.04,0.12049
2781.25,0.12207
2775.46,0.12376
2769.68,0.12486
2763.89,0.12639
2758.11,0.12732
2752.32,0.12808
2746.53,0.12802
2740.75,0.12820
2734.96,0.12937
2729.17,0.13049
2723.39,0.13260
2717.6,0.13447
2711.82,0.13718
2706.03,0.14077
2700.24,0.14446
2694.46,0.14805
2688.67,0.15145
2682.88,0.15495
2677.1,0.15829
2671.31,0.16047
2665.53,0.16219
2659.74,0.16383
2653.95,0.16570
2648.17,0.16764
2642.38,0.16904
2636.59,0.17047
2630.81,0.17177
2625.02,0.17372
2619.24,0.17645
2613.45,0.17866
2607.66,0.18034
2601.88,0.18213
2596.09,0.18328
2590.3,0.18351
2584.52,0.18424
2578.73,0.18485
2572.95,0.18525
2567.16,0.18513
2561.37,0.18440
2555.59,0.18342
2549.8,0.18289
2544.02,0.18236
2538.23,0.18215
2532.44,0.18248
2526.66,0.18430
2520.87,0.18636
2515.08,0.18808
2509.3,0.19152
2503.51,0.19558
2497.73,0.19903
2491.94,0.20342
2486.15,0.20708
2480.37,0.21073
2474.58,0.21431
2468.79,0.21780
2463.01,0.21974
2457.22,0.22122
2451.44,0.22303
2445.65,0.22510
2439.86,0.22731
2434.08,0.22933
2428.29,0.23080
2422.5,0.23175
2416.72,0.23286
2410.93,0.23380
2405.15,0.23389
2399.36,0.23469
2393.57,0.23602
2387.79,0.23796
2382,0.23948
2376.21,0.24295
2370.43,0.24654
2364.64,0.25045
2358.86,0.25508
2353.07,0.25875
2347.28,0.26262
2341.5,0.26574
2335.71,0.26778
2329.92,0.26938
2324.14,0.27182
2318.35,0.27410
2312.57,0.27522
2306.78,0.27400
2300.99,0.27109
2295.21,0.26620
2289.42,0.26197
2283.63,0.25994
2277.85,0.25941
2272.06,0.25703
2266.28,0.25208
2260.49,0.24653
2254.7,0.23828
2248.92,0.22914
2243.13,0.22486
2237.34,0.22975
2231.56,0.24205
2225.77,0.24827
2219.99,0.25088
2214.2,0.25340
2208.41,0.25534
2202.63,0.25620
2196.84,0.25594
2191.05,0.25339
2185.27,0.25019
2179.48,0.24577
2173.7,0.24028
2167.91,0.23495
2162.12,0.22909
2156.34,0.22385
2150.55,0.21966
2144.76,0.21689
2138.98,0.21347
2133.19,0.21149
2127.41,0.21133
2121.62,0.21144
2115.83,0.21257
2110.05,0.21476
2104.26,0.21734
2098.47,0.21990
2092.69,0.22224
2086.9,0.22515
2081.12,0.22891
2075.33,0.23129
2069.54,0.23309
2063.76,0.23618
2057.97,0.23958
2052.19,0.24145
2046.4,0.24322
2040.61,0.24523
2034.83,0.24805
2029.04,0.25167
2023.25,0.25485
2017.47,0.25779
2011.68,0.25932
2005.9,0.25902
2000.11,0.25728
1994.32,0.25585
1988.54,0.25521
1982.75,0.25423
1976.96,0.25175
1971.18,0.24720
1965.39,0.23969
1959.61,0.23436
1953.82,0.23867
1948.03,0.24698
1942.25,0.25707
1936.46,0.26639
1930.67,0.27437
1924.89,0.28026
1919.1,0.28460
1913.32,0.28870
1907.53,0.29144
1901.74,0.29351
1895.96,0.29463
1890.17,0.29477
1884.38,0.29402
1878.6,0.29269
1872.81,0.29019
1867.03,0.28628
1861.24,0.28051
1855.45,0.27322
1849.67,0.26308
1843.88,0.25200
1838.09,0.24240
1832.31,0.23486
1826.52,0.22938
1820.74,0.22574
1814.95,0.22314
1809.16,0.21961
1803.38,0.21603
1797.59,0.21235
1791.8,0.20711
1786.02,0.20047
1780.23,0.19265
1774.45,0.18395
1768.66,0.17226
1762.87,0.15874
1757.09,0.14052
1751.3,0.11840
1745.51,0.09654
1739.73,0.08700
1733.94,0.08574
1728.16,0.08865
1722.37,0.09160
1716.58,0.09414
1710.8,0.09281
1705.01,0.09502
1699.22,0.10017
1693.44,0.10164
1687.65,0.09893
1681.87,0.09507
1676.08,0.09464
1670.29,0.09297
1664.51,0.09301
1658.72,0.09266
1652.93,0.09223
1647.15,0.09108
1641.36,0.09082
1635.58,0.09253
1629.79,0.09386
1624,0.09712
1618.22,0.09875
1612.43,0.10080
1606.64,0.10836
1600.86,0.11555
1595.07,0.11996
1589.29,0.12104
1583.5,0.11455
1577.71,0.10876
1571.93,0.12065
1566.14,0.12920
1560.35,0.13250
1554.57,0.13263
1548.78,0.13187
1543,0.13163
1537.21,0.13011
1531.42,0.12640
1525.64,0.12171
1519.85,0.11957
1514.07,0.11265
1508.28,0.09101
1502.49,0.08649
1496.71,0.10196
1490.92,0.09704
1485.13,0.07870
1479.35,0.06427
1473.56,0.05478
1467.78,0.04920
1461.99,0.04312
1456.2,0.03811
1450.42,0.03718
1444.63,0.03682
1438.84,0.03627
1433.06,0.03589
1427.27,0.03657
1421.49,0.03628
1415.7,0.03390
1409.91,0.03327
1404.13,0.03622
1398.34,0.03935
1392.55,0.03887
1386.77,0.03465
1380.98,0.02976
1375.2,0.02679
1369.41,0.02653
1363.62,0.02815
1357.84,0.02914
1352.05,0.02864
1346.26,0.02782
1340.48,0.02716
1334.69,0.02750
1328.91,0.02919
1323.12,0.02757
1317.33,0.02571
1311.55,0.02658
1305.76,0.02842
1299.97,0.03037
1294.19,0.03066
1288.4,0.03117
1282.62,0.03123
1276.83,0.03504
1271.04,0.03879
1265.26,0.03922
1259.47,0.03882
1253.68,0.03843
1247.9,0.03833
1242.11,0.03731
1236.33,0.03591
1230.54,0.03763
1224.75,0.04077
1218.97,0.04371
1213.18,0.04356
1207.39,0.03917
1201.61,0.04001
1195.82,0.04289
1190.04,0.04415
1184.25,0.03957
1178.46,0.03386
1172.68,0.03240
1166.89,0.03536
1161.1,0.03328
1155.32,0.02883
1149.53,0.02538
1143.75,0.02223
1137.96,0.02104
1132.17,0.02056
1126.39,0.02205
1120.6,0.02359
1114.81,0.02478
1109.03,0.02590
1103.24,0.02561
1097.46,0.02459
1091.67,0.02554
1085.88,0.02731
1080.1,0.03119
1074.31,0.03676
1068.52,0.04260
1062.74,0.04982
1056.95,0.04830
1051.17,0.04315
1045.38,0.03906
1039.59,0.03926
1033.81,0.04277
1028.02,0.03992
1022.24,0.03698
1016.45,0.03850
1010.66,0.04634
1004.88,0.05139
999.09,0.05261
993.304,0.05500
987.518,0.05483
981.731,0.05915
975.945,0.06513
970.159,0.07024
964.373,0.08230
958.586,0.09744
952.8,0.11272
947.014,0.12294
941.228,0.12794
935.441,0.12919
929.655,0.12991
923.869,0.13000
918.083,0.12586
912.297,0.11357
906.51,0.09900
900.724,0.08792
894.938,0.08752
889.152,0.09662
883.365,0.10179
877.579,0.09822
871.793,0.09884
866.007,0.11491
860.22,0.11422
854.434,0.10596
848.648,0.09937
842.862,0.10432
837.075,0.10999
831.289,0.11390
825.503,0.11461
819.717,0.11166
813.931,0.10852
808.144,0.10435
802.358,0.09985
796.572,0.09106
790.786,0.08791
784.999,0.09214
779.213,0.09219
773.427,0.08969
767.641,0.08706
761.854,0.08347
756.068,0.07819
750.282,0.07099
744.496,0.06082
738.709,0.04580
732.923,0.03852
727.137,0.03880
721.351,0.04589
715.565,0.05563
709.778,0.05575
703.992,0.05695
698.206,0.05970
692.42,0.06251
686.633,0.06102
680.847,0.05770
675.061,0.05535
669.275,0.05536
663.488,0.05716
657.702,0.05724
651.916,0.05852
646.13,0.05828
640.343,0.05349
634.557,0.05177
628.771,0.05184
622.985,0.05159
617.198,0.05208
611.412,0.05172
605.626,0.05600
599.84,0.05415