File: 01_Data/Cotton_Rug/FTIR/IS/Cotton_Rug_IS_S_220822_R4.dpt
7497.03,0.68085
7491.25,0.68360
7485.46,0.68046
7479.67,0.67555
7473.89,0.68094
7468.1,0.67751
7462.32,0.67514
7456.53,0.68304
7450.74,0.68773
7444.96,0.67957
7439.17,0.68211
7433.38,0.67324
7427.6,0.67964
7421.81,0.67220
7416.03,0.67931
7410.24,0.67263
7404.45,0.66018
7398.67,0.65769
7392.88,0.67225
7387.09,0.66707
7381.31,0.66053
7375.52,0.65867
7369.74,0.66154
7363.95,0.66378
7358.16,0.65934
7352.38,0.66328
7346.59,0.65214
7340.8,0.65844
7335.02,0.65009
7329.23,0.65432
7323.45,0.65399
7317.66,0.64280
7311.87,0.64769
7306.09,0.63484
7300.3,0.65365
7294.51,0.64956
7288.73,0.64472
7282.94,0.65218
7277.16,0.64199
7271.37,0.65048
7265.58,0.65007
7259.8,0.65487
7254.01,0.64258
7248.22,0.64380
7242.44,0.64630
7236.65,0.63828
7230.87,0.64382
7225.08,0.63964
7219.29,0.65044
7213.51,0.64260
7207.72,0.64453
7201.93,0.64051
7196.15,0.63920
7190.36,0.64037
7184.58,0.64236
7178.79,0.64236
7173,0.64812
7167.22,0.64088
7161.43,0.64052
7155.65,0.64050
7149.86,0.63471
7144.07,0.63332
7138.29,0.63037
7132.5,0.63784
7126.71,0.62896
7120.93,0.62743
7115.14,0.62424
7109.36,0.62930
7103.57,0.62880
7097.78,0.62295
7092,0.61377
7086.21,0.61685
7080.42,0.61659
7074.64,0.61963
7068.85,0.60880
7063.07,0.59820
7057.28,0.59642
7051.49,0.59561
7045.71,0.59449
7039.92,0.59266
7034.13,0.59253
7028.35,0.58560
7022.56,0.57960
7016.78,0.57117
7010.99,0.57203
7005.2,0.57122
6999.42,0.57209
6993.63,0.56445
6987.84,0.56349
6982.06,0.56366
6976.27,0.56222
6970.49,0.56501
6964.7,0.55877
6958.91,0.55908
6953.13,0.56071
6947.34,0.56370
6941.55,0.55832
6935.77,0.55092
6929.98,0.55684
6924.2,0.55459
6918.41,0.55163
6912.62,0.54822
6906.84,0.55220
6901.05,0.55353
6895.26,0.55277
6889.48,0.54862
6883.69,0.54598
6877.91,0.54854
6872.12,0.54675
6866.33,0.54256
6860.55,0.54488
6854.76,0.54262
6848.97,0.54122
6843.19,0.54086
6837.4,0.54169
6831.62,0.54241
6825.83,0.53827
6820.04,0.53997
6814.26,0.53677
6808.47,0.53518
6802.68,0.52817
6796.9,0.52814
6791.11,0.52923
6785.33,0.53137
6779.54,0.52505
6773.75,0.52648
6767.97,0.52095
6762.18,0.52704
6756.39,0.52584
6750.61,0.52286
6744.82,0.52658
6739.04,0.52730
6733.25,0.52669
6727.46,0.52309
6721.68,0.52395
6715.89,0.52509
6710.1,0.52418
6704.32,0.52384
6698.53,0.52384
6692.75,0.52362
6686.96,0.52409
6681.17,0.52155
6675.39,0.52524
6669.6,0.52626
6663.82,0.52738
6658.03,0.52723
6652.24,0.52864
6646.46,0.52800
6640.67,0.52877
6634.88,0.53150
6629.1,0.53517
6623.31,0.53483
6617.53,0.53156
6611.74,0.52795
6605.95,0.53271
6600.17,0.53460
6594.38,0.53625
6588.59,0.53584
6582.81,0.53855
6577.02,0.53853
6571.24,0.53619
6565.45,0.53849
6559.66,0.53941
6553.88,0.53932
6548.09,0.53893
6542.3,0.54037
6536.52,0.53994
6530.73,0.53797
6524.95,0.53827
6519.16,0.53804
6513.37,0.53594
6507.59,0.53690
6501.8,0.54039
6496.01,0.54154
6490.23,0.53720
6484.44,0.53629
6478.66,0.53755
6472.87,0.53941
6467.08,0.53455
6461.3,0.53584
6455.51,0.53975
6449.72,0.53830
6443.94,0.53842
6438.15,0.53683
6432.37,0.54381
6426.58,0.53898
6420.79,0.54179
6415.01,0.54304
6409.22,0.54201
6403.43,0.54253
6397.65,0.54563
6391.86,0.54391
6386.08,0.54109
6380.29,0.54322
6374.5,0.54452
6368.72,0.54445
6362.93,0.54423
6357.14,0.54471
6351.36,0.54170
6345.57,0.54707
6339.79,0.54285
6334,0.54861
6328.21,0.54293
6322.43,0.54643
6316.64,0.54266
6310.85,0.54426
6305.07,0.54662
6299.28,0.54554
6293.5,0.55001
6287.71,0.54578
6281.92,0.55064
6276.14,0.55108
6270.35,0.55215
6264.56,0.55049
6258.78,0.55560
6252.99,0.55228
6247.21,0.55665
6241.42,0.55948
6235.63,0.56351
6229.85,0.56163
6224.06,0.56251
6218.27,0.56913
6212.49,0.56655
6206.7,0.56520
6200.92,0.56720
6195.13,0.57172
6189.34,0.57204
6183.56,0.57465
6177.77,0.57539
6171.98,0.57643
6166.2,0.57946
6160.41,0.58242
6154.63,0.58095
6148.84,0.57983
6143.05,0.58033
6137.27,0.58472
6131.48,0.58409
6125.7,0.58423
6119.91,0.58532
6114.12,0.58667
6108.34,0.58695
6102.55,0.58157
6096.76,0.58013
6090.98,0.57737
6085.19,0.57556
6079.41,0.57316
6073.62,0.57258
6067.83,0.56845
6062.05,0.56914
6056.26,0.56504
6050.47,0.55973
6044.69,0.55648
6038.9,0.55632
6033.12,0.55032
6027.33,0.54745
6021.54,0.54591
6015.76,0.54666
6009.97,0.54956
6004.18,0.55435
5998.4,0.56330
5992.61,0.56919
5986.83,0.56751
5981.04,0.57176
5975.25,0.57294
5969.47,0.57781
5963.68,0.58117
5957.89,0.58319
5952.11,0.58151
5946.32,0.57757
5940.54,0.58053
5934.75,0.58082
5928.96,0.58077
5923.18,0.58478
5917.39,0.58359
5911.6,0.58378
5905.82,0.58610
5900.03,0.58986
5894.25,0.58246
5888.46,0.58427
5882.67,0.57985
5876.89,0.57842
5871.1,0.57828
5865.31,0.57398
5859.53,0.57368
5853.74,0.57411
5847.96,0.57350
5842.17,0.57480
5836.38,0.57485
5830.6,0.57488
5824.81,0.57392
5819.02,0.57292
5813.24,0.56923
5807.45,0.57357
5801.67,0.57154
5795.88,0.57227
5790.09,0.57063
5784.31,0.57041
5778.52,0.57111
5772.73,0.56774
5766.95,0.57072
5761.16,0.57213
5755.38,0.57277
5749.59,0.57292
5743.8,0.57302
5738.02,0.57512
5732.23,0.57679
5726.44,0.57618
5720.66,0.57679
5714.87,0.57458
5709.09,0.57720
5703.3,0.57833
5697.51,0.57734
5691.73,0.57659
5685.94,0.57622
5680.15,0.57600
5674.37,0.57830
5668.58,0.57716
5662.8,0.57487
5657.01,0.57675
5651.22,0.57456
5645.44,0.57730
5639.65,0.57811
5633.87,0.57870
5628.08,0.57716
5622.29,0.57744
5616.51,0.57925
5610.72,0.57686
5604.93,0.57930
5599.15,0.58057
5593.36,0.57959
5587.58,0.58124
5581.79,0.57993
5576,0.57825
5570.22,0.57757
5564.43,0.57718
5558.64,0.57969
5552.86,0.58178
5547.07,0.58049
5541.29,0.57847
5535.5,0.57837
5529.71,0.58128
5523.93,0.58119
5518.14,0.58068
5512.35,0.58101
5506.57,0.58141
5500.78,0.58222
5495,0.58012
5489.21,0.58078
5483.42,0.58064
5477.64,0.57952
5471.85,0.57911
5466.06,0.58083
5460.28,0.58195
5454.49,0.58367
5448.71,0.58587
5442.92,0.58833
5437.13,0.58621
5431.35,0.58943
5425.56,0.59067
5419.77,0.59396
5413.99,0.59413
5408.2,0.59501
5402.42,0.59458
5396.63,0.59682
5390.84,0.59679
5385.06,0.59769
5379.27,0.59759
5373.48,0.59728
5367.7,0.59905
5361.91,0.59776
5356.13,0.59645
5350.34,0.59740
5344.55,0.59597
5338.77,0.59706
5332.98,0.59635
5327.19,0.59588
5321.41,0.59331
5315.62,0.59280
5309.84,0.58915
5304.05,0.58705
5298.26,0.58229
5292.48,0.57862
5286.69,0.57529
5280.9,0.57089
5275.12,0.56431
5269.33,0.55799
5263.55,0.55085
5257.76,0.54408
5251.97,0.53881
5246.19,0.53161
5240.4,0.52660
5234.61,0.52171
5228.83,0.51608
5223.04,0.51332
5217.26,0.51162
5211.47,0.50790
5205.68,0.50546
5199.9,0.50477
5194.11,0.50303
5188.32,0.50395
5182.54,0.50288
5176.75,0.50325
5170.97,0.50154
5165.18,0.50407
5159.39,0.50357
5153.61,0.50461
5147.82,0.50490
5142.03,0.50700
5136.25,0.50797
5130.46,0.50912
5124.68,0.51219
5118.89,0.51211
5113.1,0.51530
5107.32,0.51794
5101.53,0.52085
5095.75,0.52335
5089.96,0.52498
5084.17,0.52793
5078.39,0.53142
5072.6,0.53231
5066.81,0.53493
5061.03,0.53546
5055.24,0.53708
5049.46,0.53856
5043.67,0.53957
5037.88,0.54183
5032.1,0.54326
5026.31,0.54457
5020.52,0.54451
5014.74,0.54454
5008.95,0.54397
5003.17,0.54530
4997.38,0.54488
4991.59,0.54442
4985.81,0.54418
4980.02,0.54412
4974.23,0.54202
4968.45,0.53920
4962.66,0.53818
4956.88,0.53481
4951.09,0.53265
4945.3,0.52877
4939.52,0.52357
4933.73,0.52060
4927.94,0.51666
4922.16,0.51146
4916.37,0.50552
4910.59,0.50078
4904.8,0.49478
4899.01,0.49020
4893.23,0.48328
4887.44,0.47700
4881.65,0.47074
4875.87,0.46581
4870.08,0.46127
4864.3,0.45609
4858.51,0.45258
4852.72,0.44687
4846.94,0.44433
4841.15,0.43909
4835.36,0.43440
4829.58,0.42956
4823.79,0.42505
4818.01,0.42133
4812.22,0.41819
4806.43,0.41498
4800.65,0.41222
4794.86,0.40906
4789.07,0.40842
4783.29,0.40784
4777.5,0.40658
4771.72,0.40574
4765.93,0.40556
4760.14,0.40424
4754.36,0.40304
4748.57,0.40164
4742.78,0.40156
4737,0.40185
4731.21,0.40089
4725.43,0.40036
4719.64,0.39972
4713.85,0.40129
4708.07,0.40197
4702.28,0.40121
4696.49,0.40015
4690.71,0.40046
4684.92,0.40330
4679.14,0.40830
4673.35,0.41443
4667.56,0.41965
4661.78,0.42203
4655.99,0.42349
4650.2,0.42461
4644.42,0.42378
4638.63,0.42332
4632.85,0.42429
4627.06,0.42965
4621.27,0.43608
4615.49,0.44105
4609.7,0.44543
4603.92,0.44676
4598.13,0.44692
4592.34,0.44785
4586.56,0.44751
4580.77,0.44854
4574.98,0.45113
4569.2,0.45714
4563.41,0.46300
4557.63,0.46670
4551.84,0.46768
4546.05,0.46849
4540.27,0.47122
4534.48,0.47263
4528.69,0.47279
4522.91,0.47350
4517.12,0.47352
4511.34,0.47176
4505.55,0.46983
4499.76,0.46686
4493.98,0.46130
4488.19,0.45695
4482.4,0.45421
4476.62,0.45078
4470.83,0.44443
4465.05,0.43533
4459.26,0.42545
4453.47,0.41951
4447.69,0.41448
4441.9,0.40670
4436.11,0.39992
4430.33,0.39458
4424.54,0.39111
4418.76,0.38737
4412.97,0.38217
4407.18,0.37741
4401.4,0.37410
4395.61,0.37460
4389.82,0.37706
4384.04,0.38223
4378.25,0.38585
4372.47,0.38744
4366.68,0.38884
4360.89,0.38802
4355.11,0.38648
4349.32,0.38483
4343.53,0.38324
4337.75,0.37935
4331.96,0.37546
4326.18,0.37251
4320.39,0.36912
4314.6,0.36656
4308.82,0.36359
4303.03,0.35834
4297.24,0.35429
4291.46,0.35177
4285.67,0.34932
4279.89,0.34856
4274.1,0.34769
4268.31,0.34885
4262.53,0.34996
4256.74,0.35096
4250.95,0.35149
4245.17,0.35223
4239.38,0.35291
4233.6,0.35517
4227.81,0.35729
4222.02,0.35772
4216.24,0.35978
4210.45,0.36175
4204.66,0.36451
4198.88,0.36715
4193.09,0.36765
4187.31,0.36702
4181.52,0.36415
4175.73,0.36335
4169.95,0.36629
4164.16,0.37030
4158.37,0.37247
4152.59,0.37237
4146.8,0.37094
4141.02,0.36853
4135.23,0.36524
4129.44,0.36327
4123.66,0.36002
4117.87,0.35568
4112.09,0.35066
4106.3,0.34382
4100.51,0.33460
4094.73,0.32140
4088.94,0.31338
4083.15,0.31349
4077.37,0.31470
4071.58,0.31556
4065.8,0.31251
4060.01,0.30961
4054.22,0.30426
4048.44,0.29982
4042.65,0.29479
4036.86,0.29162
4031.08,0.29036
4025.29,0.28759
4019.51,0.28773
4013.72,0.28786
4007.93,0.28966
4002.15,0.29190
3996.36,0.29488
3990.57,0.29785
3984.79,0.30046
3979,0.30135
3973.22,0.30283
3967.43,0.30572
3961.64,0.30835
3955.86,0.31054
3950.07,0.31338
3944.28,0.31676
3938.5,0.32047
3932.71,0.32288
3926.93,0.32555
3921.14,0.32793
3915.35,0.33090
3909.57,0.33347
3903.78,0.33676
3897.99,0.33932
3892.21,0.34246
3886.42,0.34480
3880.64,0.34723
3874.85,0.34854
3869.06,0.35215
3863.28,0.35601
3857.49,0.35947
3851.7,0.36408
3845.92,0.36642
3840.13,0.36850
3834.35,0.37045
3828.56,0.37139
3822.77,0.37163
3816.99,0.37025
3811.2,0.36882
3805.41,0.36865
3799.63,0.36999
3793.84,0.37118
3788.06,0.37220
3782.27,0.37196
3776.48,0.37102
3770.7,0.36966
3764.91,0.36814
3759.12,0.36559
3753.34,0.36486
3747.55,0.36626
3741.77,0.36528
3735.98,0.36121
3730.19,0.35657
3724.41,0.35528
3718.62,0.35178
3712.83,0.34603
3707.05,0.33772
3701.26,0.32789
3695.48,0.31756
3689.69,0.30436
3683.9,0.29116
3678.12,0.28189
3672.33,0.26782
3666.54,0.25062
3660.76,0.23333
3654.97,0.21716
3649.19,0.20090
3643.4,0.18575
3637.61,0.17295
3631.83,0.16120
3626.04,0.14863
3620.25,0.13870
3614.47,0.12797
3608.68,0.11958
3602.9,0.11038
3597.11,0.10268
3591.32,0.09535
3585.54,0.08869
3579.75,0.08266
3573.97,0.07713
3568.18,0.07279
3562.39,0.06812
3556.61,0.06510
3550.82,0.06218
3545.03,0.05891
3539.25,0.05675
3533.46,0.05445
3527.68,0.05303
3521.89,0.05072
3516.1,0.04940
3510.32,0.04871
3504.53,0.04685
3498.74,0.04498
3492.96,0.04425
3487.17,0.04316
3481.39,0.04269
3475.6,0.04235
3469.81,0.04112
3464.03,0.04044
3458.24,0.03985
3452.45,0.03866
3446.67,0.03761
3440.88,0.03666
3435.1,0.03546
3429.31,0.03507
3423.52,0.03602
3417.74,0.03625
3411.95,0.03716
3406.16,0.03800
3400.38,0.03869
3394.59,0.03918
3388.81,0.03949
3383.02,0.03998
3377.23,0.04014
3371.45,0.04034
3365.66,0.04048
3359.87,0.04027
3354.09,0.03993
3348.3,0.04114
3342.52,0.04111
3336.73,0.04159
3330.94,0.04254
3325.16,0.04346
3319.37,0.04282
3313.58,0.04327
3307.8,0.04290
3302.01,0.04308
3296.23,0.04301
3290.44,0.04418
3284.65,0.04449
3278.87,0.04466
3273.08,0.04522
3267.29,0.04586
3261.51,0.04651
3255.72,0.04750
3249.94,0.04808
3244.15,0.04943
3238.36,0.04954
3232.58,0.05079
3226.79,0.05154
3221,0.05299
3215.22,0.05402
3209.43,0.05584
3203.65,0.05684
3197.86,0.05762
3192.07,0.05928
3186.29,0.06075
3180.5,0.06259
3174.71,0.06416
3168.93,0.06596
3163.14,0.06710
3157.36,0.06879
3151.57,0.07022
3145.78,0.07147
3140,0.07283
3134.21,0.07403
3128.42,0.07552
3122.64,0.07796
3116.85,0.08002
3111.07,0.08104
3105.28,0.08226
3099.49,0.08420
3093.71,0.08722
3087.92,0.08923
3082.14,0.09011
3076.35,0.09189
3070.56,0.09378
3064.78,0.09516
3058.99,0.09674
3053.2,0.09870
3047.42,0.10376
3041.63,0.10912
3035.85,0.11067
3030.06,0.11149
3024.27,0.11090
3018.49,0.10874
3012.7,0.10651
3006.91,0.10581
3001.13,0.10406
2995.34,0.10025
2989.56,0.09528
2983.77,0.08663
2977.98,0.07583
2972.2,0.06441
2966.41,0.05995
2960.62,0.06058
2954.84,0.05939
2949.05,0.05772
2943.27,0.05742
2937.48,0.05850
2931.69,0.05769
2925.91,0.05528
2920.12,0.05086
2914.33,0.04788
2908.55,0.04511
2902.76,0.04596
2896.98,0.04877
2891.19,0.05098
2885.4,0.05332
2879.62,0.05558
2873.83,0.05709
2868.04,0.05830
2862.26,0.06072
2856.47,0.06408
2850.69,0.06686
2844.9,0.07525
2839.11,0.08344
2833.33,0.08987
2827.54,0.09511
2821.75,0.10013
2815.97,0.10446
2810.18,0.10862
2804.4,0.11280
2798.61,0.11692
2792.82,0.12088
2787.04,0.12355
2781.25,0.12509
2775.46,0.12698
2769.68,0.12864
2763.89,0.12992
2758.11,0.13106
2752.32,0.13123
2746.53,0.13131
2740.75,0.13144
2734.96,0.13199
2729.17,0.13396
2723.39,0.13611
2717.6,0.13777
2711.82,0.14068
2706.03,0.14415
2700.24,0.14806
2694.46,0.15140
2688.67,0.15520
2682.88,0.15860
2677.1,0.16160
2671.31,0.16362
2665.53,0.16531
2659.74,0.16704
2653.95,0.16907
2648.17,0.17097
2642.38,0.17312
2636.59,0.17386
2630.81,0.17524
2625.02,0.17769
2619.24,0.18001
2613.45,0.18158
2607.66,0.18334
2601.88,0.18496
2596.09,0.18645
2590.3,0.18671
2584.52,0.18742
2578.73,0.18767
2572.95,0.18873
2567.16,0.18851
2561.37,0.18698
2555.59,0.18663
2549.8,0.18649
2544.02,0.18579
2538.23,0.18537
2532.44,0.18652
2526.66,0.18775
2520.87,0.18989
2515.08,0.19186
2509.3,0.19456
2503.51,0.19896
2497.73,0.20276
2491.94,0.20683
2486.15,0.21042
2480.37,0.21448
2474.58,0.21826
2468.79,0.22129
2463.01,0.22319
2457.22,0.22500
2451.44,0.22709
2445.65,0.22861
2439.86,0.23112
2434.08,0.23277
2428.29,0.23455
2422.5,0.23574
2416.72,0.23711
2410.93,0.23803
2405.15,0.23855
2399.36,0.23907
2393.57,0.24065
2387.79,0.24243
2382,0.24485
2376.21,0.24792
2370.43,0.25121
2364.64,0.25610
2358.86,0.26042
2353.07,0.26474
2347.28,0.26910
2341.5,0.27257
2335.71,0.27515
2329.92,0.27698
2324.14,0.27895
2318.35,0.28218
2312.57,0.28283
2306.78,0.28269
2300.99,0.27937
2295.21,0.27451
2289.42,0.27035
2283.63,0.26844
2277.85,0.26743
2272.06,0.26519
2266.28,0.26035
2260.49,0.25465
2254.7,0.24717
2248.92,0.23666
2243.13,0.23247
2237.34,0.23801
2231.56,0.25094
2225.77,0.25726
2219.99,0.26089
2214.2,0.26399
2208.41,0.26589
2202.63,0.26760
2196.84,0.26726
2191.05,0.26487
2185.27,0.26168
2179.48,0.25712
2173.7,0.25134
2167.91,0.24505
2162.12,0.23880
2156.34,0.23397
2150.55,0.22966
2144.76,0.22615
2138.98,0.22345
2133.19,0.22126
2127.41,0.22036
2121.62,0.22088
2115.83,0.22183
2110.05,0.22397
2104.26,0.22687
2098.47,0.22960
2092.69,0.23195
2086.9,0.23570
2081.12,0.23918
2075.33,0.24140
2069.54,0.24339
2063.76,0.24631
2057.97,0.24992
2052.19,0.25230
2046.4,0.25428
2040.61,0.25620
2034.83,0.25914
2029.04,0.26272
2023.25,0.26590
2017.47,0.26891
2011.68,0.27013
2005.9,0.27004
2000.11,0.26783
1994.32,0.26571
1988.54,0.26489
1982.75,0.26366
1976.96,0.26121
1971.18,0.25596
1965.39,0.24769
1959.61,0.24227
1953.82,0.24675
1948.03,0.25521
1942.25,0.26538
1936.46,0.27565
1930.67,0.28449
1924.89,0.29085
1919.1,0.29567
1913.32,0.29973
1907.53,0.30283
1901.74,0.30482
1895.96,0.30562
1890.17,0.30571
1884.38,0.30552
1878.6,0.30382
1872.81,0.30155
1867.03,0.29679
1861.24,0.29105
1855.45,0.28325
1849.67,0.27211
1843.88,0.26030
1838.09,0.25038
1832.31,0.24242
1826.52,0.23602
1820.74,0.23233
1814.95,0.22940
1809.16,0.22632
1803.38,0.22274
1797.59,0.21865
1791.8,0.21345
1786.02,0.20649
1780.23,0.19870
1774.45,0.18919
1768.66,0.17724
1762.87,0.16273
1757.09,0.14415
1751.3,0.12048
1745.51,0.09846
1739.73,0.08882
1733.94,0.08850
1728.16,0.09139
1722.37,0.09491
1716.58,0.09719
1710.8,0.09722
1705.01,0.10114
1699.22,0.10711
1693.44,0.11046
1687.65,0.10880
1681.87,0.10549
1676.08,0.10591
1670.29,0.10490
1664.51,0.10598
1658.72,0.10675
1652.93,0.10620
1647.15,0.10573
1641.36,0.10513
1635.58,0.10594
1629.79,0.10797
1624,0.11031
1618.22,0.11053
1612.43,0.11161
1606.64,0.11896
1600.86,0.12570
1595.07,0.12971
1589.29,0.12978
1583.5,0.12238
1577.71,0.11520
1571.93,0.12671
1566.14,0.13669
1560.35,0.13935
1554.57,0.13919
1548.78,0.13849
1543,0.13772
1537.21,0.13533
1531.42,0.13215
1525.64,0.12698
1519.85,0.12418
1514.07,0.11653
1508.28,0.09369
1502.49,0.08923
1496.71,0.10467
1490.92,0.10001
1485.13,0.08085
1479.35,0.06606
1473.56,0.05537
1467.78,0.05017
1461.99,0.04355
1456.2,0.03854
1450.42,0.03767
1444.63,0.03731
1438.84,0.03606
1433.06,0.03573
1427.27,0.03688
1421.49,0.03729
1415.7,0.03421
1409.91,0.03324
1404.13,0.03581
1398.34,0.03911
1392.55,0.03880
1386.77,0.03473
1380.98,0.02944
1375.2,0.02699
1369.41,0.02638
1363.62,0.02798
1357.84,0.02850
1352.05,0.02857
1346.26,0.02760
1340.48,0.02714
1334.69,0.02732
1328.91,0.02870
1323.12,0.02749
1317.33,0.02580
1311.55,0.02629
1305.76,0.02840
1299.97,0.02994
1294.19,0.03063
1288.4,0.03079
1282.62,0.03107
1276.83,0.03475
1271.04,0.03814
1265.26,0.03932
1259.47,0.03875
1253.68,0.03855
1247.9,0.03759
1242.11,0.03702
1236.33,0.03562
1230.54,0.03750
1224.75,0.04025
1218.97,0.04369
1213.18,0.04310
1207.39,0.03911
1201.61,0.04021
1195.82,0.04327
1190.04,0.04403
1184.25,0.03930
1178.46,0.03294
1172.68,0.03240
1166.89,0.03546
1161.1,0.03295
1155.32,0.02906
1149.53,0.02503
1143.75,0.02206
1137.96,0.02013
1132.17,0.02059
1126.39,0.02228
1120.6,0.02347
1114.81,0.02434
1109.03,0.02584
1103.24,0.02630
1097.46,0.02522
1091.67,0.02513
1085.88,0.02596
1080.1,0.03103
1074.31,0.03709
1068.52,0.04277
1062.74,0.04952
1056.95,0.04906
1051.17,0.04315
1045.38,0.03856
1039.59,0.03994
1033.81,0.04274
1028.02,0.04004
1022.24,0.03723
1016.45,0.03903
1010.66,0.04681
1004.88,0.05106
999.09,0.05291
993.304,0.05475
987.518,0.05470
981.731,0.05855
975.945,0.06435
970.159,0.07008
964.373,0.08293
958.586,0.09830
952.8,0.11332
947.014,0.12411
941.228,0.12981
935.441,0.13181
929.655,0.13277
923.869,0.13419
918.083,0.13033
912.297,0.11758
906.51,0.10251
900.724,0.09136
894.938,0.09075
889.152,0.09969
883.365,0.10595
877.579,0.10300
871.793,0.10544
866.007,0.12320
860.22,0.12327
854.434,0.11506
848.648,0.10829
842.862,0.11400
837.075,0.12116
831.289,0.12511
825.503,0.12745
819.717,0.12441
813.931,0.12020
808.144,0.11677
802.358,0.11146
796.572,0.10242
790.786,0.09814
784.999,0.10272
779.213,0.10196
773.427,0.09966
767.641,0.09605
761.854,0.09210
756.068,0.08560
750.282,0.07814
744.496,0.06656
738.709,0.05026
732.923,0.04162
727.137,0.04080
721.351,0.04836
715.565,0.05671
709.778,0.05894
703.992,0.06034
698.206,0.06320
692.42,0.06588
686.633,0.06448
680.847,0.06067
675.061,0.05933
669.275,0.05821
663.488,0.05866
657.702,0.05971
651.916,0.06024
646.13,0.05958
640.343,0.05715
634.557,0.05271
628.771,0.05187
622.985,0.05236
617.198,0.05339
611.412,0.05379
605.626,0.05644
599.84,0.05651