File: 01_Data/Cotton_Rug/FTIR/IS/Cotton_Rug_IS_S_220822_R5.dpt
7497.03,0.68486
7491.25,0.68514
7485.46,0.67528
7479.67,0.67443
7473.89,0.68098
7468.1,0.67173
7462.32,0.68091
7456.53,0.68231
7450.74,0.67315
7444.96,0.67509
7439.17,0.67619
7433.38,0.67621
7427.6,0.67416
7421.81,0.67712
7416.03,0.67191
7410.24,0.67091
7404.45,0.67438
7398.67,0.66719
7392.88,0.66652
7387.09,0.66835
7381.31,0.66899
7375.52,0.66137
7369.74,0.66246
7363.95,0.65824
7358.16,0.65103
7352.38,0.65916
7346.59,0.65493
7340.8,0.65305
7335.02,0.65277
7329.23,0.64696
7323.45,0.64855
7317.66,0.65198
7311.87,0.65442
7306.09,0.65201
7300.3,0.65688
7294.51,0.65612
7288.73,0.64136
7282.94,0.65030
7277.16,0.64237
7271.37,0.64477
7265.58,0.64201
7259.8,0.64581
7254.01,0.65079
7248.22,0.65156
7242.44,0.65023
7236.65,0.65043
7230.87,0.64888
7225.08,0.65061
7219.29,0.64474
7213.51,0.64388
7207.72,0.64397
7201.93,0.64552
7196.15,0.64240
7190.36,0.63828
7184.58,0.64281
7178.79,0.64123
7173,0.64408
7167.22,0.63708
7161.43,0.63527
7155.65,0.63423
7149.86,0.63318
7144.07,0.63653
7138.29,0.63098
7132.5,0.63595
7126.71,0.63712
7120.93,0.63646
7115.14,0.62728
7109.36,0.62722
7103.57,0.62570
7097.78,0.61369
7092,0.61845
7086.21,0.61824
7080.42,0.61349
7074.64,0.60443
7068.85,0.60357
7063.07,0.60117
7057.28,0.59851
7051.49,0.59546
7045.71,0.59048
7039.92,0.58839
7034.13,0.57997
7028.35,0.58111
7022.56,0.57712
7016.78,0.57412
7010.99,0.57823
7005.2,0.57477
6999.42,0.57007
6993.63,0.56538
6987.84,0.56143
6982.06,0.57081
6976.27,0.56478
6970.49,0.55735
6964.7,0.55670
6958.91,0.55416
6953.13,0.55851
6947.34,0.55999
6941.55,0.55156
6935.77,0.55121
6929.98,0.55090
6924.2,0.55345
6918.41,0.55428
6912.62,0.55039
6906.84,0.55190
6901.05,0.55246
6895.26,0.54644
6889.48,0.54813
6883.69,0.55028
6877.91,0.54763
6872.12,0.54689
6866.33,0.54540
6860.55,0.54281
6854.76,0.54192
6848.97,0.54040
6843.19,0.54261
6837.4,0.54192
6831.62,0.54228
6825.83,0.53692
6820.04,0.53465
6814.26,0.53198
6808.47,0.53382
6802.68,0.53272
6796.9,0.52809
6791.11,0.52908
6785.33,0.53307
6779.54,0.52489
6773.75,0.52383
6767.97,0.52687
6762.18,0.52149
6756.39,0.52701
6750.61,0.52208
6744.82,0.52364
6739.04,0.52522
6733.25,0.52843
6727.46,0.52553
6721.68,0.52467
6715.89,0.52240
6710.1,0.51899
6704.32,0.51784
6698.53,0.52003
6692.75,0.52165
6686.96,0.52832
6681.17,0.52626
6675.39,0.52464
6669.6,0.52506
6663.82,0.52597
6658.03,0.52821
6652.24,0.52220
6646.46,0.52659
6640.67,0.52857
6634.88,0.52915
6629.1,0.52828
6623.31,0.52761
6617.53,0.52831
6611.74,0.53197
6605.95,0.53259
6600.17,0.53509
6594.38,0.53531
6588.59,0.53300
6582.81,0.54105
6577.02,0.53648
6571.24,0.53804
6565.45,0.53335
6559.66,0.53701
6553.88,0.53759
6548.09,0.53917
6542.3,0.53305
6536.52,0.53606
6530.73,0.53451
6524.95,0.53191
6519.16,0.53590
6513.37,0.53629
6507.59,0.53184
6501.8,0.53633
6496.01,0.53746
6490.23,0.53619
6484.44,0.54178
6478.66,0.53557
6472.87,0.53603
6467.08,0.53664
6461.3,0.53800
6455.51,0.53512
6449.72,0.53576
6443.94,0.53749
6438.15,0.53731
6432.37,0.53567
6426.58,0.53759
6420.79,0.53678
6415.01,0.54134
6409.22,0.53623
6403.43,0.53967
6397.65,0.54235
6391.86,0.53920
6386.08,0.53856
6380.29,0.53995
6374.5,0.54278
6368.72,0.54314
6362.93,0.54251
6357.14,0.54148
6351.36,0.54243
6345.57,0.54160
6339.79,0.54511
6334,0.54676
6328.21,0.54576
6322.43,0.54552
6316.64,0.54613
6310.85,0.54276
6305.07,0.54550
6299.28,0.54658
6293.5,0.54781
6287.71,0.55089
6281.92,0.54678
6276.14,0.54902
6270.35,0.55029
6264.56,0.55302
6258.78,0.55380
6252.99,0.55377
6247.21,0.55624
6241.42,0.55515
6235.63,0.55970
6229.85,0.56653
6224.06,0.56326
6218.27,0.56408
6212.49,0.56478
6206.7,0.56360
6200.92,0.57049
6195.13,0.57003
6189.34,0.57091
6183.56,0.57307
6177.77,0.57752
6171.98,0.57769
6166.2,0.57684
6160.41,0.57749
6154.63,0.58089
6148.84,0.57917
6143.05,0.57874
6137.27,0.58290
6131.48,0.58324
6125.7,0.58596
6119.91,0.58385
6114.12,0.58363
6108.34,0.58133
6102.55,0.58190
6096.76,0.58109
6090.98,0.57776
6085.19,0.57450
6079.41,0.57511
6073.62,0.56936
6067.83,0.56919
6062.05,0.56520
6056.26,0.55926
6050.47,0.55651
6044.69,0.55679
6038.9,0.55638
6033.12,0.55090
6027.33,0.54723
6021.54,0.54448
6015.76,0.54365
6009.97,0.54819
6004.18,0.55429
5998.4,0.55817
5992.61,0.56784
5986.83,0.56842
5981.04,0.56986
5975.25,0.57084
5969.47,0.57492
5963.68,0.57641
5957.89,0.57978
5952.11,0.58040
5946.32,0.57717
5940.54,0.57719
5934.75,0.58064
5928.96,0.58209
5923.18,0.58251
5917.39,0.58756
5911.6,0.58855
5905.82,0.58448
5900.03,0.58307
5894.25,0.58514
5888.46,0.58104
5882.67,0.57910
5876.89,0.57462
5871.1,0.57097
5865.31,0.57151
5859.53,0.57223
5853.74,0.57273
5847.96,0.57346
5842.17,0.57174
5836.38,0.57472
5830.6,0.57066
5824.81,0.57051
5819.02,0.57242
5813.24,0.56726
5807.45,0.56866
5801.67,0.57022
5795.88,0.56985
5790.09,0.56764
5784.31,0.56628
5778.52,0.56738
5772.73,0.56663
5766.95,0.56691
5761.16,0.56761
5755.38,0.57104
5749.59,0.57258
5743.8,0.57283
5738.02,0.57407
5732.23,0.57408
5726.44,0.57573
5720.66,0.57782
5714.87,0.57529
5709.09,0.57447
5703.3,0.57609
5697.51,0.57529
5691.73,0.57190
5685.94,0.57338
5680.15,0.57429
5674.37,0.57653
5668.58,0.57479
5662.8,0.57666
5657.01,0.57522
5651.22,0.57449
5645.44,0.57464
5639.65,0.57416
5633.87,0.57387
5628.08,0.57652
5622.29,0.57595
5616.51,0.57707
5610.72,0.57740
5604.93,0.57542
5599.15,0.57745
5593.36,0.57776
5587.58,0.57651
5581.79,0.57623
5576,0.57738
5570.22,0.57841
5564.43,0.57730
5558.64,0.57749
5552.86,0.57817
5547.07,0.57814
5541.29,0.57795
5535.5,0.57830
5529.71,0.57838
5523.93,0.57828
5518.14,0.57990
5512.35,0.57807
5506.57,0.57888
5500.78,0.57889
5495,0.57922
5489.21,0.57876
5483.42,0.57817
5477.64,0.57738
5471.85,0.57979
5466.06,0.57854
5460.28,0.58050
5454.49,0.58183
5448.71,0.58269
5442.92,0.58473
5437.13,0.58561
5431.35,0.58823
5425.56,0.59072
5419.77,0.59229
5413.99,0.59249
5408.2,0.59255
5402.42,0.59375
5396.63,0.59398
5390.84,0.59435
5385.06,0.59504
5379.27,0.59487
5373.48,0.59565
5367.7,0.59526
5361.91,0.59390
5356.13,0.59325
5350.34,0.59326
5344.55,0.59359
5338.77,0.59334
5332.98,0.59267
5327.19,0.59166
5321.41,0.58989
5315.62,0.58845
5309.84,0.58498
5304.05,0.58401
5298.26,0.57982
5292.48,0.57613
5286.69,0.57132
5280.9,0.56759
5275.12,0.55929
5269.33,0.55257
5263.55,0.54561
5257.76,0.53898
5251.97,0.53283
5246.19,0.52564
5240.4,0.51922
5234.61,0.51672
5228.83,0.51097
5223.04,0.50648
5217.26,0.50495
5211.47,0.50199
5205.68,0.49906
5199.9,0.49829
5194.11,0.49595
5188.32,0.49774
5182.54,0.49576
5176.75,0.49478
5170.97,0.49663
5165.18,0.49600
5159.39,0.49724
5153.61,0.49931
5147.82,0.50059
5142.03,0.49980
5136.25,0.50074
5130.46,0.50446
5124.68,0.50527
5118.89,0.50749
5113.1,0.51039
5107.32,0.51258
5101.53,0.51375
5095.75,0.51611
5089.96,0.52062
5084.17,0.52065
5078.39,0.52558
5072.6,0.52668
5066.81,0.52895
5061.03,0.53035
5055.24,0.53208
5049.46,0.53332
5043.67,0.53536
5037.88,0.53512
5032.1,0.53704
5026.31,0.53879
5020.52,0.53872
5014.74,0.53985
5008.95,0.54009
5003.17,0.54030
4997.38,0.54073
4991.59,0.54030
4985.81,0.53957
4980.02,0.53895
4974.23,0.53709
4968.45,0.53574
4962.66,0.53381
4956.88,0.53159
4951.09,0.53048
4945.3,0.52562
4939.52,0.52177
4933.73,0.51661
4927.94,0.51319
4922.16,0.50886
4916.37,0.50428
4910.59,0.49831
4904.8,0.49223
4899.01,0.48666
4893.23,0.48048
4887.44,0.47510
4881.65,0.46946
4875.87,0.46411
4870.08,0.45833
4864.3,0.45428
4858.51,0.45056
4852.72,0.44665
4846.94,0.44181
4841.15,0.43794
4835.36,0.43329
4829.58,0.42909
4823.79,0.42431
4818.01,0.42073
4812.22,0.41555
4806.43,0.41365
4800.65,0.41087
4794.86,0.40808
4789.07,0.40741
4783.29,0.40556
4777.5,0.40532
4771.72,0.40313
4765.93,0.40276
4760.14,0.40182
4754.36,0.40092
4748.57,0.40010
4742.78,0.39952
4737,0.39974
4731.21,0.39946
4725.43,0.39835
4719.64,0.39842
4713.85,0.40036
4708.07,0.39975
4702.28,0.39954
4696.49,0.39898
4690.71,0.39847
4684.92,0.40139
4679.14,0.40662
4673.35,0.41351
4667.56,0.41748
4661.78,0.42004
4655.99,0.42238
4650.2,0.42372
4644.42,0.42174
4638.63,0.42062
4632.85,0.42272
4627.06,0.42749
4621.27,0.43438
4615.49,0.43977
4609.7,0.44284
4603.92,0.44522
4598.13,0.44607
4592.34,0.44550
4586.56,0.44478
4580.77,0.44567
4574.98,0.44891
4569.2,0.45525
4563.41,0.46098
4557.63,0.46445
4551.84,0.46596
4546.05,0.46748
4540.27,0.46879
4534.48,0.46982
4528.69,0.47038
4522.91,0.47192
4517.12,0.47116
4511.34,0.46946
4505.55,0.46713
4499.76,0.46492
4493.98,0.45990
4488.19,0.45527
4482.4,0.45254
4476.62,0.44861
4470.83,0.44243
4465.05,0.43369
4459.26,0.42430
4453.47,0.41729
4447.69,0.41297
4441.9,0.40644
4436.11,0.39831
4430.33,0.39252
4424.54,0.38947
4418.76,0.38634
4412.97,0.38108
4407.18,0.37583
4401.4,0.37194
4395.61,0.37248
4389.82,0.37687
4384.04,0.38056
4378.25,0.38328
4372.47,0.38661
4366.68,0.38758
4360.89,0.38676
4355.11,0.38518
4349.32,0.38299
4343.53,0.38127
4337.75,0.37817
4331.96,0.37461
4326.18,0.37145
4320.39,0.36753
4314.6,0.36457
4308.82,0.36131
4303.03,0.35670
4297.24,0.35273
4291.46,0.34973
4285.67,0.34831
4279.89,0.34719
4274.1,0.34663
4268.31,0.34770
4262.53,0.34925
4256.74,0.35022
4250.95,0.35040
4245.17,0.35022
4239.38,0.35144
4233.6,0.35391
4227.81,0.35546
4222.02,0.35709
4216.24,0.35882
4210.45,0.36094
4204.66,0.36288
4198.88,0.36486
4193.09,0.36605
4187.31,0.36563
4181.52,0.36248
4175.73,0.36206
4169.95,0.36441
4164.16,0.36881
4158.37,0.37073
4152.59,0.37113
4146.8,0.36954
4141.02,0.36611
4135.23,0.36383
4129.44,0.36104
4123.66,0.35818
4117.87,0.35497
4112.09,0.34920
4106.3,0.34182
4100.51,0.33246
4094.73,0.32056
4088.94,0.31284
4083.15,0.31194
4077.37,0.31322
4071.58,0.31433
4065.8,0.31198
4060.01,0.30787
4054.22,0.30284
4048.44,0.29747
4042.65,0.29349
4036.86,0.29048
4031.08,0.28749
4025.29,0.28624
4019.51,0.28633
4013.72,0.28660
4007.93,0.28837
4002.15,0.29051
3996.36,0.29303
3990.57,0.29542
3984.79,0.29771
3979,0.30054
3973.22,0.30212
3967.43,0.30414
3961.64,0.30643
3955.86,0.30908
3950.07,0.31220
3944.28,0.31407
3938.5,0.31792
3932.71,0.32060
3926.93,0.32372
3921.14,0.32703
3915.35,0.32926
3909.57,0.33166
3903.78,0.33422
3897.99,0.33781
3892.21,0.34065
3886.42,0.34294
3880.64,0.34429
3874.85,0.34694
3869.06,0.35095
3863.28,0.35431
3857.49,0.35781
3851.7,0.36091
3845.92,0.36422
3840.13,0.36621
3834.35,0.36762
3828.56,0.36884
3822.77,0.36856
3816.99,0.36717
3811.2,0.36608
3805.41,0.36608
3799.63,0.36672
3793.84,0.36865
3788.06,0.36937
3782.27,0.36906
3776.48,0.36784
3770.7,0.36590
3764.91,0.36475
3759.12,0.36232
3753.34,0.36172
3747.55,0.36254
3741.77,0.36120
3735.98,0.35781
3730.19,0.35386
3724.41,0.35134
3718.62,0.34802
3712.83,0.34216
3707.05,0.33425
3701.26,0.32438
3695.48,0.31298
3689.69,0.29962
3683.9,0.28680
3678.12,0.27566
3672.33,0.26193
3666.54,0.24473
3660.76,0.22798
3654.97,0.21053
3649.19,0.19480
3643.4,0.18012
3637.61,0.16683
3631.83,0.15474
3626.04,0.14345
3620.25,0.13393
3614.47,0.12400
3608.68,0.11506
3602.9,0.10725
3597.11,0.09899
3591.32,0.09294
3585.54,0.08710
3579.75,0.08086
3573.97,0.07623
3568.18,0.07177
3562.39,0.06762
3556.61,0.06352
3550.82,0.06066
3545.03,0.05794
3539.25,0.05572
3533.46,0.05360
3527.68,0.05208
3521.89,0.04992
3516.1,0.04913
3510.32,0.04795
3504.53,0.04613
3498.74,0.04464
3492.96,0.04403
3487.17,0.04313
3481.39,0.04215
3475.6,0.04220
3469.81,0.04143
3464.03,0.04017
3458.24,0.03917
3452.45,0.03767
3446.67,0.03714
3440.88,0.03601
3435.1,0.03525
3429.31,0.03540
3423.52,0.03631
3417.74,0.03705
3411.95,0.03819
3406.16,0.03909
3400.38,0.03946
3394.59,0.03920
3388.81,0.03980
3383.02,0.03979
3377.23,0.03966
3371.45,0.03964
3365.66,0.04054
3359.87,0.04010
3354.09,0.04075
3348.3,0.04054
3342.52,0.04083
3336.73,0.04188
3330.94,0.04180
3325.16,0.04218
3319.37,0.04235
3313.58,0.04236
3307.8,0.04236
3302.01,0.04216
3296.23,0.04337
3290.44,0.04371
3284.65,0.04400
3278.87,0.04449
3273.08,0.04451
3267.29,0.04610
3261.51,0.04635
3255.72,0.04780
3249.94,0.04822
3244.15,0.04888
3238.36,0.04963
3232.58,0.05021
3226.79,0.05128
3221,0.05248
3215.22,0.05359
3209.43,0.05505
3203.65,0.05683
3197.86,0.05747
3192.07,0.05908
3186.29,0.06065
3180.5,0.06169
3174.71,0.06375
3168.93,0.06457
3163.14,0.06595
3157.36,0.06737
3151.57,0.06879
3145.78,0.07114
3140,0.07244
3134.21,0.07338
3128.42,0.07484
3122.64,0.07726
3116.85,0.07887
3111.07,0.07997
3105.28,0.08094
3099.49,0.08341
3093.71,0.08598
3087.92,0.08764
3082.14,0.08796
3076.35,0.09016
3070.56,0.09262
3064.78,0.09407
3058.99,0.09545
3053.2,0.09650
3047.42,0.10231
3041.63,0.10703
3035.85,0.10922
3030.06,0.10982
3024.27,0.10928
3018.49,0.10733
3012.7,0.10472
3006.91,0.10377
3001.13,0.10246
2995.34,0.10000
2989.56,0.09426
2983.77,0.08594
2977.98,0.07587
2972.2,0.06389
2966.41,0.05968
2960.62,0.06011
2954.84,0.05856
2949.05,0.05719
2943.27,0.05674
2937.48,0.05851
2931.69,0.05805
2925.91,0.05506
2920.12,0.05106
2914.33,0.04683
2908.55,0.04441
2902.76,0.04588
2896.98,0.04829
2891.19,0.05085
2885.4,0.05325
2879.62,0.05505
2873.83,0.05649
2868.04,0.05855
2862.26,0.06089
2856.47,0.06331
2850.69,0.06694
2844.9,0.07430
2839.11,0.08258
2833.33,0.08952
2827.54,0.09456
2821.75,0.09933
2815.97,0.10353
2810.18,0.10834
2804.4,0.11230
2798.61,0.11629
2792.82,0.11998
2787.04,0.12301
2781.25,0.12432
2775.46,0.12588
2769.68,0.12718
2763.89,0.12896
2758.11,0.13054
2752.32,0.13114
2746.53,0.13051
2740.75,0.13049
2734.96,0.13131
2729.17,0.13360
2723.39,0.13562
2717.6,0.13689
2711.82,0.13977
2706.03,0.14339
2700.24,0.14670
2694.46,0.15012
2688.67,0.15472
2682.88,0.15729
2677.1,0.16047
2671.31,0.16299
2665.53,0.16457
2659.74,0.16618
2653.95,0.16829
2648.17,0.17033
2642.38,0.17179
2636.59,0.17314
2630.81,0.17390
2625.02,0.17640
2619.24,0.17913
2613.45,0.18110
2607.66,0.18223
2601.88,0.18417
2596.09,0.18540
2590.3,0.18610
2584.52,0.18622
2578.73,0.18737
2572.95,0.18777
2567.16,0.18711
2561.37,0.18661
2555.59,0.18599
2549.8,0.18538
2544.02,0.18464
2538.23,0.18433
2532.44,0.18494
2526.66,0.18648
2520.87,0.18847
2515.08,0.19055
2509.3,0.19375
2503.51,0.19770
2497.73,0.20219
2491.94,0.20546
2486.15,0.20943
2480.37,0.21308
2474.58,0.21698
2468.79,0.21986
2463.01,0.22210
2457.22,0.22381
2451.44,0.22585
2445.65,0.22806
2439.86,0.22973
2434.08,0.23191
2428.29,0.23336
2422.5,0.23491
2416.72,0.23564
2410.93,0.23661
2405.15,0.23706
2399.36,0.23818
2393.57,0.23937
2387.79,0.24134
2382,0.24352
2376.21,0.24684
2370.43,0.25047
2364.64,0.25502
2358.86,0.25907
2353.07,0.26290
2347.28,0.26743
2341.5,0.27143
2335.71,0.27381
2329.92,0.27568
2324.14,0.27778
2318.35,0.28045
2312.57,0.28143
2306.78,0.28022
2300.99,0.27723
2295.21,0.27239
2289.42,0.26799
2283.63,0.26655
2277.85,0.26559
2272.06,0.26361
2266.28,0.25868
2260.49,0.25307
2254.7,0.24496
2248.92,0.23515
2243.13,0.23093
2237.34,0.23610
2231.56,0.24937
2225.77,0.25590
2219.99,0.25886
2214.2,0.26159
2208.41,0.26374
2202.63,0.26539
2196.84,0.26482
2191.05,0.26276
2185.27,0.25953
2179.48,0.25498
2173.7,0.24958
2167.91,0.24325
2162.12,0.23728
2156.34,0.23179
2150.55,0.22786
2144.76,0.22415
2138.98,0.22106
2133.19,0.21892
2127.41,0.21870
2121.62,0.21886
2115.83,0.21977
2110.05,0.22224
2104.26,0.22514
2098.47,0.22761
2092.69,0.23014
2086.9,0.23366
2081.12,0.23705
2075.33,0.23964
2069.54,0.24196
2063.76,0.24456
2057.97,0.24758
2052.19,0.25028
2046.4,0.25213
2040.61,0.25410
2034.83,0.25694
2029.04,0.26046
2023.25,0.26385
2017.47,0.26634
2011.68,0.26802
2005.9,0.26802
2000.11,0.26580
1994.32,0.26312
1988.54,0.26250
1982.75,0.26143
1976.96,0.25894
1971.18,0.25401
1965.39,0.24616
1959.61,0.24061
1953.82,0.24520
1948.03,0.25322
1942.25,0.26361
1936.46,0.27357
1930.67,0.28195
1924.89,0.28862
1919.1,0.29324
1913.32,0.29717
1907.53,0.30021
1901.74,0.30243
1895.96,0.30353
1890.17,0.30378
1884.38,0.30277
1878.6,0.30166
1872.81,0.29865
1867.03,0.29454
1861.24,0.28856
1855.45,0.28109
1849.67,0.27016
1843.88,0.25845
1838.09,0.24848
1832.31,0.24026
1826.52,0.23448
1820.74,0.23084
1814.95,0.22850
1809.16,0.22504
1803.38,0.22123
1797.59,0.21729
1791.8,0.21234
1786.02,0.20539
1780.23,0.19731
1774.45,0.18844
1768.66,0.17620
1762.87,0.16225
1757.09,0.14336
1751.3,0.12011
1745.51,0.09762
1739.73,0.08856
1733.94,0.08772
1728.16,0.09039
1722.37,0.09438
1716.58,0.09728
1710.8,0.09671
1705.01,0.10025
1699.22,0.10676
1693.44,0.10860
1687.65,0.10682
1681.87,0.10356
1676.08,0.10357
1670.29,0.10303
1664.51,0.10370
1658.72,0.10465
1652.93,0.10314
1647.15,0.10309
1641.36,0.10278
1635.58,0.10328
1629.79,0.10549
1624,0.10794
1618.22,0.10880
1612.43,0.10978
1606.64,0.11671
1600.86,0.12400
1595.07,0.12827
1589.29,0.12827
1583.5,0.12093
1577.71,0.11378
1571.93,0.12610
1566.14,0.13501
1560.35,0.13794
1554.57,0.13783
1548.78,0.13713
1543,0.13647
1537.21,0.13529
1531.42,0.13113
1525.64,0.12577
1519.85,0.12296
1514.07,0.11561
1508.28,0.09328
1502.49,0.08841
1496.71,0.10409
1490.92,0.09954
1485.13,0.08027
1479.35,0.06505
1473.56,0.05538
1467.78,0.04980
1461.99,0.04327
1456.2,0.03831
1450.42,0.03724
1444.63,0.03694
1438.84,0.03654
1433.06,0.03583
1427.27,0.03708
1421.49,0.03707
1415.7,0.03387
1409.91,0.03271
1404.13,0.03599
1398.34,0.03886
1392.55,0.03877
1386.77,0.03466
1380.98,0.02967
1375.2,0.02707
1369.41,0.02665
1363.62,0.02779
1357.84,0.02840
1352.05,0.02885
1346.26,0.02754
1340.48,0.02703
1334.69,0.02744
1328.91,0.02871
1323.12,0.02754
1317.33,0.02582
1311.55,0.02619
1305.76,0.02797
1299.97,0.03042
1294.19,0.03053
1288.4,0.03056
1282.62,0.03101
1276.83,0.03454
1271.04,0.03817
1265.26,0.03902
1259.47,0.03892
1253.68,0.03832
1247.9,0.03771
1242.11,0.03674
1236.33,0.03559
1230.54,0.03764
1224.75,0.04040
1218.97,0.04350
1213.18,0.04312
1207.39,0.03910
1201.61,0.03981
1195.82,0.04266
1190.04,0.04371
1184.25,0.03906
1178.46,0.03354
1172.68,0.03296
1166.89,0.03582
1161.1,0.03261
1155.32,0.02845
1149.53,0.02524
1143.75,0.02240
1137.96,0.02066
1132.17,0.02126
1126.39,0.02204
1120.6,0.02290
1114.81,0.02439
1109.03,0.02698
1103.24,0.02592
1097.46,0.02488
1091.67,0.02459
1085.88,0.02644
1080.1,0.03055
1074.31,0.03726
1068.52,0.04342
1062.74,0.04961
1056.95,0.04852
1051.17,0.04352
1045.38,0.03899
1039.59,0.03975
1033.81,0.04246
1028.02,0.03931
1022.24,0.03734
1016.45,0.03830
1010.66,0.04698
1004.88,0.05094
999.09,0.05296
993.304,0.05502
987.518,0.05448
981.731,0.05877
975.945,0.06482
970.159,0.07005
964.373,0.08148
958.586,0.09779
952.8,0.11306
947.014,0.12390
941.228,0.13017
935.441,0.13125
929.655,0.13235
923.869,0.13301
918.083,0.12900
912.297,0.11642
906.51,0.10172
900.724,0.09119
894.938,0.08960
889.152,0.09892
883.365,0.10458
877.579,0.10235
871.793,0.10460
866.007,0.12173
860.22,0.12155
854.434,0.11350
848.648,0.10755
842.862,0.11131
837.075,0.11922
831.289,0.12351
825.503,0.12477
819.717,0.12280
813.931,0.11884
808.144,0.11470
802.358,0.11035
796.572,0.10117
790.786,0.09659
784.999,0.10097
779.213,0.10088
773.427,0.09782
767.641,0.09569
761.854,0.09148
756.068,0.08448
750.282,0.07745
744.496,0.06671
738.709,0.05005
732.923,0.04168
727.137,0.04054
721.351,0.04672
715.565,0.05660
709.778,0.05845
703.992,0.06008
698.206,0.06296
692.42,0.06416
686.633,0.06347
680.847,0.05974
675.061,0.05880
669.275,0.05788
663.488,0.05831
657.702,0.06086
651.916,0.05908
646.13,0.05929
640.343,0.05709
634.557,0.05173
628.771,0.05264
622.985,0.05308
617.198,0.05360
611.412,0.05580
605.626,0.05721
599.84,0.05750