File: 01_Data/Cotton_Rug/FTIR/IS/Cotton_Rug_IS_S_220822_R7.dpt
7497.03,0.68334
7491.25,0.68901
7485.46,0.68493
7479.67,0.68225
7473.89,0.68138
7468.1,0.68505
7462.32,0.68862
7456.53,0.68339
7450.74,0.67884
7444.96,0.67625
7439.17,0.67581
7433.38,0.67126
7427.6,0.67669
7421.81,0.67757
7416.03,0.67655
7410.24,0.67146
7404.45,0.67515
7398.67,0.66842
7392.88,0.67192
7387.09,0.67170
7381.31,0.66777
7375.52,0.65872
7369.74,0.65406
7363.95,0.66666
7358.16,0.65952
7352.38,0.66562
7346.59,0.65841
7340.8,0.66310
7335.02,0.66076
7329.23,0.66735
7323.45,0.65237
7317.66,0.65855
7311.87,0.65381
7306.09,0.64797
7300.3,0.66044
7294.51,0.64757
7288.73,0.64786
7282.94,0.64406
7277.16,0.64710
7271.37,0.65235
7265.58,0.64847
7259.8,0.65078
7254.01,0.65354
7248.22,0.64993
7242.44,0.64799
7236.65,0.64463
7230.87,0.64840
7225.08,0.64516
7219.29,0.64987
7213.51,0.65270
7207.72,0.64198
7201.93,0.64283
7196.15,0.64697
7190.36,0.65043
7184.58,0.64814
7178.79,0.64998
7173,0.64365
7167.22,0.64285
7161.43,0.64246
7155.65,0.64225
7149.86,0.63920
7144.07,0.63818
7138.29,0.63986
7132.5,0.63192
7126.71,0.63474
7120.93,0.62828
7115.14,0.63329
7109.36,0.62889
7103.57,0.62413
7097.78,0.62201
7092,0.61707
7086.21,0.61663
7080.42,0.61640
7074.64,0.61235
7068.85,0.60788
7063.07,0.60080
7057.28,0.59740
7051.49,0.59697
7045.71,0.59935
7039.92,0.59117
7034.13,0.58712
7028.35,0.57780
7022.56,0.58396
7016.78,0.58188
7010.99,0.57651
7005.2,0.58397
6999.42,0.57166
6993.63,0.57218
6987.84,0.57245
6982.06,0.56783
6976.27,0.56346
6970.49,0.56922
6964.7,0.56147
6958.91,0.55735
6953.13,0.55448
6947.34,0.56704
6941.55,0.55974
6935.77,0.55614
6929.98,0.56212
6924.2,0.55923
6918.41,0.54994
6912.62,0.55366
6906.84,0.55104
6901.05,0.55810
6895.26,0.54842
6889.48,0.54890
6883.69,0.55122
6877.91,0.55380
6872.12,0.55258
6866.33,0.54400
6860.55,0.55186
6854.76,0.54611
6848.97,0.54900
6843.19,0.54574
6837.4,0.54518
6831.62,0.53935
6825.83,0.53908
6820.04,0.53986
6814.26,0.53810
6808.47,0.53782
6802.68,0.54069
6796.9,0.52979
6791.11,0.52947
6785.33,0.53059
6779.54,0.53117
6773.75,0.52904
6767.97,0.53012
6762.18,0.52276
6756.39,0.52514
6750.61,0.52683
6744.82,0.52907
6739.04,0.52897
6733.25,0.52664
6727.46,0.52816
6721.68,0.52138
6715.89,0.52153
6710.1,0.51954
6704.32,0.52646
6698.53,0.52640
6692.75,0.52470
6686.96,0.52389
6681.17,0.52651
6675.39,0.52234
6669.6,0.53069
6663.82,0.52705
6658.03,0.53018
6652.24,0.53358
6646.46,0.53057
6640.67,0.53078
6634.88,0.52868
6629.1,0.53140
6623.31,0.53662
6617.53,0.53743
6611.74,0.53229
6605.95,0.53797
6600.17,0.53695
6594.38,0.53909
6588.59,0.53709
6582.81,0.54044
6577.02,0.53888
6571.24,0.53652
6565.45,0.53955
6559.66,0.54151
6553.88,0.53905
6548.09,0.53926
6542.3,0.53799
6536.52,0.53879
6530.73,0.53750
6524.95,0.54077
6519.16,0.53907
6513.37,0.53910
6507.59,0.54199
6501.8,0.54023
6496.01,0.54652
6490.23,0.54025
6484.44,0.54111
6478.66,0.53757
6472.87,0.54296
6467.08,0.54158
6461.3,0.53970
6455.51,0.53874
6449.72,0.54249
6443.94,0.54394
6438.15,0.54007
6432.37,0.54290
6426.58,0.54166
6420.79,0.54114
6415.01,0.54163
6409.22,0.54493
6403.43,0.54255
6397.65,0.54183
6391.86,0.54295
6386.08,0.54558
6380.29,0.54629
6374.5,0.54515
6368.72,0.54450
6362.93,0.54611
6357.14,0.54438
6351.36,0.54606
6345.57,0.54790
6339.79,0.54567
6334,0.54456
6328.21,0.54505
6322.43,0.54777
6316.64,0.54715
6310.85,0.55294
6305.07,0.54718
6299.28,0.54482
6293.5,0.54887
6287.71,0.55070
6281.92,0.55506
6276.14,0.55516
6270.35,0.55728
6264.56,0.55530
6258.78,0.55580
6252.99,0.55847
6247.21,0.55713
6241.42,0.55921
6235.63,0.56208
6229.85,0.56249
6224.06,0.56814
6218.27,0.56369
6212.49,0.56886
6206.7,0.56958
6200.92,0.56779
6195.13,0.57371
6189.34,0.56972
6183.56,0.57445
6177.77,0.57697
6171.98,0.57660
6166.2,0.58057
6160.41,0.58413
6154.63,0.58444
6148.84,0.58288
6143.05,0.58479
6137.27,0.58709
6131.48,0.58982
6125.7,0.59065
6119.91,0.58643
6114.12,0.59233
6108.34,0.59011
6102.55,0.58786
6096.76,0.58174
6090.98,0.58046
6085.19,0.57818
6079.41,0.57906
6073.62,0.57704
6067.83,0.57381
6062.05,0.56869
6056.26,0.56208
6050.47,0.56265
6044.69,0.55976
6038.9,0.55780
6033.12,0.55171
6027.33,0.54878
6021.54,0.55056
6015.76,0.54922
6009.97,0.55267
6004.18,0.55750
5998.4,0.56124
5992.61,0.56866
5986.83,0.57141
5981.04,0.57363
5975.25,0.57592
5969.47,0.57789
5963.68,0.58127
5957.89,0.58388
5952.11,0.58228
5946.32,0.58332
5940.54,0.58063
5934.75,0.58603
5928.96,0.58451
5923.18,0.58628
5917.39,0.58810
5911.6,0.59101
5905.82,0.59175
5900.03,0.58734
5894.25,0.58633
5888.46,0.58601
5882.67,0.58016
5876.89,0.58058
5871.1,0.57892
5865.31,0.57760
5859.53,0.57545
5853.74,0.57710
5847.96,0.57803
5842.17,0.57754
5836.38,0.57756
5830.6,0.57452
5824.81,0.57388
5819.02,0.57498
5813.24,0.57620
5807.45,0.57514
5801.67,0.57214
5795.88,0.57203
5790.09,0.57147
5784.31,0.57032
5778.52,0.57168
5772.73,0.57112
5766.95,0.57303
5761.16,0.57162
5755.38,0.57432
5749.59,0.57532
5743.8,0.57476
5738.02,0.57577
5732.23,0.57589
5726.44,0.57640
5720.66,0.58009
5714.87,0.57750
5709.09,0.57794
5703.3,0.57938
5697.51,0.57662
5691.73,0.57807
5685.94,0.57714
5680.15,0.57782
5674.37,0.57892
5668.58,0.57763
5662.8,0.57949
5657.01,0.57802
5651.22,0.57801
5645.44,0.57779
5639.65,0.57988
5633.87,0.57870
5628.08,0.58076
5622.29,0.58109
5616.51,0.58257
5610.72,0.58312
5604.93,0.58318
5599.15,0.58400
5593.36,0.58378
5587.58,0.58369
5581.79,0.58175
5576,0.58213
5570.22,0.58205
5564.43,0.58191
5558.64,0.58250
5552.86,0.58440
5547.07,0.58326
5541.29,0.58320
5535.5,0.58264
5529.71,0.58407
5523.93,0.58451
5518.14,0.58494
5512.35,0.58557
5506.57,0.58239
5500.78,0.58473
5495,0.58384
5489.21,0.58315
5483.42,0.58412
5477.64,0.58322
5471.85,0.58282
5466.06,0.58259
5460.28,0.58533
5454.49,0.58546
5448.71,0.58822
5442.92,0.58971
5437.13,0.59100
5431.35,0.59147
5425.56,0.59342
5419.77,0.59521
5413.99,0.59580
5408.2,0.59607
5402.42,0.59727
5396.63,0.59901
5390.84,0.60126
5385.06,0.60091
5379.27,0.60066
5373.48,0.60107
5367.7,0.60195
5361.91,0.59909
5356.13,0.60082
5350.34,0.60049
5344.55,0.60056
5338.77,0.59998
5332.98,0.59944
5327.19,0.59775
5321.41,0.59686
5315.62,0.59665
5309.84,0.59451
5304.05,0.59155
5298.26,0.58707
5292.48,0.58453
5286.69,0.58068
5280.9,0.57518
5275.12,0.56913
5269.33,0.56237
5263.55,0.55826
5257.76,0.55005
5251.97,0.54503
5246.19,0.53922
5240.4,0.53285
5234.61,0.52891
5228.83,0.52550
5223.04,0.52020
5217.26,0.51757
5211.47,0.51600
5205.68,0.51282
5199.9,0.51284
5194.11,0.51121
5188.32,0.50909
5182.54,0.51037
5176.75,0.50964
5170.97,0.51015
5165.18,0.51085
5159.39,0.51131
5153.61,0.51232
5147.82,0.51338
5142.03,0.51461
5136.25,0.51555
5130.46,0.51526
5124.68,0.51867
5118.89,0.52058
5113.1,0.52280
5107.32,0.52587
5101.53,0.52825
5095.75,0.53018
5089.96,0.53271
5084.17,0.53607
5078.39,0.53642
5072.6,0.53910
5066.81,0.54004
5061.03,0.54240
5055.24,0.54280
5049.46,0.54530
5043.67,0.54504
5037.88,0.54732
5032.1,0.54860
5026.31,0.54846
5020.52,0.54976
5014.74,0.55079
5008.95,0.54877
5003.17,0.55036
4997.38,0.55041
4991.59,0.54997
4985.81,0.54873
4980.02,0.54761
4974.23,0.54618
4968.45,0.54480
4962.66,0.54007
4956.88,0.53922
4951.09,0.53614
4945.3,0.53262
4939.52,0.52795
4933.73,0.52399
4927.94,0.52081
4922.16,0.51393
4916.37,0.50836
4910.59,0.50152
4904.8,0.49755
4899.01,0.49197
4893.23,0.48533
4887.44,0.47830
4881.65,0.47407
4875.87,0.46847
4870.08,0.46418
4864.3,0.45889
4858.51,0.45306
4852.72,0.44929
4846.94,0.44526
4841.15,0.44114
4835.36,0.43655
4829.58,0.43097
4823.79,0.42648
4818.01,0.42416
4812.22,0.42018
4806.43,0.41623
4800.65,0.41422
4794.86,0.41215
4789.07,0.40953
4783.29,0.40937
4777.5,0.40802
4771.72,0.40749
4765.93,0.40654
4760.14,0.40506
4754.36,0.40301
4748.57,0.40361
4742.78,0.40305
4737,0.40247
4731.21,0.40245
4725.43,0.40130
4719.64,0.40191
4713.85,0.40180
4708.07,0.40380
4702.28,0.40388
4696.49,0.40167
4690.71,0.40174
4684.92,0.40492
4679.14,0.40948
4673.35,0.41672
4667.56,0.42228
4661.78,0.42446
4655.99,0.42637
4650.2,0.42669
4644.42,0.42583
4638.63,0.42555
4632.85,0.42582
4627.06,0.43063
4621.27,0.43692
4615.49,0.44375
4609.7,0.44736
4603.92,0.44869
4598.13,0.44878
4592.34,0.44876
4586.56,0.44909
4580.77,0.45092
4574.98,0.45341
4569.2,0.45995
4563.41,0.46428
4557.63,0.46782
4551.84,0.46943
4546.05,0.47121
4540.27,0.47256
4534.48,0.47379
4528.69,0.47488
4522.91,0.47424
4517.12,0.47441
4511.34,0.47420
4505.55,0.47199
4499.76,0.46825
4493.98,0.46324
4488.19,0.45886
4482.4,0.45526
4476.62,0.45267
4470.83,0.44598
4465.05,0.43742
4459.26,0.42627
4453.47,0.42065
4447.69,0.41703
4441.9,0.40953
4436.11,0.40178
4430.33,0.39544
4424.54,0.39193
4418.76,0.38878
4412.97,0.38413
4407.18,0.37845
4401.4,0.37469
4395.61,0.37585
4389.82,0.37910
4384.04,0.38340
4378.25,0.38730
4372.47,0.38923
4366.68,0.38964
4360.89,0.38887
4355.11,0.38724
4349.32,0.38546
4343.53,0.38345
4337.75,0.38039
4331.96,0.37761
4326.18,0.37332
4320.39,0.37047
4314.6,0.36767
4308.82,0.36399
4303.03,0.35993
4297.24,0.35605
4291.46,0.35212
4285.67,0.35090
4279.89,0.35032
4274.1,0.34917
4268.31,0.34978
4262.53,0.35254
4256.74,0.35290
4250.95,0.35313
4245.17,0.35287
4239.38,0.35469
4233.6,0.35670
4227.81,0.35810
4222.02,0.35881
4216.24,0.36056
4210.45,0.36346
4204.66,0.36647
4198.88,0.36786
4193.09,0.36943
4187.31,0.36788
4181.52,0.36509
4175.73,0.36458
4169.95,0.36829
4164.16,0.37284
4158.37,0.37482
4152.59,0.37491
4146.8,0.37308
4141.02,0.37021
4135.23,0.36772
4129.44,0.36540
4123.66,0.36170
4117.87,0.35794
4112.09,0.35234
4106.3,0.34525
4100.51,0.33613
4094.73,0.32259
4088.94,0.31510
4083.15,0.31452
4077.37,0.31671
4071.58,0.31720
4065.8,0.31457
4060.01,0.31042
4054.22,0.30569
4048.44,0.30048
4042.65,0.29525
4036.86,0.29268
4031.08,0.29097
4025.29,0.28978
4019.51,0.28832
4013.72,0.28952
4007.93,0.29097
4002.15,0.29296
3996.36,0.29558
3990.57,0.29883
3984.79,0.30064
3979,0.30342
3973.22,0.30507
3967.43,0.30685
3961.64,0.30955
3955.86,0.31309
3950.07,0.31541
3944.28,0.31835
3938.5,0.32048
3932.71,0.32354
3926.93,0.32696
3921.14,0.32975
3915.35,0.33321
3909.57,0.33541
3903.78,0.33872
3897.99,0.34165
3892.21,0.34369
3886.42,0.34699
3880.64,0.34876
3874.85,0.35093
3869.06,0.35437
3863.28,0.35817
3857.49,0.36208
3851.7,0.36527
3845.92,0.36853
3840.13,0.37051
3834.35,0.37247
3828.56,0.37341
3822.77,0.37355
3816.99,0.37266
3811.2,0.37136
3805.41,0.37093
3799.63,0.37247
3793.84,0.37469
3788.06,0.37568
3782.27,0.37462
3776.48,0.37366
3770.7,0.37326
3764.91,0.37063
3759.12,0.36823
3753.34,0.36858
3747.55,0.36982
3741.77,0.36840
3735.98,0.36525
3730.19,0.36107
3724.41,0.35895
3718.62,0.35560
3712.83,0.34937
3707.05,0.34215
3701.26,0.33296
3695.48,0.32245
3689.69,0.30824
3683.9,0.29676
3678.12,0.28627
3672.33,0.27388
3666.54,0.25740
3660.76,0.24053
3654.97,0.22345
3649.19,0.20756
3643.4,0.19214
3637.61,0.17925
3631.83,0.16646
3626.04,0.15402
3620.25,0.14271
3614.47,0.13325
3608.68,0.12343
3602.9,0.11413
3597.11,0.10571
3591.32,0.09885
3585.54,0.09115
3579.75,0.08530
3573.97,0.07955
3568.18,0.07425
3562.39,0.06981
3556.61,0.06690
3550.82,0.06248
3545.03,0.05984
3539.25,0.05699
3533.46,0.05527
3527.68,0.05266
3521.89,0.05116
3516.1,0.04939
3510.32,0.04828
3504.53,0.04754
3498.74,0.04557
3492.96,0.04505
3487.17,0.04370
3481.39,0.04288
3475.6,0.04195
3469.81,0.04133
3464.03,0.03989
3458.24,0.03977
3452.45,0.03925
3446.67,0.03785
3440.88,0.03643
3435.1,0.03591
3429.31,0.03503
3423.52,0.03548
3417.74,0.03695
3411.95,0.03876
3406.16,0.03921
3400.38,0.03985
3394.59,0.03985
3388.81,0.03978
3383.02,0.04099
3377.23,0.04011
3371.45,0.04065
3365.66,0.04096
3359.87,0.04018
3354.09,0.03974
3348.3,0.04082
3342.52,0.04151
3336.73,0.04137
3330.94,0.04214
3325.16,0.04235
3319.37,0.04340
3313.58,0.04303
3307.8,0.04309
3302.01,0.04350
3296.23,0.04354
3290.44,0.04373
3284.65,0.04434
3278.87,0.04512
3273.08,0.04537
3267.29,0.04635
3261.51,0.04682
3255.72,0.04795
3249.94,0.04835
3244.15,0.04934
3238.36,0.04995
3232.58,0.05116
3226.79,0.05236
3221,0.05289
3215.22,0.05373
3209.43,0.05592
3203.65,0.05708
3197.86,0.05859
3192.07,0.05976
3186.29,0.06138
3180.5,0.06291
3174.71,0.06457
3168.93,0.06568
3163.14,0.06758
3157.36,0.06872
3151.57,0.07068
3145.78,0.07255
3140,0.07454
3134.21,0.07515
3128.42,0.07699
3122.64,0.07964
3116.85,0.08091
3111.07,0.08247
3105.28,0.08350
3099.49,0.08546
3093.71,0.08855
3087.92,0.09034
3082.14,0.09125
3076.35,0.09294
3070.56,0.09507
3064.78,0.09666
3058.99,0.09814
3053.2,0.10014
3047.42,0.10605
3041.63,0.11022
3035.85,0.11256
3030.06,0.11300
3024.27,0.11275
3018.49,0.11025
3012.7,0.10741
3006.91,0.10672
3001.13,0.10514
2995.34,0.10198
2989.56,0.09587
2983.77,0.08756
2977.98,0.07685
2972.2,0.06443
2966.41,0.06007
2960.62,0.06037
2954.84,0.05895
2949.05,0.05770
2943.27,0.05779
2937.48,0.05866
2931.69,0.05802
2925.91,0.05528
2920.12,0.05104
2914.33,0.04667
2908.55,0.04465
2902.76,0.04600
2896.98,0.04869
2891.19,0.05036
2885.4,0.05285
2879.62,0.05566
2873.83,0.05686
2868.04,0.05822
2862.26,0.06113
2856.47,0.06403
2850.69,0.06682
2844.9,0.07518
2839.11,0.08387
2833.33,0.09031
2827.54,0.09590
2821.75,0.10035
2815.97,0.10485
2810.18,0.10956
2804.4,0.11304
2798.61,0.11767
2792.82,0.12180
2787.04,0.12425
2781.25,0.12627
2775.46,0.12737
2769.68,0.12902
2763.89,0.13045
2758.11,0.13160
2752.32,0.13246
2746.53,0.13174
2740.75,0.13226
2734.96,0.13326
2729.17,0.13476
2723.39,0.13611
2717.6,0.13853
2711.82,0.14120
2706.03,0.14502
2700.24,0.14869
2694.46,0.15243
2688.67,0.15604
2682.88,0.15959
2677.1,0.16257
2671.31,0.16478
2665.53,0.16705
2659.74,0.16844
2653.95,0.17016
2648.17,0.17210
2642.38,0.17394
2636.59,0.17512
2630.81,0.17604
2625.02,0.17851
2619.24,0.18099
2613.45,0.18275
2607.66,0.18455
2601.88,0.18649
2596.09,0.18722
2590.3,0.18814
2584.52,0.18826
2578.73,0.18867
2572.95,0.18954
2567.16,0.18913
2561.37,0.18836
2555.59,0.18783
2549.8,0.18710
2544.02,0.18599
2538.23,0.18601
2532.44,0.18679
2526.66,0.18890
2520.87,0.19063
2515.08,0.19266
2509.3,0.19562
2503.51,0.19976
2497.73,0.20373
2491.94,0.20745
2486.15,0.21146
2480.37,0.21520
2474.58,0.21898
2468.79,0.22251
2463.01,0.22432
2457.22,0.22584
2451.44,0.22771
2445.65,0.23013
2439.86,0.23218
2434.08,0.23386
2428.29,0.23541
2422.5,0.23676
2416.72,0.23853
2410.93,0.23873
2405.15,0.23935
2399.36,0.24020
2393.57,0.24181
2387.79,0.24371
2382,0.24582
2376.21,0.24924
2370.43,0.25388
2364.64,0.25834
2358.86,0.26269
2353.07,0.26676
2347.28,0.27068
2341.5,0.27442
2335.71,0.27702
2329.92,0.27906
2324.14,0.28145
2318.35,0.28432
2312.57,0.28569
2306.78,0.28433
2300.99,0.28116
2295.21,0.27639
2289.42,0.27176
2283.63,0.26997
2277.85,0.26922
2272.06,0.26743
2266.28,0.26248
2260.49,0.25691
2254.7,0.24870
2248.92,0.23871
2243.13,0.23399
2237.34,0.23959
2231.56,0.25315
2225.77,0.25992
2219.99,0.26349
2214.2,0.26657
2208.41,0.26787
2202.63,0.26972
2196.84,0.26948
2191.05,0.26729
2185.27,0.26406
2179.48,0.25934
2173.7,0.25383
2167.91,0.24769
2162.12,0.24143
2156.34,0.23588
2150.55,0.23190
2144.76,0.22814
2138.98,0.22492
2133.19,0.22291
2127.41,0.22243
2121.62,0.22259
2115.83,0.22325
2110.05,0.22610
2104.26,0.22856
2098.47,0.23144
2092.69,0.23422
2086.9,0.23779
2081.12,0.24090
2075.33,0.24365
2069.54,0.24609
2063.76,0.24912
2057.97,0.25200
2052.19,0.25435
2046.4,0.25658
2040.61,0.25863
2034.83,0.26143
2029.04,0.26453
2023.25,0.26844
2017.47,0.27102
2011.68,0.27282
2005.9,0.27229
2000.11,0.26986
1994.32,0.26801
1988.54,0.26662
1982.75,0.26535
1976.96,0.26329
1971.18,0.25841
1965.39,0.25017
1959.61,0.24408
1953.82,0.24821
1948.03,0.25695
1942.25,0.26718
1936.46,0.27756
1930.67,0.28615
1924.89,0.29234
1919.1,0.29774
1913.32,0.30199
1907.53,0.30520
1901.74,0.30712
1895.96,0.30802
1890.17,0.30826
1884.38,0.30776
1878.6,0.30633
1872.81,0.30338
1867.03,0.29905
1861.24,0.29357
1855.45,0.28501
1849.67,0.27403
1843.88,0.26194
1838.09,0.25201
1832.31,0.24410
1826.52,0.23750
1820.74,0.23423
1814.95,0.23135
1809.16,0.22779
1803.38,0.22455
1797.59,0.22015
1791.8,0.21481
1786.02,0.20846
1780.23,0.20003
1774.45,0.19054
1768.66,0.17845
1762.87,0.16408
1757.09,0.14485
1751.3,0.12114
1745.51,0.09885
1739.73,0.08889
1733.94,0.08851
1728.16,0.09157
1722.37,0.09559
1716.58,0.09829
1710.8,0.09802
1705.01,0.10211
1699.22,0.10980
1693.44,0.11148
1687.65,0.11031
1681.87,0.10705
1676.08,0.10769
1670.29,0.10716
1664.51,0.10843
1658.72,0.10931
1652.93,0.10831
1647.15,0.10784
1641.36,0.10792
1635.58,0.10902
1629.79,0.11036
1624,0.11277
1618.22,0.11288
1612.43,0.11333
1606.64,0.12047
1600.86,0.12749
1595.07,0.13137
1589.29,0.13154
1583.5,0.12424
1577.71,0.11631
1571.93,0.12856
1566.14,0.13766
1560.35,0.14033
1554.57,0.13994
1548.78,0.13987
1543,0.13933
1537.21,0.13666
1531.42,0.13308
1525.64,0.12791
1519.85,0.12473
1514.07,0.11727
1508.28,0.09456
1502.49,0.08953
1496.71,0.10521
1490.92,0.10077
1485.13,0.08167
1479.35,0.06630
1473.56,0.05550
1467.78,0.05006
1461.99,0.04361
1456.2,0.03858
1450.42,0.03688
1444.63,0.03706
1438.84,0.03632
1433.06,0.03589
1427.27,0.03721
1421.49,0.03647
1415.7,0.03394
1409.91,0.03310
1404.13,0.03553
1398.34,0.03858
1392.55,0.03875
1386.77,0.03462
1380.98,0.02939
1375.2,0.02686
1369.41,0.02653
1363.62,0.02804
1357.84,0.02907
1352.05,0.02868
1346.26,0.02761
1340.48,0.02667
1334.69,0.02719
1328.91,0.02899
1323.12,0.02744
1317.33,0.02592
1311.55,0.02595
1305.76,0.02793
1299.97,0.03024
1294.19,0.03064
1288.4,0.03091
1282.62,0.03113
1276.83,0.03434
1271.04,0.03821
1265.26,0.03864
1259.47,0.03858
1253.68,0.03874
1247.9,0.03793
1242.11,0.03687
1236.33,0.03563
1230.54,0.03765
1224.75,0.04046
1218.97,0.04353
1213.18,0.04331
1207.39,0.03921
1201.61,0.04009
1195.82,0.04241
1190.04,0.04419
1184.25,0.03948
1178.46,0.03367
1172.68,0.03272
1166.89,0.03556
1161.1,0.03297
1155.32,0.02891
1149.53,0.02529
1143.75,0.02205
1137.96,0.02011
1132.17,0.02015
1126.39,0.02186
1120.6,0.02373
1114.81,0.02475
1109.03,0.02560
1103.24,0.02626
1097.46,0.02543
1091.67,0.02547
1085.88,0.02618
1080.1,0.03047
1074.31,0.03703
1068.52,0.04373
1062.74,0.04923
1056.95,0.04848
1051.17,0.04295
1045.38,0.03856
1039.59,0.03933
1033.81,0.04309
1028.02,0.03941
1022.24,0.03641
1016.45,0.03810
1010.66,0.04643
1004.88,0.05105
999.09,0.05311
993.304,0.05528
987.518,0.05469
981.731,0.05835
975.945,0.06481
970.159,0.07021
964.373,0.08263
958.586,0.09831
952.8,0.11381
947.014,0.12475
941.228,0.13046
935.441,0.13373
929.655,0.13401
923.869,0.13515
918.083,0.13097
912.297,0.11802
906.51,0.10335
900.724,0.09174
894.938,0.09076
889.152,0.10060
883.365,0.10646
877.579,0.10382
871.793,0.10624
866.007,0.12455
860.22,0.12508
854.434,0.11635
848.648,0.11025
842.862,0.11547
837.075,0.12179
831.289,0.12670
825.503,0.12806
819.717,0.12659
813.931,0.12206
808.144,0.11834
802.358,0.11412
796.572,0.10480
790.786,0.09982
784.999,0.10461
779.213,0.10348
773.427,0.10078
767.641,0.09839
761.854,0.09345
756.068,0.08672
750.282,0.07901
744.496,0.06763
738.709,0.05075
732.923,0.04205
727.137,0.04201
721.351,0.04704
715.565,0.05803
709.778,0.05970
703.992,0.06068
698.206,0.06410
692.42,0.06491
686.633,0.06248
680.847,0.05931
675.061,0.05775
669.275,0.05859
663.488,0.05737
657.702,0.06001
651.916,0.06100
646.13,0.05851
640.343,0.05564
634.557,0.05196
628.771,0.05073
622.985,0.05342
617.198,0.05082
611.412,0.05261
605.626,0.05502
599.84,0.05597