File: 01_Data/Cotton_Rug/FTIR/IS/Cotton_Rug_IS_T_220822_R3.dpt
7497.03,0.01968
7491.25,0.02604
7485.46,0.02594
7479.67,0.01909
7473.89,0.02470
7468.1,0.02601
7462.32,0.02278
7456.53,0.01582
7450.74,0.02402
7444.96,0.02336
7439.17,0.01481
7433.38,0.01351
7427.6,0.02451
7421.81,0.01563
7416.03,0.02811
7410.24,0.02745
7404.45,0.01962
7398.67,0.02426
7392.88,0.02868
7387.09,0.01922
7381.31,0.01888
7375.52,0.02099
7369.74,0.02864
7363.95,0.02418
7358.16,0.02551
7352.38,0.02303
7346.59,0.01566
7340.8,0.01496
7335.02,0.01985
7329.23,0.02732
7323.45,0.01949
7317.66,0.01450
7311.87,0.02259
7306.09,0.02487
7300.3,0.01601
7294.51,0.02008
7288.73,0.02613
7282.94,0.02745
7277.16,0.02581
7271.37,0.02295
7265.58,0.02081
7259.8,0.01686
7254.01,0.01366
7248.22,0.02075
7242.44,0.01976
7236.65,0.02493
7230.87,0.02416
7225.08,0.02516
7219.29,0.02599
7213.51,0.01942
7207.72,0.02129
7201.93,0.02447
7196.15,0.01816
7190.36,0.02398
7184.58,0.01668
7178.79,0.02224
7173,0.02572
7167.22,0.02034
7161.43,0.02347
7155.65,0.01967
7149.86,0.02243
7144.07,0.01848
7138.29,0.02109
7132.5,0.02314
7126.71,0.02404
7120.93,0.02268
7115.14,0.02125
7109.36,0.01852
7103.57,0.02148
7097.78,0.01672
7092,0.01933
7086.21,0.02441
7080.42,0.02227
7074.64,0.02218
7068.85,0.01879
7063.07,0.01920
7057.28,0.01802
7051.49,0.01600
7045.71,0.01994
7039.92,0.02361
7034.13,0.01875
7028.35,0.02064
7022.56,0.02451
7016.78,0.01573
7010.99,0.02564
7005.2,0.02207
6999.42,0.01938
6993.63,0.02040
6987.84,0.02295
6982.06,0.01504
6976.27,0.02371
6970.49,0.01750
6964.7,0.02123
6958.91,0.01427
6953.13,0.02207
6947.34,0.01973
6941.55,0.02157
6935.77,0.02849
6929.98,0.02263
6924.2,0.02168
6918.41,0.02373
6912.62,0.02461
6906.84,0.02011
6901.05,0.02227
6895.26,0.02107
6889.48,0.01924
6883.69,0.02424
6877.91,0.01969
6872.12,0.01974
6866.33,0.01858
6860.55,0.01779
6854.76,0.01635
6848.97,0.02286
6843.19,0.01694
6837.4,0.01877
6831.62,0.01952
6825.83,0.01223
6820.04,0.01659
6814.26,0.02045
6808.47,0.02283
6802.68,0.02236
6796.9,0.01737
6791.11,0.01663
6785.33,0.02306
6779.54,0.02214
6773.75,0.01603
6767.97,0.01598
6762.18,0.02191
6756.39,0.02260
6750.61,0.01961
6744.82,0.02162
6739.04,0.02477
6733.25,0.01804
6727.46,0.02063
6721.68,0.02120
6715.89,0.01921
6710.1,0.02355
6704.32,0.02740
6698.53,0.02465
6692.75,0.01991
6686.96,0.02149
6681.17,0.01728
6675.39,0.02137
6669.6,0.01858
6663.82,0.02087
6658.03,0.02051
6652.24,0.02348
6646.46,0.01665
6640.67,0.01622
6634.88,0.02302
6629.1,0.02382
6623.31,0.02120
6617.53,0.01947
6611.74,0.02176
6605.95,0.02224
6600.17,0.02328
6594.38,0.02056
6588.59,0.01732
6582.81,0.02040
6577.02,0.02227
6571.24,0.01945
6565.45,0.01900
6559.66,0.01716
6553.88,0.02178
6548.09,0.01969
6542.3,0.02054
6536.52,0.02009
6530.73,0.02004
6524.95,0.02148
6519.16,0.01676
6513.37,0.01658
6507.59,0.02304
6501.8,0.01971
6496.01,0.01786
6490.23,0.01643
6484.44,0.01881
6478.66,0.01890
6472.87,0.02114
6467.08,0.01805
6461.3,0.01709
6455.51,0.01880
6449.72,0.01800
6443.94,0.02171
6438.15,0.02089
6432.37,0.02309
6426.58,0.02120
6420.79,0.01877
6415.01,0.01573
6409.22,0.01896
6403.43,0.02073
6397.65,0.01996
6391.86,0.01968
6386.08,0.02133
6380.29,0.01783
6374.5,0.02134
6368.72,0.02159
6362.93,0.01994
6357.14,0.01608
6351.36,0.01972
6345.57,0.02200
6339.79,0.02070
6334,0.02048
6328.21,0.01888
6322.43,0.01693
6316.64,0.01826
6310.85,0.02115
6305.07,0.02248
6299.28,0.01985
6293.5,0.01561
6287.71,0.01948
6281.92,0.01998
6276.14,0.01973
6270.35,0.01703
6264.56,0.01514
6258.78,0.01678
6252.99,0.01835
6247.21,0.01863
6241.42,0.02038
6235.63,0.01840
6229.85,0.01631
6224.06,0.01887
6218.27,0.01884
6212.49,0.02161
6206.7,0.01949
6200.92,0.01921
6195.13,0.02181
6189.34,0.01409
6183.56,0.01628
6177.77,0.01738
6171.98,0.01949
6166.2,0.02047
6160.41,0.02158
6154.63,0.02015
6148.84,0.01722
6143.05,0.02100
6137.27,0.01876
6131.48,0.01891
6125.7,0.01730
6119.91,0.01801
6114.12,0.01388
6108.34,0.01890
6102.55,0.01889
6096.76,0.02008
6090.98,0.02137
6085.19,0.02047
6079.41,0.01719
6073.62,0.01987
6067.83,0.01598
6062.05,0.01812
6056.26,0.01805
6050.47,0.01679
6044.69,0.01717
6038.9,0.01516
6033.12,0.01717
6027.33,0.01793
6021.54,0.01788
6015.76,0.01976
6009.97,0.01953
6004.18,0.02135
5998.4,0.01785
5992.61,0.02045
5986.83,0.01895
5981.04,0.01594
5975.25,0.01607
5969.47,0.01905
5963.68,0.02313
5957.89,0.01870
5952.11,0.01734
5946.32,0.01811
5940.54,0.01828
5934.75,0.01994
5928.96,0.01766
5923.18,0.01729
5917.39,0.01923
5911.6,0.01809
5905.82,0.01994
5900.03,0.01968
5894.25,0.01903
5888.46,0.02221
5882.67,0.01932
5876.89,0.01667
5871.1,0.01883
5865.31,0.01830
5859.53,0.01957
5853.74,0.02018
5847.96,0.01887
5842.17,0.01917
5836.38,0.01450
5830.6,0.02016
5824.81,0.01817
5819.02,0.01850
5813.24,0.01832
5807.45,0.01982
5801.67,0.01921
5795.88,0.01853
5790.09,0.01970
5784.31,0.01837
5778.52,0.01854
5772.73,0.02120
5766.95,0.01943
5761.16,0.01953
5755.38,0.01822
5749.59,0.01944
5743.8,0.01733
5738.02,0.01721
5732.23,0.01698
5726.44,0.01935
5720.66,0.01650
5714.87,0.01816
5709.09,0.01869
5703.3,0.01819
5697.51,0.01748
5691.73,0.01948
5685.94,0.01832
5680.15,0.01785
5674.37,0.01888
5668.58,0.01893
5662.8,0.01888
5657.01,0.01982
5651.22,0.02043
5645.44,0.01967
5639.65,0.01845
5633.87,0.01792
5628.08,0.01961
5622.29,0.02119
5616.51,0.01867
5610.72,0.01940
5604.93,0.01770
5599.15,0.01838
5593.36,0.01912
5587.58,0.01940
5581.79,0.01784
5576,0.01968
5570.22,0.01839
5564.43,0.01894
5558.64,0.01999
5552.86,0.02014
5547.07,0.01915
5541.29,0.01721
5535.5,0.02017
5529.71,0.01964
5523.93,0.01920
5518.14,0.01792
5512.35,0.01990
5506.57,0.01966
5500.78,0.01816
5495,0.01901
5489.21,0.01917
5483.42,0.01892
5477.64,0.01937
5471.85,0.01913
5466.06,0.01950
5460.28,0.01845
5454.49,0.01840
5448.71,0.02047
5442.92,0.01837
5437.13,0.01940
5431.35,0.01883
5425.56,0.01738
5419.77,0.01907
5413.99,0.01878
5408.2,0.01915
5402.42,0.01828
5396.63,0.01932
5390.84,0.01823
5385.06,0.01774
5379.27,0.01837
5373.48,0.01860
5367.7,0.01745
5361.91,0.01829
5356.13,0.01866
5350.34,0.01864
5344.55,0.02030
5338.77,0.01963
5332.98,0.01962
5327.19,0.01763
5321.41,0.01954
5315.62,0.01846
5309.84,0.01840
5304.05,0.01865
5298.26,0.01953
5292.48,0.01783
5286.69,0.01881
5280.9,0.01855
5275.12,0.01760
5269.33,0.01850
5263.55,0.01960
5257.76,0.01732
5251.97,0.01819
5246.19,0.02011
5240.4,0.02100
5234.61,0.01901
5228.83,0.01987
5223.04,0.01769
5217.26,0.01796
5211.47,0.01970
5205.68,0.01742
5199.9,0.01927
5194.11,0.01920
5188.32,0.01783
5182.54,0.02035
5176.75,0.01899
5170.97,0.01982
5165.18,0.01927
5159.39,0.02079
5153.61,0.01932
5147.82,0.01933
5142.03,0.01958
5136.25,0.01773
5130.46,0.01909
5124.68,0.01762
5118.89,0.01771
5113.1,0.02000
5107.32,0.01983
5101.53,0.01888
5095.75,0.01964
5089.96,0.01901
5084.17,0.01948
5078.39,0.01962
5072.6,0.01966
5066.81,0.01774
5061.03,0.02013
5055.24,0.01927
5049.46,0.01899
5043.67,0.01914
5037.88,0.01933
5032.1,0.01976
5026.31,0.01926
5020.52,0.01851
5014.74,0.02005
5008.95,0.01949
5003.17,0.01991
4997.38,0.01912
4991.59,0.01917
4985.81,0.01955
4980.02,0.01916
4974.23,0.01938
4968.45,0.01946
4962.66,0.01929
4956.88,0.01907
4951.09,0.01944
4945.3,0.01893
4939.52,0.01823
4933.73,0.01728
4927.94,0.01914
4922.16,0.01890
4916.37,0.01840
4910.59,0.01927
4904.8,0.01935
4899.01,0.01894
4893.23,0.01891
4887.44,0.01885
4881.65,0.01876
4875.87,0.01849
4870.08,0.01883
4864.3,0.01902
4858.51,0.01875
4852.72,0.01941
4846.94,0.01859
4841.15,0.01912
4835.36,0.01810
4829.58,0.01840
4823.79,0.01987
4818.01,0.01951
4812.22,0.01944
4806.43,0.02012
4800.65,0.02010
4794.86,0.01968
4789.07,0.01982
4783.29,0.01950
4777.5,0.01916
4771.72,0.01903
4765.93,0.01904
4760.14,0.01903
4754.36,0.01842
4748.57,0.01878
4742.78,0.01902
4737,0.01826
4731.21,0.01941
4725.43,0.02072
4719.64,0.01987
4713.85,0.01941
4708.07,0.01854
4702.28,0.01956
4696.49,0.01981
4690.71,0.02033
4684.92,0.01956
4679.14,0.01816
4673.35,0.01968
4667.56,0.01972
4661.78,0.01934
4655.99,0.01892
4650.2,0.01866
4644.42,0.01927
4638.63,0.01907
4632.85,0.01865
4627.06,0.01920
4621.27,0.01966
4615.49,0.01930
4609.7,0.01846
4603.92,0.01883
4598.13,0.01979
4592.34,0.01905
4586.56,0.01978
4580.77,0.01987
4574.98,0.02010
4569.2,0.01915
4563.41,0.01997
4557.63,0.01862
4551.84,0.01892
4546.05,0.01944
4540.27,0.01982
4534.48,0.01914
4528.69,0.01919
4522.91,0.01867
4517.12,0.01980
4511.34,0.01910
4505.55,0.01966
4499.76,0.01863
4493.98,0.01918
4488.19,0.01889
4482.4,0.01976
4476.62,0.01892
4470.83,0.02048
4465.05,0.01965
4459.26,0.01978
4453.47,0.01860
4447.69,0.01907
4441.9,0.01942
4436.11,0.01954
4430.33,0.01968
4424.54,0.01938
4418.76,0.01914
4412.97,0.01939
4407.18,0.01931
4401.4,0.01887
4395.61,0.01904
4389.82,0.01933
4384.04,0.01991
4378.25,0.01971
4372.47,0.01896
4366.68,0.01955
4360.89,0.01973
4355.11,0.01880
4349.32,0.01938
4343.53,0.01935
4337.75,0.01955
4331.96,0.01919
4326.18,0.01930
4320.39,0.01933
4314.6,0.01921
4308.82,0.01879
4303.03,0.01917
4297.24,0.01953
4291.46,0.01983
4285.67,0.01872
4279.89,0.01911
4274.1,0.01878
4268.31,0.01885
4262.53,0.01944
4256.74,0.02009
4250.95,0.01879
4245.17,0.01933
4239.38,0.01914
4233.6,0.01855
4227.81,0.01931
4222.02,0.01896
4216.24,0.01865
4210.45,0.01935
4204.66,0.01912
4198.88,0.01934
4193.09,0.01901
4187.31,0.02038
4181.52,0.02007
4175.73,0.02000
4169.95,0.01974
4164.16,0.01937
4158.37,0.01907
4152.59,0.01924
4146.8,0.01935
4141.02,0.01947
4135.23,0.01990
4129.44,0.01941
4123.66,0.02005
4117.87,0.02004
4112.09,0.01951
4106.3,0.01979
4100.51,0.01961
4094.73,0.01977
4088.94,0.01926
4083.15,0.01956
4077.37,0.01957
4071.58,0.01888
4065.8,0.01941
4060.01,0.01979
4054.22,0.01991
4048.44,0.01931
4042.65,0.01904
4036.86,0.01944
4031.08,0.01912
4025.29,0.02007
4019.51,0.01975
4013.72,0.01938
4007.93,0.01959
4002.15,0.01973
3996.36,0.01953
3990.57,0.01992
3984.79,0.01956
3979,0.01858
3973.22,0.01939
3967.43,0.01956
3961.64,0.01945
3955.86,0.01963
3950.07,0.01967
3944.28,0.01957
3938.5,0.01923
3932.71,0.01911
3926.93,0.01961
3921.14,0.01963
3915.35,0.01939
3909.57,0.02008
3903.78,0.01968
3897.99,0.01923
3892.21,0.01974
3886.42,0.01924
3880.64,0.01915
3874.85,0.02030
3869.06,0.01962
3863.28,0.01947
3857.49,0.01961
3851.7,0.01937
3845.92,0.01958
3840.13,0.02018
3834.35,0.01968
3828.56,0.01959
3822.77,0.01952
3816.99,0.02009
3811.2,0.01978
3805.41,0.01964
3799.63,0.01951
3793.84,0.01977
3788.06,0.01964
3782.27,0.01989
3776.48,0.01949
3770.7,0.01993
3764.91,0.01964
3759.12,0.01926
3753.34,0.01954
3747.55,0.01970
3741.77,0.01906
3735.98,0.01926
3730.19,0.01866
3724.41,0.01961
3718.62,0.01999
3712.83,0.01928
3707.05,0.01874
3701.26,0.01917
3695.48,0.01888
3689.69,0.01926
3683.9,0.01957
3678.12,0.01967
3672.33,0.01923
3666.54,0.01955
3660.76,0.01924
3654.97,0.01904
3649.19,0.01863
3643.4,0.01894
3637.61,0.01938
3631.83,0.01968
3626.04,0.01905
3620.25,0.01940
3614.47,0.01854
3608.68,0.01829
3602.9,0.01885
3597.11,0.01839
3591.32,0.01865
3585.54,0.01815
3579.75,0.01827
3573.97,0.01861
3568.18,0.01767
3562.39,0.01782
3556.61,0.01866
3550.82,0.01828
3545.03,0.01875
3539.25,0.01882
3533.46,0.01806
3527.68,0.01803
3521.89,0.01837
3516.1,0.01813
3510.32,0.01796
3504.53,0.01805
3498.74,0.01868
3492.96,0.01750
3487.17,0.01822
3481.39,0.01750
3475.6,0.01772
3469.81,0.01771
3464.03,0.01826
3458.24,0.01813
3452.45,0.01791
3446.67,0.01787
3440.88,0.01770
3435.1,0.01754
3429.31,0.01754
3423.52,0.01701
3417.74,0.01703
3411.95,0.01748
3406.16,0.01721
3400.38,0.01760
3394.59,0.01734
3388.81,0.01757
3383.02,0.01721
3377.23,0.01734
3371.45,0.01728
3365.66,0.01753
3359.87,0.01745
3354.09,0.01745
3348.3,0.01712
3342.52,0.01652
3336.73,0.01716
3330.94,0.01786
3325.16,0.01698
3319.37,0.01748
3313.58,0.01761
3307.8,0.01729
3302.01,0.01694
3296.23,0.01711
3290.44,0.01793
3284.65,0.01732
3278.87,0.01734
3273.08,0.01735
3267.29,0.01721
3261.51,0.01784
3255.72,0.01767
3249.94,0.01772
3244.15,0.01736
3238.36,0.01823
3232.58,0.01740
3226.79,0.01699
3221,0.01736
3215.22,0.01787
3209.43,0.01808
3203.65,0.01744
3197.86,0.01763
3192.07,0.01771
3186.29,0.01741
3180.5,0.01753
3174.71,0.01755
3168.93,0.01724
3163.14,0.01713
3157.36,0.01784
3151.57,0.01752
3145.78,0.01756
3140,0.01745
3134.21,0.01793
3128.42,0.01828
3122.64,0.01742
3116.85,0.01757
3111.07,0.01752
3105.28,0.01772
3099.49,0.01710
3093.71,0.01808
3087.92,0.01781
3082.14,0.01794
3076.35,0.01669
3070.56,0.01728
3064.78,0.01795
3058.99,0.01717
3053.2,0.01825
3047.42,0.01766
3041.63,0.01725
3035.85,0.01773
3030.06,0.01739
3024.27,0.01760
3018.49,0.01698
3012.7,0.01741
3006.91,0.01731
3001.13,0.01674
2995.34,0.01681
2989.56,0.01667
2983.77,0.01689
2977.98,0.01676
2972.2,0.01655
2966.41,0.01644
2960.62,0.01655
2954.84,0.01632
2949.05,0.01682
2943.27,0.01635
2937.48,0.01627
2931.69,0.01663
2925.91,0.01725
2920.12,0.01727
2914.33,0.01767
2908.55,0.01782
2902.76,0.01719
2896.98,0.01784
2891.19,0.01774
2885.4,0.01764
2879.62,0.01748
2873.83,0.01743
2868.04,0.01751
2862.26,0.01729
2856.47,0.01733
2850.69,0.01785
2844.9,0.01783
2839.11,0.01834
2833.33,0.01815
2827.54,0.01779
2821.75,0.01822
2815.97,0.01852
2810.18,0.01786
2804.4,0.01796
2798.61,0.01821
2792.82,0.01771
2787.04,0.01871
2781.25,0.01798
2775.46,0.01806
2769.68,0.01837
2763.89,0.01803
2758.11,0.01813
2752.32,0.01834
2746.53,0.01820
2740.75,0.01791
2734.96,0.01819
2729.17,0.01789
2723.39,0.01808
2717.6,0.01829
2711.82,0.01773
2706.03,0.01811
2700.24,0.01849
2694.46,0.01805
2688.67,0.01848
2682.88,0.01790
2677.1,0.01815
2671.31,0.01800
2665.53,0.01782
2659.74,0.01835
2653.95,0.01857
2648.17,0.01821
2642.38,0.01840
2636.59,0.01801
2630.81,0.01844
2625.02,0.01825
2619.24,0.01842
2613.45,0.01788
2607.66,0.01787
2601.88,0.01757
2596.09,0.01828
2590.3,0.01818
2584.52,0.01790
2578.73,0.01793
2572.95,0.01804
2567.16,0.01856
2561.37,0.01819
2555.59,0.01797
2549.8,0.01794
2544.02,0.01821
2538.23,0.01810
2532.44,0.01807
2526.66,0.01813
2520.87,0.01823
2515.08,0.01835
2509.3,0.01800
2503.51,0.01799
2497.73,0.01830
2491.94,0.01816
2486.15,0.01806
2480.37,0.01811
2474.58,0.01790
2468.79,0.01803
2463.01,0.01805
2457.22,0.01773
2451.44,0.01822
2445.65,0.01838
2439.86,0.01759
2434.08,0.01831
2428.29,0.01773
2422.5,0.01825
2416.72,0.01803
2410.93,0.01805
2405.15,0.01774
2399.36,0.01850
2393.57,0.01810
2387.79,0.01823
2382,0.01808
2376.21,0.01815
2370.43,0.01782
2364.64,0.01844
2358.86,0.01812
2353.07,0.01798
2347.28,0.01800
2341.5,0.01759
2335.71,0.01799
2329.92,0.01817
2324.14,0.01839
2318.35,0.01804
2312.57,0.01802
2306.78,0.01822
2300.99,0.01764
2295.21,0.01810
2289.42,0.01783
2283.63,0.01802
2277.85,0.01798
2272.06,0.01817
2266.28,0.01831
2260.49,0.01803
2254.7,0.01776
2248.92,0.01803
2243.13,0.01805
2237.34,0.01782
2231.56,0.01789
2225.77,0.01792
2219.99,0.01827
2214.2,0.01834
2208.41,0.01771
2202.63,0.01790
2196.84,0.01823
2191.05,0.01792
2185.27,0.01798
2179.48,0.01801
2173.7,0.01800
2167.91,0.01823
2162.12,0.01800
2156.34,0.01779
2150.55,0.01778
2144.76,0.01807
2138.98,0.01806
2133.19,0.01816
2127.41,0.01765
2121.62,0.01811
2115.83,0.01833
2110.05,0.01779
2104.26,0.01791
2098.47,0.01751
2092.69,0.01816
2086.9,0.01809
2081.12,0.01763
2075.33,0.01777
2069.54,0.01773
2063.76,0.01755
2057.97,0.01785
2052.19,0.01774
2046.4,0.01776
2040.61,0.01785
2034.83,0.01753
2029.04,0.01768
2023.25,0.01762
2017.47,0.01801
2011.68,0.01797
2005.9,0.01779
2000.11,0.01785
1994.32,0.01764
1988.54,0.01779
1982.75,0.01762
1976.96,0.01758
1971.18,0.01765
1965.39,0.01781
1959.61,0.01784
1953.82,0.01735
1948.03,0.01774
1942.25,0.01783
1936.46,0.01780
1930.67,0.01770
1924.89,0.01782
1919.1,0.01785
1913.32,0.01757
1907.53,0.01779
1901.74,0.01763
1895.96,0.01751
1890.17,0.01778
1884.38,0.01749
1878.6,0.01755
1872.81,0.01731
1867.03,0.01743
1861.24,0.01714
1855.45,0.01727
1849.67,0.01699
1843.88,0.01681
1838.09,0.01717
1832.31,0.01727
1826.52,0.01711
1820.74,0.01677
1814.95,0.01672
1809.16,0.01693
1803.38,0.01661
1797.59,0.01632
1791.8,0.01594
1786.02,0.01599
1780.23,0.01577
1774.45,0.01553
1768.66,0.01541
1762.87,0.01509
1757.09,0.01439
1751.3,0.01447
1745.51,0.01458
1739.73,0.01570
1733.94,0.01686
1728.16,0.01722
1722.37,0.01805
1716.58,0.01832
1710.8,0.01767
1705.01,0.01733
1699.22,0.01696
1693.44,0.01632
1687.65,0.01619
1681.87,0.01546
1676.08,0.01602
1670.29,0.01537
1664.51,0.01553
1658.72,0.01515
1652.93,0.01573
1647.15,0.01544
1641.36,0.01546
1635.58,0.01516
1629.79,0.01573
1624,0.01548
1618.22,0.01596
1612.43,0.01577
1606.64,0.01563
1600.86,0.01551
1595.07,0.01596
1589.29,0.01590
1583.5,0.01535
1577.71,0.01514
1571.93,0.01508
1566.14,0.01501
1560.35,0.01513
1554.57,0.01494
1548.78,0.01495
1543,0.01545
1537.21,0.01516
1531.42,0.01550
1525.64,0.01583
1519.85,0.01552
1514.07,0.01546
1508.28,0.01567
1502.49,0.01543
1496.71,0.01532
1490.92,0.01582
1485.13,0.01554
1479.35,0.01584
1473.56,0.01508
1467.78,0.01527
1461.99,0.01527
1456.2,0.01533
1450.42,0.01524
1444.63,0.01544
1438.84,0.01590
1433.06,0.01575
1427.27,0.01537
1421.49,0.01552
1415.7,0.01516
1409.91,0.01552
1404.13,0.01507
1398.34,0.01500
1392.55,0.01487
1386.77,0.01501
1380.98,0.01481
1375.2,0.01536
1369.41,0.01520
1363.62,0.01524
1357.84,0.01523
1352.05,0.01506
1346.26,0.01472
1340.48,0.01486
1334.69,0.01478
1328.91,0.01444
1323.12,0.01389
1317.33,0.01383
1311.55,0.01426
1305.76,0.01401
1299.97,0.01453
1294.19,0.01484
1288.4,0.01535
1282.62,0.01554
1276.83,0.01604
1271.04,0.01633
1265.26,0.01658
1259.47,0.01682
1253.68,0.01710
1247.9,0.01686
1242.11,0.01659
1236.33,0.01612
1230.54,0.01625
1224.75,0.01597
1218.97,0.01617
1213.18,0.01643
1207.39,0.01566
1201.61,0.01519
1195.82,0.01540
1190.04,0.01586
1184.25,0.01486
1178.46,0.01536
1172.68,0.01435
1166.89,0.01477
1161.1,0.01501
1155.32,0.01460
1149.53,0.01459
1143.75,0.01427
1137.96,0.01494
1132.17,0.01529
1126.39,0.01534
1120.6,0.01546
1114.81,0.01507
1109.03,0.01586
1103.24,0.01537
1097.46,0.01455
1091.67,0.01557
1085.88,0.01562
1080.1,0.01496
1074.31,0.01612
1068.52,0.01713
1062.74,0.01704
1056.95,0.01652
1051.17,0.01603
1045.38,0.01615
1039.59,0.01558
1033.81,0.01618
1028.02,0.01640
1022.24,0.01601
1016.45,0.01643
1010.66,0.01698
1004.88,0.01807
999.09,0.01796
993.304,0.01795
987.518,0.01847
981.731,0.01767
975.945,0.01773
970.159,0.01793
964.373,0.01757
958.586,0.01733
952.8,0.01727
947.014,0.01686
941.228,0.01654
935.441,0.01663
929.655,0.01667
923.869,0.01671
918.083,0.01653
912.297,0.01641
906.51,0.01626
900.724,0.01659
894.938,0.01526
889.152,0.01690
883.365,0.01588
877.579,0.01568
871.793,0.01632
866.007,0.01620
860.22,0.01527
854.434,0.01475
848.648,0.01551
842.862,0.01587
837.075,0.01604
831.289,0.01620
825.503,0.01603
819.717,0.01654
813.931,0.01555
808.144,0.01646
802.358,0.01539
796.572,0.01681
790.786,0.01553
784.999,0.01550
779.213,0.01626
773.427,0.01570
767.641,0.01557
761.854,0.01534
756.068,0.01521
750.282,0.01463
744.496,0.01472
738.709,0.01544
732.923,0.01533
727.137,0.01502
721.351,0.01397
715.565,0.01489
709.778,0.01408
703.992,0.01465
698.206,0.01470
692.42,0.01426
686.633,0.01465
680.847,0.01531
675.061,0.01399
669.275,0.01360
663.488,0.01332
657.702,0.01377
651.916,0.01410
646.13,0.01232
640.343,0.01238
634.557,0.01260
628.771,0.01128
622.985,0.01298
617.198,0.01501
611.412,0.01387
605.626,0.01341
599.84,0.01262