File: 01_Data/Cinder_Block/FTIR/IS/Cinder_Block_IS_S_221214_R2.dpt
7497.03,0.19621
7491.25,0.18898
7485.46,0.19450
7479.67,0.19072
7473.89,0.17801
7468.1,0.19467
7462.32,0.19312
7456.53,0.19145
7450.74,0.19429
7444.96,0.18725
7439.17,0.19410
7433.38,0.20312
7427.6,0.20035
7421.81,0.19711
7416.03,0.19774
7410.24,0.18594
7404.45,0.20337
7398.67,0.19506
7392.88,0.19828
7387.09,0.19960
7381.31,0.19887
7375.52,0.19270
7369.74,0.19828
7363.95,0.19218
7358.16,0.18913
7352.38,0.18390
7346.59,0.19180
7340.8,0.19686
7335.02,0.19248
7329.23,0.19091
7323.45,0.19641
7317.66,0.19406
7311.87,0.19153
7306.09,0.19710
7300.3,0.19717
7294.51,0.19593
7288.73,0.18808
7282.94,0.19048
7277.16,0.19415
7271.37,0.19490
7265.58,0.20092
7259.8,0.19569
7254.01,0.19286
7248.22,0.18951
7242.44,0.19324
7236.65,0.19498
7230.87,0.19361
7225.08,0.19475
7219.29,0.19258
7213.51,0.20028
7207.72,0.19589
7201.93,0.19501
7196.15,0.19272
7190.36,0.18916
7184.58,0.18655
7178.79,0.19867
7173,0.19267
7167.22,0.18931
7161.43,0.18888
7155.65,0.19015
7149.86,0.18797
7144.07,0.19173
7138.29,0.19345
7132.5,0.19330
7126.71,0.18947
7120.93,0.19254
7115.14,0.19468
7109.36,0.19253
7103.57,0.18806
7097.78,0.19075
7092,0.18910
7086.21,0.18899
7080.42,0.19212
7074.64,0.19278
7068.85,0.19418
7063.07,0.19441
7057.28,0.19421
7051.49,0.19582
7045.71,0.19343
7039.92,0.19692
7034.13,0.19268
7028.35,0.19357
7022.56,0.19229
7016.78,0.19609
7010.99,0.18842
7005.2,0.19380
6999.42,0.19185
6993.63,0.18884
6987.84,0.19368
6982.06,0.19474
6976.27,0.19613
6970.49,0.19637
6964.7,0.19563
6958.91,0.19410
6953.13,0.19390
6947.34,0.18926
6941.55,0.19352
6935.77,0.18994
6929.98,0.19468
6924.2,0.19249
6918.41,0.19824
6912.62,0.19253
6906.84,0.19433
6901.05,0.19447
6895.26,0.18575
6889.48,0.19533
6883.69,0.19579
6877.91,0.19061
6872.12,0.18984
6866.33,0.19386
6860.55,0.18956
6854.76,0.19345
6848.97,0.19878
6843.19,0.19784
6837.4,0.19678
6831.62,0.19921
6825.83,0.19240
6820.04,0.19662
6814.26,0.19862
6808.47,0.19662
6802.68,0.19941
6796.9,0.19647
6791.11,0.19333
6785.33,0.19662
6779.54,0.19697
6773.75,0.19995
6767.97,0.19247
6762.18,0.19227
6756.39,0.19956
6750.61,0.19263
6744.82,0.19209
6739.04,0.19439
6733.25,0.20105
6727.46,0.19192
6721.68,0.19279
6715.89,0.19398
6710.1,0.18994
6704.32,0.18730
6698.53,0.19873
6692.75,0.19677
6686.96,0.19248
6681.17,0.20007
6675.39,0.19215
6669.6,0.19445
6663.82,0.19246
6658.03,0.19254
6652.24,0.19632
6646.46,0.19181
6640.67,0.19440
6634.88,0.18744
6629.1,0.18841
6623.31,0.19317
6617.53,0.19448
6611.74,0.19091
6605.95,0.19191
6600.17,0.19447
6594.38,0.19421
6588.59,0.19387
6582.81,0.19740
6577.02,0.19932
6571.24,0.19627
6565.45,0.19698
6559.66,0.19287
6553.88,0.19379
6548.09,0.19534
6542.3,0.20013
6536.52,0.19573
6530.73,0.19536
6524.95,0.19349
6519.16,0.19534
6513.37,0.19492
6507.59,0.19426
6501.8,0.19519
6496.01,0.19609
6490.23,0.19566
6484.44,0.19496
6478.66,0.19360
6472.87,0.19711
6467.08,0.19358
6461.3,0.19584
6455.51,0.19653
6449.72,0.19307
6443.94,0.19396
6438.15,0.19475
6432.37,0.19494
6426.58,0.19514
6420.79,0.19410
6415.01,0.19539
6409.22,0.19503
6403.43,0.19721
6397.65,0.19543
6391.86,0.19813
6386.08,0.19350
6380.29,0.19797
6374.5,0.19840
6368.72,0.19335
6362.93,0.19776
6357.14,0.19569
6351.36,0.19524
6345.57,0.19756
6339.79,0.19593
6334,0.19677
6328.21,0.19402
6322.43,0.19806
6316.64,0.19806
6310.85,0.19663
6305.07,0.19457
6299.28,0.19310
6293.5,0.19534
6287.71,0.19675
6281.92,0.19834
6276.14,0.19653
6270.35,0.19620
6264.56,0.19472
6258.78,0.19394
6252.99,0.19584
6247.21,0.19582
6241.42,0.19441
6235.63,0.19746
6229.85,0.19699
6224.06,0.19546
6218.27,0.19750
6212.49,0.19404
6206.7,0.19620
6200.92,0.19725
6195.13,0.19432
6189.34,0.19502
6183.56,0.19664
6177.77,0.19668
6171.98,0.19810
6166.2,0.19425
6160.41,0.19620
6154.63,0.19626
6148.84,0.19649
6143.05,0.19710
6137.27,0.19824
6131.48,0.19667
6125.7,0.19544
6119.91,0.19548
6114.12,0.19674
6108.34,0.19465
6102.55,0.19513
6096.76,0.19637
6090.98,0.19604
6085.19,0.19617
6079.41,0.19634
6073.62,0.19936
6067.83,0.19550
6062.05,0.19594
6056.26,0.19733
6050.47,0.19460
6044.69,0.19417
6038.9,0.19716
6033.12,0.19932
6027.33,0.19398
6021.54,0.19795
6015.76,0.19587
6009.97,0.19975
6004.18,0.19642
5998.4,0.19574
5992.61,0.19651
5986.83,0.19582
5981.04,0.19667
5975.25,0.19735
5969.47,0.19575
5963.68,0.19576
5957.89,0.19645
5952.11,0.19734
5946.32,0.19601
5940.54,0.19682
5934.75,0.19530
5928.96,0.19665
5923.18,0.19897
5917.39,0.19671
5911.6,0.19628
5905.82,0.19574
5900.03,0.19638
5894.25,0.19744
5888.46,0.19668
5882.67,0.19929
5876.89,0.19644
5871.1,0.19730
5865.31,0.19935
5859.53,0.19699
5853.74,0.19623
5847.96,0.19828
5842.17,0.19834
5836.38,0.19915
5830.6,0.19903
5824.81,0.19597
5819.02,0.19908
5813.24,0.19750
5807.45,0.19784
5801.67,0.19682
5795.88,0.19977
5790.09,0.19609
5784.31,0.19671
5778.52,0.19849
5772.73,0.19645
5766.95,0.19824
5761.16,0.19731
5755.38,0.19948
5749.59,0.19740
5743.8,0.19907
5738.02,0.19991
5732.23,0.19987
5726.44,0.19750
5720.66,0.19892
5714.87,0.19667
5709.09,0.19827
5703.3,0.19555
5697.51,0.19623
5691.73,0.19611
5685.94,0.19807
5680.15,0.19447
5674.37,0.19895
5668.58,0.19753
5662.8,0.19894
5657.01,0.19722
5651.22,0.19788
5645.44,0.19622
5639.65,0.19688
5633.87,0.19779
5628.08,0.19727
5622.29,0.19870
5616.51,0.20029
5610.72,0.19751
5604.93,0.19742
5599.15,0.19774
5593.36,0.19749
5587.58,0.19885
5581.79,0.19952
5576,0.19786
5570.22,0.19810
5564.43,0.19701
5558.64,0.20059
5552.86,0.19786
5547.07,0.19792
5541.29,0.19600
5535.5,0.19778
5529.71,0.19842
5523.93,0.19804
5518.14,0.19922
5512.35,0.19863
5506.57,0.19867
5500.78,0.19839
5495,0.19602
5489.21,0.19723
5483.42,0.19697
5477.64,0.19731
5471.85,0.19948
5466.06,0.19774
5460.28,0.19917
5454.49,0.19779
5448.71,0.19636
5442.92,0.19826
5437.13,0.19776
5431.35,0.19660
5425.56,0.19746
5419.77,0.19882
5413.99,0.19845
5408.2,0.19774
5402.42,0.19592
5396.63,0.19887
5390.84,0.19776
5385.06,0.19764
5379.27,0.19999
5373.48,0.19771
5367.7,0.19657
5361.91,0.19757
5356.13,0.19473
5350.34,0.19710
5344.55,0.19872
5338.77,0.19750
5332.98,0.19738
5327.19,0.19685
5321.41,0.19773
5315.62,0.19758
5309.84,0.19593
5304.05,0.19610
5298.26,0.19521
5292.48,0.19387
5286.69,0.19362
5280.9,0.19407
5275.12,0.19387
5269.33,0.19158
5263.55,0.19055
5257.76,0.19116
5251.97,0.18937
5246.19,0.19048
5240.4,0.18939
5234.61,0.18907
5228.83,0.18724
5223.04,0.18788
5217.26,0.18791
5211.47,0.18798
5205.68,0.18630
5199.9,0.18830
5194.11,0.18729
5188.32,0.18733
5182.54,0.18512
5176.75,0.18664
5170.97,0.18663
5165.18,0.18696
5159.39,0.18590
5153.61,0.18686
5147.82,0.18751
5142.03,0.18668
5136.25,0.18750
5130.46,0.18635
5124.68,0.18773
5118.89,0.18705
5113.1,0.18791
5107.32,0.18864
5101.53,0.18918
5095.75,0.19003
5089.96,0.18859
5084.17,0.19003
5078.39,0.18816
5072.6,0.18994
5066.81,0.18860
5061.03,0.19108
5055.24,0.18881
5049.46,0.18984
5043.67,0.19027
5037.88,0.19036
5032.1,0.19085
5026.31,0.19195
5020.52,0.19022
5014.74,0.19070
5008.95,0.19071
5003.17,0.19166
4997.38,0.19072
4991.59,0.19105
4985.81,0.19175
4980.02,0.19121
4974.23,0.19042
4968.45,0.19106
4962.66,0.19122
4956.88,0.19154
4951.09,0.19202
4945.3,0.19213
4939.52,0.19203
4933.73,0.19254
4927.94,0.19290
4922.16,0.19269
4916.37,0.19279
4910.59,0.19370
4904.8,0.19289
4899.01,0.19293
4893.23,0.19352
4887.44,0.19284
4881.65,0.19312
4875.87,0.19312
4870.08,0.19266
4864.3,0.19283
4858.51,0.19313
4852.72,0.19273
4846.94,0.19307
4841.15,0.19330
4835.36,0.19325
4829.58,0.19353
4823.79,0.19372
4818.01,0.19414
4812.22,0.19346
4806.43,0.19347
4800.65,0.19403
4794.86,0.19274
4789.07,0.19292
4783.29,0.19395
4777.5,0.19484
4771.72,0.19426
4765.93,0.19392
4760.14,0.19424
4754.36,0.19349
4748.57,0.19347
4742.78,0.19401
4737,0.19464
4731.21,0.19360
4725.43,0.19420
4719.64,0.19436
4713.85,0.19433
4708.07,0.19385
4702.28,0.19414
4696.49,0.19354
4690.71,0.19262
4684.92,0.19465
4679.14,0.19449
4673.35,0.19483
4667.56,0.19384
4661.78,0.19507
4655.99,0.19415
4650.2,0.19382
4644.42,0.19409
4638.63,0.19438
4632.85,0.19409
4627.06,0.19353
4621.27,0.19362
4615.49,0.19305
4609.7,0.19438
4603.92,0.19326
4598.13,0.19364
4592.34,0.19341
4586.56,0.19394
4580.77,0.19392
4574.98,0.19425
4569.2,0.19319
4563.41,0.19324
4557.63,0.19302
4551.84,0.19307
4546.05,0.19271
4540.27,0.19199
4534.48,0.19225
4528.69,0.19253
4522.91,0.19231
4517.12,0.19207
4511.34,0.19194
4505.55,0.19144
4499.76,0.19126
4493.98,0.19119
4488.19,0.19104
4482.4,0.19154
4476.62,0.19158
4470.83,0.19100
4465.05,0.19082
4459.26,0.19147
4453.47,0.19179
4447.69,0.19160
4441.9,0.19149
4436.11,0.19203
4430.33,0.19150
4424.54,0.19105
4418.76,0.19057
4412.97,0.19020
4407.18,0.19001
4401.4,0.18959
4395.61,0.18958
4389.82,0.19026
4384.04,0.19031
4378.25,0.19085
4372.47,0.18980
4366.68,0.18980
4360.89,0.18872
4355.11,0.18809
4349.32,0.18902
4343.53,0.18857
4337.75,0.18823
4331.96,0.18701
4326.18,0.18742
4320.39,0.18727
4314.6,0.18700
4308.82,0.18689
4303.03,0.18554
4297.24,0.18586
4291.46,0.18578
4285.67,0.18490
4279.89,0.18341
4274.1,0.18450
4268.31,0.18377
4262.53,0.18419
4256.74,0.18466
4250.95,0.18466
4245.17,0.18555
4239.38,0.18558
4233.6,0.18642
4227.81,0.18622
4222.02,0.18730
4216.24,0.18700
4210.45,0.18770
4204.66,0.18740
4198.88,0.18667
4193.09,0.18719
4187.31,0.18679
4181.52,0.18562
4175.73,0.18613
4169.95,0.18568
4164.16,0.18585
4158.37,0.18517
4152.59,0.18519
4146.8,0.18521
4141.02,0.18426
4135.23,0.18373
4129.44,0.18275
4123.66,0.18332
4117.87,0.18247
4112.09,0.18188
4106.3,0.18148
4100.51,0.18148
4094.73,0.18042
4088.94,0.18013
4083.15,0.17972
4077.37,0.17997
4071.58,0.17920
4065.8,0.17843
4060.01,0.17783
4054.22,0.17710
4048.44,0.17685
4042.65,0.17566
4036.86,0.17426
4031.08,0.17390
4025.29,0.17378
4019.51,0.17377
4013.72,0.17280
4007.93,0.17252
4002.15,0.17177
3996.36,0.17228
3990.57,0.17241
3984.79,0.17151
3979,0.17096
3973.22,0.17062
3967.43,0.16948
3961.64,0.16910
3955.86,0.16838
3950.07,0.16757
3944.28,0.16769
3938.5,0.16670
3932.71,0.16848
3926.93,0.17046
3921.14,0.17143
3915.35,0.17266
3909.57,0.17342
3903.78,0.17400
3897.99,0.17488
3892.21,0.17530
3886.42,0.17553
3880.64,0.17576
3874.85,0.17593
3869.06,0.17571
3863.28,0.17607
3857.49,0.17540
3851.7,0.17466
3845.92,0.17577
3840.13,0.17576
3834.35,0.17501
3828.56,0.17528
3822.77,0.17519
3816.99,0.17442
3811.2,0.17361
3805.41,0.17361
3799.63,0.17365
3793.84,0.17265
3788.06,0.17198
3782.27,0.17152
3776.48,0.17048
3770.7,0.16976
3764.91,0.16923
3759.12,0.16810
3753.34,0.16637
3747.55,0.16451
3741.77,0.16207
3735.98,0.16002
3730.19,0.15664
3724.41,0.15231
3718.62,0.14693
3712.83,0.14158
3707.05,0.13570
3701.26,0.13155
3695.48,0.12568
3689.69,0.12033
3683.9,0.11437
3678.12,0.10853
3672.33,0.10200
3666.54,0.09600
3660.76,0.09030
3654.97,0.08447
3649.19,0.07980
3643.4,0.07542
3637.61,0.07171
3631.83,0.06804
3626.04,0.06513
3620.25,0.06292
3614.47,0.06170
3608.68,0.06051
3602.9,0.05885
3597.11,0.05885
3591.32,0.05835
3585.54,0.05781
3579.75,0.05825
3573.97,0.05774
3568.18,0.05632
3562.39,0.05534
3556.61,0.05415
3550.82,0.05453
3545.03,0.05390
3539.25,0.05432
3533.46,0.05317
3527.68,0.05319
3521.89,0.05320
3516.1,0.05195
3510.32,0.05187
3504.53,0.05182
3498.74,0.05112
3492.96,0.05100
3487.17,0.05068
3481.39,0.05006
3475.6,0.04967
3469.81,0.05014
3464.03,0.05003
3458.24,0.04964
3452.45,0.04955
3446.67,0.04917
3440.88,0.04914
3435.1,0.04882
3429.31,0.04871
3423.52,0.04803
3417.74,0.04873
3411.95,0.04874
3406.16,0.04858
3400.38,0.04780
3394.59,0.04765
3388.81,0.04824
3383.02,0.04846
3377.23,0.04885
3371.45,0.04835
3365.66,0.04906
3359.87,0.04855
3354.09,0.04903
3348.3,0.04904
3342.52,0.04944
3336.73,0.04970
3330.94,0.04903
3325.16,0.04939
3319.37,0.04918
3313.58,0.05048
3307.8,0.05010
3302.01,0.05000
3296.23,0.05044
3290.44,0.05089
3284.65,0.05058
3278.87,0.05097
3273.08,0.05123
3267.29,0.05228
3261.51,0.05192
3255.72,0.05208
3249.94,0.05238
3244.15,0.05303
3238.36,0.05342
3232.58,0.05344
3226.79,0.05404
3221,0.05451
3215.22,0.05568
3209.43,0.05546
3203.65,0.05632
3197.86,0.05642
3192.07,0.05631
3186.29,0.05693
3180.5,0.05767
3174.71,0.05841
3168.93,0.05841
3163.14,0.05892
3157.36,0.05989
3151.57,0.06071
3145.78,0.06148
3140,0.06118
3134.21,0.06163
3128.42,0.06195
3122.64,0.06251
3116.85,0.06307
3111.07,0.06312
3105.28,0.06386
3099.49,0.06408
3093.71,0.06488
3087.92,0.06484
3082.14,0.06507
3076.35,0.06542
3070.56,0.06589
3064.78,0.06610
3058.99,0.06602
3053.2,0.06623
3047.42,0.06672
3041.63,0.06747
3035.85,0.06702
3030.06,0.06690
3024.27,0.06686
3018.49,0.06625
3012.7,0.06620
3006.91,0.06602
3001.13,0.06479
2995.34,0.06320
2989.56,0.06038
2983.77,0.05869
2977.98,0.05823
2972.2,0.05879
2966.41,0.05942
2960.62,0.05928
2954.84,0.05936
2949.05,0.05983
2943.27,0.05973
2937.48,0.05997
2931.69,0.05974
2925.91,0.05929
2920.12,0.05937
2914.33,0.06043
2908.55,0.06075
2902.76,0.06158
2896.98,0.06127
2891.19,0.06002
2885.4,0.05875
2879.62,0.05715
2873.83,0.05655
2868.04,0.05832
2862.26,0.05934
2856.47,0.06070
2850.69,0.06302
2844.9,0.06594
2839.11,0.07020
2833.33,0.07404
2827.54,0.07716
2821.75,0.07926
2815.97,0.08154
2810.18,0.08289
2804.4,0.08374
2798.61,0.08439
2792.82,0.08633
2787.04,0.08739
2781.25,0.08897
2775.46,0.08961
2769.68,0.09095
2763.89,0.09122
2758.11,0.09174
2752.32,0.09263
2746.53,0.09295
2740.75,0.09370
2734.96,0.09442
2729.17,0.09526
2723.39,0.09566
2717.6,0.09592
2711.82,0.09604
2706.03,0.09652
2700.24,0.09677
2694.46,0.09729
2688.67,0.09773
2682.88,0.09734
2677.1,0.09754
2671.31,0.09770
2665.53,0.09732
2659.74,0.09635
2653.95,0.09585
2648.17,0.09507
2642.38,0.09337
2636.59,0.09037
2630.81,0.08640
2625.02,0.08313
2619.24,0.08017
2613.45,0.07836
2607.66,0.07537
2601.88,0.07381
2596.09,0.07262
2590.3,0.07238
2584.52,0.07125
2578.73,0.07103
2572.95,0.07047
2567.16,0.06974
2561.37,0.06928
2555.59,0.06817
2549.8,0.06699
2544.02,0.06518
2538.23,0.06238
2532.44,0.05786
2526.66,0.05413
2520.87,0.05212
2515.08,0.05155
2509.3,0.05245
2503.51,0.05582
2497.73,0.06087
2491.94,0.06695
2486.15,0.07244
2480.37,0.07744
2474.58,0.08267
2468.79,0.08766
2463.01,0.09162
2457.22,0.09459
2451.44,0.09634
2445.65,0.09813
2439.86,0.09934
2434.08,0.10040
2428.29,0.10159
2422.5,0.10224
2416.72,0.10303
2410.93,0.10383
2405.15,0.10417
2399.36,0.10395
2393.57,0.10436
2387.79,0.10460
2382,0.10433
2376.21,0.10432
2370.43,0.10387
2364.64,0.10373
2358.86,0.10408
2353.07,0.10309
2347.28,0.10296
2341.5,0.10260
2335.71,0.10251
2329.92,0.10177
2324.14,0.10147
2318.35,0.10094
2312.57,0.10033
2306.78,0.10010
2300.99,0.09984
2295.21,0.10014
2289.42,0.09965
2283.63,0.09926
2277.85,0.09925
2272.06,0.09827
2266.28,0.09759
2260.49,0.09697
2254.7,0.09617
2248.92,0.09586
2243.13,0.09493
2237.34,0.09439
2231.56,0.09366
2225.77,0.09326
2219.99,0.09235
2214.2,0.09210
2208.41,0.09177
2202.63,0.09184
2196.84,0.09181
2191.05,0.09131
2185.27,0.09107
2179.48,0.09043
2173.7,0.08979
2167.91,0.08882
2162.12,0.08758
2156.34,0.08615
2150.55,0.08431
2144.76,0.08301
2138.98,0.08283
2133.19,0.08343
2127.41,0.08449
2121.62,0.08704
2115.83,0.08820
2110.05,0.08910
2104.26,0.08977
2098.47,0.08998
2092.69,0.09020
2086.9,0.09023
2081.12,0.08971
2075.33,0.08943
2069.54,0.08936
2063.76,0.08916
2057.97,0.08841
2052.19,0.08819
2046.4,0.08720
2040.61,0.08677
2034.83,0.08598
2029.04,0.08514
2023.25,0.08456
2017.47,0.08365
2011.68,0.08288
2005.9,0.08208
2000.11,0.08169
1994.32,0.08130
1988.54,0.08105
1982.75,0.08053
1976.96,0.07972
1971.18,0.07942
1965.39,0.07832
1959.61,0.07715
1953.82,0.07816
1948.03,0.07809
1942.25,0.07781
1936.46,0.07750
1930.67,0.07685
1924.89,0.07627
1919.1,0.07574
1913.32,0.07438
1907.53,0.07303
1901.74,0.07166
1895.96,0.07059
1890.17,0.06954
1884.38,0.06850
1878.6,0.06723
1872.81,0.06640
1867.03,0.06530
1861.24,0.06534
1855.45,0.06507
1849.67,0.06444
1843.88,0.06369
1838.09,0.06174
1832.31,0.05975
1826.52,0.05702
1820.74,0.05369
1814.95,0.05102
1809.16,0.04665
1803.38,0.03933
1797.59,0.03426
1791.8,0.03555
1786.02,0.04110
1780.23,0.04517
1774.45,0.04725
1768.66,0.04773
1762.87,0.04724
1757.09,0.04615
1751.3,0.04511
1745.51,0.04433
1739.73,0.04271
1733.94,0.04244
1728.16,0.04204
1722.37,0.04200
1716.58,0.04188
1710.8,0.04096
1705.01,0.03973
1699.22,0.03866
1693.44,0.03669
1687.65,0.03526
1681.87,0.03453
1676.08,0.03446
1670.29,0.03384
1664.51,0.03327
1658.72,0.03290
1652.93,0.03263
1647.15,0.03298
1641.36,0.03305
1635.58,0.03324
1629.79,0.03396
1624,0.03429
1618.22,0.03567
1612.43,0.03742
1606.64,0.03893
1600.86,0.04060
1595.07,0.04203
1589.29,0.04343
1583.5,0.04674
1577.71,0.05200
1571.93,0.05851
1566.14,0.06387
1560.35,0.06965
1554.57,0.07638
1548.78,0.08129
1543,0.08529
1537.21,0.08869
1531.42,0.09057
1525.64,0.09161
1519.85,0.09158
1514.07,0.09166
1508.28,0.09109
1502.49,0.09048
1496.71,0.09034
1490.92,0.09034
1485.13,0.09011
1479.35,0.08980
1473.56,0.08935
1467.78,0.08888
1461.99,0.08855
1456.2,0.08861
1450.42,0.08850
1444.63,0.08857
1438.84,0.08886
1433.06,0.09031
1427.27,0.09255
1421.49,0.09558
1415.7,0.10017
1409.91,0.10335
1404.13,0.09975
1398.34,0.09455
1392.55,0.09072
1386.77,0.08749
1380.98,0.08432
1375.2,0.08284
1369.41,0.08246
1363.62,0.08276
1357.84,0.08397
1352.05,0.08436
1346.26,0.08485
1340.48,0.08500
1334.69,0.08461
1328.91,0.08412
1323.12,0.08310
1317.33,0.08276
1311.55,0.08382
1305.76,0.08531
1299.97,0.08686
1294.19,0.08701
1288.4,0.08646
1282.62,0.08565
1276.83,0.08585
1271.04,0.08520
1265.26,0.08440
1259.47,0.08457
1253.68,0.08424
1247.9,0.08264
1242.11,0.08134
1236.33,0.08000
1230.54,0.07914
1224.75,0.07812
1218.97,0.07677
1213.18,0.07469
1207.39,0.07213
1201.61,0.06912
1195.82,0.06683
1190.04,0.06489
1184.25,0.06324
1178.46,0.06169
1172.68,0.06116
1166.89,0.05975
1161.1,0.05946
1155.32,0.06032
1149.53,0.06104
1143.75,0.06108
1137.96,0.06106
1132.17,0.06070
1126.39,0.05936
1120.6,0.05877
1114.81,0.05748
1109.03,0.05528
1103.24,0.05442
1097.46,0.05330
1091.67,0.05133
1085.88,0.05080
1080.1,0.05072
1074.31,0.05107
1068.52,0.05033
1062.74,0.04867
1056.95,0.04776
1051.17,0.04760
1045.38,0.04765
1039.59,0.04755
1033.81,0.04703
1028.02,0.04684
1022.24,0.04614
1016.45,0.04629
1010.66,0.04609
1004.88,0.04594
999.09,0.04624
993.304,0.04564
987.518,0.04603
981.731,0.04585
975.945,0.04575
970.159,0.04543
964.373,0.04582
958.586,0.04622
952.8,0.04626
947.014,0.04673
941.228,0.04572
935.441,0.04601
929.655,0.04625
923.869,0.04626
918.083,0.04553
912.297,0.04537
906.51,0.04574
900.724,0.04661
894.938,0.04803
889.152,0.05063
883.365,0.04443
877.579,0.05200
871.793,0.06348
866.007,0.05871
860.22,0.05228
854.434,0.04918
848.648,0.04617
842.862,0.04722
837.075,0.04665
831.289,0.04516
825.503,0.04419
819.717,0.04399
813.931,0.04374
808.144,0.04416
802.358,0.04342
796.572,0.04266
790.786,0.04247
784.999,0.04289
779.213,0.04179
773.427,0.04101
767.641,0.04149
761.854,0.04142
756.068,0.04019
750.282,0.03983
744.496,0.04001
738.709,0.03902
732.923,0.03756
727.137,0.03684
721.351,0.03430
715.565,0.03352
709.778,0.04006
703.992,0.03970
698.206,0.03905
692.42,0.03930
686.633,0.03854
680.847,0.03832
675.061,0.03824
669.275,0.03916
663.488,0.03769
657.702,0.03531
651.916,0.03512
646.13,0.03488
640.343,0.03424
634.557,0.03362
628.771,0.03373
622.985,0.03390
617.198,0.03420
611.412,0.03246
605.626,0.03232
599.84,0.03563