File: 01_Data/Cinder_Block/FTIR/IS/Cinder_Block_IS_S_221214_R6.dpt
7497.03,0.19830
7491.25,0.20132
7485.46,0.18640
7479.67,0.19543
7473.89,0.19496
7468.1,0.18759
7462.32,0.19567
7456.53,0.18804
7450.74,0.19123
7444.96,0.19721
7439.17,0.19508
7433.38,0.19013
7427.6,0.19154
7421.81,0.19203
7416.03,0.19335
7410.24,0.18728
7404.45,0.18767
7398.67,0.19112
7392.88,0.19985
7387.09,0.19151
7381.31,0.18653
7375.52,0.19554
7369.74,0.18995
7363.95,0.19998
7358.16,0.19656
7352.38,0.19547
7346.59,0.19682
7340.8,0.20009
7335.02,0.19496
7329.23,0.19392
7323.45,0.19886
7317.66,0.19661
7311.87,0.20003
7306.09,0.18689
7300.3,0.19235
7294.51,0.19167
7288.73,0.19721
7282.94,0.20371
7277.16,0.20112
7271.37,0.20066
7265.58,0.19525
7259.8,0.19284
7254.01,0.18226
7248.22,0.19532
7242.44,0.19396
7236.65,0.19599
7230.87,0.19263
7225.08,0.19469
7219.29,0.19301
7213.51,0.19033
7207.72,0.19481
7201.93,0.19338
7196.15,0.18715
7190.36,0.19526
7184.58,0.19872
7178.79,0.19647
7173,0.19739
7167.22,0.20211
7161.43,0.19657
7155.65,0.19028
7149.86,0.19399
7144.07,0.19001
7138.29,0.19104
7132.5,0.19413
7126.71,0.20044
7120.93,0.20274
7115.14,0.19329
7109.36,0.19568
7103.57,0.19084
7097.78,0.20105
7092,0.19647
7086.21,0.19199
7080.42,0.18874
7074.64,0.19576
7068.85,0.19164
7063.07,0.19702
7057.28,0.19519
7051.49,0.19638
7045.71,0.19313
7039.92,0.19293
7034.13,0.19483
7028.35,0.19400
7022.56,0.19444
7016.78,0.18896
7010.99,0.19710
7005.2,0.19399
6999.42,0.19099
6993.63,0.19528
6987.84,0.19269
6982.06,0.19752
6976.27,0.19080
6970.49,0.19249
6964.7,0.19270
6958.91,0.20116
6953.13,0.19517
6947.34,0.19708
6941.55,0.19138
6935.77,0.19220
6929.98,0.19494
6924.2,0.19754
6918.41,0.19513
6912.62,0.19979
6906.84,0.19523
6901.05,0.18862
6895.26,0.19456
6889.48,0.19488
6883.69,0.19419
6877.91,0.19154
6872.12,0.19862
6866.33,0.19104
6860.55,0.18593
6854.76,0.18872
6848.97,0.19824
6843.19,0.19596
6837.4,0.19704
6831.62,0.19577
6825.83,0.19143
6820.04,0.19472
6814.26,0.19602
6808.47,0.19551
6802.68,0.19495
6796.9,0.19190
6791.11,0.18903
6785.33,0.19620
6779.54,0.19917
6773.75,0.19611
6767.97,0.19633
6762.18,0.19933
6756.39,0.19640
6750.61,0.19806
6744.82,0.19732
6739.04,0.19187
6733.25,0.19485
6727.46,0.19305
6721.68,0.19284
6715.89,0.19669
6710.1,0.19285
6704.32,0.19355
6698.53,0.19607
6692.75,0.19516
6686.96,0.19656
6681.17,0.19360
6675.39,0.19575
6669.6,0.19519
6663.82,0.19528
6658.03,0.19714
6652.24,0.19330
6646.46,0.19442
6640.67,0.19331
6634.88,0.19753
6629.1,0.18855
6623.31,0.20187
6617.53,0.19570
6611.74,0.19286
6605.95,0.19775
6600.17,0.19824
6594.38,0.19569
6588.59,0.19876
6582.81,0.19748
6577.02,0.19529
6571.24,0.19626
6565.45,0.19430
6559.66,0.19297
6553.88,0.19437
6548.09,0.19989
6542.3,0.19586
6536.52,0.19511
6530.73,0.19447
6524.95,0.19461
6519.16,0.19564
6513.37,0.19366
6507.59,0.19375
6501.8,0.19161
6496.01,0.19555
6490.23,0.19600
6484.44,0.19740
6478.66,0.19528
6472.87,0.19890
6467.08,0.19582
6461.3,0.19633
6455.51,0.19285
6449.72,0.19256
6443.94,0.19478
6438.15,0.19390
6432.37,0.19849
6426.58,0.19750
6420.79,0.19700
6415.01,0.19616
6409.22,0.19808
6403.43,0.19818
6397.65,0.19403
6391.86,0.19626
6386.08,0.19848
6380.29,0.19961
6374.5,0.19591
6368.72,0.19511
6362.93,0.19665
6357.14,0.19787
6351.36,0.19703
6345.57,0.20025
6339.79,0.19804
6334,0.19737
6328.21,0.19720
6322.43,0.19554
6316.64,0.19127
6310.85,0.19159
6305.07,0.19972
6299.28,0.19819
6293.5,0.19647
6287.71,0.19595
6281.92,0.19936
6276.14,0.19696
6270.35,0.19706
6264.56,0.19401
6258.78,0.20443
6252.99,0.19471
6247.21,0.19815
6241.42,0.19729
6235.63,0.19778
6229.85,0.19517
6224.06,0.19767
6218.27,0.20006
6212.49,0.19504
6206.7,0.19576
6200.92,0.20037
6195.13,0.19776
6189.34,0.19580
6183.56,0.19858
6177.77,0.19911
6171.98,0.19938
6166.2,0.19674
6160.41,0.19523
6154.63,0.19471
6148.84,0.19925
6143.05,0.19600
6137.27,0.19855
6131.48,0.19929
6125.7,0.19709
6119.91,0.19747
6114.12,0.19460
6108.34,0.19540
6102.55,0.19696
6096.76,0.19611
6090.98,0.19857
6085.19,0.19525
6079.41,0.19875
6073.62,0.19685
6067.83,0.19909
6062.05,0.19974
6056.26,0.19714
6050.47,0.19761
6044.69,0.19638
6038.9,0.19996
6033.12,0.19769
6027.33,0.19651
6021.54,0.19717
6015.76,0.19827
6009.97,0.19754
6004.18,0.19815
5998.4,0.19750
5992.61,0.19816
5986.83,0.19547
5981.04,0.19636
5975.25,0.19752
5969.47,0.19692
5963.68,0.19892
5957.89,0.19963
5952.11,0.19594
5946.32,0.19635
5940.54,0.19771
5934.75,0.19746
5928.96,0.19812
5923.18,0.19791
5917.39,0.19670
5911.6,0.19830
5905.82,0.19709
5900.03,0.19786
5894.25,0.19970
5888.46,0.19964
5882.67,0.19799
5876.89,0.19870
5871.1,0.19807
5865.31,0.20056
5859.53,0.20001
5853.74,0.19732
5847.96,0.19637
5842.17,0.19888
5836.38,0.19910
5830.6,0.19722
5824.81,0.19748
5819.02,0.19943
5813.24,0.19792
5807.45,0.19784
5801.67,0.19818
5795.88,0.20102
5790.09,0.19930
5784.31,0.19683
5778.52,0.19909
5772.73,0.19742
5766.95,0.20046
5761.16,0.19984
5755.38,0.19956
5749.59,0.19907
5743.8,0.19553
5738.02,0.19648
5732.23,0.19850
5726.44,0.19892
5720.66,0.19850
5714.87,0.19707
5709.09,0.19776
5703.3,0.19918
5697.51,0.19853
5691.73,0.19870
5685.94,0.19722
5680.15,0.19813
5674.37,0.19972
5668.58,0.19863
5662.8,0.19943
5657.01,0.19700
5651.22,0.19866
5645.44,0.19862
5639.65,0.19817
5633.87,0.19826
5628.08,0.19887
5622.29,0.19783
5616.51,0.19835
5610.72,0.19952
5604.93,0.19863
5599.15,0.19847
5593.36,0.19919
5587.58,0.19876
5581.79,0.19962
5576,0.19729
5570.22,0.19706
5564.43,0.19878
5558.64,0.19990
5552.86,0.20036
5547.07,0.19925
5541.29,0.19858
5535.5,0.19869
5529.71,0.19829
5523.93,0.19873
5518.14,0.19794
5512.35,0.19805
5506.57,0.19843
5500.78,0.19748
5495,0.19833
5489.21,0.19913
5483.42,0.19922
5477.64,0.19872
5471.85,0.19684
5466.06,0.19906
5460.28,0.19644
5454.49,0.19755
5448.71,0.19805
5442.92,0.19689
5437.13,0.19843
5431.35,0.19760
5425.56,0.19735
5419.77,0.19848
5413.99,0.19919
5408.2,0.19686
5402.42,0.19685
5396.63,0.19864
5390.84,0.20051
5385.06,0.19818
5379.27,0.20019
5373.48,0.19857
5367.7,0.19865
5361.91,0.19747
5356.13,0.19821
5350.34,0.19833
5344.55,0.19766
5338.77,0.19797
5332.98,0.19759
5327.19,0.19728
5321.41,0.19555
5315.62,0.19833
5309.84,0.19604
5304.05,0.19589
5298.26,0.19596
5292.48,0.19576
5286.69,0.19541
5280.9,0.19574
5275.12,0.19295
5269.33,0.19293
5263.55,0.19204
5257.76,0.19213
5251.97,0.19177
5246.19,0.19132
5240.4,0.19084
5234.61,0.18974
5228.83,0.18955
5223.04,0.18963
5217.26,0.18917
5211.47,0.18787
5205.68,0.18904
5199.9,0.18949
5194.11,0.18952
5188.32,0.18894
5182.54,0.18863
5176.75,0.18834
5170.97,0.19022
5165.18,0.18706
5159.39,0.18740
5153.61,0.18776
5147.82,0.18830
5142.03,0.18858
5136.25,0.18852
5130.46,0.18684
5124.68,0.18787
5118.89,0.18934
5113.1,0.18892
5107.32,0.18992
5101.53,0.19002
5095.75,0.19015
5089.96,0.19022
5084.17,0.18996
5078.39,0.18978
5072.6,0.19151
5066.81,0.19094
5061.03,0.19058
5055.24,0.19117
5049.46,0.19062
5043.67,0.19015
5037.88,0.19030
5032.1,0.19174
5026.31,0.19050
5020.52,0.19215
5014.74,0.19181
5008.95,0.19063
5003.17,0.19205
4997.38,0.19265
4991.59,0.19411
4985.81,0.19285
4980.02,0.19151
4974.23,0.19381
4968.45,0.19400
4962.66,0.19412
4956.88,0.19220
4951.09,0.19354
4945.3,0.19363
4939.52,0.19267
4933.73,0.19357
4927.94,0.19401
4922.16,0.19395
4916.37,0.19375
4910.59,0.19373
4904.8,0.19465
4899.01,0.19401
4893.23,0.19377
4887.44,0.19432
4881.65,0.19429
4875.87,0.19496
4870.08,0.19441
4864.3,0.19464
4858.51,0.19431
4852.72,0.19375
4846.94,0.19480
4841.15,0.19416
4835.36,0.19418
4829.58,0.19436
4823.79,0.19468
4818.01,0.19466
4812.22,0.19484
4806.43,0.19452
4800.65,0.19409
4794.86,0.19460
4789.07,0.19382
4783.29,0.19477
4777.5,0.19604
4771.72,0.19479
4765.93,0.19483
4760.14,0.19545
4754.36,0.19564
4748.57,0.19534
4742.78,0.19437
4737,0.19450
4731.21,0.19535
4725.43,0.19562
4719.64,0.19611
4713.85,0.19538
4708.07,0.19546
4702.28,0.19565
4696.49,0.19530
4690.71,0.19566
4684.92,0.19549
4679.14,0.19582
4673.35,0.19468
4667.56,0.19575
4661.78,0.19479
4655.99,0.19480
4650.2,0.19537
4644.42,0.19499
4638.63,0.19429
4632.85,0.19481
4627.06,0.19460
4621.27,0.19388
4615.49,0.19451
4609.7,0.19479
4603.92,0.19485
4598.13,0.19529
4592.34,0.19489
4586.56,0.19418
4580.77,0.19436
4574.98,0.19431
4569.2,0.19434
4563.41,0.19455
4557.63,0.19519
4551.84,0.19334
4546.05,0.19361
4540.27,0.19345
4534.48,0.19364
4528.69,0.19313
4522.91,0.19223
4517.12,0.19205
4511.34,0.19207
4505.55,0.19173
4499.76,0.19153
4493.98,0.19213
4488.19,0.19264
4482.4,0.19223
4476.62,0.19254
4470.83,0.19213
4465.05,0.19229
4459.26,0.19237
4453.47,0.19230
4447.69,0.19212
4441.9,0.19193
4436.11,0.19157
4430.33,0.19235
4424.54,0.19220
4418.76,0.19222
4412.97,0.19095
4407.18,0.19146
4401.4,0.19042
4395.61,0.19138
4389.82,0.19071
4384.04,0.19096
4378.25,0.19087
4372.47,0.18995
4366.68,0.18951
4360.89,0.18984
4355.11,0.18948
4349.32,0.18872
4343.53,0.18928
4337.75,0.18866
4331.96,0.18870
4326.18,0.18809
4320.39,0.18796
4314.6,0.18708
4308.82,0.18717
4303.03,0.18733
4297.24,0.18630
4291.46,0.18573
4285.67,0.18558
4279.89,0.18540
4274.1,0.18509
4268.31,0.18429
4262.53,0.18436
4256.74,0.18561
4250.95,0.18557
4245.17,0.18678
4239.38,0.18697
4233.6,0.18756
4227.81,0.18750
4222.02,0.18827
4216.24,0.18841
4210.45,0.18827
4204.66,0.18746
4198.88,0.18758
4193.09,0.18779
4187.31,0.18835
4181.52,0.18796
4175.73,0.18743
4169.95,0.18681
4164.16,0.18677
4158.37,0.18664
4152.59,0.18659
4146.8,0.18575
4141.02,0.18547
4135.23,0.18509
4129.44,0.18432
4123.66,0.18441
4117.87,0.18365
4112.09,0.18327
4106.3,0.18300
4100.51,0.18228
4094.73,0.18128
4088.94,0.18164
4083.15,0.18130
4077.37,0.18104
4071.58,0.18053
4065.8,0.17919
4060.01,0.17907
4054.22,0.17814
4048.44,0.17787
4042.65,0.17683
4036.86,0.17626
4031.08,0.17577
4025.29,0.17512
4019.51,0.17477
4013.72,0.17425
4007.93,0.17423
4002.15,0.17349
3996.36,0.17355
3990.57,0.17286
3984.79,0.17308
3979,0.17260
3973.22,0.17093
3967.43,0.17157
3961.64,0.17015
3955.86,0.16927
3950.07,0.16857
3944.28,0.16846
3938.5,0.16831
3932.71,0.16968
3926.93,0.17157
3921.14,0.17249
3915.35,0.17374
3909.57,0.17486
3903.78,0.17580
3897.99,0.17607
3892.21,0.17681
3886.42,0.17725
3880.64,0.17726
3874.85,0.17758
3869.06,0.17749
3863.28,0.17725
3857.49,0.17714
3851.7,0.17736
3845.92,0.17725
3840.13,0.17695
3834.35,0.17722
3828.56,0.17629
3822.77,0.17613
3816.99,0.17540
3811.2,0.17547
3805.41,0.17545
3799.63,0.17425
3793.84,0.17432
3788.06,0.17439
3782.27,0.17282
3776.48,0.17251
3770.7,0.17204
3764.91,0.17036
3759.12,0.16895
3753.34,0.16787
3747.55,0.16586
3741.77,0.16250
3735.98,0.16075
3730.19,0.15707
3724.41,0.15296
3718.62,0.14746
3712.83,0.14212
3707.05,0.13700
3701.26,0.13195
3695.48,0.12726
3689.69,0.12213
3683.9,0.11525
3678.12,0.10977
3672.33,0.10312
3666.54,0.09709
3660.76,0.09143
3654.97,0.08577
3649.19,0.08107
3643.4,0.07634
3637.61,0.07162
3631.83,0.06962
3626.04,0.06605
3620.25,0.06440
3614.47,0.06218
3608.68,0.06091
3602.9,0.05996
3597.11,0.06030
3591.32,0.05932
3585.54,0.05804
3579.75,0.05780
3573.97,0.05744
3568.18,0.05697
3562.39,0.05605
3556.61,0.05560
3550.82,0.05539
3545.03,0.05460
3539.25,0.05434
3533.46,0.05413
3527.68,0.05352
3521.89,0.05376
3516.1,0.05340
3510.32,0.05263
3504.53,0.05163
3498.74,0.05207
3492.96,0.05172
3487.17,0.05138
3481.39,0.05118
3475.6,0.05077
3469.81,0.05049
3464.03,0.04992
3458.24,0.05038
3452.45,0.04960
3446.67,0.04968
3440.88,0.04931
3435.1,0.04925
3429.31,0.04883
3423.52,0.04910
3417.74,0.04897
3411.95,0.04898
3406.16,0.04931
3400.38,0.04845
3394.59,0.04885
3388.81,0.04866
3383.02,0.04947
3377.23,0.04896
3371.45,0.04916
3365.66,0.04883
3359.87,0.04974
3354.09,0.05061
3348.3,0.04972
3342.52,0.04934
3336.73,0.05016
3330.94,0.05000
3325.16,0.05028
3319.37,0.05037
3313.58,0.05037
3307.8,0.05092
3302.01,0.05085
3296.23,0.05169
3290.44,0.05171
3284.65,0.05217
3278.87,0.05250
3273.08,0.05188
3267.29,0.05153
3261.51,0.05266
3255.72,0.05284
3249.94,0.05336
3244.15,0.05266
3238.36,0.05418
3232.58,0.05410
3226.79,0.05461
3221,0.05551
3215.22,0.05609
3209.43,0.05672
3203.65,0.05698
3197.86,0.05777
3192.07,0.05792
3186.29,0.05789
3180.5,0.05815
3174.71,0.05896
3168.93,0.05965
3163.14,0.06028
3157.36,0.06089
3151.57,0.06119
3145.78,0.06201
3140,0.06220
3134.21,0.06263
3128.42,0.06255
3122.64,0.06380
3116.85,0.06404
3111.07,0.06480
3105.28,0.06515
3099.49,0.06499
3093.71,0.06499
3087.92,0.06591
3082.14,0.06577
3076.35,0.06634
3070.56,0.06666
3064.78,0.06684
3058.99,0.06695
3053.2,0.06724
3047.42,0.06782
3041.63,0.06785
3035.85,0.06821
3030.06,0.06777
3024.27,0.06677
3018.49,0.06683
3012.7,0.06691
3006.91,0.06652
3001.13,0.06582
2995.34,0.06329
2989.56,0.06044
2983.77,0.05919
2977.98,0.05877
2972.2,0.05942
2966.41,0.05947
2960.62,0.05950
2954.84,0.05979
2949.05,0.06016
2943.27,0.06028
2937.48,0.06017
2931.69,0.05955
2925.91,0.05965
2920.12,0.05946
2914.33,0.06039
2908.55,0.06126
2902.76,0.06110
2896.98,0.06136
2891.19,0.06127
2885.4,0.05929
2879.62,0.05679
2873.83,0.05652
2868.04,0.05778
2862.26,0.05959
2856.47,0.06101
2850.69,0.06315
2844.9,0.06590
2839.11,0.07052
2833.33,0.07415
2827.54,0.07775
2821.75,0.08014
2815.97,0.08137
2810.18,0.08296
2804.4,0.08433
2798.61,0.08485
2792.82,0.08668
2787.04,0.08819
2781.25,0.08922
2775.46,0.09056
2769.68,0.09101
2763.89,0.09187
2758.11,0.09263
2752.32,0.09287
2746.53,0.09410
2740.75,0.09458
2734.96,0.09520
2729.17,0.09566
2723.39,0.09591
2717.6,0.09691
2711.82,0.09684
2706.03,0.09708
2700.24,0.09766
2694.46,0.09778
2688.67,0.09844
2682.88,0.09861
2677.1,0.09817
2671.31,0.09807
2665.53,0.09780
2659.74,0.09730
2653.95,0.09708
2648.17,0.09572
2642.38,0.09390
2636.59,0.09082
2630.81,0.08713
2625.02,0.08355
2619.24,0.08100
2613.45,0.07861
2607.66,0.07570
2601.88,0.07412
2596.09,0.07321
2590.3,0.07231
2584.52,0.07142
2578.73,0.07133
2572.95,0.07047
2567.16,0.06981
2561.37,0.06935
2555.59,0.06813
2549.8,0.06649
2544.02,0.06507
2538.23,0.06281
2532.44,0.05764
2526.66,0.05441
2520.87,0.05227
2515.08,0.05184
2509.3,0.05251
2503.51,0.05552
2497.73,0.06078
2491.94,0.06686
2486.15,0.07233
2480.37,0.07806
2474.58,0.08305
2468.79,0.08840
2463.01,0.09143
2457.22,0.09455
2451.44,0.09709
2445.65,0.09905
2439.86,0.10023
2434.08,0.10139
2428.29,0.10245
2422.5,0.10338
2416.72,0.10380
2410.93,0.10455
2405.15,0.10494
2399.36,0.10461
2393.57,0.10522
2387.79,0.10534
2382,0.10503
2376.21,0.10496
2370.43,0.10488
2364.64,0.10487
2358.86,0.10470
2353.07,0.10413
2347.28,0.10350
2341.5,0.10377
2335.71,0.10357
2329.92,0.10362
2324.14,0.10302
2318.35,0.10175
2312.57,0.10199
2306.78,0.10155
2300.99,0.10102
2295.21,0.10111
2289.42,0.10089
2283.63,0.10066
2277.85,0.10005
2272.06,0.09990
2266.28,0.09868
2260.49,0.09806
2254.7,0.09721
2248.92,0.09678
2243.13,0.09587
2237.34,0.09522
2231.56,0.09457
2225.77,0.09434
2219.99,0.09347
2214.2,0.09365
2208.41,0.09323
2202.63,0.09304
2196.84,0.09309
2191.05,0.09291
2185.27,0.09216
2179.48,0.09148
2173.7,0.09072
2167.91,0.08978
2162.12,0.08859
2156.34,0.08685
2150.55,0.08500
2144.76,0.08365
2138.98,0.08349
2133.19,0.08408
2127.41,0.08554
2121.62,0.08740
2115.83,0.08932
2110.05,0.08982
2104.26,0.09050
2098.47,0.09090
2092.69,0.09133
2086.9,0.09100
2081.12,0.09087
2075.33,0.09092
2069.54,0.09069
2063.76,0.08990
2057.97,0.08950
2052.19,0.08901
2046.4,0.08846
2040.61,0.08729
2034.83,0.08678
2029.04,0.08576
2023.25,0.08542
2017.47,0.08468
2011.68,0.08387
2005.9,0.08293
2000.11,0.08218
1994.32,0.08179
1988.54,0.08147
1982.75,0.08103
1976.96,0.08067
1971.18,0.08015
1965.39,0.07918
1959.61,0.07781
1953.82,0.07902
1948.03,0.07871
1942.25,0.07862
1936.46,0.07817
1930.67,0.07745
1924.89,0.07716
1919.1,0.07638
1913.32,0.07526
1907.53,0.07408
1901.74,0.07245
1895.96,0.07112
1890.17,0.06977
1884.38,0.06887
1878.6,0.06806
1872.81,0.06667
1867.03,0.06602
1861.24,0.06575
1855.45,0.06526
1849.67,0.06467
1843.88,0.06394
1838.09,0.06227
1832.31,0.05988
1826.52,0.05674
1820.74,0.05424
1814.95,0.05121
1809.16,0.04663
1803.38,0.03922
1797.59,0.03412
1791.8,0.03550
1786.02,0.04122
1780.23,0.04566
1774.45,0.04754
1768.66,0.04776
1762.87,0.04734
1757.09,0.04632
1751.3,0.04509
1745.51,0.04383
1739.73,0.04330
1733.94,0.04236
1728.16,0.04256
1722.37,0.04229
1716.58,0.04163
1710.8,0.04067
1705.01,0.04033
1699.22,0.03906
1693.44,0.03713
1687.65,0.03572
1681.87,0.03485
1676.08,0.03492
1670.29,0.03416
1664.51,0.03404
1658.72,0.03332
1652.93,0.03321
1647.15,0.03330
1641.36,0.03326
1635.58,0.03347
1629.79,0.03408
1624,0.03467
1618.22,0.03597
1612.43,0.03765
1606.64,0.03937
1600.86,0.04082
1595.07,0.04247
1589.29,0.04357
1583.5,0.04716
1577.71,0.05213
1571.93,0.05842
1566.14,0.06466
1560.35,0.06988
1554.57,0.07617
1548.78,0.08124
1543,0.08491
1537.21,0.08846
1531.42,0.09051
1525.64,0.09184
1519.85,0.09148
1514.07,0.09159
1508.28,0.09140
1502.49,0.09055
1496.71,0.09015
1490.92,0.09020
1485.13,0.08991
1479.35,0.08960
1473.56,0.08958
1467.78,0.08869
1461.99,0.08851
1456.2,0.08860
1450.42,0.08823
1444.63,0.08832
1438.84,0.08854
1433.06,0.09014
1427.27,0.09253
1421.49,0.09553
1415.7,0.09986
1409.91,0.10324
1404.13,0.09966
1398.34,0.09438
1392.55,0.09073
1386.77,0.08683
1380.98,0.08422
1375.2,0.08200
1369.41,0.08172
1363.62,0.08278
1357.84,0.08373
1352.05,0.08441
1346.26,0.08463
1340.48,0.08515
1334.69,0.08488
1328.91,0.08393
1323.12,0.08312
1317.33,0.08309
1311.55,0.08433
1305.76,0.08526
1299.97,0.08660
1294.19,0.08716
1288.4,0.08704
1282.62,0.08596
1276.83,0.08573
1271.04,0.08503
1265.26,0.08471
1259.47,0.08455
1253.68,0.08392
1247.9,0.08271
1242.11,0.08077
1236.33,0.08002
1230.54,0.07920
1224.75,0.07845
1218.97,0.07651
1213.18,0.07438
1207.39,0.07150
1201.61,0.06892
1195.82,0.06685
1190.04,0.06499
1184.25,0.06355
1178.46,0.06155
1172.68,0.06050
1166.89,0.05967
1161.1,0.05952
1155.32,0.06047
1149.53,0.06102
1143.75,0.06125
1137.96,0.06058
1132.17,0.06034
1126.39,0.05951
1120.6,0.05953
1114.81,0.05713
1109.03,0.05509
1103.24,0.05416
1097.46,0.05331
1091.67,0.05173
1085.88,0.05090
1080.1,0.05090
1074.31,0.05065
1068.52,0.04941
1062.74,0.04821
1056.95,0.04802
1051.17,0.04815
1045.38,0.04728
1039.59,0.04691
1033.81,0.04755
1028.02,0.04729
1022.24,0.04613
1016.45,0.04564
1010.66,0.04683
1004.88,0.04620
999.09,0.04599
993.304,0.04606
987.518,0.04610
981.731,0.04608
975.945,0.04583
970.159,0.04575
964.373,0.04637
958.586,0.04632
952.8,0.04612
947.014,0.04564
941.228,0.04649
935.441,0.04602
929.655,0.04611
923.869,0.04592
918.083,0.04525
912.297,0.04524
906.51,0.04488
900.724,0.04643
894.938,0.04944
889.152,0.05075
883.365,0.04433
877.579,0.05170
871.793,0.06380
866.007,0.05935
860.22,0.05398
854.434,0.04920
848.648,0.04676
842.862,0.04777
837.075,0.04674
831.289,0.04523
825.503,0.04521
819.717,0.04498
813.931,0.04477
808.144,0.04267
802.358,0.04390
796.572,0.04359
790.786,0.04316
784.999,0.04263
779.213,0.04239
773.427,0.04246
767.641,0.04184
761.854,0.04158
756.068,0.04096
750.282,0.03993
744.496,0.03990
738.709,0.03895
732.923,0.03682
727.137,0.03633
721.351,0.03450
715.565,0.03298
709.778,0.03896
703.992,0.04017
698.206,0.03876
692.42,0.03948
686.633,0.03928
680.847,0.03758
675.061,0.03813
669.275,0.03671
663.488,0.03716
657.702,0.03626
651.916,0.03602
646.13,0.03533
640.343,0.03666
634.557,0.03380
628.771,0.03387
622.985,0.03298
617.198,0.03589
611.412,0.03588
605.626,0.03463
599.84,0.03473