File: 01_Data/Cinder_Block/FTIR/IS/Cinder_Block_IS_T_221214_R3.dpt
7497.03,0.03203
7491.25,0.01540
7485.46,0.02666
7479.67,0.02045
7473.89,0.02719
7468.1,0.03090
7462.32,0.01540
7456.53,0.01941
7450.74,0.02367
7444.96,0.01483
7439.17,0.01832
7433.38,0.02734
7427.6,0.02652
7421.81,0.02213
7416.03,0.02510
7410.24,0.03423
7404.45,0.02780
7398.67,0.02032
7392.88,0.02943
7387.09,0.01865
7381.31,0.02853
7375.52,0.02597
7369.74,0.01745
7363.95,0.02461
7358.16,0.02108
7352.38,0.02051
7346.59,0.02313
7340.8,0.02625
7335.02,0.02007
7329.23,0.02953
7323.45,0.02279
7317.66,0.02732
7311.87,0.03412
7306.09,0.02822
7300.3,0.02719
7294.51,0.02739
7288.73,0.02780
7282.94,0.02884
7277.16,0.02795
7271.37,0.02640
7265.58,0.02881
7259.8,0.02576
7254.01,0.02523
7248.22,0.02217
7242.44,0.01789
7236.65,0.02465
7230.87,0.02934
7225.08,0.02414
7219.29,0.02244
7213.51,0.02652
7207.72,0.02400
7201.93,0.02070
7196.15,0.02362
7190.36,0.02609
7184.58,0.02742
7178.79,0.02850
7173,0.01840
7167.22,0.01877
7161.43,0.02459
7155.65,0.02563
7149.86,0.02269
7144.07,0.03449
7138.29,0.03119
7132.5,0.02049
7126.71,0.02771
7120.93,0.02208
7115.14,0.02615
7109.36,0.02662
7103.57,0.02710
7097.78,0.02801
7092,0.02549
7086.21,0.01792
7080.42,0.02162
7074.64,0.01810
7068.85,0.02221
7063.07,0.02501
7057.28,0.02087
7051.49,0.02213
7045.71,0.02126
7039.92,0.02414
7034.13,0.03029
7028.35,0.01952
7022.56,0.02515
7016.78,0.02725
7010.99,0.02274
7005.2,0.02457
6999.42,0.02576
6993.63,0.01952
6987.84,0.02492
6982.06,0.02214
6976.27,0.02349
6970.49,0.02302
6964.7,0.02501
6958.91,0.02084
6953.13,0.02117
6947.34,0.01840
6941.55,0.02147
6935.77,0.03073
6929.98,0.02611
6924.2,0.02086
6918.41,0.01987
6912.62,0.02372
6906.84,0.02314
6901.05,0.02703
6895.26,0.02241
6889.48,0.02561
6883.69,0.02580
6877.91,0.02085
6872.12,0.02382
6866.33,0.02195
6860.55,0.02637
6854.76,0.02288
6848.97,0.02572
6843.19,0.02581
6837.4,0.02931
6831.62,0.02797
6825.83,0.02368
6820.04,0.02617
6814.26,0.02605
6808.47,0.02705
6802.68,0.01943
6796.9,0.02732
6791.11,0.02493
6785.33,0.02252
6779.54,0.02745
6773.75,0.02024
6767.97,0.02137
6762.18,0.02631
6756.39,0.02910
6750.61,0.02582
6744.82,0.02615
6739.04,0.02822
6733.25,0.02519
6727.46,0.02352
6721.68,0.02823
6715.89,0.02174
6710.1,0.02479
6704.32,0.02727
6698.53,0.02708
6692.75,0.02403
6686.96,0.02007
6681.17,0.02326
6675.39,0.02585
6669.6,0.02568
6663.82,0.02407
6658.03,0.02365
6652.24,0.02122
6646.46,0.02032
6640.67,0.02102
6634.88,0.02764
6629.1,0.01682
6623.31,0.02370
6617.53,0.02381
6611.74,0.02474
6605.95,0.02141
6600.17,0.02194
6594.38,0.02388
6588.59,0.02380
6582.81,0.02416
6577.02,0.02289
6571.24,0.02291
6565.45,0.02094
6559.66,0.02146
6553.88,0.02154
6548.09,0.02421
6542.3,0.02513
6536.52,0.01595
6530.73,0.02305
6524.95,0.02418
6519.16,0.02259
6513.37,0.01894
6507.59,0.02276
6501.8,0.02032
6496.01,0.02854
6490.23,0.02465
6484.44,0.02482
6478.66,0.01995
6472.87,0.02225
6467.08,0.02811
6461.3,0.02598
6455.51,0.02563
6449.72,0.02242
6443.94,0.02391
6438.15,0.02574
6432.37,0.02601
6426.58,0.02628
6420.79,0.02603
6415.01,0.02547
6409.22,0.02558
6403.43,0.01906
6397.65,0.02632
6391.86,0.02483
6386.08,0.02333
6380.29,0.02304
6374.5,0.02334
6368.72,0.01939
6362.93,0.02102
6357.14,0.02457
6351.36,0.02540
6345.57,0.02327
6339.79,0.02176
6334,0.02348
6328.21,0.02575
6322.43,0.01972
6316.64,0.02354
6310.85,0.02517
6305.07,0.02205
6299.28,0.02528
6293.5,0.02302
6287.71,0.02379
6281.92,0.02303
6276.14,0.01915
6270.35,0.02321
6264.56,0.01907
6258.78,0.02329
6252.99,0.02106
6247.21,0.02649
6241.42,0.02512
6235.63,0.02241
6229.85,0.02124
6224.06,0.02267
6218.27,0.02438
6212.49,0.02413
6206.7,0.02623
6200.92,0.02115
6195.13,0.02276
6189.34,0.02404
6183.56,0.02231
6177.77,0.02346
6171.98,0.01957
6166.2,0.02503
6160.41,0.02106
6154.63,0.02087
6148.84,0.02249
6143.05,0.02065
6137.27,0.02226
6131.48,0.02232
6125.7,0.02137
6119.91,0.02165
6114.12,0.02458
6108.34,0.02223
6102.55,0.02411
6096.76,0.02183
6090.98,0.02155
6085.19,0.02338
6079.41,0.02457
6073.62,0.02196
6067.83,0.02280
6062.05,0.02186
6056.26,0.02274
6050.47,0.02188
6044.69,0.02469
6038.9,0.02653
6033.12,0.02554
6027.33,0.02382
6021.54,0.02367
6015.76,0.02445
6009.97,0.02287
6004.18,0.02036
5998.4,0.02375
5992.61,0.02122
5986.83,0.02290
5981.04,0.02237
5975.25,0.01974
5969.47,0.02221
5963.68,0.02471
5957.89,0.02292
5952.11,0.02086
5946.32,0.02398
5940.54,0.02307
5934.75,0.02207
5928.96,0.02391
5923.18,0.02469
5917.39,0.02329
5911.6,0.02353
5905.82,0.02151
5900.03,0.01869
5894.25,0.02487
5888.46,0.02321
5882.67,0.02042
5876.89,0.02051
5871.1,0.02150
5865.31,0.01974
5859.53,0.02104
5853.74,0.02055
5847.96,0.02517
5842.17,0.02252
5836.38,0.02098
5830.6,0.02504
5824.81,0.02250
5819.02,0.02235
5813.24,0.02360
5807.45,0.02314
5801.67,0.02311
5795.88,0.02241
5790.09,0.01925
5784.31,0.02114
5778.52,0.02480
5772.73,0.02034
5766.95,0.02429
5761.16,0.02335
5755.38,0.02196
5749.59,0.02369
5743.8,0.02427
5738.02,0.02030
5732.23,0.02315
5726.44,0.02214
5720.66,0.02353
5714.87,0.02427
5709.09,0.02496
5703.3,0.02462
5697.51,0.02412
5691.73,0.02216
5685.94,0.02361
5680.15,0.02141
5674.37,0.02291
5668.58,0.02294
5662.8,0.02198
5657.01,0.02413
5651.22,0.02267
5645.44,0.02305
5639.65,0.02290
5633.87,0.02379
5628.08,0.02188
5622.29,0.02225
5616.51,0.02433
5610.72,0.02263
5604.93,0.02406
5599.15,0.02391
5593.36,0.02306
5587.58,0.02260
5581.79,0.02426
5576,0.02437
5570.22,0.02447
5564.43,0.02075
5558.64,0.02330
5552.86,0.02444
5547.07,0.02110
5541.29,0.02213
5535.5,0.02494
5529.71,0.02334
5523.93,0.02458
5518.14,0.02326
5512.35,0.02206
5506.57,0.02290
5500.78,0.02460
5495,0.02416
5489.21,0.02282
5483.42,0.02434
5477.64,0.02295
5471.85,0.02523
5466.06,0.02391
5460.28,0.02390
5454.49,0.02372
5448.71,0.02247
5442.92,0.02404
5437.13,0.02556
5431.35,0.02352
5425.56,0.02331
5419.77,0.02531
5413.99,0.02366
5408.2,0.02371
5402.42,0.02329
5396.63,0.02323
5390.84,0.02232
5385.06,0.02239
5379.27,0.02273
5373.48,0.02370
5367.7,0.02207
5361.91,0.02361
5356.13,0.02357
5350.34,0.02321
5344.55,0.02464
5338.77,0.02423
5332.98,0.02252
5327.19,0.02321
5321.41,0.02269
5315.62,0.02260
5309.84,0.02441
5304.05,0.02582
5298.26,0.02284
5292.48,0.02603
5286.69,0.02466
5280.9,0.02448
5275.12,0.02381
5269.33,0.02364
5263.55,0.02377
5257.76,0.02266
5251.97,0.02166
5246.19,0.02465
5240.4,0.02355
5234.61,0.02439
5228.83,0.02419
5223.04,0.02353
5217.26,0.02390
5211.47,0.02386
5205.68,0.02299
5199.9,0.02233
5194.11,0.02217
5188.32,0.02274
5182.54,0.02321
5176.75,0.02360
5170.97,0.02313
5165.18,0.02411
5159.39,0.02325
5153.61,0.02474
5147.82,0.02438
5142.03,0.02573
5136.25,0.02454
5130.46,0.02385
5124.68,0.02354
5118.89,0.02441
5113.1,0.02193
5107.32,0.02330
5101.53,0.02439
5095.75,0.02444
5089.96,0.02383
5084.17,0.02424
5078.39,0.02351
5072.6,0.02313
5066.81,0.02314
5061.03,0.02290
5055.24,0.02440
5049.46,0.02368
5043.67,0.02450
5037.88,0.02308
5032.1,0.02232
5026.31,0.02326
5020.52,0.02365
5014.74,0.02402
5008.95,0.02319
5003.17,0.02377
4997.38,0.02359
4991.59,0.02416
4985.81,0.02460
4980.02,0.02341
4974.23,0.02347
4968.45,0.02440
4962.66,0.02275
4956.88,0.02289
4951.09,0.02431
4945.3,0.02316
4939.52,0.02493
4933.73,0.02273
4927.94,0.02460
4922.16,0.02346
4916.37,0.02314
4910.59,0.02423
4904.8,0.02446
4899.01,0.02363
4893.23,0.02455
4887.44,0.02499
4881.65,0.02488
4875.87,0.02479
4870.08,0.02402
4864.3,0.02374
4858.51,0.02334
4852.72,0.02305
4846.94,0.02428
4841.15,0.02290
4835.36,0.02484
4829.58,0.02193
4823.79,0.02319
4818.01,0.02457
4812.22,0.02337
4806.43,0.02404
4800.65,0.02420
4794.86,0.02436
4789.07,0.02450
4783.29,0.02346
4777.5,0.02387
4771.72,0.02284
4765.93,0.02334
4760.14,0.02363
4754.36,0.02347
4748.57,0.02393
4742.78,0.02411
4737,0.02372
4731.21,0.02350
4725.43,0.02402
4719.64,0.02458
4713.85,0.02411
4708.07,0.02393
4702.28,0.02366
4696.49,0.02249
4690.71,0.02466
4684.92,0.02431
4679.14,0.02426
4673.35,0.02395
4667.56,0.02458
4661.78,0.02504
4655.99,0.02476
4650.2,0.02391
4644.42,0.02412
4638.63,0.02386
4632.85,0.02468
4627.06,0.02478
4621.27,0.02383
4615.49,0.02450
4609.7,0.02479
4603.92,0.02338
4598.13,0.02344
4592.34,0.02425
4586.56,0.02434
4580.77,0.02353
4574.98,0.02331
4569.2,0.02364
4563.41,0.02383
4557.63,0.02430
4551.84,0.02415
4546.05,0.02448
4540.27,0.02430
4534.48,0.02388
4528.69,0.02384
4522.91,0.02350
4517.12,0.02386
4511.34,0.02301
4505.55,0.02380
4499.76,0.02442
4493.98,0.02360
4488.19,0.02380
4482.4,0.02337
4476.62,0.02433
4470.83,0.02471
4465.05,0.02421
4459.26,0.02362
4453.47,0.02300
4447.69,0.02404
4441.9,0.02356
4436.11,0.02403
4430.33,0.02424
4424.54,0.02364
4418.76,0.02342
4412.97,0.02376
4407.18,0.02388
4401.4,0.02454
4395.61,0.02398
4389.82,0.02484
4384.04,0.02343
4378.25,0.02373
4372.47,0.02397
4366.68,0.02375
4360.89,0.02344
4355.11,0.02369
4349.32,0.02308
4343.53,0.02405
4337.75,0.02399
4331.96,0.02452
4326.18,0.02385
4320.39,0.02415
4314.6,0.02461
4308.82,0.02382
4303.03,0.02451
4297.24,0.02426
4291.46,0.02419
4285.67,0.02477
4279.89,0.02433
4274.1,0.02467
4268.31,0.02363
4262.53,0.02410
4256.74,0.02452
4250.95,0.02352
4245.17,0.02464
4239.38,0.02338
4233.6,0.02354
4227.81,0.02398
4222.02,0.02462
4216.24,0.02449
4210.45,0.02396
4204.66,0.02446
4198.88,0.02476
4193.09,0.02431
4187.31,0.02367
4181.52,0.02435
4175.73,0.02423
4169.95,0.02456
4164.16,0.02460
4158.37,0.02468
4152.59,0.02403
4146.8,0.02395
4141.02,0.02450
4135.23,0.02427
4129.44,0.02453
4123.66,0.02412
4117.87,0.02416
4112.09,0.02451
4106.3,0.02484
4100.51,0.02430
4094.73,0.02370
4088.94,0.02380
4083.15,0.02415
4077.37,0.02419
4071.58,0.02388
4065.8,0.02406
4060.01,0.02427
4054.22,0.02405
4048.44,0.02424
4042.65,0.02408
4036.86,0.02384
4031.08,0.02476
4025.29,0.02412
4019.51,0.02466
4013.72,0.02411
4007.93,0.02434
4002.15,0.02405
3996.36,0.02373
3990.57,0.02461
3984.79,0.02477
3979,0.02375
3973.22,0.02437
3967.43,0.02422
3961.64,0.02458
3955.86,0.02475
3950.07,0.02453
3944.28,0.02455
3938.5,0.02443
3932.71,0.02464
3926.93,0.02471
3921.14,0.02429
3915.35,0.02426
3909.57,0.02405
3903.78,0.02463
3897.99,0.02478
3892.21,0.02454
3886.42,0.02426
3880.64,0.02475
3874.85,0.02465
3869.06,0.02446
3863.28,0.02503
3857.49,0.02440
3851.7,0.02467
3845.92,0.02436
3840.13,0.02375
3834.35,0.02391
3828.56,0.02438
3822.77,0.02452
3816.99,0.02388
3811.2,0.02435
3805.41,0.02428
3799.63,0.02438
3793.84,0.02434
3788.06,0.02399
3782.27,0.02504
3776.48,0.02508
3770.7,0.02379
3764.91,0.02425
3759.12,0.02396
3753.34,0.02475
3747.55,0.02441
3741.77,0.02443
3735.98,0.02473
3730.19,0.02420
3724.41,0.02435
3718.62,0.02422
3712.83,0.02382
3707.05,0.02426
3701.26,0.02410
3695.48,0.02434
3689.69,0.02432
3683.9,0.02484
3678.12,0.02484
3672.33,0.02436
3666.54,0.02326
3660.76,0.02444
3654.97,0.02372
3649.19,0.02398
3643.4,0.02348
3637.61,0.02364
3631.83,0.02390
3626.04,0.02381
3620.25,0.02359
3614.47,0.02376
3608.68,0.02412
3602.9,0.02345
3597.11,0.02348
3591.32,0.02311
3585.54,0.02335
3579.75,0.02272
3573.97,0.02317
3568.18,0.02308
3562.39,0.02323
3556.61,0.02275
3550.82,0.02289
3545.03,0.02298
3539.25,0.02217
3533.46,0.02182
3527.68,0.02252
3521.89,0.02250
3516.1,0.02181
3510.32,0.02263
3504.53,0.02286
3498.74,0.02217
3492.96,0.02247
3487.17,0.02198
3481.39,0.02195
3475.6,0.02213
3469.81,0.02259
3464.03,0.02293
3458.24,0.02190
3452.45,0.02234
3446.67,0.02232
3440.88,0.02236
3435.1,0.02244
3429.31,0.02281
3423.52,0.02233
3417.74,0.02222
3411.95,0.02184
3406.16,0.02171
3400.38,0.02237
3394.59,0.02208
3388.81,0.02253
3383.02,0.02214
3377.23,0.02258
3371.45,0.02191
3365.66,0.02240
3359.87,0.02194
3354.09,0.02193
3348.3,0.02187
3342.52,0.02204
3336.73,0.02244
3330.94,0.02163
3325.16,0.02177
3319.37,0.02178
3313.58,0.02159
3307.8,0.02157
3302.01,0.02183
3296.23,0.02175
3290.44,0.02175
3284.65,0.02123
3278.87,0.02226
3273.08,0.02190
3267.29,0.02242
3261.51,0.02209
3255.72,0.02234
3249.94,0.02223
3244.15,0.02252
3238.36,0.02237
3232.58,0.02359
3226.79,0.02267
3221,0.02240
3215.22,0.02237
3209.43,0.02240
3203.65,0.02273
3197.86,0.02287
3192.07,0.02287
3186.29,0.02284
3180.5,0.02299
3174.71,0.02313
3168.93,0.02228
3163.14,0.02253
3157.36,0.02264
3151.57,0.02232
3145.78,0.02275
3140,0.02337
3134.21,0.02206
3128.42,0.02221
3122.64,0.02247
3116.85,0.02216
3111.07,0.02287
3105.28,0.02281
3099.49,0.02281
3093.71,0.02304
3087.92,0.02300
3082.14,0.02327
3076.35,0.02241
3070.56,0.02257
3064.78,0.02291
3058.99,0.02276
3053.2,0.02249
3047.42,0.02263
3041.63,0.02239
3035.85,0.02257
3030.06,0.02272
3024.27,0.02256
3018.49,0.02239
3012.7,0.02239
3006.91,0.02260
3001.13,0.02192
2995.34,0.02229
2989.56,0.02215
2983.77,0.02206
2977.98,0.02192
2972.2,0.02211
2966.41,0.02148
2960.62,0.02107
2954.84,0.02163
2949.05,0.02148
2943.27,0.02154
2937.48,0.02142
2931.69,0.02154
2925.91,0.02145
2920.12,0.02194
2914.33,0.02177
2908.55,0.02206
2902.76,0.02212
2896.98,0.02245
2891.19,0.02263
2885.4,0.02235
2879.62,0.02196
2873.83,0.02225
2868.04,0.02292
2862.26,0.02253
2856.47,0.02279
2850.69,0.02293
2844.9,0.02281
2839.11,0.02325
2833.33,0.02297
2827.54,0.02296
2821.75,0.02323
2815.97,0.02385
2810.18,0.02331
2804.4,0.02314
2798.61,0.02323
2792.82,0.02301
2787.04,0.02311
2781.25,0.02336
2775.46,0.02324
2769.68,0.02314
2763.89,0.02326
2758.11,0.02289
2752.32,0.02289
2746.53,0.02295
2740.75,0.02361
2734.96,0.02366
2729.17,0.02334
2723.39,0.02303
2717.6,0.02324
2711.82,0.02347
2706.03,0.02374
2700.24,0.02347
2694.46,0.02300
2688.67,0.02349
2682.88,0.02365
2677.1,0.02342
2671.31,0.02373
2665.53,0.02343
2659.74,0.02315
2653.95,0.02332
2648.17,0.02387
2642.38,0.02364
2636.59,0.02359
2630.81,0.02349
2625.02,0.02384
2619.24,0.02383
2613.45,0.02374
2607.66,0.02341
2601.88,0.02299
2596.09,0.02340
2590.3,0.02343
2584.52,0.02335
2578.73,0.02329
2572.95,0.02325
2567.16,0.02307
2561.37,0.02349
2555.59,0.02368
2549.8,0.02282
2544.02,0.02356
2538.23,0.02361
2532.44,0.02334
2526.66,0.02315
2520.87,0.02331
2515.08,0.02376
2509.3,0.02370
2503.51,0.02353
2497.73,0.02341
2491.94,0.02304
2486.15,0.02353
2480.37,0.02366
2474.58,0.02371
2468.79,0.02360
2463.01,0.02339
2457.22,0.02358
2451.44,0.02363
2445.65,0.02345
2439.86,0.02346
2434.08,0.02343
2428.29,0.02308
2422.5,0.02377
2416.72,0.02362
2410.93,0.02389
2405.15,0.02352
2399.36,0.02341
2393.57,0.02314
2387.79,0.02345
2382,0.02342
2376.21,0.02372
2370.43,0.02405
2364.64,0.02360
2358.86,0.02361
2353.07,0.02404
2347.28,0.02390
2341.5,0.02417
2335.71,0.02382
2329.92,0.02372
2324.14,0.02350
2318.35,0.02355
2312.57,0.02360
2306.78,0.02348
2300.99,0.02326
2295.21,0.02304
2289.42,0.02354
2283.63,0.02336
2277.85,0.02342
2272.06,0.02363
2266.28,0.02375
2260.49,0.02352
2254.7,0.02338
2248.92,0.02359
2243.13,0.02358
2237.34,0.02363
2231.56,0.02351
2225.77,0.02325
2219.99,0.02323
2214.2,0.02333
2208.41,0.02343
2202.63,0.02366
2196.84,0.02354
2191.05,0.02323
2185.27,0.02354
2179.48,0.02323
2173.7,0.02329
2167.91,0.02329
2162.12,0.02330
2156.34,0.02332
2150.55,0.02354
2144.76,0.02353
2138.98,0.02330
2133.19,0.02332
2127.41,0.02351
2121.62,0.02334
2115.83,0.02338
2110.05,0.02357
2104.26,0.02325
2098.47,0.02368
2092.69,0.02334
2086.9,0.02314
2081.12,0.02325
2075.33,0.02333
2069.54,0.02337
2063.76,0.02284
2057.97,0.02301
2052.19,0.02325
2046.4,0.02343
2040.61,0.02315
2034.83,0.02341
2029.04,0.02339
2023.25,0.02318
2017.47,0.02318
2011.68,0.02334
2005.9,0.02339
2000.11,0.02308
1994.32,0.02327
1988.54,0.02328
1982.75,0.02313
1976.96,0.02340
1971.18,0.02329
1965.39,0.02277
1959.61,0.02336
1953.82,0.02319
1948.03,0.02323
1942.25,0.02307
1936.46,0.02313
1930.67,0.02321
1924.89,0.02297
1919.1,0.02311
1913.32,0.02311
1907.53,0.02308
1901.74,0.02300
1895.96,0.02300
1890.17,0.02277
1884.38,0.02312
1878.6,0.02337
1872.81,0.02285
1867.03,0.02294
1861.24,0.02277
1855.45,0.02296
1849.67,0.02277
1843.88,0.02241
1838.09,0.02260
1832.31,0.02291
1826.52,0.02311
1820.74,0.02260
1814.95,0.02272
1809.16,0.02233
1803.38,0.02212
1797.59,0.02225
1791.8,0.02184
1786.02,0.02189
1780.23,0.02150
1774.45,0.02096
1768.66,0.02111
1762.87,0.02064
1757.09,0.01979
1751.3,0.01958
1745.51,0.01977
1739.73,0.02077
1733.94,0.02179
1728.16,0.02242
1722.37,0.02243
1716.58,0.02311
1710.8,0.02262
1705.01,0.02257
1699.22,0.02245
1693.44,0.02147
1687.65,0.02114
1681.87,0.02101
1676.08,0.02080
1670.29,0.02090
1664.51,0.02079
1658.72,0.02099
1652.93,0.02124
1647.15,0.02113
1641.36,0.02031
1635.58,0.02105
1629.79,0.02109
1624,0.02098
1618.22,0.02103
1612.43,0.02102
1606.64,0.02105
1600.86,0.02106
1595.07,0.02130
1589.29,0.02104
1583.5,0.02048
1577.71,0.02078
1571.93,0.02007
1566.14,0.02016
1560.35,0.02029
1554.57,0.02056
1548.78,0.02053
1543,0.02052
1537.21,0.02039
1531.42,0.02032
1525.64,0.02052
1519.85,0.02070
1514.07,0.02073
1508.28,0.02073
1502.49,0.02049
1496.71,0.02073
1490.92,0.02114
1485.13,0.02083
1479.35,0.02070
1473.56,0.02048
1467.78,0.02042
1461.99,0.02068
1456.2,0.02055
1450.42,0.02043
1444.63,0.02073
1438.84,0.02060
1433.06,0.02071
1427.27,0.02091
1421.49,0.02081
1415.7,0.02009
1409.91,0.02041
1404.13,0.02030
1398.34,0.02029
1392.55,0.01981
1386.77,0.01999
1380.98,0.02017
1375.2,0.02042
1369.41,0.02025
1363.62,0.02026
1357.84,0.02041
1352.05,0.02001
1346.26,0.01988
1340.48,0.01921
1334.69,0.01952
1328.91,0.01917
1323.12,0.01912
1317.33,0.01870
1311.55,0.01868
1305.76,0.01873
1299.97,0.01916
1294.19,0.01945
1288.4,0.01997
1282.62,0.02060
1276.83,0.02108
1271.04,0.02127
1265.26,0.02182
1259.47,0.02171
1253.68,0.02217
1247.9,0.02187
1242.11,0.02168
1236.33,0.02171
1230.54,0.02178
1224.75,0.02140
1218.97,0.02128
1213.18,0.02077
1207.39,0.02061
1201.61,0.02066
1195.82,0.02079
1190.04,0.02041
1184.25,0.02052
1178.46,0.02006
1172.68,0.02015
1166.89,0.01981
1161.1,0.01987
1155.32,0.01975
1149.53,0.01934
1143.75,0.01934
1137.96,0.01942
1132.17,0.01922
1126.39,0.02029
1120.6,0.02085
1114.81,0.02101
1109.03,0.02103
1103.24,0.02032
1097.46,0.01958
1091.67,0.02025
1085.88,0.02086
1080.1,0.02077
1074.31,0.02127
1068.52,0.02225
1062.74,0.02134
1056.95,0.02164
1051.17,0.02184
1045.38,0.02162
1039.59,0.02208
1033.81,0.02177
1028.02,0.02116
1022.24,0.02122
1016.45,0.02163
1010.66,0.02204
1004.88,0.02270
999.09,0.02377
993.304,0.02379
987.518,0.02323
981.731,0.02252
975.945,0.02231
970.159,0.02210
964.373,0.02344
958.586,0.02206
952.8,0.02182
947.014,0.02217
941.228,0.02271
935.441,0.02202
929.655,0.02187
923.869,0.02233
918.083,0.02193
912.297,0.02149
906.51,0.02160
900.724,0.02160
894.938,0.02119
889.152,0.02130
883.365,0.02114
877.579,0.02060
871.793,0.02194
866.007,0.02123
860.22,0.02142
854.434,0.02091
848.648,0.02096
842.862,0.02161
837.075,0.02076
831.289,0.02143
825.503,0.02124
819.717,0.02107
813.931,0.02052
808.144,0.02142
802.358,0.02116
796.572,0.02065
790.786,0.01956
784.999,0.02111
779.213,0.02079
773.427,0.02076
767.641,0.02074
761.854,0.02033
756.068,0.01948
750.282,0.01954
744.496,0.01985
738.709,0.02015
732.923,0.01932
727.137,0.02105
721.351,0.02014
715.565,0.02011
709.778,0.01999
703.992,0.02051
698.206,0.02043
692.42,0.02064
686.633,0.01958
680.847,0.01915
675.061,0.02121
669.275,0.01881
663.488,0.01870
657.702,0.01817
651.916,0.01919
646.13,0.01899
640.343,0.01910
634.557,0.01813
628.771,0.01889
622.985,0.01863
617.198,0.01775
611.412,0.01725
605.626,0.01664
599.84,0.01804