File: 01_Data/Cinder_Block/FTIR/IS/Cinder_Block_IS_S_221214_R1.dpt
7497.03,0.18839
7491.25,0.17983
7485.46,0.19140
7479.67,0.19072
7473.89,0.18797
7468.1,0.19936
7462.32,0.19068
7456.53,0.20462
7450.74,0.19702
7444.96,0.19642
7439.17,0.20193
7433.38,0.18886
7427.6,0.18598
7421.81,0.18228
7416.03,0.18747
7410.24,0.19389
7404.45,0.19356
7398.67,0.19256
7392.88,0.18802
7387.09,0.19336
7381.31,0.19413
7375.52,0.19659
7369.74,0.19864
7363.95,0.19391
7358.16,0.19138
7352.38,0.19306
7346.59,0.18928
7340.8,0.18777
7335.02,0.19302
7329.23,0.18778
7323.45,0.19050
7317.66,0.19189
7311.87,0.19587
7306.09,0.19604
7300.3,0.18857
7294.51,0.19128
7288.73,0.18880
7282.94,0.19902
7277.16,0.19981
7271.37,0.18584
7265.58,0.19000
7259.8,0.19049
7254.01,0.19510
7248.22,0.19544
7242.44,0.18948
7236.65,0.19239
7230.87,0.19131
7225.08,0.19379
7219.29,0.20017
7213.51,0.19813
7207.72,0.19297
7201.93,0.19021
7196.15,0.19295
7190.36,0.18998
7184.58,0.19250
7178.79,0.18711
7173,0.18603
7167.22,0.19119
7161.43,0.19060
7155.65,0.19443
7149.86,0.18965
7144.07,0.19090
7138.29,0.18909
7132.5,0.19367
7126.71,0.18569
7120.93,0.18894
7115.14,0.19274
7109.36,0.19322
7103.57,0.18891
7097.78,0.19773
7092,0.19577
7086.21,0.19204
7080.42,0.18715
7074.64,0.19154
7068.85,0.19189
7063.07,0.18223
7057.28,0.18850
7051.49,0.19127
7045.71,0.18688
7039.92,0.18544
7034.13,0.18764
7028.35,0.18984
7022.56,0.19160
7016.78,0.18694
7010.99,0.19190
7005.2,0.19139
6999.42,0.19412
6993.63,0.18600
6987.84,0.19568
6982.06,0.19672
6976.27,0.18875
6970.49,0.19202
6964.7,0.20187
6958.91,0.19119
6953.13,0.19074
6947.34,0.19019
6941.55,0.19502
6935.77,0.19187
6929.98,0.19086
6924.2,0.19421
6918.41,0.19420
6912.62,0.19445
6906.84,0.19298
6901.05,0.19196
6895.26,0.19510
6889.48,0.19265
6883.69,0.19029
6877.91,0.19023
6872.12,0.18553
6866.33,0.19413
6860.55,0.19310
6854.76,0.19320
6848.97,0.19065
6843.19,0.18922
6837.4,0.19478
6831.62,0.19849
6825.83,0.19546
6820.04,0.19148
6814.26,0.20021
6808.47,0.20067
6802.68,0.19913
6796.9,0.19746
6791.11,0.19420
6785.33,0.19335
6779.54,0.19301
6773.75,0.19031
6767.97,0.19319
6762.18,0.19595
6756.39,0.19137
6750.61,0.19710
6744.82,0.19295
6739.04,0.19638
6733.25,0.19607
6727.46,0.19596
6721.68,0.19496
6715.89,0.19477
6710.1,0.19589
6704.32,0.18810
6698.53,0.19452
6692.75,0.19298
6686.96,0.19309
6681.17,0.19748
6675.39,0.19282
6669.6,0.19036
6663.82,0.19721
6658.03,0.20026
6652.24,0.19037
6646.46,0.19129
6640.67,0.19623
6634.88,0.19084
6629.1,0.19610
6623.31,0.19681
6617.53,0.19449
6611.74,0.18944
6605.95,0.19525
6600.17,0.19576
6594.38,0.19488
6588.59,0.19338
6582.81,0.19437
6577.02,0.19469
6571.24,0.19374
6565.45,0.19447
6559.66,0.19719
6553.88,0.19536
6548.09,0.19985
6542.3,0.19058
6536.52,0.19445
6530.73,0.20114
6524.95,0.19986
6519.16,0.19361
6513.37,0.19304
6507.59,0.19208
6501.8,0.19227
6496.01,0.19403
6490.23,0.19830
6484.44,0.19728
6478.66,0.19496
6472.87,0.19394
6467.08,0.19627
6461.3,0.19706
6455.51,0.20031
6449.72,0.20034
6443.94,0.19451
6438.15,0.19354
6432.37,0.19450
6426.58,0.19322
6420.79,0.19443
6415.01,0.19593
6409.22,0.19729
6403.43,0.19412
6397.65,0.19301
6391.86,0.19290
6386.08,0.19798
6380.29,0.19388
6374.5,0.19581
6368.72,0.19333
6362.93,0.19346
6357.14,0.19519
6351.36,0.19353
6345.57,0.19334
6339.79,0.19646
6334,0.19177
6328.21,0.19642
6322.43,0.19667
6316.64,0.19387
6310.85,0.19375
6305.07,0.19626
6299.28,0.19356
6293.5,0.19745
6287.71,0.19417
6281.92,0.19568
6276.14,0.19379
6270.35,0.20030
6264.56,0.19671
6258.78,0.19805
6252.99,0.19346
6247.21,0.19880
6241.42,0.19649
6235.63,0.19626
6229.85,0.19771
6224.06,0.19792
6218.27,0.19711
6212.49,0.19665
6206.7,0.19383
6200.92,0.19366
6195.13,0.19934
6189.34,0.19443
6183.56,0.19444
6177.77,0.19116
6171.98,0.19904
6166.2,0.19754
6160.41,0.19834
6154.63,0.19595
6148.84,0.19316
6143.05,0.19523
6137.27,0.19356
6131.48,0.19754
6125.7,0.19759
6119.91,0.19542
6114.12,0.19524
6108.34,0.19604
6102.55,0.19769
6096.76,0.19635
6090.98,0.19895
6085.19,0.19838
6079.41,0.19688
6073.62,0.19891
6067.83,0.19651
6062.05,0.19377
6056.26,0.19398
6050.47,0.19547
6044.69,0.19597
6038.9,0.19658
6033.12,0.19812
6027.33,0.19574
6021.54,0.19943
6015.76,0.19759
6009.97,0.19681
6004.18,0.19578
5998.4,0.19737
5992.61,0.20020
5986.83,0.19877
5981.04,0.20062
5975.25,0.19792
5969.47,0.19536
5963.68,0.19951
5957.89,0.19957
5952.11,0.19680
5946.32,0.19430
5940.54,0.19581
5934.75,0.19795
5928.96,0.19623
5923.18,0.19681
5917.39,0.19492
5911.6,0.19402
5905.82,0.19613
5900.03,0.19805
5894.25,0.19741
5888.46,0.19744
5882.67,0.19767
5876.89,0.19822
5871.1,0.19606
5865.31,0.19579
5859.53,0.19912
5853.74,0.19585
5847.96,0.19830
5842.17,0.19739
5836.38,0.19683
5830.6,0.19589
5824.81,0.19610
5819.02,0.19829
5813.24,0.19831
5807.45,0.19565
5801.67,0.19709
5795.88,0.19599
5790.09,0.19786
5784.31,0.19898
5778.52,0.19811
5772.73,0.19757
5766.95,0.19686
5761.16,0.19855
5755.38,0.19766
5749.59,0.19620
5743.8,0.19743
5738.02,0.19788
5732.23,0.19853
5726.44,0.19686
5720.66,0.19675
5714.87,0.19693
5709.09,0.19794
5703.3,0.19809
5697.51,0.19791
5691.73,0.19726
5685.94,0.19780
5680.15,0.19820
5674.37,0.19755
5668.58,0.19900
5662.8,0.19786
5657.01,0.19717
5651.22,0.19912
5645.44,0.19754
5639.65,0.19724
5633.87,0.19821
5628.08,0.19722
5622.29,0.19784
5616.51,0.19875
5610.72,0.19726
5604.93,0.19690
5599.15,0.19775
5593.36,0.19722
5587.58,0.19757
5581.79,0.19758
5576,0.19762
5570.22,0.19872
5564.43,0.19695
5558.64,0.19756
5552.86,0.19769
5547.07,0.19590
5541.29,0.19699
5535.5,0.19682
5529.71,0.19774
5523.93,0.19775
5518.14,0.19835
5512.35,0.19751
5506.57,0.19835
5500.78,0.19712
5495,0.19774
5489.21,0.19873
5483.42,0.19807
5477.64,0.19739
5471.85,0.19705
5466.06,0.19895
5460.28,0.19760
5454.49,0.19871
5448.71,0.19990
5442.92,0.19717
5437.13,0.19854
5431.35,0.19697
5425.56,0.19806
5419.77,0.19870
5413.99,0.19799
5408.2,0.19833
5402.42,0.19903
5396.63,0.19739
5390.84,0.19735
5385.06,0.19832
5379.27,0.19750
5373.48,0.19779
5367.7,0.19788
5361.91,0.19844
5356.13,0.19716
5350.34,0.19597
5344.55,0.19788
5338.77,0.19724
5332.98,0.19709
5327.19,0.19691
5321.41,0.19513
5315.62,0.19493
5309.84,0.19409
5304.05,0.19447
5298.26,0.19549
5292.48,0.19538
5286.69,0.19443
5280.9,0.19327
5275.12,0.19300
5269.33,0.19031
5263.55,0.18943
5257.76,0.19009
5251.97,0.18913
5246.19,0.19004
5240.4,0.18991
5234.61,0.18832
5228.83,0.18896
5223.04,0.18817
5217.26,0.18536
5211.47,0.18718
5205.68,0.18664
5199.9,0.18578
5194.11,0.18600
5188.32,0.18518
5182.54,0.18583
5176.75,0.18588
5170.97,0.18629
5165.18,0.18551
5159.39,0.18653
5153.61,0.18648
5147.82,0.18642
5142.03,0.18635
5136.25,0.18702
5130.46,0.18573
5124.68,0.18808
5118.89,0.18745
5113.1,0.18769
5107.32,0.18775
5101.53,0.18678
5095.75,0.18758
5089.96,0.18726
5084.17,0.18835
5078.39,0.18884
5072.6,0.18928
5066.81,0.18787
5061.03,0.18733
5055.24,0.18926
5049.46,0.18862
5043.67,0.19032
5037.88,0.18880
5032.1,0.18865
5026.31,0.18992
5020.52,0.19032
5014.74,0.19073
5008.95,0.18966
5003.17,0.18957
4997.38,0.19014
4991.59,0.19213
4985.81,0.19165
4980.02,0.19219
4974.23,0.19177
4968.45,0.19111
4962.66,0.19175
4956.88,0.19060
4951.09,0.19284
4945.3,0.19179
4939.52,0.19257
4933.73,0.19264
4927.94,0.19192
4922.16,0.19275
4916.37,0.19260
4910.59,0.19293
4904.8,0.19209
4899.01,0.19258
4893.23,0.19302
4887.44,0.19336
4881.65,0.19220
4875.87,0.19226
4870.08,0.19304
4864.3,0.19377
4858.51,0.19329
4852.72,0.19358
4846.94,0.19419
4841.15,0.19403
4835.36,0.19334
4829.58,0.19406
4823.79,0.19365
4818.01,0.19299
4812.22,0.19262
4806.43,0.19331
4800.65,0.19333
4794.86,0.19374
4789.07,0.19382
4783.29,0.19381
4777.5,0.19386
4771.72,0.19448
4765.93,0.19336
4760.14,0.19319
4754.36,0.19366
4748.57,0.19397
4742.78,0.19351
4737,0.19415
4731.21,0.19389
4725.43,0.19464
4719.64,0.19500
4713.85,0.19407
4708.07,0.19456
4702.28,0.19433
4696.49,0.19353
4690.71,0.19343
4684.92,0.19435
4679.14,0.19386
4673.35,0.19522
4667.56,0.19561
4661.78,0.19432
4655.99,0.19380
4650.2,0.19371
4644.42,0.19483
4638.63,0.19473
4632.85,0.19421
4627.06,0.19405
4621.27,0.19411
4615.49,0.19372
4609.7,0.19369
4603.92,0.19532
4598.13,0.19390
4592.34,0.19397
4586.56,0.19392
4580.77,0.19412
4574.98,0.19420
4569.2,0.19413
4563.41,0.19370
4557.63,0.19315
4551.84,0.19300
4546.05,0.19351
4540.27,0.19264
4534.48,0.19291
4528.69,0.19293
4522.91,0.19167
4517.12,0.19136
4511.34,0.19090
4505.55,0.19130
4499.76,0.19144
4493.98,0.19145
4488.19,0.19145
4482.4,0.19157
4476.62,0.19115
4470.83,0.19212
4465.05,0.19190
4459.26,0.19263
4453.47,0.19174
4447.69,0.19130
4441.9,0.19117
4436.11,0.19212
4430.33,0.19093
4424.54,0.19019
4418.76,0.19065
4412.97,0.19052
4407.18,0.19023
4401.4,0.19019
4395.61,0.18999
4389.82,0.18952
4384.04,0.19033
4378.25,0.18948
4372.47,0.18955
4366.68,0.18925
4360.89,0.18901
4355.11,0.18893
4349.32,0.18909
4343.53,0.18752
4337.75,0.18718
4331.96,0.18732
4326.18,0.18731
4320.39,0.18692
4314.6,0.18727
4308.82,0.18699
4303.03,0.18636
4297.24,0.18544
4291.46,0.18542
4285.67,0.18474
4279.89,0.18313
4274.1,0.18351
4268.31,0.18410
4262.53,0.18382
4256.74,0.18428
4250.95,0.18462
4245.17,0.18555
4239.38,0.18583
4233.6,0.18617
4227.81,0.18721
4222.02,0.18731
4216.24,0.18722
4210.45,0.18691
4204.66,0.18671
4198.88,0.18632
4193.09,0.18616
4187.31,0.18721
4181.52,0.18645
4175.73,0.18605
4169.95,0.18646
4164.16,0.18564
4158.37,0.18491
4152.59,0.18434
4146.8,0.18389
4141.02,0.18408
4135.23,0.18306
4129.44,0.18369
4123.66,0.18285
4117.87,0.18255
4112.09,0.18237
4106.3,0.18130
4100.51,0.18120
4094.73,0.18015
4088.94,0.18034
4083.15,0.17942
4077.37,0.17882
4071.58,0.17896
4065.8,0.17784
4060.01,0.17761
4054.22,0.17628
4048.44,0.17595
4042.65,0.17512
4036.86,0.17437
4031.08,0.17422
4025.29,0.17363
4019.51,0.17290
4013.72,0.17245
4007.93,0.17233
4002.15,0.17126
3996.36,0.17220
3990.57,0.17120
3984.79,0.17078
3979,0.17132
3973.22,0.17024
3967.43,0.16967
3961.64,0.16921
3955.86,0.16795
3950.07,0.16724
3944.28,0.16694
3938.5,0.16769
3932.71,0.16801
3926.93,0.17012
3921.14,0.17079
3915.35,0.17181
3909.57,0.17301
3903.78,0.17429
3897.99,0.17414
3892.21,0.17519
3886.42,0.17559
3880.64,0.17499
3874.85,0.17532
3869.06,0.17573
3863.28,0.17526
3857.49,0.17513
3851.7,0.17454
3845.92,0.17551
3840.13,0.17529
3834.35,0.17459
3828.56,0.17471
3822.77,0.17426
3816.99,0.17333
3811.2,0.17332
3805.41,0.17287
3799.63,0.17282
3793.84,0.17174
3788.06,0.17090
3782.27,0.17130
3776.48,0.17021
3770.7,0.16957
3764.91,0.16857
3759.12,0.16707
3753.34,0.16529
3747.55,0.16425
3741.77,0.16242
3735.98,0.15940
3730.19,0.15634
3724.41,0.15161
3718.62,0.14683
3712.83,0.14039
3707.05,0.13539
3701.26,0.13019
3695.48,0.12489
3689.69,0.11988
3683.9,0.11396
3678.12,0.10825
3672.33,0.10132
3666.54,0.09510
3660.76,0.08954
3654.97,0.08457
3649.19,0.07936
3643.4,0.07424
3637.61,0.07071
3631.83,0.06715
3626.04,0.06494
3620.25,0.06304
3614.47,0.06081
3608.68,0.05972
3602.9,0.05924
3597.11,0.05867
3591.32,0.05842
3585.54,0.05729
3579.75,0.05684
3573.97,0.05618
3568.18,0.05625
3562.39,0.05516
3556.61,0.05435
3550.82,0.05429
3545.03,0.05335
3539.25,0.05287
3533.46,0.05307
3527.68,0.05234
3521.89,0.05171
3516.1,0.05129
3510.32,0.05134
3504.53,0.05081
3498.74,0.05089
3492.96,0.04997
3487.17,0.05011
3481.39,0.05021
3475.6,0.04917
3469.81,0.05017
3464.03,0.04961
3458.24,0.04929
3452.45,0.04892
3446.67,0.04837
3440.88,0.04896
3435.1,0.04866
3429.31,0.04812
3423.52,0.04783
3417.74,0.04775
3411.95,0.04818
3406.16,0.04869
3400.38,0.04732
3394.59,0.04787
3388.81,0.04785
3383.02,0.04765
3377.23,0.04850
3371.45,0.04824
3365.66,0.04740
3359.87,0.04880
3354.09,0.04840
3348.3,0.04858
3342.52,0.04849
3336.73,0.04909
3330.94,0.04930
3325.16,0.04966
3319.37,0.04949
3313.58,0.04901
3307.8,0.04981
3302.01,0.05040
3296.23,0.05012
3290.44,0.05017
3284.65,0.05069
3278.87,0.05133
3273.08,0.05106
3267.29,0.05165
3261.51,0.05189
3255.72,0.05229
3249.94,0.05254
3244.15,0.05225
3238.36,0.05259
3232.58,0.05324
3226.79,0.05387
3221,0.05362
3215.22,0.05427
3209.43,0.05463
3203.65,0.05537
3197.86,0.05581
3192.07,0.05541
3186.29,0.05667
3180.5,0.05717
3174.71,0.05825
3168.93,0.05778
3163.14,0.05925
3157.36,0.05999
3151.57,0.06051
3145.78,0.06008
3140,0.06055
3134.21,0.06156
3128.42,0.06128
3122.64,0.06230
3116.85,0.06266
3111.07,0.06324
3105.28,0.06360
3099.49,0.06367
3093.71,0.06402
3087.92,0.06406
3082.14,0.06387
3076.35,0.06498
3070.56,0.06506
3064.78,0.06555
3058.99,0.06546
3053.2,0.06623
3047.42,0.06621
3041.63,0.06693
3035.85,0.06654
3030.06,0.06684
3024.27,0.06709
3018.49,0.06638
3012.7,0.06601
3006.91,0.06522
3001.13,0.06524
2995.34,0.06271
2989.56,0.05970
2983.77,0.05876
2977.98,0.05861
2972.2,0.05929
2966.41,0.05938
2960.62,0.05926
2954.84,0.05944
2949.05,0.05949
2943.27,0.05940
2937.48,0.05936
2931.69,0.05954
2925.91,0.05910
2920.12,0.05895
2914.33,0.06017
2908.55,0.06067
2902.76,0.06116
2896.98,0.06075
2891.19,0.06103
2885.4,0.05984
2879.62,0.05734
2873.83,0.05663
2868.04,0.05792
2862.26,0.05962
2856.47,0.06051
2850.69,0.06263
2844.9,0.06581
2839.11,0.07023
2833.33,0.07411
2827.54,0.07672
2821.75,0.07912
2815.97,0.08164
2810.18,0.08280
2804.4,0.08358
2798.61,0.08455
2792.82,0.08577
2787.04,0.08764
2781.25,0.08850
2775.46,0.08933
2769.68,0.09056
2763.89,0.09117
2758.11,0.09163
2752.32,0.09259
2746.53,0.09294
2740.75,0.09352
2734.96,0.09420
2729.17,0.09483
2723.39,0.09474
2717.6,0.09533
2711.82,0.09605
2706.03,0.09663
2700.24,0.09626
2694.46,0.09720
2688.67,0.09755
2682.88,0.09784
2677.1,0.09742
2671.31,0.09769
2665.53,0.09719
2659.74,0.09666
2653.95,0.09600
2648.17,0.09501
2642.38,0.09322
2636.59,0.09056
2630.81,0.08712
2625.02,0.08325
2619.24,0.08042
2613.45,0.07827
2607.66,0.07555
2601.88,0.07389
2596.09,0.07272
2590.3,0.07168
2584.52,0.07169
2578.73,0.07089
2572.95,0.07063
2567.16,0.06979
2561.37,0.06922
2555.59,0.06794
2549.8,0.06671
2544.02,0.06507
2538.23,0.06244
2532.44,0.05818
2526.66,0.05423
2520.87,0.05229
2515.08,0.05130
2509.3,0.05261
2503.51,0.05586
2497.73,0.06131
2491.94,0.06702
2486.15,0.07244
2480.37,0.07750
2474.58,0.08294
2468.79,0.08733
2463.01,0.09130
2457.22,0.09452
2451.44,0.09632
2445.65,0.09791
2439.86,0.09948
2434.08,0.10057
2428.29,0.10120
2422.5,0.10225
2416.72,0.10262
2410.93,0.10320
2405.15,0.10351
2399.36,0.10382
2393.57,0.10367
2387.79,0.10389
2382,0.10403
2376.21,0.10409
2370.43,0.10382
2364.64,0.10388
2358.86,0.10288
2353.07,0.10269
2347.28,0.10275
2341.5,0.10222
2335.71,0.10256
2329.92,0.10179
2324.14,0.10130
2318.35,0.10058
2312.57,0.10027
2306.78,0.09945
2300.99,0.09949
2295.21,0.09950
2289.42,0.09934
2283.63,0.09874
2277.85,0.09830
2272.06,0.09792
2266.28,0.09707
2260.49,0.09616
2254.7,0.09573
2248.92,0.09522
2243.13,0.09492
2237.34,0.09381
2231.56,0.09302
2225.77,0.09263
2219.99,0.09218
2214.2,0.09186
2208.41,0.09132
2202.63,0.09133
2196.84,0.09122
2191.05,0.09117
2185.27,0.09041
2179.48,0.08999
2173.7,0.08993
2167.91,0.08864
2162.12,0.08723
2156.34,0.08608
2150.55,0.08369
2144.76,0.08270
2138.98,0.08232
2133.19,0.08284
2127.41,0.08420
2121.62,0.08611
2115.83,0.08797
2110.05,0.08836
2104.26,0.08893
2098.47,0.08958
2092.69,0.08955
2086.9,0.08952
2081.12,0.08943
2075.33,0.08908
2069.54,0.08870
2063.76,0.08880
2057.97,0.08809
2052.19,0.08741
2046.4,0.08663
2040.61,0.08631
2034.83,0.08531
2029.04,0.08465
2023.25,0.08443
2017.47,0.08340
2011.68,0.08267
2005.9,0.08210
2000.11,0.08137
1994.32,0.08116
1988.54,0.08058
1982.75,0.08036
1976.96,0.07979
1971.18,0.07921
1965.39,0.07833
1959.61,0.07718
1953.82,0.07823
1948.03,0.07776
1942.25,0.07737
1936.46,0.07730
1930.67,0.07688
1924.89,0.07601
1919.1,0.07557
1913.32,0.07468
1907.53,0.07325
1901.74,0.07196
1895.96,0.07071
1890.17,0.06930
1884.38,0.06876
1878.6,0.06737
1872.81,0.06639
1867.03,0.06580
1861.24,0.06515
1855.45,0.06482
1849.67,0.06432
1843.88,0.06322
1838.09,0.06194
1832.31,0.05953
1826.52,0.05688
1820.74,0.05400
1814.95,0.05116
1809.16,0.04670
1803.38,0.03930
1797.59,0.03397
1791.8,0.03538
1786.02,0.04086
1780.23,0.04539
1774.45,0.04789
1768.66,0.04779
1762.87,0.04706
1757.09,0.04647
1751.3,0.04522
1745.51,0.04388
1739.73,0.04282
1733.94,0.04246
1728.16,0.04221
1722.37,0.04172
1716.58,0.04141
1710.8,0.04085
1705.01,0.03962
1699.22,0.03839
1693.44,0.03650
1687.65,0.03487
1681.87,0.03462
1676.08,0.03412
1670.29,0.03380
1664.51,0.03345
1658.72,0.03297
1652.93,0.03318
1647.15,0.03281
1641.36,0.03319
1635.58,0.03313
1629.79,0.03364
1624,0.03484
1618.22,0.03588
1612.43,0.03817
1606.64,0.03925
1600.86,0.04071
1595.07,0.04209
1589.29,0.04354
1583.5,0.04641
1577.71,0.05212
1571.93,0.05864
1566.14,0.06468
1560.35,0.07028
1554.57,0.07664
1548.78,0.08167
1543,0.08495
1537.21,0.08852
1531.42,0.09087
1525.64,0.09176
1519.85,0.09228
1514.07,0.09167
1508.28,0.09097
1502.49,0.09072
1496.71,0.09069
1490.92,0.09056
1485.13,0.09051
1479.35,0.08997
1473.56,0.08938
1467.78,0.08961
1461.99,0.08938
1456.2,0.08912
1450.42,0.08891
1444.63,0.08854
1438.84,0.08921
1433.06,0.09053
1427.27,0.09306
1421.49,0.09628
1415.7,0.10017
1409.91,0.10334
1404.13,0.10014
1398.34,0.09524
1392.55,0.09142
1386.77,0.08767
1380.98,0.08471
1375.2,0.08292
1369.41,0.08281
1363.62,0.08314
1357.84,0.08419
1352.05,0.08482
1346.26,0.08490
1340.48,0.08507
1334.69,0.08496
1328.91,0.08469
1323.12,0.08364
1317.33,0.08309
1311.55,0.08435
1305.76,0.08552
1299.97,0.08659
1294.19,0.08739
1288.4,0.08665
1282.62,0.08610
1276.83,0.08600
1271.04,0.08557
1265.26,0.08460
1259.47,0.08456
1253.68,0.08423
1247.9,0.08275
1242.11,0.08127
1236.33,0.07995
1230.54,0.07944
1224.75,0.07822
1218.97,0.07700
1213.18,0.07495
1207.39,0.07198
1201.61,0.06909
1195.82,0.06746
1190.04,0.06480
1184.25,0.06342
1178.46,0.06224
1172.68,0.06117
1166.89,0.05999
1161.1,0.05907
1155.32,0.06042
1149.53,0.06140
1143.75,0.06091
1137.96,0.06079
1132.17,0.06071
1126.39,0.06008
1120.6,0.05878
1114.81,0.05722
1109.03,0.05558
1103.24,0.05365
1097.46,0.05251
1091.67,0.05192
1085.88,0.05110
1080.1,0.05088
1074.31,0.05075
1068.52,0.05019
1062.74,0.04908
1056.95,0.04822
1051.17,0.04832
1045.38,0.04723
1039.59,0.04742
1033.81,0.04682
1028.02,0.04630
1022.24,0.04583
1016.45,0.04660
1010.66,0.04638
1004.88,0.04612
999.09,0.04621
993.304,0.04601
987.518,0.04614
981.731,0.04618
975.945,0.04557
970.159,0.04580
964.373,0.04569
958.586,0.04643
952.8,0.04657
947.014,0.04666
941.228,0.04651
935.441,0.04608
929.655,0.04567
923.869,0.04518
918.083,0.04511
912.297,0.04488
906.51,0.04539
900.724,0.04651
894.938,0.04854
889.152,0.05057
883.365,0.04414
877.579,0.05253
871.793,0.06401
866.007,0.05826
860.22,0.05254
854.434,0.04881
848.648,0.04604
842.862,0.04712
837.075,0.04579
831.289,0.04512
825.503,0.04434
819.717,0.04433
813.931,0.04441
808.144,0.04352
802.358,0.04239
796.572,0.04233
790.786,0.04300
784.999,0.04226
779.213,0.04234
773.427,0.04154
767.641,0.04157
761.854,0.04073
756.068,0.04033
750.282,0.03970
744.496,0.03960
738.709,0.03844
732.923,0.03671
727.137,0.03619
721.351,0.03402
715.565,0.03208
709.778,0.03913
703.992,0.03957
698.206,0.03952
692.42,0.03868
686.633,0.03778
680.847,0.03862
675.061,0.03927
669.275,0.03908
663.488,0.03764
657.702,0.03650
651.916,0.03588
646.13,0.03398
640.343,0.03556
634.557,0.03470
628.771,0.03481
622.985,0.03474
617.198,0.03321
611.412,0.03638
605.626,0.03537
599.84,0.03486