File: 01_Data/Cinder_Block/FTIR/IS/Cinder_Block_IS_S_221214_R3.dpt
7497.03,0.19425
7491.25,0.19425
7485.46,0.19494
7479.67,0.19520
7473.89,0.18445
7468.1,0.18749
7462.32,0.20066
7456.53,0.19061
7450.74,0.19082
7444.96,0.19579
7439.17,0.19340
7433.38,0.19206
7427.6,0.20071
7421.81,0.18381
7416.03,0.19725
7410.24,0.19221
7404.45,0.19666
7398.67,0.19306
7392.88,0.18840
7387.09,0.18374
7381.31,0.18950
7375.52,0.19658
7369.74,0.19489
7363.95,0.18765
7358.16,0.19396
7352.38,0.19860
7346.59,0.20441
7340.8,0.19078
7335.02,0.18373
7329.23,0.19306
7323.45,0.18968
7317.66,0.18961
7311.87,0.19250
7306.09,0.19060
7300.3,0.19458
7294.51,0.19223
7288.73,0.19513
7282.94,0.19295
7277.16,0.19346
7271.37,0.18631
7265.58,0.18539
7259.8,0.19134
7254.01,0.18930
7248.22,0.19275
7242.44,0.19260
7236.65,0.19927
7230.87,0.18967
7225.08,0.19199
7219.29,0.19930
7213.51,0.19341
7207.72,0.19713
7201.93,0.19634
7196.15,0.18413
7190.36,0.19224
7184.58,0.18959
7178.79,0.18585
7173,0.18841
7167.22,0.19233
7161.43,0.19462
7155.65,0.19694
7149.86,0.19545
7144.07,0.19309
7138.29,0.19435
7132.5,0.19214
7126.71,0.19236
7120.93,0.19854
7115.14,0.18743
7109.36,0.18501
7103.57,0.19165
7097.78,0.19117
7092,0.19418
7086.21,0.19204
7080.42,0.19272
7074.64,0.19824
7068.85,0.19249
7063.07,0.18522
7057.28,0.18687
7051.49,0.19001
7045.71,0.19170
7039.92,0.19350
7034.13,0.19619
7028.35,0.19036
7022.56,0.19520
7016.78,0.19245
7010.99,0.19387
7005.2,0.19391
6999.42,0.19137
6993.63,0.19557
6987.84,0.19400
6982.06,0.19408
6976.27,0.19590
6970.49,0.19724
6964.7,0.19417
6958.91,0.19480
6953.13,0.19744
6947.34,0.19142
6941.55,0.19525
6935.77,0.18836
6929.98,0.19338
6924.2,0.19214
6918.41,0.19537
6912.62,0.19175
6906.84,0.19383
6901.05,0.19332
6895.26,0.19764
6889.48,0.19324
6883.69,0.18925
6877.91,0.19448
6872.12,0.18959
6866.33,0.18594
6860.55,0.19513
6854.76,0.19813
6848.97,0.19489
6843.19,0.19829
6837.4,0.19554
6831.62,0.19886
6825.83,0.19636
6820.04,0.19153
6814.26,0.19348
6808.47,0.19900
6802.68,0.19653
6796.9,0.19270
6791.11,0.19301
6785.33,0.19235
6779.54,0.19312
6773.75,0.19231
6767.97,0.19528
6762.18,0.18856
6756.39,0.19403
6750.61,0.19386
6744.82,0.19058
6739.04,0.19238
6733.25,0.19734
6727.46,0.19874
6721.68,0.19406
6715.89,0.19330
6710.1,0.19525
6704.32,0.19917
6698.53,0.19662
6692.75,0.19669
6686.96,0.19310
6681.17,0.19556
6675.39,0.19918
6669.6,0.19838
6663.82,0.18831
6658.03,0.18954
6652.24,0.19292
6646.46,0.19100
6640.67,0.19293
6634.88,0.19469
6629.1,0.19358
6623.31,0.19496
6617.53,0.19841
6611.74,0.19762
6605.95,0.19515
6600.17,0.19687
6594.38,0.19779
6588.59,0.19605
6582.81,0.19541
6577.02,0.19384
6571.24,0.19506
6565.45,0.19451
6559.66,0.19413
6553.88,0.19261
6548.09,0.19738
6542.3,0.19609
6536.52,0.19548
6530.73,0.19744
6524.95,0.19431
6519.16,0.19479
6513.37,0.19496
6507.59,0.19367
6501.8,0.19337
6496.01,0.19850
6490.23,0.19997
6484.44,0.19865
6478.66,0.19475
6472.87,0.19415
6467.08,0.19642
6461.3,0.19905
6455.51,0.19607
6449.72,0.19413
6443.94,0.19524
6438.15,0.19738
6432.37,0.19285
6426.58,0.19133
6420.79,0.19847
6415.01,0.19636
6409.22,0.19706
6403.43,0.19704
6397.65,0.19816
6391.86,0.19772
6386.08,0.19777
6380.29,0.19833
6374.5,0.19376
6368.72,0.19584
6362.93,0.19463
6357.14,0.19533
6351.36,0.19149
6345.57,0.19267
6339.79,0.19443
6334,0.19883
6328.21,0.19578
6322.43,0.19659
6316.64,0.19773
6310.85,0.19924
6305.07,0.19509
6299.28,0.19440
6293.5,0.19822
6287.71,0.19803
6281.92,0.19415
6276.14,0.19731
6270.35,0.19921
6264.56,0.19938
6258.78,0.19529
6252.99,0.19640
6247.21,0.19557
6241.42,0.19398
6235.63,0.19881
6229.85,0.20126
6224.06,0.19496
6218.27,0.19743
6212.49,0.19966
6206.7,0.19345
6200.92,0.19670
6195.13,0.19632
6189.34,0.19522
6183.56,0.19600
6177.77,0.19674
6171.98,0.19604
6166.2,0.19544
6160.41,0.19714
6154.63,0.19689
6148.84,0.19535
6143.05,0.19747
6137.27,0.19662
6131.48,0.19863
6125.7,0.19445
6119.91,0.19988
6114.12,0.19634
6108.34,0.19516
6102.55,0.19575
6096.76,0.19448
6090.98,0.19543
6085.19,0.19470
6079.41,0.19655
6073.62,0.19793
6067.83,0.19732
6062.05,0.19674
6056.26,0.19710
6050.47,0.19758
6044.69,0.19539
6038.9,0.19773
6033.12,0.19645
6027.33,0.19785
6021.54,0.19465
6015.76,0.19931
6009.97,0.19939
6004.18,0.19633
5998.4,0.19542
5992.61,0.19532
5986.83,0.19615
5981.04,0.19625
5975.25,0.19518
5969.47,0.19707
5963.68,0.19677
5957.89,0.20091
5952.11,0.19570
5946.32,0.19748
5940.54,0.19755
5934.75,0.19719
5928.96,0.19500
5923.18,0.19645
5917.39,0.19875
5911.6,0.19742
5905.82,0.19802
5900.03,0.19909
5894.25,0.19867
5888.46,0.20068
5882.67,0.19456
5876.89,0.19997
5871.1,0.20130
5865.31,0.19836
5859.53,0.19849
5853.74,0.19793
5847.96,0.19826
5842.17,0.19905
5836.38,0.19822
5830.6,0.19757
5824.81,0.19665
5819.02,0.19620
5813.24,0.19763
5807.45,0.19750
5801.67,0.19941
5795.88,0.19863
5790.09,0.19832
5784.31,0.19518
5778.52,0.19747
5772.73,0.19852
5766.95,0.19657
5761.16,0.19882
5755.38,0.19772
5749.59,0.19754
5743.8,0.19702
5738.02,0.19748
5732.23,0.19957
5726.44,0.19896
5720.66,0.19824
5714.87,0.19797
5709.09,0.19808
5703.3,0.19812
5697.51,0.19811
5691.73,0.19634
5685.94,0.19856
5680.15,0.19789
5674.37,0.19830
5668.58,0.19858
5662.8,0.19792
5657.01,0.19739
5651.22,0.19627
5645.44,0.19746
5639.65,0.19828
5633.87,0.19744
5628.08,0.19776
5622.29,0.19853
5616.51,0.20077
5610.72,0.19942
5604.93,0.19750
5599.15,0.19947
5593.36,0.19776
5587.58,0.19755
5581.79,0.19777
5576,0.19889
5570.22,0.19892
5564.43,0.19731
5558.64,0.19861
5552.86,0.19898
5547.07,0.20109
5541.29,0.19736
5535.5,0.19878
5529.71,0.19687
5523.93,0.19640
5518.14,0.19798
5512.35,0.19958
5506.57,0.19913
5500.78,0.19855
5495,0.19727
5489.21,0.19851
5483.42,0.19784
5477.64,0.19833
5471.85,0.19699
5466.06,0.19822
5460.28,0.19717
5454.49,0.19878
5448.71,0.19710
5442.92,0.19725
5437.13,0.19842
5431.35,0.19807
5425.56,0.19815
5419.77,0.19920
5413.99,0.19933
5408.2,0.19797
5402.42,0.19817
5396.63,0.19740
5390.84,0.19776
5385.06,0.19759
5379.27,0.19875
5373.48,0.19762
5367.7,0.19812
5361.91,0.19826
5356.13,0.19940
5350.34,0.19616
5344.55,0.19744
5338.77,0.19824
5332.98,0.19759
5327.19,0.19718
5321.41,0.19820
5315.62,0.19718
5309.84,0.19639
5304.05,0.19542
5298.26,0.19427
5292.48,0.19476
5286.69,0.19549
5280.9,0.19530
5275.12,0.19432
5269.33,0.19271
5263.55,0.19263
5257.76,0.19091
5251.97,0.19157
5246.19,0.18949
5240.4,0.18995
5234.61,0.18965
5228.83,0.18778
5223.04,0.18770
5217.26,0.18829
5211.47,0.18890
5205.68,0.18874
5199.9,0.18786
5194.11,0.18665
5188.32,0.18831
5182.54,0.18811
5176.75,0.18677
5170.97,0.18706
5165.18,0.18581
5159.39,0.18711
5153.61,0.18700
5147.82,0.18712
5142.03,0.18751
5136.25,0.18830
5130.46,0.18836
5124.68,0.18832
5118.89,0.18835
5113.1,0.18883
5107.32,0.18851
5101.53,0.18934
5095.75,0.18980
5089.96,0.18958
5084.17,0.19015
5078.39,0.19038
5072.6,0.18978
5066.81,0.18949
5061.03,0.19010
5055.24,0.19080
5049.46,0.19024
5043.67,0.19016
5037.88,0.19143
5032.1,0.19156
5026.31,0.19074
5020.52,0.19097
5014.74,0.19087
5008.95,0.19264
5003.17,0.19125
4997.38,0.19288
4991.59,0.19177
4985.81,0.19221
4980.02,0.19170
4974.23,0.19127
4968.45,0.19329
4962.66,0.19373
4956.88,0.19261
4951.09,0.19239
4945.3,0.19249
4939.52,0.19423
4933.73,0.19355
4927.94,0.19290
4922.16,0.19295
4916.37,0.19407
4910.59,0.19376
4904.8,0.19460
4899.01,0.19303
4893.23,0.19364
4887.44,0.19464
4881.65,0.19497
4875.87,0.19470
4870.08,0.19416
4864.3,0.19329
4858.51,0.19334
4852.72,0.19395
4846.94,0.19473
4841.15,0.19405
4835.36,0.19479
4829.58,0.19379
4823.79,0.19413
4818.01,0.19291
4812.22,0.19405
4806.43,0.19580
4800.65,0.19425
4794.86,0.19541
4789.07,0.19432
4783.29,0.19490
4777.5,0.19489
4771.72,0.19480
4765.93,0.19441
4760.14,0.19442
4754.36,0.19500
4748.57,0.19534
4742.78,0.19466
4737,0.19499
4731.21,0.19418
4725.43,0.19466
4719.64,0.19513
4713.85,0.19525
4708.07,0.19499
4702.28,0.19496
4696.49,0.19480
4690.71,0.19571
4684.92,0.19475
4679.14,0.19422
4673.35,0.19537
4667.56,0.19508
4661.78,0.19504
4655.99,0.19495
4650.2,0.19528
4644.42,0.19495
4638.63,0.19362
4632.85,0.19540
4627.06,0.19427
4621.27,0.19492
4615.49,0.19481
4609.7,0.19514
4603.92,0.19469
4598.13,0.19466
4592.34,0.19437
4586.56,0.19453
4580.77,0.19451
4574.98,0.19431
4569.2,0.19426
4563.41,0.19436
4557.63,0.19518
4551.84,0.19415
4546.05,0.19409
4540.27,0.19330
4534.48,0.19256
4528.69,0.19261
4522.91,0.19321
4517.12,0.19282
4511.34,0.19232
4505.55,0.19277
4499.76,0.19085
4493.98,0.19256
4488.19,0.19160
4482.4,0.19227
4476.62,0.19147
4470.83,0.19101
4465.05,0.19170
4459.26,0.19298
4453.47,0.19172
4447.69,0.19214
4441.9,0.19231
4436.11,0.19195
4430.33,0.19141
4424.54,0.19187
4418.76,0.19092
4412.97,0.19182
4407.18,0.19114
4401.4,0.19096
4395.61,0.19115
4389.82,0.19080
4384.04,0.19033
4378.25,0.19023
4372.47,0.19081
4366.68,0.18947
4360.89,0.18900
4355.11,0.18865
4349.32,0.18894
4343.53,0.18799
4337.75,0.18903
4331.96,0.18837
4326.18,0.18795
4320.39,0.18782
4314.6,0.18715
4308.82,0.18754
4303.03,0.18698
4297.24,0.18644
4291.46,0.18620
4285.67,0.18549
4279.89,0.18534
4274.1,0.18412
4268.31,0.18437
4262.53,0.18468
4256.74,0.18463
4250.95,0.18476
4245.17,0.18607
4239.38,0.18612
4233.6,0.18646
4227.81,0.18704
4222.02,0.18787
4216.24,0.18782
4210.45,0.18818
4204.66,0.18770
4198.88,0.18711
4193.09,0.18733
4187.31,0.18635
4181.52,0.18704
4175.73,0.18674
4169.95,0.18698
4164.16,0.18615
4158.37,0.18688
4152.59,0.18618
4146.8,0.18576
4141.02,0.18484
4135.23,0.18484
4129.44,0.18474
4123.66,0.18388
4117.87,0.18320
4112.09,0.18320
4106.3,0.18309
4100.51,0.18184
4094.73,0.18168
4088.94,0.18140
4083.15,0.18102
4077.37,0.18027
4071.58,0.17871
4065.8,0.17908
4060.01,0.17802
4054.22,0.17761
4048.44,0.17749
4042.65,0.17659
4036.86,0.17602
4031.08,0.17602
4025.29,0.17480
4019.51,0.17376
4013.72,0.17362
4007.93,0.17310
4002.15,0.17282
3996.36,0.17283
3990.57,0.17237
3984.79,0.17256
3979,0.17151
3973.22,0.17158
3967.43,0.17064
3961.64,0.17015
3955.86,0.16970
3950.07,0.16833
3944.28,0.16869
3938.5,0.16837
3932.71,0.16916
3926.93,0.17069
3921.14,0.17168
3915.35,0.17355
3909.57,0.17424
3903.78,0.17581
3897.99,0.17582
3892.21,0.17635
3886.42,0.17672
3880.64,0.17680
3874.85,0.17625
3869.06,0.17641
3863.28,0.17640
3857.49,0.17706
3851.7,0.17563
3845.92,0.17568
3840.13,0.17598
3834.35,0.17634
3828.56,0.17640
3822.77,0.17579
3816.99,0.17451
3811.2,0.17447
3805.41,0.17424
3799.63,0.17393
3793.84,0.17311
3788.06,0.17330
3782.27,0.17227
3776.48,0.17148
3770.7,0.17077
3764.91,0.17013
3759.12,0.16860
3753.34,0.16695
3747.55,0.16534
3741.77,0.16279
3735.98,0.15997
3730.19,0.15740
3724.41,0.15303
3718.62,0.14716
3712.83,0.14165
3707.05,0.13603
3701.26,0.13143
3695.48,0.12641
3689.69,0.12139
3683.9,0.11507
3678.12,0.10946
3672.33,0.10285
3666.54,0.09659
3660.76,0.09072
3654.97,0.08506
3649.19,0.08059
3643.4,0.07522
3637.61,0.07200
3631.83,0.06883
3626.04,0.06651
3620.25,0.06427
3614.47,0.06219
3608.68,0.06058
3602.9,0.06020
3597.11,0.05938
3591.32,0.05811
3585.54,0.05853
3579.75,0.05808
3573.97,0.05728
3568.18,0.05669
3562.39,0.05537
3556.61,0.05492
3550.82,0.05447
3545.03,0.05436
3539.25,0.05363
3533.46,0.05277
3527.68,0.05338
3521.89,0.05321
3516.1,0.05192
3510.32,0.05193
3504.53,0.05179
3498.74,0.05166
3492.96,0.05089
3487.17,0.05107
3481.39,0.05107
3475.6,0.05044
3469.81,0.05090
3464.03,0.04968
3458.24,0.04969
3452.45,0.04947
3446.67,0.04917
3440.88,0.05003
3435.1,0.04898
3429.31,0.04832
3423.52,0.04916
3417.74,0.04897
3411.95,0.04887
3406.16,0.04901
3400.38,0.04865
3394.59,0.04737
3388.81,0.04816
3383.02,0.04845
3377.23,0.04917
3371.45,0.04956
3365.66,0.04921
3359.87,0.04900
3354.09,0.04876
3348.3,0.04934
3342.52,0.04910
3336.73,0.04876
3330.94,0.04957
3325.16,0.04944
3319.37,0.04995
3313.58,0.05009
3307.8,0.05028
3302.01,0.05051
3296.23,0.05131
3290.44,0.05131
3284.65,0.05069
3278.87,0.05128
3273.08,0.05158
3267.29,0.05146
3261.51,0.05190
3255.72,0.05205
3249.94,0.05315
3244.15,0.05340
3238.36,0.05348
3232.58,0.05392
3226.79,0.05430
3221,0.05482
3215.22,0.05504
3209.43,0.05575
3203.65,0.05646
3197.86,0.05695
3192.07,0.05708
3186.29,0.05766
3180.5,0.05773
3174.71,0.05836
3168.93,0.06002
3163.14,0.06002
3157.36,0.06000
3151.57,0.06070
3145.78,0.06165
3140,0.06162
3134.21,0.06239
3128.42,0.06248
3122.64,0.06260
3116.85,0.06359
3111.07,0.06342
3105.28,0.06410
3099.49,0.06448
3093.71,0.06488
3087.92,0.06568
3082.14,0.06583
3076.35,0.06584
3070.56,0.06634
3064.78,0.06658
3058.99,0.06668
3053.2,0.06672
3047.42,0.06734
3041.63,0.06785
3035.85,0.06710
3030.06,0.06712
3024.27,0.06698
3018.49,0.06750
3012.7,0.06682
3006.91,0.06657
3001.13,0.06563
2995.34,0.06297
2989.56,0.06002
2983.77,0.05858
2977.98,0.05901
2972.2,0.05920
2966.41,0.05931
2960.62,0.05945
2954.84,0.05999
2949.05,0.05997
2943.27,0.05968
2937.48,0.05959
2931.69,0.05904
2925.91,0.05949
2920.12,0.05995
2914.33,0.06043
2908.55,0.06142
2902.76,0.06096
2896.98,0.06121
2891.19,0.06071
2885.4,0.05919
2879.62,0.05742
2873.83,0.05712
2868.04,0.05803
2862.26,0.05941
2856.47,0.06096
2850.69,0.06285
2844.9,0.06649
2839.11,0.07030
2833.33,0.07388
2827.54,0.07784
2821.75,0.08023
2815.97,0.08105
2810.18,0.08262
2804.4,0.08351
2798.61,0.08508
2792.82,0.08666
2787.04,0.08776
2781.25,0.08912
2775.46,0.09007
2769.68,0.09090
2763.89,0.09143
2758.11,0.09219
2752.32,0.09323
2746.53,0.09348
2740.75,0.09423
2734.96,0.09462
2729.17,0.09532
2723.39,0.09582
2717.6,0.09586
2711.82,0.09654
2706.03,0.09726
2700.24,0.09705
2694.46,0.09772
2688.67,0.09770
2682.88,0.09811
2677.1,0.09793
2671.31,0.09788
2665.53,0.09688
2659.74,0.09686
2653.95,0.09655
2648.17,0.09555
2642.38,0.09412
2636.59,0.09053
2630.81,0.08714
2625.02,0.08314
2619.24,0.08084
2613.45,0.07831
2607.66,0.07589
2601.88,0.07453
2596.09,0.07272
2590.3,0.07214
2584.52,0.07142
2578.73,0.07055
2572.95,0.07042
2567.16,0.07000
2561.37,0.06947
2555.59,0.06815
2549.8,0.06664
2544.02,0.06545
2538.23,0.06258
2532.44,0.05812
2526.66,0.05415
2520.87,0.05220
2515.08,0.05181
2509.3,0.05262
2503.51,0.05592
2497.73,0.06068
2491.94,0.06712
2486.15,0.07279
2480.37,0.07763
2474.58,0.08323
2468.79,0.08828
2463.01,0.09146
2457.22,0.09447
2451.44,0.09661
2445.65,0.09859
2439.86,0.10020
2434.08,0.10105
2428.29,0.10202
2422.5,0.10318
2416.72,0.10356
2410.93,0.10407
2405.15,0.10458
2399.36,0.10456
2393.57,0.10425
2387.79,0.10486
2382,0.10474
2376.21,0.10464
2370.43,0.10451
2364.64,0.10446
2358.86,0.10407
2353.07,0.10326
2347.28,0.10349
2341.5,0.10292
2335.71,0.10340
2329.92,0.10253
2324.14,0.10218
2318.35,0.10145
2312.57,0.10121
2306.78,0.10094
2300.99,0.10077
2295.21,0.10050
2289.42,0.10074
2283.63,0.09968
2277.85,0.09937
2272.06,0.09864
2266.28,0.09838
2260.49,0.09734
2254.7,0.09707
2248.92,0.09610
2243.13,0.09529
2237.34,0.09498
2231.56,0.09444
2225.77,0.09359
2219.99,0.09319
2214.2,0.09265
2208.41,0.09241
2202.63,0.09247
2196.84,0.09218
2191.05,0.09136
2185.27,0.09145
2179.48,0.09080
2173.7,0.09034
2167.91,0.08938
2162.12,0.08845
2156.34,0.08654
2150.55,0.08430
2144.76,0.08307
2138.98,0.08305
2133.19,0.08365
2127.41,0.08529
2121.62,0.08727
2115.83,0.08855
2110.05,0.08968
2104.26,0.09000
2098.47,0.09040
2092.69,0.09082
2086.9,0.09078
2081.12,0.09043
2075.33,0.09028
2069.54,0.08968
2063.76,0.08936
2057.97,0.08915
2052.19,0.08817
2046.4,0.08783
2040.61,0.08681
2034.83,0.08615
2029.04,0.08572
2023.25,0.08511
2017.47,0.08445
2011.68,0.08345
2005.9,0.08273
2000.11,0.08215
1994.32,0.08138
1988.54,0.08114
1982.75,0.08059
1976.96,0.08027
1971.18,0.07999
1965.39,0.07861
1959.61,0.07755
1953.82,0.07882
1948.03,0.07862
1942.25,0.07826
1936.46,0.07805
1930.67,0.07730
1924.89,0.07678
1919.1,0.07574
1913.32,0.07521
1907.53,0.07384
1901.74,0.07223
1895.96,0.07111
1890.17,0.06999
1884.38,0.06886
1878.6,0.06781
1872.81,0.06675
1867.03,0.06641
1861.24,0.06539
1855.45,0.06479
1849.67,0.06482
1843.88,0.06378
1838.09,0.06233
1832.31,0.05992
1826.52,0.05721
1820.74,0.05394
1814.95,0.05118
1809.16,0.04667
1803.38,0.03944
1797.59,0.03431
1791.8,0.03546
1786.02,0.04092
1780.23,0.04543
1774.45,0.04748
1768.66,0.04786
1762.87,0.04751
1757.09,0.04625
1751.3,0.04534
1745.51,0.04422
1739.73,0.04303
1733.94,0.04232
1728.16,0.04228
1722.37,0.04209
1716.58,0.04192
1710.8,0.04112
1705.01,0.03976
1699.22,0.03856
1693.44,0.03695
1687.65,0.03538
1681.87,0.03455
1676.08,0.03435
1670.29,0.03401
1664.51,0.03354
1658.72,0.03340
1652.93,0.03317
1647.15,0.03336
1641.36,0.03339
1635.58,0.03361
1629.79,0.03385
1624,0.03485
1618.22,0.03601
1612.43,0.03780
1606.64,0.03933
1600.86,0.04059
1595.07,0.04239
1589.29,0.04353
1583.5,0.04679
1577.71,0.05199
1571.93,0.05858
1566.14,0.06454
1560.35,0.07002
1554.57,0.07624
1548.78,0.08149
1543,0.08548
1537.21,0.08875
1531.42,0.09071
1525.64,0.09176
1519.85,0.09194
1514.07,0.09121
1508.28,0.09120
1502.49,0.09089
1496.71,0.09078
1490.92,0.09043
1485.13,0.09011
1479.35,0.08958
1473.56,0.08949
1467.78,0.08892
1461.99,0.08840
1456.2,0.08904
1450.42,0.08849
1444.63,0.08862
1438.84,0.08872
1433.06,0.08988
1427.27,0.09301
1421.49,0.09584
1415.7,0.09949
1409.91,0.10303
1404.13,0.10017
1398.34,0.09515
1392.55,0.09097
1386.77,0.08754
1380.98,0.08437
1375.2,0.08285
1369.41,0.08229
1363.62,0.08298
1357.84,0.08401
1352.05,0.08474
1346.26,0.08517
1340.48,0.08525
1334.69,0.08491
1328.91,0.08422
1323.12,0.08345
1317.33,0.08332
1311.55,0.08408
1305.76,0.08580
1299.97,0.08652
1294.19,0.08739
1288.4,0.08703
1282.62,0.08629
1276.83,0.08583
1271.04,0.08544
1265.26,0.08478
1259.47,0.08465
1253.68,0.08422
1247.9,0.08293
1242.11,0.08138
1236.33,0.08027
1230.54,0.07948
1224.75,0.07841
1218.97,0.07644
1213.18,0.07456
1207.39,0.07156
1201.61,0.06937
1195.82,0.06725
1190.04,0.06506
1184.25,0.06326
1178.46,0.06177
1172.68,0.06064
1166.89,0.05988
1161.1,0.05945
1155.32,0.06039
1149.53,0.06113
1143.75,0.06106
1137.96,0.06100
1132.17,0.06022
1126.39,0.05947
1120.6,0.05903
1114.81,0.05747
1109.03,0.05582
1103.24,0.05336
1097.46,0.05310
1091.67,0.05211
1085.88,0.05057
1080.1,0.05080
1074.31,0.05150
1068.52,0.05012
1062.74,0.04914
1056.95,0.04819
1051.17,0.04766
1045.38,0.04710
1039.59,0.04690
1033.81,0.04672
1028.02,0.04642
1022.24,0.04610
1016.45,0.04637
1010.66,0.04631
1004.88,0.04625
999.09,0.04618
993.304,0.04639
987.518,0.04616
981.731,0.04603
975.945,0.04621
970.159,0.04571
964.373,0.04609
958.586,0.04575
952.8,0.04644
947.014,0.04667
941.228,0.04621
935.441,0.04573
929.655,0.04628
923.869,0.04586
918.083,0.04543
912.297,0.04502
906.51,0.04476
900.724,0.04674
894.938,0.04924
889.152,0.05068
883.365,0.04432
877.579,0.05155
871.793,0.06394
866.007,0.05861
860.22,0.05304
854.434,0.04945
848.648,0.04660
842.862,0.04715
837.075,0.04653
831.289,0.04465
825.503,0.04492
819.717,0.04468
813.931,0.04445
808.144,0.04406
802.358,0.04318
796.572,0.04316
790.786,0.04318
784.999,0.04220
779.213,0.04170
773.427,0.04145
767.641,0.04207
761.854,0.04083
756.068,0.04042
750.282,0.04034
744.496,0.03922
738.709,0.03850
732.923,0.03731
727.137,0.03650
721.351,0.03428
715.565,0.03242
709.778,0.03943
703.992,0.03903
698.206,0.03769
692.42,0.03952
686.633,0.03903
680.847,0.03793
675.061,0.03965
669.275,0.03934
663.488,0.03712
657.702,0.03588
651.916,0.03557
646.13,0.03407
640.343,0.03465
634.557,0.03490
628.771,0.03191
622.985,0.03340
617.198,0.03129
611.412,0.03335
605.626,0.03708
599.84,0.03592