File: 01_Data/Cinder_Block/FTIR/IS/Cinder_Block_IS_S_221214_R4.dpt
7497.03,0.19259
7491.25,0.20082
7485.46,0.18662
7479.67,0.20391
7473.89,0.19269
7468.1,0.20286
7462.32,0.20147
7456.53,0.19809
7450.74,0.19844
7444.96,0.19076
7439.17,0.19511
7433.38,0.19759
7427.6,0.19055
7421.81,0.19026
7416.03,0.19975
7410.24,0.19571
7404.45,0.19206
7398.67,0.18624
7392.88,0.18885
7387.09,0.19329
7381.31,0.18939
7375.52,0.19045
7369.74,0.19120
7363.95,0.19136
7358.16,0.19190
7352.38,0.18965
7346.59,0.19008
7340.8,0.19723
7335.02,0.18613
7329.23,0.18576
7323.45,0.19217
7317.66,0.19257
7311.87,0.19157
7306.09,0.19145
7300.3,0.19971
7294.51,0.19798
7288.73,0.19074
7282.94,0.19594
7277.16,0.19322
7271.37,0.19185
7265.58,0.19877
7259.8,0.19879
7254.01,0.20136
7248.22,0.19201
7242.44,0.19395
7236.65,0.19848
7230.87,0.19775
7225.08,0.19707
7219.29,0.19920
7213.51,0.18592
7207.72,0.19090
7201.93,0.19055
7196.15,0.19369
7190.36,0.18983
7184.58,0.19029
7178.79,0.20063
7173,0.19727
7167.22,0.19374
7161.43,0.19846
7155.65,0.19615
7149.86,0.19253
7144.07,0.18796
7138.29,0.19794
7132.5,0.19135
7126.71,0.19607
7120.93,0.19154
7115.14,0.18467
7109.36,0.18485
7103.57,0.19579
7097.78,0.18799
7092,0.18843
7086.21,0.19423
7080.42,0.19567
7074.64,0.19332
7068.85,0.19196
7063.07,0.18902
7057.28,0.19063
7051.49,0.19270
7045.71,0.19600
7039.92,0.18758
7034.13,0.19626
7028.35,0.19272
7022.56,0.19367
7016.78,0.19825
7010.99,0.18652
7005.2,0.19922
6999.42,0.19816
6993.63,0.19058
6987.84,0.19908
6982.06,0.19215
6976.27,0.19234
6970.49,0.18875
6964.7,0.19839
6958.91,0.19498
6953.13,0.19300
6947.34,0.19229
6941.55,0.19126
6935.77,0.19406
6929.98,0.19086
6924.2,0.19430
6918.41,0.19688
6912.62,0.19335
6906.84,0.19373
6901.05,0.19757
6895.26,0.19160
6889.48,0.18801
6883.69,0.18994
6877.91,0.19398
6872.12,0.19122
6866.33,0.19181
6860.55,0.18915
6854.76,0.19702
6848.97,0.19507
6843.19,0.19395
6837.4,0.19199
6831.62,0.19426
6825.83,0.19277
6820.04,0.19185
6814.26,0.18951
6808.47,0.19665
6802.68,0.19358
6796.9,0.19998
6791.11,0.19596
6785.33,0.19268
6779.54,0.19432
6773.75,0.19949
6767.97,0.19548
6762.18,0.19555
6756.39,0.19204
6750.61,0.19397
6744.82,0.19634
6739.04,0.19014
6733.25,0.19737
6727.46,0.19765
6721.68,0.19268
6715.89,0.19180
6710.1,0.19356
6704.32,0.19229
6698.53,0.19819
6692.75,0.19772
6686.96,0.19941
6681.17,0.19324
6675.39,0.19900
6669.6,0.19548
6663.82,0.19815
6658.03,0.19407
6652.24,0.19465
6646.46,0.19886
6640.67,0.19418
6634.88,0.19514
6629.1,0.19883
6623.31,0.19533
6617.53,0.19519
6611.74,0.19717
6605.95,0.19569
6600.17,0.19323
6594.38,0.19628
6588.59,0.19376
6582.81,0.19462
6577.02,0.19275
6571.24,0.19325
6565.45,0.19289
6559.66,0.19383
6553.88,0.19567
6548.09,0.19434
6542.3,0.20155
6536.52,0.19901
6530.73,0.19688
6524.95,0.19142
6519.16,0.19501
6513.37,0.19480
6507.59,0.19602
6501.8,0.19674
6496.01,0.19634
6490.23,0.19708
6484.44,0.19746
6478.66,0.19780
6472.87,0.19322
6467.08,0.19146
6461.3,0.19718
6455.51,0.19743
6449.72,0.20027
6443.94,0.19804
6438.15,0.20202
6432.37,0.20216
6426.58,0.19453
6420.79,0.19463
6415.01,0.19868
6409.22,0.19467
6403.43,0.19691
6397.65,0.19605
6391.86,0.19350
6386.08,0.19575
6380.29,0.19561
6374.5,0.19583
6368.72,0.19399
6362.93,0.19503
6357.14,0.19905
6351.36,0.19842
6345.57,0.19847
6339.79,0.19437
6334,0.20054
6328.21,0.19718
6322.43,0.19703
6316.64,0.19680
6310.85,0.19784
6305.07,0.19583
6299.28,0.19674
6293.5,0.19523
6287.71,0.19588
6281.92,0.19671
6276.14,0.19775
6270.35,0.19428
6264.56,0.19450
6258.78,0.19445
6252.99,0.19348
6247.21,0.19748
6241.42,0.19597
6235.63,0.19330
6229.85,0.19430
6224.06,0.19870
6218.27,0.19732
6212.49,0.19830
6206.7,0.19718
6200.92,0.19442
6195.13,0.19487
6189.34,0.19720
6183.56,0.20220
6177.77,0.19956
6171.98,0.19721
6166.2,0.19924
6160.41,0.19922
6154.63,0.19654
6148.84,0.19617
6143.05,0.19910
6137.27,0.19938
6131.48,0.19442
6125.7,0.19709
6119.91,0.19682
6114.12,0.19771
6108.34,0.19733
6102.55,0.19708
6096.76,0.19990
6090.98,0.19898
6085.19,0.19919
6079.41,0.19659
6073.62,0.19714
6067.83,0.19789
6062.05,0.19688
6056.26,0.19827
6050.47,0.19641
6044.69,0.19658
6038.9,0.19782
6033.12,0.19689
6027.33,0.19743
6021.54,0.19919
6015.76,0.19830
6009.97,0.19811
6004.18,0.19639
5998.4,0.19880
5992.61,0.19858
5986.83,0.19883
5981.04,0.19704
5975.25,0.19812
5969.47,0.19922
5963.68,0.19926
5957.89,0.19861
5952.11,0.19614
5946.32,0.19740
5940.54,0.19980
5934.75,0.19819
5928.96,0.19909
5923.18,0.19931
5917.39,0.19937
5911.6,0.19991
5905.82,0.19758
5900.03,0.19530
5894.25,0.20024
5888.46,0.19859
5882.67,0.19969
5876.89,0.20005
5871.1,0.20166
5865.31,0.20073
5859.53,0.19872
5853.74,0.19983
5847.96,0.20090
5842.17,0.19908
5836.38,0.19865
5830.6,0.19650
5824.81,0.19962
5819.02,0.19953
5813.24,0.20011
5807.45,0.19860
5801.67,0.19993
5795.88,0.19962
5790.09,0.19816
5784.31,0.19827
5778.52,0.19912
5772.73,0.19673
5766.95,0.19898
5761.16,0.20018
5755.38,0.19846
5749.59,0.19763
5743.8,0.19741
5738.02,0.19816
5732.23,0.19860
5726.44,0.19727
5720.66,0.19917
5714.87,0.19871
5709.09,0.19840
5703.3,0.19971
5697.51,0.19976
5691.73,0.20063
5685.94,0.19903
5680.15,0.19966
5674.37,0.19969
5668.58,0.19877
5662.8,0.19921
5657.01,0.20042
5651.22,0.20000
5645.44,0.19794
5639.65,0.19863
5633.87,0.19845
5628.08,0.19934
5622.29,0.19980
5616.51,0.19844
5610.72,0.19992
5604.93,0.19726
5599.15,0.19931
5593.36,0.19830
5587.58,0.19862
5581.79,0.19987
5576,0.19760
5570.22,0.19859
5564.43,0.19902
5558.64,0.19930
5552.86,0.19779
5547.07,0.19919
5541.29,0.20012
5535.5,0.19790
5529.71,0.19829
5523.93,0.20102
5518.14,0.19951
5512.35,0.19703
5506.57,0.19898
5500.78,0.20172
5495,0.20004
5489.21,0.19874
5483.42,0.20091
5477.64,0.19816
5471.85,0.20094
5466.06,0.19867
5460.28,0.19909
5454.49,0.19818
5448.71,0.19792
5442.92,0.19963
5437.13,0.19919
5431.35,0.19986
5425.56,0.20037
5419.77,0.20095
5413.99,0.19861
5408.2,0.19800
5402.42,0.19814
5396.63,0.19993
5390.84,0.20014
5385.06,0.19977
5379.27,0.20033
5373.48,0.19726
5367.7,0.20067
5361.91,0.19866
5356.13,0.19975
5350.34,0.19979
5344.55,0.19960
5338.77,0.19792
5332.98,0.19911
5327.19,0.19882
5321.41,0.19858
5315.62,0.19907
5309.84,0.19697
5304.05,0.19692
5298.26,0.19733
5292.48,0.19688
5286.69,0.19660
5280.9,0.19587
5275.12,0.19580
5269.33,0.19534
5263.55,0.19405
5257.76,0.19343
5251.97,0.19253
5246.19,0.19191
5240.4,0.19137
5234.61,0.19093
5228.83,0.19051
5223.04,0.18950
5217.26,0.19010
5211.47,0.18961
5205.68,0.18933
5199.9,0.18828
5194.11,0.18876
5188.32,0.18771
5182.54,0.18964
5176.75,0.18866
5170.97,0.18870
5165.18,0.18934
5159.39,0.18728
5153.61,0.18952
5147.82,0.18915
5142.03,0.18883
5136.25,0.18936
5130.46,0.18948
5124.68,0.18934
5118.89,0.18950
5113.1,0.18925
5107.32,0.19056
5101.53,0.19114
5095.75,0.19135
5089.96,0.19019
5084.17,0.19055
5078.39,0.19107
5072.6,0.19112
5066.81,0.19050
5061.03,0.19037
5055.24,0.19119
5049.46,0.19016
5043.67,0.19078
5037.88,0.19312
5032.1,0.19221
5026.31,0.19264
5020.52,0.19165
5014.74,0.19123
5008.95,0.19173
5003.17,0.19161
4997.38,0.19263
4991.59,0.19270
4985.81,0.19295
4980.02,0.19266
4974.23,0.19314
4968.45,0.19395
4962.66,0.19341
4956.88,0.19348
4951.09,0.19443
4945.3,0.19401
4939.52,0.19336
4933.73,0.19467
4927.94,0.19538
4922.16,0.19542
4916.37,0.19504
4910.59,0.19501
4904.8,0.19437
4899.01,0.19482
4893.23,0.19543
4887.44,0.19498
4881.65,0.19555
4875.87,0.19489
4870.08,0.19363
4864.3,0.19474
4858.51,0.19455
4852.72,0.19528
4846.94,0.19529
4841.15,0.19598
4835.36,0.19682
4829.58,0.19453
4823.79,0.19584
4818.01,0.19593
4812.22,0.19521
4806.43,0.19569
4800.65,0.19408
4794.86,0.19408
4789.07,0.19495
4783.29,0.19619
4777.5,0.19577
4771.72,0.19502
4765.93,0.19563
4760.14,0.19635
4754.36,0.19613
4748.57,0.19624
4742.78,0.19575
4737,0.19701
4731.21,0.19629
4725.43,0.19647
4719.64,0.19609
4713.85,0.19581
4708.07,0.19637
4702.28,0.19624
4696.49,0.19548
4690.71,0.19687
4684.92,0.19553
4679.14,0.19654
4673.35,0.19709
4667.56,0.19619
4661.78,0.19584
4655.99,0.19527
4650.2,0.19560
4644.42,0.19639
4638.63,0.19600
4632.85,0.19505
4627.06,0.19562
4621.27,0.19507
4615.49,0.19587
4609.7,0.19680
4603.92,0.19623
4598.13,0.19580
4592.34,0.19455
4586.56,0.19479
4580.77,0.19462
4574.98,0.19502
4569.2,0.19474
4563.41,0.19455
4557.63,0.19406
4551.84,0.19367
4546.05,0.19375
4540.27,0.19479
4534.48,0.19330
4528.69,0.19426
4522.91,0.19318
4517.12,0.19359
4511.34,0.19317
4505.55,0.19309
4499.76,0.19314
4493.98,0.19320
4488.19,0.19260
4482.4,0.19269
4476.62,0.19234
4470.83,0.19317
4465.05,0.19288
4459.26,0.19359
4453.47,0.19339
4447.69,0.19353
4441.9,0.19314
4436.11,0.19244
4430.33,0.19232
4424.54,0.19309
4418.76,0.19217
4412.97,0.19225
4407.18,0.19174
4401.4,0.19179
4395.61,0.19199
4389.82,0.19225
4384.04,0.19098
4378.25,0.19050
4372.47,0.19100
4366.68,0.19058
4360.89,0.19021
4355.11,0.19052
4349.32,0.19048
4343.53,0.18984
4337.75,0.18958
4331.96,0.18941
4326.18,0.18910
4320.39,0.18865
4314.6,0.18843
4308.82,0.18865
4303.03,0.18838
4297.24,0.18684
4291.46,0.18696
4285.67,0.18687
4279.89,0.18522
4274.1,0.18526
4268.31,0.18477
4262.53,0.18613
4256.74,0.18590
4250.95,0.18661
4245.17,0.18667
4239.38,0.18714
4233.6,0.18769
4227.81,0.18802
4222.02,0.18795
4216.24,0.18855
4210.45,0.18896
4204.66,0.18896
4198.88,0.18869
4193.09,0.18912
4187.31,0.18749
4181.52,0.18837
4175.73,0.18742
4169.95,0.18806
4164.16,0.18736
4158.37,0.18678
4152.59,0.18649
4146.8,0.18631
4141.02,0.18665
4135.23,0.18564
4129.44,0.18555
4123.66,0.18537
4117.87,0.18504
4112.09,0.18397
4106.3,0.18363
4100.51,0.18359
4094.73,0.18186
4088.94,0.18133
4083.15,0.18192
4077.37,0.18133
4071.58,0.18093
4065.8,0.18012
4060.01,0.18003
4054.22,0.17954
4048.44,0.17730
4042.65,0.17730
4036.86,0.17710
4031.08,0.17653
4025.29,0.17568
4019.51,0.17493
4013.72,0.17435
4007.93,0.17401
4002.15,0.17321
3996.36,0.17389
3990.57,0.17329
3984.79,0.17350
3979,0.17308
3973.22,0.17214
3967.43,0.17164
3961.64,0.17051
3955.86,0.17019
3950.07,0.16929
3944.28,0.16970
3938.5,0.16984
3932.71,0.17008
3926.93,0.17118
3921.14,0.17292
3915.35,0.17460
3909.57,0.17559
3903.78,0.17624
3897.99,0.17692
3892.21,0.17645
3886.42,0.17743
3880.64,0.17788
3874.85,0.17730
3869.06,0.17698
3863.28,0.17721
3857.49,0.17738
3851.7,0.17754
3845.92,0.17825
3840.13,0.17726
3834.35,0.17748
3828.56,0.17693
3822.77,0.17653
3816.99,0.17621
3811.2,0.17541
3805.41,0.17563
3799.63,0.17520
3793.84,0.17424
3788.06,0.17405
3782.27,0.17403
3776.48,0.17325
3770.7,0.17173
3764.91,0.17058
3759.12,0.17004
3753.34,0.16889
3747.55,0.16651
3741.77,0.16421
3735.98,0.16143
3730.19,0.15766
3724.41,0.15328
3718.62,0.14793
3712.83,0.14255
3707.05,0.13785
3701.26,0.13167
3695.48,0.12711
3689.69,0.12209
3683.9,0.11601
3678.12,0.10939
3672.33,0.10362
3666.54,0.09711
3660.76,0.09156
3654.97,0.08643
3649.19,0.08062
3643.4,0.07551
3637.61,0.07183
3631.83,0.06812
3626.04,0.06625
3620.25,0.06436
3614.47,0.06207
3608.68,0.06169
3602.9,0.06040
3597.11,0.05997
3591.32,0.06016
3585.54,0.05818
3579.75,0.05809
3573.97,0.05741
3568.18,0.05780
3562.39,0.05666
3556.61,0.05557
3550.82,0.05500
3545.03,0.05492
3539.25,0.05433
3533.46,0.05368
3527.68,0.05376
3521.89,0.05266
3516.1,0.05296
3510.32,0.05231
3504.53,0.05216
3498.74,0.05204
3492.96,0.05141
3487.17,0.05093
3481.39,0.05122
3475.6,0.05091
3469.81,0.05036
3464.03,0.05048
3458.24,0.05049
3452.45,0.05031
3446.67,0.04997
3440.88,0.04995
3435.1,0.05000
3429.31,0.04950
3423.52,0.05019
3417.74,0.04905
3411.95,0.04881
3406.16,0.04837
3400.38,0.04876
3394.59,0.04839
3388.81,0.04828
3383.02,0.04908
3377.23,0.04950
3371.45,0.04852
3365.66,0.04901
3359.87,0.04896
3354.09,0.04930
3348.3,0.04887
3342.52,0.04958
3336.73,0.04975
3330.94,0.05032
3325.16,0.05027
3319.37,0.05049
3313.58,0.05043
3307.8,0.05075
3302.01,0.05075
3296.23,0.05132
3290.44,0.05148
3284.65,0.05159
3278.87,0.05238
3273.08,0.05213
3267.29,0.05205
3261.51,0.05254
3255.72,0.05284
3249.94,0.05326
3244.15,0.05275
3238.36,0.05446
3232.58,0.05424
3226.79,0.05397
3221,0.05495
3215.22,0.05570
3209.43,0.05662
3203.65,0.05699
3197.86,0.05772
3192.07,0.05719
3186.29,0.05834
3180.5,0.05847
3174.71,0.05861
3168.93,0.05962
3163.14,0.06035
3157.36,0.06097
3151.57,0.06163
3145.78,0.06233
3140,0.06245
3134.21,0.06250
3128.42,0.06263
3122.64,0.06367
3116.85,0.06372
3111.07,0.06390
3105.28,0.06447
3099.49,0.06486
3093.71,0.06473
3087.92,0.06531
3082.14,0.06575
3076.35,0.06570
3070.56,0.06650
3064.78,0.06701
3058.99,0.06697
3053.2,0.06712
3047.42,0.06709
3041.63,0.06742
3035.85,0.06751
3030.06,0.06777
3024.27,0.06713
3018.49,0.06750
3012.7,0.06676
3006.91,0.06668
3001.13,0.06579
2995.34,0.06317
2989.56,0.06063
2983.77,0.05885
2977.98,0.05953
2972.2,0.05988
2966.41,0.05995
2960.62,0.05926
2954.84,0.05966
2949.05,0.06037
2943.27,0.06008
2937.48,0.05951
2931.69,0.06045
2925.91,0.05994
2920.12,0.06012
2914.33,0.06088
2908.55,0.06138
2902.76,0.06176
2896.98,0.06123
2891.19,0.06150
2885.4,0.05935
2879.62,0.05734
2873.83,0.05713
2868.04,0.05836
2862.26,0.06001
2856.47,0.06129
2850.69,0.06343
2844.9,0.06637
2839.11,0.07061
2833.33,0.07439
2827.54,0.07773
2821.75,0.07990
2815.97,0.08181
2810.18,0.08307
2804.4,0.08482
2798.61,0.08547
2792.82,0.08698
2787.04,0.08844
2781.25,0.08962
2775.46,0.09047
2769.68,0.09117
2763.89,0.09220
2758.11,0.09260
2752.32,0.09301
2746.53,0.09380
2740.75,0.09444
2734.96,0.09532
2729.17,0.09516
2723.39,0.09620
2717.6,0.09712
2711.82,0.09718
2706.03,0.09769
2700.24,0.09783
2694.46,0.09833
2688.67,0.09818
2682.88,0.09845
2677.1,0.09844
2671.31,0.09849
2665.53,0.09802
2659.74,0.09813
2653.95,0.09675
2648.17,0.09556
2642.38,0.09418
2636.59,0.09088
2630.81,0.08753
2625.02,0.08343
2619.24,0.08095
2613.45,0.07849
2607.66,0.07601
2601.88,0.07434
2596.09,0.07346
2590.3,0.07273
2584.52,0.07204
2578.73,0.07185
2572.95,0.07059
2567.16,0.07000
2561.37,0.06938
2555.59,0.06816
2549.8,0.06680
2544.02,0.06571
2538.23,0.06255
2532.44,0.05823
2526.66,0.05441
2520.87,0.05222
2515.08,0.05153
2509.3,0.05252
2503.51,0.05613
2497.73,0.06095
2491.94,0.06735
2486.15,0.07282
2480.37,0.07819
2474.58,0.08359
2468.79,0.08862
2463.01,0.09204
2457.22,0.09478
2451.44,0.09730
2445.65,0.09942
2439.86,0.10063
2434.08,0.10171
2428.29,0.10272
2422.5,0.10340
2416.72,0.10391
2410.93,0.10444
2405.15,0.10487
2399.36,0.10515
2393.57,0.10548
2387.79,0.10537
2382,0.10535
2376.21,0.10514
2370.43,0.10535
2364.64,0.10458
2358.86,0.10450
2353.07,0.10431
2347.28,0.10393
2341.5,0.10388
2335.71,0.10365
2329.92,0.10303
2324.14,0.10268
2318.35,0.10221
2312.57,0.10152
2306.78,0.10122
2300.99,0.10111
2295.21,0.10104
2289.42,0.10071
2283.63,0.10081
2277.85,0.10041
2272.06,0.09965
2266.28,0.09850
2260.49,0.09788
2254.7,0.09713
2248.92,0.09670
2243.13,0.09616
2237.34,0.09540
2231.56,0.09488
2225.77,0.09437
2219.99,0.09358
2214.2,0.09373
2208.41,0.09327
2202.63,0.09307
2196.84,0.09261
2191.05,0.09213
2185.27,0.09208
2179.48,0.09179
2173.7,0.09100
2167.91,0.08987
2162.12,0.08879
2156.34,0.08736
2150.55,0.08515
2144.76,0.08381
2138.98,0.08355
2133.19,0.08413
2127.41,0.08580
2121.62,0.08770
2115.83,0.08890
2110.05,0.08990
2104.26,0.09088
2098.47,0.09136
2092.69,0.09139
2086.9,0.09122
2081.12,0.09080
2075.33,0.09047
2069.54,0.09036
2063.76,0.09013
2057.97,0.08981
2052.19,0.08907
2046.4,0.08801
2040.61,0.08756
2034.83,0.08674
2029.04,0.08567
2023.25,0.08522
2017.47,0.08505
2011.68,0.08386
2005.9,0.08286
2000.11,0.08220
1994.32,0.08212
1988.54,0.08158
1982.75,0.08128
1976.96,0.08059
1971.18,0.08015
1965.39,0.07919
1959.61,0.07788
1953.82,0.07937
1948.03,0.07897
1942.25,0.07881
1936.46,0.07800
1930.67,0.07779
1924.89,0.07723
1919.1,0.07617
1913.32,0.07512
1907.53,0.07393
1901.74,0.07279
1895.96,0.07122
1890.17,0.07004
1884.38,0.06898
1878.6,0.06834
1872.81,0.06720
1867.03,0.06643
1861.24,0.06572
1855.45,0.06536
1849.67,0.06500
1843.88,0.06370
1838.09,0.06234
1832.31,0.06024
1826.52,0.05738
1820.74,0.05433
1814.95,0.05129
1809.16,0.04730
1803.38,0.03951
1797.59,0.03438
1791.8,0.03569
1786.02,0.04117
1780.23,0.04596
1774.45,0.04783
1768.66,0.04773
1762.87,0.04748
1757.09,0.04650
1751.3,0.04544
1745.51,0.04413
1739.73,0.04367
1733.94,0.04264
1728.16,0.04253
1722.37,0.04263
1716.58,0.04195
1710.8,0.04071
1705.01,0.04032
1699.22,0.03858
1693.44,0.03692
1687.65,0.03562
1681.87,0.03503
1676.08,0.03448
1670.29,0.03456
1664.51,0.03394
1658.72,0.03378
1652.93,0.03366
1647.15,0.03355
1641.36,0.03346
1635.58,0.03402
1629.79,0.03384
1624,0.03470
1618.22,0.03629
1612.43,0.03789
1606.64,0.03936
1600.86,0.04058
1595.07,0.04199
1589.29,0.04395
1583.5,0.04706
1577.71,0.05265
1571.93,0.05891
1566.14,0.06480
1560.35,0.07011
1554.57,0.07663
1548.78,0.08180
1543,0.08551
1537.21,0.08883
1531.42,0.09128
1525.64,0.09209
1519.85,0.09221
1514.07,0.09174
1508.28,0.09174
1502.49,0.09127
1496.71,0.09080
1490.92,0.09090
1485.13,0.09029
1479.35,0.08985
1473.56,0.08953
1467.78,0.08895
1461.99,0.08891
1456.2,0.08931
1450.42,0.08918
1444.63,0.08874
1438.84,0.08904
1433.06,0.09042
1427.27,0.09303
1421.49,0.09596
1415.7,0.10033
1409.91,0.10356
1404.13,0.10015
1398.34,0.09527
1392.55,0.09147
1386.77,0.08767
1380.98,0.08481
1375.2,0.08303
1369.41,0.08269
1363.62,0.08331
1357.84,0.08441
1352.05,0.08497
1346.26,0.08511
1340.48,0.08533
1334.69,0.08497
1328.91,0.08444
1323.12,0.08374
1317.33,0.08347
1311.55,0.08465
1305.76,0.08568
1299.97,0.08684
1294.19,0.08781
1288.4,0.08708
1282.62,0.08599
1276.83,0.08653
1271.04,0.08588
1265.26,0.08493
1259.47,0.08489
1253.68,0.08453
1247.9,0.08286
1242.11,0.08147
1236.33,0.08059
1230.54,0.07980
1224.75,0.07838
1218.97,0.07701
1213.18,0.07463
1207.39,0.07157
1201.61,0.06935
1195.82,0.06687
1190.04,0.06463
1184.25,0.06367
1178.46,0.06145
1172.68,0.06092
1166.89,0.05979
1161.1,0.05916
1155.32,0.06066
1149.53,0.06072
1143.75,0.06130
1137.96,0.06064
1132.17,0.06045
1126.39,0.06005
1120.6,0.05935
1114.81,0.05732
1109.03,0.05584
1103.24,0.05451
1097.46,0.05273
1091.67,0.05184
1085.88,0.05152
1080.1,0.05089
1074.31,0.05036
1068.52,0.05008
1062.74,0.04856
1056.95,0.04817
1051.17,0.04759
1045.38,0.04701
1039.59,0.04699
1033.81,0.04693
1028.02,0.04678
1022.24,0.04658
1016.45,0.04688
1010.66,0.04696
1004.88,0.04586
999.09,0.04590
993.304,0.04634
987.518,0.04611
981.731,0.04630
975.945,0.04583
970.159,0.04580
964.373,0.04605
958.586,0.04642
952.8,0.04603
947.014,0.04598
941.228,0.04579
935.441,0.04595
929.655,0.04561
923.869,0.04563
918.083,0.04524
912.297,0.04572
906.51,0.04499
900.724,0.04708
894.938,0.04899
889.152,0.05048
883.365,0.04384
877.579,0.05218
871.793,0.06368
866.007,0.05853
860.22,0.05267
854.434,0.04963
848.648,0.04655
842.862,0.04774
837.075,0.04566
831.289,0.04525
825.503,0.04433
819.717,0.04418
813.931,0.04473
808.144,0.04405
802.358,0.04400
796.572,0.04320
790.786,0.04238
784.999,0.04251
779.213,0.04189
773.427,0.04214
767.641,0.04154
761.854,0.04046
756.068,0.04052
750.282,0.03952
744.496,0.03992
738.709,0.03879
732.923,0.03628
727.137,0.03619
721.351,0.03441
715.565,0.03333
709.778,0.03890
703.992,0.03947
698.206,0.03938
692.42,0.03932
686.633,0.03918
680.847,0.03976
675.061,0.03897
669.275,0.03904
663.488,0.03617
657.702,0.03645
651.916,0.03505
646.13,0.03600
640.343,0.03453
634.557,0.03452
628.771,0.03331
622.985,0.03277
617.198,0.03351
611.412,0.03551
605.626,0.03326
599.84,0.03608