File: 01_Data/Cinder_Block/FTIR/IS/Cinder_Block_IS_S_221214_R5.dpt
7497.03,0.19549
7491.25,0.19949
7485.46,0.19314
7479.67,0.20072
7473.89,0.18992
7468.1,0.18754
7462.32,0.18901
7456.53,0.19337
7450.74,0.19643
7444.96,0.19927
7439.17,0.19640
7433.38,0.19475
7427.6,0.20727
7421.81,0.19629
7416.03,0.19930
7410.24,0.19261
7404.45,0.19443
7398.67,0.19133
7392.88,0.20156
7387.09,0.20456
7381.31,0.19429
7375.52,0.20028
7369.74,0.19956
7363.95,0.19672
7358.16,0.19630
7352.38,0.19688
7346.59,0.18777
7340.8,0.19503
7335.02,0.18972
7329.23,0.19661
7323.45,0.19284
7317.66,0.19809
7311.87,0.19571
7306.09,0.19905
7300.3,0.19618
7294.51,0.19374
7288.73,0.19304
7282.94,0.19417
7277.16,0.20433
7271.37,0.19652
7265.58,0.19796
7259.8,0.19365
7254.01,0.19406
7248.22,0.19298
7242.44,0.19918
7236.65,0.20239
7230.87,0.19263
7225.08,0.19306
7219.29,0.19210
7213.51,0.19447
7207.72,0.19828
7201.93,0.19864
7196.15,0.19597
7190.36,0.19527
7184.58,0.20082
7178.79,0.19804
7173,0.20037
7167.22,0.19222
7161.43,0.19820
7155.65,0.19176
7149.86,0.19473
7144.07,0.19475
7138.29,0.18553
7132.5,0.19364
7126.71,0.20147
7120.93,0.19175
7115.14,0.19920
7109.36,0.19730
7103.57,0.19210
7097.78,0.19037
7092,0.18966
7086.21,0.18843
7080.42,0.19973
7074.64,0.19234
7068.85,0.18938
7063.07,0.19235
7057.28,0.19548
7051.49,0.19445
7045.71,0.19454
7039.92,0.20139
7034.13,0.19484
7028.35,0.19419
7022.56,0.19142
7016.78,0.19117
7010.99,0.19395
7005.2,0.19094
6999.42,0.19065
6993.63,0.18967
6987.84,0.18922
6982.06,0.19206
6976.27,0.19702
6970.49,0.19571
6964.7,0.19711
6958.91,0.19079
6953.13,0.19373
6947.34,0.20090
6941.55,0.18919
6935.77,0.20080
6929.98,0.20082
6924.2,0.19554
6918.41,0.19370
6912.62,0.19530
6906.84,0.19210
6901.05,0.19435
6895.26,0.19822
6889.48,0.19358
6883.69,0.18955
6877.91,0.19518
6872.12,0.19356
6866.33,0.19145
6860.55,0.19105
6854.76,0.19389
6848.97,0.19393
6843.19,0.19394
6837.4,0.19304
6831.62,0.19677
6825.83,0.19449
6820.04,0.19777
6814.26,0.20110
6808.47,0.19198
6802.68,0.19562
6796.9,0.19582
6791.11,0.19967
6785.33,0.19250
6779.54,0.19005
6773.75,0.19502
6767.97,0.18989
6762.18,0.19257
6756.39,0.19198
6750.61,0.19074
6744.82,0.19403
6739.04,0.19603
6733.25,0.19880
6727.46,0.19250
6721.68,0.19187
6715.89,0.19656
6710.1,0.19451
6704.32,0.19546
6698.53,0.20098
6692.75,0.19799
6686.96,0.19604
6681.17,0.19823
6675.39,0.19365
6669.6,0.19812
6663.82,0.19556
6658.03,0.19448
6652.24,0.19688
6646.46,0.19349
6640.67,0.19423
6634.88,0.18949
6629.1,0.19542
6623.31,0.19881
6617.53,0.19517
6611.74,0.19638
6605.95,0.19820
6600.17,0.19591
6594.38,0.19788
6588.59,0.19474
6582.81,0.19735
6577.02,0.19740
6571.24,0.19751
6565.45,0.19420
6559.66,0.19527
6553.88,0.19723
6548.09,0.19848
6542.3,0.19517
6536.52,0.19450
6530.73,0.19801
6524.95,0.19279
6519.16,0.19334
6513.37,0.19422
6507.59,0.19726
6501.8,0.19436
6496.01,0.19247
6490.23,0.19746
6484.44,0.19045
6478.66,0.19897
6472.87,0.19845
6467.08,0.20083
6461.3,0.19905
6455.51,0.19516
6449.72,0.19356
6443.94,0.19633
6438.15,0.19497
6432.37,0.19472
6426.58,0.19062
6420.79,0.19559
6415.01,0.19530
6409.22,0.19977
6403.43,0.20078
6397.65,0.19436
6391.86,0.19673
6386.08,0.19895
6380.29,0.19521
6374.5,0.19401
6368.72,0.19348
6362.93,0.19128
6357.14,0.19555
6351.36,0.19259
6345.57,0.19466
6339.79,0.19235
6334,0.19299
6328.21,0.19705
6322.43,0.19700
6316.64,0.19641
6310.85,0.20138
6305.07,0.19522
6299.28,0.19489
6293.5,0.19295
6287.71,0.19832
6281.92,0.19570
6276.14,0.20013
6270.35,0.19612
6264.56,0.19621
6258.78,0.19598
6252.99,0.19913
6247.21,0.19598
6241.42,0.19491
6235.63,0.19686
6229.85,0.19694
6224.06,0.19533
6218.27,0.19745
6212.49,0.19597
6206.7,0.19683
6200.92,0.19876
6195.13,0.19571
6189.34,0.19617
6183.56,0.19710
6177.77,0.19789
6171.98,0.19663
6166.2,0.19737
6160.41,0.20044
6154.63,0.20195
6148.84,0.19483
6143.05,0.19402
6137.27,0.19514
6131.48,0.19387
6125.7,0.19553
6119.91,0.19846
6114.12,0.19728
6108.34,0.19498
6102.55,0.19507
6096.76,0.19988
6090.98,0.19787
6085.19,0.19782
6079.41,0.19683
6073.62,0.19802
6067.83,0.19666
6062.05,0.19709
6056.26,0.19419
6050.47,0.19431
6044.69,0.19474
6038.9,0.19642
6033.12,0.19761
6027.33,0.19571
6021.54,0.19674
6015.76,0.19785
6009.97,0.19880
6004.18,0.19753
5998.4,0.19686
5992.61,0.19374
5986.83,0.19712
5981.04,0.19671
5975.25,0.19618
5969.47,0.19885
5963.68,0.19883
5957.89,0.19708
5952.11,0.19948
5946.32,0.19704
5940.54,0.19827
5934.75,0.19769
5928.96,0.20078
5923.18,0.19846
5917.39,0.20021
5911.6,0.19674
5905.82,0.19723
5900.03,0.19629
5894.25,0.19893
5888.46,0.19902
5882.67,0.20055
5876.89,0.19919
5871.1,0.19810
5865.31,0.19811
5859.53,0.19533
5853.74,0.19660
5847.96,0.19467
5842.17,0.19572
5836.38,0.19813
5830.6,0.19827
5824.81,0.19823
5819.02,0.19856
5813.24,0.19615
5807.45,0.19526
5801.67,0.19582
5795.88,0.19684
5790.09,0.19829
5784.31,0.19845
5778.52,0.19780
5772.73,0.19800
5766.95,0.19845
5761.16,0.19717
5755.38,0.19823
5749.59,0.19804
5743.8,0.19967
5738.02,0.19810
5732.23,0.19712
5726.44,0.19648
5720.66,0.19755
5714.87,0.19799
5709.09,0.19638
5703.3,0.19650
5697.51,0.19868
5691.73,0.19841
5685.94,0.19683
5680.15,0.19570
5674.37,0.19732
5668.58,0.19645
5662.8,0.19676
5657.01,0.20049
5651.22,0.20102
5645.44,0.19874
5639.65,0.19920
5633.87,0.19825
5628.08,0.19537
5622.29,0.19557
5616.51,0.19755
5610.72,0.19796
5604.93,0.19747
5599.15,0.19749
5593.36,0.19653
5587.58,0.19801
5581.79,0.19809
5576,0.19734
5570.22,0.19969
5564.43,0.19834
5558.64,0.19854
5552.86,0.19739
5547.07,0.19849
5541.29,0.19741
5535.5,0.19779
5529.71,0.19768
5523.93,0.19749
5518.14,0.19554
5512.35,0.19640
5506.57,0.19814
5500.78,0.19902
5495,0.19904
5489.21,0.19895
5483.42,0.19643
5477.64,0.19846
5471.85,0.19903
5466.06,0.19838
5460.28,0.19827
5454.49,0.19706
5448.71,0.19778
5442.92,0.19842
5437.13,0.19727
5431.35,0.19801
5425.56,0.19813
5419.77,0.19851
5413.99,0.19781
5408.2,0.19847
5402.42,0.19861
5396.63,0.19831
5390.84,0.19641
5385.06,0.19770
5379.27,0.19893
5373.48,0.19773
5367.7,0.19785
5361.91,0.19610
5356.13,0.19634
5350.34,0.19685
5344.55,0.19883
5338.77,0.19586
5332.98,0.19716
5327.19,0.19818
5321.41,0.19733
5315.62,0.19606
5309.84,0.19707
5304.05,0.19571
5298.26,0.19498
5292.48,0.19516
5286.69,0.19425
5280.9,0.19411
5275.12,0.19309
5269.33,0.19301
5263.55,0.19312
5257.76,0.19101
5251.97,0.19225
5246.19,0.19051
5240.4,0.18999
5234.61,0.18891
5228.83,0.18959
5223.04,0.18995
5217.26,0.18901
5211.47,0.18862
5205.68,0.18785
5199.9,0.18864
5194.11,0.18684
5188.32,0.18672
5182.54,0.18576
5176.75,0.18811
5170.97,0.18788
5165.18,0.18645
5159.39,0.18782
5153.61,0.18810
5147.82,0.18851
5142.03,0.18772
5136.25,0.18797
5130.46,0.18736
5124.68,0.18868
5118.89,0.18963
5113.1,0.18972
5107.32,0.19017
5101.53,0.18779
5095.75,0.18908
5089.96,0.18980
5084.17,0.18962
5078.39,0.18947
5072.6,0.19028
5066.81,0.19105
5061.03,0.19122
5055.24,0.19072
5049.46,0.19076
5043.67,0.19103
5037.88,0.19139
5032.1,0.19043
5026.31,0.19079
5020.52,0.19089
5014.74,0.19162
5008.95,0.19092
5003.17,0.19113
4997.38,0.19339
4991.59,0.19235
4985.81,0.19189
4980.02,0.19265
4974.23,0.19162
4968.45,0.19231
4962.66,0.19217
4956.88,0.19220
4951.09,0.19287
4945.3,0.19348
4939.52,0.19243
4933.73,0.19277
4927.94,0.19333
4922.16,0.19388
4916.37,0.19314
4910.59,0.19250
4904.8,0.19276
4899.01,0.19310
4893.23,0.19423
4887.44,0.19441
4881.65,0.19421
4875.87,0.19392
4870.08,0.19293
4864.3,0.19445
4858.51,0.19448
4852.72,0.19387
4846.94,0.19414
4841.15,0.19324
4835.36,0.19187
4829.58,0.19371
4823.79,0.19318
4818.01,0.19447
4812.22,0.19489
4806.43,0.19379
4800.65,0.19347
4794.86,0.19424
4789.07,0.19502
4783.29,0.19499
4777.5,0.19389
4771.72,0.19305
4765.93,0.19390
4760.14,0.19506
4754.36,0.19446
4748.57,0.19378
4742.78,0.19382
4737,0.19387
4731.21,0.19461
4725.43,0.19481
4719.64,0.19492
4713.85,0.19460
4708.07,0.19455
4702.28,0.19457
4696.49,0.19445
4690.71,0.19391
4684.92,0.19533
4679.14,0.19463
4673.35,0.19518
4667.56,0.19431
4661.78,0.19390
4655.99,0.19425
4650.2,0.19547
4644.42,0.19451
4638.63,0.19380
4632.85,0.19314
4627.06,0.19323
4621.27,0.19337
4615.49,0.19489
4609.7,0.19410
4603.92,0.19360
4598.13,0.19389
4592.34,0.19352
4586.56,0.19375
4580.77,0.19334
4574.98,0.19369
4569.2,0.19344
4563.41,0.19273
4557.63,0.19289
4551.84,0.19350
4546.05,0.19317
4540.27,0.19305
4534.48,0.19260
4528.69,0.19184
4522.91,0.19117
4517.12,0.19239
4511.34,0.19187
4505.55,0.19110
4499.76,0.19132
4493.98,0.19105
4488.19,0.19142
4482.4,0.19181
4476.62,0.19167
4470.83,0.19180
4465.05,0.19165
4459.26,0.19150
4453.47,0.19182
4447.69,0.19135
4441.9,0.19144
4436.11,0.19161
4430.33,0.19250
4424.54,0.19125
4418.76,0.19022
4412.97,0.19125
4407.18,0.19093
4401.4,0.19092
4395.61,0.19008
4389.82,0.19032
4384.04,0.19047
4378.25,0.18939
4372.47,0.18909
4366.68,0.18872
4360.89,0.18956
4355.11,0.18875
4349.32,0.18924
4343.53,0.18854
4337.75,0.18807
4331.96,0.18740
4326.18,0.18778
4320.39,0.18716
4314.6,0.18752
4308.82,0.18665
4303.03,0.18546
4297.24,0.18624
4291.46,0.18493
4285.67,0.18460
4279.89,0.18444
4274.1,0.18509
4268.31,0.18423
4262.53,0.18451
4256.74,0.18381
4250.95,0.18575
4245.17,0.18533
4239.38,0.18581
4233.6,0.18658
4227.81,0.18719
4222.02,0.18741
4216.24,0.18704
4210.45,0.18753
4204.66,0.18699
4198.88,0.18739
4193.09,0.18763
4187.31,0.18705
4181.52,0.18747
4175.73,0.18674
4169.95,0.18631
4164.16,0.18607
4158.37,0.18550
4152.59,0.18484
4146.8,0.18542
4141.02,0.18420
4135.23,0.18502
4129.44,0.18423
4123.66,0.18307
4117.87,0.18296
4112.09,0.18257
4106.3,0.18196
4100.51,0.18230
4094.73,0.18121
4088.94,0.18188
4083.15,0.18060
4077.37,0.18003
4071.58,0.17911
4065.8,0.17905
4060.01,0.17833
4054.22,0.17723
4048.44,0.17706
4042.65,0.17547
4036.86,0.17500
4031.08,0.17467
4025.29,0.17441
4019.51,0.17417
4013.72,0.17353
4007.93,0.17295
4002.15,0.17266
3996.36,0.17283
3990.57,0.17197
3984.79,0.17153
3979,0.17145
3973.22,0.17109
3967.43,0.17021
3961.64,0.17034
3955.86,0.16895
3950.07,0.16820
3944.28,0.16764
3938.5,0.16838
3932.71,0.16870
3926.93,0.16986
3921.14,0.17237
3915.35,0.17306
3909.57,0.17403
3903.78,0.17495
3897.99,0.17585
3892.21,0.17611
3886.42,0.17533
3880.64,0.17639
3874.85,0.17641
3869.06,0.17676
3863.28,0.17656
3857.49,0.17692
3851.7,0.17602
3845.92,0.17652
3840.13,0.17605
3834.35,0.17501
3828.56,0.17515
3822.77,0.17583
3816.99,0.17575
3811.2,0.17466
3805.41,0.17442
3799.63,0.17409
3793.84,0.17323
3788.06,0.17300
3782.27,0.17172
3776.48,0.17097
3770.7,0.17092
3764.91,0.16993
3759.12,0.16832
3753.34,0.16732
3747.55,0.16564
3741.77,0.16226
3735.98,0.16019
3730.19,0.15728
3724.41,0.15285
3718.62,0.14683
3712.83,0.14168
3707.05,0.13631
3701.26,0.13139
3695.48,0.12662
3689.69,0.12123
3683.9,0.11461
3678.12,0.10899
3672.33,0.10313
3666.54,0.09660
3660.76,0.09047
3654.97,0.08602
3649.19,0.08025
3643.4,0.07600
3637.61,0.07187
3631.83,0.06821
3626.04,0.06601
3620.25,0.06369
3614.47,0.06229
3608.68,0.06119
3602.9,0.06025
3597.11,0.05928
3591.32,0.05924
3585.54,0.05835
3579.75,0.05833
3573.97,0.05766
3568.18,0.05719
3562.39,0.05616
3556.61,0.05587
3550.82,0.05583
3545.03,0.05466
3539.25,0.05389
3533.46,0.05402
3527.68,0.05290
3521.89,0.05257
3516.1,0.05287
3510.32,0.05203
3504.53,0.05227
3498.74,0.05148
3492.96,0.05145
3487.17,0.05102
3481.39,0.05071
3475.6,0.05159
3469.81,0.05102
3464.03,0.05061
3458.24,0.05057
3452.45,0.04986
3446.67,0.04978
3440.88,0.04914
3435.1,0.04944
3429.31,0.04871
3423.52,0.04898
3417.74,0.04904
3411.95,0.04868
3406.16,0.04843
3400.38,0.04827
3394.59,0.04822
3388.81,0.04910
3383.02,0.04847
3377.23,0.04938
3371.45,0.04854
3365.66,0.04873
3359.87,0.04911
3354.09,0.05014
3348.3,0.04953
3342.52,0.04971
3336.73,0.04961
3330.94,0.04984
3325.16,0.05011
3319.37,0.04957
3313.58,0.05057
3307.8,0.05029
3302.01,0.05069
3296.23,0.05147
3290.44,0.05162
3284.65,0.05169
3278.87,0.05176
3273.08,0.05152
3267.29,0.05174
3261.51,0.05228
3255.72,0.05278
3249.94,0.05324
3244.15,0.05305
3238.36,0.05375
3232.58,0.05438
3226.79,0.05475
3221,0.05581
3215.22,0.05549
3209.43,0.05585
3203.65,0.05682
3197.86,0.05738
3192.07,0.05741
3186.29,0.05793
3180.5,0.05816
3174.71,0.05884
3168.93,0.05960
3163.14,0.05963
3157.36,0.06005
3151.57,0.06085
3145.78,0.06135
3140,0.06206
3134.21,0.06182
3128.42,0.06293
3122.64,0.06325
3116.85,0.06333
3111.07,0.06425
3105.28,0.06400
3099.49,0.06480
3093.71,0.06472
3087.92,0.06582
3082.14,0.06521
3076.35,0.06582
3070.56,0.06599
3064.78,0.06671
3058.99,0.06670
3053.2,0.06687
3047.42,0.06740
3041.63,0.06727
3035.85,0.06734
3030.06,0.06696
3024.27,0.06731
3018.49,0.06766
3012.7,0.06657
3006.91,0.06591
3001.13,0.06589
2995.34,0.06386
2989.56,0.06048
2983.77,0.05900
2977.98,0.05905
2972.2,0.05910
2966.41,0.05940
2960.62,0.06022
2954.84,0.05972
2949.05,0.05965
2943.27,0.05973
2937.48,0.05970
2931.69,0.05946
2925.91,0.05948
2920.12,0.05952
2914.33,0.06105
2908.55,0.06092
2902.76,0.06099
2896.98,0.06110
2891.19,0.06036
2885.4,0.05951
2879.62,0.05692
2873.83,0.05656
2868.04,0.05767
2862.26,0.05922
2856.47,0.06073
2850.69,0.06325
2844.9,0.06577
2839.11,0.07004
2833.33,0.07450
2827.54,0.07761
2821.75,0.07961
2815.97,0.08153
2810.18,0.08302
2804.4,0.08396
2798.61,0.08445
2792.82,0.08608
2787.04,0.08814
2781.25,0.08853
2775.46,0.09013
2769.68,0.09081
2763.89,0.09135
2758.11,0.09214
2752.32,0.09260
2746.53,0.09395
2740.75,0.09388
2734.96,0.09466
2729.17,0.09494
2723.39,0.09557
2717.6,0.09615
2711.82,0.09637
2706.03,0.09682
2700.24,0.09736
2694.46,0.09721
2688.67,0.09770
2682.88,0.09786
2677.1,0.09791
2671.31,0.09758
2665.53,0.09743
2659.74,0.09689
2653.95,0.09646
2648.17,0.09511
2642.38,0.09366
2636.59,0.09037
2630.81,0.08641
2625.02,0.08268
2619.24,0.08052
2613.45,0.07779
2607.66,0.07553
2601.88,0.07357
2596.09,0.07271
2590.3,0.07219
2584.52,0.07137
2578.73,0.07087
2572.95,0.07038
2567.16,0.06962
2561.37,0.06916
2555.59,0.06784
2549.8,0.06645
2544.02,0.06471
2538.23,0.06210
2532.44,0.05817
2526.66,0.05404
2520.87,0.05191
2515.08,0.05159
2509.3,0.05232
2503.51,0.05546
2497.73,0.06116
2491.94,0.06648
2486.15,0.07218
2480.37,0.07733
2474.58,0.08287
2468.79,0.08769
2463.01,0.09133
2457.22,0.09442
2451.44,0.09692
2445.65,0.09853
2439.86,0.09932
2434.08,0.10087
2428.29,0.10178
2422.5,0.10302
2416.72,0.10360
2410.93,0.10397
2405.15,0.10417
2399.36,0.10429
2393.57,0.10498
2387.79,0.10466
2382,0.10464
2376.21,0.10467
2370.43,0.10450
2364.64,0.10407
2358.86,0.10397
2353.07,0.10424
2347.28,0.10366
2341.5,0.10337
2335.71,0.10305
2329.92,0.10315
2324.14,0.10219
2318.35,0.10138
2312.57,0.10171
2306.78,0.10126
2300.99,0.10064
2295.21,0.10057
2289.42,0.10067
2283.63,0.10019
2277.85,0.09970
2272.06,0.09891
2266.28,0.09820
2260.49,0.09791
2254.7,0.09685
2248.92,0.09605
2243.13,0.09552
2237.34,0.09501
2231.56,0.09431
2225.77,0.09355
2219.99,0.09302
2214.2,0.09295
2208.41,0.09254
2202.63,0.09246
2196.84,0.09217
2191.05,0.09174
2185.27,0.09165
2179.48,0.09155
2173.7,0.09064
2167.91,0.08985
2162.12,0.08864
2156.34,0.08657
2150.55,0.08473
2144.76,0.08360
2138.98,0.08303
2133.19,0.08380
2127.41,0.08532
2121.62,0.08715
2115.83,0.08888
2110.05,0.08988
2104.26,0.09025
2098.47,0.09056
2092.69,0.09103
2086.9,0.09068
2081.12,0.09052
2075.33,0.09028
2069.54,0.08968
2063.76,0.08955
2057.97,0.08906
2052.19,0.08843
2046.4,0.08793
2040.61,0.08739
2034.83,0.08626
2029.04,0.08544
2023.25,0.08473
2017.47,0.08431
2011.68,0.08334
2005.9,0.08260
2000.11,0.08170
1994.32,0.08127
1988.54,0.08105
1982.75,0.08083
1976.96,0.08029
1971.18,0.07964
1965.39,0.07884
1959.61,0.07736
1953.82,0.07862
1948.03,0.07884
1942.25,0.07812
1936.46,0.07768
1930.67,0.07700
1924.89,0.07701
1919.1,0.07597
1913.32,0.07496
1907.53,0.07343
1901.74,0.07190
1895.96,0.07055
1890.17,0.06959
1884.38,0.06903
1878.6,0.06766
1872.81,0.06651
1867.03,0.06597
1861.24,0.06524
1855.45,0.06503
1849.67,0.06464
1843.88,0.06340
1838.09,0.06209
1832.31,0.05970
1826.52,0.05681
1820.74,0.05410
1814.95,0.05133
1809.16,0.04675
1803.38,0.03925
1797.59,0.03417
1791.8,0.03541
1786.02,0.04091
1780.23,0.04538
1774.45,0.04763
1768.66,0.04787
1762.87,0.04715
1757.09,0.04624
1751.3,0.04512
1745.51,0.04389
1739.73,0.04285
1733.94,0.04268
1728.16,0.04263
1722.37,0.04223
1716.58,0.04148
1710.8,0.04066
1705.01,0.04004
1699.22,0.03907
1693.44,0.03742
1687.65,0.03567
1681.87,0.03517
1676.08,0.03453
1670.29,0.03411
1664.51,0.03376
1658.72,0.03358
1652.93,0.03336
1647.15,0.03347
1641.36,0.03326
1635.58,0.03350
1629.79,0.03390
1624,0.03449
1618.22,0.03594
1612.43,0.03788
1606.64,0.03925
1600.86,0.04066
1595.07,0.04189
1589.29,0.04350
1583.5,0.04686
1577.71,0.05205
1571.93,0.05875
1566.14,0.06429
1560.35,0.06977
1554.57,0.07583
1548.78,0.08116
1543,0.08483
1537.21,0.08846
1531.42,0.09038
1525.64,0.09150
1519.85,0.09112
1514.07,0.09078
1508.28,0.09069
1502.49,0.09031
1496.71,0.09012
1490.92,0.09029
1485.13,0.08990
1479.35,0.08920
1473.56,0.08914
1467.78,0.08864
1461.99,0.08837
1456.2,0.08840
1450.42,0.08816
1444.63,0.08802
1438.84,0.08849
1433.06,0.08959
1427.27,0.09215
1421.49,0.09531
1415.7,0.09962
1409.91,0.10257
1404.13,0.09947
1398.34,0.09424
1392.55,0.09055
1386.77,0.08703
1380.98,0.08432
1375.2,0.08204
1369.41,0.08183
1363.62,0.08273
1357.84,0.08379
1352.05,0.08424
1346.26,0.08449
1340.48,0.08440
1334.69,0.08441
1328.91,0.08422
1323.12,0.08319
1317.33,0.08275
1311.55,0.08381
1305.76,0.08505
1299.97,0.08630
1294.19,0.08695
1288.4,0.08646
1282.62,0.08563
1276.83,0.08553
1271.04,0.08538
1265.26,0.08423
1259.47,0.08400
1253.68,0.08369
1247.9,0.08268
1242.11,0.08139
1236.33,0.08053
1230.54,0.07910
1224.75,0.07792
1218.97,0.07643
1213.18,0.07426
1207.39,0.07132
1201.61,0.06930
1195.82,0.06672
1190.04,0.06457
1184.25,0.06347
1178.46,0.06193
1172.68,0.06054
1166.89,0.05973
1161.1,0.05946
1155.32,0.06039
1149.53,0.06051
1143.75,0.06108
1137.96,0.06110
1132.17,0.06027
1126.39,0.06000
1120.6,0.05857
1114.81,0.05722
1109.03,0.05522
1103.24,0.05383
1097.46,0.05200
1091.67,0.05190
1085.88,0.05085
1080.1,0.05085
1074.31,0.05145
1068.52,0.05017
1062.74,0.04873
1056.95,0.04784
1051.17,0.04810
1045.38,0.04698
1039.59,0.04724
1033.81,0.04679
1028.02,0.04664
1022.24,0.04551
1016.45,0.04598
1010.66,0.04592
1004.88,0.04655
999.09,0.04623
993.304,0.04598
987.518,0.04579
981.731,0.04579
975.945,0.04574
970.159,0.04567
964.373,0.04570
958.586,0.04624
952.8,0.04631
947.014,0.04577
941.228,0.04707
935.441,0.04602
929.655,0.04655
923.869,0.04619
918.083,0.04543
912.297,0.04545
906.51,0.04528
900.724,0.04680
894.938,0.04942
889.152,0.05083
883.365,0.04441
877.579,0.05124
871.793,0.06292
866.007,0.05870
860.22,0.05282
854.434,0.04974
848.648,0.04654
842.862,0.04719
837.075,0.04673
831.289,0.04532
825.503,0.04460
819.717,0.04452
813.931,0.04420
808.144,0.04430
802.358,0.04303
796.572,0.04302
790.786,0.04268
784.999,0.04258
779.213,0.04199
773.427,0.04197
767.641,0.04208
761.854,0.04151
756.068,0.04055
750.282,0.04081
744.496,0.03994
738.709,0.03854
732.923,0.03720
727.137,0.03707
721.351,0.03460
715.565,0.03215
709.778,0.03984
703.992,0.04076
698.206,0.03955
692.42,0.03963
686.633,0.03932
680.847,0.03775
675.061,0.03769
669.275,0.03814
663.488,0.03773
657.702,0.03700
651.916,0.03636
646.13,0.03492
640.343,0.03568
634.557,0.03421
628.771,0.03449
622.985,0.03305
617.198,0.03387
611.412,0.03453
605.626,0.03331
599.84,0.03508