File: 01_Data/Cinder_Block/FTIR/IS/Cinder_Block_IS_T_221214_R6.dpt
7497.03,0.03081
7491.25,0.02703
7485.46,0.01944
7479.67,0.01785
7473.89,0.02647
7468.1,0.03105
7462.32,0.03536
7456.53,0.01888
7450.74,0.02367
7444.96,0.03211
7439.17,0.02404
7433.38,0.02333
7427.6,0.03053
7421.81,0.02695
7416.03,0.03828
7410.24,0.01859
7404.45,0.02399
7398.67,0.02788
7392.88,0.02600
7387.09,0.03167
7381.31,0.02595
7375.52,0.02158
7369.74,0.02159
7363.95,0.02054
7358.16,0.02418
7352.38,0.02238
7346.59,0.02423
7340.8,0.02131
7335.02,0.02236
7329.23,0.03557
7323.45,0.02761
7317.66,0.02771
7311.87,0.03190
7306.09,0.03326
7300.3,0.02245
7294.51,0.02056
7288.73,0.02909
7282.94,0.02978
7277.16,0.02036
7271.37,0.02054
7265.58,0.03088
7259.8,0.02445
7254.01,0.02844
7248.22,0.01458
7242.44,0.03116
7236.65,0.03454
7230.87,0.02564
7225.08,0.02202
7219.29,0.01943
7213.51,0.02340
7207.72,0.01989
7201.93,0.01914
7196.15,0.02925
7190.36,0.03179
7184.58,0.02094
7178.79,0.02202
7173,0.02611
7167.22,0.02243
7161.43,0.02703
7155.65,0.03055
7149.86,0.03318
7144.07,0.02557
7138.29,0.02550
7132.5,0.01979
7126.71,0.03118
7120.93,0.02566
7115.14,0.02522
7109.36,0.03452
7103.57,0.02788
7097.78,0.02673
7092,0.01550
7086.21,0.02871
7080.42,0.02402
7074.64,0.02875
7068.85,0.02887
7063.07,0.02343
7057.28,0.01420
7051.49,0.02280
7045.71,0.02653
7039.92,0.02588
7034.13,0.02502
7028.35,0.02263
7022.56,0.02371
7016.78,0.01973
7010.99,0.02573
7005.2,0.02753
6999.42,0.02080
6993.63,0.02697
6987.84,0.02278
6982.06,0.02583
6976.27,0.02846
6970.49,0.02413
6964.7,0.02378
6958.91,0.02306
6953.13,0.02367
6947.34,0.02211
6941.55,0.01937
6935.77,0.01640
6929.98,0.03178
6924.2,0.02757
6918.41,0.02650
6912.62,0.02466
6906.84,0.02253
6901.05,0.02574
6895.26,0.02814
6889.48,0.02342
6883.69,0.02358
6877.91,0.01903
6872.12,0.02141
6866.33,0.02660
6860.55,0.02358
6854.76,0.02069
6848.97,0.02070
6843.19,0.02056
6837.4,0.01870
6831.62,0.01937
6825.83,0.02193
6820.04,0.02804
6814.26,0.03151
6808.47,0.02244
6802.68,0.02684
6796.9,0.02230
6791.11,0.02822
6785.33,0.02332
6779.54,0.02410
6773.75,0.02143
6767.97,0.02317
6762.18,0.02915
6756.39,0.01859
6750.61,0.02673
6744.82,0.02435
6739.04,0.02351
6733.25,0.02798
6727.46,0.02454
6721.68,0.02936
6715.89,0.02465
6710.1,0.02190
6704.32,0.02393
6698.53,0.01854
6692.75,0.01909
6686.96,0.02051
6681.17,0.02242
6675.39,0.02326
6669.6,0.02000
6663.82,0.02178
6658.03,0.02515
6652.24,0.01948
6646.46,0.02137
6640.67,0.02331
6634.88,0.02752
6629.1,0.02828
6623.31,0.02535
6617.53,0.02276
6611.74,0.02306
6605.95,0.02903
6600.17,0.02781
6594.38,0.02542
6588.59,0.02327
6582.81,0.02232
6577.02,0.01976
6571.24,0.01877
6565.45,0.02080
6559.66,0.02048
6553.88,0.02267
6548.09,0.02518
6542.3,0.02545
6536.52,0.02289
6530.73,0.02405
6524.95,0.02263
6519.16,0.02231
6513.37,0.02500
6507.59,0.02377
6501.8,0.02783
6496.01,0.02906
6490.23,0.02150
6484.44,0.02042
6478.66,0.02368
6472.87,0.02172
6467.08,0.02288
6461.3,0.02278
6455.51,0.02699
6449.72,0.02334
6443.94,0.02183
6438.15,0.02374
6432.37,0.02139
6426.58,0.02426
6420.79,0.02008
6415.01,0.02214
6409.22,0.02335
6403.43,0.01582
6397.65,0.02606
6391.86,0.02305
6386.08,0.02505
6380.29,0.02438
6374.5,0.02357
6368.72,0.02472
6362.93,0.02173
6357.14,0.02437
6351.36,0.02407
6345.57,0.02484
6339.79,0.02593
6334,0.02599
6328.21,0.02349
6322.43,0.02498
6316.64,0.02076
6310.85,0.02160
6305.07,0.02521
6299.28,0.02361
6293.5,0.02634
6287.71,0.02576
6281.92,0.02310
6276.14,0.01969
6270.35,0.02185
6264.56,0.02110
6258.78,0.02049
6252.99,0.02370
6247.21,0.02430
6241.42,0.02371
6235.63,0.02158
6229.85,0.02017
6224.06,0.02022
6218.27,0.02586
6212.49,0.02350
6206.7,0.02616
6200.92,0.02311
6195.13,0.02351
6189.34,0.02436
6183.56,0.02378
6177.77,0.02397
6171.98,0.02313
6166.2,0.02592
6160.41,0.02259
6154.63,0.02455
6148.84,0.02025
6143.05,0.02628
6137.27,0.02338
6131.48,0.02313
6125.7,0.02345
6119.91,0.02275
6114.12,0.02375
6108.34,0.02115
6102.55,0.02206
6096.76,0.02259
6090.98,0.02439
6085.19,0.02319
6079.41,0.02160
6073.62,0.02581
6067.83,0.02184
6062.05,0.02313
6056.26,0.02278
6050.47,0.02472
6044.69,0.02505
6038.9,0.02459
6033.12,0.02010
6027.33,0.02198
6021.54,0.02165
6015.76,0.02336
6009.97,0.02539
6004.18,0.02279
5998.4,0.02193
5992.61,0.02305
5986.83,0.02666
5981.04,0.02149
5975.25,0.02339
5969.47,0.02104
5963.68,0.02016
5957.89,0.02244
5952.11,0.02186
5946.32,0.02254
5940.54,0.01875
5934.75,0.02008
5928.96,0.02342
5923.18,0.02105
5917.39,0.02130
5911.6,0.02451
5905.82,0.02426
5900.03,0.02435
5894.25,0.02019
5888.46,0.02382
5882.67,0.02204
5876.89,0.02289
5871.1,0.02007
5865.31,0.01796
5859.53,0.01978
5853.74,0.02415
5847.96,0.02005
5842.17,0.02218
5836.38,0.02440
5830.6,0.02574
5824.81,0.02218
5819.02,0.02220
5813.24,0.02305
5807.45,0.02276
5801.67,0.02256
5795.88,0.02278
5790.09,0.02379
5784.31,0.02380
5778.52,0.02413
5772.73,0.02394
5766.95,0.02281
5761.16,0.02225
5755.38,0.02541
5749.59,0.02364
5743.8,0.02287
5738.02,0.02152
5732.23,0.02356
5726.44,0.02220
5720.66,0.02313
5714.87,0.02452
5709.09,0.02335
5703.3,0.02345
5697.51,0.02363
5691.73,0.02167
5685.94,0.02265
5680.15,0.02398
5674.37,0.02394
5668.58,0.02129
5662.8,0.02287
5657.01,0.02267
5651.22,0.02243
5645.44,0.02259
5639.65,0.02413
5633.87,0.02243
5628.08,0.02441
5622.29,0.02365
5616.51,0.02333
5610.72,0.02232
5604.93,0.02313
5599.15,0.02246
5593.36,0.02320
5587.58,0.02331
5581.79,0.02232
5576,0.02258
5570.22,0.02358
5564.43,0.02313
5558.64,0.02341
5552.86,0.02296
5547.07,0.02310
5541.29,0.02442
5535.5,0.02232
5529.71,0.02447
5523.93,0.02366
5518.14,0.02387
5512.35,0.02206
5506.57,0.02159
5500.78,0.02416
5495,0.02319
5489.21,0.02274
5483.42,0.02246
5477.64,0.02222
5471.85,0.02090
5466.06,0.02262
5460.28,0.02408
5454.49,0.02330
5448.71,0.02236
5442.92,0.02088
5437.13,0.02315
5431.35,0.02055
5425.56,0.02405
5419.77,0.02213
5413.99,0.02378
5408.2,0.02429
5402.42,0.02367
5396.63,0.02381
5390.84,0.02454
5385.06,0.02375
5379.27,0.02265
5373.48,0.02336
5367.7,0.02226
5361.91,0.02155
5356.13,0.02305
5350.34,0.02269
5344.55,0.02200
5338.77,0.02374
5332.98,0.02522
5327.19,0.02232
5321.41,0.02424
5315.62,0.02204
5309.84,0.02331
5304.05,0.02348
5298.26,0.02282
5292.48,0.02258
5286.69,0.02314
5280.9,0.02234
5275.12,0.02316
5269.33,0.02444
5263.55,0.02169
5257.76,0.02402
5251.97,0.02214
5246.19,0.02314
5240.4,0.02229
5234.61,0.02370
5228.83,0.02470
5223.04,0.02390
5217.26,0.02225
5211.47,0.02321
5205.68,0.02379
5199.9,0.02423
5194.11,0.02487
5188.32,0.02379
5182.54,0.02412
5176.75,0.02377
5170.97,0.02317
5165.18,0.02319
5159.39,0.02324
5153.61,0.02253
5147.82,0.02251
5142.03,0.02239
5136.25,0.02210
5130.46,0.02330
5124.68,0.02415
5118.89,0.02314
5113.1,0.02288
5107.32,0.02259
5101.53,0.02472
5095.75,0.02182
5089.96,0.02362
5084.17,0.02319
5078.39,0.02317
5072.6,0.02284
5066.81,0.02381
5061.03,0.02463
5055.24,0.02494
5049.46,0.02318
5043.67,0.02306
5037.88,0.02335
5032.1,0.02331
5026.31,0.02293
5020.52,0.02324
5014.74,0.02308
5008.95,0.02374
5003.17,0.02335
4997.38,0.02462
4991.59,0.02268
4985.81,0.02280
4980.02,0.02318
4974.23,0.02322
4968.45,0.02417
4962.66,0.02450
4956.88,0.02413
4951.09,0.02294
4945.3,0.02276
4939.52,0.02411
4933.73,0.02379
4927.94,0.02310
4922.16,0.02430
4916.37,0.02271
4910.59,0.02317
4904.8,0.02384
4899.01,0.02337
4893.23,0.02203
4887.44,0.02358
4881.65,0.02248
4875.87,0.02372
4870.08,0.02375
4864.3,0.02308
4858.51,0.02429
4852.72,0.02499
4846.94,0.02403
4841.15,0.02409
4835.36,0.02450
4829.58,0.02320
4823.79,0.02283
4818.01,0.02418
4812.22,0.02361
4806.43,0.02235
4800.65,0.02333
4794.86,0.02197
4789.07,0.02313
4783.29,0.02284
4777.5,0.02467
4771.72,0.02360
4765.93,0.02308
4760.14,0.02375
4754.36,0.02337
4748.57,0.02353
4742.78,0.02395
4737,0.02443
4731.21,0.02348
4725.43,0.02296
4719.64,0.02298
4713.85,0.02321
4708.07,0.02430
4702.28,0.02443
4696.49,0.02373
4690.71,0.02216
4684.92,0.02322
4679.14,0.02333
4673.35,0.02385
4667.56,0.02339
4661.78,0.02452
4655.99,0.02266
4650.2,0.02431
4644.42,0.02286
4638.63,0.02373
4632.85,0.02325
4627.06,0.02415
4621.27,0.02317
4615.49,0.02332
4609.7,0.02345
4603.92,0.02347
4598.13,0.02335
4592.34,0.02360
4586.56,0.02334
4580.77,0.02387
4574.98,0.02327
4569.2,0.02323
4563.41,0.02293
4557.63,0.02403
4551.84,0.02461
4546.05,0.02376
4540.27,0.02307
4534.48,0.02379
4528.69,0.02401
4522.91,0.02331
4517.12,0.02345
4511.34,0.02420
4505.55,0.02372
4499.76,0.02378
4493.98,0.02332
4488.19,0.02318
4482.4,0.02355
4476.62,0.02396
4470.83,0.02418
4465.05,0.02357
4459.26,0.02386
4453.47,0.02424
4447.69,0.02300
4441.9,0.02391
4436.11,0.02305
4430.33,0.02314
4424.54,0.02358
4418.76,0.02353
4412.97,0.02354
4407.18,0.02416
4401.4,0.02378
4395.61,0.02373
4389.82,0.02364
4384.04,0.02376
4378.25,0.02343
4372.47,0.02359
4366.68,0.02470
4360.89,0.02420
4355.11,0.02410
4349.32,0.02359
4343.53,0.02326
4337.75,0.02418
4331.96,0.02363
4326.18,0.02357
4320.39,0.02446
4314.6,0.02404
4308.82,0.02307
4303.03,0.02361
4297.24,0.02366
4291.46,0.02382
4285.67,0.02337
4279.89,0.02352
4274.1,0.02379
4268.31,0.02419
4262.53,0.02333
4256.74,0.02354
4250.95,0.02386
4245.17,0.02440
4239.38,0.02458
4233.6,0.02337
4227.81,0.02356
4222.02,0.02360
4216.24,0.02433
4210.45,0.02429
4204.66,0.02425
4198.88,0.02378
4193.09,0.02388
4187.31,0.02394
4181.52,0.02363
4175.73,0.02451
4169.95,0.02416
4164.16,0.02360
4158.37,0.02377
4152.59,0.02391
4146.8,0.02385
4141.02,0.02425
4135.23,0.02391
4129.44,0.02353
4123.66,0.02464
4117.87,0.02409
4112.09,0.02402
4106.3,0.02439
4100.51,0.02433
4094.73,0.02433
4088.94,0.02393
4083.15,0.02435
4077.37,0.02406
4071.58,0.02380
4065.8,0.02363
4060.01,0.02386
4054.22,0.02419
4048.44,0.02403
4042.65,0.02391
4036.86,0.02370
4031.08,0.02376
4025.29,0.02365
4019.51,0.02435
4013.72,0.02402
4007.93,0.02432
4002.15,0.02420
3996.36,0.02350
3990.57,0.02386
3984.79,0.02341
3979,0.02360
3973.22,0.02457
3967.43,0.02422
3961.64,0.02352
3955.86,0.02404
3950.07,0.02451
3944.28,0.02392
3938.5,0.02391
3932.71,0.02366
3926.93,0.02387
3921.14,0.02441
3915.35,0.02392
3909.57,0.02412
3903.78,0.02382
3897.99,0.02446
3892.21,0.02425
3886.42,0.02398
3880.64,0.02427
3874.85,0.02384
3869.06,0.02408
3863.28,0.02466
3857.49,0.02421
3851.7,0.02331
3845.92,0.02400
3840.13,0.02494
3834.35,0.02357
3828.56,0.02388
3822.77,0.02480
3816.99,0.02458
3811.2,0.02448
3805.41,0.02409
3799.63,0.02376
3793.84,0.02415
3788.06,0.02420
3782.27,0.02449
3776.48,0.02417
3770.7,0.02359
3764.91,0.02401
3759.12,0.02367
3753.34,0.02407
3747.55,0.02364
3741.77,0.02441
3735.98,0.02378
3730.19,0.02416
3724.41,0.02408
3718.62,0.02491
3712.83,0.02410
3707.05,0.02365
3701.26,0.02424
3695.48,0.02423
3689.69,0.02410
3683.9,0.02386
3678.12,0.02405
3672.33,0.02324
3666.54,0.02329
3660.76,0.02415
3654.97,0.02390
3649.19,0.02365
3643.4,0.02367
3637.61,0.02270
3631.83,0.02338
3626.04,0.02333
3620.25,0.02358
3614.47,0.02357
3608.68,0.02330
3602.9,0.02265
3597.11,0.02326
3591.32,0.02343
3585.54,0.02330
3579.75,0.02296
3573.97,0.02263
3568.18,0.02271
3562.39,0.02245
3556.61,0.02269
3550.82,0.02191
3545.03,0.02249
3539.25,0.02205
3533.46,0.02166
3527.68,0.02220
3521.89,0.02280
3516.1,0.02237
3510.32,0.02285
3504.53,0.02253
3498.74,0.02249
3492.96,0.02226
3487.17,0.02274
3481.39,0.02264
3475.6,0.02184
3469.81,0.02161
3464.03,0.02249
3458.24,0.02304
3452.45,0.02174
3446.67,0.02213
3440.88,0.02169
3435.1,0.02207
3429.31,0.02189
3423.52,0.02171
3417.74,0.02156
3411.95,0.02230
3406.16,0.02204
3400.38,0.02171
3394.59,0.02205
3388.81,0.02198
3383.02,0.02135
3377.23,0.02150
3371.45,0.02195
3365.66,0.02128
3359.87,0.02090
3354.09,0.02129
3348.3,0.02160
3342.52,0.02110
3336.73,0.02135
3330.94,0.02203
3325.16,0.02182
3319.37,0.02160
3313.58,0.02190
3307.8,0.02136
3302.01,0.02191
3296.23,0.02213
3290.44,0.02151
3284.65,0.02202
3278.87,0.02149
3273.08,0.02154
3267.29,0.02175
3261.51,0.02153
3255.72,0.02160
3249.94,0.02217
3244.15,0.02171
3238.36,0.02193
3232.58,0.02165
3226.79,0.02228
3221,0.02240
3215.22,0.02192
3209.43,0.02228
3203.65,0.02238
3197.86,0.02210
3192.07,0.02213
3186.29,0.02241
3180.5,0.02277
3174.71,0.02245
3168.93,0.02188
3163.14,0.02144
3157.36,0.02271
3151.57,0.02206
3145.78,0.02239
3140,0.02215
3134.21,0.02254
3128.42,0.02256
3122.64,0.02251
3116.85,0.02190
3111.07,0.02166
3105.28,0.02258
3099.49,0.02260
3093.71,0.02193
3087.92,0.02299
3082.14,0.02265
3076.35,0.02298
3070.56,0.02223
3064.78,0.02202
3058.99,0.02256
3053.2,0.02268
3047.42,0.02239
3041.63,0.02214
3035.85,0.02161
3030.06,0.02206
3024.27,0.02211
3018.49,0.02227
3012.7,0.02178
3006.91,0.02220
3001.13,0.02171
2995.34,0.02155
2989.56,0.02207
2983.77,0.02164
2977.98,0.02143
2972.2,0.02188
2966.41,0.02143
2960.62,0.02093
2954.84,0.02062
2949.05,0.02082
2943.27,0.02154
2937.48,0.02140
2931.69,0.02112
2925.91,0.02154
2920.12,0.02192
2914.33,0.02178
2908.55,0.02203
2902.76,0.02164
2896.98,0.02173
2891.19,0.02199
2885.4,0.02198
2879.62,0.02229
2873.83,0.02166
2868.04,0.02194
2862.26,0.02227
2856.47,0.02208
2850.69,0.02234
2844.9,0.02265
2839.11,0.02261
2833.33,0.02289
2827.54,0.02323
2821.75,0.02287
2815.97,0.02298
2810.18,0.02273
2804.4,0.02253
2798.61,0.02324
2792.82,0.02297
2787.04,0.02258
2781.25,0.02299
2775.46,0.02308
2769.68,0.02300
2763.89,0.02315
2758.11,0.02285
2752.32,0.02238
2746.53,0.02290
2740.75,0.02273
2734.96,0.02249
2729.17,0.02279
2723.39,0.02303
2717.6,0.02294
2711.82,0.02300
2706.03,0.02327
2700.24,0.02319
2694.46,0.02354
2688.67,0.02301
2682.88,0.02250
2677.1,0.02274
2671.31,0.02283
2665.53,0.02306
2659.74,0.02315
2653.95,0.02311
2648.17,0.02293
2642.38,0.02315
2636.59,0.02310
2630.81,0.02313
2625.02,0.02284
2619.24,0.02327
2613.45,0.02330
2607.66,0.02344
2601.88,0.02296
2596.09,0.02327
2590.3,0.02317
2584.52,0.02293
2578.73,0.02297
2572.95,0.02298
2567.16,0.02305
2561.37,0.02300
2555.59,0.02338
2549.8,0.02311
2544.02,0.02310
2538.23,0.02297
2532.44,0.02311
2526.66,0.02357
2520.87,0.02335
2515.08,0.02327
2509.3,0.02291
2503.51,0.02265
2497.73,0.02311
2491.94,0.02296
2486.15,0.02329
2480.37,0.02299
2474.58,0.02301
2468.79,0.02340
2463.01,0.02288
2457.22,0.02288
2451.44,0.02321
2445.65,0.02294
2439.86,0.02314
2434.08,0.02338
2428.29,0.02328
2422.5,0.02331
2416.72,0.02317
2410.93,0.02334
2405.15,0.02338
2399.36,0.02325
2393.57,0.02308
2387.79,0.02345
2382,0.02325
2376.21,0.02328
2370.43,0.02337
2364.64,0.02289
2358.86,0.02339
2353.07,0.02303
2347.28,0.02366
2341.5,0.02353
2335.71,0.02328
2329.92,0.02341
2324.14,0.02321
2318.35,0.02345
2312.57,0.02330
2306.78,0.02346
2300.99,0.02319
2295.21,0.02316
2289.42,0.02307
2283.63,0.02327
2277.85,0.02321
2272.06,0.02333
2266.28,0.02319
2260.49,0.02283
2254.7,0.02293
2248.92,0.02304
2243.13,0.02307
2237.34,0.02303
2231.56,0.02275
2225.77,0.02307
2219.99,0.02338
2214.2,0.02302
2208.41,0.02312
2202.63,0.02317
2196.84,0.02304
2191.05,0.02297
2185.27,0.02291
2179.48,0.02275
2173.7,0.02284
2167.91,0.02297
2162.12,0.02301
2156.34,0.02303
2150.55,0.02311
2144.76,0.02313
2138.98,0.02329
2133.19,0.02311
2127.41,0.02325
2121.62,0.02295
2115.83,0.02290
2110.05,0.02313
2104.26,0.02306
2098.47,0.02313
2092.69,0.02294
2086.9,0.02277
2081.12,0.02271
2075.33,0.02275
2069.54,0.02294
2063.76,0.02297
2057.97,0.02317
2052.19,0.02278
2046.4,0.02304
2040.61,0.02314
2034.83,0.02266
2029.04,0.02313
2023.25,0.02322
2017.47,0.02291
2011.68,0.02283
2005.9,0.02295
2000.11,0.02284
1994.32,0.02301
1988.54,0.02309
1982.75,0.02332
1976.96,0.02300
1971.18,0.02299
1965.39,0.02259
1959.61,0.02272
1953.82,0.02293
1948.03,0.02284
1942.25,0.02303
1936.46,0.02314
1930.67,0.02278
1924.89,0.02275
1919.1,0.02264
1913.32,0.02243
1907.53,0.02239
1901.74,0.02259
1895.96,0.02269
1890.17,0.02270
1884.38,0.02268
1878.6,0.02257
1872.81,0.02273
1867.03,0.02224
1861.24,0.02256
1855.45,0.02264
1849.67,0.02241
1843.88,0.02232
1838.09,0.02259
1832.31,0.02210
1826.52,0.02212
1820.74,0.02207
1814.95,0.02226
1809.16,0.02194
1803.38,0.02177
1797.59,0.02203
1791.8,0.02188
1786.02,0.02106
1780.23,0.02133
1774.45,0.02119
1768.66,0.02070
1762.87,0.02007
1757.09,0.01960
1751.3,0.01914
1745.51,0.01943
1739.73,0.02017
1733.94,0.02161
1728.16,0.02201
1722.37,0.02257
1716.58,0.02292
1710.8,0.02259
1705.01,0.02191
1699.22,0.02195
1693.44,0.02144
1687.65,0.02130
1681.87,0.02082
1676.08,0.02097
1670.29,0.02040
1664.51,0.02022
1658.72,0.02052
1652.93,0.02053
1647.15,0.02085
1641.36,0.02077
1635.58,0.02084
1629.79,0.02049
1624,0.02048
1618.22,0.02072
1612.43,0.02067
1606.64,0.02056
1600.86,0.02058
1595.07,0.02102
1589.29,0.02044
1583.5,0.02033
1577.71,0.02036
1571.93,0.02010
1566.14,0.02007
1560.35,0.01997
1554.57,0.02038
1548.78,0.02026
1543,0.02047
1537.21,0.02043
1531.42,0.02038
1525.64,0.02083
1519.85,0.02066
1514.07,0.02062
1508.28,0.02088
1502.49,0.02038
1496.71,0.02055
1490.92,0.02078
1485.13,0.02053
1479.35,0.02027
1473.56,0.02017
1467.78,0.02008
1461.99,0.02040
1456.2,0.02038
1450.42,0.02028
1444.63,0.02054
1438.84,0.02050
1433.06,0.02017
1427.27,0.02032
1421.49,0.02074
1415.7,0.02001
1409.91,0.01989
1404.13,0.01984
1398.34,0.01973
1392.55,0.02003
1386.77,0.01995
1380.98,0.01954
1375.2,0.01986
1369.41,0.02014
1363.62,0.01985
1357.84,0.02007
1352.05,0.01962
1346.26,0.01982
1340.48,0.01954
1334.69,0.01944
1328.91,0.01908
1323.12,0.01901
1317.33,0.01879
1311.55,0.01858
1305.76,0.01892
1299.97,0.01918
1294.19,0.01976
1288.4,0.01990
1282.62,0.02015
1276.83,0.02076
1271.04,0.02092
1265.26,0.02160
1259.47,0.02188
1253.68,0.02176
1247.9,0.02176
1242.11,0.02207
1236.33,0.02129
1230.54,0.02157
1224.75,0.02133
1218.97,0.02110
1213.18,0.02077
1207.39,0.02125
1201.61,0.02100
1195.82,0.02053
1190.04,0.01967
1184.25,0.01994
1178.46,0.01981
1172.68,0.01937
1166.89,0.01993
1161.1,0.01911
1155.32,0.01899
1149.53,0.01928
1143.75,0.01932
1137.96,0.01962
1132.17,0.01985
1126.39,0.01974
1120.6,0.02040
1114.81,0.02054
1109.03,0.02031
1103.24,0.01992
1097.46,0.01946
1091.67,0.01951
1085.88,0.01955
1080.1,0.02062
1074.31,0.02159
1068.52,0.02177
1062.74,0.02186
1056.95,0.02180
1051.17,0.02155
1045.38,0.02147
1039.59,0.02136
1033.81,0.02137
1028.02,0.02087
1022.24,0.02089
1016.45,0.02112
1010.66,0.02236
1004.88,0.02274
999.09,0.02361
993.304,0.02345
987.518,0.02319
981.731,0.02225
975.945,0.02197
970.159,0.02267
964.373,0.02262
958.586,0.02226
952.8,0.02244
947.014,0.02183
941.228,0.02196
935.441,0.02185
929.655,0.02143
923.869,0.02177
918.083,0.02212
912.297,0.02192
906.51,0.02177
900.724,0.02119
894.938,0.02096
889.152,0.02150
883.365,0.02111
877.579,0.02183
871.793,0.02126
866.007,0.02088
860.22,0.02132
854.434,0.02096
848.648,0.02171
842.862,0.02097
837.075,0.02078
831.289,0.02074
825.503,0.02156
819.717,0.02094
813.931,0.02145
808.144,0.02133
802.358,0.02082
796.572,0.02118
790.786,0.02080
784.999,0.02111
779.213,0.02099
773.427,0.02119
767.641,0.02055
761.854,0.01976
756.068,0.01949
750.282,0.01961
744.496,0.02023
738.709,0.02043
732.923,0.02076
727.137,0.01998
721.351,0.02039
715.565,0.02002
709.778,0.01972
703.992,0.01913
698.206,0.01993
692.42,0.01933
686.633,0.01948
680.847,0.01963
675.061,0.02006
669.275,0.02015
663.488,0.01942
657.702,0.01931
651.916,0.01784
646.13,0.01810
640.343,0.01755
634.557,0.01801
628.771,0.01816
622.985,0.01932
617.198,0.01656
611.412,0.01569
605.626,0.01627
599.84,0.01865