File: 01_Data/Cinder_Block/FTIR/IS/Cinder_Block_IS_S_221214_R8.dpt
7497.03,0.19740
7491.25,0.18980
7485.46,0.19457
7479.67,0.18398
7473.89,0.19708
7468.1,0.19192
7462.32,0.20245
7456.53,0.20092
7450.74,0.19887
7444.96,0.18927
7439.17,0.19916
7433.38,0.18801
7427.6,0.19325
7421.81,0.19223
7416.03,0.19784
7410.24,0.20022
7404.45,0.18869
7398.67,0.19247
7392.88,0.18983
7387.09,0.19408
7381.31,0.19201
7375.52,0.19377
7369.74,0.18999
7363.95,0.19238
7358.16,0.19666
7352.38,0.19110
7346.59,0.18894
7340.8,0.19664
7335.02,0.19259
7329.23,0.18647
7323.45,0.19703
7317.66,0.19067
7311.87,0.19771
7306.09,0.19666
7300.3,0.19718
7294.51,0.19700
7288.73,0.19838
7282.94,0.19609
7277.16,0.19081
7271.37,0.19662
7265.58,0.19909
7259.8,0.19644
7254.01,0.19607
7248.22,0.19138
7242.44,0.19286
7236.65,0.18541
7230.87,0.19202
7225.08,0.19319
7219.29,0.19055
7213.51,0.19747
7207.72,0.19710
7201.93,0.19215
7196.15,0.18203
7190.36,0.19929
7184.58,0.19161
7178.79,0.19748
7173,0.19317
7167.22,0.19020
7161.43,0.19161
7155.65,0.19834
7149.86,0.19331
7144.07,0.19301
7138.29,0.19556
7132.5,0.19251
7126.71,0.19914
7120.93,0.19669
7115.14,0.19828
7109.36,0.18755
7103.57,0.19462
7097.78,0.19123
7092,0.19344
7086.21,0.19010
7080.42,0.19479
7074.64,0.19821
7068.85,0.19782
7063.07,0.19299
7057.28,0.18918
7051.49,0.18894
7045.71,0.19420
7039.92,0.19405
7034.13,0.19204
7028.35,0.19620
7022.56,0.20147
7016.78,0.19101
7010.99,0.19170
7005.2,0.19145
6999.42,0.19777
6993.63,0.19247
6987.84,0.19513
6982.06,0.19742
6976.27,0.19516
6970.49,0.19742
6964.7,0.19525
6958.91,0.18593
6953.13,0.19381
6947.34,0.19482
6941.55,0.19615
6935.77,0.19522
6929.98,0.19030
6924.2,0.19756
6918.41,0.19452
6912.62,0.19259
6906.84,0.19126
6901.05,0.19315
6895.26,0.19495
6889.48,0.19371
6883.69,0.19318
6877.91,0.19495
6872.12,0.19167
6866.33,0.19010
6860.55,0.19555
6854.76,0.19462
6848.97,0.19045
6843.19,0.19475
6837.4,0.19205
6831.62,0.19754
6825.83,0.20097
6820.04,0.19359
6814.26,0.19424
6808.47,0.19089
6802.68,0.19935
6796.9,0.19221
6791.11,0.19562
6785.33,0.19223
6779.54,0.19382
6773.75,0.19747
6767.97,0.19583
6762.18,0.18855
6756.39,0.19212
6750.61,0.19416
6744.82,0.19669
6739.04,0.19647
6733.25,0.19524
6727.46,0.19759
6721.68,0.19137
6715.89,0.19675
6710.1,0.19112
6704.32,0.19391
6698.53,0.19849
6692.75,0.19810
6686.96,0.19932
6681.17,0.19766
6675.39,0.19539
6669.6,0.19840
6663.82,0.19904
6658.03,0.19567
6652.24,0.19463
6646.46,0.19627
6640.67,0.19592
6634.88,0.19617
6629.1,0.19244
6623.31,0.19642
6617.53,0.19310
6611.74,0.19546
6605.95,0.19346
6600.17,0.19592
6594.38,0.19414
6588.59,0.19766
6582.81,0.19992
6577.02,0.19657
6571.24,0.19415
6565.45,0.19308
6559.66,0.19359
6553.88,0.19251
6548.09,0.19770
6542.3,0.19653
6536.52,0.19370
6530.73,0.19692
6524.95,0.19876
6519.16,0.19711
6513.37,0.19528
6507.59,0.19423
6501.8,0.19617
6496.01,0.19589
6490.23,0.19692
6484.44,0.19639
6478.66,0.19347
6472.87,0.19135
6467.08,0.19451
6461.3,0.19822
6455.51,0.19640
6449.72,0.19714
6443.94,0.19116
6438.15,0.19755
6432.37,0.19744
6426.58,0.19855
6420.79,0.19847
6415.01,0.19341
6409.22,0.19981
6403.43,0.19909
6397.65,0.19502
6391.86,0.19568
6386.08,0.19511
6380.29,0.19351
6374.5,0.19245
6368.72,0.19811
6362.93,0.19515
6357.14,0.19744
6351.36,0.19715
6345.57,0.19676
6339.79,0.19613
6334,0.19336
6328.21,0.19649
6322.43,0.19907
6316.64,0.19643
6310.85,0.19775
6305.07,0.19593
6299.28,0.19555
6293.5,0.19768
6287.71,0.19471
6281.92,0.19501
6276.14,0.19528
6270.35,0.19701
6264.56,0.19928
6258.78,0.19859
6252.99,0.19891
6247.21,0.19628
6241.42,0.19622
6235.63,0.19998
6229.85,0.19688
6224.06,0.19593
6218.27,0.19812
6212.49,0.20334
6206.7,0.19778
6200.92,0.19496
6195.13,0.19743
6189.34,0.19717
6183.56,0.19531
6177.77,0.19358
6171.98,0.19805
6166.2,0.19748
6160.41,0.20140
6154.63,0.20101
6148.84,0.19684
6143.05,0.19527
6137.27,0.20047
6131.48,0.19611
6125.7,0.19610
6119.91,0.19738
6114.12,0.19552
6108.34,0.19850
6102.55,0.19728
6096.76,0.19974
6090.98,0.20053
6085.19,0.19671
6079.41,0.20034
6073.62,0.19751
6067.83,0.19802
6062.05,0.19876
6056.26,0.19961
6050.47,0.19481
6044.69,0.20030
6038.9,0.19626
6033.12,0.19702
6027.33,0.19480
6021.54,0.19695
6015.76,0.19765
6009.97,0.19399
6004.18,0.19848
5998.4,0.19729
5992.61,0.19706
5986.83,0.19998
5981.04,0.19814
5975.25,0.19886
5969.47,0.19856
5963.68,0.19799
5957.89,0.19870
5952.11,0.19556
5946.32,0.19891
5940.54,0.19912
5934.75,0.19794
5928.96,0.19986
5923.18,0.19623
5917.39,0.19633
5911.6,0.19879
5905.82,0.19735
5900.03,0.19789
5894.25,0.19813
5888.46,0.20027
5882.67,0.19711
5876.89,0.19636
5871.1,0.19852
5865.31,0.19760
5859.53,0.19937
5853.74,0.19779
5847.96,0.20010
5842.17,0.20011
5836.38,0.19559
5830.6,0.19683
5824.81,0.19720
5819.02,0.19758
5813.24,0.19853
5807.45,0.19718
5801.67,0.20054
5795.88,0.19759
5790.09,0.19685
5784.31,0.19763
5778.52,0.19850
5772.73,0.19766
5766.95,0.19626
5761.16,0.19598
5755.38,0.19808
5749.59,0.19822
5743.8,0.19784
5738.02,0.19737
5732.23,0.19876
5726.44,0.19709
5720.66,0.20038
5714.87,0.20058
5709.09,0.19844
5703.3,0.20053
5697.51,0.20004
5691.73,0.19790
5685.94,0.19642
5680.15,0.19863
5674.37,0.19926
5668.58,0.19902
5662.8,0.19855
5657.01,0.19895
5651.22,0.20055
5645.44,0.20049
5639.65,0.20018
5633.87,0.19832
5628.08,0.19838
5622.29,0.19810
5616.51,0.19809
5610.72,0.19918
5604.93,0.19942
5599.15,0.19916
5593.36,0.19891
5587.58,0.19775
5581.79,0.19813
5576,0.19916
5570.22,0.19947
5564.43,0.19883
5558.64,0.19832
5552.86,0.19916
5547.07,0.19883
5541.29,0.19736
5535.5,0.19913
5529.71,0.20001
5523.93,0.20082
5518.14,0.20004
5512.35,0.20006
5506.57,0.19989
5500.78,0.19837
5495,0.19993
5489.21,0.20077
5483.42,0.20038
5477.64,0.19941
5471.85,0.19891
5466.06,0.20101
5460.28,0.20066
5454.49,0.20018
5448.71,0.20076
5442.92,0.20044
5437.13,0.20014
5431.35,0.19972
5425.56,0.19891
5419.77,0.19931
5413.99,0.19856
5408.2,0.19877
5402.42,0.19887
5396.63,0.20034
5390.84,0.19918
5385.06,0.20080
5379.27,0.19968
5373.48,0.19926
5367.7,0.19920
5361.91,0.19898
5356.13,0.19855
5350.34,0.19724
5344.55,0.19767
5338.77,0.19895
5332.98,0.19782
5327.19,0.19757
5321.41,0.19828
5315.62,0.19802
5309.84,0.19907
5304.05,0.19718
5298.26,0.19726
5292.48,0.19608
5286.69,0.19650
5280.9,0.19473
5275.12,0.19585
5269.33,0.19552
5263.55,0.19482
5257.76,0.19326
5251.97,0.19389
5246.19,0.19163
5240.4,0.19111
5234.61,0.19202
5228.83,0.19178
5223.04,0.19102
5217.26,0.19058
5211.47,0.19011
5205.68,0.18753
5199.9,0.18909
5194.11,0.18866
5188.32,0.18839
5182.54,0.18926
5176.75,0.18978
5170.97,0.18951
5165.18,0.19009
5159.39,0.18804
5153.61,0.18859
5147.82,0.18914
5142.03,0.18992
5136.25,0.19057
5130.46,0.19102
5124.68,0.18960
5118.89,0.18937
5113.1,0.19024
5107.32,0.19143
5101.53,0.19140
5095.75,0.18894
5089.96,0.19091
5084.17,0.19191
5078.39,0.19162
5072.6,0.19196
5066.81,0.19132
5061.03,0.19150
5055.24,0.19133
5049.46,0.19266
5043.67,0.19194
5037.88,0.19236
5032.1,0.19288
5026.31,0.19348
5020.52,0.19217
5014.74,0.19277
5008.95,0.19327
5003.17,0.19341
4997.38,0.19194
4991.59,0.19412
4985.81,0.19449
4980.02,0.19303
4974.23,0.19316
4968.45,0.19465
4962.66,0.19330
4956.88,0.19535
4951.09,0.19472
4945.3,0.19356
4939.52,0.19438
4933.73,0.19406
4927.94,0.19535
4922.16,0.19506
4916.37,0.19509
4910.59,0.19494
4904.8,0.19514
4899.01,0.19400
4893.23,0.19525
4887.44,0.19535
4881.65,0.19549
4875.87,0.19529
4870.08,0.19477
4864.3,0.19630
4858.51,0.19669
4852.72,0.19535
4846.94,0.19512
4841.15,0.19523
4835.36,0.19356
4829.58,0.19593
4823.79,0.19570
4818.01,0.19536
4812.22,0.19463
4806.43,0.19589
4800.65,0.19572
4794.86,0.19590
4789.07,0.19654
4783.29,0.19496
4777.5,0.19533
4771.72,0.19633
4765.93,0.19524
4760.14,0.19694
4754.36,0.19618
4748.57,0.19588
4742.78,0.19598
4737,0.19604
4731.21,0.19510
4725.43,0.19501
4719.64,0.19613
4713.85,0.19640
4708.07,0.19643
4702.28,0.19641
4696.49,0.19574
4690.71,0.19662
4684.92,0.19589
4679.14,0.19615
4673.35,0.19626
4667.56,0.19578
4661.78,0.19634
4655.99,0.19643
4650.2,0.19589
4644.42,0.19514
4638.63,0.19627
4632.85,0.19608
4627.06,0.19594
4621.27,0.19623
4615.49,0.19577
4609.7,0.19559
4603.92,0.19622
4598.13,0.19553
4592.34,0.19515
4586.56,0.19563
4580.77,0.19580
4574.98,0.19498
4569.2,0.19564
4563.41,0.19519
4557.63,0.19489
4551.84,0.19446
4546.05,0.19510
4540.27,0.19402
4534.48,0.19421
4528.69,0.19307
4522.91,0.19324
4517.12,0.19369
4511.34,0.19377
4505.55,0.19283
4499.76,0.19273
4493.98,0.19306
4488.19,0.19304
4482.4,0.19334
4476.62,0.19331
4470.83,0.19357
4465.05,0.19294
4459.26,0.19343
4453.47,0.19304
4447.69,0.19344
4441.9,0.19277
4436.11,0.19305
4430.33,0.19278
4424.54,0.19350
4418.76,0.19275
4412.97,0.19232
4407.18,0.19259
4401.4,0.19211
4395.61,0.19158
4389.82,0.19182
4384.04,0.19198
4378.25,0.19189
4372.47,0.19156
4366.68,0.19058
4360.89,0.19074
4355.11,0.18978
4349.32,0.18957
4343.53,0.19017
4337.75,0.18991
4331.96,0.18981
4326.18,0.18930
4320.39,0.18950
4314.6,0.18785
4308.82,0.18845
4303.03,0.18824
4297.24,0.18719
4291.46,0.18723
4285.67,0.18639
4279.89,0.18655
4274.1,0.18566
4268.31,0.18532
4262.53,0.18578
4256.74,0.18614
4250.95,0.18615
4245.17,0.18670
4239.38,0.18758
4233.6,0.18807
4227.81,0.18831
4222.02,0.18878
4216.24,0.18898
4210.45,0.18939
4204.66,0.18875
4198.88,0.18917
4193.09,0.18908
4187.31,0.18905
4181.52,0.18851
4175.73,0.18823
4169.95,0.18796
4164.16,0.18812
4158.37,0.18705
4152.59,0.18737
4146.8,0.18654
4141.02,0.18654
4135.23,0.18600
4129.44,0.18564
4123.66,0.18562
4117.87,0.18458
4112.09,0.18432
4106.3,0.18392
4100.51,0.18350
4094.73,0.18249
4088.94,0.18246
4083.15,0.18249
4077.37,0.18181
4071.58,0.18079
4065.8,0.18067
4060.01,0.17974
4054.22,0.17934
4048.44,0.17839
4042.65,0.17814
4036.86,0.17755
4031.08,0.17676
4025.29,0.17654
4019.51,0.17583
4013.72,0.17499
4007.93,0.17458
4002.15,0.17484
3996.36,0.17383
3990.57,0.17431
3984.79,0.17389
3979,0.17294
3973.22,0.17295
3967.43,0.17255
3961.64,0.17221
3955.86,0.17074
3950.07,0.16989
3944.28,0.16981
3938.5,0.17062
3932.71,0.17080
3926.93,0.17166
3921.14,0.17341
3915.35,0.17453
3909.57,0.17642
3903.78,0.17650
3897.99,0.17775
3892.21,0.17785
3886.42,0.17770
3880.64,0.17802
3874.85,0.17854
3869.06,0.17778
3863.28,0.17779
3857.49,0.17821
3851.7,0.17808
3845.92,0.17858
3840.13,0.17806
3834.35,0.17777
3828.56,0.17742
3822.77,0.17671
3816.99,0.17665
3811.2,0.17701
3805.41,0.17622
3799.63,0.17589
3793.84,0.17556
3788.06,0.17446
3782.27,0.17392
3776.48,0.17378
3770.7,0.17279
3764.91,0.17160
3759.12,0.17043
3753.34,0.16882
3747.55,0.16675
3741.77,0.16406
3735.98,0.16172
3730.19,0.15846
3724.41,0.15364
3718.62,0.14829
3712.83,0.14305
3707.05,0.13812
3701.26,0.13315
3695.48,0.12782
3689.69,0.12166
3683.9,0.11596
3678.12,0.10967
3672.33,0.10428
3666.54,0.09811
3660.76,0.09195
3654.97,0.08632
3649.19,0.08170
3643.4,0.07708
3637.61,0.07247
3631.83,0.06913
3626.04,0.06676
3620.25,0.06453
3614.47,0.06318
3608.68,0.06189
3602.9,0.06048
3597.11,0.06006
3591.32,0.05929
3585.54,0.05936
3579.75,0.05871
3573.97,0.05837
3568.18,0.05709
3562.39,0.05666
3556.61,0.05655
3550.82,0.05559
3545.03,0.05554
3539.25,0.05487
3533.46,0.05442
3527.68,0.05402
3521.89,0.05319
3516.1,0.05260
3510.32,0.05270
3504.53,0.05227
3498.74,0.05273
3492.96,0.05221
3487.17,0.05200
3481.39,0.05207
3475.6,0.05120
3469.81,0.05094
3464.03,0.05078
3458.24,0.05078
3452.45,0.04963
3446.67,0.04960
3440.88,0.04988
3435.1,0.04943
3429.31,0.04995
3423.52,0.04976
3417.74,0.05013
3411.95,0.04892
3406.16,0.04935
3400.38,0.04884
3394.59,0.04901
3388.81,0.04903
3383.02,0.04897
3377.23,0.04926
3371.45,0.04981
3365.66,0.05023
3359.87,0.04956
3354.09,0.04969
3348.3,0.04962
3342.52,0.04980
3336.73,0.05023
3330.94,0.05094
3325.16,0.05024
3319.37,0.05096
3313.58,0.05125
3307.8,0.05110
3302.01,0.05088
3296.23,0.05151
3290.44,0.05184
3284.65,0.05210
3278.87,0.05197
3273.08,0.05245
3267.29,0.05290
3261.51,0.05330
3255.72,0.05325
3249.94,0.05372
3244.15,0.05394
3238.36,0.05382
3232.58,0.05454
3226.79,0.05530
3221,0.05553
3215.22,0.05569
3209.43,0.05682
3203.65,0.05708
3197.86,0.05730
3192.07,0.05804
3186.29,0.05905
3180.5,0.05868
3174.71,0.05939
3168.93,0.06027
3163.14,0.06080
3157.36,0.06120
3151.57,0.06154
3145.78,0.06202
3140,0.06228
3134.21,0.06270
3128.42,0.06361
3122.64,0.06388
3116.85,0.06430
3111.07,0.06514
3105.28,0.06504
3099.49,0.06569
3093.71,0.06637
3087.92,0.06652
3082.14,0.06695
3076.35,0.06696
3070.56,0.06682
3064.78,0.06699
3058.99,0.06754
3053.2,0.06795
3047.42,0.06796
3041.63,0.06763
3035.85,0.06815
3030.06,0.06828
3024.27,0.06718
3018.49,0.06683
3012.7,0.06765
3006.91,0.06708
3001.13,0.06591
2995.34,0.06381
2989.56,0.06090
2983.77,0.05904
2977.98,0.05983
2972.2,0.05994
2966.41,0.06028
2960.62,0.06006
2954.84,0.05983
2949.05,0.06078
2943.27,0.06045
2937.48,0.06007
2931.69,0.06010
2925.91,0.06004
2920.12,0.06002
2914.33,0.06076
2908.55,0.06133
2902.76,0.06157
2896.98,0.06106
2891.19,0.06150
2885.4,0.06004
2879.62,0.05791
2873.83,0.05743
2868.04,0.05867
2862.26,0.06002
2856.47,0.06162
2850.69,0.06364
2844.9,0.06603
2839.11,0.07074
2833.33,0.07481
2827.54,0.07803
2821.75,0.08045
2815.97,0.08202
2810.18,0.08373
2804.4,0.08432
2798.61,0.08562
2792.82,0.08727
2787.04,0.08865
2781.25,0.08989
2775.46,0.09092
2769.68,0.09163
2763.89,0.09248
2758.11,0.09296
2752.32,0.09420
2746.53,0.09414
2740.75,0.09471
2734.96,0.09528
2729.17,0.09626
2723.39,0.09601
2717.6,0.09660
2711.82,0.09741
2706.03,0.09787
2700.24,0.09805
2694.46,0.09867
2688.67,0.09866
2682.88,0.09896
2677.1,0.09893
2671.31,0.09829
2665.53,0.09882
2659.74,0.09822
2653.95,0.09673
2648.17,0.09594
2642.38,0.09418
2636.59,0.09124
2630.81,0.08774
2625.02,0.08417
2619.24,0.08131
2613.45,0.07863
2607.66,0.07610
2601.88,0.07432
2596.09,0.07328
2590.3,0.07241
2584.52,0.07191
2578.73,0.07132
2572.95,0.07096
2567.16,0.07034
2561.37,0.07046
2555.59,0.06830
2549.8,0.06686
2544.02,0.06556
2538.23,0.06277
2532.44,0.05869
2526.66,0.05421
2520.87,0.05258
2515.08,0.05162
2509.3,0.05284
2503.51,0.05579
2497.73,0.06094
2491.94,0.06741
2486.15,0.07287
2480.37,0.07800
2474.58,0.08396
2468.79,0.08859
2463.01,0.09277
2457.22,0.09492
2451.44,0.09755
2445.65,0.09919
2439.86,0.10067
2434.08,0.10172
2428.29,0.10272
2422.5,0.10331
2416.72,0.10436
2410.93,0.10500
2405.15,0.10544
2399.36,0.10566
2393.57,0.10604
2387.79,0.10583
2382,0.10616
2376.21,0.10579
2370.43,0.10582
2364.64,0.10544
2358.86,0.10569
2353.07,0.10493
2347.28,0.10436
2341.5,0.10386
2335.71,0.10394
2329.92,0.10366
2324.14,0.10313
2318.35,0.10254
2312.57,0.10219
2306.78,0.10200
2300.99,0.10212
2295.21,0.10177
2289.42,0.10119
2283.63,0.10108
2277.85,0.10083
2272.06,0.10025
2266.28,0.09938
2260.49,0.09871
2254.7,0.09791
2248.92,0.09721
2243.13,0.09643
2237.34,0.09577
2231.56,0.09516
2225.77,0.09468
2219.99,0.09429
2214.2,0.09413
2208.41,0.09376
2202.63,0.09336
2196.84,0.09310
2191.05,0.09287
2185.27,0.09276
2179.48,0.09255
2173.7,0.09155
2167.91,0.09087
2162.12,0.08936
2156.34,0.08747
2150.55,0.08555
2144.76,0.08448
2138.98,0.08394
2133.19,0.08440
2127.41,0.08620
2121.62,0.08851
2115.83,0.09002
2110.05,0.09077
2104.26,0.09123
2098.47,0.09191
2092.69,0.09191
2086.9,0.09158
2081.12,0.09171
2075.33,0.09123
2069.54,0.09089
2063.76,0.09034
2057.97,0.09025
2052.19,0.08979
2046.4,0.08894
2040.61,0.08835
2034.83,0.08738
2029.04,0.08661
2023.25,0.08600
2017.47,0.08535
2011.68,0.08431
2005.9,0.08358
2000.11,0.08251
1994.32,0.08241
1988.54,0.08192
1982.75,0.08132
1976.96,0.08082
1971.18,0.08036
1965.39,0.07946
1959.61,0.07826
1953.82,0.07931
1948.03,0.07951
1942.25,0.07924
1936.46,0.07868
1930.67,0.07813
1924.89,0.07739
1919.1,0.07674
1913.32,0.07551
1907.53,0.07448
1901.74,0.07283
1895.96,0.07130
1890.17,0.07023
1884.38,0.06923
1878.6,0.06828
1872.81,0.06725
1867.03,0.06671
1861.24,0.06574
1855.45,0.06590
1849.67,0.06526
1843.88,0.06396
1838.09,0.06241
1832.31,0.06051
1826.52,0.05761
1820.74,0.05417
1814.95,0.05141
1809.16,0.04689
1803.38,0.03931
1797.59,0.03459
1791.8,0.03539
1786.02,0.04116
1780.23,0.04569
1774.45,0.04788
1768.66,0.04802
1762.87,0.04791
1757.09,0.04620
1751.3,0.04580
1745.51,0.04419
1739.73,0.04331
1733.94,0.04300
1728.16,0.04279
1722.37,0.04243
1716.58,0.04199
1710.8,0.04120
1705.01,0.04005
1699.22,0.03900
1693.44,0.03716
1687.65,0.03579
1681.87,0.03499
1676.08,0.03464
1670.29,0.03422
1664.51,0.03399
1658.72,0.03368
1652.93,0.03351
1647.15,0.03370
1641.36,0.03377
1635.58,0.03355
1629.79,0.03417
1624,0.03494
1618.22,0.03608
1612.43,0.03790
1606.64,0.03948
1600.86,0.04092
1595.07,0.04220
1589.29,0.04424
1583.5,0.04727
1577.71,0.05230
1571.93,0.05877
1566.14,0.06469
1560.35,0.07079
1554.57,0.07676
1548.78,0.08181
1543,0.08548
1537.21,0.08872
1531.42,0.09059
1525.64,0.09209
1519.85,0.09203
1514.07,0.09160
1508.28,0.09081
1502.49,0.09083
1496.71,0.09088
1490.92,0.09033
1485.13,0.09035
1479.35,0.09014
1473.56,0.08985
1467.78,0.08933
1461.99,0.08913
1456.2,0.08920
1450.42,0.08870
1444.63,0.08844
1438.84,0.08898
1433.06,0.09047
1427.27,0.09302
1421.49,0.09592
1415.7,0.10017
1409.91,0.10350
1404.13,0.10020
1398.34,0.09480
1392.55,0.09128
1386.77,0.08724
1380.98,0.08446
1375.2,0.08255
1369.41,0.08253
1363.62,0.08312
1357.84,0.08410
1352.05,0.08473
1346.26,0.08497
1340.48,0.08513
1334.69,0.08506
1328.91,0.08441
1323.12,0.08345
1317.33,0.08331
1311.55,0.08448
1305.76,0.08591
1299.97,0.08658
1294.19,0.08778
1288.4,0.08743
1282.62,0.08648
1276.83,0.08653
1271.04,0.08586
1265.26,0.08458
1259.47,0.08495
1253.68,0.08477
1247.9,0.08361
1242.11,0.08166
1236.33,0.08039
1230.54,0.07945
1224.75,0.07819
1218.97,0.07676
1213.18,0.07458
1207.39,0.07186
1201.61,0.06963
1195.82,0.06695
1190.04,0.06510
1184.25,0.06345
1178.46,0.06149
1172.68,0.06106
1166.89,0.06000
1161.1,0.05940
1155.32,0.06031
1149.53,0.06106
1143.75,0.06148
1137.96,0.06086
1132.17,0.06015
1126.39,0.05980
1120.6,0.05839
1114.81,0.05749
1109.03,0.05524
1103.24,0.05404
1097.46,0.05262
1091.67,0.05186
1085.88,0.05151
1080.1,0.05098
1074.31,0.05056
1068.52,0.05013
1062.74,0.04878
1056.95,0.04801
1051.17,0.04771
1045.38,0.04657
1039.59,0.04652
1033.81,0.04653
1028.02,0.04633
1022.24,0.04653
1016.45,0.04607
1010.66,0.04706
1004.88,0.04617
999.09,0.04553
993.304,0.04562
987.518,0.04661
981.731,0.04593
975.945,0.04588
970.159,0.04613
964.373,0.04609
958.586,0.04658
952.8,0.04600
947.014,0.04703
941.228,0.04630
935.441,0.04644
929.655,0.04579
923.869,0.04580
918.083,0.04538
912.297,0.04599
906.51,0.04506
900.724,0.04585
894.938,0.04921
889.152,0.05070
883.365,0.04500
877.579,0.05220
871.793,0.06438
866.007,0.05807
860.22,0.05324
854.434,0.04926
848.648,0.04671
842.862,0.04807
837.075,0.04701
831.289,0.04560
825.503,0.04478
819.717,0.04400
813.931,0.04383
808.144,0.04316
802.358,0.04380
796.572,0.04364
790.786,0.04289
784.999,0.04257
779.213,0.04289
773.427,0.04239
767.641,0.04121
761.854,0.04077
756.068,0.04105
750.282,0.04031
744.496,0.04067
738.709,0.03935
732.923,0.03764
727.137,0.03616
721.351,0.03470
715.565,0.03237
709.778,0.03965
703.992,0.04013
698.206,0.03923
692.42,0.03928
686.633,0.03915
680.847,0.03856
675.061,0.03908
669.275,0.03852
663.488,0.03745
657.702,0.03632
651.916,0.03597
646.13,0.03544
640.343,0.03419
634.557,0.03373
628.771,0.03276
622.985,0.03410
617.198,0.03231
611.412,0.03365
605.626,0.03456
599.84,0.03467