File: 01_Data/Basswood_Panel/FTIR/IS/Basswood_Panel_IS_S_220928_R2.dpt
7497.03,0.84858
7491.25,0.84501
7485.46,0.83766
7479.67,0.82968
7473.89,0.82582
7468.1,0.83574
7462.32,0.83411
7456.53,0.82264
7450.74,0.83337
7444.96,0.82948
7439.17,0.81519
7433.38,0.81046
7427.6,0.81754
7421.81,0.81933
7416.03,0.80818
7410.24,0.79959
7404.45,0.80206
7398.67,0.80006
7392.88,0.79989
7387.09,0.79398
7381.31,0.79777
7375.52,0.79861
7369.74,0.78544
7363.95,0.78422
7358.16,0.78504
7352.38,0.78806
7346.59,0.78661
7340.8,0.78659
7335.02,0.78751
7329.23,0.78278
7323.45,0.77645
7317.66,0.76525
7311.87,0.77715
7306.09,0.76953
7300.3,0.78231
7294.51,0.77566
7288.73,0.77734
7282.94,0.77613
7277.16,0.76923
7271.37,0.76962
7265.58,0.77246
7259.8,0.76966
7254.01,0.77162
7248.22,0.77416
7242.44,0.76807
7236.65,0.76443
7230.87,0.76190
7225.08,0.76202
7219.29,0.76990
7213.51,0.76704
7207.72,0.76355
7201.93,0.76119
7196.15,0.75584
7190.36,0.75576
7184.58,0.76028
7178.79,0.74807
7173,0.74686
7167.22,0.74615
7161.43,0.74280
7155.65,0.73870
7149.86,0.73831
7144.07,0.73160
7138.29,0.72679
7132.5,0.72780
7126.71,0.72884
7120.93,0.71783
7115.14,0.71737
7109.36,0.71090
7103.57,0.70686
7097.78,0.70239
7092,0.70563
7086.21,0.69170
7080.42,0.69239
7074.64,0.69168
7068.85,0.68239
7063.07,0.67396
7057.28,0.66457
7051.49,0.66776
7045.71,0.66713
7039.92,0.66017
7034.13,0.65388
7028.35,0.65278
7022.56,0.64892
7016.78,0.64877
7010.99,0.63852
7005.2,0.63860
6999.42,0.63094
6993.63,0.62615
6987.84,0.63215
6982.06,0.62698
6976.27,0.62532
6970.49,0.62943
6964.7,0.62607
6958.91,0.62159
6953.13,0.61796
6947.34,0.61975
6941.55,0.61787
6935.77,0.62067
6929.98,0.62138
6924.2,0.62067
6918.41,0.61819
6912.62,0.61747
6906.84,0.61283
6901.05,0.62170
6895.26,0.61730
6889.48,0.61618
6883.69,0.61739
6877.91,0.61799
6872.12,0.62230
6866.33,0.61981
6860.55,0.61130
6854.76,0.61635
6848.97,0.61390
6843.19,0.61344
6837.4,0.61435
6831.62,0.60858
6825.83,0.61099
6820.04,0.61417
6814.26,0.60852
6808.47,0.61082
6802.68,0.61590
6796.9,0.61429
6791.11,0.61379
6785.33,0.61133
6779.54,0.61328
6773.75,0.61103
6767.97,0.61409
6762.18,0.61286
6756.39,0.61345
6750.61,0.60835
6744.82,0.61719
6739.04,0.61364
6733.25,0.61353
6727.46,0.61277
6721.68,0.61462
6715.89,0.61254
6710.1,0.62095
6704.32,0.61465
6698.53,0.61980
6692.75,0.61844
6686.96,0.61840
6681.17,0.61867
6675.39,0.62196
6669.6,0.62119
6663.82,0.62051
6658.03,0.62556
6652.24,0.62103
6646.46,0.61980
6640.67,0.62406
6634.88,0.62548
6629.1,0.62587
6623.31,0.62606
6617.53,0.63194
6611.74,0.63755
6605.95,0.62964
6600.17,0.63128
6594.38,0.63705
6588.59,0.63785
6582.81,0.63961
6577.02,0.63653
6571.24,0.64303
6565.45,0.63778
6559.66,0.63644
6553.88,0.64131
6548.09,0.64050
6542.3,0.63801
6536.52,0.63977
6530.73,0.64324
6524.95,0.64183
6519.16,0.64109
6513.37,0.64219
6507.59,0.64396
6501.8,0.63944
6496.01,0.64368
6490.23,0.64222
6484.44,0.64375
6478.66,0.64498
6472.87,0.64794
6467.08,0.64494
6461.3,0.64465
6455.51,0.64642
6449.72,0.64789
6443.94,0.64613
6438.15,0.64474
6432.37,0.64686
6426.58,0.64627
6420.79,0.64779
6415.01,0.64922
6409.22,0.65118
6403.43,0.65150
6397.65,0.65144
6391.86,0.65093
6386.08,0.64728
6380.29,0.64893
6374.5,0.65307
6368.72,0.65575
6362.93,0.65359
6357.14,0.65319
6351.36,0.65431
6345.57,0.65405
6339.79,0.65399
6334,0.65683
6328.21,0.65637
6322.43,0.65648
6316.64,0.65672
6310.85,0.65862
6305.07,0.65599
6299.28,0.65695
6293.5,0.65688
6287.71,0.66066
6281.92,0.66225
6276.14,0.66258
6270.35,0.66404
6264.56,0.66276
6258.78,0.66632
6252.99,0.66874
6247.21,0.67026
6241.42,0.67255
6235.63,0.67279
6229.85,0.67630
6224.06,0.67704
6218.27,0.67455
6212.49,0.68059
6206.7,0.68352
6200.92,0.68204
6195.13,0.68589
6189.34,0.68530
6183.56,0.69123
6177.77,0.68744
6171.98,0.68774
6166.2,0.69042
6160.41,0.69222
6154.63,0.69345
6148.84,0.69423
6143.05,0.69540
6137.27,0.69727
6131.48,0.69650
6125.7,0.69861
6119.91,0.69848
6114.12,0.69916
6108.34,0.70015
6102.55,0.70385
6096.76,0.70006
6090.98,0.70171
6085.19,0.70307
6079.41,0.69894
6073.62,0.69772
6067.83,0.69913
6062.05,0.69820
6056.26,0.69845
6050.47,0.69787
6044.69,0.69780
6038.9,0.69577
6033.12,0.69127
6027.33,0.68956
6021.54,0.68898
6015.76,0.68981
6009.97,0.68906
6004.18,0.68554
5998.4,0.68435
5992.61,0.68446
5986.83,0.68362
5981.04,0.68230
5975.25,0.67939
5969.47,0.68036
5963.68,0.68146
5957.89,0.67279
5952.11,0.67457
5946.32,0.67404
5940.54,0.67402
5934.75,0.67461
5928.96,0.67456
5923.18,0.67385
5917.39,0.67315
5911.6,0.67296
5905.82,0.66933
5900.03,0.66800
5894.25,0.66848
5888.46,0.66311
5882.67,0.66375
5876.89,0.66107
5871.1,0.66237
5865.31,0.65832
5859.53,0.65718
5853.74,0.65737
5847.96,0.65788
5842.17,0.65518
5836.38,0.65522
5830.6,0.65295
5824.81,0.65138
5819.02,0.64848
5813.24,0.64627
5807.45,0.64693
5801.67,0.64563
5795.88,0.64595
5790.09,0.64907
5784.31,0.64918
5778.52,0.65018
5772.73,0.65154
5766.95,0.65382
5761.16,0.65641
5755.38,0.65913
5749.59,0.65883
5743.8,0.65848
5738.02,0.65933
5732.23,0.65835
5726.44,0.65974
5720.66,0.65871
5714.87,0.66121
5709.09,0.65816
5703.3,0.65993
5697.51,0.65691
5691.73,0.65779
5685.94,0.65722
5680.15,0.65535
5674.37,0.65691
5668.58,0.65680
5662.8,0.65664
5657.01,0.65745
5651.22,0.65822
5645.44,0.65776
5639.65,0.65639
5633.87,0.65777
5628.08,0.65901
5622.29,0.66206
5616.51,0.66163
5610.72,0.65897
5604.93,0.65777
5599.15,0.65865
5593.36,0.65973
5587.58,0.66131
5581.79,0.66185
5576,0.65985
5570.22,0.66188
5564.43,0.66266
5558.64,0.66190
5552.86,0.66530
5547.07,0.66570
5541.29,0.66407
5535.5,0.66622
5529.71,0.66603
5523.93,0.66531
5518.14,0.66326
5512.35,0.66444
5506.57,0.66863
5500.78,0.66743
5495,0.66789
5489.21,0.66814
5483.42,0.66904
5477.64,0.67102
5471.85,0.66875
5466.06,0.66984
5460.28,0.67005
5454.49,0.67048
5448.71,0.67034
5442.92,0.67313
5437.13,0.67613
5431.35,0.67751
5425.56,0.67886
5419.77,0.67833
5413.99,0.67977
5408.2,0.68247
5402.42,0.68129
5396.63,0.68237
5390.84,0.68124
5385.06,0.68153
5379.27,0.68165
5373.48,0.68065
5367.7,0.68043
5361.91,0.68114
5356.13,0.67965
5350.34,0.67891
5344.55,0.67771
5338.77,0.67420
5332.98,0.67342
5327.19,0.67028
5321.41,0.66438
5315.62,0.66153
5309.84,0.65690
5304.05,0.64937
5298.26,0.64280
5292.48,0.63297
5286.69,0.62434
5280.9,0.61436
5275.12,0.60241
5269.33,0.59088
5263.55,0.57841
5257.76,0.56993
5251.97,0.55859
5246.19,0.55109
5240.4,0.54366
5234.61,0.53623
5228.83,0.53104
5223.04,0.52719
5217.26,0.52388
5211.47,0.52181
5205.68,0.51983
5199.9,0.51885
5194.11,0.51810
5188.32,0.51972
5182.54,0.52118
5176.75,0.52349
5170.97,0.52638
5165.18,0.52835
5159.39,0.52969
5153.61,0.53335
5147.82,0.53696
5142.03,0.54111
5136.25,0.54393
5130.46,0.54713
5124.68,0.54921
5118.89,0.55290
5113.1,0.55807
5107.32,0.56047
5101.53,0.56340
5095.75,0.56585
5089.96,0.56916
5084.17,0.57218
5078.39,0.57465
5072.6,0.57736
5066.81,0.57909
5061.03,0.58256
5055.24,0.58617
5049.46,0.58671
5043.67,0.58913
5037.88,0.59197
5032.1,0.59362
5026.31,0.59527
5020.52,0.59669
5014.74,0.59802
5008.95,0.59760
5003.17,0.59855
4997.38,0.59963
4991.59,0.59866
4985.81,0.59976
4980.02,0.59703
4974.23,0.59524
4968.45,0.59415
4962.66,0.59134
4956.88,0.58700
4951.09,0.58442
4945.3,0.57966
4939.52,0.57465
4933.73,0.57121
4927.94,0.56551
4922.16,0.55988
4916.37,0.55567
4910.59,0.54965
4904.8,0.54535
4899.01,0.54030
4893.23,0.53441
4887.44,0.52829
4881.65,0.52437
4875.87,0.51812
4870.08,0.51417
4864.3,0.50968
4858.51,0.50686
4852.72,0.50274
4846.94,0.49839
4841.15,0.49341
4835.36,0.49087
4829.58,0.48800
4823.79,0.48529
4818.01,0.48133
4812.22,0.47925
4806.43,0.47731
4800.65,0.47516
4794.86,0.47494
4789.07,0.47376
4783.29,0.47212
4777.5,0.47018
4771.72,0.47015
4765.93,0.46932
4760.14,0.46862
4754.36,0.46857
4748.57,0.46734
4742.78,0.46799
4737,0.46922
4731.21,0.46957
4725.43,0.47071
4719.64,0.47143
4713.85,0.47288
4708.07,0.47310
4702.28,0.47350
4696.49,0.47431
4690.71,0.47555
4684.92,0.47721
4679.14,0.47909
4673.35,0.48106
4667.56,0.48312
4661.78,0.48699
4655.99,0.48999
4650.2,0.49231
4644.42,0.49406
4638.63,0.49672
4632.85,0.49952
4627.06,0.50108
4621.27,0.50421
4615.49,0.50594
4609.7,0.50890
4603.92,0.51083
4598.13,0.51278
4592.34,0.51379
4586.56,0.51572
4580.77,0.51795
4574.98,0.52011
4569.2,0.52076
4563.41,0.52228
4557.63,0.52315
4551.84,0.52504
4546.05,0.52541
4540.27,0.52582
4534.48,0.52710
4528.69,0.52716
4522.91,0.52822
4517.12,0.52822
4511.34,0.52711
4505.55,0.52480
4499.76,0.52130
4493.98,0.51923
4488.19,0.51471
4482.4,0.50868
4476.62,0.50289
4470.83,0.49413
4465.05,0.48482
4459.26,0.47598
4453.47,0.46688
4447.69,0.45897
4441.9,0.45115
4436.11,0.44315
4430.33,0.43592
4424.54,0.43149
4418.76,0.42651
4412.97,0.42188
4407.18,0.41963
4401.4,0.41820
4395.61,0.41819
4389.82,0.41962
4384.04,0.42114
4378.25,0.42208
4372.47,0.42435
4366.68,0.42604
4360.89,0.42688
4355.11,0.42596
4349.32,0.42405
4343.53,0.42223
4337.75,0.42015
4331.96,0.41862
4326.18,0.41734
4320.39,0.41586
4314.6,0.41450
4308.82,0.41265
4303.03,0.41140
4297.24,0.40927
4291.46,0.40691
4285.67,0.40613
4279.89,0.40444
4274.1,0.40374
4268.31,0.40444
4262.53,0.40527
4256.74,0.40655
4250.95,0.40845
4245.17,0.40896
4239.38,0.40967
4233.6,0.41142
4227.81,0.41259
4222.02,0.41230
4216.24,0.41403
4210.45,0.41470
4204.66,0.41612
4198.88,0.41619
4193.09,0.41605
4187.31,0.41702
4181.52,0.41773
4175.73,0.41945
4169.95,0.42166
4164.16,0.42225
4158.37,0.42187
4152.59,0.42069
4146.8,0.42010
4141.02,0.41768
4135.23,0.41563
4129.44,0.41243
4123.66,0.40944
4117.87,0.40520
4112.09,0.40138
4106.3,0.39712
4100.51,0.39243
4094.73,0.38692
4088.94,0.38142
4083.15,0.37619
4077.37,0.37035
4071.58,0.36558
4065.8,0.35964
4060.01,0.35424
4054.22,0.35019
4048.44,0.34522
4042.65,0.34014
4036.86,0.33605
4031.08,0.33368
4025.29,0.33156
4019.51,0.32955
4013.72,0.33013
4007.93,0.33142
4002.15,0.33209
3996.36,0.33349
3990.57,0.33504
3984.79,0.33713
3979,0.33849
3973.22,0.34026
3967.43,0.34234
3961.64,0.34561
3955.86,0.34828
3950.07,0.35196
3944.28,0.35436
3938.5,0.35746
3932.71,0.36059
3926.93,0.36367
3921.14,0.36599
3915.35,0.36882
3909.57,0.37165
3903.78,0.37447
3897.99,0.37732
3892.21,0.37940
3886.42,0.38141
3880.64,0.38329
3874.85,0.38572
3869.06,0.38786
3863.28,0.39177
3857.49,0.39504
3851.7,0.39910
3845.92,0.40124
3840.13,0.40300
3834.35,0.40452
3828.56,0.40553
3822.77,0.40637
3816.99,0.40656
3811.2,0.40692
3805.41,0.40656
3799.63,0.40648
3793.84,0.40610
3788.06,0.40538
3782.27,0.40404
3776.48,0.40310
3770.7,0.40163
3764.91,0.40005
3759.12,0.39794
3753.34,0.39591
3747.55,0.39324
3741.77,0.38994
3735.98,0.38614
3730.19,0.38165
3724.41,0.37706
3718.62,0.37102
3712.83,0.36423
3707.05,0.35544
3701.26,0.34416
3695.48,0.33173
3689.69,0.31683
3683.9,0.29878
3678.12,0.28076
3672.33,0.25882
3666.54,0.23840
3660.76,0.21934
3654.97,0.20191
3649.19,0.18521
3643.4,0.17044
3637.61,0.15799
3631.83,0.14619
3626.04,0.13571
3620.25,0.12664
3614.47,0.11773
3608.68,0.10952
3602.9,0.10145
3597.11,0.09414
3591.32,0.08874
3585.54,0.08299
3579.75,0.07787
3573.97,0.07380
3568.18,0.06899
3562.39,0.06589
3556.61,0.06225
3550.82,0.05960
3545.03,0.05681
3539.25,0.05489
3533.46,0.05248
3527.68,0.05115
3521.89,0.04938
3516.1,0.04751
3510.32,0.04606
3504.53,0.04514
3498.74,0.04394
3492.96,0.04297
3487.17,0.04182
3481.39,0.04123
3475.6,0.03993
3469.81,0.03987
3464.03,0.03891
3458.24,0.03868
3452.45,0.03766
3446.67,0.03738
3440.88,0.03755
3435.1,0.03737
3429.31,0.03694
3423.52,0.03763
3417.74,0.03679
3411.95,0.03650
3406.16,0.03746
3400.38,0.03697
3394.59,0.03703
3388.81,0.03712
3383.02,0.03763
3377.23,0.03741
3371.45,0.03786
3365.66,0.03717
3359.87,0.03711
3354.09,0.03724
3348.3,0.03798
3342.52,0.03808
3336.73,0.03964
3330.94,0.03895
3325.16,0.04048
3319.37,0.04068
3313.58,0.04205
3307.8,0.04283
3302.01,0.04281
3296.23,0.04313
3290.44,0.04405
3284.65,0.04547
3278.87,0.04624
3273.08,0.04674
3267.29,0.04856
3261.51,0.05014
3255.72,0.05154
3249.94,0.05416
3244.15,0.05523
3238.36,0.05707
3232.58,0.05832
3226.79,0.06044
3221,0.06198
3215.22,0.06400
3209.43,0.06628
3203.65,0.06788
3197.86,0.07020
3192.07,0.07264
3186.29,0.07472
3180.5,0.07641
3174.71,0.07809
3168.93,0.08121
3163.14,0.08310
3157.36,0.08612
3151.57,0.08871
3145.78,0.09102
3140,0.09303
3134.21,0.09552
3128.42,0.09763
3122.64,0.09973
3116.85,0.10189
3111.07,0.10446
3105.28,0.10724
3099.49,0.10953
3093.71,0.11172
3087.92,0.11341
3082.14,0.11469
3076.35,0.11692
3070.56,0.11866
3064.78,0.12032
3058.99,0.12276
3053.2,0.12434
3047.42,0.12635
3041.63,0.12703
3035.85,0.12745
3030.06,0.12625
3024.27,0.12553
3018.49,0.12288
3012.7,0.11886
3006.91,0.11594
3001.13,0.11332
2995.34,0.11024
2989.56,0.10593
2983.77,0.10041
2977.98,0.09284
2972.2,0.08539
2966.41,0.07943
2960.62,0.07470
2954.84,0.07127
2949.05,0.06772
2943.27,0.06507
2937.48,0.06309
2931.69,0.06257
2925.91,0.06187
2920.12,0.06223
2914.33,0.06276
2908.55,0.06375
2902.76,0.06482
2896.98,0.06657
2891.19,0.06857
2885.4,0.07045
2879.62,0.07131
2873.83,0.07253
2868.04,0.07315
2862.26,0.07529
2856.47,0.07644
2850.69,0.07943
2844.9,0.08636
2839.11,0.09372
2833.33,0.10223
2827.54,0.11038
2821.75,0.11861
2815.97,0.12512
2810.18,0.13062
2804.4,0.13493
2798.61,0.13904
2792.82,0.14242
2787.04,0.14497
2781.25,0.14706
2775.46,0.14850
2769.68,0.15005
2763.89,0.15117
2758.11,0.15256
2752.32,0.15321
2746.53,0.15374
2740.75,0.15410
2734.96,0.15449
2729.17,0.15580
2723.39,0.15716
2717.6,0.15936
2711.82,0.16195
2706.03,0.16508
2700.24,0.16722
2694.46,0.16986
2688.67,0.17222
2682.88,0.17448
2677.1,0.17711
2671.31,0.17901
2665.53,0.18043
2659.74,0.18204
2653.95,0.18324
2648.17,0.18448
2642.38,0.18651
2636.59,0.18892
2630.81,0.19109
2625.02,0.19337
2619.24,0.19516
2613.45,0.19690
2607.66,0.19902
2601.88,0.20071
2596.09,0.20225
2590.3,0.20372
2584.52,0.20498
2578.73,0.20603
2572.95,0.20680
2567.16,0.20730
2561.37,0.20794
2555.59,0.20808
2549.8,0.20852
2544.02,0.20955
2538.23,0.21000
2532.44,0.21170
2526.66,0.21336
2520.87,0.21438
2515.08,0.21566
2509.3,0.21774
2503.51,0.22021
2497.73,0.22279
2491.94,0.22589
2486.15,0.22808
2480.37,0.22981
2474.58,0.23191
2468.79,0.23383
2463.01,0.23554
2457.22,0.23776
2451.44,0.23995
2445.65,0.24278
2439.86,0.24516
2434.08,0.24783
2428.29,0.25072
2422.5,0.25380
2416.72,0.25687
2410.93,0.26020
2405.15,0.26309
2399.36,0.26598
2393.57,0.26890
2387.79,0.27120
2382,0.27326
2376.21,0.27542
2370.43,0.27748
2364.64,0.27969
2358.86,0.28165
2353.07,0.28370
2347.28,0.28587
2341.5,0.28805
2335.71,0.28920
2329.92,0.29043
2324.14,0.29126
2318.35,0.29155
2312.57,0.29207
2306.78,0.29174
2300.99,0.29038
2295.21,0.28995
2289.42,0.28950
2283.63,0.28947
2277.85,0.28873
2272.06,0.28747
2266.28,0.28484
2260.49,0.28248
2254.7,0.27995
2248.92,0.27844
2243.13,0.27719
2237.34,0.27723
2231.56,0.27727
2225.77,0.27803
2219.99,0.27836
2214.2,0.27860
2208.41,0.27763
2202.63,0.27673
2196.84,0.27435
2191.05,0.27114
2185.27,0.26680
2179.48,0.26210
2173.7,0.25766
2167.91,0.25285
2162.12,0.24902
2156.34,0.24610
2150.55,0.24460
2144.76,0.24275
2138.98,0.24164
2133.19,0.24163
2127.41,0.24209
2121.62,0.24289
2115.83,0.24425
2110.05,0.24582
2104.26,0.24745
2098.47,0.24935
2092.69,0.25112
2086.9,0.25255
2081.12,0.25258
2075.33,0.25241
2069.54,0.25189
2063.76,0.25168
2057.97,0.25222
2052.19,0.25263
2046.4,0.25349
2040.61,0.25480
2034.83,0.25676
2029.04,0.25956
2023.25,0.26300
2017.47,0.26659
2011.68,0.27049
2005.9,0.27385
2000.11,0.27615
1994.32,0.27799
1988.54,0.27957
1982.75,0.28102
1976.96,0.28116
1971.18,0.28052
1965.39,0.27996
1959.61,0.27922
1953.82,0.27949
1948.03,0.28134
1942.25,0.28424
1936.46,0.28766
1930.67,0.29144
1924.89,0.29411
1919.1,0.29614
1913.32,0.29734
1907.53,0.29800
1901.74,0.29856
1895.96,0.29865
1890.17,0.29779
1884.38,0.29701
1878.6,0.29560
1872.81,0.29367
1867.03,0.29177
1861.24,0.28842
1855.45,0.28508
1849.67,0.28112
1843.88,0.27673
1838.09,0.27157
1832.31,0.26572
1826.52,0.25888
1820.74,0.25085
1814.95,0.24197
1809.16,0.23157
1803.38,0.21933
1797.59,0.20535
1791.8,0.19043
1786.02,0.17406
1780.23,0.15398
1774.45,0.13027
1768.66,0.10096
1762.87,0.07770
1757.09,0.06174
1751.3,0.05262
1745.51,0.04779
1739.73,0.04742
1733.94,0.04985
1728.16,0.05371
1722.37,0.05954
1716.58,0.06615
1710.8,0.07395
1705.01,0.08322
1699.22,0.09252
1693.44,0.09828
1687.65,0.09920
1681.87,0.09556
1676.08,0.08997
1670.29,0.08486
1664.51,0.08172
1658.72,0.07948
1652.93,0.07912
1647.15,0.07952
1641.36,0.07950
1635.58,0.07908
1629.79,0.07890
1624,0.07788
1618.22,0.07691
1612.43,0.07458
1606.64,0.07004
1600.86,0.06561
1595.07,0.06190
1589.29,0.06690
1583.5,0.07937
1577.71,0.09493
1571.93,0.10915
1566.14,0.11840
1560.35,0.12217
1554.57,0.12309
1548.78,0.12287
1543,0.12134
1537.21,0.11714
1531.42,0.11002
1525.64,0.09785
1519.85,0.07998
1514.07,0.06581
1508.28,0.05912
1502.49,0.05913
1496.71,0.06619
1490.92,0.07325
1485.13,0.07432
1479.35,0.06772
1473.56,0.05597
1467.78,0.04682
1461.99,0.04495
1456.2,0.04590
1450.42,0.04765
1444.63,0.04907
1438.84,0.04768
1433.06,0.04449
1427.27,0.04342
1421.49,0.04498
1415.7,0.04835
1409.91,0.05107
1404.13,0.05149
1398.34,0.05036
1392.55,0.04737
1386.77,0.04434
1380.98,0.04118
1375.2,0.04009
1369.41,0.04086
1363.62,0.04320
1357.84,0.04514
1352.05,0.04643
1346.26,0.04533
1340.48,0.04355
1334.69,0.04278
1328.91,0.04287
1323.12,0.04287
1317.33,0.04391
1311.55,0.04586
1305.76,0.04783
1299.97,0.04841
1294.19,0.04678
1288.4,0.04451
1282.62,0.04116
1276.83,0.03991
1271.04,0.03828
1265.26,0.03745
1259.47,0.03647
1253.68,0.03650
1247.9,0.03595
1242.11,0.03646
1236.33,0.03808
1230.54,0.03864
1224.75,0.04033
1218.97,0.04233
1213.18,0.04386
1207.39,0.04529
1201.61,0.04592
1195.82,0.04554
1190.04,0.04434
1184.25,0.04058
1178.46,0.03730
1172.68,0.03488
1166.89,0.03523
1161.1,0.03679
1155.32,0.03708
1149.53,0.03666
1143.75,0.03487
1137.96,0.03218
1132.17,0.03073
1126.39,0.03071
1120.6,0.03277
1114.81,0.03380
1109.03,0.03494
1103.24,0.03570
1097.46,0.03528
1091.67,0.03494
1085.88,0.03490
1080.1,0.03592
1074.31,0.03768
1068.52,0.04067
1062.74,0.04493
1056.95,0.04788
1051.17,0.04915
1045.38,0.04921
1039.59,0.05127
1033.81,0.05383
1028.02,0.05653
1022.24,0.05662
1016.45,0.05824
1010.66,0.05995
1004.88,0.06121
999.09,0.06241
993.304,0.06461
987.518,0.06834
981.731,0.07632
975.945,0.08277
970.159,0.08700
964.373,0.09192
958.586,0.09901
952.8,0.10795
947.014,0.11351
941.228,0.11558
935.441,0.11484
929.655,0.11397
923.869,0.11302
918.083,0.11118
912.297,0.10667
906.51,0.10157
900.724,0.09494
894.938,0.09685
889.152,0.10555
883.365,0.11252
877.579,0.11568
871.793,0.11815
866.007,0.12084
860.22,0.12237
854.434,0.12194
848.648,0.11847
842.862,0.11692
837.075,0.11345
831.289,0.11215
825.503,0.11336
819.717,0.11469
813.931,0.11569
808.144,0.11536
802.358,0.11537
796.572,0.11527
790.786,0.11387
784.999,0.11202
779.213,0.10928
773.427,0.10557
767.641,0.10149
761.854,0.09855
756.068,0.09399
750.282,0.09059
744.496,0.08747
738.709,0.08498
732.923,0.08158
727.137,0.07774
721.351,0.07510
715.565,0.07376
709.778,0.07383
703.992,0.07223
698.206,0.07185
692.42,0.07196
686.633,0.06920
680.847,0.06595
675.061,0.06299
669.275,0.06227
663.488,0.06281
657.702,0.06350
651.916,0.06258
646.13,0.06131
640.343,0.06105
634.557,0.05748
628.771,0.05608
622.985,0.05454
617.198,0.05545
611.412,0.05462
605.626,0.05726
599.84,0.05862