File: 01_Data/Basswood_Panel/FTIR/IS/Basswood_Panel_IS_S_220928_R1.dpt
7497.03,0.83735
7491.25,0.83127
7485.46,0.82055
7479.67,0.81618
7473.89,0.81168
7468.1,0.82435
7462.32,0.80836
7456.53,0.81456
7450.74,0.81630
7444.96,0.81196
7439.17,0.81082
7433.38,0.81505
7427.6,0.80826
7421.81,0.80229
7416.03,0.79708
7410.24,0.79923
7404.45,0.79760
7398.67,0.80619
7392.88,0.79723
7387.09,0.78927
7381.31,0.78696
7375.52,0.78658
7369.74,0.77035
7363.95,0.77267
7358.16,0.77394
7352.38,0.78094
7346.59,0.76894
7340.8,0.77182
7335.02,0.76904
7329.23,0.76257
7323.45,0.76287
7317.66,0.75746
7311.87,0.76389
7306.09,0.76780
7300.3,0.77024
7294.51,0.76190
7288.73,0.75583
7282.94,0.75678
7277.16,0.76053
7271.37,0.76402
7265.58,0.76293
7259.8,0.76023
7254.01,0.75364
7248.22,0.76192
7242.44,0.76596
7236.65,0.75989
7230.87,0.75924
7225.08,0.75471
7219.29,0.76307
7213.51,0.75714
7207.72,0.74783
7201.93,0.75236
7196.15,0.74539
7190.36,0.74654
7184.58,0.74973
7178.79,0.75088
7173,0.74456
7167.22,0.73846
7161.43,0.72855
7155.65,0.72833
7149.86,0.73159
7144.07,0.72399
7138.29,0.72310
7132.5,0.72300
7126.71,0.71911
7120.93,0.70262
7115.14,0.70328
7109.36,0.70299
7103.57,0.70491
7097.78,0.69469
7092,0.68188
7086.21,0.68465
7080.42,0.68413
7074.64,0.67579
7068.85,0.67738
7063.07,0.66913
7057.28,0.66577
7051.49,0.65307
7045.71,0.65399
7039.92,0.64459
7034.13,0.64635
7028.35,0.64584
7022.56,0.64104
7016.78,0.63786
7010.99,0.63417
7005.2,0.62651
6999.42,0.62716
6993.63,0.63045
6987.84,0.61686
6982.06,0.62133
6976.27,0.61627
6970.49,0.61573
6964.7,0.60952
6958.91,0.61948
6953.13,0.61603
6947.34,0.61346
6941.55,0.61182
6935.77,0.61436
6929.98,0.61084
6924.2,0.61414
6918.41,0.61471
6912.62,0.60971
6906.84,0.61834
6901.05,0.60865
6895.26,0.60342
6889.48,0.60584
6883.69,0.60764
6877.91,0.60430
6872.12,0.60545
6866.33,0.60584
6860.55,0.61214
6854.76,0.60686
6848.97,0.61357
6843.19,0.60444
6837.4,0.60344
6831.62,0.60094
6825.83,0.60457
6820.04,0.60170
6814.26,0.60449
6808.47,0.60423
6802.68,0.60781
6796.9,0.61265
6791.11,0.60363
6785.33,0.60279
6779.54,0.60327
6773.75,0.60497
6767.97,0.60457
6762.18,0.60425
6756.39,0.60585
6750.61,0.60749
6744.82,0.60584
6739.04,0.60939
6733.25,0.60293
6727.46,0.60272
6721.68,0.60933
6715.89,0.60785
6710.1,0.60759
6704.32,0.60973
6698.53,0.60956
6692.75,0.60686
6686.96,0.61119
6681.17,0.61415
6675.39,0.62236
6669.6,0.61094
6663.82,0.61093
6658.03,0.61795
6652.24,0.61742
6646.46,0.62288
6640.67,0.61889
6634.88,0.61775
6629.1,0.61700
6623.31,0.61702
6617.53,0.62284
6611.74,0.62576
6605.95,0.62491
6600.17,0.62156
6594.38,0.62490
6588.59,0.62677
6582.81,0.62205
6577.02,0.62671
6571.24,0.63008
6565.45,0.62633
6559.66,0.63155
6553.88,0.63084
6548.09,0.63241
6542.3,0.63247
6536.52,0.63718
6530.73,0.63550
6524.95,0.63637
6519.16,0.63222
6513.37,0.63779
6507.59,0.63660
6501.8,0.63782
6496.01,0.63828
6490.23,0.63027
6484.44,0.63444
6478.66,0.64135
6472.87,0.63924
6467.08,0.64060
6461.3,0.63671
6455.51,0.64094
6449.72,0.63846
6443.94,0.63944
6438.15,0.64015
6432.37,0.64197
6426.58,0.64106
6420.79,0.64360
6415.01,0.64651
6409.22,0.64327
6403.43,0.64270
6397.65,0.64473
6391.86,0.64271
6386.08,0.64155
6380.29,0.64215
6374.5,0.64444
6368.72,0.64588
6362.93,0.64899
6357.14,0.64620
6351.36,0.64624
6345.57,0.64549
6339.79,0.64980
6334,0.64839
6328.21,0.65002
6322.43,0.65259
6316.64,0.65055
6310.85,0.64912
6305.07,0.65067
6299.28,0.65081
6293.5,0.65466
6287.71,0.65307
6281.92,0.65596
6276.14,0.65799
6270.35,0.65772
6264.56,0.65926
6258.78,0.65985
6252.99,0.66338
6247.21,0.66277
6241.42,0.66477
6235.63,0.66580
6229.85,0.66417
6224.06,0.67235
6218.27,0.67175
6212.49,0.67212
6206.7,0.67421
6200.92,0.67718
6195.13,0.67926
6189.34,0.68024
6183.56,0.68346
6177.77,0.68426
6171.98,0.68533
6166.2,0.68417
6160.41,0.68547
6154.63,0.68584
6148.84,0.68750
6143.05,0.68998
6137.27,0.68933
6131.48,0.68955
6125.7,0.69013
6119.91,0.69187
6114.12,0.68954
6108.34,0.69534
6102.55,0.69619
6096.76,0.69111
6090.98,0.69313
6085.19,0.69296
6079.41,0.69512
6073.62,0.69535
6067.83,0.69357
6062.05,0.69075
6056.26,0.69058
6050.47,0.68990
6044.69,0.68950
6038.9,0.68874
6033.12,0.68781
6027.33,0.68739
6021.54,0.68734
6015.76,0.68615
6009.97,0.68250
6004.18,0.68053
5998.4,0.67763
5992.61,0.67676
5986.83,0.67593
5981.04,0.67769
5975.25,0.67390
5969.47,0.67385
5963.68,0.67239
5957.89,0.67359
5952.11,0.66779
5946.32,0.67030
5940.54,0.66649
5934.75,0.66855
5928.96,0.66622
5923.18,0.66511
5917.39,0.66840
5911.6,0.66741
5905.82,0.66588
5900.03,0.66285
5894.25,0.66152
5888.46,0.66046
5882.67,0.65959
5876.89,0.65820
5871.1,0.65605
5865.31,0.65595
5859.53,0.65314
5853.74,0.65300
5847.96,0.65148
5842.17,0.65044
5836.38,0.65089
5830.6,0.65059
5824.81,0.64519
5819.02,0.64535
5813.24,0.64179
5807.45,0.63885
5801.67,0.63982
5795.88,0.64109
5790.09,0.64402
5784.31,0.64488
5778.52,0.64661
5772.73,0.64343
5766.95,0.64997
5761.16,0.65076
5755.38,0.65230
5749.59,0.65280
5743.8,0.65419
5738.02,0.65433
5732.23,0.65459
5726.44,0.65352
5720.66,0.65368
5714.87,0.65535
5709.09,0.65570
5703.3,0.65491
5697.51,0.65458
5691.73,0.65200
5685.94,0.65140
5680.15,0.65374
5674.37,0.65494
5668.58,0.65253
5662.8,0.65356
5657.01,0.65267
5651.22,0.65223
5645.44,0.65393
5639.65,0.65400
5633.87,0.65316
5628.08,0.65406
5622.29,0.65545
5616.51,0.65221
5610.72,0.65429
5604.93,0.65263
5599.15,0.65553
5593.36,0.65558
5587.58,0.65528
5581.79,0.65709
5576,0.65684
5570.22,0.65620
5564.43,0.65746
5558.64,0.65836
5552.86,0.65746
5547.07,0.65917
5541.29,0.65825
5535.5,0.65825
5529.71,0.66074
5523.93,0.66095
5518.14,0.66180
5512.35,0.66025
5506.57,0.66083
5500.78,0.66113
5495,0.66263
5489.21,0.66197
5483.42,0.66320
5477.64,0.66385
5471.85,0.66410
5466.06,0.66556
5460.28,0.66634
5454.49,0.66658
5448.71,0.66742
5442.92,0.67105
5437.13,0.67142
5431.35,0.67386
5425.56,0.67267
5419.77,0.67251
5413.99,0.67472
5408.2,0.67539
5402.42,0.67502
5396.63,0.67667
5390.84,0.67634
5385.06,0.67575
5379.27,0.67560
5373.48,0.67437
5367.7,0.67546
5361.91,0.67407
5356.13,0.67443
5350.34,0.67223
5344.55,0.67050
5338.77,0.66896
5332.98,0.66534
5327.19,0.66339
5321.41,0.66115
5315.62,0.65411
5309.84,0.64979
5304.05,0.64280
5298.26,0.63441
5292.48,0.62571
5286.69,0.61595
5280.9,0.60408
5275.12,0.59098
5269.33,0.57923
5263.55,0.56987
5257.76,0.55724
5251.97,0.54565
5246.19,0.53721
5240.4,0.52878
5234.61,0.52299
5228.83,0.51697
5223.04,0.51186
5217.26,0.50847
5211.47,0.50643
5205.68,0.50429
5199.9,0.50366
5194.11,0.50420
5188.32,0.50528
5182.54,0.50670
5176.75,0.50803
5170.97,0.51043
5165.18,0.51368
5159.39,0.51478
5153.61,0.51954
5147.82,0.52172
5142.03,0.52649
5136.25,0.53050
5130.46,0.53351
5124.68,0.53789
5118.89,0.54026
5113.1,0.54384
5107.32,0.54591
5101.53,0.55070
5095.75,0.55282
5089.96,0.55538
5084.17,0.55754
5078.39,0.56071
5072.6,0.56379
5066.81,0.56757
5061.03,0.56967
5055.24,0.57310
5049.46,0.57510
5043.67,0.57809
5037.88,0.58174
5032.1,0.58204
5026.31,0.58416
5020.52,0.58600
5014.74,0.58640
5008.95,0.58746
5003.17,0.58842
4997.38,0.58993
4991.59,0.59058
4985.81,0.58935
4980.02,0.58935
4974.23,0.58712
4968.45,0.58532
4962.66,0.58404
4956.88,0.58078
4951.09,0.57758
4945.3,0.57297
4939.52,0.56850
4933.73,0.56505
4927.94,0.56065
4922.16,0.55553
4916.37,0.55014
4910.59,0.54515
4904.8,0.54063
4899.01,0.53495
4893.23,0.53095
4887.44,0.52563
4881.65,0.52136
4875.87,0.51682
4870.08,0.51138
4864.3,0.50724
4858.51,0.50244
4852.72,0.49956
4846.94,0.49591
4841.15,0.49161
4835.36,0.48710
4829.58,0.48558
4823.79,0.48234
4818.01,0.47842
4812.22,0.47644
4806.43,0.47437
4800.65,0.47204
4794.86,0.47081
4789.07,0.47075
4783.29,0.46985
4777.5,0.46778
4771.72,0.46676
4765.93,0.46658
4760.14,0.46567
4754.36,0.46575
4748.57,0.46505
4742.78,0.46559
4737,0.46676
4731.21,0.46708
4725.43,0.46678
4719.64,0.46760
4713.85,0.46856
4708.07,0.46947
4702.28,0.47038
4696.49,0.47179
4690.71,0.47221
4684.92,0.47370
4679.14,0.47515
4673.35,0.47777
4667.56,0.47970
4661.78,0.48289
4655.99,0.48621
4650.2,0.48842
4644.42,0.49099
4638.63,0.49259
4632.85,0.49526
4627.06,0.49854
4621.27,0.50019
4615.49,0.50231
4609.7,0.50533
4603.92,0.50747
4598.13,0.50808
4592.34,0.51065
4586.56,0.51266
4580.77,0.51483
4574.98,0.51544
4569.2,0.51727
4563.41,0.51831
4557.63,0.51923
4551.84,0.52118
4546.05,0.52135
4540.27,0.52284
4534.48,0.52359
4528.69,0.52361
4522.91,0.52452
4517.12,0.52429
4511.34,0.52306
4505.55,0.52136
4499.76,0.51877
4493.98,0.51541
4488.19,0.51133
4482.4,0.50490
4476.62,0.49799
4470.83,0.49023
4465.05,0.48236
4459.26,0.47378
4453.47,0.46415
4447.69,0.45634
4441.9,0.44804
4436.11,0.43947
4430.33,0.43342
4424.54,0.42757
4418.76,0.42338
4412.97,0.41963
4407.18,0.41739
4401.4,0.41610
4395.61,0.41649
4389.82,0.41791
4384.04,0.41947
4378.25,0.42099
4372.47,0.42315
4366.68,0.42470
4360.89,0.42504
4355.11,0.42352
4349.32,0.42170
4343.53,0.42021
4337.75,0.41844
4331.96,0.41690
4326.18,0.41548
4320.39,0.41366
4314.6,0.41254
4308.82,0.41094
4303.03,0.40940
4297.24,0.40642
4291.46,0.40488
4285.67,0.40388
4279.89,0.40287
4274.1,0.40258
4268.31,0.40179
4262.53,0.40283
4256.74,0.40356
4250.95,0.40567
4245.17,0.40638
4239.38,0.40696
4233.6,0.40935
4227.81,0.40994
4222.02,0.41041
4216.24,0.41056
4210.45,0.41243
4204.66,0.41247
4198.88,0.41265
4193.09,0.41346
4187.31,0.41464
4181.52,0.41533
4175.73,0.41601
4169.95,0.41810
4164.16,0.41841
4158.37,0.41849
4152.59,0.41826
4146.8,0.41636
4141.02,0.41476
4135.23,0.41153
4129.44,0.40892
4123.66,0.40561
4117.87,0.40162
4112.09,0.39738
4106.3,0.39267
4100.51,0.38763
4094.73,0.38408
4088.94,0.37861
4083.15,0.37261
4077.37,0.36737
4071.58,0.36225
4065.8,0.35695
4060.01,0.35186
4054.22,0.34702
4048.44,0.34194
4042.65,0.33773
4036.86,0.33387
4031.08,0.33076
4025.29,0.32831
4019.51,0.32704
4013.72,0.32674
4007.93,0.32777
4002.15,0.32969
3996.36,0.33053
3990.57,0.33226
3984.79,0.33402
3979,0.33523
3973.22,0.33701
3967.43,0.33941
3961.64,0.34219
3955.86,0.34509
3950.07,0.34850
3944.28,0.35118
3938.5,0.35295
3932.71,0.35640
3926.93,0.35990
3921.14,0.36260
3915.35,0.36562
3909.57,0.36785
3903.78,0.37068
3897.99,0.37276
3892.21,0.37592
3886.42,0.37738
3880.64,0.37986
3874.85,0.38170
3869.06,0.38511
3863.28,0.38831
3857.49,0.39074
3851.7,0.39383
3845.92,0.39552
3840.13,0.39842
3834.35,0.40003
3828.56,0.40087
3822.77,0.40154
3816.99,0.40171
3811.2,0.40121
3805.41,0.40083
3799.63,0.40166
3793.84,0.40057
3788.06,0.39961
3782.27,0.39848
3776.48,0.39694
3770.7,0.39507
3764.91,0.39290
3759.12,0.39100
3753.34,0.38877
3747.55,0.38710
3741.77,0.38275
3735.98,0.37908
3730.19,0.37457
3724.41,0.36854
3718.62,0.36219
3712.83,0.35509
3707.05,0.34543
3701.26,0.33461
3695.48,0.32108
3689.69,0.30670
3683.9,0.28732
3678.12,0.26847
3672.33,0.24699
3666.54,0.22550
3660.76,0.20628
3654.97,0.18830
3649.19,0.17362
3643.4,0.15809
3637.61,0.14652
3631.83,0.13647
3626.04,0.12600
3620.25,0.11722
3614.47,0.10969
3608.68,0.10194
3602.9,0.09468
3597.11,0.08921
3591.32,0.08379
3585.54,0.07900
3579.75,0.07445
3573.97,0.07003
3568.18,0.06709
3562.39,0.06329
3556.61,0.06044
3550.82,0.05809
3545.03,0.05601
3539.25,0.05345
3533.46,0.05145
3527.68,0.04965
3521.89,0.04805
3516.1,0.04654
3510.32,0.04563
3504.53,0.04380
3498.74,0.04252
3492.96,0.04196
3487.17,0.04136
3481.39,0.04020
3475.6,0.03990
3469.81,0.03896
3464.03,0.03790
3458.24,0.03845
3452.45,0.03810
3446.67,0.03676
3440.88,0.03700
3435.1,0.03656
3429.31,0.03658
3423.52,0.03695
3417.74,0.03694
3411.95,0.03666
3406.16,0.03689
3400.38,0.03658
3394.59,0.03689
3388.81,0.03705
3383.02,0.03760
3377.23,0.03723
3371.45,0.03737
3365.66,0.03654
3359.87,0.03651
3354.09,0.03756
3348.3,0.03742
3342.52,0.03759
3336.73,0.03838
3330.94,0.04010
3325.16,0.04024
3319.37,0.04106
3313.58,0.04172
3307.8,0.04211
3302.01,0.04297
3296.23,0.04275
3290.44,0.04399
3284.65,0.04387
3278.87,0.04501
3273.08,0.04616
3267.29,0.04814
3261.51,0.04922
3255.72,0.05137
3249.94,0.05206
3244.15,0.05366
3238.36,0.05592
3232.58,0.05757
3226.79,0.05954
3221,0.06155
3215.22,0.06207
3209.43,0.06417
3203.65,0.06586
3197.86,0.06808
3192.07,0.07030
3186.29,0.07151
3180.5,0.07409
3174.71,0.07691
3168.93,0.07844
3163.14,0.08089
3157.36,0.08351
3151.57,0.08549
3145.78,0.08782
3140,0.08980
3134.21,0.09237
3128.42,0.09465
3122.64,0.09683
3116.85,0.09910
3111.07,0.10141
3105.28,0.10357
3099.49,0.10523
3093.71,0.10746
3087.92,0.10956
3082.14,0.11162
3076.35,0.11321
3070.56,0.11498
3064.78,0.11709
3058.99,0.11924
3053.2,0.12107
3047.42,0.12260
3041.63,0.12409
3035.85,0.12385
3030.06,0.12336
3024.27,0.12197
3018.49,0.12001
3012.7,0.11709
3006.91,0.11375
3001.13,0.11041
2995.34,0.10810
2989.56,0.10461
2983.77,0.09947
2977.98,0.09194
2972.2,0.08408
2966.41,0.07818
2960.62,0.07507
2954.84,0.07117
2949.05,0.06778
2943.27,0.06444
2937.48,0.06263
2931.69,0.06187
2925.91,0.06184
2920.12,0.06203
2914.33,0.06294
2908.55,0.06369
2902.76,0.06469
2896.98,0.06628
2891.19,0.06822
2885.4,0.07006
2879.62,0.07126
2873.83,0.07179
2868.04,0.07343
2862.26,0.07443
2856.47,0.07576
2850.69,0.07942
2844.9,0.08563
2839.11,0.09282
2833.33,0.10149
2827.54,0.11053
2821.75,0.11723
2815.97,0.12371
2810.18,0.12927
2804.4,0.13427
2798.61,0.13735
2792.82,0.14063
2787.04,0.14286
2781.25,0.14536
2775.46,0.14687
2769.68,0.14833
2763.89,0.14949
2758.11,0.15099
2752.32,0.15158
2746.53,0.15187
2740.75,0.15244
2734.96,0.15304
2729.17,0.15442
2723.39,0.15550
2717.6,0.15721
2711.82,0.15981
2706.03,0.16273
2700.24,0.16569
2694.46,0.16778
2688.67,0.17050
2682.88,0.17318
2677.1,0.17509
2671.31,0.17707
2665.53,0.17884
2659.74,0.17990
2653.95,0.18137
2648.17,0.18327
2642.38,0.18457
2636.59,0.18686
2630.81,0.18901
2625.02,0.19156
2619.24,0.19389
2613.45,0.19533
2607.66,0.19701
2601.88,0.19884
2596.09,0.20057
2590.3,0.20220
2584.52,0.20345
2578.73,0.20455
2572.95,0.20468
2567.16,0.20553
2561.37,0.20616
2555.59,0.20665
2549.8,0.20687
2544.02,0.20780
2538.23,0.20883
2532.44,0.20973
2526.66,0.21144
2520.87,0.21255
2515.08,0.21410
2509.3,0.21571
2503.51,0.21817
2497.73,0.22145
2491.94,0.22394
2486.15,0.22621
2480.37,0.22825
2474.58,0.23059
2468.79,0.23212
2463.01,0.23435
2457.22,0.23619
2451.44,0.23836
2445.65,0.24057
2439.86,0.24378
2434.08,0.24592
2428.29,0.24912
2422.5,0.25175
2416.72,0.25471
2410.93,0.25790
2405.15,0.26131
2399.36,0.26407
2393.57,0.26659
2387.79,0.26898
2382,0.27079
2376.21,0.27272
2370.43,0.27495
2364.64,0.27711
2358.86,0.27907
2353.07,0.28089
2347.28,0.28263
2341.5,0.28445
2335.71,0.28636
2329.92,0.28730
2324.14,0.28800
2318.35,0.28835
2312.57,0.28857
2306.78,0.28829
2300.99,0.28771
2295.21,0.28650
2289.42,0.28645
2283.63,0.28556
2277.85,0.28466
2272.06,0.28335
2266.28,0.28128
2260.49,0.27886
2254.7,0.27636
2248.92,0.27485
2243.13,0.27348
2237.34,0.27286
2231.56,0.27344
2225.77,0.27355
2219.99,0.27374
2214.2,0.27401
2208.41,0.27311
2202.63,0.27180
2196.84,0.26949
2191.05,0.26627
2185.27,0.26230
2179.48,0.25736
2173.7,0.25329
2167.91,0.24854
2162.12,0.24481
2156.34,0.24178
2150.55,0.23996
2144.76,0.23845
2138.98,0.23718
2133.19,0.23733
2127.41,0.23745
2121.62,0.23853
2115.83,0.23985
2110.05,0.24117
2104.26,0.24320
2098.47,0.24493
2092.69,0.24635
2086.9,0.24763
2081.12,0.24796
2075.33,0.24745
2069.54,0.24720
2063.76,0.24751
2057.97,0.24748
2052.19,0.24798
2046.4,0.24885
2040.61,0.25020
2034.83,0.25229
2029.04,0.25512
2023.25,0.25858
2017.47,0.26235
2011.68,0.26563
2005.9,0.26886
2000.11,0.27140
1994.32,0.27351
1988.54,0.27504
1982.75,0.27616
1976.96,0.27633
1971.18,0.27623
1965.39,0.27549
1959.61,0.27494
1953.82,0.27540
1948.03,0.27724
1942.25,0.28035
1936.46,0.28326
1930.67,0.28653
1924.89,0.28938
1919.1,0.29188
1913.32,0.29312
1907.53,0.29403
1901.74,0.29399
1895.96,0.29419
1890.17,0.29388
1884.38,0.29287
1878.6,0.29137
1872.81,0.28967
1867.03,0.28761
1861.24,0.28464
1855.45,0.28142
1849.67,0.27734
1843.88,0.27328
1838.09,0.26814
1832.31,0.26280
1826.52,0.25591
1820.74,0.24812
1814.95,0.23968
1809.16,0.22937
1803.38,0.21746
1797.59,0.20392
1791.8,0.18966
1786.02,0.17361
1780.23,0.15448
1774.45,0.13075
1768.66,0.10199
1762.87,0.07837
1757.09,0.06236
1751.3,0.05280
1745.51,0.04777
1739.73,0.04684
1733.94,0.04977
1728.16,0.05378
1722.37,0.05864
1716.58,0.06531
1710.8,0.07296
1705.01,0.08210
1699.22,0.09076
1693.44,0.09611
1687.65,0.09725
1681.87,0.09343
1676.08,0.08794
1670.29,0.08239
1664.51,0.07836
1658.72,0.07643
1652.93,0.07673
1647.15,0.07650
1641.36,0.07636
1635.58,0.07624
1629.79,0.07618
1624,0.07602
1618.22,0.07506
1612.43,0.07357
1606.64,0.06906
1600.86,0.06438
1595.07,0.06166
1589.29,0.06622
1583.5,0.07907
1577.71,0.09435
1571.93,0.10806
1566.14,0.11671
1560.35,0.12078
1554.57,0.12172
1548.78,0.12097
1543,0.11997
1537.21,0.11588
1531.42,0.10841
1525.64,0.09732
1519.85,0.07915
1514.07,0.06525
1508.28,0.05946
1502.49,0.05927
1496.71,0.06615
1490.92,0.07293
1485.13,0.07421
1479.35,0.06742
1473.56,0.05537
1467.78,0.04644
1461.99,0.04486
1456.2,0.04611
1450.42,0.04734
1444.63,0.04878
1438.84,0.04730
1433.06,0.04440
1427.27,0.04340
1421.49,0.04495
1415.7,0.04828
1409.91,0.05091
1404.13,0.05142
1398.34,0.05010
1392.55,0.04735
1386.77,0.04393
1380.98,0.04072
1375.2,0.03979
1369.41,0.04073
1363.62,0.04338
1357.84,0.04508
1352.05,0.04631
1346.26,0.04552
1340.48,0.04400
1334.69,0.04259
1328.91,0.04278
1323.12,0.04313
1317.33,0.04386
1311.55,0.04633
1305.76,0.04756
1299.97,0.04818
1294.19,0.04721
1288.4,0.04409
1282.62,0.04127
1276.83,0.03983
1271.04,0.03848
1265.26,0.03746
1259.47,0.03653
1253.68,0.03600
1247.9,0.03598
1242.11,0.03653
1236.33,0.03775
1230.54,0.03855
1224.75,0.04062
1218.97,0.04285
1213.18,0.04449
1207.39,0.04497
1201.61,0.04581
1195.82,0.04610
1190.04,0.04406
1184.25,0.04064
1178.46,0.03747
1172.68,0.03448
1166.89,0.03459
1161.1,0.03583
1155.32,0.03680
1149.53,0.03614
1143.75,0.03468
1137.96,0.03212
1132.17,0.03105
1126.39,0.03115
1120.6,0.03223
1114.81,0.03322
1109.03,0.03456
1103.24,0.03611
1097.46,0.03543
1091.67,0.03446
1085.88,0.03464
1080.1,0.03549
1074.31,0.03740
1068.52,0.04034
1062.74,0.04438
1056.95,0.04850
1051.17,0.04905
1045.38,0.04887
1039.59,0.05114
1033.81,0.05348
1028.02,0.05478
1022.24,0.05657
1016.45,0.05868
1010.66,0.06052
1004.88,0.06113
999.09,0.06209
993.304,0.06471
987.518,0.06893
981.731,0.07603
975.945,0.08246
970.159,0.08650
964.373,0.09170
958.586,0.09901
952.8,0.10778
947.014,0.11252
941.228,0.11429
935.441,0.11430
929.655,0.11284
923.869,0.11186
918.083,0.10974
912.297,0.10639
906.51,0.10047
900.724,0.09393
894.938,0.09637
889.152,0.10470
883.365,0.11092
877.579,0.11359
871.793,0.11583
866.007,0.11858
860.22,0.12039
854.434,0.11897
848.648,0.11666
842.862,0.11321
837.075,0.11096
831.289,0.11024
825.503,0.11097
819.717,0.11187
813.931,0.11161
808.144,0.11221
802.358,0.11209
796.572,0.11183
790.786,0.11125
784.999,0.10750
779.213,0.10469
773.427,0.10259
767.641,0.09890
761.854,0.09435
756.068,0.09078
750.282,0.08696
744.496,0.08470
738.709,0.08149
732.923,0.07999
727.137,0.07637
721.351,0.07338
715.565,0.07280
709.778,0.07094
703.992,0.06953
698.206,0.07010
692.42,0.06935
686.633,0.06730
680.847,0.06506
675.061,0.06235
669.275,0.06124
663.488,0.06184
657.702,0.06234
651.916,0.06225
646.13,0.06039
640.343,0.05959
634.557,0.05784
628.771,0.05804
622.985,0.05611
617.198,0.05398
611.412,0.05513
605.626,0.05738
599.84,0.05866