File: 01_Data/Basswood_Panel/FTIR/IS/Basswood_Panel_IS_S_220928_R3.dpt
7497.03,0.84367
7491.25,0.83748
7485.46,0.83811
7479.67,0.83865
7473.89,0.83922
7468.1,0.82862
7462.32,0.83568
7456.53,0.82122
7450.74,0.81626
7444.96,0.82528
7439.17,0.80989
7433.38,0.81563
7427.6,0.80676
7421.81,0.81410
7416.03,0.80555
7410.24,0.80970
7404.45,0.80725
7398.67,0.79785
7392.88,0.79431
7387.09,0.79089
7381.31,0.80085
7375.52,0.79782
7369.74,0.78991
7363.95,0.79697
7358.16,0.79811
7352.38,0.78771
7346.59,0.78338
7340.8,0.78540
7335.02,0.78007
7329.23,0.77336
7323.45,0.77778
7317.66,0.77280
7311.87,0.77125
7306.09,0.77342
7300.3,0.77394
7294.51,0.77405
7288.73,0.76616
7282.94,0.77394
7277.16,0.77010
7271.37,0.77282
7265.58,0.77400
7259.8,0.77769
7254.01,0.77639
7248.22,0.76264
7242.44,0.76786
7236.65,0.77092
7230.87,0.76917
7225.08,0.76396
7219.29,0.76635
7213.51,0.76143
7207.72,0.75919
7201.93,0.75505
7196.15,0.75754
7190.36,0.75106
7184.58,0.75078
7178.79,0.75861
7173,0.75249
7167.22,0.74845
7161.43,0.74316
7155.65,0.74500
7149.86,0.73983
7144.07,0.73168
7138.29,0.73903
7132.5,0.73566
7126.71,0.72502
7120.93,0.72092
7115.14,0.71957
7109.36,0.71256
7103.57,0.70683
7097.78,0.70598
7092,0.70066
7086.21,0.69737
7080.42,0.68854
7074.64,0.68617
7068.85,0.68760
7063.07,0.68293
7057.28,0.67089
7051.49,0.66832
7045.71,0.66121
7039.92,0.66524
7034.13,0.66031
7028.35,0.64711
7022.56,0.65052
7016.78,0.64294
7010.99,0.64138
7005.2,0.63126
6999.42,0.63632
6993.63,0.62955
6987.84,0.63087
6982.06,0.62263
6976.27,0.62047
6970.49,0.62631
6964.7,0.62580
6958.91,0.62346
6953.13,0.62363
6947.34,0.61722
6941.55,0.61718
6935.77,0.61685
6929.98,0.61922
6924.2,0.61325
6918.41,0.61674
6912.62,0.61816
6906.84,0.61651
6901.05,0.61334
6895.26,0.61764
6889.48,0.61860
6883.69,0.61489
6877.91,0.61278
6872.12,0.62036
6866.33,0.61896
6860.55,0.61823
6854.76,0.61507
6848.97,0.61775
6843.19,0.61724
6837.4,0.61052
6831.62,0.61087
6825.83,0.61522
6820.04,0.61177
6814.26,0.61349
6808.47,0.61940
6802.68,0.61511
6796.9,0.61522
6791.11,0.61718
6785.33,0.61267
6779.54,0.61582
6773.75,0.61154
6767.97,0.61189
6762.18,0.61852
6756.39,0.61904
6750.61,0.61265
6744.82,0.62139
6739.04,0.61321
6733.25,0.61436
6727.46,0.61227
6721.68,0.61553
6715.89,0.61692
6710.1,0.61270
6704.32,0.61656
6698.53,0.62336
6692.75,0.62134
6686.96,0.61967
6681.17,0.61949
6675.39,0.62076
6669.6,0.62190
6663.82,0.62244
6658.03,0.62303
6652.24,0.62124
6646.46,0.62386
6640.67,0.63032
6634.88,0.62726
6629.1,0.63045
6623.31,0.62850
6617.53,0.62953
6611.74,0.63120
6605.95,0.63017
6600.17,0.63222
6594.38,0.63522
6588.59,0.63444
6582.81,0.63847
6577.02,0.63468
6571.24,0.63414
6565.45,0.63555
6559.66,0.64026
6553.88,0.64126
6548.09,0.64180
6542.3,0.64052
6536.52,0.64399
6530.73,0.64243
6524.95,0.64170
6519.16,0.64642
6513.37,0.64474
6507.59,0.64995
6501.8,0.64429
6496.01,0.64081
6490.23,0.64402
6484.44,0.64780
6478.66,0.64838
6472.87,0.64382
6467.08,0.64247
6461.3,0.64586
6455.51,0.64965
6449.72,0.65085
6443.94,0.64860
6438.15,0.65103
6432.37,0.64671
6426.58,0.64926
6420.79,0.64706
6415.01,0.65128
6409.22,0.65192
6403.43,0.64854
6397.65,0.65257
6391.86,0.65450
6386.08,0.64953
6380.29,0.65207
6374.5,0.64973
6368.72,0.65112
6362.93,0.65221
6357.14,0.65612
6351.36,0.65033
6345.57,0.65295
6339.79,0.65315
6334,0.65451
6328.21,0.65437
6322.43,0.65674
6316.64,0.65503
6310.85,0.65886
6305.07,0.65478
6299.28,0.65849
6293.5,0.65604
6287.71,0.65836
6281.92,0.66148
6276.14,0.66138
6270.35,0.66315
6264.56,0.66526
6258.78,0.66838
6252.99,0.67068
6247.21,0.67265
6241.42,0.67608
6235.63,0.67394
6229.85,0.67455
6224.06,0.67856
6218.27,0.67748
6212.49,0.68012
6206.7,0.68366
6200.92,0.68547
6195.13,0.68415
6189.34,0.68624
6183.56,0.68688
6177.77,0.68917
6171.98,0.68938
6166.2,0.69120
6160.41,0.69502
6154.63,0.69492
6148.84,0.69500
6143.05,0.69462
6137.27,0.69446
6131.48,0.69842
6125.7,0.69833
6119.91,0.69894
6114.12,0.70108
6108.34,0.69887
6102.55,0.69924
6096.76,0.69944
6090.98,0.69975
6085.19,0.70009
6079.41,0.69731
6073.62,0.70125
6067.83,0.69914
6062.05,0.69970
6056.26,0.69807
6050.47,0.69652
6044.69,0.69680
6038.9,0.69654
6033.12,0.69298
6027.33,0.69186
6021.54,0.68981
6015.76,0.68868
6009.97,0.68893
6004.18,0.68237
5998.4,0.68494
5992.61,0.68408
5986.83,0.68039
5981.04,0.68060
5975.25,0.67962
5969.47,0.67998
5963.68,0.67650
5957.89,0.67525
5952.11,0.67291
5946.32,0.67422
5940.54,0.67140
5934.75,0.67335
5928.96,0.67404
5923.18,0.67232
5917.39,0.67333
5911.6,0.67224
5905.82,0.67122
5900.03,0.66895
5894.25,0.66551
5888.46,0.66515
5882.67,0.66308
5876.89,0.65859
5871.1,0.65818
5865.31,0.65776
5859.53,0.65811
5853.74,0.65713
5847.96,0.65621
5842.17,0.65537
5836.38,0.65465
5830.6,0.65318
5824.81,0.64997
5819.02,0.64699
5813.24,0.64220
5807.45,0.64220
5801.67,0.64351
5795.88,0.64371
5790.09,0.64725
5784.31,0.64711
5778.52,0.64869
5772.73,0.65123
5766.95,0.65286
5761.16,0.65514
5755.38,0.65868
5749.59,0.65710
5743.8,0.65889
5738.02,0.65831
5732.23,0.65655
5726.44,0.65912
5720.66,0.65989
5714.87,0.66095
5709.09,0.65775
5703.3,0.65936
5697.51,0.65801
5691.73,0.65879
5685.94,0.65648
5680.15,0.65736
5674.37,0.65659
5668.58,0.65609
5662.8,0.65701
5657.01,0.65764
5651.22,0.65815
5645.44,0.65808
5639.65,0.65796
5633.87,0.65988
5628.08,0.65949
5622.29,0.66025
5616.51,0.66056
5610.72,0.66021
5604.93,0.65856
5599.15,0.66132
5593.36,0.65961
5587.58,0.65985
5581.79,0.66086
5576,0.65899
5570.22,0.65959
5564.43,0.66091
5558.64,0.66258
5552.86,0.66363
5547.07,0.66349
5541.29,0.66288
5535.5,0.66292
5529.71,0.66347
5523.93,0.66568
5518.14,0.66531
5512.35,0.66661
5506.57,0.66573
5500.78,0.66631
5495,0.66657
5489.21,0.66837
5483.42,0.66793
5477.64,0.66877
5471.85,0.67011
5466.06,0.67074
5460.28,0.67130
5454.49,0.67298
5448.71,0.67310
5442.92,0.67357
5437.13,0.67568
5431.35,0.67691
5425.56,0.67801
5419.77,0.68000
5413.99,0.68069
5408.2,0.67976
5402.42,0.68106
5396.63,0.68128
5390.84,0.68054
5385.06,0.68194
5379.27,0.67997
5373.48,0.68144
5367.7,0.68038
5361.91,0.68003
5356.13,0.67890
5350.34,0.67856
5344.55,0.67735
5338.77,0.67625
5332.98,0.67524
5327.19,0.67039
5321.41,0.66651
5315.62,0.66218
5309.84,0.65755
5304.05,0.65271
5298.26,0.64604
5292.48,0.63746
5286.69,0.62655
5280.9,0.61836
5275.12,0.60610
5269.33,0.59569
5263.55,0.58461
5257.76,0.57305
5251.97,0.56344
5246.19,0.55718
5240.4,0.54922
5234.61,0.54247
5228.83,0.53548
5223.04,0.53181
5217.26,0.52889
5211.47,0.52707
5205.68,0.52636
5199.9,0.52544
5194.11,0.52387
5188.32,0.52579
5182.54,0.52752
5176.75,0.52927
5170.97,0.52993
5165.18,0.53470
5159.39,0.53787
5153.61,0.54014
5147.82,0.54400
5142.03,0.54652
5136.25,0.54881
5130.46,0.55218
5124.68,0.55794
5118.89,0.55977
5113.1,0.56253
5107.32,0.56520
5101.53,0.56886
5095.75,0.57039
5089.96,0.57428
5084.17,0.57744
5078.39,0.57863
5072.6,0.58126
5066.81,0.58445
5061.03,0.58685
5055.24,0.58928
5049.46,0.59035
5043.67,0.59272
5037.88,0.59541
5032.1,0.59679
5026.31,0.59870
5020.52,0.60039
5014.74,0.60110
5008.95,0.60038
5003.17,0.60180
4997.38,0.60255
4991.59,0.60158
4985.81,0.59987
4980.02,0.59942
4974.23,0.59886
4968.45,0.59445
4962.66,0.59133
4956.88,0.58884
4951.09,0.58487
4945.3,0.58141
4939.52,0.57607
4933.73,0.57102
4927.94,0.56530
4922.16,0.56001
4916.37,0.55539
4910.59,0.55009
4904.8,0.54416
4899.01,0.54017
4893.23,0.53445
4887.44,0.52912
4881.65,0.52433
4875.87,0.51941
4870.08,0.51404
4864.3,0.51059
4858.51,0.50622
4852.72,0.50115
4846.94,0.49779
4841.15,0.49415
4835.36,0.49143
4829.58,0.48778
4823.79,0.48415
4818.01,0.48009
4812.22,0.47906
4806.43,0.47733
4800.65,0.47481
4794.86,0.47316
4789.07,0.47190
4783.29,0.47093
4777.5,0.47183
4771.72,0.46992
4765.93,0.46928
4760.14,0.46789
4754.36,0.46773
4748.57,0.46815
4742.78,0.46773
4737,0.46855
4731.21,0.46927
4725.43,0.46939
4719.64,0.47052
4713.85,0.47100
4708.07,0.47252
4702.28,0.47247
4696.49,0.47382
4690.71,0.47517
4684.92,0.47663
4679.14,0.47919
4673.35,0.48158
4667.56,0.48490
4661.78,0.48682
4655.99,0.48889
4650.2,0.49156
4644.42,0.49442
4638.63,0.49694
4632.85,0.49940
4627.06,0.50095
4621.27,0.50388
4615.49,0.50549
4609.7,0.50755
4603.92,0.51046
4598.13,0.51196
4592.34,0.51427
4586.56,0.51546
4580.77,0.51795
4574.98,0.51959
4569.2,0.52112
4563.41,0.52168
4557.63,0.52331
4551.84,0.52351
4546.05,0.52560
4540.27,0.52617
4534.48,0.52644
4528.69,0.52807
4522.91,0.52799
4517.12,0.52828
4511.34,0.52692
4505.55,0.52458
4499.76,0.52221
4493.98,0.51784
4488.19,0.51362
4482.4,0.50806
4476.62,0.50102
4470.83,0.49424
4465.05,0.48574
4459.26,0.47604
4453.47,0.46763
4447.69,0.45798
4441.9,0.44992
4436.11,0.44204
4430.33,0.43639
4424.54,0.43012
4418.76,0.42459
4412.97,0.42106
4407.18,0.41942
4401.4,0.41799
4395.61,0.41699
4389.82,0.41901
4384.04,0.42011
4378.25,0.42183
4372.47,0.42380
4366.68,0.42575
4360.89,0.42659
4355.11,0.42530
4349.32,0.42337
4343.53,0.42167
4337.75,0.41960
4331.96,0.41808
4326.18,0.41662
4320.39,0.41581
4314.6,0.41423
4308.82,0.41284
4303.03,0.41027
4297.24,0.40875
4291.46,0.40711
4285.67,0.40539
4279.89,0.40368
4274.1,0.40405
4268.31,0.40410
4262.53,0.40529
4256.74,0.40604
4250.95,0.40760
4245.17,0.40869
4239.38,0.41013
4233.6,0.41125
4227.81,0.41175
4222.02,0.41224
4216.24,0.41332
4210.45,0.41403
4204.66,0.41445
4198.88,0.41602
4193.09,0.41644
4187.31,0.41733
4181.52,0.41877
4175.73,0.41952
4169.95,0.42141
4164.16,0.42249
4158.37,0.42289
4152.59,0.42129
4146.8,0.42030
4141.02,0.41827
4135.23,0.41563
4129.44,0.41253
4123.66,0.40903
4117.87,0.40559
4112.09,0.40128
4106.3,0.39708
4100.51,0.39270
4094.73,0.38717
4088.94,0.38255
4083.15,0.37662
4077.37,0.37046
4071.58,0.36544
4065.8,0.36028
4060.01,0.35524
4054.22,0.34974
4048.44,0.34476
4042.65,0.34063
4036.86,0.33640
4031.08,0.33363
4025.29,0.33096
4019.51,0.33008
4013.72,0.32973
4007.93,0.33052
4002.15,0.33263
3996.36,0.33283
3990.57,0.33606
3984.79,0.33722
3979,0.33857
3973.22,0.34023
3967.43,0.34338
3961.64,0.34598
3955.86,0.34901
3950.07,0.35181
3944.28,0.35541
3938.5,0.35812
3932.71,0.36096
3926.93,0.36444
3921.14,0.36687
3915.35,0.36914
3909.57,0.37232
3903.78,0.37509
3897.99,0.37714
3892.21,0.38006
3886.42,0.38205
3880.64,0.38395
3874.85,0.38659
3869.06,0.38945
3863.28,0.39306
3857.49,0.39547
3851.7,0.39912
3845.92,0.40136
3840.13,0.40470
3834.35,0.40575
3828.56,0.40678
3822.77,0.40789
3816.99,0.40807
3811.2,0.40806
3805.41,0.40863
3799.63,0.40800
3793.84,0.40782
3788.06,0.40685
3782.27,0.40613
3776.48,0.40505
3770.7,0.40419
3764.91,0.40263
3759.12,0.40031
3753.34,0.39821
3747.55,0.39537
3741.77,0.39301
3735.98,0.38924
3730.19,0.38518
3724.41,0.38054
3718.62,0.37434
3712.83,0.36742
3707.05,0.35920
3701.26,0.34925
3695.48,0.33660
3689.69,0.32230
3683.9,0.30449
3678.12,0.28583
3672.33,0.26487
3666.54,0.24463
3660.76,0.22565
3654.97,0.20712
3649.19,0.19181
3643.4,0.17692
3637.61,0.16447
3631.83,0.15261
3626.04,0.14062
3620.25,0.13132
3614.47,0.12155
3608.68,0.11302
3602.9,0.10534
3597.11,0.09774
3591.32,0.09134
3585.54,0.08558
3579.75,0.07981
3573.97,0.07504
3568.18,0.07097
3562.39,0.06745
3556.61,0.06338
3550.82,0.06081
3545.03,0.05771
3539.25,0.05586
3533.46,0.05335
3527.68,0.05216
3521.89,0.05007
3516.1,0.04768
3510.32,0.04653
3504.53,0.04533
3498.74,0.04409
3492.96,0.04289
3487.17,0.04181
3481.39,0.04079
3475.6,0.03987
3469.81,0.03991
3464.03,0.03937
3458.24,0.03885
3452.45,0.03864
3446.67,0.03811
3440.88,0.03813
3435.1,0.03767
3429.31,0.03714
3423.52,0.03762
3417.74,0.03737
3411.95,0.03709
3406.16,0.03711
3400.38,0.03703
3394.59,0.03755
3388.81,0.03693
3383.02,0.03816
3377.23,0.03720
3371.45,0.03732
3365.66,0.03779
3359.87,0.03784
3354.09,0.03800
3348.3,0.03807
3342.52,0.03903
3336.73,0.03950
3330.94,0.03908
3325.16,0.04077
3319.37,0.04076
3313.58,0.04231
3307.8,0.04265
3302.01,0.04231
3296.23,0.04366
3290.44,0.04449
3284.65,0.04509
3278.87,0.04614
3273.08,0.04739
3267.29,0.04917
3261.51,0.05086
3255.72,0.05272
3249.94,0.05367
3244.15,0.05606
3238.36,0.05740
3232.58,0.05914
3226.79,0.06084
3221,0.06225
3215.22,0.06430
3209.43,0.06686
3203.65,0.06964
3197.86,0.07101
3192.07,0.07385
3186.29,0.07511
3180.5,0.07829
3174.71,0.08020
3168.93,0.08190
3163.14,0.08452
3157.36,0.08731
3151.57,0.09016
3145.78,0.09205
3140,0.09382
3134.21,0.09724
3128.42,0.09897
3122.64,0.10145
3116.85,0.10335
3111.07,0.10625
3105.28,0.10832
3099.49,0.11108
3093.71,0.11326
3087.92,0.11453
3082.14,0.11615
3076.35,0.11871
3070.56,0.12074
3064.78,0.12279
3058.99,0.12397
3053.2,0.12635
3047.42,0.12754
3041.63,0.12853
3035.85,0.12871
3030.06,0.12843
3024.27,0.12652
3018.49,0.12425
3012.7,0.12054
3006.91,0.11646
3001.13,0.11287
2995.34,0.11058
2989.56,0.10654
2983.77,0.10062
2977.98,0.09292
2972.2,0.08475
2966.41,0.07889
2960.62,0.07527
2954.84,0.07158
2949.05,0.06829
2943.27,0.06511
2937.48,0.06313
2931.69,0.06241
2925.91,0.06198
2920.12,0.06188
2914.33,0.06325
2908.55,0.06415
2902.76,0.06459
2896.98,0.06606
2891.19,0.06809
2885.4,0.07009
2879.62,0.07196
2873.83,0.07249
2868.04,0.07367
2862.26,0.07518
2856.47,0.07560
2850.69,0.07913
2844.9,0.08581
2839.11,0.09360
2833.33,0.10205
2827.54,0.11102
2821.75,0.11853
2815.97,0.12566
2810.18,0.13105
2804.4,0.13596
2798.61,0.13910
2792.82,0.14304
2787.04,0.14518
2781.25,0.14727
2775.46,0.14916
2769.68,0.15033
2763.89,0.15191
2758.11,0.15273
2752.32,0.15358
2746.53,0.15421
2740.75,0.15445
2734.96,0.15481
2729.17,0.15595
2723.39,0.15777
2717.6,0.15991
2711.82,0.16241
2706.03,0.16506
2700.24,0.16814
2694.46,0.17038
2688.67,0.17253
2682.88,0.17477
2677.1,0.17681
2671.31,0.17918
2665.53,0.18057
2659.74,0.18176
2653.95,0.18317
2648.17,0.18462
2642.38,0.18659
2636.59,0.18904
2630.81,0.19165
2625.02,0.19342
2619.24,0.19553
2613.45,0.19752
2607.66,0.19942
2601.88,0.20102
2596.09,0.20256
2590.3,0.20422
2584.52,0.20504
2578.73,0.20650
2572.95,0.20715
2567.16,0.20773
2561.37,0.20795
2555.59,0.20850
2549.8,0.20938
2544.02,0.20961
2538.23,0.21081
2532.44,0.21214
2526.66,0.21367
2520.87,0.21496
2515.08,0.21593
2509.3,0.21779
2503.51,0.22119
2497.73,0.22336
2491.94,0.22562
2486.15,0.22856
2480.37,0.23080
2474.58,0.23246
2468.79,0.23453
2463.01,0.23593
2457.22,0.23802
2451.44,0.23996
2445.65,0.24250
2439.86,0.24559
2434.08,0.24848
2428.29,0.25055
2422.5,0.25385
2416.72,0.25717
2410.93,0.26025
2405.15,0.26362
2399.36,0.26670
2393.57,0.26936
2387.79,0.27145
2382,0.27383
2376.21,0.27584
2370.43,0.27827
2364.64,0.28020
2358.86,0.28211
2353.07,0.28435
2347.28,0.28662
2341.5,0.28859
2335.71,0.29006
2329.92,0.29110
2324.14,0.29196
2318.35,0.29266
2312.57,0.29295
2306.78,0.29249
2300.99,0.29162
2295.21,0.29056
2289.42,0.29060
2283.63,0.29039
2277.85,0.28986
2272.06,0.28840
2266.28,0.28607
2260.49,0.28369
2254.7,0.28136
2248.92,0.27980
2243.13,0.27868
2237.34,0.27828
2231.56,0.27863
2225.77,0.27905
2219.99,0.27949
2214.2,0.27987
2208.41,0.27948
2202.63,0.27789
2196.84,0.27588
2191.05,0.27293
2185.27,0.26845
2179.48,0.26398
2173.7,0.25898
2167.91,0.25467
2162.12,0.25092
2156.34,0.24794
2150.55,0.24557
2144.76,0.24426
2138.98,0.24325
2133.19,0.24293
2127.41,0.24322
2121.62,0.24434
2115.83,0.24586
2110.05,0.24737
2104.26,0.24903
2098.47,0.25130
2092.69,0.25273
2086.9,0.25390
2081.12,0.25389
2075.33,0.25436
2069.54,0.25390
2063.76,0.25359
2057.97,0.25382
2052.19,0.25441
2046.4,0.25503
2040.61,0.25654
2034.83,0.25853
2029.04,0.26154
2023.25,0.26490
2017.47,0.26831
2011.68,0.27222
2005.9,0.27530
2000.11,0.27783
1994.32,0.27996
1988.54,0.28176
1982.75,0.28257
1976.96,0.28276
1971.18,0.28237
1965.39,0.28131
1959.61,0.28074
1953.82,0.28111
1948.03,0.28289
1942.25,0.28604
1936.46,0.28909
1930.67,0.29255
1924.89,0.29536
1919.1,0.29774
1913.32,0.29872
1907.53,0.29918
1901.74,0.29970
1895.96,0.29970
1890.17,0.29899
1884.38,0.29812
1878.6,0.29639
1872.81,0.29502
1867.03,0.29253
1861.24,0.29013
1855.45,0.28623
1849.67,0.28216
1843.88,0.27765
1838.09,0.27276
1832.31,0.26685
1826.52,0.25975
1820.74,0.25185
1814.95,0.24264
1809.16,0.23213
1803.38,0.21962
1797.59,0.20575
1791.8,0.19098
1786.02,0.17398
1780.23,0.15373
1774.45,0.12964
1768.66,0.10063
1762.87,0.07783
1757.09,0.06153
1751.3,0.05244
1745.51,0.04734
1739.73,0.04702
1733.94,0.05050
1728.16,0.05456
1722.37,0.06008
1716.58,0.06652
1710.8,0.07409
1705.01,0.08396
1699.22,0.09356
1693.44,0.09924
1687.65,0.10037
1681.87,0.09710
1676.08,0.09100
1670.29,0.08575
1664.51,0.08277
1658.72,0.08094
1652.93,0.08053
1647.15,0.08158
1641.36,0.08081
1635.58,0.08063
1629.79,0.08020
1624,0.07925
1618.22,0.07818
1612.43,0.07597
1606.64,0.07063
1600.86,0.06589
1595.07,0.06215
1589.29,0.06673
1583.5,0.07989
1577.71,0.09555
1571.93,0.10994
1566.14,0.11893
1560.35,0.12288
1554.57,0.12418
1548.78,0.12357
1543,0.12198
1537.21,0.11776
1531.42,0.11031
1525.64,0.09803
1519.85,0.07965
1514.07,0.06560
1508.28,0.05895
1502.49,0.05902
1496.71,0.06618
1490.92,0.07318
1485.13,0.07460
1479.35,0.06740
1473.56,0.05618
1467.78,0.04666
1461.99,0.04457
1456.2,0.04629
1450.42,0.04760
1444.63,0.04851
1438.84,0.04766
1433.06,0.04444
1427.27,0.04391
1421.49,0.04579
1415.7,0.04833
1409.91,0.05059
1404.13,0.05124
1398.34,0.05003
1392.55,0.04791
1386.77,0.04398
1380.98,0.04051
1375.2,0.04002
1369.41,0.04124
1363.62,0.04291
1357.84,0.04532
1352.05,0.04656
1346.26,0.04550
1340.48,0.04371
1334.69,0.04262
1328.91,0.04279
1323.12,0.04325
1317.33,0.04394
1311.55,0.04593
1305.76,0.04781
1299.97,0.04866
1294.19,0.04707
1288.4,0.04403
1282.62,0.04143
1276.83,0.03980
1271.04,0.03839
1265.26,0.03706
1259.47,0.03677
1253.68,0.03593
1247.9,0.03612
1242.11,0.03670
1236.33,0.03750
1230.54,0.03891
1224.75,0.04055
1218.97,0.04212
1213.18,0.04400
1207.39,0.04552
1201.61,0.04600
1195.82,0.04593
1190.04,0.04411
1184.25,0.04037
1178.46,0.03774
1172.68,0.03500
1166.89,0.03477
1161.1,0.03609
1155.32,0.03714
1149.53,0.03674
1143.75,0.03490
1137.96,0.03263
1132.17,0.03083
1126.39,0.03194
1120.6,0.03271
1114.81,0.03381
1109.03,0.03466
1103.24,0.03567
1097.46,0.03524
1091.67,0.03440
1085.88,0.03472
1080.1,0.03586
1074.31,0.03745
1068.52,0.03990
1062.74,0.04442
1056.95,0.04846
1051.17,0.05015
1045.38,0.04973
1039.59,0.05053
1033.81,0.05375
1028.02,0.05549
1022.24,0.05683
1016.45,0.05757
1010.66,0.06044
1004.88,0.06103
999.09,0.06300
993.304,0.06523
987.518,0.06876
981.731,0.07622
975.945,0.08341
970.159,0.08730
964.373,0.09161
958.586,0.09878
952.8,0.10792
947.014,0.11404
941.228,0.11626
935.441,0.11548
929.655,0.11453
923.869,0.11347
918.083,0.11125
912.297,0.10792
906.51,0.10185
900.724,0.09578
894.938,0.09728
889.152,0.10670
883.365,0.11334
877.579,0.11663
871.793,0.11845
866.007,0.12148
860.22,0.12372
854.434,0.12228
848.648,0.12100
842.862,0.11853
837.075,0.11386
831.289,0.11344
825.503,0.11515
819.717,0.11649
813.931,0.11738
808.144,0.11698
802.358,0.11738
796.572,0.11753
790.786,0.11625
784.999,0.11423
779.213,0.11119
773.427,0.10750
767.641,0.10417
761.854,0.09968
756.068,0.09583
750.282,0.09213
744.496,0.08954
738.709,0.08622
732.923,0.08233
727.137,0.07912
721.351,0.07642
715.565,0.07447
709.778,0.07365
703.992,0.07238
698.206,0.07222
692.42,0.07241
686.633,0.07077
680.847,0.06711
675.061,0.06507
669.275,0.06277
663.488,0.06219
657.702,0.06370
651.916,0.06473
646.13,0.06267
640.343,0.06037
634.557,0.05915
628.771,0.05761
622.985,0.05690
617.198,0.05442
611.412,0.05738
605.626,0.06032
599.84,0.06104