File: 01_Data/Basswood_Panel/FTIR/IS/Basswood_Panel_IS_S_220928_R8.dpt
7497.03,0.85897
7491.25,0.85239
7485.46,0.83890
7479.67,0.83758
7473.89,0.84176
7468.1,0.83906
7462.32,0.84150
7456.53,0.82362
7450.74,0.83138
7444.96,0.82512
7439.17,0.82313
7433.38,0.82686
7427.6,0.82345
7421.81,0.81380
7416.03,0.81232
7410.24,0.81176
7404.45,0.80149
7398.67,0.80581
7392.88,0.80328
7387.09,0.79670
7381.31,0.80399
7375.52,0.80116
7369.74,0.78516
7363.95,0.79008
7358.16,0.79695
7352.38,0.79032
7346.59,0.78525
7340.8,0.78664
7335.02,0.78429
7329.23,0.78381
7323.45,0.78400
7317.66,0.78338
7311.87,0.77941
7306.09,0.77705
7300.3,0.78262
7294.51,0.78540
7288.73,0.77374
7282.94,0.77463
7277.16,0.77940
7271.37,0.77930
7265.58,0.77567
7259.8,0.77174
7254.01,0.77480
7248.22,0.77704
7242.44,0.77782
7236.65,0.76805
7230.87,0.76729
7225.08,0.76613
7219.29,0.77429
7213.51,0.76628
7207.72,0.76569
7201.93,0.76159
7196.15,0.76802
7190.36,0.76513
7184.58,0.76730
7178.79,0.76461
7173,0.76071
7167.22,0.74983
7161.43,0.75333
7155.65,0.74787
7149.86,0.74719
7144.07,0.74634
7138.29,0.74738
7132.5,0.73700
7126.71,0.74021
7120.93,0.73285
7115.14,0.73148
7109.36,0.72144
7103.57,0.71527
7097.78,0.71084
7092,0.71371
7086.21,0.71279
7080.42,0.69740
7074.64,0.69832
7068.85,0.69017
7063.07,0.68854
7057.28,0.68334
7051.49,0.67544
7045.71,0.67280
7039.92,0.66288
7034.13,0.65956
7028.35,0.66172
7022.56,0.65495
7016.78,0.64288
7010.99,0.64866
7005.2,0.63858
6999.42,0.63945
6993.63,0.64199
6987.84,0.64178
6982.06,0.63253
6976.27,0.62981
6970.49,0.63107
6964.7,0.63047
6958.91,0.62540
6953.13,0.62374
6947.34,0.62294
6941.55,0.62640
6935.77,0.62106
6929.98,0.62235
6924.2,0.62619
6918.41,0.62349
6912.62,0.61912
6906.84,0.62043
6901.05,0.62201
6895.26,0.62070
6889.48,0.62166
6883.69,0.62236
6877.91,0.62128
6872.12,0.62468
6866.33,0.62253
6860.55,0.62123
6854.76,0.62168
6848.97,0.62196
6843.19,0.62635
6837.4,0.61646
6831.62,0.61987
6825.83,0.62398
6820.04,0.62251
6814.26,0.62115
6808.47,0.61637
6802.68,0.61469
6796.9,0.62225
6791.11,0.61587
6785.33,0.62670
6779.54,0.62081
6773.75,0.62346
6767.97,0.62230
6762.18,0.62476
6756.39,0.61646
6750.61,0.62265
6744.82,0.62509
6739.04,0.62426
6733.25,0.62491
6727.46,0.62082
6721.68,0.62339
6715.89,0.61964
6710.1,0.62436
6704.32,0.62299
6698.53,0.62367
6692.75,0.62501
6686.96,0.62083
6681.17,0.62568
6675.39,0.62564
6669.6,0.62673
6663.82,0.62985
6658.03,0.62772
6652.24,0.62844
6646.46,0.63161
6640.67,0.63089
6634.88,0.63291
6629.1,0.63399
6623.31,0.63489
6617.53,0.63756
6611.74,0.63606
6605.95,0.63217
6600.17,0.63546
6594.38,0.63997
6588.59,0.64041
6582.81,0.63988
6577.02,0.64414
6571.24,0.63731
6565.45,0.63925
6559.66,0.64277
6553.88,0.64493
6548.09,0.64689
6542.3,0.64669
6536.52,0.64368
6530.73,0.64995
6524.95,0.64866
6519.16,0.65066
6513.37,0.65311
6507.59,0.65046
6501.8,0.65155
6496.01,0.65575
6490.23,0.65029
6484.44,0.64989
6478.66,0.65105
6472.87,0.65345
6467.08,0.65130
6461.3,0.65061
6455.51,0.64971
6449.72,0.65014
6443.94,0.65386
6438.15,0.65474
6432.37,0.65555
6426.58,0.65246
6420.79,0.64902
6415.01,0.65491
6409.22,0.65417
6403.43,0.65928
6397.65,0.65863
6391.86,0.65910
6386.08,0.65860
6380.29,0.65649
6374.5,0.65805
6368.72,0.65725
6362.93,0.65834
6357.14,0.66154
6351.36,0.65889
6345.57,0.66012
6339.79,0.65949
6334,0.66239
6328.21,0.66371
6322.43,0.66748
6316.64,0.66137
6310.85,0.66528
6305.07,0.66461
6299.28,0.66667
6293.5,0.66767
6287.71,0.66898
6281.92,0.66809
6276.14,0.66709
6270.35,0.67301
6264.56,0.67148
6258.78,0.67249
6252.99,0.67602
6247.21,0.67820
6241.42,0.68075
6235.63,0.68135
6229.85,0.68511
6224.06,0.68523
6218.27,0.68946
6212.49,0.68967
6206.7,0.68965
6200.92,0.69014
6195.13,0.69035
6189.34,0.68985
6183.56,0.69230
6177.77,0.69304
6171.98,0.69745
6166.2,0.69892
6160.41,0.70030
6154.63,0.69698
6148.84,0.70111
6143.05,0.69892
6137.27,0.70287
6131.48,0.70187
6125.7,0.70375
6119.91,0.70710
6114.12,0.70677
6108.34,0.70589
6102.55,0.70851
6096.76,0.70709
6090.98,0.70589
6085.19,0.70953
6079.41,0.70753
6073.62,0.70624
6067.83,0.70274
6062.05,0.70323
6056.26,0.70299
6050.47,0.70284
6044.69,0.70289
6038.9,0.70054
6033.12,0.69929
6027.33,0.69585
6021.54,0.69416
6015.76,0.69383
6009.97,0.69469
6004.18,0.69230
5998.4,0.69189
5992.61,0.68818
5986.83,0.68559
5981.04,0.68624
5975.25,0.68469
5969.47,0.68255
5963.68,0.68146
5957.89,0.68094
5952.11,0.67719
5946.32,0.67750
5940.54,0.67839
5934.75,0.67699
5928.96,0.67704
5923.18,0.67658
5917.39,0.67452
5911.6,0.67276
5905.82,0.67581
5900.03,0.67320
5894.25,0.67034
5888.46,0.66826
5882.67,0.67061
5876.89,0.66662
5871.1,0.66536
5865.31,0.66222
5859.53,0.66196
5853.74,0.66035
5847.96,0.66077
5842.17,0.65905
5836.38,0.65585
5830.6,0.65401
5824.81,0.65273
5819.02,0.65021
5813.24,0.64958
5807.45,0.64978
5801.67,0.64730
5795.88,0.64965
5790.09,0.65058
5784.31,0.64882
5778.52,0.65140
5772.73,0.65582
5766.95,0.65914
5761.16,0.66264
5755.38,0.66077
5749.59,0.66388
5743.8,0.66289
5738.02,0.66526
5732.23,0.66411
5726.44,0.66469
5720.66,0.66234
5714.87,0.66595
5709.09,0.66372
5703.3,0.66553
5697.51,0.66304
5691.73,0.66187
5685.94,0.66277
5680.15,0.65970
5674.37,0.66172
5668.58,0.66264
5662.8,0.66389
5657.01,0.66411
5651.22,0.66337
5645.44,0.66449
5639.65,0.66467
5633.87,0.66533
5628.08,0.66697
5622.29,0.66570
5616.51,0.66544
5610.72,0.66550
5604.93,0.66411
5599.15,0.66432
5593.36,0.66503
5587.58,0.66692
5581.79,0.66730
5576,0.66785
5570.22,0.66831
5564.43,0.66949
5558.64,0.66959
5552.86,0.66974
5547.07,0.67037
5541.29,0.67027
5535.5,0.67016
5529.71,0.67231
5523.93,0.67155
5518.14,0.67134
5512.35,0.67200
5506.57,0.67147
5500.78,0.67467
5495,0.67463
5489.21,0.67555
5483.42,0.67454
5477.64,0.67621
5471.85,0.67549
5466.06,0.67584
5460.28,0.67660
5454.49,0.67777
5448.71,0.67963
5442.92,0.68104
5437.13,0.68275
5431.35,0.68335
5425.56,0.68416
5419.77,0.68418
5413.99,0.68598
5408.2,0.68693
5402.42,0.68896
5396.63,0.68840
5390.84,0.68782
5385.06,0.68794
5379.27,0.68783
5373.48,0.68841
5367.7,0.68885
5361.91,0.68774
5356.13,0.68878
5350.34,0.68809
5344.55,0.68561
5338.77,0.68398
5332.98,0.68292
5327.19,0.68101
5321.41,0.67899
5315.62,0.67399
5309.84,0.66941
5304.05,0.66505
5298.26,0.65785
5292.48,0.64952
5286.69,0.64334
5280.9,0.63436
5275.12,0.62395
5269.33,0.61270
5263.55,0.60476
5257.76,0.59467
5251.97,0.58428
5246.19,0.57790
5240.4,0.57070
5234.61,0.56576
5228.83,0.55876
5223.04,0.55486
5217.26,0.55250
5211.47,0.55141
5205.68,0.54923
5199.9,0.54756
5194.11,0.54890
5188.32,0.54813
5182.54,0.54987
5176.75,0.55360
5170.97,0.55377
5165.18,0.55683
5159.39,0.55940
5153.61,0.56269
5147.82,0.56658
5142.03,0.56694
5136.25,0.57129
5130.46,0.57526
5124.68,0.57942
5118.89,0.58088
5113.1,0.58156
5107.32,0.58545
5101.53,0.58857
5095.75,0.59185
5089.96,0.59254
5084.17,0.59519
5078.39,0.59920
5072.6,0.60136
5066.81,0.60225
5061.03,0.60547
5055.24,0.60821
5049.46,0.60942
5043.67,0.61171
5037.88,0.61353
5032.1,0.61385
5026.31,0.61484
5020.52,0.61540
5014.74,0.61662
5008.95,0.61675
5003.17,0.61676
4997.38,0.61557
4991.59,0.61467
4985.81,0.61467
4980.02,0.61101
4974.23,0.60977
4968.45,0.60639
4962.66,0.60361
4956.88,0.59889
4951.09,0.59349
4945.3,0.59008
4939.52,0.58415
4933.73,0.57801
4927.94,0.57402
4922.16,0.56682
4916.37,0.56044
4910.59,0.55560
4904.8,0.55019
4899.01,0.54456
4893.23,0.53893
4887.44,0.53370
4881.65,0.52799
4875.87,0.52354
4870.08,0.51783
4864.3,0.51419
4858.51,0.50995
4852.72,0.50662
4846.94,0.50237
4841.15,0.49833
4835.36,0.49430
4829.58,0.49151
4823.79,0.48802
4818.01,0.48593
4812.22,0.48273
4806.43,0.48015
4800.65,0.47761
4794.86,0.47685
4789.07,0.47575
4783.29,0.47489
4777.5,0.47369
4771.72,0.47379
4765.93,0.47284
4760.14,0.47102
4754.36,0.47127
4748.57,0.47098
4742.78,0.47113
4737,0.47239
4731.21,0.47330
4725.43,0.47473
4719.64,0.47378
4713.85,0.47626
4708.07,0.47649
4702.28,0.47631
4696.49,0.47869
4690.71,0.47924
4684.92,0.48111
4679.14,0.48299
4673.35,0.48478
4667.56,0.48817
4661.78,0.49053
4655.99,0.49322
4650.2,0.49607
4644.42,0.49887
4638.63,0.50128
4632.85,0.50322
4627.06,0.50562
4621.27,0.50824
4615.49,0.51089
4609.7,0.51245
4603.92,0.51564
4598.13,0.51769
4592.34,0.51901
4586.56,0.52111
4580.77,0.52302
4574.98,0.52411
4569.2,0.52496
4563.41,0.52653
4557.63,0.52780
4551.84,0.52883
4546.05,0.53017
4540.27,0.53088
4534.48,0.53250
4528.69,0.53331
4522.91,0.53245
4517.12,0.53163
4511.34,0.53084
4505.55,0.52928
4499.76,0.52612
4493.98,0.52291
4488.19,0.51818
4482.4,0.51232
4476.62,0.50465
4470.83,0.49791
4465.05,0.48846
4459.26,0.48070
4453.47,0.47083
4447.69,0.46227
4441.9,0.45294
4436.11,0.44496
4430.33,0.43921
4424.54,0.43314
4418.76,0.42845
4412.97,0.42485
4407.18,0.42213
4401.4,0.42012
4395.61,0.42066
4389.82,0.42186
4384.04,0.42312
4378.25,0.42531
4372.47,0.42750
4366.68,0.42961
4360.89,0.42898
4355.11,0.42825
4349.32,0.42631
4343.53,0.42444
4337.75,0.42313
4331.96,0.42133
4326.18,0.42077
4320.39,0.41906
4314.6,0.41735
4308.82,0.41560
4303.03,0.41287
4297.24,0.41122
4291.46,0.41006
4285.67,0.40953
4279.89,0.40685
4274.1,0.40679
4268.31,0.40813
4262.53,0.40817
4256.74,0.40927
4250.95,0.41082
4245.17,0.41182
4239.38,0.41366
4233.6,0.41454
4227.81,0.41550
4222.02,0.41640
4216.24,0.41728
4210.45,0.41824
4204.66,0.41970
4198.88,0.42047
4193.09,0.42076
4187.31,0.42122
4181.52,0.42194
4175.73,0.42333
4169.95,0.42571
4164.16,0.42682
4158.37,0.42650
4152.59,0.42592
4146.8,0.42447
4141.02,0.42278
4135.23,0.42052
4129.44,0.41714
4123.66,0.41424
4117.87,0.41030
4112.09,0.40602
4106.3,0.40133
4100.51,0.39685
4094.73,0.39191
4088.94,0.38655
4083.15,0.38069
4077.37,0.37510
4071.58,0.37034
4065.8,0.36416
4060.01,0.35931
4054.22,0.35405
4048.44,0.34791
4042.65,0.34391
4036.86,0.34041
4031.08,0.33698
4025.29,0.33492
4019.51,0.33336
4013.72,0.33317
4007.93,0.33471
4002.15,0.33649
3996.36,0.33782
3990.57,0.33895
3984.79,0.34066
3979,0.34244
3973.22,0.34495
3967.43,0.34699
3961.64,0.34995
3955.86,0.35370
3950.07,0.35596
3944.28,0.35929
3938.5,0.36263
3932.71,0.36580
3926.93,0.36834
3921.14,0.37172
3915.35,0.37480
3909.57,0.37751
3903.78,0.38038
3897.99,0.38267
3892.21,0.38573
3886.42,0.38828
3880.64,0.38975
3874.85,0.39229
3869.06,0.39521
3863.28,0.39909
3857.49,0.40221
3851.7,0.40597
3845.92,0.40783
3840.13,0.41107
3834.35,0.41315
3828.56,0.41427
3822.77,0.41453
3816.99,0.41607
3811.2,0.41551
3805.41,0.41596
3799.63,0.41648
3793.84,0.41624
3788.06,0.41592
3782.27,0.41596
3776.48,0.41509
3770.7,0.41342
3764.91,0.41260
3759.12,0.41056
3753.34,0.40906
3747.55,0.40692
3741.77,0.40405
3735.98,0.40127
3730.19,0.39741
3724.41,0.39332
3718.62,0.38736
3712.83,0.38142
3707.05,0.37333
3701.26,0.36310
3695.48,0.35277
3689.69,0.33868
3683.9,0.32200
3678.12,0.30458
3672.33,0.28368
3666.54,0.26388
3660.76,0.24504
3654.97,0.22695
3649.19,0.21045
3643.4,0.19466
3637.61,0.18123
3631.83,0.16840
3626.04,0.15529
3620.25,0.14460
3614.47,0.13355
3608.68,0.12345
3602.9,0.11468
3597.11,0.10558
3591.32,0.09796
3585.54,0.09038
3579.75,0.08475
3573.97,0.07963
3568.18,0.07457
3562.39,0.06978
3556.61,0.06598
3550.82,0.06275
3545.03,0.05998
3539.25,0.05682
3533.46,0.05502
3527.68,0.05220
3521.89,0.05005
3516.1,0.04873
3510.32,0.04733
3504.53,0.04591
3498.74,0.04513
3492.96,0.04294
3487.17,0.04263
3481.39,0.04093
3475.6,0.04036
3469.81,0.03945
3464.03,0.03925
3458.24,0.03886
3452.45,0.03838
3446.67,0.03801
3440.88,0.03751
3435.1,0.03737
3429.31,0.03743
3423.52,0.03793
3417.74,0.03733
3411.95,0.03765
3406.16,0.03782
3400.38,0.03784
3394.59,0.03747
3388.81,0.03747
3383.02,0.03748
3377.23,0.03808
3371.45,0.03772
3365.66,0.03760
3359.87,0.03744
3354.09,0.03795
3348.3,0.03909
3342.52,0.03877
3336.73,0.03917
3330.94,0.04022
3325.16,0.04069
3319.37,0.04131
3313.58,0.04294
3307.8,0.04334
3302.01,0.04330
3296.23,0.04347
3290.44,0.04505
3284.65,0.04581
3278.87,0.04659
3273.08,0.04851
3267.29,0.04940
3261.51,0.05131
3255.72,0.05332
3249.94,0.05535
3244.15,0.05691
3238.36,0.05987
3232.58,0.06028
3226.79,0.06253
3221,0.06481
3215.22,0.06685
3209.43,0.06927
3203.65,0.06996
3197.86,0.07388
3192.07,0.07570
3186.29,0.07812
3180.5,0.08091
3174.71,0.08314
3168.93,0.08567
3163.14,0.08772
3157.36,0.09025
3151.57,0.09318
3145.78,0.09597
3140,0.09817
3134.21,0.10025
3128.42,0.10343
3122.64,0.10561
3116.85,0.10804
3111.07,0.10994
3105.28,0.11301
3099.49,0.11467
3093.71,0.11718
3087.92,0.11885
3082.14,0.12115
3076.35,0.12308
3070.56,0.12465
3064.78,0.12680
3058.99,0.12890
3053.2,0.13022
3047.42,0.13194
3041.63,0.13227
3035.85,0.13262
3030.06,0.13188
3024.27,0.12987
3018.49,0.12687
3012.7,0.12355
3006.91,0.11946
3001.13,0.11544
2995.34,0.11222
2989.56,0.10809
2983.77,0.10215
2977.98,0.09414
2972.2,0.08586
2966.41,0.07955
2960.62,0.07539
2954.84,0.07224
2949.05,0.06853
2943.27,0.06523
2937.48,0.06336
2931.69,0.06287
2925.91,0.06216
2920.12,0.06227
2914.33,0.06320
2908.55,0.06385
2902.76,0.06440
2896.98,0.06623
2891.19,0.06860
2885.4,0.07097
2879.62,0.07183
2873.83,0.07252
2868.04,0.07418
2862.26,0.07580
2856.47,0.07666
2850.69,0.07989
2844.9,0.08659
2839.11,0.09454
2833.33,0.10311
2827.54,0.11211
2821.75,0.11998
2815.97,0.12655
2810.18,0.13239
2804.4,0.13736
2798.61,0.14155
2792.82,0.14470
2787.04,0.14711
2781.25,0.14917
2775.46,0.15101
2769.68,0.15253
2763.89,0.15407
2758.11,0.15469
2752.32,0.15598
2746.53,0.15603
2740.75,0.15657
2734.96,0.15702
2729.17,0.15835
2723.39,0.15957
2717.6,0.16155
2711.82,0.16422
2706.03,0.16738
2700.24,0.17044
2694.46,0.17328
2688.67,0.17577
2682.88,0.17780
2677.1,0.17999
2671.31,0.18167
2665.53,0.18327
2659.74,0.18447
2653.95,0.18555
2648.17,0.18721
2642.38,0.18893
2636.59,0.19138
2630.81,0.19327
2625.02,0.19568
2619.24,0.19779
2613.45,0.19986
2607.66,0.20154
2601.88,0.20347
2596.09,0.20502
2590.3,0.20620
2584.52,0.20794
2578.73,0.20885
2572.95,0.20925
2567.16,0.20974
2561.37,0.21033
2555.59,0.21117
2549.8,0.21195
2544.02,0.21251
2538.23,0.21292
2532.44,0.21433
2526.66,0.21623
2520.87,0.21718
2515.08,0.21805
2509.3,0.22016
2503.51,0.22299
2497.73,0.22617
2491.94,0.22837
2486.15,0.23069
2480.37,0.23283
2474.58,0.23502
2468.79,0.23686
2463.01,0.23832
2457.22,0.24051
2451.44,0.24253
2445.65,0.24516
2439.86,0.24793
2434.08,0.25058
2428.29,0.25350
2422.5,0.25652
2416.72,0.25962
2410.93,0.26293
2405.15,0.26640
2399.36,0.26931
2393.57,0.27231
2387.79,0.27464
2382,0.27702
2376.21,0.27950
2370.43,0.28177
2364.64,0.28424
2358.86,0.28633
2353.07,0.28871
2347.28,0.29077
2341.5,0.29296
2335.71,0.29437
2329.92,0.29561
2324.14,0.29678
2318.35,0.29750
2312.57,0.29780
2306.78,0.29738
2300.99,0.29668
2295.21,0.29591
2289.42,0.29560
2283.63,0.29553
2277.85,0.29454
2272.06,0.29341
2266.28,0.29135
2260.49,0.28877
2254.7,0.28654
2248.92,0.28467
2243.13,0.28360
2237.34,0.28329
2231.56,0.28395
2225.77,0.28494
2219.99,0.28567
2214.2,0.28596
2208.41,0.28594
2202.63,0.28443
2196.84,0.28203
2191.05,0.27887
2185.27,0.27459
2179.48,0.26996
2173.7,0.26518
2167.91,0.26015
2162.12,0.25659
2156.34,0.25375
2150.55,0.25125
2144.76,0.25008
2138.98,0.24881
2133.19,0.24864
2127.41,0.24949
2121.62,0.25028
2115.83,0.25131
2110.05,0.25356
2104.26,0.25519
2098.47,0.25696
2092.69,0.25891
2086.9,0.26045
2081.12,0.26074
2075.33,0.26011
2069.54,0.25974
2063.76,0.25985
2057.97,0.26007
2052.19,0.26073
2046.4,0.26139
2040.61,0.26276
2034.83,0.26498
2029.04,0.26749
2023.25,0.27097
2017.47,0.27516
2011.68,0.27859
2005.9,0.28210
2000.11,0.28439
1994.32,0.28699
1988.54,0.28857
1982.75,0.28950
1976.96,0.28953
1971.18,0.28876
1965.39,0.28766
1959.61,0.28692
1953.82,0.28717
1948.03,0.28912
1942.25,0.29232
1936.46,0.29561
1930.67,0.29889
1924.89,0.30166
1919.1,0.30367
1913.32,0.30506
1907.53,0.30583
1901.74,0.30628
1895.96,0.30596
1890.17,0.30561
1884.38,0.30408
1878.6,0.30291
1872.81,0.30065
1867.03,0.29852
1861.24,0.29519
1855.45,0.29181
1849.67,0.28792
1843.88,0.28284
1838.09,0.27751
1832.31,0.27136
1826.52,0.26395
1820.74,0.25602
1814.95,0.24651
1809.16,0.23535
1803.38,0.22300
1797.59,0.20827
1791.8,0.19234
1786.02,0.17470
1780.23,0.15379
1774.45,0.12920
1768.66,0.09959
1762.87,0.07671
1757.09,0.06064
1751.3,0.05212
1745.51,0.04769
1739.73,0.04755
1733.94,0.05061
1728.16,0.05553
1722.37,0.06049
1716.58,0.06722
1710.8,0.07561
1705.01,0.08520
1699.22,0.09494
1693.44,0.10086
1687.65,0.10287
1681.87,0.09946
1676.08,0.09414
1670.29,0.08867
1664.51,0.08574
1658.72,0.08443
1652.93,0.08506
1647.15,0.08546
1641.36,0.08527
1635.58,0.08510
1629.79,0.08384
1624,0.08212
1618.22,0.08003
1612.43,0.07743
1606.64,0.07228
1600.86,0.06674
1595.07,0.06299
1589.29,0.06766
1583.5,0.08058
1577.71,0.09632
1571.93,0.11108
1566.14,0.12076
1560.35,0.12569
1554.57,0.12621
1548.78,0.12537
1543,0.12473
1537.21,0.11982
1531.42,0.11192
1525.64,0.09935
1519.85,0.08070
1514.07,0.06624
1508.28,0.05932
1502.49,0.05915
1496.71,0.06641
1490.92,0.07325
1485.13,0.07472
1479.35,0.06814
1473.56,0.05646
1467.78,0.04682
1461.99,0.04522
1456.2,0.04622
1450.42,0.04767
1444.63,0.04858
1438.84,0.04805
1433.06,0.04470
1427.27,0.04334
1421.49,0.04502
1415.7,0.04826
1409.91,0.05096
1404.13,0.05122
1398.34,0.04990
1392.55,0.04767
1386.77,0.04430
1380.98,0.04115
1375.2,0.03999
1369.41,0.04117
1363.62,0.04302
1357.84,0.04559
1352.05,0.04634
1346.26,0.04517
1340.48,0.04388
1334.69,0.04262
1328.91,0.04270
1323.12,0.04250
1317.33,0.04402
1311.55,0.04604
1305.76,0.04789
1299.97,0.04859
1294.19,0.04702
1288.4,0.04443
1282.62,0.04168
1276.83,0.03984
1271.04,0.03827
1265.26,0.03726
1259.47,0.03679
1253.68,0.03614
1247.9,0.03595
1242.11,0.03610
1236.33,0.03723
1230.54,0.03883
1224.75,0.04025
1218.97,0.04215
1213.18,0.04393
1207.39,0.04527
1201.61,0.04568
1195.82,0.04568
1190.04,0.04423
1184.25,0.04071
1178.46,0.03735
1172.68,0.03471
1166.89,0.03469
1161.1,0.03638
1155.32,0.03710
1149.53,0.03683
1143.75,0.03475
1137.96,0.03172
1132.17,0.03068
1126.39,0.03165
1120.6,0.03282
1114.81,0.03410
1109.03,0.03474
1103.24,0.03608
1097.46,0.03569
1091.67,0.03415
1085.88,0.03473
1080.1,0.03591
1074.31,0.03792
1068.52,0.04078
1062.74,0.04432
1056.95,0.04776
1051.17,0.04910
1045.38,0.04949
1039.59,0.05150
1033.81,0.05387
1028.02,0.05566
1022.24,0.05648
1016.45,0.05890
1010.66,0.06000
1004.88,0.06176
999.09,0.06245
993.304,0.06450
987.518,0.06942
981.731,0.07660
975.945,0.08272
970.159,0.08723
964.373,0.09250
958.586,0.09981
952.8,0.10845
947.014,0.11487
941.228,0.11736
935.441,0.11653
929.655,0.11560
923.869,0.11429
918.083,0.11220
912.297,0.10803
906.51,0.10366
900.724,0.09669
894.938,0.09915
889.152,0.10727
883.365,0.11476
877.579,0.11793
871.793,0.12068
866.007,0.12367
860.22,0.12570
854.434,0.12500
848.648,0.12325
842.862,0.12093
837.075,0.11751
831.289,0.11797
825.503,0.11916
819.717,0.11988
813.931,0.12112
808.144,0.12223
802.358,0.12137
796.572,0.12150
790.786,0.12094
784.999,0.11835
779.213,0.11598
773.427,0.11143
767.641,0.10792
761.854,0.10363
756.068,0.09945
750.282,0.09584
744.496,0.09276
738.709,0.08860
732.923,0.08538
727.137,0.08105
721.351,0.07825
715.565,0.07684
709.778,0.07508
703.992,0.07527
698.206,0.07439
692.42,0.07304
686.633,0.07120
680.847,0.06814
675.061,0.06490
669.275,0.06351
663.488,0.06517
657.702,0.06351
651.916,0.06669
646.13,0.06385
640.343,0.06164
634.557,0.05930
628.771,0.05774
622.985,0.05824
617.198,0.05676
611.412,0.05495
605.626,0.06063
599.84,0.05953