File: 01_Data/Basswood_Panel/FTIR/IS/Basswood_Panel_IS_S_220928_R7.dpt
7497.03,0.83010
7491.25,0.83559
7485.46,0.82815
7479.67,0.83250
7473.89,0.83111
7468.1,0.82702
7462.32,0.82201
7456.53,0.82607
7450.74,0.82440
7444.96,0.81808
7439.17,0.81997
7433.38,0.81196
7427.6,0.81771
7421.81,0.81387
7416.03,0.80527
7410.24,0.80162
7404.45,0.79547
7398.67,0.79260
7392.88,0.80174
7387.09,0.78412
7381.31,0.79700
7375.52,0.79619
7369.74,0.78780
7363.95,0.78576
7358.16,0.79500
7352.38,0.78645
7346.59,0.77347
7340.8,0.77789
7335.02,0.76353
7329.23,0.77401
7323.45,0.76977
7317.66,0.77592
7311.87,0.77907
7306.09,0.76382
7300.3,0.77318
7294.51,0.76879
7288.73,0.76741
7282.94,0.76642
7277.16,0.76921
7271.37,0.76292
7265.58,0.76554
7259.8,0.77301
7254.01,0.76834
7248.22,0.76307
7242.44,0.75947
7236.65,0.76747
7230.87,0.77021
7225.08,0.75432
7219.29,0.75602
7213.51,0.75693
7207.72,0.75998
7201.93,0.75328
7196.15,0.75340
7190.36,0.75354
7184.58,0.75400
7178.79,0.75110
7173,0.74750
7167.22,0.75145
7161.43,0.75007
7155.65,0.74591
7149.86,0.73382
7144.07,0.73345
7138.29,0.73502
7132.5,0.73913
7126.71,0.72591
7120.93,0.71557
7115.14,0.71522
7109.36,0.71525
7103.57,0.71286
7097.78,0.70984
7092,0.70180
7086.21,0.69721
7080.42,0.69587
7074.64,0.68818
7068.85,0.68053
7063.07,0.67558
7057.28,0.67546
7051.49,0.66643
7045.71,0.66663
7039.92,0.65851
7034.13,0.65525
7028.35,0.64842
7022.56,0.64075
7016.78,0.63773
7010.99,0.63593
7005.2,0.63370
6999.42,0.62930
6993.63,0.62563
6987.84,0.62548
6982.06,0.63095
6976.27,0.62629
6970.49,0.62001
6964.7,0.62146
6958.91,0.62186
6953.13,0.62386
6947.34,0.62350
6941.55,0.61589
6935.77,0.62351
6929.98,0.62198
6924.2,0.61998
6918.41,0.61625
6912.62,0.60898
6906.84,0.61787
6901.05,0.61562
6895.26,0.62075
6889.48,0.61823
6883.69,0.61673
6877.91,0.61420
6872.12,0.61772
6866.33,0.61248
6860.55,0.61134
6854.76,0.61540
6848.97,0.61367
6843.19,0.61442
6837.4,0.61511
6831.62,0.61409
6825.83,0.61361
6820.04,0.61484
6814.26,0.60787
6808.47,0.61041
6802.68,0.61759
6796.9,0.61318
6791.11,0.61697
6785.33,0.61119
6779.54,0.61803
6773.75,0.61324
6767.97,0.61094
6762.18,0.61635
6756.39,0.61459
6750.61,0.61249
6744.82,0.61409
6739.04,0.61547
6733.25,0.61907
6727.46,0.61474
6721.68,0.61179
6715.89,0.62180
6710.1,0.62153
6704.32,0.61937
6698.53,0.61808
6692.75,0.62007
6686.96,0.61990
6681.17,0.61766
6675.39,0.62112
6669.6,0.61910
6663.82,0.62114
6658.03,0.61733
6652.24,0.62372
6646.46,0.62161
6640.67,0.62490
6634.88,0.62587
6629.1,0.62890
6623.31,0.62458
6617.53,0.62643
6611.74,0.63507
6605.95,0.63176
6600.17,0.62800
6594.38,0.63391
6588.59,0.63395
6582.81,0.63796
6577.02,0.64083
6571.24,0.64148
6565.45,0.63652
6559.66,0.64333
6553.88,0.64274
6548.09,0.64104
6542.3,0.63852
6536.52,0.64136
6530.73,0.64324
6524.95,0.64146
6519.16,0.64250
6513.37,0.64262
6507.59,0.63964
6501.8,0.64224
6496.01,0.64220
6490.23,0.64449
6484.44,0.64511
6478.66,0.64476
6472.87,0.64548
6467.08,0.64837
6461.3,0.64793
6455.51,0.64746
6449.72,0.64967
6443.94,0.64850
6438.15,0.64719
6432.37,0.64416
6426.58,0.64484
6420.79,0.64758
6415.01,0.64938
6409.22,0.65196
6403.43,0.64858
6397.65,0.65016
6391.86,0.65150
6386.08,0.64991
6380.29,0.65519
6374.5,0.65171
6368.72,0.65284
6362.93,0.65452
6357.14,0.65152
6351.36,0.65201
6345.57,0.64851
6339.79,0.65149
6334,0.65292
6328.21,0.65311
6322.43,0.65441
6316.64,0.65460
6310.85,0.65539
6305.07,0.66144
6299.28,0.66074
6293.5,0.65838
6287.71,0.65899
6281.92,0.66124
6276.14,0.66270
6270.35,0.66229
6264.56,0.66495
6258.78,0.66824
6252.99,0.67205
6247.21,0.67254
6241.42,0.67422
6235.63,0.67481
6229.85,0.67906
6224.06,0.67979
6218.27,0.67942
6212.49,0.67985
6206.7,0.67871
6200.92,0.68386
6195.13,0.68312
6189.34,0.68407
6183.56,0.68403
6177.77,0.68863
6171.98,0.68719
6166.2,0.69056
6160.41,0.69166
6154.63,0.69151
6148.84,0.69637
6143.05,0.69483
6137.27,0.69353
6131.48,0.69986
6125.7,0.69729
6119.91,0.69610
6114.12,0.70020
6108.34,0.70249
6102.55,0.69968
6096.76,0.70378
6090.98,0.69930
6085.19,0.69725
6079.41,0.69850
6073.62,0.69825
6067.83,0.70031
6062.05,0.69834
6056.26,0.69960
6050.47,0.69395
6044.69,0.69772
6038.9,0.69283
6033.12,0.69089
6027.33,0.69222
6021.54,0.68945
6015.76,0.68773
6009.97,0.68786
6004.18,0.68382
5998.4,0.68286
5992.61,0.68124
5986.83,0.68004
5981.04,0.68039
5975.25,0.68011
5969.47,0.67751
5963.68,0.67676
5957.89,0.67142
5952.11,0.67086
5946.32,0.67082
5940.54,0.67136
5934.75,0.67292
5928.96,0.67157
5923.18,0.67326
5917.39,0.66863
5911.6,0.66925
5905.82,0.67048
5900.03,0.66715
5894.25,0.66553
5888.46,0.66319
5882.67,0.65980
5876.89,0.66218
5871.1,0.65904
5865.31,0.65912
5859.53,0.65715
5853.74,0.65645
5847.96,0.65606
5842.17,0.65436
5836.38,0.65168
5830.6,0.64893
5824.81,0.64528
5819.02,0.64416
5813.24,0.64209
5807.45,0.64374
5801.67,0.64165
5795.88,0.64168
5790.09,0.64220
5784.31,0.64608
5778.52,0.64881
5772.73,0.64930
5766.95,0.65163
5761.16,0.65264
5755.38,0.65495
5749.59,0.65555
5743.8,0.65692
5738.02,0.65974
5732.23,0.65756
5726.44,0.65718
5720.66,0.65726
5714.87,0.65869
5709.09,0.65738
5703.3,0.65646
5697.51,0.65648
5691.73,0.65566
5685.94,0.65547
5680.15,0.65589
5674.37,0.65622
5668.58,0.65656
5662.8,0.65735
5657.01,0.65676
5651.22,0.65815
5645.44,0.65818
5639.65,0.65629
5633.87,0.65706
5628.08,0.65908
5622.29,0.65835
5616.51,0.66037
5610.72,0.66050
5604.93,0.65954
5599.15,0.65741
5593.36,0.65822
5587.58,0.65865
5581.79,0.66043
5576,0.66090
5570.22,0.66095
5564.43,0.66187
5558.64,0.66348
5552.86,0.66484
5547.07,0.66180
5541.29,0.66339
5535.5,0.66279
5529.71,0.66549
5523.93,0.66613
5518.14,0.66487
5512.35,0.66755
5506.57,0.66662
5500.78,0.66620
5495,0.66613
5489.21,0.66736
5483.42,0.66664
5477.64,0.66765
5471.85,0.66915
5466.06,0.66952
5460.28,0.67225
5454.49,0.67079
5448.71,0.67237
5442.92,0.67341
5437.13,0.67432
5431.35,0.67764
5425.56,0.67838
5419.77,0.67895
5413.99,0.67948
5408.2,0.67839
5402.42,0.68139
5396.63,0.68026
5390.84,0.68165
5385.06,0.68090
5379.27,0.68063
5373.48,0.68243
5367.7,0.68057
5361.91,0.68150
5356.13,0.68014
5350.34,0.67808
5344.55,0.67905
5338.77,0.67846
5332.98,0.67638
5327.19,0.67224
5321.41,0.67102
5315.62,0.66665
5309.84,0.66308
5304.05,0.65714
5298.26,0.65053
5292.48,0.64360
5286.69,0.63490
5280.9,0.62643
5275.12,0.61727
5269.33,0.60599
5263.55,0.59518
5257.76,0.58516
5251.97,0.57677
5246.19,0.56863
5240.4,0.56149
5234.61,0.55564
5228.83,0.55072
5223.04,0.54860
5217.26,0.54404
5211.47,0.54183
5205.68,0.54228
5199.9,0.54235
5194.11,0.54035
5188.32,0.54168
5182.54,0.54261
5176.75,0.54319
5170.97,0.54674
5165.18,0.54856
5159.39,0.55199
5153.61,0.55495
5147.82,0.55657
5142.03,0.55970
5136.25,0.56322
5130.46,0.56714
5124.68,0.57026
5118.89,0.57236
5113.1,0.57571
5107.32,0.57791
5101.53,0.58106
5095.75,0.58233
5089.96,0.58653
5084.17,0.58911
5078.39,0.59063
5072.6,0.59344
5066.81,0.59772
5061.03,0.59786
5055.24,0.60102
5049.46,0.60237
5043.67,0.60371
5037.88,0.60470
5032.1,0.60667
5026.31,0.60813
5020.52,0.61016
5014.74,0.61029
5008.95,0.61028
5003.17,0.61000
4997.38,0.61000
4991.59,0.60828
4985.81,0.60643
4980.02,0.60416
4974.23,0.60276
4968.45,0.59992
4962.66,0.59696
4956.88,0.59223
4951.09,0.58785
4945.3,0.58346
4939.52,0.57845
4933.73,0.57203
4927.94,0.56796
4922.16,0.56280
4916.37,0.55675
4910.59,0.55091
4904.8,0.54522
4899.01,0.53949
4893.23,0.53464
4887.44,0.52925
4881.65,0.52615
4875.87,0.51954
4870.08,0.51495
4864.3,0.50965
4858.51,0.50519
4852.72,0.50296
4846.94,0.49621
4841.15,0.49377
4835.36,0.48951
4829.58,0.48563
4823.79,0.48345
4818.01,0.48132
4812.22,0.47854
4806.43,0.47664
4800.65,0.47546
4794.86,0.47365
4789.07,0.47226
4783.29,0.47146
4777.5,0.47046
4771.72,0.47015
4765.93,0.46927
4760.14,0.46843
4754.36,0.46819
4748.57,0.46843
4742.78,0.46819
4737,0.46952
4731.21,0.46995
4725.43,0.46848
4719.64,0.47048
4713.85,0.47170
4708.07,0.47279
4702.28,0.47320
4696.49,0.47495
4690.71,0.47614
4684.92,0.47751
4679.14,0.47895
4673.35,0.48164
4667.56,0.48394
4661.78,0.48688
4655.99,0.48809
4650.2,0.49201
4644.42,0.49448
4638.63,0.49652
4632.85,0.49969
4627.06,0.50190
4621.27,0.50385
4615.49,0.50639
4609.7,0.50857
4603.92,0.51043
4598.13,0.51227
4592.34,0.51459
4586.56,0.51635
4580.77,0.51782
4574.98,0.51907
4569.2,0.52116
4563.41,0.52161
4557.63,0.52370
4551.84,0.52471
4546.05,0.52596
4540.27,0.52691
4534.48,0.52724
4528.69,0.52747
4522.91,0.52792
4517.12,0.52821
4511.34,0.52727
4505.55,0.52546
4499.76,0.52251
4493.98,0.51906
4488.19,0.51506
4482.4,0.50927
4476.62,0.50194
4470.83,0.49411
4465.05,0.48545
4459.26,0.47717
4453.47,0.46741
4447.69,0.45889
4441.9,0.44981
4436.11,0.44180
4430.33,0.43596
4424.54,0.42978
4418.76,0.42548
4412.97,0.42236
4407.18,0.41841
4401.4,0.41712
4395.61,0.41704
4389.82,0.41843
4384.04,0.42062
4378.25,0.42176
4372.47,0.42363
4366.68,0.42597
4360.89,0.42615
4355.11,0.42526
4349.32,0.42286
4343.53,0.42097
4337.75,0.41992
4331.96,0.41826
4326.18,0.41675
4320.39,0.41550
4314.6,0.41428
4308.82,0.41274
4303.03,0.41076
4297.24,0.40859
4291.46,0.40709
4285.67,0.40653
4279.89,0.40472
4274.1,0.40436
4268.31,0.40478
4262.53,0.40527
4256.74,0.40633
4250.95,0.40770
4245.17,0.40896
4239.38,0.41015
4233.6,0.41150
4227.81,0.41182
4222.02,0.41325
4216.24,0.41351
4210.45,0.41523
4204.66,0.41576
4198.88,0.41625
4193.09,0.41754
4187.31,0.41703
4181.52,0.41854
4175.73,0.42057
4169.95,0.42210
4164.16,0.42337
4158.37,0.42410
4152.59,0.42298
4146.8,0.42159
4141.02,0.41985
4135.23,0.41747
4129.44,0.41448
4123.66,0.41118
4117.87,0.40693
4112.09,0.40312
4106.3,0.39899
4100.51,0.39380
4094.73,0.38862
4088.94,0.38341
4083.15,0.37807
4077.37,0.37258
4071.58,0.36689
4065.8,0.36110
4060.01,0.35582
4054.22,0.35101
4048.44,0.34634
4042.65,0.34171
4036.86,0.33801
4031.08,0.33517
4025.29,0.33237
4019.51,0.33086
4013.72,0.33145
4007.93,0.33185
4002.15,0.33320
3996.36,0.33582
3990.57,0.33771
3984.79,0.33888
3979,0.34004
3973.22,0.34206
3967.43,0.34453
3961.64,0.34813
3955.86,0.35108
3950.07,0.35394
3944.28,0.35638
3938.5,0.35961
3932.71,0.36292
3926.93,0.36583
3921.14,0.36926
3915.35,0.37214
3909.57,0.37405
3903.78,0.37682
3897.99,0.37953
3892.21,0.38230
3886.42,0.38489
3880.64,0.38676
3874.85,0.38913
3869.06,0.39267
3863.28,0.39563
3857.49,0.39896
3851.7,0.40256
3845.92,0.40512
3840.13,0.40693
3834.35,0.40947
3828.56,0.41076
3822.77,0.41118
3816.99,0.41227
3811.2,0.41251
3805.41,0.41301
3799.63,0.41289
3793.84,0.41289
3788.06,0.41315
3782.27,0.41229
3776.48,0.41143
3770.7,0.40956
3764.91,0.40848
3759.12,0.40698
3753.34,0.40532
3747.55,0.40383
3741.77,0.40072
3735.98,0.39743
3730.19,0.39352
3724.41,0.38893
3718.62,0.38340
3712.83,0.37723
3707.05,0.36889
3701.26,0.35965
3695.48,0.34830
3689.69,0.33436
3683.9,0.31736
3678.12,0.29944
3672.33,0.27991
3666.54,0.25990
3660.76,0.24100
3654.97,0.22256
3649.19,0.20646
3643.4,0.19113
3637.61,0.17716
3631.83,0.16485
3626.04,0.15317
3620.25,0.14219
3614.47,0.13179
3608.68,0.12095
3602.9,0.11214
3597.11,0.10382
3591.32,0.09626
3585.54,0.08957
3579.75,0.08358
3573.97,0.07855
3568.18,0.07422
3562.39,0.06960
3556.61,0.06519
3550.82,0.06217
3545.03,0.05929
3539.25,0.05716
3533.46,0.05485
3527.68,0.05290
3521.89,0.05039
3516.1,0.04855
3510.32,0.04756
3504.53,0.04578
3498.74,0.04499
3492.96,0.04338
3487.17,0.04205
3481.39,0.04155
3475.6,0.04079
3469.81,0.04033
3464.03,0.03944
3458.24,0.03886
3452.45,0.03792
3446.67,0.03846
3440.88,0.03798
3435.1,0.03784
3429.31,0.03695
3423.52,0.03730
3417.74,0.03711
3411.95,0.03722
3406.16,0.03796
3400.38,0.03798
3394.59,0.03725
3388.81,0.03725
3383.02,0.03739
3377.23,0.03761
3371.45,0.03823
3365.66,0.03761
3359.87,0.03768
3354.09,0.03867
3348.3,0.03899
3342.52,0.03897
3336.73,0.03957
3330.94,0.04030
3325.16,0.04127
3319.37,0.04179
3313.58,0.04299
3307.8,0.04304
3302.01,0.04441
3296.23,0.04404
3290.44,0.04524
3284.65,0.04532
3278.87,0.04665
3273.08,0.04850
3267.29,0.05029
3261.51,0.05185
3255.72,0.05275
3249.94,0.05463
3244.15,0.05664
3238.36,0.05785
3232.58,0.06035
3226.79,0.06286
3221,0.06530
3215.22,0.06669
3209.43,0.06852
3203.65,0.07116
3197.86,0.07288
3192.07,0.07486
3186.29,0.07808
3180.5,0.08020
3174.71,0.08245
3168.93,0.08480
3163.14,0.08722
3157.36,0.09036
3151.57,0.09260
3145.78,0.09506
3140,0.09735
3134.21,0.10048
3128.42,0.10347
3122.64,0.10510
3116.85,0.10757
3111.07,0.10991
3105.28,0.11235
3099.49,0.11403
3093.71,0.11631
3087.92,0.11777
3082.14,0.11973
3076.35,0.12212
3070.56,0.12398
3064.78,0.12607
3058.99,0.12797
3053.2,0.12970
3047.42,0.13099
3041.63,0.13214
3035.85,0.13208
3030.06,0.13135
3024.27,0.12857
3018.49,0.12610
3012.7,0.12211
3006.91,0.11811
3001.13,0.11451
2995.34,0.11173
2989.56,0.10760
2983.77,0.10178
2977.98,0.09423
2972.2,0.08570
2966.41,0.07945
2960.62,0.07539
2954.84,0.07198
2949.05,0.06811
2943.27,0.06512
2937.48,0.06300
2931.69,0.06240
2925.91,0.06228
2920.12,0.06193
2914.33,0.06320
2908.55,0.06440
2902.76,0.06496
2896.98,0.06618
2891.19,0.06848
2885.4,0.07014
2879.62,0.07146
2873.83,0.07243
2868.04,0.07361
2862.26,0.07537
2856.47,0.07637
2850.69,0.07971
2844.9,0.08704
2839.11,0.09357
2833.33,0.10253
2827.54,0.11129
2821.75,0.11927
2815.97,0.12635
2810.18,0.13149
2804.4,0.13649
2798.61,0.14110
2792.82,0.14387
2787.04,0.14644
2781.25,0.14839
2775.46,0.15026
2769.68,0.15155
2763.89,0.15339
2758.11,0.15451
2752.32,0.15497
2746.53,0.15533
2740.75,0.15592
2734.96,0.15644
2729.17,0.15712
2723.39,0.15866
2717.6,0.16095
2711.82,0.16329
2706.03,0.16636
2700.24,0.16904
2694.46,0.17205
2688.67,0.17457
2682.88,0.17656
2677.1,0.17888
2671.31,0.18062
2665.53,0.18177
2659.74,0.18327
2653.95,0.18461
2648.17,0.18596
2642.38,0.18810
2636.59,0.19007
2630.81,0.19265
2625.02,0.19486
2619.24,0.19669
2613.45,0.19833
2607.66,0.20018
2601.88,0.20242
2596.09,0.20383
2590.3,0.20534
2584.52,0.20640
2578.73,0.20749
2572.95,0.20846
2567.16,0.20888
2561.37,0.20931
2555.59,0.21015
2549.8,0.21037
2544.02,0.21087
2538.23,0.21212
2532.44,0.21338
2526.66,0.21453
2520.87,0.21588
2515.08,0.21744
2509.3,0.21909
2503.51,0.22194
2497.73,0.22472
2491.94,0.22711
2486.15,0.22968
2480.37,0.23179
2474.58,0.23369
2468.79,0.23529
2463.01,0.23759
2457.22,0.23925
2451.44,0.24135
2445.65,0.24415
2439.86,0.24692
2434.08,0.24933
2428.29,0.25270
2422.5,0.25506
2416.72,0.25838
2410.93,0.26153
2405.15,0.26508
2399.36,0.26776
2393.57,0.27086
2387.79,0.27308
2382,0.27566
2376.21,0.27799
2370.43,0.27997
2364.64,0.28245
2358.86,0.28466
2353.07,0.28681
2347.28,0.28893
2341.5,0.29099
2335.71,0.29253
2329.92,0.29382
2324.14,0.29443
2318.35,0.29540
2312.57,0.29567
2306.78,0.29515
2300.99,0.29470
2295.21,0.29400
2289.42,0.29397
2283.63,0.29350
2277.85,0.29292
2272.06,0.29137
2266.28,0.28944
2260.49,0.28700
2254.7,0.28468
2248.92,0.28298
2243.13,0.28200
2237.34,0.28171
2231.56,0.28219
2225.77,0.28274
2219.99,0.28377
2214.2,0.28361
2208.41,0.28363
2202.63,0.28217
2196.84,0.28037
2191.05,0.27684
2185.27,0.27278
2179.48,0.26801
2173.7,0.26334
2167.91,0.25862
2162.12,0.25454
2156.34,0.25189
2150.55,0.24955
2144.76,0.24810
2138.98,0.24685
2133.19,0.24686
2127.41,0.24727
2121.62,0.24858
2115.83,0.24972
2110.05,0.25156
2104.26,0.25341
2098.47,0.25538
2092.69,0.25712
2086.9,0.25846
2081.12,0.25882
2075.33,0.25844
2069.54,0.25793
2063.76,0.25778
2057.97,0.25824
2052.19,0.25897
2046.4,0.25963
2040.61,0.26097
2034.83,0.26326
2029.04,0.26591
2023.25,0.26929
2017.47,0.27318
2011.68,0.27688
2005.9,0.28026
2000.11,0.28252
1994.32,0.28448
1988.54,0.28652
1982.75,0.28705
1976.96,0.28719
1971.18,0.28666
1965.39,0.28553
1959.61,0.28517
1953.82,0.28540
1948.03,0.28715
1942.25,0.28987
1936.46,0.29335
1930.67,0.29689
1924.89,0.29939
1919.1,0.30169
1913.32,0.30307
1907.53,0.30406
1901.74,0.30390
1895.96,0.30372
1890.17,0.30299
1884.38,0.30221
1878.6,0.30072
1872.81,0.29877
1867.03,0.29658
1861.24,0.29343
1855.45,0.28972
1849.67,0.28575
1843.88,0.28115
1838.09,0.27539
1832.31,0.26984
1826.52,0.26259
1820.74,0.25444
1814.95,0.24497
1809.16,0.23342
1803.38,0.22105
1797.59,0.20711
1791.8,0.19139
1786.02,0.17417
1780.23,0.15332
1774.45,0.12852
1768.66,0.09980
1762.87,0.07667
1757.09,0.06092
1751.3,0.05212
1745.51,0.04736
1739.73,0.04723
1733.94,0.05066
1728.16,0.05520
1722.37,0.06042
1716.58,0.06778
1710.8,0.07506
1705.01,0.08436
1699.22,0.09417
1693.44,0.10084
1687.65,0.10225
1681.87,0.09895
1676.08,0.09350
1670.29,0.08833
1664.51,0.08557
1658.72,0.08412
1652.93,0.08399
1647.15,0.08449
1641.36,0.08425
1635.58,0.08409
1629.79,0.08315
1624,0.08185
1618.22,0.08000
1612.43,0.07670
1606.64,0.07151
1600.86,0.06639
1595.07,0.06267
1589.29,0.06728
1583.5,0.08020
1577.71,0.09607
1571.93,0.11080
1566.14,0.12022
1560.35,0.12471
1554.57,0.12578
1548.78,0.12513
1543,0.12354
1537.21,0.11889
1531.42,0.11167
1525.64,0.09892
1519.85,0.08038
1514.07,0.06588
1508.28,0.05934
1502.49,0.05886
1496.71,0.06595
1490.92,0.07270
1485.13,0.07456
1479.35,0.06812
1473.56,0.05694
1467.78,0.04660
1461.99,0.04519
1456.2,0.04606
1450.42,0.04773
1444.63,0.04874
1438.84,0.04762
1433.06,0.04442
1427.27,0.04320
1421.49,0.04499
1415.7,0.04823
1409.91,0.05066
1404.13,0.05116
1398.34,0.05010
1392.55,0.04751
1386.77,0.04417
1380.98,0.04098
1375.2,0.04047
1369.41,0.04136
1363.62,0.04330
1357.84,0.04501
1352.05,0.04607
1346.26,0.04541
1340.48,0.04397
1334.69,0.04264
1328.91,0.04258
1323.12,0.04293
1317.33,0.04405
1311.55,0.04565
1305.76,0.04784
1299.97,0.04844
1294.19,0.04731
1288.4,0.04445
1282.62,0.04147
1276.83,0.03977
1271.04,0.03805
1265.26,0.03748
1259.47,0.03663
1253.68,0.03607
1247.9,0.03601
1242.11,0.03628
1236.33,0.03702
1230.54,0.03865
1224.75,0.04054
1218.97,0.04200
1213.18,0.04436
1207.39,0.04525
1201.61,0.04583
1195.82,0.04596
1190.04,0.04415
1184.25,0.04083
1178.46,0.03723
1172.68,0.03437
1166.89,0.03468
1161.1,0.03652
1155.32,0.03701
1149.53,0.03683
1143.75,0.03480
1137.96,0.03189
1132.17,0.03113
1126.39,0.03165
1120.6,0.03296
1114.81,0.03346
1109.03,0.03435
1103.24,0.03664
1097.46,0.03598
1091.67,0.03448
1085.88,0.03497
1080.1,0.03532
1074.31,0.03738
1068.52,0.04041
1062.74,0.04502
1056.95,0.04807
1051.17,0.04889
1045.38,0.04945
1039.59,0.05073
1033.81,0.05410
1028.02,0.05554
1022.24,0.05690
1016.45,0.05845
1010.66,0.06016
1004.88,0.06140
999.09,0.06282
993.304,0.06508
987.518,0.06849
981.731,0.07610
975.945,0.08327
970.159,0.08742
964.373,0.09195
958.586,0.09949
952.8,0.10879
947.014,0.11393
941.228,0.11652
935.441,0.11610
929.655,0.11527
923.869,0.11425
918.083,0.11185
912.297,0.10830
906.51,0.10250
900.724,0.09693
894.938,0.09877
889.152,0.10687
883.365,0.11472
877.579,0.11741
871.793,0.12037
866.007,0.12397
860.22,0.12552
854.434,0.12530
848.648,0.12317
842.862,0.11985
837.075,0.11697
831.289,0.11609
825.503,0.11748
819.717,0.11968
813.931,0.12067
808.144,0.12104
802.358,0.12045
796.572,0.12017
790.786,0.11925
784.999,0.11704
779.213,0.11473
773.427,0.11202
767.641,0.10731
761.854,0.10337
756.068,0.09836
750.282,0.09450
744.496,0.09248
738.709,0.08910
732.923,0.08532
727.137,0.08197
721.351,0.07868
715.565,0.07698
709.778,0.07605
703.992,0.07571
698.206,0.07596
692.42,0.07417
686.633,0.07157
680.847,0.06824
675.061,0.06515
669.275,0.06349
663.488,0.06498
657.702,0.06711
651.916,0.06656
646.13,0.06364
640.343,0.06297
634.557,0.06101
628.771,0.05950
622.985,0.05737
617.198,0.05707
611.412,0.05808
605.626,0.05969
599.84,0.06279