File: 01_Data/Basswood_Panel/FTIR/IS/Basswood_Panel_IS_S_220928_R5.dpt
7497.03,0.83605
7491.25,0.82351
7485.46,0.83676
7479.67,0.82855
7473.89,0.82779
7468.1,0.83361
7462.32,0.82235
7456.53,0.81747
7450.74,0.81954
7444.96,0.82129
7439.17,0.80285
7433.38,0.80166
7427.6,0.80958
7421.81,0.80360
7416.03,0.80426
7410.24,0.79872
7404.45,0.80228
7398.67,0.79483
7392.88,0.79223
7387.09,0.78952
7381.31,0.79867
7375.52,0.80077
7369.74,0.79055
7363.95,0.78212
7358.16,0.79044
7352.38,0.78455
7346.59,0.78369
7340.8,0.78140
7335.02,0.78397
7329.23,0.79277
7323.45,0.77869
7317.66,0.77393
7311.87,0.77056
7306.09,0.77034
7300.3,0.76882
7294.51,0.76645
7288.73,0.76585
7282.94,0.76909
7277.16,0.76493
7271.37,0.75913
7265.58,0.75738
7259.8,0.76373
7254.01,0.76393
7248.22,0.75716
7242.44,0.77147
7236.65,0.76634
7230.87,0.77516
7225.08,0.76745
7219.29,0.75818
7213.51,0.75611
7207.72,0.76012
7201.93,0.75027
7196.15,0.75005
7190.36,0.74888
7184.58,0.74844
7178.79,0.75077
7173,0.75291
7167.22,0.74638
7161.43,0.73837
7155.65,0.74028
7149.86,0.74044
7144.07,0.73515
7138.29,0.73144
7132.5,0.72647
7126.71,0.71839
7120.93,0.71772
7115.14,0.71888
7109.36,0.70886
7103.57,0.70863
7097.78,0.70101
7092,0.70396
7086.21,0.69167
7080.42,0.69056
7074.64,0.69031
7068.85,0.67836
7063.07,0.67655
7057.28,0.66995
7051.49,0.66841
7045.71,0.66038
7039.92,0.65593
7034.13,0.65307
7028.35,0.64959
7022.56,0.65106
7016.78,0.64136
7010.99,0.63732
7005.2,0.63223
6999.42,0.62793
6993.63,0.62905
6987.84,0.63246
6982.06,0.63007
6976.27,0.62218
6970.49,0.62173
6964.7,0.62240
6958.91,0.61325
6953.13,0.62227
6947.34,0.61906
6941.55,0.61748
6935.77,0.61527
6929.98,0.62076
6924.2,0.61416
6918.41,0.61759
6912.62,0.61509
6906.84,0.61174
6901.05,0.61581
6895.26,0.61333
6889.48,0.61127
6883.69,0.61113
6877.91,0.61673
6872.12,0.61459
6866.33,0.61232
6860.55,0.61371
6854.76,0.61004
6848.97,0.61152
6843.19,0.61228
6837.4,0.61851
6831.62,0.60745
6825.83,0.61419
6820.04,0.61423
6814.26,0.60800
6808.47,0.61064
6802.68,0.61123
6796.9,0.60998
6791.11,0.61302
6785.33,0.61390
6779.54,0.61344
6773.75,0.61607
6767.97,0.61349
6762.18,0.60926
6756.39,0.61083
6750.61,0.61351
6744.82,0.60952
6739.04,0.61456
6733.25,0.61727
6727.46,0.61468
6721.68,0.61788
6715.89,0.61545
6710.1,0.61270
6704.32,0.61583
6698.53,0.61854
6692.75,0.61774
6686.96,0.61305
6681.17,0.61843
6675.39,0.61604
6669.6,0.62358
6663.82,0.62123
6658.03,0.61897
6652.24,0.61938
6646.46,0.62436
6640.67,0.62826
6634.88,0.62657
6629.1,0.62978
6623.31,0.62797
6617.53,0.63418
6611.74,0.62634
6605.95,0.63205
6600.17,0.62760
6594.38,0.62850
6588.59,0.63026
6582.81,0.63411
6577.02,0.63631
6571.24,0.63679
6565.45,0.63660
6559.66,0.63968
6553.88,0.64016
6548.09,0.64201
6542.3,0.64320
6536.52,0.64260
6530.73,0.64088
6524.95,0.63900
6519.16,0.63920
6513.37,0.64052
6507.59,0.64393
6501.8,0.64333
6496.01,0.64275
6490.23,0.64031
6484.44,0.64170
6478.66,0.64005
6472.87,0.64466
6467.08,0.64396
6461.3,0.64230
6455.51,0.64648
6449.72,0.64725
6443.94,0.64920
6438.15,0.64349
6432.37,0.64649
6426.58,0.64743
6420.79,0.64803
6415.01,0.64696
6409.22,0.64928
6403.43,0.65296
6397.65,0.64903
6391.86,0.64843
6386.08,0.65284
6380.29,0.65094
6374.5,0.65112
6368.72,0.65459
6362.93,0.64941
6357.14,0.65031
6351.36,0.65466
6345.57,0.65257
6339.79,0.65710
6334,0.65368
6328.21,0.65534
6322.43,0.65644
6316.64,0.65224
6310.85,0.65295
6305.07,0.65526
6299.28,0.65609
6293.5,0.65901
6287.71,0.65841
6281.92,0.65935
6276.14,0.66119
6270.35,0.65841
6264.56,0.66265
6258.78,0.66686
6252.99,0.66795
6247.21,0.67050
6241.42,0.66754
6235.63,0.67266
6229.85,0.67486
6224.06,0.67596
6218.27,0.67625
6212.49,0.68018
6206.7,0.67812
6200.92,0.67997
6195.13,0.68573
6189.34,0.68552
6183.56,0.68607
6177.77,0.68878
6171.98,0.69006
6166.2,0.69037
6160.41,0.69103
6154.63,0.69480
6148.84,0.69469
6143.05,0.69574
6137.27,0.69467
6131.48,0.69593
6125.7,0.69933
6119.91,0.69710
6114.12,0.69758
6108.34,0.69592
6102.55,0.69649
6096.76,0.69886
6090.98,0.69938
6085.19,0.69878
6079.41,0.69613
6073.62,0.69658
6067.83,0.69840
6062.05,0.69784
6056.26,0.69722
6050.47,0.69837
6044.69,0.69159
6038.9,0.69158
6033.12,0.69395
6027.33,0.69145
6021.54,0.68797
6015.76,0.68610
6009.97,0.68459
6004.18,0.68298
5998.4,0.68336
5992.61,0.68083
5986.83,0.67864
5981.04,0.67703
5975.25,0.67899
5969.47,0.67698
5963.68,0.67546
5957.89,0.67035
5952.11,0.67073
5946.32,0.67303
5940.54,0.66989
5934.75,0.66892
5928.96,0.67075
5923.18,0.67235
5917.39,0.66978
5911.6,0.67080
5905.82,0.66931
5900.03,0.66448
5894.25,0.66570
5888.46,0.66299
5882.67,0.66270
5876.89,0.65771
5871.1,0.65694
5865.31,0.65501
5859.53,0.65566
5853.74,0.65706
5847.96,0.65541
5842.17,0.65270
5836.38,0.65279
5830.6,0.65003
5824.81,0.64664
5819.02,0.64688
5813.24,0.64322
5807.45,0.64573
5801.67,0.64139
5795.88,0.64409
5790.09,0.64175
5784.31,0.64463
5778.52,0.64672
5772.73,0.64885
5766.95,0.65212
5761.16,0.65543
5755.38,0.65636
5749.59,0.65655
5743.8,0.65661
5738.02,0.65599
5732.23,0.65872
5726.44,0.65901
5720.66,0.65792
5714.87,0.65868
5709.09,0.65728
5703.3,0.65520
5697.51,0.65741
5691.73,0.65670
5685.94,0.65702
5680.15,0.65620
5674.37,0.65623
5668.58,0.65702
5662.8,0.65628
5657.01,0.65638
5651.22,0.65541
5645.44,0.65856
5639.65,0.65854
5633.87,0.65844
5628.08,0.65957
5622.29,0.65936
5616.51,0.65912
5610.72,0.65867
5604.93,0.65989
5599.15,0.65834
5593.36,0.66137
5587.58,0.65967
5581.79,0.65901
5576,0.66116
5570.22,0.65994
5564.43,0.66086
5558.64,0.66295
5552.86,0.66311
5547.07,0.66191
5541.29,0.66524
5535.5,0.66422
5529.71,0.66361
5523.93,0.66542
5518.14,0.66420
5512.35,0.66466
5506.57,0.66376
5500.78,0.66642
5495,0.66691
5489.21,0.66589
5483.42,0.67005
5477.64,0.66744
5471.85,0.66757
5466.06,0.66910
5460.28,0.66871
5454.49,0.67084
5448.71,0.67285
5442.92,0.67327
5437.13,0.67427
5431.35,0.67412
5425.56,0.67605
5419.77,0.67726
5413.99,0.67924
5408.2,0.68151
5402.42,0.68063
5396.63,0.68052
5390.84,0.68093
5385.06,0.68189
5379.27,0.68181
5373.48,0.67952
5367.7,0.68096
5361.91,0.68095
5356.13,0.67895
5350.34,0.67907
5344.55,0.67688
5338.77,0.67627
5332.98,0.67691
5327.19,0.67313
5321.41,0.66955
5315.62,0.66412
5309.84,0.66104
5304.05,0.65391
5298.26,0.64788
5292.48,0.64033
5286.69,0.63321
5280.9,0.62379
5275.12,0.61227
5269.33,0.60072
5263.55,0.59169
5257.76,0.58325
5251.97,0.57218
5246.19,0.56582
5240.4,0.55824
5234.61,0.54977
5228.83,0.54622
5223.04,0.54261
5217.26,0.54024
5211.47,0.53797
5205.68,0.53718
5199.9,0.53533
5194.11,0.53689
5188.32,0.53755
5182.54,0.53707
5176.75,0.53996
5170.97,0.54223
5165.18,0.54447
5159.39,0.54721
5153.61,0.54939
5147.82,0.55259
5142.03,0.55700
5136.25,0.56054
5130.46,0.56306
5124.68,0.56486
5118.89,0.56703
5113.1,0.57207
5107.32,0.57448
5101.53,0.57524
5095.75,0.57816
5089.96,0.57984
5084.17,0.58568
5078.39,0.58706
5072.6,0.58853
5066.81,0.59183
5061.03,0.59451
5055.24,0.59616
5049.46,0.59976
5043.67,0.60183
5037.88,0.60250
5032.1,0.60431
5026.31,0.60557
5020.52,0.60611
5014.74,0.60553
5008.95,0.60631
5003.17,0.60702
4997.38,0.60588
4991.59,0.60658
4985.81,0.60610
4980.02,0.60359
4974.23,0.60187
4968.45,0.59831
4962.66,0.59530
4956.88,0.59074
4951.09,0.58647
4945.3,0.58225
4939.52,0.57701
4933.73,0.57324
4927.94,0.56723
4922.16,0.56128
4916.37,0.55578
4910.59,0.54984
4904.8,0.54508
4899.01,0.53991
4893.23,0.53351
4887.44,0.52965
4881.65,0.52325
4875.87,0.51762
4870.08,0.51338
4864.3,0.51065
4858.51,0.50461
4852.72,0.50163
4846.94,0.49722
4841.15,0.49338
4835.36,0.49007
4829.58,0.48780
4823.79,0.48417
4818.01,0.48200
4812.22,0.47830
4806.43,0.47679
4800.65,0.47467
4794.86,0.47340
4789.07,0.47211
4783.29,0.47168
4777.5,0.46971
4771.72,0.46928
4765.93,0.46792
4760.14,0.46815
4754.36,0.46820
4748.57,0.46869
4742.78,0.46727
4737,0.46824
4731.21,0.46896
4725.43,0.46981
4719.64,0.47109
4713.85,0.47262
4708.07,0.47281
4702.28,0.47320
4696.49,0.47434
4690.71,0.47552
4684.92,0.47707
4679.14,0.47974
4673.35,0.48198
4667.56,0.48346
4661.78,0.48643
4655.99,0.48811
4650.2,0.49193
4644.42,0.49466
4638.63,0.49684
4632.85,0.49820
4627.06,0.50136
4621.27,0.50485
4615.49,0.50641
4609.7,0.50874
4603.92,0.51102
4598.13,0.51326
4592.34,0.51421
4586.56,0.51608
4580.77,0.51784
4574.98,0.51926
4569.2,0.52060
4563.41,0.52317
4557.63,0.52381
4551.84,0.52486
4546.05,0.52670
4540.27,0.52743
4534.48,0.52777
4528.69,0.52904
4522.91,0.52831
4517.12,0.52741
4511.34,0.52703
4505.55,0.52528
4499.76,0.52191
4493.98,0.51927
4488.19,0.51545
4482.4,0.50904
4476.62,0.50150
4470.83,0.49261
4465.05,0.48479
4459.26,0.47644
4453.47,0.46671
4447.69,0.45761
4441.9,0.45003
4436.11,0.44259
4430.33,0.43572
4424.54,0.42979
4418.76,0.42470
4412.97,0.42189
4407.18,0.41920
4401.4,0.41774
4395.61,0.41765
4389.82,0.41845
4384.04,0.42034
4378.25,0.42260
4372.47,0.42422
4366.68,0.42566
4360.89,0.42624
4355.11,0.42429
4349.32,0.42290
4343.53,0.42141
4337.75,0.42034
4331.96,0.41873
4326.18,0.41661
4320.39,0.41562
4314.6,0.41484
4308.82,0.41201
4303.03,0.41082
4297.24,0.40893
4291.46,0.40727
4285.67,0.40521
4279.89,0.40453
4274.1,0.40384
4268.31,0.40422
4262.53,0.40481
4256.74,0.40661
4250.95,0.40701
4245.17,0.41019
4239.38,0.41004
4233.6,0.41107
4227.81,0.41211
4222.02,0.41277
4216.24,0.41356
4210.45,0.41497
4204.66,0.41566
4198.88,0.41627
4193.09,0.41693
4187.31,0.41776
4181.52,0.41880
4175.73,0.41958
4169.95,0.42134
4164.16,0.42314
4158.37,0.42330
4152.59,0.42274
4146.8,0.42158
4141.02,0.41959
4135.23,0.41694
4129.44,0.41418
4123.66,0.41147
4117.87,0.40675
4112.09,0.40285
4106.3,0.39811
4100.51,0.39321
4094.73,0.38858
4088.94,0.38337
4083.15,0.37750
4077.37,0.37266
4071.58,0.36622
4065.8,0.36052
4060.01,0.35639
4054.22,0.35060
4048.44,0.34523
4042.65,0.34155
4036.86,0.33796
4031.08,0.33493
4025.29,0.33235
4019.51,0.33142
4013.72,0.33071
4007.93,0.33195
4002.15,0.33347
3996.36,0.33500
3990.57,0.33649
3984.79,0.33792
3979,0.33897
3973.22,0.34159
3967.43,0.34437
3961.64,0.34735
3955.86,0.35066
3950.07,0.35329
3944.28,0.35624
3938.5,0.35984
3932.71,0.36191
3926.93,0.36564
3921.14,0.36778
3915.35,0.37164
3909.57,0.37347
3903.78,0.37704
3897.99,0.37897
3892.21,0.38101
3886.42,0.38349
3880.64,0.38618
3874.85,0.38876
3869.06,0.39145
3863.28,0.39508
3857.49,0.39771
3851.7,0.40228
3845.92,0.40434
3840.13,0.40648
3834.35,0.40920
3828.56,0.40995
3822.77,0.41055
3816.99,0.41107
3811.2,0.41091
3805.41,0.41131
3799.63,0.41245
3793.84,0.41112
3788.06,0.41140
3782.27,0.40997
3776.48,0.40926
3770.7,0.40814
3764.91,0.40728
3759.12,0.40504
3753.34,0.40337
3747.55,0.40057
3741.77,0.39817
3735.98,0.39511
3730.19,0.39055
3724.41,0.38657
3718.62,0.38095
3712.83,0.37364
3707.05,0.36506
3701.26,0.35584
3695.48,0.34435
3689.69,0.33119
3683.9,0.31416
3678.12,0.29602
3672.33,0.27548
3666.54,0.25485
3660.76,0.23638
3654.97,0.21786
3649.19,0.20149
3643.4,0.18623
3637.61,0.17265
3631.83,0.16147
3626.04,0.14844
3620.25,0.13819
3614.47,0.12828
3608.68,0.11797
3602.9,0.10996
3597.11,0.10254
3591.32,0.09436
3585.54,0.08798
3579.75,0.08222
3573.97,0.07768
3568.18,0.07258
3562.39,0.06870
3556.61,0.06543
3550.82,0.06191
3545.03,0.05811
3539.25,0.05629
3533.46,0.05416
3527.68,0.05212
3521.89,0.05041
3516.1,0.04898
3510.32,0.04633
3504.53,0.04542
3498.74,0.04419
3492.96,0.04309
3487.17,0.04191
3481.39,0.04037
3475.6,0.03989
3469.81,0.03957
3464.03,0.03945
3458.24,0.03882
3452.45,0.03843
3446.67,0.03809
3440.88,0.03766
3435.1,0.03787
3429.31,0.03738
3423.52,0.03689
3417.74,0.03682
3411.95,0.03733
3406.16,0.03779
3400.38,0.03752
3394.59,0.03756
3388.81,0.03716
3383.02,0.03698
3377.23,0.03759
3371.45,0.03774
3365.66,0.03790
3359.87,0.03779
3354.09,0.03709
3348.3,0.03768
3342.52,0.03854
3336.73,0.04010
3330.94,0.04079
3325.16,0.04069
3319.37,0.04148
3313.58,0.04233
3307.8,0.04288
3302.01,0.04373
3296.23,0.04399
3290.44,0.04440
3284.65,0.04525
3278.87,0.04629
3273.08,0.04845
3267.29,0.04939
3261.51,0.05106
3255.72,0.05251
3249.94,0.05437
3244.15,0.05638
3238.36,0.05745
3232.58,0.05942
3226.79,0.06224
3221,0.06273
3215.22,0.06560
3209.43,0.06797
3203.65,0.07005
3197.86,0.07242
3192.07,0.07496
3186.29,0.07709
3180.5,0.07898
3174.71,0.08139
3168.93,0.08434
3163.14,0.08689
3157.36,0.08904
3151.57,0.09116
3145.78,0.09380
3140,0.09690
3134.21,0.09910
3128.42,0.10168
3122.64,0.10404
3116.85,0.10651
3111.07,0.10867
3105.28,0.11092
3099.49,0.11290
3093.71,0.11486
3087.92,0.11683
3082.14,0.11932
3076.35,0.12127
3070.56,0.12295
3064.78,0.12511
3058.99,0.12658
3053.2,0.12809
3047.42,0.12962
3041.63,0.13064
3035.85,0.13097
3030.06,0.13004
3024.27,0.12853
3018.49,0.12545
3012.7,0.12194
3006.91,0.11822
3001.13,0.11459
2995.34,0.11145
2989.56,0.10735
2983.77,0.10139
2977.98,0.09414
2972.2,0.08641
2966.41,0.07896
2960.62,0.07540
2954.84,0.07165
2949.05,0.06829
2943.27,0.06511
2937.48,0.06318
2931.69,0.06214
2925.91,0.06193
2920.12,0.06268
2914.33,0.06300
2908.55,0.06371
2902.76,0.06504
2896.98,0.06652
2891.19,0.06856
2885.4,0.07008
2879.62,0.07207
2873.83,0.07278
2868.04,0.07348
2862.26,0.07495
2856.47,0.07630
2850.69,0.07934
2844.9,0.08586
2839.11,0.09359
2833.33,0.10210
2827.54,0.11094
2821.75,0.11905
2815.97,0.12575
2810.18,0.13145
2804.4,0.13631
2798.61,0.14089
2792.82,0.14386
2787.04,0.14638
2781.25,0.14815
2775.46,0.14978
2769.68,0.15173
2763.89,0.15274
2758.11,0.15470
2752.32,0.15515
2746.53,0.15507
2740.75,0.15533
2734.96,0.15595
2729.17,0.15718
2723.39,0.15892
2717.6,0.16029
2711.82,0.16320
2706.03,0.16628
2700.24,0.16902
2694.46,0.17128
2688.67,0.17432
2682.88,0.17624
2677.1,0.17804
2671.31,0.18031
2665.53,0.18163
2659.74,0.18279
2653.95,0.18428
2648.17,0.18565
2642.38,0.18780
2636.59,0.18979
2630.81,0.19180
2625.02,0.19448
2619.24,0.19650
2613.45,0.19855
2607.66,0.20031
2601.88,0.20172
2596.09,0.20360
2590.3,0.20529
2584.52,0.20632
2578.73,0.20742
2572.95,0.20800
2567.16,0.20859
2561.37,0.20887
2555.59,0.20968
2549.8,0.20984
2544.02,0.21065
2538.23,0.21150
2532.44,0.21286
2526.66,0.21475
2520.87,0.21579
2515.08,0.21691
2509.3,0.21920
2503.51,0.22218
2497.73,0.22464
2491.94,0.22690
2486.15,0.22878
2480.37,0.23092
2474.58,0.23341
2468.79,0.23555
2463.01,0.23700
2457.22,0.23886
2451.44,0.24116
2445.65,0.24386
2439.86,0.24667
2434.08,0.24926
2428.29,0.25191
2422.5,0.25480
2416.72,0.25786
2410.93,0.26136
2405.15,0.26465
2399.36,0.26762
2393.57,0.27027
2387.79,0.27276
2382,0.27525
2376.21,0.27733
2370.43,0.27983
2364.64,0.28188
2358.86,0.28420
2353.07,0.28599
2347.28,0.28840
2341.5,0.29018
2335.71,0.29219
2329.92,0.29316
2324.14,0.29404
2318.35,0.29462
2312.57,0.29474
2306.78,0.29428
2300.99,0.29411
2295.21,0.29342
2289.42,0.29303
2283.63,0.29318
2277.85,0.29214
2272.06,0.29094
2266.28,0.28878
2260.49,0.28623
2254.7,0.28411
2248.92,0.28221
2243.13,0.28104
2237.34,0.28075
2231.56,0.28094
2225.77,0.28212
2219.99,0.28270
2214.2,0.28319
2208.41,0.28255
2202.63,0.28092
2196.84,0.27865
2191.05,0.27555
2185.27,0.27151
2179.48,0.26688
2173.7,0.26237
2167.91,0.25745
2162.12,0.25382
2156.34,0.25074
2150.55,0.24862
2144.76,0.24705
2138.98,0.24588
2133.19,0.24558
2127.41,0.24673
2121.62,0.24737
2115.83,0.24885
2110.05,0.25056
2104.26,0.25216
2098.47,0.25408
2092.69,0.25613
2086.9,0.25730
2081.12,0.25765
2075.33,0.25728
2069.54,0.25668
2063.76,0.25668
2057.97,0.25699
2052.19,0.25731
2046.4,0.25871
2040.61,0.25991
2034.83,0.26161
2029.04,0.26430
2023.25,0.26776
2017.47,0.27151
2011.68,0.27555
2005.9,0.27873
2000.11,0.28138
1994.32,0.28333
1988.54,0.28490
1982.75,0.28567
1976.96,0.28599
1971.18,0.28524
1965.39,0.28450
1959.61,0.28370
1953.82,0.28424
1948.03,0.28642
1942.25,0.28906
1936.46,0.29243
1930.67,0.29553
1924.89,0.29865
1919.1,0.30065
1913.32,0.30203
1907.53,0.30281
1901.74,0.30300
1895.96,0.30256
1890.17,0.30269
1884.38,0.30152
1878.6,0.29972
1872.81,0.29810
1867.03,0.29537
1861.24,0.29234
1855.45,0.28906
1849.67,0.28481
1843.88,0.28000
1838.09,0.27496
1832.31,0.26886
1826.52,0.26203
1820.74,0.25369
1814.95,0.24473
1809.16,0.23333
1803.38,0.22096
1797.59,0.20663
1791.8,0.19113
1786.02,0.17424
1780.23,0.15344
1774.45,0.12899
1768.66,0.10017
1762.87,0.07686
1757.09,0.06119
1751.3,0.05219
1745.51,0.04741
1739.73,0.04729
1733.94,0.05048
1728.16,0.05527
1722.37,0.06060
1716.58,0.06711
1710.8,0.07490
1705.01,0.08435
1699.22,0.09404
1693.44,0.10012
1687.65,0.10174
1681.87,0.09787
1676.08,0.09280
1670.29,0.08726
1664.51,0.08419
1658.72,0.08247
1652.93,0.08291
1647.15,0.08322
1641.36,0.08334
1635.58,0.08324
1629.79,0.08213
1624,0.08108
1618.22,0.07960
1612.43,0.07611
1606.64,0.07111
1600.86,0.06618
1595.07,0.06233
1589.29,0.06702
1583.5,0.07979
1577.71,0.09584
1571.93,0.11022
1566.14,0.11975
1560.35,0.12404
1554.57,0.12504
1548.78,0.12452
1543,0.12316
1537.21,0.11846
1531.42,0.11128
1525.64,0.09903
1519.85,0.08047
1514.07,0.06621
1508.28,0.05964
1502.49,0.05911
1496.71,0.06615
1490.92,0.07303
1485.13,0.07454
1479.35,0.06768
1473.56,0.05599
1467.78,0.04648
1461.99,0.04499
1456.2,0.04616
1450.42,0.04781
1444.63,0.04865
1438.84,0.04755
1433.06,0.04492
1427.27,0.04349
1421.49,0.04481
1415.7,0.04818
1409.91,0.05077
1404.13,0.05145
1398.34,0.05008
1392.55,0.04750
1386.77,0.04409
1380.98,0.04064
1375.2,0.04020
1369.41,0.04114
1363.62,0.04310
1357.84,0.04515
1352.05,0.04592
1346.26,0.04549
1340.48,0.04380
1334.69,0.04273
1328.91,0.04298
1323.12,0.04312
1317.33,0.04364
1311.55,0.04575
1305.76,0.04788
1299.97,0.04857
1294.19,0.04719
1288.4,0.04425
1282.62,0.04155
1276.83,0.03997
1271.04,0.03826
1265.26,0.03740
1259.47,0.03668
1253.68,0.03616
1247.9,0.03608
1242.11,0.03610
1236.33,0.03730
1230.54,0.03891
1224.75,0.04017
1218.97,0.04196
1213.18,0.04431
1207.39,0.04491
1201.61,0.04606
1195.82,0.04552
1190.04,0.04405
1184.25,0.04068
1178.46,0.03757
1172.68,0.03430
1166.89,0.03490
1161.1,0.03708
1155.32,0.03710
1149.53,0.03717
1143.75,0.03508
1137.96,0.03210
1132.17,0.03037
1126.39,0.03151
1120.6,0.03330
1114.81,0.03355
1109.03,0.03505
1103.24,0.03514
1097.46,0.03545
1091.67,0.03548
1085.88,0.03474
1080.1,0.03593
1074.31,0.03792
1068.52,0.03987
1062.74,0.04505
1056.95,0.04792
1051.17,0.04960
1045.38,0.04964
1039.59,0.05020
1033.81,0.05351
1028.02,0.05494
1022.24,0.05661
1016.45,0.05822
1010.66,0.06029
1004.88,0.06126
999.09,0.06289
993.304,0.06483
987.518,0.06911
981.731,0.07637
975.945,0.08293
970.159,0.08700
964.373,0.09220
958.586,0.09992
952.8,0.10813
947.014,0.11434
941.228,0.11630
935.441,0.11689
929.655,0.11521
923.869,0.11430
918.083,0.11211
912.297,0.10822
906.51,0.10258
900.724,0.09649
894.938,0.09825
889.152,0.10663
883.365,0.11414
877.579,0.11718
871.793,0.12021
866.007,0.12284
860.22,0.12531
854.434,0.12416
848.648,0.12231
842.862,0.11937
837.075,0.11578
831.289,0.11566
825.503,0.11678
819.717,0.11840
813.931,0.11914
808.144,0.11986
802.358,0.11943
796.572,0.11904
790.786,0.11846
784.999,0.11674
779.213,0.11308
773.427,0.11055
767.641,0.10606
761.854,0.10263
756.068,0.09796
750.282,0.09430
744.496,0.09133
738.709,0.08797
732.923,0.08442
727.137,0.08099
721.351,0.07794
715.565,0.07589
709.778,0.07503
703.992,0.07476
698.206,0.07368
692.42,0.07349
686.633,0.07078
680.847,0.06774
675.061,0.06389
669.275,0.06295
663.488,0.06338
657.702,0.06526
651.916,0.06517
646.13,0.06487
640.343,0.06144
634.557,0.05798
628.771,0.05926
622.985,0.05581
617.198,0.05679
611.412,0.05870
605.626,0.05837
599.84,0.06193