File: 01_Data/Basswood_Panel/FTIR/IS/Basswood_Panel_IS_S_220928_R4.dpt
7497.03,0.84078
7491.25,0.84528
7485.46,0.83824
7479.67,0.84412
7473.89,0.83751
7468.1,0.83798
7462.32,0.83525
7456.53,0.82272
7450.74,0.81641
7444.96,0.81389
7439.17,0.81815
7433.38,0.81741
7427.6,0.80752
7421.81,0.81137
7416.03,0.80416
7410.24,0.81047
7404.45,0.80971
7398.67,0.79172
7392.88,0.80152
7387.09,0.80216
7381.31,0.78892
7375.52,0.79076
7369.74,0.80191
7363.95,0.78957
7358.16,0.79342
7352.38,0.78712
7346.59,0.78935
7340.8,0.77652
7335.02,0.78064
7329.23,0.78413
7323.45,0.77677
7317.66,0.78072
7311.87,0.77113
7306.09,0.76930
7300.3,0.78286
7294.51,0.77885
7288.73,0.77807
7282.94,0.77112
7277.16,0.76369
7271.37,0.76999
7265.58,0.76781
7259.8,0.77755
7254.01,0.77424
7248.22,0.76290
7242.44,0.77089
7236.65,0.76907
7230.87,0.76346
7225.08,0.76712
7219.29,0.77490
7213.51,0.76982
7207.72,0.75283
7201.93,0.76111
7196.15,0.75539
7190.36,0.76027
7184.58,0.75508
7178.79,0.75074
7173,0.74967
7167.22,0.74551
7161.43,0.74684
7155.65,0.74478
7149.86,0.73565
7144.07,0.73660
7138.29,0.74076
7132.5,0.73043
7126.71,0.72689
7120.93,0.72780
7115.14,0.71859
7109.36,0.71960
7103.57,0.70845
7097.78,0.70119
7092,0.70125
7086.21,0.69824
7080.42,0.69351
7074.64,0.69612
7068.85,0.68180
7063.07,0.67887
7057.28,0.66647
7051.49,0.67579
7045.71,0.66341
7039.92,0.65814
7034.13,0.65495
7028.35,0.65289
7022.56,0.65176
7016.78,0.64150
7010.99,0.63804
7005.2,0.63178
6999.42,0.63383
6993.63,0.63575
6987.84,0.63019
6982.06,0.62413
6976.27,0.62691
6970.49,0.62752
6964.7,0.62354
6958.91,0.62015
6953.13,0.61485
6947.34,0.61983
6941.55,0.62019
6935.77,0.61414
6929.98,0.61466
6924.2,0.62167
6918.41,0.61690
6912.62,0.61559
6906.84,0.62199
6901.05,0.61830
6895.26,0.62006
6889.48,0.61720
6883.69,0.61721
6877.91,0.61692
6872.12,0.61944
6866.33,0.61784
6860.55,0.62451
6854.76,0.61777
6848.97,0.61810
6843.19,0.62202
6837.4,0.61823
6831.62,0.61432
6825.83,0.61835
6820.04,0.61207
6814.26,0.61253
6808.47,0.61301
6802.68,0.61320
6796.9,0.61336
6791.11,0.61643
6785.33,0.61237
6779.54,0.61391
6773.75,0.61435
6767.97,0.61766
6762.18,0.61610
6756.39,0.61632
6750.61,0.61656
6744.82,0.61694
6739.04,0.61475
6733.25,0.61700
6727.46,0.62069
6721.68,0.62361
6715.89,0.62170
6710.1,0.62275
6704.32,0.62005
6698.53,0.61661
6692.75,0.62244
6686.96,0.62210
6681.17,0.62381
6675.39,0.62382
6669.6,0.62440
6663.82,0.62174
6658.03,0.63005
6652.24,0.62587
6646.46,0.62792
6640.67,0.62726
6634.88,0.62768
6629.1,0.62966
6623.31,0.63182
6617.53,0.63012
6611.74,0.63384
6605.95,0.63257
6600.17,0.63365
6594.38,0.64371
6588.59,0.63822
6582.81,0.63887
6577.02,0.63969
6571.24,0.64277
6565.45,0.64354
6559.66,0.64329
6553.88,0.64187
6548.09,0.64047
6542.3,0.64413
6536.52,0.64673
6530.73,0.64337
6524.95,0.64591
6519.16,0.64620
6513.37,0.64144
6507.59,0.64505
6501.8,0.64944
6496.01,0.64661
6490.23,0.64760
6484.44,0.65163
6478.66,0.64765
6472.87,0.64975
6467.08,0.65152
6461.3,0.64939
6455.51,0.64967
6449.72,0.65054
6443.94,0.65173
6438.15,0.64951
6432.37,0.65038
6426.58,0.65415
6420.79,0.65430
6415.01,0.65073
6409.22,0.65353
6403.43,0.65243
6397.65,0.65436
6391.86,0.65119
6386.08,0.65504
6380.29,0.65486
6374.5,0.65590
6368.72,0.65332
6362.93,0.65501
6357.14,0.65376
6351.36,0.65858
6345.57,0.65685
6339.79,0.65759
6334,0.65844
6328.21,0.65775
6322.43,0.65924
6316.64,0.65562
6310.85,0.65734
6305.07,0.65729
6299.28,0.66128
6293.5,0.66430
6287.71,0.66084
6281.92,0.66418
6276.14,0.66678
6270.35,0.66658
6264.56,0.66777
6258.78,0.66806
6252.99,0.67236
6247.21,0.67101
6241.42,0.67477
6235.63,0.67525
6229.85,0.67969
6224.06,0.67909
6218.27,0.67898
6212.49,0.68218
6206.7,0.68292
6200.92,0.68508
6195.13,0.68755
6189.34,0.68807
6183.56,0.69022
6177.77,0.68946
6171.98,0.69143
6166.2,0.69378
6160.41,0.69360
6154.63,0.69541
6148.84,0.69915
6143.05,0.69334
6137.27,0.69813
6131.48,0.69807
6125.7,0.70270
6119.91,0.70256
6114.12,0.70165
6108.34,0.70211
6102.55,0.70143
6096.76,0.70065
6090.98,0.70274
6085.19,0.70224
6079.41,0.70164
6073.62,0.70339
6067.83,0.70258
6062.05,0.70197
6056.26,0.70053
6050.47,0.69677
6044.69,0.69685
6038.9,0.69731
6033.12,0.69316
6027.33,0.69549
6021.54,0.69297
6015.76,0.69075
6009.97,0.68847
6004.18,0.68728
5998.4,0.68602
5992.61,0.68421
5986.83,0.68558
5981.04,0.68201
5975.25,0.67993
5969.47,0.67948
5963.68,0.67699
5957.89,0.67617
5952.11,0.67605
5946.32,0.67390
5940.54,0.67353
5934.75,0.67279
5928.96,0.67263
5923.18,0.67444
5917.39,0.67430
5911.6,0.67336
5905.82,0.67084
5900.03,0.67127
5894.25,0.66955
5888.46,0.66593
5882.67,0.66552
5876.89,0.66190
5871.1,0.66294
5865.31,0.66172
5859.53,0.66007
5853.74,0.66007
5847.96,0.65921
5842.17,0.65451
5836.38,0.65412
5830.6,0.65285
5824.81,0.65176
5819.02,0.65056
5813.24,0.64456
5807.45,0.64482
5801.67,0.64469
5795.88,0.64850
5790.09,0.64863
5784.31,0.64760
5778.52,0.65101
5772.73,0.65563
5766.95,0.65460
5761.16,0.65702
5755.38,0.65863
5749.59,0.65884
5743.8,0.66109
5738.02,0.66218
5732.23,0.65830
5726.44,0.66317
5720.66,0.65996
5714.87,0.65938
5709.09,0.66043
5703.3,0.66069
5697.51,0.66136
5691.73,0.65972
5685.94,0.66101
5680.15,0.65568
5674.37,0.65891
5668.58,0.65762
5662.8,0.65834
5657.01,0.65780
5651.22,0.65944
5645.44,0.66085
5639.65,0.66253
5633.87,0.66083
5628.08,0.66040
5622.29,0.66137
5616.51,0.66189
5610.72,0.66332
5604.93,0.66292
5599.15,0.66293
5593.36,0.66284
5587.58,0.66487
5581.79,0.66398
5576,0.66228
5570.22,0.66499
5564.43,0.66652
5558.64,0.66533
5552.86,0.66399
5547.07,0.66822
5541.29,0.66784
5535.5,0.66667
5529.71,0.66889
5523.93,0.66805
5518.14,0.66800
5512.35,0.66784
5506.57,0.66876
5500.78,0.67111
5495,0.67086
5489.21,0.67123
5483.42,0.67098
5477.64,0.66879
5471.85,0.67103
5466.06,0.67180
5460.28,0.67113
5454.49,0.67378
5448.71,0.67479
5442.92,0.67642
5437.13,0.67798
5431.35,0.68031
5425.56,0.67987
5419.77,0.68039
5413.99,0.68300
5408.2,0.68373
5402.42,0.68266
5396.63,0.68209
5390.84,0.68496
5385.06,0.68418
5379.27,0.68467
5373.48,0.68465
5367.7,0.68297
5361.91,0.68357
5356.13,0.68114
5350.34,0.68072
5344.55,0.68072
5338.77,0.67918
5332.98,0.67631
5327.19,0.67590
5321.41,0.67272
5315.62,0.66666
5309.84,0.66312
5304.05,0.65515
5298.26,0.64835
5292.48,0.64224
5286.69,0.63260
5280.9,0.62488
5275.12,0.61348
5269.33,0.60185
5263.55,0.59058
5257.76,0.58120
5251.97,0.57284
5246.19,0.56209
5240.4,0.55571
5234.61,0.54974
5228.83,0.54441
5223.04,0.54088
5217.26,0.53845
5211.47,0.53493
5205.68,0.53278
5199.9,0.53297
5194.11,0.53386
5188.32,0.53449
5182.54,0.53550
5176.75,0.53607
5170.97,0.54000
5165.18,0.54350
5159.39,0.54541
5153.61,0.54846
5147.82,0.55111
5142.03,0.55289
5136.25,0.55872
5130.46,0.55987
5124.68,0.56248
5118.89,0.56613
5113.1,0.56986
5107.32,0.57250
5101.53,0.57612
5095.75,0.57961
5089.96,0.58178
5084.17,0.58487
5078.39,0.58648
5072.6,0.58839
5066.81,0.59204
5061.03,0.59337
5055.24,0.59644
5049.46,0.59823
5043.67,0.60119
5037.88,0.60110
5032.1,0.60367
5026.31,0.60539
5020.52,0.60605
5014.74,0.60577
5008.95,0.60727
5003.17,0.60665
4997.38,0.60691
4991.59,0.60701
4985.81,0.60585
4980.02,0.60418
4974.23,0.60144
4968.45,0.59891
4962.66,0.59647
4956.88,0.59291
4951.09,0.58783
4945.3,0.58401
4939.52,0.57984
4933.73,0.57393
4927.94,0.56813
4922.16,0.56339
4916.37,0.55691
4910.59,0.55288
4904.8,0.54659
4899.01,0.54157
4893.23,0.53659
4887.44,0.53027
4881.65,0.52573
4875.87,0.52169
4870.08,0.51575
4864.3,0.51188
4858.51,0.50661
4852.72,0.50446
4846.94,0.49954
4841.15,0.49661
4835.36,0.49226
4829.58,0.48811
4823.79,0.48550
4818.01,0.48315
4812.22,0.48008
4806.43,0.47780
4800.65,0.47587
4794.86,0.47513
4789.07,0.47521
4783.29,0.47331
4777.5,0.47158
4771.72,0.47095
4765.93,0.47053
4760.14,0.46949
4754.36,0.46938
4748.57,0.46988
4742.78,0.47026
4737,0.46950
4731.21,0.47031
4725.43,0.47203
4719.64,0.47249
4713.85,0.47409
4708.07,0.47388
4702.28,0.47503
4696.49,0.47519
4690.71,0.47682
4684.92,0.47884
4679.14,0.48037
4673.35,0.48179
4667.56,0.48491
4661.78,0.48739
4655.99,0.49110
4650.2,0.49383
4644.42,0.49588
4638.63,0.49807
4632.85,0.50113
4627.06,0.50337
4621.27,0.50503
4615.49,0.50691
4609.7,0.51039
4603.92,0.51186
4598.13,0.51362
4592.34,0.51563
4586.56,0.51764
4580.77,0.51891
4574.98,0.52089
4569.2,0.52342
4563.41,0.52376
4557.63,0.52465
4551.84,0.52615
4546.05,0.52736
4540.27,0.52797
4534.48,0.52877
4528.69,0.52961
4522.91,0.53010
4517.12,0.53034
4511.34,0.52894
4505.55,0.52686
4499.76,0.52466
4493.98,0.52074
4488.19,0.51583
4482.4,0.51024
4476.62,0.50297
4470.83,0.49474
4465.05,0.48622
4459.26,0.47818
4453.47,0.46876
4447.69,0.46032
4441.9,0.45143
4436.11,0.44425
4430.33,0.43661
4424.54,0.43137
4418.76,0.42703
4412.97,0.42319
4407.18,0.42036
4401.4,0.41970
4395.61,0.41931
4389.82,0.42023
4384.04,0.42239
4378.25,0.42320
4372.47,0.42585
4366.68,0.42757
4360.89,0.42780
4355.11,0.42669
4349.32,0.42417
4343.53,0.42217
4337.75,0.42148
4331.96,0.41941
4326.18,0.41780
4320.39,0.41680
4314.6,0.41622
4308.82,0.41384
4303.03,0.41150
4297.24,0.40965
4291.46,0.40803
4285.67,0.40677
4279.89,0.40522
4274.1,0.40487
4268.31,0.40457
4262.53,0.40689
4256.74,0.40806
4250.95,0.40990
4245.17,0.41068
4239.38,0.41143
4233.6,0.41327
4227.81,0.41362
4222.02,0.41375
4216.24,0.41529
4210.45,0.41599
4204.66,0.41657
4198.88,0.41760
4193.09,0.41816
4187.31,0.41855
4181.52,0.42005
4175.73,0.42114
4169.95,0.42232
4164.16,0.42368
4158.37,0.42375
4152.59,0.42318
4146.8,0.42188
4141.02,0.42000
4135.23,0.41767
4129.44,0.41448
4123.66,0.41118
4117.87,0.40740
4112.09,0.40312
4106.3,0.39878
4100.51,0.39425
4094.73,0.38849
4088.94,0.38367
4083.15,0.37861
4077.37,0.37352
4071.58,0.36813
4065.8,0.36131
4060.01,0.35735
4054.22,0.35142
4048.44,0.34693
4042.65,0.34257
4036.86,0.33866
4031.08,0.33586
4025.29,0.33325
4019.51,0.33168
4013.72,0.33178
4007.93,0.33201
4002.15,0.33388
3996.36,0.33549
3990.57,0.33704
3984.79,0.33827
3979,0.33962
3973.22,0.34225
3967.43,0.34446
3961.64,0.34821
3955.86,0.35094
3950.07,0.35359
3944.28,0.35628
3938.5,0.35980
3932.71,0.36341
3926.93,0.36534
3921.14,0.36838
3915.35,0.37175
3909.57,0.37424
3903.78,0.37709
3897.99,0.37961
3892.21,0.38155
3886.42,0.38474
3880.64,0.38613
3874.85,0.38873
3869.06,0.39228
3863.28,0.39540
3857.49,0.39879
3851.7,0.40182
3845.92,0.40457
3840.13,0.40635
3834.35,0.40811
3828.56,0.41010
3822.77,0.41014
3816.99,0.41109
3811.2,0.41180
3805.41,0.41112
3799.63,0.41097
3793.84,0.41084
3788.06,0.41037
3782.27,0.40997
3776.48,0.40888
3770.7,0.40771
3764.91,0.40670
3759.12,0.40439
3753.34,0.40194
3747.55,0.40091
3741.77,0.39757
3735.98,0.39423
3730.19,0.39027
3724.41,0.38552
3718.62,0.37881
3712.83,0.37252
3707.05,0.36395
3701.26,0.35429
3695.48,0.34232
3689.69,0.32866
3683.9,0.31140
3678.12,0.29318
3672.33,0.27244
3666.54,0.25187
3660.76,0.23259
3654.97,0.21469
3649.19,0.19798
3643.4,0.18375
3637.61,0.16954
3631.83,0.15790
3626.04,0.14548
3620.25,0.13519
3614.47,0.12653
3608.68,0.11605
3602.9,0.10827
3597.11,0.10045
3591.32,0.09355
3585.54,0.08707
3579.75,0.08152
3573.97,0.07649
3568.18,0.07235
3562.39,0.06843
3556.61,0.06493
3550.82,0.06163
3545.03,0.05886
3539.25,0.05580
3533.46,0.05374
3527.68,0.05225
3521.89,0.05076
3516.1,0.04867
3510.32,0.04676
3504.53,0.04564
3498.74,0.04476
3492.96,0.04324
3487.17,0.04164
3481.39,0.04121
3475.6,0.03987
3469.81,0.03958
3464.03,0.03876
3458.24,0.03821
3452.45,0.03840
3446.67,0.03829
3440.88,0.03793
3435.1,0.03742
3429.31,0.03758
3423.52,0.03745
3417.74,0.03718
3411.95,0.03760
3406.16,0.03717
3400.38,0.03775
3394.59,0.03723
3388.81,0.03748
3383.02,0.03693
3377.23,0.03657
3371.45,0.03723
3365.66,0.03713
3359.87,0.03720
3354.09,0.03818
3348.3,0.03808
3342.52,0.03840
3336.73,0.03855
3330.94,0.04048
3325.16,0.04092
3319.37,0.04213
3313.58,0.04300
3307.8,0.04246
3302.01,0.04414
3296.23,0.04437
3290.44,0.04431
3284.65,0.04489
3278.87,0.04671
3273.08,0.04795
3267.29,0.04891
3261.51,0.05051
3255.72,0.05264
3249.94,0.05415
3244.15,0.05643
3238.36,0.05740
3232.58,0.06014
3226.79,0.06099
3221,0.06326
3215.22,0.06578
3209.43,0.06718
3203.65,0.06997
3197.86,0.07220
3192.07,0.07360
3186.29,0.07667
3180.5,0.07867
3174.71,0.08065
3168.93,0.08407
3163.14,0.08632
3157.36,0.08873
3151.57,0.09099
3145.78,0.09400
3140,0.09611
3134.21,0.09853
3128.42,0.10073
3122.64,0.10296
3116.85,0.10517
3111.07,0.10718
3105.28,0.10952
3099.49,0.11268
3093.71,0.11457
3087.92,0.11666
3082.14,0.11856
3076.35,0.12014
3070.56,0.12191
3064.78,0.12387
3058.99,0.12598
3053.2,0.12804
3047.42,0.12903
3041.63,0.13042
3035.85,0.12998
3030.06,0.12915
3024.27,0.12760
3018.49,0.12519
3012.7,0.12219
3006.91,0.11760
3001.13,0.11441
2995.34,0.11138
2989.56,0.10757
2983.77,0.10141
2977.98,0.09363
2972.2,0.08540
2966.41,0.07928
2960.62,0.07537
2954.84,0.07170
2949.05,0.06810
2943.27,0.06542
2937.48,0.06341
2931.69,0.06299
2925.91,0.06169
2920.12,0.06200
2914.33,0.06317
2908.55,0.06411
2902.76,0.06501
2896.98,0.06634
2891.19,0.06784
2885.4,0.07044
2879.62,0.07132
2873.83,0.07256
2868.04,0.07342
2862.26,0.07498
2856.47,0.07597
2850.69,0.07954
2844.9,0.08640
2839.11,0.09405
2833.33,0.10256
2827.54,0.11110
2821.75,0.11927
2815.97,0.12569
2810.18,0.13143
2804.4,0.13595
2798.61,0.14026
2792.82,0.14366
2787.04,0.14626
2781.25,0.14835
2775.46,0.14951
2769.68,0.15153
2763.89,0.15271
2758.11,0.15343
2752.32,0.15459
2746.53,0.15476
2740.75,0.15525
2734.96,0.15561
2729.17,0.15689
2723.39,0.15876
2717.6,0.16035
2711.82,0.16305
2706.03,0.16572
2700.24,0.16869
2694.46,0.17149
2688.67,0.17409
2682.88,0.17625
2677.1,0.17838
2671.31,0.18010
2665.53,0.18141
2659.74,0.18254
2653.95,0.18416
2648.17,0.18609
2642.38,0.18800
2636.59,0.18985
2630.81,0.19251
2625.02,0.19443
2619.24,0.19635
2613.45,0.19830
2607.66,0.20002
2601.88,0.20214
2596.09,0.20394
2590.3,0.20505
2584.52,0.20631
2578.73,0.20742
2572.95,0.20819
2567.16,0.20851
2561.37,0.20887
2555.59,0.20938
2549.8,0.21071
2544.02,0.21045
2538.23,0.21187
2532.44,0.21311
2526.66,0.21471
2520.87,0.21600
2515.08,0.21688
2509.3,0.21922
2503.51,0.22156
2497.73,0.22447
2491.94,0.22741
2486.15,0.22925
2480.37,0.23175
2474.58,0.23353
2468.79,0.23537
2463.01,0.23732
2457.22,0.23870
2451.44,0.24116
2445.65,0.24355
2439.86,0.24665
2434.08,0.24926
2428.29,0.25182
2422.5,0.25492
2416.72,0.25815
2410.93,0.26137
2405.15,0.26465
2399.36,0.26764
2393.57,0.27043
2387.79,0.27308
2382,0.27541
2376.21,0.27766
2370.43,0.27973
2364.64,0.28132
2358.86,0.28345
2353.07,0.28575
2347.28,0.28831
2341.5,0.29019
2335.71,0.29166
2329.92,0.29256
2324.14,0.29370
2318.35,0.29454
2312.57,0.29488
2306.78,0.29442
2300.99,0.29359
2295.21,0.29338
2289.42,0.29263
2283.63,0.29236
2277.85,0.29166
2272.06,0.29015
2266.28,0.28798
2260.49,0.28546
2254.7,0.28371
2248.92,0.28170
2243.13,0.28058
2237.34,0.28039
2231.56,0.28085
2225.77,0.28142
2219.99,0.28218
2214.2,0.28223
2208.41,0.28208
2202.63,0.28065
2196.84,0.27832
2191.05,0.27515
2185.27,0.27107
2179.48,0.26656
2173.7,0.26145
2167.91,0.25699
2162.12,0.25328
2156.34,0.25012
2150.55,0.24778
2144.76,0.24688
2138.98,0.24560
2133.19,0.24534
2127.41,0.24584
2121.62,0.24675
2115.83,0.24803
2110.05,0.24990
2104.26,0.25144
2098.47,0.25372
2092.69,0.25541
2086.9,0.25643
2081.12,0.25693
2075.33,0.25659
2069.54,0.25608
2063.76,0.25592
2057.97,0.25599
2052.19,0.25688
2046.4,0.25784
2040.61,0.25905
2034.83,0.26089
2029.04,0.26353
2023.25,0.26749
2017.47,0.27099
2011.68,0.27465
2005.9,0.27790
2000.11,0.28040
1994.32,0.28247
1988.54,0.28442
1982.75,0.28537
1976.96,0.28508
1971.18,0.28488
1965.39,0.28376
1959.61,0.28307
1953.82,0.28357
1948.03,0.28533
1942.25,0.28848
1936.46,0.29187
1930.67,0.29478
1924.89,0.29767
1919.1,0.30016
1913.32,0.30164
1907.53,0.30209
1901.74,0.30240
1895.96,0.30228
1890.17,0.30167
1884.38,0.30070
1878.6,0.29931
1872.81,0.29715
1867.03,0.29492
1861.24,0.29209
1855.45,0.28870
1849.67,0.28476
1843.88,0.27964
1838.09,0.27446
1832.31,0.26856
1826.52,0.26183
1820.74,0.25369
1814.95,0.24425
1809.16,0.23364
1803.38,0.22105
1797.59,0.20678
1791.8,0.19116
1786.02,0.17417
1780.23,0.15393
1774.45,0.12944
1768.66,0.10045
1762.87,0.07721
1757.09,0.06183
1751.3,0.05248
1745.51,0.04704
1739.73,0.04740
1733.94,0.05055
1728.16,0.05490
1722.37,0.06006
1716.58,0.06676
1710.8,0.07462
1705.01,0.08408
1699.22,0.09367
1693.44,0.09996
1687.65,0.10142
1681.87,0.09763
1676.08,0.09220
1670.29,0.08686
1664.51,0.08356
1658.72,0.08220
1652.93,0.08266
1647.15,0.08273
1641.36,0.08288
1635.58,0.08221
1629.79,0.08137
1624,0.08042
1618.22,0.07889
1612.43,0.07585
1606.64,0.07099
1600.86,0.06609
1595.07,0.06198
1589.29,0.06706
1583.5,0.08052
1577.71,0.09621
1571.93,0.11044
1566.14,0.11946
1560.35,0.12426
1554.57,0.12566
1548.78,0.12449
1543,0.12281
1537.21,0.11842
1531.42,0.11113
1525.64,0.09913
1519.85,0.08083
1514.07,0.06601
1508.28,0.05957
1502.49,0.05920
1496.71,0.06580
1490.92,0.07306
1485.13,0.07449
1479.35,0.06785
1473.56,0.05631
1467.78,0.04677
1461.99,0.04514
1456.2,0.04634
1450.42,0.04776
1444.63,0.04906
1438.84,0.04762
1433.06,0.04465
1427.27,0.04362
1421.49,0.04507
1415.7,0.04843
1409.91,0.05063
1404.13,0.05124
1398.34,0.05022
1392.55,0.04793
1386.77,0.04392
1380.98,0.04077
1375.2,0.04023
1369.41,0.04110
1363.62,0.04317
1357.84,0.04491
1352.05,0.04594
1346.26,0.04552
1340.48,0.04368
1334.69,0.04258
1328.91,0.04256
1323.12,0.04299
1317.33,0.04419
1311.55,0.04603
1305.76,0.04808
1299.97,0.04854
1294.19,0.04736
1288.4,0.04431
1282.62,0.04159
1276.83,0.03977
1271.04,0.03815
1265.26,0.03706
1259.47,0.03653
1253.68,0.03586
1247.9,0.03567
1242.11,0.03608
1236.33,0.03713
1230.54,0.03851
1224.75,0.04022
1218.97,0.04258
1213.18,0.04439
1207.39,0.04552
1201.61,0.04545
1195.82,0.04566
1190.04,0.04428
1184.25,0.04074
1178.46,0.03709
1172.68,0.03469
1166.89,0.03490
1161.1,0.03593
1155.32,0.03686
1149.53,0.03601
1143.75,0.03508
1137.96,0.03254
1132.17,0.03063
1126.39,0.03174
1120.6,0.03261
1114.81,0.03313
1109.03,0.03474
1103.24,0.03541
1097.46,0.03565
1091.67,0.03470
1085.88,0.03525
1080.1,0.03626
1074.31,0.03825
1068.52,0.04016
1062.74,0.04503
1056.95,0.04821
1051.17,0.04898
1045.38,0.04934
1039.59,0.05056
1033.81,0.05410
1028.02,0.05562
1022.24,0.05693
1016.45,0.05791
1010.66,0.06031
1004.88,0.06121
999.09,0.06296
993.304,0.06495
987.518,0.06864
981.731,0.07613
975.945,0.08281
970.159,0.08706
964.373,0.09202
958.586,0.09976
952.8,0.10815
947.014,0.11421
941.228,0.11627
935.441,0.11507
929.655,0.11467
923.869,0.11358
918.083,0.11149
912.297,0.10752
906.51,0.10229
900.724,0.09586
894.938,0.09811
889.152,0.10702
883.365,0.11475
877.579,0.11671
871.793,0.11897
866.007,0.12289
860.22,0.12505
854.434,0.12334
848.648,0.12176
842.862,0.11862
837.075,0.11569
831.289,0.11463
825.503,0.11589
819.717,0.11671
813.931,0.11848
808.144,0.11890
802.358,0.11836
796.572,0.11845
790.786,0.11786
784.999,0.11643
779.213,0.11290
773.427,0.10957
767.641,0.10520
761.854,0.10146
756.068,0.09616
750.282,0.09311
744.496,0.09024
738.709,0.08707
732.923,0.08357
727.137,0.08034
721.351,0.07706
715.565,0.07534
709.778,0.07463
703.992,0.07446
698.206,0.07331
692.42,0.07234
686.633,0.07137
680.847,0.06689
675.061,0.06380
669.275,0.06318
663.488,0.06408
657.702,0.06539
651.916,0.06416
646.13,0.06295
640.343,0.05985
634.557,0.05933
628.771,0.05785
622.985,0.05485
617.198,0.05702
611.412,0.05873
605.626,0.05865
599.84,0.06108