File: 01_Data/Basswood_Panel/FTIR/IS/Basswood_Panel_IS_S_220928_R6.dpt
7497.03,0.84603
7491.25,0.83967
7485.46,0.83942
7479.67,0.84151
7473.89,0.83778
7468.1,0.83626
7462.32,0.82687
7456.53,0.82269
7450.74,0.82625
7444.96,0.81988
7439.17,0.82118
7433.38,0.81939
7427.6,0.82022
7421.81,0.81969
7416.03,0.81828
7410.24,0.81261
7404.45,0.81025
7398.67,0.80108
7392.88,0.80070
7387.09,0.80239
7381.31,0.79593
7375.52,0.79876
7369.74,0.79288
7363.95,0.79332
7358.16,0.79616
7352.38,0.79703
7346.59,0.79224
7340.8,0.79550
7335.02,0.79243
7329.23,0.77503
7323.45,0.77360
7317.66,0.76917
7311.87,0.78144
7306.09,0.77605
7300.3,0.77943
7294.51,0.77789
7288.73,0.76883
7282.94,0.77327
7277.16,0.76960
7271.37,0.76743
7265.58,0.78023
7259.8,0.77412
7254.01,0.76744
7248.22,0.77344
7242.44,0.76551
7236.65,0.76459
7230.87,0.76992
7225.08,0.76153
7219.29,0.76870
7213.51,0.76728
7207.72,0.76453
7201.93,0.76121
7196.15,0.76465
7190.36,0.75932
7184.58,0.76547
7178.79,0.76077
7173,0.75776
7167.22,0.74592
7161.43,0.75751
7155.65,0.74836
7149.86,0.74054
7144.07,0.73786
7138.29,0.74198
7132.5,0.73258
7126.71,0.73790
7120.93,0.72852
7115.14,0.72142
7109.36,0.71211
7103.57,0.71163
7097.78,0.71334
7092,0.70762
7086.21,0.69786
7080.42,0.69735
7074.64,0.69385
7068.85,0.68991
7063.07,0.68039
7057.28,0.67588
7051.49,0.66655
7045.71,0.66454
7039.92,0.66600
7034.13,0.65904
7028.35,0.64879
7022.56,0.64748
7016.78,0.65111
7010.99,0.64485
7005.2,0.64161
6999.42,0.63911
6993.63,0.63681
6987.84,0.62692
6982.06,0.63082
6976.27,0.62859
6970.49,0.62441
6964.7,0.62950
6958.91,0.62316
6953.13,0.62243
6947.34,0.62177
6941.55,0.61828
6935.77,0.62062
6929.98,0.62228
6924.2,0.62165
6918.41,0.61915
6912.62,0.61838
6906.84,0.62340
6901.05,0.61931
6895.26,0.62193
6889.48,0.62087
6883.69,0.61792
6877.91,0.61106
6872.12,0.62173
6866.33,0.61878
6860.55,0.61949
6854.76,0.61882
6848.97,0.61543
6843.19,0.61752
6837.4,0.62057
6831.62,0.61406
6825.83,0.61757
6820.04,0.61722
6814.26,0.61393
6808.47,0.61684
6802.68,0.61804
6796.9,0.61369
6791.11,0.61466
6785.33,0.61793
6779.54,0.61556
6773.75,0.61895
6767.97,0.61986
6762.18,0.61296
6756.39,0.61303
6750.61,0.60831
6744.82,0.61166
6739.04,0.61694
6733.25,0.61709
6727.46,0.61709
6721.68,0.61969
6715.89,0.61951
6710.1,0.61692
6704.32,0.61903
6698.53,0.62351
6692.75,0.62258
6686.96,0.62435
6681.17,0.62001
6675.39,0.62248
6669.6,0.62777
6663.82,0.62667
6658.03,0.62596
6652.24,0.62587
6646.46,0.62479
6640.67,0.63197
6634.88,0.62828
6629.1,0.62864
6623.31,0.62709
6617.53,0.63005
6611.74,0.63130
6605.95,0.63614
6600.17,0.63494
6594.38,0.63735
6588.59,0.63865
6582.81,0.63969
6577.02,0.64171
6571.24,0.64276
6565.45,0.64458
6559.66,0.64102
6553.88,0.64658
6548.09,0.64718
6542.3,0.64326
6536.52,0.64527
6530.73,0.64902
6524.95,0.64663
6519.16,0.64552
6513.37,0.64605
6507.59,0.64508
6501.8,0.64812
6496.01,0.64814
6490.23,0.64715
6484.44,0.64683
6478.66,0.64666
6472.87,0.65159
6467.08,0.65198
6461.3,0.65184
6455.51,0.65323
6449.72,0.64912
6443.94,0.65406
6438.15,0.65432
6432.37,0.65434
6426.58,0.65130
6420.79,0.65302
6415.01,0.65382
6409.22,0.65533
6403.43,0.65550
6397.65,0.65491
6391.86,0.65656
6386.08,0.65559
6380.29,0.65505
6374.5,0.65395
6368.72,0.65400
6362.93,0.65550
6357.14,0.65698
6351.36,0.65528
6345.57,0.65399
6339.79,0.65978
6334,0.65996
6328.21,0.66074
6322.43,0.65892
6316.64,0.66147
6310.85,0.66721
6305.07,0.66327
6299.28,0.66582
6293.5,0.66273
6287.71,0.66304
6281.92,0.66385
6276.14,0.66607
6270.35,0.66677
6264.56,0.66828
6258.78,0.66864
6252.99,0.67103
6247.21,0.67185
6241.42,0.67434
6235.63,0.67989
6229.85,0.68171
6224.06,0.68099
6218.27,0.68074
6212.49,0.68795
6206.7,0.68572
6200.92,0.68849
6195.13,0.68985
6189.34,0.68908
6183.56,0.69292
6177.77,0.69084
6171.98,0.69169
6166.2,0.69556
6160.41,0.69642
6154.63,0.69595
6148.84,0.69588
6143.05,0.70234
6137.27,0.70181
6131.48,0.70282
6125.7,0.70372
6119.91,0.70305
6114.12,0.70259
6108.34,0.70215
6102.55,0.70191
6096.76,0.70358
6090.98,0.70245
6085.19,0.70237
6079.41,0.70221
6073.62,0.70335
6067.83,0.70209
6062.05,0.69914
6056.26,0.70042
6050.47,0.70118
6044.69,0.70090
6038.9,0.69805
6033.12,0.69451
6027.33,0.69616
6021.54,0.69432
6015.76,0.69234
6009.97,0.68863
6004.18,0.69043
5998.4,0.68721
5992.61,0.68523
5986.83,0.68465
5981.04,0.67995
5975.25,0.68224
5969.47,0.67984
5963.68,0.67661
5957.89,0.67611
5952.11,0.67497
5946.32,0.67610
5940.54,0.67671
5934.75,0.67582
5928.96,0.67549
5923.18,0.67388
5917.39,0.67600
5911.6,0.67172
5905.82,0.66998
5900.03,0.67082
5894.25,0.66931
5888.46,0.66534
5882.67,0.66676
5876.89,0.66517
5871.1,0.66311
5865.31,0.66311
5859.53,0.66026
5853.74,0.66034
5847.96,0.66058
5842.17,0.65853
5836.38,0.65647
5830.6,0.65433
5824.81,0.65129
5819.02,0.64814
5813.24,0.64595
5807.45,0.64700
5801.67,0.64473
5795.88,0.64562
5790.09,0.64813
5784.31,0.64859
5778.52,0.65265
5772.73,0.65512
5766.95,0.65655
5761.16,0.66056
5755.38,0.65748
5749.59,0.66135
5743.8,0.66031
5738.02,0.66178
5732.23,0.66222
5726.44,0.66119
5720.66,0.66079
5714.87,0.66308
5709.09,0.66377
5703.3,0.66451
5697.51,0.66129
5691.73,0.66122
5685.94,0.65986
5680.15,0.66087
5674.37,0.66202
5668.58,0.66060
5662.8,0.65886
5657.01,0.65797
5651.22,0.66172
5645.44,0.65956
5639.65,0.66154
5633.87,0.66075
5628.08,0.66309
5622.29,0.66331
5616.51,0.66408
5610.72,0.66259
5604.93,0.66360
5599.15,0.66444
5593.36,0.66329
5587.58,0.66392
5581.79,0.66458
5576,0.66608
5570.22,0.66407
5564.43,0.66681
5558.64,0.66697
5552.86,0.66673
5547.07,0.66870
5541.29,0.66971
5535.5,0.66916
5529.71,0.66875
5523.93,0.66765
5518.14,0.66852
5512.35,0.67037
5506.57,0.67032
5500.78,0.67207
5495,0.67042
5489.21,0.67150
5483.42,0.67151
5477.64,0.67149
5471.85,0.67328
5466.06,0.67241
5460.28,0.67338
5454.49,0.67452
5448.71,0.67701
5442.92,0.67730
5437.13,0.67691
5431.35,0.67952
5425.56,0.68149
5419.77,0.68291
5413.99,0.68415
5408.2,0.68361
5402.42,0.68644
5396.63,0.68698
5390.84,0.68651
5385.06,0.68558
5379.27,0.68428
5373.48,0.68633
5367.7,0.68460
5361.91,0.68564
5356.13,0.68546
5350.34,0.68432
5344.55,0.68290
5338.77,0.68166
5332.98,0.68088
5327.19,0.67836
5321.41,0.67549
5315.62,0.66956
5309.84,0.66493
5304.05,0.65847
5298.26,0.65297
5292.48,0.64561
5286.69,0.63675
5280.9,0.62888
5275.12,0.61838
5269.33,0.60773
5263.55,0.59625
5257.76,0.58854
5251.97,0.57913
5246.19,0.56971
5240.4,0.56319
5234.61,0.55815
5228.83,0.55343
5223.04,0.54793
5217.26,0.54359
5211.47,0.54252
5205.68,0.54178
5199.9,0.54180
5194.11,0.54102
5188.32,0.54147
5182.54,0.54348
5176.75,0.54597
5170.97,0.54770
5165.18,0.55079
5159.39,0.55129
5153.61,0.55481
5147.82,0.55804
5142.03,0.56233
5136.25,0.56615
5130.46,0.56822
5124.68,0.57071
5118.89,0.57387
5113.1,0.57633
5107.32,0.58071
5101.53,0.58176
5095.75,0.58452
5089.96,0.58715
5084.17,0.58832
5078.39,0.59196
5072.6,0.59586
5066.81,0.59682
5061.03,0.59925
5055.24,0.60093
5049.46,0.60337
5043.67,0.60399
5037.88,0.60730
5032.1,0.60862
5026.31,0.60927
5020.52,0.61125
5014.74,0.61051
5008.95,0.61159
5003.17,0.61155
4997.38,0.61096
4991.59,0.61025
4985.81,0.60885
4980.02,0.60794
4974.23,0.60521
4968.45,0.60272
4962.66,0.59864
4956.88,0.59543
4951.09,0.59101
4945.3,0.58694
4939.52,0.58049
4933.73,0.57576
4927.94,0.56980
4922.16,0.56510
4916.37,0.56014
4910.59,0.55423
4904.8,0.54732
4899.01,0.54334
4893.23,0.53699
4887.44,0.53314
4881.65,0.52500
4875.87,0.52245
4870.08,0.51683
4864.3,0.51189
4858.51,0.50820
4852.72,0.50553
4846.94,0.49986
4841.15,0.49587
4835.36,0.49297
4829.58,0.49050
4823.79,0.48629
4818.01,0.48341
4812.22,0.48165
4806.43,0.47897
4800.65,0.47751
4794.86,0.47717
4789.07,0.47482
4783.29,0.47396
4777.5,0.47247
4771.72,0.47142
4765.93,0.47121
4760.14,0.47026
4754.36,0.47014
4748.57,0.46955
4742.78,0.47048
4737,0.47133
4731.21,0.47248
4725.43,0.47255
4719.64,0.47320
4713.85,0.47459
4708.07,0.47429
4702.28,0.47608
4696.49,0.47702
4690.71,0.47765
4684.92,0.47935
4679.14,0.48077
4673.35,0.48363
4667.56,0.48623
4661.78,0.48824
4655.99,0.49111
4650.2,0.49451
4644.42,0.49730
4638.63,0.49926
4632.85,0.50172
4627.06,0.50377
4621.27,0.50576
4615.49,0.50844
4609.7,0.51152
4603.92,0.51332
4598.13,0.51505
4592.34,0.51786
4586.56,0.51873
4580.77,0.51997
4574.98,0.52287
4569.2,0.52321
4563.41,0.52521
4557.63,0.52574
4551.84,0.52804
4546.05,0.52789
4540.27,0.52900
4534.48,0.53007
4528.69,0.53131
4522.91,0.53081
4517.12,0.53001
4511.34,0.52918
4505.55,0.52880
4499.76,0.52550
4493.98,0.52197
4488.19,0.51732
4482.4,0.51132
4476.62,0.50406
4470.83,0.49623
4465.05,0.48793
4459.26,0.47836
4453.47,0.46751
4447.69,0.45943
4441.9,0.45225
4436.11,0.44445
4430.33,0.43820
4424.54,0.43231
4418.76,0.42766
4412.97,0.42375
4407.18,0.42117
4401.4,0.41964
4395.61,0.41946
4389.82,0.42047
4384.04,0.42167
4378.25,0.42385
4372.47,0.42648
4366.68,0.42815
4360.89,0.42788
4355.11,0.42650
4349.32,0.42469
4343.53,0.42278
4337.75,0.42169
4331.96,0.41888
4326.18,0.41905
4320.39,0.41764
4314.6,0.41604
4308.82,0.41384
4303.03,0.41204
4297.24,0.41051
4291.46,0.40774
4285.67,0.40675
4279.89,0.40574
4274.1,0.40524
4268.31,0.40582
4262.53,0.40730
4256.74,0.40775
4250.95,0.40921
4245.17,0.41142
4239.38,0.41262
4233.6,0.41372
4227.81,0.41422
4222.02,0.41499
4216.24,0.41561
4210.45,0.41642
4204.66,0.41700
4198.88,0.41823
4193.09,0.41869
4187.31,0.41908
4181.52,0.42069
4175.73,0.42099
4169.95,0.42380
4164.16,0.42509
4158.37,0.42543
4152.59,0.42516
4146.8,0.42324
4141.02,0.42103
4135.23,0.41886
4129.44,0.41609
4123.66,0.41225
4117.87,0.40836
4112.09,0.40487
4106.3,0.39988
4100.51,0.39535
4094.73,0.39069
4088.94,0.38396
4083.15,0.37886
4077.37,0.37356
4071.58,0.36836
4065.8,0.36313
4060.01,0.35699
4054.22,0.35180
4048.44,0.34731
4042.65,0.34300
4036.86,0.33958
4031.08,0.33579
4025.29,0.33375
4019.51,0.33272
4013.72,0.33252
4007.93,0.33279
4002.15,0.33456
3996.36,0.33663
3990.57,0.33872
3984.79,0.34010
3979,0.34096
3973.22,0.34257
3967.43,0.34540
3961.64,0.34903
3955.86,0.35132
3950.07,0.35517
3944.28,0.35814
3938.5,0.36132
3932.71,0.36468
3926.93,0.36732
3921.14,0.37003
3915.35,0.37257
3909.57,0.37555
3903.78,0.37815
3897.99,0.38133
3892.21,0.38345
3886.42,0.38592
3880.64,0.38822
3874.85,0.39059
3869.06,0.39353
3863.28,0.39655
3857.49,0.39938
3851.7,0.40368
3845.92,0.40630
3840.13,0.40902
3834.35,0.41024
3828.56,0.41186
3822.77,0.41248
3816.99,0.41297
3811.2,0.41342
3805.41,0.41356
3799.63,0.41316
3793.84,0.41360
3788.06,0.41301
3782.27,0.41219
3776.48,0.41170
3770.7,0.41052
3764.91,0.40963
3759.12,0.40792
3753.34,0.40606
3747.55,0.40319
3741.77,0.40010
3735.98,0.39793
3730.19,0.39333
3724.41,0.38881
3718.62,0.38313
3712.83,0.37729
3707.05,0.36838
3701.26,0.35859
3695.48,0.34712
3689.69,0.33368
3683.9,0.31618
3678.12,0.29877
3672.33,0.27853
3666.54,0.25800
3660.76,0.23966
3654.97,0.22086
3649.19,0.20463
3643.4,0.18907
3637.61,0.17508
3631.83,0.16376
3626.04,0.15206
3620.25,0.14076
3614.47,0.13005
3608.68,0.11983
3602.9,0.11190
3597.11,0.10373
3591.32,0.09670
3585.54,0.08958
3579.75,0.08358
3573.97,0.07791
3568.18,0.07359
3562.39,0.06930
3556.61,0.06578
3550.82,0.06178
3545.03,0.05947
3539.25,0.05679
3533.46,0.05464
3527.68,0.05258
3521.89,0.04985
3516.1,0.04900
3510.32,0.04707
3504.53,0.04596
3498.74,0.04436
3492.96,0.04284
3487.17,0.04279
3481.39,0.04190
3475.6,0.04118
3469.81,0.04017
3464.03,0.03864
3458.24,0.03876
3452.45,0.03804
3446.67,0.03716
3440.88,0.03737
3435.1,0.03699
3429.31,0.03768
3423.52,0.03728
3417.74,0.03724
3411.95,0.03760
3406.16,0.03821
3400.38,0.03797
3394.59,0.03797
3388.81,0.03712
3383.02,0.03772
3377.23,0.03828
3371.45,0.03860
3365.66,0.03812
3359.87,0.03791
3354.09,0.03816
3348.3,0.03881
3342.52,0.03855
3336.73,0.03994
3330.94,0.04035
3325.16,0.04066
3319.37,0.04151
3313.58,0.04239
3307.8,0.04344
3302.01,0.04364
3296.23,0.04393
3290.44,0.04443
3284.65,0.04582
3278.87,0.04673
3273.08,0.04777
3267.29,0.05005
3261.51,0.05096
3255.72,0.05325
3249.94,0.05485
3244.15,0.05656
3238.36,0.05870
3232.58,0.06013
3226.79,0.06246
3221,0.06381
3215.22,0.06674
3209.43,0.06793
3203.65,0.07122
3197.86,0.07331
3192.07,0.07446
3186.29,0.07669
3180.5,0.07950
3174.71,0.08196
3168.93,0.08463
3163.14,0.08650
3157.36,0.08988
3151.57,0.09305
3145.78,0.09470
3140,0.09751
3134.21,0.09901
3128.42,0.10212
3122.64,0.10445
3116.85,0.10637
3111.07,0.10924
3105.28,0.11193
3099.49,0.11353
3093.71,0.11612
3087.92,0.11793
3082.14,0.12010
3076.35,0.12152
3070.56,0.12376
3064.78,0.12597
3058.99,0.12745
3053.2,0.12925
3047.42,0.13070
3041.63,0.13151
3035.85,0.13227
3030.06,0.13106
3024.27,0.12897
3018.49,0.12610
3012.7,0.12260
3006.91,0.11831
3001.13,0.11496
2995.34,0.11202
2989.56,0.10808
2983.77,0.10146
2977.98,0.09341
2972.2,0.08559
2966.41,0.07985
2960.62,0.07532
2954.84,0.07163
2949.05,0.06840
2943.27,0.06529
2937.48,0.06279
2931.69,0.06238
2925.91,0.06201
2920.12,0.06194
2914.33,0.06280
2908.55,0.06414
2902.76,0.06479
2896.98,0.06613
2891.19,0.06827
2885.4,0.07022
2879.62,0.07167
2873.83,0.07288
2868.04,0.07390
2862.26,0.07527
2856.47,0.07701
2850.69,0.08025
2844.9,0.08639
2839.11,0.09401
2833.33,0.10300
2827.54,0.11181
2821.75,0.11974
2815.97,0.12660
2810.18,0.13202
2804.4,0.13704
2798.61,0.14084
2792.82,0.14450
2787.04,0.14677
2781.25,0.14861
2775.46,0.15032
2769.68,0.15201
2763.89,0.15363
2758.11,0.15468
2752.32,0.15509
2746.53,0.15568
2740.75,0.15565
2734.96,0.15642
2729.17,0.15748
2723.39,0.15929
2717.6,0.16126
2711.82,0.16348
2706.03,0.16638
2700.24,0.16932
2694.46,0.17180
2688.67,0.17447
2682.88,0.17661
2677.1,0.17879
2671.31,0.18066
2665.53,0.18226
2659.74,0.18344
2653.95,0.18494
2648.17,0.18673
2642.38,0.18856
2636.59,0.19031
2630.81,0.19301
2625.02,0.19501
2619.24,0.19703
2613.45,0.19926
2607.66,0.20107
2601.88,0.20227
2596.09,0.20417
2590.3,0.20571
2584.52,0.20679
2578.73,0.20827
2572.95,0.20867
2567.16,0.20913
2561.37,0.20985
2555.59,0.21047
2549.8,0.21095
2544.02,0.21169
2538.23,0.21225
2532.44,0.21394
2526.66,0.21514
2520.87,0.21648
2515.08,0.21762
2509.3,0.21961
2503.51,0.22232
2497.73,0.22500
2491.94,0.22770
2486.15,0.22934
2480.37,0.23200
2474.58,0.23439
2468.79,0.23603
2463.01,0.23785
2457.22,0.23982
2451.44,0.24224
2445.65,0.24474
2439.86,0.24725
2434.08,0.24965
2428.29,0.25228
2422.5,0.25553
2416.72,0.25887
2410.93,0.26235
2405.15,0.26545
2399.36,0.26869
2393.57,0.27146
2387.79,0.27357
2382,0.27594
2376.21,0.27848
2370.43,0.28082
2364.64,0.28275
2358.86,0.28540
2353.07,0.28734
2347.28,0.28899
2341.5,0.29114
2335.71,0.29248
2329.92,0.29393
2324.14,0.29538
2318.35,0.29599
2312.57,0.29593
2306.78,0.29599
2300.99,0.29505
2295.21,0.29457
2289.42,0.29431
2283.63,0.29373
2277.85,0.29372
2272.06,0.29214
2266.28,0.28973
2260.49,0.28748
2254.7,0.28505
2248.92,0.28333
2243.13,0.28237
2237.34,0.28225
2231.56,0.28245
2225.77,0.28310
2219.99,0.28365
2214.2,0.28438
2208.41,0.28373
2202.63,0.28240
2196.84,0.28008
2191.05,0.27696
2185.27,0.27265
2179.48,0.26808
2173.7,0.26352
2167.91,0.25884
2162.12,0.25493
2156.34,0.25198
2150.55,0.24994
2144.76,0.24838
2138.98,0.24683
2133.19,0.24683
2127.41,0.24772
2121.62,0.24831
2115.83,0.24965
2110.05,0.25161
2104.26,0.25336
2098.47,0.25504
2092.69,0.25693
2086.9,0.25850
2081.12,0.25925
2075.33,0.25869
2069.54,0.25817
2063.76,0.25793
2057.97,0.25801
2052.19,0.25887
2046.4,0.25970
2040.61,0.26084
2034.83,0.26319
2029.04,0.26567
2023.25,0.26917
2017.47,0.27314
2011.68,0.27696
2005.9,0.28010
2000.11,0.28263
1994.32,0.28465
1988.54,0.28653
1982.75,0.28733
1976.96,0.28709
1971.18,0.28656
1965.39,0.28560
1959.61,0.28505
1953.82,0.28509
1948.03,0.28712
1942.25,0.29028
1936.46,0.29349
1930.67,0.29697
1924.89,0.29993
1919.1,0.30192
1913.32,0.30327
1907.53,0.30399
1901.74,0.30384
1895.96,0.30395
1890.17,0.30352
1884.38,0.30256
1878.6,0.30102
1872.81,0.29931
1867.03,0.29678
1861.24,0.29349
1855.45,0.29003
1849.67,0.28619
1843.88,0.28110
1838.09,0.27605
1832.31,0.26966
1826.52,0.26272
1820.74,0.25470
1814.95,0.24526
1809.16,0.23399
1803.38,0.22147
1797.59,0.20763
1791.8,0.19198
1786.02,0.17444
1780.23,0.15340
1774.45,0.12911
1768.66,0.10003
1762.87,0.07669
1757.09,0.06137
1751.3,0.05240
1745.51,0.04759
1739.73,0.04740
1733.94,0.05065
1728.16,0.05496
1722.37,0.06055
1716.58,0.06723
1710.8,0.07491
1705.01,0.08468
1699.22,0.09420
1693.44,0.10077
1687.65,0.10255
1681.87,0.09901
1676.08,0.09338
1670.29,0.08827
1664.51,0.08531
1658.72,0.08343
1652.93,0.08376
1647.15,0.08431
1641.36,0.08437
1635.58,0.08399
1629.79,0.08306
1624,0.08121
1618.22,0.07976
1612.43,0.07701
1606.64,0.07145
1600.86,0.06632
1595.07,0.06241
1589.29,0.06680
1583.5,0.08031
1577.71,0.09594
1571.93,0.11073
1566.14,0.12006
1560.35,0.12438
1554.57,0.12562
1548.78,0.12516
1543,0.12339
1537.21,0.11902
1531.42,0.11144
1525.64,0.09881
1519.85,0.08015
1514.07,0.06576
1508.28,0.05992
1502.49,0.05905
1496.71,0.06581
1490.92,0.07343
1485.13,0.07482
1479.35,0.06784
1473.56,0.05593
1467.78,0.04643
1461.99,0.04506
1456.2,0.04619
1450.42,0.04798
1444.63,0.04920
1438.84,0.04734
1433.06,0.04449
1427.27,0.04395
1421.49,0.04529
1415.7,0.04811
1409.91,0.05083
1404.13,0.05122
1398.34,0.04996
1392.55,0.04770
1386.77,0.04394
1380.98,0.04096
1375.2,0.03994
1369.41,0.04090
1363.62,0.04307
1357.84,0.04499
1352.05,0.04595
1346.26,0.04534
1340.48,0.04374
1334.69,0.04281
1328.91,0.04274
1323.12,0.04309
1317.33,0.04415
1311.55,0.04572
1305.76,0.04800
1299.97,0.04898
1294.19,0.04743
1288.4,0.04433
1282.62,0.04162
1276.83,0.03990
1271.04,0.03852
1265.26,0.03704
1259.47,0.03676
1253.68,0.03609
1247.9,0.03617
1242.11,0.03613
1236.33,0.03730
1230.54,0.03871
1224.75,0.04052
1218.97,0.04289
1213.18,0.04455
1207.39,0.04509
1201.61,0.04539
1195.82,0.04575
1190.04,0.04404
1184.25,0.04095
1178.46,0.03731
1172.68,0.03462
1166.89,0.03483
1161.1,0.03633
1155.32,0.03691
1149.53,0.03658
1143.75,0.03463
1137.96,0.03218
1132.17,0.03064
1126.39,0.03162
1120.6,0.03255
1114.81,0.03352
1109.03,0.03493
1103.24,0.03561
1097.46,0.03533
1091.67,0.03472
1085.88,0.03450
1080.1,0.03564
1074.31,0.03810
1068.52,0.03976
1062.74,0.04532
1056.95,0.04849
1051.17,0.04918
1045.38,0.05047
1039.59,0.05072
1033.81,0.05395
1028.02,0.05574
1022.24,0.05679
1016.45,0.05872
1010.66,0.05970
1004.88,0.06103
999.09,0.06268
993.304,0.06464
987.518,0.06866
981.731,0.07657
975.945,0.08291
970.159,0.08770
964.373,0.09215
958.586,0.10000
952.8,0.10856
947.014,0.11476
941.228,0.11711
935.441,0.11616
929.655,0.11541
923.869,0.11414
918.083,0.11228
912.297,0.10836
906.51,0.10249
900.724,0.09684
894.938,0.09825
889.152,0.10722
883.365,0.11383
877.579,0.11730
871.793,0.11974
866.007,0.12266
860.22,0.12556
854.434,0.12435
848.648,0.12253
842.862,0.12033
837.075,0.11671
831.289,0.11612
825.503,0.11788
819.717,0.11909
813.931,0.11961
808.144,0.11993
802.358,0.11993
796.572,0.12011
790.786,0.11896
784.999,0.11746
779.213,0.11479
773.427,0.11123
767.641,0.10667
761.854,0.10255
756.068,0.09877
750.282,0.09462
744.496,0.09146
738.709,0.08871
732.923,0.08532
727.137,0.08076
721.351,0.07716
715.565,0.07611
709.778,0.07585
703.992,0.07489
698.206,0.07428
692.42,0.07289
686.633,0.07125
680.847,0.06814
675.061,0.06558
669.275,0.06290
663.488,0.06420
657.702,0.06607
651.916,0.06372
646.13,0.06300
640.343,0.06142
634.557,0.05970
628.771,0.05701
622.985,0.05787
617.198,0.05722
611.412,0.05806
605.626,0.06038
599.84,0.05964