File: 01_Data/Exterior_Plywood/FTIR/IS/Exterior_Plywood_IS_S_220927_R1.dpt
7497.03,0.78412
7491.25,0.78490
7485.46,0.78234
7479.67,0.78527
7473.89,0.77450
7468.1,0.78953
7462.32,0.78842
7456.53,0.78532
7450.74,0.77458
7444.96,0.77222
7439.17,0.76719
7433.38,0.76133
7427.6,0.76269
7421.81,0.76683
7416.03,0.75919
7410.24,0.75986
7404.45,0.75917
7398.67,0.75548
7392.88,0.75930
7387.09,0.74884
7381.31,0.75501
7375.52,0.74228
7369.74,0.73759
7363.95,0.74788
7358.16,0.74884
7352.38,0.74589
7346.59,0.74582
7340.8,0.74373
7335.02,0.73216
7329.23,0.73454
7323.45,0.73207
7317.66,0.73719
7311.87,0.73376
7306.09,0.72789
7300.3,0.73575
7294.51,0.73256
7288.73,0.73081
7282.94,0.71818
7277.16,0.72507
7271.37,0.72161
7265.58,0.72106
7259.8,0.73406
7254.01,0.72623
7248.22,0.71831
7242.44,0.71628
7236.65,0.72591
7230.87,0.72409
7225.08,0.71640
7219.29,0.71145
7213.51,0.72564
7207.72,0.72090
7201.93,0.71144
7196.15,0.70951
7190.36,0.70950
7184.58,0.70288
7178.79,0.70220
7173,0.70127
7167.22,0.69737
7161.43,0.69529
7155.65,0.69233
7149.86,0.68264
7144.07,0.68860
7138.29,0.68898
7132.5,0.68301
7126.71,0.67156
7120.93,0.66691
7115.14,0.66063
7109.36,0.66301
7103.57,0.65986
7097.78,0.65543
7092,0.64818
7086.21,0.64336
7080.42,0.63874
7074.64,0.63524
7068.85,0.62991
7063.07,0.63253
7057.28,0.62454
7051.49,0.61630
7045.71,0.60975
7039.92,0.60409
7034.13,0.60144
7028.35,0.59747
7022.56,0.59502
7016.78,0.59246
7010.99,0.58808
7005.2,0.59134
6999.42,0.58993
6993.63,0.58470
6987.84,0.57998
6982.06,0.57490
6976.27,0.57511
6970.49,0.57505
6964.7,0.57564
6958.91,0.57053
6953.13,0.57063
6947.34,0.56885
6941.55,0.57370
6935.77,0.56656
6929.98,0.57069
6924.2,0.56665
6918.41,0.56608
6912.62,0.57071
6906.84,0.57197
6901.05,0.56712
6895.26,0.56607
6889.48,0.56053
6883.69,0.55991
6877.91,0.56426
6872.12,0.56366
6866.33,0.56519
6860.55,0.56139
6854.76,0.55776
6848.97,0.56395
6843.19,0.56005
6837.4,0.55821
6831.62,0.56222
6825.83,0.55991
6820.04,0.56150
6814.26,0.56115
6808.47,0.56339
6802.68,0.56678
6796.9,0.56235
6791.11,0.55583
6785.33,0.55794
6779.54,0.56049
6773.75,0.56222
6767.97,0.56635
6762.18,0.56176
6756.39,0.55823
6750.61,0.56180
6744.82,0.56657
6739.04,0.56038
6733.25,0.56102
6727.46,0.56107
6721.68,0.56366
6715.89,0.56550
6710.1,0.56310
6704.32,0.56401
6698.53,0.56505
6692.75,0.56794
6686.96,0.56611
6681.17,0.56558
6675.39,0.56800
6669.6,0.56767
6663.82,0.57186
6658.03,0.57221
6652.24,0.56952
6646.46,0.56751
6640.67,0.57036
6634.88,0.56875
6629.1,0.57339
6623.31,0.58053
6617.53,0.57758
6611.74,0.57381
6605.95,0.57653
6600.17,0.57866
6594.38,0.57823
6588.59,0.57591
6582.81,0.58014
6577.02,0.57949
6571.24,0.58288
6565.45,0.58222
6559.66,0.57960
6553.88,0.58216
6548.09,0.58210
6542.3,0.58668
6536.52,0.58127
6530.73,0.58308
6524.95,0.58636
6519.16,0.58708
6513.37,0.58697
6507.59,0.58770
6501.8,0.58939
6496.01,0.58683
6490.23,0.58779
6484.44,0.59280
6478.66,0.59149
6472.87,0.58792
6467.08,0.58472
6461.3,0.59038
6455.51,0.59237
6449.72,0.59163
6443.94,0.58956
6438.15,0.59212
6432.37,0.59058
6426.58,0.59198
6420.79,0.59000
6415.01,0.59271
6409.22,0.59640
6403.43,0.59916
6397.65,0.59506
6391.86,0.60229
6386.08,0.59868
6380.29,0.59160
6374.5,0.59468
6368.72,0.59814
6362.93,0.59938
6357.14,0.59745
6351.36,0.59916
6345.57,0.59752
6339.79,0.60204
6334,0.59853
6328.21,0.59311
6322.43,0.59811
6316.64,0.60512
6310.85,0.60671
6305.07,0.60511
6299.28,0.60351
6293.5,0.61059
6287.71,0.60357
6281.92,0.60839
6276.14,0.60769
6270.35,0.61132
6264.56,0.61051
6258.78,0.61127
6252.99,0.61470
6247.21,0.61425
6241.42,0.61653
6235.63,0.61691
6229.85,0.62325
6224.06,0.62216
6218.27,0.62225
6212.49,0.62495
6206.7,0.62616
6200.92,0.62883
6195.13,0.63150
6189.34,0.62851
6183.56,0.63344
6177.77,0.63510
6171.98,0.63482
6166.2,0.63745
6160.41,0.63845
6154.63,0.63968
6148.84,0.64190
6143.05,0.64188
6137.27,0.64432
6131.48,0.64388
6125.7,0.64665
6119.91,0.64833
6114.12,0.64607
6108.34,0.64825
6102.55,0.64994
6096.76,0.64847
6090.98,0.65332
6085.19,0.65216
6079.41,0.64737
6073.62,0.65225
6067.83,0.65114
6062.05,0.65307
6056.26,0.65024
6050.47,0.65065
6044.69,0.65022
6038.9,0.65242
6033.12,0.65063
6027.33,0.64916
6021.54,0.64291
6015.76,0.64363
6009.97,0.64342
6004.18,0.64571
5998.4,0.64265
5992.61,0.64307
5986.83,0.64053
5981.04,0.64316
5975.25,0.64040
5969.47,0.64123
5963.68,0.63951
5957.89,0.64194
5952.11,0.64318
5946.32,0.64400
5940.54,0.64386
5934.75,0.64403
5928.96,0.64600
5923.18,0.64053
5917.39,0.64260
5911.6,0.64298
5905.82,0.64182
5900.03,0.63677
5894.25,0.63746
5888.46,0.63564
5882.67,0.63271
5876.89,0.63410
5871.1,0.63325
5865.31,0.63433
5859.53,0.63473
5853.74,0.63347
5847.96,0.63185
5842.17,0.63233
5836.38,0.63142
5830.6,0.63036
5824.81,0.63091
5819.02,0.62920
5813.24,0.62841
5807.45,0.62768
5801.67,0.62815
5795.88,0.62382
5790.09,0.62870
5784.31,0.62746
5778.52,0.62830
5772.73,0.62962
5766.95,0.63082
5761.16,0.62819
5755.38,0.63039
5749.59,0.62878
5743.8,0.63059
5738.02,0.63043
5732.23,0.63127
5726.44,0.63015
5720.66,0.62879
5714.87,0.62921
5709.09,0.62729
5703.3,0.62882
5697.51,0.62761
5691.73,0.62716
5685.94,0.62642
5680.15,0.62588
5674.37,0.62506
5668.58,0.62615
5662.8,0.62496
5657.01,0.62528
5651.22,0.62275
5645.44,0.62169
5639.65,0.62209
5633.87,0.62349
5628.08,0.62475
5622.29,0.62287
5616.51,0.62216
5610.72,0.62145
5604.93,0.62209
5599.15,0.62064
5593.36,0.62165
5587.58,0.62127
5581.79,0.62324
5576,0.62288
5570.22,0.62485
5564.43,0.62404
5558.64,0.62607
5552.86,0.62658
5547.07,0.62631
5541.29,0.62656
5535.5,0.62474
5529.71,0.62448
5523.93,0.62819
5518.14,0.62696
5512.35,0.62784
5506.57,0.62708
5500.78,0.62791
5495,0.62903
5489.21,0.62912
5483.42,0.62867
5477.64,0.62918
5471.85,0.62951
5466.06,0.63144
5460.28,0.63208
5454.49,0.63214
5448.71,0.63222
5442.92,0.63518
5437.13,0.63406
5431.35,0.63646
5425.56,0.63797
5419.77,0.63927
5413.99,0.64081
5408.2,0.64232
5402.42,0.64090
5396.63,0.64159
5390.84,0.64409
5385.06,0.64410
5379.27,0.64185
5373.48,0.64123
5367.7,0.64050
5361.91,0.64077
5356.13,0.63950
5350.34,0.63765
5344.55,0.63562
5338.77,0.63579
5332.98,0.63408
5327.19,0.62778
5321.41,0.62470
5315.62,0.61837
5309.84,0.61206
5304.05,0.60547
5298.26,0.59711
5292.48,0.58977
5286.69,0.57930
5280.9,0.56880
5275.12,0.55700
5269.33,0.54357
5263.55,0.53227
5257.76,0.52234
5251.97,0.51106
5246.19,0.50123
5240.4,0.49149
5234.61,0.48375
5228.83,0.47929
5223.04,0.47215
5217.26,0.46721
5211.47,0.46391
5205.68,0.46123
5199.9,0.46131
5194.11,0.45991
5188.32,0.45967
5182.54,0.45975
5176.75,0.46164
5170.97,0.46269
5165.18,0.46659
5159.39,0.46880
5153.61,0.46978
5147.82,0.47333
5142.03,0.47725
5136.25,0.47943
5130.46,0.48311
5124.68,0.48751
5118.89,0.49000
5113.1,0.49302
5107.32,0.49622
5101.53,0.49885
5095.75,0.50155
5089.96,0.50519
5084.17,0.50923
5078.39,0.51315
5072.6,0.51401
5066.81,0.51777
5061.03,0.52140
5055.24,0.52412
5049.46,0.52843
5043.67,0.52923
5037.88,0.52997
5032.1,0.53425
5026.31,0.53571
5020.52,0.53850
5014.74,0.53992
5008.95,0.54243
5003.17,0.54277
4997.38,0.54265
4991.59,0.54380
4985.81,0.54365
4980.02,0.54303
4974.23,0.54188
4968.45,0.54131
4962.66,0.53943
4956.88,0.53690
4951.09,0.53505
4945.3,0.53102
4939.52,0.52668
4933.73,0.52320
4927.94,0.52054
4922.16,0.51483
4916.37,0.51108
4910.59,0.50607
4904.8,0.50269
4899.01,0.49801
4893.23,0.49323
4887.44,0.48786
4881.65,0.48407
4875.87,0.47927
4870.08,0.47330
4864.3,0.46979
4858.51,0.46762
4852.72,0.46321
4846.94,0.45882
4841.15,0.45466
4835.36,0.45176
4829.58,0.44826
4823.79,0.44508
4818.01,0.44267
4812.22,0.43950
4806.43,0.43803
4800.65,0.43595
4794.86,0.43408
4789.07,0.43360
4783.29,0.43210
4777.5,0.43131
4771.72,0.43159
4765.93,0.43090
4760.14,0.43084
4754.36,0.42985
4748.57,0.43000
4742.78,0.42972
4737,0.43072
4731.21,0.43025
4725.43,0.43335
4719.64,0.43335
4713.85,0.43361
4708.07,0.43429
4702.28,0.43608
4696.49,0.43668
4690.71,0.43832
4684.92,0.43989
4679.14,0.44120
4673.35,0.44340
4667.56,0.44477
4661.78,0.44655
4655.99,0.45078
4650.2,0.45185
4644.42,0.45314
4638.63,0.45668
4632.85,0.45811
4627.06,0.46166
4621.27,0.46375
4615.49,0.46807
4609.7,0.47087
4603.92,0.47411
4598.13,0.47634
4592.34,0.47966
4586.56,0.48095
4580.77,0.48354
4574.98,0.48388
4569.2,0.48724
4563.41,0.48865
4557.63,0.49092
4551.84,0.49174
4546.05,0.49260
4540.27,0.49454
4534.48,0.49566
4528.69,0.49665
4522.91,0.49719
4517.12,0.49810
4511.34,0.49731
4505.55,0.49644
4499.76,0.49556
4493.98,0.49349
4488.19,0.48990
4482.4,0.48664
4476.62,0.48318
4470.83,0.47822
4465.05,0.47203
4459.26,0.46578
4453.47,0.46034
4447.69,0.45356
4441.9,0.44679
4436.11,0.43888
4430.33,0.43212
4424.54,0.42511
4418.76,0.41807
4412.97,0.41147
4407.18,0.40652
4401.4,0.40357
4395.61,0.40311
4389.82,0.40406
4384.04,0.40574
4378.25,0.40760
4372.47,0.41109
4366.68,0.41326
4360.89,0.41435
4355.11,0.41483
4349.32,0.41392
4343.53,0.41372
4337.75,0.41160
4331.96,0.41039
4326.18,0.40819
4320.39,0.40474
4314.6,0.40161
4308.82,0.39946
4303.03,0.39530
4297.24,0.39391
4291.46,0.39238
4285.67,0.39075
4279.89,0.38998
4274.1,0.38963
4268.31,0.39102
4262.53,0.39182
4256.74,0.39301
4250.95,0.39425
4245.17,0.39436
4239.38,0.39458
4233.6,0.39447
4227.81,0.39505
4222.02,0.39509
4216.24,0.39591
4210.45,0.39531
4204.66,0.39507
4198.88,0.39564
4193.09,0.39681
4187.31,0.39740
4181.52,0.39772
4175.73,0.39858
4169.95,0.39971
4164.16,0.40014
4158.37,0.40043
4152.59,0.39910
4146.8,0.39776
4141.02,0.39579
4135.23,0.39249
4129.44,0.38916
4123.66,0.38550
4117.87,0.38095
4112.09,0.37684
4106.3,0.37146
4100.51,0.36580
4094.73,0.35966
4088.94,0.35359
4083.15,0.34845
4077.37,0.34320
4071.58,0.33738
4065.8,0.33140
4060.01,0.32584
4054.22,0.32040
4048.44,0.31503
4042.65,0.31076
4036.86,0.30671
4031.08,0.30279
4025.29,0.30095
4019.51,0.30006
4013.72,0.29939
4007.93,0.30001
4002.15,0.30013
3996.36,0.30170
3990.57,0.30318
3984.79,0.30507
3979,0.30673
3973.22,0.30799
3967.43,0.31001
3961.64,0.31191
3955.86,0.31462
3950.07,0.31787
3944.28,0.32067
3938.5,0.32229
3932.71,0.32529
3926.93,0.32876
3921.14,0.33128
3915.35,0.33324
3909.57,0.33595
3903.78,0.33783
3897.99,0.33977
3892.21,0.34226
3886.42,0.34432
3880.64,0.34622
3874.85,0.34767
3869.06,0.34979
3863.28,0.35261
3857.49,0.35519
3851.7,0.35820
3845.92,0.35949
3840.13,0.36128
3834.35,0.36276
3828.56,0.36348
3822.77,0.36315
3816.99,0.36340
3811.2,0.36236
3805.41,0.36164
3799.63,0.36130
3793.84,0.36037
3788.06,0.35971
3782.27,0.35819
3776.48,0.35653
3770.7,0.35527
3764.91,0.35315
3759.12,0.35050
3753.34,0.34837
3747.55,0.34488
3741.77,0.34093
3735.98,0.33638
3730.19,0.33155
3724.41,0.32603
3718.62,0.31943
3712.83,0.31250
3707.05,0.30330
3701.26,0.29168
3695.48,0.27981
3689.69,0.26574
3683.9,0.24774
3678.12,0.22903
3672.33,0.20776
3666.54,0.18751
3660.76,0.16870
3654.97,0.15244
3649.19,0.13720
3643.4,0.12496
3637.61,0.11444
3631.83,0.10571
3626.04,0.09666
3620.25,0.09068
3614.47,0.08351
3608.68,0.07818
3602.9,0.07335
3597.11,0.06934
3591.32,0.06522
3585.54,0.06174
3579.75,0.05812
3573.97,0.05633
3568.18,0.05425
3562.39,0.05192
3556.61,0.05009
3550.82,0.04898
3545.03,0.04686
3539.25,0.04549
3533.46,0.04521
3527.68,0.04351
3521.89,0.04256
3516.1,0.04170
3510.32,0.04151
3504.53,0.04094
3498.74,0.03952
3492.96,0.03994
3487.17,0.03944
3481.39,0.03906
3475.6,0.03847
3469.81,0.03808
3464.03,0.03792
3458.24,0.03773
3452.45,0.03765
3446.67,0.03822
3440.88,0.03772
3435.1,0.03811
3429.31,0.03805
3423.52,0.03854
3417.74,0.03804
3411.95,0.03797
3406.16,0.03767
3400.38,0.03820
3394.59,0.03818
3388.81,0.03871
3383.02,0.03840
3377.23,0.03854
3371.45,0.03893
3365.66,0.03887
3359.87,0.03902
3354.09,0.03997
3348.3,0.04002
3342.52,0.04067
3336.73,0.04104
3330.94,0.04119
3325.16,0.04236
3319.37,0.04356
3313.58,0.04323
3307.8,0.04349
3302.01,0.04359
3296.23,0.04396
3290.44,0.04375
3284.65,0.04495
3278.87,0.04514
3273.08,0.04609
3267.29,0.04683
3261.51,0.04763
3255.72,0.04866
3249.94,0.04888
3244.15,0.04939
3238.36,0.05053
3232.58,0.05096
3226.79,0.05208
3221,0.05262
3215.22,0.05372
3209.43,0.05490
3203.65,0.05535
3197.86,0.05655
3192.07,0.05837
3186.29,0.05950
3180.5,0.06018
3174.71,0.06201
3168.93,0.06328
3163.14,0.06498
3157.36,0.06611
3151.57,0.06741
3145.78,0.06909
3140,0.07086
3134.21,0.07185
3128.42,0.07406
3122.64,0.07566
3116.85,0.07781
3111.07,0.07892
3105.28,0.08073
3099.49,0.08248
3093.71,0.08410
3087.92,0.08558
3082.14,0.08698
3076.35,0.08832
3070.56,0.09052
3064.78,0.09185
3058.99,0.09422
3053.2,0.09567
3047.42,0.09757
3041.63,0.09901
3035.85,0.10063
3030.06,0.10131
3024.27,0.10168
3018.49,0.10170
3012.7,0.10070
3006.91,0.09958
3001.13,0.09780
2995.34,0.09679
2989.56,0.09367
2983.77,0.08893
2977.98,0.08396
2972.2,0.07658
2966.41,0.07252
2960.62,0.06989
2954.84,0.06678
2949.05,0.06432
2943.27,0.06164
2937.48,0.06082
2931.69,0.06035
2925.91,0.06030
2920.12,0.05920
2914.33,0.05892
2908.55,0.05939
2902.76,0.05919
2896.98,0.05964
2891.19,0.06078
2885.4,0.06180
2879.62,0.06301
2873.83,0.06379
2868.04,0.06563
2862.26,0.06754
2856.47,0.06949
2850.69,0.07184
2844.9,0.07673
2839.11,0.08135
2833.33,0.08662
2827.54,0.09212
2821.75,0.09759
2815.97,0.10226
2810.18,0.10691
2804.4,0.11101
2798.61,0.11415
2792.82,0.11675
2787.04,0.11919
2781.25,0.12053
2775.46,0.12179
2769.68,0.12261
2763.89,0.12346
2758.11,0.12497
2752.32,0.12528
2746.53,0.12617
2740.75,0.12613
2734.96,0.12704
2729.17,0.12815
2723.39,0.12967
2717.6,0.13137
2711.82,0.13381
2706.03,0.13573
2700.24,0.13840
2694.46,0.14142
2688.67,0.14326
2682.88,0.14571
2677.1,0.14843
2671.31,0.15015
2665.53,0.15239
2659.74,0.15385
2653.95,0.15528
2648.17,0.15706
2642.38,0.15931
2636.59,0.16120
2630.81,0.16299
2625.02,0.16532
2619.24,0.16720
2613.45,0.16858
2607.66,0.17043
2601.88,0.17226
2596.09,0.17335
2590.3,0.17523
2584.52,0.17644
2578.73,0.17750
2572.95,0.17796
2567.16,0.17908
2561.37,0.17914
2555.59,0.17935
2549.8,0.17934
2544.02,0.17955
2538.23,0.18048
2532.44,0.18193
2526.66,0.18391
2520.87,0.18513
2515.08,0.18662
2509.3,0.18865
2503.51,0.19176
2497.73,0.19462
2491.94,0.19754
2486.15,0.19982
2480.37,0.20261
2474.58,0.20496
2468.79,0.20738
2463.01,0.20936
2457.22,0.21183
2451.44,0.21434
2445.65,0.21634
2439.86,0.21943
2434.08,0.22224
2428.29,0.22514
2422.5,0.22853
2416.72,0.23123
2410.93,0.23405
2405.15,0.23684
2399.36,0.23984
2393.57,0.24176
2387.79,0.24435
2382,0.24680
2376.21,0.24910
2370.43,0.25122
2364.64,0.25323
2358.86,0.25457
2353.07,0.25593
2347.28,0.25743
2341.5,0.25862
2335.71,0.25937
2329.92,0.26046
2324.14,0.26131
2318.35,0.26176
2312.57,0.26178
2306.78,0.26115
2300.99,0.26051
2295.21,0.25930
2289.42,0.25855
2283.63,0.25780
2277.85,0.25668
2272.06,0.25494
2266.28,0.25239
2260.49,0.25034
2254.7,0.24773
2248.92,0.24658
2243.13,0.24567
2237.34,0.24428
2231.56,0.24310
2225.77,0.24269
2219.99,0.24226
2214.2,0.24152
2208.41,0.24087
2202.63,0.23924
2196.84,0.23720
2191.05,0.23417
2185.27,0.23116
2179.48,0.22744
2173.7,0.22383
2167.91,0.22030
2162.12,0.21760
2156.34,0.21553
2150.55,0.21352
2144.76,0.21207
2138.98,0.21041
2133.19,0.21050
2127.41,0.21062
2121.62,0.21125
2115.83,0.21281
2110.05,0.21389
2104.26,0.21507
2098.47,0.21596
2092.69,0.21723
2086.9,0.21760
2081.12,0.21766
2075.33,0.21705
2069.54,0.21539
2063.76,0.21503
2057.97,0.21428
2052.19,0.21441
2046.4,0.21550
2040.61,0.21726
2034.83,0.22029
2029.04,0.22365
2023.25,0.22720
2017.47,0.23058
2011.68,0.23370
2005.9,0.23620
2000.11,0.23806
1994.32,0.23983
1988.54,0.24224
1982.75,0.24381
1976.96,0.24551
1971.18,0.24715
1965.39,0.24922
1959.61,0.25112
1953.82,0.25408
1948.03,0.25721
1942.25,0.26017
1936.46,0.26319
1930.67,0.26507
1924.89,0.26624
1919.1,0.26710
1913.32,0.26762
1907.53,0.26782
1901.74,0.26713
1895.96,0.26652
1890.17,0.26600
1884.38,0.26543
1878.6,0.26507
1872.81,0.26423
1867.03,0.26348
1861.24,0.26229
1855.45,0.26085
1849.67,0.25881
1843.88,0.25646
1838.09,0.25368
1832.31,0.25085
1826.52,0.24730
1820.74,0.24317
1814.95,0.23857
1809.16,0.23267
1803.38,0.22589
1797.59,0.21804
1791.8,0.20933
1786.02,0.19876
1780.23,0.18578
1774.45,0.17012
1768.66,0.14818
1762.87,0.12445
1757.09,0.10114
1751.3,0.08430
1745.51,0.07406
1739.73,0.07016
1733.94,0.06922
1728.16,0.07069
1722.37,0.07377
1716.58,0.07926
1710.8,0.08560
1705.01,0.09041
1699.22,0.09177
1693.44,0.08897
1687.65,0.08463
1681.87,0.07816
1676.08,0.07167
1670.29,0.06626
1664.51,0.06242
1658.72,0.06168
1652.93,0.06239
1647.15,0.06325
1641.36,0.06311
1635.58,0.06366
1629.79,0.06403
1624,0.06501
1618.22,0.06487
1612.43,0.06307
1606.64,0.06152
1600.86,0.06120
1595.07,0.06170
1589.29,0.06397
1583.5,0.06968
1577.71,0.07888
1571.93,0.09000
1566.14,0.09967
1560.35,0.10441
1554.57,0.10628
1548.78,0.10573
1543,0.10398
1537.21,0.09811
1531.42,0.08839
1525.64,0.07418
1519.85,0.05670
1514.07,0.04757
1508.28,0.04750
1502.49,0.05284
1496.71,0.05945
1490.92,0.06297
1485.13,0.06105
1479.35,0.05692
1473.56,0.05088
1467.78,0.04570
1461.99,0.04442
1456.2,0.04406
1450.42,0.04416
1444.63,0.04459
1438.84,0.04398
1433.06,0.04175
1427.27,0.04135
1421.49,0.04315
1415.7,0.04483
1409.91,0.04673
1404.13,0.04708
1398.34,0.04707
1392.55,0.04518
1386.77,0.04264
1380.98,0.04019
1375.2,0.03989
1369.41,0.04077
1363.62,0.04163
1357.84,0.04294
1352.05,0.04355
1346.26,0.04355
1340.48,0.04227
1334.69,0.04197
1328.91,0.04209
1323.12,0.04146
1317.33,0.04139
1311.55,0.04223
1305.76,0.04321
1299.97,0.04319
1294.19,0.04181
1288.4,0.04004
1282.62,0.03820
1276.83,0.03806
1271.04,0.03856
1265.26,0.03871
1259.47,0.04006
1253.68,0.04066
1247.9,0.04057
1242.11,0.04025
1236.33,0.04000
1230.54,0.04042
1224.75,0.04134
1218.97,0.04226
1213.18,0.04176
1207.39,0.04084
1201.61,0.04099
1195.82,0.04129
1190.04,0.03973
1184.25,0.03713
1178.46,0.03424
1172.68,0.03292
1166.89,0.03439
1161.1,0.03781
1155.32,0.03822
1149.53,0.03699
1143.75,0.03514
1137.96,0.03336
1132.17,0.03180
1126.39,0.03213
1120.6,0.03251
1114.81,0.03441
1109.03,0.03679
1103.24,0.03696
1097.46,0.03665
1091.67,0.03626
1085.88,0.03662
1080.1,0.03886
1074.31,0.04365
1068.52,0.04786
1062.74,0.05446
1056.95,0.05906
1051.17,0.05805
1045.38,0.05531
1039.59,0.05702
1033.81,0.06223
1028.02,0.06307
1022.24,0.06332
1016.45,0.06412
1010.66,0.06443
1004.88,0.06356
999.09,0.06434
993.304,0.06628
987.518,0.06880
981.731,0.07343
975.945,0.07772
970.159,0.07946
964.373,0.08151
958.586,0.08454
952.8,0.08778
947.014,0.08944
941.228,0.09118
935.441,0.09297
929.655,0.09541
923.869,0.09600
918.083,0.09399
912.297,0.08984
906.51,0.08343
900.724,0.07856
894.938,0.07937
889.152,0.08296
883.365,0.08474
877.579,0.08456
871.793,0.08521
866.007,0.08651
860.22,0.08799
854.434,0.08982
848.648,0.09207
842.862,0.09174
837.075,0.08964
831.289,0.08688
825.503,0.08363
819.717,0.07847
813.931,0.07458
808.144,0.07388
802.358,0.07442
796.572,0.07463
790.786,0.07354
784.999,0.07222
779.213,0.07006
773.427,0.06878
767.641,0.06673
761.854,0.06585
756.068,0.06500
750.282,0.06346
744.496,0.06197
738.709,0.06126
732.923,0.05945
727.137,0.05754
721.351,0.05650
715.565,0.05446
709.778,0.05450
703.992,0.05347
698.206,0.05288
692.42,0.05355
686.633,0.05140
680.847,0.04977
675.061,0.04879
669.275,0.04832
663.488,0.04942
657.702,0.04887
651.916,0.05003
646.13,0.04897
640.343,0.04922
634.557,0.04715
628.771,0.04666
622.985,0.04476
617.198,0.04717
611.412,0.04682
605.626,0.05001
599.84,0.04930