File: 01_Data/Exterior_Plywood/FTIR/IS/Exterior_Plywood_IS_S_220927_R6.dpt
7497.03,0.79922
7491.25,0.79933
7485.46,0.79837
7479.67,0.78468
7473.89,0.77103
7468.1,0.78301
7462.32,0.78058
7456.53,0.77398
7450.74,0.77448
7444.96,0.77714
7439.17,0.77777
7433.38,0.76919
7427.6,0.77846
7421.81,0.77783
7416.03,0.75917
7410.24,0.76169
7404.45,0.76360
7398.67,0.75371
7392.88,0.75978
7387.09,0.74665
7381.31,0.75004
7375.52,0.75235
7369.74,0.74564
7363.95,0.74669
7358.16,0.73822
7352.38,0.75386
7346.59,0.74629
7340.8,0.74368
7335.02,0.74717
7329.23,0.73896
7323.45,0.73584
7317.66,0.73364
7311.87,0.73046
7306.09,0.73568
7300.3,0.73853
7294.51,0.73415
7288.73,0.73088
7282.94,0.72995
7277.16,0.73228
7271.37,0.73416
7265.58,0.73924
7259.8,0.73781
7254.01,0.73224
7248.22,0.72401
7242.44,0.72792
7236.65,0.72675
7230.87,0.72269
7225.08,0.72872
7219.29,0.72482
7213.51,0.72148
7207.72,0.72884
7201.93,0.72343
7196.15,0.71386
7190.36,0.71704
7184.58,0.70928
7178.79,0.70905
7173,0.71392
7167.22,0.70804
7161.43,0.70619
7155.65,0.70348
7149.86,0.69858
7144.07,0.69383
7138.29,0.69106
7132.5,0.69141
7126.71,0.69010
7120.93,0.68702
7115.14,0.68394
7109.36,0.68520
7103.57,0.67655
7097.78,0.66964
7092,0.67086
7086.21,0.64878
7080.42,0.64308
7074.64,0.64830
7068.85,0.64106
7063.07,0.63324
7057.28,0.63166
7051.49,0.62295
7045.71,0.62184
7039.92,0.61809
7034.13,0.62031
7028.35,0.60591
7022.56,0.60251
7016.78,0.59677
7010.99,0.60137
7005.2,0.59615
6999.42,0.59490
6993.63,0.58419
6987.84,0.58528
6982.06,0.58534
6976.27,0.58363
6970.49,0.57857
6964.7,0.58129
6958.91,0.57619
6953.13,0.57526
6947.34,0.57485
6941.55,0.57758
6935.77,0.57089
6929.98,0.57460
6924.2,0.57494
6918.41,0.57532
6912.62,0.57192
6906.84,0.57275
6901.05,0.57343
6895.26,0.57628
6889.48,0.57316
6883.69,0.56763
6877.91,0.57373
6872.12,0.56867
6866.33,0.57500
6860.55,0.56854
6854.76,0.56947
6848.97,0.56380
6843.19,0.57100
6837.4,0.56907
6831.62,0.57100
6825.83,0.56462
6820.04,0.57052
6814.26,0.56912
6808.47,0.56406
6802.68,0.57092
6796.9,0.56815
6791.11,0.56547
6785.33,0.56759
6779.54,0.56834
6773.75,0.56683
6767.97,0.56825
6762.18,0.56472
6756.39,0.56867
6750.61,0.56909
6744.82,0.56084
6739.04,0.56724
6733.25,0.56751
6727.46,0.57067
6721.68,0.56451
6715.89,0.56909
6710.1,0.57602
6704.32,0.57279
6698.53,0.57802
6692.75,0.57580
6686.96,0.57324
6681.17,0.57204
6675.39,0.57083
6669.6,0.57827
6663.82,0.57512
6658.03,0.57888
6652.24,0.57382
6646.46,0.57450
6640.67,0.57917
6634.88,0.58232
6629.1,0.58212
6623.31,0.58158
6617.53,0.58232
6611.74,0.58530
6605.95,0.58505
6600.17,0.58543
6594.38,0.58329
6588.59,0.58678
6582.81,0.58634
6577.02,0.59393
6571.24,0.58565
6565.45,0.58867
6559.66,0.59233
6553.88,0.59289
6548.09,0.59150
6542.3,0.58856
6536.52,0.59100
6530.73,0.59012
6524.95,0.59249
6519.16,0.59625
6513.37,0.59652
6507.59,0.59649
6501.8,0.59524
6496.01,0.60089
6490.23,0.59674
6484.44,0.59781
6478.66,0.59330
6472.87,0.59572
6467.08,0.59819
6461.3,0.59769
6455.51,0.59297
6449.72,0.59594
6443.94,0.59254
6438.15,0.59642
6432.37,0.60080
6426.58,0.60254
6420.79,0.60052
6415.01,0.59608
6409.22,0.60028
6403.43,0.59704
6397.65,0.60067
6391.86,0.60228
6386.08,0.60270
6380.29,0.59977
6374.5,0.60219
6368.72,0.60350
6362.93,0.60671
6357.14,0.60684
6351.36,0.60785
6345.57,0.60511
6339.79,0.60808
6334,0.61104
6328.21,0.60699
6322.43,0.60561
6316.64,0.60730
6310.85,0.60575
6305.07,0.60884
6299.28,0.61077
6293.5,0.61134
6287.71,0.61456
6281.92,0.61203
6276.14,0.61575
6270.35,0.61664
6264.56,0.61666
6258.78,0.61769
6252.99,0.62246
6247.21,0.62230
6241.42,0.62252
6235.63,0.62282
6229.85,0.62809
6224.06,0.63097
6218.27,0.63058
6212.49,0.63455
6206.7,0.63493
6200.92,0.63375
6195.13,0.63976
6189.34,0.64081
6183.56,0.64484
6177.77,0.64206
6171.98,0.64436
6166.2,0.64595
6160.41,0.64605
6154.63,0.64759
6148.84,0.64838
6143.05,0.65063
6137.27,0.65176
6131.48,0.65262
6125.7,0.65405
6119.91,0.65352
6114.12,0.65593
6108.34,0.65504
6102.55,0.66017
6096.76,0.65844
6090.98,0.65726
6085.19,0.66152
6079.41,0.65913
6073.62,0.65880
6067.83,0.65804
6062.05,0.65725
6056.26,0.66129
6050.47,0.66025
6044.69,0.65845
6038.9,0.65879
6033.12,0.65719
6027.33,0.65482
6021.54,0.65041
6015.76,0.65190
6009.97,0.65306
6004.18,0.65123
5998.4,0.64704
5992.61,0.64488
5986.83,0.64287
5981.04,0.64158
5975.25,0.64396
5969.47,0.64443
5963.68,0.64829
5957.89,0.64570
5952.11,0.64492
5946.32,0.64851
5940.54,0.64837
5934.75,0.64984
5928.96,0.65021
5923.18,0.64752
5917.39,0.64619
5911.6,0.64406
5905.82,0.64628
5900.03,0.64568
5894.25,0.64333
5888.46,0.64306
5882.67,0.64099
5876.89,0.63911
5871.1,0.63967
5865.31,0.63910
5859.53,0.63797
5853.74,0.64011
5847.96,0.63934
5842.17,0.63826
5836.38,0.63974
5830.6,0.63692
5824.81,0.63604
5819.02,0.63493
5813.24,0.63420
5807.45,0.62985
5801.67,0.63231
5795.88,0.63477
5790.09,0.63466
5784.31,0.63190
5778.52,0.63313
5772.73,0.63397
5766.95,0.63333
5761.16,0.63600
5755.38,0.63542
5749.59,0.63450
5743.8,0.63716
5738.02,0.63494
5732.23,0.63189
5726.44,0.63387
5720.66,0.63328
5714.87,0.63558
5709.09,0.63477
5703.3,0.63544
5697.51,0.63389
5691.73,0.63253
5685.94,0.63265
5680.15,0.63114
5674.37,0.63061
5668.58,0.63170
5662.8,0.63112
5657.01,0.63026
5651.22,0.62953
5645.44,0.62995
5639.65,0.62923
5633.87,0.63165
5628.08,0.63031
5622.29,0.62937
5616.51,0.62889
5610.72,0.62982
5604.93,0.62932
5599.15,0.62672
5593.36,0.62901
5587.58,0.62951
5581.79,0.63159
5576,0.62657
5570.22,0.62954
5564.43,0.63004
5558.64,0.63152
5552.86,0.63154
5547.07,0.63149
5541.29,0.63249
5535.5,0.63288
5529.71,0.63535
5523.93,0.63478
5518.14,0.63500
5512.35,0.63591
5506.57,0.63590
5500.78,0.63497
5495,0.63379
5489.21,0.63442
5483.42,0.63549
5477.64,0.63575
5471.85,0.63746
5466.06,0.64055
5460.28,0.63888
5454.49,0.64036
5448.71,0.64072
5442.92,0.64235
5437.13,0.64137
5431.35,0.64486
5425.56,0.64580
5419.77,0.64529
5413.99,0.64815
5408.2,0.64769
5402.42,0.64848
5396.63,0.64993
5390.84,0.64828
5385.06,0.65112
5379.27,0.65103
5373.48,0.64930
5367.7,0.64928
5361.91,0.64958
5356.13,0.64662
5350.34,0.64833
5344.55,0.64635
5338.77,0.64413
5332.98,0.64199
5327.19,0.64022
5321.41,0.63633
5315.62,0.63318
5309.84,0.62757
5304.05,0.62160
5298.26,0.61465
5292.48,0.60773
5286.69,0.59918
5280.9,0.58944
5275.12,0.57958
5269.33,0.56992
5263.55,0.55811
5257.76,0.54741
5251.97,0.53906
5246.19,0.53071
5240.4,0.52324
5234.61,0.51644
5228.83,0.50989
5223.04,0.50309
5217.26,0.49997
5211.47,0.49706
5205.68,0.49564
5199.9,0.49509
5194.11,0.49285
5188.32,0.49346
5182.54,0.49469
5176.75,0.49378
5170.97,0.49639
5165.18,0.49960
5159.39,0.50106
5153.61,0.50459
5147.82,0.50678
5142.03,0.51049
5136.25,0.51261
5130.46,0.51651
5124.68,0.52018
5118.89,0.52379
5113.1,0.52719
5107.32,0.52769
5101.53,0.53143
5095.75,0.53422
5089.96,0.53520
5084.17,0.54034
5078.39,0.54283
5072.6,0.54597
5066.81,0.54781
5061.03,0.54962
5055.24,0.55097
5049.46,0.55561
5043.67,0.55585
5037.88,0.55819
5032.1,0.56025
5026.31,0.56218
5020.52,0.56452
5014.74,0.56412
5008.95,0.56505
5003.17,0.56492
4997.38,0.56517
4991.59,0.56500
4985.81,0.56303
4980.02,0.56191
4974.23,0.56083
4968.45,0.55871
4962.66,0.55504
4956.88,0.55156
4951.09,0.54781
4945.3,0.54433
4939.52,0.53844
4933.73,0.53471
4927.94,0.53038
4922.16,0.52550
4916.37,0.51906
4910.59,0.51447
4904.8,0.51055
4899.01,0.50452
4893.23,0.49881
4887.44,0.49363
4881.65,0.48932
4875.87,0.48442
4870.08,0.47878
4864.3,0.47537
4858.51,0.46970
4852.72,0.46608
4846.94,0.46324
4841.15,0.46056
4835.36,0.45581
4829.58,0.45247
4823.79,0.44994
4818.01,0.44656
4812.22,0.44432
4806.43,0.44202
4800.65,0.43993
4794.86,0.43821
4789.07,0.43745
4783.29,0.43706
4777.5,0.43561
4771.72,0.43553
4765.93,0.43464
4760.14,0.43492
4754.36,0.43424
4748.57,0.43306
4742.78,0.43397
4737,0.43489
4731.21,0.43632
4725.43,0.43664
4719.64,0.43783
4713.85,0.43789
4708.07,0.43805
4702.28,0.43999
4696.49,0.44154
4690.71,0.44376
4684.92,0.44481
4679.14,0.44663
4673.35,0.44902
4667.56,0.45042
4661.78,0.45261
4655.99,0.45412
4650.2,0.45743
4644.42,0.46004
4638.63,0.46257
4632.85,0.46461
4627.06,0.46630
4621.27,0.46924
4615.49,0.47223
4609.7,0.47531
4603.92,0.47954
4598.13,0.48155
4592.34,0.48356
4586.56,0.48699
4580.77,0.48875
4574.98,0.49061
4569.2,0.49269
4563.41,0.49452
4557.63,0.49637
4551.84,0.49629
4546.05,0.49974
4540.27,0.49994
4534.48,0.50191
4528.69,0.50273
4522.91,0.50321
4517.12,0.50231
4511.34,0.50250
4505.55,0.50219
4499.76,0.50044
4493.98,0.49931
4488.19,0.49581
4482.4,0.49285
4476.62,0.48818
4470.83,0.48265
4465.05,0.47798
4459.26,0.47171
4453.47,0.46423
4447.69,0.45762
4441.9,0.45053
4436.11,0.44362
4430.33,0.43565
4424.54,0.42931
4418.76,0.42184
4412.97,0.41491
4407.18,0.41006
4401.4,0.40623
4395.61,0.40638
4389.82,0.40693
4384.04,0.40823
4378.25,0.41119
4372.47,0.41411
4366.68,0.41544
4360.89,0.41864
4355.11,0.41792
4349.32,0.41738
4343.53,0.41641
4337.75,0.41541
4331.96,0.41342
4326.18,0.41113
4320.39,0.40793
4314.6,0.40581
4308.82,0.40207
4303.03,0.40048
4297.24,0.39691
4291.46,0.39570
4285.67,0.39370
4279.89,0.39437
4274.1,0.39411
4268.31,0.39483
4262.53,0.39617
4256.74,0.39711
4250.95,0.39799
4245.17,0.39891
4239.38,0.39923
4233.6,0.39998
4227.81,0.40031
4222.02,0.39991
4216.24,0.39893
4210.45,0.40025
4204.66,0.40043
4198.88,0.40063
4193.09,0.40160
4187.31,0.40264
4181.52,0.40297
4175.73,0.40467
4169.95,0.40593
4164.16,0.40671
4158.37,0.40761
4152.59,0.40630
4146.8,0.40447
4141.02,0.40275
4135.23,0.39910
4129.44,0.39638
4123.66,0.39305
4117.87,0.38889
4112.09,0.38417
4106.3,0.37809
4100.51,0.37288
4094.73,0.36722
4088.94,0.36168
4083.15,0.35628
4077.37,0.34925
4071.58,0.34385
4065.8,0.33757
4060.01,0.33176
4054.22,0.32644
4048.44,0.32037
4042.65,0.31613
4036.86,0.31236
4031.08,0.30863
4025.29,0.30664
4019.51,0.30571
4013.72,0.30463
4007.93,0.30479
4002.15,0.30559
3996.36,0.30740
3990.57,0.30922
3984.79,0.31029
3979,0.31259
3973.22,0.31429
3967.43,0.31609
3961.64,0.31841
3955.86,0.32222
3950.07,0.32404
3944.28,0.32751
3938.5,0.33042
3932.71,0.33320
3926.93,0.33622
3921.14,0.33877
3915.35,0.34180
3909.57,0.34423
3903.78,0.34723
3897.99,0.34866
3892.21,0.35161
3886.42,0.35323
3880.64,0.35542
3874.85,0.35729
3869.06,0.36023
3863.28,0.36188
3857.49,0.36453
3851.7,0.36871
3845.92,0.37036
3840.13,0.37252
3834.35,0.37363
3828.56,0.37418
3822.77,0.37452
3816.99,0.37507
3811.2,0.37491
3805.41,0.37443
3799.63,0.37401
3793.84,0.37373
3788.06,0.37317
3782.27,0.37217
3776.48,0.37116
3770.7,0.37048
3764.91,0.36934
3759.12,0.36695
3753.34,0.36503
3747.55,0.36190
3741.77,0.35892
3735.98,0.35556
3730.19,0.35041
3724.41,0.34574
3718.62,0.34022
3712.83,0.33328
3707.05,0.32544
3701.26,0.31610
3695.48,0.30401
3689.69,0.29079
3683.9,0.27346
3678.12,0.25627
3672.33,0.23548
3666.54,0.21492
3660.76,0.19580
3654.97,0.17860
3649.19,0.16251
3643.4,0.14795
3637.61,0.13632
3631.83,0.12524
3626.04,0.11525
3620.25,0.10615
3614.47,0.09789
3608.68,0.09045
3602.9,0.08434
3597.11,0.07841
3591.32,0.07270
3585.54,0.06831
3579.75,0.06502
3573.97,0.06173
3568.18,0.05838
3562.39,0.05637
3556.61,0.05409
3550.82,0.05153
3545.03,0.04990
3539.25,0.04820
3533.46,0.04656
3527.68,0.04561
3521.89,0.04440
3516.1,0.04339
3510.32,0.04245
3504.53,0.04135
3498.74,0.04090
3492.96,0.04039
3487.17,0.03998
3481.39,0.03979
3475.6,0.03932
3469.81,0.03858
3464.03,0.03855
3458.24,0.03842
3452.45,0.03916
3446.67,0.03861
3440.88,0.03883
3435.1,0.03826
3429.31,0.03818
3423.52,0.03852
3417.74,0.03895
3411.95,0.03860
3406.16,0.03888
3400.38,0.03850
3394.59,0.03963
3388.81,0.03947
3383.02,0.03887
3377.23,0.03933
3371.45,0.04003
3365.66,0.03942
3359.87,0.03956
3354.09,0.03961
3348.3,0.04000
3342.52,0.04119
3336.73,0.04142
3330.94,0.04237
3325.16,0.04308
3319.37,0.04346
3313.58,0.04419
3307.8,0.04386
3302.01,0.04457
3296.23,0.04433
3290.44,0.04554
3284.65,0.04603
3278.87,0.04669
3273.08,0.04732
3267.29,0.04821
3261.51,0.04864
3255.72,0.04986
3249.94,0.04987
3244.15,0.05055
3238.36,0.05202
3232.58,0.05285
3226.79,0.05317
3221,0.05513
3215.22,0.05629
3209.43,0.05682
3203.65,0.05880
3197.86,0.06006
3192.07,0.06097
3186.29,0.06291
3180.5,0.06425
3174.71,0.06570
3168.93,0.06731
3163.14,0.06867
3157.36,0.07091
3151.57,0.07258
3145.78,0.07424
3140,0.07614
3134.21,0.07791
3128.42,0.07961
3122.64,0.08149
3116.85,0.08320
3111.07,0.08557
3105.28,0.08777
3099.49,0.08970
3093.71,0.09104
3087.92,0.09287
3082.14,0.09506
3076.35,0.09663
3070.56,0.09791
3064.78,0.10017
3058.99,0.10199
3053.2,0.10356
3047.42,0.10525
3041.63,0.10654
3035.85,0.10801
3030.06,0.10880
3024.27,0.10927
3018.49,0.10827
3012.7,0.10669
3006.91,0.10504
3001.13,0.10288
2995.34,0.10126
2989.56,0.09780
2983.77,0.09281
2977.98,0.08588
2972.2,0.07853
2966.41,0.07356
2960.62,0.07078
2954.84,0.06847
2949.05,0.06510
2943.27,0.06201
2937.48,0.06127
2931.69,0.06050
2925.91,0.06014
2920.12,0.05958
2914.33,0.05938
2908.55,0.05967
2902.76,0.05950
2896.98,0.06043
2891.19,0.06137
2885.4,0.06243
2879.62,0.06350
2873.83,0.06443
2868.04,0.06583
2862.26,0.06775
2856.47,0.07038
2850.69,0.07329
2844.9,0.07753
2839.11,0.08254
2833.33,0.08800
2827.54,0.09410
2821.75,0.09898
2815.97,0.10478
2810.18,0.10970
2804.4,0.11349
2798.61,0.11733
2792.82,0.11954
2787.04,0.12205
2781.25,0.12394
2775.46,0.12476
2769.68,0.12614
2763.89,0.12674
2758.11,0.12822
2752.32,0.12850
2746.53,0.12977
2740.75,0.12952
2734.96,0.13015
2729.17,0.13151
2723.39,0.13277
2717.6,0.13488
2711.82,0.13709
2706.03,0.13943
2700.24,0.14221
2694.46,0.14439
2688.67,0.14698
2682.88,0.14952
2677.1,0.15187
2671.31,0.15397
2665.53,0.15557
2659.74,0.15672
2653.95,0.15916
2648.17,0.16085
2642.38,0.16277
2636.59,0.16481
2630.81,0.16687
2625.02,0.16890
2619.24,0.17090
2613.45,0.17255
2607.66,0.17392
2601.88,0.17531
2596.09,0.17710
2590.3,0.17864
2584.52,0.18010
2578.73,0.18114
2572.95,0.18191
2567.16,0.18224
2561.37,0.18304
2555.59,0.18321
2549.8,0.18350
2544.02,0.18329
2538.23,0.18407
2532.44,0.18524
2526.66,0.18709
2520.87,0.18869
2515.08,0.19004
2509.3,0.19283
2503.51,0.19583
2497.73,0.19883
2491.94,0.20171
2486.15,0.20447
2480.37,0.20675
2474.58,0.20891
2468.79,0.21171
2463.01,0.21373
2457.22,0.21561
2451.44,0.21824
2445.65,0.22103
2439.86,0.22358
2434.08,0.22667
2428.29,0.23011
2422.5,0.23349
2416.72,0.23615
2410.93,0.23927
2405.15,0.24209
2399.36,0.24478
2393.57,0.24801
2387.79,0.25039
2382,0.25272
2376.21,0.25564
2370.43,0.25810
2364.64,0.25989
2358.86,0.26189
2353.07,0.26340
2347.28,0.26530
2341.5,0.26696
2335.71,0.26834
2329.92,0.26912
2324.14,0.27015
2318.35,0.27039
2312.57,0.27093
2306.78,0.27064
2300.99,0.27016
2295.21,0.26939
2289.42,0.26865
2283.63,0.26786
2277.85,0.26708
2272.06,0.26570
2266.28,0.26287
2260.49,0.26027
2254.7,0.25905
2248.92,0.25787
2243.13,0.25677
2237.34,0.25603
2231.56,0.25496
2225.77,0.25419
2219.99,0.25448
2214.2,0.25441
2208.41,0.25346
2202.63,0.25198
2196.84,0.25005
2191.05,0.24738
2185.27,0.24336
2179.48,0.23988
2173.7,0.23632
2167.91,0.23289
2162.12,0.22959
2156.34,0.22728
2150.55,0.22557
2144.76,0.22386
2138.98,0.22249
2133.19,0.22221
2127.41,0.22303
2121.62,0.22387
2115.83,0.22502
2110.05,0.22627
2104.26,0.22767
2098.47,0.22856
2092.69,0.22972
2086.9,0.23033
2081.12,0.22995
2075.33,0.22890
2069.54,0.22735
2063.76,0.22657
2057.97,0.22622
2052.19,0.22632
2046.4,0.22676
2040.61,0.22901
2034.83,0.23196
2029.04,0.23507
2023.25,0.23920
2017.47,0.24265
2011.68,0.24613
2005.9,0.24823
2000.11,0.25030
1994.32,0.25201
1988.54,0.25432
1982.75,0.25632
1976.96,0.25760
1971.18,0.25905
1965.39,0.26114
1959.61,0.26358
1953.82,0.26654
1948.03,0.26963
1942.25,0.27281
1936.46,0.27545
1930.67,0.27749
1924.89,0.27863
1919.1,0.27964
1913.32,0.28009
1907.53,0.27983
1901.74,0.27946
1895.96,0.27890
1890.17,0.27811
1884.38,0.27738
1878.6,0.27688
1872.81,0.27604
1867.03,0.27556
1861.24,0.27411
1855.45,0.27229
1849.67,0.27041
1843.88,0.26748
1838.09,0.26448
1832.31,0.26167
1826.52,0.25799
1820.74,0.25349
1814.95,0.24843
1809.16,0.24238
1803.38,0.23528
1797.59,0.22656
1791.8,0.21644
1786.02,0.20536
1780.23,0.19114
1774.45,0.17370
1768.66,0.14940
1762.87,0.12449
1757.09,0.10086
1751.3,0.08398
1745.51,0.07428
1739.73,0.07049
1733.94,0.07010
1728.16,0.07215
1722.37,0.07619
1716.58,0.08226
1710.8,0.08927
1705.01,0.09502
1699.22,0.09736
1693.44,0.09499
1687.65,0.09117
1681.87,0.08402
1676.08,0.07764
1670.29,0.07162
1664.51,0.06796
1658.72,0.06736
1652.93,0.06889
1647.15,0.07002
1641.36,0.06982
1635.58,0.06969
1629.79,0.07021
1624,0.06933
1618.22,0.06901
1612.43,0.06622
1606.64,0.06389
1600.86,0.06333
1595.07,0.06328
1589.29,0.06580
1583.5,0.07157
1577.71,0.08158
1571.93,0.09380
1566.14,0.10418
1560.35,0.10967
1554.57,0.11145
1548.78,0.11125
1543,0.10911
1537.21,0.10226
1531.42,0.09186
1525.64,0.07596
1519.85,0.05745
1514.07,0.04781
1508.28,0.04759
1502.49,0.05304
1496.71,0.05986
1490.92,0.06356
1485.13,0.06155
1479.35,0.05735
1473.56,0.05140
1467.78,0.04662
1461.99,0.04503
1456.2,0.04455
1450.42,0.04429
1444.63,0.04551
1438.84,0.04432
1433.06,0.04199
1427.27,0.04152
1421.49,0.04324
1415.7,0.04530
1409.91,0.04615
1404.13,0.04667
1398.34,0.04684
1392.55,0.04554
1386.77,0.04300
1380.98,0.04076
1375.2,0.03979
1369.41,0.04031
1363.62,0.04158
1357.84,0.04277
1352.05,0.04367
1346.26,0.04356
1340.48,0.04295
1334.69,0.04212
1328.91,0.04190
1323.12,0.04152
1317.33,0.04125
1311.55,0.04214
1305.76,0.04299
1299.97,0.04294
1294.19,0.04186
1288.4,0.04033
1282.62,0.03885
1276.83,0.03810
1271.04,0.03816
1265.26,0.03866
1259.47,0.04021
1253.68,0.04094
1247.9,0.04064
1242.11,0.04026
1236.33,0.04018
1230.54,0.04052
1224.75,0.04127
1218.97,0.04182
1213.18,0.04194
1207.39,0.04072
1201.61,0.04069
1195.82,0.04108
1190.04,0.04001
1184.25,0.03713
1178.46,0.03474
1172.68,0.03342
1166.89,0.03468
1161.1,0.03770
1155.32,0.03836
1149.53,0.03700
1143.75,0.03516
1137.96,0.03413
1132.17,0.03164
1126.39,0.03137
1120.6,0.03323
1114.81,0.03438
1109.03,0.03657
1103.24,0.03718
1097.46,0.03727
1091.67,0.03660
1085.88,0.03671
1080.1,0.03944
1074.31,0.04421
1068.52,0.04873
1062.74,0.05496
1056.95,0.05921
1051.17,0.05794
1045.38,0.05567
1039.59,0.05635
1033.81,0.06233
1028.02,0.06359
1022.24,0.06306
1016.45,0.06410
1010.66,0.06524
1004.88,0.06410
999.09,0.06495
993.304,0.06673
987.518,0.06880
981.731,0.07370
975.945,0.07824
970.159,0.08004
964.373,0.08274
958.586,0.08593
952.8,0.08876
947.014,0.09136
941.228,0.09330
935.441,0.09567
929.655,0.09733
923.869,0.09855
918.083,0.09708
912.297,0.09243
906.51,0.08631
900.724,0.08097
894.938,0.08118
889.152,0.08463
883.365,0.08768
877.579,0.08820
871.793,0.08913
866.007,0.09045
860.22,0.09256
854.434,0.09489
848.648,0.09786
842.862,0.09860
837.075,0.09619
831.289,0.09300
825.503,0.08916
819.717,0.08426
813.931,0.07961
808.144,0.07852
802.358,0.07952
796.572,0.08087
790.786,0.08070
784.999,0.07807
779.213,0.07576
773.427,0.07345
767.641,0.07302
761.854,0.07195
756.068,0.07034
750.282,0.06833
744.496,0.06617
738.709,0.06504
732.923,0.06308
727.137,0.06055
721.351,0.05877
715.565,0.05884
709.778,0.05730
703.992,0.05687
698.206,0.05607
692.42,0.05520
686.633,0.05346
680.847,0.05239
675.061,0.05122
669.275,0.05068
663.488,0.04986
657.702,0.05137
651.916,0.05098
646.13,0.04981
640.343,0.04816
634.557,0.04868
628.771,0.04719
622.985,0.04663
617.198,0.04758
611.412,0.05044
605.626,0.05156
599.84,0.04912