File: 01_Data/Exterior_Plywood/FTIR/IS/Exterior_Plywood_IS_S_220927_R5.dpt
7497.03,0.79301
7491.25,0.79309
7485.46,0.79558
7479.67,0.78289
7473.89,0.78512
7468.1,0.79413
7462.32,0.79081
7456.53,0.78427
7450.74,0.78537
7444.96,0.77973
7439.17,0.78406
7433.38,0.77396
7427.6,0.77840
7421.81,0.77401
7416.03,0.76999
7410.24,0.76855
7404.45,0.75994
7398.67,0.75978
7392.88,0.75792
7387.09,0.75064
7381.31,0.75476
7375.52,0.75149
7369.74,0.74622
7363.95,0.74011
7358.16,0.74858
7352.38,0.74520
7346.59,0.75684
7340.8,0.74976
7335.02,0.73785
7329.23,0.73196
7323.45,0.73115
7317.66,0.74062
7311.87,0.73772
7306.09,0.72727
7300.3,0.74412
7294.51,0.74346
7288.73,0.73123
7282.94,0.73097
7277.16,0.72574
7271.37,0.72932
7265.58,0.73536
7259.8,0.73384
7254.01,0.72335
7248.22,0.72417
7242.44,0.73004
7236.65,0.73003
7230.87,0.72676
7225.08,0.72436
7219.29,0.72246
7213.51,0.72851
7207.72,0.72152
7201.93,0.72622
7196.15,0.71689
7190.36,0.71917
7184.58,0.71693
7178.79,0.71310
7173,0.71111
7167.22,0.70512
7161.43,0.70988
7155.65,0.70075
7149.86,0.69722
7144.07,0.69350
7138.29,0.69658
7132.5,0.69170
7126.71,0.68611
7120.93,0.67814
7115.14,0.67475
7109.36,0.67531
7103.57,0.66817
7097.78,0.66025
7092,0.66044
7086.21,0.65469
7080.42,0.64865
7074.64,0.64465
7068.85,0.63942
7063.07,0.63333
7057.28,0.63103
7051.49,0.63065
7045.71,0.62363
7039.92,0.62104
7034.13,0.60747
7028.35,0.60378
7022.56,0.60467
7016.78,0.60236
7010.99,0.60048
7005.2,0.59895
6999.42,0.58910
6993.63,0.59097
6987.84,0.58202
6982.06,0.58187
6976.27,0.58486
6970.49,0.57838
6964.7,0.58259
6958.91,0.57931
6953.13,0.58257
6947.34,0.57722
6941.55,0.57246
6935.77,0.57429
6929.98,0.57014
6924.2,0.57634
6918.41,0.57483
6912.62,0.57602
6906.84,0.58054
6901.05,0.57334
6895.26,0.57673
6889.48,0.57615
6883.69,0.57404
6877.91,0.56831
6872.12,0.56817
6866.33,0.57196
6860.55,0.57310
6854.76,0.56756
6848.97,0.56978
6843.19,0.56452
6837.4,0.56713
6831.62,0.56297
6825.83,0.56761
6820.04,0.57216
6814.26,0.57240
6808.47,0.56649
6802.68,0.57028
6796.9,0.57266
6791.11,0.56660
6785.33,0.56876
6779.54,0.57111
6773.75,0.57013
6767.97,0.56556
6762.18,0.56914
6756.39,0.56953
6750.61,0.57106
6744.82,0.56973
6739.04,0.56788
6733.25,0.57800
6727.46,0.56896
6721.68,0.56874
6715.89,0.57103
6710.1,0.57148
6704.32,0.57082
6698.53,0.57160
6692.75,0.57228
6686.96,0.57593
6681.17,0.57370
6675.39,0.57189
6669.6,0.57468
6663.82,0.57636
6658.03,0.57532
6652.24,0.57351
6646.46,0.57590
6640.67,0.57780
6634.88,0.57963
6629.1,0.58106
6623.31,0.57697
6617.53,0.58497
6611.74,0.58401
6605.95,0.58121
6600.17,0.58133
6594.38,0.58059
6588.59,0.58826
6582.81,0.58776
6577.02,0.58922
6571.24,0.59351
6565.45,0.59255
6559.66,0.58573
6553.88,0.58928
6548.09,0.59079
6542.3,0.58818
6536.52,0.58867
6530.73,0.59464
6524.95,0.59390
6519.16,0.59542
6513.37,0.59616
6507.59,0.59218
6501.8,0.59446
6496.01,0.59648
6490.23,0.59653
6484.44,0.59341
6478.66,0.59576
6472.87,0.59714
6467.08,0.59937
6461.3,0.59599
6455.51,0.59830
6449.72,0.59739
6443.94,0.59696
6438.15,0.59724
6432.37,0.59938
6426.58,0.59584
6420.79,0.60228
6415.01,0.60354
6409.22,0.59810
6403.43,0.60091
6397.65,0.59969
6391.86,0.59990
6386.08,0.60209
6380.29,0.60347
6374.5,0.60838
6368.72,0.60592
6362.93,0.60680
6357.14,0.60814
6351.36,0.60626
6345.57,0.60488
6339.79,0.60491
6334,0.60920
6328.21,0.60774
6322.43,0.60558
6316.64,0.60685
6310.85,0.60479
6305.07,0.60752
6299.28,0.60930
6293.5,0.60724
6287.71,0.61263
6281.92,0.61398
6276.14,0.61225
6270.35,0.61504
6264.56,0.61727
6258.78,0.61702
6252.99,0.62202
6247.21,0.62099
6241.42,0.62095
6235.63,0.62332
6229.85,0.62486
6224.06,0.62912
6218.27,0.62845
6212.49,0.63469
6206.7,0.63373
6200.92,0.64129
6195.13,0.63988
6189.34,0.63834
6183.56,0.64115
6177.77,0.64162
6171.98,0.64612
6166.2,0.64787
6160.41,0.64711
6154.63,0.64832
6148.84,0.64954
6143.05,0.65298
6137.27,0.65392
6131.48,0.65262
6125.7,0.65440
6119.91,0.65387
6114.12,0.65784
6108.34,0.65851
6102.55,0.65689
6096.76,0.66107
6090.98,0.66017
6085.19,0.66046
6079.41,0.66135
6073.62,0.66105
6067.83,0.66078
6062.05,0.66217
6056.26,0.66138
6050.47,0.65915
6044.69,0.65583
6038.9,0.65642
6033.12,0.65517
6027.33,0.65697
6021.54,0.65490
6015.76,0.65194
6009.97,0.65244
6004.18,0.65244
5998.4,0.64680
5992.61,0.64854
5986.83,0.64949
5981.04,0.64585
5975.25,0.64353
5969.47,0.64823
5963.68,0.64838
5957.89,0.65014
5952.11,0.64732
5946.32,0.64566
5940.54,0.64660
5934.75,0.65017
5928.96,0.64760
5923.18,0.64862
5917.39,0.64828
5911.6,0.64618
5905.82,0.64491
5900.03,0.64466
5894.25,0.64195
5888.46,0.64251
5882.67,0.64466
5876.89,0.63840
5871.1,0.63825
5865.31,0.64002
5859.53,0.63749
5853.74,0.63848
5847.96,0.63870
5842.17,0.63893
5836.38,0.63707
5830.6,0.63770
5824.81,0.63722
5819.02,0.63591
5813.24,0.63578
5807.45,0.63571
5801.67,0.63358
5795.88,0.63091
5790.09,0.63280
5784.31,0.63246
5778.52,0.63460
5772.73,0.63547
5766.95,0.63520
5761.16,0.63542
5755.38,0.63587
5749.59,0.63364
5743.8,0.63679
5738.02,0.63729
5732.23,0.63546
5726.44,0.63470
5720.66,0.63412
5714.87,0.63405
5709.09,0.63410
5703.3,0.63567
5697.51,0.63415
5691.73,0.63252
5685.94,0.63229
5680.15,0.63255
5674.37,0.63362
5668.58,0.63096
5662.8,0.63155
5657.01,0.62963
5651.22,0.62957
5645.44,0.63038
5639.65,0.63123
5633.87,0.62915
5628.08,0.62901
5622.29,0.62896
5616.51,0.63053
5610.72,0.63012
5604.93,0.63075
5599.15,0.63107
5593.36,0.63108
5587.58,0.62934
5581.79,0.63116
5576,0.63240
5570.22,0.62962
5564.43,0.63375
5558.64,0.63355
5552.86,0.63273
5547.07,0.63326
5541.29,0.63363
5535.5,0.63410
5529.71,0.63403
5523.93,0.63266
5518.14,0.63466
5512.35,0.63625
5506.57,0.63624
5500.78,0.63794
5495,0.63642
5489.21,0.63599
5483.42,0.63651
5477.64,0.63787
5471.85,0.63688
5466.06,0.63803
5460.28,0.64028
5454.49,0.64092
5448.71,0.64081
5442.92,0.64243
5437.13,0.64512
5431.35,0.64505
5425.56,0.64473
5419.77,0.64696
5413.99,0.64953
5408.2,0.64912
5402.42,0.64759
5396.63,0.65011
5390.84,0.64991
5385.06,0.65111
5379.27,0.65308
5373.48,0.65170
5367.7,0.65040
5361.91,0.64906
5356.13,0.64940
5350.34,0.64956
5344.55,0.64778
5338.77,0.64572
5332.98,0.64476
5327.19,0.64145
5321.41,0.63699
5315.62,0.63247
5309.84,0.62793
5304.05,0.62064
5298.26,0.61507
5292.48,0.60665
5286.69,0.59885
5280.9,0.58981
5275.12,0.58050
5269.33,0.56819
5263.55,0.55821
5257.76,0.54686
5251.97,0.53723
5246.19,0.52657
5240.4,0.52006
5234.61,0.51347
5228.83,0.50695
5223.04,0.50237
5217.26,0.49759
5211.47,0.49624
5205.68,0.49510
5199.9,0.49315
5194.11,0.49225
5188.32,0.49162
5182.54,0.49223
5176.75,0.49508
5170.97,0.49557
5165.18,0.49681
5159.39,0.49984
5153.61,0.50348
5147.82,0.50453
5142.03,0.50834
5136.25,0.51297
5130.46,0.51391
5124.68,0.51754
5118.89,0.52063
5113.1,0.52264
5107.32,0.52612
5101.53,0.52900
5095.75,0.53197
5089.96,0.53428
5084.17,0.53761
5078.39,0.54180
5072.6,0.54427
5066.81,0.54680
5061.03,0.54755
5055.24,0.55212
5049.46,0.55487
5043.67,0.55520
5037.88,0.55839
5032.1,0.55894
5026.31,0.56071
5020.52,0.56218
5014.74,0.56159
5008.95,0.56441
5003.17,0.56542
4997.38,0.56533
4991.59,0.56358
4985.81,0.56252
4980.02,0.56233
4974.23,0.55977
4968.45,0.55761
4962.66,0.55522
4956.88,0.55149
4951.09,0.54839
4945.3,0.54430
4939.52,0.53968
4933.73,0.53462
4927.94,0.53008
4922.16,0.52498
4916.37,0.52115
4910.59,0.51479
4904.8,0.50994
4899.01,0.50400
4893.23,0.50001
4887.44,0.49485
4881.65,0.49025
4875.87,0.48474
4870.08,0.47901
4864.3,0.47527
4858.51,0.47115
4852.72,0.46731
4846.94,0.46529
4841.15,0.45915
4835.36,0.45646
4829.58,0.45291
4823.79,0.44871
4818.01,0.44800
4812.22,0.44451
4806.43,0.44238
4800.65,0.44099
4794.86,0.43943
4789.07,0.43936
4783.29,0.43812
4777.5,0.43725
4771.72,0.43520
4765.93,0.43549
4760.14,0.43471
4754.36,0.43491
4748.57,0.43510
4742.78,0.43541
4737,0.43577
4731.21,0.43594
4725.43,0.43787
4719.64,0.43845
4713.85,0.43947
4708.07,0.44023
4702.28,0.44143
4696.49,0.44266
4690.71,0.44304
4684.92,0.44542
4679.14,0.44641
4673.35,0.44937
4667.56,0.45068
4661.78,0.45314
4655.99,0.45586
4650.2,0.45815
4644.42,0.45939
4638.63,0.46152
4632.85,0.46585
4627.06,0.46731
4621.27,0.47057
4615.49,0.47425
4609.7,0.47593
4603.92,0.47950
4598.13,0.48168
4592.34,0.48437
4586.56,0.48727
4580.77,0.48981
4574.98,0.49194
4569.2,0.49336
4563.41,0.49494
4557.63,0.49709
4551.84,0.49800
4546.05,0.49993
4540.27,0.50154
4534.48,0.50206
4528.69,0.50308
4522.91,0.50342
4517.12,0.50336
4511.34,0.50357
4505.55,0.50217
4499.76,0.50121
4493.98,0.49791
4488.19,0.49572
4482.4,0.49358
4476.62,0.48873
4470.83,0.48356
4465.05,0.47770
4459.26,0.47151
4453.47,0.46440
4447.69,0.45939
4441.9,0.45095
4436.11,0.44395
4430.33,0.43658
4424.54,0.42895
4418.76,0.42117
4412.97,0.41477
4407.18,0.40998
4401.4,0.40733
4395.61,0.40625
4389.82,0.40800
4384.04,0.40955
4378.25,0.41159
4372.47,0.41342
4366.68,0.41540
4360.89,0.41823
4355.11,0.41860
4349.32,0.41758
4343.53,0.41696
4337.75,0.41590
4331.96,0.41448
4326.18,0.41204
4320.39,0.40926
4314.6,0.40639
4308.82,0.40342
4303.03,0.40022
4297.24,0.39882
4291.46,0.39677
4285.67,0.39448
4279.89,0.39495
4274.1,0.39437
4268.31,0.39554
4262.53,0.39658
4256.74,0.39750
4250.95,0.39876
4245.17,0.40006
4239.38,0.40033
4233.6,0.39991
4227.81,0.40049
4222.02,0.40052
4216.24,0.39954
4210.45,0.40021
4204.66,0.40168
4198.88,0.40170
4193.09,0.40221
4187.31,0.40319
4181.52,0.40281
4175.73,0.40487
4169.95,0.40660
4164.16,0.40737
4158.37,0.40751
4152.59,0.40670
4146.8,0.40504
4141.02,0.40216
4135.23,0.40004
4129.44,0.39724
4123.66,0.39252
4117.87,0.38826
4112.09,0.38440
4106.3,0.37908
4100.51,0.37307
4094.73,0.36737
4088.94,0.36221
4083.15,0.35568
4077.37,0.35008
4071.58,0.34375
4065.8,0.33764
4060.01,0.33235
4054.22,0.32608
4048.44,0.32083
4042.65,0.31647
4036.86,0.31226
4031.08,0.30890
4025.29,0.30693
4019.51,0.30538
4013.72,0.30454
4007.93,0.30571
4002.15,0.30601
3996.36,0.30726
3990.57,0.30962
3984.79,0.31152
3979,0.31250
3973.22,0.31394
3967.43,0.31591
3961.64,0.31889
3955.86,0.32175
3950.07,0.32457
3944.28,0.32738
3938.5,0.33077
3932.71,0.33332
3926.93,0.33662
3921.14,0.33882
3915.35,0.34157
3909.57,0.34391
3903.78,0.34635
3897.99,0.34930
3892.21,0.35131
3886.42,0.35274
3880.64,0.35538
3874.85,0.35683
3869.06,0.35954
3863.28,0.36158
3857.49,0.36469
3851.7,0.36794
3845.92,0.36939
3840.13,0.37159
3834.35,0.37263
3828.56,0.37368
3822.77,0.37459
3816.99,0.37388
3811.2,0.37440
3805.41,0.37462
3799.63,0.37393
3793.84,0.37387
3788.06,0.37300
3782.27,0.37252
3776.48,0.37157
3770.7,0.36983
3764.91,0.36826
3759.12,0.36657
3753.34,0.36338
3747.55,0.36097
3741.77,0.35760
3735.98,0.35436
3730.19,0.35072
3724.41,0.34537
3718.62,0.33884
3712.83,0.33224
3707.05,0.32384
3701.26,0.31343
3695.48,0.30276
3689.69,0.28922
3683.9,0.27188
3678.12,0.25310
3672.33,0.23338
3666.54,0.21271
3660.76,0.19353
3654.97,0.17636
3649.19,0.16123
3643.4,0.14585
3637.61,0.13404
3631.83,0.12353
3626.04,0.11389
3620.25,0.10499
3614.47,0.09696
3608.68,0.08994
3602.9,0.08312
3597.11,0.07747
3591.32,0.07207
3585.54,0.06772
3579.75,0.06381
3573.97,0.05997
3568.18,0.05788
3562.39,0.05617
3556.61,0.05314
3550.82,0.05116
3545.03,0.05056
3539.25,0.04798
3533.46,0.04691
3527.68,0.04547
3521.89,0.04380
3516.1,0.04346
3510.32,0.04245
3504.53,0.04178
3498.74,0.04098
3492.96,0.04046
3487.17,0.03978
3481.39,0.03934
3475.6,0.03920
3469.81,0.03919
3464.03,0.03880
3458.24,0.03810
3452.45,0.03823
3446.67,0.03784
3440.88,0.03855
3435.1,0.03851
3429.31,0.03835
3423.52,0.03806
3417.74,0.03889
3411.95,0.03892
3406.16,0.03881
3400.38,0.03875
3394.59,0.03913
3388.81,0.03920
3383.02,0.03906
3377.23,0.03852
3371.45,0.03951
3365.66,0.03965
3359.87,0.03933
3354.09,0.03984
3348.3,0.04009
3342.52,0.04070
3336.73,0.04199
3330.94,0.04165
3325.16,0.04281
3319.37,0.04309
3313.58,0.04393
3307.8,0.04449
3302.01,0.04461
3296.23,0.04439
3290.44,0.04515
3284.65,0.04499
3278.87,0.04595
3273.08,0.04677
3267.29,0.04731
3261.51,0.04871
3255.72,0.04840
3249.94,0.04981
3244.15,0.05103
3238.36,0.05164
3232.58,0.05367
3226.79,0.05369
3221,0.05513
3215.22,0.05629
3209.43,0.05711
3203.65,0.05800
3197.86,0.05940
3192.07,0.06111
3186.29,0.06224
3180.5,0.06364
3174.71,0.06603
3168.93,0.06698
3163.14,0.06837
3157.36,0.07057
3151.57,0.07234
3145.78,0.07412
3140,0.07553
3134.21,0.07798
3128.42,0.08001
3122.64,0.08165
3116.85,0.08378
3111.07,0.08516
3105.28,0.08749
3099.49,0.08971
3093.71,0.09057
3087.92,0.09256
3082.14,0.09401
3076.35,0.09585
3070.56,0.09737
3064.78,0.09951
3058.99,0.10156
3053.2,0.10320
3047.42,0.10492
3041.63,0.10619
3035.85,0.10771
3030.06,0.10861
3024.27,0.10830
3018.49,0.10826
3012.7,0.10734
3006.91,0.10494
3001.13,0.10283
2995.34,0.10023
2989.56,0.09691
2983.77,0.09254
2977.98,0.08603
2972.2,0.07910
2966.41,0.07384
2960.62,0.07096
2954.84,0.06751
2949.05,0.06466
2943.27,0.06230
2937.48,0.06142
2931.69,0.06053
2925.91,0.05988
2920.12,0.05969
2914.33,0.05994
2908.55,0.05893
2902.76,0.05960
2896.98,0.06075
2891.19,0.06193
2885.4,0.06243
2879.62,0.06363
2873.83,0.06434
2868.04,0.06574
2862.26,0.06827
2856.47,0.07035
2850.69,0.07296
2844.9,0.07740
2839.11,0.08262
2833.33,0.08822
2827.54,0.09392
2821.75,0.09931
2815.97,0.10450
2810.18,0.10950
2804.4,0.11328
2798.61,0.11656
2792.82,0.11947
2787.04,0.12204
2781.25,0.12322
2775.46,0.12483
2769.68,0.12656
2763.89,0.12686
2758.11,0.12798
2752.32,0.12881
2746.53,0.12941
2740.75,0.12917
2734.96,0.12983
2729.17,0.13160
2723.39,0.13313
2717.6,0.13434
2711.82,0.13689
2706.03,0.13939
2700.24,0.14224
2694.46,0.14435
2688.67,0.14719
2682.88,0.14962
2677.1,0.15202
2671.31,0.15425
2665.53,0.15566
2659.74,0.15660
2653.95,0.15863
2648.17,0.16049
2642.38,0.16259
2636.59,0.16464
2630.81,0.16638
2625.02,0.16878
2619.24,0.17046
2613.45,0.17207
2607.66,0.17408
2601.88,0.17558
2596.09,0.17763
2590.3,0.17892
2584.52,0.18029
2578.73,0.18084
2572.95,0.18147
2567.16,0.18249
2561.37,0.18253
2555.59,0.18275
2549.8,0.18336
2544.02,0.18345
2538.23,0.18394
2532.44,0.18542
2526.66,0.18749
2520.87,0.18915
2515.08,0.19051
2509.3,0.19267
2503.51,0.19528
2497.73,0.19897
2491.94,0.20147
2486.15,0.20462
2480.37,0.20692
2474.58,0.20929
2468.79,0.21153
2463.01,0.21353
2457.22,0.21589
2451.44,0.21859
2445.65,0.22099
2439.86,0.22392
2434.08,0.22681
2428.29,0.22996
2422.5,0.23328
2416.72,0.23656
2410.93,0.23953
2405.15,0.24230
2399.36,0.24520
2393.57,0.24774
2387.79,0.25052
2382,0.25298
2376.21,0.25537
2370.43,0.25794
2364.64,0.25993
2358.86,0.26177
2353.07,0.26341
2347.28,0.26544
2341.5,0.26691
2335.71,0.26840
2329.92,0.26902
2324.14,0.26995
2318.35,0.27070
2312.57,0.27053
2306.78,0.27061
2300.99,0.26940
2295.21,0.26896
2289.42,0.26820
2283.63,0.26802
2277.85,0.26714
2272.06,0.26475
2266.28,0.26251
2260.49,0.26058
2254.7,0.25849
2248.92,0.25771
2243.13,0.25701
2237.34,0.25540
2231.56,0.25452
2225.77,0.25426
2219.99,0.25399
2214.2,0.25398
2208.41,0.25322
2202.63,0.25170
2196.84,0.24951
2191.05,0.24667
2185.27,0.24290
2179.48,0.23926
2173.7,0.23598
2167.91,0.23216
2162.12,0.22907
2156.34,0.22668
2150.55,0.22492
2144.76,0.22322
2138.98,0.22223
2133.19,0.22196
2127.41,0.22223
2121.62,0.22323
2115.83,0.22454
2110.05,0.22566
2104.26,0.22706
2098.47,0.22807
2092.69,0.22901
2086.9,0.22936
2081.12,0.22944
2075.33,0.22803
2069.54,0.22704
2063.76,0.22591
2057.97,0.22529
2052.19,0.22562
2046.4,0.22652
2040.61,0.22843
2034.83,0.23152
2029.04,0.23507
2023.25,0.23852
2017.47,0.24201
2011.68,0.24518
2005.9,0.24781
2000.11,0.24965
1994.32,0.25168
1988.54,0.25382
1982.75,0.25558
1976.96,0.25715
1971.18,0.25890
1965.39,0.26072
1959.61,0.26325
1953.82,0.26587
1948.03,0.26924
1942.25,0.27216
1936.46,0.27456
1930.67,0.27685
1924.89,0.27813
1919.1,0.27927
1913.32,0.27945
1907.53,0.27949
1901.74,0.27880
1895.96,0.27804
1890.17,0.27767
1884.38,0.27725
1878.6,0.27649
1872.81,0.27557
1867.03,0.27506
1861.24,0.27342
1855.45,0.27180
1849.67,0.26993
1843.88,0.26725
1838.09,0.26423
1832.31,0.26132
1826.52,0.25746
1820.74,0.25347
1814.95,0.24805
1809.16,0.24204
1803.38,0.23484
1797.59,0.22638
1791.8,0.21677
1786.02,0.20543
1780.23,0.19116
1774.45,0.17377
1768.66,0.14979
1762.87,0.12451
1757.09,0.10035
1751.3,0.08407
1745.51,0.07428
1739.73,0.07025
1733.94,0.07031
1728.16,0.07220
1722.37,0.07584
1716.58,0.08243
1710.8,0.08907
1705.01,0.09476
1699.22,0.09711
1693.44,0.09513
1687.65,0.09076
1681.87,0.08362
1676.08,0.07727
1670.29,0.07095
1664.51,0.06762
1658.72,0.06642
1652.93,0.06790
1647.15,0.06918
1641.36,0.06906
1635.58,0.06923
1629.79,0.06941
1624,0.06914
1618.22,0.06874
1612.43,0.06620
1606.64,0.06368
1600.86,0.06309
1595.07,0.06349
1589.29,0.06548
1583.5,0.07182
1577.71,0.08118
1571.93,0.09338
1566.14,0.10339
1560.35,0.10913
1554.57,0.11130
1548.78,0.11109
1543,0.10885
1537.21,0.10234
1531.42,0.09161
1525.64,0.07594
1519.85,0.05766
1514.07,0.04793
1508.28,0.04767
1502.49,0.05310
1496.71,0.05954
1490.92,0.06342
1485.13,0.06171
1479.35,0.05747
1473.56,0.05141
1467.78,0.04640
1461.99,0.04512
1456.2,0.04465
1450.42,0.04441
1444.63,0.04554
1438.84,0.04426
1433.06,0.04188
1427.27,0.04172
1421.49,0.04275
1415.7,0.04517
1409.91,0.04637
1404.13,0.04664
1398.34,0.04672
1392.55,0.04498
1386.77,0.04252
1380.98,0.04022
1375.2,0.03993
1369.41,0.04039
1363.62,0.04182
1357.84,0.04274
1352.05,0.04352
1346.26,0.04357
1340.48,0.04251
1334.69,0.04189
1328.91,0.04191
1323.12,0.04137
1317.33,0.04123
1311.55,0.04226
1305.76,0.04302
1299.97,0.04296
1294.19,0.04175
1288.4,0.04013
1282.62,0.03803
1276.83,0.03780
1271.04,0.03797
1265.26,0.03905
1259.47,0.04038
1253.68,0.04046
1247.9,0.04047
1242.11,0.04050
1236.33,0.04065
1230.54,0.04060
1224.75,0.04093
1218.97,0.04164
1213.18,0.04170
1207.39,0.04066
1201.61,0.04073
1195.82,0.04096
1190.04,0.03984
1184.25,0.03735
1178.46,0.03423
1172.68,0.03320
1166.89,0.03506
1161.1,0.03776
1155.32,0.03837
1149.53,0.03714
1143.75,0.03519
1137.96,0.03347
1132.17,0.03210
1126.39,0.03186
1120.6,0.03283
1114.81,0.03391
1109.03,0.03615
1103.24,0.03700
1097.46,0.03633
1091.67,0.03574
1085.88,0.03717
1080.1,0.03953
1074.31,0.04377
1068.52,0.04883
1062.74,0.05505
1056.95,0.05891
1051.17,0.05797
1045.38,0.05537
1039.59,0.05698
1033.81,0.06157
1028.02,0.06277
1022.24,0.06350
1016.45,0.06400
1010.66,0.06426
1004.88,0.06390
999.09,0.06528
993.304,0.06618
987.518,0.06951
981.731,0.07365
975.945,0.07824
970.159,0.07979
964.373,0.08246
958.586,0.08553
952.8,0.08855
947.014,0.09121
941.228,0.09251
935.441,0.09498
929.655,0.09748
923.869,0.09839
918.083,0.09671
912.297,0.09164
906.51,0.08556
900.724,0.08070
894.938,0.08101
889.152,0.08495
883.365,0.08762
877.579,0.08827
871.793,0.08902
866.007,0.09066
860.22,0.09281
854.434,0.09419
848.648,0.09784
842.862,0.09831
837.075,0.09560
831.289,0.09217
825.503,0.08919
819.717,0.08283
813.931,0.07990
808.144,0.07794
802.358,0.07927
796.572,0.08002
790.786,0.08017
784.999,0.07764
779.213,0.07579
773.427,0.07376
767.641,0.07340
761.854,0.07128
756.068,0.06979
750.282,0.06810
744.496,0.06651
738.709,0.06515
732.923,0.06283
727.137,0.06025
721.351,0.05886
715.565,0.05739
709.778,0.05694
703.992,0.05644
698.206,0.05545
692.42,0.05359
686.633,0.05389
680.847,0.05199
675.061,0.05097
669.275,0.05056
663.488,0.04976
657.702,0.05077
651.916,0.04971
646.13,0.04963
640.343,0.04889
634.557,0.04716
628.771,0.04768
622.985,0.04782
617.198,0.04773
611.412,0.04878
605.626,0.04887
599.84,0.05116