File: 01_Data/Exterior_Plywood/FTIR/IS/Exterior_Plywood_IS_S_220927_R4.dpt
7497.03,0.79638
7491.25,0.79266
7485.46,0.79314
7479.67,0.78263
7473.89,0.79139
7468.1,0.78888
7462.32,0.78412
7456.53,0.78003
7450.74,0.78027
7444.96,0.77805
7439.17,0.78085
7433.38,0.77188
7427.6,0.77496
7421.81,0.78094
7416.03,0.76996
7410.24,0.75289
7404.45,0.75893
7398.67,0.75869
7392.88,0.75253
7387.09,0.75901
7381.31,0.75932
7375.52,0.74902
7369.74,0.74564
7363.95,0.74672
7358.16,0.74573
7352.38,0.73980
7346.59,0.74942
7340.8,0.74761
7335.02,0.73835
7329.23,0.73770
7323.45,0.73303
7317.66,0.73407
7311.87,0.72756
7306.09,0.73309
7300.3,0.73568
7294.51,0.72436
7288.73,0.73155
7282.94,0.72572
7277.16,0.72261
7271.37,0.72831
7265.58,0.72813
7259.8,0.73025
7254.01,0.73142
7248.22,0.72940
7242.44,0.72504
7236.65,0.72772
7230.87,0.72623
7225.08,0.72899
7219.29,0.71991
7213.51,0.72904
7207.72,0.72768
7201.93,0.71924
7196.15,0.71959
7190.36,0.71563
7184.58,0.71743
7178.79,0.70769
7173,0.70737
7167.22,0.70746
7161.43,0.70903
7155.65,0.70494
7149.86,0.70505
7144.07,0.69345
7138.29,0.69073
7132.5,0.69248
7126.71,0.68286
7120.93,0.67649
7115.14,0.67628
7109.36,0.67201
7103.57,0.66645
7097.78,0.66389
7092,0.66122
7086.21,0.64900
7080.42,0.64419
7074.64,0.64163
7068.85,0.64365
7063.07,0.63884
7057.28,0.63082
7051.49,0.62792
7045.71,0.61493
7039.92,0.60901
7034.13,0.60890
7028.35,0.61030
7022.56,0.60000
7016.78,0.59770
7010.99,0.59248
7005.2,0.59517
6999.42,0.58679
6993.63,0.57698
6987.84,0.58641
6982.06,0.57985
6976.27,0.58024
6970.49,0.58259
6964.7,0.57992
6958.91,0.57828
6953.13,0.57873
6947.34,0.57455
6941.55,0.57631
6935.77,0.57909
6929.98,0.57408
6924.2,0.57181
6918.41,0.57247
6912.62,0.57087
6906.84,0.57882
6901.05,0.57281
6895.26,0.56946
6889.48,0.57010
6883.69,0.56925
6877.91,0.56795
6872.12,0.57525
6866.33,0.56970
6860.55,0.56504
6854.76,0.56678
6848.97,0.56931
6843.19,0.56975
6837.4,0.56627
6831.62,0.56561
6825.83,0.56935
6820.04,0.56989
6814.26,0.57224
6808.47,0.56854
6802.68,0.56625
6796.9,0.56543
6791.11,0.56494
6785.33,0.56896
6779.54,0.56704
6773.75,0.56498
6767.97,0.56882
6762.18,0.56954
6756.39,0.56854
6750.61,0.56526
6744.82,0.56906
6739.04,0.56777
6733.25,0.56676
6727.46,0.56843
6721.68,0.56994
6715.89,0.56818
6710.1,0.57152
6704.32,0.57338
6698.53,0.56658
6692.75,0.56962
6686.96,0.57361
6681.17,0.57398
6675.39,0.57505
6669.6,0.57652
6663.82,0.57208
6658.03,0.57856
6652.24,0.57244
6646.46,0.58021
6640.67,0.57989
6634.88,0.57822
6629.1,0.58163
6623.31,0.57433
6617.53,0.57884
6611.74,0.58066
6605.95,0.58335
6600.17,0.58158
6594.38,0.58272
6588.59,0.58991
6582.81,0.58937
6577.02,0.58856
6571.24,0.58289
6565.45,0.59034
6559.66,0.58872
6553.88,0.58986
6548.09,0.58851
6542.3,0.59423
6536.52,0.59377
6530.73,0.58930
6524.95,0.59008
6519.16,0.59301
6513.37,0.59370
6507.59,0.59422
6501.8,0.59469
6496.01,0.59609
6490.23,0.59471
6484.44,0.59296
6478.66,0.59140
6472.87,0.59486
6467.08,0.59645
6461.3,0.59788
6455.51,0.59450
6449.72,0.59661
6443.94,0.59746
6438.15,0.59277
6432.37,0.59712
6426.58,0.59590
6420.79,0.59752
6415.01,0.59937
6409.22,0.59748
6403.43,0.60000
6397.65,0.60158
6391.86,0.60131
6386.08,0.60200
6380.29,0.60272
6374.5,0.60381
6368.72,0.60447
6362.93,0.60515
6357.14,0.60324
6351.36,0.60146
6345.57,0.60578
6339.79,0.60605
6334,0.60433
6328.21,0.60578
6322.43,0.60628
6316.64,0.60603
6310.85,0.60527
6305.07,0.60673
6299.28,0.61058
6293.5,0.60752
6287.71,0.60966
6281.92,0.60813
6276.14,0.61345
6270.35,0.61771
6264.56,0.61195
6258.78,0.61597
6252.99,0.62023
6247.21,0.62084
6241.42,0.62207
6235.63,0.62674
6229.85,0.62540
6224.06,0.62718
6218.27,0.63059
6212.49,0.63008
6206.7,0.63468
6200.92,0.63385
6195.13,0.63643
6189.34,0.63994
6183.56,0.63877
6177.77,0.64031
6171.98,0.64315
6166.2,0.64401
6160.41,0.64648
6154.63,0.64563
6148.84,0.64959
6143.05,0.64729
6137.27,0.65426
6131.48,0.65240
6125.7,0.65100
6119.91,0.65241
6114.12,0.65605
6108.34,0.65591
6102.55,0.65288
6096.76,0.65606
6090.98,0.65768
6085.19,0.65719
6079.41,0.66020
6073.62,0.65595
6067.83,0.65752
6062.05,0.65684
6056.26,0.65526
6050.47,0.65671
6044.69,0.65464
6038.9,0.65523
6033.12,0.65263
6027.33,0.65358
6021.54,0.65231
6015.76,0.64875
6009.97,0.64877
6004.18,0.64926
5998.4,0.64975
5992.61,0.64701
5986.83,0.64626
5981.04,0.64638
5975.25,0.64321
5969.47,0.64433
5963.68,0.64469
5957.89,0.64468
5952.11,0.64656
5946.32,0.64710
5940.54,0.64604
5934.75,0.64644
5928.96,0.64895
5923.18,0.64547
5917.39,0.64554
5911.6,0.64560
5905.82,0.64357
5900.03,0.64232
5894.25,0.64186
5888.46,0.64238
5882.67,0.63825
5876.89,0.64049
5871.1,0.63535
5865.31,0.63669
5859.53,0.63759
5853.74,0.63962
5847.96,0.63573
5842.17,0.63833
5836.38,0.63421
5830.6,0.63544
5824.81,0.63430
5819.02,0.63126
5813.24,0.63083
5807.45,0.63330
5801.67,0.63294
5795.88,0.63255
5790.09,0.63040
5784.31,0.63123
5778.52,0.62965
5772.73,0.63389
5766.95,0.63533
5761.16,0.63553
5755.38,0.63189
5749.59,0.63514
5743.8,0.63412
5738.02,0.63628
5732.23,0.63310
5726.44,0.63238
5720.66,0.63428
5714.87,0.63285
5709.09,0.63195
5703.3,0.63347
5697.51,0.63349
5691.73,0.63329
5685.94,0.62968
5680.15,0.62876
5674.37,0.62897
5668.58,0.62815
5662.8,0.63069
5657.01,0.63048
5651.22,0.62658
5645.44,0.62838
5639.65,0.63067
5633.87,0.62725
5628.08,0.62671
5622.29,0.62670
5616.51,0.62969
5610.72,0.62831
5604.93,0.62806
5599.15,0.62820
5593.36,0.62829
5587.58,0.62835
5581.79,0.62645
5576,0.62862
5570.22,0.62941
5564.43,0.63088
5558.64,0.63047
5552.86,0.63133
5547.07,0.63085
5541.29,0.63210
5535.5,0.63213
5529.71,0.63151
5523.93,0.63203
5518.14,0.63299
5512.35,0.63181
5506.57,0.63348
5500.78,0.63225
5495,0.63340
5489.21,0.63408
5483.42,0.63404
5477.64,0.63398
5471.85,0.63683
5466.06,0.63716
5460.28,0.63657
5454.49,0.63721
5448.71,0.63883
5442.92,0.63917
5437.13,0.63980
5431.35,0.64304
5425.56,0.64327
5419.77,0.64304
5413.99,0.64574
5408.2,0.64518
5402.42,0.64853
5396.63,0.64855
5390.84,0.64875
5385.06,0.64892
5379.27,0.64813
5373.48,0.64926
5367.7,0.64786
5361.91,0.64779
5356.13,0.64732
5350.34,0.64571
5344.55,0.64423
5338.77,0.64230
5332.98,0.64007
5327.19,0.63606
5321.41,0.63316
5315.62,0.62939
5309.84,0.62565
5304.05,0.61774
5298.26,0.61162
5292.48,0.60482
5286.69,0.59543
5280.9,0.58588
5275.12,0.57386
5269.33,0.56351
5263.55,0.55341
5257.76,0.54115
5251.97,0.53167
5246.19,0.52342
5240.4,0.51467
5234.61,0.50847
5228.83,0.50417
5223.04,0.49778
5217.26,0.49326
5211.47,0.48952
5205.68,0.48994
5199.9,0.48712
5194.11,0.48647
5188.32,0.48649
5182.54,0.48773
5176.75,0.48790
5170.97,0.49050
5165.18,0.49295
5159.39,0.49563
5153.61,0.49757
5147.82,0.50113
5142.03,0.50345
5136.25,0.50532
5130.46,0.51131
5124.68,0.51299
5118.89,0.51699
5113.1,0.51881
5107.32,0.52217
5101.53,0.52427
5095.75,0.52743
5089.96,0.52888
5084.17,0.53321
5078.39,0.53671
5072.6,0.53981
5066.81,0.54097
5061.03,0.54400
5055.24,0.54693
5049.46,0.54875
5043.67,0.55053
5037.88,0.55333
5032.1,0.55559
5026.31,0.55726
5020.52,0.55784
5014.74,0.55934
5008.95,0.55979
5003.17,0.56026
4997.38,0.56035
4991.59,0.56052
4985.81,0.56088
4980.02,0.55829
4974.23,0.55708
4968.45,0.55489
4962.66,0.55276
4956.88,0.55057
4951.09,0.54502
4945.3,0.54091
4939.52,0.53724
4933.73,0.53267
4927.94,0.52665
4922.16,0.52252
4916.37,0.51683
4910.59,0.51220
4904.8,0.50792
4899.01,0.50237
4893.23,0.49789
4887.44,0.49296
4881.65,0.48830
4875.87,0.48306
4870.08,0.47899
4864.3,0.47425
4858.51,0.46956
4852.72,0.46648
4846.94,0.46196
4841.15,0.45876
4835.36,0.45503
4829.58,0.45176
4823.79,0.44778
4818.01,0.44591
4812.22,0.44392
4806.43,0.44207
4800.65,0.43996
4794.86,0.43709
4789.07,0.43608
4783.29,0.43621
4777.5,0.43574
4771.72,0.43462
4765.93,0.43418
4760.14,0.43297
4754.36,0.43388
4748.57,0.43407
4742.78,0.43264
4737,0.43370
4731.21,0.43491
4725.43,0.43481
4719.64,0.43602
4713.85,0.43781
4708.07,0.43819
4702.28,0.43940
4696.49,0.44104
4690.71,0.44215
4684.92,0.44378
4679.14,0.44506
4673.35,0.44698
4667.56,0.44995
4661.78,0.45132
4655.99,0.45337
4650.2,0.45588
4644.42,0.45886
4638.63,0.46128
4632.85,0.46348
4627.06,0.46587
4621.27,0.46917
4615.49,0.47233
4609.7,0.47521
4603.92,0.47820
4598.13,0.48031
4592.34,0.48246
4586.56,0.48523
4580.77,0.48774
4574.98,0.48968
4569.2,0.49214
4563.41,0.49319
4557.63,0.49470
4551.84,0.49589
4546.05,0.49805
4540.27,0.49861
4534.48,0.49950
4528.69,0.50027
4522.91,0.50142
4517.12,0.50230
4511.34,0.50156
4505.55,0.50068
4499.76,0.49846
4493.98,0.49752
4488.19,0.49512
4482.4,0.49065
4476.62,0.48675
4470.83,0.48140
4465.05,0.47671
4459.26,0.46979
4453.47,0.46371
4447.69,0.45651
4441.9,0.44897
4436.11,0.44237
4430.33,0.43598
4424.54,0.42811
4418.76,0.42042
4412.97,0.41360
4407.18,0.40856
4401.4,0.40687
4395.61,0.40504
4389.82,0.40599
4384.04,0.40794
4378.25,0.40923
4372.47,0.41257
4366.68,0.41492
4360.89,0.41647
4355.11,0.41686
4349.32,0.41657
4343.53,0.41506
4337.75,0.41388
4331.96,0.41282
4326.18,0.40936
4320.39,0.40801
4314.6,0.40507
4308.82,0.40230
4303.03,0.39902
4297.24,0.39632
4291.46,0.39452
4285.67,0.39311
4279.89,0.39271
4274.1,0.39300
4268.31,0.39354
4262.53,0.39458
4256.74,0.39641
4250.95,0.39797
4245.17,0.39866
4239.38,0.39795
4233.6,0.39826
4227.81,0.39825
4222.02,0.39862
4216.24,0.39898
4210.45,0.39928
4204.66,0.39942
4198.88,0.39958
4193.09,0.40024
4187.31,0.40131
4181.52,0.40222
4175.73,0.40307
4169.95,0.40446
4164.16,0.40600
4158.37,0.40549
4152.59,0.40513
4146.8,0.40367
4141.02,0.40082
4135.23,0.39809
4129.44,0.39463
4123.66,0.39081
4117.87,0.38682
4112.09,0.38212
4106.3,0.37751
4100.51,0.37154
4094.73,0.36590
4088.94,0.35976
4083.15,0.35382
4077.37,0.34839
4071.58,0.34250
4065.8,0.33730
4060.01,0.33052
4054.22,0.32528
4048.44,0.31967
4042.65,0.31502
4036.86,0.31042
4031.08,0.30789
4025.29,0.30559
4019.51,0.30391
4013.72,0.30336
4007.93,0.30407
4002.15,0.30502
3996.36,0.30613
3990.57,0.30781
3984.79,0.30951
3979,0.31195
3973.22,0.31286
3967.43,0.31536
3961.64,0.31729
3955.86,0.32053
3950.07,0.32303
3944.28,0.32558
3938.5,0.32888
3932.71,0.33140
3926.93,0.33536
3921.14,0.33756
3915.35,0.34000
3909.57,0.34283
3903.78,0.34544
3897.99,0.34779
3892.21,0.34962
3886.42,0.35132
3880.64,0.35361
3874.85,0.35479
3869.06,0.35697
3863.28,0.36006
3857.49,0.36307
3851.7,0.36585
3845.92,0.36796
3840.13,0.36984
3834.35,0.37210
3828.56,0.37211
3822.77,0.37298
3816.99,0.37216
3811.2,0.37259
3805.41,0.37175
3799.63,0.37190
3793.84,0.37149
3788.06,0.37044
3782.27,0.36964
3776.48,0.36882
3770.7,0.36717
3764.91,0.36571
3759.12,0.36428
3753.34,0.36199
3747.55,0.35899
3741.77,0.35572
3735.98,0.35172
3730.19,0.34722
3724.41,0.34253
3718.62,0.33592
3712.83,0.32911
3707.05,0.32038
3701.26,0.31148
3695.48,0.29902
3689.69,0.28686
3683.9,0.26853
3678.12,0.25111
3672.33,0.22962
3666.54,0.20926
3660.76,0.19082
3654.97,0.17331
3649.19,0.15792
3643.4,0.14315
3637.61,0.13192
3631.83,0.12193
3626.04,0.11263
3620.25,0.10309
3614.47,0.09484
3608.68,0.08804
3602.9,0.08209
3597.11,0.07710
3591.32,0.07081
3585.54,0.06679
3579.75,0.06315
3573.97,0.06062
3568.18,0.05719
3562.39,0.05475
3556.61,0.05233
3550.82,0.05091
3545.03,0.04927
3539.25,0.04784
3533.46,0.04650
3527.68,0.04518
3521.89,0.04397
3516.1,0.04357
3510.32,0.04247
3504.53,0.04214
3498.74,0.04072
3492.96,0.04021
3487.17,0.03939
3481.39,0.03890
3475.6,0.03843
3469.81,0.03868
3464.03,0.03901
3458.24,0.03776
3452.45,0.03778
3446.67,0.03807
3440.88,0.03865
3435.1,0.03855
3429.31,0.03802
3423.52,0.03864
3417.74,0.03854
3411.95,0.03877
3406.16,0.03827
3400.38,0.03891
3394.59,0.03878
3388.81,0.03844
3383.02,0.03871
3377.23,0.03836
3371.45,0.03878
3365.66,0.03947
3359.87,0.03976
3354.09,0.04000
3348.3,0.04111
3342.52,0.04117
3336.73,0.04174
3330.94,0.04237
3325.16,0.04286
3319.37,0.04357
3313.58,0.04352
3307.8,0.04433
3302.01,0.04434
3296.23,0.04459
3290.44,0.04452
3284.65,0.04543
3278.87,0.04565
3273.08,0.04686
3267.29,0.04752
3261.51,0.04771
3255.72,0.04879
3249.94,0.04983
3244.15,0.05076
3238.36,0.05181
3232.58,0.05314
3226.79,0.05308
3221,0.05463
3215.22,0.05488
3209.43,0.05686
3203.65,0.05742
3197.86,0.05975
3192.07,0.06094
3186.29,0.06253
3180.5,0.06352
3174.71,0.06505
3168.93,0.06598
3163.14,0.06811
3157.36,0.06960
3151.57,0.07131
3145.78,0.07291
3140,0.07498
3134.21,0.07715
3128.42,0.07854
3122.64,0.08086
3116.85,0.08273
3111.07,0.08412
3105.28,0.08627
3099.49,0.08846
3093.71,0.09038
3087.92,0.09184
3082.14,0.09365
3076.35,0.09474
3070.56,0.09696
3064.78,0.09888
3058.99,0.10070
3053.2,0.10250
3047.42,0.10435
3041.63,0.10573
3035.85,0.10691
3030.06,0.10786
3024.27,0.10783
3018.49,0.10747
3012.7,0.10615
3006.91,0.10432
3001.13,0.10171
2995.34,0.09982
2989.56,0.09778
2983.77,0.09232
2977.98,0.08523
2972.2,0.07823
2966.41,0.07341
2960.62,0.07079
2954.84,0.06795
2949.05,0.06482
2943.27,0.06191
2937.48,0.06044
2931.69,0.06055
2925.91,0.05984
2920.12,0.06002
2914.33,0.05992
2908.55,0.05948
2902.76,0.05964
2896.98,0.05998
2891.19,0.06137
2885.4,0.06249
2879.62,0.06345
2873.83,0.06422
2868.04,0.06551
2862.26,0.06815
2856.47,0.07018
2850.69,0.07315
2844.9,0.07736
2839.11,0.08256
2833.33,0.08758
2827.54,0.09325
2821.75,0.09897
2815.97,0.10430
2810.18,0.10866
2804.4,0.11245
2798.61,0.11637
2792.82,0.11972
2787.04,0.12190
2781.25,0.12308
2775.46,0.12487
2769.68,0.12554
2763.89,0.12641
2758.11,0.12788
2752.32,0.12850
2746.53,0.12805
2740.75,0.12909
2734.96,0.12962
2729.17,0.13090
2723.39,0.13255
2717.6,0.13388
2711.82,0.13617
2706.03,0.13866
2700.24,0.14112
2694.46,0.14384
2688.67,0.14608
2682.88,0.14900
2677.1,0.15144
2671.31,0.15326
2665.53,0.15534
2659.74,0.15671
2653.95,0.15839
2648.17,0.15999
2642.38,0.16221
2636.59,0.16373
2630.81,0.16645
2625.02,0.16803
2619.24,0.17024
2613.45,0.17151
2607.66,0.17342
2601.88,0.17508
2596.09,0.17626
2590.3,0.17820
2584.52,0.17941
2578.73,0.18066
2572.95,0.18123
2567.16,0.18206
2561.37,0.18167
2555.59,0.18218
2549.8,0.18242
2544.02,0.18270
2538.23,0.18368
2532.44,0.18457
2526.66,0.18645
2520.87,0.18754
2515.08,0.18915
2509.3,0.19167
2503.51,0.19488
2497.73,0.19787
2491.94,0.20078
2486.15,0.20343
2480.37,0.20601
2474.58,0.20827
2468.79,0.21085
2463.01,0.21317
2457.22,0.21491
2451.44,0.21742
2445.65,0.21986
2439.86,0.22289
2434.08,0.22577
2428.29,0.22912
2422.5,0.23233
2416.72,0.23554
2410.93,0.23831
2405.15,0.24130
2399.36,0.24423
2393.57,0.24683
2387.79,0.24948
2382,0.25208
2376.21,0.25453
2370.43,0.25698
2364.64,0.25884
2358.86,0.26083
2353.07,0.26209
2347.28,0.26377
2341.5,0.26547
2335.71,0.26687
2329.92,0.26769
2324.14,0.26858
2318.35,0.26909
2312.57,0.26953
2306.78,0.26917
2300.99,0.26828
2295.21,0.26714
2289.42,0.26655
2283.63,0.26612
2277.85,0.26528
2272.06,0.26335
2266.28,0.26097
2260.49,0.25889
2254.7,0.25695
2248.92,0.25603
2243.13,0.25516
2237.34,0.25388
2231.56,0.25309
2225.77,0.25262
2219.99,0.25275
2214.2,0.25249
2208.41,0.25131
2202.63,0.24977
2196.84,0.24766
2191.05,0.24475
2185.27,0.24144
2179.48,0.23762
2173.7,0.23392
2167.91,0.23050
2162.12,0.22765
2156.34,0.22534
2150.55,0.22353
2144.76,0.22158
2138.98,0.22047
2133.19,0.22014
2127.41,0.22065
2121.62,0.22165
2115.83,0.22252
2110.05,0.22438
2104.26,0.22548
2098.47,0.22664
2092.69,0.22753
2086.9,0.22783
2081.12,0.22764
2075.33,0.22674
2069.54,0.22533
2063.76,0.22451
2057.97,0.22374
2052.19,0.22403
2046.4,0.22521
2040.61,0.22716
2034.83,0.22996
2029.04,0.23323
2023.25,0.23682
2017.47,0.24025
2011.68,0.24366
2005.9,0.24605
2000.11,0.24815
1994.32,0.24995
1988.54,0.25221
1982.75,0.25424
1976.96,0.25548
1971.18,0.25686
1965.39,0.25904
1959.61,0.26116
1953.82,0.26405
1948.03,0.26692
1942.25,0.27037
1936.46,0.27309
1930.67,0.27533
1924.89,0.27660
1919.1,0.27747
1913.32,0.27770
1907.53,0.27783
1901.74,0.27707
1895.96,0.27651
1890.17,0.27577
1884.38,0.27523
1878.6,0.27446
1872.81,0.27417
1867.03,0.27297
1861.24,0.27173
1855.45,0.27040
1849.67,0.26813
1843.88,0.26529
1838.09,0.26226
1832.31,0.25986
1826.52,0.25610
1820.74,0.25160
1814.95,0.24676
1809.16,0.24048
1803.38,0.23324
1797.59,0.22496
1791.8,0.21563
1786.02,0.20401
1780.23,0.19024
1774.45,0.17310
1768.66,0.14930
1762.87,0.12463
1757.09,0.10089
1751.3,0.08411
1745.51,0.07401
1739.73,0.07036
1733.94,0.06994
1728.16,0.07206
1722.37,0.07603
1716.58,0.08152
1710.8,0.08872
1705.01,0.09467
1699.22,0.09665
1693.44,0.09410
1687.65,0.09032
1681.87,0.08334
1676.08,0.07661
1670.29,0.07048
1664.51,0.06740
1658.72,0.06637
1652.93,0.06762
1647.15,0.06901
1641.36,0.06873
1635.58,0.06832
1629.79,0.06917
1624,0.06896
1618.22,0.06770
1612.43,0.06569
1606.64,0.06345
1600.86,0.06256
1595.07,0.06314
1589.29,0.06559
1583.5,0.07127
1577.71,0.08079
1571.93,0.09336
1566.14,0.10301
1560.35,0.10893
1554.57,0.11078
1548.78,0.11023
1543,0.10798
1537.21,0.10203
1531.42,0.09104
1525.64,0.07560
1519.85,0.05718
1514.07,0.04746
1508.28,0.04738
1502.49,0.05267
1496.71,0.05962
1490.92,0.06331
1485.13,0.06174
1479.35,0.05735
1473.56,0.05113
1467.78,0.04596
1461.99,0.04518
1456.2,0.04454
1450.42,0.04447
1444.63,0.04505
1438.84,0.04427
1433.06,0.04175
1427.27,0.04148
1421.49,0.04258
1415.7,0.04485
1409.91,0.04628
1404.13,0.04662
1398.34,0.04655
1392.55,0.04507
1386.77,0.04258
1380.98,0.04032
1375.2,0.03991
1369.41,0.04081
1363.62,0.04177
1357.84,0.04259
1352.05,0.04353
1346.26,0.04371
1340.48,0.04219
1334.69,0.04189
1328.91,0.04204
1323.12,0.04118
1317.33,0.04122
1311.55,0.04244
1305.76,0.04304
1299.97,0.04356
1294.19,0.04225
1288.4,0.04029
1282.62,0.03814
1276.83,0.03801
1271.04,0.03818
1265.26,0.03866
1259.47,0.03959
1253.68,0.04056
1247.9,0.04077
1242.11,0.04090
1236.33,0.04017
1230.54,0.04015
1224.75,0.04116
1218.97,0.04152
1213.18,0.04169
1207.39,0.04101
1201.61,0.04116
1195.82,0.04101
1190.04,0.03967
1184.25,0.03702
1178.46,0.03456
1172.68,0.03266
1166.89,0.03481
1161.1,0.03798
1155.32,0.03864
1149.53,0.03660
1143.75,0.03537
1137.96,0.03361
1132.17,0.03201
1126.39,0.03179
1120.6,0.03292
1114.81,0.03423
1109.03,0.03629
1103.24,0.03705
1097.46,0.03602
1091.67,0.03691
1085.88,0.03696
1080.1,0.03937
1074.31,0.04409
1068.52,0.04846
1062.74,0.05485
1056.95,0.05875
1051.17,0.05854
1045.38,0.05569
1039.59,0.05705
1033.81,0.06159
1028.02,0.06332
1022.24,0.06339
1016.45,0.06387
1010.66,0.06500
1004.88,0.06348
999.09,0.06497
993.304,0.06651
987.518,0.06919
981.731,0.07394
975.945,0.07766
970.159,0.07995
964.373,0.08224
958.586,0.08528
952.8,0.08921
947.014,0.09143
941.228,0.09223
935.441,0.09417
929.655,0.09705
923.869,0.09842
918.083,0.09623
912.297,0.09171
906.51,0.08503
900.724,0.08066
894.938,0.08064
889.152,0.08444
883.365,0.08787
877.579,0.08832
871.793,0.08830
866.007,0.08953
860.22,0.09173
854.434,0.09474
848.648,0.09703
842.862,0.09712
837.075,0.09549
831.289,0.09177
825.503,0.08802
819.717,0.08319
813.931,0.07915
808.144,0.07758
802.358,0.07850
796.572,0.08010
790.786,0.07964
784.999,0.07764
779.213,0.07549
773.427,0.07261
767.641,0.07135
761.854,0.07122
756.068,0.06957
750.282,0.06793
744.496,0.06698
738.709,0.06455
732.923,0.06231
727.137,0.05989
721.351,0.05750
715.565,0.05720
709.778,0.05682
703.992,0.05635
698.206,0.05575
692.42,0.05535
686.633,0.05414
680.847,0.05244
675.061,0.05062
669.275,0.05108
663.488,0.05036
657.702,0.05026
651.916,0.05049
646.13,0.05119
640.343,0.04867
634.557,0.04630
628.771,0.04818
622.985,0.04741
617.198,0.04937
611.412,0.04835
605.626,0.05125
599.84,0.05096