File: 01_Data/Exterior_Plywood/FTIR/IS/Exterior_Plywood_IS_S_220927_R8.dpt
7497.03,0.80332
7491.25,0.79284
7485.46,0.80317
7479.67,0.78555
7473.89,0.80640
7468.1,0.78031
7462.32,0.78042
7456.53,0.78654
7450.74,0.78468
7444.96,0.77465
7439.17,0.77044
7433.38,0.77255
7427.6,0.77721
7421.81,0.77769
7416.03,0.76362
7410.24,0.76775
7404.45,0.76232
7398.67,0.75265
7392.88,0.75810
7387.09,0.76257
7381.31,0.74913
7375.52,0.75501
7369.74,0.74759
7363.95,0.74188
7358.16,0.74057
7352.38,0.74635
7346.59,0.73647
7340.8,0.74443
7335.02,0.73357
7329.23,0.74217
7323.45,0.73739
7317.66,0.73438
7311.87,0.73946
7306.09,0.72911
7300.3,0.73206
7294.51,0.73906
7288.73,0.73408
7282.94,0.73165
7277.16,0.73207
7271.37,0.71950
7265.58,0.72872
7259.8,0.73572
7254.01,0.73869
7248.22,0.72861
7242.44,0.72773
7236.65,0.72419
7230.87,0.72794
7225.08,0.73714
7219.29,0.73306
7213.51,0.72050
7207.72,0.72761
7201.93,0.72531
7196.15,0.71384
7190.36,0.72004
7184.58,0.70923
7178.79,0.71645
7173,0.70937
7167.22,0.71890
7161.43,0.70932
7155.65,0.70708
7149.86,0.70655
7144.07,0.69293
7138.29,0.69046
7132.5,0.69123
7126.71,0.68853
7120.93,0.68563
7115.14,0.67933
7109.36,0.67304
7103.57,0.67983
7097.78,0.66899
7092,0.66904
7086.21,0.65556
7080.42,0.64753
7074.64,0.65339
7068.85,0.64695
7063.07,0.63894
7057.28,0.63844
7051.49,0.62977
7045.71,0.62462
7039.92,0.61601
7034.13,0.61799
7028.35,0.61107
7022.56,0.60765
7016.78,0.60070
7010.99,0.59792
7005.2,0.59393
6999.42,0.59067
6993.63,0.58468
6987.84,0.58954
6982.06,0.58374
6976.27,0.58819
6970.49,0.58043
6964.7,0.57870
6958.91,0.57457
6953.13,0.57597
6947.34,0.57011
6941.55,0.57840
6935.77,0.57719
6929.98,0.57644
6924.2,0.57815
6918.41,0.57318
6912.62,0.56931
6906.84,0.57517
6901.05,0.57703
6895.26,0.57120
6889.48,0.57431
6883.69,0.57269
6877.91,0.57601
6872.12,0.57432
6866.33,0.57216
6860.55,0.57570
6854.76,0.57354
6848.97,0.57414
6843.19,0.57218
6837.4,0.56922
6831.62,0.57291
6825.83,0.57322
6820.04,0.56786
6814.26,0.56756
6808.47,0.56824
6802.68,0.56978
6796.9,0.57361
6791.11,0.57416
6785.33,0.56838
6779.54,0.57084
6773.75,0.56942
6767.97,0.56768
6762.18,0.57088
6756.39,0.56473
6750.61,0.56960
6744.82,0.56929
6739.04,0.56750
6733.25,0.56970
6727.46,0.57829
6721.68,0.57057
6715.89,0.57105
6710.1,0.57350
6704.32,0.57768
6698.53,0.57562
6692.75,0.57642
6686.96,0.57654
6681.17,0.57488
6675.39,0.57809
6669.6,0.57450
6663.82,0.57953
6658.03,0.58377
6652.24,0.58080
6646.46,0.57928
6640.67,0.57952
6634.88,0.58496
6629.1,0.58514
6623.31,0.58480
6617.53,0.58536
6611.74,0.58868
6605.95,0.58733
6600.17,0.58858
6594.38,0.58677
6588.59,0.58834
6582.81,0.58978
6577.02,0.58964
6571.24,0.59243
6565.45,0.59551
6559.66,0.59278
6553.88,0.59218
6548.09,0.59171
6542.3,0.59372
6536.52,0.59349
6530.73,0.59069
6524.95,0.59355
6519.16,0.59880
6513.37,0.59782
6507.59,0.59384
6501.8,0.59996
6496.01,0.59704
6490.23,0.59766
6484.44,0.59621
6478.66,0.59236
6472.87,0.59572
6467.08,0.60083
6461.3,0.59861
6455.51,0.60361
6449.72,0.60009
6443.94,0.59865
6438.15,0.59942
6432.37,0.59732
6426.58,0.60099
6420.79,0.60302
6415.01,0.60322
6409.22,0.60615
6403.43,0.60306
6397.65,0.60401
6391.86,0.60346
6386.08,0.60536
6380.29,0.60191
6374.5,0.60613
6368.72,0.60870
6362.93,0.60833
6357.14,0.60950
6351.36,0.60425
6345.57,0.61169
6339.79,0.60910
6334,0.61257
6328.21,0.61047
6322.43,0.61261
6316.64,0.61035
6310.85,0.61156
6305.07,0.61202
6299.28,0.60997
6293.5,0.61247
6287.71,0.61189
6281.92,0.61659
6276.14,0.61717
6270.35,0.61878
6264.56,0.61988
6258.78,0.61754
6252.99,0.61981
6247.21,0.62385
6241.42,0.62323
6235.63,0.62680
6229.85,0.63057
6224.06,0.63273
6218.27,0.63133
6212.49,0.63389
6206.7,0.63500
6200.92,0.63787
6195.13,0.63809
6189.34,0.64107
6183.56,0.64448
6177.77,0.64534
6171.98,0.64364
6166.2,0.64639
6160.41,0.64965
6154.63,0.64797
6148.84,0.64691
6143.05,0.65332
6137.27,0.65380
6131.48,0.65518
6125.7,0.65813
6119.91,0.65846
6114.12,0.65692
6108.34,0.66039
6102.55,0.65810
6096.76,0.65973
6090.98,0.66173
6085.19,0.66108
6079.41,0.66411
6073.62,0.66160
6067.83,0.66035
6062.05,0.66077
6056.26,0.65835
6050.47,0.65867
6044.69,0.66080
6038.9,0.66199
6033.12,0.65611
6027.33,0.65482
6021.54,0.65483
6015.76,0.65454
6009.97,0.65393
6004.18,0.65140
5998.4,0.65016
5992.61,0.65027
5986.83,0.64950
5981.04,0.64768
5975.25,0.64657
5969.47,0.64428
5963.68,0.64682
5957.89,0.64907
5952.11,0.64583
5946.32,0.64642
5940.54,0.64783
5934.75,0.64965
5928.96,0.65030
5923.18,0.65251
5917.39,0.64856
5911.6,0.64983
5905.82,0.64793
5900.03,0.64503
5894.25,0.64279
5888.46,0.64263
5882.67,0.64074
5876.89,0.64075
5871.1,0.63937
5865.31,0.63920
5859.53,0.64170
5853.74,0.63985
5847.96,0.63994
5842.17,0.63916
5836.38,0.63756
5830.6,0.64074
5824.81,0.63909
5819.02,0.63538
5813.24,0.63486
5807.45,0.63485
5801.67,0.63614
5795.88,0.63666
5790.09,0.63456
5784.31,0.63283
5778.52,0.63445
5772.73,0.63675
5766.95,0.63824
5761.16,0.63539
5755.38,0.63752
5749.59,0.63881
5743.8,0.63574
5738.02,0.63826
5732.23,0.63656
5726.44,0.63820
5720.66,0.63567
5714.87,0.63578
5709.09,0.63692
5703.3,0.63593
5697.51,0.63491
5691.73,0.63642
5685.94,0.63377
5680.15,0.63319
5674.37,0.63337
5668.58,0.63462
5662.8,0.63209
5657.01,0.63366
5651.22,0.63020
5645.44,0.63171
5639.65,0.63172
5633.87,0.62904
5628.08,0.63480
5622.29,0.63118
5616.51,0.63039
5610.72,0.62949
5604.93,0.63090
5599.15,0.63093
5593.36,0.63224
5587.58,0.63219
5581.79,0.63148
5576,0.63181
5570.22,0.63391
5564.43,0.63295
5558.64,0.63348
5552.86,0.63350
5547.07,0.63505
5541.29,0.63562
5535.5,0.63585
5529.71,0.63657
5523.93,0.63476
5518.14,0.63729
5512.35,0.63849
5506.57,0.63724
5500.78,0.63543
5495,0.63648
5489.21,0.63728
5483.42,0.63783
5477.64,0.63964
5471.85,0.63961
5466.06,0.64015
5460.28,0.64053
5454.49,0.64127
5448.71,0.64278
5442.92,0.64430
5437.13,0.64306
5431.35,0.64513
5425.56,0.64821
5419.77,0.64817
5413.99,0.64774
5408.2,0.65033
5402.42,0.65199
5396.63,0.65063
5390.84,0.65252
5385.06,0.65149
5379.27,0.65399
5373.48,0.65293
5367.7,0.65249
5361.91,0.65300
5356.13,0.65197
5350.34,0.65031
5344.55,0.64800
5338.77,0.64993
5332.98,0.64681
5327.19,0.64341
5321.41,0.63999
5315.62,0.63690
5309.84,0.63131
5304.05,0.62609
5298.26,0.61927
5292.48,0.61142
5286.69,0.60387
5280.9,0.59497
5275.12,0.58403
5269.33,0.57437
5263.55,0.56362
5257.76,0.55277
5251.97,0.54468
5246.19,0.53475
5240.4,0.52690
5234.61,0.52142
5228.83,0.51495
5223.04,0.50963
5217.26,0.50644
5211.47,0.50378
5205.68,0.50132
5199.9,0.49960
5194.11,0.50213
5188.32,0.50017
5182.54,0.50051
5176.75,0.50333
5170.97,0.50557
5165.18,0.50645
5159.39,0.50765
5153.61,0.50961
5147.82,0.51379
5142.03,0.51645
5136.25,0.51796
5130.46,0.52314
5124.68,0.52515
5118.89,0.52945
5113.1,0.53240
5107.32,0.53344
5101.53,0.53735
5095.75,0.53970
5089.96,0.54230
5084.17,0.54502
5078.39,0.54792
5072.6,0.55114
5066.81,0.55426
5061.03,0.55653
5055.24,0.55779
5049.46,0.56061
5043.67,0.56148
5037.88,0.56381
5032.1,0.56543
5026.31,0.56679
5020.52,0.56853
5014.74,0.56914
5008.95,0.56836
5003.17,0.56873
4997.38,0.57032
4991.59,0.56878
4985.81,0.56641
4980.02,0.56578
4974.23,0.56491
4968.45,0.56213
4962.66,0.55765
4956.88,0.55513
4951.09,0.55048
4945.3,0.54734
4939.52,0.54365
4933.73,0.53765
4927.94,0.53254
4922.16,0.52729
4916.37,0.52188
4910.59,0.51610
4904.8,0.51021
4899.01,0.50571
4893.23,0.50076
4887.44,0.49441
4881.65,0.48982
4875.87,0.48596
4870.08,0.48038
4864.3,0.47603
4858.51,0.47177
4852.72,0.46762
4846.94,0.46483
4841.15,0.46082
4835.36,0.45708
4829.58,0.45214
4823.79,0.45020
4818.01,0.44751
4812.22,0.44516
4806.43,0.44390
4800.65,0.44122
4794.86,0.43962
4789.07,0.43809
4783.29,0.43746
4777.5,0.43562
4771.72,0.43528
4765.93,0.43519
4760.14,0.43490
4754.36,0.43543
4748.57,0.43542
4742.78,0.43570
4737,0.43667
4731.21,0.43579
4725.43,0.43848
4719.64,0.43823
4713.85,0.43899
4708.07,0.44051
4702.28,0.44170
4696.49,0.44293
4690.71,0.44436
4684.92,0.44567
4679.14,0.44728
4673.35,0.44913
4667.56,0.45134
4661.78,0.45430
4655.99,0.45558
4650.2,0.45822
4644.42,0.46070
4638.63,0.46305
4632.85,0.46572
4627.06,0.46771
4621.27,0.47135
4615.49,0.47459
4609.7,0.47744
4603.92,0.48013
4598.13,0.48351
4592.34,0.48642
4586.56,0.48907
4580.77,0.49058
4574.98,0.49248
4569.2,0.49407
4563.41,0.49712
4557.63,0.49725
4551.84,0.49862
4546.05,0.50054
4540.27,0.50183
4534.48,0.50261
4528.69,0.50407
4522.91,0.50470
4517.12,0.50527
4511.34,0.50518
4505.55,0.50381
4499.76,0.50261
4493.98,0.50038
4488.19,0.49751
4482.4,0.49455
4476.62,0.48999
4470.83,0.48392
4465.05,0.47830
4459.26,0.47245
4453.47,0.46584
4447.69,0.45877
4441.9,0.45239
4436.11,0.44467
4430.33,0.43683
4424.54,0.42965
4418.76,0.42222
4412.97,0.41621
4407.18,0.41076
4401.4,0.40810
4395.61,0.40662
4389.82,0.40751
4384.04,0.40936
4378.25,0.41186
4372.47,0.41327
4366.68,0.41668
4360.89,0.41933
4355.11,0.41945
4349.32,0.41799
4343.53,0.41811
4337.75,0.41715
4331.96,0.41446
4326.18,0.41170
4320.39,0.40946
4314.6,0.40675
4308.82,0.40336
4303.03,0.40086
4297.24,0.39939
4291.46,0.39635
4285.67,0.39513
4279.89,0.39498
4274.1,0.39534
4268.31,0.39563
4262.53,0.39651
4256.74,0.39816
4250.95,0.39958
4245.17,0.40038
4239.38,0.40049
4233.6,0.40042
4227.81,0.40089
4222.02,0.40087
4216.24,0.40037
4210.45,0.40210
4204.66,0.40200
4198.88,0.40247
4193.09,0.40356
4187.31,0.40360
4181.52,0.40460
4175.73,0.40572
4169.95,0.40819
4164.16,0.40858
4158.37,0.40913
4152.59,0.40740
4146.8,0.40621
4141.02,0.40394
4135.23,0.40087
4129.44,0.39745
4123.66,0.39398
4117.87,0.38957
4112.09,0.38529
4106.3,0.38068
4100.51,0.37474
4094.73,0.36907
4088.94,0.36253
4083.15,0.35659
4077.37,0.35064
4071.58,0.34474
4065.8,0.33954
4060.01,0.33236
4054.22,0.32713
4048.44,0.32209
4042.65,0.31682
4036.86,0.31350
4031.08,0.31021
4025.29,0.30763
4019.51,0.30631
4013.72,0.30585
4007.93,0.30586
4002.15,0.30705
3996.36,0.30855
3990.57,0.31089
3984.79,0.31194
3979,0.31366
3973.22,0.31559
3967.43,0.31740
3961.64,0.32073
3955.86,0.32300
3950.07,0.32643
3944.28,0.32928
3938.5,0.33173
3932.71,0.33372
3926.93,0.33670
3921.14,0.34009
3915.35,0.34388
3909.57,0.34570
3903.78,0.34738
3897.99,0.35029
3892.21,0.35252
3886.42,0.35473
3880.64,0.35631
3874.85,0.35844
3869.06,0.36138
3863.28,0.36364
3857.49,0.36612
3851.7,0.36971
3845.92,0.37269
3840.13,0.37491
3834.35,0.37632
3828.56,0.37614
3822.77,0.37591
3816.99,0.37686
3811.2,0.37672
3805.41,0.37623
3799.63,0.37694
3793.84,0.37594
3788.06,0.37548
3782.27,0.37493
3776.48,0.37462
3770.7,0.37270
3764.91,0.37158
3759.12,0.36976
3753.34,0.36730
3747.55,0.36454
3741.77,0.36171
3735.98,0.35862
3730.19,0.35404
3724.41,0.34964
3718.62,0.34349
3712.83,0.33692
3707.05,0.32866
3701.26,0.31913
3695.48,0.30787
3689.69,0.29466
3683.9,0.27811
3678.12,0.26000
3672.33,0.23947
3666.54,0.21917
3660.76,0.20102
3654.97,0.18235
3649.19,0.16643
3643.4,0.15179
3637.61,0.13942
3631.83,0.12901
3626.04,0.11784
3620.25,0.10961
3614.47,0.10002
3608.68,0.09373
3602.9,0.08622
3597.11,0.07984
3591.32,0.07455
3585.54,0.06922
3579.75,0.06521
3573.97,0.06210
3568.18,0.05958
3562.39,0.05616
3556.61,0.05428
3550.82,0.05177
3545.03,0.05039
3539.25,0.04865
3533.46,0.04700
3527.68,0.04523
3521.89,0.04427
3516.1,0.04403
3510.32,0.04300
3504.53,0.04162
3498.74,0.04128
3492.96,0.04083
3487.17,0.03983
3481.39,0.03931
3475.6,0.03918
3469.81,0.03925
3464.03,0.03891
3458.24,0.03859
3452.45,0.03804
3446.67,0.03823
3440.88,0.03813
3435.1,0.03875
3429.31,0.03791
3423.52,0.03881
3417.74,0.03825
3411.95,0.03842
3406.16,0.03859
3400.38,0.03891
3394.59,0.03950
3388.81,0.03852
3383.02,0.03931
3377.23,0.03953
3371.45,0.03907
3365.66,0.03975
3359.87,0.03947
3354.09,0.04017
3348.3,0.04025
3342.52,0.04111
3336.73,0.04151
3330.94,0.04216
3325.16,0.04311
3319.37,0.04344
3313.58,0.04434
3307.8,0.04446
3302.01,0.04418
3296.23,0.04407
3290.44,0.04502
3284.65,0.04546
3278.87,0.04637
3273.08,0.04691
3267.29,0.04733
3261.51,0.04867
3255.72,0.04944
3249.94,0.05013
3244.15,0.05096
3238.36,0.05216
3232.58,0.05255
3226.79,0.05358
3221,0.05467
3215.22,0.05728
3209.43,0.05836
3203.65,0.05928
3197.86,0.06004
3192.07,0.06146
3186.29,0.06349
3180.5,0.06454
3174.71,0.06672
3168.93,0.06791
3163.14,0.06960
3157.36,0.07134
3151.57,0.07315
3145.78,0.07534
3140,0.07725
3134.21,0.07891
3128.42,0.08081
3122.64,0.08261
3116.85,0.08507
3111.07,0.08677
3105.28,0.08867
3099.49,0.09007
3093.71,0.09223
3087.92,0.09389
3082.14,0.09589
3076.35,0.09784
3070.56,0.09895
3064.78,0.10052
3058.99,0.10271
3053.2,0.10504
3047.42,0.10682
3041.63,0.10773
3035.85,0.10900
3030.06,0.11003
3024.27,0.10999
3018.49,0.11004
3012.7,0.10845
3006.91,0.10634
3001.13,0.10393
2995.34,0.10164
2989.56,0.09863
2983.77,0.09337
2977.98,0.08622
2972.2,0.07861
2966.41,0.07405
2960.62,0.07055
2954.84,0.06786
2949.05,0.06460
2943.27,0.06207
2937.48,0.06114
2931.69,0.06068
2925.91,0.06012
2920.12,0.06010
2914.33,0.05941
2908.55,0.05880
2902.76,0.05941
2896.98,0.06050
2891.19,0.06097
2885.4,0.06244
2879.62,0.06360
2873.83,0.06471
2868.04,0.06595
2862.26,0.06849
2856.47,0.07010
2850.69,0.07371
2844.9,0.07773
2839.11,0.08264
2833.33,0.08803
2827.54,0.09365
2821.75,0.09974
2815.97,0.10523
2810.18,0.11008
2804.4,0.11372
2798.61,0.11717
2792.82,0.11990
2787.04,0.12233
2781.25,0.12404
2775.46,0.12602
2769.68,0.12688
2763.89,0.12811
2758.11,0.12888
2752.32,0.12979
2746.53,0.12970
2740.75,0.12990
2734.96,0.13074
2729.17,0.13209
2723.39,0.13392
2717.6,0.13552
2711.82,0.13758
2706.03,0.14021
2700.24,0.14220
2694.46,0.14505
2688.67,0.14767
2682.88,0.15051
2677.1,0.15238
2671.31,0.15452
2665.53,0.15661
2659.74,0.15790
2653.95,0.15960
2648.17,0.16154
2642.38,0.16308
2636.59,0.16523
2630.81,0.16775
2625.02,0.16949
2619.24,0.17150
2613.45,0.17293
2607.66,0.17445
2601.88,0.17652
2596.09,0.17808
2590.3,0.17944
2584.52,0.18026
2578.73,0.18138
2572.95,0.18279
2567.16,0.18308
2561.37,0.18351
2555.59,0.18353
2549.8,0.18382
2544.02,0.18374
2538.23,0.18489
2532.44,0.18628
2526.66,0.18782
2520.87,0.18956
2515.08,0.19132
2509.3,0.19372
2503.51,0.19605
2497.73,0.19951
2491.94,0.20235
2486.15,0.20467
2480.37,0.20716
2474.58,0.20998
2468.79,0.21193
2463.01,0.21450
2457.22,0.21677
2451.44,0.21924
2445.65,0.22195
2439.86,0.22454
2434.08,0.22742
2428.29,0.23067
2422.5,0.23387
2416.72,0.23685
2410.93,0.24019
2405.15,0.24308
2399.36,0.24605
2393.57,0.24886
2387.79,0.25134
2382,0.25402
2376.21,0.25693
2370.43,0.25940
2364.64,0.26149
2358.86,0.26296
2353.07,0.26491
2347.28,0.26663
2341.5,0.26830
2335.71,0.26989
2329.92,0.27088
2324.14,0.27132
2318.35,0.27207
2312.57,0.27254
2306.78,0.27223
2300.99,0.27145
2295.21,0.27078
2289.42,0.27022
2283.63,0.26962
2277.85,0.26853
2272.06,0.26712
2266.28,0.26461
2260.49,0.26232
2254.7,0.26099
2248.92,0.25985
2243.13,0.25852
2237.34,0.25754
2231.56,0.25613
2225.77,0.25632
2219.99,0.25661
2214.2,0.25623
2208.41,0.25563
2202.63,0.25423
2196.84,0.25191
2191.05,0.24913
2185.27,0.24554
2179.48,0.24150
2173.7,0.23780
2167.91,0.23422
2162.12,0.23173
2156.34,0.22934
2150.55,0.22731
2144.76,0.22604
2138.98,0.22446
2133.19,0.22417
2127.41,0.22444
2121.62,0.22545
2115.83,0.22676
2110.05,0.22810
2104.26,0.22981
2098.47,0.23040
2092.69,0.23111
2086.9,0.23202
2081.12,0.23151
2075.33,0.23059
2069.54,0.22946
2063.76,0.22810
2057.97,0.22723
2052.19,0.22793
2046.4,0.22886
2040.61,0.23104
2034.83,0.23372
2029.04,0.23743
2023.25,0.24110
2017.47,0.24422
2011.68,0.24770
2005.9,0.24985
2000.11,0.25180
1994.32,0.25406
1988.54,0.25657
1982.75,0.25827
1976.96,0.25971
1971.18,0.26120
1965.39,0.26275
1959.61,0.26560
1953.82,0.26852
1948.03,0.27176
1942.25,0.27460
1936.46,0.27740
1930.67,0.27937
1924.89,0.28076
1919.1,0.28178
1913.32,0.28198
1907.53,0.28165
1901.74,0.28136
1895.96,0.28027
1890.17,0.27987
1884.38,0.27957
1878.6,0.27885
1872.81,0.27822
1867.03,0.27744
1861.24,0.27581
1855.45,0.27432
1849.67,0.27202
1843.88,0.26951
1838.09,0.26675
1832.31,0.26342
1826.52,0.25988
1820.74,0.25506
1814.95,0.24995
1809.16,0.24391
1803.38,0.23655
1797.59,0.22792
1791.8,0.21786
1786.02,0.20611
1780.23,0.19176
1774.45,0.17412
1768.66,0.14999
1762.87,0.12463
1757.09,0.10074
1751.3,0.08402
1745.51,0.07459
1739.73,0.07045
1733.94,0.07045
1728.16,0.07246
1722.37,0.07639
1716.58,0.08267
1710.8,0.08966
1705.01,0.09602
1699.22,0.09785
1693.44,0.09628
1687.65,0.09237
1681.87,0.08493
1676.08,0.07839
1670.29,0.07204
1664.51,0.06832
1658.72,0.06804
1652.93,0.07003
1647.15,0.07118
1641.36,0.07090
1635.58,0.07036
1629.79,0.07071
1624,0.07032
1618.22,0.06927
1612.43,0.06678
1606.64,0.06445
1600.86,0.06331
1595.07,0.06329
1589.29,0.06577
1583.5,0.07210
1577.71,0.08212
1571.93,0.09456
1566.14,0.10439
1560.35,0.11022
1554.57,0.11289
1548.78,0.11210
1543,0.10973
1537.21,0.10306
1531.42,0.09215
1525.64,0.07649
1519.85,0.05779
1514.07,0.04815
1508.28,0.04749
1502.49,0.05295
1496.71,0.05957
1490.92,0.06369
1485.13,0.06175
1479.35,0.05727
1473.56,0.05142
1467.78,0.04632
1461.99,0.04511
1456.2,0.04441
1450.42,0.04460
1444.63,0.04542
1438.84,0.04402
1433.06,0.04192
1427.27,0.04158
1421.49,0.04291
1415.7,0.04468
1409.91,0.04620
1404.13,0.04708
1398.34,0.04662
1392.55,0.04499
1386.77,0.04270
1380.98,0.04053
1375.2,0.03979
1369.41,0.04040
1363.62,0.04184
1357.84,0.04261
1352.05,0.04366
1346.26,0.04343
1340.48,0.04270
1334.69,0.04231
1328.91,0.04198
1323.12,0.04123
1317.33,0.04098
1311.55,0.04219
1305.76,0.04271
1299.97,0.04327
1294.19,0.04207
1288.4,0.04017
1282.62,0.03850
1276.83,0.03853
1271.04,0.03847
1265.26,0.03889
1259.47,0.03984
1253.68,0.04007
1247.9,0.04088
1242.11,0.04060
1236.33,0.04050
1230.54,0.04035
1224.75,0.04085
1218.97,0.04179
1213.18,0.04125
1207.39,0.04088
1201.61,0.04112
1195.82,0.04080
1190.04,0.03951
1184.25,0.03740
1178.46,0.03503
1172.68,0.03265
1166.89,0.03472
1161.1,0.03723
1155.32,0.03836
1149.53,0.03701
1143.75,0.03509
1137.96,0.03345
1132.17,0.03250
1126.39,0.03228
1120.6,0.03207
1114.81,0.03355
1109.03,0.03596
1103.24,0.03742
1097.46,0.03650
1091.67,0.03565
1085.88,0.03667
1080.1,0.03968
1074.31,0.04412
1068.52,0.04860
1062.74,0.05546
1056.95,0.05927
1051.17,0.05799
1045.38,0.05616
1039.59,0.05738
1033.81,0.06206
1028.02,0.06326
1022.24,0.06348
1016.45,0.06457
1010.66,0.06466
1004.88,0.06400
999.09,0.06461
993.304,0.06611
987.518,0.06913
981.731,0.07366
975.945,0.07843
970.159,0.08050
964.373,0.08265
958.586,0.08580
952.8,0.08877
947.014,0.09202
941.228,0.09338
935.441,0.09530
929.655,0.09818
923.869,0.09912
918.083,0.09699
912.297,0.09276
906.51,0.08613
900.724,0.08159
894.938,0.08109
889.152,0.08527
883.365,0.08853
877.579,0.08918
871.793,0.08966
866.007,0.09139
860.22,0.09328
854.434,0.09538
848.648,0.09904
842.862,0.09957
837.075,0.09635
831.289,0.09490
825.503,0.08994
819.717,0.08551
813.931,0.07980
808.144,0.07844
802.358,0.07973
796.572,0.08055
790.786,0.08055
784.999,0.07882
779.213,0.07639
773.427,0.07543
767.641,0.07325
761.854,0.07213
756.068,0.07072
750.282,0.06984
744.496,0.06767
738.709,0.06636
732.923,0.06389
727.137,0.06100
721.351,0.05974
715.565,0.05853
709.778,0.05773
703.992,0.05763
698.206,0.05708
692.42,0.05500
686.633,0.05383
680.847,0.05150
675.061,0.05053
669.275,0.05042
663.488,0.05096
657.702,0.05128
651.916,0.05213
646.13,0.04960
640.343,0.04696
634.557,0.04694
628.771,0.04580
622.985,0.04701
617.198,0.04649
611.412,0.04981
605.626,0.04943
599.84,0.04931