File: 01_Data/Exterior_Plywood/FTIR/IS/Exterior_Plywood_IS_S_220927_R2.dpt
7497.03,0.79056
7491.25,0.78809
7485.46,0.78514
7479.67,0.77904
7473.89,0.78583
7468.1,0.78415
7462.32,0.77894
7456.53,0.77272
7450.74,0.77584
7444.96,0.77359
7439.17,0.77300
7433.38,0.76550
7427.6,0.78103
7421.81,0.76587
7416.03,0.76513
7410.24,0.75330
7404.45,0.76467
7398.67,0.75605
7392.88,0.74812
7387.09,0.75857
7381.31,0.74964
7375.52,0.74511
7369.74,0.73578
7363.95,0.74430
7358.16,0.74542
7352.38,0.74716
7346.59,0.74426
7340.8,0.74712
7335.02,0.73566
7329.23,0.73627
7323.45,0.73241
7317.66,0.73244
7311.87,0.73629
7306.09,0.73789
7300.3,0.73419
7294.51,0.73547
7288.73,0.72981
7282.94,0.72767
7277.16,0.72850
7271.37,0.72915
7265.58,0.72949
7259.8,0.73603
7254.01,0.72669
7248.22,0.72272
7242.44,0.73133
7236.65,0.72028
7230.87,0.73215
7225.08,0.72773
7219.29,0.72968
7213.51,0.72998
7207.72,0.71602
7201.93,0.71330
7196.15,0.71996
7190.36,0.70990
7184.58,0.71139
7178.79,0.70141
7173,0.71241
7167.22,0.70770
7161.43,0.70865
7155.65,0.69865
7149.86,0.69177
7144.07,0.68727
7138.29,0.69128
7132.5,0.68435
7126.71,0.67854
7120.93,0.67608
7115.14,0.67495
7109.36,0.67455
7103.57,0.66569
7097.78,0.66059
7092,0.65519
7086.21,0.65178
7080.42,0.63878
7074.64,0.63791
7068.85,0.63800
7063.07,0.62963
7057.28,0.62757
7051.49,0.62576
7045.71,0.61961
7039.92,0.62130
7034.13,0.60990
7028.35,0.60321
7022.56,0.60089
7016.78,0.59514
7010.99,0.58746
7005.2,0.58302
6999.42,0.58108
6993.63,0.59048
6987.84,0.58563
6982.06,0.57628
6976.27,0.57828
6970.49,0.58084
6964.7,0.57162
6958.91,0.57682
6953.13,0.57320
6947.34,0.57730
6941.55,0.56851
6935.77,0.57130
6929.98,0.56811
6924.2,0.56622
6918.41,0.57012
6912.62,0.56776
6906.84,0.56892
6901.05,0.57000
6895.26,0.56866
6889.48,0.57062
6883.69,0.56876
6877.91,0.57293
6872.12,0.56616
6866.33,0.56544
6860.55,0.56812
6854.76,0.56661
6848.97,0.56875
6843.19,0.56707
6837.4,0.56384
6831.62,0.56293
6825.83,0.56378
6820.04,0.56501
6814.26,0.56731
6808.47,0.56431
6802.68,0.56734
6796.9,0.56594
6791.11,0.56620
6785.33,0.56261
6779.54,0.56412
6773.75,0.56568
6767.97,0.56189
6762.18,0.57083
6756.39,0.56735
6750.61,0.56296
6744.82,0.56673
6739.04,0.56759
6733.25,0.56915
6727.46,0.56057
6721.68,0.56562
6715.89,0.56438
6710.1,0.56749
6704.32,0.56743
6698.53,0.56988
6692.75,0.56750
6686.96,0.57190
6681.17,0.57011
6675.39,0.57297
6669.6,0.57283
6663.82,0.57483
6658.03,0.57304
6652.24,0.57976
6646.46,0.57541
6640.67,0.57788
6634.88,0.57543
6629.1,0.57625
6623.31,0.57494
6617.53,0.57619
6611.74,0.58249
6605.95,0.58352
6600.17,0.57930
6594.38,0.57981
6588.59,0.58294
6582.81,0.58303
6577.02,0.58182
6571.24,0.58283
6565.45,0.58581
6559.66,0.58990
6553.88,0.58682
6548.09,0.59112
6542.3,0.58909
6536.52,0.58791
6530.73,0.58621
6524.95,0.59368
6519.16,0.59040
6513.37,0.59358
6507.59,0.59064
6501.8,0.59206
6496.01,0.59281
6490.23,0.59514
6484.44,0.59053
6478.66,0.59300
6472.87,0.59408
6467.08,0.59383
6461.3,0.59130
6455.51,0.59190
6449.72,0.59279
6443.94,0.59362
6438.15,0.59286
6432.37,0.59659
6426.58,0.59624
6420.79,0.59738
6415.01,0.59924
6409.22,0.59594
6403.43,0.60002
6397.65,0.59537
6391.86,0.59732
6386.08,0.59831
6380.29,0.59682
6374.5,0.59995
6368.72,0.60412
6362.93,0.60252
6357.14,0.59987
6351.36,0.59831
6345.57,0.60262
6339.79,0.60246
6334,0.60503
6328.21,0.60472
6322.43,0.60519
6316.64,0.60273
6310.85,0.60439
6305.07,0.59965
6299.28,0.60456
6293.5,0.60613
6287.71,0.61165
6281.92,0.61055
6276.14,0.60985
6270.35,0.61072
6264.56,0.61483
6258.78,0.61534
6252.99,0.61360
6247.21,0.62357
6241.42,0.61655
6235.63,0.62183
6229.85,0.62381
6224.06,0.62749
6218.27,0.62229
6212.49,0.62858
6206.7,0.63167
6200.92,0.63168
6195.13,0.63230
6189.34,0.63394
6183.56,0.63684
6177.77,0.64052
6171.98,0.64135
6166.2,0.64294
6160.41,0.64514
6154.63,0.64393
6148.84,0.64638
6143.05,0.64777
6137.27,0.65184
6131.48,0.65237
6125.7,0.65021
6119.91,0.65213
6114.12,0.65612
6108.34,0.65765
6102.55,0.65146
6096.76,0.65249
6090.98,0.65536
6085.19,0.65665
6079.41,0.65345
6073.62,0.65902
6067.83,0.65888
6062.05,0.65673
6056.26,0.65279
6050.47,0.65373
6044.69,0.65494
6038.9,0.65370
6033.12,0.65153
6027.33,0.64946
6021.54,0.65107
6015.76,0.64973
6009.97,0.64976
6004.18,0.64648
5998.4,0.64415
5992.61,0.64543
5986.83,0.64492
5981.04,0.64539
5975.25,0.64482
5969.47,0.64151
5963.68,0.64092
5957.89,0.64205
5952.11,0.64391
5946.32,0.64184
5940.54,0.64224
5934.75,0.64558
5928.96,0.64582
5923.18,0.64748
5917.39,0.64602
5911.6,0.64418
5905.82,0.64358
5900.03,0.64047
5894.25,0.64215
5888.46,0.63873
5882.67,0.63720
5876.89,0.63637
5871.1,0.63661
5865.31,0.63782
5859.53,0.63442
5853.74,0.63659
5847.96,0.63646
5842.17,0.63471
5836.38,0.63531
5830.6,0.63541
5824.81,0.63296
5819.02,0.63373
5813.24,0.63081
5807.45,0.63286
5801.67,0.63005
5795.88,0.62986
5790.09,0.63110
5784.31,0.63367
5778.52,0.63256
5772.73,0.63230
5766.95,0.63414
5761.16,0.63404
5755.38,0.63233
5749.59,0.63374
5743.8,0.63145
5738.02,0.63400
5732.23,0.63285
5726.44,0.63247
5720.66,0.63291
5714.87,0.63185
5709.09,0.63325
5703.3,0.63119
5697.51,0.63043
5691.73,0.63103
5685.94,0.63190
5680.15,0.62860
5674.37,0.62706
5668.58,0.63075
5662.8,0.62835
5657.01,0.62843
5651.22,0.62530
5645.44,0.62746
5639.65,0.62604
5633.87,0.62774
5628.08,0.62608
5622.29,0.62713
5616.51,0.62947
5610.72,0.62599
5604.93,0.62332
5599.15,0.62531
5593.36,0.62647
5587.58,0.62738
5581.79,0.62678
5576,0.62671
5570.22,0.63003
5564.43,0.62962
5558.64,0.62840
5552.86,0.62897
5547.07,0.63073
5541.29,0.62866
5535.5,0.62941
5529.71,0.63070
5523.93,0.63146
5518.14,0.63112
5512.35,0.63060
5506.57,0.63133
5500.78,0.63226
5495,0.63473
5489.21,0.63074
5483.42,0.63501
5477.64,0.63388
5471.85,0.63433
5466.06,0.63494
5460.28,0.63539
5454.49,0.63693
5448.71,0.63923
5442.92,0.64042
5437.13,0.64070
5431.35,0.64101
5425.56,0.64261
5419.77,0.64493
5413.99,0.64447
5408.2,0.64552
5402.42,0.64689
5396.63,0.64696
5390.84,0.64539
5385.06,0.64632
5379.27,0.64590
5373.48,0.64735
5367.7,0.64568
5361.91,0.64315
5356.13,0.64504
5350.34,0.64305
5344.55,0.64320
5338.77,0.64084
5332.98,0.63729
5327.19,0.63356
5321.41,0.62864
5315.62,0.62469
5309.84,0.61887
5304.05,0.61375
5298.26,0.60443
5292.48,0.59708
5286.69,0.58885
5280.9,0.57998
5275.12,0.56839
5269.33,0.55418
5263.55,0.54416
5257.76,0.53325
5251.97,0.52187
5246.19,0.51351
5240.4,0.50401
5234.61,0.49652
5228.83,0.49028
5223.04,0.48589
5217.26,0.48385
5211.47,0.47827
5205.68,0.47739
5199.9,0.47498
5194.11,0.47424
5188.32,0.47420
5182.54,0.47506
5176.75,0.47560
5170.97,0.47746
5165.18,0.47947
5159.39,0.48177
5153.61,0.48453
5147.82,0.48754
5142.03,0.49113
5136.25,0.49558
5130.46,0.49899
5124.68,0.50097
5118.89,0.50534
5113.1,0.50772
5107.32,0.50930
5101.53,0.51355
5095.75,0.51721
5089.96,0.52022
5084.17,0.52197
5078.39,0.52477
5072.6,0.52748
5066.81,0.53121
5061.03,0.53373
5055.24,0.53708
5049.46,0.54067
5043.67,0.54243
5037.88,0.54452
5032.1,0.54608
5026.31,0.54860
5020.52,0.54844
5014.74,0.55190
5008.95,0.55236
5003.17,0.55436
4997.38,0.55489
4991.59,0.55303
4985.81,0.55281
4980.02,0.55269
4974.23,0.55066
4968.45,0.55008
4962.66,0.54821
4956.88,0.54501
4951.09,0.54191
4945.3,0.53777
4939.52,0.53269
4933.73,0.52999
4927.94,0.52507
4922.16,0.52102
4916.37,0.51507
4910.59,0.51054
4904.8,0.50634
4899.01,0.50148
4893.23,0.49720
4887.44,0.49130
4881.65,0.48622
4875.87,0.48208
4870.08,0.47698
4864.3,0.47345
4858.51,0.46945
4852.72,0.46497
4846.94,0.46251
4841.15,0.45766
4835.36,0.45388
4829.58,0.44965
4823.79,0.44649
4818.01,0.44506
4812.22,0.44231
4806.43,0.43988
4800.65,0.43760
4794.86,0.43775
4789.07,0.43556
4783.29,0.43447
4777.5,0.43430
4771.72,0.43357
4765.93,0.43266
4760.14,0.43114
4754.36,0.43192
4748.57,0.43244
4742.78,0.43279
4737,0.43292
4731.21,0.43337
4725.43,0.43395
4719.64,0.43591
4713.85,0.43761
4708.07,0.43698
4702.28,0.43852
4696.49,0.44125
4690.71,0.44155
4684.92,0.44225
4679.14,0.44467
4673.35,0.44605
4667.56,0.44825
4661.78,0.44984
4655.99,0.45271
4650.2,0.45576
4644.42,0.45713
4638.63,0.45907
4632.85,0.46235
4627.06,0.46405
4621.27,0.46715
4615.49,0.47061
4609.7,0.47271
4603.92,0.47750
4598.13,0.47928
4592.34,0.48252
4586.56,0.48438
4580.77,0.48596
4574.98,0.48872
4569.2,0.49065
4563.41,0.49267
4557.63,0.49369
4551.84,0.49565
4546.05,0.49678
4540.27,0.49786
4534.48,0.49879
4528.69,0.49900
4522.91,0.50088
4517.12,0.50073
4511.34,0.49971
4505.55,0.49967
4499.76,0.49829
4493.98,0.49664
4488.19,0.49500
4482.4,0.49004
4476.62,0.48525
4470.83,0.48052
4465.05,0.47502
4459.26,0.46803
4453.47,0.46226
4447.69,0.45645
4441.9,0.44936
4436.11,0.44264
4430.33,0.43554
4424.54,0.42740
4418.76,0.42054
4412.97,0.41351
4407.18,0.40843
4401.4,0.40608
4395.61,0.40477
4389.82,0.40602
4384.04,0.40747
4378.25,0.41017
4372.47,0.41190
4366.68,0.41523
4360.89,0.41644
4355.11,0.41647
4349.32,0.41655
4343.53,0.41552
4337.75,0.41397
4331.96,0.41198
4326.18,0.40992
4320.39,0.40682
4314.6,0.40403
4308.82,0.40129
4303.03,0.39865
4297.24,0.39597
4291.46,0.39462
4285.67,0.39279
4279.89,0.39231
4274.1,0.39258
4268.31,0.39265
4262.53,0.39389
4256.74,0.39537
4250.95,0.39615
4245.17,0.39630
4239.38,0.39708
4233.6,0.39813
4227.81,0.39773
4222.02,0.39722
4216.24,0.39771
4210.45,0.39741
4204.66,0.39807
4198.88,0.39896
4193.09,0.39956
4187.31,0.39988
4181.52,0.40058
4175.73,0.40222
4169.95,0.40324
4164.16,0.40451
4158.37,0.40426
4152.59,0.40277
4146.8,0.40139
4141.02,0.39903
4135.23,0.39641
4129.44,0.39351
4123.66,0.38985
4117.87,0.38412
4112.09,0.38004
4106.3,0.37515
4100.51,0.36996
4094.73,0.36335
4088.94,0.35784
4083.15,0.35276
4077.37,0.34646
4071.58,0.34126
4065.8,0.33533
4060.01,0.32931
4054.22,0.32395
4048.44,0.31831
4042.65,0.31328
4036.86,0.30924
4031.08,0.30596
4025.29,0.30378
4019.51,0.30258
4013.72,0.30204
4007.93,0.30326
4002.15,0.30345
3996.36,0.30478
3990.57,0.30690
3984.79,0.30811
3979,0.30923
3973.22,0.31073
3967.43,0.31329
3961.64,0.31613
3955.86,0.31852
3950.07,0.32072
3944.28,0.32427
3938.5,0.32685
3932.71,0.32923
3926.93,0.33217
3921.14,0.33481
3915.35,0.33813
3909.57,0.34072
3903.78,0.34288
3897.99,0.34492
3892.21,0.34709
3886.42,0.34920
3880.64,0.35121
3874.85,0.35203
3869.06,0.35427
3863.28,0.35644
3857.49,0.36019
3851.7,0.36351
3845.92,0.36493
3840.13,0.36662
3834.35,0.36857
3828.56,0.36910
3822.77,0.36940
3816.99,0.36860
3811.2,0.36829
3805.41,0.36809
3799.63,0.36798
3793.84,0.36724
3788.06,0.36628
3782.27,0.36544
3776.48,0.36417
3770.7,0.36297
3764.91,0.36032
3759.12,0.35843
3753.34,0.35523
3747.55,0.35277
3741.77,0.34991
3735.98,0.34573
3730.19,0.34081
3724.41,0.33505
3718.62,0.32960
3712.83,0.32181
3707.05,0.31310
3701.26,0.30269
3695.48,0.29059
3689.69,0.27710
3683.9,0.25945
3678.12,0.24111
3672.33,0.22042
3666.54,0.19919
3660.76,0.18086
3654.97,0.16358
3649.19,0.14848
3643.4,0.13532
3637.61,0.12377
3631.83,0.11396
3626.04,0.10512
3620.25,0.09686
3614.47,0.09047
3608.68,0.08355
3602.9,0.07825
3597.11,0.07275
3591.32,0.06787
3585.54,0.06399
3579.75,0.06067
3573.97,0.05840
3568.18,0.05574
3562.39,0.05355
3556.61,0.05165
3550.82,0.05000
3545.03,0.04784
3539.25,0.04692
3533.46,0.04549
3527.68,0.04456
3521.89,0.04303
3516.1,0.04270
3510.32,0.04195
3504.53,0.04118
3498.74,0.04040
3492.96,0.03943
3487.17,0.03919
3481.39,0.03920
3475.6,0.03877
3469.81,0.03825
3464.03,0.03855
3458.24,0.03835
3452.45,0.03778
3446.67,0.03759
3440.88,0.03798
3435.1,0.03784
3429.31,0.03812
3423.52,0.03830
3417.74,0.03796
3411.95,0.03821
3406.16,0.03897
3400.38,0.03867
3394.59,0.03873
3388.81,0.03821
3383.02,0.03904
3377.23,0.03903
3371.45,0.03911
3365.66,0.03973
3359.87,0.03963
3354.09,0.04011
3348.3,0.03988
3342.52,0.04062
3336.73,0.04100
3330.94,0.04176
3325.16,0.04155
3319.37,0.04298
3313.58,0.04358
3307.8,0.04369
3302.01,0.04388
3296.23,0.04412
3290.44,0.04427
3284.65,0.04503
3278.87,0.04588
3273.08,0.04660
3267.29,0.04693
3261.51,0.04811
3255.72,0.04816
3249.94,0.04868
3244.15,0.05062
3238.36,0.05087
3232.58,0.05178
3226.79,0.05284
3221,0.05380
3215.22,0.05482
3209.43,0.05610
3203.65,0.05706
3197.86,0.05810
3192.07,0.05955
3186.29,0.06128
3180.5,0.06197
3174.71,0.06362
3168.93,0.06514
3163.14,0.06687
3157.36,0.06830
3151.57,0.06993
3145.78,0.07069
3140,0.07263
3134.21,0.07492
3128.42,0.07652
3122.64,0.07822
3116.85,0.07994
3111.07,0.08210
3105.28,0.08442
3099.49,0.08584
3093.71,0.08754
3087.92,0.08936
3082.14,0.09055
3076.35,0.09231
3070.56,0.09425
3064.78,0.09628
3058.99,0.09780
3053.2,0.09939
3047.42,0.10148
3041.63,0.10277
3035.85,0.10436
3030.06,0.10494
3024.27,0.10506
3018.49,0.10506
3012.7,0.10370
3006.91,0.10218
3001.13,0.10129
2995.34,0.09905
2989.56,0.09584
2983.77,0.09077
2977.98,0.08430
2972.2,0.07759
2966.41,0.07309
2960.62,0.06984
2954.84,0.06703
2949.05,0.06444
2943.27,0.06214
2937.48,0.06058
2931.69,0.06042
2925.91,0.06043
2920.12,0.05914
2914.33,0.05900
2908.55,0.05956
2902.76,0.05993
2896.98,0.06052
2891.19,0.06115
2885.4,0.06212
2879.62,0.06310
2873.83,0.06397
2868.04,0.06536
2862.26,0.06777
2856.47,0.06987
2850.69,0.07268
2844.9,0.07717
2839.11,0.08191
2833.33,0.08727
2827.54,0.09298
2821.75,0.09852
2815.97,0.10378
2810.18,0.10816
2804.4,0.11207
2798.61,0.11562
2792.82,0.11795
2787.04,0.12062
2781.25,0.12217
2775.46,0.12383
2769.68,0.12472
2763.89,0.12544
2758.11,0.12637
2752.32,0.12711
2746.53,0.12801
2740.75,0.12789
2734.96,0.12824
2729.17,0.12977
2723.39,0.13136
2717.6,0.13320
2711.82,0.13493
2706.03,0.13792
2700.24,0.14032
2694.46,0.14323
2688.67,0.14527
2682.88,0.14773
2677.1,0.15006
2671.31,0.15218
2665.53,0.15377
2659.74,0.15522
2653.95,0.15760
2648.17,0.15890
2642.38,0.16090
2636.59,0.16331
2630.81,0.16496
2625.02,0.16723
2619.24,0.16926
2613.45,0.17091
2607.66,0.17214
2601.88,0.17402
2596.09,0.17521
2590.3,0.17668
2584.52,0.17865
2578.73,0.17954
2572.95,0.17987
2567.16,0.18088
2561.37,0.18081
2555.59,0.18130
2549.8,0.18133
2544.02,0.18199
2538.23,0.18282
2532.44,0.18358
2526.66,0.18533
2520.87,0.18679
2515.08,0.18842
2509.3,0.19060
2503.51,0.19369
2497.73,0.19681
2491.94,0.19958
2486.15,0.20196
2480.37,0.20467
2474.58,0.20713
2468.79,0.20962
2463.01,0.21201
2457.22,0.21385
2451.44,0.21651
2445.65,0.21901
2439.86,0.22158
2434.08,0.22443
2428.29,0.22733
2422.5,0.23098
2416.72,0.23414
2410.93,0.23698
2405.15,0.23987
2399.36,0.24248
2393.57,0.24480
2387.79,0.24773
2382,0.25003
2376.21,0.25259
2370.43,0.25492
2364.64,0.25652
2358.86,0.25809
2353.07,0.25993
2347.28,0.26123
2341.5,0.26311
2335.71,0.26402
2329.92,0.26517
2324.14,0.26557
2318.35,0.26657
2312.57,0.26658
2306.78,0.26611
2300.99,0.26535
2295.21,0.26424
2289.42,0.26364
2283.63,0.26306
2277.85,0.26227
2272.06,0.26056
2266.28,0.25789
2260.49,0.25551
2254.7,0.25385
2248.92,0.25262
2243.13,0.25146
2237.34,0.25009
2231.56,0.24905
2225.77,0.24865
2219.99,0.24866
2214.2,0.24831
2208.41,0.24727
2202.63,0.24561
2196.84,0.24332
2191.05,0.24054
2185.27,0.23719
2179.48,0.23365
2173.7,0.22971
2167.91,0.22635
2162.12,0.22342
2156.34,0.22138
2150.55,0.21958
2144.76,0.21762
2138.98,0.21650
2133.19,0.21603
2127.41,0.21639
2121.62,0.21780
2115.83,0.21894
2110.05,0.21990
2104.26,0.22135
2098.47,0.22247
2092.69,0.22323
2086.9,0.22335
2081.12,0.22296
2075.33,0.22230
2069.54,0.22121
2063.76,0.22049
2057.97,0.21988
2052.19,0.21994
2046.4,0.22081
2040.61,0.22311
2034.83,0.22612
2029.04,0.22883
2023.25,0.23281
2017.47,0.23638
2011.68,0.23936
2005.9,0.24163
2000.11,0.24378
1994.32,0.24631
1988.54,0.24836
1982.75,0.24975
1976.96,0.25144
1971.18,0.25328
1965.39,0.25518
1959.61,0.25763
1953.82,0.26000
1948.03,0.26287
1942.25,0.26632
1936.46,0.26913
1930.67,0.27085
1924.89,0.27226
1919.1,0.27306
1913.32,0.27347
1907.53,0.27370
1901.74,0.27326
1895.96,0.27260
1890.17,0.27186
1884.38,0.27155
1878.6,0.27095
1872.81,0.27031
1867.03,0.26926
1861.24,0.26842
1855.45,0.26654
1849.67,0.26409
1843.88,0.26227
1838.09,0.25878
1832.31,0.25630
1826.52,0.25285
1820.74,0.24847
1814.95,0.24325
1809.16,0.23745
1803.38,0.23036
1797.59,0.22234
1791.8,0.21282
1786.02,0.20190
1780.23,0.18850
1774.45,0.17213
1768.66,0.14904
1762.87,0.12483
1757.09,0.10086
1751.3,0.08441
1745.51,0.07456
1739.73,0.07037
1733.94,0.06982
1728.16,0.07140
1722.37,0.07510
1716.58,0.08078
1710.8,0.08761
1705.01,0.09245
1699.22,0.09431
1693.44,0.09198
1687.65,0.08728
1681.87,0.08079
1676.08,0.07468
1670.29,0.06865
1664.51,0.06496
1658.72,0.06425
1652.93,0.06584
1647.15,0.06626
1641.36,0.06600
1635.58,0.06651
1629.79,0.06657
1624,0.06697
1618.22,0.06645
1612.43,0.06473
1606.64,0.06259
1600.86,0.06216
1595.07,0.06203
1589.29,0.06464
1583.5,0.07055
1577.71,0.07987
1571.93,0.09235
1566.14,0.10186
1560.35,0.10705
1554.57,0.10861
1548.78,0.10856
1543,0.10646
1537.21,0.10010
1531.42,0.09045
1525.64,0.07482
1519.85,0.05677
1514.07,0.04772
1508.28,0.04749
1502.49,0.05306
1496.71,0.05957
1490.92,0.06305
1485.13,0.06123
1479.35,0.05718
1473.56,0.05134
1467.78,0.04586
1461.99,0.04484
1456.2,0.04403
1450.42,0.04404
1444.63,0.04497
1438.84,0.04392
1433.06,0.04181
1427.27,0.04133
1421.49,0.04249
1415.7,0.04511
1409.91,0.04692
1404.13,0.04703
1398.34,0.04679
1392.55,0.04531
1386.77,0.04269
1380.98,0.04041
1375.2,0.04012
1369.41,0.04049
1363.62,0.04165
1357.84,0.04245
1352.05,0.04371
1346.26,0.04329
1340.48,0.04226
1334.69,0.04162
1328.91,0.04189
1323.12,0.04122
1317.33,0.04120
1311.55,0.04202
1305.76,0.04317
1299.97,0.04301
1294.19,0.04167
1288.4,0.03972
1282.62,0.03860
1276.83,0.03815
1271.04,0.03804
1265.26,0.03915
1259.47,0.03964
1253.68,0.04018
1247.9,0.04062
1242.11,0.04061
1236.33,0.04032
1230.54,0.04031
1224.75,0.04085
1218.97,0.04138
1213.18,0.04131
1207.39,0.04122
1201.61,0.04071
1195.82,0.04105
1190.04,0.03994
1184.25,0.03735
1178.46,0.03433
1172.68,0.03299
1166.89,0.03507
1161.1,0.03796
1155.32,0.03817
1149.53,0.03746
1143.75,0.03510
1137.96,0.03351
1132.17,0.03178
1126.39,0.03142
1120.6,0.03246
1114.81,0.03385
1109.03,0.03616
1103.24,0.03696
1097.46,0.03710
1091.67,0.03704
1085.88,0.03692
1080.1,0.03977
1074.31,0.04329
1068.52,0.04849
1062.74,0.05479
1056.95,0.05880
1051.17,0.05740
1045.38,0.05536
1039.59,0.05731
1033.81,0.06136
1028.02,0.06374
1022.24,0.06279
1016.45,0.06413
1010.66,0.06405
1004.88,0.06371
999.09,0.06457
993.304,0.06624
987.518,0.06846
981.731,0.07369
975.945,0.07829
970.159,0.07970
964.373,0.08194
958.586,0.08509
952.8,0.08880
947.014,0.09056
941.228,0.09164
935.441,0.09418
929.655,0.09630
923.869,0.09752
918.083,0.09592
912.297,0.09093
906.51,0.08437
900.724,0.07981
894.938,0.08034
889.152,0.08402
883.365,0.08668
877.579,0.08756
871.793,0.08756
866.007,0.08966
860.22,0.09082
854.434,0.09252
848.648,0.09520
842.862,0.09548
837.075,0.09313
831.289,0.08937
825.503,0.08634
819.717,0.08147
813.931,0.07709
808.144,0.07579
802.358,0.07533
796.572,0.07710
790.786,0.07604
784.999,0.07513
779.213,0.07265
773.427,0.06991
767.641,0.06994
761.854,0.06850
756.068,0.06730
750.282,0.06621
744.496,0.06442
738.709,0.06320
732.923,0.06073
727.137,0.05943
721.351,0.05661
715.565,0.05681
709.778,0.05617
703.992,0.05551
698.206,0.05386
692.42,0.05332
686.633,0.05314
680.847,0.05044
675.061,0.04857
669.275,0.05004
663.488,0.04996
657.702,0.05029
651.916,0.04874
646.13,0.04828
640.343,0.04852
634.557,0.04568
628.771,0.04436
622.985,0.04594
617.198,0.04578
611.412,0.04739
605.626,0.05170
599.84,0.04867