File: 01_Data/Exterior_Plywood/FTIR/IS/Exterior_Plywood_IS_S_220927_R3.dpt
7497.03,0.79780
7491.25,0.79267
7485.46,0.79712
7479.67,0.79519
7473.89,0.79151
7468.1,0.78433
7462.32,0.78498
7456.53,0.77018
7450.74,0.77754
7444.96,0.77526
7439.17,0.76777
7433.38,0.75490
7427.6,0.75868
7421.81,0.76271
7416.03,0.76770
7410.24,0.76301
7404.45,0.75911
7398.67,0.75175
7392.88,0.76039
7387.09,0.74522
7381.31,0.75013
7375.52,0.75527
7369.74,0.75103
7363.95,0.74434
7358.16,0.74588
7352.38,0.73992
7346.59,0.73591
7340.8,0.75166
7335.02,0.73625
7329.23,0.73307
7323.45,0.73235
7317.66,0.73839
7311.87,0.73182
7306.09,0.72856
7300.3,0.73337
7294.51,0.72996
7288.73,0.72497
7282.94,0.72030
7277.16,0.72694
7271.37,0.72435
7265.58,0.73021
7259.8,0.73098
7254.01,0.72055
7248.22,0.72476
7242.44,0.72308
7236.65,0.72541
7230.87,0.72492
7225.08,0.72028
7219.29,0.72437
7213.51,0.71745
7207.72,0.72237
7201.93,0.71572
7196.15,0.71252
7190.36,0.71746
7184.58,0.71326
7178.79,0.71261
7173,0.69873
7167.22,0.69868
7161.43,0.70316
7155.65,0.70447
7149.86,0.70005
7144.07,0.69930
7138.29,0.68637
7132.5,0.68607
7126.71,0.68680
7120.93,0.68364
7115.14,0.67470
7109.36,0.66604
7103.57,0.66691
7097.78,0.66228
7092,0.65480
7086.21,0.65444
7080.42,0.64514
7074.64,0.64521
7068.85,0.63960
7063.07,0.63859
7057.28,0.62669
7051.49,0.62232
7045.71,0.62154
7039.92,0.61313
7034.13,0.60260
7028.35,0.60271
7022.56,0.60375
7016.78,0.60286
7010.99,0.59291
7005.2,0.59876
6999.42,0.59407
6993.63,0.58777
6987.84,0.58057
6982.06,0.58358
6976.27,0.58059
6970.49,0.57791
6964.7,0.57954
6958.91,0.57422
6953.13,0.57318
6947.34,0.57613
6941.55,0.57746
6935.77,0.57729
6929.98,0.57464
6924.2,0.57373
6918.41,0.56760
6912.62,0.57016
6906.84,0.57555
6901.05,0.57284
6895.26,0.56671
6889.48,0.56701
6883.69,0.57318
6877.91,0.56767
6872.12,0.57458
6866.33,0.57046
6860.55,0.57213
6854.76,0.57136
6848.97,0.56929
6843.19,0.56841
6837.4,0.56195
6831.62,0.56420
6825.83,0.56337
6820.04,0.56456
6814.26,0.56952
6808.47,0.56731
6802.68,0.56285
6796.9,0.56706
6791.11,0.56507
6785.33,0.56558
6779.54,0.56668
6773.75,0.57107
6767.97,0.56750
6762.18,0.56847
6756.39,0.56354
6750.61,0.56741
6744.82,0.56637
6739.04,0.56033
6733.25,0.56529
6727.46,0.56607
6721.68,0.56418
6715.89,0.56968
6710.1,0.57054
6704.32,0.56769
6698.53,0.56503
6692.75,0.56515
6686.96,0.56809
6681.17,0.57121
6675.39,0.57584
6669.6,0.57551
6663.82,0.57609
6658.03,0.57483
6652.24,0.57410
6646.46,0.57264
6640.67,0.57160
6634.88,0.57613
6629.1,0.57345
6623.31,0.57839
6617.53,0.57776
6611.74,0.57991
6605.95,0.58327
6600.17,0.57621
6594.38,0.58620
6588.59,0.58432
6582.81,0.58576
6577.02,0.58254
6571.24,0.58701
6565.45,0.58609
6559.66,0.59156
6553.88,0.58701
6548.09,0.59154
6542.3,0.59113
6536.52,0.59121
6530.73,0.59131
6524.95,0.58745
6519.16,0.59178
6513.37,0.58793
6507.59,0.58706
6501.8,0.59106
6496.01,0.58730
6490.23,0.59243
6484.44,0.58467
6478.66,0.59032
6472.87,0.59412
6467.08,0.59143
6461.3,0.59202
6455.51,0.59233
6449.72,0.59420
6443.94,0.59583
6438.15,0.59630
6432.37,0.59752
6426.58,0.59763
6420.79,0.59486
6415.01,0.60026
6409.22,0.59645
6403.43,0.60127
6397.65,0.59961
6391.86,0.60089
6386.08,0.59708
6380.29,0.59827
6374.5,0.60239
6368.72,0.60028
6362.93,0.59933
6357.14,0.60171
6351.36,0.60111
6345.57,0.60163
6339.79,0.60674
6334,0.59686
6328.21,0.60431
6322.43,0.60374
6316.64,0.60443
6310.85,0.60328
6305.07,0.60522
6299.28,0.61145
6293.5,0.60621
6287.71,0.60540
6281.92,0.61023
6276.14,0.61384
6270.35,0.61334
6264.56,0.61065
6258.78,0.61749
6252.99,0.61542
6247.21,0.61879
6241.42,0.62375
6235.63,0.62023
6229.85,0.62662
6224.06,0.62748
6218.27,0.62705
6212.49,0.62717
6206.7,0.63007
6200.92,0.63052
6195.13,0.63456
6189.34,0.63668
6183.56,0.63863
6177.77,0.63871
6171.98,0.64085
6166.2,0.64147
6160.41,0.64244
6154.63,0.64700
6148.84,0.64756
6143.05,0.64618
6137.27,0.64841
6131.48,0.65023
6125.7,0.65208
6119.91,0.65085
6114.12,0.65126
6108.34,0.65470
6102.55,0.65844
6096.76,0.65657
6090.98,0.65455
6085.19,0.65737
6079.41,0.65385
6073.62,0.65535
6067.83,0.65643
6062.05,0.65481
6056.26,0.65506
6050.47,0.65652
6044.69,0.65616
6038.9,0.65273
6033.12,0.65474
6027.33,0.65400
6021.54,0.64885
6015.76,0.65004
6009.97,0.64674
6004.18,0.64788
5998.4,0.64677
5992.61,0.64618
5986.83,0.64372
5981.04,0.64521
5975.25,0.64422
5969.47,0.64099
5963.68,0.64200
5957.89,0.64386
5952.11,0.64401
5946.32,0.64406
5940.54,0.64328
5934.75,0.64178
5928.96,0.64587
5923.18,0.64382
5917.39,0.64663
5911.6,0.64525
5905.82,0.64330
5900.03,0.64080
5894.25,0.64148
5888.46,0.63772
5882.67,0.63697
5876.89,0.63693
5871.1,0.63625
5865.31,0.63423
5859.53,0.63503
5853.74,0.63581
5847.96,0.63351
5842.17,0.63346
5836.38,0.63379
5830.6,0.63497
5824.81,0.63248
5819.02,0.63279
5813.24,0.63169
5807.45,0.63227
5801.67,0.63120
5795.88,0.62989
5790.09,0.62981
5784.31,0.62898
5778.52,0.63276
5772.73,0.63395
5766.95,0.63118
5761.16,0.63050
5755.38,0.63505
5749.59,0.63350
5743.8,0.63384
5738.02,0.63127
5732.23,0.63076
5726.44,0.62908
5720.66,0.63257
5714.87,0.63099
5709.09,0.63159
5703.3,0.63107
5697.51,0.63219
5691.73,0.63093
5685.94,0.63140
5680.15,0.63001
5674.37,0.62732
5668.58,0.62618
5662.8,0.62687
5657.01,0.62777
5651.22,0.62766
5645.44,0.62572
5639.65,0.62678
5633.87,0.62665
5628.08,0.62638
5622.29,0.62484
5616.51,0.62490
5610.72,0.62844
5604.93,0.62662
5599.15,0.62497
5593.36,0.62507
5587.58,0.62542
5581.79,0.62654
5576,0.62699
5570.22,0.63009
5564.43,0.62796
5558.64,0.63002
5552.86,0.62908
5547.07,0.62949
5541.29,0.62874
5535.5,0.63103
5529.71,0.63068
5523.93,0.62985
5518.14,0.63173
5512.35,0.63261
5506.57,0.63218
5500.78,0.63146
5495,0.63157
5489.21,0.63309
5483.42,0.63444
5477.64,0.63468
5471.85,0.63496
5466.06,0.63515
5460.28,0.63327
5454.49,0.63500
5448.71,0.63726
5442.92,0.63755
5437.13,0.64199
5431.35,0.64017
5425.56,0.64248
5419.77,0.64348
5413.99,0.64413
5408.2,0.64564
5402.42,0.64450
5396.63,0.64557
5390.84,0.64580
5385.06,0.64664
5379.27,0.64729
5373.48,0.64725
5367.7,0.64709
5361.91,0.64577
5356.13,0.64495
5350.34,0.64259
5344.55,0.64254
5338.77,0.64043
5332.98,0.63718
5327.19,0.63570
5321.41,0.63146
5315.62,0.62703
5309.84,0.62063
5304.05,0.61517
5298.26,0.60901
5292.48,0.60154
5286.69,0.59183
5280.9,0.58152
5275.12,0.57066
5269.33,0.55990
5263.55,0.54959
5257.76,0.53745
5251.97,0.52851
5246.19,0.51906
5240.4,0.51081
5234.61,0.50269
5228.83,0.49715
5223.04,0.49375
5217.26,0.48934
5211.47,0.48582
5205.68,0.48460
5199.9,0.48215
5194.11,0.48054
5188.32,0.48129
5182.54,0.48201
5176.75,0.48246
5170.97,0.48546
5165.18,0.48664
5159.39,0.48899
5153.61,0.49263
5147.82,0.49527
5142.03,0.49852
5136.25,0.50073
5130.46,0.50474
5124.68,0.50865
5118.89,0.51073
5113.1,0.51399
5107.32,0.51807
5101.53,0.51956
5095.75,0.52161
5089.96,0.52538
5084.17,0.52793
5078.39,0.53049
5072.6,0.53409
5066.81,0.53584
5061.03,0.53906
5055.24,0.54106
5049.46,0.54334
5043.67,0.54771
5037.88,0.54831
5032.1,0.55030
5026.31,0.55141
5020.52,0.55436
5014.74,0.55558
5008.95,0.55715
5003.17,0.55735
4997.38,0.55716
4991.59,0.55722
4985.81,0.55734
4980.02,0.55728
4974.23,0.55432
4968.45,0.55166
4962.66,0.55035
4956.88,0.54789
4951.09,0.54397
4945.3,0.54005
4939.52,0.53499
4933.73,0.53050
4927.94,0.52584
4922.16,0.52211
4916.37,0.51581
4910.59,0.51118
4904.8,0.50657
4899.01,0.50222
4893.23,0.49678
4887.44,0.49235
4881.65,0.48768
4875.87,0.48123
4870.08,0.47804
4864.3,0.47262
4858.51,0.47008
4852.72,0.46560
4846.94,0.46172
4841.15,0.45858
4835.36,0.45469
4829.58,0.45052
4823.79,0.44747
4818.01,0.44588
4812.22,0.44286
4806.43,0.43980
4800.65,0.43890
4794.86,0.43614
4789.07,0.43653
4783.29,0.43477
4777.5,0.43366
4771.72,0.43368
4765.93,0.43247
4760.14,0.43221
4754.36,0.43325
4748.57,0.43397
4742.78,0.43392
4737,0.43345
4731.21,0.43454
4725.43,0.43512
4719.64,0.43623
4713.85,0.43722
4708.07,0.43734
4702.28,0.43929
4696.49,0.44018
4690.71,0.44055
4684.92,0.44297
4679.14,0.44449
4673.35,0.44658
4667.56,0.44910
4661.78,0.45117
4655.99,0.45288
4650.2,0.45612
4644.42,0.45766
4638.63,0.45974
4632.85,0.46288
4627.06,0.46500
4621.27,0.46765
4615.49,0.47023
4609.7,0.47385
4603.92,0.47575
4598.13,0.47925
4592.34,0.48268
4586.56,0.48493
4580.77,0.48630
4574.98,0.48858
4569.2,0.49067
4563.41,0.49258
4557.63,0.49466
4551.84,0.49460
4546.05,0.49644
4540.27,0.49763
4534.48,0.49941
4528.69,0.50014
4522.91,0.50019
4517.12,0.50031
4511.34,0.50070
4505.55,0.50055
4499.76,0.49948
4493.98,0.49633
4488.19,0.49365
4482.4,0.48990
4476.62,0.48551
4470.83,0.48053
4465.05,0.47523
4459.26,0.46941
4453.47,0.46191
4447.69,0.45554
4441.9,0.44955
4436.11,0.44282
4430.33,0.43438
4424.54,0.42702
4418.76,0.42046
4412.97,0.41297
4407.18,0.40872
4401.4,0.40572
4395.61,0.40507
4389.82,0.40615
4384.04,0.40777
4378.25,0.40975
4372.47,0.41203
4366.68,0.41493
4360.89,0.41681
4355.11,0.41705
4349.32,0.41587
4343.53,0.41533
4337.75,0.41436
4331.96,0.41213
4326.18,0.40971
4320.39,0.40708
4314.6,0.40403
4308.82,0.40105
4303.03,0.39933
4297.24,0.39643
4291.46,0.39372
4285.67,0.39203
4279.89,0.39204
4274.1,0.39238
4268.31,0.39367
4262.53,0.39499
4256.74,0.39543
4250.95,0.39684
4245.17,0.39728
4239.38,0.39772
4233.6,0.39770
4227.81,0.39899
4222.02,0.39802
4216.24,0.39736
4210.45,0.39843
4204.66,0.39909
4198.88,0.39952
4193.09,0.40046
4187.31,0.40082
4181.52,0.40110
4175.73,0.40252
4169.95,0.40432
4164.16,0.40467
4158.37,0.40482
4152.59,0.40348
4146.8,0.40231
4141.02,0.40021
4135.23,0.39687
4129.44,0.39452
4123.66,0.39024
4117.87,0.38640
4112.09,0.38144
4106.3,0.37608
4100.51,0.37032
4094.73,0.36522
4088.94,0.35835
4083.15,0.35290
4077.37,0.34742
4071.58,0.34200
4065.8,0.33601
4060.01,0.33009
4054.22,0.32434
4048.44,0.31876
4042.65,0.31363
4036.86,0.30949
4031.08,0.30707
4025.29,0.30510
4019.51,0.30330
4013.72,0.30320
4007.93,0.30316
4002.15,0.30453
3996.36,0.30571
3990.57,0.30760
3984.79,0.30857
3979,0.31053
3973.22,0.31176
3967.43,0.31438
3961.64,0.31707
3955.86,0.31903
3950.07,0.32233
3944.28,0.32433
3938.5,0.32751
3932.71,0.33063
3926.93,0.33333
3921.14,0.33675
3915.35,0.33901
3909.57,0.34166
3903.78,0.34314
3897.99,0.34624
3892.21,0.34818
3886.42,0.35023
3880.64,0.35238
3874.85,0.35353
3869.06,0.35610
3863.28,0.35845
3857.49,0.36187
3851.7,0.36516
3845.92,0.36709
3840.13,0.36875
3834.35,0.37008
3828.56,0.37055
3822.77,0.37053
3816.99,0.37121
3811.2,0.37044
3805.41,0.36946
3799.63,0.36967
3793.84,0.36844
3788.06,0.36801
3782.27,0.36769
3776.48,0.36690
3770.7,0.36522
3764.91,0.36362
3759.12,0.36161
3753.34,0.35964
3747.55,0.35601
3741.77,0.35249
3735.98,0.34850
3730.19,0.34420
3724.41,0.33910
3718.62,0.33289
3712.83,0.32653
3707.05,0.31737
3701.26,0.30737
3695.48,0.29577
3689.69,0.28199
3683.9,0.26477
3678.12,0.24685
3672.33,0.22581
3666.54,0.20495
3660.76,0.18657
3654.97,0.16844
3649.19,0.15424
3643.4,0.14034
3637.61,0.12839
3631.83,0.11858
3626.04,0.10883
3620.25,0.09993
3614.47,0.09319
3608.68,0.08559
3602.9,0.08011
3597.11,0.07526
3591.32,0.07015
3585.54,0.06574
3579.75,0.06281
3573.97,0.05970
3568.18,0.05706
3562.39,0.05485
3556.61,0.05227
3550.82,0.05091
3545.03,0.04917
3539.25,0.04764
3533.46,0.04607
3527.68,0.04546
3521.89,0.04457
3516.1,0.04346
3510.32,0.04256
3504.53,0.04129
3498.74,0.04097
3492.96,0.04005
3487.17,0.04021
3481.39,0.03971
3475.6,0.03933
3469.81,0.03822
3464.03,0.03837
3458.24,0.03803
3452.45,0.03801
3446.67,0.03811
3440.88,0.03821
3435.1,0.03810
3429.31,0.03878
3423.52,0.03838
3417.74,0.03865
3411.95,0.03813
3406.16,0.03871
3400.38,0.03893
3394.59,0.03887
3388.81,0.03900
3383.02,0.03896
3377.23,0.03877
3371.45,0.03941
3365.66,0.03972
3359.87,0.03930
3354.09,0.03969
3348.3,0.04006
3342.52,0.04054
3336.73,0.04134
3330.94,0.04153
3325.16,0.04243
3319.37,0.04297
3313.58,0.04323
3307.8,0.04305
3302.01,0.04398
3296.23,0.04399
3290.44,0.04504
3284.65,0.04525
3278.87,0.04596
3273.08,0.04635
3267.29,0.04750
3261.51,0.04820
3255.72,0.04903
3249.94,0.04954
3244.15,0.05065
3238.36,0.05102
3232.58,0.05203
3226.79,0.05332
3221,0.05444
3215.22,0.05613
3209.43,0.05661
3203.65,0.05786
3197.86,0.05895
3192.07,0.05975
3186.29,0.06109
3180.5,0.06284
3174.71,0.06393
3168.93,0.06569
3163.14,0.06723
3157.36,0.06869
3151.57,0.07053
3145.78,0.07245
3140,0.07445
3134.21,0.07566
3128.42,0.07806
3122.64,0.07992
3116.85,0.08211
3111.07,0.08366
3105.28,0.08577
3099.49,0.08737
3093.71,0.08945
3087.92,0.09035
3082.14,0.09285
3076.35,0.09381
3070.56,0.09630
3064.78,0.09827
3058.99,0.09976
3053.2,0.10129
3047.42,0.10314
3041.63,0.10449
3035.85,0.10599
3030.06,0.10659
3024.27,0.10691
3018.49,0.10644
3012.7,0.10525
3006.91,0.10341
3001.13,0.10114
2995.34,0.09944
2989.56,0.09652
2983.77,0.09203
2977.98,0.08549
2972.2,0.07808
2966.41,0.07248
2960.62,0.07040
2954.84,0.06763
2949.05,0.06469
2943.27,0.06213
2937.48,0.06074
2931.69,0.06048
2925.91,0.06007
2920.12,0.05943
2914.33,0.05957
2908.55,0.05945
2902.76,0.05938
2896.98,0.06025
2891.19,0.06153
2885.4,0.06271
2879.62,0.06367
2873.83,0.06444
2868.04,0.06573
2862.26,0.06767
2856.47,0.06981
2850.69,0.07306
2844.9,0.07766
2839.11,0.08265
2833.33,0.08737
2827.54,0.09282
2821.75,0.09868
2815.97,0.10420
2810.18,0.10886
2804.4,0.11260
2798.61,0.11601
2792.82,0.11880
2787.04,0.12127
2781.25,0.12267
2775.46,0.12397
2769.68,0.12537
2763.89,0.12613
2758.11,0.12706
2752.32,0.12800
2746.53,0.12821
2740.75,0.12885
2734.96,0.12917
2729.17,0.13048
2723.39,0.13204
2717.6,0.13328
2711.82,0.13607
2706.03,0.13857
2700.24,0.14072
2694.46,0.14366
2688.67,0.14608
2682.88,0.14838
2677.1,0.15084
2671.31,0.15279
2665.53,0.15446
2659.74,0.15607
2653.95,0.15774
2648.17,0.15951
2642.38,0.16177
2636.59,0.16367
2630.81,0.16589
2625.02,0.16771
2619.24,0.16962
2613.45,0.17078
2607.66,0.17280
2601.88,0.17428
2596.09,0.17615
2590.3,0.17745
2584.52,0.17881
2578.73,0.17987
2572.95,0.18048
2567.16,0.18080
2561.37,0.18154
2555.59,0.18186
2549.8,0.18167
2544.02,0.18213
2538.23,0.18270
2532.44,0.18392
2526.66,0.18578
2520.87,0.18773
2515.08,0.18896
2509.3,0.19119
2503.51,0.19442
2497.73,0.19758
2491.94,0.20022
2486.15,0.20271
2480.37,0.20521
2474.58,0.20757
2468.79,0.21017
2463.01,0.21224
2457.22,0.21448
2451.44,0.21673
2445.65,0.21948
2439.86,0.22247
2434.08,0.22465
2428.29,0.22823
2422.5,0.23127
2416.72,0.23456
2410.93,0.23808
2405.15,0.24102
2399.36,0.24326
2393.57,0.24629
2387.79,0.24869
2382,0.25133
2376.21,0.25391
2370.43,0.25586
2364.64,0.25782
2358.86,0.25950
2353.07,0.26122
2347.28,0.26288
2341.5,0.26438
2335.71,0.26561
2329.92,0.26656
2324.14,0.26711
2318.35,0.26767
2312.57,0.26803
2306.78,0.26789
2300.99,0.26651
2295.21,0.26621
2289.42,0.26540
2283.63,0.26476
2277.85,0.26353
2272.06,0.26161
2266.28,0.25994
2260.49,0.25681
2254.7,0.25530
2248.92,0.25427
2243.13,0.25375
2237.34,0.25222
2231.56,0.25149
2225.77,0.25072
2219.99,0.25058
2214.2,0.25056
2208.41,0.24944
2202.63,0.24820
2196.84,0.24578
2191.05,0.24308
2185.27,0.23950
2179.48,0.23584
2173.7,0.23187
2167.91,0.22852
2162.12,0.22559
2156.34,0.22344
2150.55,0.22176
2144.76,0.22000
2138.98,0.21860
2133.19,0.21875
2127.41,0.21887
2121.62,0.22008
2115.83,0.22117
2110.05,0.22248
2104.26,0.22346
2098.47,0.22434
2092.69,0.22553
2086.9,0.22571
2081.12,0.22567
2075.33,0.22498
2069.54,0.22332
2063.76,0.22287
2057.97,0.22202
2052.19,0.22237
2046.4,0.22343
2040.61,0.22518
2034.83,0.22807
2029.04,0.23170
2023.25,0.23520
2017.47,0.23870
2011.68,0.24200
2005.9,0.24400
2000.11,0.24630
1994.32,0.24800
1988.54,0.25060
1982.75,0.25243
1976.96,0.25406
1971.18,0.25535
1965.39,0.25695
1959.61,0.25943
1953.82,0.26215
1948.03,0.26518
1942.25,0.26845
1936.46,0.27115
1930.67,0.27316
1924.89,0.27443
1919.1,0.27559
1913.32,0.27581
1907.53,0.27596
1901.74,0.27508
1895.96,0.27456
1890.17,0.27393
1884.38,0.27363
1878.6,0.27294
1872.81,0.27269
1867.03,0.27179
1861.24,0.27046
1855.45,0.26841
1849.67,0.26655
1843.88,0.26399
1838.09,0.26098
1832.31,0.25792
1826.52,0.25452
1820.74,0.25023
1814.95,0.24520
1809.16,0.23917
1803.38,0.23247
1797.59,0.22389
1791.8,0.21429
1786.02,0.20335
1780.23,0.18946
1774.45,0.17244
1768.66,0.14930
1762.87,0.12454
1757.09,0.10078
1751.3,0.08404
1745.51,0.07472
1739.73,0.07026
1733.94,0.06977
1728.16,0.07174
1722.37,0.07531
1716.58,0.08116
1710.8,0.08815
1705.01,0.09369
1699.22,0.09554
1693.44,0.09364
1687.65,0.08909
1681.87,0.08209
1676.08,0.07591
1670.29,0.06965
1664.51,0.06622
1658.72,0.06543
1652.93,0.06647
1647.15,0.06770
1641.36,0.06728
1635.58,0.06757
1629.79,0.06784
1624,0.06786
1618.22,0.06729
1612.43,0.06514
1606.64,0.06317
1600.86,0.06289
1595.07,0.06237
1589.29,0.06482
1583.5,0.07115
1577.71,0.08077
1571.93,0.09268
1566.14,0.10242
1560.35,0.10786
1554.57,0.11020
1548.78,0.10953
1543,0.10706
1537.21,0.10163
1531.42,0.09089
1525.64,0.07509
1519.85,0.05730
1514.07,0.04792
1508.28,0.04812
1502.49,0.05300
1496.71,0.05973
1490.92,0.06343
1485.13,0.06120
1479.35,0.05741
1473.56,0.05131
1467.78,0.04592
1461.99,0.04486
1456.2,0.04424
1450.42,0.04441
1444.63,0.04508
1438.84,0.04399
1433.06,0.04190
1427.27,0.04167
1421.49,0.04294
1415.7,0.04501
1409.91,0.04665
1404.13,0.04699
1398.34,0.04685
1392.55,0.04541
1386.77,0.04285
1380.98,0.04011
1375.2,0.03997
1369.41,0.04065
1363.62,0.04200
1357.84,0.04246
1352.05,0.04348
1346.26,0.04336
1340.48,0.04246
1334.69,0.04194
1328.91,0.04205
1323.12,0.04123
1317.33,0.04108
1311.55,0.04213
1305.76,0.04291
1299.97,0.04291
1294.19,0.04175
1288.4,0.03999
1282.62,0.03867
1276.83,0.03795
1271.04,0.03780
1265.26,0.03881
1259.47,0.03980
1253.68,0.04061
1247.9,0.04068
1242.11,0.04034
1236.33,0.04024
1230.54,0.04058
1224.75,0.04147
1218.97,0.04149
1213.18,0.04136
1207.39,0.04107
1201.61,0.04116
1195.82,0.04113
1190.04,0.03974
1184.25,0.03700
1178.46,0.03392
1172.68,0.03230
1166.89,0.03507
1161.1,0.03780
1155.32,0.03858
1149.53,0.03676
1143.75,0.03487
1137.96,0.03287
1132.17,0.03207
1126.39,0.03185
1120.6,0.03267
1114.81,0.03411
1109.03,0.03628
1103.24,0.03722
1097.46,0.03690
1091.67,0.03544
1085.88,0.03685
1080.1,0.04008
1074.31,0.04389
1068.52,0.04817
1062.74,0.05485
1056.95,0.05886
1051.17,0.05830
1045.38,0.05555
1039.59,0.05743
1033.81,0.06172
1028.02,0.06343
1022.24,0.06325
1016.45,0.06397
1010.66,0.06466
1004.88,0.06415
999.09,0.06500
993.304,0.06624
987.518,0.06855
981.731,0.07367
975.945,0.07810
970.159,0.08003
964.373,0.08187
958.586,0.08475
952.8,0.08782
947.014,0.09107
941.228,0.09246
935.441,0.09470
929.655,0.09701
923.869,0.09753
918.083,0.09551
912.297,0.09100
906.51,0.08512
900.724,0.07991
894.938,0.08010
889.152,0.08357
883.365,0.08696
877.579,0.08768
871.793,0.08833
866.007,0.08960
860.22,0.09179
854.434,0.09330
848.648,0.09539
842.862,0.09653
837.075,0.09374
831.289,0.09101
825.503,0.08696
819.717,0.08263
813.931,0.07800
808.144,0.07716
802.358,0.07759
796.572,0.07757
790.786,0.07764
784.999,0.07548
779.213,0.07433
773.427,0.07249
767.641,0.07067
761.854,0.06980
756.068,0.06870
750.282,0.06605
744.496,0.06528
738.709,0.06396
732.923,0.06204
727.137,0.06033
721.351,0.05794
715.565,0.05736
709.778,0.05582
703.992,0.05573
698.206,0.05522
692.42,0.05309
686.633,0.05282
680.847,0.05147
675.061,0.05122
669.275,0.05038
663.488,0.05044
657.702,0.05092
651.916,0.05098
646.13,0.05073
640.343,0.04805
634.557,0.04907
628.771,0.04792
622.985,0.04970
617.198,0.04979
611.412,0.04846
605.626,0.04913
599.84,0.05146