File: 01_Data/Exterior_Plywood/FTIR/IS/Exterior_Plywood_IS_S_220927_R7.dpt
7497.03,0.79724
7491.25,0.80108
7485.46,0.78875
7479.67,0.79893
7473.89,0.80144
7468.1,0.78959
7462.32,0.78190
7456.53,0.78268
7450.74,0.78591
7444.96,0.77485
7439.17,0.77555
7433.38,0.78019
7427.6,0.77185
7421.81,0.77308
7416.03,0.76521
7410.24,0.76067
7404.45,0.76164
7398.67,0.76036
7392.88,0.75691
7387.09,0.75863
7381.31,0.75336
7375.52,0.76192
7369.74,0.74993
7363.95,0.75489
7358.16,0.74804
7352.38,0.75096
7346.59,0.74430
7340.8,0.75941
7335.02,0.74033
7329.23,0.74455
7323.45,0.73208
7317.66,0.72740
7311.87,0.73715
7306.09,0.74000
7300.3,0.74017
7294.51,0.73937
7288.73,0.72768
7282.94,0.73128
7277.16,0.73248
7271.37,0.73184
7265.58,0.73400
7259.8,0.73312
7254.01,0.72377
7248.22,0.72723
7242.44,0.73171
7236.65,0.73430
7230.87,0.72443
7225.08,0.72645
7219.29,0.73102
7213.51,0.72783
7207.72,0.72082
7201.93,0.72056
7196.15,0.72342
7190.36,0.72175
7184.58,0.71940
7178.79,0.71871
7173,0.71332
7167.22,0.71215
7161.43,0.70627
7155.65,0.69940
7149.86,0.69270
7144.07,0.70156
7138.29,0.69655
7132.5,0.69237
7126.71,0.68094
7120.93,0.67985
7115.14,0.68084
7109.36,0.67509
7103.57,0.67530
7097.78,0.66518
7092,0.66265
7086.21,0.66204
7080.42,0.65278
7074.64,0.65216
7068.85,0.64490
7063.07,0.63228
7057.28,0.62979
7051.49,0.62647
7045.71,0.62791
7039.92,0.62380
7034.13,0.61096
7028.35,0.60959
7022.56,0.60238
7016.78,0.60316
7010.99,0.59154
7005.2,0.59676
6999.42,0.58860
6993.63,0.58761
6987.84,0.58796
6982.06,0.58409
6976.27,0.57916
6970.49,0.58104
6964.7,0.58089
6958.91,0.58233
6953.13,0.58187
6947.34,0.57987
6941.55,0.57608
6935.77,0.57272
6929.98,0.57123
6924.2,0.58046
6918.41,0.57570
6912.62,0.57472
6906.84,0.57460
6901.05,0.57595
6895.26,0.57479
6889.48,0.57684
6883.69,0.57363
6877.91,0.57436
6872.12,0.56985
6866.33,0.57275
6860.55,0.57392
6854.76,0.57907
6848.97,0.57744
6843.19,0.56947
6837.4,0.57304
6831.62,0.56828
6825.83,0.57077
6820.04,0.56775
6814.26,0.57052
6808.47,0.56754
6802.68,0.57110
6796.9,0.57046
6791.11,0.57069
6785.33,0.56634
6779.54,0.57046
6773.75,0.57093
6767.97,0.57129
6762.18,0.56815
6756.39,0.57004
6750.61,0.57078
6744.82,0.57171
6739.04,0.57307
6733.25,0.56827
6727.46,0.57148
6721.68,0.57342
6715.89,0.57456
6710.1,0.57453
6704.32,0.57484
6698.53,0.57339
6692.75,0.57188
6686.96,0.57207
6681.17,0.57004
6675.39,0.57081
6669.6,0.57698
6663.82,0.57501
6658.03,0.57754
6652.24,0.58042
6646.46,0.58088
6640.67,0.57870
6634.88,0.58088
6629.1,0.58120
6623.31,0.57939
6617.53,0.58443
6611.74,0.58761
6605.95,0.58660
6600.17,0.58803
6594.38,0.58694
6588.59,0.59206
6582.81,0.59052
6577.02,0.58937
6571.24,0.59105
6565.45,0.59427
6559.66,0.59090
6553.88,0.59210
6548.09,0.59179
6542.3,0.59141
6536.52,0.59316
6530.73,0.59452
6524.95,0.59621
6519.16,0.59880
6513.37,0.59809
6507.59,0.59678
6501.8,0.59862
6496.01,0.59499
6490.23,0.59678
6484.44,0.59500
6478.66,0.59495
6472.87,0.59489
6467.08,0.59510
6461.3,0.59825
6455.51,0.59405
6449.72,0.60047
6443.94,0.59435
6438.15,0.60322
6432.37,0.60082
6426.58,0.59795
6420.79,0.60405
6415.01,0.60209
6409.22,0.59781
6403.43,0.60542
6397.65,0.60449
6391.86,0.60660
6386.08,0.60379
6380.29,0.61036
6374.5,0.60413
6368.72,0.60718
6362.93,0.60641
6357.14,0.60444
6351.36,0.60644
6345.57,0.60919
6339.79,0.60654
6334,0.60912
6328.21,0.61063
6322.43,0.61433
6316.64,0.60826
6310.85,0.60880
6305.07,0.61168
6299.28,0.61357
6293.5,0.61248
6287.71,0.61639
6281.92,0.61514
6276.14,0.61589
6270.35,0.61455
6264.56,0.61389
6258.78,0.61849
6252.99,0.62199
6247.21,0.62712
6241.42,0.62495
6235.63,0.62647
6229.85,0.62694
6224.06,0.62799
6218.27,0.63343
6212.49,0.63602
6206.7,0.63808
6200.92,0.63920
6195.13,0.64075
6189.34,0.64457
6183.56,0.64404
6177.77,0.64655
6171.98,0.64642
6166.2,0.64847
6160.41,0.64754
6154.63,0.64750
6148.84,0.65258
6143.05,0.65155
6137.27,0.65421
6131.48,0.65207
6125.7,0.65296
6119.91,0.65474
6114.12,0.65714
6108.34,0.65830
6102.55,0.66135
6096.76,0.65896
6090.98,0.66175
6085.19,0.66455
6079.41,0.66236
6073.62,0.66084
6067.83,0.66037
6062.05,0.66309
6056.26,0.65771
6050.47,0.65939
6044.69,0.65901
6038.9,0.66031
6033.12,0.65851
6027.33,0.65805
6021.54,0.65567
6015.76,0.65537
6009.97,0.65233
6004.18,0.64957
5998.4,0.64921
5992.61,0.65052
5986.83,0.64648
5981.04,0.64738
5975.25,0.64873
5969.47,0.64593
5963.68,0.64760
5957.89,0.64833
5952.11,0.64677
5946.32,0.64841
5940.54,0.64820
5934.75,0.64994
5928.96,0.64873
5923.18,0.64795
5917.39,0.64661
5911.6,0.64647
5905.82,0.64504
5900.03,0.64492
5894.25,0.64119
5888.46,0.64083
5882.67,0.64054
5876.89,0.63690
5871.1,0.63993
5865.31,0.64210
5859.53,0.63879
5853.74,0.63951
5847.96,0.64091
5842.17,0.63653
5836.38,0.63676
5830.6,0.63858
5824.81,0.63569
5819.02,0.63313
5813.24,0.63264
5807.45,0.63449
5801.67,0.63321
5795.88,0.63262
5790.09,0.63232
5784.31,0.63400
5778.52,0.63186
5772.73,0.63602
5766.95,0.63624
5761.16,0.63562
5755.38,0.63602
5749.59,0.63817
5743.8,0.63686
5738.02,0.63618
5732.23,0.63624
5726.44,0.63447
5720.66,0.63297
5714.87,0.63408
5709.09,0.63562
5703.3,0.63547
5697.51,0.63606
5691.73,0.63276
5685.94,0.63472
5680.15,0.63120
5674.37,0.63389
5668.58,0.63282
5662.8,0.63148
5657.01,0.63242
5651.22,0.63287
5645.44,0.63308
5639.65,0.63121
5633.87,0.63209
5628.08,0.63138
5622.29,0.63120
5616.51,0.63159
5610.72,0.63030
5604.93,0.63139
5599.15,0.63064
5593.36,0.62951
5587.58,0.63137
5581.79,0.62973
5576,0.63323
5570.22,0.63118
5564.43,0.63286
5558.64,0.63432
5552.86,0.63402
5547.07,0.63649
5541.29,0.63431
5535.5,0.63391
5529.71,0.63298
5523.93,0.63480
5518.14,0.63435
5512.35,0.63693
5506.57,0.63620
5500.78,0.63648
5495,0.63537
5489.21,0.63667
5483.42,0.64075
5477.64,0.63776
5471.85,0.63841
5466.06,0.64075
5460.28,0.63903
5454.49,0.63995
5448.71,0.64134
5442.92,0.64206
5437.13,0.64380
5431.35,0.64649
5425.56,0.64459
5419.77,0.64477
5413.99,0.64827
5408.2,0.65095
5402.42,0.65007
5396.63,0.65071
5390.84,0.65104
5385.06,0.65139
5379.27,0.65130
5373.48,0.65159
5367.7,0.65238
5361.91,0.65151
5356.13,0.64942
5350.34,0.64951
5344.55,0.64872
5338.77,0.64730
5332.98,0.64409
5327.19,0.64220
5321.41,0.63915
5315.62,0.63472
5309.84,0.62981
5304.05,0.62463
5298.26,0.61841
5292.48,0.61068
5286.69,0.60076
5280.9,0.59181
5275.12,0.58289
5269.33,0.57287
5263.55,0.56166
5257.76,0.55287
5251.97,0.54317
5246.19,0.53303
5240.4,0.52670
5234.61,0.51863
5228.83,0.51368
5223.04,0.50810
5217.26,0.50386
5211.47,0.50090
5205.68,0.50017
5199.9,0.49826
5194.11,0.49899
5188.32,0.49806
5182.54,0.49780
5176.75,0.49936
5170.97,0.50120
5165.18,0.50297
5159.39,0.50547
5153.61,0.50813
5147.82,0.51186
5142.03,0.51370
5136.25,0.51669
5130.46,0.52000
5124.68,0.52285
5118.89,0.52623
5113.1,0.53013
5107.32,0.53195
5101.53,0.53456
5095.75,0.53818
5089.96,0.54083
5084.17,0.54393
5078.39,0.54684
5072.6,0.54857
5066.81,0.54984
5061.03,0.55414
5055.24,0.55607
5049.46,0.55836
5043.67,0.55979
5037.88,0.56121
5032.1,0.56345
5026.31,0.56425
5020.52,0.56633
5014.74,0.56770
5008.95,0.56823
5003.17,0.56876
4997.38,0.56768
4991.59,0.56725
4985.81,0.56626
4980.02,0.56541
4974.23,0.56352
4968.45,0.56013
4962.66,0.55755
4956.88,0.55334
4951.09,0.54939
4945.3,0.54570
4939.52,0.54050
4933.73,0.53483
4927.94,0.53127
4922.16,0.52654
4916.37,0.52080
4910.59,0.51437
4904.8,0.51034
4899.01,0.50574
4893.23,0.49962
4887.44,0.49444
4881.65,0.48912
4875.87,0.48432
4870.08,0.48058
4864.3,0.47493
4858.51,0.47213
4852.72,0.46759
4846.94,0.46393
4841.15,0.45963
4835.36,0.45602
4829.58,0.45278
4823.79,0.44853
4818.01,0.44651
4812.22,0.44425
4806.43,0.44178
4800.65,0.44027
4794.86,0.43966
4789.07,0.43843
4783.29,0.43784
4777.5,0.43620
4771.72,0.43543
4765.93,0.43452
4760.14,0.43404
4754.36,0.43475
4748.57,0.43319
4742.78,0.43469
4737,0.43544
4731.21,0.43613
4725.43,0.43684
4719.64,0.43761
4713.85,0.43947
4708.07,0.43950
4702.28,0.44175
4696.49,0.44272
4690.71,0.44405
4684.92,0.44600
4679.14,0.44669
4673.35,0.44883
4667.56,0.45011
4661.78,0.45328
4655.99,0.45534
4650.2,0.45780
4644.42,0.45997
4638.63,0.46216
4632.85,0.46491
4627.06,0.46776
4621.27,0.47071
4615.49,0.47443
4609.7,0.47686
4603.92,0.48026
4598.13,0.48178
4592.34,0.48517
4586.56,0.48705
4580.77,0.48959
4574.98,0.49226
4569.2,0.49370
4563.41,0.49564
4557.63,0.49619
4551.84,0.49867
4546.05,0.49968
4540.27,0.50207
4534.48,0.50195
4528.69,0.50314
4522.91,0.50346
4517.12,0.50424
4511.34,0.50376
4505.55,0.50282
4499.76,0.50128
4493.98,0.49983
4488.19,0.49765
4482.4,0.49335
4476.62,0.48879
4470.83,0.48297
4465.05,0.47817
4459.26,0.47135
4453.47,0.46519
4447.69,0.45787
4441.9,0.45045
4436.11,0.44437
4430.33,0.43621
4424.54,0.42910
4418.76,0.42184
4412.97,0.41522
4407.18,0.41019
4401.4,0.40702
4395.61,0.40652
4389.82,0.40668
4384.04,0.40873
4378.25,0.41160
4372.47,0.41390
4366.68,0.41677
4360.89,0.41754
4355.11,0.41820
4349.32,0.41750
4343.53,0.41685
4337.75,0.41544
4331.96,0.41416
4326.18,0.41167
4320.39,0.40897
4314.6,0.40564
4308.82,0.40396
4303.03,0.40101
4297.24,0.39903
4291.46,0.39658
4285.67,0.39530
4279.89,0.39473
4274.1,0.39381
4268.31,0.39536
4262.53,0.39633
4256.74,0.39789
4250.95,0.39925
4245.17,0.40004
4239.38,0.40004
4233.6,0.40045
4227.81,0.40078
4222.02,0.40075
4216.24,0.40107
4210.45,0.40075
4204.66,0.40180
4198.88,0.40190
4193.09,0.40224
4187.31,0.40291
4181.52,0.40436
4175.73,0.40555
4169.95,0.40777
4164.16,0.40838
4158.37,0.40865
4152.59,0.40656
4146.8,0.40519
4141.02,0.40354
4135.23,0.40041
4129.44,0.39763
4123.66,0.39353
4117.87,0.38906
4112.09,0.38464
4106.3,0.37889
4100.51,0.37319
4094.73,0.36779
4088.94,0.36199
4083.15,0.35579
4077.37,0.35021
4071.58,0.34425
4065.8,0.33853
4060.01,0.33262
4054.22,0.32640
4048.44,0.32114
4042.65,0.31678
4036.86,0.31235
4031.08,0.30893
4025.29,0.30706
4019.51,0.30607
4013.72,0.30507
4007.93,0.30604
4002.15,0.30670
3996.36,0.30788
3990.57,0.31045
3984.79,0.31124
3979,0.31352
3973.22,0.31520
3967.43,0.31672
3961.64,0.32056
3955.86,0.32214
3950.07,0.32501
3944.28,0.32785
3938.5,0.33061
3932.71,0.33369
3926.93,0.33692
3921.14,0.33978
3915.35,0.34275
3909.57,0.34523
3903.78,0.34784
3897.99,0.35024
3892.21,0.35168
3886.42,0.35440
3880.64,0.35667
3874.85,0.35707
3869.06,0.36012
3863.28,0.36262
3857.49,0.36618
3851.7,0.36899
3845.92,0.37046
3840.13,0.37295
3834.35,0.37459
3828.56,0.37576
3822.77,0.37602
3816.99,0.37624
3811.2,0.37576
3805.41,0.37614
3799.63,0.37505
3793.84,0.37495
3788.06,0.37464
3782.27,0.37398
3776.48,0.37296
3770.7,0.37101
3764.91,0.37021
3759.12,0.36778
3753.34,0.36638
3747.55,0.36402
3741.77,0.35971
3735.98,0.35679
3730.19,0.35273
3724.41,0.34785
3718.62,0.34216
3712.83,0.33484
3707.05,0.32690
3701.26,0.31764
3695.48,0.30612
3689.69,0.29260
3683.9,0.27612
3678.12,0.25805
3672.33,0.23773
3666.54,0.21707
3660.76,0.19800
3654.97,0.18102
3649.19,0.16472
3643.4,0.15040
3637.61,0.13793
3631.83,0.12671
3626.04,0.11664
3620.25,0.10787
3614.47,0.09945
3608.68,0.09189
3602.9,0.08534
3597.11,0.07974
3591.32,0.07420
3585.54,0.06907
3579.75,0.06493
3573.97,0.06156
3568.18,0.05878
3562.39,0.05571
3556.61,0.05336
3550.82,0.05169
3545.03,0.05001
3539.25,0.04826
3533.46,0.04669
3527.68,0.04570
3521.89,0.04502
3516.1,0.04318
3510.32,0.04201
3504.53,0.04241
3498.74,0.04113
3492.96,0.04090
3487.17,0.03956
3481.39,0.03947
3475.6,0.03913
3469.81,0.03914
3464.03,0.03835
3458.24,0.03838
3452.45,0.03845
3446.67,0.03803
3440.88,0.03815
3435.1,0.03817
3429.31,0.03826
3423.52,0.03885
3417.74,0.03868
3411.95,0.03897
3406.16,0.03913
3400.38,0.03840
3394.59,0.03907
3388.81,0.03864
3383.02,0.03878
3377.23,0.03883
3371.45,0.03905
3365.66,0.03956
3359.87,0.03991
3354.09,0.04006
3348.3,0.04077
3342.52,0.04067
3336.73,0.04126
3330.94,0.04206
3325.16,0.04326
3319.37,0.04358
3313.58,0.04408
3307.8,0.04387
3302.01,0.04440
3296.23,0.04427
3290.44,0.04500
3284.65,0.04543
3278.87,0.04617
3273.08,0.04658
3267.29,0.04752
3261.51,0.04879
3255.72,0.04942
3249.94,0.05044
3244.15,0.05099
3238.36,0.05228
3232.58,0.05301
3226.79,0.05445
3221,0.05464
3215.22,0.05548
3209.43,0.05814
3203.65,0.05883
3197.86,0.06039
3192.07,0.06153
3186.29,0.06274
3180.5,0.06442
3174.71,0.06603
3168.93,0.06792
3163.14,0.06959
3157.36,0.07114
3151.57,0.07300
3145.78,0.07404
3140,0.07614
3134.21,0.07821
3128.42,0.08061
3122.64,0.08242
3116.85,0.08463
3111.07,0.08642
3105.28,0.08811
3099.49,0.08996
3093.71,0.09207
3087.92,0.09357
3082.14,0.09517
3076.35,0.09675
3070.56,0.09954
3064.78,0.09995
3058.99,0.10226
3053.2,0.10472
3047.42,0.10611
3041.63,0.10755
3035.85,0.10872
3030.06,0.10978
3024.27,0.10967
3018.49,0.10949
3012.7,0.10791
3006.91,0.10613
3001.13,0.10345
2995.34,0.10135
2989.56,0.09856
2983.77,0.09311
2977.98,0.08549
2972.2,0.07850
2966.41,0.07382
2960.62,0.07063
2954.84,0.06765
2949.05,0.06467
2943.27,0.06216
2937.48,0.06068
2931.69,0.06034
2925.91,0.05962
2920.12,0.05973
2914.33,0.05935
2908.55,0.05930
2902.76,0.05967
2896.98,0.06043
2891.19,0.06137
2885.4,0.06255
2879.62,0.06327
2873.83,0.06463
2868.04,0.06584
2862.26,0.06827
2856.47,0.07058
2850.69,0.07306
2844.9,0.07724
2839.11,0.08252
2833.33,0.08779
2827.54,0.09364
2821.75,0.09954
2815.97,0.10464
2810.18,0.10939
2804.4,0.11348
2798.61,0.11691
2792.82,0.12007
2787.04,0.12233
2781.25,0.12383
2775.46,0.12543
2769.68,0.12662
2763.89,0.12745
2758.11,0.12816
2752.32,0.12919
2746.53,0.12941
2740.75,0.12975
2734.96,0.13044
2729.17,0.13159
2723.39,0.13292
2717.6,0.13512
2711.82,0.13714
2706.03,0.13980
2700.24,0.14245
2694.46,0.14527
2688.67,0.14759
2682.88,0.14990
2677.1,0.15281
2671.31,0.15431
2665.53,0.15615
2659.74,0.15737
2653.95,0.15912
2648.17,0.16117
2642.38,0.16269
2636.59,0.16531
2630.81,0.16723
2625.02,0.16946
2619.24,0.17077
2613.45,0.17293
2607.66,0.17416
2601.88,0.17583
2596.09,0.17747
2590.3,0.17884
2584.52,0.18039
2578.73,0.18168
2572.95,0.18227
2567.16,0.18274
2561.37,0.18337
2555.59,0.18338
2549.8,0.18302
2544.02,0.18363
2538.23,0.18436
2532.44,0.18565
2526.66,0.18728
2520.87,0.18883
2515.08,0.19038
2509.3,0.19274
2503.51,0.19609
2497.73,0.19842
2491.94,0.20175
2486.15,0.20453
2480.37,0.20650
2474.58,0.20947
2468.79,0.21191
2463.01,0.21400
2457.22,0.21606
2451.44,0.21841
2445.65,0.22144
2439.86,0.22434
2434.08,0.22712
2428.29,0.23043
2422.5,0.23345
2416.72,0.23712
2410.93,0.23954
2405.15,0.24267
2399.36,0.24533
2393.57,0.24829
2387.79,0.25088
2382,0.25360
2376.21,0.25626
2370.43,0.25922
2364.64,0.26066
2358.86,0.26213
2353.07,0.26396
2347.28,0.26557
2341.5,0.26770
2335.71,0.26895
2329.92,0.26982
2324.14,0.27094
2318.35,0.27135
2312.57,0.27140
2306.78,0.27145
2300.99,0.27098
2295.21,0.26982
2289.42,0.26925
2283.63,0.26879
2277.85,0.26802
2272.06,0.26607
2266.28,0.26379
2260.49,0.26153
2254.7,0.25975
2248.92,0.25886
2243.13,0.25813
2237.34,0.25680
2231.56,0.25577
2225.77,0.25588
2219.99,0.25580
2214.2,0.25518
2208.41,0.25436
2202.63,0.25309
2196.84,0.25092
2191.05,0.24813
2185.27,0.24479
2179.48,0.24097
2173.7,0.23703
2167.91,0.23355
2162.12,0.23064
2156.34,0.22851
2150.55,0.22622
2144.76,0.22525
2138.98,0.22376
2133.19,0.22331
2127.41,0.22337
2121.62,0.22486
2115.83,0.22581
2110.05,0.22747
2104.26,0.22862
2098.47,0.22955
2092.69,0.23079
2086.9,0.23109
2081.12,0.23103
2075.33,0.22981
2069.54,0.22829
2063.76,0.22739
2057.97,0.22680
2052.19,0.22710
2046.4,0.22812
2040.61,0.22994
2034.83,0.23316
2029.04,0.23643
2023.25,0.23993
2017.47,0.24395
2011.68,0.24676
2005.9,0.24893
2000.11,0.25113
1994.32,0.25318
1988.54,0.25530
1982.75,0.25715
1976.96,0.25882
1971.18,0.26030
1965.39,0.26218
1959.61,0.26411
1953.82,0.26739
1948.03,0.27040
1942.25,0.27369
1936.46,0.27661
1930.67,0.27822
1924.89,0.27970
1919.1,0.28033
1913.32,0.28079
1907.53,0.28072
1901.74,0.28036
1895.96,0.27968
1890.17,0.27906
1884.38,0.27853
1878.6,0.27766
1872.81,0.27731
1867.03,0.27659
1861.24,0.27493
1855.45,0.27316
1849.67,0.27113
1843.88,0.26828
1838.09,0.26567
1832.31,0.26295
1826.52,0.25907
1820.74,0.25454
1814.95,0.24961
1809.16,0.24318
1803.38,0.23619
1797.59,0.22727
1791.8,0.21729
1786.02,0.20584
1780.23,0.19138
1774.45,0.17378
1768.66,0.15018
1762.87,0.12446
1757.09,0.10038
1751.3,0.08415
1745.51,0.07427
1739.73,0.07044
1733.94,0.07041
1728.16,0.07224
1722.37,0.07612
1716.58,0.08253
1710.8,0.08920
1705.01,0.09538
1699.22,0.09774
1693.44,0.09633
1687.65,0.09170
1681.87,0.08467
1676.08,0.07782
1670.29,0.07161
1664.51,0.06860
1658.72,0.06778
1652.93,0.07007
1647.15,0.07056
1641.36,0.07030
1635.58,0.07050
1629.79,0.07010
1624,0.06979
1618.22,0.06924
1612.43,0.06663
1606.64,0.06414
1600.86,0.06355
1595.07,0.06341
1589.29,0.06563
1583.5,0.07185
1577.71,0.08171
1571.93,0.09407
1566.14,0.10422
1560.35,0.11005
1554.57,0.11202
1548.78,0.11181
1543,0.10959
1537.21,0.10298
1531.42,0.09181
1525.64,0.07595
1519.85,0.05744
1514.07,0.04781
1508.28,0.04737
1502.49,0.05317
1496.71,0.05951
1490.92,0.06336
1485.13,0.06193
1479.35,0.05749
1473.56,0.05112
1467.78,0.04609
1461.99,0.04476
1456.2,0.04497
1450.42,0.04434
1444.63,0.04532
1438.84,0.04407
1433.06,0.04185
1427.27,0.04150
1421.49,0.04267
1415.7,0.04517
1409.91,0.04646
1404.13,0.04701
1398.34,0.04676
1392.55,0.04506
1386.77,0.04283
1380.98,0.04028
1375.2,0.03964
1369.41,0.04048
1363.62,0.04173
1357.84,0.04271
1352.05,0.04350
1346.26,0.04328
1340.48,0.04274
1334.69,0.04189
1328.91,0.04203
1323.12,0.04189
1317.33,0.04146
1311.55,0.04202
1305.76,0.04283
1299.97,0.04315
1294.19,0.04194
1288.4,0.03990
1282.62,0.03849
1276.83,0.03829
1271.04,0.03824
1265.26,0.03896
1259.47,0.03950
1253.68,0.04048
1247.9,0.04018
1242.11,0.04064
1236.33,0.04007
1230.54,0.04028
1224.75,0.04113
1218.97,0.04138
1213.18,0.04097
1207.39,0.04103
1201.61,0.04088
1195.82,0.04034
1190.04,0.03993
1184.25,0.03703
1178.46,0.03464
1172.68,0.03285
1166.89,0.03483
1161.1,0.03793
1155.32,0.03853
1149.53,0.03747
1143.75,0.03513
1137.96,0.03314
1132.17,0.03185
1126.39,0.03194
1120.6,0.03312
1114.81,0.03340
1109.03,0.03649
1103.24,0.03786
1097.46,0.03687
1091.67,0.03664
1085.88,0.03711
1080.1,0.03921
1074.31,0.04387
1068.52,0.04811
1062.74,0.05492
1056.95,0.05860
1051.17,0.05843
1045.38,0.05612
1039.59,0.05744
1033.81,0.06246
1028.02,0.06396
1022.24,0.06379
1016.45,0.06409
1010.66,0.06420
1004.88,0.06420
999.09,0.06514
993.304,0.06651
987.518,0.06964
981.731,0.07322
975.945,0.07820
970.159,0.08055
964.373,0.08205
958.586,0.08567
952.8,0.08868
947.014,0.09147
941.228,0.09265
935.441,0.09476
929.655,0.09762
923.869,0.09935
918.083,0.09713
912.297,0.09236
906.51,0.08533
900.724,0.08126
894.938,0.08095
889.152,0.08568
883.365,0.08816
877.579,0.08807
871.793,0.08938
866.007,0.09042
860.22,0.09223
854.434,0.09517
848.648,0.09719
842.862,0.09881
837.075,0.09667
831.289,0.09330
825.503,0.09024
819.717,0.08502
813.931,0.08032
808.144,0.07856
802.358,0.07974
796.572,0.07974
790.786,0.08000
784.999,0.07822
779.213,0.07624
773.427,0.07355
767.641,0.07354
761.854,0.07093
756.068,0.07035
750.282,0.06845
744.496,0.06791
738.709,0.06502
732.923,0.06413
727.137,0.06085
721.351,0.05895
715.565,0.05857
709.778,0.05677
703.992,0.05798
698.206,0.05623
692.42,0.05431
686.633,0.05432
680.847,0.05275
675.061,0.05158
669.275,0.05147
663.488,0.05180
657.702,0.05237
651.916,0.05112
646.13,0.04893
640.343,0.04933
634.557,0.04555
628.771,0.04585
622.985,0.04617
617.198,0.04890
611.412,0.04836
605.626,0.05088
599.84,0.04959