File: 01_Data/Engineered_Wood_Furniture/Cone/Engineered_Wood_Furniture_HRRPUA_25.csv
Time after Ignition,Engineered_Wood_Furniture_R1,Engineered_Wood_Furniture_R2,Engineered_Wood_Furniture_R3,Mean,Std. Dev.
0.0,18.9,35.8,16.6,23.8,10.5
1.0,44.1,59.2,35.2,46.2,12.1
2.0,76.3,92.0,62.2,76.8,14.9
3.0,111.8,129.2,89.2,110.1,20.1
4.0,146.0,164.3,118.4,142.9,23.1
5.0,177.4,193.9,159.8,177.0,17.1
6.0,209.7,220.0,201.1,210.2,9.5
7.0,237.5,233.5,234.5,235.2,2.1
8.0,257.3,234.9,267.4,253.2,16.7
9.0,273.1,245.4,271.1,263.2,15.4
10.0,281.5,250.9,286.4,272.9,19.2
11.0,286.7,249.6,299.8,278.7,26.0
12.0,282.4,256.4,303.3,280.7,23.5
13.0,268.3,255.1,292.1,271.9,18.7
14.0,263.2,254.3,288.6,268.7,17.8
15.0,251.6,258.0,271.3,260.3,10.1
16.0,234.0,246.4,263.2,247.9,14.7
17.0,226.7,228.0,253.5,236.1,15.1
18.0,216.3,215.1,239.5,223.6,13.7
19.0,210.2,200.4,227.8,212.8,13.9
20.0,203.3,182.6,210.4,198.8,14.4
21.0,194.7,170.8,199.0,188.1,15.2
22.0,188.1,154.3,188.1,176.8,19.5
23.0,187.3,144.6,180.2,170.7,22.9
24.0,185.8,136.0,172.3,164.7,25.8
25.0,181.1,128.9,167.3,159.1,27.0
26.0,180.4,122.8,165.0,156.1,29.8
27.0,179.5,120.9,162.5,154.3,30.1
28.0,180.9,118.1,162.5,153.8,32.3
29.0,177.8,114.5,161.7,151.4,32.9
30.0,182.0,112.5,161.6,152.0,35.8
31.0,186.7,111.1,161.1,152.9,38.4
32.0,185.3,108.8,164.2,152.8,39.5
33.0,182.4,110.7,166.7,153.3,37.7
34.0,186.0,111.1,168.7,155.3,39.3
35.0,192.7,111.1,176.1,160.0,43.1
36.0,193.4,110.7,182.2,162.1,44.9
37.0,195.1,113.4,184.1,164.2,44.3
38.0,195.5,114.4,190.0,166.7,45.3
39.0,198.6,118.8,196.0,171.2,45.3
40.0,199.1,122.9,200.6,174.2,44.4
41.0,202.5,127.2,207.3,179.0,44.9
42.0,206.3,130.4,209.7,182.1,44.8
43.0,204.1,134.7,212.3,183.7,42.6
44.0,210.6,138.2,215.9,188.2,43.4
45.0,208.0,138.7,216.2,187.6,42.6
46.0,209.2,141.0,224.4,191.6,44.4
47.0,211.7,143.7,223.8,193.1,43.2
48.0,214.7,146.2,224.5,195.2,42.6
49.0,215.2,146.9,224.9,195.7,42.5
50.0,216.7,147.0,222.2,195.3,41.9
51.0,217.4,147.8,227.2,197.5,43.3
52.0,217.6,147.2,222.9,195.9,42.3
53.0,215.4,151.7,223.9,197.0,39.5
54.0,212.6,152.3,224.2,196.4,38.6
55.0,217.8,154.2,221.2,197.7,37.7
56.0,218.1,154.9,219.7,197.6,36.9
57.0,213.3,152.7,217.0,194.3,36.1
58.0,212.4,151.4,218.2,194.0,37.0
59.0,211.6,155.1,219.9,195.5,35.3
60.0,216.7,155.6,214.2,195.5,34.5
61.0,211.3,155.7,216.8,194.6,33.8
62.0,212.9,155.7,214.4,194.3,33.5
63.0,208.5,156.4,210.7,191.9,30.7
64.0,204.4,155.1,211.5,190.3,30.7
65.0,208.8,161.5,210.4,193.6,27.8
66.0,203.1,160.2,202.2,188.5,24.5
67.0,202.0,156.7,205.8,188.2,27.3
68.0,198.5,159.3,209.1,189.0,26.2
69.0,197.7,161.8,204.2,187.9,22.8
70.0,195.9,157.2,199.2,184.1,23.3
71.0,193.2,161.0,198.0,184.1,20.1
72.0,194.3,159.5,199.0,184.3,21.6
73.0,197.7,160.2,192.3,183.4,20.3
74.0,189.8,159.4,193.8,181.0,18.8
75.0,193.3,160.5,196.2,183.4,19.9
76.0,190.6,160.8,192.8,181.4,17.9
77.0,188.7,157.9,189.4,178.6,18.0
78.0,183.9,157.2,188.2,176.4,16.8
79.0,186.5,156.8,185.2,176.2,16.8
80.0,183.9,160.2,187.5,177.2,14.9
81.0,181.5,153.8,182.2,172.5,16.2
82.0,179.0,152.6,181.9,171.1,16.1
83.0,179.7,153.6,179.8,171.0,15.1
84.0,176.7,155.1,175.2,169.0,12.1
85.0,173.4,156.4,178.7,169.5,11.7
86.0,169.9,155.0,171.7,165.5,9.2
87.0,170.8,154.5,171.7,165.7,9.7
88.0,164.7,157.0,170.8,164.2,6.9
89.0,163.5,153.3,169.8,162.2,8.3
90.0,157.9,152.2,163.6,157.9,5.7
91.0,159.9,153.7,166.8,160.1,6.6
92.0,160.4,152.2,166.3,159.6,7.1
93.0,156.2,152.9,161.1,156.7,4.1
94.0,151.2,149.6,159.9,153.6,5.5
95.0,153.2,151.8,156.9,154.0,2.6
96.0,151.7,150.7,156.3,152.9,3.0
97.0,148.8,150.9,152.3,150.7,1.7
98.0,147.3,148.1,149.1,148.1,0.9
99.0,146.0,149.6,155.7,150.4,4.9
100.0,143.6,151.8,149.6,148.3,4.2
101.0,143.0,147.1,144.4,144.8,2.1
102.0,141.5,150.4,146.5,146.1,4.5
103.0,140.3,149.7,145.7,145.2,4.7
104.0,139.0,149.1,138.7,142.2,5.9
105.0,139.0,151.3,139.6,143.3,6.9
106.0,136.6,149.5,137.6,141.2,7.2
107.0,134.9,150.9,136.7,140.8,8.8
108.0,133.4,153.8,136.5,141.2,11.0
109.0,132.5,148.8,138.3,139.9,8.3
110.0,132.0,149.4,136.3,139.2,9.1
111.0,129.4,149.6,137.2,138.7,10.2
112.0,129.6,149.9,133.7,137.7,10.7
113.0,128.9,149.6,132.9,137.1,11.0
114.0,126.0,148.6,130.7,135.1,12.0
115.0,127.3,147.9,134.1,136.4,10.5
116.0,126.6,147.9,131.3,135.3,11.2
117.0,125.6,148.4,130.1,134.7,12.1
118.0,125.8,149.1,130.5,135.1,12.3
119.0,127.0,148.6,127.9,134.5,12.2
120.0,124.9,148.5,130.3,134.6,12.4
121.0,123.9,149.2,128.0,133.7,13.6
122.0,123.6,145.8,126.0,131.8,12.2
123.0,121.7,148.6,125.4,131.9,14.6
124.0,122.8,144.4,126.0,131.1,11.7
125.0,124.4,147.5,126.6,132.8,12.7
126.0,122.8,147.5,126.1,132.2,13.4
127.0,121.2,144.6,124.0,129.9,12.8
128.0,122.3,144.0,123.7,130.0,12.1
129.0,122.4,145.2,125.3,131.0,12.4
130.0,120.7,142.2,123.4,128.8,11.7
131.0,120.7,141.2,122.2,128.0,11.4
132.0,120.5,143.0,122.4,128.6,12.5
133.0,117.3,138.9,122.7,126.3,11.2
134.0,116.9,138.8,121.4,125.7,11.6
135.0,119.4,137.2,122.0,126.2,9.6
136.0,115.8,139.1,122.8,125.9,11.9
137.0,114.8,139.8,120.9,125.2,13.0
138.0,113.9,137.3,120.9,124.0,12.0
139.0,115.4,134.2,117.9,122.5,10.2
140.0,113.0,133.9,121.1,122.7,10.5
141.0,113.7,135.8,121.3,123.6,11.2
142.0,113.3,135.7,119.2,122.7,11.6
143.0,112.9,137.2,119.2,123.1,12.6
144.0,113.5,135.3,118.4,122.4,11.4
145.0,111.7,134.0,116.7,120.8,11.7
146.0,112.1,131.4,119.6,121.0,9.7
147.0,111.7,133.1,119.2,121.4,10.8
148.0,110.0,131.1,115.6,118.9,10.9
149.0,109.1,131.0,117.6,119.2,11.1
150.0,109.5,129.0,119.1,119.2,9.7
151.0,109.1,130.9,117.6,119.2,11.0
152.0,109.4,131.0,116.6,119.0,11.0
153.0,108.3,128.8,116.0,117.7,10.4
154.0,108.1,130.4,116.4,118.3,11.3
155.0,108.1,130.3,115.8,118.1,11.3
156.0,108.2,127.3,116.3,117.3,9.6
157.0,107.5,128.6,116.4,117.5,10.6
158.0,107.3,126.7,112.4,115.5,10.1
159.0,106.7,124.9,112.3,114.6,9.4
160.0,105.6,124.7,112.9,114.4,9.7
161.0,104.0,128.4,113.9,115.4,12.3
162.0,103.5,125.1,113.4,114.0,10.8
163.0,104.4,125.9,111.1,113.8,11.0
164.0,102.9,124.0,110.1,112.3,10.7
165.0,102.6,121.1,110.2,111.3,9.3
166.0,103.1,124.3,111.7,113.0,10.7
167.0,99.9,121.1,109.9,110.3,10.6
168.0,101.8,122.9,109.2,111.3,10.7
169.0,99.2,122.2,109.4,110.3,11.5
170.0,99.6,120.7,111.4,110.6,10.5
171.0,99.3,120.1,107.5,109.0,10.5
172.0,97.7,120.3,106.2,108.1,11.4
173.0,99.6,117.9,107.1,108.2,9.2
174.0,97.9,118.9,106.8,107.9,10.5
175.0,98.7,119.7,105.5,108.0,10.7
176.0,98.2,117.3,105.3,106.9,9.6
177.0,99.3,116.4,105.4,107.0,8.7
178.0,99.5,118.2,103.5,107.1,9.8
179.0,97.9,118.4,102.6,106.3,10.7
180.0,96.1,117.7,102.3,105.4,11.2
181.0,97.4,117.1,102.7,105.7,10.2
182.0,97.7,115.6,101.4,104.9,9.5
183.0,98.9,114.2,100.8,104.6,8.3
184.0,99.1,114.3,102.5,105.3,8.0
185.0,101.0,114.6,101.3,105.6,7.8
186.0,98.2,114.0,100.6,104.3,8.5
187.0,96.9,114.8,99.0,103.6,9.8
188.0,98.9,114.9,98.7,104.2,9.3
189.0,97.8,113.5,98.9,103.4,8.7
190.0,98.6,112.4,97.4,102.8,8.3
191.0,98.0,114.1,96.3,102.8,9.8
192.0,97.7,113.4,96.4,102.5,9.4
193.0,98.1,111.9,97.1,102.3,8.3
194.0,97.9,111.2,95.5,101.6,8.5
195.0,97.8,111.7,95.5,101.7,8.8
196.0,95.7,112.5,94.8,101.0,10.0
197.0,96.6,109.0,93.6,99.8,8.2
198.0,97.4,111.4,94.1,101.0,9.2
199.0,96.5,109.1,91.9,99.2,8.9
200.0,94.6,109.0,92.8,98.8,8.9
201.0,94.0,108.7,92.2,98.3,9.1
202.0,95.0,109.3,92.7,99.0,9.0
203.0,96.9,108.4,91.8,99.0,8.5
204.0,96.2,108.1,90.8,98.4,8.8
205.0,95.5,109.8,90.9,98.8,9.9
206.0,96.5,107.9,91.4,98.6,8.5
207.0,96.5,108.3,89.0,97.9,9.7
208.0,96.5,106.7,90.1,97.8,8.3
209.0,95.0,107.6,90.1,97.6,9.0
210.0,93.9,108.0,88.9,96.9,9.9
211.0,95.4,109.9,89.7,98.3,10.4
212.0,93.6,108.0,88.3,96.6,10.2
213.0,94.1,109.0,89.0,97.4,10.4
214.0,92.5,107.3,89.0,96.3,9.7
215.0,92.2,106.4,86.9,95.2,10.1
216.0,91.7,106.4,86.9,95.0,10.1
217.0,91.3,106.0,85.1,94.1,10.7
218.0,89.9,106.4,86.8,94.4,10.5
219.0,90.4,106.6,86.0,94.3,10.8
220.0,88.0,105.6,85.8,93.1,10.9
221.0,87.1,106.6,85.2,93.0,11.9
222.0,89.4,105.4,84.7,93.2,10.9
223.0,87.8,103.7,86.0,92.5,9.7
224.0,87.2,103.4,87.4,92.7,9.3
225.0,87.4,102.1,88.3,92.6,8.2
226.0,86.5,101.4,86.5,91.5,8.6
227.0,87.9,100.1,86.6,91.5,7.4
228.0,86.3,100.7,85.6,90.9,8.5
229.0,86.6,99.2,87.0,90.9,7.2
230.0,85.8,99.5,88.6,91.3,7.2
231.0,86.6,97.6,86.3,90.2,6.4
232.0,85.9,99.1,86.5,90.5,7.5
233.0,84.4,98.2,86.2,89.6,7.5
234.0,84.9,97.3,86.4,89.5,6.7
235.0,85.7,97.1,86.4,89.7,6.4
236.0,84.3,95.3,85.5,88.3,6.0
237.0,84.5,95.8,86.5,88.9,6.0
238.0,83.9,94.0,84.6,87.5,5.7
239.0,83.4,94.3,85.3,87.7,5.8
240.0,83.4,93.0,83.8,86.7,5.4
241.0,83.4,95.0,84.6,87.7,6.4
242.0,82.1,94.6,84.2,86.9,6.7
243.0,80.4,94.4,83.7,86.2,7.3
244.0,80.6,95.1,83.8,86.5,7.6
245.0,78.9,94.1,83.6,85.5,7.8
246.0,80.4,96.1,83.4,86.6,8.3
247.0,80.4,94.3,82.2,85.6,7.5
248.0,80.0,93.7,81.4,85.0,7.5
249.0,79.6,94.5,81.8,85.3,8.0
250.0,77.9,93.2,80.7,84.0,8.2
251.0,79.0,93.2,80.4,84.2,7.8
252.0,80.3,91.6,80.5,84.1,6.5
253.0,77.9,92.4,78.5,82.9,8.2
254.0,79.4,91.9,78.3,83.2,7.6
255.0,77.7,91.3,78.1,82.4,7.8
256.0,77.7,90.8,78.2,82.2,7.4
257.0,77.0,90.9,77.3,81.7,7.9
258.0,76.9,90.2,76.6,81.2,7.8
259.0,77.8,90.6,76.4,81.6,7.8
260.0,76.5,89.0,76.6,80.7,7.2
261.0,76.6,89.1,75.5,80.4,7.5
262.0,76.8,89.4,74.6,80.3,8.0
263.0,76.3,89.0,74.7,80.0,7.8
264.0,76.4,88.4,73.8,79.6,7.8
265.0,75.3,86.9,73.1,78.4,7.4
266.0,74.2,86.0,73.3,77.9,7.1
267.0,73.9,86.0,72.3,77.4,7.5
268.0,72.8,85.2,72.2,76.8,7.3
269.0,71.8,85.8,71.7,76.4,8.1
270.0,73.0,85.3,72.7,77.0,7.2
271.0,72.0,84.0,70.6,75.5,7.4
272.0,70.6,83.6,70.5,74.9,7.6
273.0,71.0,83.3,70.1,74.8,7.4
274.0,70.7,84.0,69.9,74.9,7.9
275.0,70.0,82.9,69.3,74.1,7.7
276.0,71.0,82.0,69.8,74.3,6.7
277.0,68.8,81.1,69.8,73.2,6.8
278.0,68.5,80.5,68.5,72.5,6.9
279.0,70.3,81.3,68.6,73.4,6.9
280.0,69.4,79.0,68.7,72.4,5.8
281.0,69.5,78.8,67.1,71.8,6.2
282.0,68.6,79.8,68.1,72.1,6.6
283.0,68.4,78.5,68.6,71.8,5.8
284.0,69.0,77.4,68.0,71.5,5.1
285.0,68.3,77.2,67.1,70.9,5.5
286.0,68.2,77.0,68.3,71.2,5.0
287.0,67.8,76.8,66.5,70.3,5.6
288.0,67.9,75.2,66.3,69.8,4.7
289.0,67.9,75.4,65.5,69.6,5.2
290.0,67.3,75.6,66.4,69.8,5.1
291.0,67.0,75.8,66.1,69.6,5.3
292.0,66.5,74.8,65.0,68.7,5.3
293.0,67.6,75.5,65.1,69.4,5.4
294.0,67.7,74.7,64.0,68.8,5.4
295.0,68.1,74.8,65.0,69.3,5.0
296.0,67.9,73.4,63.3,68.2,5.1
297.0,67.2,71.1,65.1,67.8,3.1
298.0,67.1,71.8,64.8,67.9,3.6
299.0,67.2,71.4,64.1,67.6,3.6
300.0,66.2,70.6,63.7,66.8,3.5
301.0,66.5,71.4,64.8,67.6,3.4
302.0,66.2,71.9,64.1,67.4,4.0
303.0,66.7,70.8,63.6,67.0,3.6
304.0,64.9,71.5,63.5,66.6,4.3
305.0,65.5,72.6,64.6,67.6,4.4
306.0,64.9,72.2,62.1,66.4,5.2
307.0,64.3,72.9,62.7,66.7,5.5
308.0,64.0,72.9,63.2,66.7,5.4
309.0,62.9,71.8,62.3,65.7,5.3
310.0,63.5,73.0,62.1,66.2,5.9
311.0,63.3,72.5,62.6,66.1,5.5
312.0,63.4,72.5,61.6,65.9,5.8
313.0,63.3,72.3,62.2,65.9,5.6
314.0,63.3,72.0,61.7,65.7,5.5
315.0,62.8,70.2,61.7,64.9,4.6
316.0,63.0,69.4,62.0,64.8,4.0
317.0,63.9,69.4,62.4,65.2,3.7
318.0,63.4,67.3,61.2,64.0,3.1
319.0,63.7,67.8,61.4,64.3,3.2
320.0,62.2,66.9,60.0,63.0,3.5
321.0,62.3,66.4,61.1,63.3,2.8
322.0,61.5,66.6,60.2,62.8,3.4
323.0,63.2,63.9,60.1,62.4,2.0
324.0,62.5,64.7,59.9,62.4,2.4
325.0,62.5,63.9,60.4,62.2,1.7
326.0,60.9,64.5,59.8,61.7,2.5
327.0,62.4,64.2,59.8,62.1,2.2
328.0,61.6,62.6,59.8,61.3,1.4
329.0,60.4,63.5,60.3,61.4,1.8
330.0,61.3,63.0,60.2,61.5,1.4
331.0,61.1,61.9,59.9,60.9,1.0
332.0,60.4,62.4,59.0,60.6,1.7
333.0,61.1,62.1,59.1,60.8,1.5
334.0,59.9,62.3,59.3,60.5,1.6
335.0,60.9,61.9,58.7,60.5,1.6
336.0,59.1,62.9,58.1,60.0,2.5
337.0,59.9,61.7,58.3,60.0,1.7
338.0,59.8,63.0,59.1,60.6,2.1
339.0,60.8,61.1,58.0,60.0,1.7
340.0,60.5,60.8,58.1,59.8,1.4
341.0,60.7,61.8,58.3,60.3,1.8
342.0,60.5,60.7,58.7,60.0,1.1
343.0,60.8,60.9,58.6,60.1,1.3
344.0,60.0,62.0,58.6,60.2,1.7
345.0,60.6,60.4,58.9,60.0,0.9
346.0,60.6,60.2,58.2,59.7,1.3
347.0,61.5,59.9,57.7,59.7,1.9
348.0,62.0,60.1,57.9,60.0,2.0
349.0,61.4,59.1,57.5,59.3,2.0
350.0,61.6,59.6,58.2,59.8,1.7
351.0,61.4,59.9,59.0,60.1,1.2
352.0,61.8,59.2,59.8,60.3,1.3
353.0,61.4,59.8,59.0,60.1,1.3
354.0,61.5,59.2,59.6,60.1,1.3
355.0,62.1,58.6,58.8,59.8,2.0
356.0,61.8,57.7,59.5,59.6,2.1
357.0,63.1,58.5,59.7,60.4,2.4
358.0,62.7,57.6,59.7,60.0,2.6
359.0,63.5,58.1,59.1,60.3,2.9
360.0,61.5,58.3,59.2,59.7,1.6
361.0,61.7,58.5,59.5,59.9,1.6
362.0,61.9,58.4,58.5,59.6,2.0
363.0,62.3,58.7,58.6,59.9,2.1
364.0,63.1,58.7,58.7,60.2,2.5
365.0,62.6,58.4,57.2,59.4,2.8
366.0,62.4,58.6,57.8,59.6,2.5
367.0,63.2,58.4,57.9,59.8,2.9
368.0,63.1,57.8,57.3,59.4,3.2
369.0,63.6,57.9,57.3,59.6,3.5
370.0,62.3,58.5,57.8,59.5,2.5
371.0,63.2,57.8,57.2,59.4,3.3
372.0,64.0,58.0,57.0,59.7,3.8
373.0,62.8,57.4,57.7,59.3,3.0
374.0,63.0,57.2,58.5,59.6,3.0
375.0,63.9,57.5,57.3,59.6,3.8
376.0,63.5,58.7,58.2,60.2,2.9
377.0,62.6,57.7,58.6,59.6,2.6
378.0,64.1,57.5,58.2,59.9,3.7
379.0,62.5,56.9,57.1,58.8,3.2
380.0,63.0,57.1,58.0,59.4,3.1
381.0,62.0,56.6,58.6,59.1,2.7
382.0,63.1,56.7,57.9,59.2,3.4
383.0,63.1,56.9,58.3,59.4,3.3
384.0,64.3,56.0,58.2,59.5,4.3
385.0,63.5,54.2,57.8,58.5,4.7
386.0,62.8,54.6,57.8,58.4,4.1
387.0,64.0,53.8,58.6,58.8,5.1
388.0,63.7,55.1,58.0,58.9,4.3
389.0,64.3,53.4,58.3,58.7,5.5
390.0,63.8,55.2,58.9,59.3,4.3
391.0,64.9,55.4,57.1,59.1,5.1
392.0,64.3,55.0,56.9,58.7,4.9
393.0,65.1,54.8,55.4,58.4,5.8
394.0,65.2,54.3,54.8,58.1,6.2
395.0,66.3,55.7,55.0,59.0,6.3
396.0,65.2,55.1,55.3,58.5,5.8
397.0,65.6,54.4,55.2,58.4,6.3
398.0,65.9,55.1,56.3,59.1,6.0
399.0,65.8,54.7,55.9,58.8,6.1
400.0,64.9,53.9,56.8,58.6,5.7
401.0,65.4,53.7,55.7,58.3,6.3
402.0,65.9,54.2,57.1,59.1,6.1
403.0,65.0,54.3,57.2,58.9,5.6
404.0,65.5,54.2,56.9,58.9,5.9
405.0,66.0,54.5,57.1,59.2,6.0
406.0,66.1,54.3,55.9,58.8,6.4
407.0,67.0,55.1,56.2,59.4,6.6
408.0,66.6,54.9,54.6,58.7,6.8
409.0,67.3,55.9,55.5,59.6,6.7
410.0,68.3,54.9,55.4,59.5,7.6
411.0,68.7,55.9,56.0,60.2,7.4
412.0,68.3,55.2,55.7,59.7,7.4
413.0,68.2,55.2,56.4,59.9,7.2
414.0,68.8,55.3,55.4,59.8,7.8
415.0,68.5,55.0,56.1,59.8,7.5
416.0,69.2,55.2,56.3,60.2,7.8
417.0,69.0,54.1,57.3,60.1,7.8
418.0,67.9,55.3,56.9,60.0,6.9
419.0,68.7,55.3,57.0,60.3,7.3
420.0,68.7,54.8,56.7,60.1,7.6
421.0,68.0,54.3,57.8,60.0,7.1
422.0,67.9,55.4,56.9,60.1,6.8
423.0,69.2,55.3,56.8,60.4,7.6
424.0,70.3,54.2,57.3,60.6,8.5
425.0,69.6,55.4,57.2,60.7,7.7
426.0,69.0,54.9,57.2,60.4,7.6
427.0,70.2,54.8,57.7,60.9,8.2
428.0,69.9,54.8,57.4,60.7,8.1
429.0,70.5,54.7,56.9,60.7,8.5
430.0,70.5,53.8,57.6,60.6,8.7
431.0,71.4,53.0,57.0,60.5,9.7
432.0,70.6,53.9,57.0,60.5,8.9
433.0,71.0,53.0,58.1,60.7,9.3
434.0,71.2,53.3,57.1,60.5,9.4
435.0,71.4,52.8,58.1,60.8,9.6
436.0,70.7,52.6,57.4,60.2,9.4
437.0,71.2,52.9,58.7,61.0,9.3
438.0,71.3,52.2,57.9,60.4,9.8
439.0,71.3,52.6,58.7,60.9,9.5
440.0,72.4,52.7,59.0,61.4,10.0
441.0,73.2,51.7,58.7,61.2,11.0
442.0,71.0,51.4,59.1,60.5,9.9
443.0,71.0,52.0,59.0,60.7,9.6
444.0,72.0,52.4,59.2,61.2,10.0
445.0,70.9,50.9,59.4,60.4,10.0
446.0,71.9,51.7,59.1,60.9,10.2
447.0,72.2,51.1,60.6,61.3,10.6
448.0,71.6,51.7,59.8,61.0,10.0
449.0,71.5,51.6,60.3,61.1,9.9
450.0,71.0,52.4,60.5,61.3,9.3
451.0,71.0,51.6,60.6,61.1,9.7
452.0,71.4,52.2,60.2,61.3,9.6
453.0,70.7,52.1,60.3,61.0,9.3
454.0,70.7,50.9,59.7,60.4,9.9
455.0,72.4,50.9,59.3,60.9,10.9
456.0,71.1,51.1,60.1,60.8,10.0
457.0,72.6,50.8,60.1,61.2,11.0
458.0,71.3,51.1,60.6,61.0,10.1
459.0,72.2,50.7,61.6,61.5,10.8
460.0,72.7,50.9,61.4,61.7,10.9
461.0,72.3,50.3,61.4,61.3,11.0
462.0,71.8,50.6,61.7,61.4,10.6
463.0,73.1,50.5,62.0,61.9,11.3
464.0,73.4,50.1,62.3,61.9,11.7
465.0,73.0,51.0,61.3,61.7,11.0
466.0,72.9,50.9,63.6,62.5,11.1
467.0,73.4,51.2,62.5,62.4,11.1
468.0,71.6,51.6,63.8,62.3,10.1
469.0,73.4,50.8,62.7,62.3,11.3
470.0,72.1,50.8,62.2,61.7,10.7
471.0,72.4,51.5,63.2,62.4,10.5
472.0,72.0,50.7,62.4,61.7,10.7
473.0,72.8,51.3,62.9,62.3,10.8
474.0,72.3,51.5,63.9,62.6,10.4
475.0,73.4,51.4,62.8,62.6,11.0
476.0,73.1,51.1,62.9,62.4,11.0
477.0,72.4,51.6,64.2,62.7,10.5
478.0,73.6,50.8,64.2,62.9,11.5
479.0,73.0,52.6,64.7,63.4,10.2
480.0,73.1,52.9,63.8,63.3,10.1
481.0,72.7,52.3,65.1,63.4,10.3
482.0,73.5,54.0,65.0,64.2,9.8
483.0,74.7,52.4,65.3,64.1,11.2
484.0,74.1,54.1,66.7,65.0,10.1
485.0,75.1,53.4,66.7,65.1,10.9
486.0,75.1,53.9,67.1,65.4,10.7
487.0,75.0,53.3,67.8,65.4,11.0
488.0,74.4,53.3,67.7,65.2,10.8
489.0,74.4,52.6,68.0,65.0,11.2
490.0,74.2,52.5,67.3,64.7,11.1
491.0,74.5,52.7,67.1,64.8,11.1
492.0,74.9,53.3,68.4,65.6,11.1
493.0,73.6,53.6,67.5,64.9,10.3
494.0,74.4,53.0,68.9,65.4,11.1
495.0,74.1,53.3,69.1,65.5,10.9
496.0,75.5,53.1,69.3,66.0,11.6
497.0,76.1,53.8,68.9,66.3,11.4
498.0,75.4,54.0,69.7,66.4,11.1
499.0,76.7,54.7,69.3,66.9,11.2
500.0,75.1,54.7,70.3,66.7,10.7
501.0,76.6,54.6,71.4,67.5,11.5
502.0,76.1,54.6,70.7,67.1,11.2
503.0,77.3,55.4,72.1,68.3,11.4
504.0,75.9,54.0,71.7,67.2,11.6
505.0,76.3,53.6,71.9,67.3,12.0
506.0,76.7,53.8,72.3,67.6,12.2
507.0,76.9,53.6,72.6,67.7,12.4
508.0,76.3,54.1,72.4,67.6,11.9
509.0,76.8,53.4,72.1,67.4,12.4
510.0,75.9,53.4,73.3,67.5,12.3
511.0,76.5,53.1,72.9,67.5,12.6
512.0,77.1,53.8,74.3,68.4,12.7
513.0,77.1,53.1,73.2,67.8,12.9
514.0,78.2,53.6,75.2,69.0,13.4
515.0,77.0,54.7,74.2,68.7,12.1
516.0,77.3,54.5,74.9,68.9,12.5
517.0,78.3,53.7,74.9,69.0,13.3
518.0,76.8,55.1,75.6,69.1,12.2
519.0,76.1,55.4,76.6,69.4,12.1
520.0,75.7,55.5,78.3,69.8,12.5
521.0,77.8,54.8,76.9,69.8,13.0
522.0,77.2,55.0,76.1,69.4,12.5
523.0,77.2,56.0,75.8,69.7,11.9
524.0,76.9,56.3,76.2,69.8,11.7
525.0,77.1,56.3,76.4,69.9,11.8
526.0,77.7,56.4,75.2,69.8,11.7
527.0,77.7,56.1,75.1,69.6,11.8
528.0,77.7,57.4,75.8,70.3,11.2
529.0,77.2,56.6,75.9,69.9,11.6
530.0,78.6,56.5,76.7,70.6,12.3
531.0,78.6,57.8,75.1,70.5,11.2
532.0,78.8,56.8,75.9,70.5,12.0
533.0,77.8,57.2,76.4,70.4,11.5
534.0,77.0,57.2,75.9,70.1,11.1
535.0,78.3,58.5,76.7,71.2,11.0
536.0,77.1,57.7,76.5,70.4,11.0
537.0,78.9,57.7,76.7,71.1,11.7
538.0,78.6,57.3,78.3,71.4,12.2
539.0,78.3,58.1,77.8,71.4,11.5
540.0,77.5,57.8,77.7,71.0,11.4
541.0,77.4,58.8,79.2,71.8,11.3
542.0,77.1,57.9,79.6,71.6,11.9
543.0,78.2,57.8,79.6,71.8,12.2
544.0,76.6,58.8,78.6,71.3,10.9
545.0,78.3,58.3,79.7,72.1,11.9
546.0,78.8,59.0,78.7,72.2,11.4
547.0,78.9,59.2,79.4,72.5,11.6
548.0,77.4,59.1,79.8,72.1,11.3
549.0,79.1,60.2,78.8,72.7,10.8
550.0,78.9,60.0,78.0,72.3,10.7
551.0,76.6,59.8,79.2,71.8,10.5
552.0,78.9,59.9,79.7,72.8,11.2
553.0,77.6,59.9,78.9,72.1,10.6
554.0,79.0,60.6,78.6,72.8,10.5
555.0,78.9,60.2,80.3,73.1,11.2
556.0,77.5,59.9,78.9,72.1,10.6
557.0,79.8,60.5,80.3,73.5,11.2
558.0,78.5,61.3,81.7,73.8,10.9
559.0,79.8,60.9,81.3,74.0,11.4
560.0,78.3,61.7,80.9,73.6,10.4
561.0,78.9,61.8,80.5,73.7,10.4
562.0,79.2,61.3,79.8,73.4,10.5
563.0,78.5,62.4,81.0,74.0,10.1
564.0,78.1,63.0,82.5,74.5,10.2
565.0,78.4,63.4,82.7,74.9,10.1
566.0,78.4,63.7,81.3,74.5,9.4
567.0,79.4,64.1,83.0,75.5,10.1
568.0,79.3,63.9,82.9,75.4,10.1
569.0,79.2,64.8,81.9,75.3,9.2
570.0,79.1,63.6,82.6,75.1,10.1
571.0,79.1,64.9,83.6,75.9,9.7
572.0,77.8,64.7,83.3,75.3,9.6
573.0,80.5,65.5,83.6,76.5,9.7
574.0,81.4,65.8,84.6,77.3,10.1
575.0,78.9,64.7,84.4,76.0,10.2
576.0,79.8,66.2,86.2,77.4,10.3
577.0,80.6,67.0,86.0,77.9,9.8
578.0,80.8,66.4,86.5,77.9,10.4
579.0,80.4,65.2,85.1,76.9,10.4
580.0,81.5,65.1,85.4,77.3,10.8
581.0,80.2,65.8,85.2,77.1,10.1
582.0,81.2,66.4,84.9,77.5,9.8
583.0,80.4,64.7,85.7,77.0,10.9
584.0,82.7,65.3,85.3,77.8,10.9
585.0,80.9,66.1,85.3,77.4,10.0
586.0,82.4,66.0,86.8,78.4,11.0
587.0,81.3,67.0,86.9,78.4,10.2
588.0,82.3,68.2,86.3,79.0,9.5
589.0,81.5,68.0,86.1,78.6,9.4
590.0,82.9,68.3,86.0,79.1,9.4
591.0,83.5,67.8,87.4,79.6,10.4
592.0,82.5,68.6,85.7,78.9,9.1
593.0,83.2,67.7,87.6,79.5,10.4
594.0,82.9,68.1,85.9,79.0,9.5
595.0,84.0,67.7,87.4,79.7,10.5
596.0,84.0,68.2,88.0,80.1,10.4
597.0,84.2,68.3,85.1,79.2,9.5
598.0,84.0,68.3,88.4,80.2,10.6
599.0,83.9,69.4,87.8,80.4,9.7
600.0,84.3,67.3,88.2,80.0,11.1
601.0,84.6,68.4,87.3,80.1,10.2
602.0,84.6,69.2,88.4,80.8,10.2
603.0,84.4,68.8,89.2,80.8,10.7
604.0,85.2,69.0,88.6,80.9,10.5
605.0,84.7,69.8,88.9,81.1,10.1
606.0,84.6,69.5,89.0,81.0,10.2
607.0,83.7,69.8,88.2,80.5,9.6
608.0,85.2,71.1,89.6,82.0,9.7
609.0,85.6,70.4,90.5,82.2,10.5
610.0,86.5,70.5,89.8,82.3,10.3
611.0,86.3,70.7,91.5,82.9,10.8
612.0,85.7,72.1,90.8,82.8,9.7
613.0,85.5,71.2,90.2,82.3,9.8
614.0,86.1,71.8,90.0,82.6,9.6
615.0,86.2,72.3,90.0,82.8,9.3
616.0,87.1,72.2,90.9,83.4,9.9
617.0,87.1,72.6,90.9,83.5,9.7
618.0,87.3,73.3,91.4,84.0,9.5
619.0,88.4,73.4,91.2,84.3,9.6
620.0,89.5,72.8,91.6,84.6,10.3
621.0,90.3,72.8,90.2,84.5,10.1
622.0,89.7,74.6,91.8,85.4,9.4
623.0,90.5,73.8,91.7,85.4,10.0
624.0,91.3,73.9,91.8,85.7,10.2
625.0,91.6,75.1,92.6,86.4,9.8
626.0,92.1,73.9,93.6,86.6,11.0
627.0,89.6,74.2,92.5,85.4,9.8
628.0,90.7,75.8,92.3,86.3,9.1
629.0,89.7,75.0,93.4,86.0,9.8
630.0,91.7,75.7,94.2,87.2,10.1
631.0,91.1,74.9,94.1,86.7,10.3
632.0,93.5,74.8,95.2,87.8,11.3
633.0,91.4,75.5,96.1,87.7,10.8
634.0,92.7,76.1,95.1,87.9,10.3
635.0,92.0,76.6,96.0,88.2,10.2
636.0,93.6,76.4,95.1,88.4,10.4
637.0,93.6,76.7,95.1,88.5,10.2
638.0,95.2,75.6,94.4,88.4,11.1
639.0,94.9,75.8,95.9,88.9,11.3
640.0,94.6,77.8,95.5,89.3,10.0
641.0,95.6,77.7,95.1,89.5,10.2
642.0,95.7,77.3,94.9,89.3,10.4
643.0,96.8,78.5,94.3,89.9,9.9
644.0,96.9,78.8,95.4,90.4,10.1
645.0,96.6,78.2,94.3,89.7,10.0
646.0,98.9,78.3,95.1,90.7,11.0
647.0,99.8,77.7,96.4,91.3,11.9
648.0,99.6,79.7,96.3,91.9,10.6
649.0,100.2,80.0,96.6,92.2,10.8
650.0,100.4,80.2,95.9,92.2,10.6
651.0,100.6,79.6,96.8,92.3,11.2
652.0,101.4,80.6,97.3,93.1,11.0
653.0,100.0,81.9,96.6,92.9,9.6
654.0,100.2,80.1,96.6,92.3,10.8
655.0,101.3,80.9,97.8,93.3,10.9
656.0,101.7,81.6,97.0,93.4,10.5
657.0,100.2,81.7,98.5,93.5,10.2
658.0,102.6,81.7,98.0,94.1,11.0
659.0,101.7,81.9,100.8,94.8,11.2
660.0,102.1,81.7,98.5,94.1,10.9
661.0,102.9,82.0,99.2,94.7,11.1
662.0,102.8,82.4,100.5,95.2,11.2
663.0,103.7,82.3,101.0,95.6,11.6
664.0,103.8,81.9,100.3,95.3,11.7
665.0,106.0,80.9,101.9,96.3,13.4
666.0,106.2,81.5,102.6,96.8,13.4
667.0,106.4,82.3,100.3,96.3,12.5
668.0,106.1,82.4,104.2,97.6,13.2
669.0,106.0,82.9,103.3,97.4,12.6
670.0,107.5,82.4,102.3,97.4,13.2
671.0,109.7,82.5,104.2,98.8,14.4
672.0,107.8,83.5,102.7,98.0,12.8
673.0,108.7,82.3,103.7,98.3,14.0
674.0,108.8,82.7,104.7,98.7,14.0
675.0,110.2,84.0,104.5,99.6,13.8
676.0,111.5,83.2,105.8,100.2,15.0
677.0,110.6,84.2,105.1,100.0,14.0
678.0,112.1,84.5,106.7,101.1,14.6
679.0,112.8,85.0,109.1,102.3,15.1
680.0,112.2,86.6,109.1,102.6,14.0
681.0,114.4,84.8,110.5,103.2,16.1
682.0,114.6,85.1,107.8,102.5,15.5
683.0,116.2,85.4,108.5,103.4,16.0
684.0,116.1,86.6,108.4,103.7,15.3
685.0,118.0,86.3,109.6,104.6,16.4
686.0,118.3,84.8,109.9,104.3,17.4
687.0,119.1,85.2,108.3,104.2,17.3
688.0,120.7,86.6,110.4,105.9,17.5
689.0,120.4,86.0,110.1,105.5,17.7
690.0,120.2,85.1,111.3,105.5,18.2
691.0,121.3,85.1,110.5,105.6,18.6
692.0,120.5,86.0,111.7,106.1,17.9
693.0,122.2,85.7,109.5,105.8,18.6
694.0,123.6,85.5,111.5,106.9,19.4
695.0,122.8,86.3,112.5,107.2,18.8
696.0,124.8,86.2,112.4,107.8,19.7
697.0,124.5,86.2,113.2,108.0,19.7
698.0,126.3,88.5,114.1,109.6,19.3
699.0,125.3,88.0,113.2,108.8,19.0
700.0,126.9,87.3,113.5,109.2,20.1
701.0,129.5,89.1,115.8,111.5,20.5
702.0,129.1,87.5,117.5,111.4,21.5
703.0,128.1,89.2,115.9,111.0,19.9
704.0,129.0,89.4,117.2,111.9,20.3
705.0,130.0,90.2,117.8,112.7,20.4
706.0,128.7,91.0,118.3,112.7,19.5
707.0,130.4,89.1,119.0,112.8,21.3
708.0,133.2,90.0,118.0,113.7,21.9
709.0,133.9,89.5,118.1,113.8,22.5
710.0,135.4,88.4,118.8,114.2,23.8
711.0,136.3,90.7,117.1,114.7,22.9
712.0,133.7,90.7,118.3,114.2,21.8
713.0,137.2,91.4,119.9,116.2,23.1
714.0,138.1,92.0,121.8,117.3,23.4
715.0,135.7,92.6,119.8,116.0,21.8
716.0,137.1,91.9,124.1,117.7,23.3
717.0,138.0,92.8,122.5,117.8,23.0
718.0,138.5,93.7,124.3,118.8,22.9
719.0,138.0,94.5,123.3,118.6,22.1
720.0,139.7,93.5,126.4,119.9,23.8
721.0,140.3,93.7,124.6,119.5,23.7
722.0,140.6,94.3,122.5,119.1,23.3
723.0,140.1,95.1,123.7,119.7,22.7
724.0,140.6,94.6,126.8,120.7,23.6
725.0,140.8,95.9,126.5,121.1,23.0
726.0,141.4,95.6,126.6,121.2,23.4
727.0,142.4,96.9,126.3,121.9,23.1
728.0,143.8,97.5,128.5,123.2,23.6
729.0,143.5,96.3,126.0,121.9,23.9
730.0,146.7,97.1,127.3,123.7,25.0
731.0,144.3,96.3,126.5,122.4,24.3
732.0,144.2,97.5,131.0,124.2,24.1
733.0,147.9,96.9,128.7,124.5,25.8
734.0,147.3,97.8,129.9,125.0,25.1
735.0,149.7,99.1,130.8,126.5,25.6
736.0,149.1,98.9,131.9,126.7,25.5
737.0,150.1,100.0,133.0,127.7,25.5
738.0,151.1,100.3,131.7,127.7,25.7
739.0,149.9,101.2,133.4,128.2,24.7
740.0,150.5,102.2,133.9,128.9,24.5
741.0,149.8,101.7,134.2,128.6,24.5
742.0,152.5,103.2,133.7,129.8,24.9
743.0,153.7,102.8,134.7,130.4,25.7
744.0,151.2,101.8,137.0,130.0,25.4
745.0,151.8,103.1,138.5,131.2,25.2
746.0,152.0,105.2,138.7,132.0,24.1
747.0,153.3,104.5,137.3,131.7,24.9
748.0,155.2,105.7,139.9,133.6,25.4
749.0,154.6,106.1,139.5,133.4,24.8
750.0,153.1,106.6,140.5,133.4,24.1
751.0,155.6,107.1,140.6,134.4,24.8
752.0,157.0,105.7,141.2,134.7,26.3
753.0,155.8,105.3,142.1,134.4,26.1
754.0,157.7,107.2,143.3,136.1,26.0
755.0,159.1,106.9,143.9,136.6,26.9
756.0,159.2,107.4,145.2,137.3,26.8
757.0,159.1,106.9,144.4,136.8,26.9
758.0,160.8,109.3,146.2,138.8,26.6
759.0,162.7,107.8,145.5,138.7,28.1
760.0,161.1,108.7,145.6,138.5,26.9
761.0,163.7,109.1,146.6,139.8,27.9
762.0,164.7,109.2,145.5,139.8,28.2
763.0,163.4,110.0,148.5,140.6,27.6
764.0,165.1,110.0,148.9,141.3,28.3
765.0,164.3,111.2,147.8,141.1,27.2
766.0,163.4,111.2,148.6,141.1,26.9
767.0,162.9,111.5,150.3,141.6,26.8
768.0,166.4,112.4,148.8,142.5,27.5
769.0,164.4,113.1,151.1,142.9,26.6
770.0,170.1,114.6,152.8,145.8,28.4
771.0,169.4,112.7,150.3,144.1,28.8
772.0,167.6,115.5,151.4,144.8,26.7
773.0,166.8,116.3,153.8,145.6,26.3
774.0,166.4,115.6,152.4,144.8,26.2
775.0,171.6,116.0,153.0,146.9,28.3
776.0,169.6,119.6,156.5,148.6,25.9
777.0,167.7,119.9,154.7,147.4,24.8
778.0,170.7,119.7,157.7,149.4,26.5
779.0,170.2,119.0,159.8,149.7,27.1
780.0,171.2,118.9,157.3,149.2,27.1
781.0,171.8,119.7,156.9,149.5,26.9
782.0,177.1,123.0,157.1,152.4,27.4
783.0,175.0,122.3,157.2,151.5,26.8
784.0,176.2,124.4,157.8,152.8,26.2
785.0,176.0,124.6,159.1,153.2,26.2
786.0,175.0,124.6,163.8,154.5,26.4
787.0,176.9,125.6,161.3,154.6,26.3
788.0,175.2,125.9,162.6,154.6,25.6
789.0,179.2,128.5,160.0,155.9,25.6
790.0,172.4,128.1,163.2,154.6,23.3
791.0,177.1,129.1,163.4,156.6,24.7
792.0,178.6,130.3,161.2,156.7,24.5
793.0,176.8,131.4,165.5,157.9,23.7
794.0,177.8,130.8,163.2,157.3,24.1
795.0,179.0,132.0,166.0,159.0,24.3
796.0,176.5,135.4,168.6,160.2,21.8
797.0,182.5,133.6,164.9,160.3,24.8
798.0,181.4,135.1,167.2,161.2,23.7
799.0,179.8,135.4,169.9,161.7,23.3
800.0,180.4,136.2,170.7,162.5,23.2
801.0,176.0,138.7,170.9,161.9,20.2
802.0,179.6,136.7,171.9,162.7,22.9
803.0,181.3,139.6,170.0,163.6,21.6
804.0,180.6,136.8,170.7,162.7,23.0
805.0,182.9,140.8,173.2,165.6,22.1
806.0,183.7,140.7,170.2,164.9,22.0
807.0,179.9,145.2,171.4,165.5,18.1
808.0,185.8,141.8,171.6,166.4,22.5
809.0,183.0,144.7,175.0,167.6,20.2
810.0,184.5,144.5,174.5,167.8,20.8
811.0,184.0,146.3,174.1,168.1,19.6
812.0,186.0,145.8,177.4,169.7,21.1
813.0,185.2,148.4,174.9,169.5,19.0
814.0,186.2,146.6,174.8,169.2,20.4
815.0,183.7,150.4,176.3,170.1,17.5
816.0,188.1,153.1,177.5,172.9,18.0
817.0,186.3,150.9,178.4,171.9,18.6
818.0,188.3,154.2,176.0,172.9,17.2
819.0,188.4,158.3,177.3,174.7,15.2
820.0,186.7,158.1,179.6,174.8,14.9
821.0,187.2,155.1,181.2,174.5,17.0
822.0,185.6,162.0,179.6,175.7,12.2
823.0,189.6,162.2,181.8,177.9,14.1
824.0,185.9,162.3,185.8,178.0,13.6
825.0,187.3,163.6,180.7,177.2,12.2
826.0,185.7,162.4,180.3,176.1,12.2
827.0,188.3,163.8,183.5,178.5,13.0
828.0,188.1,163.0,181.1,177.4,13.0
829.0,188.9,166.8,185.3,180.3,11.8
830.0,184.9,165.5,180.4,176.9,10.2
831.0,187.1,169.1,181.4,179.2,9.2
832.0,191.4,169.3,182.7,181.1,11.2
833.0,185.4,169.2,182.0,178.8,8.6
834.0,189.1,171.0,182.7,180.9,9.2
835.0,191.9,170.4,184.0,182.1,10.9
836.0,189.4,174.9,186.3,183.5,7.6
837.0,190.9,174.2,187.1,184.1,8.8
838.0,189.4,173.8,186.1,183.1,8.2
839.0,191.4,177.7,190.6,186.6,7.7
840.0,193.1,179.7,185.2,186.0,6.7
841.0,191.3,180.3,184.9,185.5,5.5
842.0,191.8,185.3,186.6,187.9,3.4
843.0,190.2,182.7,188.2,187.0,3.9
844.0,191.3,180.6,186.7,186.2,5.4
845.0,192.5,178.8,189.7,187.0,7.2
846.0,192.7,185.3,189.4,189.1,3.7
847.0,192.2,183.1,188.9,188.1,4.6
848.0,190.6,187.7,188.4,188.9,1.5
849.0,191.0,186.1,185.5,187.5,3.0
850.0,193.8,185.2,189.3,189.4,4.3
851.0,190.6,191.1,184.8,188.8,3.5
852.0,190.8,189.2,186.2,188.7,2.3
853.0,188.0,191.9,188.5,189.5,2.1
854.0,191.1,195.1,190.8,192.3,2.4
855.0,193.0,196.1,185.2,191.4,5.6
856.0,192.3,194.6,186.7,191.2,4.0
857.0,191.5,197.9,188.6,192.6,4.7
858.0,192.7,195.4,186.3,191.5,4.7
859.0,192.7,193.7,189.1,191.8,2.4
860.0,191.0,197.8,184.6,191.2,6.6
861.0,190.1,197.9,188.7,192.2,4.9
862.0,193.4,197.1,188.8,193.1,4.2
863.0,194.9,195.4,187.1,192.5,4.6
864.0,191.5,198.2,187.7,192.5,5.3
865.0,192.5,197.9,184.7,191.7,6.7
866.0,193.4,199.8,187.2,193.5,6.3
867.0,194.0,197.8,186.0,192.6,6.0
868.0,192.7,202.7,187.0,194.1,7.9
869.0,193.4,198.7,187.5,193.2,5.6
870.0,191.7,201.7,183.0,192.2,9.3
871.0,198.0,202.5,189.5,196.7,6.6
872.0,195.8,203.6,189.3,196.3,7.2
873.0,195.2,201.7,183.7,193.5,9.1
874.0,193.8,205.3,183.8,194.3,10.7
875.0,195.4,204.0,187.9,195.8,8.1
876.0,192.8,206.6,183.0,194.1,11.8
877.0,193.0,206.7,184.9,194.9,11.0
878.0,196.3,206.0,183.3,195.2,11.4
879.0,195.4,207.9,182.0,195.1,13.0
880.0,195.8,202.5,181.9,193.4,10.5
881.0,194.7,201.0,183.0,192.9,9.1
882.0,192.8,206.0,180.9,193.2,12.5
883.0,196.2,204.6,183.0,194.6,10.9
884.0,192.5,203.4,184.0,193.3,9.8
885.0,197.3,208.2,181.2,195.6,13.6
886.0,197.6,206.5,182.9,195.7,11.9
887.0,193.8,205.5,178.3,192.6,13.6
888.0,194.6,204.7,179.4,192.9,12.7
889.0,192.5,207.0,181.6,193.7,12.7
890.0,188.0,204.8,179.1,190.6,13.1
891.0,192.6,209.8,177.8,193.4,16.0
892.0,192.7,207.3,179.1,193.1,14.1
893.0,188.6,207.7,178.5,191.6,14.8
894.0,196.1,206.8,180.8,194.5,13.1
895.0,193.5,210.1,178.4,194.0,15.9
896.0,193.6,211.0,181.2,195.3,14.9
897.0,189.0,212.0,177.8,192.9,17.5
898.0,193.7,213.0,180.1,195.6,16.5
899.0,191.3,208.5,179.3,193.0,14.7
900.0,191.2,210.3,179.8,193.7,15.4
901.0,193.6,210.0,179.7,194.4,15.2
902.0,191.0,214.9,177.7,194.5,18.9
903.0,191.4,213.3,176.9,193.9,18.3
904.0,192.2,209.1,176.8,192.7,16.2
905.0,188.1,213.2,178.3,193.2,18.0
906.0,184.3,211.7,178.1,191.4,17.9
907.0,186.7,208.6,178.0,191.1,15.8
908.0,186.6,214.0,174.9,191.8,20.0
909.0,186.7,209.8,181.1,192.5,15.2
910.0,182.3,211.4,176.9,190.2,18.6
911.0,185.2,212.7,176.0,191.3,19.1
912.0,186.4,209.4,177.9,191.2,16.3
913.0,184.9,211.7,179.0,191.9,17.4
914.0,183.9,209.1,173.8,188.9,18.2
915.0,184.4,208.7,178.1,190.4,16.2
916.0,178.9,210.6,173.5,187.7,20.0
917.0,180.5,209.7,177.6,189.3,17.8
918.0,177.9,212.5,178.3,189.5,19.8
919.0,182.9,209.9,176.1,189.7,17.9
920.0,180.9,210.4,174.5,188.6,19.1
921.0,179.5,212.5,176.0,189.3,20.1
922.0,178.6,206.8,175.5,187.0,17.3
923.0,178.0,215.0,177.3,190.1,21.6
924.0,178.4,214.0,173.2,188.5,22.2
925.0,178.4,212.3,176.3,189.0,20.2
926.0,175.2,209.0,175.5,186.6,19.4
927.0,176.0,213.9,179.9,190.0,20.9
928.0,171.4,211.9,177.4,186.9,21.9
929.0,176.2,211.0,175.1,187.4,20.4
930.0,176.6,210.0,176.2,187.6,19.4
931.0,173.2,212.9,175.3,187.1,22.3
932.0,172.1,209.5,176.4,186.0,20.5
933.0,173.5,210.9,175.3,186.6,21.1
934.0,173.5,211.1,177.6,187.4,20.6
935.0,170.7,211.9,173.9,185.5,22.9
936.0,167.9,209.8,176.0,184.6,22.2
937.0,170.2,211.8,176.8,186.3,22.3
938.0,167.3,206.0,176.3,183.2,20.2
939.0,168.2,210.8,176.3,185.1,22.6
940.0,166.9,213.0,177.1,185.6,24.2
941.0,167.9,213.2,170.8,184.0,25.4
942.0,166.2,210.2,174.4,183.6,23.4
943.0,168.7,207.0,177.9,184.6,20.0
944.0,163.9,208.1,176.0,182.6,22.9
945.0,164.1,212.0,174.3,183.5,25.3
946.0,165.0,211.7,174.4,183.7,24.7
947.0,165.4,208.7,175.5,183.2,22.7
948.0,166.4,208.6,178.8,184.6,21.7
949.0,164.8,211.3,177.6,184.6,24.0
950.0,164.1,208.3,177.4,183.2,22.7
951.0,164.7,210.6,174.7,183.3,24.1
952.0,161.5,207.2,171.9,180.2,24.0
953.0,162.5,209.1,175.6,182.4,24.1
954.0,163.7,210.4,177.3,183.8,24.0
955.0,161.4,208.3,177.0,182.2,23.9
956.0,160.8,207.6,175.9,181.4,23.9
957.0,159.2,207.3,172.7,179.7,24.8
958.0,158.8,213.2,175.8,182.6,27.8
959.0,155.8,211.4,175.8,181.0,28.2
960.0,155.9,209.4,173.6,179.6,27.3
961.0,153.7,205.5,173.3,177.5,26.1
962.0,152.8,212.7,176.3,180.6,30.2
963.0,150.0,208.3,174.9,177.8,29.3
964.0,149.9,205.3,174.1,176.4,27.8
965.0,150.5,205.7,173.8,176.7,27.7
966.0,148.4,208.1,176.5,177.7,29.9
967.0,143.1,210.2,177.5,177.0,33.5
968.0,145.5,205.7,176.7,176.0,30.1
969.0,144.1,208.2,175.9,176.1,32.1
970.0,142.9,205.2,172.3,173.5,31.1
971.0,141.6,204.0,175.4,173.7,31.2
972.0,139.5,205.2,173.6,172.8,32.9
973.0,137.2,206.7,172.7,172.2,34.7
974.0,136.1,204.9,172.4,171.1,34.4
975.0,135.5,197.7,172.5,168.6,31.3
976.0,133.3,198.5,171.3,167.7,32.7
977.0,130.2,200.9,174.3,168.5,35.7
978.0,129.3,196.7,172.5,166.2,34.1
979.0,126.4,200.7,169.9,165.7,37.3
980.0,123.3,194.1,172.7,163.4,36.3
981.0,121.4,195.9,171.0,162.8,38.0
982.0,120.0,194.2,171.6,161.9,38.0
983.0,116.4,191.5,170.0,159.3,38.7
984.0,115.1,190.4,170.9,158.8,39.1
985.0,108.7,191.7,169.7,156.7,43.0
986.0,106.4,192.1,169.9,156.1,44.5
987.0,105.0,187.7,168.2,153.6,43.2
988.0,102.1,183.7,163.2,149.7,42.4
989.0,98.7,188.7,163.1,150.2,46.3
990.0,95.2,182.9,163.4,147.2,46.0
991.0,94.0,180.7,161.7,145.5,45.5
992.0,90.8,178.0,162.4,143.8,46.5
993.0,88.9,180.7,157.3,142.3,47.7
994.0,87.2,177.3,156.5,140.3,47.2
995.0,85.9,174.1,151.0,137.0,45.8
996.0,85.2,171.8,146.2,134.4,44.5
997.0,82.6,170.2,145.6,132.8,45.2
998.0,81.6,170.4,141.7,131.2,45.3
999.0,79.5,167.4,141.4,129.5,45.2
1000.0,79.1,164.7,138.2,127.3,43.8
1001.0,78.1,165.0,135.5,126.2,44.1
1002.0,78.3,162.3,130.3,123.6,42.4
1003.0,77.4,157.8,129.8,121.7,40.8
1004.0,76.5,156.7,127.6,120.3,40.6
1005.0,76.9,153.5,125.1,118.5,38.7
1006.0,75.8,148.9,119.9,114.9,36.8
1007.0,75.2,146.7,118.2,113.4,36.0
1008.0,74.5,146.8,117.2,112.8,36.4
1009.0,74.5,142.2,110.8,109.2,33.9
1010.0,73.2,141.7,108.7,107.8,34.3
1011.0,73.3,138.0,105.9,105.7,32.4
1012.0,71.0,137.7,103.1,104.0,33.4
1013.0,71.0,136.2,103.0,103.4,32.6
1014.0,69.9,129.6,99.0,99.5,29.9
1015.0,68.4,129.6,95.0,97.7,30.7
1016.0,67.0,126.3,94.8,96.0,29.7
1017.0,66.9,122.3,91.5,93.6,27.7
1018.0,67.3,119.7,90.1,92.4,26.2
1019.0,66.7,117.1,86.2,90.0,25.4
1020.0,65.6,113.7,85.7,88.3,24.1
1021.0,66.1,111.9,84.1,87.4,23.1
1022.0,65.1,108.7,80.6,84.8,22.1
1023.0,64.8,104.9,80.3,83.3,20.2
1024.0,65.6,103.3,79.2,82.7,19.1
1025.0,65.1,100.7,77.9,81.2,18.1
1026.0,63.7,97.6,76.8,79.4,17.1
1027.0,63.6,95.1,76.0,78.2,15.9
1028.0,63.6,91.9,75.3,76.9,14.3
1029.0,63.5,90.0,74.3,75.9,13.3
1030.0,62.9,86.7,72.4,74.0,12.0
1031.0,63.7,87.4,70.4,73.9,12.2
1032.0,62.7,83.7,70.7,72.4,10.6
1033.0,62.5,84.2,70.2,72.3,11.0
1034.0,62.1,84.2,69.3,71.9,11.3
1035.0,61.6,83.4,67.9,71.0,11.2
1036.0,62.2,80.9,66.6,69.9,9.8
1037.0,62.0,77.8,64.9,68.2,8.4
1038.0,62.4,77.5,65.3,68.4,8.0
1039.0,62.2,76.2,63.3,67.2,7.8
1040.0,61.7,74.7,62.9,66.5,7.2
1041.0,61.9,73.9,61.7,65.8,7.0
1042.0,62.0,71.2,60.9,64.7,5.6
1043.0,62.5,70.3,60.3,64.3,5.3
1044.0,62.5,69.2,59.8,63.9,4.8
1045.0,63.0,67.8,59.1,63.3,4.4
1046.0,63.3,66.8,57.9,62.7,4.5
1047.0,63.6,63.9,58.1,61.9,3.2
1048.0,64.7,64.0,56.5,61.7,4.6
1049.0,65.5,62.4,56.3,61.4,4.6
1050.0,65.1,61.2,55.5,60.6,4.8
1051.0,66.4,60.9,55.5,60.9,5.4
1052.0,67.3,60.0,54.8,60.7,6.2
1053.0,67.3,59.2,55.8,60.8,5.9
1054.0,66.5,58.6,55.6,60.2,5.6
1055.0,68.3,58.6,54.7,60.5,7.0
1056.0,67.3,58.3,54.5,60.0,6.5
1057.0,66.4,58.6,53.7,59.6,6.4
1058.0,65.9,56.7,53.6,58.7,6.4
1059.0,66.5,55.9,53.3,58.6,7.0
1060.0,65.5,55.4,52.6,57.8,6.8
1061.0,64.0,55.4,52.1,57.2,6.1
1062.0,64.6,54.6,51.9,57.0,6.7
1063.0,63.3,53.7,51.4,56.1,6.3
1064.0,63.6,52.8,51.8,56.1,6.5
1065.0,63.7,53.5,50.9,56.1,6.8
1066.0,63.4,53.3,50.6,55.8,6.8
1067.0,63.5,51.9,50.3,55.2,7.2
1068.0,63.5,51.6,50.3,55.1,7.3
1069.0,64.2,51.1,50.6,55.3,7.7
1070.0,63.1,51.0,50.4,54.8,7.1
1071.0,61.7,51.5,49.7,54.3,6.5
1072.0,62.8,50.6,49.3,54.2,7.5
1073.0,63.4,50.1,49.1,54.2,8.0
1074.0,64.6,50.6,48.8,54.7,8.6
1075.0,63.8,50.1,48.6,54.1,8.4
1076.0,63.4,49.6,48.7,53.9,8.2
1077.0,64.5,49.5,48.1,54.1,9.1
1078.0,64.8,48.9,48.9,54.2,9.2
1079.0,64.0,48.8,46.9,53.3,9.4
1080.0,63.5,48.6,47.9,53.3,8.8
1081.0,65.2,49.5,46.9,53.8,9.9
1082.0,64.4,48.9,47.4,53.6,9.4
1083.0,64.2,50.0,46.9,53.7,9.2
1084.0,64.0,49.2,46.7,53.3,9.4
1085.0,64.4,49.9,48.1,54.1,9.0
1086.0,63.5,48.8,47.9,53.4,8.8
1087.0,63.2,49.2,47.3,53.2,8.7
1088.0,64.2,48.6,47.1,53.3,9.5
1089.0,63.6,48.1,48.3,53.3,8.9
1090.0,64.6,49.0,47.5,53.7,9.5
1091.0,64.1,48.4,47.4,53.3,9.3
1092.0,65.0,48.1,47.1,53.4,10.1
1093.0,63.7,48.6,46.3,52.9,9.4
1094.0,63.9,47.9,46.6,52.8,9.7
1095.0,64.6,47.8,46.8,53.0,10.0
1096.0,63.4,47.7,45.8,52.3,9.6
1097.0,64.5,47.9,45.6,52.7,10.3
1098.0,63.3,47.5,45.8,52.2,9.6
1099.0,64.2,46.8,45.6,52.2,10.4
1100.0,63.5,46.4,46.1,52.0,10.0
1101.0,63.1,45.1,44.8,51.0,10.5
1102.0,64.5,45.0,44.3,51.2,11.5
1103.0,64.4,44.2,44.4,51.0,11.6
1104.0,63.6,43.5,43.3,50.1,11.6
1105.0,63.8,43.3,,53.5,14.5
1106.0,63.7,43.4,,53.5,14.4
1107.0,63.8,42.7,,53.2,15.0
1108.0,64.2,42.3,,53.3,15.5
1109.0,63.6,42.0,,52.8,15.3
1110.0,63.8,41.5,,52.6,15.8
1111.0,61.9,40.7,,51.3,14.9
1112.0,63.1,40.8,,51.9,15.8
1113.0,61.7,40.5,,51.1,15.0
1114.0,62.2,40.6,,51.4,15.3
1115.0,61.3,39.4,,50.3,15.5
1116.0,61.7,38.7,,50.2,16.3
1117.0,62.0,38.8,,50.4,16.4
1118.0,61.3,,,61.3,
1119.0,60.5,,,60.5,
1120.0,61.6,,,61.6,
1121.0,60.8,,,60.8,
1122.0,61.1,,,61.1,
1123.0,59.7,,,59.7,
1124.0,60.7,,,60.7,
1125.0,60.9,,,60.9,
1126.0,60.9,,,60.9,
1127.0,60.5,,,60.5,
1128.0,59.8,,,59.8,
1129.0,60.5,,,60.5,
1130.0,59.6,,,59.6,
1131.0,60.3,,,60.3,
1132.0,61.0,,,61.0,
1133.0,59.2,,,59.2,
1134.0,60.2,,,60.2,
1135.0,60.7,,,60.7,
1136.0,59.3,,,59.3,
1137.0,60.1,,,60.1,
1138.0,58.1,,,58.1,
1139.0,55.9,,,55.9,
1140.0,54.0,,,54.0,
1141.0,53.9,,,53.9,
1142.0,52.6,,,52.6,
1143.0,52.4,,,52.4,
1144.0,52.2,,,52.2,
1145.0,51.8,,,51.8,
1146.0,50.8,,,50.8,
1147.0,50.9,,,50.9,
1148.0,50.8,,,50.8,
1149.0,50.5,,,50.5,
1149.25,51.2,,,51.2,