File: 01_Data/Engineered_Wood_Furniture/Cone/Engineered_Wood_Furniture_HRRPUA_75.csv
Time after Ignition,Engineered_Wood_Furniture_R1,Engineered_Wood_Furniture_R2,Engineered_Wood_Furniture_R3,Mean,Std. Dev.
0.0,21.9,17.1,17.2,18.7,2.8
0.75,34.9,35.5,25.2,31.9,5.8
1.5,55.3,59.1,34.3,49.6,13.4
2.25,84.1,90.2,43.2,72.5,25.5
3.0,130.5,143.6,52.0,108.7,49.5
3.75,184.5,247.6,66.1,166.1,92.2
4.5,235.6,320.8,91.6,216.0,115.8
5.25,260.4,407.1,119.1,262.2,144.0
6.0,316.9,448.4,163.5,309.6,142.6
6.75,367.7,507.0,220.2,365.0,143.4
7.5,407.5,538.6,273.3,406.5,132.6
8.25,439.0,560.3,332.9,444.1,113.8
9.0,464.2,594.7,385.5,481.5,105.7
9.75,491.0,611.0,439.8,513.9,87.9
10.5,473.4,621.7,481.7,525.6,83.3
11.25,470.7,590.1,507.7,522.9,61.2
12.0,446.8,538.4,530.0,505.1,50.6
12.75,444.3,496.1,547.5,496.0,51.6
13.5,443.9,452.1,534.5,476.8,50.1
14.25,424.5,429.4,526.6,460.2,57.6
15.0,413.5,403.4,509.9,442.3,58.8
15.75,415.0,390.3,478.4,427.9,45.4
16.5,418.7,377.1,455.7,417.2,39.3
17.25,419.5,369.3,431.0,406.6,32.8
18.0,437.6,358.6,391.9,396.0,39.7
18.75,436.1,367.7,367.5,390.4,39.6
19.5,445.3,365.5,352.4,387.7,50.3
20.25,443.2,368.8,347.5,386.5,50.3
21.0,455.7,378.1,331.1,388.3,62.9
21.75,465.0,370.4,319.8,385.1,73.7
22.5,458.1,379.2,325.8,387.7,66.6
23.25,467.6,376.2,328.9,390.9,70.5
24.0,479.7,389.6,342.3,403.9,69.8
24.75,481.7,393.6,336.5,404.0,73.1
25.5,473.7,404.5,352.7,410.3,60.7
26.25,474.1,414.2,361.2,416.5,56.5
27.0,492.1,403.8,372.5,422.8,62.0
27.75,483.9,410.6,381.0,425.1,53.0
28.5,477.3,416.2,384.8,426.1,47.0
29.25,490.0,417.3,398.4,435.2,48.4
30.0,467.1,421.7,397.2,428.7,35.5
30.75,478.3,419.6,405.3,434.4,38.7
31.5,463.5,426.1,410.4,433.3,27.3
32.25,466.6,416.4,421.6,434.8,27.7
33.0,455.3,420.6,411.1,429.0,23.3
33.75,443.6,424.2,423.9,430.6,11.3
34.5,447.4,404.3,431.4,427.7,21.8
35.25,443.1,404.9,423.8,423.9,19.1
36.0,419.8,402.6,419.2,413.9,9.8
36.75,419.7,395.8,424.2,413.3,15.2
37.5,414.6,392.7,421.3,409.5,14.9
38.25,407.7,390.6,415.8,404.7,12.9
39.0,398.1,381.0,411.8,397.0,15.4
39.75,395.0,384.5,413.7,397.7,14.8
40.5,387.9,376.1,412.9,392.3,18.8
41.25,382.0,375.1,406.8,388.0,16.6
42.0,380.7,363.1,413.4,385.7,25.5
42.75,378.6,363.0,405.8,382.5,21.7
43.5,375.7,357.9,403.6,379.1,23.0
44.25,362.6,359.9,404.5,375.7,25.0
45.0,362.9,358.1,390.3,370.4,17.4
45.75,353.5,360.4,388.1,367.3,18.3
46.5,346.2,355.4,385.1,362.2,20.3
47.25,343.4,341.0,383.6,356.0,23.9
48.0,346.4,343.8,381.0,357.1,20.8
48.75,340.9,341.4,385.6,356.0,25.7
49.5,338.4,335.3,372.0,348.6,20.3
50.25,332.2,337.0,364.0,344.4,17.2
51.0,323.8,333.4,367.9,341.7,23.2
51.75,324.6,321.8,361.0,335.8,21.9
52.5,322.2,324.1,353.2,333.2,17.4
53.25,317.1,318.6,348.2,328.0,17.5
54.0,312.8,314.4,348.8,325.3,20.4
54.75,306.2,311.5,340.8,319.5,18.6
55.5,301.3,303.8,339.2,314.7,21.2
56.25,305.1,300.5,330.2,311.9,16.0
57.0,301.8,299.4,326.7,309.3,15.1
57.75,295.8,298.2,327.6,307.2,17.7
58.5,294.1,302.0,318.9,305.0,12.7
59.25,290.0,294.2,319.3,301.2,15.8
60.0,293.2,294.6,322.2,303.3,16.4
60.75,287.2,285.6,314.4,295.7,16.2
61.5,283.7,286.7,310.4,293.6,14.6
62.25,281.1,280.8,307.9,289.9,15.5
63.0,270.3,284.5,300.9,285.2,15.3
63.75,275.6,281.3,298.8,285.2,12.1
64.5,266.7,274.1,298.2,279.7,16.5
65.25,269.4,274.7,297.2,280.4,14.8
66.0,266.5,276.7,298.9,280.7,16.5
66.75,267.9,272.5,290.9,277.1,12.2
67.5,261.3,268.6,281.5,270.5,10.2
68.25,264.5,271.1,281.2,272.3,8.4
69.0,260.2,267.5,285.6,271.1,13.1
69.75,252.4,263.5,282.3,266.1,15.1
70.5,261.1,265.0,278.9,268.3,9.4
71.25,256.0,264.0,276.5,265.5,10.3
72.0,257.2,266.7,267.0,263.6,5.6
72.75,249.8,261.5,273.2,261.5,11.7
73.5,251.9,254.9,266.8,257.9,7.9
74.25,251.9,255.7,262.2,256.6,5.2
75.0,251.3,253.7,270.6,258.5,10.5
75.75,251.7,252.2,257.8,253.9,3.4
76.5,245.0,251.0,257.1,251.0,6.0
77.25,248.9,252.0,262.5,254.5,7.1
78.0,248.5,246.0,257.9,250.8,6.3
78.75,242.1,250.9,255.0,249.3,6.6
79.5,240.6,245.1,250.7,245.5,5.1
80.25,247.0,247.5,259.0,251.2,6.8
81.0,243.3,241.9,255.7,247.0,7.6
81.75,244.7,245.9,251.0,247.2,3.3
82.5,239.3,245.5,251.0,245.3,5.9
83.25,243.2,240.3,246.1,243.2,2.9
84.0,242.6,244.1,252.0,246.3,5.1
84.75,238.8,240.5,243.7,241.0,2.5
85.5,236.8,238.3,242.6,239.2,3.0
86.25,238.0,239.3,243.0,240.1,2.6
87.0,236.8,238.4,242.0,239.1,2.7
87.75,238.7,239.4,239.8,239.3,0.6
88.5,239.1,236.8,237.2,237.7,1.2
89.25,234.3,238.1,240.9,237.8,3.3
90.0,231.4,238.8,242.3,237.5,5.6
90.75,235.2,237.5,235.0,235.9,1.4
91.5,230.9,236.4,236.9,234.7,3.3
92.25,235.1,231.9,233.2,233.4,1.6
93.0,231.2,235.0,231.9,232.7,2.0
93.75,234.3,234.7,231.4,233.5,1.8
94.5,230.4,234.3,231.4,232.0,2.0
95.25,230.1,231.9,229.9,230.6,1.1
96.0,227.5,229.3,231.5,229.4,2.0
96.75,225.8,237.8,228.3,230.6,6.3
97.5,233.0,237.5,230.0,233.5,3.8
98.25,229.0,232.5,230.2,230.6,1.8
99.0,225.9,228.7,230.5,228.4,2.3
99.75,223.7,235.2,229.8,229.6,5.8
100.5,225.2,226.0,225.7,225.7,0.4
101.25,228.5,226.0,227.4,227.3,1.2
102.0,223.6,224.4,225.4,224.5,0.9
102.75,222.5,225.8,225.1,224.5,1.7
103.5,222.2,228.8,226.7,225.9,3.4
104.25,226.3,224.2,225.6,225.3,1.1
105.0,222.0,223.9,227.0,224.3,2.5
105.75,222.7,222.4,226.8,224.0,2.5
106.5,226.6,224.1,226.2,225.6,1.4
107.25,223.5,222.4,224.9,223.6,1.3
108.0,222.5,220.6,222.3,221.8,1.0
108.75,224.9,221.8,226.2,224.3,2.2
109.5,220.4,221.3,226.5,222.8,3.3
110.25,219.8,222.1,223.3,221.7,1.8
111.0,224.1,221.0,220.3,221.8,2.0
111.75,218.9,219.1,218.0,218.7,0.6
112.5,215.4,219.6,219.9,218.3,2.5
113.25,221.6,216.6,217.3,218.5,2.8
114.0,220.0,215.1,218.0,217.7,2.5
114.75,216.7,217.1,215.9,216.6,0.6
115.5,214.2,216.9,216.6,215.9,1.5
116.25,217.4,215.0,220.7,217.7,2.9
117.0,213.1,215.7,210.6,213.1,2.5
117.75,213.6,213.0,214.7,213.8,0.8
118.5,214.1,213.4,212.6,213.4,0.8
119.25,214.1,216.5,214.6,215.1,1.3
120.0,212.2,217.8,213.2,214.4,3.0
120.75,214.0,211.9,210.7,212.2,1.7
121.5,211.3,210.0,210.8,210.7,0.7
122.25,212.1,210.7,208.1,210.3,2.1
123.0,213.8,208.5,209.7,210.6,2.8
123.75,212.9,211.7,207.1,210.6,3.1
124.5,213.6,203.8,207.6,208.3,5.0
125.25,210.1,207.6,206.5,208.1,1.8
126.0,212.6,207.8,205.7,208.7,3.6
126.75,208.6,209.7,203.0,207.1,3.6
127.5,208.6,209.5,202.4,206.9,3.9
128.25,210.0,208.2,204.3,207.5,2.9
129.0,212.9,209.2,202.0,208.1,5.5
129.75,205.3,204.7,204.8,204.9,0.3
130.5,204.2,205.7,206.1,205.3,1.0
131.25,202.7,211.1,203.3,205.7,4.7
132.0,202.7,207.6,207.5,205.9,2.8
132.75,199.1,207.4,204.4,203.6,4.2
133.5,201.9,205.5,200.8,202.7,2.4
134.25,202.6,204.1,202.9,203.2,0.8
135.0,204.7,208.1,204.7,205.8,2.0
135.75,197.7,205.3,199.8,200.9,3.9
136.5,200.5,204.1,201.7,202.1,1.8
137.25,195.4,202.3,202.5,200.1,4.0
138.0,199.2,200.4,200.0,199.9,0.6
138.75,196.4,200.2,197.9,198.2,1.9
139.5,199.8,202.4,198.2,200.1,2.1
140.25,201.5,201.1,196.5,199.7,2.8
141.0,198.9,203.8,193.7,198.8,5.0
141.75,196.7,198.7,196.1,197.2,1.4
142.5,198.6,197.3,193.5,196.5,2.6
143.25,195.6,198.1,192.1,195.3,3.0
144.0,197.5,197.8,191.5,195.6,3.5
144.75,198.5,199.5,192.7,196.9,3.7
145.5,194.0,197.1,192.2,194.4,2.5
146.25,194.6,198.2,188.9,193.9,4.7
147.0,197.7,194.7,192.0,194.8,2.9
147.75,190.1,194.2,190.8,191.7,2.2
148.5,195.6,199.6,191.1,195.4,4.2
149.25,193.7,193.0,187.1,191.2,3.6
150.0,192.1,197.7,185.1,191.6,6.3
150.75,193.3,194.6,188.7,192.2,3.1
151.5,193.7,194.1,187.2,191.7,3.9
152.25,189.6,193.2,185.7,189.5,3.7
153.0,192.1,194.6,188.6,191.8,3.0
153.75,191.7,193.4,188.7,191.2,2.4
154.5,188.7,190.8,187.7,189.1,1.6
155.25,189.9,195.7,184.4,190.0,5.7
156.0,188.9,192.9,180.4,187.4,6.4
156.75,191.8,189.9,185.0,188.9,3.5
157.5,190.9,190.0,183.1,188.0,4.2
158.25,189.1,190.6,184.6,188.1,3.1
159.0,190.7,192.9,184.3,189.3,4.5
159.75,188.2,194.1,184.6,188.9,4.8
160.5,187.6,188.6,184.8,187.0,2.0
161.25,189.6,187.0,180.9,185.8,4.5
162.0,188.0,193.9,182.7,188.2,5.6
162.75,189.4,190.0,180.8,186.7,5.1
163.5,189.4,190.2,183.0,187.5,3.9
164.25,188.4,187.7,182.0,186.1,3.5
165.0,187.4,188.8,180.1,185.4,4.6
165.75,189.5,187.3,179.4,185.4,5.3
166.5,190.2,185.0,178.6,184.6,5.8
167.25,186.8,186.0,179.2,184.0,4.2
168.0,183.5,188.4,178.1,183.3,5.2
168.75,186.0,187.7,181.6,185.1,3.2
169.5,187.8,186.2,175.9,183.3,6.4
170.25,187.1,185.8,180.9,184.6,3.2
171.0,188.8,186.3,177.3,184.1,6.0
171.75,186.0,183.7,177.7,182.4,4.3
172.5,184.1,183.9,177.0,181.7,4.1
173.25,181.1,181.2,173.8,178.7,4.2
174.0,185.5,180.3,172.8,179.5,6.4
174.75,184.4,181.0,176.2,180.5,4.1
175.5,183.5,183.9,175.2,180.9,4.9
176.25,179.2,182.8,174.1,178.7,4.4
177.0,180.7,179.6,170.0,176.8,5.9
177.75,180.5,183.0,171.9,178.5,5.8
178.5,179.9,182.2,172.4,178.2,5.1
179.25,179.9,180.0,173.3,177.7,3.9
180.0,180.6,180.8,172.6,178.0,4.7
180.75,180.8,182.0,170.3,177.7,6.5
181.5,179.5,184.4,171.7,178.5,6.4
182.25,181.6,178.5,169.4,176.5,6.3
183.0,180.9,181.3,172.7,178.3,4.8
183.75,181.8,181.0,173.2,178.7,4.8
184.5,180.1,184.7,172.2,179.0,6.3
185.25,179.6,182.4,173.2,178.4,4.7
186.0,177.2,179.0,171.9,176.0,3.7
186.75,179.1,181.0,172.5,177.5,4.5
187.5,179.1,179.4,170.5,176.3,5.0
188.25,180.0,182.4,171.1,177.8,6.0
189.0,179.0,180.8,169.6,176.5,6.0
189.75,179.1,179.0,169.9,176.0,5.3
190.5,177.7,183.3,168.2,176.4,7.6
191.25,175.2,179.7,167.6,174.2,6.1
192.0,177.7,177.9,164.8,173.5,7.5
192.75,177.2,178.8,169.7,175.2,4.9
193.5,175.3,180.5,167.0,174.3,6.8
194.25,177.5,180.4,167.7,175.2,6.7
195.0,176.9,181.1,165.7,174.6,8.0
195.75,178.8,179.8,165.5,174.7,8.0
196.5,177.1,176.8,166.9,173.6,5.8
197.25,173.9,178.3,167.6,173.3,5.4
198.0,175.5,179.9,165.9,173.8,7.1
198.75,176.2,177.5,168.3,174.0,5.0
199.5,174.3,178.4,166.6,173.1,6.0
200.25,174.3,175.8,165.3,171.8,5.7
201.0,176.3,173.0,164.3,171.2,6.2
201.75,178.0,176.7,164.4,173.0,7.5
202.5,172.2,176.5,164.4,171.0,6.2
203.25,173.5,181.0,164.1,172.9,8.5
204.0,175.9,180.9,164.1,173.6,8.6
204.75,173.6,176.1,166.6,172.1,4.9
205.5,172.3,177.4,164.1,171.3,6.7
206.25,175.5,179.5,165.2,173.4,7.4
207.0,173.1,178.9,165.7,172.6,6.7
207.75,174.3,174.9,162.4,170.5,7.1
208.5,174.2,177.4,164.7,172.1,6.6
209.25,173.1,177.2,164.8,171.7,6.3
210.0,175.5,177.0,164.9,172.5,6.6
210.75,174.2,177.4,161.9,171.2,8.2
211.5,176.9,175.7,164.0,172.2,7.1
212.25,174.0,174.8,164.8,171.2,5.5
213.0,174.8,174.5,164.9,171.4,5.7
213.75,173.9,175.5,164.7,171.4,5.8
214.5,173.2,174.8,161.1,169.7,7.5
215.25,175.2,175.8,162.3,171.1,7.6
216.0,175.1,176.7,163.3,171.7,7.4
216.75,174.5,174.1,157.2,168.6,9.9
217.5,171.1,175.7,162.1,169.6,6.9
218.25,170.9,176.1,160.9,169.3,7.7
219.0,170.6,176.5,164.6,170.6,5.9
219.75,170.6,174.6,166.5,170.6,4.0
220.5,172.5,175.7,161.5,169.9,7.5
221.25,169.8,176.4,161.2,169.1,7.6
222.0,170.6,174.7,160.8,168.7,7.2
222.75,170.5,172.3,161.2,168.0,5.9
223.5,171.7,175.0,162.3,169.7,6.6
224.25,173.4,175.3,160.0,169.5,8.4
225.0,170.4,175.4,162.0,169.3,6.8
225.75,169.8,173.3,164.1,169.1,4.6
226.5,170.1,174.1,159.6,168.0,7.5
227.25,168.3,173.9,158.1,166.7,8.0
228.0,171.9,173.1,160.2,168.4,7.1
228.75,170.5,174.4,163.5,169.5,5.5
229.5,169.4,171.4,158.6,166.5,6.8
230.25,169.4,172.7,158.5,166.8,7.4
231.0,169.6,174.7,157.2,167.2,9.0
231.75,171.0,167.6,158.4,165.7,6.5
232.5,170.2,173.1,158.4,167.2,7.8
233.25,169.8,172.8,156.5,166.3,8.7
234.0,171.1,172.6,157.6,167.1,8.2
234.75,174.3,175.1,160.6,170.0,8.1
235.5,171.2,173.1,154.9,166.4,10.0
236.25,173.5,174.8,157.0,168.4,9.9
237.0,171.0,175.6,157.7,168.1,9.3
237.75,170.8,175.8,154.6,167.1,11.1
238.5,173.4,170.1,157.1,166.9,8.6
239.25,169.4,176.7,156.6,167.6,10.2
240.0,169.4,176.9,156.5,167.6,10.3
240.75,170.7,173.5,158.1,167.5,8.2
241.5,171.8,168.9,153.5,164.7,9.9
242.25,170.7,174.5,155.5,166.9,10.0
243.0,168.9,174.5,156.6,166.7,9.1
243.75,169.3,168.8,157.5,165.2,6.7
244.5,171.8,173.6,158.2,167.9,8.4
245.25,169.7,171.6,157.6,166.3,7.6
246.0,170.2,174.7,158.3,167.7,8.5
246.75,171.2,174.4,155.8,167.1,9.9
247.5,169.9,170.9,156.2,165.7,8.2
248.25,170.7,171.8,159.5,167.3,6.8
249.0,170.3,170.5,158.6,166.5,6.8
249.75,174.1,172.3,160.8,169.1,7.2
250.5,168.4,173.3,155.6,165.8,9.1
251.25,173.1,170.4,159.5,167.7,7.2
252.0,169.4,169.5,158.0,165.6,6.6
252.75,172.6,168.7,157.3,166.2,7.9
253.5,174.3,172.5,157.0,168.0,9.5
254.25,170.7,171.2,156.4,166.1,8.4
255.0,170.7,170.9,159.1,166.9,6.8
255.75,174.9,169.1,155.1,166.4,10.2
256.5,170.9,174.6,156.7,167.4,9.4
257.25,173.3,171.5,156.5,167.1,9.2
258.0,174.3,174.6,153.4,167.4,12.2
258.75,171.5,171.0,157.1,166.5,8.2
259.5,170.4,174.6,157.0,167.3,9.2
260.25,168.3,174.0,159.0,167.1,7.6
261.0,172.0,173.4,156.3,167.2,9.5
261.75,171.2,169.6,155.9,165.6,8.4
262.5,170.5,172.3,157.7,166.9,8.0
263.25,171.1,169.8,156.5,165.8,8.1
264.0,169.8,171.8,157.7,166.5,7.6
264.75,174.4,171.9,157.3,167.9,9.2
265.5,172.7,174.3,155.8,167.6,10.2
266.25,174.7,173.9,154.2,167.6,11.6
267.0,171.3,170.9,153.8,165.3,10.0
267.75,172.5,170.3,155.1,166.0,9.4
268.5,172.0,169.7,155.2,165.6,9.1
269.25,172.3,173.7,154.3,166.8,10.8
270.0,173.2,173.4,156.0,167.6,10.0
270.75,174.7,176.1,158.6,169.8,9.8
271.5,174.7,176.9,156.5,169.3,11.2
272.25,176.0,174.4,160.7,170.4,8.4
273.0,176.3,174.6,155.9,169.0,11.3
273.75,174.2,174.4,158.5,169.0,9.1
274.5,175.5,173.4,158.3,169.1,9.4
275.25,174.1,174.3,157.5,168.6,9.7
276.0,170.4,176.6,158.9,168.6,9.0
276.75,173.5,176.0,157.3,168.9,10.1
277.5,177.1,175.0,157.3,169.8,10.8
278.25,176.8,177.1,159.7,171.2,10.0
279.0,174.9,178.0,157.8,170.2,10.9
279.75,173.7,179.2,157.2,170.0,11.4
280.5,175.1,180.0,158.3,171.1,11.4
281.25,176.5,179.9,158.2,171.5,11.7
282.0,174.9,177.4,157.4,169.9,10.9
282.75,176.2,177.1,159.5,170.9,10.0
283.5,174.5,180.4,159.5,171.5,10.8
284.25,176.1,177.0,159.4,170.8,9.9
285.0,175.8,178.6,160.9,171.8,9.5
285.75,176.5,174.9,160.4,170.6,8.8
286.5,173.6,177.9,160.8,170.7,8.9
287.25,173.0,176.8,162.2,170.7,7.5
288.0,175.1,179.8,163.4,172.8,8.4
288.75,175.2,175.5,161.0,170.6,8.3
289.5,176.5,179.6,162.2,172.8,9.3
290.25,180.4,179.0,162.1,173.8,10.2
291.0,177.1,174.9,161.2,171.0,8.6
291.75,179.7,175.3,161.0,172.0,9.8
292.5,176.7,174.5,164.0,171.7,6.8
293.25,174.1,179.4,164.0,172.5,7.8
294.0,183.3,177.6,162.8,174.6,10.6
294.75,174.8,178.0,160.4,171.0,9.4
295.5,176.5,177.3,163.9,172.6,7.5
296.25,177.8,179.8,161.8,173.1,9.9
297.0,178.1,178.6,160.7,172.5,10.2
297.75,176.8,181.6,164.2,174.2,9.0
298.5,180.0,178.8,161.9,173.6,10.1
299.25,179.4,179.9,162.9,174.1,9.7
300.0,179.8,181.4,165.8,175.7,8.6
300.75,180.5,180.4,160.1,173.7,11.8
301.5,182.2,177.3,162.7,174.1,10.1
302.25,179.8,178.9,163.3,174.0,9.3
303.0,180.5,182.5,162.1,175.0,11.3
303.75,176.1,182.1,162.9,173.7,9.8
304.5,180.2,180.9,165.6,175.6,8.6
305.25,180.0,184.3,166.4,176.9,9.3
306.0,179.6,182.7,165.8,176.0,9.0
306.75,180.6,179.0,163.3,174.3,9.5
307.5,182.3,181.8,165.1,176.4,9.8
308.25,181.4,182.4,163.9,175.9,10.4
309.0,182.2,182.7,165.2,176.7,10.0
309.75,179.5,181.0,164.4,175.0,9.2
310.5,180.7,185.0,165.5,177.1,10.2
311.25,183.4,182.1,166.2,177.2,9.6
312.0,183.4,178.3,165.1,175.6,9.5
312.75,182.4,181.7,164.6,176.3,10.1
313.5,182.2,180.8,165.7,176.2,9.1
314.25,183.0,181.1,167.2,177.1,8.6
315.0,182.8,179.7,163.4,175.3,10.4
315.75,180.1,181.5,164.2,175.3,9.6
316.5,186.4,184.9,167.1,179.5,10.7
317.25,185.3,184.7,165.1,178.4,11.5
318.0,184.1,181.7,166.2,177.3,9.7
318.75,180.6,183.9,169.5,178.0,7.5
319.5,184.0,182.7,168.9,178.5,8.4
320.25,184.8,187.4,171.5,181.2,8.6
321.0,186.2,186.3,167.2,179.9,11.0
321.75,183.4,186.1,169.7,179.7,8.8
322.5,185.7,191.2,168.3,181.7,12.0
323.25,185.9,186.7,169.1,180.6,9.9
324.0,187.5,192.2,170.0,183.2,11.7
324.75,181.0,190.9,168.8,180.2,11.0
325.5,187.0,188.3,171.7,182.3,9.2
326.25,186.1,189.3,171.0,182.1,9.8
327.0,187.7,188.1,169.1,181.6,10.9
327.75,190.2,189.1,171.0,183.4,10.8
328.5,189.2,187.7,171.2,182.7,10.0
329.25,185.7,189.6,170.7,182.0,9.9
330.0,188.2,188.3,172.6,183.0,9.0
330.75,193.0,188.8,169.4,183.7,12.6
331.5,191.4,187.1,170.2,182.9,11.2
332.25,189.4,190.9,172.8,184.4,10.0
333.0,190.5,188.2,173.0,183.9,9.5
333.75,191.0,189.1,172.6,184.2,10.1
334.5,190.4,189.6,171.7,183.9,10.6
335.25,192.3,189.3,174.3,185.3,9.6
336.0,189.1,191.0,172.6,184.2,10.1
336.75,189.7,191.4,174.4,185.2,9.3
337.5,191.5,187.2,174.1,184.3,9.0
338.25,192.7,191.4,175.8,186.7,9.4
339.0,191.2,190.3,172.0,184.5,10.8
339.75,192.6,190.2,177.8,186.9,8.0
340.5,190.7,190.5,175.8,185.6,8.6
341.25,191.2,188.0,174.2,184.5,9.1
342.0,192.8,191.9,176.0,186.9,9.4
342.75,190.3,193.9,176.1,186.8,9.4
343.5,189.1,191.1,174.8,185.0,8.9
344.25,192.7,194.2,176.0,187.6,10.1
345.0,193.8,191.4,176.3,187.2,9.5
345.75,192.3,194.0,176.2,187.5,9.8
346.5,194.6,192.0,176.5,187.7,9.8
347.25,189.5,189.8,178.7,186.0,6.3
348.0,193.4,193.0,176.6,187.7,9.6
348.75,192.1,194.5,178.2,188.3,8.8
349.5,194.1,195.2,179.0,189.4,9.0
350.25,193.6,195.2,179.2,189.3,8.8
351.0,195.4,195.7,174.7,188.6,12.0
351.75,193.5,192.6,177.6,187.9,8.9
352.5,193.6,194.1,178.4,188.7,8.9
353.25,195.1,193.1,182.2,190.1,6.9
354.0,192.6,194.0,178.6,188.4,8.5
354.75,192.7,195.4,177.9,188.6,9.4
355.5,193.9,194.9,180.9,189.9,7.8
356.25,191.6,193.6,180.7,188.7,6.9
357.0,192.8,195.1,181.8,189.9,7.1
357.75,193.5,193.2,180.5,189.1,7.4
358.5,191.4,196.8,181.9,190.0,7.5
359.25,194.8,194.9,181.4,190.4,7.8
360.0,193.2,193.5,182.7,189.8,6.2
360.75,191.9,191.8,180.1,187.9,6.8
361.5,191.8,194.2,181.5,189.2,6.7
362.25,193.3,193.3,183.7,190.1,5.5
363.0,192.7,194.6,183.0,190.1,6.2
363.75,197.3,196.7,183.8,192.6,7.6
364.5,192.5,197.0,182.7,190.8,7.3
365.25,195.9,195.1,183.0,191.3,7.2
366.0,190.8,194.8,183.3,189.6,5.8
366.75,191.7,196.6,185.9,191.4,5.4
367.5,197.4,192.8,183.9,191.3,6.9
368.25,195.6,195.7,184.1,191.8,6.7
369.0,193.6,197.8,183.5,191.6,7.3
369.75,193.9,195.4,185.6,191.6,5.3
370.5,194.7,197.4,187.8,193.3,5.0
371.25,195.4,189.6,185.6,190.2,4.9
372.0,193.6,195.1,186.2,191.6,4.8
372.75,194.8,197.8,184.9,192.5,6.8
373.5,191.8,196.2,182.4,190.2,7.0
374.25,196.1,196.7,186.5,193.1,5.7
375.0,195.0,193.2,185.3,191.2,5.2
375.75,197.0,194.1,188.9,193.3,4.1
376.5,193.6,193.1,189.8,192.2,2.1
377.25,195.3,195.1,188.3,192.9,4.0
378.0,195.1,194.2,192.2,193.9,1.5
378.75,194.1,194.6,188.4,192.4,3.4
379.5,195.8,193.2,194.4,194.5,1.3
380.25,194.8,199.5,190.2,194.8,4.7
381.0,189.0,197.0,188.6,191.5,4.7
381.75,195.5,193.5,193.4,194.1,1.2
382.5,194.2,193.7,190.3,192.7,2.1
383.25,194.2,196.2,191.4,193.9,2.4
384.0,197.1,194.0,192.5,194.6,2.4
384.75,189.0,194.0,192.8,191.9,2.6
385.5,195.8,194.5,189.8,193.4,3.1
386.25,197.0,190.8,192.4,193.4,3.2
387.0,193.8,193.3,193.5,193.6,0.3
387.75,194.6,195.7,194.2,194.9,0.8
388.5,195.2,196.5,193.3,195.0,1.6
389.25,197.7,195.9,191.1,194.9,3.4
390.0,195.7,193.4,192.2,193.8,1.8
390.75,195.5,197.0,193.9,195.5,1.5
391.5,196.4,197.8,194.3,196.1,1.8
392.25,196.3,197.7,193.4,195.8,2.2
393.0,195.7,195.9,197.0,196.2,0.7
393.75,197.8,193.0,190.4,193.7,3.8
394.5,195.3,195.7,192.8,194.6,1.6
395.25,194.1,194.0,196.1,194.7,1.2
396.0,193.4,195.7,195.2,194.7,1.2
396.75,194.6,195.2,194.0,194.6,0.6
397.5,197.6,195.0,192.3,195.0,2.6
398.25,194.6,193.7,194.8,194.4,0.6
399.0,195.5,196.1,193.7,195.1,1.3
399.75,194.5,196.0,196.5,195.7,1.0
400.5,194.3,194.6,196.1,195.0,1.0
401.25,195.9,192.2,195.0,194.4,1.9
402.0,193.1,196.1,193.4,194.2,1.7
402.75,195.3,195.4,192.8,194.5,1.5
403.5,192.0,197.6,192.9,194.2,3.0
404.25,192.9,194.0,193.8,193.6,0.6
405.0,192.6,197.4,198.1,196.1,3.0
405.75,193.2,195.0,194.8,194.3,1.0
406.5,192.8,193.9,196.4,194.4,1.9
407.25,192.5,195.5,196.2,194.7,1.9
408.0,191.8,196.5,196.7,195.0,2.8
408.75,192.7,196.7,194.1,194.5,2.0
409.5,195.7,197.9,190.1,194.6,4.0
410.25,189.9,195.8,194.6,193.4,3.1
411.0,192.8,196.0,198.0,195.6,2.6
411.75,191.1,193.3,197.3,193.9,3.2
412.5,193.9,194.3,196.8,195.0,1.6
413.25,190.3,190.6,196.5,192.5,3.5
414.0,194.5,193.4,197.9,195.3,2.4
414.75,191.0,195.5,197.9,194.8,3.5
415.5,191.1,194.5,195.2,193.6,2.2
416.25,195.5,196.1,197.9,196.5,1.2
417.0,195.7,194.8,199.1,196.5,2.3
417.75,193.9,195.1,198.3,195.8,2.3
418.5,190.4,195.6,199.7,195.2,4.6
419.25,192.9,192.4,197.6,194.3,2.9
420.0,192.9,195.0,197.1,195.0,2.1
420.75,192.1,191.6,195.9,193.2,2.3
421.5,192.7,193.4,199.6,195.2,3.8
422.25,188.8,193.5,200.0,194.1,5.6
423.0,192.9,192.0,199.4,194.8,4.1
423.75,188.9,192.5,196.6,192.7,3.9
424.5,190.8,192.5,197.5,193.6,3.5
425.25,187.9,191.6,195.1,191.5,3.6
426.0,192.5,192.7,197.8,194.3,3.0
426.75,190.9,190.8,202.4,194.7,6.7
427.5,191.7,195.2,201.2,196.1,4.8
428.25,190.7,189.9,196.9,192.5,3.8
429.0,190.3,192.2,201.0,194.5,5.7
429.75,192.3,192.0,199.3,194.5,4.1
430.5,195.1,191.5,198.4,195.0,3.4
431.25,190.3,189.6,199.3,193.1,5.4
432.0,188.8,191.1,200.2,193.4,6.1
432.75,193.4,190.5,199.6,194.5,4.7
433.5,193.0,194.5,200.4,196.0,3.9
434.25,189.6,189.7,200.8,193.4,6.4
435.0,189.8,190.9,193.7,191.5,2.0
435.75,193.1,193.2,197.2,194.5,2.3
436.5,188.4,190.3,199.3,192.7,5.8
437.25,190.0,193.2,197.1,193.5,3.6
438.0,190.2,191.4,201.1,194.2,6.0
438.75,188.8,190.5,196.3,191.8,3.9
439.5,190.8,189.8,195.8,192.1,3.2
440.25,189.3,194.5,197.0,193.6,3.9
441.0,190.6,192.3,197.1,193.3,3.4
441.75,191.1,190.2,197.2,192.8,3.8
442.5,186.6,188.8,200.9,192.1,7.7
443.25,193.7,191.9,198.4,194.7,3.4
444.0,191.2,187.1,201.2,193.2,7.3
444.75,190.3,191.2,198.3,193.3,4.4
445.5,187.6,190.1,198.3,192.0,5.6
446.25,191.0,190.6,198.2,193.3,4.3
447.0,187.3,191.4,196.9,191.9,4.8
447.75,192.9,188.5,195.9,192.4,3.7
448.5,198.0,189.9,195.8,194.6,4.2
449.25,189.6,189.8,199.8,193.1,5.8
450.0,191.6,188.4,195.7,191.9,3.7
450.75,190.3,190.2,196.0,192.2,3.4
451.5,189.9,185.9,195.0,190.2,4.6
452.25,187.7,189.4,193.3,190.1,2.9
453.0,190.1,190.3,196.7,192.4,3.8
453.75,192.1,187.3,193.3,190.9,3.2
454.5,189.7,186.6,193.9,190.1,3.7
455.25,192.8,191.3,192.7,192.3,0.8
456.0,190.3,188.7,195.9,191.6,3.8
456.75,191.5,186.8,196.2,191.5,4.7
457.5,194.4,188.4,198.4,193.7,5.0
458.25,191.7,190.4,195.4,192.5,2.6
459.0,190.3,187.2,196.2,191.2,4.6
459.75,191.9,189.6,195.8,192.4,3.1
460.5,196.2,185.9,198.4,193.5,6.7
461.25,192.2,191.2,194.9,192.8,2.0
462.0,192.8,191.7,194.8,193.1,1.6
462.75,193.4,188.4,199.4,193.8,5.5
463.5,193.7,188.5,200.4,194.2,6.0
464.25,195.2,188.8,200.1,194.7,5.6
465.0,197.8,188.5,200.7,195.6,6.4
465.75,195.1,191.6,200.2,195.6,4.3
466.5,190.2,191.9,198.1,193.4,4.2
467.25,192.1,187.8,199.2,193.0,5.8
468.0,191.1,189.0,202.6,194.2,7.3
468.75,193.7,189.6,199.5,194.3,5.0
469.5,191.4,189.6,198.4,193.2,4.6
470.25,190.9,190.5,196.7,192.7,3.5
471.0,195.8,187.9,197.9,193.9,5.3
471.75,192.3,191.1,199.4,194.3,4.5
472.5,193.5,190.7,197.1,193.8,3.2
473.25,193.2,190.7,199.3,194.4,4.4
474.0,189.6,191.8,197.8,193.1,4.2
474.75,191.3,191.4,199.2,194.0,4.5
475.5,191.6,189.5,197.5,192.9,4.1
476.25,193.5,189.6,195.0,192.7,2.8
477.0,191.3,188.4,196.8,192.1,4.3
477.75,191.2,190.7,195.7,192.5,2.7
478.5,191.7,190.0,200.7,194.1,5.7
479.25,191.0,186.9,195.1,191.0,4.1
480.0,191.7,190.3,194.7,192.2,2.2
480.75,189.8,187.2,200.4,192.4,7.0
481.5,194.5,188.7,197.3,193.5,4.4
482.25,196.3,188.8,198.3,194.5,5.0
483.0,192.3,187.3,198.5,192.7,5.6
483.75,192.1,185.1,194.1,190.4,4.7
484.5,193.9,189.3,194.4,192.5,2.8
485.25,194.4,190.6,195.2,193.4,2.5
486.0,193.9,185.9,194.9,191.6,4.9
486.75,191.6,194.8,197.4,194.6,2.9
487.5,190.9,191.3,196.8,193.0,3.3
488.25,191.6,189.2,193.0,191.3,1.9
489.0,192.8,188.8,194.8,192.1,3.0
489.75,193.4,192.5,198.3,194.7,3.1
490.5,193.1,189.7,198.2,193.7,4.3
491.25,190.7,194.5,198.5,194.6,3.9
492.0,187.4,190.7,196.1,191.4,4.4
492.75,196.2,190.4,198.8,195.1,4.3
493.5,190.8,194.1,196.1,193.7,2.7
494.25,192.5,192.7,197.8,194.3,3.0
495.0,195.2,192.6,197.9,195.2,2.6
495.75,193.5,191.9,206.8,197.4,8.2
496.5,193.1,190.3,200.9,194.8,5.5
497.25,193.2,194.9,202.8,197.0,5.2
498.0,190.7,188.3,202.6,193.9,7.7
498.75,192.7,190.3,203.3,195.4,6.9
499.5,194.7,189.2,205.8,196.5,8.5
500.25,193.6,192.2,203.2,196.3,6.0
501.0,194.5,191.5,203.1,196.4,6.0
501.75,194.3,192.5,205.3,197.3,7.0
502.5,191.5,192.4,205.8,196.5,8.0
503.25,191.8,191.6,204.9,196.1,7.6
504.0,191.9,191.0,204.1,195.7,7.3
504.75,196.0,187.7,203.4,195.7,7.9
505.5,192.6,193.6,201.5,195.9,4.9
506.25,194.0,193.1,199.9,195.7,3.7
507.0,191.7,189.9,203.3,195.0,7.3
507.75,196.0,190.4,205.1,197.2,7.4
508.5,194.3,188.5,203.8,195.5,7.7
509.25,193.7,191.3,204.1,196.3,6.8
510.0,187.8,188.8,202.2,192.9,8.0
510.75,192.7,189.2,201.2,194.4,6.2
511.5,193.0,190.7,207.8,197.2,9.3
512.25,192.7,190.6,203.7,195.7,7.0
513.0,192.0,191.9,202.9,195.6,6.3
513.75,195.0,192.2,207.1,198.1,7.9
514.5,191.2,189.9,204.0,195.0,7.8
515.25,194.0,193.2,202.6,196.6,5.2
516.0,196.3,189.7,204.4,196.8,7.4
516.75,194.5,190.0,202.6,195.7,6.4
517.5,196.1,191.3,207.0,198.1,8.0
518.25,193.3,192.4,213.9,199.8,12.2
519.0,194.1,186.9,203.5,194.8,8.3
519.75,194.8,191.2,205.7,197.3,7.5
520.5,192.2,190.4,203.1,195.2,6.9
521.25,195.2,191.0,206.8,197.7,8.2
522.0,194.0,188.6,207.1,196.6,9.5
522.75,198.1,187.6,205.5,197.1,9.0
523.5,195.0,187.1,202.4,194.9,7.7
524.25,197.6,188.0,207.8,197.8,9.9
525.0,198.9,185.0,207.3,197.1,11.2
525.75,197.3,187.1,212.7,199.0,12.9
526.5,199.9,185.4,209.4,198.2,12.1
527.25,196.6,183.0,208.3,196.0,12.7
528.0,200.3,186.5,210.7,199.2,12.2
528.75,197.4,188.4,208.2,198.0,9.9
529.5,201.4,188.7,211.4,200.5,11.4
530.25,196.7,187.4,212.4,198.8,12.6
531.0,199.3,192.2,209.5,200.3,8.7
531.75,200.6,190.3,208.0,199.6,8.9
532.5,200.0,193.7,211.2,201.7,8.9
533.25,200.2,192.1,209.0,200.4,8.4
534.0,200.1,192.3,208.7,200.4,8.2
534.75,200.7,194.9,210.1,201.9,7.7
535.5,200.8,190.8,210.4,200.7,9.8
536.25,199.9,193.7,209.0,200.9,7.7
537.0,199.1,196.2,213.3,202.9,9.2
537.75,203.6,195.2,210.8,203.2,7.8
538.5,204.3,191.8,211.6,202.6,10.0
539.25,204.5,192.2,210.1,202.3,9.2
540.0,204.3,191.6,213.0,203.0,10.7
540.75,204.9,192.6,214.5,204.0,10.9
541.5,202.2,192.8,216.2,203.8,11.8
542.25,203.5,189.9,216.2,203.2,13.1
543.0,208.3,189.3,217.5,205.0,14.4
543.75,202.1,191.6,215.4,203.0,11.9
544.5,206.3,193.1,212.0,203.8,9.7
545.25,205.7,194.2,217.0,205.6,11.4
546.0,203.4,189.3,213.6,202.1,12.2
546.75,205.4,191.4,214.8,203.8,11.8
547.5,203.8,190.2,214.1,202.7,12.0
548.25,204.7,196.9,216.4,206.0,9.8
549.0,205.0,194.3,214.3,204.6,10.0
549.75,204.1,196.1,215.0,205.1,9.5
550.5,202.3,194.0,213.6,203.3,9.9
551.25,204.8,194.5,216.4,205.2,11.0
552.0,203.4,197.8,217.9,206.4,10.4
552.75,204.4,193.5,217.1,205.0,11.8
553.5,201.6,193.7,217.1,204.1,11.9
554.25,204.6,194.4,217.8,205.6,11.8
555.0,204.2,194.3,218.8,205.8,12.3
555.75,203.7,191.8,221.4,205.6,14.9
556.5,203.2,193.8,217.3,204.8,11.8
557.25,205.3,196.5,220.7,207.5,12.3
558.0,203.1,194.1,219.6,205.6,13.0
558.75,202.4,194.7,221.3,206.1,13.7
559.5,204.4,195.2,221.6,207.0,13.4
560.25,200.9,195.3,220.2,205.5,13.1
561.0,201.2,190.6,223.2,205.0,16.6
561.75,203.0,194.9,225.2,207.7,15.7
562.5,198.2,192.6,220.3,203.7,14.6
563.25,200.4,194.6,222.7,205.9,14.8
564.0,201.3,189.6,221.7,204.2,16.2
564.75,202.3,187.8,221.8,204.0,17.0
565.5,197.8,190.4,218.8,202.3,14.7
566.25,195.3,192.8,217.2,201.8,13.4
567.0,196.7,190.1,217.6,201.5,14.3
567.75,194.3,189.6,220.9,201.6,16.9
568.5,196.4,188.3,222.7,202.5,18.0
569.25,193.5,191.8,222.5,202.6,17.2
570.0,196.6,193.1,222.2,203.9,15.9
570.75,197.2,190.7,222.5,203.5,16.8
571.5,195.7,192.1,226.6,204.8,19.0
572.25,196.6,188.0,224.6,203.1,19.2
573.0,194.9,188.6,226.9,203.5,20.5
573.75,192.6,185.9,221.9,200.1,19.2
574.5,192.1,189.5,220.6,200.8,17.3
575.25,190.8,190.9,222.5,201.4,18.3
576.0,191.4,188.3,223.7,201.1,19.6
576.75,194.6,189.2,222.9,202.2,18.1
577.5,192.6,189.4,219.6,200.6,16.6
578.25,194.2,188.3,224.0,202.2,19.1
579.0,188.8,187.3,222.7,199.6,20.0
579.75,191.8,187.4,225.9,201.7,21.1
580.5,189.1,186.6,225.2,200.3,21.6
581.25,189.9,186.7,224.9,200.5,21.2
582.0,191.2,186.0,219.4,198.9,18.0
582.75,190.7,186.1,220.2,199.0,18.5
583.5,191.5,183.0,216.8,197.1,17.5
584.25,189.9,185.6,221.4,199.0,19.5
585.0,187.9,183.9,220.1,197.3,19.8
585.75,189.8,184.8,217.1,197.2,17.4
586.5,188.3,185.1,214.1,195.8,15.9
587.25,187.8,189.3,221.4,199.5,19.0
588.0,189.1,185.0,218.8,197.6,18.4
588.75,191.6,187.7,214.7,198.0,14.6
589.5,188.2,186.2,213.4,195.9,15.1
590.25,187.0,184.4,215.1,195.5,17.0
591.0,184.2,187.4,215.5,195.7,17.2
591.75,185.8,186.1,217.0,196.3,18.0
592.5,182.8,186.3,214.5,194.5,17.4
593.25,185.6,185.2,210.3,193.7,14.4
594.0,183.1,184.6,212.2,193.3,16.4
594.75,184.6,185.0,216.0,195.2,18.0
595.5,181.4,185.4,213.7,193.5,17.6
596.25,183.4,184.6,214.9,194.3,17.9
597.0,181.3,183.3,208.8,191.1,15.3
597.75,182.0,182.7,212.0,192.2,17.1
598.5,179.3,183.0,211.8,191.4,17.8
599.25,178.2,178.3,210.4,189.0,18.6
600.0,178.2,182.2,213.3,191.2,19.2
600.75,178.8,177.6,213.4,189.9,20.3
601.5,175.0,179.1,213.6,189.2,21.2
602.25,173.6,178.2,215.1,189.0,22.8
603.0,172.7,179.1,211.5,187.8,20.8
603.75,175.2,179.4,211.7,188.8,20.0
604.5,176.6,179.7,209.7,188.6,18.3
605.25,176.9,177.1,209.6,187.8,18.8
606.0,171.6,177.6,209.8,186.3,20.5
606.75,171.8,177.7,211.2,186.9,21.2
607.5,171.8,178.2,211.3,187.1,21.2
608.25,172.5,176.1,209.8,186.1,20.6
609.0,167.9,179.1,206.5,184.5,19.9
609.75,171.5,175.4,205.6,184.2,18.7
610.5,168.2,175.2,210.7,184.7,22.8
611.25,163.9,176.0,207.7,182.5,22.6
612.0,162.2,176.6,206.3,181.7,22.5
612.75,162.2,176.8,203.9,181.0,21.2
613.5,161.9,176.8,207.4,182.0,23.2
614.25,160.7,176.2,202.5,179.8,21.1
615.0,152.9,179.3,203.9,178.7,25.5
615.75,151.6,175.5,203.3,176.8,25.9
616.5,149.0,175.3,204.8,176.3,27.9
617.25,149.4,175.6,206.5,177.2,28.6
618.0,147.3,176.4,202.4,175.4,27.6
618.75,145.2,176.3,201.7,174.4,28.3
619.5,144.7,176.8,198.9,173.5,27.3
620.25,140.1,175.1,201.3,172.2,30.7
621.0,135.9,176.7,195.5,169.4,30.5
621.75,135.8,171.5,198.8,168.7,31.6
622.5,130.6,174.3,195.8,166.9,33.2
623.25,128.3,171.7,192.5,164.2,32.7
624.0,127.8,174.1,195.4,165.7,34.5
624.75,124.1,172.7,190.5,162.4,34.4
625.5,121.2,174.5,191.8,162.5,36.8
626.25,117.9,173.1,190.1,160.4,37.7
627.0,115.5,170.2,189.8,158.5,38.5
627.75,111.6,174.4,188.1,158.0,40.8
628.5,109.9,173.9,187.9,157.2,41.6
629.25,108.4,173.9,187.0,156.5,42.1
630.0,106.9,173.4,185.7,155.3,42.4
630.75,105.3,173.7,185.7,154.9,43.4
631.5,103.5,175.5,183.7,154.2,44.1
632.25,101.5,175.1,182.2,152.9,44.7
633.0,99.5,175.7,183.3,152.9,46.3
633.75,98.2,174.3,182.7,151.7,46.6
634.5,96.5,175.6,182.4,151.5,47.8
635.25,93.4,170.7,178.7,147.6,47.1
636.0,94.0,174.7,178.1,148.9,47.6
636.75,92.2,173.8,178.7,148.2,48.6
637.5,90.4,171.9,172.9,145.1,47.4
638.25,88.6,173.5,176.3,146.1,49.9
639.0,88.1,172.6,175.6,145.4,49.7
639.75,86.7,174.8,174.8,145.5,50.9
640.5,85.3,171.4,172.9,143.2,50.2
641.25,83.5,174.9,176.3,144.9,53.2
642.0,82.5,172.6,171.4,142.2,51.7
642.75,83.2,175.1,172.0,143.5,52.2
643.5,82.1,174.4,166.9,141.1,51.3
644.25,81.0,172.8,167.0,140.3,51.4
645.0,79.9,175.8,168.3,141.4,53.3
645.75,79.1,170.6,164.6,138.1,51.2
646.5,77.4,175.6,165.2,139.4,54.0
647.25,77.2,174.5,163.5,138.4,53.3
648.0,76.6,170.1,159.4,135.3,51.2
648.75,74.7,173.7,158.1,135.5,53.2
649.5,74.3,173.5,156.0,134.6,52.9
650.25,73.2,171.6,154.4,133.1,52.6
651.0,73.2,170.6,154.8,132.9,52.3
651.75,72.9,172.5,153.3,132.9,52.8
652.5,72.5,167.4,147.7,129.2,50.1
653.25,71.2,167.9,147.5,128.8,51.0
654.0,70.8,169.3,144.9,128.4,51.3
654.75,70.1,165.6,143.4,126.4,50.0
655.5,69.0,167.2,142.6,126.3,51.1
656.25,69.1,164.0,142.0,125.0,49.6
657.0,68.5,166.0,139.4,124.6,50.4
657.75,67.8,163.5,138.0,123.1,49.5
658.5,67.1,161.4,136.4,121.6,48.8
659.25,67.7,159.7,135.4,120.9,47.6
660.0,65.9,159.4,131.9,119.1,48.1
660.75,66.9,156.1,129.2,117.4,45.7
661.5,65.2,152.9,128.5,115.5,45.3
662.25,66.2,150.8,127.7,114.9,43.7
663.0,64.9,149.1,128.2,114.1,43.8
663.75,65.5,147.7,125.2,112.8,42.5
664.5,65.0,147.6,123.5,112.0,42.5
665.25,63.5,144.4,122.1,110.0,41.7
666.0,63.9,145.4,120.9,110.1,41.8
666.75,64.0,140.1,119.2,107.8,39.3
667.5,64.2,139.1,115.8,106.4,38.3
668.25,64.0,134.2,116.4,104.9,36.5
669.0,64.7,134.6,115.4,104.9,36.1
669.75,63.4,132.4,113.4,103.1,35.6
670.5,63.1,130.6,109.8,101.2,34.6
671.25,61.8,128.0,109.8,99.9,34.2
672.0,62.1,128.3,104.8,98.4,33.5
672.75,61.7,126.6,105.0,97.8,33.1
673.5,61.0,124.8,101.8,95.9,32.3
674.25,60.6,123.1,99.4,94.4,31.6
675.0,59.9,122.8,98.5,93.7,31.7
675.75,59.6,120.9,95.3,91.9,30.8
676.5,60.1,120.4,93.8,91.5,30.2
677.25,59.3,120.2,93.8,91.1,30.5
678.0,59.7,116.8,92.6,89.7,28.6
678.75,59.6,117.4,91.2,89.4,28.9
679.5,59.8,117.5,90.6,89.3,28.8
680.25,60.6,117.8,89.4,89.3,28.6
681.0,60.8,117.3,88.9,89.0,28.3
681.75,60.8,116.1,87.2,88.0,27.7
682.5,59.4,116.3,87.3,87.7,28.4
683.25,58.8,114.2,86.6,86.5,27.7
684.0,60.2,114.5,86.0,86.9,27.1
684.75,60.0,113.1,85.0,86.1,26.6
685.5,59.0,111.8,84.1,85.0,26.4
686.25,59.4,111.1,84.3,84.9,25.8
687.0,58.9,110.3,82.4,83.9,25.8
687.75,59.1,110.6,82.8,84.2,25.8
688.5,59.0,111.1,82.4,84.1,26.1
689.25,58.2,108.7,81.6,82.8,25.3
690.0,58.3,106.6,82.7,82.5,24.2
690.75,57.3,108.3,83.1,82.9,25.5
691.5,58.0,106.6,81.6,82.1,24.3
692.25,57.6,105.9,82.3,81.9,24.1
693.0,57.4,105.5,80.6,81.2,24.1
693.75,56.7,105.2,81.3,81.0,24.3
694.5,58.3,106.0,82.0,82.1,23.9
695.25,56.3,103.6,80.2,80.0,23.6
696.0,58.2,105.2,80.8,81.4,23.5
696.75,57.3,104.7,80.7,80.9,23.7
697.5,56.9,103.7,82.2,80.9,23.5
698.25,58.6,104.1,82.0,81.6,22.7
699.0,58.0,103.2,81.4,80.9,22.6
699.75,58.5,102.9,81.0,80.8,22.2
700.5,57.9,102.9,81.7,80.8,22.5
701.25,58.0,103.4,82.3,81.2,22.7
702.0,58.8,100.7,81.3,80.3,20.9
702.75,59.5,100.1,82.1,80.6,20.3
703.5,58.7,98.5,81.7,79.7,20.0
704.25,59.7,97.5,81.2,79.5,19.0
705.0,59.5,95.8,82.7,79.4,18.4
705.75,59.2,94.9,81.9,78.6,18.0
706.5,58.6,95.8,81.6,78.6,18.8
707.25,58.1,93.1,81.3,77.5,17.8
708.0,59.0,92.2,81.7,77.6,17.0
708.75,58.5,92.1,81.9,77.5,17.2
709.5,58.4,92.1,82.4,77.6,17.3
710.25,57.3,90.6,83.0,77.0,17.5
711.0,57.1,89.4,82.0,76.1,16.9
711.75,57.3,88.9,81.8,76.0,16.6
712.5,56.7,88.4,82.3,75.8,16.8
713.25,56.1,88.2,83.4,75.9,17.3
714.0,56.4,88.9,82.1,75.8,17.1
714.75,57.1,88.7,83.8,76.5,17.0
715.5,56.2,87.5,83.7,75.8,17.1
716.25,56.2,87.9,84.8,76.3,17.5
717.0,56.8,86.8,84.0,75.9,16.6
717.75,56.9,87.1,85.1,76.4,16.9
718.5,57.0,84.9,83.5,75.1,15.7
719.25,56.0,84.5,85.1,75.2,16.6
720.0,56.4,85.0,84.8,75.4,16.4
720.75,56.1,83.0,84.9,74.7,16.1
721.5,56.4,83.4,84.3,74.7,15.8
722.25,56.2,82.0,86.4,74.9,16.3
723.0,55.8,82.0,85.8,74.5,16.3
723.75,56.2,83.5,86.7,75.4,16.8
724.5,55.6,83.2,86.9,75.2,17.1
725.25,56.1,82.4,86.0,74.8,16.4
726.0,54.8,81.2,87.8,74.6,17.4
726.75,55.1,82.2,86.7,74.7,17.1
727.5,55.1,80.8,86.7,74.2,16.8
728.25,55.3,81.7,88.1,75.0,17.4
729.0,55.3,81.8,87.6,74.9,17.2
729.75,55.0,81.4,88.3,74.9,17.5
730.5,55.8,81.6,87.9,75.1,17.0
731.25,55.8,79.6,88.0,74.5,16.7
732.0,55.1,78.8,88.1,74.0,17.0
732.75,54.7,79.6,88.0,74.1,17.3
733.5,54.2,79.5,86.9,73.5,17.1
734.25,54.6,79.2,89.1,74.3,17.8
735.0,55.6,79.8,88.1,74.5,16.9
735.75,54.9,80.6,86.5,74.0,16.8
736.5,55.1,80.2,87.1,74.1,16.8
737.25,55.0,79.6,87.8,74.2,17.1
738.0,54.4,79.4,87.2,73.7,17.1
738.75,54.5,80.1,85.5,73.4,16.6
739.5,54.7,80.7,84.8,73.4,16.3
740.25,55.2,,84.6,69.9,20.8
741.0,55.1,,85.1,70.1,21.2
741.75,55.1,,84.8,69.9,20.9
742.5,55.0,,83.6,69.3,20.3
743.25,55.3,,83.2,69.3,19.7
744.0,56.0,,83.2,69.6,19.2
744.75,55.8,,83.5,69.7,19.5
745.5,55.2,,82.6,68.9,19.4
746.25,55.3,,82.9,69.1,19.6
747.0,55.7,,82.2,69.0,18.7
747.75,54.9,,82.9,68.9,19.8
748.5,55.1,,82.3,68.7,19.3
749.25,54.6,,82.6,68.6,19.8
750.0,54.5,,81.3,67.9,19.0
750.75,54.3,,82.3,68.3,19.8
751.5,54.9,,83.3,69.1,20.1
752.25,54.6,,82.0,68.3,19.4
753.0,54.5,,83.9,69.2,20.8
753.75,53.5,,81.6,67.5,19.9
754.5,53.9,,82.3,68.1,20.1
755.25,54.4,,82.5,68.5,19.8
756.0,53.3,,81.9,67.6,20.2
756.75,54.0,,81.0,67.5,19.1
757.5,54.2,,82.2,68.2,19.8
758.25,53.8,,83.2,68.5,20.8
759.0,54.2,,82.7,68.4,20.1
759.75,54.1,,82.3,68.2,20.0
760.5,53.7,,81.9,67.8,20.0
761.25,53.1,,83.3,68.2,21.4
762.0,53.2,,82.6,67.9,20.7
762.75,53.1,,83.7,68.4,21.6
763.5,52.6,,83.6,68.1,21.9
764.25,52.9,,81.6,67.2,20.3
765.0,53.7,,82.7,68.2,20.5
765.75,52.9,,83.6,68.3,21.7
766.5,52.8,,83.0,67.9,21.3
767.25,53.7,,82.2,67.9,20.1
768.0,54.1,,82.0,68.0,19.8
768.75,54.1,,82.1,68.1,19.8
769.5,54.2,,84.1,69.2,21.1
770.25,54.2,,81.5,67.9,19.3
771.0,55.0,,82.2,68.6,19.3
771.75,54.5,,81.2,67.8,18.8
772.5,54.6,,80.8,67.7,18.5
773.25,55.1,,80.7,67.9,18.1
774.0,56.1,,82.0,69.1,18.4
774.75,55.8,,81.4,68.6,18.1
775.5,55.5,,80.2,67.9,17.5
776.25,56.0,,80.9,68.4,17.6
777.0,56.3,,80.3,68.3,17.0
777.75,55.8,,79.5,67.6,16.8
778.5,56.7,,79.1,67.9,15.8
779.25,57.4,,79.6,68.5,15.8
780.0,56.5,,79.1,67.8,16.0
780.75,56.4,,80.9,68.7,17.3
781.5,57.2,,79.0,68.1,15.4
782.25,56.6,,79.0,67.8,15.8
783.0,56.7,,78.5,67.6,15.4
783.75,55.2,,79.6,67.4,17.3
784.5,56.2,,79.9,68.0,16.8
785.25,57.1,,78.4,67.7,15.1
786.0,56.9,,80.2,68.5,16.4
786.75,56.1,,80.3,68.2,17.1
787.5,56.4,,79.7,68.1,16.5
788.25,56.9,,77.8,67.4,14.8
789.0,56.6,,79.1,67.8,15.9
789.75,57.0,,79.4,68.2,15.8
790.5,57.2,,80.3,68.8,16.3
791.25,56.5,,79.2,67.9,16.0
792.0,56.2,,80.6,68.4,17.2
792.75,56.6,,81.2,68.9,17.4
793.5,56.5,,80.7,68.6,17.2
794.25,56.3,,80.8,68.6,17.3
795.0,57.2,,81.0,69.1,16.9
795.75,56.9,,81.6,69.3,17.5
796.5,56.7,,81.4,69.1,17.5
797.25,57.3,,80.9,69.1,16.7
798.0,57.5,,83.0,70.2,18.0
798.75,57.6,,80.8,69.2,16.4
799.5,57.6,,81.2,69.4,16.7
800.25,57.2,,80.8,69.0,16.7
801.0,58.0,,80.3,69.1,15.8
801.75,57.5,,79.4,68.4,15.5
802.5,57.4,,80.8,69.1,16.5
803.25,58.1,,80.1,69.1,15.6
804.0,57.5,,79.4,68.4,15.5
804.75,56.4,,79.2,67.8,16.2
805.5,56.7,,80.0,68.3,16.4
806.25,57.3,,80.8,69.0,16.6
807.0,56.5,,79.8,68.2,16.5
807.75,57.1,,80.0,68.6,16.2
808.5,56.9,,80.3,68.6,16.5
809.25,56.3,,79.9,68.1,16.7
810.0,55.5,,80.6,68.1,17.7
810.75,57.4,,80.8,69.1,16.5
811.5,56.3,,79.8,68.0,16.6
812.25,56.3,,79.3,67.8,16.3
813.0,55.8,,79.5,67.7,16.7
813.75,54.1,,78.8,66.5,17.4
814.5,55.3,,79.5,67.4,17.1
815.25,54.4,,78.0,66.2,16.7
816.0,55.4,,78.3,66.8,16.2
816.75,55.0,,79.8,67.4,17.6
817.5,54.6,,78.8,66.7,17.1
818.25,54.5,,78.7,66.6,17.1
819.0,55.2,,78.0,66.6,16.1
819.75,53.7,,78.7,66.2,17.7
820.5,54.5,,78.0,66.2,16.6
821.25,54.3,,77.2,65.8,16.2
822.0,54.9,,77.9,66.4,16.3
822.75,54.5,,77.5,66.0,16.2
823.5,54.1,,77.6,65.9,16.6
824.25,54.4,,78.0,66.2,16.7
825.0,54.8,,76.3,65.6,15.2
825.75,54.6,,75.5,65.1,14.7
826.5,55.4,,77.6,66.5,15.7
827.25,55.7,,76.1,65.9,14.5
828.0,55.1,,76.5,65.8,15.1
828.75,55.8,,76.2,66.0,14.5
829.5,56.2,,77.2,66.7,14.8
830.25,55.3,,77.9,66.6,16.0
831.0,55.2,,77.1,66.1,15.5
831.75,54.5,,78.4,66.5,16.9
832.5,54.7,,78.2,66.5,16.7
833.25,54.4,,78.3,66.3,16.9
834.0,54.3,,79.5,66.9,17.8
834.75,53.9,,81.1,67.5,19.3
835.5,54.9,,80.9,67.9,18.4
836.25,54.2,,82.8,68.5,20.2
837.0,55.3,,81.5,68.4,18.5
837.75,54.8,,81.7,68.2,19.0
838.5,54.5,,81.7,68.1,19.2
839.25,55.0,,83.3,69.2,20.0
840.0,54.6,,82.4,68.5,19.7
840.75,54.7,,82.2,68.4,19.4
841.5,55.4,,82.4,68.9,19.1
842.25,55.6,,82.5,69.0,19.1
843.0,56.1,,81.8,69.0,18.2
843.75,57.0,,81.0,69.0,17.0
844.5,57.0,,81.2,69.1,17.1
845.25,56.9,,80.4,68.6,16.6
846.0,57.3,,79.4,68.4,15.6
846.75,57.3,,80.0,68.6,16.1
847.5,57.9,,80.6,69.2,16.0
848.25,57.0,,81.1,69.0,17.1
849.0,55.8,,80.5,68.2,17.5
849.75,56.2,,79.2,67.7,16.3
850.5,55.4,,79.3,67.3,16.9
851.25,55.3,,80.5,67.9,17.8
852.0,54.8,,80.6,67.7,18.3
852.75,54.8,,78.9,66.8,17.0
853.5,54.2,,79.6,66.9,17.9
854.25,54.5,,79.1,66.8,17.4
855.0,54.0,,78.7,66.4,17.4
855.75,53.7,,79.2,66.5,18.0
856.5,53.1,,79.1,66.1,18.4
857.25,53.9,,79.3,66.6,17.9
858.0,54.5,,80.3,67.4,18.2
858.75,54.3,,80.7,67.5,18.6
859.5,53.5,,79.2,66.3,18.2
860.25,53.3,,80.3,66.8,19.1
861.0,54.0,,80.3,67.2,18.6
861.75,54.3,,79.7,67.0,17.9
862.5,54.9,,80.0,67.5,17.8
863.25,54.9,,80.1,67.5,17.8
864.0,55.2,,80.7,68.0,18.1
864.75,55.3,,80.6,68.0,17.8
865.5,55.6,,82.0,68.8,18.6
866.25,55.7,,83.4,69.6,19.6
867.0,56.9,,83.9,70.4,19.1
867.75,56.0,,83.5,69.7,19.4
868.5,55.8,,83.6,69.7,19.7
869.25,57.5,,82.0,69.8,17.3
870.0,57.6,,82.3,69.9,17.4
870.75,57.0,,82.8,69.9,18.3
871.5,56.7,,81.6,69.1,17.6
872.25,56.8,,80.2,68.5,16.5
873.0,56.3,,82.3,69.3,18.4
873.75,56.5,,79.5,68.0,16.3
874.5,57.1,,80.2,68.7,16.3
875.25,57.6,,80.9,69.3,16.5
876.0,56.9,,79.6,68.2,16.1
876.75,56.9,,80.1,68.5,16.4
877.5,56.9,,80.3,68.6,16.6
878.25,57.2,,78.8,68.0,15.2
879.0,57.1,,78.6,67.9,15.2
879.75,57.2,,80.1,68.7,16.2
880.5,56.9,,78.3,67.6,15.1
881.25,56.7,,77.9,67.3,15.0
882.0,56.7,,78.7,67.7,15.6
882.75,56.3,,78.5,67.4,15.7
883.5,57.2,,80.4,68.8,16.4
884.25,57.2,,,57.2,
885.0,57.5,,,57.5,
885.75,56.2,,,56.2,
886.5,57.4,,,57.4,
887.25,57.3,,,57.3,
888.0,57.0,,,57.0,
888.75,56.3,,,56.3,
889.5,54.9,,,54.9,
890.25,56.2,,,56.2,
891.0,55.5,,,55.5,
891.75,55.9,,,55.9,
892.5,55.5,,,55.5,
893.25,56.0,,,56.0,
894.0,55.6,,,55.6,
894.75,55.7,,,55.7,
895.5,54.4,,,54.4,
896.25,54.7,,,54.7,
897.0,54.0,,,54.0,
897.75,54.9,,,54.9,
898.5,55.0,,,55.0,
899.25,53.4,,,53.4,
900.0,55.0,,,55.0,
900.75,55.5,,,55.5,
901.5,54.9,,,54.9,
902.25,55.1,,,55.1,
903.0,55.6,,,55.6,
903.75,55.2,,,55.2,
904.5,54.4,,,54.4,
905.25,54.6,,,54.6,
906.0,54.5,,,54.5,
906.75,54.8,,,54.8,
907.5,55.3,,,55.3,
908.25,55.2,,,55.2,
909.0,55.1,,,55.1,
909.75,55.0,,,55.0,
910.5,55.2,,,55.2,
911.25,54.9,,,54.9,
912.0,55.6,,,55.6,
912.75,54.7,,,54.7,
913.5,55.3,,,55.3,
914.25,55.0,,,55.0,
915.0,54.1,,,54.1,
915.75,54.2,,,54.2,
916.5,54.3,,,54.3,
917.25,54.4,,,54.4,
918.0,54.5,,,54.5,
918.75,55.4,,,55.4,
919.5,55.5,,,55.5,
920.25,55.4,,,55.4,
921.0,55.6,,,55.6,
921.75,56.5,,,56.5,
922.5,55.9,,,55.9,
923.25,56.3,,,56.3,
924.0,57.6,,,57.6,
924.75,56.7,,,56.7,
925.5,57.4,,,57.4,
926.25,57.3,,,57.3,
927.0,57.0,,,57.0,
927.75,56.7,,,56.7,
928.5,57.1,,,57.1,
929.25,57.3,,,57.3,
930.0,57.6,,,57.6,
930.75,56.5,,,56.5,
931.5,56.5,,,56.5,
932.25,56.1,,,56.1,
933.0,56.8,,,56.8,
933.75,56.0,,,56.0,
934.5,56.3,,,56.3,
935.25,55.7,,,55.7,
936.0,56.5,,,56.5,
936.75,56.5,,,56.5,
937.5,56.8,,,56.8,
938.25,57.3,,,57.3,
939.0,56.8,,,56.8,
939.75,57.6,,,57.6,
940.5,57.9,,,57.9,
941.25,56.7,,,56.7,
942.0,57.8,,,57.8,
942.75,56.7,,,56.7,
943.5,57.1,,,57.1,
944.25,56.2,,,56.2,
945.0,57.6,,,57.6,
945.75,57.7,,,57.7,
946.25,58.1,,,58.1,