File: 01_Data/Engineered_Wood_Furniture/Cone/Engineered_Wood_Furniture_HRRPUA_50.csv
Time after Ignition,Engineered_Wood_Furniture_R1,Engineered_Wood_Furniture_R2,Engineered_Wood_Furniture_R3,Mean,Std. Dev.
0.0,11.9,11.7,6.2,9.9,3.3
1.0,23.7,29.0,14.6,22.5,7.2
2.0,49.5,53.8,24.8,42.7,15.6
3.0,97.8,93.0,32.4,74.4,36.4
4.0,157.2,134.6,44.1,112.0,59.8
5.0,204.3,187.1,62.0,151.2,77.6
6.0,272.4,240.5,98.3,203.7,92.7
7.0,343.0,285.5,148.7,259.1,99.8
8.0,395.9,335.3,215.5,315.6,91.8
9.0,434.1,394.1,290.1,372.8,74.4
10.0,462.7,426.9,329.1,406.2,69.1
11.0,505.2,468.7,380.0,451.3,64.4
12.0,498.1,499.0,414.7,470.6,48.4
13.0,482.6,505.7,440.5,476.3,33.0
14.0,448.7,508.3,450.7,469.2,33.8
15.0,420.3,491.0,447.7,453.0,35.7
16.0,383.0,465.4,417.7,422.1,41.4
17.0,348.7,430.5,404.0,394.4,41.7
18.0,313.1,403.3,381.6,366.0,47.1
19.0,287.3,377.5,353.5,339.4,46.7
20.0,265.2,366.8,323.5,318.5,51.0
21.0,251.1,346.3,286.5,294.6,48.1
22.0,243.9,334.2,262.4,280.2,47.7
23.0,240.8,339.1,236.3,272.1,58.1
24.0,238.1,336.5,219.4,264.7,62.9
25.0,243.8,335.9,210.6,263.4,64.9
26.0,248.7,337.2,204.2,263.4,67.7
27.0,253.1,337.9,202.8,264.6,68.2
28.0,258.7,340.9,209.3,269.6,66.5
29.0,265.6,331.9,219.3,272.3,56.6
30.0,267.0,333.1,227.4,275.9,53.4
31.0,277.5,330.2,233.3,280.3,48.5
32.0,279.3,329.4,239.3,282.7,45.1
33.0,291.1,319.5,247.2,285.9,36.5
34.0,294.3,316.0,261.7,290.6,27.3
35.0,295.5,327.6,262.0,295.1,32.8
36.0,305.7,313.5,277.6,299.0,18.9
37.0,303.9,314.3,279.3,299.2,18.0
38.0,308.2,312.9,286.2,302.5,14.3
39.0,313.1,307.7,294.6,305.1,9.5
40.0,322.0,301.4,293.5,305.6,14.7
41.0,322.0,294.3,296.2,304.2,15.5
42.0,313.0,297.9,295.5,302.2,9.5
43.0,316.7,289.3,299.4,301.8,13.9
44.0,317.2,292.1,312.7,307.3,13.4
45.0,320.7,283.2,308.9,304.2,19.2
46.0,318.9,282.4,307.4,302.9,18.7
47.0,320.9,282.8,311.3,305.0,19.8
48.0,311.1,277.7,304.5,297.8,17.6
49.0,316.2,278.8,307.4,300.8,19.6
50.0,308.9,277.3,306.6,297.6,17.6
51.0,305.5,274.3,306.4,295.4,18.3
52.0,313.6,268.1,304.1,295.2,24.0
53.0,308.0,263.1,304.2,291.8,24.9
54.0,304.6,260.3,307.3,290.7,26.4
55.0,307.8,253.3,300.3,287.1,29.5
56.0,301.8,252.3,291.5,281.9,26.1
57.0,296.8,249.6,301.6,282.7,28.8
58.0,296.1,248.4,292.6,279.0,26.6
59.0,295.9,248.5,289.9,278.1,25.8
60.0,293.6,242.1,293.5,276.4,29.7
61.0,291.5,240.0,279.2,270.3,26.9
62.0,286.2,240.4,284.9,270.5,26.1
63.0,278.4,239.1,282.3,266.6,23.9
64.0,275.7,235.5,279.2,263.5,24.3
65.0,273.6,229.7,273.4,258.9,25.3
66.0,271.4,228.0,279.9,259.8,27.8
67.0,268.6,221.7,266.2,252.2,26.4
68.0,259.3,223.0,266.1,249.4,23.2
69.0,257.4,216.8,268.1,247.4,27.1
70.0,257.3,216.8,263.5,245.9,25.4
71.0,249.0,215.2,257.2,240.5,22.3
72.0,249.5,208.8,258.5,238.9,26.5
73.0,246.1,208.5,253.4,236.0,24.1
74.0,242.8,210.3,253.7,235.6,22.6
75.0,241.3,205.5,251.4,232.8,24.1
76.0,239.9,204.8,247.0,230.6,22.6
77.0,230.6,203.2,244.0,226.0,20.8
78.0,235.2,200.7,243.2,226.4,22.6
79.0,233.5,199.2,239.4,224.0,21.7
80.0,228.9,200.9,237.9,222.6,19.3
81.0,221.3,195.3,237.6,218.1,21.3
82.0,219.6,196.8,234.1,216.8,18.8
83.0,219.6,194.7,232.6,215.6,19.3
84.0,215.0,193.7,234.4,214.4,20.3
85.0,214.6,196.2,228.9,213.2,16.4
86.0,210.1,192.8,227.1,210.0,17.2
87.0,209.3,186.3,222.9,206.2,18.5
88.0,206.5,192.3,221.9,206.9,14.8
89.0,204.3,186.0,218.0,202.7,16.0
90.0,202.6,188.9,216.4,202.7,13.7
91.0,195.6,188.4,218.6,200.9,15.7
92.0,197.1,186.8,209.2,197.7,11.2
93.0,198.2,187.3,208.6,198.1,10.7
94.0,196.9,185.5,207.5,196.7,11.0
95.0,195.3,184.2,205.0,194.9,10.4
96.0,193.8,184.2,202.5,193.5,9.2
97.0,192.9,182.7,203.1,192.9,10.2
98.0,192.7,183.8,201.4,192.6,8.8
99.0,191.3,185.7,201.1,192.7,7.8
100.0,192.0,183.3,198.9,191.4,7.8
101.0,190.4,178.9,197.7,189.0,9.5
102.0,189.1,184.5,196.5,190.0,6.1
103.0,187.3,181.7,194.5,187.8,6.4
104.0,189.2,179.2,196.8,188.4,8.8
105.0,190.5,179.0,194.0,187.8,7.8
106.0,184.6,180.3,191.3,185.4,5.6
107.0,184.2,178.4,190.9,184.5,6.2
108.0,178.7,180.4,189.8,183.0,6.0
109.0,180.4,180.7,187.6,182.9,4.1
110.0,181.8,178.4,188.6,182.9,5.2
111.0,175.7,177.7,183.5,179.0,4.0
112.0,176.2,177.1,188.8,180.7,7.0
113.0,173.7,172.5,184.9,177.0,6.8
114.0,175.6,172.4,182.3,176.8,5.1
115.0,176.6,174.4,181.2,177.4,3.5
116.0,176.6,172.9,183.0,177.5,5.1
117.0,175.9,172.3,180.5,176.2,4.1
118.0,174.6,170.6,176.9,174.1,3.2
119.0,176.0,172.8,178.8,175.9,3.0
120.0,174.4,172.5,181.5,176.1,4.7
121.0,174.5,171.7,178.9,175.0,3.6
122.0,174.7,168.3,179.6,174.2,5.7
123.0,170.7,167.9,179.6,172.7,6.1
124.0,172.2,170.6,176.8,173.2,3.2
125.0,174.6,172.5,175.5,174.2,1.5
126.0,171.8,170.9,174.5,172.4,1.9
127.0,170.1,167.3,176.5,171.3,4.7
128.0,172.1,167.7,174.7,171.5,3.5
129.0,171.1,172.2,172.6,172.0,0.8
130.0,170.8,170.4,175.4,172.2,2.8
131.0,169.2,168.2,177.4,171.6,5.1
132.0,172.9,167.5,174.3,171.6,3.6
133.0,169.1,165.4,171.7,168.7,3.2
134.0,169.3,167.3,170.8,169.1,1.7
135.0,168.3,167.1,169.1,168.2,1.0
136.0,166.3,165.9,170.1,167.5,2.3
137.0,165.2,164.6,167.8,165.9,1.7
138.0,165.7,166.9,168.9,167.1,1.6
139.0,167.5,163.2,171.6,167.4,4.2
140.0,163.6,162.3,168.6,164.8,3.3
141.0,162.7,166.1,168.4,165.8,2.9
142.0,161.8,162.7,167.2,163.9,2.9
143.0,159.2,162.1,164.6,162.0,2.7
144.0,161.9,162.8,163.2,162.6,0.7
145.0,162.3,163.0,165.8,163.7,1.8
146.0,163.3,163.2,161.8,162.8,0.8
147.0,160.4,161.9,160.4,160.9,0.8
148.0,161.1,163.2,161.9,162.1,1.1
149.0,162.6,159.2,160.8,160.9,1.7
150.0,160.0,157.8,159.8,159.2,1.2
151.0,158.9,157.2,160.6,158.9,1.7
152.0,159.2,154.4,162.2,158.6,4.0
153.0,156.8,156.4,161.1,158.1,2.6
154.0,159.6,155.0,159.5,158.0,2.6
155.0,159.6,152.1,162.4,158.0,5.3
156.0,156.4,154.9,160.9,157.4,3.1
157.0,154.4,152.4,157.3,154.7,2.5
158.0,156.9,153.9,160.7,157.2,3.4
159.0,155.3,152.4,158.5,155.4,3.1
160.0,154.3,154.7,160.1,156.4,3.3
161.0,156.0,154.6,156.3,155.6,0.9
162.0,154.3,156.4,157.9,156.2,1.8
163.0,155.6,156.1,157.3,156.3,0.9
164.0,154.2,154.9,157.3,155.5,1.6
165.0,154.0,154.8,154.6,154.5,0.4
166.0,152.6,151.8,156.7,153.7,2.6
167.0,153.0,153.4,158.2,154.9,2.9
168.0,149.3,153.6,157.6,153.5,4.1
169.0,151.1,152.8,157.9,153.9,3.5
170.0,150.7,153.7,155.3,153.2,2.3
171.0,151.7,154.5,155.2,153.8,1.8
172.0,148.9,150.8,154.4,151.3,2.8
173.0,149.5,152.5,155.4,152.5,3.0
174.0,149.2,150.7,152.1,150.7,1.4
175.0,150.6,150.8,153.7,151.7,1.8
176.0,146.3,151.3,154.1,150.6,3.9
177.0,147.0,151.3,155.9,151.4,4.5
178.0,146.4,149.4,149.9,148.6,1.9
179.0,147.0,150.2,151.0,149.4,2.1
180.0,146.5,148.3,154.4,149.7,4.2
181.0,145.1,146.7,149.0,147.0,2.0
182.0,144.3,146.2,149.7,146.7,2.8
183.0,144.9,147.9,151.1,148.0,3.1
184.0,144.7,148.5,150.3,147.8,2.9
185.0,147.0,146.0,152.7,148.6,3.6
186.0,145.3,147.1,148.1,146.9,1.4
187.0,144.5,150.4,149.9,148.3,3.3
188.0,143.4,144.6,148.5,145.5,2.7
189.0,145.1,146.7,145.2,145.7,0.9
190.0,144.2,144.2,146.7,145.0,1.4
191.0,142.3,144.9,148.5,145.2,3.1
192.0,143.1,143.7,145.0,143.9,1.0
193.0,142.7,144.9,147.9,145.2,2.6
194.0,142.4,144.8,148.9,145.4,3.3
195.0,139.6,144.2,145.5,143.1,3.1
196.0,141.6,144.1,144.6,143.4,1.6
197.0,139.5,143.1,145.3,142.6,3.0
198.0,142.8,139.5,144.9,142.4,2.7
199.0,138.7,140.5,146.1,141.8,3.8
200.0,141.6,143.0,145.9,143.5,2.2
201.0,138.3,141.0,143.8,141.0,2.7
202.0,140.7,141.4,144.7,142.3,2.1
203.0,138.0,141.8,145.1,141.6,3.5
204.0,138.4,138.8,142.8,140.0,2.4
205.0,137.4,143.3,141.5,140.7,3.0
206.0,137.7,142.7,143.5,141.3,3.1
207.0,139.0,141.0,141.8,140.6,1.4
208.0,138.6,141.0,141.8,140.5,1.6
209.0,138.6,138.3,139.1,138.7,0.4
210.0,136.9,141.4,142.1,140.1,2.8
211.0,137.9,138.1,141.2,139.1,1.8
212.0,137.8,140.0,137.8,138.6,1.3
213.0,137.1,139.0,138.4,138.2,1.0
214.0,134.9,138.0,139.5,137.4,2.3
215.0,135.0,140.6,137.9,137.8,2.8
216.0,136.1,138.6,138.2,137.6,1.3
217.0,135.4,134.5,137.8,135.9,1.7
218.0,135.3,137.1,137.1,136.5,1.0
219.0,138.6,138.3,137.3,138.1,0.6
220.0,135.1,136.7,137.1,136.3,1.1
221.0,132.6,137.6,136.5,135.6,2.6
222.0,134.1,137.8,136.8,136.2,1.9
223.0,132.8,137.9,137.0,135.9,2.7
224.0,133.6,137.7,137.5,136.3,2.3
225.0,134.3,135.3,135.1,134.9,0.5
226.0,133.5,133.4,136.0,134.3,1.5
227.0,131.5,136.8,135.3,134.5,2.8
228.0,131.4,134.6,136.6,134.2,2.6
229.0,129.0,134.1,134.6,132.6,3.1
230.0,129.9,134.4,134.5,132.9,2.6
231.0,129.8,136.0,134.0,133.3,3.1
232.0,128.5,132.6,134.0,131.7,2.9
233.0,127.3,133.2,132.4,131.0,3.2
234.0,128.3,131.6,134.1,131.3,2.9
235.0,127.6,132.7,132.7,131.0,2.9
236.0,127.5,131.1,133.1,130.6,2.8
237.0,129.9,134.2,133.7,132.6,2.3
238.0,129.1,131.2,131.1,130.5,1.2
239.0,128.3,133.3,129.9,130.5,2.6
240.0,129.3,133.1,130.8,131.1,1.9
241.0,126.3,133.3,129.2,129.6,3.5
242.0,128.8,131.0,129.8,129.8,1.1
243.0,126.1,131.7,129.2,129.0,2.8
244.0,126.2,128.2,131.6,128.7,2.7
245.0,129.4,132.1,129.8,130.4,1.4
246.0,127.4,132.6,131.5,130.5,2.8
247.0,127.2,131.7,130.7,129.8,2.4
248.0,126.2,132.7,128.8,129.2,3.3
249.0,124.7,130.9,130.7,128.8,3.5
250.0,127.2,131.7,127.7,128.9,2.5
251.0,125.1,131.1,128.5,128.2,3.0
252.0,125.4,132.6,128.8,128.9,3.6
253.0,125.6,129.8,128.1,127.8,2.1
254.0,124.2,129.4,127.4,127.0,2.6
255.0,125.8,130.5,127.5,127.9,2.4
256.0,126.7,131.7,129.3,129.2,2.5
257.0,123.3,131.1,127.5,127.3,3.9
258.0,123.3,129.5,129.5,127.4,3.6
259.0,124.0,128.2,127.3,126.5,2.2
260.0,124.8,130.3,127.3,127.5,2.7
261.0,125.1,127.3,126.5,126.3,1.1
262.0,125.9,128.1,128.2,127.4,1.3
263.0,123.6,127.5,127.9,126.3,2.4
264.0,124.6,127.8,126.7,126.3,1.6
265.0,126.1,129.3,127.2,127.5,1.6
266.0,126.5,127.5,126.8,126.9,0.5
267.0,125.4,125.7,126.2,125.7,0.4
268.0,127.8,126.2,128.9,127.6,1.4
269.0,125.8,126.6,126.6,126.3,0.5
270.0,124.5,126.6,123.3,124.8,1.7
271.0,125.1,127.3,125.6,126.0,1.2
272.0,123.7,127.5,126.5,125.9,2.0
273.0,124.3,123.8,125.7,124.6,1.0
274.0,124.4,125.6,126.2,125.4,0.9
275.0,124.8,124.6,124.2,124.5,0.3
276.0,124.1,124.1,124.8,124.3,0.4
277.0,125.0,125.1,126.2,125.4,0.7
278.0,122.2,127.0,125.2,124.8,2.4
279.0,123.2,126.3,124.5,124.7,1.5
280.0,123.1,123.3,125.9,124.1,1.6
281.0,121.0,125.2,123.6,123.3,2.1
282.0,121.6,123.4,125.2,123.4,1.8
283.0,120.0,124.3,123.8,122.7,2.4
284.0,118.2,125.4,123.1,122.2,3.7
285.0,120.1,123.6,124.5,122.7,2.3
286.0,120.5,127.8,123.8,124.0,3.6
287.0,120.8,126.5,123.6,123.6,2.9
288.0,122.7,126.7,121.9,123.7,2.6
289.0,119.3,125.7,124.3,123.1,3.4
290.0,122.4,125.8,125.1,124.4,1.8
291.0,122.9,125.9,125.2,124.7,1.6
292.0,119.4,125.2,123.0,122.5,2.9
293.0,119.7,126.7,122.7,123.0,3.5
294.0,120.9,126.6,121.3,122.9,3.2
295.0,119.9,124.2,121.4,121.8,2.2
296.0,120.3,126.3,120.0,122.2,3.6
297.0,119.7,127.2,118.8,121.9,4.6
298.0,121.3,126.3,121.9,123.2,2.8
299.0,120.8,127.4,122.7,123.6,3.4
300.0,120.0,125.7,121.8,122.5,2.9
301.0,121.4,123.8,121.3,122.1,1.4
302.0,121.1,126.1,120.7,122.6,3.0
303.0,120.6,126.2,123.3,123.4,2.8
304.0,120.5,124.2,121.9,122.2,1.9
305.0,121.3,123.7,121.1,122.0,1.4
306.0,121.8,125.7,121.9,123.1,2.3
307.0,120.3,123.6,122.2,122.0,1.6
308.0,120.8,124.8,121.4,122.3,2.2
309.0,120.2,125.4,120.8,122.1,2.9
310.0,118.0,123.7,121.5,121.1,2.9
311.0,120.4,124.3,120.0,121.6,2.4
312.0,120.7,123.4,120.4,121.5,1.7
313.0,119.4,125.2,120.8,121.8,3.0
314.0,118.4,125.3,121.9,121.8,3.4
315.0,119.6,125.7,121.3,122.2,3.2
316.0,119.1,126.3,122.2,122.5,3.6
317.0,118.7,125.3,122.9,122.3,3.4
318.0,119.7,125.7,124.1,123.2,3.1
319.0,118.9,127.0,123.2,123.0,4.0
320.0,119.0,126.2,121.8,122.3,3.6
321.0,120.7,123.2,122.3,122.0,1.3
322.0,119.8,125.0,122.2,122.3,2.6
323.0,119.0,124.5,124.4,122.6,3.2
324.0,119.4,126.3,121.7,122.5,3.5
325.0,122.3,124.5,123.6,123.5,1.1
326.0,122.1,125.7,124.2,124.0,1.8
327.0,121.0,124.2,122.7,122.6,1.6
328.0,121.7,123.2,124.7,123.2,1.5
329.0,121.3,123.3,124.2,123.0,1.5
330.0,121.3,123.6,123.1,122.7,1.2
331.0,120.3,124.8,123.6,122.9,2.3
332.0,118.8,123.8,123.5,122.0,2.8
333.0,121.4,123.7,124.9,123.4,1.8
334.0,121.4,124.3,124.9,123.5,1.8
335.0,119.9,124.1,127.0,123.7,3.6
336.0,119.0,127.9,124.7,123.9,4.5
337.0,121.3,126.9,126.1,124.8,3.0
338.0,121.5,125.9,128.4,125.3,3.5
339.0,121.3,125.3,126.5,124.4,2.7
340.0,123.9,127.5,128.1,126.5,2.3
341.0,123.1,127.5,125.0,125.2,2.2
342.0,121.9,127.8,125.8,125.2,3.0
343.0,123.0,129.8,126.9,126.5,3.4
344.0,123.4,127.3,125.9,125.5,1.9
345.0,124.0,128.3,127.6,126.6,2.3
346.0,123.6,129.0,126.0,126.2,2.7
347.0,121.8,126.7,124.9,124.5,2.5
348.0,123.8,128.9,126.9,126.5,2.6
349.0,122.9,129.0,126.5,126.1,3.0
350.0,123.9,126.6,126.9,125.8,1.6
351.0,124.4,128.4,128.4,127.1,2.3
352.0,123.2,128.6,130.8,127.5,3.9
353.0,122.2,129.4,125.8,125.8,3.6
354.0,123.4,128.5,130.0,127.3,3.5
355.0,120.9,128.8,130.6,126.8,5.1
356.0,123.2,131.0,129.2,127.8,4.1
357.0,123.3,131.8,129.2,128.1,4.3
358.0,121.4,131.0,127.0,126.5,4.8
359.0,121.5,131.7,128.5,127.3,5.2
360.0,120.6,132.3,127.5,126.8,5.9
361.0,121.8,130.5,131.4,127.9,5.3
362.0,121.8,134.2,125.5,127.2,6.4
363.0,124.4,132.1,127.6,128.0,3.9
364.0,124.3,133.1,129.5,129.0,4.4
365.0,123.4,133.0,128.6,128.4,4.8
366.0,127.8,132.1,128.7,129.5,2.3
367.0,125.8,134.4,130.4,130.2,4.3
368.0,126.4,135.5,128.6,130.2,4.7
369.0,126.0,135.3,128.6,130.0,4.8
370.0,126.2,138.2,128.8,131.1,6.3
371.0,124.8,136.5,128.8,130.0,6.0
372.0,125.8,134.7,129.0,129.8,4.5
373.0,125.1,136.7,129.8,130.5,5.9
374.0,127.0,136.9,130.6,131.5,5.0
375.0,126.2,135.8,131.0,131.0,4.8
376.0,127.5,137.3,131.5,132.1,4.9
377.0,128.5,136.3,129.3,131.4,4.3
378.0,128.3,139.3,133.3,133.6,5.5
379.0,128.2,137.3,131.7,132.4,4.6
380.0,126.3,137.6,132.3,132.1,5.7
381.0,129.2,138.8,134.4,134.1,4.8
382.0,127.0,137.2,132.8,132.3,5.1
383.0,127.8,137.2,135.3,133.5,5.0
384.0,128.1,143.3,133.4,134.9,7.7
385.0,127.0,138.2,136.2,133.8,6.0
386.0,128.5,140.0,134.1,134.2,5.8
387.0,129.2,138.7,135.7,134.5,4.9
388.0,130.0,139.8,135.0,134.9,4.9
389.0,129.2,140.0,134.0,134.4,5.4
390.0,127.9,142.9,137.5,136.1,7.6
391.0,128.7,141.6,135.6,135.3,6.5
392.0,130.3,143.3,133.3,135.6,6.8
393.0,131.0,142.0,135.1,136.0,5.5
394.0,130.7,140.3,136.9,136.0,4.9
395.0,130.7,141.3,137.6,136.5,5.4
396.0,127.5,144.6,138.9,137.0,8.7
397.0,134.0,141.1,137.0,137.4,3.6
398.0,133.4,144.2,138.1,138.6,5.4
399.0,132.0,142.1,139.1,137.7,5.2
400.0,133.1,143.7,138.2,138.3,5.3
401.0,132.1,145.5,138.5,138.7,6.7
402.0,132.5,143.9,138.3,138.2,5.7
403.0,133.4,145.3,139.4,139.4,5.9
404.0,133.6,146.9,141.2,140.5,6.7
405.0,134.9,146.7,140.7,140.8,5.9
406.0,134.6,145.3,141.2,140.4,5.4
407.0,135.3,146.3,139.1,140.2,5.6
408.0,137.9,148.0,138.4,141.4,5.7
409.0,137.0,150.0,139.0,142.0,7.0
410.0,135.6,148.4,141.4,141.8,6.4
411.0,138.3,147.6,139.9,141.9,5.0
412.0,136.0,150.3,141.6,142.6,7.2
413.0,137.0,147.9,140.8,141.9,5.5
414.0,137.0,151.1,141.8,143.3,7.2
415.0,138.9,152.2,140.1,143.7,7.4
416.0,137.5,151.6,140.2,143.1,7.4
417.0,136.4,153.4,143.2,144.3,8.6
418.0,137.7,153.4,142.5,144.5,8.0
419.0,139.1,153.6,144.2,145.6,7.3
420.0,138.0,154.9,142.0,145.0,8.8
421.0,137.2,154.7,145.4,145.8,8.8
422.0,140.6,154.2,145.6,146.8,6.9
423.0,142.3,153.5,144.1,146.7,6.0
424.0,141.5,154.1,143.7,146.4,6.7
425.0,140.0,155.2,145.2,146.8,7.8
426.0,140.4,154.3,144.7,146.5,7.1
427.0,142.9,156.5,146.4,148.6,7.0
428.0,141.9,156.0,145.5,147.8,7.3
429.0,141.5,156.4,146.3,148.1,7.6
430.0,144.8,158.6,147.7,150.4,7.2
431.0,143.0,156.7,148.3,149.3,6.9
432.0,145.0,160.9,148.1,151.3,8.5
433.0,143.6,161.1,151.1,151.9,8.8
434.0,143.1,159.1,147.9,150.0,8.2
435.0,144.2,162.0,149.8,152.0,9.2
436.0,145.6,162.5,150.5,152.9,8.7
437.0,145.9,164.6,149.2,153.3,10.0
438.0,147.4,161.1,149.4,152.6,7.4
439.0,147.7,162.2,148.8,152.9,8.1
440.0,146.9,162.0,149.9,152.9,8.0
441.0,147.7,164.6,151.5,154.6,8.9
442.0,146.9,163.2,150.9,153.7,8.5
443.0,149.2,163.7,152.1,155.0,7.7
444.0,150.4,164.8,153.1,156.1,7.7
445.0,149.1,165.0,150.2,154.8,8.9
446.0,151.0,160.5,153.4,155.0,4.9
447.0,151.6,164.9,153.2,156.5,7.3
448.0,147.9,164.8,151.9,154.9,8.8
449.0,151.0,164.7,152.9,156.2,7.4
450.0,147.4,165.7,152.0,155.0,9.6
451.0,150.5,168.2,151.4,156.7,10.0
452.0,150.0,168.8,153.2,157.3,10.1
453.0,149.3,167.1,153.1,156.5,9.4
454.0,147.9,166.8,152.7,155.8,9.8
455.0,150.7,167.8,155.3,157.9,8.8
456.0,151.8,167.5,155.0,158.1,8.3
457.0,150.3,166.8,154.6,157.2,8.6
458.0,149.5,173.0,156.7,159.7,12.0
459.0,152.2,168.5,155.9,158.9,8.5
460.0,153.8,167.5,153.7,158.3,7.9
461.0,152.5,173.3,154.6,160.1,11.4
462.0,150.7,169.9,156.8,159.1,9.8
463.0,152.5,168.8,156.5,159.2,8.5
464.0,153.6,174.1,158.1,161.9,10.8
465.0,153.4,173.9,157.9,161.7,10.8
466.0,153.8,173.4,159.8,162.3,10.1
467.0,155.8,173.5,155.2,161.5,10.4
468.0,156.8,173.6,159.0,163.1,9.1
469.0,158.2,173.5,159.1,163.6,8.6
470.0,156.9,176.4,158.4,163.9,10.9
471.0,157.3,175.2,157.0,163.2,10.4
472.0,158.2,173.3,160.0,163.8,8.3
473.0,159.1,174.1,159.6,164.3,8.5
474.0,157.6,176.3,161.4,165.1,9.9
475.0,158.1,176.9,162.3,165.8,9.9
476.0,160.2,175.7,163.0,166.3,8.3
477.0,160.6,176.6,162.9,166.7,8.6
478.0,159.9,174.5,161.9,165.4,7.9
479.0,160.1,174.5,161.5,165.4,7.9
480.0,158.9,174.7,160.5,164.7,8.7
481.0,162.1,173.1,163.0,166.1,6.1
482.0,160.0,177.8,162.3,166.7,9.7
483.0,162.5,176.3,164.6,167.8,7.4
484.0,164.6,175.6,166.0,168.7,6.0
485.0,161.5,176.2,164.9,167.5,7.7
486.0,162.5,178.8,164.5,168.6,8.9
487.0,162.4,177.8,164.9,168.4,8.2
488.0,161.3,177.9,168.1,169.1,8.4
489.0,161.0,178.0,164.2,167.7,9.0
490.0,164.0,174.4,164.2,167.5,5.9
491.0,163.6,178.5,167.6,169.9,7.7
492.0,164.7,179.5,167.7,170.7,7.8
493.0,161.5,176.0,164.2,167.2,7.7
494.0,162.4,178.5,167.4,169.4,8.2
495.0,164.3,180.1,163.0,169.1,9.5
496.0,164.2,179.1,165.3,169.5,8.3
497.0,164.1,178.4,165.6,169.4,7.9
498.0,165.5,177.7,164.9,169.4,7.2
499.0,163.9,177.6,167.5,169.7,7.1
500.0,165.6,174.1,167.5,169.1,4.5
501.0,165.7,177.4,168.6,170.6,6.1
502.0,168.9,178.7,168.8,172.1,5.7
503.0,167.2,177.6,168.8,171.2,5.6
504.0,166.6,177.7,171.5,172.0,5.5
505.0,169.0,177.1,173.0,173.0,4.1
506.0,166.9,176.3,169.7,171.0,4.8
507.0,167.1,178.5,171.8,172.5,5.7
508.0,165.7,175.6,169.8,170.4,5.0
509.0,167.5,178.1,171.2,172.3,5.4
510.0,169.6,180.3,168.4,172.8,6.5
511.0,168.4,179.2,168.0,171.9,6.3
512.0,168.2,177.8,168.9,171.6,5.3
513.0,166.4,176.8,169.0,170.7,5.5
514.0,168.1,176.2,169.1,171.2,4.4
515.0,171.5,176.7,171.4,173.2,3.1
516.0,168.4,178.0,168.2,171.5,5.6
517.0,168.5,177.7,169.8,172.0,5.0
518.0,170.2,181.1,171.0,174.1,6.1
519.0,171.0,175.0,170.8,172.3,2.4
520.0,171.8,177.9,170.9,173.5,3.8
521.0,168.5,175.8,170.1,171.4,3.8
522.0,168.0,177.0,169.5,171.5,4.9
523.0,172.1,176.0,170.3,172.8,2.9
524.0,170.6,179.3,172.6,174.2,4.6
525.0,166.9,180.2,172.4,173.1,6.7
526.0,171.2,179.7,171.4,174.1,4.8
527.0,171.0,179.0,169.9,173.3,5.0
528.0,170.3,178.1,169.9,172.8,4.6
529.0,170.7,177.8,170.1,172.9,4.3
530.0,170.3,180.2,172.4,174.3,5.2
531.0,173.2,179.2,172.0,174.8,3.9
532.0,170.6,177.2,172.7,173.5,3.4
533.0,172.8,175.4,170.5,172.9,2.5
534.0,172.1,178.7,172.4,174.4,3.7
535.0,173.4,177.0,175.1,175.2,1.8
536.0,174.4,178.5,170.7,174.5,3.9
537.0,175.1,177.4,173.1,175.2,2.1
538.0,172.5,176.7,172.1,173.7,2.5
539.0,175.4,180.4,172.1,175.9,4.2
540.0,172.8,177.5,172.6,174.3,2.8
541.0,168.1,177.0,171.8,172.3,4.5
542.0,174.0,180.1,171.2,175.1,4.5
543.0,171.7,180.4,172.3,174.8,4.9
544.0,175.4,176.2,171.2,174.3,2.7
545.0,174.3,178.4,175.0,175.9,2.2
546.0,174.2,175.6,173.7,174.5,1.0
547.0,173.9,179.2,172.5,175.2,3.5
548.0,174.1,178.1,176.5,176.2,2.0
549.0,178.3,176.9,175.6,176.9,1.4
550.0,175.2,179.9,177.2,177.4,2.4
551.0,173.7,178.5,174.6,175.6,2.6
552.0,176.0,177.8,175.5,176.4,1.2
553.0,177.1,177.0,174.5,176.2,1.5
554.0,177.4,177.3,174.4,176.4,1.7
555.0,176.8,179.6,176.7,177.7,1.7
556.0,178.7,176.3,176.1,177.0,1.4
557.0,180.9,178.6,178.3,179.2,1.4
558.0,180.8,178.0,176.1,178.3,2.3
559.0,178.2,174.7,175.2,176.0,1.9
560.0,180.5,178.3,177.2,178.7,1.7
561.0,180.1,179.6,176.8,178.8,1.8
562.0,179.7,176.0,176.7,177.5,2.0
563.0,185.2,177.4,177.5,180.0,4.5
564.0,182.1,178.9,180.6,180.5,1.6
565.0,182.4,176.8,180.0,179.8,2.8
566.0,180.8,176.5,176.2,177.8,2.6
567.0,183.3,179.0,177.0,179.8,3.2
568.0,185.3,177.2,180.3,181.0,4.1
569.0,177.0,176.6,182.4,178.7,3.2
570.0,181.4,177.3,180.1,179.6,2.0
571.0,179.7,176.8,179.2,178.6,1.5
572.0,180.1,176.5,180.7,179.1,2.2
573.0,181.1,173.9,181.9,179.0,4.4
574.0,180.4,175.0,180.5,178.6,3.1
575.0,181.4,173.8,183.1,179.4,5.0
576.0,182.4,175.7,179.3,179.1,3.4
577.0,182.3,178.2,181.7,180.8,2.2
578.0,182.5,173.8,182.0,179.4,4.8
579.0,181.0,177.6,181.0,179.9,2.0
580.0,184.5,175.3,183.7,181.2,5.1
581.0,184.1,174.5,185.3,181.3,5.9
582.0,184.7,177.6,182.8,181.7,3.7
583.0,181.7,176.5,183.9,180.7,3.8
584.0,185.8,176.5,185.1,182.5,5.2
585.0,184.2,173.7,186.0,181.3,6.6
586.0,183.5,175.6,182.5,180.6,4.3
587.0,181.6,177.7,184.4,181.2,3.3
588.0,183.4,176.8,182.5,180.9,3.6
589.0,182.8,173.6,181.1,179.2,4.9
590.0,185.3,175.1,181.1,180.5,5.2
591.0,186.8,173.6,181.4,180.6,6.7
592.0,183.6,174.1,180.8,179.5,4.9
593.0,185.1,175.6,181.8,180.8,4.8
594.0,184.2,175.8,182.6,180.9,4.5
595.0,184.8,175.3,178.9,179.7,4.8
596.0,183.9,171.2,181.5,178.9,6.8
597.0,183.8,172.8,182.5,179.7,6.0
598.0,183.4,172.5,180.1,178.7,5.6
599.0,183.8,173.8,180.6,179.4,5.1
600.0,184.4,175.7,185.2,181.8,5.2
601.0,180.6,173.5,180.4,178.2,4.0
602.0,182.5,177.5,180.3,180.1,2.5
603.0,183.5,171.6,177.7,177.6,6.0
604.0,182.5,176.6,177.1,178.7,3.3
605.0,183.0,176.9,177.5,179.1,3.3
606.0,185.1,175.6,179.0,179.9,4.8
607.0,182.1,176.0,180.3,179.5,3.1
608.0,183.3,174.5,177.1,178.3,4.5
609.0,185.1,177.1,176.4,179.5,4.9
610.0,182.5,173.7,175.8,177.3,4.6
611.0,183.1,175.7,178.5,179.1,3.7
612.0,184.9,174.0,177.6,178.8,5.5
613.0,183.5,172.7,178.2,178.2,5.4
614.0,182.2,171.0,181.3,178.2,6.2
615.0,182.6,173.2,178.4,178.1,4.7
616.0,186.9,177.2,176.9,180.4,5.7
617.0,183.2,174.0,178.2,178.4,4.6
618.0,184.8,173.4,178.7,179.0,5.7
619.0,185.0,171.7,176.4,177.7,6.7
620.0,188.9,172.3,180.0,180.4,8.3
621.0,186.0,173.9,179.4,179.8,6.0
622.0,183.3,171.4,178.3,177.7,5.9
623.0,185.1,176.0,176.1,179.1,5.2
624.0,187.2,173.3,180.9,180.5,7.0
625.0,183.4,175.3,176.5,178.4,4.4
626.0,189.7,174.9,179.2,181.3,7.6
627.0,188.7,174.9,180.7,181.4,6.9
628.0,191.0,172.4,178.3,180.5,9.5
629.0,190.6,170.5,174.9,178.7,10.6
630.0,188.0,171.6,182.5,180.7,8.3
631.0,195.0,168.1,178.7,180.6,13.5
632.0,188.9,171.5,179.3,179.9,8.7
633.0,192.0,175.5,181.8,183.1,8.3
634.0,186.2,171.2,182.5,180.0,7.8
635.0,188.6,172.1,178.6,179.8,8.3
636.0,186.5,173.1,180.0,179.9,6.7
637.0,192.6,171.6,182.2,182.1,10.5
638.0,187.7,172.8,182.3,180.9,7.6
639.0,190.0,173.4,181.6,181.7,8.3
640.0,189.6,171.1,180.4,180.4,9.2
641.0,192.3,170.0,181.4,181.2,11.2
642.0,191.6,171.6,183.2,182.1,10.0
643.0,190.1,172.2,184.0,182.1,9.1
644.0,195.1,174.2,185.4,184.9,10.5
645.0,193.5,173.0,186.7,184.4,10.4
646.0,192.8,173.9,184.0,183.6,9.5
647.0,193.5,171.7,185.9,183.7,11.0
648.0,193.0,172.6,184.4,183.3,10.3
649.0,193.0,174.8,185.8,184.5,9.2
650.0,192.3,174.2,186.5,184.3,9.2
651.0,193.5,173.4,186.5,184.5,10.2
652.0,194.9,173.6,186.6,185.0,10.8
653.0,193.1,174.7,183.4,183.7,9.2
654.0,193.5,170.5,185.8,183.3,11.7
655.0,196.4,172.6,183.3,184.1,11.9
656.0,194.6,172.3,183.1,183.3,11.2
657.0,194.9,169.8,182.6,182.4,12.6
658.0,197.5,174.0,183.8,185.1,11.8
659.0,198.2,172.6,184.5,185.1,12.8
660.0,198.9,170.1,185.4,184.8,14.4
661.0,195.6,172.1,180.9,182.9,11.9
662.0,195.8,171.3,182.9,183.3,12.3
663.0,202.0,173.8,185.8,187.2,14.1
664.0,193.5,172.7,183.5,183.2,10.4
665.0,194.7,168.0,181.1,181.3,13.4
666.0,195.1,168.5,184.3,182.6,13.4
667.0,193.8,173.8,182.6,183.4,10.0
668.0,193.1,170.2,186.2,183.1,11.8
669.0,192.0,171.0,184.8,182.6,10.6
670.0,194.2,171.9,186.2,184.1,11.3
671.0,189.5,169.3,186.7,181.8,10.9
672.0,192.9,170.7,185.2,182.9,11.3
673.0,191.8,169.6,185.6,182.4,11.5
674.0,193.4,166.9,184.2,181.5,13.4
675.0,193.6,169.2,186.2,183.0,12.5
676.0,192.4,171.2,185.5,183.0,10.8
677.0,192.4,169.7,187.5,183.2,11.9
678.0,194.0,167.4,184.5,182.0,13.5
679.0,193.2,168.2,188.6,183.4,13.3
680.0,186.7,168.8,188.2,181.2,10.8
681.0,188.1,167.6,188.1,181.3,11.8
682.0,189.6,168.9,186.3,181.6,11.1
683.0,192.1,169.4,187.0,182.8,11.9
684.0,188.6,169.8,183.6,180.7,9.7
685.0,190.8,172.7,183.3,182.2,9.1
686.0,191.2,168.0,184.2,181.1,11.9
687.0,188.3,169.6,184.9,180.9,10.0
688.0,187.9,166.7,186.9,180.5,12.0
689.0,184.8,168.2,186.8,179.9,10.2
690.0,188.4,168.6,182.0,179.7,10.1
691.0,188.7,166.9,184.3,180.0,11.6
692.0,184.3,166.0,185.5,178.6,10.9
693.0,186.4,170.0,186.7,181.0,9.5
694.0,186.8,170.0,183.4,180.0,8.9
695.0,185.3,168.3,180.1,177.9,8.7
696.0,183.0,172.2,180.2,178.4,5.6
697.0,182.2,170.2,185.2,179.2,8.0
698.0,183.0,167.1,185.7,178.6,10.0
699.0,181.4,169.6,185.3,178.8,8.2
700.0,181.8,168.4,181.7,177.3,7.7
701.0,182.3,170.2,184.5,179.0,7.7
702.0,182.8,171.4,181.5,178.6,6.3
703.0,180.8,168.9,180.7,176.8,6.8
704.0,178.6,167.5,181.8,176.0,7.5
705.0,182.3,167.7,179.4,176.5,7.8
706.0,178.2,170.2,177.3,175.2,4.4
707.0,177.5,171.4,176.4,175.1,3.2
708.0,179.4,168.6,174.1,174.0,5.4
709.0,179.7,168.7,177.4,175.2,5.8
710.0,176.2,168.8,173.3,172.8,3.7
711.0,175.5,166.5,173.2,171.7,4.7
712.0,178.5,165.7,170.0,171.4,6.5
713.0,172.5,167.2,171.7,170.5,2.8
714.0,171.6,166.5,171.7,169.9,2.9
715.0,175.5,166.1,170.5,170.7,4.7
716.0,175.8,165.4,171.6,171.0,5.2
717.0,176.0,164.1,168.1,169.4,6.1
718.0,173.8,164.4,168.3,168.9,4.7
719.0,174.1,163.9,165.4,167.8,5.6
720.0,175.0,162.6,166.6,168.1,6.3
721.0,169.8,165.3,164.9,166.7,2.7
722.0,173.1,162.0,164.9,166.6,5.8
723.0,173.2,161.0,166.7,167.0,6.1
724.0,171.0,162.0,165.4,166.1,4.6
725.0,169.2,160.3,164.4,164.6,4.4
726.0,169.9,162.2,161.4,164.5,4.7
727.0,167.4,160.9,161.4,163.2,3.6
728.0,171.2,159.0,161.2,163.8,6.5
729.0,168.5,158.9,161.6,163.0,5.0
730.0,170.8,160.7,161.5,164.3,5.6
731.0,169.1,159.1,158.6,162.3,5.9
732.0,167.9,162.0,158.6,162.9,4.7
733.0,166.9,159.4,158.5,161.6,4.6
734.0,169.8,156.1,160.9,162.3,6.9
735.0,166.4,161.1,159.6,162.3,3.6
736.0,168.4,156.3,155.4,160.0,7.3
737.0,168.3,159.5,154.3,160.7,7.1
738.0,166.9,157.9,154.7,159.9,6.3
739.0,165.7,159.1,156.6,160.5,4.7
740.0,167.0,158.2,157.8,161.0,5.2
741.0,163.8,156.7,155.6,158.7,4.4
742.0,161.8,156.7,154.9,157.8,3.6
743.0,161.1,155.3,154.2,156.8,3.7
744.0,166.7,156.4,153.5,158.9,6.9
745.0,162.8,150.7,155.3,156.3,6.1
746.0,159.5,153.7,153.6,155.6,3.4
747.0,160.2,153.6,153.1,155.6,4.0
748.0,159.8,150.5,154.5,154.9,4.6
749.0,161.8,149.9,154.6,155.4,6.0
750.0,160.4,148.9,152.5,153.9,5.9
751.0,157.9,147.8,150.2,152.0,5.3
752.0,156.0,147.1,150.9,151.3,4.5
753.0,157.3,143.3,148.9,149.8,7.0
754.0,155.1,141.1,149.2,148.5,7.0
755.0,155.3,139.7,147.2,147.4,7.8
756.0,154.1,138.4,147.7,146.7,7.9
757.0,152.6,135.3,146.7,144.9,8.8
758.0,151.4,129.7,144.8,142.0,11.1
759.0,149.0,132.8,143.7,141.8,8.2
760.0,148.3,129.8,144.4,140.8,9.8
761.0,147.9,124.6,144.5,139.0,12.6
762.0,145.2,121.4,142.0,136.2,12.9
763.0,145.0,118.0,141.8,134.9,14.7
764.0,145.2,115.4,141.7,134.1,16.3
765.0,144.0,113.3,140.8,132.7,16.9
766.0,142.2,110.8,139.5,130.8,17.4
767.0,140.8,105.9,140.2,129.0,20.0
768.0,141.3,103.0,137.9,127.4,21.2
769.0,139.8,100.5,138.3,126.2,22.3
770.0,137.8,96.1,135.5,123.1,23.4
771.0,132.5,92.4,133.8,119.6,23.5
772.0,133.8,89.5,134.4,119.2,25.7
773.0,130.8,88.0,133.1,117.3,25.4
774.0,131.1,84.0,131.5,115.5,27.3
775.0,130.7,84.1,132.9,115.9,27.6
776.0,131.0,81.3,128.3,113.5,28.0
777.0,128.5,80.3,129.1,112.6,28.0
778.0,128.1,79.6,127.1,111.6,27.7
779.0,126.0,77.9,128.0,110.6,28.4
780.0,123.6,78.0,127.3,109.6,27.4
781.0,122.8,77.0,124.6,108.1,26.9
782.0,121.6,76.1,122.8,106.9,26.6
783.0,119.5,75.1,121.8,105.5,26.3
784.0,118.4,73.6,121.4,104.4,26.8
785.0,116.7,72.4,119.7,102.9,26.5
786.0,114.3,70.9,117.0,100.7,25.9
787.0,112.8,69.2,116.6,99.5,26.4
788.0,110.3,67.9,113.9,97.4,25.6
789.0,109.6,67.5,113.1,96.7,25.4
790.0,109.2,68.5,112.0,96.6,24.3
791.0,108.1,66.6,110.1,94.9,24.6
792.0,106.0,66.1,109.4,93.8,24.1
793.0,105.4,66.4,108.6,93.4,23.5
794.0,102.8,65.2,105.2,91.1,22.4
795.0,103.5,65.2,103.9,90.9,22.2
796.0,100.4,64.2,104.0,89.5,22.0
797.0,99.0,63.1,101.1,87.7,21.4
798.0,97.9,62.9,98.2,86.4,20.3
799.0,96.6,61.2,95.8,84.5,20.2
800.0,95.4,61.9,95.2,84.2,19.3
801.0,95.2,61.1,94.0,83.4,19.3
802.0,95.0,60.6,92.0,82.5,19.1
803.0,93.8,60.4,91.0,81.7,18.5
804.0,94.3,59.2,89.5,81.0,19.0
805.0,95.3,59.1,89.0,81.1,19.4
806.0,93.5,59.1,87.5,80.0,18.4
807.0,93.5,58.0,87.2,79.6,18.9
808.0,93.3,58.0,86.0,79.1,18.6
809.0,92.6,56.9,83.2,77.6,18.5
810.0,95.8,57.7,83.2,78.9,19.4
811.0,96.2,57.3,81.0,78.2,19.6
812.0,95.0,58.4,80.4,77.9,18.5
813.0,97.3,57.5,78.4,77.7,19.9
814.0,95.8,56.4,78.4,76.9,19.7
815.0,96.2,56.7,77.8,76.9,19.7
816.0,95.5,57.2,77.5,76.7,19.2
817.0,95.0,56.8,76.9,76.2,19.1
818.0,95.6,55.8,75.9,75.8,19.9
819.0,96.5,56.8,74.8,76.0,19.8
820.0,95.2,56.3,74.2,75.2,19.5
821.0,94.3,57.0,73.0,74.8,18.7
822.0,95.7,57.2,71.7,74.9,19.4
823.0,94.4,58.1,71.3,74.6,18.4
824.0,93.0,56.1,69.4,72.8,18.7
825.0,93.5,55.0,69.8,72.8,19.4
826.0,93.6,54.4,68.6,72.2,19.8
827.0,91.9,55.1,68.9,72.0,18.6
828.0,92.9,54.3,68.5,71.9,19.6
829.0,91.7,54.1,68.3,71.4,19.0
830.0,91.8,53.5,68.8,71.3,19.3
831.0,90.4,53.5,69.2,71.0,18.5
832.0,90.2,53.0,67.9,70.4,18.7
833.0,88.1,51.8,67.6,69.2,18.2
834.0,87.8,53.2,68.2,69.7,17.3
835.0,86.7,52.3,67.6,68.9,17.2
836.0,86.7,52.6,68.2,69.2,17.1
837.0,85.7,52.3,66.9,68.3,16.8
838.0,86.1,51.6,66.5,68.1,17.3
839.0,84.2,52.0,67.0,67.7,16.1
840.0,85.3,51.7,66.1,67.7,16.8
841.0,84.6,52.2,67.0,67.9,16.2
842.0,82.7,52.1,65.0,66.6,15.4
843.0,82.7,51.8,65.9,66.8,15.5
844.0,83.1,51.9,65.9,67.0,15.6
845.0,82.2,52.0,65.4,66.5,15.1
846.0,82.2,52.4,64.7,66.4,15.0
847.0,81.3,52.4,65.8,66.5,14.5
848.0,81.1,51.9,66.4,66.5,14.6
849.0,81.7,51.6,65.3,66.2,15.1
850.0,80.4,52.3,66.4,66.4,14.1
851.0,80.3,52.8,65.9,66.3,13.8
852.0,79.6,51.7,65.6,65.7,14.0
853.0,78.2,51.6,66.8,65.5,13.3
854.0,79.3,51.0,65.2,65.2,14.1
855.0,77.9,50.5,65.4,64.6,13.7
856.0,77.6,50.7,64.7,64.4,13.4
857.0,77.7,50.6,64.2,64.2,13.5
858.0,77.1,50.3,64.5,64.0,13.4
859.0,77.4,50.3,64.6,64.1,13.6
860.0,77.3,50.6,63.5,63.8,13.4
861.0,76.0,49.6,63.8,63.2,13.2
862.0,76.9,49.7,64.1,63.6,13.6
863.0,75.3,49.7,64.0,63.0,12.8
864.0,75.8,48.4,63.1,62.4,13.7
865.0,75.7,48.3,63.8,62.6,13.7
866.0,73.9,48.5,63.4,61.9,12.8
867.0,74.1,48.3,63.4,62.0,13.0
868.0,73.3,48.0,62.8,61.4,12.7
869.0,73.6,47.5,61.6,60.9,13.1
870.0,72.8,47.4,63.0,61.1,12.8
871.0,71.8,47.6,63.8,61.1,12.4
872.0,71.6,47.7,64.0,61.1,12.2
873.0,72.1,47.7,65.2,61.7,12.6
874.0,71.0,47.6,64.3,61.0,12.1
875.0,70.9,47.1,64.8,60.9,12.4
876.0,70.6,47.4,63.9,60.6,11.9
877.0,69.9,47.0,63.4,60.1,11.8
878.0,71.3,46.7,63.9,60.6,12.6
879.0,69.9,47.4,62.0,59.8,11.4
880.0,71.0,47.6,62.2,60.3,11.9
881.0,70.9,47.2,63.8,60.6,12.1
882.0,69.7,47.1,63.0,59.9,11.6
883.0,70.1,47.0,62.6,59.9,11.8
884.0,70.3,48.3,62.6,60.4,11.2
885.0,69.4,47.4,62.9,59.9,11.3
886.0,69.2,47.8,63.1,60.1,11.0
887.0,69.6,48.1,62.4,60.0,11.0
888.0,68.0,48.2,61.6,59.3,10.1
889.0,68.7,47.9,60.6,59.1,10.5
890.0,66.9,47.6,61.9,58.8,10.0
891.0,67.3,47.4,60.7,58.5,10.1
892.0,67.1,47.3,60.3,58.2,10.0
893.0,67.3,47.3,60.3,58.3,10.2
894.0,67.0,46.4,60.1,57.9,10.5
895.0,67.4,46.7,59.4,57.8,10.4
896.0,67.6,45.8,60.6,58.0,11.1
897.0,67.6,46.2,59.5,57.8,10.8
898.0,67.1,45.9,60.0,57.7,10.8
899.0,67.5,47.2,60.7,58.4,10.3
900.0,67.2,45.9,60.5,57.9,10.9
901.0,66.4,46.4,60.0,57.6,10.3
902.0,66.9,46.3,59.9,57.7,10.5
903.0,67.5,45.9,61.0,58.1,11.1
904.0,67.9,45.6,59.7,57.7,11.3
905.0,66.3,45.6,59.5,57.1,10.6
906.0,66.1,45.6,60.2,57.3,10.6
907.0,64.5,45.4,59.4,56.4,9.9
908.0,65.4,45.7,59.6,56.9,10.1
909.0,63.5,45.7,59.7,56.3,9.4
910.0,64.0,46.0,59.8,56.6,9.4
911.0,64.5,45.5,60.4,56.8,10.0
912.0,64.5,45.8,59.7,56.7,9.7
913.0,64.5,45.8,60.3,56.8,9.8
914.0,63.7,46.4,59.5,56.6,9.0
915.0,64.5,46.5,59.3,56.8,9.3
916.0,65.2,46.9,59.8,57.3,9.4
917.0,64.5,47.2,59.4,57.0,8.9
918.0,63.3,46.9,59.4,56.5,8.6
919.0,64.2,47.2,58.6,56.7,8.6
920.0,64.3,47.1,59.7,57.1,8.9
921.0,63.5,46.7,59.7,56.6,8.8
922.0,63.0,45.6,59.5,56.0,9.2
923.0,63.7,45.8,58.8,56.1,9.3
924.0,63.1,44.8,59.8,55.9,9.8
925.0,63.7,43.9,59.4,55.7,10.4
926.0,63.1,44.0,59.3,55.5,10.1
927.0,61.7,44.2,60.0,55.3,9.6
928.0,62.8,43.9,60.3,55.6,10.3
929.0,62.9,43.2,59.5,55.2,10.5
930.0,62.5,42.9,59.7,55.0,10.6
931.0,62.8,42.9,59.9,55.2,10.7
932.0,62.4,42.2,59.8,54.8,11.0
933.0,61.3,42.0,60.3,54.5,10.9
934.0,61.2,41.6,59.2,54.0,10.8
935.0,62.1,41.7,60.0,54.6,11.2
936.0,60.8,42.2,59.2,54.1,10.3
937.0,60.9,43.0,60.4,54.8,10.2
938.0,61.5,42.9,59.8,54.7,10.3
939.0,61.4,43.5,60.2,55.1,10.0
940.0,61.9,43.4,60.5,55.3,10.3
941.0,61.5,43.8,60.7,55.3,10.0
942.0,61.6,43.2,59.3,54.7,10.0
943.0,62.6,44.0,59.8,55.5,10.0
944.0,62.6,43.4,59.7,55.2,10.4
945.0,62.9,43.8,59.4,55.4,10.2
946.0,62.6,43.6,58.8,55.0,10.0
947.0,62.1,43.3,59.7,55.0,10.2
948.0,62.3,43.9,59.0,55.1,9.8
949.0,61.8,43.5,59.4,54.9,9.9
950.0,61.9,43.7,58.4,54.7,9.7
951.0,61.7,44.0,59.5,55.1,9.6
952.0,61.3,43.5,58.4,54.4,9.6
953.0,60.9,43.6,58.1,54.2,9.3
954.0,61.0,43.0,58.6,54.2,9.8
955.0,60.6,43.3,57.3,53.7,9.2
956.0,60.7,43.2,58.6,54.2,9.6
957.0,59.7,42.8,58.9,53.8,9.5
958.0,60.2,41.6,58.0,53.3,10.1
959.0,60.1,43.1,59.0,54.1,9.5
960.0,59.7,43.7,58.6,54.0,8.9
961.0,60.2,43.2,60.1,54.5,9.8
962.0,60.2,43.2,59.7,54.4,9.6
963.0,60.1,43.6,60.5,54.8,9.6
964.0,59.9,43.7,59.9,54.5,9.3
965.0,59.3,43.9,60.0,54.4,9.1
966.0,60.4,44.1,60.7,55.1,9.5
967.0,61.9,43.3,61.0,55.4,10.5
968.0,62.1,43.5,60.8,55.5,10.4
969.0,62.7,43.3,61.0,55.7,10.7
970.0,62.9,43.2,59.6,55.2,10.6
971.0,61.7,43.4,60.4,55.2,10.2
972.0,61.5,43.0,61.2,55.2,10.6
973.0,61.5,43.5,60.2,55.0,10.0
974.0,61.0,43.7,59.8,54.8,9.7
975.0,60.1,43.4,60.3,54.6,9.7
976.0,59.2,42.9,61.1,54.4,10.0
977.0,59.2,42.6,60.9,54.2,10.1
978.0,59.2,42.5,61.2,54.3,10.3
979.0,58.2,42.6,61.5,54.1,10.1
980.0,58.1,42.1,61.3,53.8,10.3
981.0,58.0,42.7,61.5,54.1,10.0
982.0,57.5,42.8,62.3,54.2,10.2
983.0,57.1,42.6,61.6,53.8,9.9
984.0,57.1,43.8,62.2,54.3,9.5
985.0,57.4,42.6,60.9,53.6,9.7
986.0,56.8,43.6,61.4,53.9,9.2
987.0,57.3,42.8,61.4,53.8,9.8
988.0,56.9,42.3,60.3,53.2,9.6
989.0,56.9,42.6,60.9,53.5,9.6
990.0,55.8,41.9,60.0,52.6,9.5
991.0,57.4,42.1,59.4,53.0,9.5
992.0,57.3,42.2,59.4,53.0,9.4
993.0,56.8,42.2,58.7,52.6,9.0
994.0,57.9,42.8,57.8,52.8,8.7
995.0,56.9,42.2,59.4,52.8,9.3
996.0,58.1,42.3,58.8,53.1,9.3
997.0,57.9,43.1,58.5,53.2,8.7
998.0,57.5,42.9,59.4,53.3,9.0
999.0,57.4,42.9,58.8,53.0,8.8
1000.0,58.0,43.4,59.0,53.5,8.7
1001.0,58.0,43.1,60.1,53.7,9.3
1002.0,57.1,43.0,59.4,53.2,8.9
1003.0,56.9,42.8,59.6,53.1,9.0
1004.0,56.0,43.0,59.1,52.7,8.6
1005.0,56.3,42.8,59.3,52.8,8.8
1006.0,55.8,42.2,60.0,52.7,9.3
1007.0,55.7,41.2,59.6,52.2,9.7
1008.0,54.8,41.6,59.7,52.0,9.4
1009.0,54.8,41.6,60.0,52.1,9.5
1010.0,54.8,40.9,59.5,51.7,9.7
1011.0,53.4,40.9,58.9,51.1,9.2
1012.0,53.5,40.6,59.0,51.0,9.4
1013.0,52.4,39.8,59.8,50.7,10.1
1014.0,52.3,40.9,59.8,51.0,9.5
1015.0,52.7,40.7,60.0,51.1,9.7
1016.0,52.0,40.6,60.9,51.2,10.2
1017.0,52.4,40.4,60.2,51.0,10.0
1018.0,51.7,40.5,60.1,50.8,9.8
1019.0,52.5,41.1,59.3,50.9,9.2
1020.0,52.8,40.4,60.5,51.2,10.1
1021.0,52.7,40.7,58.7,50.7,9.2
1022.0,53.2,40.5,59.6,51.1,9.7
1023.0,54.0,40.9,59.7,51.5,9.7
1024.0,53.5,41.1,60.2,51.6,9.7
1025.0,54.1,41.7,60.7,52.2,9.6
1026.0,54.3,41.2,60.8,52.1,10.0
1027.0,54.3,41.7,61.3,52.4,10.0
1028.0,54.2,41.6,60.8,52.2,9.7
1029.0,54.5,42.0,60.0,52.2,9.2
1030.0,53.8,41.1,59.6,51.5,9.5
1031.0,54.5,40.5,60.2,51.7,10.1
1032.0,53.2,40.1,59.7,51.0,10.0
1033.0,53.3,40.4,58.5,50.7,9.3
1034.0,52.8,40.4,58.3,50.5,9.2
1035.0,52.4,40.2,57.9,50.2,9.1
1036.0,51.9,40.5,57.7,50.0,8.8
1037.0,52.0,40.1,57.2,49.8,8.7
1038.0,52.4,39.9,57.9,50.1,9.2
1039.0,51.7,40.1,57.5,49.8,8.9
1040.0,52.4,40.2,58.2,50.3,9.2
1041.0,52.1,40.3,57.8,50.1,8.9
1042.0,52.2,40.1,57.0,49.8,8.7
1043.0,51.7,38.8,57.5,49.4,9.6
1044.0,51.8,39.5,57.1,49.5,9.0
1045.0,51.5,39.4,56.1,49.0,8.6
1046.0,51.7,39.2,57.1,49.4,9.2
1047.0,51.4,39.3,56.9,49.2,9.0
1048.0,51.4,38.9,55.7,48.7,8.8
1049.0,51.1,39.3,55.9,48.8,8.6
1050.0,51.3,40.6,56.3,49.4,8.1
1051.0,51.2,39.3,55.1,48.5,8.2
1052.0,50.6,39.2,57.2,49.0,9.1
1053.0,50.4,39.3,56.7,48.8,8.8
1054.0,50.4,39.9,57.1,49.1,8.7
1055.0,51.3,40.4,56.9,49.5,8.4
1056.0,51.1,39.9,57.1,49.4,8.7
1057.0,51.2,40.6,56.6,49.5,8.1
1058.0,51.6,40.6,56.2,49.5,8.1
1059.0,52.3,40.6,56.7,49.9,8.3
1060.0,51.9,41.0,56.3,49.7,7.8
1061.0,52.4,40.9,55.8,49.7,7.8
1062.0,52.4,40.4,56.6,49.8,8.4
1063.0,52.3,40.4,55.9,49.6,8.1
1064.0,52.1,40.3,56.6,49.7,8.4
1065.0,52.4,40.9,56.0,49.7,7.9
1066.0,51.6,40.9,56.1,49.5,7.8
1067.0,52.0,41.1,55.3,49.5,7.4
1068.0,53.2,40.3,55.9,49.8,8.3
1069.0,52.0,41.5,56.1,49.9,7.6
1070.0,52.7,41.6,55.6,49.9,7.4
1071.0,53.0,41.3,55.3,49.8,7.5
1072.0,51.6,41.1,54.5,49.1,7.1
1073.0,51.3,41.1,55.3,49.2,7.3
1074.0,51.1,41.5,55.1,49.2,7.0
1075.0,51.0,41.5,55.3,49.3,7.1
1076.0,51.7,41.0,55.1,49.3,7.4
1077.0,51.7,40.7,54.4,48.9,7.3
1078.0,52.1,40.0,54.9,49.0,7.9
1079.0,53.4,40.3,54.5,49.4,7.9
1080.0,54.6,39.5,54.7,49.6,8.7
1081.0,55.0,39.2,53.8,49.4,8.8
1082.0,55.0,38.4,53.9,49.1,9.3
1083.0,55.1,38.7,54.3,49.4,9.3
1084.0,55.1,38.5,54.1,49.2,9.3
1085.0,55.4,38.3,54.4,49.4,9.6
1086.0,54.7,38.5,55.3,49.5,9.5
1087.0,54.0,38.6,54.5,49.0,9.1
1088.0,52.8,39.0,54.6,48.8,8.5
1089.0,51.9,39.3,54.8,48.7,8.2
1090.0,51.3,38.8,54.4,48.1,8.3
1091.0,51.9,39.2,55.5,48.8,8.6
1092.0,51.0,39.1,55.2,48.4,8.4
1093.0,50.3,39.3,54.8,48.2,8.0
1094.0,49.8,39.1,55.1,48.0,8.1
1095.0,50.0,38.9,55.2,48.0,8.3
1096.0,50.0,38.9,56.6,48.5,8.9
1097.0,50.1,38.8,56.1,48.3,8.8
1098.0,49.7,38.5,57.0,48.4,9.3
1099.0,49.9,39.3,56.3,48.5,8.6
1100.0,49.3,38.3,56.2,47.9,9.0
1101.0,49.8,38.1,55.9,47.9,9.0
1102.0,49.8,36.7,55.7,47.4,9.7
1103.0,49.6,36.9,54.8,47.1,9.2
1104.0,50.0,36.7,55.0,47.2,9.5
1105.0,49.7,37.0,55.5,47.4,9.5
1106.0,49.5,36.6,54.9,47.0,9.4
1107.0,49.3,36.7,55.0,47.0,9.3
1108.0,49.4,36.9,54.7,47.0,9.2
1109.0,48.8,36.7,55.1,46.9,9.4
1110.0,48.8,36.5,54.0,46.4,9.0
1111.0,48.5,36.6,54.8,46.6,9.2
1112.0,48.1,36.9,55.7,46.9,9.4
1113.0,49.1,36.7,53.9,46.6,8.9
1114.0,48.7,36.8,55.0,46.9,9.3
1115.0,48.6,36.7,55.0,46.8,9.3
1116.0,48.5,37.2,54.0,46.6,8.6
1117.0,48.7,36.6,54.1,46.4,9.0
1118.0,48.4,36.5,54.5,46.5,9.2
1119.0,48.0,36.8,54.7,46.5,9.1
1120.0,48.2,36.4,55.3,46.6,9.5
1121.0,48.5,36.0,56.0,46.8,10.1
1122.0,48.6,36.9,55.8,47.1,9.5
1123.0,48.5,36.8,55.6,47.0,9.5
1124.0,49.0,37.6,56.4,47.7,9.4
1125.0,48.9,37.6,56.8,47.7,9.7
1126.0,49.2,37.9,55.6,47.6,8.9
1127.0,48.7,37.8,56.5,47.6,9.4
1128.0,49.2,37.5,56.1,47.6,9.4
1129.0,48.8,37.5,55.9,47.4,9.3
1130.0,48.9,37.3,55.2,47.1,9.1
1131.0,49.1,37.8,55.7,47.6,9.1
1132.0,48.9,37.5,55.8,47.4,9.2
1133.0,49.0,37.4,54.7,47.0,8.8
1134.0,49.1,37.0,54.6,46.9,9.0
1135.0,48.8,36.7,55.3,46.9,9.4
1136.0,49.7,36.9,54.6,47.0,9.1
1137.0,49.3,36.8,54.7,46.9,9.2
1138.0,49.1,37.1,54.7,47.0,9.0
1139.0,48.8,37.0,55.3,47.1,9.3
1140.0,48.6,37.4,55.1,47.0,9.0
1141.0,48.7,36.6,55.4,46.9,9.5
1142.0,49.1,37.4,55.5,47.4,9.2
1143.0,50.3,37.1,55.0,47.5,9.3
1144.0,49.9,36.9,54.6,47.1,9.2
1145.0,49.1,37.3,55.3,47.3,9.1
1146.0,48.8,36.8,56.0,47.2,9.7
1147.0,48.9,37.4,55.8,47.4,9.3
1148.0,48.6,37.4,56.6,47.5,9.6
1149.0,49.0,37.4,57.4,47.9,10.1
1150.0,48.6,37.4,57.7,47.9,10.2
1151.0,48.5,37.5,57.3,47.8,9.9
1152.0,47.8,36.5,57.4,47.2,10.5
1153.0,48.5,37.2,56.3,47.3,9.6
1154.0,48.8,37.5,57.1,47.8,9.8
1155.0,49.0,37.3,55.8,47.4,9.3
1156.0,49.0,37.4,56.2,47.5,9.5
1157.0,49.3,37.5,56.5,47.7,9.6
1158.0,49.0,37.4,56.7,47.7,9.7
1159.0,49.5,38.0,56.5,48.0,9.3
1160.0,48.6,38.2,55.7,47.5,8.8
1161.0,49.2,38.2,55.8,47.7,8.9
1162.0,49.3,39.0,55.5,47.9,8.4
1163.0,49.2,,54.3,51.7,3.6
1164.0,49.4,,54.0,51.7,3.2
1165.0,49.3,,53.4,51.4,2.9
1166.0,50.3,,53.1,51.7,2.0
1167.0,48.9,,53.9,51.4,3.5
1168.0,49.4,,54.6,52.0,3.7
1169.0,48.7,,52.9,50.8,3.0
1170.0,48.8,,54.0,51.4,3.6
1171.0,49.3,,53.2,51.3,2.7
1172.0,48.5,,52.8,50.7,3.1
1173.0,47.9,,52.6,50.3,3.3
1174.0,47.4,,51.4,49.4,2.9
1175.0,47.1,,53.2,50.1,4.3
1176.0,47.5,,52.5,50.0,3.5
1177.0,47.7,,51.4,49.5,2.6
1178.0,47.1,,51.4,49.3,3.0
1179.0,46.3,,51.1,48.7,3.4
1180.0,47.2,,51.1,49.2,2.7
1181.0,47.1,,52.0,49.5,3.5
1182.0,46.9,,52.8,49.8,4.2
1183.0,47.3,,53.5,50.4,4.4
1184.0,47.0,,52.9,49.9,4.2
1185.0,47.3,,54.2,50.8,4.9
1186.0,47.2,,53.7,50.4,4.6
1187.0,47.4,,54.3,50.8,4.9
1188.0,48.0,,53.6,50.8,4.0
1189.0,46.8,,53.6,50.2,4.8
1190.0,45.7,,53.4,49.6,5.4
1191.0,46.4,,53.5,49.9,5.0
1192.0,46.0,,53.0,49.5,5.0
1193.0,45.5,,53.3,49.4,5.5
1194.0,45.5,,54.5,50.0,6.3
1195.0,45.6,,,45.6,
1196.0,46.3,,,46.3,
1197.0,45.8,,,45.8,
1198.0,44.8,,,44.8,
1198.5,45.4,,,45.4,