File: 01_Data/PLA_3D_Printer_Filament/FTIR/IS/PLA_3D_Printer_Filament_IS_S_221108_R1.dpt
7497.03,0.04882
7491.25,0.04321
7485.46,0.05384
7479.67,0.04698
7473.89,0.04384
7468.1,0.04327
7462.32,0.03979
7456.53,0.05185
7450.74,0.05769
7444.96,0.05886
7439.17,0.05873
7433.38,0.05142
7427.6,0.05412
7421.81,0.05370
7416.03,0.05337
7410.24,0.05521
7404.45,0.05807
7398.67,0.04600
7392.88,0.04289
7387.09,0.04932
7381.31,0.04800
7375.52,0.04972
7369.74,0.04886
7363.95,0.06169
7358.16,0.06136
7352.38,0.05038
7346.59,0.05936
7340.8,0.05339
7335.02,0.05230
7329.23,0.04156
7323.45,0.05304
7317.66,0.04950
7311.87,0.04509
7306.09,0.04948
7300.3,0.04813
7294.51,0.04654
7288.73,0.04093
7282.94,0.04996
7277.16,0.04817
7271.37,0.05463
7265.58,0.05043
7259.8,0.05385
7254.01,0.05526
7248.22,0.05494
7242.44,0.05962
7236.65,0.04934
7230.87,0.05502
7225.08,0.05531
7219.29,0.04475
7213.51,0.05169
7207.72,0.04705
7201.93,0.05321
7196.15,0.04875
7190.36,0.05791
7184.58,0.05378
7178.79,0.05196
7173,0.05349
7167.22,0.05533
7161.43,0.05418
7155.65,0.05116
7149.86,0.04912
7144.07,0.04010
7138.29,0.05101
7132.5,0.05385
7126.71,0.04696
7120.93,0.05081
7115.14,0.05040
7109.36,0.05007
7103.57,0.05062
7097.78,0.05122
7092,0.04838
7086.21,0.04419
7080.42,0.04984
7074.64,0.05175
7068.85,0.04806
7063.07,0.05443
7057.28,0.04925
7051.49,0.04791
7045.71,0.04696
7039.92,0.05004
7034.13,0.04565
7028.35,0.04783
7022.56,0.04208
7016.78,0.04878
7010.99,0.04830
7005.2,0.05199
6999.42,0.05054
6993.63,0.05345
6987.84,0.04895
6982.06,0.04743
6976.27,0.04926
6970.49,0.04900
6964.7,0.05131
6958.91,0.05329
6953.13,0.04948
6947.34,0.04744
6941.55,0.04575
6935.77,0.04868
6929.98,0.05152
6924.2,0.04686
6918.41,0.04939
6912.62,0.04989
6906.84,0.04965
6901.05,0.05202
6895.26,0.04985
6889.48,0.05349
6883.69,0.04909
6877.91,0.04674
6872.12,0.05127
6866.33,0.05011
6860.55,0.04878
6854.76,0.04311
6848.97,0.04477
6843.19,0.05234
6837.4,0.04983
6831.62,0.04613
6825.83,0.05204
6820.04,0.04932
6814.26,0.04982
6808.47,0.04768
6802.68,0.05189
6796.9,0.05110
6791.11,0.05080
6785.33,0.05123
6779.54,0.05181
6773.75,0.04760
6767.97,0.04713
6762.18,0.04554
6756.39,0.04472
6750.61,0.04973
6744.82,0.04680
6739.04,0.04357
6733.25,0.04909
6727.46,0.05074
6721.68,0.04570
6715.89,0.04840
6710.1,0.05254
6704.32,0.04645
6698.53,0.04873
6692.75,0.04774
6686.96,0.04911
6681.17,0.05076
6675.39,0.04904
6669.6,0.04791
6663.82,0.04876
6658.03,0.05291
6652.24,0.05010
6646.46,0.04804
6640.67,0.04930
6634.88,0.04931
6629.1,0.04618
6623.31,0.04599
6617.53,0.04791
6611.74,0.05144
6605.95,0.04767
6600.17,0.05017
6594.38,0.04778
6588.59,0.04903
6582.81,0.04627
6577.02,0.04983
6571.24,0.04602
6565.45,0.04841
6559.66,0.05149
6553.88,0.05359
6548.09,0.04984
6542.3,0.04589
6536.52,0.04998
6530.73,0.04644
6524.95,0.04845
6519.16,0.04822
6513.37,0.04598
6507.59,0.04864
6501.8,0.04897
6496.01,0.04804
6490.23,0.05297
6484.44,0.05257
6478.66,0.04438
6472.87,0.04712
6467.08,0.04979
6461.3,0.04630
6455.51,0.04755
6449.72,0.05169
6443.94,0.05151
6438.15,0.04473
6432.37,0.05271
6426.58,0.05151
6420.79,0.04880
6415.01,0.04843
6409.22,0.05067
6403.43,0.04770
6397.65,0.04779
6391.86,0.04317
6386.08,0.04799
6380.29,0.05130
6374.5,0.05179
6368.72,0.05037
6362.93,0.05129
6357.14,0.04558
6351.36,0.04604
6345.57,0.04729
6339.79,0.04963
6334,0.04912
6328.21,0.04706
6322.43,0.04948
6316.64,0.04737
6310.85,0.04735
6305.07,0.04738
6299.28,0.05064
6293.5,0.04856
6287.71,0.04958
6281.92,0.04763
6276.14,0.04961
6270.35,0.04507
6264.56,0.04765
6258.78,0.04907
6252.99,0.04804
6247.21,0.04563
6241.42,0.05058
6235.63,0.05013
6229.85,0.04541
6224.06,0.04670
6218.27,0.04493
6212.49,0.04956
6206.7,0.04745
6200.92,0.04629
6195.13,0.04810
6189.34,0.05079
6183.56,0.04933
6177.77,0.04888
6171.98,0.04894
6166.2,0.04844
6160.41,0.04944
6154.63,0.04572
6148.84,0.04460
6143.05,0.05019
6137.27,0.04885
6131.48,0.05272
6125.7,0.04850
6119.91,0.04809
6114.12,0.04735
6108.34,0.05059
6102.55,0.04977
6096.76,0.04902
6090.98,0.04730
6085.19,0.04900
6079.41,0.04705
6073.62,0.05108
6067.83,0.04699
6062.05,0.04828
6056.26,0.04688
6050.47,0.05074
6044.69,0.04896
6038.9,0.04842
6033.12,0.04840
6027.33,0.04773
6021.54,0.04752
6015.76,0.04774
6009.97,0.04658
6004.18,0.04943
5998.4,0.04677
5992.61,0.04699
5986.83,0.05087
5981.04,0.05129
5975.25,0.04762
5969.47,0.04976
5963.68,0.04935
5957.89,0.05027
5952.11,0.05035
5946.32,0.04703
5940.54,0.04425
5934.75,0.04629
5928.96,0.04620
5923.18,0.04972
5917.39,0.04764
5911.6,0.04690
5905.82,0.04721
5900.03,0.04765
5894.25,0.04835
5888.46,0.05093
5882.67,0.04847
5876.89,0.04861
5871.1,0.04508
5865.31,0.04781
5859.53,0.05002
5853.74,0.04964
5847.96,0.04640
5842.17,0.04948
5836.38,0.04670
5830.6,0.04780
5824.81,0.04812
5819.02,0.04884
5813.24,0.04820
5807.45,0.04916
5801.67,0.04984
5795.88,0.05000
5790.09,0.04816
5784.31,0.04925
5778.52,0.04857
5772.73,0.04947
5766.95,0.04813
5761.16,0.04859
5755.38,0.04697
5749.59,0.04767
5743.8,0.04750
5738.02,0.04917
5732.23,0.04820
5726.44,0.04959
5720.66,0.04855
5714.87,0.04758
5709.09,0.04740
5703.3,0.04672
5697.51,0.05023
5691.73,0.04869
5685.94,0.04964
5680.15,0.04814
5674.37,0.04713
5668.58,0.04961
5662.8,0.04851
5657.01,0.04746
5651.22,0.04620
5645.44,0.04930
5639.65,0.05044
5633.87,0.04890
5628.08,0.04959
5622.29,0.05064
5616.51,0.05149
5610.72,0.04726
5604.93,0.04953
5599.15,0.04709
5593.36,0.04756
5587.58,0.04855
5581.79,0.04824
5576,0.04758
5570.22,0.04735
5564.43,0.04872
5558.64,0.04868
5552.86,0.04903
5547.07,0.04780
5541.29,0.04889
5535.5,0.04992
5529.71,0.04903
5523.93,0.05059
5518.14,0.04632
5512.35,0.04719
5506.57,0.04982
5500.78,0.04812
5495,0.04907
5489.21,0.05181
5483.42,0.04969
5477.64,0.04953
5471.85,0.04860
5466.06,0.04868
5460.28,0.04990
5454.49,0.04817
5448.71,0.04753
5442.92,0.04830
5437.13,0.04858
5431.35,0.05027
5425.56,0.04700
5419.77,0.04960
5413.99,0.04923
5408.2,0.04857
5402.42,0.05082
5396.63,0.04915
5390.84,0.04945
5385.06,0.04993
5379.27,0.04764
5373.48,0.04992
5367.7,0.04868
5361.91,0.05096
5356.13,0.04841
5350.34,0.04641
5344.55,0.04785
5338.77,0.04979
5332.98,0.05038
5327.19,0.04904
5321.41,0.04918
5315.62,0.04776
5309.84,0.04953
5304.05,0.04903
5298.26,0.04980
5292.48,0.04936
5286.69,0.04775
5280.9,0.04904
5275.12,0.05018
5269.33,0.04686
5263.55,0.04745
5257.76,0.04728
5251.97,0.04807
5246.19,0.04967
5240.4,0.04823
5234.61,0.04883
5228.83,0.04771
5223.04,0.04979
5217.26,0.04825
5211.47,0.04849
5205.68,0.04717
5199.9,0.04728
5194.11,0.04766
5188.32,0.04712
5182.54,0.04841
5176.75,0.04846
5170.97,0.04795
5165.18,0.04825
5159.39,0.04846
5153.61,0.04700
5147.82,0.04784
5142.03,0.04865
5136.25,0.04810
5130.46,0.04852
5124.68,0.04746
5118.89,0.04810
5113.1,0.04659
5107.32,0.04767
5101.53,0.04792
5095.75,0.04876
5089.96,0.04849
5084.17,0.04775
5078.39,0.04784
5072.6,0.04952
5066.81,0.04820
5061.03,0.04849
5055.24,0.04931
5049.46,0.04705
5043.67,0.04698
5037.88,0.04871
5032.1,0.04887
5026.31,0.04685
5020.52,0.04838
5014.74,0.04880
5008.95,0.04731
5003.17,0.04880
4997.38,0.05024
4991.59,0.04856
4985.81,0.04809
4980.02,0.04843
4974.23,0.04940
4968.45,0.04697
4962.66,0.04812
4956.88,0.04843
4951.09,0.04946
4945.3,0.04869
4939.52,0.04808
4933.73,0.04801
4927.94,0.04773
4922.16,0.04820
4916.37,0.04715
4910.59,0.04644
4904.8,0.04856
4899.01,0.04884
4893.23,0.04830
4887.44,0.04737
4881.65,0.04724
4875.87,0.04805
4870.08,0.04705
4864.3,0.04775
4858.51,0.04767
4852.72,0.04750
4846.94,0.04658
4841.15,0.04793
4835.36,0.04728
4829.58,0.04801
4823.79,0.04752
4818.01,0.04685
4812.22,0.04773
4806.43,0.04696
4800.65,0.04790
4794.86,0.04748
4789.07,0.04751
4783.29,0.04669
4777.5,0.04702
4771.72,0.04673
4765.93,0.04737
4760.14,0.04749
4754.36,0.04587
4748.57,0.04588
4742.78,0.04633
4737,0.04705
4731.21,0.04632
4725.43,0.04679
4719.64,0.04742
4713.85,0.04668
4708.07,0.04789
4702.28,0.04669
4696.49,0.04753
4690.71,0.04708
4684.92,0.04566
4679.14,0.04710
4673.35,0.04711
4667.56,0.04730
4661.78,0.04700
4655.99,0.04765
4650.2,0.04757
4644.42,0.04721
4638.63,0.04681
4632.85,0.04743
4627.06,0.04778
4621.27,0.04773
4615.49,0.04690
4609.7,0.04682
4603.92,0.04770
4598.13,0.04739
4592.34,0.04748
4586.56,0.04735
4580.77,0.04675
4574.98,0.04685
4569.2,0.04794
4563.41,0.04685
4557.63,0.04765
4551.84,0.04721
4546.05,0.04762
4540.27,0.04785
4534.48,0.04733
4528.69,0.04722
4522.91,0.04771
4517.12,0.04766
4511.34,0.04747
4505.55,0.04754
4499.76,0.04729
4493.98,0.04754
4488.19,0.04796
4482.4,0.04738
4476.62,0.04676
4470.83,0.04718
4465.05,0.04696
4459.26,0.04613
4453.47,0.04582
4447.69,0.04530
4441.9,0.04556
4436.11,0.04558
4430.33,0.04592
4424.54,0.04624
4418.76,0.04580
4412.97,0.04520
4407.18,0.04541
4401.4,0.04532
4395.61,0.04577
4389.82,0.04612
4384.04,0.04532
4378.25,0.04473
4372.47,0.04422
4366.68,0.04454
4360.89,0.04466
4355.11,0.04509
4349.32,0.04481
4343.53,0.04545
4337.75,0.04528
4331.96,0.04540
4326.18,0.04511
4320.39,0.04573
4314.6,0.04478
4308.82,0.04487
4303.03,0.04459
4297.24,0.04445
4291.46,0.04534
4285.67,0.04510
4279.89,0.04510
4274.1,0.04565
4268.31,0.04491
4262.53,0.04502
4256.74,0.04582
4250.95,0.04543
4245.17,0.04500
4239.38,0.04562
4233.6,0.04513
4227.81,0.04595
4222.02,0.04549
4216.24,0.04524
4210.45,0.04586
4204.66,0.04511
4198.88,0.04572
4193.09,0.04604
4187.31,0.04568
4181.52,0.04588
4175.73,0.04531
4169.95,0.04543
4164.16,0.04559
4158.37,0.04531
4152.59,0.04539
4146.8,0.04558
4141.02,0.04501
4135.23,0.04560
4129.44,0.04483
4123.66,0.04484
4117.87,0.04465
4112.09,0.04550
4106.3,0.04546
4100.51,0.04536
4094.73,0.04531
4088.94,0.04488
4083.15,0.04454
4077.37,0.04507
4071.58,0.04497
4065.8,0.04531
4060.01,0.04414
4054.22,0.04446
4048.44,0.04378
4042.65,0.04480
4036.86,0.04400
4031.08,0.04465
4025.29,0.04409
4019.51,0.04487
4013.72,0.04521
4007.93,0.04462
4002.15,0.04485
3996.36,0.04459
3990.57,0.04474
3984.79,0.04491
3979,0.04487
3973.22,0.04504
3967.43,0.04499
3961.64,0.04524
3955.86,0.04499
3950.07,0.04494
3944.28,0.04480
3938.5,0.04493
3932.71,0.04550
3926.93,0.04576
3921.14,0.04519
3915.35,0.04535
3909.57,0.04538
3903.78,0.04549
3897.99,0.04562
3892.21,0.04526
3886.42,0.04594
3880.64,0.04543
3874.85,0.04562
3869.06,0.04651
3863.28,0.04621
3857.49,0.04647
3851.7,0.04603
3845.92,0.04641
3840.13,0.04678
3834.35,0.04620
3828.56,0.04555
3822.77,0.04630
3816.99,0.04556
3811.2,0.04611
3805.41,0.04586
3799.63,0.04608
3793.84,0.04587
3788.06,0.04554
3782.27,0.04589
3776.48,0.04631
3770.7,0.04611
3764.91,0.04604
3759.12,0.04616
3753.34,0.04528
3747.55,0.04582
3741.77,0.04620
3735.98,0.04580
3730.19,0.04508
3724.41,0.04484
3718.62,0.04572
3712.83,0.04560
3707.05,0.04536
3701.26,0.04460
3695.48,0.04462
3689.69,0.04485
3683.9,0.04369
3678.12,0.04263
3672.33,0.04275
3666.54,0.04208
3660.76,0.04184
3654.97,0.04198
3649.19,0.04159
3643.4,0.04144
3637.61,0.04137
3631.83,0.04082
3626.04,0.04201
3620.25,0.04255
3614.47,0.04143
3608.68,0.04122
3602.9,0.04098
3597.11,0.04082
3591.32,0.04115
3585.54,0.04070
3579.75,0.04032
3573.97,0.04052
3568.18,0.04066
3562.39,0.03987
3556.61,0.03995
3550.82,0.03947
3545.03,0.03991
3539.25,0.03911
3533.46,0.03967
3527.68,0.03935
3521.89,0.03899
3516.1,0.03884
3510.32,0.03905
3504.53,0.03815
3498.74,0.03847
3492.96,0.03913
3487.17,0.03900
3481.39,0.04002
3475.6,0.03927
3469.81,0.03939
3464.03,0.04000
3458.24,0.03900
3452.45,0.03933
3446.67,0.03924
3440.88,0.04018
3435.1,0.03952
3429.31,0.03981
3423.52,0.03975
3417.74,0.03972
3411.95,0.03982
3406.16,0.03954
3400.38,0.03974
3394.59,0.04038
3388.81,0.03926
3383.02,0.03990
3377.23,0.03950
3371.45,0.03966
3365.66,0.04001
3359.87,0.03965
3354.09,0.03985
3348.3,0.03964
3342.52,0.03968
3336.73,0.03963
3330.94,0.03979
3325.16,0.03950
3319.37,0.03923
3313.58,0.03959
3307.8,0.03910
3302.01,0.03842
3296.23,0.03962
3290.44,0.03932
3284.65,0.03945
3278.87,0.03903
3273.08,0.03938
3267.29,0.04033
3261.51,0.03985
3255.72,0.04040
3249.94,0.04032
3244.15,0.04049
3238.36,0.04009
3232.58,0.04101
3226.79,0.03982
3221,0.03976
3215.22,0.03972
3209.43,0.04008
3203.65,0.03997
3197.86,0.04020
3192.07,0.04028
3186.29,0.04015
3180.5,0.03989
3174.71,0.03943
3168.93,0.03996
3163.14,0.03991
3157.36,0.03998
3151.57,0.04002
3145.78,0.03919
3140,0.04007
3134.21,0.04011
3128.42,0.03928
3122.64,0.03988
3116.85,0.04037
3111.07,0.03953
3105.28,0.03955
3099.49,0.03968
3093.71,0.03927
3087.92,0.03935
3082.14,0.03963
3076.35,0.03930
3070.56,0.03929
3064.78,0.03929
3058.99,0.03894
3053.2,0.03933
3047.42,0.03938
3041.63,0.03927
3035.85,0.03894
3030.06,0.03843
3024.27,0.03800
3018.49,0.03814
3012.7,0.03758
3006.91,0.03722
3001.13,0.03758
2995.34,0.03834
2989.56,0.03889
2983.77,0.03882
2977.98,0.03832
2972.2,0.03818
2966.41,0.03808
2960.62,0.03856
2954.84,0.03823
2949.05,0.03818
2943.27,0.03895
2937.48,0.03960
2931.69,0.04073
2925.91,0.04104
2920.12,0.04238
2914.33,0.04227
2908.55,0.04130
2902.76,0.04104
2896.98,0.04073
2891.19,0.04010
2885.4,0.04024
2879.62,0.03998
2873.83,0.03970
2868.04,0.04021
2862.26,0.04032
2856.47,0.04032
2850.69,0.04158
2844.9,0.04146
2839.11,0.04101
2833.33,0.04102
2827.54,0.04093
2821.75,0.04112
2815.97,0.04097
2810.18,0.04102
2804.4,0.04128
2798.61,0.04112
2792.82,0.04097
2787.04,0.04103
2781.25,0.04137
2775.46,0.04153
2769.68,0.04100
2763.89,0.04144
2758.11,0.04139
2752.32,0.04096
2746.53,0.04091
2740.75,0.04098
2734.96,0.04119
2729.17,0.04146
2723.39,0.04136
2717.6,0.04103
2711.82,0.04115
2706.03,0.04089
2700.24,0.04090
2694.46,0.04097
2688.67,0.04103
2682.88,0.04089
2677.1,0.04099
2671.31,0.04084
2665.53,0.04154
2659.74,0.04082
2653.95,0.04123
2648.17,0.04122
2642.38,0.04128
2636.59,0.04101
2630.81,0.04101
2625.02,0.04120
2619.24,0.04130
2613.45,0.04104
2607.66,0.04126
2601.88,0.04078
2596.09,0.04144
2590.3,0.04077
2584.52,0.04098
2578.73,0.04116
2572.95,0.04118
2567.16,0.04125
2561.37,0.04120
2555.59,0.04077
2549.8,0.04096
2544.02,0.04120
2538.23,0.04092
2532.44,0.04088
2526.66,0.04091
2520.87,0.04116
2515.08,0.04079
2509.3,0.04080
2503.51,0.04086
2497.73,0.04065
2491.94,0.04101
2486.15,0.04054
2480.37,0.04078
2474.58,0.04141
2468.79,0.04129
2463.01,0.04091
2457.22,0.04103
2451.44,0.04071
2445.65,0.04099
2439.86,0.04097
2434.08,0.04079
2428.29,0.04111
2422.5,0.04067
2416.72,0.04092
2410.93,0.04082
2405.15,0.04084
2399.36,0.04097
2393.57,0.04064
2387.79,0.04090
2382,0.04084
2376.21,0.04099
2370.43,0.04100
2364.64,0.04125
2358.86,0.04138
2353.07,0.04145
2347.28,0.04101
2341.5,0.04082
2335.71,0.04118
2329.92,0.04111
2324.14,0.04127
2318.35,0.04084
2312.57,0.04104
2306.78,0.04092
2300.99,0.04121
2295.21,0.04114
2289.42,0.04077
2283.63,0.04092
2277.85,0.04071
2272.06,0.04083
2266.28,0.04116
2260.49,0.04113
2254.7,0.04083
2248.92,0.04051
2243.13,0.04051
2237.34,0.04070
2231.56,0.04100
2225.77,0.04070
2219.99,0.04053
2214.2,0.04061
2208.41,0.04069
2202.63,0.04092
2196.84,0.04069
2191.05,0.04042
2185.27,0.04055
2179.48,0.04019
2173.7,0.04057
2167.91,0.04030
2162.12,0.04034
2156.34,0.03992
2150.55,0.03988
2144.76,0.03988
2138.98,0.03979
2133.19,0.03934
2127.41,0.03954
2121.62,0.03945
2115.83,0.03960
2110.05,0.03957
2104.26,0.03940
2098.47,0.03977
2092.69,0.03946
2086.9,0.03954
2081.12,0.03953
2075.33,0.03966
2069.54,0.03952
2063.76,0.03950
2057.97,0.03935
2052.19,0.03957
2046.4,0.03950
2040.61,0.03980
2034.83,0.03977
2029.04,0.03966
2023.25,0.03959
2017.47,0.03944
2011.68,0.03958
2005.9,0.03938
2000.11,0.03902
1994.32,0.03924
1988.54,0.03939
1982.75,0.03894
1976.96,0.03862
1971.18,0.03839
1965.39,0.03867
1959.61,0.03848
1953.82,0.03854
1948.03,0.03856
1942.25,0.03883
1936.46,0.03829
1930.67,0.03820
1924.89,0.03815
1919.1,0.03812
1913.32,0.03789
1907.53,0.03769
1901.74,0.03745
1895.96,0.03757
1890.17,0.03714
1884.38,0.03710
1878.6,0.03664
1872.81,0.03651
1867.03,0.03634
1861.24,0.03602
1855.45,0.03559
1849.67,0.03527
1843.88,0.03472
1838.09,0.03410
1832.31,0.03328
1826.52,0.03291
1820.74,0.03207
1814.95,0.03140
1809.16,0.03000
1803.38,0.02872
1797.59,0.02698
1791.8,0.02491
1786.02,0.02256
1780.23,0.02263
1774.45,0.02640
1768.66,0.03584
1762.87,0.05519
1757.09,0.07442
1751.3,0.07898
1745.51,0.07493
1739.73,0.06743
1733.94,0.06072
1728.16,0.05571
1722.37,0.05273
1716.58,0.05085
1710.8,0.04930
1705.01,0.04744
1699.22,0.04615
1693.44,0.04450
1687.65,0.04379
1681.87,0.04315
1676.08,0.04292
1670.29,0.04251
1664.51,0.04153
1658.72,0.04206
1652.93,0.04217
1647.15,0.04208
1641.36,0.04116
1635.58,0.04123
1629.79,0.04077
1624,0.04058
1618.22,0.04063
1612.43,0.04014
1606.64,0.03965
1600.86,0.03966
1595.07,0.03956
1589.29,0.03938
1583.5,0.03866
1577.71,0.03884
1571.93,0.03876
1566.14,0.03854
1560.35,0.03877
1554.57,0.03773
1548.78,0.03753
1543,0.03813
1537.21,0.03773
1531.42,0.03763
1525.64,0.03702
1519.85,0.03703
1514.07,0.03626
1508.28,0.03629
1502.49,0.03549
1496.71,0.03572
1490.92,0.03490
1485.13,0.03406
1479.35,0.03317
1473.56,0.03224
1467.78,0.03037
1461.99,0.03072
1456.2,0.03426
1450.42,0.03726
1444.63,0.03907
1438.84,0.03863
1433.06,0.03709
1427.27,0.03640
1421.49,0.03550
1415.7,0.03460
1409.91,0.03327
1404.13,0.03288
1398.34,0.03097
1392.55,0.02953
1386.77,0.03082
1380.98,0.03343
1375.2,0.03375
1369.41,0.03341
1363.62,0.03451
1357.84,0.03586
1352.05,0.03664
1346.26,0.03636
1340.48,0.03536
1334.69,0.03484
1328.91,0.03422
1323.12,0.03338
1317.33,0.03276
1311.55,0.03238
1305.76,0.03207
1299.97,0.03135
1294.19,0.03100
1288.4,0.02944
1282.62,0.02797
1276.83,0.02849
1271.04,0.02955
1265.26,0.03069
1259.47,0.03131
1253.68,0.03052
1247.9,0.02908
1242.11,0.02829
1236.33,0.02677
1230.54,0.02592
1224.75,0.02652
1218.97,0.02965
1213.18,0.03412
1207.39,0.03727
1201.61,0.03884
1195.82,0.04280
1190.04,0.05294
1184.25,0.06890
1178.46,0.07113
1172.68,0.05862
1166.89,0.04912
1161.1,0.04253
1155.32,0.03740
1149.53,0.03177
1143.75,0.02808
1137.96,0.03519
1132.17,0.04483
1126.39,0.04841
1120.6,0.04397
1114.81,0.04043
1109.03,0.04257
1103.24,0.05563
1097.46,0.07247
1091.67,0.08608
1085.88,0.09361
1080.1,0.09142
1074.31,0.08288
1068.52,0.07523
1062.74,0.06817
1056.95,0.06363
1051.17,0.06360
1045.38,0.06561
1039.59,0.06741
1033.81,0.06819
1028.02,0.06786
1022.24,0.06807
1016.45,0.07053
1010.66,0.07046
1004.88,0.06847
999.09,0.06644
993.304,0.06409
987.518,0.06279
981.731,0.06051
975.945,0.05939
970.159,0.05723
964.373,0.05487
958.586,0.05384
952.8,0.05438
947.014,0.05429
941.228,0.05311
935.441,0.05274
929.655,0.05157
923.869,0.05161
918.083,0.05150
912.297,0.05064
906.51,0.04931
900.724,0.04870
894.938,0.04895
889.152,0.04861
883.365,0.04744
877.579,0.04707
871.793,0.04723
866.007,0.04895
860.22,0.05095
854.434,0.05132
848.648,0.05038
842.862,0.05064
837.075,0.04934
831.289,0.04884
825.503,0.04885
819.717,0.04829
813.931,0.04735
808.144,0.04653
802.358,0.04667
796.572,0.04638
790.786,0.04617
784.999,0.04525
779.213,0.04425
773.427,0.04385
767.641,0.04352
761.854,0.04309
756.068,0.04521
750.282,0.04694
744.496,0.04755
738.709,0.04769
732.923,0.04730
727.137,0.04575
721.351,0.04478
715.565,0.04563
709.778,0.04607
703.992,0.04466
698.206,0.04725
692.42,0.04560
686.633,0.04657
680.847,0.04641
675.061,0.04664
669.275,0.04598
663.488,0.04707
657.702,0.04550
651.916,0.04498
646.13,0.04684
640.343,0.04562
634.557,0.04668
628.771,0.04530
622.985,0.04293
617.198,0.04687
611.412,0.04458
605.626,0.04356
599.84,0.04463