File: 01_Data/PLA_3D_Printer_Filament/FTIR/IS/PLA_3D_Printer_Filament_IS_S_221108_R6.dpt
7497.03,0.04504
7491.25,0.03927
7485.46,0.05010
7479.67,0.05644
7473.89,0.05518
7468.1,0.04365
7462.32,0.05394
7456.53,0.05359
7450.74,0.05265
7444.96,0.05700
7439.17,0.03949
7433.38,0.05326
7427.6,0.05106
7421.81,0.05973
7416.03,0.05130
7410.24,0.05954
7404.45,0.05161
7398.67,0.04644
7392.88,0.05672
7387.09,0.05288
7381.31,0.04663
7375.52,0.04761
7369.74,0.05306
7363.95,0.05651
7358.16,0.05521
7352.38,0.04751
7346.59,0.04781
7340.8,0.05033
7335.02,0.05050
7329.23,0.05120
7323.45,0.04573
7317.66,0.06011
7311.87,0.05990
7306.09,0.05982
7300.3,0.05807
7294.51,0.04951
7288.73,0.04758
7282.94,0.05269
7277.16,0.05593
7271.37,0.05230
7265.58,0.05584
7259.8,0.05903
7254.01,0.04500
7248.22,0.04392
7242.44,0.05737
7236.65,0.05556
7230.87,0.04614
7225.08,0.05058
7219.29,0.04893
7213.51,0.04850
7207.72,0.05577
7201.93,0.04847
7196.15,0.05480
7190.36,0.05164
7184.58,0.04953
7178.79,0.05126
7173,0.05730
7167.22,0.05545
7161.43,0.04780
7155.65,0.05246
7149.86,0.04495
7144.07,0.05337
7138.29,0.05011
7132.5,0.05949
7126.71,0.05063
7120.93,0.05058
7115.14,0.04847
7109.36,0.05246
7103.57,0.05545
7097.78,0.05137
7092,0.05357
7086.21,0.04909
7080.42,0.04952
7074.64,0.04952
7068.85,0.05532
7063.07,0.04533
7057.28,0.04611
7051.49,0.04662
7045.71,0.05573
7039.92,0.05577
7034.13,0.04980
7028.35,0.04592
7022.56,0.04520
7016.78,0.05114
7010.99,0.04605
7005.2,0.05495
6999.42,0.05202
6993.63,0.05142
6987.84,0.04549
6982.06,0.05339
6976.27,0.06097
6970.49,0.05108
6964.7,0.05263
6958.91,0.05006
6953.13,0.05178
6947.34,0.05360
6941.55,0.05051
6935.77,0.05060
6929.98,0.05138
6924.2,0.05360
6918.41,0.04814
6912.62,0.04559
6906.84,0.05305
6901.05,0.05450
6895.26,0.05090
6889.48,0.04432
6883.69,0.04840
6877.91,0.04823
6872.12,0.05212
6866.33,0.05494
6860.55,0.04877
6854.76,0.04869
6848.97,0.04668
6843.19,0.04961
6837.4,0.04826
6831.62,0.05226
6825.83,0.05809
6820.04,0.05924
6814.26,0.05140
6808.47,0.04914
6802.68,0.04590
6796.9,0.05012
6791.11,0.05093
6785.33,0.05162
6779.54,0.04775
6773.75,0.04718
6767.97,0.04889
6762.18,0.04567
6756.39,0.04857
6750.61,0.04920
6744.82,0.05143
6739.04,0.04677
6733.25,0.04489
6727.46,0.04994
6721.68,0.05143
6715.89,0.04740
6710.1,0.04877
6704.32,0.04800
6698.53,0.05007
6692.75,0.04877
6686.96,0.05321
6681.17,0.04556
6675.39,0.05032
6669.6,0.05171
6663.82,0.05148
6658.03,0.04990
6652.24,0.04503
6646.46,0.05148
6640.67,0.05210
6634.88,0.04620
6629.1,0.04953
6623.31,0.04638
6617.53,0.05019
6611.74,0.05032
6605.95,0.04581
6600.17,0.05029
6594.38,0.04751
6588.59,0.05069
6582.81,0.04721
6577.02,0.04909
6571.24,0.04860
6565.45,0.04819
6559.66,0.04948
6553.88,0.04927
6548.09,0.05122
6542.3,0.05030
6536.52,0.04579
6530.73,0.05237
6524.95,0.05014
6519.16,0.04578
6513.37,0.04514
6507.59,0.04511
6501.8,0.05031
6496.01,0.04568
6490.23,0.04378
6484.44,0.05112
6478.66,0.04952
6472.87,0.05026
6467.08,0.05129
6461.3,0.04961
6455.51,0.04964
6449.72,0.04890
6443.94,0.05042
6438.15,0.05516
6432.37,0.05073
6426.58,0.05206
6420.79,0.04987
6415.01,0.04869
6409.22,0.04293
6403.43,0.04949
6397.65,0.04675
6391.86,0.04655
6386.08,0.05107
6380.29,0.04989
6374.5,0.04938
6368.72,0.04994
6362.93,0.04915
6357.14,0.05175
6351.36,0.04946
6345.57,0.05228
6339.79,0.04985
6334,0.04497
6328.21,0.05201
6322.43,0.04997
6316.64,0.05002
6310.85,0.04953
6305.07,0.04566
6299.28,0.04760
6293.5,0.04784
6287.71,0.05188
6281.92,0.04721
6276.14,0.05103
6270.35,0.05011
6264.56,0.04761
6258.78,0.04473
6252.99,0.04710
6247.21,0.05030
6241.42,0.04737
6235.63,0.05182
6229.85,0.04921
6224.06,0.04548
6218.27,0.05054
6212.49,0.04958
6206.7,0.05059
6200.92,0.04704
6195.13,0.05031
6189.34,0.04955
6183.56,0.04807
6177.77,0.04812
6171.98,0.04931
6166.2,0.04723
6160.41,0.04975
6154.63,0.04758
6148.84,0.05042
6143.05,0.04976
6137.27,0.04875
6131.48,0.04961
6125.7,0.04794
6119.91,0.04620
6114.12,0.05031
6108.34,0.04868
6102.55,0.04971
6096.76,0.04696
6090.98,0.04984
6085.19,0.04824
6079.41,0.04581
6073.62,0.04862
6067.83,0.05144
6062.05,0.05177
6056.26,0.04995
6050.47,0.05032
6044.69,0.04943
6038.9,0.05377
6033.12,0.05112
6027.33,0.05206
6021.54,0.04877
6015.76,0.04942
6009.97,0.04842
6004.18,0.04893
5998.4,0.04795
5992.61,0.05039
5986.83,0.04919
5981.04,0.05015
5975.25,0.05023
5969.47,0.05217
5963.68,0.04562
5957.89,0.05017
5952.11,0.05203
5946.32,0.04815
5940.54,0.04949
5934.75,0.04575
5928.96,0.04822
5923.18,0.04559
5917.39,0.04872
5911.6,0.04845
5905.82,0.05057
5900.03,0.04744
5894.25,0.05056
5888.46,0.05109
5882.67,0.04925
5876.89,0.04916
5871.1,0.04904
5865.31,0.05033
5859.53,0.04904
5853.74,0.04913
5847.96,0.04530
5842.17,0.04592
5836.38,0.04605
5830.6,0.04739
5824.81,0.04970
5819.02,0.04911
5813.24,0.04803
5807.45,0.04811
5801.67,0.04634
5795.88,0.04743
5790.09,0.04711
5784.31,0.04855
5778.52,0.04770
5772.73,0.04961
5766.95,0.04781
5761.16,0.04746
5755.38,0.04917
5749.59,0.04891
5743.8,0.04878
5738.02,0.04876
5732.23,0.04855
5726.44,0.04988
5720.66,0.04793
5714.87,0.04776
5709.09,0.05095
5703.3,0.04894
5697.51,0.04742
5691.73,0.04927
5685.94,0.05079
5680.15,0.04670
5674.37,0.05016
5668.58,0.04880
5662.8,0.04821
5657.01,0.04763
5651.22,0.04876
5645.44,0.04863
5639.65,0.04684
5633.87,0.05121
5628.08,0.05067
5622.29,0.04942
5616.51,0.04851
5610.72,0.05037
5604.93,0.04935
5599.15,0.04945
5593.36,0.04818
5587.58,0.05185
5581.79,0.05115
5576,0.04903
5570.22,0.04826
5564.43,0.05063
5558.64,0.04937
5552.86,0.04849
5547.07,0.04931
5541.29,0.04818
5535.5,0.04789
5529.71,0.04897
5523.93,0.04936
5518.14,0.04815
5512.35,0.04792
5506.57,0.04820
5500.78,0.04759
5495,0.04955
5489.21,0.05062
5483.42,0.05161
5477.64,0.04963
5471.85,0.04811
5466.06,0.04927
5460.28,0.05005
5454.49,0.05034
5448.71,0.04782
5442.92,0.04931
5437.13,0.04670
5431.35,0.04879
5425.56,0.04904
5419.77,0.05007
5413.99,0.05016
5408.2,0.05055
5402.42,0.05027
5396.63,0.05075
5390.84,0.04865
5385.06,0.04938
5379.27,0.05069
5373.48,0.04938
5367.7,0.04903
5361.91,0.05030
5356.13,0.05037
5350.34,0.04912
5344.55,0.04940
5338.77,0.04823
5332.98,0.04842
5327.19,0.04873
5321.41,0.04988
5315.62,0.05098
5309.84,0.04951
5304.05,0.04796
5298.26,0.04891
5292.48,0.05135
5286.69,0.04887
5280.9,0.04894
5275.12,0.04744
5269.33,0.04649
5263.55,0.04775
5257.76,0.04804
5251.97,0.04788
5246.19,0.04885
5240.4,0.04781
5234.61,0.04950
5228.83,0.04582
5223.04,0.04897
5217.26,0.04872
5211.47,0.04943
5205.68,0.04813
5199.9,0.04749
5194.11,0.04776
5188.32,0.04859
5182.54,0.04810
5176.75,0.04764
5170.97,0.04894
5165.18,0.04938
5159.39,0.04763
5153.61,0.04835
5147.82,0.04772
5142.03,0.04764
5136.25,0.04960
5130.46,0.04896
5124.68,0.04956
5118.89,0.04824
5113.1,0.04873
5107.32,0.04912
5101.53,0.04943
5095.75,0.04910
5089.96,0.04828
5084.17,0.04750
5078.39,0.04759
5072.6,0.04744
5066.81,0.04779
5061.03,0.04865
5055.24,0.04822
5049.46,0.04908
5043.67,0.04999
5037.88,0.04901
5032.1,0.05014
5026.31,0.04961
5020.52,0.04864
5014.74,0.04899
5008.95,0.05001
5003.17,0.04902
4997.38,0.05000
4991.59,0.04943
4985.81,0.04923
4980.02,0.04784
4974.23,0.04878
4968.45,0.04857
4962.66,0.04843
4956.88,0.04984
4951.09,0.04900
4945.3,0.04867
4939.52,0.04829
4933.73,0.04780
4927.94,0.04774
4922.16,0.04878
4916.37,0.04792
4910.59,0.04836
4904.8,0.04858
4899.01,0.04805
4893.23,0.04910
4887.44,0.04836
4881.65,0.04967
4875.87,0.04893
4870.08,0.04824
4864.3,0.04827
4858.51,0.04723
4852.72,0.04879
4846.94,0.04838
4841.15,0.04732
4835.36,0.04738
4829.58,0.04634
4823.79,0.04740
4818.01,0.04808
4812.22,0.04737
4806.43,0.04822
4800.65,0.04691
4794.86,0.04818
4789.07,0.04682
4783.29,0.04733
4777.5,0.04667
4771.72,0.04663
4765.93,0.04768
4760.14,0.04757
4754.36,0.04734
4748.57,0.04706
4742.78,0.04686
4737,0.04718
4731.21,0.04665
4725.43,0.04707
4719.64,0.04710
4713.85,0.04737
4708.07,0.04754
4702.28,0.04627
4696.49,0.04641
4690.71,0.04680
4684.92,0.04812
4679.14,0.04759
4673.35,0.04800
4667.56,0.04769
4661.78,0.04646
4655.99,0.04789
4650.2,0.04762
4644.42,0.04797
4638.63,0.04770
4632.85,0.04779
4627.06,0.04741
4621.27,0.04775
4615.49,0.04793
4609.7,0.04755
4603.92,0.04776
4598.13,0.04865
4592.34,0.04826
4586.56,0.04794
4580.77,0.04748
4574.98,0.04877
4569.2,0.04766
4563.41,0.04812
4557.63,0.04832
4551.84,0.04747
4546.05,0.04834
4540.27,0.04778
4534.48,0.04814
4528.69,0.04739
4522.91,0.04780
4517.12,0.04796
4511.34,0.04799
4505.55,0.04842
4499.76,0.04804
4493.98,0.04857
4488.19,0.04778
4482.4,0.04739
4476.62,0.04665
4470.83,0.04710
4465.05,0.04688
4459.26,0.04716
4453.47,0.04623
4447.69,0.04618
4441.9,0.04600
4436.11,0.04620
4430.33,0.04547
4424.54,0.04638
4418.76,0.04671
4412.97,0.04554
4407.18,0.04574
4401.4,0.04594
4395.61,0.04593
4389.82,0.04607
4384.04,0.04605
4378.25,0.04593
4372.47,0.04516
4366.68,0.04563
4360.89,0.04556
4355.11,0.04520
4349.32,0.04559
4343.53,0.04543
4337.75,0.04608
4331.96,0.04527
4326.18,0.04540
4320.39,0.04535
4314.6,0.04532
4308.82,0.04549
4303.03,0.04426
4297.24,0.04621
4291.46,0.04588
4285.67,0.04622
4279.89,0.04562
4274.1,0.04555
4268.31,0.04580
4262.53,0.04564
4256.74,0.04564
4250.95,0.04514
4245.17,0.04499
4239.38,0.04543
4233.6,0.04633
4227.81,0.04558
4222.02,0.04571
4216.24,0.04533
4210.45,0.04604
4204.66,0.04616
4198.88,0.04595
4193.09,0.04639
4187.31,0.04664
4181.52,0.04623
4175.73,0.04509
4169.95,0.04526
4164.16,0.04640
4158.37,0.04545
4152.59,0.04560
4146.8,0.04591
4141.02,0.04568
4135.23,0.04545
4129.44,0.04575
4123.66,0.04558
4117.87,0.04565
4112.09,0.04575
4106.3,0.04479
4100.51,0.04504
4094.73,0.04512
4088.94,0.04536
4083.15,0.04477
4077.37,0.04511
4071.58,0.04485
4065.8,0.04490
4060.01,0.04492
4054.22,0.04483
4048.44,0.04476
4042.65,0.04448
4036.86,0.04457
4031.08,0.04384
4025.29,0.04396
4019.51,0.04489
4013.72,0.04573
4007.93,0.04438
4002.15,0.04499
3996.36,0.04494
3990.57,0.04492
3984.79,0.04587
3979,0.04505
3973.22,0.04465
3967.43,0.04525
3961.64,0.04555
3955.86,0.04536
3950.07,0.04518
3944.28,0.04513
3938.5,0.04529
3932.71,0.04528
3926.93,0.04530
3921.14,0.04659
3915.35,0.04562
3909.57,0.04534
3903.78,0.04634
3897.99,0.04561
3892.21,0.04561
3886.42,0.04665
3880.64,0.04566
3874.85,0.04497
3869.06,0.04659
3863.28,0.04608
3857.49,0.04571
3851.7,0.04688
3845.92,0.04603
3840.13,0.04665
3834.35,0.04579
3828.56,0.04577
3822.77,0.04575
3816.99,0.04708
3811.2,0.04624
3805.41,0.04586
3799.63,0.04637
3793.84,0.04671
3788.06,0.04605
3782.27,0.04567
3776.48,0.04610
3770.7,0.04659
3764.91,0.04622
3759.12,0.04573
3753.34,0.04624
3747.55,0.04594
3741.77,0.04621
3735.98,0.04645
3730.19,0.04610
3724.41,0.04557
3718.62,0.04603
3712.83,0.04575
3707.05,0.04478
3701.26,0.04443
3695.48,0.04470
3689.69,0.04505
3683.9,0.04376
3678.12,0.04400
3672.33,0.04329
3666.54,0.04242
3660.76,0.04242
3654.97,0.04244
3649.19,0.04286
3643.4,0.04171
3637.61,0.04170
3631.83,0.04156
3626.04,0.04214
3620.25,0.04193
3614.47,0.04260
3608.68,0.04194
3602.9,0.04179
3597.11,0.04091
3591.32,0.04080
3585.54,0.04048
3579.75,0.04090
3573.97,0.04050
3568.18,0.04042
3562.39,0.04005
3556.61,0.04016
3550.82,0.03927
3545.03,0.03937
3539.25,0.03951
3533.46,0.03857
3527.68,0.03888
3521.89,0.03912
3516.1,0.03924
3510.32,0.03878
3504.53,0.03890
3498.74,0.03869
3492.96,0.03907
3487.17,0.03882
3481.39,0.03888
3475.6,0.03923
3469.81,0.03918
3464.03,0.03965
3458.24,0.04022
3452.45,0.03997
3446.67,0.04027
3440.88,0.04029
3435.1,0.04001
3429.31,0.03981
3423.52,0.03982
3417.74,0.04008
3411.95,0.03959
3406.16,0.03917
3400.38,0.03921
3394.59,0.03975
3388.81,0.04012
3383.02,0.03999
3377.23,0.04027
3371.45,0.03997
3365.66,0.03926
3359.87,0.03966
3354.09,0.03939
3348.3,0.03965
3342.52,0.03903
3336.73,0.03855
3330.94,0.03946
3325.16,0.03947
3319.37,0.03889
3313.58,0.03914
3307.8,0.03886
3302.01,0.03895
3296.23,0.03869
3290.44,0.04000
3284.65,0.03872
3278.87,0.03887
3273.08,0.03916
3267.29,0.04014
3261.51,0.03989
3255.72,0.03981
3249.94,0.03904
3244.15,0.03913
3238.36,0.03917
3232.58,0.04042
3226.79,0.03985
3221,0.03938
3215.22,0.03921
3209.43,0.03928
3203.65,0.03934
3197.86,0.04009
3192.07,0.03928
3186.29,0.03974
3180.5,0.04007
3174.71,0.04004
3168.93,0.03964
3163.14,0.03982
3157.36,0.03967
3151.57,0.03999
3145.78,0.03994
3140,0.04017
3134.21,0.03963
3128.42,0.03980
3122.64,0.03978
3116.85,0.03972
3111.07,0.03955
3105.28,0.03985
3099.49,0.03976
3093.71,0.03935
3087.92,0.03970
3082.14,0.03911
3076.35,0.03911
3070.56,0.04005
3064.78,0.03983
3058.99,0.03871
3053.2,0.03937
3047.42,0.03959
3041.63,0.03940
3035.85,0.03912
3030.06,0.03910
3024.27,0.03846
3018.49,0.03821
3012.7,0.03741
3006.91,0.03739
3001.13,0.03747
2995.34,0.03772
2989.56,0.03876
2983.77,0.03819
2977.98,0.03852
2972.2,0.03843
2966.41,0.03832
2960.62,0.03817
2954.84,0.03826
2949.05,0.03794
2943.27,0.03865
2937.48,0.03953
2931.69,0.04023
2925.91,0.04092
2920.12,0.04187
2914.33,0.04159
2908.55,0.04110
2902.76,0.04111
2896.98,0.04077
2891.19,0.04025
2885.4,0.03983
2879.62,0.03962
2873.83,0.03964
2868.04,0.03970
2862.26,0.04025
2856.47,0.04063
2850.69,0.04138
2844.9,0.04131
2839.11,0.04103
2833.33,0.04066
2827.54,0.04084
2821.75,0.04080
2815.97,0.04118
2810.18,0.04110
2804.4,0.04126
2798.61,0.04127
2792.82,0.04153
2787.04,0.04162
2781.25,0.04134
2775.46,0.04121
2769.68,0.04131
2763.89,0.04107
2758.11,0.04132
2752.32,0.04078
2746.53,0.04145
2740.75,0.04061
2734.96,0.04121
2729.17,0.04112
2723.39,0.04105
2717.6,0.04099
2711.82,0.04136
2706.03,0.04086
2700.24,0.04108
2694.46,0.04093
2688.67,0.04120
2682.88,0.04101
2677.1,0.04081
2671.31,0.04141
2665.53,0.04079
2659.74,0.04097
2653.95,0.04112
2648.17,0.04098
2642.38,0.04070
2636.59,0.04043
2630.81,0.04088
2625.02,0.04108
2619.24,0.04150
2613.45,0.04095
2607.66,0.04069
2601.88,0.04082
2596.09,0.04113
2590.3,0.04098
2584.52,0.04080
2578.73,0.04096
2572.95,0.04051
2567.16,0.04098
2561.37,0.04086
2555.59,0.04088
2549.8,0.04087
2544.02,0.04095
2538.23,0.04101
2532.44,0.04094
2526.66,0.04021
2520.87,0.04050
2515.08,0.04077
2509.3,0.04077
2503.51,0.04073
2497.73,0.04070
2491.94,0.04102
2486.15,0.04081
2480.37,0.04111
2474.58,0.04124
2468.79,0.04175
2463.01,0.04136
2457.22,0.04081
2451.44,0.04141
2445.65,0.04118
2439.86,0.04160
2434.08,0.04109
2428.29,0.04103
2422.5,0.04142
2416.72,0.04117
2410.93,0.04120
2405.15,0.04136
2399.36,0.04112
2393.57,0.04117
2387.79,0.04085
2382,0.04085
2376.21,0.04106
2370.43,0.04103
2364.64,0.04180
2358.86,0.04150
2353.07,0.04120
2347.28,0.04127
2341.5,0.04117
2335.71,0.04125
2329.92,0.04156
2324.14,0.04134
2318.35,0.04102
2312.57,0.04126
2306.78,0.04106
2300.99,0.04113
2295.21,0.04093
2289.42,0.04111
2283.63,0.04116
2277.85,0.04151
2272.06,0.04120
2266.28,0.04120
2260.49,0.04100
2254.7,0.04093
2248.92,0.04094
2243.13,0.04088
2237.34,0.04108
2231.56,0.04076
2225.77,0.04074
2219.99,0.04107
2214.2,0.04102
2208.41,0.04078
2202.63,0.04083
2196.84,0.04077
2191.05,0.04129
2185.27,0.04101
2179.48,0.04071
2173.7,0.04027
2167.91,0.04006
2162.12,0.04046
2156.34,0.04031
2150.55,0.03985
2144.76,0.04044
2138.98,0.04003
2133.19,0.03962
2127.41,0.03975
2121.62,0.03924
2115.83,0.03964
2110.05,0.03929
2104.26,0.03922
2098.47,0.03981
2092.69,0.03937
2086.9,0.03948
2081.12,0.03915
2075.33,0.03929
2069.54,0.03943
2063.76,0.03972
2057.97,0.03945
2052.19,0.03937
2046.4,0.03944
2040.61,0.03981
2034.83,0.03944
2029.04,0.03972
2023.25,0.03927
2017.47,0.03963
2011.68,0.03932
2005.9,0.03927
2000.11,0.03927
1994.32,0.03914
1988.54,0.03931
1982.75,0.03891
1976.96,0.03916
1971.18,0.03889
1965.39,0.03926
1959.61,0.03898
1953.82,0.03850
1948.03,0.03895
1942.25,0.03887
1936.46,0.03890
1930.67,0.03845
1924.89,0.03848
1919.1,0.03831
1913.32,0.03787
1907.53,0.03800
1901.74,0.03771
1895.96,0.03755
1890.17,0.03713
1884.38,0.03717
1878.6,0.03709
1872.81,0.03686
1867.03,0.03626
1861.24,0.03591
1855.45,0.03563
1849.67,0.03503
1843.88,0.03453
1838.09,0.03396
1832.31,0.03342
1826.52,0.03294
1820.74,0.03197
1814.95,0.03085
1809.16,0.03008
1803.38,0.02869
1797.59,0.02690
1791.8,0.02485
1786.02,0.02287
1780.23,0.02325
1774.45,0.02690
1768.66,0.03595
1762.87,0.05457
1757.09,0.07415
1751.3,0.07852
1745.51,0.07470
1739.73,0.06713
1733.94,0.06061
1728.16,0.05536
1722.37,0.05230
1716.58,0.05085
1710.8,0.04928
1705.01,0.04746
1699.22,0.04609
1693.44,0.04450
1687.65,0.04381
1681.87,0.04317
1676.08,0.04276
1670.29,0.04192
1664.51,0.04138
1658.72,0.04166
1652.93,0.04254
1647.15,0.04153
1641.36,0.04113
1635.58,0.04092
1629.79,0.04048
1624,0.04085
1618.22,0.04041
1612.43,0.03983
1606.64,0.03974
1600.86,0.03951
1595.07,0.03928
1589.29,0.03919
1583.5,0.03880
1577.71,0.03872
1571.93,0.03863
1566.14,0.03826
1560.35,0.03834
1554.57,0.03828
1548.78,0.03764
1543,0.03784
1537.21,0.03763
1531.42,0.03734
1525.64,0.03723
1519.85,0.03688
1514.07,0.03634
1508.28,0.03597
1502.49,0.03551
1496.71,0.03484
1490.92,0.03481
1485.13,0.03377
1479.35,0.03314
1473.56,0.03231
1467.78,0.03102
1461.99,0.03049
1456.2,0.03395
1450.42,0.03696
1444.63,0.03879
1438.84,0.03870
1433.06,0.03749
1427.27,0.03609
1421.49,0.03545
1415.7,0.03447
1409.91,0.03338
1404.13,0.03247
1398.34,0.03069
1392.55,0.02973
1386.77,0.03059
1380.98,0.03336
1375.2,0.03347
1369.41,0.03312
1363.62,0.03436
1357.84,0.03544
1352.05,0.03598
1346.26,0.03592
1340.48,0.03500
1334.69,0.03432
1328.91,0.03391
1323.12,0.03309
1317.33,0.03241
1311.55,0.03200
1305.76,0.03190
1299.97,0.03151
1294.19,0.03078
1288.4,0.02930
1282.62,0.02812
1276.83,0.02788
1271.04,0.02911
1265.26,0.03043
1259.47,0.03110
1253.68,0.03059
1247.9,0.02911
1242.11,0.02747
1236.33,0.02656
1230.54,0.02597
1224.75,0.02642
1218.97,0.02983
1213.18,0.03428
1207.39,0.03734
1201.61,0.03870
1195.82,0.04249
1190.04,0.05266
1184.25,0.06851
1178.46,0.07007
1172.68,0.05801
1166.89,0.04809
1161.1,0.04217
1155.32,0.03702
1149.53,0.03151
1143.75,0.02856
1137.96,0.03463
1132.17,0.04398
1126.39,0.04809
1120.6,0.04489
1114.81,0.03996
1109.03,0.04145
1103.24,0.05444
1097.46,0.07056
1091.67,0.08470
1085.88,0.09220
1080.1,0.09002
1074.31,0.08239
1068.52,0.07436
1062.74,0.06739
1056.95,0.06330
1051.17,0.06292
1045.38,0.06474
1039.59,0.06705
1033.81,0.06698
1028.02,0.06639
1022.24,0.06760
1016.45,0.06966
1010.66,0.06922
1004.88,0.06801
999.09,0.06472
993.304,0.06247
987.518,0.06150
981.731,0.05997
975.945,0.05826
970.159,0.05603
964.373,0.05434
958.586,0.05303
952.8,0.05336
947.014,0.05356
941.228,0.05273
935.441,0.05235
929.655,0.05215
923.869,0.05093
918.083,0.05071
912.297,0.04940
906.51,0.04907
900.724,0.04838
894.938,0.04847
889.152,0.04810
883.365,0.04706
877.579,0.04671
871.793,0.04751
866.007,0.04896
860.22,0.05013
854.434,0.04995
848.648,0.04933
842.862,0.04905
837.075,0.04892
831.289,0.04804
825.503,0.04764
819.717,0.04744
813.931,0.04738
808.144,0.04696
802.358,0.04643
796.572,0.04631
790.786,0.04506
784.999,0.04383
779.213,0.04414
773.427,0.04326
767.641,0.04348
761.854,0.04367
756.068,0.04447
750.282,0.04601
744.496,0.04628
738.709,0.04704
732.923,0.04643
727.137,0.04614
721.351,0.04538
715.565,0.04471
709.778,0.04476
703.992,0.04507
698.206,0.04498
692.42,0.04554
686.633,0.04625
680.847,0.04695
675.061,0.04516
669.275,0.04741
663.488,0.04707
657.702,0.04515
651.916,0.04371
646.13,0.04398
640.343,0.04521
634.557,0.04369
628.771,0.04250
622.985,0.04345
617.198,0.04379
611.412,0.04377
605.626,0.04494
599.84,0.04280