File: 01_Data/PLA_3D_Printer_Filament/FTIR/IS/PLA_3D_Printer_Filament_IS_S_221108_R3.dpt
7497.03,0.04822
7491.25,0.04933
7485.46,0.05123
7479.67,0.04699
7473.89,0.05309
7468.1,0.05026
7462.32,0.05451
7456.53,0.05332
7450.74,0.06142
7444.96,0.04169
7439.17,0.04782
7433.38,0.05965
7427.6,0.05287
7421.81,0.05263
7416.03,0.05153
7410.24,0.05826
7404.45,0.05960
7398.67,0.05692
7392.88,0.05213
7387.09,0.04907
7381.31,0.04693
7375.52,0.06453
7369.74,0.04552
7363.95,0.04782
7358.16,0.04787
7352.38,0.05481
7346.59,0.05247
7340.8,0.05684
7335.02,0.05104
7329.23,0.05681
7323.45,0.05409
7317.66,0.04566
7311.87,0.05667
7306.09,0.04593
7300.3,0.05474
7294.51,0.04819
7288.73,0.04971
7282.94,0.05109
7277.16,0.05387
7271.37,0.05463
7265.58,0.05382
7259.8,0.05555
7254.01,0.05525
7248.22,0.04568
7242.44,0.03849
7236.65,0.04838
7230.87,0.05307
7225.08,0.04262
7219.29,0.05265
7213.51,0.05215
7207.72,0.05206
7201.93,0.04145
7196.15,0.04573
7190.36,0.05158
7184.58,0.04588
7178.79,0.05197
7173,0.05408
7167.22,0.05037
7161.43,0.04258
7155.65,0.05434
7149.86,0.05526
7144.07,0.05540
7138.29,0.06105
7132.5,0.05607
7126.71,0.04836
7120.93,0.05332
7115.14,0.04963
7109.36,0.05241
7103.57,0.05371
7097.78,0.05663
7092,0.05067
7086.21,0.04757
7080.42,0.05288
7074.64,0.05276
7068.85,0.05094
7063.07,0.05006
7057.28,0.04825
7051.49,0.04643
7045.71,0.05359
7039.92,0.04621
7034.13,0.04414
7028.35,0.05028
7022.56,0.04952
7016.78,0.05423
7010.99,0.04072
7005.2,0.04682
6999.42,0.05585
6993.63,0.04720
6987.84,0.04193
6982.06,0.05432
6976.27,0.05000
6970.49,0.04812
6964.7,0.04834
6958.91,0.04862
6953.13,0.05409
6947.34,0.04669
6941.55,0.04365
6935.77,0.05055
6929.98,0.04781
6924.2,0.04666
6918.41,0.04496
6912.62,0.05150
6906.84,0.04594
6901.05,0.04910
6895.26,0.05201
6889.48,0.05149
6883.69,0.04870
6877.91,0.04820
6872.12,0.04594
6866.33,0.04724
6860.55,0.04417
6854.76,0.04202
6848.97,0.04451
6843.19,0.04749
6837.4,0.04973
6831.62,0.04564
6825.83,0.05381
6820.04,0.05050
6814.26,0.04773
6808.47,0.04990
6802.68,0.05046
6796.9,0.05027
6791.11,0.05078
6785.33,0.04487
6779.54,0.04593
6773.75,0.04982
6767.97,0.04441
6762.18,0.04499
6756.39,0.04794
6750.61,0.04873
6744.82,0.04526
6739.04,0.04400
6733.25,0.05139
6727.46,0.05290
6721.68,0.04692
6715.89,0.05212
6710.1,0.04838
6704.32,0.05301
6698.53,0.05201
6692.75,0.04899
6686.96,0.05009
6681.17,0.04643
6675.39,0.04534
6669.6,0.05036
6663.82,0.04827
6658.03,0.04522
6652.24,0.04958
6646.46,0.04573
6640.67,0.05212
6634.88,0.05097
6629.1,0.04620
6623.31,0.04880
6617.53,0.04720
6611.74,0.04730
6605.95,0.04631
6600.17,0.04710
6594.38,0.04554
6588.59,0.04721
6582.81,0.04757
6577.02,0.04870
6571.24,0.04717
6565.45,0.04371
6559.66,0.04860
6553.88,0.04538
6548.09,0.04833
6542.3,0.04945
6536.52,0.04689
6530.73,0.04937
6524.95,0.04983
6519.16,0.04361
6513.37,0.04608
6507.59,0.04723
6501.8,0.04578
6496.01,0.05164
6490.23,0.04935
6484.44,0.04706
6478.66,0.04921
6472.87,0.05171
6467.08,0.04867
6461.3,0.04961
6455.51,0.04982
6449.72,0.05055
6443.94,0.05185
6438.15,0.05455
6432.37,0.04937
6426.58,0.05024
6420.79,0.05020
6415.01,0.04998
6409.22,0.04800
6403.43,0.04475
6397.65,0.04782
6391.86,0.05137
6386.08,0.04564
6380.29,0.05326
6374.5,0.04823
6368.72,0.05133
6362.93,0.04719
6357.14,0.04901
6351.36,0.04714
6345.57,0.05010
6339.79,0.04762
6334,0.05355
6328.21,0.04582
6322.43,0.04505
6316.64,0.04994
6310.85,0.04694
6305.07,0.04778
6299.28,0.05422
6293.5,0.05044
6287.71,0.04957
6281.92,0.04703
6276.14,0.04896
6270.35,0.04559
6264.56,0.04847
6258.78,0.04644
6252.99,0.04966
6247.21,0.04967
6241.42,0.04863
6235.63,0.04944
6229.85,0.04934
6224.06,0.04694
6218.27,0.04824
6212.49,0.04674
6206.7,0.05052
6200.92,0.05011
6195.13,0.04764
6189.34,0.05226
6183.56,0.04773
6177.77,0.05059
6171.98,0.04887
6166.2,0.04845
6160.41,0.04645
6154.63,0.05048
6148.84,0.04752
6143.05,0.04951
6137.27,0.04930
6131.48,0.04915
6125.7,0.04785
6119.91,0.05047
6114.12,0.05010
6108.34,0.04784
6102.55,0.04552
6096.76,0.04821
6090.98,0.04883
6085.19,0.04972
6079.41,0.05205
6073.62,0.05003
6067.83,0.04790
6062.05,0.04844
6056.26,0.05050
6050.47,0.04864
6044.69,0.04877
6038.9,0.04823
6033.12,0.04822
6027.33,0.05178
6021.54,0.05018
6015.76,0.04633
6009.97,0.04908
6004.18,0.04852
5998.4,0.04733
5992.61,0.05046
5986.83,0.04952
5981.04,0.04762
5975.25,0.04781
5969.47,0.04912
5963.68,0.04630
5957.89,0.04735
5952.11,0.04769
5946.32,0.04820
5940.54,0.04908
5934.75,0.04794
5928.96,0.04571
5923.18,0.04972
5917.39,0.04556
5911.6,0.04886
5905.82,0.04681
5900.03,0.04710
5894.25,0.04749
5888.46,0.04911
5882.67,0.04905
5876.89,0.05014
5871.1,0.04984
5865.31,0.04779
5859.53,0.04776
5853.74,0.04958
5847.96,0.05167
5842.17,0.04947
5836.38,0.04626
5830.6,0.04678
5824.81,0.05077
5819.02,0.04878
5813.24,0.04847
5807.45,0.04843
5801.67,0.04847
5795.88,0.04892
5790.09,0.04943
5784.31,0.04685
5778.52,0.04810
5772.73,0.04801
5766.95,0.04613
5761.16,0.04616
5755.38,0.04707
5749.59,0.04958
5743.8,0.04751
5738.02,0.04683
5732.23,0.04796
5726.44,0.04955
5720.66,0.04869
5714.87,0.04827
5709.09,0.04681
5703.3,0.04999
5697.51,0.04949
5691.73,0.04645
5685.94,0.04876
5680.15,0.04642
5674.37,0.05047
5668.58,0.04986
5662.8,0.04879
5657.01,0.04882
5651.22,0.04842
5645.44,0.05090
5639.65,0.04902
5633.87,0.05011
5628.08,0.04710
5622.29,0.05052
5616.51,0.04914
5610.72,0.04745
5604.93,0.04808
5599.15,0.04944
5593.36,0.04823
5587.58,0.04896
5581.79,0.05061
5576,0.04891
5570.22,0.05063
5564.43,0.04743
5558.64,0.04755
5552.86,0.04925
5547.07,0.04973
5541.29,0.04834
5535.5,0.04925
5529.71,0.04866
5523.93,0.04880
5518.14,0.04735
5512.35,0.05113
5506.57,0.05128
5500.78,0.04943
5495,0.05029
5489.21,0.04764
5483.42,0.04763
5477.64,0.04949
5471.85,0.04829
5466.06,0.04742
5460.28,0.04664
5454.49,0.04737
5448.71,0.04905
5442.92,0.04996
5437.13,0.04962
5431.35,0.05038
5425.56,0.05155
5419.77,0.05078
5413.99,0.04861
5408.2,0.04985
5402.42,0.04902
5396.63,0.05018
5390.84,0.04902
5385.06,0.04828
5379.27,0.04838
5373.48,0.04970
5367.7,0.04938
5361.91,0.04917
5356.13,0.04891
5350.34,0.04850
5344.55,0.04936
5338.77,0.05030
5332.98,0.04866
5327.19,0.05041
5321.41,0.04993
5315.62,0.04983
5309.84,0.04992
5304.05,0.05011
5298.26,0.04924
5292.48,0.04741
5286.69,0.04984
5280.9,0.04945
5275.12,0.04928
5269.33,0.04889
5263.55,0.04977
5257.76,0.04761
5251.97,0.04769
5246.19,0.04806
5240.4,0.04860
5234.61,0.04718
5228.83,0.04747
5223.04,0.04711
5217.26,0.04778
5211.47,0.04996
5205.68,0.04802
5199.9,0.04733
5194.11,0.04770
5188.32,0.04837
5182.54,0.04796
5176.75,0.04867
5170.97,0.04789
5165.18,0.04943
5159.39,0.04936
5153.61,0.04864
5147.82,0.04830
5142.03,0.04811
5136.25,0.04873
5130.46,0.04880
5124.68,0.04729
5118.89,0.04827
5113.1,0.04862
5107.32,0.04841
5101.53,0.04824
5095.75,0.04788
5089.96,0.04881
5084.17,0.04718
5078.39,0.04756
5072.6,0.04810
5066.81,0.04948
5061.03,0.04837
5055.24,0.04926
5049.46,0.04756
5043.67,0.04872
5037.88,0.04969
5032.1,0.04970
5026.31,0.04930
5020.52,0.04931
5014.74,0.04889
5008.95,0.04854
5003.17,0.04952
4997.38,0.04825
4991.59,0.04906
4985.81,0.04915
4980.02,0.04868
4974.23,0.04945
4968.45,0.04877
4962.66,0.04897
4956.88,0.04833
4951.09,0.04928
4945.3,0.04889
4939.52,0.04928
4933.73,0.04807
4927.94,0.04842
4922.16,0.04895
4916.37,0.04872
4910.59,0.04929
4904.8,0.04831
4899.01,0.04765
4893.23,0.04846
4887.44,0.04826
4881.65,0.04731
4875.87,0.04873
4870.08,0.04768
4864.3,0.04717
4858.51,0.04766
4852.72,0.04715
4846.94,0.04819
4841.15,0.04764
4835.36,0.04806
4829.58,0.04735
4823.79,0.04858
4818.01,0.04648
4812.22,0.04744
4806.43,0.04820
4800.65,0.04731
4794.86,0.04749
4789.07,0.04734
4783.29,0.04813
4777.5,0.04756
4771.72,0.04739
4765.93,0.04638
4760.14,0.04721
4754.36,0.04797
4748.57,0.04712
4742.78,0.04676
4737,0.04685
4731.21,0.04629
4725.43,0.04679
4719.64,0.04680
4713.85,0.04739
4708.07,0.04710
4702.28,0.04729
4696.49,0.04719
4690.71,0.04705
4684.92,0.04790
4679.14,0.04759
4673.35,0.04763
4667.56,0.04714
4661.78,0.04742
4655.99,0.04769
4650.2,0.04739
4644.42,0.04809
4638.63,0.04750
4632.85,0.04745
4627.06,0.04690
4621.27,0.04757
4615.49,0.04778
4609.7,0.04799
4603.92,0.04720
4598.13,0.04762
4592.34,0.04814
4586.56,0.04832
4580.77,0.04819
4574.98,0.04795
4569.2,0.04785
4563.41,0.04687
4557.63,0.04752
4551.84,0.04778
4546.05,0.04764
4540.27,0.04808
4534.48,0.04757
4528.69,0.04874
4522.91,0.04772
4517.12,0.04856
4511.34,0.04857
4505.55,0.04749
4499.76,0.04712
4493.98,0.04720
4488.19,0.04699
4482.4,0.04767
4476.62,0.04714
4470.83,0.04764
4465.05,0.04759
4459.26,0.04682
4453.47,0.04700
4447.69,0.04601
4441.9,0.04563
4436.11,0.04599
4430.33,0.04641
4424.54,0.04604
4418.76,0.04744
4412.97,0.04648
4407.18,0.04637
4401.4,0.04529
4395.61,0.04589
4389.82,0.04614
4384.04,0.04561
4378.25,0.04573
4372.47,0.04532
4366.68,0.04563
4360.89,0.04537
4355.11,0.04549
4349.32,0.04557
4343.53,0.04588
4337.75,0.04606
4331.96,0.04623
4326.18,0.04578
4320.39,0.04538
4314.6,0.04558
4308.82,0.04595
4303.03,0.04617
4297.24,0.04533
4291.46,0.04490
4285.67,0.04432
4279.89,0.04536
4274.1,0.04555
4268.31,0.04593
4262.53,0.04601
4256.74,0.04521
4250.95,0.04543
4245.17,0.04569
4239.38,0.04591
4233.6,0.04571
4227.81,0.04584
4222.02,0.04590
4216.24,0.04596
4210.45,0.04558
4204.66,0.04551
4198.88,0.04581
4193.09,0.04684
4187.31,0.04706
4181.52,0.04595
4175.73,0.04608
4169.95,0.04588
4164.16,0.04622
4158.37,0.04566
4152.59,0.04626
4146.8,0.04576
4141.02,0.04503
4135.23,0.04616
4129.44,0.04532
4123.66,0.04559
4117.87,0.04602
4112.09,0.04567
4106.3,0.04576
4100.51,0.04560
4094.73,0.04590
4088.94,0.04493
4083.15,0.04521
4077.37,0.04530
4071.58,0.04510
4065.8,0.04502
4060.01,0.04471
4054.22,0.04423
4048.44,0.04398
4042.65,0.04481
4036.86,0.04486
4031.08,0.04513
4025.29,0.04508
4019.51,0.04486
4013.72,0.04450
4007.93,0.04463
4002.15,0.04559
3996.36,0.04500
3990.57,0.04476
3984.79,0.04567
3979,0.04511
3973.22,0.04523
3967.43,0.04596
3961.64,0.04531
3955.86,0.04593
3950.07,0.04540
3944.28,0.04579
3938.5,0.04601
3932.71,0.04558
3926.93,0.04557
3921.14,0.04555
3915.35,0.04604
3909.57,0.04584
3903.78,0.04622
3897.99,0.04665
3892.21,0.04604
3886.42,0.04679
3880.64,0.04612
3874.85,0.04541
3869.06,0.04565
3863.28,0.04580
3857.49,0.04597
3851.7,0.04614
3845.92,0.04629
3840.13,0.04718
3834.35,0.04726
3828.56,0.04628
3822.77,0.04704
3816.99,0.04570
3811.2,0.04641
3805.41,0.04689
3799.63,0.04743
3793.84,0.04650
3788.06,0.04610
3782.27,0.04613
3776.48,0.04641
3770.7,0.04612
3764.91,0.04604
3759.12,0.04663
3753.34,0.04693
3747.55,0.04690
3741.77,0.04698
3735.98,0.04658
3730.19,0.04533
3724.41,0.04612
3718.62,0.04585
3712.83,0.04533
3707.05,0.04522
3701.26,0.04584
3695.48,0.04515
3689.69,0.04505
3683.9,0.04414
3678.12,0.04385
3672.33,0.04395
3666.54,0.04314
3660.76,0.04298
3654.97,0.04244
3649.19,0.04260
3643.4,0.04210
3637.61,0.04198
3631.83,0.04205
3626.04,0.04228
3620.25,0.04200
3614.47,0.04178
3608.68,0.04170
3602.9,0.04149
3597.11,0.04098
3591.32,0.04104
3585.54,0.04060
3579.75,0.04104
3573.97,0.04040
3568.18,0.04016
3562.39,0.04008
3556.61,0.04019
3550.82,0.04005
3545.03,0.04019
3539.25,0.03982
3533.46,0.03910
3527.68,0.03924
3521.89,0.03909
3516.1,0.03995
3510.32,0.03911
3504.53,0.03903
3498.74,0.03896
3492.96,0.03878
3487.17,0.03984
3481.39,0.03903
3475.6,0.03910
3469.81,0.03995
3464.03,0.03997
3458.24,0.03982
3452.45,0.04003
3446.67,0.04008
3440.88,0.04038
3435.1,0.04042
3429.31,0.04015
3423.52,0.04071
3417.74,0.04081
3411.95,0.04007
3406.16,0.03982
3400.38,0.03945
3394.59,0.03947
3388.81,0.03910
3383.02,0.03973
3377.23,0.04018
3371.45,0.03972
3365.66,0.03906
3359.87,0.03898
3354.09,0.04000
3348.3,0.03917
3342.52,0.03936
3336.73,0.03972
3330.94,0.03985
3325.16,0.03902
3319.37,0.03981
3313.58,0.03965
3307.8,0.03920
3302.01,0.03889
3296.23,0.03963
3290.44,0.04005
3284.65,0.03977
3278.87,0.03965
3273.08,0.03929
3267.29,0.03967
3261.51,0.03989
3255.72,0.03989
3249.94,0.04078
3244.15,0.03966
3238.36,0.04042
3232.58,0.03981
3226.79,0.03992
3221,0.03997
3215.22,0.03925
3209.43,0.03986
3203.65,0.03994
3197.86,0.03948
3192.07,0.04032
3186.29,0.03931
3180.5,0.03994
3174.71,0.04065
3168.93,0.04037
3163.14,0.03965
3157.36,0.03944
3151.57,0.04007
3145.78,0.03974
3140,0.04073
3134.21,0.04033
3128.42,0.03973
3122.64,0.04019
3116.85,0.04038
3111.07,0.03996
3105.28,0.03976
3099.49,0.04034
3093.71,0.03999
3087.92,0.03929
3082.14,0.03981
3076.35,0.04010
3070.56,0.03994
3064.78,0.03932
3058.99,0.03966
3053.2,0.03930
3047.42,0.03914
3041.63,0.03908
3035.85,0.03919
3030.06,0.03874
3024.27,0.03884
3018.49,0.03851
3012.7,0.03831
3006.91,0.03785
3001.13,0.03806
2995.34,0.03813
2989.56,0.03864
2983.77,0.03911
2977.98,0.03849
2972.2,0.03862
2966.41,0.03835
2960.62,0.03802
2954.84,0.03889
2949.05,0.03878
2943.27,0.03881
2937.48,0.03967
2931.69,0.04097
2925.91,0.04167
2920.12,0.04195
2914.33,0.04209
2908.55,0.04155
2902.76,0.04141
2896.98,0.04073
2891.19,0.04114
2885.4,0.04023
2879.62,0.03990
2873.83,0.04012
2868.04,0.04008
2862.26,0.04064
2856.47,0.04088
2850.69,0.04197
2844.9,0.04213
2839.11,0.04157
2833.33,0.04168
2827.54,0.04111
2821.75,0.04154
2815.97,0.04150
2810.18,0.04131
2804.4,0.04144
2798.61,0.04163
2792.82,0.04170
2787.04,0.04135
2781.25,0.04167
2775.46,0.04177
2769.68,0.04179
2763.89,0.04183
2758.11,0.04155
2752.32,0.04122
2746.53,0.04161
2740.75,0.04171
2734.96,0.04122
2729.17,0.04145
2723.39,0.04154
2717.6,0.04149
2711.82,0.04128
2706.03,0.04150
2700.24,0.04118
2694.46,0.04163
2688.67,0.04137
2682.88,0.04108
2677.1,0.04143
2671.31,0.04108
2665.53,0.04080
2659.74,0.04126
2653.95,0.04172
2648.17,0.04149
2642.38,0.04116
2636.59,0.04108
2630.81,0.04112
2625.02,0.04127
2619.24,0.04102
2613.45,0.04131
2607.66,0.04145
2601.88,0.04108
2596.09,0.04163
2590.3,0.04152
2584.52,0.04136
2578.73,0.04148
2572.95,0.04143
2567.16,0.04138
2561.37,0.04167
2555.59,0.04140
2549.8,0.04151
2544.02,0.04157
2538.23,0.04119
2532.44,0.04122
2526.66,0.04137
2520.87,0.04109
2515.08,0.04123
2509.3,0.04100
2503.51,0.04131
2497.73,0.04165
2491.94,0.04142
2486.15,0.04080
2480.37,0.04115
2474.58,0.04119
2468.79,0.04151
2463.01,0.04139
2457.22,0.04134
2451.44,0.04156
2445.65,0.04096
2439.86,0.04136
2434.08,0.04143
2428.29,0.04144
2422.5,0.04145
2416.72,0.04117
2410.93,0.04180
2405.15,0.04140
2399.36,0.04087
2393.57,0.04133
2387.79,0.04120
2382,0.04141
2376.21,0.04126
2370.43,0.04185
2364.64,0.04200
2358.86,0.04152
2353.07,0.04183
2347.28,0.04154
2341.5,0.04180
2335.71,0.04200
2329.92,0.04118
2324.14,0.04138
2318.35,0.04129
2312.57,0.04152
2306.78,0.04157
2300.99,0.04143
2295.21,0.04125
2289.42,0.04140
2283.63,0.04122
2277.85,0.04148
2272.06,0.04110
2266.28,0.04123
2260.49,0.04162
2254.7,0.04101
2248.92,0.04103
2243.13,0.04114
2237.34,0.04164
2231.56,0.04142
2225.77,0.04116
2219.99,0.04126
2214.2,0.04120
2208.41,0.04132
2202.63,0.04126
2196.84,0.04130
2191.05,0.04107
2185.27,0.04081
2179.48,0.04068
2173.7,0.04114
2167.91,0.04068
2162.12,0.04024
2156.34,0.04090
2150.55,0.04054
2144.76,0.04029
2138.98,0.03997
2133.19,0.04007
2127.41,0.03980
2121.62,0.03974
2115.83,0.03995
2110.05,0.04026
2104.26,0.04006
2098.47,0.03985
2092.69,0.03977
2086.9,0.03955
2081.12,0.03982
2075.33,0.03964
2069.54,0.03987
2063.76,0.03981
2057.97,0.03996
2052.19,0.03991
2046.4,0.03972
2040.61,0.03992
2034.83,0.03984
2029.04,0.03970
2023.25,0.03945
2017.47,0.03966
2011.68,0.03981
2005.9,0.03956
2000.11,0.03941
1994.32,0.03947
1988.54,0.03931
1982.75,0.03930
1976.96,0.03926
1971.18,0.03925
1965.39,0.03931
1959.61,0.03895
1953.82,0.03901
1948.03,0.03902
1942.25,0.03910
1936.46,0.03874
1930.67,0.03895
1924.89,0.03867
1919.1,0.03869
1913.32,0.03850
1907.53,0.03817
1901.74,0.03764
1895.96,0.03781
1890.17,0.03776
1884.38,0.03757
1878.6,0.03688
1872.81,0.03679
1867.03,0.03640
1861.24,0.03611
1855.45,0.03597
1849.67,0.03531
1843.88,0.03471
1838.09,0.03438
1832.31,0.03372
1826.52,0.03292
1820.74,0.03228
1814.95,0.03146
1809.16,0.03060
1803.38,0.02917
1797.59,0.02708
1791.8,0.02492
1786.02,0.02284
1780.23,0.02329
1774.45,0.02665
1768.66,0.03587
1762.87,0.05545
1757.09,0.07519
1751.3,0.07997
1745.51,0.07572
1739.73,0.06782
1733.94,0.06140
1728.16,0.05628
1722.37,0.05328
1716.58,0.05152
1710.8,0.04956
1705.01,0.04787
1699.22,0.04649
1693.44,0.04513
1687.65,0.04431
1681.87,0.04362
1676.08,0.04322
1670.29,0.04297
1664.51,0.04231
1658.72,0.04197
1652.93,0.04190
1647.15,0.04227
1641.36,0.04137
1635.58,0.04129
1629.79,0.04145
1624,0.04151
1618.22,0.04105
1612.43,0.04053
1606.64,0.04019
1600.86,0.04004
1595.07,0.03964
1589.29,0.03974
1583.5,0.03986
1577.71,0.03950
1571.93,0.03891
1566.14,0.03827
1560.35,0.03829
1554.57,0.03839
1548.78,0.03831
1543,0.03885
1537.21,0.03852
1531.42,0.03761
1525.64,0.03717
1519.85,0.03690
1514.07,0.03702
1508.28,0.03661
1502.49,0.03572
1496.71,0.03591
1490.92,0.03538
1485.13,0.03456
1479.35,0.03362
1473.56,0.03249
1467.78,0.03060
1461.99,0.03061
1456.2,0.03475
1450.42,0.03750
1444.63,0.03946
1438.84,0.03944
1433.06,0.03752
1427.27,0.03648
1421.49,0.03537
1415.7,0.03489
1409.91,0.03376
1404.13,0.03276
1398.34,0.03132
1392.55,0.02969
1386.77,0.03091
1380.98,0.03360
1375.2,0.03439
1369.41,0.03334
1363.62,0.03454
1357.84,0.03591
1352.05,0.03685
1346.26,0.03660
1340.48,0.03600
1334.69,0.03472
1328.91,0.03429
1323.12,0.03377
1317.33,0.03298
1311.55,0.03261
1305.76,0.03190
1299.97,0.03146
1294.19,0.03109
1288.4,0.02972
1282.62,0.02774
1276.83,0.02829
1271.04,0.02986
1265.26,0.03099
1259.47,0.03155
1253.68,0.03099
1247.9,0.02968
1242.11,0.02857
1236.33,0.02691
1230.54,0.02611
1224.75,0.02648
1218.97,0.02974
1213.18,0.03467
1207.39,0.03777
1201.61,0.03925
1195.82,0.04265
1190.04,0.05386
1184.25,0.06953
1178.46,0.07161
1172.68,0.05947
1166.89,0.04999
1161.1,0.04291
1155.32,0.03742
1149.53,0.03174
1143.75,0.02841
1137.96,0.03558
1132.17,0.04530
1126.39,0.04932
1120.6,0.04561
1114.81,0.04063
1109.03,0.04268
1103.24,0.05591
1097.46,0.07182
1091.67,0.08591
1085.88,0.09458
1080.1,0.09154
1074.31,0.08358
1068.52,0.07586
1062.74,0.06852
1056.95,0.06414
1051.17,0.06425
1045.38,0.06641
1039.59,0.06844
1033.81,0.06841
1028.02,0.06781
1022.24,0.06919
1016.45,0.07100
1010.66,0.07194
1004.88,0.06979
999.09,0.06646
993.304,0.06408
987.518,0.06294
981.731,0.06092
975.945,0.05940
970.159,0.05734
964.373,0.05558
958.586,0.05431
952.8,0.05452
947.014,0.05479
941.228,0.05376
935.441,0.05294
929.655,0.05253
923.869,0.05203
918.083,0.05131
912.297,0.05033
906.51,0.05025
900.724,0.05021
894.938,0.04936
889.152,0.04959
883.365,0.04868
877.579,0.04725
871.793,0.04795
866.007,0.04970
860.22,0.05114
854.434,0.05127
848.648,0.05033
842.862,0.05028
837.075,0.04929
831.289,0.04892
825.503,0.04949
819.717,0.04844
813.931,0.04810
808.144,0.04732
802.358,0.04696
796.572,0.04675
790.786,0.04670
784.999,0.04493
779.213,0.04445
773.427,0.04458
767.641,0.04398
761.854,0.04405
756.068,0.04570
750.282,0.04662
744.496,0.04664
738.709,0.04747
732.923,0.04740
727.137,0.04619
721.351,0.04523
715.565,0.04614
709.778,0.04471
703.992,0.04578
698.206,0.04532
692.42,0.04637
686.633,0.04630
680.847,0.04683
675.061,0.04653
669.275,0.04821
663.488,0.04776
657.702,0.04649
651.916,0.04584
646.13,0.04599
640.343,0.04584
634.557,0.04792
628.771,0.04626
622.985,0.04517
617.198,0.04652
611.412,0.04412
605.626,0.04332
599.84,0.04471