File: 01_Data/PLA_3D_Printer_Filament/FTIR/IS/PLA_3D_Printer_Filament_IS_T_221108_R6.dpt
7497.03,0.02944
7491.25,0.02032
7485.46,0.02912
7479.67,0.02487
7473.89,0.01964
7468.1,0.02128
7462.32,0.01986
7456.53,0.01746
7450.74,0.02115
7444.96,0.02440
7439.17,0.02039
7433.38,0.02408
7427.6,0.01876
7421.81,0.02932
7416.03,0.03817
7410.24,0.03018
7404.45,0.02741
7398.67,0.02303
7392.88,0.02773
7387.09,0.02190
7381.31,0.03238
7375.52,0.02645
7369.74,0.02584
7363.95,0.03246
7358.16,0.02168
7352.38,0.02233
7346.59,0.02525
7340.8,0.03043
7335.02,0.02486
7329.23,0.01853
7323.45,0.02832
7317.66,0.02678
7311.87,0.01398
7306.09,0.02366
7300.3,0.02700
7294.51,0.03097
7288.73,0.02451
7282.94,0.02273
7277.16,0.02407
7271.37,0.01733
7265.58,0.01679
7259.8,0.02282
7254.01,0.01084
7248.22,0.02163
7242.44,0.02730
7236.65,0.01980
7230.87,0.02362
7225.08,0.02517
7219.29,0.02571
7213.51,0.02775
7207.72,0.02483
7201.93,0.02493
7196.15,0.02615
7190.36,0.03260
7184.58,0.03027
7178.79,0.01701
7173,0.02544
7167.22,0.03115
7161.43,0.02712
7155.65,0.02598
7149.86,0.02239
7144.07,0.02229
7138.29,0.02703
7132.5,0.02287
7126.71,0.02193
7120.93,0.01803
7115.14,0.02529
7109.36,0.02593
7103.57,0.02278
7097.78,0.02600
7092,0.02014
7086.21,0.02083
7080.42,0.02693
7074.64,0.01679
7068.85,0.02627
7063.07,0.02615
7057.28,0.02090
7051.49,0.02476
7045.71,0.03235
7039.92,0.02872
7034.13,0.02917
7028.35,0.02453
7022.56,0.01904
7016.78,0.02040
7010.99,0.02498
7005.2,0.02245
6999.42,0.02879
6993.63,0.02110
6987.84,0.02163
6982.06,0.02233
6976.27,0.02809
6970.49,0.03132
6964.7,0.02803
6958.91,0.02383
6953.13,0.02368
6947.34,0.02742
6941.55,0.02723
6935.77,0.02670
6929.98,0.02491
6924.2,0.02077
6918.41,0.01874
6912.62,0.01915
6906.84,0.02616
6901.05,0.02270
6895.26,0.01845
6889.48,0.01705
6883.69,0.01851
6877.91,0.02079
6872.12,0.02315
6866.33,0.02219
6860.55,0.01781
6854.76,0.02735
6848.97,0.02880
6843.19,0.02420
6837.4,0.01560
6831.62,0.01803
6825.83,0.02270
6820.04,0.02441
6814.26,0.02117
6808.47,0.02219
6802.68,0.01908
6796.9,0.01889
6791.11,0.02428
6785.33,0.02230
6779.54,0.01953
6773.75,0.02767
6767.97,0.02358
6762.18,0.01599
6756.39,0.02171
6750.61,0.02277
6744.82,0.02012
6739.04,0.01969
6733.25,0.02302
6727.46,0.02231
6721.68,0.02581
6715.89,0.02571
6710.1,0.02717
6704.32,0.02414
6698.53,0.02219
6692.75,0.01987
6686.96,0.02081
6681.17,0.02649
6675.39,0.01843
6669.6,0.02584
6663.82,0.02275
6658.03,0.02426
6652.24,0.02111
6646.46,0.02026
6640.67,0.02269
6634.88,0.02069
6629.1,0.02343
6623.31,0.02157
6617.53,0.02335
6611.74,0.02304
6605.95,0.01996
6600.17,0.02033
6594.38,0.02010
6588.59,0.01993
6582.81,0.02099
6577.02,0.02100
6571.24,0.02363
6565.45,0.01704
6559.66,0.02380
6553.88,0.02278
6548.09,0.02247
6542.3,0.02260
6536.52,0.02113
6530.73,0.01915
6524.95,0.01992
6519.16,0.02123
6513.37,0.02416
6507.59,0.01976
6501.8,0.02199
6496.01,0.02176
6490.23,0.02047
6484.44,0.02372
6478.66,0.02006
6472.87,0.02435
6467.08,0.02435
6461.3,0.02305
6455.51,0.02064
6449.72,0.02219
6443.94,0.02117
6438.15,0.01958
6432.37,0.02005
6426.58,0.02187
6420.79,0.01964
6415.01,0.02211
6409.22,0.02156
6403.43,0.02183
6397.65,0.02389
6391.86,0.02142
6386.08,0.02013
6380.29,0.01860
6374.5,0.01977
6368.72,0.01764
6362.93,0.01884
6357.14,0.02458
6351.36,0.02173
6345.57,0.02225
6339.79,0.02017
6334,0.02025
6328.21,0.01719
6322.43,0.01956
6316.64,0.02065
6310.85,0.02309
6305.07,0.01946
6299.28,0.02276
6293.5,0.02429
6287.71,0.02132
6281.92,0.02198
6276.14,0.02119
6270.35,0.02215
6264.56,0.01808
6258.78,0.02260
6252.99,0.01775
6247.21,0.01994
6241.42,0.01936
6235.63,0.02192
6229.85,0.02240
6224.06,0.01951
6218.27,0.02240
6212.49,0.01825
6206.7,0.02102
6200.92,0.02053
6195.13,0.02582
6189.34,0.01910
6183.56,0.02174
6177.77,0.02334
6171.98,0.02057
6166.2,0.02083
6160.41,0.02131
6154.63,0.02446
6148.84,0.01847
6143.05,0.01902
6137.27,0.02235
6131.48,0.02500
6125.7,0.02313
6119.91,0.02136
6114.12,0.01903
6108.34,0.02142
6102.55,0.02244
6096.76,0.02404
6090.98,0.02489
6085.19,0.02255
6079.41,0.02088
6073.62,0.02244
6067.83,0.02162
6062.05,0.02011
6056.26,0.02333
6050.47,0.02245
6044.69,0.02041
6038.9,0.02094
6033.12,0.02130
6027.33,0.02249
6021.54,0.01946
6015.76,0.02013
6009.97,0.02170
6004.18,0.02101
5998.4,0.02239
5992.61,0.02511
5986.83,0.02097
5981.04,0.01983
5975.25,0.02192
5969.47,0.02265
5963.68,0.02148
5957.89,0.02220
5952.11,0.02153
5946.32,0.02127
5940.54,0.01975
5934.75,0.02030
5928.96,0.01801
5923.18,0.01853
5917.39,0.01935
5911.6,0.02298
5905.82,0.02089
5900.03,0.02002
5894.25,0.01988
5888.46,0.01677
5882.67,0.02241
5876.89,0.01894
5871.1,0.01928
5865.31,0.02200
5859.53,0.02086
5853.74,0.01992
5847.96,0.02014
5842.17,0.02019
5836.38,0.02025
5830.6,0.02237
5824.81,0.02122
5819.02,0.02173
5813.24,0.02014
5807.45,0.02214
5801.67,0.02286
5795.88,0.02083
5790.09,0.02074
5784.31,0.02123
5778.52,0.02352
5772.73,0.02110
5766.95,0.01974
5761.16,0.02050
5755.38,0.02281
5749.59,0.02101
5743.8,0.02089
5738.02,0.02355
5732.23,0.02072
5726.44,0.01961
5720.66,0.02071
5714.87,0.02240
5709.09,0.02010
5703.3,0.01865
5697.51,0.02157
5691.73,0.02288
5685.94,0.01956
5680.15,0.02232
5674.37,0.02112
5668.58,0.02056
5662.8,0.02053
5657.01,0.02309
5651.22,0.02160
5645.44,0.02167
5639.65,0.02118
5633.87,0.01848
5628.08,0.02287
5622.29,0.02296
5616.51,0.02109
5610.72,0.02098
5604.93,0.02083
5599.15,0.02321
5593.36,0.02080
5587.58,0.02024
5581.79,0.02205
5576,0.02106
5570.22,0.02077
5564.43,0.02181
5558.64,0.01913
5552.86,0.02018
5547.07,0.02035
5541.29,0.02108
5535.5,0.02117
5529.71,0.01924
5523.93,0.02041
5518.14,0.02121
5512.35,0.02180
5506.57,0.02140
5500.78,0.02109
5495,0.02100
5489.21,0.01997
5483.42,0.02052
5477.64,0.02112
5471.85,0.02186
5466.06,0.01983
5460.28,0.02107
5454.49,0.02282
5448.71,0.02089
5442.92,0.02167
5437.13,0.02310
5431.35,0.02085
5425.56,0.02062
5419.77,0.02152
5413.99,0.02227
5408.2,0.02140
5402.42,0.02151
5396.63,0.02366
5390.84,0.01955
5385.06,0.02128
5379.27,0.02258
5373.48,0.02171
5367.7,0.02260
5361.91,0.02227
5356.13,0.02084
5350.34,0.02252
5344.55,0.02254
5338.77,0.02093
5332.98,0.02192
5327.19,0.02254
5321.41,0.02252
5315.62,0.02315
5309.84,0.02163
5304.05,0.02147
5298.26,0.02141
5292.48,0.02153
5286.69,0.02216
5280.9,0.01922
5275.12,0.02105
5269.33,0.02175
5263.55,0.02159
5257.76,0.02044
5251.97,0.02135
5246.19,0.02152
5240.4,0.02290
5234.61,0.02202
5228.83,0.02266
5223.04,0.02086
5217.26,0.02139
5211.47,0.02168
5205.68,0.02120
5199.9,0.02104
5194.11,0.02038
5188.32,0.02262
5182.54,0.02118
5176.75,0.02212
5170.97,0.02159
5165.18,0.02147
5159.39,0.02196
5153.61,0.02098
5147.82,0.02208
5142.03,0.02278
5136.25,0.02204
5130.46,0.02167
5124.68,0.02199
5118.89,0.02241
5113.1,0.02254
5107.32,0.02187
5101.53,0.02249
5095.75,0.02064
5089.96,0.02177
5084.17,0.02271
5078.39,0.02231
5072.6,0.02167
5066.81,0.02155
5061.03,0.02146
5055.24,0.02046
5049.46,0.02081
5043.67,0.02232
5037.88,0.02131
5032.1,0.02034
5026.31,0.02126
5020.52,0.02211
5014.74,0.02093
5008.95,0.02173
5003.17,0.02217
4997.38,0.02137
4991.59,0.02183
4985.81,0.02348
4980.02,0.02273
4974.23,0.02231
4968.45,0.02216
4962.66,0.02218
4956.88,0.02128
4951.09,0.02045
4945.3,0.02184
4939.52,0.02221
4933.73,0.02165
4927.94,0.02192
4922.16,0.02218
4916.37,0.02286
4910.59,0.02190
4904.8,0.02141
4899.01,0.02153
4893.23,0.02140
4887.44,0.02186
4881.65,0.02157
4875.87,0.02238
4870.08,0.02127
4864.3,0.02200
4858.51,0.02248
4852.72,0.02250
4846.94,0.02254
4841.15,0.02124
4835.36,0.02168
4829.58,0.02207
4823.79,0.02254
4818.01,0.02298
4812.22,0.02338
4806.43,0.02184
4800.65,0.02279
4794.86,0.02309
4789.07,0.02298
4783.29,0.02178
4777.5,0.02232
4771.72,0.02230
4765.93,0.02152
4760.14,0.02240
4754.36,0.02156
4748.57,0.02211
4742.78,0.02233
4737,0.02217
4731.21,0.02126
4725.43,0.02134
4719.64,0.02314
4713.85,0.02139
4708.07,0.02171
4702.28,0.02242
4696.49,0.02197
4690.71,0.02195
4684.92,0.02304
4679.14,0.02223
4673.35,0.02229
4667.56,0.02302
4661.78,0.02227
4655.99,0.02246
4650.2,0.02137
4644.42,0.02176
4638.63,0.02163
4632.85,0.02201
4627.06,0.02171
4621.27,0.02209
4615.49,0.02196
4609.7,0.02152
4603.92,0.02173
4598.13,0.02160
4592.34,0.02145
4586.56,0.02188
4580.77,0.02194
4574.98,0.02083
4569.2,0.02175
4563.41,0.02205
4557.63,0.02276
4551.84,0.02195
4546.05,0.02116
4540.27,0.02112
4534.48,0.02210
4528.69,0.02233
4522.91,0.02122
4517.12,0.02165
4511.34,0.02177
4505.55,0.02182
4499.76,0.02195
4493.98,0.02183
4488.19,0.02241
4482.4,0.02158
4476.62,0.02188
4470.83,0.02178
4465.05,0.02263
4459.26,0.02222
4453.47,0.02254
4447.69,0.02202
4441.9,0.02327
4436.11,0.02149
4430.33,0.02167
4424.54,0.02151
4418.76,0.02224
4412.97,0.02191
4407.18,0.02202
4401.4,0.02354
4395.61,0.02202
4389.82,0.02257
4384.04,0.02233
4378.25,0.02225
4372.47,0.02217
4366.68,0.02212
4360.89,0.02196
4355.11,0.02123
4349.32,0.02210
4343.53,0.02234
4337.75,0.02232
4331.96,0.02211
4326.18,0.02274
4320.39,0.02171
4314.6,0.02174
4308.82,0.02282
4303.03,0.02207
4297.24,0.02179
4291.46,0.02155
4285.67,0.02139
4279.89,0.02251
4274.1,0.02243
4268.31,0.02255
4262.53,0.02210
4256.74,0.02155
4250.95,0.02295
4245.17,0.02222
4239.38,0.02225
4233.6,0.02196
4227.81,0.02230
4222.02,0.02168
4216.24,0.02194
4210.45,0.02273
4204.66,0.02272
4198.88,0.02219
4193.09,0.02219
4187.31,0.02185
4181.52,0.02206
4175.73,0.02153
4169.95,0.02225
4164.16,0.02253
4158.37,0.02239
4152.59,0.02190
4146.8,0.02273
4141.02,0.02235
4135.23,0.02254
4129.44,0.02275
4123.66,0.02157
4117.87,0.02214
4112.09,0.02215
4106.3,0.02269
4100.51,0.02194
4094.73,0.02316
4088.94,0.02291
4083.15,0.02264
4077.37,0.02276
4071.58,0.02256
4065.8,0.02234
4060.01,0.02269
4054.22,0.02225
4048.44,0.02239
4042.65,0.02260
4036.86,0.02254
4031.08,0.02274
4025.29,0.02219
4019.51,0.02285
4013.72,0.02238
4007.93,0.02259
4002.15,0.02235
3996.36,0.02261
3990.57,0.02258
3984.79,0.02200
3979,0.02258
3973.22,0.02227
3967.43,0.02240
3961.64,0.02220
3955.86,0.02275
3950.07,0.02181
3944.28,0.02180
3938.5,0.02237
3932.71,0.02291
3926.93,0.02210
3921.14,0.02292
3915.35,0.02269
3909.57,0.02275
3903.78,0.02152
3897.99,0.02233
3892.21,0.02290
3886.42,0.02340
3880.64,0.02316
3874.85,0.02285
3869.06,0.02339
3863.28,0.02323
3857.49,0.02161
3851.7,0.02220
3845.92,0.02340
3840.13,0.02280
3834.35,0.02239
3828.56,0.02288
3822.77,0.02316
3816.99,0.02233
3811.2,0.02234
3805.41,0.02241
3799.63,0.02239
3793.84,0.02311
3788.06,0.02259
3782.27,0.02271
3776.48,0.02232
3770.7,0.02268
3764.91,0.02230
3759.12,0.02342
3753.34,0.02288
3747.55,0.02222
3741.77,0.02243
3735.98,0.02216
3730.19,0.02261
3724.41,0.02270
3718.62,0.02212
3712.83,0.02233
3707.05,0.02218
3701.26,0.02207
3695.48,0.02263
3689.69,0.02217
3683.9,0.02216
3678.12,0.02203
3672.33,0.02262
3666.54,0.02163
3660.76,0.02209
3654.97,0.02256
3649.19,0.02231
3643.4,0.02195
3637.61,0.02271
3631.83,0.02283
3626.04,0.02207
3620.25,0.02218
3614.47,0.02252
3608.68,0.02237
3602.9,0.02166
3597.11,0.02204
3591.32,0.02203
3585.54,0.02180
3579.75,0.02111
3573.97,0.02157
3568.18,0.02159
3562.39,0.02159
3556.61,0.02112
3550.82,0.02144
3545.03,0.02131
3539.25,0.02160
3533.46,0.02199
3527.68,0.02186
3521.89,0.02139
3516.1,0.02126
3510.32,0.02077
3504.53,0.02084
3498.74,0.02077
3492.96,0.02043
3487.17,0.02095
3481.39,0.02079
3475.6,0.02114
3469.81,0.02018
3464.03,0.02153
3458.24,0.02019
3452.45,0.02050
3446.67,0.02073
3440.88,0.02006
3435.1,0.02066
3429.31,0.02014
3423.52,0.02058
3417.74,0.02063
3411.95,0.02111
3406.16,0.02048
3400.38,0.02014
3394.59,0.02037
3388.81,0.02050
3383.02,0.01990
3377.23,0.01964
3371.45,0.02039
3365.66,0.02066
3359.87,0.02091
3354.09,0.02130
3348.3,0.01978
3342.52,0.02046
3336.73,0.02055
3330.94,0.02019
3325.16,0.02044
3319.37,0.02028
3313.58,0.01994
3307.8,0.01991
3302.01,0.01978
3296.23,0.01984
3290.44,0.02082
3284.65,0.02071
3278.87,0.02010
3273.08,0.02014
3267.29,0.02014
3261.51,0.01993
3255.72,0.02038
3249.94,0.01998
3244.15,0.02035
3238.36,0.02046
3232.58,0.01973
3226.79,0.02059
3221,0.02142
3215.22,0.02093
3209.43,0.02133
3203.65,0.02054
3197.86,0.02062
3192.07,0.02094
3186.29,0.02105
3180.5,0.02100
3174.71,0.02072
3168.93,0.02076
3163.14,0.02119
3157.36,0.02097
3151.57,0.02103
3145.78,0.02081
3140,0.02115
3134.21,0.02097
3128.42,0.02102
3122.64,0.02082
3116.85,0.02089
3111.07,0.02062
3105.28,0.02088
3099.49,0.02090
3093.71,0.02059
3087.92,0.02081
3082.14,0.02017
3076.35,0.02079
3070.56,0.02096
3064.78,0.02124
3058.99,0.02078
3053.2,0.02070
3047.42,0.02065
3041.63,0.02030
3035.85,0.02056
3030.06,0.02087
3024.27,0.02078
3018.49,0.02018
3012.7,0.02064
3006.91,0.02038
3001.13,0.02099
2995.34,0.02052
2989.56,0.02043
2983.77,0.01973
2977.98,0.02039
2972.2,0.02013
2966.41,0.01945
2960.62,0.01968
2954.84,0.02009
2949.05,0.01988
2943.27,0.01992
2937.48,0.01969
2931.69,0.02043
2925.91,0.01967
2920.12,0.01994
2914.33,0.02031
2908.55,0.02048
2902.76,0.02048
2896.98,0.02104
2891.19,0.02079
2885.4,0.02082
2879.62,0.02104
2873.83,0.02081
2868.04,0.02030
2862.26,0.02099
2856.47,0.02114
2850.69,0.02120
2844.9,0.02103
2839.11,0.02149
2833.33,0.02154
2827.54,0.02127
2821.75,0.02146
2815.97,0.02112
2810.18,0.02175
2804.4,0.02156
2798.61,0.02151
2792.82,0.02166
2787.04,0.02111
2781.25,0.02094
2775.46,0.02137
2769.68,0.02155
2763.89,0.02142
2758.11,0.02140
2752.32,0.02138
2746.53,0.02116
2740.75,0.02116
2734.96,0.02134
2729.17,0.02171
2723.39,0.02151
2717.6,0.02184
2711.82,0.02191
2706.03,0.02147
2700.24,0.02142
2694.46,0.02133
2688.67,0.02125
2682.88,0.02148
2677.1,0.02166
2671.31,0.02111
2665.53,0.02124
2659.74,0.02180
2653.95,0.02137
2648.17,0.02128
2642.38,0.02181
2636.59,0.02147
2630.81,0.02154
2625.02,0.02137
2619.24,0.02161
2613.45,0.02159
2607.66,0.02161
2601.88,0.02138
2596.09,0.02159
2590.3,0.02160
2584.52,0.02151
2578.73,0.02135
2572.95,0.02140
2567.16,0.02137
2561.37,0.02187
2555.59,0.02141
2549.8,0.02135
2544.02,0.02158
2538.23,0.02181
2532.44,0.02150
2526.66,0.02190
2520.87,0.02150
2515.08,0.02144
2509.3,0.02171
2503.51,0.02143
2497.73,0.02169
2491.94,0.02111
2486.15,0.02151
2480.37,0.02177
2474.58,0.02158
2468.79,0.02197
2463.01,0.02169
2457.22,0.02127
2451.44,0.02186
2445.65,0.02163
2439.86,0.02179
2434.08,0.02111
2428.29,0.02142
2422.5,0.02160
2416.72,0.02169
2410.93,0.02199
2405.15,0.02192
2399.36,0.02169
2393.57,0.02165
2387.79,0.02169
2382,0.02152
2376.21,0.02135
2370.43,0.02171
2364.64,0.02149
2358.86,0.02171
2353.07,0.02148
2347.28,0.02125
2341.5,0.02166
2335.71,0.02191
2329.92,0.02180
2324.14,0.02122
2318.35,0.02121
2312.57,0.02153
2306.78,0.02149
2300.99,0.02136
2295.21,0.02173
2289.42,0.02154
2283.63,0.02159
2277.85,0.02139
2272.06,0.02140
2266.28,0.02124
2260.49,0.02124
2254.7,0.02118
2248.92,0.02141
2243.13,0.02130
2237.34,0.02142
2231.56,0.02144
2225.77,0.02128
2219.99,0.02127
2214.2,0.02154
2208.41,0.02169
2202.63,0.02123
2196.84,0.02124
2191.05,0.02155
2185.27,0.02145
2179.48,0.02152
2173.7,0.02150
2167.91,0.02129
2162.12,0.02119
2156.34,0.02122
2150.55,0.02127
2144.76,0.02120
2138.98,0.02105
2133.19,0.02116
2127.41,0.02093
2121.62,0.02118
2115.83,0.02140
2110.05,0.02155
2104.26,0.02134
2098.47,0.02113
2092.69,0.02120
2086.9,0.02136
2081.12,0.02129
2075.33,0.02117
2069.54,0.02121
2063.76,0.02099
2057.97,0.02094
2052.19,0.02141
2046.4,0.02173
2040.61,0.02123
2034.83,0.02106
2029.04,0.02144
2023.25,0.02136
2017.47,0.02089
2011.68,0.02149
2005.9,0.02145
2000.11,0.02144
1994.32,0.02123
1988.54,0.02165
1982.75,0.02126
1976.96,0.02142
1971.18,0.02124
1965.39,0.02091
1959.61,0.02150
1953.82,0.02130
1948.03,0.02103
1942.25,0.02129
1936.46,0.02102
1930.67,0.02099
1924.89,0.02101
1919.1,0.02134
1913.32,0.02122
1907.53,0.02122
1901.74,0.02100
1895.96,0.02068
1890.17,0.02067
1884.38,0.02068
1878.6,0.02067
1872.81,0.02076
1867.03,0.02089
1861.24,0.02117
1855.45,0.02058
1849.67,0.02088
1843.88,0.02054
1838.09,0.02049
1832.31,0.02072
1826.52,0.02022
1820.74,0.02008
1814.95,0.02051
1809.16,0.02024
1803.38,0.01995
1797.59,0.01988
1791.8,0.02023
1786.02,0.01948
1780.23,0.01936
1774.45,0.01930
1768.66,0.01926
1762.87,0.01887
1757.09,0.01794
1751.3,0.01800
1745.51,0.01808
1739.73,0.01894
1733.94,0.02021
1728.16,0.02060
1722.37,0.02121
1716.58,0.02142
1710.8,0.02115
1705.01,0.02046
1699.22,0.02019
1693.44,0.01986
1687.65,0.01968
1681.87,0.01944
1676.08,0.01888
1670.29,0.01904
1664.51,0.01891
1658.72,0.01888
1652.93,0.01820
1647.15,0.01934
1641.36,0.01886
1635.58,0.01875
1629.79,0.01871
1624,0.01850
1618.22,0.01893
1612.43,0.01905
1606.64,0.01956
1600.86,0.01921
1595.07,0.01932
1589.29,0.01902
1583.5,0.01900
1577.71,0.01905
1571.93,0.01888
1566.14,0.01858
1560.35,0.01903
1554.57,0.01847
1548.78,0.01830
1543,0.01925
1537.21,0.01900
1531.42,0.01891
1525.64,0.01907
1519.85,0.01881
1514.07,0.01924
1508.28,0.01888
1502.49,0.01937
1496.71,0.01936
1490.92,0.01934
1485.13,0.01909
1479.35,0.01870
1473.56,0.01861
1467.78,0.01897
1461.99,0.01892
1456.2,0.01880
1450.42,0.01893
1444.63,0.01906
1438.84,0.01898
1433.06,0.01910
1427.27,0.01916
1421.49,0.01934
1415.7,0.01897
1409.91,0.01903
1404.13,0.01858
1398.34,0.01851
1392.55,0.01838
1386.77,0.01823
1380.98,0.01872
1375.2,0.01910
1369.41,0.01887
1363.62,0.01847
1357.84,0.01823
1352.05,0.01838
1346.26,0.01799
1340.48,0.01836
1334.69,0.01799
1328.91,0.01791
1323.12,0.01787
1317.33,0.01740
1311.55,0.01696
1305.76,0.01748
1299.97,0.01771
1294.19,0.01861
1288.4,0.01879
1282.62,0.01898
1276.83,0.01976
1271.04,0.01961
1265.26,0.02021
1259.47,0.02045
1253.68,0.02064
1247.9,0.02082
1242.11,0.02031
1236.33,0.02019
1230.54,0.02013
1224.75,0.01959
1218.97,0.01984
1213.18,0.01934
1207.39,0.01904
1201.61,0.01931
1195.82,0.01912
1190.04,0.01847
1184.25,0.01873
1178.46,0.01842
1172.68,0.01789
1166.89,0.01844
1161.1,0.01791
1155.32,0.01788
1149.53,0.01801
1143.75,0.01769
1137.96,0.01811
1132.17,0.01764
1126.39,0.01856
1120.6,0.01940
1114.81,0.02011
1109.03,0.01868
1103.24,0.01883
1097.46,0.01867
1091.67,0.01868
1085.88,0.01863
1080.1,0.01917
1074.31,0.01944
1068.52,0.02006
1062.74,0.02025
1056.95,0.01998
1051.17,0.01965
1045.38,0.01984
1039.59,0.02089
1033.81,0.01991
1028.02,0.02026
1022.24,0.02021
1016.45,0.01971
1010.66,0.02062
1004.88,0.02124
999.09,0.02094
993.304,0.02179
987.518,0.02141
981.731,0.02112
975.945,0.02049
970.159,0.02063
964.373,0.02126
958.586,0.02042
952.8,0.02025
947.014,0.02013
941.228,0.02041
935.441,0.01975
929.655,0.02016
923.869,0.01919
918.083,0.01931
912.297,0.01959
906.51,0.02001
900.724,0.01974
894.938,0.01926
889.152,0.01911
883.365,0.01912
877.579,0.01928
871.793,0.01960
866.007,0.01883
860.22,0.01929
854.434,0.01923
848.648,0.01873
842.862,0.01891
837.075,0.01952
831.289,0.01955
825.503,0.01895
819.717,0.01958
813.931,0.01959
808.144,0.01903
802.358,0.01910
796.572,0.01905
790.786,0.01856
784.999,0.01874
779.213,0.01809
773.427,0.01850
767.641,0.01896
761.854,0.01796
756.068,0.01879
750.282,0.01788
744.496,0.01879
738.709,0.01837
732.923,0.01852
727.137,0.01907
721.351,0.01835
715.565,0.01853
709.778,0.01722
703.992,0.01831
698.206,0.01899
692.42,0.01788
686.633,0.01723
680.847,0.01798
675.061,0.01768
669.275,0.01681
663.488,0.01701
657.702,0.01692
651.916,0.01676
646.13,0.01645
640.343,0.01440
634.557,0.01673
628.771,0.01721
622.985,0.01713
617.198,0.01710
611.412,0.01502
605.626,0.01422
599.84,0.01449