File: 01_Data/PLA_3D_Printer_Filament/FTIR/IS/PLA_3D_Printer_Filament_IS_S_221108_R2.dpt
7497.03,0.05932
7491.25,0.05934
7485.46,0.05295
7479.67,0.05227
7473.89,0.04900
7468.1,0.04403
7462.32,0.04307
7456.53,0.06296
7450.74,0.05824
7444.96,0.05517
7439.17,0.05480
7433.38,0.05477
7427.6,0.05015
7421.81,0.04250
7416.03,0.04705
7410.24,0.05957
7404.45,0.04105
7398.67,0.04385
7392.88,0.05385
7387.09,0.05479
7381.31,0.05637
7375.52,0.04028
7369.74,0.04907
7363.95,0.05027
7358.16,0.04889
7352.38,0.05081
7346.59,0.04200
7340.8,0.05259
7335.02,0.05402
7329.23,0.05801
7323.45,0.06055
7317.66,0.06489
7311.87,0.05307
7306.09,0.05591
7300.3,0.06079
7294.51,0.04653
7288.73,0.04619
7282.94,0.04448
7277.16,0.04278
7271.37,0.05191
7265.58,0.05560
7259.8,0.04974
7254.01,0.04833
7248.22,0.04822
7242.44,0.04678
7236.65,0.04695
7230.87,0.04528
7225.08,0.04319
7219.29,0.04987
7213.51,0.05132
7207.72,0.05300
7201.93,0.05207
7196.15,0.04703
7190.36,0.05525
7184.58,0.04333
7178.79,0.04984
7173,0.04708
7167.22,0.05090
7161.43,0.04983
7155.65,0.04725
7149.86,0.05089
7144.07,0.05671
7138.29,0.05244
7132.5,0.04673
7126.71,0.04790
7120.93,0.04736
7115.14,0.04683
7109.36,0.04655
7103.57,0.04459
7097.78,0.04626
7092,0.04404
7086.21,0.04363
7080.42,0.05413
7074.64,0.04337
7068.85,0.04659
7063.07,0.05281
7057.28,0.05230
7051.49,0.05390
7045.71,0.05222
7039.92,0.04802
7034.13,0.05061
7028.35,0.04651
7022.56,0.05000
7016.78,0.05225
7010.99,0.05291
7005.2,0.04529
6999.42,0.05510
6993.63,0.04525
6987.84,0.05207
6982.06,0.05108
6976.27,0.05404
6970.49,0.05602
6964.7,0.05294
6958.91,0.05258
6953.13,0.04841
6947.34,0.04333
6941.55,0.04703
6935.77,0.05338
6929.98,0.04270
6924.2,0.04626
6918.41,0.05192
6912.62,0.05269
6906.84,0.05281
6901.05,0.05492
6895.26,0.04927
6889.48,0.04777
6883.69,0.04561
6877.91,0.03582
6872.12,0.04901
6866.33,0.05413
6860.55,0.05491
6854.76,0.05474
6848.97,0.04537
6843.19,0.05173
6837.4,0.05162
6831.62,0.05180
6825.83,0.05336
6820.04,0.04312
6814.26,0.05096
6808.47,0.04948
6802.68,0.05033
6796.9,0.04828
6791.11,0.04987
6785.33,0.04758
6779.54,0.04906
6773.75,0.04480
6767.97,0.05148
6762.18,0.05214
6756.39,0.04943
6750.61,0.04649
6744.82,0.04747
6739.04,0.04638
6733.25,0.04697
6727.46,0.04428
6721.68,0.04518
6715.89,0.04918
6710.1,0.04961
6704.32,0.04866
6698.53,0.05090
6692.75,0.05045
6686.96,0.04702
6681.17,0.05709
6675.39,0.05047
6669.6,0.05021
6663.82,0.04601
6658.03,0.04882
6652.24,0.04240
6646.46,0.04779
6640.67,0.04751
6634.88,0.05081
6629.1,0.04763
6623.31,0.05020
6617.53,0.04973
6611.74,0.04887
6605.95,0.05147
6600.17,0.04892
6594.38,0.04845
6588.59,0.04595
6582.81,0.04990
6577.02,0.04551
6571.24,0.05282
6565.45,0.05215
6559.66,0.04652
6553.88,0.04461
6548.09,0.04822
6542.3,0.04778
6536.52,0.04970
6530.73,0.04983
6524.95,0.04712
6519.16,0.04872
6513.37,0.04812
6507.59,0.04834
6501.8,0.04713
6496.01,0.05010
6490.23,0.04822
6484.44,0.05248
6478.66,0.05213
6472.87,0.05238
6467.08,0.04657
6461.3,0.04652
6455.51,0.04994
6449.72,0.04934
6443.94,0.04769
6438.15,0.04987
6432.37,0.04538
6426.58,0.04238
6420.79,0.04835
6415.01,0.04908
6409.22,0.04872
6403.43,0.04864
6397.65,0.04821
6391.86,0.04287
6386.08,0.04823
6380.29,0.04869
6374.5,0.04703
6368.72,0.04872
6362.93,0.04650
6357.14,0.05035
6351.36,0.04763
6345.57,0.04397
6339.79,0.04857
6334,0.05062
6328.21,0.04870
6322.43,0.04903
6316.64,0.04441
6310.85,0.04765
6305.07,0.04681
6299.28,0.04699
6293.5,0.05102
6287.71,0.04991
6281.92,0.04731
6276.14,0.04974
6270.35,0.04795
6264.56,0.04988
6258.78,0.05084
6252.99,0.04977
6247.21,0.04794
6241.42,0.05006
6235.63,0.04674
6229.85,0.05201
6224.06,0.04978
6218.27,0.05058
6212.49,0.04782
6206.7,0.04656
6200.92,0.04716
6195.13,0.04251
6189.34,0.05000
6183.56,0.05290
6177.77,0.04833
6171.98,0.04939
6166.2,0.04967
6160.41,0.04847
6154.63,0.04696
6148.84,0.05023
6143.05,0.04889
6137.27,0.04939
6131.48,0.04449
6125.7,0.05168
6119.91,0.05127
6114.12,0.05197
6108.34,0.05313
6102.55,0.04726
6096.76,0.04900
6090.98,0.05000
6085.19,0.04642
6079.41,0.04754
6073.62,0.05010
6067.83,0.04867
6062.05,0.04676
6056.26,0.04758
6050.47,0.04733
6044.69,0.04816
6038.9,0.04722
6033.12,0.05269
6027.33,0.04918
6021.54,0.04771
6015.76,0.04676
6009.97,0.04751
6004.18,0.05194
5998.4,0.04768
5992.61,0.04578
5986.83,0.04960
5981.04,0.05123
5975.25,0.04712
5969.47,0.04851
5963.68,0.05142
5957.89,0.05218
5952.11,0.04825
5946.32,0.04966
5940.54,0.04929
5934.75,0.04883
5928.96,0.04963
5923.18,0.04726
5917.39,0.04878
5911.6,0.05163
5905.82,0.04923
5900.03,0.04998
5894.25,0.04931
5888.46,0.04977
5882.67,0.04653
5876.89,0.04882
5871.1,0.04986
5865.31,0.04699
5859.53,0.04823
5853.74,0.04871
5847.96,0.04866
5842.17,0.04952
5836.38,0.04793
5830.6,0.04770
5824.81,0.04636
5819.02,0.04834
5813.24,0.04677
5807.45,0.04950
5801.67,0.04792
5795.88,0.04851
5790.09,0.04903
5784.31,0.04689
5778.52,0.04777
5772.73,0.04670
5766.95,0.04813
5761.16,0.04847
5755.38,0.04623
5749.59,0.04755
5743.8,0.04790
5738.02,0.05306
5732.23,0.04971
5726.44,0.04803
5720.66,0.04900
5714.87,0.05017
5709.09,0.04891
5703.3,0.05149
5697.51,0.04757
5691.73,0.04867
5685.94,0.04909
5680.15,0.04779
5674.37,0.04927
5668.58,0.04820
5662.8,0.04821
5657.01,0.04940
5651.22,0.05000
5645.44,0.04908
5639.65,0.04666
5633.87,0.04982
5628.08,0.05030
5622.29,0.04932
5616.51,0.04949
5610.72,0.04836
5604.93,0.04939
5599.15,0.04964
5593.36,0.05005
5587.58,0.04965
5581.79,0.04719
5576,0.04877
5570.22,0.04911
5564.43,0.04834
5558.64,0.04939
5552.86,0.05092
5547.07,0.04993
5541.29,0.05036
5535.5,0.04952
5529.71,0.04783
5523.93,0.04862
5518.14,0.04993
5512.35,0.04731
5506.57,0.04893
5500.78,0.05070
5495,0.04937
5489.21,0.05040
5483.42,0.04981
5477.64,0.04861
5471.85,0.04930
5466.06,0.05080
5460.28,0.04949
5454.49,0.04855
5448.71,0.05017
5442.92,0.04814
5437.13,0.04950
5431.35,0.05059
5425.56,0.05125
5419.77,0.04883
5413.99,0.04933
5408.2,0.04983
5402.42,0.04952
5396.63,0.04888
5390.84,0.04958
5385.06,0.05022
5379.27,0.04981
5373.48,0.04922
5367.7,0.04912
5361.91,0.04986
5356.13,0.04823
5350.34,0.04845
5344.55,0.05041
5338.77,0.05031
5332.98,0.04917
5327.19,0.04925
5321.41,0.04907
5315.62,0.05033
5309.84,0.04892
5304.05,0.04885
5298.26,0.04726
5292.48,0.04945
5286.69,0.05032
5280.9,0.04986
5275.12,0.04964
5269.33,0.05013
5263.55,0.04874
5257.76,0.04857
5251.97,0.04798
5246.19,0.04943
5240.4,0.04738
5234.61,0.04835
5228.83,0.04866
5223.04,0.04620
5217.26,0.04820
5211.47,0.04771
5205.68,0.04837
5199.9,0.04867
5194.11,0.04767
5188.32,0.04789
5182.54,0.04754
5176.75,0.04710
5170.97,0.04755
5165.18,0.04841
5159.39,0.04750
5153.61,0.04816
5147.82,0.04804
5142.03,0.04782
5136.25,0.04901
5130.46,0.04708
5124.68,0.04774
5118.89,0.04711
5113.1,0.04846
5107.32,0.04926
5101.53,0.04926
5095.75,0.04726
5089.96,0.04777
5084.17,0.05041
5078.39,0.04982
5072.6,0.04796
5066.81,0.04860
5061.03,0.05027
5055.24,0.05003
5049.46,0.04914
5043.67,0.04805
5037.88,0.04870
5032.1,0.04828
5026.31,0.04849
5020.52,0.04833
5014.74,0.04842
5008.95,0.04846
5003.17,0.04866
4997.38,0.04797
4991.59,0.04907
4985.81,0.04872
4980.02,0.04771
4974.23,0.04841
4968.45,0.04891
4962.66,0.04753
4956.88,0.04767
4951.09,0.04756
4945.3,0.04932
4939.52,0.04908
4933.73,0.04920
4927.94,0.04906
4922.16,0.04898
4916.37,0.04804
4910.59,0.04864
4904.8,0.04734
4899.01,0.04908
4893.23,0.04851
4887.44,0.04817
4881.65,0.04861
4875.87,0.04778
4870.08,0.04806
4864.3,0.04777
4858.51,0.04739
4852.72,0.04821
4846.94,0.04815
4841.15,0.04841
4835.36,0.04823
4829.58,0.04715
4823.79,0.04744
4818.01,0.04699
4812.22,0.04779
4806.43,0.04688
4800.65,0.04722
4794.86,0.04660
4789.07,0.04643
4783.29,0.04636
4777.5,0.04602
4771.72,0.04631
4765.93,0.04676
4760.14,0.04778
4754.36,0.04818
4748.57,0.04721
4742.78,0.04598
4737,0.04594
4731.21,0.04618
4725.43,0.04779
4719.64,0.04675
4713.85,0.04784
4708.07,0.04767
4702.28,0.04712
4696.49,0.04667
4690.71,0.04690
4684.92,0.04776
4679.14,0.04696
4673.35,0.04755
4667.56,0.04640
4661.78,0.04724
4655.99,0.04722
4650.2,0.04769
4644.42,0.04749
4638.63,0.04730
4632.85,0.04763
4627.06,0.04794
4621.27,0.04815
4615.49,0.04719
4609.7,0.04856
4603.92,0.04873
4598.13,0.04778
4592.34,0.04828
4586.56,0.04808
4580.77,0.04763
4574.98,0.04812
4569.2,0.04713
4563.41,0.04822
4557.63,0.04797
4551.84,0.04735
4546.05,0.04780
4540.27,0.04738
4534.48,0.04832
4528.69,0.04871
4522.91,0.04719
4517.12,0.04819
4511.34,0.04767
4505.55,0.04829
4499.76,0.04796
4493.98,0.04715
4488.19,0.04765
4482.4,0.04761
4476.62,0.04788
4470.83,0.04768
4465.05,0.04627
4459.26,0.04700
4453.47,0.04616
4447.69,0.04604
4441.9,0.04568
4436.11,0.04575
4430.33,0.04601
4424.54,0.04632
4418.76,0.04562
4412.97,0.04664
4407.18,0.04691
4401.4,0.04567
4395.61,0.04558
4389.82,0.04604
4384.04,0.04587
4378.25,0.04448
4372.47,0.04522
4366.68,0.04467
4360.89,0.04476
4355.11,0.04508
4349.32,0.04483
4343.53,0.04526
4337.75,0.04566
4331.96,0.04580
4326.18,0.04460
4320.39,0.04519
4314.6,0.04569
4308.82,0.04547
4303.03,0.04556
4297.24,0.04508
4291.46,0.04508
4285.67,0.04499
4279.89,0.04568
4274.1,0.04584
4268.31,0.04539
4262.53,0.04537
4256.74,0.04514
4250.95,0.04521
4245.17,0.04573
4239.38,0.04622
4233.6,0.04564
4227.81,0.04528
4222.02,0.04608
4216.24,0.04616
4210.45,0.04598
4204.66,0.04548
4198.88,0.04565
4193.09,0.04570
4187.31,0.04599
4181.52,0.04543
4175.73,0.04576
4169.95,0.04606
4164.16,0.04550
4158.37,0.04646
4152.59,0.04520
4146.8,0.04565
4141.02,0.04546
4135.23,0.04537
4129.44,0.04493
4123.66,0.04563
4117.87,0.04520
4112.09,0.04517
4106.3,0.04534
4100.51,0.04449
4094.73,0.04495
4088.94,0.04475
4083.15,0.04437
4077.37,0.04495
4071.58,0.04491
4065.8,0.04447
4060.01,0.04472
4054.22,0.04502
4048.44,0.04476
4042.65,0.04460
4036.86,0.04485
4031.08,0.04484
4025.29,0.04438
4019.51,0.04444
4013.72,0.04397
4007.93,0.04480
4002.15,0.04518
3996.36,0.04447
3990.57,0.04508
3984.79,0.04561
3979,0.04478
3973.22,0.04517
3967.43,0.04500
3961.64,0.04473
3955.86,0.04563
3950.07,0.04497
3944.28,0.04564
3938.5,0.04505
3932.71,0.04576
3926.93,0.04578
3921.14,0.04593
3915.35,0.04537
3909.57,0.04575
3903.78,0.04628
3897.99,0.04624
3892.21,0.04568
3886.42,0.04604
3880.64,0.04586
3874.85,0.04638
3869.06,0.04618
3863.28,0.04664
3857.49,0.04571
3851.7,0.04631
3845.92,0.04615
3840.13,0.04609
3834.35,0.04542
3828.56,0.04650
3822.77,0.04653
3816.99,0.04589
3811.2,0.04623
3805.41,0.04660
3799.63,0.04589
3793.84,0.04627
3788.06,0.04622
3782.27,0.04656
3776.48,0.04667
3770.7,0.04618
3764.91,0.04642
3759.12,0.04600
3753.34,0.04663
3747.55,0.04550
3741.77,0.04634
3735.98,0.04613
3730.19,0.04597
3724.41,0.04517
3718.62,0.04571
3712.83,0.04568
3707.05,0.04518
3701.26,0.04467
3695.48,0.04449
3689.69,0.04454
3683.9,0.04413
3678.12,0.04381
3672.33,0.04260
3666.54,0.04270
3660.76,0.04209
3654.97,0.04239
3649.19,0.04253
3643.4,0.04158
3637.61,0.04250
3631.83,0.04138
3626.04,0.04192
3620.25,0.04202
3614.47,0.04159
3608.68,0.04132
3602.9,0.04090
3597.11,0.04110
3591.32,0.04094
3585.54,0.04111
3579.75,0.04009
3573.97,0.04086
3568.18,0.04011
3562.39,0.04014
3556.61,0.04015
3550.82,0.04011
3545.03,0.03963
3539.25,0.03921
3533.46,0.03926
3527.68,0.03949
3521.89,0.03953
3516.1,0.03897
3510.32,0.03911
3504.53,0.03920
3498.74,0.03874
3492.96,0.03893
3487.17,0.03909
3481.39,0.03937
3475.6,0.04019
3469.81,0.04069
3464.03,0.03914
3458.24,0.03995
3452.45,0.03926
3446.67,0.04030
3440.88,0.04002
3435.1,0.04046
3429.31,0.04011
3423.52,0.04031
3417.74,0.03964
3411.95,0.04002
3406.16,0.03916
3400.38,0.03964
3394.59,0.03953
3388.81,0.03916
3383.02,0.03900
3377.23,0.03903
3371.45,0.03945
3365.66,0.03991
3359.87,0.03956
3354.09,0.04027
3348.3,0.03896
3342.52,0.04008
3336.73,0.03957
3330.94,0.03897
3325.16,0.03938
3319.37,0.03836
3313.58,0.03873
3307.8,0.04008
3302.01,0.03915
3296.23,0.03867
3290.44,0.03961
3284.65,0.03961
3278.87,0.03993
3273.08,0.04027
3267.29,0.03997
3261.51,0.03968
3255.72,0.04005
3249.94,0.03981
3244.15,0.04026
3238.36,0.04000
3232.58,0.03897
3226.79,0.03973
3221,0.04027
3215.22,0.03990
3209.43,0.03939
3203.65,0.03985
3197.86,0.04041
3192.07,0.04082
3186.29,0.04045
3180.5,0.03952
3174.71,0.03892
3168.93,0.03973
3163.14,0.03975
3157.36,0.04000
3151.57,0.04004
3145.78,0.03979
3140,0.03949
3134.21,0.03909
3128.42,0.03977
3122.64,0.04071
3116.85,0.03942
3111.07,0.03970
3105.28,0.03902
3099.49,0.03967
3093.71,0.03996
3087.92,0.04012
3082.14,0.03937
3076.35,0.03947
3070.56,0.03913
3064.78,0.03927
3058.99,0.03923
3053.2,0.03924
3047.42,0.03926
3041.63,0.03881
3035.85,0.03864
3030.06,0.03827
3024.27,0.03803
3018.49,0.03767
3012.7,0.03799
3006.91,0.03799
3001.13,0.03763
2995.34,0.03818
2989.56,0.03870
2983.77,0.03883
2977.98,0.03911
2972.2,0.03803
2966.41,0.03820
2960.62,0.03859
2954.84,0.03848
2949.05,0.03781
2943.27,0.03880
2937.48,0.03967
2931.69,0.04034
2925.91,0.04156
2920.12,0.04226
2914.33,0.04222
2908.55,0.04130
2902.76,0.04110
2896.98,0.04100
2891.19,0.04007
2885.4,0.04026
2879.62,0.04008
2873.83,0.03999
2868.04,0.03997
2862.26,0.03988
2856.47,0.04047
2850.69,0.04184
2844.9,0.04184
2839.11,0.04128
2833.33,0.04110
2827.54,0.04103
2821.75,0.04111
2815.97,0.04149
2810.18,0.04105
2804.4,0.04095
2798.61,0.04058
2792.82,0.04128
2787.04,0.04098
2781.25,0.04142
2775.46,0.04173
2769.68,0.04139
2763.89,0.04121
2758.11,0.04144
2752.32,0.04124
2746.53,0.04127
2740.75,0.04116
2734.96,0.04077
2729.17,0.04071
2723.39,0.04121
2717.6,0.04106
2711.82,0.04131
2706.03,0.04111
2700.24,0.04090
2694.46,0.04099
2688.67,0.04121
2682.88,0.04100
2677.1,0.04083
2671.31,0.04090
2665.53,0.04143
2659.74,0.04077
2653.95,0.04124
2648.17,0.04142
2642.38,0.04103
2636.59,0.04104
2630.81,0.04096
2625.02,0.04128
2619.24,0.04138
2613.45,0.04118
2607.66,0.04090
2601.88,0.04129
2596.09,0.04121
2590.3,0.04115
2584.52,0.04127
2578.73,0.04131
2572.95,0.04086
2567.16,0.04074
2561.37,0.04146
2555.59,0.04106
2549.8,0.04087
2544.02,0.04098
2538.23,0.04081
2532.44,0.04088
2526.66,0.04101
2520.87,0.04100
2515.08,0.04086
2509.3,0.04099
2503.51,0.04083
2497.73,0.04124
2491.94,0.04134
2486.15,0.04103
2480.37,0.04114
2474.58,0.04102
2468.79,0.04120
2463.01,0.04105
2457.22,0.04106
2451.44,0.04114
2445.65,0.04126
2439.86,0.04105
2434.08,0.04104
2428.29,0.04080
2422.5,0.04106
2416.72,0.04086
2410.93,0.04094
2405.15,0.04087
2399.36,0.04109
2393.57,0.04120
2387.79,0.04111
2382,0.04133
2376.21,0.04130
2370.43,0.04127
2364.64,0.04138
2358.86,0.04193
2353.07,0.04156
2347.28,0.04136
2341.5,0.04159
2335.71,0.04179
2329.92,0.04133
2324.14,0.04135
2318.35,0.04141
2312.57,0.04092
2306.78,0.04140
2300.99,0.04136
2295.21,0.04156
2289.42,0.04120
2283.63,0.04088
2277.85,0.04118
2272.06,0.04117
2266.28,0.04142
2260.49,0.04142
2254.7,0.04101
2248.92,0.04098
2243.13,0.04115
2237.34,0.04122
2231.56,0.04095
2225.77,0.04068
2219.99,0.04097
2214.2,0.04089
2208.41,0.04111
2202.63,0.04076
2196.84,0.04115
2191.05,0.04100
2185.27,0.04066
2179.48,0.04040
2173.7,0.04047
2167.91,0.04052
2162.12,0.04051
2156.34,0.03987
2150.55,0.03979
2144.76,0.04040
2138.98,0.04013
2133.19,0.03970
2127.41,0.03972
2121.62,0.03966
2115.83,0.03980
2110.05,0.03978
2104.26,0.03994
2098.47,0.03996
2092.69,0.03976
2086.9,0.03953
2081.12,0.03932
2075.33,0.03960
2069.54,0.03952
2063.76,0.03935
2057.97,0.04002
2052.19,0.03949
2046.4,0.03952
2040.61,0.03985
2034.83,0.03958
2029.04,0.03967
2023.25,0.03967
2017.47,0.03960
2011.68,0.03942
2005.9,0.03941
2000.11,0.03919
1994.32,0.03944
1988.54,0.03931
1982.75,0.03930
1976.96,0.03924
1971.18,0.03890
1965.39,0.03897
1959.61,0.03860
1953.82,0.03894
1948.03,0.03894
1942.25,0.03894
1936.46,0.03875
1930.67,0.03886
1924.89,0.03850
1919.1,0.03842
1913.32,0.03806
1907.53,0.03786
1901.74,0.03789
1895.96,0.03784
1890.17,0.03748
1884.38,0.03741
1878.6,0.03701
1872.81,0.03702
1867.03,0.03628
1861.24,0.03587
1855.45,0.03579
1849.67,0.03548
1843.88,0.03495
1838.09,0.03416
1832.31,0.03339
1826.52,0.03296
1820.74,0.03221
1814.95,0.03151
1809.16,0.03037
1803.38,0.02903
1797.59,0.02693
1791.8,0.02518
1786.02,0.02288
1780.23,0.02302
1774.45,0.02707
1768.66,0.03669
1762.87,0.05532
1757.09,0.07449
1751.3,0.07887
1745.51,0.07477
1739.73,0.06757
1733.94,0.06028
1728.16,0.05599
1722.37,0.05277
1716.58,0.05124
1710.8,0.04954
1705.01,0.04766
1699.22,0.04638
1693.44,0.04501
1687.65,0.04404
1681.87,0.04341
1676.08,0.04306
1670.29,0.04261
1664.51,0.04203
1658.72,0.04189
1652.93,0.04256
1647.15,0.04192
1641.36,0.04103
1635.58,0.04140
1629.79,0.04054
1624,0.04100
1618.22,0.04050
1612.43,0.04018
1606.64,0.03995
1600.86,0.03958
1595.07,0.03963
1589.29,0.03902
1583.5,0.03926
1577.71,0.03894
1571.93,0.03902
1566.14,0.03834
1560.35,0.03834
1554.57,0.03786
1548.78,0.03805
1543,0.03803
1537.21,0.03807
1531.42,0.03748
1525.64,0.03712
1519.85,0.03703
1514.07,0.03617
1508.28,0.03662
1502.49,0.03564
1496.71,0.03545
1490.92,0.03494
1485.13,0.03453
1479.35,0.03299
1473.56,0.03246
1467.78,0.03103
1461.99,0.03083
1456.2,0.03424
1450.42,0.03763
1444.63,0.03918
1438.84,0.03920
1433.06,0.03734
1427.27,0.03629
1421.49,0.03580
1415.7,0.03456
1409.91,0.03357
1404.13,0.03250
1398.34,0.03112
1392.55,0.02959
1386.77,0.03068
1380.98,0.03354
1375.2,0.03379
1369.41,0.03339
1363.62,0.03447
1357.84,0.03552
1352.05,0.03665
1346.26,0.03635
1340.48,0.03547
1334.69,0.03482
1328.91,0.03398
1323.12,0.03325
1317.33,0.03279
1311.55,0.03234
1305.76,0.03242
1299.97,0.03175
1294.19,0.03124
1288.4,0.02896
1282.62,0.02810
1276.83,0.02832
1271.04,0.03007
1265.26,0.03122
1259.47,0.03187
1253.68,0.03057
1247.9,0.02946
1242.11,0.02802
1236.33,0.02656
1230.54,0.02612
1224.75,0.02667
1218.97,0.02951
1213.18,0.03459
1207.39,0.03787
1201.61,0.03904
1195.82,0.04242
1190.04,0.05346
1184.25,0.06959
1178.46,0.07043
1172.68,0.05893
1166.89,0.04916
1161.1,0.04278
1155.32,0.03724
1149.53,0.03206
1143.75,0.02895
1137.96,0.03508
1132.17,0.04497
1126.39,0.04909
1120.6,0.04528
1114.81,0.04110
1109.03,0.04290
1103.24,0.05524
1097.46,0.07204
1091.67,0.08604
1085.88,0.09407
1080.1,0.09101
1074.31,0.08411
1068.52,0.07542
1062.74,0.06814
1056.95,0.06440
1051.17,0.06405
1045.38,0.06636
1039.59,0.06806
1033.81,0.06852
1028.02,0.06766
1022.24,0.06809
1016.45,0.07073
1010.66,0.07074
1004.88,0.06899
999.09,0.06655
993.304,0.06370
987.518,0.06229
981.731,0.06098
975.945,0.05903
970.159,0.05715
964.373,0.05583
958.586,0.05436
952.8,0.05429
947.014,0.05412
941.228,0.05399
935.441,0.05271
929.655,0.05248
923.869,0.05157
918.083,0.05086
912.297,0.05107
906.51,0.05051
900.724,0.04963
894.938,0.04949
889.152,0.04927
883.365,0.04841
877.579,0.04757
871.793,0.04798
866.007,0.04943
860.22,0.05110
854.434,0.05040
848.648,0.05017
842.862,0.05020
837.075,0.04968
831.289,0.04962
825.503,0.04887
819.717,0.04836
813.931,0.04739
808.144,0.04749
802.358,0.04697
796.572,0.04599
790.786,0.04614
784.999,0.04578
779.213,0.04493
773.427,0.04405
767.641,0.04362
761.854,0.04435
756.068,0.04510
750.282,0.04767
744.496,0.04734
738.709,0.04768
732.923,0.04725
727.137,0.04595
721.351,0.04473
715.565,0.04564
709.778,0.04539
703.992,0.04580
698.206,0.04655
692.42,0.04683
686.633,0.04593
680.847,0.04554
675.061,0.04729
669.275,0.04827
663.488,0.04746
657.702,0.04595
651.916,0.04552
646.13,0.04713
640.343,0.04512
634.557,0.04375
628.771,0.04484
622.985,0.04530
617.198,0.04449
611.412,0.04230
605.626,0.04496
599.84,0.04478