File: 01_Data/PLA_3D_Printer_Filament/FTIR/IS/PLA_3D_Printer_Filament_IS_S_221108_R4.dpt
7497.03,0.05201
7491.25,0.05589
7485.46,0.05099
7479.67,0.05493
7473.89,0.04566
7468.1,0.05742
7462.32,0.06108
7456.53,0.04422
7450.74,0.04753
7444.96,0.04555
7439.17,0.05505
7433.38,0.05267
7427.6,0.04768
7421.81,0.05043
7416.03,0.04685
7410.24,0.05326
7404.45,0.04522
7398.67,0.04919
7392.88,0.05676
7387.09,0.05272
7381.31,0.05371
7375.52,0.05143
7369.74,0.06017
7363.95,0.05521
7358.16,0.05213
7352.38,0.05555
7346.59,0.04399
7340.8,0.04835
7335.02,0.05555
7329.23,0.04711
7323.45,0.05083
7317.66,0.05347
7311.87,0.05622
7306.09,0.06390
7300.3,0.05105
7294.51,0.06023
7288.73,0.04818
7282.94,0.05275
7277.16,0.04628
7271.37,0.05088
7265.58,0.05065
7259.8,0.04671
7254.01,0.04674
7248.22,0.04681
7242.44,0.04972
7236.65,0.05716
7230.87,0.04301
7225.08,0.05021
7219.29,0.03683
7213.51,0.04746
7207.72,0.05260
7201.93,0.04843
7196.15,0.05276
7190.36,0.05819
7184.58,0.05552
7178.79,0.04565
7173,0.05532
7167.22,0.04855
7161.43,0.05057
7155.65,0.04863
7149.86,0.05960
7144.07,0.04898
7138.29,0.04846
7132.5,0.04942
7126.71,0.04658
7120.93,0.04968
7115.14,0.05031
7109.36,0.04976
7103.57,0.04772
7097.78,0.05263
7092,0.05500
7086.21,0.05180
7080.42,0.04584
7074.64,0.05196
7068.85,0.04757
7063.07,0.05023
7057.28,0.04704
7051.49,0.04577
7045.71,0.04476
7039.92,0.04254
7034.13,0.04591
7028.35,0.04694
7022.56,0.05085
7016.78,0.05312
7010.99,0.05094
7005.2,0.05272
6999.42,0.04894
6993.63,0.04982
6987.84,0.04971
6982.06,0.05570
6976.27,0.05178
6970.49,0.04441
6964.7,0.04949
6958.91,0.04749
6953.13,0.05319
6947.34,0.05462
6941.55,0.05224
6935.77,0.04854
6929.98,0.05350
6924.2,0.05589
6918.41,0.05631
6912.62,0.05285
6906.84,0.05169
6901.05,0.04642
6895.26,0.04706
6889.48,0.04751
6883.69,0.05561
6877.91,0.05127
6872.12,0.05037
6866.33,0.04956
6860.55,0.05325
6854.76,0.05206
6848.97,0.04841
6843.19,0.04652
6837.4,0.04812
6831.62,0.05115
6825.83,0.05249
6820.04,0.04986
6814.26,0.05075
6808.47,0.04567
6802.68,0.04982
6796.9,0.04845
6791.11,0.05119
6785.33,0.05218
6779.54,0.05107
6773.75,0.04959
6767.97,0.04816
6762.18,0.04942
6756.39,0.05309
6750.61,0.04635
6744.82,0.04435
6739.04,0.04558
6733.25,0.04940
6727.46,0.04838
6721.68,0.04999
6715.89,0.04657
6710.1,0.05015
6704.32,0.04847
6698.53,0.04390
6692.75,0.04890
6686.96,0.04920
6681.17,0.04747
6675.39,0.05111
6669.6,0.04933
6663.82,0.04800
6658.03,0.05077
6652.24,0.05093
6646.46,0.04839
6640.67,0.04884
6634.88,0.04977
6629.1,0.05261
6623.31,0.04748
6617.53,0.04511
6611.74,0.05040
6605.95,0.04826
6600.17,0.04941
6594.38,0.04851
6588.59,0.05158
6582.81,0.04726
6577.02,0.05056
6571.24,0.04798
6565.45,0.04385
6559.66,0.05471
6553.88,0.05329
6548.09,0.05169
6542.3,0.05056
6536.52,0.04850
6530.73,0.04504
6524.95,0.04707
6519.16,0.05177
6513.37,0.04878
6507.59,0.04891
6501.8,0.04320
6496.01,0.04949
6490.23,0.04956
6484.44,0.04907
6478.66,0.04735
6472.87,0.05053
6467.08,0.04876
6461.3,0.04945
6455.51,0.04820
6449.72,0.05055
6443.94,0.05018
6438.15,0.04916
6432.37,0.04885
6426.58,0.04728
6420.79,0.05178
6415.01,0.05008
6409.22,0.05306
6403.43,0.05144
6397.65,0.05048
6391.86,0.04782
6386.08,0.05167
6380.29,0.05021
6374.5,0.05007
6368.72,0.04900
6362.93,0.05114
6357.14,0.04867
6351.36,0.04918
6345.57,0.05062
6339.79,0.04884
6334,0.04963
6328.21,0.04823
6322.43,0.04173
6316.64,0.04843
6310.85,0.05195
6305.07,0.05046
6299.28,0.05245
6293.5,0.04955
6287.71,0.04675
6281.92,0.04471
6276.14,0.05223
6270.35,0.04814
6264.56,0.04515
6258.78,0.04692
6252.99,0.04697
6247.21,0.05049
6241.42,0.05195
6235.63,0.05054
6229.85,0.05028
6224.06,0.04926
6218.27,0.04925
6212.49,0.04823
6206.7,0.04832
6200.92,0.04776
6195.13,0.04946
6189.34,0.04888
6183.56,0.04654
6177.77,0.04829
6171.98,0.04565
6166.2,0.04847
6160.41,0.04514
6154.63,0.05210
6148.84,0.04870
6143.05,0.04575
6137.27,0.04906
6131.48,0.04993
6125.7,0.04873
6119.91,0.05074
6114.12,0.04952
6108.34,0.04734
6102.55,0.05109
6096.76,0.04825
6090.98,0.05026
6085.19,0.05044
6079.41,0.04974
6073.62,0.05036
6067.83,0.04972
6062.05,0.04752
6056.26,0.04728
6050.47,0.04521
6044.69,0.05271
6038.9,0.04873
6033.12,0.04699
6027.33,0.04754
6021.54,0.04862
6015.76,0.04917
6009.97,0.05012
6004.18,0.04760
5998.4,0.04826
5992.61,0.04738
5986.83,0.04773
5981.04,0.04754
5975.25,0.04720
5969.47,0.04875
5963.68,0.04653
5957.89,0.04511
5952.11,0.04846
5946.32,0.04823
5940.54,0.04815
5934.75,0.05010
5928.96,0.04801
5923.18,0.04814
5917.39,0.05034
5911.6,0.04808
5905.82,0.05103
5900.03,0.05019
5894.25,0.04868
5888.46,0.04789
5882.67,0.04738
5876.89,0.05109
5871.1,0.04879
5865.31,0.04822
5859.53,0.04815
5853.74,0.04876
5847.96,0.04758
5842.17,0.05083
5836.38,0.04796
5830.6,0.04724
5824.81,0.04701
5819.02,0.04931
5813.24,0.04996
5807.45,0.04845
5801.67,0.04882
5795.88,0.04963
5790.09,0.04811
5784.31,0.04499
5778.52,0.04744
5772.73,0.04766
5766.95,0.04773
5761.16,0.04871
5755.38,0.05005
5749.59,0.04674
5743.8,0.04928
5738.02,0.04729
5732.23,0.04687
5726.44,0.04961
5720.66,0.04868
5714.87,0.04847
5709.09,0.04898
5703.3,0.04849
5697.51,0.04921
5691.73,0.04817
5685.94,0.04947
5680.15,0.04701
5674.37,0.04898
5668.58,0.04897
5662.8,0.04899
5657.01,0.05072
5651.22,0.04893
5645.44,0.05003
5639.65,0.04848
5633.87,0.04726
5628.08,0.04773
5622.29,0.04886
5616.51,0.04792
5610.72,0.04847
5604.93,0.04832
5599.15,0.04651
5593.36,0.04755
5587.58,0.04792
5581.79,0.04827
5576,0.04890
5570.22,0.05032
5564.43,0.04847
5558.64,0.05169
5552.86,0.05063
5547.07,0.04839
5541.29,0.04891
5535.5,0.04870
5529.71,0.04809
5523.93,0.04756
5518.14,0.04799
5512.35,0.04871
5506.57,0.04856
5500.78,0.05036
5495,0.04962
5489.21,0.04852
5483.42,0.04983
5477.64,0.04775
5471.85,0.04746
5466.06,0.04949
5460.28,0.05102
5454.49,0.04925
5448.71,0.05084
5442.92,0.05037
5437.13,0.04815
5431.35,0.04831
5425.56,0.04849
5419.77,0.04968
5413.99,0.04903
5408.2,0.05088
5402.42,0.05066
5396.63,0.04907
5390.84,0.04928
5385.06,0.05012
5379.27,0.05005
5373.48,0.04961
5367.7,0.04980
5361.91,0.05050
5356.13,0.04871
5350.34,0.04766
5344.55,0.05142
5338.77,0.04898
5332.98,0.04926
5327.19,0.04739
5321.41,0.04930
5315.62,0.04970
5309.84,0.04927
5304.05,0.05136
5298.26,0.04887
5292.48,0.04925
5286.69,0.04947
5280.9,0.04938
5275.12,0.04837
5269.33,0.04791
5263.55,0.04894
5257.76,0.04847
5251.97,0.04845
5246.19,0.04854
5240.4,0.04798
5234.61,0.04876
5228.83,0.04885
5223.04,0.04753
5217.26,0.04804
5211.47,0.04860
5205.68,0.04874
5199.9,0.04717
5194.11,0.04714
5188.32,0.04746
5182.54,0.04875
5176.75,0.04748
5170.97,0.04623
5165.18,0.04731
5159.39,0.04851
5153.61,0.04784
5147.82,0.04755
5142.03,0.04831
5136.25,0.04857
5130.46,0.04730
5124.68,0.04876
5118.89,0.04755
5113.1,0.04730
5107.32,0.04805
5101.53,0.04799
5095.75,0.04787
5089.96,0.04811
5084.17,0.04973
5078.39,0.04830
5072.6,0.04778
5066.81,0.04904
5061.03,0.04960
5055.24,0.05032
5049.46,0.04833
5043.67,0.04769
5037.88,0.04832
5032.1,0.04862
5026.31,0.04850
5020.52,0.04883
5014.74,0.04866
5008.95,0.04733
5003.17,0.04677
4997.38,0.04950
4991.59,0.04752
4985.81,0.04833
4980.02,0.04942
4974.23,0.04782
4968.45,0.04833
4962.66,0.04870
4956.88,0.04833
4951.09,0.04952
4945.3,0.04895
4939.52,0.04883
4933.73,0.04881
4927.94,0.04895
4922.16,0.04846
4916.37,0.04833
4910.59,0.04779
4904.8,0.04807
4899.01,0.04708
4893.23,0.04730
4887.44,0.04852
4881.65,0.04756
4875.87,0.04739
4870.08,0.04758
4864.3,0.04695
4858.51,0.04762
4852.72,0.04820
4846.94,0.04718
4841.15,0.04712
4835.36,0.04799
4829.58,0.04680
4823.79,0.04743
4818.01,0.04645
4812.22,0.04600
4806.43,0.04677
4800.65,0.04681
4794.86,0.04659
4789.07,0.04778
4783.29,0.04726
4777.5,0.04726
4771.72,0.04710
4765.93,0.04682
4760.14,0.04675
4754.36,0.04660
4748.57,0.04762
4742.78,0.04726
4737,0.04566
4731.21,0.04667
4725.43,0.04690
4719.64,0.04685
4713.85,0.04676
4708.07,0.04645
4702.28,0.04740
4696.49,0.04654
4690.71,0.04691
4684.92,0.04720
4679.14,0.04713
4673.35,0.04702
4667.56,0.04774
4661.78,0.04717
4655.99,0.04800
4650.2,0.04740
4644.42,0.04734
4638.63,0.04755
4632.85,0.04812
4627.06,0.04760
4621.27,0.04782
4615.49,0.04768
4609.7,0.04708
4603.92,0.04722
4598.13,0.04726
4592.34,0.04723
4586.56,0.04834
4580.77,0.04697
4574.98,0.04771
4569.2,0.04721
4563.41,0.04835
4557.63,0.04777
4551.84,0.04710
4546.05,0.04781
4540.27,0.04758
4534.48,0.04763
4528.69,0.04759
4522.91,0.04777
4517.12,0.04697
4511.34,0.04799
4505.55,0.04719
4499.76,0.04695
4493.98,0.04742
4488.19,0.04767
4482.4,0.04713
4476.62,0.04660
4470.83,0.04637
4465.05,0.04649
4459.26,0.04700
4453.47,0.04658
4447.69,0.04561
4441.9,0.04563
4436.11,0.04513
4430.33,0.04498
4424.54,0.04593
4418.76,0.04490
4412.97,0.04582
4407.18,0.04545
4401.4,0.04559
4395.61,0.04624
4389.82,0.04567
4384.04,0.04562
4378.25,0.04494
4372.47,0.04503
4366.68,0.04485
4360.89,0.04438
4355.11,0.04523
4349.32,0.04522
4343.53,0.04489
4337.75,0.04565
4331.96,0.04572
4326.18,0.04580
4320.39,0.04548
4314.6,0.04552
4308.82,0.04532
4303.03,0.04480
4297.24,0.04533
4291.46,0.04547
4285.67,0.04493
4279.89,0.04503
4274.1,0.04542
4268.31,0.04456
4262.53,0.04548
4256.74,0.04523
4250.95,0.04507
4245.17,0.04503
4239.38,0.04600
4233.6,0.04558
4227.81,0.04496
4222.02,0.04541
4216.24,0.04546
4210.45,0.04561
4204.66,0.04523
4198.88,0.04574
4193.09,0.04609
4187.31,0.04509
4181.52,0.04568
4175.73,0.04577
4169.95,0.04590
4164.16,0.04518
4158.37,0.04565
4152.59,0.04585
4146.8,0.04430
4141.02,0.04557
4135.23,0.04557
4129.44,0.04549
4123.66,0.04513
4117.87,0.04495
4112.09,0.04486
4106.3,0.04525
4100.51,0.04469
4094.73,0.04476
4088.94,0.04420
4083.15,0.04448
4077.37,0.04466
4071.58,0.04465
4065.8,0.04504
4060.01,0.04395
4054.22,0.04448
4048.44,0.04430
4042.65,0.04438
4036.86,0.04375
4031.08,0.04488
4025.29,0.04470
4019.51,0.04453
4013.72,0.04460
4007.93,0.04509
4002.15,0.04432
3996.36,0.04425
3990.57,0.04411
3984.79,0.04439
3979,0.04500
3973.22,0.04583
3967.43,0.04479
3961.64,0.04495
3955.86,0.04479
3950.07,0.04532
3944.28,0.04506
3938.5,0.04602
3932.71,0.04589
3926.93,0.04587
3921.14,0.04602
3915.35,0.04526
3909.57,0.04529
3903.78,0.04631
3897.99,0.04509
3892.21,0.04514
3886.42,0.04573
3880.64,0.04572
3874.85,0.04564
3869.06,0.04585
3863.28,0.04604
3857.49,0.04633
3851.7,0.04574
3845.92,0.04676
3840.13,0.04641
3834.35,0.04552
3828.56,0.04558
3822.77,0.04590
3816.99,0.04618
3811.2,0.04631
3805.41,0.04624
3799.63,0.04567
3793.84,0.04574
3788.06,0.04605
3782.27,0.04586
3776.48,0.04592
3770.7,0.04643
3764.91,0.04591
3759.12,0.04571
3753.34,0.04615
3747.55,0.04592
3741.77,0.04569
3735.98,0.04565
3730.19,0.04588
3724.41,0.04524
3718.62,0.04513
3712.83,0.04538
3707.05,0.04559
3701.26,0.04501
3695.48,0.04489
3689.69,0.04404
3683.9,0.04418
3678.12,0.04416
3672.33,0.04352
3666.54,0.04298
3660.76,0.04231
3654.97,0.04155
3649.19,0.04208
3643.4,0.04211
3637.61,0.04151
3631.83,0.04117
3626.04,0.04044
3620.25,0.04139
3614.47,0.04105
3608.68,0.04163
3602.9,0.04120
3597.11,0.04099
3591.32,0.04067
3585.54,0.04055
3579.75,0.04019
3573.97,0.03992
3568.18,0.04021
3562.39,0.03985
3556.61,0.04022
3550.82,0.04019
3545.03,0.03983
3539.25,0.03976
3533.46,0.03999
3527.68,0.03908
3521.89,0.03861
3516.1,0.03893
3510.32,0.03857
3504.53,0.03841
3498.74,0.03878
3492.96,0.03878
3487.17,0.03906
3481.39,0.03882
3475.6,0.03867
3469.81,0.03914
3464.03,0.03963
3458.24,0.03868
3452.45,0.03919
3446.67,0.04000
3440.88,0.04017
3435.1,0.04033
3429.31,0.03951
3423.52,0.03932
3417.74,0.03955
3411.95,0.03979
3406.16,0.03893
3400.38,0.03940
3394.59,0.03935
3388.81,0.03928
3383.02,0.03990
3377.23,0.03931
3371.45,0.03966
3365.66,0.04015
3359.87,0.03888
3354.09,0.03948
3348.3,0.03918
3342.52,0.03913
3336.73,0.03967
3330.94,0.03959
3325.16,0.03894
3319.37,0.03921
3313.58,0.03925
3307.8,0.03859
3302.01,0.03857
3296.23,0.03896
3290.44,0.03848
3284.65,0.03879
3278.87,0.03923
3273.08,0.03945
3267.29,0.03938
3261.51,0.03912
3255.72,0.03941
3249.94,0.03891
3244.15,0.03978
3238.36,0.03963
3232.58,0.03902
3226.79,0.03911
3221,0.03948
3215.22,0.03924
3209.43,0.03921
3203.65,0.03942
3197.86,0.03969
3192.07,0.03981
3186.29,0.03956
3180.5,0.03945
3174.71,0.03952
3168.93,0.03925
3163.14,0.03956
3157.36,0.03976
3151.57,0.03984
3145.78,0.03934
3140,0.03986
3134.21,0.03977
3128.42,0.03973
3122.64,0.03901
3116.85,0.03920
3111.07,0.03955
3105.28,0.04023
3099.49,0.04002
3093.71,0.03972
3087.92,0.03955
3082.14,0.03935
3076.35,0.03949
3070.56,0.03879
3064.78,0.03909
3058.99,0.03911
3053.2,0.03918
3047.42,0.03880
3041.63,0.03863
3035.85,0.03899
3030.06,0.03857
3024.27,0.03768
3018.49,0.03760
3012.7,0.03730
3006.91,0.03740
3001.13,0.03723
2995.34,0.03849
2989.56,0.03869
2983.77,0.03872
2977.98,0.03823
2972.2,0.03804
2966.41,0.03795
2960.62,0.03776
2954.84,0.03793
2949.05,0.03811
2943.27,0.03880
2937.48,0.04024
2931.69,0.04011
2925.91,0.04078
2920.12,0.04213
2914.33,0.04184
2908.55,0.04060
2902.76,0.04070
2896.98,0.03985
2891.19,0.03955
2885.4,0.03958
2879.62,0.03965
2873.83,0.03975
2868.04,0.03988
2862.26,0.03955
2856.47,0.04029
2850.69,0.04183
2844.9,0.04151
2839.11,0.04092
2833.33,0.04075
2827.54,0.04081
2821.75,0.04054
2815.97,0.04087
2810.18,0.04071
2804.4,0.04094
2798.61,0.04052
2792.82,0.04084
2787.04,0.04111
2781.25,0.04082
2775.46,0.04101
2769.68,0.04124
2763.89,0.04151
2758.11,0.04149
2752.32,0.04108
2746.53,0.04116
2740.75,0.04041
2734.96,0.04085
2729.17,0.04108
2723.39,0.04096
2717.6,0.04128
2711.82,0.04073
2706.03,0.04055
2700.24,0.04079
2694.46,0.04081
2688.67,0.04090
2682.88,0.04070
2677.1,0.04081
2671.31,0.04068
2665.53,0.04035
2659.74,0.04075
2653.95,0.04028
2648.17,0.04034
2642.38,0.04075
2636.59,0.04070
2630.81,0.04062
2625.02,0.04088
2619.24,0.04090
2613.45,0.04075
2607.66,0.04121
2601.88,0.04100
2596.09,0.04107
2590.3,0.04101
2584.52,0.04107
2578.73,0.04068
2572.95,0.04067
2567.16,0.04089
2561.37,0.04102
2555.59,0.04047
2549.8,0.04079
2544.02,0.04041
2538.23,0.04059
2532.44,0.04079
2526.66,0.04078
2520.87,0.04045
2515.08,0.04033
2509.3,0.04056
2503.51,0.04062
2497.73,0.04071
2491.94,0.04060
2486.15,0.04061
2480.37,0.04101
2474.58,0.04098
2468.79,0.04094
2463.01,0.04093
2457.22,0.04056
2451.44,0.04150
2445.65,0.04071
2439.86,0.04072
2434.08,0.04078
2428.29,0.04086
2422.5,0.04073
2416.72,0.04058
2410.93,0.04028
2405.15,0.04046
2399.36,0.04057
2393.57,0.04078
2387.79,0.04075
2382,0.04051
2376.21,0.04107
2370.43,0.04100
2364.64,0.04107
2358.86,0.04124
2353.07,0.04139
2347.28,0.04106
2341.5,0.04112
2335.71,0.04133
2329.92,0.04096
2324.14,0.04115
2318.35,0.04073
2312.57,0.04089
2306.78,0.04124
2300.99,0.04102
2295.21,0.04074
2289.42,0.04083
2283.63,0.04091
2277.85,0.04052
2272.06,0.04073
2266.28,0.04070
2260.49,0.04069
2254.7,0.04054
2248.92,0.04074
2243.13,0.04079
2237.34,0.04085
2231.56,0.04087
2225.77,0.04094
2219.99,0.04090
2214.2,0.04048
2208.41,0.04076
2202.63,0.04087
2196.84,0.04081
2191.05,0.04048
2185.27,0.04033
2179.48,0.04040
2173.7,0.04009
2167.91,0.04009
2162.12,0.03995
2156.34,0.04011
2150.55,0.03975
2144.76,0.03976
2138.98,0.03964
2133.19,0.03968
2127.41,0.03935
2121.62,0.03921
2115.83,0.03932
2110.05,0.03920
2104.26,0.03905
2098.47,0.03935
2092.69,0.03941
2086.9,0.03892
2081.12,0.03896
2075.33,0.03927
2069.54,0.03918
2063.76,0.03913
2057.97,0.03892
2052.19,0.03914
2046.4,0.03936
2040.61,0.03932
2034.83,0.03960
2029.04,0.03939
2023.25,0.03938
2017.47,0.03932
2011.68,0.03927
2005.9,0.03921
2000.11,0.03936
1994.32,0.03917
1988.54,0.03876
1982.75,0.03858
1976.96,0.03848
1971.18,0.03882
1965.39,0.03819
1959.61,0.03852
1953.82,0.03848
1948.03,0.03893
1942.25,0.03842
1936.46,0.03809
1930.67,0.03830
1924.89,0.03845
1919.1,0.03795
1913.32,0.03774
1907.53,0.03767
1901.74,0.03757
1895.96,0.03737
1890.17,0.03705
1884.38,0.03678
1878.6,0.03682
1872.81,0.03654
1867.03,0.03600
1861.24,0.03551
1855.45,0.03522
1849.67,0.03504
1843.88,0.03470
1838.09,0.03401
1832.31,0.03341
1826.52,0.03272
1820.74,0.03188
1814.95,0.03127
1809.16,0.03005
1803.38,0.02891
1797.59,0.02663
1791.8,0.02482
1786.02,0.02269
1780.23,0.02289
1774.45,0.02652
1768.66,0.03585
1762.87,0.05499
1757.09,0.07396
1751.3,0.07844
1745.51,0.07409
1739.73,0.06686
1733.94,0.06043
1728.16,0.05549
1722.37,0.05264
1716.58,0.05088
1710.8,0.04916
1705.01,0.04741
1699.22,0.04586
1693.44,0.04454
1687.65,0.04366
1681.87,0.04316
1676.08,0.04250
1670.29,0.04217
1664.51,0.04128
1658.72,0.04149
1652.93,0.04206
1647.15,0.04178
1641.36,0.04115
1635.58,0.04073
1629.79,0.04030
1624,0.04036
1618.22,0.04047
1612.43,0.03985
1606.64,0.03952
1600.86,0.03926
1595.07,0.03901
1589.29,0.03929
1583.5,0.03887
1577.71,0.03896
1571.93,0.03818
1566.14,0.03777
1560.35,0.03832
1554.57,0.03753
1548.78,0.03826
1543,0.03830
1537.21,0.03728
1531.42,0.03650
1525.64,0.03690
1519.85,0.03650
1514.07,0.03625
1508.28,0.03632
1502.49,0.03535
1496.71,0.03522
1490.92,0.03493
1485.13,0.03415
1479.35,0.03301
1473.56,0.03215
1467.78,0.03051
1461.99,0.03067
1456.2,0.03424
1450.42,0.03733
1444.63,0.03918
1438.84,0.03879
1433.06,0.03681
1427.27,0.03589
1421.49,0.03505
1415.7,0.03424
1409.91,0.03322
1404.13,0.03248
1398.34,0.03095
1392.55,0.02963
1386.77,0.03031
1380.98,0.03297
1375.2,0.03351
1369.41,0.03319
1363.62,0.03406
1357.84,0.03511
1352.05,0.03600
1346.26,0.03584
1340.48,0.03480
1334.69,0.03476
1328.91,0.03388
1323.12,0.03294
1317.33,0.03240
1311.55,0.03226
1305.76,0.03200
1299.97,0.03148
1294.19,0.03073
1288.4,0.02944
1282.62,0.02812
1276.83,0.02785
1271.04,0.02933
1265.26,0.03099
1259.47,0.03127
1253.68,0.03005
1247.9,0.02933
1242.11,0.02789
1236.33,0.02674
1230.54,0.02601
1224.75,0.02624
1218.97,0.02945
1213.18,0.03411
1207.39,0.03686
1201.61,0.03873
1195.82,0.04204
1190.04,0.05256
1184.25,0.06843
1178.46,0.07013
1172.68,0.05851
1166.89,0.04880
1161.1,0.04269
1155.32,0.03747
1149.53,0.03181
1143.75,0.02841
1137.96,0.03454
1132.17,0.04425
1126.39,0.04857
1120.6,0.04460
1114.81,0.04033
1109.03,0.04206
1103.24,0.05501
1097.46,0.07161
1091.67,0.08541
1085.88,0.09317
1080.1,0.09083
1074.31,0.08329
1068.52,0.07531
1062.74,0.06794
1056.95,0.06369
1051.17,0.06297
1045.38,0.06467
1039.59,0.06712
1033.81,0.06714
1028.02,0.06711
1022.24,0.06746
1016.45,0.06999
1010.66,0.07070
1004.88,0.06804
999.09,0.06524
993.304,0.06398
987.518,0.06185
981.731,0.06030
975.945,0.05819
970.159,0.05665
964.373,0.05428
958.586,0.05348
952.8,0.05393
947.014,0.05370
941.228,0.05314
935.441,0.05264
929.655,0.05202
923.869,0.05192
918.083,0.05055
912.297,0.04971
906.51,0.04940
900.724,0.04919
894.938,0.04867
889.152,0.04874
883.365,0.04730
877.579,0.04683
871.793,0.04753
866.007,0.04927
860.22,0.05052
854.434,0.05027
848.648,0.04996
842.862,0.04968
837.075,0.04909
831.289,0.04876
825.503,0.04878
819.717,0.04749
813.931,0.04744
808.144,0.04731
802.358,0.04626
796.572,0.04575
790.786,0.04570
784.999,0.04488
779.213,0.04431
773.427,0.04454
767.641,0.04434
761.854,0.04432
756.068,0.04462
750.282,0.04564
744.496,0.04626
738.709,0.04642
732.923,0.04719
727.137,0.04611
721.351,0.04504
715.565,0.04447
709.778,0.04591
703.992,0.04544
698.206,0.04607
692.42,0.04675
686.633,0.04596
680.847,0.04577
675.061,0.04871
669.275,0.04923
663.488,0.04747
657.702,0.04538
651.916,0.04607
646.13,0.04494
640.343,0.04439
634.557,0.04480
628.771,0.04562
622.985,0.04335
617.198,0.04484
611.412,0.04458
605.626,0.04419
599.84,0.04237