File: 01_Data/PLA_3D_Printer_Filament/FTIR/IS/PLA_3D_Printer_Filament_IS_S_221108_R7.dpt
7497.03,0.04998
7491.25,0.04772
7485.46,0.06653
7479.67,0.04637
7473.89,0.05160
7468.1,0.05021
7462.32,0.05989
7456.53,0.05897
7450.74,0.05934
7444.96,0.05437
7439.17,0.06173
7433.38,0.05592
7427.6,0.05054
7421.81,0.05569
7416.03,0.04701
7410.24,0.05289
7404.45,0.04785
7398.67,0.05492
7392.88,0.04345
7387.09,0.05725
7381.31,0.04968
7375.52,0.05020
7369.74,0.04644
7363.95,0.05843
7358.16,0.05370
7352.38,0.04354
7346.59,0.05630
7340.8,0.04812
7335.02,0.05189
7329.23,0.05322
7323.45,0.04593
7317.66,0.04958
7311.87,0.05233
7306.09,0.05194
7300.3,0.04980
7294.51,0.05338
7288.73,0.04967
7282.94,0.04556
7277.16,0.05168
7271.37,0.05975
7265.58,0.05703
7259.8,0.05425
7254.01,0.05490
7248.22,0.03908
7242.44,0.05518
7236.65,0.04368
7230.87,0.04774
7225.08,0.05420
7219.29,0.05240
7213.51,0.05351
7207.72,0.04525
7201.93,0.05077
7196.15,0.05240
7190.36,0.05616
7184.58,0.04815
7178.79,0.05000
7173,0.05391
7167.22,0.05104
7161.43,0.04981
7155.65,0.05095
7149.86,0.04754
7144.07,0.05304
7138.29,0.05188
7132.5,0.05203
7126.71,0.05858
7120.93,0.04765
7115.14,0.04923
7109.36,0.05409
7103.57,0.05279
7097.78,0.04918
7092,0.05224
7086.21,0.04414
7080.42,0.05297
7074.64,0.05231
7068.85,0.05454
7063.07,0.04656
7057.28,0.05423
7051.49,0.05596
7045.71,0.04702
7039.92,0.04954
7034.13,0.04585
7028.35,0.04964
7022.56,0.05589
7016.78,0.04902
7010.99,0.05540
7005.2,0.04838
6999.42,0.04634
6993.63,0.05304
6987.84,0.05003
6982.06,0.05065
6976.27,0.04820
6970.49,0.04745
6964.7,0.04959
6958.91,0.04908
6953.13,0.04150
6947.34,0.04793
6941.55,0.04753
6935.77,0.04852
6929.98,0.05232
6924.2,0.05008
6918.41,0.04937
6912.62,0.04581
6906.84,0.04204
6901.05,0.05117
6895.26,0.04695
6889.48,0.04673
6883.69,0.04597
6877.91,0.05022
6872.12,0.05040
6866.33,0.05181
6860.55,0.03942
6854.76,0.04735
6848.97,0.05324
6843.19,0.04750
6837.4,0.04183
6831.62,0.04780
6825.83,0.05275
6820.04,0.05135
6814.26,0.04862
6808.47,0.04873
6802.68,0.05005
6796.9,0.04850
6791.11,0.05400
6785.33,0.04879
6779.54,0.05082
6773.75,0.04996
6767.97,0.05405
6762.18,0.05399
6756.39,0.05091
6750.61,0.05074
6744.82,0.04840
6739.04,0.04876
6733.25,0.05204
6727.46,0.04784
6721.68,0.04547
6715.89,0.04940
6710.1,0.04845
6704.32,0.04770
6698.53,0.04947
6692.75,0.04941
6686.96,0.04947
6681.17,0.04972
6675.39,0.04539
6669.6,0.04888
6663.82,0.04468
6658.03,0.04758
6652.24,0.04995
6646.46,0.04532
6640.67,0.05254
6634.88,0.04390
6629.1,0.05108
6623.31,0.04932
6617.53,0.04617
6611.74,0.05037
6605.95,0.04441
6600.17,0.04918
6594.38,0.05202
6588.59,0.05076
6582.81,0.04779
6577.02,0.04741
6571.24,0.04724
6565.45,0.04582
6559.66,0.04635
6553.88,0.04992
6548.09,0.04859
6542.3,0.04907
6536.52,0.04491
6530.73,0.04752
6524.95,0.04917
6519.16,0.04637
6513.37,0.04728
6507.59,0.05339
6501.8,0.04796
6496.01,0.05335
6490.23,0.05051
6484.44,0.05147
6478.66,0.04673
6472.87,0.04793
6467.08,0.04871
6461.3,0.04858
6455.51,0.04608
6449.72,0.04894
6443.94,0.05064
6438.15,0.04677
6432.37,0.04868
6426.58,0.04857
6420.79,0.04747
6415.01,0.04577
6409.22,0.05076
6403.43,0.05071
6397.65,0.05277
6391.86,0.04655
6386.08,0.04849
6380.29,0.05594
6374.5,0.04870
6368.72,0.04917
6362.93,0.04864
6357.14,0.04428
6351.36,0.04732
6345.57,0.04721
6339.79,0.04850
6334,0.04969
6328.21,0.04822
6322.43,0.04643
6316.64,0.05008
6310.85,0.04970
6305.07,0.04905
6299.28,0.04706
6293.5,0.05054
6287.71,0.04566
6281.92,0.04617
6276.14,0.04914
6270.35,0.04779
6264.56,0.04420
6258.78,0.04937
6252.99,0.04940
6247.21,0.04837
6241.42,0.04991
6235.63,0.04441
6229.85,0.04893
6224.06,0.04730
6218.27,0.05048
6212.49,0.04828
6206.7,0.04839
6200.92,0.04947
6195.13,0.05130
6189.34,0.05007
6183.56,0.04935
6177.77,0.04534
6171.98,0.04968
6166.2,0.04675
6160.41,0.04705
6154.63,0.04987
6148.84,0.04629
6143.05,0.05036
6137.27,0.05088
6131.48,0.04978
6125.7,0.04821
6119.91,0.05154
6114.12,0.05296
6108.34,0.04964
6102.55,0.04653
6096.76,0.04848
6090.98,0.04981
6085.19,0.04861
6079.41,0.04921
6073.62,0.04584
6067.83,0.04885
6062.05,0.05088
6056.26,0.04696
6050.47,0.04785
6044.69,0.04505
6038.9,0.04684
6033.12,0.05302
6027.33,0.04686
6021.54,0.04959
6015.76,0.04883
6009.97,0.04796
6004.18,0.04639
5998.4,0.05147
5992.61,0.05219
5986.83,0.04940
5981.04,0.04578
5975.25,0.04725
5969.47,0.04784
5963.68,0.04758
5957.89,0.04916
5952.11,0.05001
5946.32,0.04949
5940.54,0.04709
5934.75,0.04924
5928.96,0.04816
5923.18,0.05006
5917.39,0.05069
5911.6,0.05318
5905.82,0.05084
5900.03,0.05017
5894.25,0.04885
5888.46,0.04708
5882.67,0.04932
5876.89,0.04937
5871.1,0.04839
5865.31,0.04824
5859.53,0.04952
5853.74,0.05007
5847.96,0.04866
5842.17,0.04940
5836.38,0.04920
5830.6,0.04836
5824.81,0.04665
5819.02,0.04802
5813.24,0.04831
5807.45,0.04803
5801.67,0.04739
5795.88,0.04675
5790.09,0.05029
5784.31,0.04786
5778.52,0.05061
5772.73,0.04937
5766.95,0.04774
5761.16,0.04821
5755.38,0.04942
5749.59,0.04746
5743.8,0.04849
5738.02,0.05030
5732.23,0.04972
5726.44,0.04742
5720.66,0.04909
5714.87,0.04911
5709.09,0.04995
5703.3,0.04790
5697.51,0.04818
5691.73,0.05029
5685.94,0.04792
5680.15,0.04980
5674.37,0.05037
5668.58,0.05035
5662.8,0.04875
5657.01,0.04899
5651.22,0.05061
5645.44,0.05014
5639.65,0.04817
5633.87,0.05050
5628.08,0.04903
5622.29,0.04858
5616.51,0.04903
5610.72,0.05010
5604.93,0.04867
5599.15,0.04815
5593.36,0.05007
5587.58,0.04828
5581.79,0.04869
5576,0.04798
5570.22,0.05025
5564.43,0.05064
5558.64,0.04864
5552.86,0.05039
5547.07,0.04921
5541.29,0.04764
5535.5,0.04866
5529.71,0.04888
5523.93,0.04917
5518.14,0.04948
5512.35,0.05108
5506.57,0.04983
5500.78,0.04995
5495,0.04846
5489.21,0.04995
5483.42,0.04924
5477.64,0.04843
5471.85,0.04840
5466.06,0.05119
5460.28,0.04914
5454.49,0.04983
5448.71,0.05052
5442.92,0.04939
5437.13,0.05020
5431.35,0.04836
5425.56,0.04951
5419.77,0.05048
5413.99,0.04983
5408.2,0.05024
5402.42,0.04988
5396.63,0.05091
5390.84,0.05031
5385.06,0.04909
5379.27,0.05002
5373.48,0.05146
5367.7,0.05069
5361.91,0.04909
5356.13,0.05003
5350.34,0.05009
5344.55,0.04961
5338.77,0.05133
5332.98,0.05033
5327.19,0.04800
5321.41,0.04953
5315.62,0.04848
5309.84,0.04995
5304.05,0.04900
5298.26,0.04797
5292.48,0.04928
5286.69,0.04986
5280.9,0.04908
5275.12,0.04931
5269.33,0.04838
5263.55,0.04909
5257.76,0.04949
5251.97,0.04976
5246.19,0.04828
5240.4,0.04751
5234.61,0.04895
5228.83,0.04863
5223.04,0.04873
5217.26,0.04960
5211.47,0.05007
5205.68,0.04935
5199.9,0.05011
5194.11,0.04953
5188.32,0.04756
5182.54,0.04692
5176.75,0.04834
5170.97,0.04794
5165.18,0.04845
5159.39,0.04971
5153.61,0.04915
5147.82,0.04947
5142.03,0.04778
5136.25,0.04811
5130.46,0.04946
5124.68,0.04796
5118.89,0.04887
5113.1,0.04898
5107.32,0.04958
5101.53,0.05057
5095.75,0.04780
5089.96,0.04827
5084.17,0.04949
5078.39,0.04845
5072.6,0.04841
5066.81,0.04919
5061.03,0.04886
5055.24,0.04878
5049.46,0.04866
5043.67,0.04941
5037.88,0.04940
5032.1,0.04928
5026.31,0.04990
5020.52,0.04961
5014.74,0.04941
5008.95,0.04867
5003.17,0.04989
4997.38,0.04860
4991.59,0.04951
4985.81,0.04986
4980.02,0.04893
4974.23,0.05005
4968.45,0.04907
4962.66,0.04986
4956.88,0.04947
4951.09,0.04890
4945.3,0.04940
4939.52,0.04925
4933.73,0.04868
4927.94,0.04966
4922.16,0.04923
4916.37,0.04992
4910.59,0.04942
4904.8,0.04927
4899.01,0.04955
4893.23,0.04761
4887.44,0.04842
4881.65,0.04827
4875.87,0.04889
4870.08,0.04822
4864.3,0.04830
4858.51,0.04875
4852.72,0.04712
4846.94,0.04830
4841.15,0.04915
4835.36,0.04860
4829.58,0.04883
4823.79,0.04858
4818.01,0.04911
4812.22,0.04752
4806.43,0.04768
4800.65,0.04732
4794.86,0.04673
4789.07,0.04723
4783.29,0.04681
4777.5,0.04744
4771.72,0.04661
4765.93,0.04695
4760.14,0.04749
4754.36,0.04757
4748.57,0.04811
4742.78,0.04776
4737,0.04741
4731.21,0.04738
4725.43,0.04754
4719.64,0.04686
4713.85,0.04780
4708.07,0.04783
4702.28,0.04689
4696.49,0.04749
4690.71,0.04727
4684.92,0.04713
4679.14,0.04723
4673.35,0.04769
4667.56,0.04760
4661.78,0.04932
4655.99,0.04799
4650.2,0.04852
4644.42,0.04791
4638.63,0.04794
4632.85,0.04827
4627.06,0.04865
4621.27,0.04929
4615.49,0.04852
4609.7,0.04800
4603.92,0.04835
4598.13,0.04788
4592.34,0.04853
4586.56,0.04789
4580.77,0.04846
4574.98,0.04850
4569.2,0.04782
4563.41,0.04857
4557.63,0.04821
4551.84,0.04851
4546.05,0.04860
4540.27,0.04892
4534.48,0.04755
4528.69,0.04794
4522.91,0.04871
4517.12,0.04822
4511.34,0.04882
4505.55,0.04995
4499.76,0.04751
4493.98,0.04816
4488.19,0.04847
4482.4,0.04811
4476.62,0.04862
4470.83,0.04859
4465.05,0.04861
4459.26,0.04771
4453.47,0.04733
4447.69,0.04605
4441.9,0.04579
4436.11,0.04719
4430.33,0.04681
4424.54,0.04708
4418.76,0.04754
4412.97,0.04705
4407.18,0.04646
4401.4,0.04706
4395.61,0.04662
4389.82,0.04652
4384.04,0.04577
4378.25,0.04584
4372.47,0.04620
4366.68,0.04642
4360.89,0.04550
4355.11,0.04530
4349.32,0.04542
4343.53,0.04608
4337.75,0.04586
4331.96,0.04598
4326.18,0.04707
4320.39,0.04550
4314.6,0.04580
4308.82,0.04621
4303.03,0.04600
4297.24,0.04558
4291.46,0.04556
4285.67,0.04613
4279.89,0.04583
4274.1,0.04642
4268.31,0.04562
4262.53,0.04661
4256.74,0.04677
4250.95,0.04610
4245.17,0.04597
4239.38,0.04550
4233.6,0.04595
4227.81,0.04599
4222.02,0.04649
4216.24,0.04678
4210.45,0.04587
4204.66,0.04606
4198.88,0.04598
4193.09,0.04646
4187.31,0.04619
4181.52,0.04628
4175.73,0.04669
4169.95,0.04632
4164.16,0.04642
4158.37,0.04596
4152.59,0.04589
4146.8,0.04568
4141.02,0.04569
4135.23,0.04532
4129.44,0.04598
4123.66,0.04573
4117.87,0.04565
4112.09,0.04648
4106.3,0.04577
4100.51,0.04541
4094.73,0.04617
4088.94,0.04616
4083.15,0.04548
4077.37,0.04475
4071.58,0.04484
4065.8,0.04543
4060.01,0.04477
4054.22,0.04504
4048.44,0.04501
4042.65,0.04465
4036.86,0.04480
4031.08,0.04576
4025.29,0.04562
4019.51,0.04463
4013.72,0.04534
4007.93,0.04532
4002.15,0.04501
3996.36,0.04606
3990.57,0.04568
3984.79,0.04533
3979,0.04523
3973.22,0.04616
3967.43,0.04627
3961.64,0.04588
3955.86,0.04538
3950.07,0.04590
3944.28,0.04572
3938.5,0.04575
3932.71,0.04636
3926.93,0.04618
3921.14,0.04611
3915.35,0.04621
3909.57,0.04591
3903.78,0.04568
3897.99,0.04616
3892.21,0.04600
3886.42,0.04630
3880.64,0.04625
3874.85,0.04685
3869.06,0.04737
3863.28,0.04637
3857.49,0.04658
3851.7,0.04623
3845.92,0.04688
3840.13,0.04738
3834.35,0.04704
3828.56,0.04682
3822.77,0.04699
3816.99,0.04693
3811.2,0.04643
3805.41,0.04732
3799.63,0.04629
3793.84,0.04707
3788.06,0.04688
3782.27,0.04702
3776.48,0.04709
3770.7,0.04674
3764.91,0.04696
3759.12,0.04646
3753.34,0.04682
3747.55,0.04677
3741.77,0.04694
3735.98,0.04696
3730.19,0.04640
3724.41,0.04607
3718.62,0.04606
3712.83,0.04604
3707.05,0.04520
3701.26,0.04531
3695.48,0.04553
3689.69,0.04457
3683.9,0.04496
3678.12,0.04460
3672.33,0.04423
3666.54,0.04316
3660.76,0.04302
3654.97,0.04345
3649.19,0.04286
3643.4,0.04241
3637.61,0.04270
3631.83,0.04249
3626.04,0.04209
3620.25,0.04223
3614.47,0.04168
3608.68,0.04182
3602.9,0.04199
3597.11,0.04165
3591.32,0.04170
3585.54,0.04100
3579.75,0.04104
3573.97,0.04110
3568.18,0.04124
3562.39,0.04066
3556.61,0.04098
3550.82,0.04040
3545.03,0.03972
3539.25,0.04055
3533.46,0.04004
3527.68,0.03953
3521.89,0.03941
3516.1,0.03945
3510.32,0.03993
3504.53,0.03930
3498.74,0.03881
3492.96,0.03855
3487.17,0.03898
3481.39,0.03953
3475.6,0.03976
3469.81,0.03964
3464.03,0.03993
3458.24,0.03989
3452.45,0.04013
3446.67,0.04063
3440.88,0.04014
3435.1,0.04028
3429.31,0.03961
3423.52,0.04039
3417.74,0.03961
3411.95,0.03966
3406.16,0.04011
3400.38,0.04021
3394.59,0.03924
3388.81,0.04023
3383.02,0.03990
3377.23,0.03988
3371.45,0.03990
3365.66,0.04022
3359.87,0.03949
3354.09,0.03998
3348.3,0.04037
3342.52,0.03965
3336.73,0.03937
3330.94,0.03960
3325.16,0.04031
3319.37,0.04032
3313.58,0.03922
3307.8,0.03930
3302.01,0.03921
3296.23,0.03991
3290.44,0.03989
3284.65,0.03958
3278.87,0.03973
3273.08,0.03928
3267.29,0.03998
3261.51,0.03974
3255.72,0.03948
3249.94,0.04038
3244.15,0.04030
3238.36,0.04035
3232.58,0.04008
3226.79,0.03974
3221,0.04062
3215.22,0.03952
3209.43,0.04000
3203.65,0.04053
3197.86,0.03970
3192.07,0.04033
3186.29,0.04095
3180.5,0.04070
3174.71,0.04023
3168.93,0.04016
3163.14,0.04008
3157.36,0.03963
3151.57,0.04023
3145.78,0.04005
3140,0.04039
3134.21,0.04008
3128.42,0.04056
3122.64,0.04008
3116.85,0.03987
3111.07,0.04041
3105.28,0.03963
3099.49,0.04029
3093.71,0.03993
3087.92,0.03963
3082.14,0.03957
3076.35,0.04018
3070.56,0.03978
3064.78,0.03958
3058.99,0.04051
3053.2,0.03979
3047.42,0.03937
3041.63,0.03935
3035.85,0.03909
3030.06,0.03900
3024.27,0.03845
3018.49,0.03819
3012.7,0.03815
3006.91,0.03770
3001.13,0.03756
2995.34,0.03826
2989.56,0.03912
2983.77,0.03856
2977.98,0.03907
2972.2,0.03839
2966.41,0.03877
2960.62,0.03842
2954.84,0.03894
2949.05,0.03881
2943.27,0.03919
2937.48,0.04071
2931.69,0.04093
2925.91,0.04184
2920.12,0.04246
2914.33,0.04208
2908.55,0.04156
2902.76,0.04118
2896.98,0.04084
2891.19,0.04091
2885.4,0.04017
2879.62,0.04017
2873.83,0.03986
2868.04,0.03993
2862.26,0.04059
2856.47,0.04090
2850.69,0.04194
2844.9,0.04198
2839.11,0.04161
2833.33,0.04121
2827.54,0.04130
2821.75,0.04124
2815.97,0.04146
2810.18,0.04142
2804.4,0.04167
2798.61,0.04184
2792.82,0.04177
2787.04,0.04196
2781.25,0.04196
2775.46,0.04178
2769.68,0.04187
2763.89,0.04204
2758.11,0.04176
2752.32,0.04187
2746.53,0.04141
2740.75,0.04140
2734.96,0.04161
2729.17,0.04186
2723.39,0.04182
2717.6,0.04168
2711.82,0.04149
2706.03,0.04207
2700.24,0.04143
2694.46,0.04093
2688.67,0.04130
2682.88,0.04170
2677.1,0.04151
2671.31,0.04164
2665.53,0.04116
2659.74,0.04157
2653.95,0.04132
2648.17,0.04154
2642.38,0.04129
2636.59,0.04168
2630.81,0.04154
2625.02,0.04140
2619.24,0.04144
2613.45,0.04175
2607.66,0.04158
2601.88,0.04173
2596.09,0.04174
2590.3,0.04142
2584.52,0.04157
2578.73,0.04147
2572.95,0.04175
2567.16,0.04176
2561.37,0.04176
2555.59,0.04121
2549.8,0.04152
2544.02,0.04150
2538.23,0.04153
2532.44,0.04118
2526.66,0.04139
2520.87,0.04133
2515.08,0.04149
2509.3,0.04130
2503.51,0.04158
2497.73,0.04120
2491.94,0.04152
2486.15,0.04157
2480.37,0.04183
2474.58,0.04157
2468.79,0.04180
2463.01,0.04199
2457.22,0.04188
2451.44,0.04158
2445.65,0.04168
2439.86,0.04195
2434.08,0.04149
2428.29,0.04151
2422.5,0.04155
2416.72,0.04132
2410.93,0.04154
2405.15,0.04168
2399.36,0.04112
2393.57,0.04151
2387.79,0.04157
2382,0.04141
2376.21,0.04173
2370.43,0.04198
2364.64,0.04224
2358.86,0.04195
2353.07,0.04193
2347.28,0.04164
2341.5,0.04177
2335.71,0.04209
2329.92,0.04174
2324.14,0.04166
2318.35,0.04161
2312.57,0.04192
2306.78,0.04189
2300.99,0.04174
2295.21,0.04182
2289.42,0.04170
2283.63,0.04160
2277.85,0.04133
2272.06,0.04174
2266.28,0.04159
2260.49,0.04137
2254.7,0.04124
2248.92,0.04098
2243.13,0.04132
2237.34,0.04121
2231.56,0.04090
2225.77,0.04155
2219.99,0.04133
2214.2,0.04146
2208.41,0.04129
2202.63,0.04144
2196.84,0.04154
2191.05,0.04158
2185.27,0.04126
2179.48,0.04101
2173.7,0.04109
2167.91,0.04134
2162.12,0.04091
2156.34,0.04039
2150.55,0.04046
2144.76,0.04048
2138.98,0.04014
2133.19,0.04029
2127.41,0.04012
2121.62,0.04001
2115.83,0.04017
2110.05,0.03978
2104.26,0.04021
2098.47,0.04022
2092.69,0.04017
2086.9,0.03992
2081.12,0.03991
2075.33,0.04009
2069.54,0.04005
2063.76,0.03998
2057.97,0.04007
2052.19,0.04015
2046.4,0.04031
2040.61,0.04035
2034.83,0.04019
2029.04,0.03997
2023.25,0.04036
2017.47,0.04023
2011.68,0.03997
2005.9,0.03962
2000.11,0.03989
1994.32,0.03959
1988.54,0.03952
1982.75,0.03977
1976.96,0.03933
1971.18,0.03949
1965.39,0.03951
1959.61,0.03945
1953.82,0.03933
1948.03,0.03902
1942.25,0.03935
1936.46,0.03910
1930.67,0.03899
1924.89,0.03885
1919.1,0.03879
1913.32,0.03848
1907.53,0.03851
1901.74,0.03794
1895.96,0.03802
1890.17,0.03817
1884.38,0.03758
1878.6,0.03729
1872.81,0.03714
1867.03,0.03645
1861.24,0.03667
1855.45,0.03612
1849.67,0.03593
1843.88,0.03555
1838.09,0.03461
1832.31,0.03396
1826.52,0.03333
1820.74,0.03246
1814.95,0.03167
1809.16,0.03085
1803.38,0.02893
1797.59,0.02732
1791.8,0.02498
1786.02,0.02323
1780.23,0.02308
1774.45,0.02708
1768.66,0.03651
1762.87,0.05554
1757.09,0.07485
1751.3,0.07981
1745.51,0.07540
1739.73,0.06802
1733.94,0.06127
1728.16,0.05597
1722.37,0.05346
1716.58,0.05136
1710.8,0.04964
1705.01,0.04809
1699.22,0.04665
1693.44,0.04503
1687.65,0.04437
1681.87,0.04322
1676.08,0.04373
1670.29,0.04317
1664.51,0.04201
1658.72,0.04191
1652.93,0.04243
1647.15,0.04163
1641.36,0.04176
1635.58,0.04180
1629.79,0.04132
1624,0.04111
1618.22,0.04071
1612.43,0.04040
1606.64,0.03996
1600.86,0.04032
1595.07,0.04029
1589.29,0.03997
1583.5,0.03976
1577.71,0.03935
1571.93,0.03910
1566.14,0.03882
1560.35,0.03927
1554.57,0.03871
1548.78,0.03824
1543,0.03899
1537.21,0.03786
1531.42,0.03759
1525.64,0.03769
1519.85,0.03734
1514.07,0.03694
1508.28,0.03683
1502.49,0.03604
1496.71,0.03570
1490.92,0.03540
1485.13,0.03439
1479.35,0.03322
1473.56,0.03248
1467.78,0.03115
1461.99,0.03096
1456.2,0.03425
1450.42,0.03733
1444.63,0.03962
1438.84,0.03925
1433.06,0.03770
1427.27,0.03659
1421.49,0.03604
1415.7,0.03476
1409.91,0.03385
1404.13,0.03230
1398.34,0.03106
1392.55,0.02999
1386.77,0.03046
1380.98,0.03328
1375.2,0.03365
1369.41,0.03339
1363.62,0.03477
1357.84,0.03561
1352.05,0.03647
1346.26,0.03623
1340.48,0.03598
1334.69,0.03505
1328.91,0.03442
1323.12,0.03345
1317.33,0.03308
1311.55,0.03238
1305.76,0.03211
1299.97,0.03164
1294.19,0.03097
1288.4,0.02933
1282.62,0.02817
1276.83,0.02873
1271.04,0.02963
1265.26,0.03123
1259.47,0.03114
1253.68,0.03034
1247.9,0.02898
1242.11,0.02813
1236.33,0.02686
1230.54,0.02566
1224.75,0.02671
1218.97,0.02960
1213.18,0.03439
1207.39,0.03764
1201.61,0.03896
1195.82,0.04279
1190.04,0.05336
1184.25,0.06949
1178.46,0.07110
1172.68,0.05894
1166.89,0.04895
1161.1,0.04289
1155.32,0.03741
1149.53,0.03224
1143.75,0.02850
1137.96,0.03520
1132.17,0.04473
1126.39,0.04857
1120.6,0.04454
1114.81,0.04034
1109.03,0.04258
1103.24,0.05575
1097.46,0.07152
1091.67,0.08585
1085.88,0.09392
1080.1,0.09162
1074.31,0.08373
1068.52,0.07476
1062.74,0.06818
1056.95,0.06338
1051.17,0.06289
1045.38,0.06547
1039.59,0.06751
1033.81,0.06810
1028.02,0.06753
1022.24,0.06837
1016.45,0.07047
1010.66,0.07038
1004.88,0.06889
999.09,0.06622
993.304,0.06415
987.518,0.06262
981.731,0.06047
975.945,0.05877
970.159,0.05656
964.373,0.05495
958.586,0.05372
952.8,0.05433
947.014,0.05464
941.228,0.05358
935.441,0.05305
929.655,0.05296
923.869,0.05197
918.083,0.05106
912.297,0.05036
906.51,0.04930
900.724,0.04933
894.938,0.04863
889.152,0.04917
883.365,0.04778
877.579,0.04654
871.793,0.04804
866.007,0.04968
860.22,0.05077
854.434,0.04997
848.648,0.05029
842.862,0.04968
837.075,0.04944
831.289,0.04929
825.503,0.04821
819.717,0.04792
813.931,0.04756
808.144,0.04751
802.358,0.04695
796.572,0.04660
790.786,0.04658
784.999,0.04486
779.213,0.04516
773.427,0.04491
767.641,0.04375
761.854,0.04410
756.068,0.04493
750.282,0.04714
744.496,0.04655
738.709,0.04619
732.923,0.04599
727.137,0.04650
721.351,0.04496
715.565,0.04503
709.778,0.04520
703.992,0.04491
698.206,0.04510
692.42,0.04613
686.633,0.04537
680.847,0.04568
675.061,0.04681
669.275,0.04700
663.488,0.04620
657.702,0.04582
651.916,0.04332
646.13,0.04351
640.343,0.04510
634.557,0.04562
628.771,0.04356
622.985,0.04444
617.198,0.04449
611.412,0.04459
605.626,0.04467
599.84,0.04286