File: 01_Data/Nylon/Cone/Nylon_HRRPUA_25.csv
Time after Ignition,Nylon_R4,Nylon_R2,Nylon_R3,Mean,Std. Dev.
0.0,9.8,-24.3,17.6,1.0,22.3
0.75,10.4,-23.2,18.1,1.7,21.9
1.5,10.6,-21.7,18.4,2.4,21.2
2.25,10.9,-20.6,19.3,3.2,21.0
3.0,10.8,-19.9,19.6,3.5,20.7
3.75,10.1,-18.9,20.0,3.7,20.3
4.5,9.9,-17.5,20.6,4.3,19.7
5.25,9.5,-16.0,20.9,4.8,18.9
6.0,9.4,-14.2,21.5,5.6,18.2
6.75,8.5,-12.0,22.0,6.1,17.1
7.5,7.7,-9.6,23.1,7.1,16.4
8.25,7.0,-7.0,24.8,8.3,16.0
9.0,6.3,-4.6,26.1,9.2,15.5
9.75,5.7,-2.8,27.3,10.0,15.5
10.5,5.0,-0.8,28.1,10.8,15.3
11.25,4.5,1.2,29.7,11.8,15.6
12.0,4.2,3.1,30.4,12.6,15.4
12.75,3.9,4.9,31.6,13.5,15.7
13.5,3.8,7.1,33.2,14.7,16.1
14.25,3.7,9.2,34.3,15.8,16.3
15.0,3.6,11.3,36.9,17.3,17.4
15.75,3.6,13.4,38.3,18.4,17.9
16.5,3.5,15.0,38.9,19.1,18.1
17.25,3.4,16.5,39.7,19.9,18.4
18.0,3.4,18.6,40.8,21.0,18.8
18.75,3.4,20.4,42.1,22.0,19.4
19.5,3.4,22.2,42.8,22.8,19.7
20.25,3.6,23.8,44.2,23.8,20.3
21.0,3.9,25.1,45.9,25.0,21.0
21.75,4.1,27.1,47.9,26.4,21.9
22.5,4.3,28.8,49.3,27.5,22.6
23.25,4.4,30.6,50.3,28.4,23.0
24.0,4.5,31.8,51.9,29.4,23.8
24.75,4.5,32.7,54.9,30.7,25.2
25.5,4.6,34.7,59.0,32.8,27.3
26.25,4.6,36.8,64.2,35.2,29.8
27.0,4.9,38.5,67.8,37.1,31.4
27.75,5.2,40.3,69.8,38.4,32.4
28.5,5.9,42.2,73.8,40.6,34.0
29.25,6.7,44.7,75.5,42.3,34.5
30.0,7.3,45.7,80.3,44.4,36.5
30.75,7.7,46.7,81.7,45.4,37.0
31.5,8.0,47.1,87.6,47.6,39.8
32.25,9.1,48.4,89.6,49.0,40.3
33.0,9.7,48.7,93.2,50.5,41.8
33.75,10.2,49.2,96.5,52.0,43.2
34.5,10.5,49.5,102.2,54.1,46.0
35.25,10.6,49.8,105.5,55.3,47.6
36.0,10.9,50.4,109.8,57.0,49.8
36.75,11.2,50.2,111.9,57.7,50.8
37.5,11.5,51.6,117.1,60.1,53.3
38.25,11.9,52.4,119.1,61.1,54.2
39.0,11.8,52.0,122.8,62.2,56.2
39.75,11.8,53.5,124.8,63.4,57.1
40.5,11.5,53.2,124.9,63.2,57.3
41.25,11.7,55.2,127.0,64.6,58.2
42.0,11.6,56.0,129.0,65.5,59.3
42.75,11.5,57.1,130.8,66.5,60.2
43.5,11.5,57.3,135.2,68.0,62.5
44.25,11.7,57.1,135.4,68.1,62.6
45.0,11.7,57.9,137.5,69.0,63.7
45.75,11.6,59.5,139.9,70.4,64.8
46.5,11.5,61.9,143.7,72.4,66.7
47.25,11.4,62.5,148.6,74.2,69.3
48.0,11.1,64.6,150.9,75.5,70.5
48.75,10.6,65.9,153.1,76.5,71.8
49.5,10.7,69.0,156.7,78.8,73.5
50.25,10.5,69.6,162.9,81.0,76.9
51.0,10.2,71.5,160.2,80.6,75.4
51.75,10.4,73.2,162.5,82.0,76.4
52.5,10.3,72.2,165.7,82.8,78.3
53.25,10.3,75.4,166.3,84.0,78.4
54.0,10.7,75.7,171.0,85.8,80.6
54.75,10.9,78.8,174.4,88.1,82.1
55.5,10.9,82.0,177.6,90.2,83.6
56.25,11.1,82.6,178.1,90.6,83.8
57.0,11.2,85.1,183.0,93.1,86.2
57.75,11.4,88.3,181.6,93.8,85.2
58.5,11.3,90.5,185.0,95.6,86.9
59.25,11.4,96.7,183.9,97.4,86.2
60.0,11.4,98.5,188.3,99.4,88.4
60.75,11.6,101.5,189.9,101.0,89.2
61.5,11.4,106.9,193.6,104.0,91.2
62.25,11.6,108.6,199.3,106.5,93.9
63.0,11.3,111.1,201.6,108.0,95.2
63.75,11.3,114.5,205.0,110.2,96.9
64.5,11.2,118.2,210.3,113.2,99.6
65.25,11.3,121.6,213.6,115.5,101.3
66.0,11.1,125.7,219.0,118.6,104.1
66.75,11.0,131.8,224.6,122.4,107.1
67.5,11.1,131.0,229.3,123.8,109.3
68.25,11.0,136.7,234.9,127.5,112.2
69.0,10.9,137.9,241.5,130.1,115.5
69.75,10.6,137.3,241.5,129.8,115.6
70.5,10.2,143.9,252.9,135.7,121.6
71.25,10.3,146.6,257.5,138.1,123.8
72.0,10.0,147.7,266.3,141.3,128.2
72.75,9.5,154.1,269.1,144.2,130.1
73.5,9.9,158.1,276.7,148.2,133.7
74.25,10.2,161.5,285.3,152.3,137.8
75.0,10.4,166.9,283.2,153.5,136.9
75.75,10.6,170.3,284.2,155.0,137.4
76.5,10.6,175.8,288.7,158.4,139.9
77.25,11.5,177.5,293.7,160.9,141.9
78.0,12.5,182.6,293.4,162.8,141.5
78.75,13.2,184.8,301.3,166.4,144.9
79.5,14.0,188.6,305.2,169.3,146.6
80.25,14.4,188.9,310.9,171.4,149.0
81.0,15.0,190.2,308.3,171.2,147.6
81.75,15.1,191.3,319.4,175.3,152.7
82.5,15.9,191.8,318.2,175.3,151.8
83.25,16.8,195.4,322.8,178.3,153.7
84.0,17.4,194.7,317.3,176.5,150.7
84.75,18.3,194.6,321.6,178.2,152.3
85.5,19.3,194.5,334.2,182.7,157.8
86.25,20.0,204.0,335.2,186.4,158.3
87.0,20.6,203.4,340.3,188.1,160.4
87.75,22.1,207.4,338.7,189.4,159.1
88.5,23.0,207.3,338.1,189.5,158.3
89.25,23.7,211.4,340.8,191.9,159.4
90.0,25.2,220.0,340.1,195.1,158.9
90.75,26.5,220.8,350.2,199.2,163.0
91.5,26.8,226.4,351.9,201.7,163.9
92.25,27.9,223.4,358.5,203.3,166.2
93.0,29.3,229.5,359.5,206.1,166.3
93.75,31.1,238.1,366.4,211.9,169.2
94.5,31.9,243.7,368.0,214.6,169.9
95.25,34.0,243.4,367.6,215.0,168.6
96.0,34.6,255.7,377.1,222.5,173.7
96.75,36.1,255.7,372.5,221.4,170.8
97.5,36.5,253.6,379.6,223.2,173.5
98.25,37.3,259.4,383.7,226.8,175.5
99.0,39.3,260.7,382.1,227.4,173.8
99.75,39.7,264.4,388.4,230.9,176.7
100.5,42.1,262.5,396.4,233.7,178.9
101.25,42.9,268.7,406.9,239.5,183.7
102.0,45.2,271.7,397.0,238.0,178.3
102.75,45.1,275.5,404.0,241.5,181.9
103.5,46.4,273.7,425.2,248.5,190.7
104.25,47.8,276.6,418.4,247.6,187.0
105.0,49.5,276.8,426.6,251.0,189.9
105.75,50.5,282.2,423.0,251.9,188.1
106.5,52.1,284.8,438.0,258.3,194.3
107.25,54.1,283.6,436.7,258.1,192.6
108.0,54.1,283.6,455.0,264.2,201.1
108.75,55.4,290.2,457.2,267.6,201.9
109.5,57.1,293.0,459.5,269.9,202.2
110.25,57.6,299.7,465.8,274.4,205.3
111.0,59.9,307.5,468.6,278.7,205.9
111.75,61.5,315.9,463.0,280.1,203.1
112.5,63.8,320.9,481.2,288.6,210.6
113.25,65.6,337.4,462.3,288.4,202.8
114.0,66.9,339.1,479.9,295.3,210.0
114.75,70.0,340.3,480.8,297.0,208.8
115.5,70.2,349.5,474.2,298.0,206.9
116.25,72.6,354.8,475.8,301.1,206.9
117.0,74.7,362.4,493.5,310.2,214.2
117.75,75.5,358.6,502.3,312.1,217.2
118.5,77.4,364.8,498.1,313.4,215.0
119.25,78.9,370.4,485.4,311.6,209.6
120.0,81.7,379.9,505.4,322.3,217.7
120.75,83.2,391.4,491.8,322.1,212.9
121.5,84.3,389.3,498.1,323.9,214.5
122.25,86.1,393.6,507.5,329.1,218.0
123.0,90.2,395.8,505.8,330.6,215.3
123.75,90.8,403.2,500.4,331.5,214.0
124.5,92.1,405.7,508.1,335.3,216.7
125.25,98.3,421.3,506.4,342.0,215.3
126.0,103.5,417.8,512.1,344.5,214.0
126.75,107.8,418.2,513.6,346.5,212.2
127.5,116.1,413.4,520.6,350.0,209.6
128.25,125.6,423.3,509.9,352.9,201.6
129.0,134.0,427.4,521.4,360.9,202.1
129.75,142.4,438.7,527.5,369.5,201.6
130.5,145.4,443.2,528.1,372.2,201.0
131.25,154.9,434.6,536.8,375.4,197.7
132.0,158.7,448.9,539.2,382.3,198.8
132.75,163.9,455.7,551.6,390.4,202.0
133.5,170.2,463.4,537.8,390.5,194.3
134.25,176.0,469.7,566.2,404.0,203.3
135.0,181.7,488.6,556.2,408.9,199.6
135.75,183.8,493.4,565.4,414.2,202.8
136.5,192.1,492.7,557.8,414.2,195.1
137.25,190.6,484.5,553.3,409.5,192.6
138.0,195.9,497.9,560.7,418.2,195.1
138.75,200.1,519.8,568.9,429.6,200.2
139.5,202.4,518.7,565.2,428.7,197.4
140.25,205.7,506.5,575.6,429.2,196.7
141.0,207.2,521.4,574.6,434.4,198.5
141.75,215.7,529.7,574.5,440.0,195.5
142.5,216.1,516.1,585.8,439.3,196.4
143.25,222.7,540.9,574.8,446.1,194.3
144.0,224.3,553.7,580.3,452.8,198.3
144.75,225.1,539.8,604.1,456.3,202.8
145.5,230.5,542.5,596.0,456.3,197.4
146.25,233.4,572.3,601.2,468.9,204.5
147.0,235.5,564.4,589.7,463.2,197.6
147.75,236.4,577.9,592.7,469.0,201.6
148.5,241.0,558.6,595.2,465.0,194.8
149.25,249.6,570.3,597.0,472.3,193.3
150.0,250.9,562.4,594.9,469.4,189.9
150.75,253.5,582.1,608.3,481.3,197.7
151.5,259.8,561.7,614.0,478.5,191.2
152.25,264.2,593.1,633.2,496.8,202.5
153.0,263.3,596.1,605.3,488.2,194.9
153.75,266.6,563.1,623.4,484.4,191.0
154.5,273.3,595.0,623.1,497.1,194.4
155.25,272.0,592.9,632.6,499.2,197.8
156.0,276.4,580.0,638.6,498.3,194.5
156.75,278.1,579.6,633.7,497.1,191.6
157.5,286.4,578.2,644.0,502.9,190.3
158.25,297.7,595.7,643.8,512.4,187.5
159.0,289.4,581.0,663.4,511.3,196.5
159.75,292.9,591.5,644.9,509.8,189.7
160.5,294.5,577.3,654.5,508.8,189.6
161.25,301.1,576.7,662.6,513.4,188.9
162.0,302.6,604.3,655.0,520.7,190.5
162.75,306.8,593.1,685.4,528.4,197.5
163.5,311.9,595.5,674.3,527.2,190.6
164.25,316.0,595.2,674.8,528.7,188.4
165.0,319.4,617.1,676.0,537.5,191.2
165.75,323.4,616.9,658.6,533.0,182.7
166.5,312.4,614.7,706.4,544.5,206.1
167.25,324.4,621.0,693.5,546.3,195.6
168.0,331.5,595.6,682.0,536.4,182.6
168.75,328.2,605.2,683.9,539.1,186.8
169.5,326.8,621.3,694.1,547.4,194.5
170.25,322.9,626.6,698.4,549.3,199.3
171.0,324.8,596.4,692.9,538.0,190.9
171.75,329.4,607.0,709.0,548.5,196.4
172.5,326.2,619.0,706.0,550.4,199.0
173.25,326.1,609.3,711.8,549.1,199.8
174.0,329.9,619.4,700.5,550.0,194.8
174.75,330.5,614.4,718.1,554.3,200.7
175.5,337.0,610.2,691.4,546.2,185.7
176.25,342.3,622.0,710.7,558.3,192.3
177.0,345.5,618.8,735.6,566.6,200.2
177.75,341.7,627.1,739.0,569.3,204.9
178.5,350.0,622.3,718.9,563.7,191.3
179.25,364.0,607.8,727.7,566.5,185.3
180.0,362.3,639.1,743.0,581.5,196.8
180.75,359.9,618.7,742.6,573.7,195.2
181.5,368.5,599.9,750.4,572.9,192.3
182.25,361.7,615.3,750.0,575.6,197.1
183.0,371.2,622.8,742.5,578.8,189.5
183.75,368.5,631.6,733.7,577.9,188.4
184.5,372.2,623.4,761.3,585.6,197.3
185.25,381.6,641.7,733.6,585.6,182.6
186.0,390.9,608.3,763.2,587.5,187.0
186.75,396.2,647.6,764.4,602.7,188.2
187.5,397.9,624.3,760.9,594.4,183.3
188.25,403.6,629.6,788.5,607.3,193.4
189.0,388.1,641.1,780.0,603.1,198.7
189.75,407.2,644.8,748.2,600.1,174.9
190.5,411.8,630.2,759.1,600.3,175.5
191.25,411.3,622.8,812.2,615.4,200.6
192.0,410.3,636.7,774.4,607.1,183.9
192.75,413.7,645.6,805.1,621.4,196.8
193.5,414.9,655.5,790.0,620.2,190.0
194.25,421.5,630.3,795.8,615.9,187.5
195.0,407.9,636.9,817.8,620.9,205.4
195.75,423.6,631.6,820.1,625.1,198.3
196.5,420.6,656.6,797.1,624.8,190.2
197.25,427.6,667.2,807.6,634.1,192.1
198.0,428.0,640.0,791.1,619.7,182.4
198.75,435.0,654.3,824.2,637.8,195.1
199.5,431.4,674.0,826.1,643.8,199.1
200.25,437.6,662.3,801.0,633.6,183.4
201.0,444.8,675.0,808.2,642.7,183.9
201.75,449.7,657.9,784.0,630.5,168.8
202.5,447.4,661.5,803.7,637.5,179.3
203.25,447.8,690.2,801.4,646.5,180.8
204.0,460.8,682.3,829.4,657.5,185.5
204.75,474.1,669.2,778.2,640.5,154.1
205.5,460.0,691.3,827.0,659.5,185.6
206.25,469.3,686.0,794.9,650.1,165.8
207.0,474.0,680.2,824.3,659.5,176.0
207.75,470.6,691.5,814.6,658.9,174.3
208.5,480.7,704.4,851.4,678.8,186.7
209.25,474.1,707.5,841.5,674.4,185.9
210.0,484.5,698.5,827.1,670.0,173.0
210.75,480.9,727.6,806.1,671.6,169.7
211.5,490.8,694.3,786.9,657.3,151.4
212.25,474.9,695.9,796.0,655.6,164.3
213.0,497.9,716.7,818.3,677.6,163.7
213.75,493.5,707.9,823.6,675.0,167.5
214.5,483.2,674.2,799.1,652.2,159.1
215.25,490.3,698.2,793.3,660.6,155.0
216.0,495.4,723.1,827.5,682.0,169.8
216.75,500.9,697.4,814.6,671.0,158.5
217.5,492.7,691.0,775.6,653.1,145.2
218.25,507.0,699.5,798.5,668.3,148.2
219.0,501.8,716.8,800.0,672.9,153.9
219.75,506.5,681.8,838.1,675.5,165.9
220.5,522.0,688.6,817.2,676.0,148.0
221.25,495.9,671.6,796.6,654.7,151.0
222.0,518.2,672.4,809.8,666.8,145.9
222.75,509.6,682.8,859.9,684.1,175.2
223.5,515.6,657.3,816.0,663.0,150.3
224.25,519.2,658.8,806.0,661.3,143.4
225.0,527.3,677.6,859.6,688.2,166.4
225.75,517.9,649.7,813.7,660.4,148.2
226.5,527.2,678.3,811.8,672.4,142.4
227.25,529.8,646.6,822.0,666.1,147.1
228.0,523.0,635.4,808.2,655.6,143.7
228.75,528.5,660.1,797.6,662.1,134.6
229.5,533.7,638.9,830.3,667.7,150.4
230.25,524.3,627.5,795.1,649.0,136.7
231.0,536.5,613.9,813.3,654.6,142.8
231.75,532.1,609.1,805.4,648.9,140.9
232.5,549.5,624.6,799.5,657.9,128.3
233.25,525.8,640.2,798.7,654.9,137.1
234.0,547.4,608.1,794.2,649.9,128.6
234.75,537.9,621.2,790.6,649.9,128.8
235.5,536.2,601.9,792.7,643.6,133.2
236.25,539.2,588.1,763.4,630.2,117.9
237.0,546.4,591.9,786.3,641.5,127.4
237.75,551.8,605.2,757.3,638.1,106.6
238.5,540.4,589.3,795.3,641.7,135.3
239.25,538.9,600.9,827.0,655.6,151.6
240.0,546.8,593.0,770.2,636.7,117.9
240.75,541.0,596.9,754.8,630.9,110.9
241.5,552.9,574.5,728.0,618.5,95.4
242.25,540.9,570.9,749.7,620.5,112.9
243.0,560.3,565.6,738.0,621.3,101.1
243.75,558.7,564.8,730.0,617.8,97.2
244.5,561.7,580.9,721.1,621.2,87.0
245.25,567.1,567.0,709.1,614.4,82.0
246.0,549.4,574.0,696.0,606.5,78.5
246.75,564.5,545.5,705.9,605.3,87.6
247.5,581.3,554.6,676.0,604.0,63.8
248.25,570.6,555.5,649.0,591.7,50.2
249.0,568.6,549.8,642.4,586.9,48.9
249.75,568.3,558.7,626.3,584.4,36.6
250.5,577.9,547.8,617.9,581.2,35.2
251.25,574.2,560.2,626.0,586.8,34.7
252.0,568.9,546.6,605.5,573.7,29.7
252.75,582.7,544.8,598.4,575.3,27.5
253.5,579.9,558.0,582.5,573.4,13.5
254.25,571.5,556.2,569.0,565.6,8.2
255.0,571.5,536.4,535.0,547.6,20.7
255.75,575.0,534.8,516.8,542.2,29.8
256.5,577.8,534.1,500.3,537.4,38.9
257.25,591.2,525.4,488.6,535.1,52.0
258.0,586.6,521.6,468.9,525.7,58.9
258.75,579.4,514.0,450.9,514.8,64.3
259.5,578.5,501.7,433.5,504.6,72.6
260.25,568.4,495.3,417.5,493.7,75.5
261.0,577.7,494.8,402.1,491.5,87.9
261.75,580.5,479.5,382.3,480.8,99.1
262.5,578.2,471.0,355.6,468.2,111.3
263.25,589.1,473.9,343.3,468.8,123.0
264.0,586.1,469.7,331.3,462.4,127.6
264.75,579.3,467.1,315.0,453.8,132.6
265.5,580.6,461.4,299.1,447.0,141.3
266.25,591.0,432.0,284.1,435.7,153.5
267.0,569.8,437.2,265.4,424.1,152.6
267.75,586.6,442.4,251.2,426.7,168.3
268.5,590.4,424.2,245.0,419.9,172.7
269.25,565.4,411.9,228.5,401.9,168.7
270.0,572.7,396.9,217.0,395.5,177.9
270.75,573.2,388.2,204.0,388.5,184.6
271.5,582.6,388.3,192.5,387.8,195.1
272.25,592.4,386.7,185.7,388.2,203.4
273.0,589.8,381.9,178.1,383.3,205.8
273.75,582.4,376.8,174.0,377.7,204.2
274.5,582.3,374.3,165.4,374.0,208.5
275.25,583.4,359.2,159.5,367.4,212.0
276.0,582.7,358.4,151.7,364.3,215.6
276.75,551.8,336.9,146.0,344.9,203.0
277.5,583.8,330.8,137.7,350.8,223.7
278.25,594.6,324.6,131.7,350.3,232.5
279.0,598.4,309.0,120.0,342.5,241.0
279.75,570.6,304.1,110.8,328.5,230.9
280.5,597.1,294.8,104.0,332.0,248.6
281.25,588.6,287.2,91.5,322.4,250.4
282.0,582.4,273.3,80.7,312.1,253.1
282.75,590.6,269.0,67.5,309.0,263.9
283.5,583.6,263.5,63.1,303.4,262.5
284.25,596.8,255.0,56.1,302.6,273.5
285.0,571.7,246.0,50.0,289.2,263.5
285.75,579.0,237.6,45.5,287.4,270.2
286.5,576.9,228.8,41.4,282.4,271.7
287.25,578.5,215.0,38.5,277.4,275.3
288.0,579.1,208.7,34.9,274.2,278.0
288.75,591.2,197.8,31.2,273.4,287.6
289.5,584.2,191.4,29.3,268.3,285.3
290.25,574.4,176.2,26.7,259.1,283.1
291.0,566.3,172.3,24.3,254.3,280.2
291.75,554.9,162.1,22.6,246.5,276.0
292.5,580.7,152.2,21.0,251.3,292.7
293.25,571.6,145.0,19.5,245.4,289.5
294.0,560.4,137.8,17.5,238.6,285.2
294.75,553.3,129.7,,341.5,299.6
295.5,558.5,125.3,,341.9,306.3
296.25,553.0,119.0,,336.0,306.9
297.0,548.4,112.2,,330.3,308.5
297.75,537.7,108.0,,322.8,303.9
298.5,521.4,104.3,,312.9,294.9
299.25,535.7,101.4,,318.5,307.1
300.0,541.9,95.4,,318.7,315.7
300.75,525.9,92.7,,309.3,306.3
301.5,508.1,85.2,,296.7,299.0
302.25,514.7,79.3,,297.0,307.8
303.0,518.7,74.0,,296.3,314.5
303.75,510.6,66.4,,288.5,314.1
304.5,528.0,62.1,,295.1,329.5
305.25,522.0,57.3,,289.6,328.6
306.0,506.2,52.5,,279.3,320.8
306.75,510.5,46.6,,278.5,328.0
307.5,511.7,39.0,,275.4,334.3
308.25,501.7,29.9,,265.8,333.7
309.0,509.7,22.6,,266.1,344.5
309.75,502.6,17.2,,259.9,343.3
310.5,486.3,9.1,,247.7,337.5
311.25,488.6,2.4,,245.5,343.8
312.0,485.3,-3.8,,240.8,345.9
312.75,479.5,-9.8,,234.8,346.0
313.5,476.3,-14.7,,230.8,347.2
314.25,488.2,-20.7,,233.8,359.8
315.0,468.5,-25.8,,221.4,349.5
315.75,478.4,,,478.4,
316.5,476.4,,,476.4,
317.25,471.0,,,471.0,
318.0,468.9,,,468.9,
318.75,465.1,,,465.1,
319.5,468.8,,,468.8,
320.25,460.0,,,460.0,
321.0,463.3,,,463.3,
321.75,454.0,,,454.0,
322.5,455.2,,,455.2,
323.25,459.2,,,459.2,
324.0,444.2,,,444.2,
324.75,446.8,,,446.8,
325.5,440.7,,,440.7,
326.25,447.1,,,447.1,
327.0,434.3,,,434.3,
327.75,441.2,,,441.2,
328.5,438.4,,,438.4,
329.25,437.5,,,437.5,
330.0,437.8,,,437.8,
330.75,421.7,,,421.7,
331.5,428.4,,,428.4,
332.25,417.3,,,417.3,
333.0,415.5,,,415.5,
333.75,423.0,,,423.0,
334.5,419.1,,,419.1,
335.25,402.3,,,402.3,
336.0,406.3,,,406.3,
336.75,403.8,,,403.8,
337.5,389.4,,,389.4,
338.25,393.7,,,393.7,
339.0,393.4,,,393.4,
339.75,383.1,,,383.1,
340.5,384.4,,,384.4,
341.25,375.3,,,375.3,
342.0,383.7,,,383.7,
342.75,373.4,,,373.4,
343.5,364.9,,,364.9,
344.25,365.3,,,365.3,
345.0,358.1,,,358.1,
345.75,352.0,,,352.0,
346.5,345.1,,,345.1,
347.25,340.6,,,340.6,
348.0,332.0,,,332.0,
348.75,329.8,,,329.8,
349.5,327.8,,,327.8,
350.25,320.6,,,320.6,
351.0,318.7,,,318.7,
351.75,315.0,,,315.0,
352.5,311.6,,,311.6,
353.25,305.8,,,305.8,
354.0,301.0,,,301.0,
354.75,301.1,,,301.1,
355.5,295.1,,,295.1,
356.25,291.6,,,291.6,
357.0,288.8,,,288.8,
357.75,284.8,,,284.8,
358.5,285.8,,,285.8,
359.25,276.8,,,276.8,
360.0,275.7,,,275.7,
360.75,275.3,,,275.3,
361.5,271.4,,,271.4,
362.25,268.9,,,268.9,
363.0,268.3,,,268.3,
363.75,273.1,,,273.1,
364.5,260.4,,,260.4,
365.25,261.9,,,261.9,
366.0,261.3,,,261.3,
366.75,258.6,,,258.6,
367.5,261.4,,,261.4,
368.25,258.7,,,258.7,
369.0,253.4,,,253.4,
369.75,252.1,,,252.1,
370.5,245.8,,,245.8,
371.25,247.1,,,247.1,
372.0,245.4,,,245.4,
372.75,244.5,,,244.5,
373.5,239.9,,,239.9,
374.25,240.7,,,240.7,
375.0,240.9,,,240.9,
375.75,240.5,,,240.5,
376.5,235.8,,,235.8,
377.25,237.0,,,237.0,
378.0,234.7,,,234.7,
378.75,228.0,,,228.0,
379.5,233.3,,,233.3,
380.25,229.2,,,229.2,
381.0,227.8,,,227.8,
381.75,227.5,,,227.5,
382.5,223.6,,,223.6,
383.25,220.7,,,220.7,
384.0,220.3,,,220.3,
384.75,214.8,,,214.8,
385.5,215.2,,,215.2,
386.25,217.2,,,217.2,
387.0,217.0,,,217.0,
387.75,215.0,,,215.0,
388.5,209.9,,,209.9,
389.25,208.2,,,208.2,
390.0,207.1,,,207.1,
390.75,207.7,,,207.7,
391.5,204.4,,,204.4,
392.25,202.4,,,202.4,
393.0,198.4,,,198.4,
393.75,197.1,,,197.1,
394.5,195.7,,,195.7,
395.25,196.7,,,196.7,
396.0,190.1,,,190.1,
396.75,188.2,,,188.2,
397.5,189.3,,,189.3,
398.25,187.3,,,187.3,
399.0,186.9,,,186.9,
399.75,185.9,,,185.9,
400.5,181.2,,,181.2,
401.25,185.9,,,185.9,
402.0,183.0,,,183.0,
402.75,181.8,,,181.8,
403.5,179.4,,,179.4,
404.25,179.9,,,179.9,
405.0,174.4,,,174.4,
405.75,176.0,,,176.0,
406.5,171.2,,,171.2,
407.25,170.5,,,170.5,
408.0,169.1,,,169.1,
408.75,167.4,,,167.4,
409.5,167.1,,,167.1,
410.25,166.9,,,166.9,
411.0,164.0,,,164.0,
411.75,162.1,,,162.1,
412.5,159.5,,,159.5,
413.25,157.7,,,157.7,
414.0,155.9,,,155.9,
414.75,155.6,,,155.6,
415.5,154.4,,,154.4,
416.25,151.3,,,151.3,
417.0,151.3,,,151.3,
417.75,152.8,,,152.8,
418.5,150.1,,,150.1,
419.25,150.0,,,150.0,
420.0,147.7,,,147.7,
420.75,148.3,,,148.3,
421.5,148.8,,,148.8,
422.25,146.3,,,146.3,
423.0,145.7,,,145.7,
423.75,142.5,,,142.5,
424.5,145.3,,,145.3,
425.25,145.0,,,145.0,
426.0,141.3,,,141.3,
426.75,141.8,,,141.8,
427.5,141.2,,,141.2,
428.25,138.2,,,138.2,
429.0,139.8,,,139.8,
429.75,140.6,,,140.6,
430.5,137.9,,,137.9,
431.25,134.7,,,134.7,
432.0,139.0,,,139.0,
432.75,137.3,,,137.3,
433.5,137.2,,,137.2,
434.25,134.3,,,134.3,
435.0,134.5,,,134.5,
435.75,133.9,,,133.9,
436.5,133.9,,,133.9,
437.25,131.9,,,131.9,
438.0,129.9,,,129.9,
438.75,130.9,,,130.9,
439.5,128.1,,,128.1,
440.25,127.9,,,127.9,
441.0,128.0,,,128.0,
441.75,126.8,,,126.8,
442.5,125.7,,,125.7,
443.25,125.0,,,125.0,
444.0,125.7,,,125.7,
444.75,123.0,,,123.0,
445.5,122.5,,,122.5,
446.25,124.1,,,124.1,
447.0,123.7,,,123.7,
447.75,121.2,,,121.2,
448.5,120.3,,,120.3,
449.25,120.3,,,120.3,
450.0,118.8,,,118.8,
450.75,116.8,,,116.8,
451.5,113.2,,,113.2,
452.25,117.8,,,117.8,
453.0,113.0,,,113.0,
453.75,114.1,,,114.1,
454.5,113.1,,,113.1,
455.25,111.2,,,111.2,
456.0,110.6,,,110.6,
456.75,108.5,,,108.5,
457.5,107.5,,,107.5,
458.25,108.9,,,108.9,
459.0,105.6,,,105.6,
459.75,106.1,,,106.1,
460.5,106.3,,,106.3,
461.25,104.9,,,104.9,
462.0,103.2,,,103.2,
462.75,102.5,,,102.5,
463.5,101.4,,,101.4,
464.25,100.9,,,100.9,
465.0,99.7,,,99.7,
465.75,99.8,,,99.8,
466.5,99.1,,,99.1,
467.25,97.8,,,97.8,
468.0,96.4,,,96.4,
468.75,93.1,,,93.1,
469.5,94.1,,,94.1,
470.25,93.0,,,93.0,
471.0,92.3,,,92.3,
471.75,90.7,,,90.7,
472.5,90.1,,,90.1,
473.25,89.5,,,89.5,
474.0,88.8,,,88.8,
474.75,88.8,,,88.8,
475.5,86.2,,,86.2,
476.25,86.2,,,86.2,
477.0,84.7,,,84.7,
477.75,82.9,,,82.9,
478.5,81.1,,,81.1,
479.25,80.5,,,80.5,
480.0,79.2,,,79.2,
480.75,79.4,,,79.4,
481.5,77.9,,,77.9,
482.25,76.1,,,76.1,
483.0,76.4,,,76.4,
483.75,76.9,,,76.9,
484.5,75.7,,,75.7,
485.25,74.4,,,74.4,
486.0,72.3,,,72.3,
486.75,71.5,,,71.5,
487.5,71.7,,,71.7,
488.25,69.5,,,69.5,
489.0,68.4,,,68.4,
489.75,68.5,,,68.5,
490.5,68.1,,,68.1,
491.25,67.0,,,67.0,
492.0,66.7,,,66.7,
492.75,65.3,,,65.3,
493.5,65.1,,,65.1,
494.25,65.5,,,65.5,
495.0,64.2,,,64.2,
495.75,64.0,,,64.0,
496.5,62.0,,,62.0,
497.25,61.0,,,61.0,
498.0,60.8,,,60.8,
498.75,59.9,,,59.9,
499.5,58.5,,,58.5,
500.25,58.3,,,58.3,
501.0,57.9,,,57.9,
501.75,56.7,,,56.7,
502.5,55.7,,,55.7,
503.25,55.1,,,55.1,
504.0,54.9,,,54.9,
504.75,54.8,,,54.8,
505.5,54.3,,,54.3,
506.25,53.4,,,53.4,
507.0,53.2,,,53.2,
507.75,53.3,,,53.3,
508.5,53.1,,,53.1,
509.25,53.3,,,53.3,
510.0,53.3,,,53.3,
510.75,53.3,,,53.3,
511.5,52.7,,,52.7,
512.25,53.1,,,53.1,
513.0,53.2,,,53.2,
513.75,52.8,,,52.8,
514.5,52.7,,,52.7,
515.25,52.3,,,52.3,
516.0,52.6,,,52.6,
516.75,51.7,,,51.7,
517.5,52.7,,,52.7,
518.25,51.5,,,51.5,
519.0,51.2,,,51.2,
519.75,50.9,,,50.9,
520.5,51.1,,,51.1,
521.25,49.9,,,49.9,
522.0,50.2,,,50.2,
522.75,50.3,,,50.3,
523.5,49.7,,,49.7,
524.25,49.3,,,49.3,
525.0,48.9,,,48.9,
525.75,48.3,,,48.3,
526.5,48.0,,,48.0,
527.25,47.9,,,47.9,
528.0,47.2,,,47.2,
528.75,46.5,,,46.5,
529.5,47.3,,,47.3,
530.25,46.7,,,46.7,
531.0,45.9,,,45.9,
531.75,45.7,,,45.7,
532.5,45.2,,,45.2,
533.25,44.1,,,44.1,
534.0,43.8,,,43.8,
534.75,43.9,,,43.9,
535.5,43.7,,,43.7,
536.25,42.9,,,42.9,
537.0,42.5,,,42.5,
537.75,41.8,,,41.8,
538.5,41.5,,,41.5,
539.25,40.8,,,40.8,
540.0,40.1,,,40.1,
540.75,40.1,,,40.1,
541.5,38.8,,,38.8,
542.25,38.5,,,38.5,
543.0,38.7,,,38.7,
543.75,38.7,,,38.7,
544.5,38.1,,,38.1,
545.25,37.3,,,37.3,
546.0,36.6,,,36.6,
546.75,36.4,,,36.4,
547.5,36.5,,,36.5,
548.25,35.6,,,35.6,
549.0,35.3,,,35.3,
549.75,35.1,,,35.1,
550.5,35.0,,,35.0,
551.25,35.1,,,35.1,
552.0,34.3,,,34.3,
552.75,33.0,,,33.0,
553.5,33.0,,,33.0,
554.25,32.4,,,32.4,
555.0,31.7,,,31.7,
555.75,31.8,,,31.8,
556.5,31.1,,,31.1,
557.25,31.8,,,31.8,
558.0,31.0,,,31.0,
558.75,31.1,,,31.1,
559.5,31.0,,,31.0,
560.25,30.4,,,30.4,
561.0,30.7,,,30.7,
561.75,30.4,,,30.4,
562.5,30.3,,,30.3,
563.25,29.6,,,29.6,
564.0,29.7,,,29.7,
564.75,29.7,,,29.7,
565.5,29.6,,,29.6,
566.25,29.3,,,29.3,
567.0,29.2,,,29.2,
567.75,28.9,,,28.9,
568.5,28.3,,,28.3,
569.25,28.5,,,28.5,
570.0,28.2,,,28.2,
570.75,28.2,,,28.2,
571.5,28.6,,,28.6,
572.25,28.7,,,28.7,
573.0,28.8,,,28.8,
573.75,28.5,,,28.5,
574.5,28.6,,,28.6,
575.25,29.7,,,29.7,
576.0,29.0,,,29.0,
576.75,29.4,,,29.4,
577.5,29.9,,,29.9,
578.25,29.4,,,29.4,
579.0,29.0,,,29.0,
579.75,29.3,,,29.3,
580.5,29.3,,,29.3,
581.25,30.0,,,30.0,
582.0,28.8,,,28.8,
582.75,29.2,,,29.2,
583.5,29.5,,,29.5,
584.25,28.9,,,28.9,
585.0,28.6,,,28.6,
585.75,28.8,,,28.8,
586.5,29.2,,,29.2,
587.25,28.1,,,28.1,
588.0,27.7,,,27.7,
588.75,26.9,,,26.9,
589.5,27.0,,,27.0,
590.25,27.0,,,27.0,
591.0,26.4,,,26.4,
591.75,26.0,,,26.0,
592.5,26.0,,,26.0,
593.25,26.0,,,26.0,
594.0,25.2,,,25.2,
594.75,24.8,,,24.8,
595.5,24.5,,,24.5,
596.25,24.3,,,24.3,
597.0,24.0,,,24.0,
597.75,24.3,,,24.3,
598.5,24.2,,,24.2,
599.25,24.0,,,24.0,
600.0,23.6,,,23.6,
600.75,23.3,,,23.3,
601.5,22.7,,,22.7,
602.25,22.1,,,22.1,
603.0,21.7,,,21.7,
603.75,21.4,,,21.4,
604.5,21.6,,,21.6,
605.25,21.1,,,21.1,
606.0,21.1,,,21.1,
606.75,21.6,,,21.6,
607.5,21.6,,,21.6,
608.25,22.0,,,22.0,
609.0,21.8,,,21.8,
609.75,22.1,,,22.1,
610.5,22.4,,,22.4,
611.25,22.4,,,22.4,
612.0,22.2,,,22.2,
612.75,22.5,,,22.5,
613.5,22.0,,,22.0,
614.25,21.8,,,21.8,
615.0,21.4,,,21.4,
615.75,21.1,,,21.1,
616.5,20.6,,,20.6,
617.25,20.4,,,20.4,
618.0,20.3,,,20.3,
618.75,20.4,,,20.4,
619.5,20.4,,,20.4,
620.25,20.2,,,20.2,
621.0,20.2,,,20.2,
621.75,20.4,,,20.4,
622.5,21.1,,,21.1,
623.25,21.0,,,21.0,
624.0,21.3,,,21.3,
624.75,21.2,,,21.2,
625.5,21.2,,,21.2,
626.25,21.3,,,21.3,
627.0,21.3,,,21.3,
627.75,21.4,,,21.4,
628.5,21.2,,,21.2,
629.25,21.4,,,21.4,
630.0,21.0,,,21.0,
630.75,21.2,,,21.2,
631.5,21.0,,,21.0,
632.25,20.5,,,20.5,
633.0,20.0,,,20.0,
633.75,20.0,,,20.0,
634.5,20.0,,,20.0,
635.25,19.8,,,19.8,
636.0,19.3,,,19.3,
636.75,19.2,,,19.2,
637.5,18.5,,,18.5,
638.25,18.4,,,18.4,
639.0,18.5,,,18.5,
639.75,18.2,,,18.2,
640.5,18.5,,,18.5,
641.25,18.1,,,18.1,
642.0,17.9,,,17.9,
642.75,17.1,,,17.1,
643.5,16.5,,,16.5,
644.25,16.2,,,16.2,
645.0,16.0,,,16.0,
645.75,15.8,,,15.8,
646.5,15.6,,,15.6,
647.25,15.7,,,15.7,
648.0,15.5,,,15.5,
648.75,15.2,,,15.2,
649.5,14.9,,,14.9,
650.25,14.4,,,14.4,
651.0,13.8,,,13.8,
651.75,13.7,,,13.7,
652.5,13.3,,,13.3,
653.25,13.1,,,13.1,
654.0,12.9,,,12.9,
654.75,12.1,,,12.1,
655.5,11.3,,,11.3,
656.25,11.0,,,11.0,
657.0,10.7,,,10.7,
657.75,10.6,,,10.6,
658.5,10.5,,,10.5,
659.25,10.4,,,10.4,
660.0,9.8,,,9.8,
660.75,9.4,,,9.4,
661.5,9.3,,,9.3,
662.25,9.3,,,9.3,
663.0,9.0,,,9.0,
663.75,8.9,,,8.9,
664.5,8.8,,,8.8,
665.25,8.8,,,8.8,
666.0,8.6,,,8.6,
666.75,9.0,,,9.0,
667.5,9.3,,,9.3,
668.25,9.5,,,9.5,
669.0,9.6,,,9.6,
669.75,9.6,,,9.6,
670.5,9.8,,,9.8,
671.25,9.7,,,9.7,
672.0,9.9,,,9.9,
672.75,9.8,,,9.8,
673.5,10.0,,,10.0,
674.25,10.7,,,10.7,
675.0,11.3,,,11.3,
675.75,11.5,,,11.5,
676.5,11.8,,,11.8,
677.25,12.3,,,12.3,
678.0,13.2,,,13.2,
678.75,14.2,,,14.2,
679.5,14.5,,,14.5,
680.25,15.2,,,15.2,
681.0,15.5,,,15.5,
681.75,15.8,,,15.8,
682.5,15.6,,,15.6,
683.25,15.5,,,15.5,
684.0,14.9,,,14.9,
684.75,15.2,,,15.2,
685.5,14.5,,,14.5,
686.25,14.1,,,14.1,
687.0,13.6,,,13.6,
687.75,13.2,,,13.2,
688.5,12.7,,,12.7,
689.25,12.2,,,12.2,
690.0,12.0,,,12.0,
690.75,11.7,,,11.7,
691.5,11.4,,,11.4,
692.25,11.3,,,11.3,
693.0,11.2,,,11.2,
693.75,11.3,,,11.3,
694.5,11.1,,,11.1,
695.25,10.8,,,10.8,
696.0,10.5,,,10.5,
696.75,10.1,,,10.1,
697.5,10.1,,,10.1,
698.25,9.9,,,9.9,
699.0,9.8,,,9.8,
699.75,9.9,,,9.9,
700.5,9.9,,,9.9,
701.25,9.9,,,9.9,
702.0,9.7,,,9.7,
702.75,9.7,,,9.7,
703.5,10.0,,,10.0,
704.25,10.3,,,10.3,
705.0,10.3,,,10.3,
705.75,10.5,,,10.5,
706.5,10.7,,,10.7,
707.25,10.7,,,10.7,
708.0,10.5,,,10.5,
708.75,10.6,,,10.6,
709.5,11.1,,,11.1,
710.25,11.4,,,11.4,
711.0,11.7,,,11.7,
711.75,11.8,,,11.8,
712.5,11.9,,,11.9,
713.25,11.9,,,11.9,
714.0,12.2,,,12.2,
714.75,12.0,,,12.0,
715.5,12.2,,,12.2,
716.25,12.2,,,12.2,
717.0,12.1,,,12.1,
717.75,12.3,,,12.3,
718.5,12.3,,,12.3,
719.25,12.4,,,12.4,
720.0,12.5,,,12.5,
720.75,12.5,,,12.5,
721.5,12.5,,,12.5,
722.25,12.4,,,12.4,
723.0,12.2,,,12.2,
723.75,11.7,,,11.7,
724.5,10.8,,,10.8,
725.25,10.1,,,10.1,
726.0,9.5,,,9.5,
726.75,9.3,,,9.3,
727.5,9.0,,,9.0,
728.25,8.6,,,8.6,
729.0,8.5,,,8.5,
729.75,8.5,,,8.5,
730.5,8.3,,,8.3,
731.25,8.2,,,8.2,
732.0,8.2,,,8.2,
732.75,8.2,,,8.2,
733.5,7.8,,,7.8,
734.25,7.6,,,7.6,
735.0,7.4,,,7.4,
735.75,7.3,,,7.3,
736.5,7.1,,,7.1,
737.25,7.0,,,7.0,
738.0,7.0,,,7.0,
738.75,6.9,,,6.9,
739.5,6.5,,,6.5,
740.25,6.3,,,6.3,
741.0,6.1,,,6.1,
741.75,5.8,,,5.8,
742.5,5.8,,,5.8,
743.25,5.7,,,5.7,
744.0,5.5,,,5.5,
744.75,5.6,,,5.6,
745.5,5.5,,,5.5,
746.25,5.5,,,5.5,
747.0,6.1,,,6.1,
747.75,6.4,,,6.4,
748.5,6.4,,,6.4,
749.25,6.3,,,6.3,
750.0,6.4,,,6.4,
750.75,5.9,,,5.9,
751.5,5.8,,,5.8,
752.25,5.6,,,5.6,
753.0,5.4,,,5.4,
753.75,5.3,,,5.3,
754.5,5.1,,,5.1,
755.25,4.7,,,4.7,
756.0,4.4,,,4.4,
756.75,4.2,,,4.2,
757.5,4.1,,,4.1,
758.25,4.0,,,4.0,
759.0,3.9,,,3.9,
759.75,3.8,,,3.8,
760.5,4.0,,,4.0,
761.25,4.3,,,4.3,
762.0,4.5,,,4.5,
762.75,4.6,,,4.6,
763.5,4.6,,,4.6,
764.25,4.4,,,4.4,
765.0,4.2,,,4.2,
765.75,4.0,,,4.0,
766.5,4.0,,,4.0,
767.25,3.9,,,3.9,
768.0,3.9,,,3.9,
768.75,3.8,,,3.8,
769.5,3.8,,,3.8,
770.25,3.7,,,3.7,
771.0,3.7,,,3.7,
771.75,3.7,,,3.7,
772.5,3.3,,,3.3,
773.25,3.1,,,3.1,
774.0,2.9,,,2.9,
774.75,2.7,,,2.7,
775.5,2.6,,,2.6,
776.25,2.5,,,2.5,
777.0,2.5,,,2.5,
777.75,2.4,,,2.4,
778.5,2.4,,,2.4,
779.25,2.4,,,2.4,
780.0,2.4,,,2.4,
780.75,2.3,,,2.3,
781.5,2.4,,,2.4,
782.25,2.7,,,2.7,
783.0,3.0,,,3.0,
783.75,3.2,,,3.2,
784.5,3.3,,,3.3,
785.25,3.4,,,3.4,
786.0,3.5,,,3.5,
786.75,3.5,,,3.5,
787.5,3.5,,,3.5,
788.25,3.5,,,3.5,
789.0,3.0,,,3.0,
789.75,2.7,,,2.7,
790.5,2.5,,,2.5,
791.25,2.3,,,2.3,
792.0,2.4,,,2.4,
792.75,2.8,,,2.8,
793.5,3.2,,,3.2,
794.25,3.5,,,3.5,
795.0,3.8,,,3.8,
795.75,3.8,,,3.8,
796.5,3.6,,,3.6,
797.25,3.5,,,3.5,
798.0,3.4,,,3.4,
798.75,3.1,,,3.1,
799.5,2.9,,,2.9,
800.25,2.7,,,2.7,
801.0,2.9,,,2.9,
801.75,3.1,,,3.1,
802.5,3.2,,,3.2,
803.25,3.3,,,3.3,
804.0,3.4,,,3.4,
804.75,3.5,,,3.5,
805.5,3.5,,,3.5,
806.25,3.5,,,3.5,
807.0,3.6,,,3.6,
807.75,3.5,,,3.5,
808.5,3.5,,,3.5,
809.25,3.4,,,3.4,
810.0,3.0,,,3.0,
810.75,2.6,,,2.6,
811.5,2.4,,,2.4,
812.25,2.2,,,2.2,
813.0,2.2,,,2.2,
813.75,2.5,,,2.5,
814.5,2.7,,,2.7,
815.25,2.8,,,2.8,
816.0,3.0,,,3.0,
816.75,3.2,,,3.2,
817.5,3.4,,,3.4,
818.25,3.5,,,3.5,
819.0,3.7,,,3.7,
819.75,3.7,,,3.7,
820.5,3.7,,,3.7,
821.25,3.8,,,3.8,
822.0,3.8,,,3.8,
822.5,3.8,,,3.8,