File: 01_Data/Pressure_Treated_Deck/Cone/Pressure_Treated_Deck_Cone_HF50Scan_230612_R1.csv
Names,Time,Stack TC,Smoke TC,Exh Press,Smoke Comp,Smoke Meas,CO Meter,CO2 Meter,O2 Meter,Sample Mass,Ext Coeff,Start Test,Flame Verif
Chan Gain,,500,500,1,1,1,1,1,1,1,1,1.0,1.0
Offset,,0,0,0.13972,0,0,0,0,0,0,0,0.0,0.0
Gain,,1,1,25.011,13.4433,15.8108,1,1,1,1.0009,1.01862,1.0,1.0
Units,sec,C,C,Pa,%,%,%,%,%,g,/m,,
Baseline,,34.3413,37.096,154.732,101.404,101.449,0.000614397,0.0464676,20.9655,-444.374,-0.00400759,,
10,2.25,31.4492,32.7154,157.697,100.275,100.431,0.000232716,0.0509173,20.9656,203.674,-0.0139134,0.0,0.0
20,4.75,31.9144,33.0638,154.749,100.362,100.693,0.000158877,0.0510673,20.9627,203.404,-0.0293738,0.0,0.0
30,7.25,32.0186,33.8302,152.302,100.42,100.211,0.000299633,0.0510429,20.9618,203.364,0.0186507,0.0,0.0
40,9.75,31.9219,34.3749,153.108,100.516,100.106,0.000789801,0.0516086,20.9614,203.304,0.036536,0.0,0.0
50,12.25,32.4047,34.6018,150.015,100.577,100.089,0.00121491,0.0511764,20.9597,203.134,0.0434763,0.0,0.0
60,14.75,32.4647,34.4822,152.872,100.664,99.6554,0.00126308,0.0508161,20.9603,203.114,0.0899652,0.0,0.0
70,17.25,32.8112,35.2213,155.992,100.737,100.147,0.000976874,0.0527099,20.9606,202.933,0.052468,0.0,0.0
80,19.75,32.9123,35.6461,154.326,100.812,99.7833,0.000685001,0.0561163,20.9603,202.873,0.0916807,0.0,0.0
90,22.25,32.7435,35.687,156.081,100.883,99.5425,0.00068771,0.0581358,20.9578,202.753,0.119519,0.0,0.0
100,24.75,32.979,35.4552,153.106,100.966,98.8699,0.000699391,0.0575461,20.9555,202.733,0.187473,0.0,0.0
110,27.25,32.8503,35.8313,155.152,101.025,97.9527,0.000746471,0.0555726,20.9557,202.563,0.275981,0.0,0.0
120,29.75,33.1679,35.7987,152.649,101.087,97.076,0.000869608,0.0537719,20.9565,202.473,0.361793,0.0,0.0
130,32.25,33.8767,36.2094,147.549,101.142,101.361,0.00103236,0.0528843,20.9592,202.263,-0.0193489,0.0,1.0
140,34.75,34.1807,39.8614,141.173,101.184,101.802,0.00112518,0.0524401,20.9618,201.953,-0.0543665,0.0,1.0
150,37.25,34.7034,43.0664,142.25,101.229,101.367,0.00111832,0.0527658,20.9629,201.612,-0.0121789,0.0,0.0
160,39.75,37.3676,48.0936,139.833,101.249,101.756,0.00143086,0.0718948,20.9627,201.312,-0.0446261,0.0,0.0
170,42.25,39.6269,51.7981,139.742,101.259,101.06,0.00187067,0.154107,20.955,200.852,0.0175983,0.0,0.0
180,44.75,41.3342,54.9205,139.067,101.242,100.618,0.00217995,0.268804,20.9061,200.401,0.0552705,0.0,0.0
190,47.25,43.1169,57.6493,138.417,101.234,100.549,0.00234603,0.350864,20.7725,200.081,0.0606825,0.0,0.0
200,49.75,44.6064,60.2112,143.787,101.194,99.7476,0.00251089,0.401615,20.6554,199.56,0.128632,0.0,0.0
210,52.25,46.7221,62.3474,136.715,101.165,99.4171,0.00290116,0.436491,20.5809,199.2,0.155715,0.0,0.0
220,54.75,47.9229,63.6589,128.77,101.095,99.0176,0.00310396,0.456885,20.5314,198.8,0.185534,0.0,0.0
230,57.25,50.077,66.0074,146.188,101.045,99.0808,0.00311701,0.471851,20.4972,198.479,0.175369,0.0,0.0
240,59.75,50.997,66.7573,137.082,100.952,98.6586,0.00323819,0.481915,20.4742,197.969,0.205322,0.0,0.0
250,62.25,52.2537,67.5403,135.476,100.913,97.6,0.00354333,0.487889,20.4584,197.669,0.298266,0.0,0.0
260,64.75,52.7197,68.4829,141.553,100.819,97.4827,0.00373953,0.489204,20.4484,197.178,0.300721,0.0,0.0
270,67.25,53.6358,69.0697,140.258,100.733,98.4429,0.00392611,0.48735,20.4432,196.768,0.205501,0.0,0.0
280,69.75,54.5587,69.6935,139.649,100.666,98.6943,0.00400118,0.481826,20.443,196.468,0.176707,0.0,0.0
290,72.25,55.0577,69.9671,141.809,100.605,97.9319,0.00410837,0.476158,20.4469,196.057,0.24064,0.0,0.0
300,74.75,55.9642,70.8441,138.63,100.576,98.1278,0.00416363,0.47205,20.453,195.637,0.220197,0.0,0.0
310,77.25,56.4745,70.7058,136.873,100.531,96.7594,0.00412002,0.470659,20.4591,195.236,0.341702,0.0,0.0
320,79.75,56.5295,70.5246,139.28,100.503,96.7223,0.00415653,0.469585,20.4623,194.786,0.342654,0.0,0.0
330,82.25,57.1999,70.2057,135.647,100.517,96.4661,0.0042202,0.466547,20.4634,194.416,0.367594,0.0,0.0
340,84.75,57.3135,70.7866,136.257,100.599,97.0152,0.00421975,0.460156,20.4655,194.075,0.324169,0.0,0.0
350,87.25,57.9634,70.3552,141.874,100.658,97.3573,0.00419639,0.447936,20.4729,193.685,0.297889,0.0,0.0
360,89.75,58.5079,71.0129,139.325,100.704,96.7696,0.00438829,0.445541,20.4869,193.405,0.356141,0.0,0.0
370,92.25,58.7572,71.283,138.221,100.745,98.3261,0.00450527,0.449703,20.4955,192.954,0.217125,0.0,0.0
380,94.75,58.8898,71.0743,133.182,100.776,97.0258,0.0044542,0.446715,20.4922,192.744,0.338847,0.0,0.0
390,97.25,59.2235,71.2699,137.05,100.755,97.7819,0.00442456,0.442464,20.4915,192.214,0.267669,0.0,0.0
400,99.75,59.0831,71.2108,135.789,100.771,97.931,0.00457908,0.437569,20.4972,191.964,0.255437,0.0,0.0
410,102.25,59.9687,71.1117,143.068,100.773,98.1085,0.00485264,0.429855,20.502,191.583,0.239432,0.0,0.0
420,104.75,59.5541,70.6608,135.562,100.762,97.3746,0.00484796,0.423624,20.511,191.333,0.305542,0.0,0.0
430,107.25,60.1816,70.9157,134.018,100.751,97.6733,0.00459932,0.416808,20.519,190.943,0.277231,0.0,0.0
440,109.75,60.0591,70.1503,137.786,100.746,97.9527,0.00437341,0.411386,20.5254,190.542,0.251201,0.0,0.0
450,112.25,60.2079,70.6308,138.207,100.721,97.407,0.00416113,0.405231,20.5331,190.342,0.298936,0.0,0.0
460,114.75,60.068,70.5163,142.789,100.697,97.4842,0.00404149,0.40159,20.5393,189.872,0.289745,0.0,0.0
470,117.25,60.3357,70.5273,140.872,100.691,97.7992,0.00414158,0.398497,20.5468,189.641,0.260404,0.0,0.0
480,119.75,60.4117,70.6003,134.906,100.652,98.2412,0.00422179,0.395519,20.5507,189.251,0.216583,0.0,0.0
490,122.25,60.6036,70.4271,137.77,100.627,97.5353,0.00419704,0.390855,20.5534,189.031,0.278832,0.0,0.0
500,124.75,60.5096,70.6477,145.003,100.575,97.9314,0.00413781,0.389511,20.5584,188.641,0.237987,0.0,0.0
510,127.25,60.3836,70.0288,142.296,100.558,97.4663,0.00411557,0.389572,20.5609,188.38,0.27907,0.0,0.0
520,129.75,60.7429,70.2912,135.709,100.493,97.8759,0.00418722,0.387141,20.5618,188.03,0.235796,0.0,0.0
530,132.25,60.3629,69.4119,140.904,100.48,97.3524,0.00427806,0.380876,20.5638,187.7,0.282512,0.0,0.0
540,134.75,60.7,69.3602,142.862,100.464,99.1507,0.00424328,0.376103,20.5699,187.369,0.117543,0.0,0.0
550,137.25,60.7787,68.4912,138.153,100.475,97.5628,0.00413801,0.371989,20.5769,187.059,0.262824,0.0,0.0
560,139.75,60.6482,68.7622,135.418,100.499,98.0429,0.0041579,0.368288,20.5814,186.719,0.221043,0.0,0.0
570,142.25,60.4692,68.998,139.948,100.524,98.1322,0.00401539,0.363674,20.587,186.469,0.215172,0.0,0.0
580,144.75,60.2999,68.8733,141.581,100.53,97.8388,0.00371136,0.359289,20.5923,186.118,0.242434,0.0,0.0
590,147.25,59.9161,69.0347,138.195,100.547,98.7811,0.00356751,0.360083,20.5975,185.818,0.158281,0.0,0.0
600,149.75,60.222,68.2874,142.728,100.567,98.9601,0.00359688,0.360523,20.5987,185.548,0.143962,0.0,0.0
610,152.25,60.08,67.8596,139.826,100.583,98.6677,0.00354391,0.358818,20.5984,185.087,0.171824,0.0,0.0
620,154.75,60.1649,67.9826,139.712,100.624,98.6682,0.00348993,0.356509,20.5984,184.887,0.175388,0.0,0.0
630,157.25,59.8967,67.9707,140.387,100.657,97.8402,0.00335739,0.352743,20.6009,184.487,0.253599,0.0,0.0
640,159.75,59.9867,67.6901,137.23,100.71,98.4178,0.00312985,0.347152,20.6036,184.307,0.205704,0.0,0.0
650,162.25,59.4789,67.7794,140.574,100.724,98.6344,0.00308797,0.345386,20.61,183.926,0.187295,0.0,0.0
660,164.75,59.6141,67.9154,140.396,100.795,98.7985,0.00316978,0.344438,20.6146,183.696,0.178776,0.0,0.0
670,167.25,59.6887,67.9121,143.621,100.842,99.2738,0.00327666,0.344041,20.616,183.336,0.140077,0.0,0.0
680,169.75,60.0466,68.407,145.762,100.912,100.077,0.00335406,0.34227,20.6167,183.106,0.0742447,0.0,0.0
690,172.25,59.9781,67.8392,140.031,100.961,99.4779,0.00334975,0.340751,20.619,182.725,0.13219,0.0,0.0
700,174.75,60.1546,67.6417,140.909,100.986,99.5937,0.0031845,0.339367,20.6213,182.545,0.124045,0.0,0.0
710,177.25,59.8776,67.451,145.491,101.006,99.8528,0.00304052,0.337688,20.623,182.075,0.102571,0.0,0.0
720,179.75,59.7747,67.103,140.618,101.065,99.7987,0.0030543,0.334949,20.6252,181.924,0.112632,0.0,0.0
730,182.25,59.5778,67.7109,138.228,101.091,99.543,0.00309106,0.330922,20.6266,181.614,0.137916,0.0,0.0
740,184.75,59.4022,67.5769,140.082,101.125,99.8861,0.0031641,0.32908,20.6313,181.274,0.110183,0.0,0.0
750,187.25,59.7589,67.3694,140.357,101.145,99.7399,0.00321003,0.328916,20.6349,181.024,0.124975,0.0,0.0
760,189.75,59.7554,67.8669,141.008,101.17,99.6313,0.00303546,0.327884,20.6362,180.673,0.136916,0.0,0.0
770,192.25,59.5253,67.1529,138.592,101.181,100.146,0.00303429,0.327508,20.6368,180.493,0.0918842,0.0,0.0
780,194.75,59.6005,66.2829,141.17,101.192,100.517,0.00313888,0.325921,20.6384,180.123,0.0598541,0.0,0.0
790,197.25,59.4658,67.0834,141.228,101.216,100.695,0.00324417,0.322828,20.6394,179.963,0.0461068,0.0,0.0
800,199.75,59.3643,66.1324,143.325,101.191,100.133,0.00333143,0.319332,20.6424,179.582,0.0939461,0.0,0.0
810,202.25,59.1897,66.6539,138.099,101.194,100.709,0.00319463,0.317172,20.6457,179.422,0.0429018,0.0,0.0
820,204.75,59.4177,66.6106,145.145,101.166,100.48,0.0030621,0.31698,20.6485,179.052,0.0607957,0.0,0.0
830,207.25,59.3552,66.7174,137.689,101.172,100.158,0.002977,0.315751,20.6506,178.842,0.0900116,0.0,0.0
840,209.75,59.241,66.7889,138.302,101.104,100.459,0.00294997,0.315508,20.6513,178.481,0.0571324,0.0,0.0
850,212.25,59.6401,66.4782,140.065,101.064,100.142,0.00294232,0.315441,20.6516,178.231,0.0819338,0.0,0.0
860,214.75,59.1967,66.8817,142.618,101.017,100.793,0.00284709,0.314891,20.6517,177.881,0.019873,0.0,0.0
870,217.25,58.4595,66.9853,143.003,100.961,100.468,0.00284633,0.312979,20.6521,177.691,0.0436968,0.0,0.0
880,219.75,59.2418,66.7266,136.283,100.902,100.874,0.00294581,0.311012,20.6542,177.36,0.00244315,0.0,0.0
890,222.25,59.335,66.6415,140.591,100.816,100.181,0.00288228,0.308998,20.6567,177.09,0.0564328,0.0,0.0
900,224.75,59.5688,66.454,145.641,100.745,99.8866,0.00274914,0.308105,20.6588,176.84,0.0764375,0.0,0.0
910,227.25,59.6591,66.4986,140.974,100.643,100.621,0.00270222,0.307303,20.6612,176.51,0.00192029,0.0,0.0
920,229.75,59.0178,66.1696,137.236,100.572,99.8277,0.0027653,0.305746,20.6636,176.319,0.0663366,0.0,0.0
930,232.25,59.5251,66.2136,140.245,100.463,99.9864,0.00279078,0.304412,20.6647,175.929,0.0424746,0.0,0.0
940,234.75,59.3312,65.8895,140.348,100.361,100.258,0.00276296,0.302899,20.6667,175.759,0.00917807,0.0,0.0
950,237.25,58.9682,66.1029,143.803,100.258,99.7259,0.00274679,0.301701,20.6686,175.389,0.0475267,0.0,0.0
960,239.75,58.9955,66.4535,139.613,100.195,100.42,0.0026684,0.300403,20.6706,175.248,-0.0200641,0.0,0.0
970,242.25,59.1818,66.5334,142.799,100.096,99.9131,0.00266157,0.299825,20.6715,174.818,0.0163502,0.0,0.0
980,244.75,59.2332,65.4435,143.72,100.056,99.5199,0.00263018,0.300449,20.6719,174.628,0.0479982,0.0,0.0
990,247.25,58.8427,66.1852,140.078,99.9911,99.8677,0.00253401,0.30067,20.672,174.338,0.0110272,0.0,0.0
1000,249.75,59.0095,66.1777,140.087,99.9816,99.6067,0.00248324,0.299834,20.6712,174.157,0.0335705,0.0,0.0
1010,252.25,59.3316,65.9872,139.934,99.9529,99.6217,0.00250641,0.296905,20.6711,173.787,0.0296603,0.0,0.0
1020,254.75,59.1538,66.0537,141.647,99.9771,99.7384,0.00266533,0.298224,20.6735,173.567,0.0213576,0.0,0.0
1030,257.25,59.3474,65.6632,141.116,100.026,100.031,0.00274344,0.30031,20.6741,173.247,-0.000436728,0.0,0.0
1040,259.75,59.2238,66.312,141.709,100.046,100.095,0.00266753,0.298476,20.6726,173.006,-0.00436504,0.0,0.0
1050,262.25,58.7824,65.8295,142.642,100.115,100.006,0.00260218,0.29649,20.6726,172.776,0.00975371,0.0,0.0
1060,264.75,59.0536,66.3071,146.437,100.186,100.343,0.00260365,0.296263,20.6744,172.396,-0.0140403,0.0,0.0
1070,267.25,58.6117,65.9019,139.946,100.276,100.475,0.00238009,0.295209,20.6751,172.196,-0.0177163,0.0,0.0
1080,269.75,59.0176,65.6094,142.384,100.332,100.529,0.00219804,0.293741,20.6766,171.815,-0.0174714,0.0,0.0
1090,272.25,58.7889,65.1269,137.189,100.401,100.343,0.00231704,0.292504,20.6782,171.635,0.00514859,0.0,0.0
1100,274.75,58.7713,65.9994,139.138,100.475,99.9922,0.00238182,0.291884,20.6799,171.265,0.0430152,0.0,0.0
1110,277.25,58.9682,65.4131,137.247,100.557,100.824,0.002283,0.290289,20.6818,171.105,-0.0237164,0.0,0.0
1120,279.75,58.8585,65.9393,137.895,100.601,100.209,0.00227208,0.289156,20.6842,170.744,0.0349064,0.0,0.0
1130,282.25,59.0458,65.6433,141.754,100.669,100.469,0.00244081,0.292544,20.6851,170.534,0.0177153,0.0,0.0
1140,284.75,58.7597,65.27,139.955,100.706,100.845,0.00254447,0.295042,20.6825,170.184,-0.0122951,0.0,0.0
1150,287.25,59.118,65.0871,140.131,100.75,100.632,0.00255517,0.295056,20.6798,170.034,0.0105091,0.0,0.0
1160,289.75,58.6839,65.6682,145.365,100.776,100.607,0.00249442,0.294232,20.678,169.693,0.0149924,0.0,0.0
1170,292.25,58.3511,65.2353,143.646,100.822,100.638,0.00247738,0.293582,20.6783,169.483,0.0163236,0.0,0.0
1180,294.75,59.1318,65.1379,141.354,100.807,100.658,0.00254704,0.29283,20.6795,169.123,0.0132515,0.0,0.0
1190,297.25,58.6082,65.4103,137.771,100.822,100.654,0.0025478,0.291859,20.6804,168.863,0.0149105,0.0,0.0
1200,299.75,59.2293,65.0704,145.419,100.826,100.151,0.00232686,0.291278,20.6811,168.642,0.0600107,0.0,0.0
1210,302.25,58.2309,64.9741,137.062,100.816,101.165,0.00227377,0.289815,20.6814,168.262,-0.0309235,0.0,0.0
1220,304.75,58.5935,64.7102,140.214,100.803,101.132,0.00233978,0.289011,20.6829,168.062,-0.0291889,0.0,0.0
1230,307.25,58.2242,65.0396,144.853,100.799,101.249,0.00238537,0.287766,20.6847,167.712,-0.0397475,0.0,0.0
1240,309.75,59.0022,65.0573,137.553,100.77,101.42,0.00243424,0.28633,20.6857,167.521,-0.0574706,0.0,0.0
1250,312.25,58.8406,65.0509,142.204,100.718,101.328,0.00255551,0.287985,20.6861,167.181,-0.0540112,0.0,0.0
1260,314.75,58.262,65.0421,139.804,100.697,100.443,0.0026069,0.289214,20.6862,166.961,0.0225084,0.0,0.0
1270,317.25,59.0848,65.3266,138.686,100.655,101.297,0.00263438,0.288692,20.6849,166.591,-0.0568156,0.0,0.0
1280,319.75,58.5135,65.0469,144.082,100.623,100.726,0.00267159,0.285584,20.6845,166.44,-0.00912193,0.0,0.0
1290,322.25,58.6487,64.6018,143.605,100.557,100.629,0.00261566,0.282344,20.6879,166.11,-0.00634424,0.0,0.0
1300,324.75,58.3476,64.9917,139.381,100.523,100.998,0.002408,0.282515,20.6917,165.91,-0.0421295,0.0,0.0
1310,327.25,58.8618,65.0422,147.055,100.464,100.513,0.0021418,0.281284,20.6932,165.6,-0.0043725,0.0,0.0
1320,329.75,58.9156,65.1535,143.528,100.423,100.121,0.00207637,0.280601,20.6938,165.339,0.0269495,0.0,0.0
1330,332.25,58.4835,64.7947,135.657,100.357,100.217,0.00225749,0.281426,20.6939,165.079,0.0124314,0.0,0.0
1340,334.75,58.325,64.5396,143.622,100.297,100.696,0.00231162,0.281317,20.694,164.809,-0.0354834,0.0,0.0
1350,337.25,58.2445,65.0316,135.241,100.252,100.848,0.00224171,0.280997,20.6927,164.549,-0.0529381,0.0,0.0
1360,339.75,58.5234,64.5756,137.308,100.189,100.778,0.00220312,0.280222,20.692,164.238,-0.0523756,0.0,0.0
1370,342.25,58.0024,64.4933,142.557,100.163,100.041,0.0021247,0.279673,20.6931,164.048,0.0108836,0.0,0.0
1380,344.75,58.8056,64.8157,141.188,100.097,100.026,0.00228186,0.279832,20.6946,163.718,0.00636848,0.0,0.0
1390,347.25,57.9813,64.2351,138.319,100.067,100.328,0.00240403,0.279396,20.6951,163.568,-0.0232834,0.0,0.0
1400,349.75,58.2349,64.7633,138.556,100.03,100.426,0.00230653,0.278238,20.6953,163.238,-0.0352197,0.0,0.0
1410,352.25,58.1206,64.4568,140.194,100.007,100.335,0.00220396,0.278115,20.6956,163.017,-0.0292771,0.0,0.0
1420,354.75,58.7347,64.545,140.632,99.9763,99.709,0.00222847,0.277973,20.6953,162.657,0.0239214,0.0,0.0
1430,357.25,58.5273,64.5487,144.679,99.987,100.32,0.00226444,0.279029,20.696,162.467,-0.0297414,0.0,0.0
1440,359.75,58.3759,65.0995,136.362,99.9779,99.8923,0.00226284,0.280431,20.6966,162.147,0.00765312,0.0,0.0
1450,362.25,58.6233,64.9502,139.598,100.028,100.438,0.00236374,0.280139,20.6964,162.006,-0.036556,0.0,0.0
1460,364.75,58.6997,64.6601,139.178,100.04,100.104,0.00232761,0.279726,20.6963,161.616,-0.00570311,0.0,0.0
1470,367.25,58.6623,64.7993,139.62,100.089,100.697,0.0021851,0.280139,20.6946,161.446,-0.0541554,0.0,0.0
1480,369.75,58.6913,65.1754,138.595,100.131,100.254,0.00211551,0.28159,20.6935,161.116,-0.0109129,0.0,0.0
1490,372.25,58.7539,65.06,140.552,100.174,100.449,0.00210816,0.280844,20.6913,160.895,-0.0245068,0.0,0.0
1500,374.75,58.2411,64.7812,139.411,100.266,100.377,0.00216454,0.281029,20.6903,160.675,-0.00991472,0.0,0.0
1510,377.25,58.6387,65.3689,143.163,100.337,100.281,0.00220959,0.280848,20.69,160.315,0.00499529,0.0,0.0
1520,379.75,58.4806,64.7582,139.645,100.438,100.592,0.00206389,0.279597,20.6898,160.165,-0.0137027,0.0,0.0
1530,382.25,58.2533,65.0982,138.765,100.509,100.744,0.00188732,0.279956,20.6913,159.814,-0.0208814,0.0,0.0
1540,384.75,58.6798,65.2658,141.483,100.602,100.719,0.00181688,0.278731,20.6918,159.624,-0.0104234,0.0,0.0
1550,387.25,58.992,64.981,138.633,100.675,101.411,0.00178137,0.278391,20.6927,159.334,-0.0650692,0.0,0.0
1560,389.75,58.7176,65.4049,141.447,100.777,100.922,0.00190884,0.281293,20.6951,159.134,-0.0128743,0.0,0.0
1570,392.25,59.2679,65.0341,139.376,100.839,100.853,0.0020611,0.285675,20.6964,158.784,-0.00119306,0.0,0.0
1580,394.75,59.0326,65.0524,141.19,100.933,100.967,0.00200918,0.287638,20.6922,158.583,-0.00304103,0.0,0.0
1590,397.25,58.5843,65.369,140.181,101.002,101.241,0.00206912,0.28661,20.689,158.303,-0.0210832,0.0,0.0
1600,399.75,59.2253,65.6914,138.295,101.072,101.273,0.00216338,0.283708,20.689,158.073,-0.0177259,0.0,0.0
1610,402.25,59.2717,65.1877,140.783,101.128,101.225,0.00223963,0.283322,20.6905,157.733,-0.00857922,0.0,0.0
1620,404.75,58.7426,65.384,138.245,101.161,101.133,0.00232109,0.284703,20.6914,157.532,0.00245913,0.0,0.0
1630,407.25,58.9979,65.5267,137.398,101.211,101.714,0.00235207,0.285414,20.6909,157.262,-0.0443429,0.0,0.0
1640,409.75,59.2348,64.7728,139.743,101.21,101.642,0.0021578,0.283314,20.69,156.962,-0.0380193,0.0,0.0
1650,412.25,59.329,65.2303,144.196,101.221,101.851,0.00208742,0.284393,20.6913,156.722,-0.0554613,0.0,0.0
1660,414.75,58.7956,64.8498,139.84,101.185,101.764,0.00220129,0.285045,20.6909,156.401,-0.0509898,0.0,0.0
1670,417.25,59.0944,65.5598,138.127,101.16,101.513,0.00229015,0.284657,20.6907,156.241,-0.0310999,0.0,0.0
1680,419.75,58.3217,65.1148,139.522,101.075,101.491,0.00224364,0.28489,20.6901,155.941,-0.0366929,0.0,0.0
1690,422.25,58.7071,65.3264,141.99,101.03,101.658,0.00207326,0.282955,20.6904,155.761,-0.0553691,0.0,0.0
1700,424.75,59.1808,65.1046,142.531,100.931,101.386,0.00195692,0.283555,20.6905,155.4,-0.040167,0.0,0.0
1710,427.25,59.0516,65.3831,139.042,100.846,101.426,0.00203426,0.284888,20.6904,155.29,-0.0511805,0.0,0.0
1720,429.75,59.1961,65.624,138.669,100.733,100.928,0.00212602,0.285244,20.6891,154.92,-0.0172435,0.0,0.0
1730,432.25,59.3064,65.4932,142.095,100.647,100.452,0.00221086,0.285154,20.687,154.64,0.0172932,0.0,0.0
1740,434.75,59.186,65.4641,139.595,100.547,100.654,0.00216351,0.285455,20.6863,154.33,-0.00948446,0.0,0.0
1750,437.25,58.1376,65.3047,140.987,100.508,101.356,0.00211571,0.286132,20.6868,154.149,-0.0750537,0.0,0.0
1760,439.75,59.5392,65.4294,138.137,100.499,100.97,0.00200367,0.285669,20.6875,153.899,-0.0418411,0.0,0.0
1770,442.25,59.008,65.6588,142.363,100.639,101.342,0.00190823,0.285877,20.6877,153.649,-0.0621566,0.0,0.0
1780,444.75,59.3211,65.7533,140.011,100.766,101.466,0.00213648,0.287289,20.6892,153.419,-0.0619137,0.0,0.0
1790,447.25,59.6656,65.5217,139.518,100.913,101.13,0.0024627,0.286705,20.6884,153.138,-0.0192053,0.0,0.0
1800,449.75,59.4045,65.7936,143.678,101.06,101.279,0.00249112,0.287067,20.688,152.868,-0.0193307,0.0,0.0
1810,452.25,59.6183,65.6936,139.275,101.148,101.187,0.00247032,0.287483,20.6879,152.538,-0.00340065,0.0,0.0
1820,454.75,58.8705,65.7822,143.954,101.222,100.891,0.00243267,0.288915,20.6871,152.318,0.0292409,0.0,0.0
1830,457.25,59.1679,65.6962,139.849,101.242,101.659,0.00239272,0.289692,20.686,151.977,-0.0367576,0.0,0.0
1840,459.75,59.2906,66.2505,138.146,101.233,101.163,0.00241049,0.288796,20.685,151.827,0.00622798,0.0,0.0
1850,462.25,59.788,66.001,141.209,101.184,101.335,0.00239097,0.289338,20.6838,151.497,-0.0132775,0.0,0.0
1860,464.75,59.5219,66.2418,140.843,101.15,101.25,0.00231544,0.290666,20.6833,151.337,-0.00875728,0.0,0.0
1870,467.25,59.8546,66.2759,137.806,101.041,100.944,0.00225107,0.292767,20.6817,150.986,0.00856301,0.0,0.0
1880,469.75,59.8121,66.4881,137.712,100.946,100.422,0.00225219,0.293977,20.6784,150.846,0.0464671,0.0,0.0
1890,472.25,59.6124,66.4583,141.165,100.821,100.399,0.00222166,0.29472,20.6768,150.526,0.0375182,0.0,0.0
1900,474.75,60.0229,66.1954,138.555,100.893,100.536,0.00222414,0.294059,20.6763,150.306,0.0316114,0.0,0.0
1910,477.25,59.439,66.3191,138.73,100.963,100.715,0.00221629,0.295546,20.6759,149.966,0.0219282,0.0,0.0
1920,479.75,59.9197,65.9528,143.419,101.042,100.723,0.00208085,0.296297,20.6744,149.765,0.0282896,0.0,0.0
1930,482.25,59.8882,66.4112,140.876,101.138,101.275,0.00206181,0.296467,20.6741,149.525,-0.0120583,0.0,0.0
1940,484.75,60.0191,66.4741,137.472,101.232,101.329,0.0021254,0.296712,20.6753,149.215,-0.00860748,0.0,0.0
1950,487.25,59.868,67.0085,137.349,101.323,101.295,0.00213111,0.299239,20.6758,148.945,0.00244315,0.0,0.0
1960,489.75,60.3317,66.9034,139.82,101.399,101.583,0.00211504,0.299949,20.675,148.694,-0.0161913,0.0,0.0
1970,492.25,60.4281,66.6787,134.465,101.483,101.03,0.00217819,0.299383,20.6726,148.484,0.0399872,0.0,0.0
1980,494.75,60.3088,67.223,141.83,101.542,101.243,0.00228252,0.301114,20.6717,148.134,0.0263038,0.0,0.0
1990,497.25,60.4491,66.4997,141.752,101.622,101.245,0.00227679,0.301811,20.6706,147.854,0.0332479,0.0,0.0
2000,499.75,60.0992,67.077,137.573,101.669,101.088,0.00221545,0.301533,20.6695,147.543,0.0511739,0.0,0.0
2010,502.25,60.2066,66.9299,138.351,101.713,101.473,0.00219837,0.301695,20.6691,147.373,0.0211334,0.0,0.0
2020,504.75,60.2927,66.8246,140.727,101.731,102.045,0.00214287,0.302687,20.6688,147.033,-0.0275231,0.0,0.0
2030,507.25,60.3872,67.5714,138.994,101.759,101.46,0.00203803,0.302544,20.668,146.903,0.0263166,0.0,0.0
2040,509.75,60.313,67.2785,138.542,101.745,101.653,0.00192971,0.304014,20.6669,146.522,0.00815331,0.0,0.0
2050,512.25,60.6639,67.0726,140.556,101.742,101.379,0.0020105,0.305622,20.6647,146.202,0.0319032,0.0,0.0
2060,514.75,60.4857,67.2978,142.421,101.711,101.996,0.0021867,0.306343,20.6635,146.012,-0.0249842,0.0,0.0
2070,517.25,60.4076,66.9363,142.15,101.653,101.229,0.00225946,0.306852,20.6631,145.782,0.0372806,0.0,0.0
2080,519.75,60.9224,66.8748,139.727,101.591,101.531,0.00211653,0.306084,20.6615,145.492,0.00528378,0.0,0.0
2090,522.25,60.8159,67.6242,137.862,101.5,101.394,0.0019332,0.306259,20.6621,145.231,0.00933768,0.0,0.0
2100,524.75,60.6331,67.8988,139.232,101.419,101.806,0.00174318,0.307549,20.6625,144.991,-0.034012,0.0,0.0
2110,527.25,60.6563,68.1925,139.005,101.303,101.414,0.0016564,0.310278,20.6627,144.641,-0.00983048,0.0,0.0
2120,529.75,60.7898,68.236,135.746,101.185,101.241,0.00168305,0.313857,20.6603,144.441,-0.00498956,0.0,0.0
2130,532.25,60.9422,67.9218,138.346,101.037,100.679,0.00195849,0.315141,20.6567,144.19,0.0317079,0.0,0.0
2140,534.75,61.153,68.3626,139.327,100.914,100.7,0.00209996,0.316145,20.6538,143.96,0.0189398,0.0,0.0
2150,537.25,61.1231,68.2784,134.878,100.767,100.593,0.00212412,0.317395,20.6528,143.66,0.015472,0.0,0.0
2160,539.75,61.3969,68.4075,139.111,100.635,100.233,0.00216334,0.317585,20.6509,143.43,0.0357371,0.0,0.0
2170,542.25,61.3863,68.134,136.465,100.48,99.57,0.00224366,0.318262,20.6502,143.109,0.0812963,0.0,0.0
2180,544.75,61.489,68.3613,139.792,100.375,100.163,0.00228814,0.317977,20.65,142.889,0.0189313,0.0,0.0
2190,547.25,61.4717,68.341,138.211,100.241,99.5005,0.00226177,0.318412,20.6499,142.599,0.0662382,0.0,0.0
2200,549.75,61.3336,68.2136,138.089,100.179,99.4151,0.00235744,0.319947,20.6493,142.379,0.0684245,0.0,0.0
2210,552.25,61.6345,68.8016,137.242,100.086,99.3558,0.00253279,0.320892,20.6481,142.088,0.0654135,0.0,0.0
2220,554.75,61.4232,68.8687,139.345,100.042,99.2313,0.00265897,0.321292,20.6464,141.848,0.0726601,0.0,0.0
2230,557.25,61.6609,68.9147,136.078,100.015,98.632,0.00242741,0.322569,20.6456,141.588,0.124439,0.0,0.0
2240,559.75,61.8921,68.6734,139.337,100.036,98.8453,0.00213772,0.324104,20.6443,141.208,0.106972,0.0,0.0
2250,562.25,61.5322,68.5483,137.334,100.059,99.2424,0.00218345,0.324124,20.6431,141.048,0.0732359,0.0,0.0
2260,564.75,62.1251,68.3387,140.2,100.109,98.9983,0.00239893,0.323241,20.6417,140.587,0.0996761,0.0,0.0
2270,567.25,61.8556,68.7194,140.932,100.174,99.7288,0.00247411,0.323527,20.6424,140.317,0.0398048,0.0,0.0
2280,569.75,61.5826,69.1657,135.56,100.26,99.3577,0.00244406,0.322536,20.6426,140.087,0.0807558,0.0,0.0
2290,572.25,61.9389,68.2221,136.767,100.385,99.1768,0.00246142,0.325187,20.6421,139.906,0.108224,0.0,0.0
2300,574.75,62.196,69.2012,139.207,100.485,99.8653,0.00248514,0.324105,20.641,139.646,0.0552377,0.0,0.0
2310,577.25,62.218,69.0791,138.066,100.618,99.2255,0.00249909,0.324836,20.6425,139.386,0.124515,0.0,0.0
2320,579.75,62.6619,69.3087,139.133,100.732,99.8533,0.00251811,0.327485,20.6426,139.066,0.0782886,0.0,0.0
2330,582.25,61.6734,69.8122,139.687,100.844,100.034,0.00247811,0.330478,20.6401,138.815,0.0720842,0.0,0.0
2340,584.75,62.4235,69.6465,140.424,100.929,100.59,0.00244428,0.331275,20.638,138.485,0.0301295,0.0,0.0
2350,587.25,62.4585,69.7272,138.642,101.041,99.9995,0.00238294,0.330715,20.6353,138.275,0.0925758,0.0,0.0
2360,589.75,62.5887,69.854,137.711,101.113,100.817,0.00234063,0.333248,20.6344,137.975,0.026222,0.0,0.0
2370,592.25,62.5809,69.7773,136.317,101.167,100.219,0.00242078,0.334721,20.6333,137.664,0.0841119,0.0,0.0
2380,594.75,62.5588,69.7597,138.514,101.215,99.7987,0.00251425,0.334789,20.6313,137.454,0.125934,0.0,0.0
2390,597.25,62.6719,69.6123,141.277,101.244,100.078,0.00250072,0.336337,20.6309,137.074,0.10357,0.0,0.0
2400,599.75,62.4465,69.6856,137.643,101.242,99.5763,0.0024865,0.336686,20.629,136.864,0.148262,0.0,0.0
2410,602.25,62.6416,69.9301,146.243,101.22,100.158,0.00244588,0.335628,20.6272,136.573,0.0942497,0.0,0.0
2420,604.75,62.6223,69.7788,137.389,101.185,100.089,0.00234654,0.336747,20.6262,136.393,0.0972857,0.0,0.0
2430,607.25,62.6295,69.8169,143.215,101.137,99.4306,0.00257886,0.338342,20.6256,136.063,0.152,0.0,0.0
2440,609.75,63.1141,70.2943,143.17,101.082,99.6043,0.00290471,0.341558,20.6238,135.693,0.13162,0.0,0.0
2450,612.25,62.6065,70.1742,145.75,101.013,99.6757,0.00308954,0.344511,20.6203,135.322,0.119121,0.0,0.0
2460,614.75,62.8651,69.8669,143.441,100.975,98.9085,0.00289107,0.347768,20.6169,135.182,0.184747,0.0,0.0
2470,617.25,62.6951,69.2669,136.149,100.876,98.4468,0.00259837,0.349866,20.6137,134.852,0.21777,0.0,0.0
2480,619.75,62.9187,70.0304,137.995,100.849,98.9109,0.00261851,0.347673,20.612,134.732,0.173414,0.0,0.0
2490,622.25,63.2406,70.9388,138.611,100.789,98.7338,0.00271595,0.34588,20.6117,134.341,0.184044,0.0,0.0
2500,624.75,63.5162,71.4427,140.395,100.744,99.1464,0.00274819,0.347782,20.6131,134.061,0.142822,0.0,0.0
2510,627.25,63.5302,70.9925,134.306,100.685,98.2615,0.00294544,0.35488,20.6134,133.781,0.217725,0.0,0.0
2520,629.75,63.7272,71.888,142.09,100.652,98.6624,0.00310986,0.362454,20.609,133.521,0.178388,0.0,0.0
2530,632.25,64.2824,71.2365,140.696,100.618,98.4101,0.00317521,0.365104,20.5982,133.13,0.198249,0.0,0.0
2540,634.75,63.8336,71.3965,138.243,100.565,98.3541,0.0031998,0.364836,20.593,132.81,0.198595,0.0,0.0
2550,637.25,64.0805,71.7528,134.124,100.554,98.4405,0.00326628,0.364001,20.5916,132.62,0.189767,0.0,0.0
2560,639.75,63.897,71.6609,132.065,100.545,97.5179,0.00336805,0.365068,20.5922,132.36,0.273171,0.0,0.0
2570,642.25,64.2859,72.2748,139.284,100.542,99.0904,0.00327091,0.365752,20.5916,132.169,0.129984,0.0,0.0
2580,644.75,64.6565,72.0368,139.467,100.525,98.4135,0.00303293,0.367668,20.5907,131.799,0.189668,0.0,0.0
2590,647.25,64.8125,72.5418,136.859,100.54,97.5295,0.00300269,0.372752,20.589,131.529,0.271672,0.0,0.0
2600,649.75,65.1263,72.0374,137.762,100.551,98.5717,0.00315126,0.376103,20.5847,131.189,0.177607,0.0,0.0
2610,652.25,65.1175,73.3156,135.763,100.565,97.9589,0.00310571,0.377823,20.579,130.968,0.234604,0.0,0.0
2620,654.75,65.3112,73.1567,136.421,100.608,97.5416,0.0030507,0.3789,20.5764,130.668,0.276545,0.0,0.0
2630,657.25,65.3263,73.5048,138.104,100.64,97.4359,0.00327399,0.379842,20.5743,130.408,0.289071,0.0,0.0
2640,659.75,65.7616,73.6707,133.371,100.655,98.0965,0.00364768,0.381592,20.5732,129.957,0.230086,0.0,0.0
2650,662.25,65.8169,73.3341,135.586,100.705,98.1606,0.00379243,0.382165,20.5707,129.787,0.228647,0.0,0.0
2660,664.75,66.0121,73.9468,134.573,100.743,98.2755,0.00373722,0.381906,20.5705,129.487,0.221584,0.0,0.0
2670,667.25,65.8216,73.7526,133.532,100.785,97.3529,0.00375919,0.382888,20.5704,129.247,0.309608,0.0,0.0
2680,669.75,66.0639,74.4433,138.465,100.821,97.0103,0.00381674,0.383647,20.5697,128.977,0.344269,0.0,0.0
2690,672.25,66.1007,74.5005,132.667,100.87,96.8608,0.00384486,0.387529,20.568,128.516,0.362418,0.0,0.0
2700,674.75,65.8954,73.8891,141.598,100.917,97.0412,0.00379249,0.389401,20.5661,128.306,0.349892,0.0,0.0
2710,677.25,65.9457,72.9812,136.41,100.949,96.8878,0.00374926,0.390729,20.5619,127.916,0.3669,0.0,0.0
2720,679.75,66.2941,73.722,140.333,100.986,96.9457,0.00372339,0.39075,20.5602,127.645,0.36483,0.0,0.0
2730,682.25,66.3112,74.0912,135.811,101.008,96.8863,0.0037847,0.390097,20.5596,127.305,0.372262,0.0,0.0
2740,684.75,66.4766,74.0452,133.531,101.056,96.8699,0.00388144,0.388277,20.5594,127.045,0.37802,0.0,0.0
2750,687.25,66.4257,74.5767,137.443,101.068,96.8376,0.00394442,0.391718,20.5594,126.725,0.382091,0.0,0.0
2760,689.75,67.2066,74.2646,135.123,101.151,96.8535,0.00432495,0.394798,20.5574,126.464,0.387946,0.0,0.0
2770,692.25,66.854,74.4115,136.559,101.137,97.2313,0.00464712,0.397123,20.5546,126.074,0.351926,0.0,0.0
2780,694.75,66.8833,75.0467,134.77,101.178,96.6909,0.00468878,0.395955,20.5526,125.734,0.405278,0.0,0.0
2790,697.25,67.3033,74.8262,139.558,101.184,97.3298,0.00468291,0.395872,20.5512,125.363,0.346981,0.0,0.0
2800,699.75,66.8326,74.7246,136.108,101.192,97.0026,0.00450504,0.397453,20.5522,125.153,0.377788,0.0,0.0
2810,702.25,67.4103,75.2881,135.05,101.198,97.3302,0.00432994,0.400243,20.5515,124.833,0.348168,0.0,0.0
2820,704.75,67.3997,75.4904,135.734,101.215,97.2989,0.00444016,0.402021,20.5486,124.523,0.352568,0.0,0.0
2830,707.25,67.6337,75.796,135.132,101.215,96.1018,0.00454934,0.403908,20.5455,124.272,0.46322,0.0,0.0
2840,709.75,67.2806,75.8703,135.377,101.194,96.3874,0.00449905,0.40786,20.5441,123.912,0.434819,0.0,0.0
2850,712.25,67.8895,75.4836,137.006,101.188,97.1647,0.00438534,0.409102,20.5411,123.662,0.362504,0.0,0.0
2860,714.75,68.0862,75.9322,141.028,101.163,97.6849,0.00449824,0.408074,20.5379,123.241,0.312627,0.0,0.0
2870,717.25,68.0654,75.9026,137.913,101.153,97.1165,0.00455975,0.407721,20.5364,123.051,0.363899,0.0,0.0
2880,719.75,67.8709,76.4361,136.119,101.108,97.3915,0.00434556,0.408892,20.5359,122.681,0.334643,0.0,0.0
2890,722.25,68.3654,76.5102,134.596,101.081,96.3165,0.00411627,0.410305,20.5355,122.401,0.431427,0.0,0.0
2900,724.75,68.5149,76.3602,136.901,101.005,95.3992,0.00411999,0.412663,20.534,121.98,0.51018,0.0,0.0
2910,727.25,68.5601,76.3158,134.416,100.951,95.6198,0.00431995,0.415619,20.5326,121.76,0.484832,0.0,0.0
2920,729.75,68.9367,76.598,136.507,100.857,96.1133,0.0046379,0.417189,20.5291,121.35,0.430434,0.0,0.0
2930,732.25,68.7081,76.7114,140.411,100.788,95.668,0.00484969,0.417355,20.5267,121.129,0.465824,0.0,0.0
2940,734.75,68.9395,76.4043,136.373,100.683,95.5281,0.00497069,0.417223,20.5253,120.809,0.469587,0.0,0.0
2950,737.25,68.7966,77.4567,131.965,100.594,96.1119,0.00516377,0.419036,20.5248,120.499,0.407275,0.0,0.0
2960,739.75,69.1615,77.3987,136.112,100.484,96.5167,0.00531926,0.419059,20.5242,120.159,0.359911,0.0,0.0
2970,742.25,68.8241,77.4478,137.962,100.389,95.2839,0.00525681,0.420467,20.5233,119.838,0.466309,0.0,0.0
2980,744.75,69.1812,77.8892,132.228,100.311,95.5947,0.00523364,0.425168,20.5214,119.488,0.430314,0.0,0.0
2990,747.25,68.9489,77.9608,135.094,100.223,95.3423,0.00540511,0.426714,20.5174,119.118,0.446071,0.0,0.0
3000,749.75,69.6379,77.8451,134.316,100.149,95.6222,0.00560257,0.428051,20.5145,118.817,0.413259,0.0,0.0
3010,752.25,69.745,77.7893,134.831,100.078,96.1216,0.00569901,0.428958,20.512,118.467,0.360382,0.0,0.0
3020,754.75,69.5779,78.3513,134.922,100.043,96.0612,0.00551036,0.427659,20.5096,118.197,0.362876,0.0,0.0
3030,757.25,69.6913,78.7241,132.842,99.9767,95.86,0.0053474,0.428675,20.5093,117.847,0.375709,0.0,0.0
3040,759.75,69.97,78.7883,132.253,99.971,95.2859,0.0053889,0.428546,20.5097,117.546,0.428877,0.0,0.0
3050,762.25,70.3191,77.2977,137.872,99.9796,94.5462,0.00539217,0.429205,20.5087,117.196,0.499281,0.0,0.0
3060,764.75,70.3442,78.854,136.769,100.019,94.8608,0.0053354,0.43192,20.509,116.976,0.473081,0.0,0.0
3070,767.25,70.511,79.0896,140.219,100.071,94.4236,0.00527745,0.432728,20.5073,116.565,0.519043,0.0,0.0
3080,769.75,70.7626,78.8803,138.073,100.178,95.6839,0.00507748,0.432268,20.5054,116.255,0.410089,0.0,0.0
3090,772.25,70.6253,79.1713,137.092,100.265,95.9117,0.00490667,0.432704,20.5047,115.925,0.3966,0.0,0.0
3100,774.75,69.6343,79.2654,132.876,100.4,94.868,0.00497283,0.433465,20.5039,115.615,0.506383,0.0,0.0
3110,777.25,70.8362,79.2721,141.524,100.531,94.4473,0.00483401,0.432036,20.5021,115.274,0.557776,0.0,0.0
3120,779.75,70.927,78.8744,134.3,100.658,94.9148,0.00467644,0.433204,20.5014,114.924,0.524912,0.0,0.0
3130,782.25,70.6067,79.0341,136.916,100.819,95.7235,0.00484472,0.435182,20.5012,114.594,0.463407,0.0,0.0
3140,784.75,70.8101,78.9541,133.032,100.958,95.4417,0.00500302,0.435758,20.5007,114.263,0.502029,0.0,0.0
3150,787.25,71.0744,79.5437,128.396,101.092,94.8352,0.00498029,0.433691,20.5004,113.973,0.570894,0.0,0.0
3160,789.75,70.7992,79.5491,134.483,101.223,95.9734,0.00503776,0.432711,20.5013,113.623,0.475813,0.0,0.0
3170,792.25,71.3031,79.7296,132.249,101.358,95.1319,0.00496872,0.434058,20.5021,113.382,0.56641,0.0,0.0
3180,794.75,71.5958,79.9883,133.239,101.456,95.2487,0.00477556,0.436214,20.5022,112.952,0.564124,0.0,0.0
3190,797.25,71.1007,79.5921,138.237,101.544,96.0053,0.00468477,0.437424,20.4996,112.712,0.501196,0.0,0.0
3200,799.75,71.5961,79.6412,136.19,101.615,95.8538,0.00477304,0.436675,20.4969,112.382,0.521551,0.0,0.0
3210,802.25,70.8382,79.3328,134.532,101.688,96.0381,0.00491105,0.434743,20.496,112.101,0.510769,0.0,0.0
3220,804.75,71.4491,79.6013,135.925,101.681,96.6615,0.00483757,0.431793,20.4974,111.751,0.452308,0.0,0.0
3230,807.25,71.4174,79.7442,128.031,101.699,96.1027,0.00461669,0.430451,20.4993,111.451,0.505693,0.0,0.0
3240,809.75,70.8998,79.7506,139.714,101.668,95.9763,0.00458282,0.43156,20.5018,111.12,0.514787,0.0,0.0
3250,812.25,71.7059,79.5996,137.183,101.619,96.4048,0.00461215,0.431569,20.5014,110.85,0.470622,0.0,0.0
3260,814.75,71.6117,79.6918,134.48,101.547,94.676,0.00456597,0.431834,20.5011,110.52,0.625997,0.0,0.0
3270,817.25,71.1342,79.9818,133.802,101.468,96.5172,0.00458993,0.432186,20.501,110.24,0.446923,0.0,0.0
3280,819.75,71.2848,79.5046,140.497,101.379,95.75,0.00476205,0.428398,20.5009,109.929,0.510424,0.0,0.0
3290,822.25,70.9335,79.5893,136.077,101.269,95.8861,0.00487267,0.42669,20.5028,109.619,0.488003,0.0,0.0
3300,824.75,71.1335,78.8095,137.989,101.198,96.6345,0.00481568,0.423599,20.5046,109.329,0.412308,0.0,0.0
3310,827.25,71.5008,79.1353,136.019,101.091,95.5039,0.00470061,0.420766,20.5076,108.979,0.507997,0.0,0.0
3320,829.75,71.3191,78.904,135.994,101.025,94.9824,0.00456613,0.417812,20.5118,108.738,0.551126,0.0,0.0
3330,832.25,71.0477,78.9849,137.466,100.946,95.5604,0.00442143,0.413803,20.514,108.408,0.489871,0.0,0.0
3340,834.75,70.447,78.841,130.501,100.897,95.9744,0.00429304,0.411329,20.5196,108.168,0.446922,0.0,0.0
3350,837.25,70.6058,78.4394,133.318,100.849,95.5319,0.00426862,0.407573,20.5235,107.847,0.48396,0.0,0.0
3360,839.75,70.9667,78.0696,137.44,100.821,95.6062,0.00427941,0.405069,20.5282,107.617,0.47454,0.0,0.0
3370,842.25,70.2558,78.2613,138.243,100.784,96.039,0.00418693,0.40115,20.5317,107.327,0.430872,0.0,0.0
3380,844.75,70.4691,77.6707,137.312,100.812,96.2842,0.0039313,0.397346,20.5347,107.047,0.410569,0.0,0.0
3390,847.25,70.1734,77.7816,134.471,100.866,96.1249,0.00373194,0.394881,20.5387,106.726,0.430193,0.0,0.0
3400,849.75,70.8549,77.1996,135.003,100.905,96.0053,0.00353169,0.390276,20.5404,106.556,0.444774,0.0,0.0
3410,852.25,70.0282,77.1967,139.464,100.93,96.4376,0.0034283,0.386533,20.5452,106.236,0.406808,0.0,0.0
3420,854.75,69.6764,76.5271,139.51,100.949,96.3956,0.00338534,0.383826,20.55,106.066,0.412404,0.0,0.0
3430,857.25,69.6539,76.4886,138.511,100.956,97.3177,0.00325464,0.380697,20.5527,105.826,0.327994,0.0,0.0
3440,859.75,69.581,76.363,136.343,100.961,96.0058,0.00309357,0.376254,20.5561,105.555,0.449705,0.0,0.0
3450,862.25,69.3146,76.0002,136.404,100.992,95.6178,0.00316041,0.369438,20.5606,105.345,0.48857,0.0,0.0
3460,864.75,69.1111,75.731,137.504,100.973,97.5966,0.00321503,0.366602,20.5679,105.045,0.303877,0.0,0.0
3470,867.25,68.7806,75.4552,134.85,100.969,97.0793,0.00321965,0.363362,20.5733,104.885,0.350995,0.0,0.0
3480,869.75,68.1211,74.6545,134.743,100.954,97.0615,0.00320195,0.356605,20.5765,104.585,0.351332,0.0,0.0
3490,872.25,68.9504,74.1094,140.779,100.949,96.9452,0.00312725,0.348337,20.5817,104.454,0.361571,0.0,0.0
3500,874.75,68.561,73.5913,139.349,100.9,97.6902,0.00319177,0.342686,20.5916,104.184,0.288846,0.0,0.0
3510,877.25,67.8544,73.2716,138.699,100.894,97.2144,0.00333408,0.337209,20.5994,104.044,0.33196,0.0,0.0
3520,879.75,67.4225,72.7729,139.87,100.837,97.515,0.0033988,0.330914,20.6043,103.794,0.299321,0.0,0.0
3530,882.25,67.6181,72.4193,137.126,100.828,97.3741,0.0032421,0.324263,20.6126,103.664,0.31144,0.0,0.0
3540,884.75,66.984,71.9975,138.613,100.811,97.3669,0.00302554,0.315517,20.6201,103.423,0.310578,0.0,0.0
3550,887.25,66.6183,71.0305,144.487,100.828,98.3117,0.00295645,0.307324,20.6294,103.323,0.225861,0.0,0.0
3560,889.75,66.2794,70.1472,137.567,100.837,98.6176,0.00298345,0.300022,20.6389,103.093,0.198864,0.0,0.0
3570,892.25,65.6586,70.0589,138.547,100.854,98.8578,0.00287404,0.291343,20.6481,103.033,0.17861,0.0,0.0
3580,894.75,65.9272,69.9556,141.348,100.887,98.3633,0.00259889,0.280446,20.6588,102.863,0.22633,0.0,0.0
3590,897.25,65.011,68.841,143.71,100.915,99.2873,0.00244235,0.269902,20.67,102.713,0.14533,0.0,0.0
3600,899.75,64.1854,67.9622,139.428,100.965,99.613,0.00223914,0.262335,20.6801,102.603,0.120426,0.0,0.0
3610,902.25,64.1296,66.5879,144.427,101.009,99.7712,0.00208855,0.253894,20.6898,102.423,0.110161,0.0,0.0
3620,904.75,63.6072,67.0263,143.684,101.062,99.6873,0.00202337,0.243876,20.7,102.363,0.122401,0.0,0.0
3630,907.25,63.1961,66.5378,142.602,101.126,100.283,0.00205637,0.234688,20.7112,102.202,0.0747676,0.0,0.0
3640,909.75,63.0662,65.174,144.323,101.188,100.694,0.00221774,0.228352,20.723,102.172,0.0437646,0.0,0.0
3650,912.25,62.371,64.9797,141.608,101.233,100.552,0.00230521,0.220306,20.7312,101.992,0.0602742,0.0,0.0
3660,914.75,61.3892,63.8152,138.278,101.304,100.55,0.00214178,0.211645,20.74,101.992,0.0667426,0.0,0.0
3670,917.25,60.819,63.3458,144.579,101.356,100.585,0.00184464,0.202934,20.7512,101.802,0.0682078,0.0,0.0
3680,919.75,60.5427,62.5986,146.317,101.435,100.754,0.00171512,0.194646,20.7603,101.812,0.0602392,0.0,0.0
3690,922.25,60.0357,61.6457,141.4,101.485,101.507,0.00171702,0.187885,20.7694,101.662,-0.00190099,0.0,0.0
3700,924.75,59.8184,60.8168,143.496,101.553,101.605,0.00175516,0.181787,20.7798,101.672,-0.00463893,0.0,0.0
3710,927.25,59.1514,60.8078,143.081,101.593,101.469,0.00190631,0.174574,20.7872,101.552,0.010907,0.0,0.0
3720,929.75,58.4149,60.2786,143.586,101.643,101.791,0.00188999,0.168444,20.7958,101.552,-0.0129863,0.0,0.0
3730,932.25,58.0062,59.4691,145.723,101.681,101.933,0.0017657,0.162004,20.8048,101.472,-0.0221183,0.0,0.0
3740,934.75,57.3494,59.2422,143.21,101.705,102.034,0.00187298,0.155969,20.8117,101.412,-0.0288993,0.0,0.0
3750,937.25,56.8441,58.4733,146.922,101.727,101.774,0.0020064,0.150652,20.8204,101.402,-0.00414925,0.0,0.0
3760,939.75,56.8957,57.6447,147.12,101.723,101.897,0.00204627,0.147269,20.827,101.302,-0.0152694,0.0,0.0
3770,942.25,56.5759,57.204,146.192,101.727,101.914,0.00197261,0.14316,20.8317,101.342,-0.0163476,0.0,0.0
3780,944.75,56.0888,56.7939,148.129,101.695,101.84,0.00190239,0.138715,20.8361,101.141,-0.0126839,0.0,0.0
3790,947.25,55.4585,56.4019,148.051,101.674,101.85,0.0019095,0.134226,20.8404,101.181,-0.0154903,0.0,0.0
3800,949.75,54.5099,55.6595,146.991,101.627,101.755,0.00208988,0.130075,20.8457,101.041,-0.0112152,0.0,0.0
3810,952.25,54.7294,54.7575,144.541,101.598,101.7,0.00230473,0.127149,20.8499,101.121,-0.00898812,0.0,0.0
3820,954.75,53.8587,55.1449,149.021,101.518,102.003,0.00228995,0.123853,20.8556,100.971,-0.0426095,0.0,0.0
3830,957.25,53.6448,54.4739,144.355,101.46,101.298,0.0020641,0.122283,20.8606,101.051,0.0142267,0.0,0.0
3840,959.75,53.1956,53.9658,145.781,101.384,101.588,0.00198344,0.121556,20.8637,100.911,-0.0179661,0.0,0.0
3850,962.25,53.3549,53.5697,147.484,101.313,101.419,0.0020313,0.12058,20.8648,100.991,-0.00927227,0.0,0.0
3860,964.75,52.7961,53.6301,151.109,101.199,101.662,0.00199677,0.119728,20.866,100.831,-0.0407362,0.0,0.0
3870,967.25,52.888,53.9442,144.194,101.121,101.068,0.00187239,0.119426,20.8671,100.881,0.00469401,0.0,0.0
3880,969.75,52.6356,53.5098,144.56,101.024,101.018,0.00189171,0.118767,20.8676,100.781,0.000579431,0.0,0.0
3890,972.25,50.8459,53.4036,143.739,100.892,101.127,0.00208305,0.118364,20.8683,100.761,-0.0207895,0.0,0.0
3900,974.75,51.4868,52.4254,147.045,100.789,101.528,0.00222432,0.117864,20.8688,100.711,-0.065199,0.0,0.0
3910,977.25,51.362,52.4742,147.902,100.676,100.905,0.00218267,0.117402,20.869,100.601,-0.020252,0.0,0.0
3920,979.75,51.6775,52.3196,146.629,100.575,100.469,0.00216156,0.117184,20.8705,100.661,0.00937173,0.0,0.0
3930,982.25,50.6673,51.6272,151.565,100.491,100.811,0.00220677,0.116739,20.8711,100.551,-0.0283901,0.0,0.0
3940,984.75,50.7683,52.4533,143.963,100.397,100.764,0.00227333,0.11584,20.8714,100.601,-0.0326408,0.0,0.0
3950,987.25,50.7273,52.0817,146.584,100.275,100.69,0.0023913,0.114641,20.8714,100.491,-0.0368641,0.0,0.0
3960,989.75,50.2342,51.8205,150.658,100.21,100.332,0.00237959,0.114644,20.8726,100.511,-0.0109299,0.0,0.0
3970,992.25,50.8034,51.6076,146.646,100.122,100.139,0.00233946,0.114804,20.8734,100.411,-0.00155101,0.0,0.0
3980,994.75,50.7864,51.7582,144.476,100.098,100.07,0.00235792,0.114425,20.873,100.501,0.00251982,0.0,0.0
3990,997.25,50.3173,51.5223,149.042,100.042,99.9806,0.0022967,0.114075,20.8722,100.351,0.0054392,0.0,0.0
4000,999.75,50.0006,51.2623,146.912,100.018,100.066,0.0020936,0.114008,20.8724,100.391,-0.00423556,0.0,0.0
4010,1002.25,49.8189,51.2619,148.665,100.007,100.276,0.00200043,0.113196,20.8725,100.211,-0.0240336,0.0,0.0
4020,1004.75,49.2885,50.9459,148.137,100.007,99.8952,0.00203546,0.112482,20.8725,100.311,0.00996012,0.0,0.0
4030,1007.25,49.5508,50.2592,144.561,100.038,99.9633,0.00205624,0.111375,20.874,100.241,0.00666225,0.0,0.0
4040,1009.75,48.1004,50.8298,144.873,100.087,99.9015,0.00216972,0.110549,20.8763,100.171,0.0165799,0.0,0.0
4050,1012.25,48.9709,50.2248,145.923,100.166,100.119,0.0022822,0.110577,20.8774,100.231,0.00424793,0.0,0.0
4060,1014.75,49.13,49.8654,150.985,100.254,100.233,0.00230946,0.110502,20.8786,100.04,0.00191177,0.0,0.0
4070,1017.25,48.5124,50.3014,144.604,100.347,100.572,0.00234755,0.111383,20.8778,100.141,-0.0200518,0.0,0.0
4080,1019.75,46.8633,48.3599,147.525,100.448,100.539,0.0024544,0.111313,20.8778,100.04,-0.00811118,0.0,0.0
4090,1022.25,46.3631,47.7695,148.243,100.579,100.808,0.0025778,0.109617,20.8779,100.07,-0.0202573,0.0,0.0
4100,1024.75,46.6312,48.2572,148.259,100.674,100.723,0.00253407,0.109416,20.8794,99.9604,-0.00439169,0.0,0.0
4110,1027.25,46.1669,47.9821,144.948,100.785,100.759,0.00240255,0.110085,20.8803,100.05,0.00226106,0.0,0.0
4120,1029.75,46.6748,47.7466,144.253,100.881,101.404,0.00246413,0.110918,20.8789,99.9604,-0.0461779,0.0,0.0
4130,1032.25,46.1143,47.4376,146.47,100.976,101.058,0.00260777,0.110186,20.8773,99.9804,-0.00724499,0.0,0.0
4140,1034.75,45.8844,47.6643,145.219,101.042,101.075,0.002586,0.109491,20.8774,99.8302,-0.00293821,0.0,0.0
4150,1037.25,46.0625,47.3756,147.788,101.12,101.556,0.00256359,0.109567,20.8785,99.8903,-0.0384311,0.0,0.0
4160,1039.75,45.9757,47.8982,150.093,101.168,101.205,0.00264498,0.109512,20.8791,99.8202,-0.00328078,0.0,0.0
4170,1042.25,46.0966,47.4008,150.037,101.208,101.267,0.00271433,0.109003,20.8796,99.8202,-0.00526026,0.0,0.0
4180,1044.75,45.1936,47.5336,144.537,101.233,101.556,0.00273455,0.108617,20.8805,99.8603,-0.0285093,0.0,0.0
4190,1047.25,45.7905,47.5113,145.888,101.232,101.431,0.00280055,0.108249,20.8808,99.7201,-0.017544,0.0,0.0
4200,1049.75,45.8828,47.037,146.699,101.224,101.031,0.00284385,0.108679,20.8819,99.7702,0.0170732,0.0,0.0
4210,1052.25,45.3796,47.1246,146.963,101.171,101.392,0.00277891,0.109654,20.8824,99.6401,-0.0195042,0.0,0.0
4220,1054.75,45.7705,47.723,146.944,101.143,101.224,0.00273965,0.109653,20.8822,99.7502,-0.007116,0.0,0.0
4230,1057.25,45.7224,47.2484,147.829,101.058,101.307,0.00272207,0.108895,20.881,99.6301,-0.0219747,0.0,0.0
4240,1059.75,45.0683,46.8852,146.883,100.991,100.83,0.00272314,0.107892,20.8815,99.6801,0.0142565,0.0,0.0
4250,1062.25,44.77,47.1954,145.568,100.872,100.916,0.00287595,0.107401,20.8827,99.57,-0.00388976,0.0,0.0
4260,1064.75,45.4529,46.7696,146.273,100.817,100.921,0.00283129,0.107309,20.8837,99.55,-0.00914539,0.0,0.0
4270,1067.25,44.8563,46.8044,146.168,100.702,100.495,0.00276906,0.106839,20.8839,99.3999,0.018469,0.0,0.0
4280,1069.75,44.4333,45.8701,148.881,100.629,100.67,0.00278987,0.106754,20.884,99.53,-0.00357221,0.0,0.0
4290,1072.25,44.8678,46.7192,146.455,100.53,100.69,0.00272883,0.106384,20.884,99.4399,-0.0142329,0.0,0.0
4300,1074.75,44.797,46.2469,147.69,100.513,100.294,0.00270187,0.106117,20.8855,99.4999,0.0194936,0.0,0.0
4310,1077.25,44.8753,46.6122,150.29,100.49,100.611,0.00277179,0.106009,20.8861,99.4399,-0.0107033,0.0,0.0
4320,1079.75,44.8968,46.2633,149.029,100.627,100.705,0.00279978,0.106219,20.8863,99.4199,-0.00699608,0.0,0.0
4330,1082.25,44.2125,46.6438,146.359,100.741,100.48,0.00294271,0.10664,20.8864,99.4299,0.0232138,0.0,0.0
4340,1084.75,44.0592,46.8089,149.854,100.835,100.491,0.00324301,0.106569,20.8854,99.3498,0.0305626,0.0,0.0
4350,1087.25,44.4965,45.853,148.858,100.972,100.881,0.00332403,0.106134,20.8845,99.3598,0.00801922,0.0,0.0
4360,1089.75,43.8736,46.2815,145.514,101.07,101.027,0.00294222,0.105804,20.8856,99.2597,0.00375179,0.0,0.0
4370,1092.25,44.0494,46.0286,144.653,101.162,101.01,0.0027684,0.105301,20.8861,99.2897,0.0134099,0.0,0.0
4380,1094.75,44.3344,45.7224,145.91,101.184,101.226,0.00283293,0.10538,20.8863,99.1897,-0.00365692,0.0,0.0
4390,1097.25,44.3228,45.9251,147.915,101.204,101.245,0.00292476,0.104505,20.8864,99.2397,-0.00366385,0.0,0.0
4400,1099.75,44.0566,45.6578,148.246,101.189,101.138,0.00286539,0.10408,20.8864,99.1196,0.00449067,0.0,0.0
4410,1102.25,43.95,45.8832,148.109,101.143,100.865,0.00271948,0.103553,20.8872,99.1396,0.0246352,0.0,0.0
4420,1104.75,44.1994,45.4059,147.771,101.073,101.056,0.00278722,0.103924,20.8882,99.0495,0.0015188,0.0,0.0
4430,1107.25,43.53,45.6143,146.842,101.033,101.277,0.00290636,0.104402,20.8886,99.1096,-0.0215487,0.0,0.0
4440,1109.75,43.4523,45.2018,151.649,100.923,100.774,0.00286343,0.104547,20.8887,98.9895,0.013227,0.0,0.0
4450,1112.25,43.594,45.711,148.077,100.802,100.668,0.00276283,0.104807,20.8899,99.0095,0.0118793,0.0,0.0
4460,1114.75,43.2273,45.0143,149.124,100.842,100.906,0.00283482,0.104836,20.8907,99.0195,-0.00571857,0.0,0.0
4470,1117.25,43.273,45.054,149.935,100.909,101.104,0.00302645,0.104857,20.891,98.9795,-0.0172665,0.0,0.0
4480,1119.75,43.6611,45.4341,148.105,100.974,100.733,0.00299887,0.10478,20.8911,98.9695,0.0212875,0.0,0.0
4490,1122.25,43.2379,45.3706,148.158,101.05,100.638,0.00290443,0.105155,20.8911,98.8494,0.0365158,0.0,0.0
4500,1124.75,43.2248,45.8605,146.634,101.117,100.815,0.00295203,0.10494,20.8899,98.9595,0.0266766,0.0,0.0
4510,1127.25,43.4687,45.4355,146.744,101.195,101.146,0.00300018,0.104306,20.8894,98.8093,0.00431607,0.0,0.0
4520,1129.75,43.5988,45.1574,145.278,101.292,101.474,0.00293018,0.103743,20.8905,98.8994,-0.0160046,0.0,0.0
4530,1132.25,43.3302,45.2094,145.397,101.344,101.334,0.00280162,0.103893,20.8909,98.7793,0.000882978,0.0,0.0
4540,1134.75,42.7887,44.9072,146.207,101.429,101.27,0.00279903,0.104083,20.8908,98.8694,0.0139492,0.0,0.0
4550,1137.25,43.4713,45.6571,149.073,101.491,101.332,0.00287043,0.104801,20.8906,98.7092,0.0140002,0.0,0.0