File: 01_Data/Pressure_Treated_Deck/Cone/Pressure_Treated_Deck_Cone_HF75Scan_230613_R2.csv
Names,Time,Stack TC,Smoke TC,Exh Press,Smoke Comp,Smoke Meas,CO Meter,CO2 Meter,O2 Meter,Sample Mass,Ext Coeff,Start Test,Flame Verif
Chan Gain,,500,500,1,1,1,1,1,1,1,1,1.0,1.0
Offset,,0,0,0.245636,0,0,0,0,0,0,0,0.0,0.0
Gain,,1,1,25.011,13.7516,15.0469,1,1,1,1.00089,1.02456,1.0,1.0
Units,sec,C,C,Pa,%,%,%,%,%,g,/m,,
Baseline,,47.267,50.7895,148.278,99.5047,99.5336,0.00057551,0.0459953,20.9692,-443.842,-0.00259012,,
9,2,43.4214,45.5272,145.819,100.143,100.218,0.000725831,0.0505172,20.9633,199.997,-0.0067329,1.0,0.0
18,4.25,43.765,45.9102,146.092,100.118,99.7499,0.00074756,0.0520751,20.9624,200.087,0.0331087,0.0,0.0
27,6.5,43.5148,47.0006,147.656,100.112,99.6696,0.000898182,0.0543638,20.9609,199.917,0.0398246,0.0,0.0
36,8.75,44.1578,47.3939,153.156,100.109,98.0835,0.00120803,0.0556373,20.9576,199.757,0.183728,0.0,0.0
45,11,44.6271,47.8497,142.294,100.084,101.213,0.00144539,0.0549052,20.9559,199.457,-0.1008,0.0,1.0
54,13.25,45.4171,50.1203,139.769,100.105,100.922,0.00148852,0.0535377,20.9555,199.226,-0.0730651,0.0,1.0
63,15.5,46.0034,53.5076,136.975,100.078,100.515,0.00135479,0.053141,20.9566,198.856,-0.0391351,0.0,1.0
72,17.75,47.6803,57.5292,124.585,100.091,99.8101,0.00124737,0.0597671,20.9569,198.396,0.0252415,0.0,0.0
81,20,50.3997,62.4829,126.737,100.087,99.9143,0.00133245,0.0984721,20.9562,197.925,0.015559,0.0,0.0
90,22.25,53.2384,68.7366,124.141,100.098,98.6474,0.00166543,0.188387,20.9477,197.485,0.131151,0.0,0.0
99,24.5,55.8789,73.7584,123.348,100.071,98.7856,0.00201876,0.304822,20.8707,196.924,0.116157,0.0,0.0
108,26.75,58.2533,78.0423,126.417,100.075,97.9738,0.00250097,0.426535,20.742,196.394,0.190737,0.0,0.0
117,29,60.9994,81.7285,124.473,100.077,94.1326,0.00307981,0.52547,20.5824,195.973,0.550377,0.0,0.0
126,31.25,62.9811,82.9027,120.47,100.076,95.3825,0.00366206,0.595953,20.4651,195.393,0.431712,0.0,0.0
135,33.5,65.5466,87.8461,123.432,100.06,95.8422,0.00420534,0.648396,20.3756,194.842,0.387074,0.0,0.0
144,35.75,67.1156,91.1887,123.032,100.038,96.8506,0.0047802,0.684992,20.2977,194.372,0.29101,0.0,0.0
153,38,70.4468,92.7946,120.601,100.041,95.8532,0.00523983,0.713454,20.2485,193.832,0.384344,0.0,0.0
162,40.25,71.1866,94.7163,118.637,100.004,95.8775,0.00559536,0.734942,20.2168,193.281,0.378744,0.0,0.0
171,42.5,73.227,96.0275,119.788,99.9918,95.6838,0.00597422,0.751303,20.1876,192.771,0.395796,0.0,0.0
180,44.75,74.6328,97.2691,119.726,100.005,93.7368,0.00629555,0.754419,20.1672,192.4,0.581764,0.0,0.0
189,47,75.1353,97.339,122.943,99.946,96.7679,0.00650108,0.751422,20.1583,191.8,0.290423,0.0,0.0
198,49.25,76.4957,98.4567,127.51,99.9082,94.7305,0.00654731,0.74623,20.1576,191.299,0.478275,0.0,0.0
207,51.5,78.1125,99.1012,122.59,99.8835,94.4756,0.00664774,0.737638,20.16,190.859,0.500259,0.0,0.0
216,53.75,78.4067,99.2932,128.365,99.8961,93.8552,0.00696582,0.729729,20.1675,190.459,0.560601,0.0,0.0
225,56,79.5027,99.7791,128.296,99.8352,95.4601,0.00719046,0.719117,20.1786,189.788,0.402744,0.0,0.0
234,58.25,79.7511,99.8398,134.136,99.8361,94.4448,0.00717411,0.706578,20.1889,189.348,0.498918,0.0,0.0
243,60.5,80.0119,99.7398,126.08,99.8214,94.8866,0.007071,0.695781,20.2045,188.997,0.455657,0.0,0.0
252,62.75,80.5481,100.383,131.473,99.8289,95.1704,0.00703356,0.687322,20.2177,188.557,0.429499,0.0,0.0
261,65,81.8438,100.635,125.411,99.7974,94.7098,0.00700732,0.676417,20.2262,188.066,0.470264,0.0,0.0
270,67.25,81.9319,100.707,124.712,99.771,95.3692,0.00699842,0.6641,20.2355,187.616,0.405526,0.0,0.0
279,69.5,82.5644,100.852,133.112,99.7794,94.5532,0.0069043,0.654358,20.2501,187.276,0.48351,0.0,0.0
288,71.75,82.8614,101.105,131.863,99.7672,94.983,0.00682871,0.649074,20.263,186.785,0.441652,0.0,0.0
297,74,82.8787,100.171,128.168,99.7509,95.4891,0.00671689,0.63996,20.2725,186.295,0.392424,0.0,0.0
306,76.25,83.848,100.613,127.591,99.7458,95.2751,0.00656822,0.631481,20.279,185.884,0.412133,0.0,0.0
315,78.5,83.6228,100.445,127.572,99.7404,94.5647,0.00639595,0.621074,20.2912,185.514,0.478903,0.0,0.0
324,80.75,83.1453,99.6247,129.304,99.7517,94.4219,0.00639146,0.609242,20.3021,185.004,0.493506,0.0,0.0
333,83,83.4643,99.6476,124.318,99.7332,95.5097,0.00646522,0.598277,20.3163,184.693,0.388891,0.0,0.0
342,85.25,83.6536,99.2267,128.044,99.7454,94.798,0.00650622,0.589496,20.3297,184.323,0.457214,0.0,0.0
351,87.5,84.0605,99.3951,127.32,99.7311,96.3951,0.00643732,0.584115,20.3402,183.853,0.305777,0.0,0.0
360,89.75,84.0434,99.6311,130.021,99.7265,95.2484,0.00641537,0.577874,20.3479,183.412,0.412907,0.0,0.0
369,92,83.8826,99.4771,130.923,99.7353,95.8743,0.00646743,0.567867,20.3548,183.032,0.354837,0.0,0.0
378,94.25,84.0266,98.836,128.054,99.7454,96.1117,0.00657101,0.562252,20.3644,182.682,0.333518,0.0,0.0
387,96.5,84.2786,98.5181,126.169,99.7555,95.1033,0.00674653,0.557795,20.3734,182.231,0.429217,0.0,0.0
396,98.75,84.4904,97.8496,127.223,99.771,95.8233,0.00665812,0.553994,20.3789,181.891,0.362831,0.0,0.0
405,101,84.8586,98.6701,128.874,99.8016,95.237,0.00640599,0.550569,20.3846,181.561,0.420757,0.0,0.0
414,103.25,84.2405,98.8577,127.207,99.7739,95.7393,0.00618645,0.546416,20.3876,181.13,0.37098,0.0,0.0
423,105.5,84.7286,98.5597,126.594,99.7748,96.0162,0.00593179,0.543903,20.3921,180.68,0.3451,0.0,0.0
432,107.75,84.5011,98.0234,130.641,99.8037,95.0271,0.00578092,0.542483,20.3962,180.31,0.440771,0.0,0.0
441,110,84.1776,98.1586,129.585,99.8117,95.0455,0.00572403,0.538627,20.3989,179.929,0.439752,0.0,0.0
450,112.25,84.5682,97.4468,132.677,99.8218,95.7784,0.00578371,0.533709,20.403,179.529,0.371624,0.0,0.0
459,114.5,84.541,97.0841,134.626,99.8486,97.2083,0.00597026,0.528262,20.4077,179.139,0.240857,0.0,0.0
468,116.75,84.4486,96.4416,129.88,99.8575,96.4217,0.00605735,0.522935,20.4128,178.758,0.314671,0.0,0.0
477,119,83.9987,95.8429,130.631,99.8583,96.0732,0.00611383,0.517999,20.421,178.418,0.347291,0.0,0.0
486,121.25,83.6007,96.5638,126.459,99.8575,97.1816,0.00604332,0.511965,20.4265,178.038,0.244113,0.0,0.0
495,123.5,83.8326,96.9388,127.127,99.8814,95.5814,0.00573116,0.504245,20.4325,177.677,0.395493,0.0,0.0
504,125.75,84.3265,96.915,130.229,99.8927,96.013,0.00543492,0.504051,20.4415,177.337,0.356016,0.0,0.0
513,128,84.0664,96.1679,132.509,99.8864,96.4759,0.00524563,0.506115,20.4459,176.857,0.312227,0.0,0.0
522,130.25,83.8886,95.9691,129.25,99.8868,96.6646,0.00521139,0.504567,20.4434,176.506,0.294702,0.0,0.0
531,132.5,84.0254,95.7447,123.329,99.9137,97.2767,0.0051826,0.500601,20.4436,176.186,0.240387,0.0,0.0
540,134.75,83.0448,95.5481,129.574,99.9288,97.0333,0.00517396,0.49533,20.4475,175.886,0.264259,0.0,0.0
549,137,84.079,94.8654,130.641,99.9212,96.638,0.00521128,0.491036,20.4515,175.425,0.300274,0.0,0.0
558,139.25,83.5642,95.1619,135.394,99.9372,96.84,0.00536546,0.488923,20.4555,175.065,0.282937,0.0,0.0
567,141.5,84.0669,95.3968,129.506,99.9586,97.234,0.00552109,0.486968,20.4596,174.775,0.248372,0.0,0.0
576,143.75,83.1742,95.5557,132.363,99.988,97.2023,0.00552996,0.485908,20.4616,174.394,0.253941,0.0,0.0
585,146,83.6841,95.1985,133.818,99.9846,98.4403,0.00559522,0.484541,20.4638,173.984,0.139897,0.0,0.0
594,148.25,83.5854,95.4548,128.608,100.002,98.1065,0.00558166,0.482506,20.4656,173.674,0.172012,0.0,0.0
603,150.5,83.0046,95.2744,136.013,100.037,97.2487,0.00543399,0.481075,20.4666,173.343,0.254029,0.0,0.0
612,152.75,83.3926,95.616,132.543,100.066,96.7505,0.00537669,0.479258,20.4686,172.933,0.302792,0.0,0.0
621,155,83.9185,95.2438,130.323,100.067,97.6372,0.00537853,0.475812,20.471,172.563,0.220951,0.0,0.0
630,157.25,83.6231,95.149,127.512,100.096,97.4503,0.00529134,0.472703,20.4749,172.262,0.24077,0.0,0.0
639,159.5,83.9418,95.7708,128.997,100.101,98.4224,0.00509358,0.469607,20.4777,171.882,0.151975,0.0,0.0
648,161.75,83.3891,94.518,131.046,100.108,98.2842,0.00491798,0.468027,20.4808,171.502,0.165209,0.0,0.0
657,164,83.2576,95.1516,131.828,100.125,98.0275,0.00486456,0.469353,20.4849,171.131,0.190295,0.0,0.0
666,166.25,83.4691,94.4512,130.429,100.131,97.6459,0.00489955,0.470548,20.4844,170.831,0.225875,0.0,0.0
675,168.5,83.5247,94.576,130.385,100.152,98.1795,0.00507864,0.465151,20.4836,170.441,0.178818,0.0,0.0
684,170.75,83.2778,94.4974,131.557,100.143,97.4957,0.00521797,0.459911,20.4852,170.121,0.240798,0.0,0.0
693,173,83.9015,94.3555,131.107,100.175,97.8259,0.00518965,0.459076,20.4908,169.77,0.213239,0.0,0.0
702,175.25,82.7076,94.3245,125.708,100.166,97.5724,0.00513241,0.459253,20.4932,169.46,0.235766,0.0,0.0
711,177.5,82.9745,94.4786,136.362,100.174,98.5744,0.00503466,0.457568,20.4942,169.09,0.144661,0.0,0.0
720,179.75,83.9708,93.8829,130.688,100.172,97.9187,0.00490789,0.455759,20.4952,168.709,0.204458,0.0,0.0
729,182,83.256,93.9322,130.323,100.207,97.7111,0.00485094,0.454424,20.4976,168.439,0.22669,0.0,0.0
738,184.25,83.2856,93.1014,128.953,100.184,97.7414,0.00486293,0.451678,20.499,168.009,0.221795,0.0,0.0
747,186.5,83.5866,93.6335,132.398,100.191,97.6762,0.00485984,0.448543,20.5009,167.718,0.228432,0.0,0.0
756,188.75,83.481,93.3661,132.998,100.198,98.5758,0.00483286,0.446461,20.5057,167.338,0.14672,0.0,0.0
765,191,82.9055,92.5477,128.177,100.192,97.9223,0.00476796,0.444569,20.5094,166.978,0.205928,0.0,0.0
774,193.25,83.0643,92.8725,131.013,100.185,97.8553,0.00465876,0.44197,20.5109,166.647,0.211443,0.0,0.0
783,195.5,82.6416,93.2451,128.655,100.197,99.271,0.00454691,0.439374,20.5133,166.297,0.0834062,0.0,0.0
792,197.75,82.4008,92.888,131.186,100.209,99.0235,0.00449469,0.437356,20.5164,166.027,0.106971,0.0,0.0
801,200,83.2348,93.0447,124.148,100.177,98.4077,0.00441429,0.436498,20.5193,165.617,0.160135,0.0,0.0
810,202.25,82.9528,92.9576,130.248,100.197,99.035,0.0043363,0.435927,20.5208,165.246,0.104837,0.0,0.0
819,204.5,82.8212,93.2898,127.883,100.186,99.4193,0.00440074,0.434054,20.5215,164.946,0.0690478,0.0,0.0
828,206.75,82.7319,92.8128,131.015,100.183,99.2535,0.00435001,0.432007,20.522,164.646,0.0837819,0.0,0.0
837,209,82.5606,92.17,129.327,100.166,99.1961,0.0041288,0.42937,20.5251,164.255,0.0874739,0.0,0.0
846,211.25,82.9494,92.3626,129.145,100.153,98.4362,0.00406176,0.42804,20.528,163.905,0.155389,0.0,0.0
855,213.5,81.9795,92.7083,130.069,100.162,99.1116,0.00419031,0.426524,20.53,163.635,0.0947187,0.0,0.0
864,215.75,82.8383,92.2866,125.26,100.124,97.9338,0.00424599,0.423726,20.531,163.325,0.198811,0.0,0.0
873,218,82.5522,92.5742,131.685,100.13,98.73,0.00414729,0.42351,20.5337,162.934,0.126526,0.0,0.0
882,220.25,82.1513,91.9659,131.013,100.115,99.76,0.00402968,0.421391,20.5351,162.644,0.0318971,0.0,0.0
891,222.5,82.8125,92.4736,134.183,100.116,99.2623,0.0039597,0.419939,20.5356,162.304,0.0769288,0.0,0.0
900,224.75,81.9328,92.3491,131.533,100.083,99.0363,0.00387865,0.419178,20.5382,161.963,0.0945056,0.0,0.0
909,227,82.4737,91.882,128.397,100.077,99.5442,0.00374354,0.418557,20.5397,161.653,0.0479328,0.0,0.0
918,229.25,81.7631,91.9002,132.636,100.062,99.7334,0.00359364,0.416171,20.5402,161.383,0.0295492,0.0,0.0
927,231.5,82.0581,91.6216,129.529,100.052,99.3105,0.00355095,0.414793,20.5424,161.002,0.0668744,0.0,0.0
936,233.75,81.8863,91.705,131.039,100.039,99.3812,0.0036722,0.414494,20.5457,160.702,0.0593081,0.0,0.0
945,236,82.1015,91.737,129.093,100.037,98.7884,0.00375481,0.413313,20.5478,160.312,0.11289,0.0,0.0
954,238.25,81.7492,91.6206,133.367,100.024,98.9766,0.00374624,0.410443,20.5492,160.042,0.0946466,0.0,0.0
963,240.5,82.4908,91.5629,135.861,100.009,98.4729,0.00385204,0.410794,20.5519,159.631,0.139147,0.0,0.0
972,242.75,82.3195,91.9404,127.761,99.9825,99.2705,0.00392564,0.410824,20.5526,159.351,0.0642303,0.0,0.0
981,245,82.3576,92.0446,137.832,99.9758,99.4882,0.00397286,0.4113,20.5519,159.001,0.043942,0.0,0.0
990,247.25,82.0822,91.8863,132.253,99.9523,99.7605,0.00400735,0.411129,20.5516,158.6,0.0172647,0.0,0.0
999,249.5,81.8237,91.1843,132.365,99.9296,99.9754,0.00394885,0.411208,20.5515,158.17,-0.00411342,0.0,0.0
1008,251.75,81.6763,91.2057,132.822,99.9015,99.4253,0.00393323,0.40974,20.5515,157.88,0.0429472,0.0,0.0
1017,254,81.8786,91.979,128.222,99.8952,98.9344,0.00385691,0.40746,20.5515,157.67,0.0868617,0.0,0.0
1026,256.25,81.9271,91.4009,135.042,99.8424,99.3683,0.00370398,0.407174,20.5527,157.309,0.0427713,0.0,0.0
1035,258.5,82.0289,91.2342,127.108,99.8092,99.4248,0.00361099,0.407872,20.5535,156.939,0.0346788,0.0,0.0
1044,260.75,82.3806,91.8959,130.995,99.7802,100.001,0.0036445,0.408757,20.5526,156.649,-0.0198708,0.0,0.0
1053,263,82.2969,91.4188,136.836,99.7404,100.254,0.00370419,0.408936,20.5515,156.338,-0.0461327,0.0,0.0
1062,265.25,81.1294,91.6856,134.236,99.7139,98.3728,0.00369319,0.408285,20.5518,155.978,0.121699,0.0,0.0
1071,267.5,81.8044,91.2193,132.492,99.6837,98.9445,0.00373359,0.406919,20.5522,155.678,0.0668956,0.0,0.0
1080,269.75,82.1355,91.5786,132.222,99.6745,99.2972,0.00382464,0.405251,20.5544,155.398,0.0340875,0.0,0.0
1089,272,81.7895,90.9051,128.029,99.6317,98.7957,0.00388778,0.404173,20.5568,155.007,0.0757263,0.0,0.0
1098,274.25,82.322,91.5581,131.75,99.5927,98.7319,0.00381209,0.404253,20.5582,154.697,0.0780133,0.0,0.0
1107,276.5,82.4537,92.0923,130.152,99.6094,98.7121,0.00363138,0.404452,20.5587,154.377,0.0813254,0.0,0.0
1116,278.75,81.9638,91.6959,130.273,99.5637,99.0258,0.00344882,0.402648,20.559,154.066,0.0486883,0.0,0.0
1125,281,81.842,91.64,134.514,99.5473,98.2704,0.00340267,0.402602,20.5595,153.766,0.116029,0.0,0.0
1134,283.25,82.3203,90.9666,129.061,99.5024,98.5395,0.00345717,0.404062,20.5607,153.426,0.0873996,0.0,0.0
1143,285.5,81.8205,91.1328,126.795,99.5154,98.8678,0.00347594,0.403895,20.5599,153.126,0.058679,0.0,0.0
1152,287.75,81.4745,90.2948,131.377,99.4571,98.1129,0.00341732,0.403617,20.558,152.705,0.122296,0.0,0.0
1161,290,81.9576,90.7402,129.887,99.4374,98.8669,0.0034613,0.403247,20.5575,152.405,0.0517098,0.0,0.0
1170,292.25,81.7916,90.5741,130.554,99.4172,99.2531,0.00365074,0.402451,20.5585,152.125,0.014852,0.0,0.0
1179,294.5,81.601,90.6474,135.833,99.4067,98.9615,0.0036877,0.399871,20.5588,151.914,0.0403452,0.0,0.0
1188,296.75,81.7923,90.0759,130.299,99.3879,99.3816,0.00363983,0.396759,20.56,151.454,0.000561383,0.0,0.0
1197,299,82.2833,90.5128,134.261,99.3757,99.7302,0.0034801,0.395958,20.5637,151.144,-0.0320026,0.0,0.0
1206,301.25,81.6547,88.0237,131.138,99.4067,98.8132,0.00333963,0.397218,20.5653,150.904,0.0538262,0.0,0.0
1215,303.5,81.4888,90.2447,130.07,99.4441,100.066,0.00336173,0.397895,20.5662,150.573,-0.056017,0.0,0.0
1224,305.75,81.0392,90.4859,133.199,99.5096,99.2742,0.00351537,0.397516,20.5665,150.163,0.0212823,0.0,0.0
1233,308,81.672,90.4734,129.235,99.5469,98.9349,0.0037753,0.395882,20.5673,150.013,0.0554277,0.0,0.0
1242,310.25,81.5747,90.1838,127.261,99.6178,98.5087,0.00386305,0.396708,20.5684,149.682,0.100623,0.0,0.0
1251,312.5,81.1434,89.9767,127.558,99.6665,98.6157,0.00387341,0.397032,20.5682,149.342,0.0952583,0.0,0.0
1260,314.75,81.8194,90.5813,130.851,99.7022,99.26,0.0039184,0.395108,20.5673,149.002,0.0399505,0.0,0.0
1269,317,81.1413,90.4427,132.525,99.7614,99.6282,0.00393333,0.39433,20.5683,148.722,0.012,0.0,0.0
1278,319.25,81.2274,90.0417,130.696,99.7853,99.4666,0.00393228,0.393461,20.57,148.441,0.0287483,0.0,0.0
1287,321.5,81.7296,90.7774,134.579,99.8084,99.3849,0.00396744,0.393026,20.5709,148.071,0.0382149,0.0,0.0
1296,323.75,81.265,90.0954,130.802,99.8604,99.7908,0.00392959,0.393495,20.5712,147.781,0.00626643,0.0,0.0
1305,326,80.7054,90.3587,132.327,99.9271,98.8054,0.00378832,0.395343,20.5713,147.511,0.101461,0.0,0.0
1314,328.25,81.2091,89.934,134.649,99.9624,99.428,0.00362524,0.39693,20.57,147.08,0.0481704,0.0,0.0
1323,330.5,81.4225,90.5994,130.536,99.9951,100.35,0.00349518,0.3962,20.5681,146.83,-0.0318484,0.0,0.0
1332,332.75,81.2355,90.3462,127.617,100.032,99.2241,0.00347383,0.396512,20.5673,146.52,0.0728797,0.0,0.0
1341,335,81.6635,90.2977,125.501,100.045,99.7219,0.00346959,0.397455,20.5669,146.229,0.0291135,0.0,0.0
1350,337.25,81.7831,90.4349,128.661,100.062,99.9942,0.00355893,0.397472,20.5668,145.869,0.00611333,0.0,0.0
1359,339.5,81.4443,91.0541,130.879,100.071,99.4556,0.00359093,0.397875,20.5668,145.569,0.0554852,0.0,0.0
1368,341.75,81.2197,90.7281,132.142,100.084,99.2765,0.00350226,0.398925,20.5668,145.279,0.0728138,0.0,0.0
1377,344,81.2785,90.9922,136.052,100.088,100.76,0.00348021,0.398896,20.5654,144.958,-0.0601291,0.0,0.0
1386,346.25,81.6933,90.4535,130.554,100.064,99.9019,0.0034086,0.398903,20.5648,144.698,0.0146017,0.0,0.0
1395,348.5,81.5549,90.4942,134.339,100.038,98.6933,0.00341187,0.3978,20.5651,144.348,0.121655,0.0,0.0
1404,350.75,81.6964,90.4171,129.164,100.004,99.5851,0.00357573,0.396984,20.5657,144.108,0.0377583,0.0,0.0
1413,353,81.8072,90.3283,133.341,99.9779,99.2246,0.00377073,0.396506,20.5671,143.767,0.0679728,0.0,0.0
1422,355.25,81.6318,90.1015,131.503,99.9594,99.845,0.00377897,0.396674,20.5677,143.427,0.0102964,0.0,0.0
1431,357.5,82.0223,90.2177,131.786,99.9129,100.428,0.00362213,0.396297,20.5679,143.177,-0.0462328,0.0,0.0
1440,359.75,81.6994,90.5344,135.899,99.8659,100.211,0.00342719,0.394842,20.568,142.826,-0.0310033,0.0,0.0
1449,362,80.9421,90.2624,127.078,99.8243,99.5525,0.00329471,0.394677,20.569,142.446,0.0245075,0.0,0.0
1458,364.25,81.3465,89.8806,133.179,99.7504,98.6768,0.00325401,0.394865,20.5698,142.186,0.0972584,0.0,0.0
1467,366.5,81.6454,90.325,125.809,99.6921,99.8551,0.00311949,0.395985,20.5701,141.926,-0.0146802,0.0,0.0
1476,368.75,81.5186,90.4079,130.486,99.703,98.7498,0.00294108,0.396287,20.5703,141.625,0.0863386,0.0,0.0
1485,371,81.7989,90.8204,131.243,99.7253,98.7645,0.00294661,0.396022,20.5693,141.295,0.087006,0.0,0.0
1494,373.25,81.964,91.0165,129.448,99.7811,98.7911,0.00313288,0.398295,20.5689,141.025,0.0896116,0.0,0.0
1503,375.5,81.5565,90.9182,131.087,99.8058,99.2687,0.00331995,0.402033,20.5681,140.765,0.0485008,0.0,0.0
1512,377.75,81.5379,90.5842,128.448,99.8281,99.3738,0.00331687,0.403596,20.5644,140.414,0.0409872,0.0,0.0
1521,380,81.999,90.3926,126.669,99.8763,98.8673,0.00327278,0.40291,20.5613,140.094,0.0912556,0.0,0.0
1530,382.25,81.3451,91.2865,126.855,99.9129,98.7516,0.00325701,0.401185,20.5612,139.794,0.105066,0.0,0.0
1539,384.5,81.879,90.7303,132.096,99.9489,98.9711,0.00328673,0.401589,20.5615,139.483,0.0883577,0.0,0.0
1548,386.75,81.7511,90.8768,128.726,99.9766,99.563,0.00349681,0.402252,20.5616,139.153,0.037259,0.0,0.0
1557,389,81.7305,91.1453,133.343,100.011,98.5037,0.00370629,0.401851,20.5617,138.883,0.136528,0.0,0.0
1566,391.25,80.9656,90.6557,128.93,100.026,99.9474,0.0037717,0.40261,20.5617,138.593,0.00708221,0.0,0.0
1575,393.5,81.8075,90.5913,135.116,100.04,99.6581,0.00369467,0.405014,20.5617,138.242,0.0343778,0.0,0.0
1584,395.75,81.7586,90.4749,138.356,100.049,98.5188,0.00349442,0.406283,20.561,137.922,0.13854,0.0,0.0
1593,398,81.5027,90.552,128.382,100.068,98.6896,0.00342108,0.406581,20.5591,137.672,0.124665,0.0,0.0
1602,400.25,81.7326,90.1335,135.097,100.098,99.1911,0.00349239,0.406467,20.5581,137.241,0.0818297,0.0,0.0
1611,402.5,81.9101,91.532,128.556,100.082,98.7732,0.00351505,0.40632,20.5577,137.041,0.118264,0.0,0.0
1620,404.75,82.0115,90.3919,126.278,100.106,99.9318,0.00331779,0.40708,20.5575,136.681,0.0156467,0.0,0.0
1629,407,81.9487,90.9513,130.477,100.129,99.1135,0.00314417,0.4081,20.5574,136.421,0.0916151,0.0,0.0
1638,409.25,81.8719,91.4864,133.08,100.149,99.4303,0.00317049,0.409507,20.5561,136.12,0.0647005,0.0,0.0
1647,411.5,82.689,90.8248,136.444,100.175,100.145,0.00326912,0.40976,20.5555,135.76,0.00272088,0.0,0.0
1656,413.75,81.8707,90.5312,126.97,100.218,99.0143,0.00325743,0.412173,20.5541,135.55,0.108558,0.0,0.0
1665,416,81.675,90.7874,128.89,100.221,98.7255,0.00320319,0.414365,20.5533,135.16,0.135114,0.0,0.0
1674,418.25,82.3136,90.857,130.401,100.252,98.7503,0.00317395,0.415191,20.5493,134.809,0.135603,0.0,0.0
1683,420.5,82.2852,91.6049,138.057,100.293,99.3973,0.003271,0.414666,20.5461,134.539,0.0805971,0.0,0.0
1692,422.75,82.5124,91.3509,130.227,100.332,100.584,0.00337129,0.41497,20.5448,134.299,-0.0225985,0.0,0.0
1701,425,82.2396,91.445,129.422,100.337,98.8237,0.00345142,0.416148,20.5444,133.929,0.136553,0.0,0.0
1710,427.25,81.9584,91.8988,127.044,100.367,100.005,0.0033516,0.417316,20.5442,133.668,0.0324469,0.0,0.0
1719,429.5,82.7826,92.0823,129.238,100.399,99.2751,0.00325748,0.418583,20.5433,133.348,0.101158,0.0,0.0
1728,431.75,82.8884,91.7817,126.733,100.432,98.945,0.00340156,0.420528,20.5423,132.998,0.134064,0.0,0.0
1737,434,82.4918,92.399,126.366,100.458,100.094,0.00357686,0.422156,20.5401,132.687,0.0325579,0.0,0.0
1746,436.25,83.252,92.034,124.635,100.494,99.7338,0.00371364,0.423786,20.5369,132.307,0.0682482,0.0,0.0
1755,438.5,82.509,92.2767,129.229,100.534,99.9593,0.00373905,0.425374,20.5356,132.017,0.0515564,0.0,0.0
1764,440.75,82.7413,92.041,135.213,100.57,99.6305,0.00371756,0.426589,20.5335,131.646,0.0843912,0.0,0.0
1773,443,83.3474,92.5112,128.977,100.57,99.389,0.00368924,0.427561,20.5318,131.526,0.106205,0.0,0.0
1782,445.25,82.4683,92.5501,132.402,100.583,100.037,0.00363899,0.429378,20.5315,131.106,0.048895,0.0,0.0
1791,447.5,82.3444,92.3291,129.952,100.581,99.4675,0.00357238,0.429388,20.5309,130.946,0.100045,0.0,0.0
1800,449.75,82.9881,92.4055,130.341,100.573,98.494,0.00349785,0.4301,20.5299,130.515,0.187688,0.0,0.0
1809,452,83.3653,92.7008,129.314,100.567,98.7943,0.0035485,0.432743,20.5295,130.045,0.159802,0.0,0.0
1818,454.25,83.4952,92.411,130.074,100.587,99.1369,0.00362701,0.434475,20.5275,129.935,0.130494,0.0,0.0
1827,456.5,82.69,91.9324,126.324,100.562,99.2223,0.0036165,0.435911,20.5239,129.585,0.120504,0.0,0.0
1836,458.75,83.3401,93.0662,132.678,100.556,99.2246,0.0035816,0.438768,20.5221,129.204,0.119808,0.0,0.0
1845,461,83.6658,93.1104,132.618,100.563,98.6327,0.00359156,0.438855,20.5191,128.934,0.174218,0.0,0.0
1854,463.25,82.9145,92.2232,129.315,100.576,98.4862,0.00359708,0.440519,20.5187,128.644,0.1887,0.0,0.0
1863,465.5,83.4692,92.8944,130.027,100.567,97.4801,0.0036726,0.443138,20.5193,128.253,0.280159,0.0,0.0
1872,467.75,83.7627,91.5443,133.748,100.578,97.5811,0.00376983,0.44492,20.5162,128.003,0.2719,0.0,0.0
1881,470,83.6471,93.3383,126.602,100.596,98.1786,0.00377688,0.444765,20.514,127.693,0.218658,0.0,0.0
1890,472.25,83.7302,93.3701,128.088,100.589,98.4311,0.00365322,0.443221,20.5132,127.353,0.194856,0.0,0.0
1899,474.5,83.9486,93.2702,125.962,100.597,96.6733,0.0036147,0.442534,20.5133,126.982,0.357591,0.0,0.0
1908,476.75,83.6117,93.3615,126.837,100.607,97.9545,0.00383487,0.448165,20.5144,126.632,0.240094,0.0,0.0
1917,479,83.7655,93.0281,128.08,100.612,98.5859,0.00409892,0.454878,20.5108,126.352,0.182799,0.0,0.0
1926,481.25,83.8187,93.4264,132.679,100.605,99.361,0.00423819,0.458538,20.5033,125.951,0.111851,0.0,0.0
1935,483.5,83.5512,93.3363,130.052,100.614,98.298,0.00424706,0.458197,20.4978,125.711,0.209272,0.0,0.0
1944,485.75,83.9459,94.1529,129.725,100.617,98.7599,0.00420703,0.456424,20.4955,125.371,0.167398,0.0,0.0
1953,488,84.5564,94.0211,130.281,100.625,98.691,0.00403517,0.459565,20.4959,125.041,0.174456,0.0,0.0
1962,490.25,84.5491,94.6836,132.079,100.629,98.3306,0.00390378,0.462492,20.4933,124.73,0.207641,0.0,0.0
1971,492.5,84.8259,95.0194,133.681,100.627,98.9509,0.00377596,0.464458,20.4909,124.43,0.150929,0.0,0.0
1980,494.75,84.3517,94.6857,130.621,100.64,96.9814,0.0038276,0.46575,20.4885,124.13,0.332778,0.0,0.0
1989,497,84.6239,94.6558,133.995,100.632,98.0367,0.00405172,0.468439,20.4866,123.79,0.234842,0.0,0.0
1998,499.25,84.7813,95.0528,132.983,100.627,96.3827,0.00420027,0.469911,20.4843,123.449,0.387315,0.0,0.0
2007,501.5,84.8837,94.7133,127.352,100.636,98.4385,0.00427425,0.469781,20.4817,123.149,0.198384,0.0,0.0
2016,503.75,84.6489,94.4546,128.545,100.642,97.8521,0.00433923,0.469805,20.4806,122.799,0.25268,0.0,0.0
2025,506,85.0297,94.9373,128.989,100.635,97.7726,0.00440947,0.467887,20.4817,122.468,0.259305,0.0,0.0
2034,508.25,85.468,95.2133,130.049,100.643,97.5577,0.00448997,0.467229,20.4825,122.158,0.279792,0.0,0.0
2043,510.5,85.1288,95.58,132.034,100.65,97.3061,0.00451457,0.468516,20.4833,121.878,0.303679,0.0,0.0
2052,512.75,85.5078,95.5719,131.592,100.64,97.9425,0.00465822,0.471138,20.4823,121.548,0.244187,0.0,0.0
2061,515,85.6372,95.8454,131.019,100.629,97.3148,0.00476568,0.473095,20.4795,121.187,0.300962,0.0,0.0
2070,517.25,85.2892,95.3293,127.588,100.641,97.3993,0.00472911,0.474613,20.4765,120.917,0.294211,0.0,0.0
2079,519.5,85.272,94.9494,128.033,100.638,97.476,0.00460284,0.474721,20.4742,120.637,0.286875,0.0,0.0
2088,521.75,85.9594,95.4953,128.326,100.633,98.01,0.00453313,0.475107,20.4733,120.206,0.237396,0.0,0.0
2097,524,85.2322,95.2943,126.835,100.628,97.4865,0.0046026,0.474251,20.4736,119.876,0.285078,0.0,0.0
2106,526.25,86.1408,95.4668,128.842,100.637,97.5926,0.0048455,0.473658,20.474,119.576,0.27609,0.0,0.0
2115,528.5,85.557,95.799,132.047,100.623,97.7409,0.00496871,0.472661,20.4742,119.306,0.261206,0.0,0.0
2124,530.75,85.702,95.9281,131.022,100.623,98.0279,0.00487486,0.471239,20.4742,118.915,0.234817,0.0,0.0
2133,533,85.6186,95.4009,130.706,100.617,97.7097,0.00475507,0.472302,20.476,118.655,0.263553,0.0,0.0
2142,535.25,85.6881,95.1165,128.916,100.623,96.7477,0.00470188,0.472087,20.4764,118.375,0.353002,0.0,0.0
2151,537.5,85.4677,95.6508,130.341,100.618,97.1917,0.00462412,0.470792,20.4761,117.984,0.31136,0.0,0.0
2160,539.75,85.7116,95.472,128.529,100.606,97.3167,0.00445092,0.469667,20.4776,117.704,0.298768,0.0,0.0
2169,542,86.0057,95.6227,125.263,100.608,97.9265,0.00441143,0.46915,20.4783,117.414,0.242776,0.0,0.0
2178,544.25,86.1999,95.2986,129.793,100.604,97.504,0.00455912,0.46931,20.4798,117.094,0.281295,0.0,0.0
2187,546.5,85.5345,95.7822,127.09,100.582,97.6712,0.00459761,0.468616,20.4793,116.773,0.263915,0.0,0.0
2196,548.75,86.1175,95.9651,129.434,100.593,97.1743,0.00454948,0.468086,20.4788,116.463,0.310762,0.0,0.0
2205,551,85.776,95.5011,129.013,100.595,96.2564,0.00437703,0.467781,20.4783,116.173,0.39625,0.0,0.0
2214,553.25,85.4762,95.4507,135.598,100.596,97.9494,0.00437023,0.466709,20.4802,115.853,0.239583,0.0,0.0
2223,555.5,86.1342,95.5324,132.35,100.576,98.0918,0.00440079,0.465888,20.4816,115.502,0.22473,0.0,0.0
2232,557.75,86.3282,95.3784,128.787,100.587,97.7354,0.00442691,0.463178,20.4822,115.262,0.258451,0.0,0.0
2241,560,86.0776,96.2308,132.216,100.546,98.1506,0.00443974,0.461707,20.4846,114.912,0.216684,0.0,0.0
2250,562.25,85.7952,95.3558,132.144,100.525,97.6261,0.00440001,0.461324,20.4862,114.671,0.262955,0.0,0.0
2259,564.5,85.9825,95.2263,130.242,100.518,97.0196,0.00443382,0.460952,20.4868,114.351,0.318334,0.0,0.0
2268,566.75,85.6105,95.2987,126,100.508,97.0402,0.00462217,0.459201,20.488,114.121,0.315519,0.0,0.0
2277,569,85.4797,94.6506,129.731,100.453,97.7869,0.00474261,0.455982,20.489,113.761,0.241753,0.0,0.0
2286,571.25,85.5347,94.6514,131.328,100.414,96.7417,0.00458489,0.45671,20.4893,113.51,0.33487,0.0,0.0
2295,573.5,85.7679,95.142,130.074,100.385,97.8805,0.00433524,0.453895,20.4919,113.22,0.227102,0.0,0.0
2304,575.75,85.4936,95.0743,127.878,100.332,97.3456,0.00428576,0.452541,20.4947,112.91,0.271546,0.0,0.0
2313,578,85.4765,95.3598,132.151,100.272,96.716,0.00457153,0.454532,20.4973,112.58,0.324517,0.0,0.0
2322,580.25,85.6205,95.1206,130.313,100.224,97.4007,0.00490386,0.457192,20.4971,112.269,0.256793,0.0,0.0
2331,582.5,85.8217,94.9711,131.562,100.16,95.8996,0.00499126,0.458219,20.493,111.979,0.390697,0.0,0.0
2340,584.75,85.2557,95.1665,129.827,100.1,96.5314,0.00499069,0.458986,20.4911,111.649,0.326215,0.0,0.0
2349,587,85.4902,95.0253,130.608,100.025,97.2326,0.00492861,0.458022,20.4904,111.389,0.254495,0.0,0.0
2358,589.25,85.6873,95.2065,127.601,99.9703,96.3046,0.00476269,0.457876,20.4914,111.078,0.335746,0.0,0.0
2367,591.5,85.5623,95.4765,136.683,99.9028,97.7529,0.00461469,0.458527,20.4917,110.828,0.195518,0.0,0.0
2376,593.75,86.0559,95.5904,135.145,99.8285,96.7326,0.00460306,0.458502,20.4907,110.448,0.283135,0.0,0.0
2385,596,85.5502,95.6555,125.876,99.7609,96.0406,0.00463394,0.457627,20.4902,110.198,0.341575,0.0,0.0
2394,598.25,86.3147,95.6336,130.315,99.7085,96.733,0.00462343,0.457264,20.491,109.937,0.27228,0.0,0.0
2403,600.5,85.6348,95.7327,136.954,99.6883,96.4286,0.00452411,0.455989,20.4918,109.647,0.298795,0.0,0.0
2412,602.75,85.5681,95.1401,130.504,99.6367,97.4264,0.00448215,0.454989,20.4926,109.357,0.201618,0.0,0.0
2421,605,85.5231,94.6603,130.773,99.5968,96.9052,0.00458841,0.454135,20.494,109.057,0.246229,0.0,0.0
2430,607.25,85.6058,95.0236,129.202,99.5578,96.9869,0.00468543,0.453805,20.4946,108.776,0.235128,0.0,0.0
2439,609.5,86.3053,95.5742,133.936,99.4936,96.9883,0.0047003,0.452861,20.4948,108.456,0.229202,0.0,0.0
2448,611.75,85.9134,95.0833,126.675,99.429,96.7771,0.00473655,0.453237,20.4948,108.156,0.242957,0.0,0.0
2457,614,85.7354,95.8597,124.047,99.3841,96.2789,0.00473641,0.452742,20.4949,107.936,0.285285,0.0,0.0
2466,616.25,85.8507,95.7592,126.745,99.3186,96.5806,0.00465139,0.452942,20.4949,107.575,0.251245,0.0,0.0
2475,618.5,86.4329,95.5287,128.233,99.2443,96.3413,0.00460159,0.45199,20.4953,107.305,0.266812,0.0,0.0
2484,620.75,86.2796,95.2414,129.855,99.2112,96.1921,0.00467047,0.453304,20.4954,107.025,0.277741,0.0,0.0
2493,623,85.5149,95.4272,127.945,99.1562,96.5268,0.00479871,0.454236,20.495,106.774,0.241537,0.0,0.0
2502,625.25,85.9205,95.099,131.035,99.1247,96.5819,0.00493523,0.453911,20.4941,106.424,0.233555,0.0,0.0
2511,627.5,86.0187,94.538,133.087,99.0907,96.3859,0.00499504,0.450767,20.4919,106.164,0.248736,0.0,0.0
2520,629.75,86.3587,94.6567,131.472,99.0773,96.2761,0.00493146,0.449299,20.4937,105.934,0.257758,0.0,0.0
2529,632,86.1928,95.3042,126.707,99.0635,96.2697,0.00483119,0.447963,20.4959,105.674,0.257102,0.0,0.0
2538,634.25,85.7818,94.9001,128.844,99.0567,96.5025,0.00479001,0.444669,20.4967,105.313,0.234785,0.0,0.0
2547,636.5,86.0479,94.6231,130.713,99.0614,95.5171,0.00483216,0.443796,20.4989,105.043,0.32745,0.0,0.0
2556,638.75,85.5568,94.5455,127.479,99.0832,96.7693,0.00497041,0.444042,20.5007,104.833,0.212371,0.0,0.0
2565,641,85.0311,94.2101,130.406,99.1,95.6006,0.00493979,0.44227,20.5014,104.502,0.323091,0.0,0.0
2574,643.25,85.591,94.6224,128.42,99.1193,95.7269,0.00473969,0.438284,20.5015,104.252,0.312979,0.0,0.0
2583,645.5,85.1425,93.9839,132.163,99.1675,97.4631,0.00459977,0.435883,20.5047,104.022,0.155809,0.0,0.0
2592,647.75,84.8972,94.076,132.353,99.2057,96.474,0.00450655,0.433394,20.5081,103.772,0.250943,0.0,0.0
2601,650,85.4606,93.7298,135.287,99.262,96.7505,0.00439238,0.433741,20.5098,103.432,0.230321,0.0,0.0
2610,652.25,85.4783,93.671,131.745,99.2846,96.6021,0.0042791,0.433028,20.5107,103.131,0.246161,0.0,0.0
2619,654.5,84.5465,92.8909,132.47,99.3421,96.2904,0.00428529,0.430798,20.511,102.891,0.280418,0.0,0.0
2628,656.75,84.4594,93.2074,135.79,99.3866,98.3393,0.00432915,0.429734,20.5124,102.611,0.0952095,0.0,0.0
2637,659,84.3475,92.7533,127.754,99.4328,97.5508,0.00419954,0.427979,20.5146,102.371,0.171729,0.0,0.0
2646,661.25,84.6945,92.766,128.121,99.4957,97.3952,0.00414302,0.425149,20.5167,102.14,0.19177,0.0,0.0
2655,663.5,84.4125,92.7582,133.03,99.528,98.3485,0.00422575,0.422504,20.5188,101.83,0.107151,0.0,0.0
2664,665.75,84.6084,92.3771,134.104,99.5599,98.3939,0.00427403,0.417817,20.5216,101.59,0.105876,0.0,0.0
2673,668,84.7386,92.6148,129.706,99.6187,96.9755,0.00418126,0.418771,20.5265,101.35,0.241684,0.0,0.0
2682,670.25,83.6659,92.3896,128.244,99.6694,97.3984,0.00407227,0.420824,20.5284,101.14,0.207154,0.0,0.0
2691,672.5,84.1173,92.4406,133.346,99.6934,97.5054,0.00409827,0.418488,20.5256,100.909,0.199444,0.0,0.0
2700,674.75,84.2073,92.2358,131.587,99.7416,97.8819,0.00402508,0.415263,20.5259,100.579,0.169154,0.0,0.0
2709,677,83.6182,91.6138,130.054,99.7773,98.2929,0.0039918,0.41351,20.5294,100.339,0.134711,0.0,0.0
2718,679.25,83.7549,91.6008,131.857,99.8449,97.4663,0.00410521,0.411861,20.5327,100.139,0.21669,0.0,0.0
2727,681.5,83.4505,91.7131,136.453,99.8717,97.9591,0.00406887,0.408438,20.5356,99.8984,0.173788,0.0,0.0
2736,683.75,83.8056,92.048,128.375,99.9221,98.3654,0.00396881,0.407321,20.5388,99.5881,0.141111,0.0,0.0
2745,686,83.7088,91.6091,134.494,99.9745,99.3339,0.00393866,0.405544,20.5423,99.398,0.0577774,0.0,0.0
2754,688.25,83.6851,91.5575,138.346,100.024,98.1538,0.00388869,0.403448,20.5439,99.1778,0.169641,0.0,0.0
2763,690.5,83.0972,91.4872,132.105,100.062,98.0775,0.00384265,0.401585,20.5458,98.9175,0.180055,0.0,0.0
2772,692.75,83.4797,91.2416,130.211,100.086,98.8494,0.0037663,0.399349,20.5484,98.6473,0.111708,0.0,0.0
2781,695,83.1056,91.2284,128.132,100.138,98.8954,0.00370477,0.396138,20.5503,98.5072,0.112206,0.0,0.0
2790,697.25,83.4535,90.6653,133.226,100.151,98.9417,0.00370025,0.391278,20.5528,98.2169,0.109159,0.0,0.0
2799,699.5,83.1786,90.9229,128.962,100.179,99.276,0.00370556,0.386685,20.5585,98.0267,0.0813679,0.0,0.0
2808,701.75,82.8908,90.811,129.844,100.214,99.0671,0.00363718,0.383286,20.5648,97.8166,0.103464,0.0,0.0
2817,704,82.9577,90.6372,132.801,100.215,98.8559,0.00359586,0.380211,20.5689,97.6564,0.122722,0.0,0.0
2826,706.25,82.5954,89.9798,131.509,100.213,99.2099,0.00359422,0.376451,20.5724,97.3962,0.0904431,0.0,0.0
2835,708.5,82.7919,89.8815,131.145,100.251,99.0377,0.00351719,0.371162,20.576,97.186,0.109404,0.0,0.0
2844,710.75,82.115,89.5461,133.524,100.273,99.8532,0.00346599,0.36642,20.5808,97.0459,0.0376954,0.0,0.0
2853,713,82.2459,89.1959,132.806,100.282,98.8784,0.00347694,0.361839,20.585,96.8657,0.126697,0.0,0.0
2862,715.25,81.7238,88.8554,135.415,100.267,99.9001,0.00350515,0.356312,20.5906,96.6055,0.0329166,0.0,0.0
2871,717.5,81.7312,88.4302,133.656,100.279,100.467,0.00341199,0.351056,20.5967,96.4153,-0.0168267,0.0,0.0
2880,719.75,81.1946,87.8406,133.853,100.285,99.9051,0.00314988,0.345,20.602,96.2752,0.0341163,0.0,0.0
2889,722,81.1838,88.195,132.14,100.264,100.134,0.0028924,0.338381,20.6064,96.085,0.0116084,0.0,0.0
2898,724.25,81.1517,86.9397,134.633,100.257,99.9561,0.00277852,0.331814,20.6146,95.9149,0.0269753,0.0,0.0
2907,726.5,80.3211,86.989,133.778,100.256,100.597,0.00273984,0.324774,20.6208,95.8348,-0.0305163,0.0,0.0
2916,728.75,80.1137,86.3401,130.947,100.219,99.7146,0.0026436,0.316082,20.6279,95.6246,0.0453695,0.0,0.0
2925,731,80.0298,85.7503,137.016,100.187,100.617,0.00248445,0.309287,20.6376,95.4745,-0.0384518,0.0,0.0
2934,733.25,79.4571,85.2568,133.429,100.16,100.233,0.00245024,0.301845,20.6465,95.3244,-0.00658173,0.0,0.0
2943,735.5,79.1288,84.4021,134.559,100.137,100.234,0.0025657,0.292699,20.6549,95.2143,-0.00866035,0.0,0.0
2952,737.75,78.6629,84.0156,133.53,100.095,100.386,0.00265059,0.284578,20.6643,95.1042,-0.0260867,0.0,0.0
2961,740,77.983,83.3402,136.029,100.067,101.163,0.00250372,0.275575,20.6723,94.974,-0.0978995,0.0,0.0
2970,742.25,78.0748,82.6242,135.634,100.026,100.858,0.00236083,0.26609,20.6819,94.914,-0.0744693,0.0,0.0
2979,744.5,77.1206,81.7758,140.717,99.9804,101.332,0.00236074,0.255802,20.6915,94.8239,-0.120708,0.0,0.0
2988,746.75,76.739,80.7389,138.702,99.9288,100.925,0.00230888,0.245896,20.7024,94.6938,-0.0891928,0.0,0.0
2997,749,76.4834,80.608,139.347,99.8835,102.668,0.00224329,0.235492,20.7131,94.6237,-0.247087,0.0,0.0
3006,751.25,75.7237,79.5364,137.857,99.8348,102.057,0.00221864,0.225795,20.7262,94.5937,-0.197887,0.0,0.0
3015,753.5,75.2592,78.8756,139.513,99.7576,102.296,0.00212228,0.216463,20.736,94.4836,-0.225844,0.0,0.0
3024,755.75,75.0858,78.365,138.253,99.695,102.367,0.00196304,0.205852,20.7467,94.4236,-0.23769,0.0,0.0
3033,758,74.4925,77.6313,137.795,99.6489,102.914,0.0018521,0.196153,20.7591,94.4035,-0.28978,0.0,0.0
3042,760.25,74.1706,76.9941,137.684,99.6015,102.767,0.00165116,0.186497,20.7712,94.3535,-0.281176,0.0,0.0
3051,762.5,73.6424,76.4883,140.704,99.5666,102.265,0.00142985,0.177131,20.7826,94.2734,-0.24036,0.0,0.0
3060,764.75,72.6372,75.4777,139.741,99.5087,102.569,0.0014713,0.170187,20.7935,94.2234,-0.272224,0.0,0.0
3069,767,72.1206,74.6929,139.928,99.4932,102.698,0.00164918,0.165555,20.8025,94.2034,-0.284966,0.0,0.0
3078,769.25,71.7976,74.0604,140.361,99.494,101.799,0.00186502,0.160051,20.8089,94.0833,-0.205821,0.0,0.0
3087,771.5,71.895,74.0814,143.816,99.5503,102.073,0.00194746,0.154062,20.8149,94.0833,-0.224953,0.0,0.0
3096,773.75,70.7668,73.1523,140.418,99.6279,101.833,0.00192734,0.14923,20.8212,94.0432,-0.196736,0.0,0.0
3105,776,70.831,72.5746,141.478,99.7064,102.63,0.00177677,0.145958,20.8269,94.0432,-0.259779,0.0,0.0
3114,778.25,70.1925,72.0305,142.846,99.7756,102.059,0.00169574,0.142523,20.8316,93.9431,-0.203377,0.0,0.0
3123,780.5,70.0713,71.3115,139.752,99.8163,102.542,0.00175773,0.13913,20.8358,93.8831,-0.24215,0.0,0.0
3132,782.75,68.7665,71.3106,141.981,99.8889,102.13,0.00186207,0.135309,20.8392,93.9131,-0.199442,0.0,0.0
3141,785,69.3734,71.0224,140.323,99.9095,102.278,0.0017681,0.131642,20.8443,93.843,-0.210594,0.0,0.0
3150,787.25,68.2248,70.0788,140.447,99.9775,102.403,0.00154301,0.128508,20.8484,93.763,-0.215408,0.0,0.0
3159,789.5,68.5636,70.0691,140.496,100.032,102.515,0.00136856,0.126304,20.8527,93.7029,-0.220336,0.0,0.0
3168,791.75,68.1899,69.5928,140.743,100.09,102.33,0.00133276,0.125356,20.8553,93.753,-0.198897,0.0,0.0
3177,794,67.4321,69.7924,140.824,100.098,102.872,0.00137325,0.124654,20.8578,93.6228,-0.245759,0.0,0.0
3186,796.25,67.723,70.2786,141.059,100.115,102.31,0.00146041,0.123721,20.859,93.6228,-0.194977,0.0,0.0
3195,798.5,67.3194,69.3652,140.101,100.121,102.412,0.00150363,0.123374,20.8606,93.6729,-0.203284,0.0,0.0
3204,800.75,67.2998,68.9207,142.18,100.13,102.849,0.00152592,0.122776,20.8613,93.5628,-0.240853,0.0,0.0
3213,803,66.4242,68.4752,146.308,100.118,102.948,0.0015481,0.121908,20.8615,93.5027,-0.250492,0.0,0.0
3222,805.25,66.6723,68.6954,139.047,100.112,102.733,0.00147048,0.121523,20.8616,93.5027,-0.232276,0.0,0.0
3231,807.5,66.4123,68.0736,140.504,100.103,102.201,0.00144796,0.121012,20.8616,93.5528,-0.186424,0.0,0.0
3240,809.75,66.0151,68.4519,143.371,100.058,102.492,0.0015676,0.120125,20.8626,93.4427,-0.216061,0.0,0.0
3249,812,66.1136,68.0501,141.438,100.022,102.424,0.00163314,0.119052,20.8631,93.4327,-0.213267,0.0,0.0
3258,814.25,65.325,67.4785,138.06,99.9846,102.503,0.00162788,0.11913,20.8632,93.4127,-0.223589,0.0,0.0
3267,816.5,65.5869,67.4327,142.732,99.9267,101.839,0.00158949,0.119037,20.8637,93.3626,-0.170388,0.0,0.0
3276,818.75,65.1368,67.2626,143.419,99.86,102.08,0.00153582,0.118672,20.8637,93.3226,-0.197601,0.0,0.0
3285,821,64.9206,67.0775,140.735,99.7807,102.849,0.0015042,0.118098,20.8635,93.2926,-0.272166,0.0,0.0
3294,823.25,64.5005,66.8036,141.297,99.7521,102.265,0.0015357,0.117562,20.8641,93.3126,-0.223592,0.0,0.0
3303,825.5,63.9627,66.6682,138.735,99.7752,101.975,0.00153294,0.116766,20.8656,93.2225,-0.195972,0.0,0.0
3312,827.75,64.1809,66.2518,147.846,99.8046,101.663,0.00144934,0.116163,20.8661,93.1825,-0.165804,0.0,0.0
3321,830,64.0275,66.0029,139.553,99.834,102.27,0.00142606,0.115544,20.8676,93.2025,-0.216666,0.0,0.0
3330,832.25,64.09,66.1153,143.292,99.8793,101.917,0.00149411,0.115265,20.8683,93.2525,-0.181541,0.0,0.0
3339,834.5,63.6819,65.8385,139.818,99.8998,102.229,0.00155733,0.115396,20.8681,93.1324,-0.207104,0.0,0.0
3348,836.75,63.5859,65.5808,138.508,99.9317,102.509,0.00164194,0.115304,20.8681,93.0824,-0.228827,0.0,0.0
3357,839,62.9726,65.5115,143.554,99.9766,101.963,0.00175042,0.115148,20.8672,93.1024,-0.176833,0.0,0.0
3366,841.25,63.3754,65.2526,141.2,100.01,102.696,0.00180414,0.114368,20.8667,93.1224,-0.23822,0.0,0.0
3375,843.5,62.5824,65.4621,140.98,100.04,101.978,0.00182131,0.113793,20.8669,93.1224,-0.172474,0.0,0.0
3384,845.75,62.7454,65.2994,140.509,100.087,102.491,0.00180991,0.113233,20.868,92.9923,-0.213306,0.0,0.0
3393,848,62.6291,65.3422,141.823,100.141,101.748,0.00177465,0.112927,20.8684,93.0523,-0.143095,0.0,0.0
3402,850.25,62.4202,64.8479,144.069,100.163,101.997,0.00173301,0.112961,20.8686,92.9823,-0.163053,0.0,0.0
3411,852.5,62.2218,64.7692,140.237,100.207,102.508,0.00166132,0.11332,20.8686,92.9122,-0.203983,0.0,0.0
3420,854.75,62.1568,64.6335,142.603,100.276,102.086,0.00158094,0.113832,20.8687,92.9222,-0.160778,0.0,0.0
3429,857,61.9973,64.4389,140.51,100.289,101.865,0.00160197,0.113641,20.8687,92.9022,-0.140184,0.0,0.0
3438,859.25,61.9845,64.5469,142.953,100.308,102.595,0.00164885,0.112843,20.8687,92.9022,-0.202598,0.0,0.0
3447,861.5,62.0645,64.422,142.851,100.347,102.713,0.00169992,0.112415,20.8706,92.8522,-0.209396,0.0,0.0
3456,863.75,61.5299,63.7333,143.062,100.385,103.279,0.00168846,0.112521,20.8723,92.8822,-0.255421,0.0,0.0
3465,866,62.1436,64.2712,142.28,100.403,101.898,0.00165866,0.112929,20.8734,92.7221,-0.132876,0.0,0.0
3474,868.25,61.5818,64.0978,140.096,100.441,103.24,0.00166362,0.112743,20.8728,92.702,-0.247029,0.0,0.0
3483,870.5,60.3769,63.8646,142.976,100.493,102.388,0.00160087,0.112467,20.8729,92.7621,-0.167952,0.0,0.0
3492,872.75,61.7102,64.1005,139.783,100.526,102.394,0.00152592,0.112459,20.8737,92.7721,-0.165508,0.0,0.0
3501,875,61.6251,63.8859,139.696,100.525,102.71,0.00162707,0.112562,20.8738,92.692,-0.19331,0.0,0.0
3510,877.25,61.8817,64.1111,141.245,100.553,101.91,0.00179359,0.112273,20.8735,92.652,-0.120448,0.0,0.0
3519,879.5,61.1712,63.5284,141.03,100.601,102.175,0.00184533,0.112411,20.8734,92.692,-0.139549,0.0,0.0
3528,881.75,60.8417,64.162,142.034,100.609,103.345,0.00182526,0.113042,20.8746,92.5719,-0.241133,0.0,0.0
3537,884,60.8183,63.571,143.571,100.627,102.221,0.00186719,0.113516,20.875,92.5219,-0.141304,0.0,0.0
3546,886.25,60.8771,63.6902,142.559,100.649,102.495,0.00196585,0.113589,20.874,92.5319,-0.163269,0.0,0.0
3555,888.5,60.9796,63.5597,142.438,100.662,103.017,0.00189583,0.113342,20.8736,92.5619,-0.207812,0.0,0.0
3564,890.75,60.9786,63.5027,143.21,100.651,102.559,0.00178484,0.11324,20.8734,92.4518,-0.168757,0.0,0.0
3573,893,60.6471,63.6759,141.791,100.657,102.913,0.00176104,0.113435,20.8734,92.4418,-0.199239,0.0,0.0
3582,895.25,58.8877,62.0733,145.367,100.688,103.002,0.00176148,0.113245,20.8734,92.5219,-0.204168,0.0,0.0
3591,897.5,59.0208,61.9185,145.737,100.675,103.125,0.00183139,0.113102,20.8734,92.3918,-0.216021,0.0,0.0
3600,899.75,58.9911,62.2501,147.014,100.696,102.879,0.00187696,0.113219,20.8748,92.3717,-0.192712,0.0,0.0
3609,902,59.4832,62.2493,144.87,100.693,102.618,0.00188207,0.112987,20.8753,92.3717,-0.17016,0.0,0.0
3618,904.25,59.1359,61.991,146.896,100.701,102.353,0.00192747,0.112894,20.8769,92.4418,-0.146289,0.0,0.0
3627,906.5,58.649,61.7378,142.574,100.715,102.578,0.00202445,0.112727,20.8776,92.3017,-0.16471,0.0,0.0
3636,908.75,58.9268,62.0682,142.807,100.707,102.248,0.00208609,0.112608,20.8778,92.3317,-0.136529,0.0,0.0
3645,911,58.5338,60.9681,141.891,100.711,102.748,0.00214985,0.112683,20.8779,92.3417,-0.179923,0.0,0.0
3654,913.25,58.0563,61.4367,144.702,100.718,102.427,0.00222369,0.112772,20.878,92.3117,-0.151164,0.0,0.0
3663,915.5,58.0229,61.2028,147.196,100.727,102.802,0.00224111,0.113078,20.878,92.2316,-0.183314,0.0,0.0
3672,917.75,58.4053,61.2276,142.422,100.712,102.339,0.00227541,0.113326,20.878,92.2316,-0.144027,0.0,0.0
3681,920,58.1092,60.9969,143.119,100.736,102.563,0.0022867,0.112883,20.878,92.3117,-0.161551,0.0,0.0
3690,922.25,57.9622,61.2485,142.49,100.701,102.596,0.00235651,0.112674,20.878,92.1916,-0.167633,0.0,0.0
3699,924.5,58.112,60.5867,141.979,100.705,101.825,0.00247471,0.112981,20.878,92.2116,-0.0993878,0.0,0.0
3708,926.75,57.9681,61.0288,143.58,100.707,102.149,0.00249691,0.113395,20.878,92.1516,-0.127729,0.0,0.0
3717,929,57.9963,60.8075,138.492,100.68,102.854,0.00244439,0.113455,20.8782,92.1616,-0.191929,0.0,0.0
3726,931.25,57.9078,60.7562,144.303,100.66,102.074,0.00235201,0.114023,20.8786,92.0815,-0.125374,0.0,0.0
3735,933.5,58.1292,60.722,143.174,100.654,102.136,0.00233724,0.114414,20.8778,92.0415,-0.131392,0.0,0.0
3744,935.75,57.1005,60.4432,142.851,100.64,102.245,0.00237593,0.114175,20.8775,92.1115,-0.142241,0.0,0.0
3753,938,57.566,60.8252,145.078,100.618,103.344,0.00236595,0.114235,20.8774,92.0214,-0.240304,0.0,0.0
3762,940.25,57.3506,60.6958,142.073,100.589,101.913,0.00240369,0.114447,20.8769,92.0415,-0.117506,0.0,0.0
3771,942.5,57.6612,60.3419,144.152,100.57,102.51,0.00248727,0.113753,20.8766,92.0815,-0.171683,0.0,0.0
3780,944.75,57.59,60.7546,141.362,100.545,102.534,0.00253422,0.113185,20.8766,92.0915,-0.176027,0.0,0.0
3789,947,57.892,60.3599,141.697,100.506,102.624,0.00249162,0.113212,20.8779,91.9614,-0.187405,0.0,0.0
3798,949.25,57.1198,59.8337,147.04,100.49,101.799,0.00248749,0.113489,20.8785,91.9113,-0.116311,0.0,0.0
3807,951.5,57.2576,60.1351,143.529,100.466,101.813,0.00254788,0.113851,20.8792,92.0114,-0.119708,0.0,0.0
3816,953.75,57.1574,59.6188,146.516,100.431,101.648,0.00261961,0.114452,20.879,91.9213,-0.108261,0.0,0.0
3825,956,57.4364,60.2827,142.918,100.408,101.907,0.00267624,0.114383,20.8771,91.8913,-0.133158,0.0,0.0
3834,958.25,56.9683,59.9793,145.473,100.378,102.047,0.00268811,0.114378,20.8762,91.8413,-0.148243,0.0,0.0
3843,960.5,56.9119,59.6586,140.303,100.344,102.168,0.00267464,0.114327,20.8772,91.9213,-0.161877,0.0,0.0
3852,962.75,57.2062,59.8626,145.65,100.314,101.248,0.00259933,0.114801,20.8777,91.8012,-0.0833115,0.0,0.0
3861,965,56.7833,60.0396,141.992,100.265,101.775,0.00244272,0.11458,20.8772,91.7912,-0.134383,0.0,0.0
3870,967.25,56.8859,60.0712,147.313,100.253,101.835,0.00232402,0.114277,20.8772,91.7712,-0.140666,0.0,0.0
3879,969.5,57.1003,59.5988,143.119,100.204,101.729,0.00230493,0.114427,20.8777,91.7412,-0.135781,0.0,0.0
3888,971.75,56.5677,60.1302,141.503,100.154,101.341,0.00239916,0.114568,20.8779,91.6911,-0.105875,0.0,0.0
3897,974,56.4813,59.8343,143.522,100.127,101.874,0.0025849,0.115299,20.8772,91.6611,-0.155481,0.0,0.0
3906,976.25,56.8627,59.8207,142.183,100.096,101.583,0.00264379,0.11609,20.8763,91.7012,-0.132591,0.0,0.0
3915,978.5,56.8282,59.6977,142.633,100.045,101.375,0.00258119,0.116109,20.876,91.6311,-0.118687,0.0,0.0
3924,980.75,56.5718,59.4402,143.543,99.9947,101.913,0.00248994,0.11585,20.876,91.6011,-0.170798,0.0,0.0
3933,983,55.8872,59.9603,140.353,99.9905,101.353,0.00243213,0.115398,20.8763,91.6611,-0.121676,0.0,0.0
3942,985.25,56.589,59.3099,143.742,99.9603,102.061,0.00234341,0.114834,20.8772,91.6411,-0.186922,0.0,0.0
3951,987.5,56.5739,59.153,143.121,99.9259,101.236,0.00238413,0.114565,20.8776,91.501,-0.117057,0.0,0.0
3960,989.75,56.4787,59.3725,141.984,99.8889,101.4,0.00245117,0.115092,20.8777,91.531,-0.134962,0.0,0.0
3969,992,56.4602,59.7364,139.757,99.8763,101.563,0.00255046,0.115445,20.8778,91.581,-0.15053,0.0,0.0
3978,994.25,56.1919,59.5234,142.113,99.831,101.321,0.00261936,0.115414,20.8778,91.481,-0.133171,0.0,0.0
3987,996.5,56.4298,59.8139,145.225,99.8037,101.125,0.00255285,0.115289,20.8778,91.4409,-0.118218,0.0,0.0
3996,998.75,56.2958,59.342,143.972,99.7941,101.068,0.00256046,0.11544,20.8778,91.4609,-0.113984,0.0,0.0
4005,1001,56.0898,59.2029,144.732,99.7358,101.327,0.00259979,0.115903,20.8782,91.501,-0.14224,0.0,0.0
4014,1003.25,56.3024,58.8377,140.773,99.6883,101.311,0.00268471,0.115755,20.8792,91.4109,-0.145129,0.0,0.0
4023,1005.5,55.7518,58.8598,143.825,99.6392,101.403,0.0027684,0.115732,20.8796,91.3809,-0.15766,0.0,0.0
4032,1007.75,56.2896,59.3478,140.748,99.6191,101.129,0.00281448,0.115779,20.8798,91.3508,-0.135228,0.0,0.0
4041,1010,55.6524,59.3953,144.981,99.5591,100.645,0.00282643,0.116094,20.8798,91.3008,-0.0974874,0.0,0.0
4050,1012.25,56.2899,59.5239,145.272,99.5138,100.903,0.00288918,0.116067,20.8799,91.2307,-0.124636,0.0,0.0
4055,1013.5,56.6851,59.2051,141.783,99.4974,101.325,0.0029543,0.116067,20.8799,91.2708,-0.163542,0.0,0.0