File: 01_Data/Pressure_Treated_Deck/Cone/Pressure_Treated_Deck_Cone_HF75Scan_230613_R1.csv
Names,Time,Stack TC,Smoke TC,Exh Press,Smoke Comp,Smoke Meas,CO Meter,CO2 Meter,O2 Meter,Sample Mass,Ext Coeff,Start Test,Flame Verif
Chan Gain,,500,500,1,1,1,1,1,1,1,1,1.0,1.0
Offset,,0,0,0.245636,0,0,0,0,0,0,0,0.0,0.0
Gain,,1,1,25.011,13.7521,15.0883,1,1,1,1.00089,1.02456,1.0,1.0
Units,sec,C,C,Pa,%,%,%,%,%,g,/m,,
Baseline,,41.4249,44.8411,150.547,98.874,98.9784,0.000893484,0.0472929,20.9682,-443.144,-0.0094821,,
9,2,38.5971,40.5282,152.312,99.494,99.2241,0.00104752,0.0590293,20.9562,210.416,0.0244188,0.0,0.0
18,4.25,39.3764,41.8109,155.348,99.4991,98.66,0.00161467,0.065202,20.9539,210.416,0.0761098,0.0,0.0
27,6.5,38.9954,41.4966,152.134,99.5389,98.4362,0.00196483,0.0799823,20.9497,210.216,0.100118,0.0,0.0
36,8.75,38.9738,41.5531,150.598,99.5541,98.0688,0.00218202,0.0928937,20.9317,210.166,0.135094,0.0,0.0
45,11,39.295,43.3502,150.219,99.5943,95.5694,0.00261178,0.0898226,20.9161,210.036,0.37075,0.0,0.0
54,13.25,39.917,44.0435,152.903,99.6296,95.2181,0.00304692,0.0795752,20.9112,209.746,0.40703,0.0,0.0
63,15.5,40.1845,44.6792,140.778,99.6565,100.022,0.00314012,0.0709595,20.9205,209.405,-0.0329107,0.0,1.0
72,17.75,42.0504,49.5575,133.66,99.6795,99.0413,0.00279667,0.064968,20.9357,209.065,0.0577317,0.0,1.0
81,20,42.5474,52.5096,134.493,99.7626,98.4666,0.00247504,0.0641668,20.9448,208.625,0.117519,0.0,1.0
90,22.25,44.5371,56.6377,131.934,99.779,97.9016,0.00249763,0.0936348,20.9504,208.104,0.170709,0.0,0.0
99,24.5,46.5749,60.9877,129.875,99.7971,98.09,0.00275421,0.187267,20.9432,207.694,0.155063,0.0,0.0
108,26.75,49.4709,64.9562,127.627,99.8399,97.5743,0.00294021,0.298996,20.8504,207.283,0.206293,0.0,0.0
117,29,51.4182,67.1982,122.952,99.8575,96.9678,0.00327592,0.402516,20.7134,206.773,0.263909,0.0,0.0
126,31.25,53.0153,71.1217,132.315,99.8503,96.1293,0.00372329,0.480489,20.5859,206.293,0.34132,0.0,0.0
135,33.5,55.4091,74.1727,132.636,99.8843,96.2951,0.00420802,0.536797,20.5005,205.772,0.328896,0.0,0.0
144,35.75,56.7674,76.7819,130.748,99.9188,94.1434,0.00458169,0.576633,20.4297,205.372,0.535091,0.0,0.0
153,38,59.0193,79.3029,128.542,99.9188,95.9042,0.00471496,0.598512,20.3816,204.841,0.368551,0.0,0.0
162,40.25,59.9336,81.1328,128.906,99.9271,95.3364,0.00483236,0.617711,20.3508,204.391,0.422668,0.0,0.0
171,42.5,61.7467,81.7938,131.817,99.9465,93.4693,0.00509454,0.635074,20.3288,203.95,0.602168,0.0,0.0
180,44.75,63.4352,83.4313,128.64,99.9481,94.2557,0.00546755,0.64316,20.3085,203.42,0.527014,0.0,0.0
189,47,64.4403,84.3887,128.168,99.9507,94.5997,0.00590961,0.642467,20.2934,202.98,0.494504,0.0,0.0
198,49.25,65.3137,85.4605,122.087,99.9553,92.8859,0.00614604,0.641122,20.2907,202.509,0.659232,0.0,0.0
207,51.5,66.3075,86.9093,123.059,99.9855,95.3696,0.00626662,0.640645,20.2922,202.109,0.42479,0.0,0.0
216,53.75,67.6621,88.0779,131.256,99.9607,94.7751,0.00643675,0.642161,20.2931,201.548,0.478758,0.0,0.0
225,56,69.2608,88.7574,132.002,99.9586,95.2849,0.00669089,0.643258,20.2923,201.108,0.430362,0.0,0.0
234,58.25,69.2826,88.201,129.742,99.9771,94.4211,0.00680371,0.640475,20.2919,200.778,0.51387,0.0,0.0
243,60.5,70.4664,89.4868,129.317,99.9695,94.7885,0.00674266,0.635909,20.2942,200.397,0.478284,0.0,0.0
252,62.75,70.7906,89.8107,128.874,99.9603,93.3302,0.00675594,0.629318,20.2968,199.867,0.616794,0.0,0.0
261,65,71.3428,89.8066,125.876,99.9515,94.5771,0.00684558,0.61972,20.3024,199.436,0.496723,0.0,0.0
270,67.25,71.8613,89.6982,131.556,99.9695,93.9523,0.00687829,0.609227,20.3128,199.076,0.557919,0.0,0.0
279,69.5,71.9088,89.6782,129.548,99.9565,94.1963,0.0068163,0.599666,20.3252,198.596,0.533435,0.0,0.0
288,71.75,72.6417,89.8372,133.227,99.9565,94.7553,0.00677434,0.589726,20.3398,198.165,0.480259,0.0,0.0
297,74,73.3288,89.3371,128.43,99.9649,95.289,0.00674741,0.581436,20.3503,197.775,0.430538,0.0,0.0
306,76.25,73.6079,89.9963,130.876,99.9595,93.7156,0.00671051,0.574158,20.3584,197.415,0.579682,0.0,0.0
315,78.5,73.6612,88.9987,132.386,99.9746,94.9736,0.00677175,0.565954,20.3666,196.904,0.461204,0.0,0.0
324,80.75,73.7205,89.2606,134.419,99.9595,95.3024,0.00681081,0.558826,20.3774,196.604,0.428787,0.0,0.0
333,83,73.6458,89.2754,132.998,99.9729,94.0103,0.00671058,0.55202,20.3851,196.274,0.552672,0.0,0.0
342,85.25,74.4216,89.3881,128.489,99.9746,95.4585,0.00661539,0.545426,20.3895,195.803,0.415438,0.0,0.0
351,87.5,73.8085,89.447,128.098,99.9641,96.395,0.00654776,0.539074,20.3983,195.363,0.326746,0.0,0.0
360,89.75,75.0284,89.6943,131.612,99.9855,94.951,0.00638311,0.53295,20.4057,194.983,0.46432,0.0,0.0
369,92,74.8257,89.7586,127.617,99.9884,95.731,0.0062161,0.528082,20.4138,194.762,0.391055,0.0,0.0
378,94.25,75.2803,89.2946,131.245,99.9758,94.6398,0.0061606,0.523677,20.4207,194.292,0.492962,0.0,0.0
387,96.5,75.3991,89.3019,129.948,99.9687,95.7094,0.00609883,0.519243,20.4258,193.922,0.391313,0.0,0.0
396,98.75,75.5065,89.4769,129.016,99.9838,95.149,0.00594099,0.51568,20.4309,193.561,0.445448,0.0,0.0
405,101,75.638,89.0919,129.844,99.9762,95.988,0.00589779,0.512519,20.4368,193.201,0.365872,0.0,0.0
414,103.25,75.7905,88.9994,129.581,99.993,97.1249,0.00598868,0.508073,20.4394,192.771,0.261561,0.0,0.0
423,105.5,75.9166,88.3697,133.067,99.9666,96.2044,0.00605071,0.503472,20.4414,192.43,0.344764,0.0,0.0
432,107.75,75.8093,88.7731,126.038,99.9846,95.3912,0.00615846,0.500984,20.4471,192.15,0.422674,0.0,0.0
441,110,75.9057,89.05,134.101,99.975,95.2959,0.00626112,0.49788,20.452,191.69,0.430791,0.0,0.0
450,112.25,75.868,88.7525,132.872,99.9817,95.8904,0.00616725,0.49238,20.4554,191.319,0.375506,0.0,0.0
459,114.5,76.0916,89.0511,132.692,99.9901,96.2265,0.00600909,0.488843,20.4619,190.969,0.344813,0.0,0.0
468,116.75,76.2951,88.9597,138.556,99.9909,96.034,0.00593228,0.488228,20.4672,190.619,0.362881,0.0,0.0
477,119,76.0976,88.743,131.177,99.9876,96.0543,0.00594449,0.487144,20.4696,190.228,0.360684,0.0,0.0
486,121.25,76.5132,88.5557,126.482,99.9767,96.0313,0.00607968,0.486006,20.4696,189.858,0.361857,0.0,0.0
495,123.5,76.3799,88.5486,130.351,99.9947,95.9337,0.00611688,0.48417,20.4699,189.568,0.37262,0.0,0.0
504,125.75,76.6275,88.673,131.266,99.9943,95.8775,0.00596174,0.47853,20.4708,189.177,0.377847,0.0,0.0
513,128,76.4375,88.1792,134.266,99.9867,97.1529,0.00576958,0.474011,20.4754,188.867,0.258397,0.0,0.0
522,130.25,76.2296,87.6337,130.265,99.9939,95.8964,0.00564088,0.470832,20.4821,188.537,0.37604,0.0,0.0
531,132.5,76.0899,87.7698,129.506,99.9859,95.976,0.00561092,0.467949,20.4852,188.197,0.367861,0.0,0.0
540,134.75,75.8258,87.0978,137.56,99.98,95.9949,0.00567102,0.462796,20.488,187.806,0.365564,0.0,0.0
549,137,75.9334,86.8446,132.486,99.9758,96.7694,0.00562782,0.457536,20.4937,187.446,0.292968,0.0,0.0
558,139.25,75.9145,87.0457,128.085,99.9905,96.7556,0.00554099,0.4557,20.4985,187.166,0.295571,0.0,0.0
567,141.5,75.9429,87.5128,129.951,99.9704,96.8338,0.00542514,0.454085,20.5027,186.795,0.286492,0.0,0.0
576,143.75,76.1037,86.6789,133.249,99.9767,96.8606,0.00531387,0.447873,20.5066,186.405,0.28458,0.0,0.0
585,146,76.25,86.9353,135.786,99.9779,97.3555,0.00520311,0.444168,20.5118,186.105,0.238882,0.0,0.0
594,148.25,76.153,86.6563,131.633,99.9872,97.1976,0.00509152,0.444508,20.5156,185.794,0.254304,0.0,0.0
603,150.5,75.6441,87.0658,131.955,99.9683,96.1772,0.00496978,0.441891,20.5179,185.424,0.347453,0.0,0.0
612,152.75,76.1483,87.1959,130.29,99.9796,97.1364,0.00494956,0.438211,20.5193,185.054,0.259289,0.0,0.0
621,155,75.9036,86.9511,133.776,99.9888,96.39,0.00501317,0.436316,20.5241,184.794,0.329444,0.0,0.0
630,157.25,76.4141,86.7634,130.001,99.9767,97.5807,0.00500021,0.435757,20.5261,184.443,0.218007,0.0,0.0
639,159.5,76.0343,86.6403,131.346,99.9548,97.3772,0.00490058,0.435505,20.5271,184.103,0.234809,0.0,0.0
648,161.75,75.4954,86.9727,135.474,99.9406,97.7009,0.00486242,0.433681,20.5275,183.763,0.203699,0.0,0.0
657,164,76.4435,86.6814,130.951,99.9494,97.6898,0.0048413,0.431321,20.5292,183.452,0.205508,0.0,0.0
666,166.25,76.274,86.7788,131.576,99.9238,96.879,0.00472525,0.430568,20.5324,183.062,0.278116,0.0,0.0
675,168.5,76.597,86.6955,129.464,99.9028,97.1064,0.00452311,0.429442,20.5338,182.682,0.255152,0.0,0.0
684,170.75,76.1563,86.3619,127.198,99.8827,97.7833,0.00442372,0.427577,20.5352,182.391,0.190911,0.0,0.0
693,173,75.5764,86.5755,130.956,99.8583,97.7838,0.00451865,0.425139,20.5375,182.121,0.188678,0.0,0.0
702,175.25,75.5472,86.1942,130.933,99.8277,98.0932,0.00459486,0.422734,20.5394,181.701,0.157525,0.0,0.0
711,177.5,75.6834,86.6854,134.255,99.7958,97.4674,0.00458426,0.4225,20.5414,181.401,0.212171,0.0,0.0
720,179.75,75.7626,85.578,130.457,99.7866,97.3523,0.00461032,0.421996,20.5421,181.14,0.22196,0.0,0.0
729,182,75.6494,86.0295,134.597,99.7324,97.5397,0.00467801,0.423032,20.5443,180.78,0.199797,0.0,0.0
738,184.25,75.9214,86.8854,131.204,99.6842,98.3133,0.0046549,0.423963,20.5448,180.45,0.124452,0.0,0.0
747,186.5,75.3636,86.725,130.049,99.6397,96.7408,0.0046608,0.422666,20.5436,180.129,0.265349,0.0,0.0
756,188.75,75.2289,86.4172,130.255,99.5897,97.1258,0.00468363,0.420944,20.5439,179.799,0.225153,0.0,0.0
765,191,76.2262,87.0068,132.547,99.5037,96.7197,0.00462215,0.420954,20.5447,179.429,0.255044,0.0,0.0
774,193.25,75.9587,87.1221,132.061,99.4726,96.453,0.00444107,0.420982,20.545,179.108,0.277046,0.0,0.0
783,195.5,75.9895,86.1011,131.8,99.4407,96.9964,0.00432081,0.421629,20.5443,178.838,0.223679,0.0,0.0
792,197.75,75.9659,86.5748,133.725,99.4042,97.2874,0.00422446,0.421411,20.5434,178.488,0.193455,0.0,0.0
801,200,75.7328,86.5838,136.058,99.3581,96.7823,0.00420209,0.419718,20.5433,178.148,0.236063,0.0,0.0
810,202.25,75.9728,86.0844,128.663,99.3459,97.0387,0.00421678,0.419544,20.5451,177.827,0.211178,0.0,0.0
819,204.5,75.5375,86.3195,132.788,99.3186,97.1401,0.00427172,0.418619,20.5469,177.587,0.199332,0.0,0.0
828,206.75,76.0753,86.184,133.962,99.2951,98.4855,0.00422049,0.417037,20.5478,177.217,0.0735789,0.0,0.0
837,209,76.1989,86.0729,133.062,99.2724,97.4743,0.00400194,0.414737,20.5495,176.867,0.164278,0.0,0.0
846,211.25,76.1061,85.9083,131.626,99.3392,97.4504,0.00382261,0.41249,20.5506,176.606,0.172526,0.0,0.0
855,213.5,75.7417,85.9487,130.748,99.408,97.7999,0.00388582,0.41136,20.553,176.266,0.146576,0.0,0.0
864,215.75,75.9482,85.9587,132.453,99.4886,96.815,0.00404089,0.410186,20.5541,175.906,0.244826,0.0,0.0
873,218,75.8447,85.792,130.543,99.5457,98.8999,0.00416186,0.410006,20.5558,175.615,0.0584896,0.0,0.0
882,220.25,76.4307,85.9234,134.962,99.6413,98.986,0.00417086,0.409135,20.5564,175.255,0.0593027,0.0,0.0
891,222.5,75.6775,86.2306,130.615,99.7051,98.3856,0.00408978,0.40786,20.5567,174.945,0.119737,0.0,0.0
900,224.75,75.8339,86.0497,134.021,99.7656,97.8602,0.0041498,0.406902,20.5582,174.615,0.173304,0.0,0.0
909,227,75.8541,86.0611,136.428,99.8101,97.8202,0.00427483,0.405652,20.5603,174.274,0.18099,0.0,0.0
918,229.25,75.6895,85.1529,136.761,99.8499,98.3041,0.00450976,0.404235,20.5616,173.974,0.140227,0.0,0.0
927,231.5,76.723,85.7742,127.706,99.902,98.4418,0.00450977,0.404528,20.5634,173.634,0.132332,0.0,0.0
936,233.75,75.309,85.6275,134.706,99.9393,98.6573,0.00422945,0.404242,20.5642,173.353,0.116039,0.0,0.0
945,236,75.7178,85.8339,131.694,99.9809,98.8401,0.00408987,0.402366,20.5645,173.043,0.103137,0.0,0.0
954,238.25,76.1138,85.8132,130.212,100.004,98.9174,0.00418762,0.400163,20.5661,172.633,0.0981433,0.0,0.0
963,240.5,76.0624,85.6034,127.6,100.009,99.4046,0.00413459,0.399071,20.5681,172.322,0.0545173,0.0,0.0
972,242.75,76.0116,85.6964,131.937,100.044,98.276,0.00388604,0.398926,20.5702,172.032,0.16023,0.0,0.0
981,245,76.3619,85.4908,136.773,100.061,98.3036,0.00368308,0.398468,20.57,171.762,0.159287,0.0,0.0
990,247.25,76.4924,86.3738,130.623,100.035,99.306,0.00365636,0.398042,20.5708,171.392,0.0656939,0.0,0.0
999,249.5,76.3953,86.4689,134.213,100.048,99.0109,0.00367703,0.399242,20.5716,171.051,0.0936892,0.0,0.0
1008,251.75,76.2697,86.0615,131.435,100.063,98.4473,0.00367412,0.400412,20.5724,170.811,0.146313,0.0,0.0
1017,254,76.3423,85.832,134.078,100.034,98.59,0.00369782,0.401158,20.5705,170.471,0.130691,0.0,0.0
1026,256.25,76.5912,86.0531,137.369,100.021,98.6204,0.00375945,0.400921,20.5692,170.141,0.126714,0.0,0.0
1035,258.5,76.2847,86.2555,134.905,99.9859,99.4221,0.00370062,0.399228,20.5689,169.79,0.0508235,0.0,0.0
1044,260.75,76.3648,86.0745,134.397,99.9418,98.8336,0.00360283,0.398273,20.571,169.48,0.100215,0.0,0.0
1053,263,76.4342,86.2011,127.988,99.8751,99.8973,0.00364569,0.397033,20.5722,169.15,-0.00199512,0.0,0.0
1062,265.25,76.1336,85.9211,129.792,99.8273,98.4781,0.00379594,0.395517,20.5733,168.859,0.122288,0.0,0.0
1071,267.5,76.1328,85.7546,131.542,99.7727,98.9897,0.00394503,0.394283,20.5755,168.539,0.0708082,0.0,0.0
1080,269.75,76.1231,85.6509,130.151,99.659,97.5462,0.0040927,0.393975,20.5773,168.149,0.192583,0.0,0.0
1089,272,76.4576,86.0676,137.658,99.638,98.0508,0.00413259,0.393009,20.578,167.829,0.144314,0.0,0.0
1098,274.25,76.8322,86.3102,131.975,99.6758,98.6296,0.00397725,0.393207,20.5785,167.538,0.0948236,0.0,0.0
1107,276.5,76.5635,86.2043,125.61,99.7337,98.7038,0.00374489,0.39437,20.5788,167.198,0.0932916,0.0,0.0
1116,278.75,76.8637,86.5221,134.923,99.7622,98.4933,0.00361212,0.396753,20.5786,166.878,0.115043,0.0,0.0
1125,281,76.5502,85.509,131.059,99.8231,99.825,0.00370485,0.397133,20.5762,166.557,-0.000172493,0.0,0.0
1134,283.25,76.5881,86.8772,132.422,99.8948,99.7066,0.00390569,0.39664,20.575,166.247,0.0169471,0.0,0.0
1143,285.5,76.5057,86.4516,133.398,99.9645,99.568,0.00394564,0.395617,20.5747,165.877,0.035714,0.0,0.0
1152,287.75,76.4799,86.244,131.177,100.035,100.144,0.00385034,0.394972,20.5753,165.567,-0.0097902,0.0,0.0
1161,290,77.2211,86.5731,133.718,100.08,99.1688,0.00369106,0.394765,20.5756,165.246,0.0821907,0.0,0.0
1170,292.25,76.7252,85.5813,132.389,100.167,99.0404,0.00346883,0.395181,20.5757,164.976,0.101678,0.0,0.0
1179,294.5,77.4124,86.4519,134.349,100.229,99.4239,0.00334337,0.395628,20.5757,164.596,0.0724716,0.0,0.0
1188,296.75,76.7494,86.6323,132.956,100.252,99.6804,0.00339245,0.396054,20.5758,164.235,0.0514254,0.0,0.0
1197,299,76.9852,86.3899,131.771,100.303,99.4419,0.00354028,0.395949,20.5759,163.955,0.0774706,0.0,0.0
1206,301.25,76.7422,86.4535,137.837,100.336,100.042,0.00366388,0.396764,20.5755,163.665,0.0263782,0.0,0.0
1215,303.5,76.4448,85.9374,134.816,100.379,98.8345,0.00368579,0.396925,20.5743,163.285,0.139369,0.0,0.0
1224,305.75,76.4671,86.727,133.117,100.416,99.8798,0.00367481,0.395396,20.5739,162.994,0.0481662,0.0,0.0
1233,308,76.8345,86.8201,129.072,100.46,98.9906,0.00375043,0.39517,20.5748,162.684,0.132399,0.0,0.0
1242,310.25,77.0822,86.4327,129.4,100.477,99.6219,0.00381364,0.397047,20.5758,162.344,0.0767674,0.0,0.0
1251,312.5,77.5989,86.9994,127.983,100.488,99.0855,0.0037326,0.396702,20.5738,162.003,0.126344,0.0,0.0
1260,314.75,76.9341,86.9783,136.012,100.523,99.6003,0.00367459,0.39717,20.5728,161.713,0.0828489,0.0,0.0
1269,317,77.3889,87.09,133.694,100.54,99.2881,0.00368118,0.399144,20.5724,161.433,0.112639,0.0,0.0
1278,319.25,77.3212,87.0076,130.625,100.523,99.4147,0.00371669,0.400497,20.5717,161.023,0.0996459,0.0,0.0
1287,321.5,77.2606,86.8986,130.812,100.516,100.215,0.00390865,0.401447,20.5695,160.692,0.0269881,0.0,0.0
1296,323.75,77.5693,87.0826,134.6,100.539,99.5809,0.00399443,0.401586,20.5685,160.422,0.0860574,0.0,0.0
1305,326,77.4353,86.2841,133.042,100.52,100.194,0.00376089,0.402324,20.5682,160.072,0.0291882,0.0,0.0
1314,328.25,77.7361,87.2407,128.901,100.5,99.5588,0.00346583,0.403522,20.5682,159.731,0.0845631,0.0,0.0
1323,330.5,77.5409,87.3037,128.329,100.492,99.7274,0.00339621,0.402344,20.5671,159.401,0.0686873,0.0,0.0
1332,332.75,77.3481,87.2457,131.487,100.469,99.3475,0.00349853,0.402475,20.5678,159.141,0.100922,0.0,0.0
1341,335,77.7013,87.3761,133.002,100.435,99.7757,0.00360049,0.40207,20.5684,158.831,0.059225,0.0,0.0
1350,337.25,77.2456,87.2503,126.562,100.424,99.7435,0.00368303,0.402009,20.5686,158.47,0.0611513,0.0,0.0
1359,339.5,77.7353,87.1358,124.753,100.396,99.3364,0.00374933,0.402735,20.5687,158.21,0.0953113,0.0,0.0
1368,341.75,77.9688,86.7913,129.103,100.338,99.6772,0.00373113,0.402477,20.5678,157.88,0.0593879,0.0,0.0
1377,344,77.9882,87.1937,131.346,100.291,99.8043,0.00360211,0.400967,20.567,157.509,0.0437256,0.0,0.0
1386,346.25,77.8399,87.2859,133.222,100.241,98.8985,0.00345874,0.401171,20.568,157.229,0.121218,0.0,0.0
1395,348.5,77.7946,87.4562,132.559,100.213,99.9654,0.00329156,0.401641,20.5686,156.959,0.0221886,0.0,0.0
1404,350.75,77.1146,87.6519,135.678,100.133,99.1914,0.00326889,0.401076,20.5676,156.559,0.0848953,0.0,0.0
1413,353,78.0699,87.1667,133.011,100.052,99.2978,0.00335907,0.400895,20.5676,156.268,0.0679888,0.0,0.0
1422,355.25,77.9311,87.6442,127.517,100.039,99.108,0.00340165,0.401936,20.5684,155.988,0.0840452,0.0,0.0
1431,357.5,77.8933,87.6298,130.56,100.014,98.7102,0.00343116,0.402453,20.5677,155.628,0.117969,0.0,0.0
1440,359.75,77.6854,87.2281,134.877,99.9658,99.1177,0.00347739,0.402614,20.5667,155.267,0.0765677,0.0,0.0
1449,362,78.3972,87.506,130.999,99.9175,99.0307,0.00349643,0.401951,20.5661,154.987,0.0801224,0.0,0.0
1458,364.25,78.0117,87.735,133.884,99.8839,98.992,0.00350247,0.401086,20.5659,154.747,0.080613,0.0,0.0
1467,366.5,78.084,87.2909,136.75,99.8566,99.7637,0.00357005,0.400452,20.5658,154.357,0.00836569,0.0,0.0
1476,368.75,78.1746,87.4153,135.864,99.8277,99.1168,0.00347173,0.400841,20.5657,154.006,0.0642292,0.0,0.0
1485,371,78.244,87.3747,130.827,99.8038,98.5408,0.00338282,0.401373,20.5661,153.726,0.114459,0.0,0.0
1494,373.25,77.8455,88.0412,136.902,99.7559,99.0906,0.00338215,0.402091,20.5657,153.466,0.0601457,0.0,0.0
1503,375.5,78.3748,87.7623,128.384,99.7127,99.4534,0.00347284,0.403754,20.5648,153.075,0.0234016,0.0,0.0
1512,377.75,78.8305,87.5844,130.566,99.6938,98.9473,0.00368587,0.405583,20.563,152.775,0.0675464,0.0,0.0
1521,380,78.9049,87.9391,128.732,99.6875,99.4815,0.00378335,0.406746,20.5609,152.575,0.0185938,0.0,0.0
1530,382.25,78.3716,87.7664,132.976,99.6384,99.5478,0.00379831,0.406197,20.5583,152.215,0.0081773,0.0,0.0
1539,384.5,78.599,88.2287,131.259,99.6132,98.8134,0.00377618,0.40591,20.5577,151.884,0.0724578,0.0,0.0
1548,386.75,78.495,87.7695,134.833,99.6145,98.8903,0.00378257,0.407222,20.5582,151.574,0.0655801,0.0,0.0
1557,389,78.6747,87.8202,130.624,99.604,98.1844,0.00378454,0.408935,20.5571,151.254,0.129016,0.0,0.0
1566,391.25,78.3828,87.6911,130.254,99.5104,98.6844,0.0037681,0.409935,20.5558,150.914,0.0749103,0.0,0.0
1575,393.5,78.238,87.7502,129.998,99.4542,98.5136,0.00357832,0.409493,20.5542,150.553,0.0854015,0.0,0.0
1584,395.75,78.198,87.7013,129.891,99.4365,98.2912,0.00339657,0.409646,20.5535,150.283,0.10412,0.0,0.0
1593,398,77.865,87.9184,127.504,99.3686,98.2686,0.00334147,0.411089,20.5547,149.983,0.100036,0.0,0.0
1602,400.25,78.728,87.8839,133.049,99.3396,98.4141,0.00341509,0.411774,20.5545,149.652,0.0841195,0.0,0.0
1611,402.5,78.374,87.1851,129.722,99.3467,97.6834,0.00360894,0.412541,20.5536,149.302,0.151747,0.0,0.0
1620,404.75,77.7794,88.0705,132.062,99.3232,98.4827,0.00371051,0.411939,20.5533,148.992,0.0763754,0.0,0.0
1629,407,78.859,87.8096,132.716,99.2745,98.6066,0.00362432,0.410435,20.5532,148.662,0.0606724,0.0,0.0
1638,409.25,78.8636,87.7687,129.057,99.225,99.7315,0.00347111,0.408474,20.5545,148.371,-0.045759,0.0,0.0
1647,411.5,78.7646,87.674,128.394,99.1915,97.9145,0.00329235,0.409019,20.5559,148.031,0.116447,0.0,0.0
1656,413.75,78.4201,88.2846,130.689,99.1558,98.7963,0.00328014,0.411095,20.557,147.781,0.0326401,0.0,0.0
1665,416,78.888,88.2407,132.839,99.1193,97.9587,0.00328762,0.413223,20.5573,147.471,0.105848,0.0,0.0
1674,418.25,78.5443,88.0508,131.252,99.0769,98.5504,0.00327017,0.415768,20.5555,147.17,0.0478816,0.0,0.0
1683,420.5,79.0863,88.665,130.325,99.0269,98.2502,0.0033077,0.41645,20.5533,146.89,0.070771,0.0,0.0
1692,422.75,78.8353,88.2862,131.371,98.9673,98.7429,0.00335194,0.415608,20.552,146.57,0.0204047,0.0,0.0
1701,425,78.8416,88.7929,139.296,98.9346,98.672,0.0033399,0.415393,20.5522,146.219,0.0238877,0.0,0.0
1710,427.25,79.6814,88.0499,131.418,98.8897,96.9384,0.00323396,0.415977,20.553,145.929,0.179115,0.0,0.0
1719,429.5,79.4563,88.5584,133.595,98.8658,97.0968,0.00317397,0.414862,20.5507,145.649,0.162267,0.0,0.0
1728,431.75,78.8908,88.6543,133.162,98.8322,97.4274,0.00331267,0.412652,20.5505,145.309,0.128666,0.0,0.0
1737,434,79.5825,88.3912,132.989,98.789,97.5609,0.003497,0.411974,20.5538,144.968,0.112424,0.0,0.0
1746,436.25,79.0518,88.0304,133.578,98.7936,97.8381,0.00349657,0.415131,20.555,144.698,0.0873445,0.0,0.0
1755,438.5,79.0348,88.3948,133.366,98.7776,97.5821,0.00352538,0.415758,20.5514,144.378,0.109443,0.0,0.0
1764,440.75,78.9868,89.0658,132.579,98.7692,98.2106,0.00378893,0.415693,20.548,144.077,0.0509758,0.0,0.0
1773,443,79.4003,89.0423,132.502,98.7692,98.0223,0.00407767,0.416833,20.5467,143.797,0.0682259,0.0,0.0
1782,445.25,79.4446,88.463,128.181,98.7579,96.826,0.00415038,0.417396,20.5454,143.467,0.177553,0.0,0.0
1791,447.5,79.029,88.1836,130.872,98.755,96.8748,0.00406333,0.417828,20.5443,143.077,0.172755,0.0,0.0
1800,449.75,78.6987,88.1892,131.637,98.76,97.2805,0.0039369,0.418381,20.5439,142.786,0.135658,0.0,0.0
1809,452,78.7487,88.7777,131.44,98.7575,96.7362,0.00389839,0.418341,20.5437,142.526,0.185852,0.0,0.0
1818,454.25,79.3496,88.6688,133.15,98.7739,97.3201,0.00401111,0.418594,20.5436,142.176,0.133261,0.0,0.0
1827,456.5,79.0036,88.8978,129.429,98.7764,97.1645,0.00398685,0.418976,20.5448,141.876,0.147875,0.0,0.0
1836,458.75,79.3073,88.3521,131.41,98.7692,96.3287,0.00382726,0.421061,20.5443,141.605,0.224861,0.0,0.0
1845,461,79.4938,89.3561,139.825,98.7957,97.9491,0.00373479,0.423694,20.543,141.285,0.0773484,0.0,0.0
1854,463.25,79.0847,88.8381,132.73,98.797,96.675,0.00372052,0.425729,20.5427,140.935,0.195133,0.0,0.0
1863,465.5,80.1769,88.7614,135.416,98.7831,97.094,0.00371019,0.426857,20.5397,140.594,0.155004,0.0,0.0
1872,467.75,79.5697,89.3087,130.812,98.8204,97.158,0.00363563,0.42887,20.5384,140.284,0.152479,0.0,0.0
1881,470,79.1962,89.4119,128.061,98.8553,96.8228,0.00354711,0.430714,20.5357,139.964,0.186708,0.0,0.0
1890,472.25,79.3245,89.1661,130.922,98.8393,97.8929,0.00354738,0.431176,20.5332,139.664,0.0864733,0.0,0.0
1899,474.5,80.0041,88.97,132.656,98.8708,96.3154,0.00365425,0.43351,20.5318,139.323,0.235343,0.0,0.0
1908,476.75,79.866,89.0711,134.308,98.9208,96.7413,0.00367685,0.435314,20.5296,139.063,0.200227,0.0,0.0
1917,479,79.8455,89.3984,130.831,98.9514,95.8719,0.00356654,0.434777,20.5275,138.683,0.284137,0.0,0.0
1926,481.25,80.072,89.6735,129.3,98.9766,96.5562,0.00346771,0.436106,20.5267,138.282,0.222509,0.0,0.0
1935,483.5,79.8493,89.0778,132.008,99.0127,98.0228,0.0035696,0.437395,20.5264,138.042,0.0903063,0.0,0.0
1944,485.75,80.3093,89.2506,132.58,99.084,97.2418,0.00397866,0.438833,20.5235,137.782,0.168668,0.0,0.0
1953,488,79.8294,89.4997,129.559,99.1281,96.9301,0.00434082,0.439801,20.5215,137.472,0.201522,0.0,0.0
1962,490.25,79.7753,90.1456,125.675,99.173,96.937,0.0043304,0.44053,20.5197,137.151,0.204951,0.0,0.0
1971,492.5,80.7158,89.8027,130.991,99.2057,96.7496,0.00420323,0.440328,20.519,136.891,0.225309,0.0,0.0
1980,494.75,80.2356,90.0516,131.905,99.2431,95.9687,0.00414414,0.440436,20.5187,136.571,0.30153,0.0,0.0
1989,497,80.7022,90.0092,126.7,99.2737,97.3376,0.00414919,0.441975,20.5186,136.11,0.17701,0.0,0.0
1998,499.25,81.0665,90.4136,136.626,99.3132,97.071,0.00440812,0.442116,20.5186,135.89,0.205231,0.0,0.0
2007,501.5,80.5201,91.0512,130.448,99.3409,97.0318,0.00461582,0.441593,20.5179,135.64,0.211362,0.0,0.0
2016,503.75,80.7624,90.5173,129.321,99.3341,96.4236,0.00456638,0.441482,20.5182,135.25,0.26727,0.0,0.0
2025,506,80.7548,90.5359,130.606,99.3501,95.7453,0.00445964,0.441848,20.5184,134.949,0.332155,0.0,0.0
2034,508.25,80.86,90.4035,126.174,99.3723,96.4259,0.00435314,0.442313,20.5176,134.599,0.270511,0.0,0.0
2043,510.5,81.0023,90.3874,130.836,99.3988,96.4558,0.00426987,0.442178,20.5175,134.309,0.270113,0.0,0.0
2052,512.75,81.0305,90.3143,131.684,99.3958,96.8062,0.00435476,0.440307,20.5175,134.039,0.237256,0.0,0.0
2061,515,80.9432,89.5517,128.649,99.4374,95.6017,0.00458081,0.438529,20.5194,133.718,0.353544,0.0,0.0
2070,517.25,81.0153,90.5295,126.019,99.4651,96.2647,0.00476258,0.439259,20.5211,133.448,0.293928,0.0,0.0
2079,519.5,81.1296,90.3387,128.236,99.5024,96.7316,0.00476096,0.441007,20.5213,133.078,0.253817,0.0,0.0
2088,521.75,81.3794,90.4625,129.223,99.544,96.2325,0.0046797,0.442549,20.5191,132.697,0.304065,0.0,0.0
2097,524,81.3167,90.7373,126.339,99.6006,97.0157,0.00479556,0.443929,20.5181,132.477,0.236326,0.0,0.0
2106,526.25,81.2418,90.3951,128.916,99.6489,96.814,0.00504903,0.444461,20.5164,132.187,0.259383,0.0,0.0
2115,528.5,81.426,90.9392,127.42,99.7077,95.2186,0.00493997,0.444556,20.515,131.867,0.414026,0.0,0.0
2124,530.75,81.4426,90.4964,124.837,99.7702,95.0385,0.00475957,0.443985,20.5147,131.556,0.436669,0.0,0.0
2133,533,81.5668,91.1682,127.609,99.8122,96.0391,0.00478183,0.444613,20.5146,131.296,0.346323,0.0,0.0
2142,535.25,81.5149,91.0016,131.877,99.8289,96.8725,0.00482592,0.444056,20.5156,130.856,0.27018,0.0,0.0
2151,537.5,81.5559,90.6405,132.43,99.8646,96.488,0.00485396,0.444492,20.5161,130.475,0.309132,0.0,0.0
2160,539.75,81.3983,90.9348,129.692,99.8936,96.6391,0.0050035,0.445208,20.5159,130.325,0.297681,0.0,0.0
2169,542,81.5315,90.7953,126.512,99.9188,96.8343,0.00517379,0.445332,20.5149,129.985,0.281807,0.0,0.0
2178,544.25,81.5131,90.8208,134.559,99.949,95.5363,0.00524706,0.445352,20.514,129.715,0.405813,0.0,0.0
2187,546.5,81.4411,91.4579,132.139,99.9544,95.8881,0.0052056,0.446172,20.5137,129.405,0.37327,0.0,0.0
2196,548.75,81.7803,91.4994,132.257,99.9746,97.1833,0.00504968,0.447071,20.5128,129.154,0.254491,0.0,0.0
2205,551,82.1237,91.1621,132.831,99.9712,95.9884,0.00492326,0.447703,20.5118,128.804,0.365375,0.0,0.0
2214,553.25,81.6429,90.8759,133.524,99.9687,96.2311,0.00501377,0.448453,20.5112,128.524,0.342458,0.0,0.0
2223,555.5,81.8044,91.9127,129.342,99.9775,95.6974,0.00514439,0.448656,20.5098,128.163,0.393229,0.0,0.0
2232,557.75,81.9674,91.2345,128.646,99.9725,95.749,0.00505728,0.449899,20.5081,127.833,0.387935,0.0,0.0
2241,560,81.9395,91.3974,131.517,99.9523,95.4654,0.00501813,0.451578,20.5071,127.543,0.412787,0.0,0.0
2250,562.25,82.2271,91.6971,132.839,99.9544,95.2886,0.00515853,0.45378,20.5045,127.223,0.429638,0.0,0.0
2259,564.5,82.3943,92.0539,128.284,99.9423,94.8612,0.00520003,0.45473,20.5019,126.932,0.468937,0.0,0.0
2268,566.75,81.7044,91.8902,128.197,99.907,94.8553,0.00516999,0.454992,20.4996,126.592,0.466332,0.0,0.0
2277,569,82.1017,92.2557,125.504,99.8793,95.8752,0.00525962,0.456355,20.4981,126.292,0.367721,0.0,0.0
2286,571.25,81.9746,92.4765,129.567,99.8772,94.3943,0.00537823,0.459567,20.4975,126.012,0.507429,0.0,0.0
2295,573.5,82.3947,92.4464,131.443,99.8252,94.6605,0.00538375,0.462218,20.4935,125.631,0.477441,0.0,0.0
2304,575.75,82.2479,92.4962,127.852,99.7819,95.0823,0.00536019,0.464455,20.4908,125.281,0.433593,0.0,0.0
2313,578,82.9688,92.97,131.112,99.7463,95.1836,0.00541095,0.464481,20.4894,125.041,0.420809,0.0,0.0
2322,580.25,82.8057,92.7068,129.512,99.7018,95.6721,0.00535799,0.465945,20.4892,124.73,0.370789,0.0,0.0
2331,582.5,82.9749,93.4166,130.357,99.6539,95.1269,0.00524839,0.46757,20.4881,124.34,0.417835,0.0,0.0
2340,584.75,83.1548,93.5307,124.991,99.5776,95.103,0.00518201,0.469209,20.4853,124.01,0.413205,0.0,0.0
2349,587,82.6928,93.2559,126.071,99.536,94.7995,0.00522728,0.469235,20.4838,123.76,0.438177,0.0,0.0
2358,589.25,83.6448,93.926,127.698,99.4823,94.2571,0.00531446,0.469467,20.4832,123.489,0.484896,0.0,0.0
2367,591.5,83.8172,93.5992,128.703,99.4235,95.1822,0.00534956,0.47278,20.4816,123.159,0.391813,0.0,0.0
2376,593.75,83.8919,93.6711,132.446,99.3639,94.3174,0.00525583,0.475632,20.479,122.839,0.468448,0.0,0.0
2385,596,84.1479,94.3153,125.695,99.3404,93.6645,0.00511918,0.477429,20.475,122.538,0.528756,0.0,0.0
2394,598.25,83.6822,94.1736,127.023,99.3123,93.9624,0.00520638,0.478025,20.4726,122.198,0.49767,0.0,0.0
2403,600.5,83.849,94.0863,126.114,99.2804,94.2267,0.0054143,0.479193,20.4717,121.848,0.469539,0.0,0.0
2412,602.75,83.9359,94.075,127.452,99.2611,92.6078,0.0055808,0.481987,20.4716,121.518,0.623551,0.0,0.0
2421,605,84.2081,94.2919,128.962,99.2687,93.9947,0.00562113,0.483199,20.4689,121.267,0.490636,0.0,0.0
2430,607.25,84.2731,94.3114,128.403,99.3639,94.0771,0.00564659,0.482979,20.4664,120.927,0.491381,0.0,0.0
2439,609.5,84.3028,94.7966,134.474,99.4571,93.9868,0.00572588,0.483076,20.4654,120.627,0.50843,0.0,0.0
2448,611.75,83.9327,94.082,132.517,99.5398,94.2244,0.00586247,0.484164,20.4641,120.306,0.493207,0.0,0.0
2457,614,84.5365,94.6372,127.112,99.6367,93.374,0.00596365,0.486209,20.4628,119.996,0.583443,0.0,0.0
2466,616.25,83.4431,94.4556,130.08,99.7345,93.8519,0.00592089,0.488855,20.4612,119.566,0.546373,0.0,0.0
2475,618.5,84.3613,95.0246,133.095,99.8352,94.9027,0.00587746,0.489054,20.4586,119.316,0.455382,0.0,0.0
2484,620.75,84.3903,94.8685,128.882,99.8944,93.0328,0.00591777,0.490979,20.4564,119.045,0.639557,0.0,0.0
2493,623,84.4855,94.5965,127.749,99.9368,94.2594,0.00597996,0.493462,20.4544,118.705,0.525644,0.0,0.0
2502,625.25,85.089,95.2247,130.386,99.9624,93.4826,0.00606244,0.494729,20.4518,118.395,0.602318,0.0,0.0
2511,627.5,84.7776,94.9995,129.546,100.005,95.0348,0.00615816,0.49511,20.4499,118.095,0.458126,0.0,0.0
2520,629.75,85.0869,95.1432,128.126,100.018,93.135,0.00628936,0.494691,20.448,117.774,0.640782,0.0,0.0
2529,632,84.5718,94.824,125.813,100.005,94.2912,0.00633003,0.49345,20.4472,117.444,0.528766,0.0,0.0
2538,634.25,85.0627,94.6943,127.323,99.98,94.2732,0.00642417,0.491515,20.4492,117.084,0.528214,0.0,0.0
2547,636.5,84.7626,95.4736,128.798,99.9687,94.9851,0.00648885,0.489334,20.4505,116.813,0.459586,0.0,0.0
2556,638.75,84.6863,95.1047,127.681,99.9129,94.9147,0.00644891,0.489048,20.4525,116.463,0.461235,0.0,0.0
2565,641,85.0425,94.7267,128.78,99.8474,94.7821,0.00641181,0.48754,20.4546,116.193,0.467909,0.0,0.0
2574,643.25,85.6268,94.8244,128.232,99.7824,92.5742,0.00648089,0.48688,20.4554,115.893,0.673884,0.0,0.0
2583,645.5,85.2228,94.9222,129.096,99.6896,94.3501,0.0065825,0.486844,20.4558,115.682,0.494742,0.0,0.0
2592,647.75,85.279,94.4202,128.048,99.5994,94.6384,0.00643448,0.484188,20.456,115.272,0.459189,0.0,0.0
2601,650,84.5811,94.316,127.554,99.6157,94.8949,0.00619201,0.482937,20.4579,114.982,0.436342,0.0,0.0
2610,652.25,84.3348,94.7673,132.808,99.6917,94.0739,0.00606793,0.48025,20.4605,114.752,0.521287,0.0,0.0
2619,654.5,85.139,94.4797,133.878,99.7689,94.5435,0.00601651,0.476646,20.4625,114.401,0.483487,0.0,0.0
2628,656.75,84.3962,94.4174,131.734,99.8357,94.6872,0.00608275,0.475704,20.4656,114.081,0.47585,0.0,0.0
2637,659,84.6851,94.9568,131.614,99.9066,94.9616,0.00615057,0.475253,20.4673,113.771,0.456222,0.0,0.0
2646,661.25,84.4395,94.8457,127.183,100.017,95.1182,0.00612851,0.475733,20.468,113.48,0.451303,0.0,0.0
2655,663.5,84.9135,94.3566,129.276,100.106,95.1721,0.00607924,0.474162,20.4682,113.11,0.454206,0.0,0.0
2664,665.75,84.9773,94.7174,127.167,100.153,95.342,0.00607405,0.470814,20.4683,112.88,0.442432,0.0,0.0
2673,668,84.8109,94.1319,132.366,100.235,96.5857,0.00606046,0.467977,20.4714,112.63,0.333333,0.0,0.0
2682,670.25,84.4861,94.35,127.504,100.278,96.1045,0.00603033,0.465703,20.4748,112.299,0.382017,0.0,0.0
2691,672.5,84.5721,94.4655,123.375,100.348,95.0049,0.00602275,0.463803,20.4778,112.009,0.491719,0.0,0.0
2700,674.75,84.5006,94.2071,128.906,100.392,95.179,0.00597311,0.46191,20.48,111.769,0.479215,0.0,0.0
2709,677,85.0354,93.807,128.41,100.445,95.3862,0.00582876,0.460263,20.4825,111.529,0.464477,0.0,0.0
2718,679.25,84.7084,93.8555,132.385,100.479,96.0023,0.00562957,0.45936,20.4846,111.218,0.409656,0.0,0.0
2727,681.5,84.7953,93.7515,129.475,100.489,96.6078,0.00541981,0.455669,20.4859,110.948,0.353976,0.0,0.0
2736,683.75,84.4334,93.3173,127.57,100.518,96.937,0.00527377,0.450427,20.4887,110.708,0.32599,0.0,0.0
2745,686,84.2633,92.9719,134.632,100.515,96.2518,0.00522764,0.447247,20.4938,110.458,0.389513,0.0,0.0
2754,688.25,84.4436,93.4347,129.915,100.501,96.0985,0.00518119,0.444177,20.4978,110.127,0.402604,0.0,0.0
2763,690.5,83.4455,92.8081,129.651,100.461,96.2804,0.00521761,0.441039,20.5015,109.887,0.382006,0.0,0.0
2772,692.75,84.2479,93.036,132.579,100.417,96.5649,0.00533047,0.437756,20.5053,109.647,0.351539,0.0,0.0
2781,695,84.2024,92.6159,131.634,100.335,96.2845,0.00538883,0.434565,20.5078,109.387,0.370312,0.0,0.0
2790,697.25,84.148,91.726,131.661,100.244,95.8089,0.00527597,0.432871,20.5087,109.097,0.406658,0.0,0.0
2799,699.5,83.6448,92.3071,129.883,100.153,95.988,0.00517775,0.430061,20.5109,108.866,0.381741,0.0,0.0
2808,701.75,83.3809,91.513,129.388,100.046,96.1367,0.00524111,0.425775,20.5148,108.546,0.358255,0.0,0.0
2817,704,83.6846,91.328,130.622,99.9246,95.9323,0.00534592,0.422692,20.5206,108.336,0.366448,0.0,0.0
2826,706.25,83.2679,91.5554,136.019,99.7979,95.1315,0.00524287,0.420202,20.5237,108.016,0.430372,0.0,0.0
2835,708.5,83.0776,90.967,134.516,99.6791,96.2702,0.00500442,0.416793,20.5248,107.865,0.312732,0.0,0.0
2844,710.75,82.9905,90.7785,130.655,99.5541,96.3554,0.00460691,0.411748,20.5278,107.685,0.2935,0.0,0.0
2853,713,82.7563,90.0025,135.084,99.4189,97.0613,0.00431252,0.406628,20.5326,107.435,0.215691,0.0,0.0
2862,715.25,82.908,89.714,133.485,99.3257,97.4651,0.00427736,0.399038,20.5393,107.245,0.169952,0.0,0.0
2871,717.5,81.9538,89.6249,130.195,99.2133,98.1848,0.00435548,0.391435,20.5444,107.095,0.0936489,0.0,0.0
2880,719.75,82.2386,88.9591,130.321,99.1067,96.7818,0.00428914,0.384836,20.5527,106.895,0.213338,0.0,0.0
2889,722,81.9713,88.0051,132.037,99.0097,98.3768,0.00403755,0.376455,20.5613,106.714,0.0576327,0.0,0.0
2898,724.25,81.1207,87.9228,133.556,98.9438,97.8763,0.00375203,0.368701,20.5697,106.564,0.0974916,0.0,0.0
2907,726.5,81.2685,87.1317,132.097,98.8801,97.9132,0.0035038,0.360736,20.5789,106.324,0.0883142,0.0,0.0
2916,728.75,80.4162,86.8248,133.49,98.8309,97.8505,0.00342209,0.3527,20.589,106.114,0.0895999,0.0,0.0
2925,731,80.088,87.1316,135.42,98.8108,98.654,0.00344963,0.344719,20.5967,105.984,0.014269,0.0,0.0
2934,733.25,80.2635,86.0706,135.321,98.8238,97.9505,0.00351082,0.335589,20.606,105.864,0.0797773,0.0,0.0
2943,735.5,79.2315,85.5606,134.247,98.82,98.6563,0.00355617,0.328537,20.6169,105.664,0.014899,0.0,0.0
2952,737.75,79.3112,84.5346,139.227,98.8519,98.4035,0.00351558,0.320918,20.6255,105.503,0.0408582,0.0,0.0
2961,740,78.6179,84.0671,134.433,98.9006,98.6711,0.00338791,0.312704,20.6302,105.393,0.0208825,0.0,0.0
2970,742.25,78.2366,83.6682,139.322,98.9384,99.6302,0.00322429,0.304002,20.6388,105.303,-0.0626253,0.0,0.0
2979,744.5,77.7042,83.2488,137.689,99.0076,99.2968,0.00308795,0.294623,20.6503,105.153,-0.0262146,0.0,0.0
2988,746.75,77.0155,82.2508,138.009,99.0949,99.1067,0.0030302,0.284284,20.6606,105.013,-0.00106501,0.0,0.0
2997,749,76.9053,81.8752,139.235,99.1797,99.353,0.00290568,0.27361,20.6723,104.963,-0.0156911,0.0,0.0
3006,751.25,76.172,81.0044,138.638,99.2485,101.096,0.00276603,0.262795,20.6841,104.843,-0.165744,0.0,0.0
3015,753.5,75.9698,80.2274,136.789,99.3274,101.22,0.00263235,0.252042,20.6955,104.803,-0.169607,0.0,0.0
3024,755.75,75.9021,79.3987,139.694,99.4164,101.448,0.00249339,0.242664,20.7088,104.693,-0.181776,0.0,0.0
3033,758,74.554,78.2153,138.586,99.5037,100.637,0.00231255,0.233186,20.7205,104.603,-0.101763,0.0,0.0
3042,760.25,74.7972,77.14,136.748,99.5734,101.663,0.0022255,0.223368,20.7284,104.543,-0.186627,0.0,0.0
3051,762.5,73.8561,77.3346,137.833,99.625,102.253,0.00221289,0.210819,20.7392,104.442,-0.233963,0.0,0.0
3060,764.75,73.6188,76.4256,138.889,99.7114,102.609,0.00208916,0.199565,20.7537,104.282,-0.257437,0.0,0.0
3069,767,72.6258,75.1807,141.597,99.792,102.48,0.00188659,0.189933,20.7662,104.272,-0.238878,0.0,0.0
3078,769.25,72.4953,74.3431,137.706,99.8592,102.847,0.0017405,0.18204,20.7759,104.222,-0.264959,0.0,0.0
3087,771.5,71.6569,73.3186,137.596,99.9041,103.17,0.00182139,0.174111,20.7875,104.172,-0.28908,0.0,0.0
3096,773.75,71.3065,73.2619,141.717,99.9729,102.717,0.00187553,0.166748,20.7978,104.162,-0.243375,0.0,0.0
3105,776,70.4879,72.9458,140.62,99.98,102.219,0.00180472,0.161662,20.8069,104.082,-0.199035,0.0,0.0
3114,778.25,70.1103,72.3087,142.391,100.022,102.38,0.00160438,0.156309,20.8147,104.042,-0.209385,0.0,0.0
3123,780.5,69.8681,71.5483,140.275,100.031,103.195,0.00145302,0.151089,20.8195,104.092,-0.279814,0.0,0.0
3132,782.75,69.0951,70.9901,140.136,100.047,102.587,0.00146605,0.146006,20.8249,104.062,-0.225327,0.0,0.0
3141,785,69.213,71.2593,139.023,100.007,102.334,0.00158619,0.141553,20.8317,103.982,-0.206658,0.0,0.0
3150,787.25,68.8869,70.6206,145.631,99.9716,102.623,0.00169903,0.138569,20.8392,103.942,-0.235265,0.0,0.0
3159,789.5,68.1267,70.2147,143.21,99.9297,102.223,0.00178712,0.136607,20.8438,103.872,-0.203928,0.0,0.0
3168,791.75,67.5963,70.0271,137.354,99.842,103.244,0.00182631,0.13431,20.8455,103.802,-0.301125,0.0,0.0
3177,794,67.7845,68.7737,139.04,99.771,102.435,0.00179537,0.131851,20.8476,103.842,-0.23681,0.0,0.0
3186,796.25,67.1684,68.2255,140.745,99.7068,102.175,0.0017767,0.129703,20.8506,103.782,-0.219741,0.0,0.0
3195,798.5,66.8198,68.7413,141.459,99.6409,101.986,0.00176291,0.128177,20.8534,103.792,-0.209101,0.0,0.0
3204,800.75,66.3149,68.7615,141.068,99.5503,101.633,0.00170836,0.127874,20.8549,103.702,-0.186105,0.0,0.0
3213,803,66.1734,67.8999,139.5,99.4802,102.155,0.00169974,0.127232,20.8555,103.682,-0.23849,0.0,0.0
3222,805.25,65.7693,68.0298,147.575,99.4101,101.715,0.00180468,0.126116,20.8557,103.692,-0.206014,0.0,0.0
3231,807.5,66.0002,67.3637,143.074,99.3308,101.945,0.00191812,0.125509,20.8573,103.532,-0.233507,0.0,0.0
3240,809.75,65.7124,67.3348,139.355,99.296,101.462,0.00191026,0.125207,20.8592,103.572,-0.193976,0.0,0.0
3249,812,64.9143,67.0903,140.858,99.293,102.14,0.00182678,0.124815,20.859,103.602,-0.25408,0.0,0.0
3258,814.25,64.8968,67.3552,139.63,99.4206,102.167,0.00178012,0.124311,20.8589,103.592,-0.24493,0.0,0.0
3267,816.5,64.7137,66.5442,143.904,99.5188,101.8,0.00184937,0.124299,20.8585,103.452,-0.203716,0.0,0.0
3276,818.75,64.4032,66.5842,138.67,99.5981,102.23,0.00195604,0.123961,20.8583,103.432,-0.234403,0.0,0.0
3285,821,63.9897,66.5534,138.703,99.7089,101.873,0.00202301,0.123271,20.8587,103.452,-0.192943,0.0,0.0
3294,823.25,64.03,65.2062,141.834,99.821,101.795,0.00199244,0.123073,20.8598,103.402,-0.175981,0.0,0.0
3303,825.5,63.5395,66.2775,140.286,99.8902,101.982,0.00186502,0.122226,20.8603,103.341,-0.186238,0.0,0.0
3312,827.75,62.9573,65.9387,139.567,99.9439,103.171,0.00185015,0.121571,20.8607,103.291,-0.285615,0.0,0.0
3321,830,63.4248,65.5198,139.543,99.9939,102.311,0.00186971,0.120984,20.862,103.301,-0.205924,0.0,0.0
3330,832.25,63.2879,65.0431,141.643,100.018,101.746,0.00186608,0.120069,20.8626,103.201,-0.15397,0.0,0.0
3339,834.5,62.7054,64.626,145.151,100.016,101.496,0.00185023,0.119084,20.8637,103.201,-0.132043,0.0,0.0
3348,836.75,62.7579,64.8138,140.226,100.02,102.505,0.00174053,0.11824,20.8652,103.201,-0.220521,0.0,0.0
3357,839,62.7217,64.8116,141.923,99.98,101.537,0.00157498,0.117582,20.8667,103.211,-0.138877,0.0,0.0
3366,841.25,62.4706,64.8963,144.048,99.9334,102.234,0.0015845,0.11783,20.8675,103.141,-0.204519,0.0,0.0
3375,843.5,62.4014,64.2001,141.274,99.8659,102.583,0.00176759,0.117513,20.8665,103.091,-0.241269,0.0,0.0
3384,845.75,61.6057,63.4287,144.557,99.821,101.496,0.00188033,0.116332,20.8662,103.131,-0.149558,0.0,0.0
3393,848,61.3605,64.2324,138.886,99.7291,102.035,0.00188323,0.115382,20.8677,103.031,-0.205415,0.0,0.0
3402,850.25,61.4158,63.8665,139.465,99.6854,102.437,0.00183429,0.115156,20.8707,103.031,-0.244687,0.0,0.0
3411,852.5,61.415,63.4103,143.987,99.6149,101.829,0.00184453,0.114935,20.8718,102.991,-0.19756,0.0,0.0
3420,854.75,61.0463,63.7401,144.917,99.6099,101.54,0.00197267,0.114822,20.8723,103.011,-0.172457,0.0,0.0
3429,857,60.1816,63.2627,145.664,99.5952,101.983,0.00209554,0.114956,20.8725,102.941,-0.212944,0.0,0.0
3438,859.25,61.2873,63.0471,147.223,99.625,102.207,0.00219879,0.114937,20.8725,102.931,-0.229956,0.0,0.0
3447,861.5,61.1894,63.5093,141.647,99.6577,101.462,0.00222648,0.114564,20.8723,102.911,-0.161251,0.0,0.0
3456,863.75,60.6671,62.9537,143.539,99.6833,101.408,0.00212944,0.114095,20.8731,102.811,-0.154128,0.0,0.0
3465,866,60.7194,63.3728,145.58,99.7035,101.781,0.00206017,0.114199,20.8738,102.731,-0.185388,0.0,0.0
3474,868.25,60.76,62.0975,143.34,99.75,101.283,0.00198651,0.114252,20.8736,102.781,-0.137048,0.0,0.0
3483,870.5,60.5943,62.6394,139.16,99.7857,101.879,0.00192222,0.11408,20.874,102.811,-0.186551,0.0,0.0
3492,872.75,60.6498,62.8481,144.952,99.8138,101.547,0.00190758,0.113637,20.8742,102.731,-0.154685,0.0,0.0
3501,875,60.365,62.5754,141.159,99.8655,102.522,0.00197123,0.114034,20.8752,102.741,-0.235981,0.0,0.0
3510,877.25,59.9261,62.884,144.641,99.9393,102.351,0.0020164,0.11418,20.876,102.731,-0.214266,0.0,0.0
3519,879.5,59.2535,62.9051,141.965,99.9935,101.776,0.00203394,0.113605,20.8764,102.711,-0.158838,0.0,0.0
3528,881.75,60.2898,62.2777,142.422,100.056,101.77,0.00207243,0.11276,20.8765,102.711,-0.152572,0.0,0.0
3537,884,59.4439,62.5398,141.705,100.116,102.331,0.00216391,0.112918,20.8769,102.721,-0.19669,0.0,0.0
3546,886.25,60.042,61.5376,144.544,100.196,101.545,0.0022247,0.113378,20.8775,102.711,-0.120162,0.0,0.0
3555,888.5,59.3465,62.1595,143.847,100.224,101.797,0.00222917,0.112655,20.8778,102.631,-0.139942,0.0,0.0
3564,890.75,59.0748,61.3352,142.852,100.273,102.248,0.00219518,0.112024,20.8778,102.601,-0.17537,0.0,0.0
3573,893,59.3823,61.3932,144.508,100.323,102.256,0.0021582,0.111739,20.879,102.641,-0.171508,0.0,0.0
3582,895.25,59.7065,61.2953,142.95,100.351,101.994,0.00204578,0.110866,20.8797,102.641,-0.145892,0.0,0.0
3591,897.5,59.4722,60.7767,146.184,100.396,102.194,0.00208599,0.110665,20.88,102.541,-0.15958,0.0,0.0
3600,899.75,58.577,61.5961,144.594,100.441,102.408,0.00216138,0.111953,20.8802,102.541,-0.174293,0.0,0.0
3609,902,58.8409,60.941,143.645,100.458,102.119,0.00212701,0.113253,20.8794,102.561,-0.147417,0.0,0.0
3618,904.25,58.8867,61.236,141.065,100.473,102.031,0.00212378,0.113315,20.8785,102.481,-0.138244,0.0,0.0
3627,906.5,58.3341,61.4112,144.196,100.481,102.324,0.00216483,0.112453,20.8782,102.501,-0.163407,0.0,0.0
3636,908.75,58.2782,60.9057,144.915,100.505,102.753,0.00220987,0.11244,20.8791,102.461,-0.198881,0.0,0.0
3645,911,58.7358,60.6664,144.525,100.514,102.27,0.00226454,0.113426,20.8798,102.461,-0.155631,0.0,0.0
3654,913.25,58.2511,60.976,143.85,100.511,102.199,0.00230227,0.113434,20.88,102.341,-0.14966,0.0,0.0
3663,915.5,58.1941,60.9502,142.006,100.516,102.509,0.00237694,0.112577,20.8802,102.361,-0.17642,0.0,0.0
3672,917.75,58.6029,60.9969,142.39,100.532,102.5,0.0024711,0.112974,20.8802,102.411,-0.174265,0.0,0.0
3681,920,58.054,60.3574,144.021,100.534,102.012,0.00253002,0.113274,20.8802,102.301,-0.1311,0.0,0.0
3690,922.25,57.7246,60.7895,145.398,100.535,102.418,0.00250833,0.112868,20.8802,102.24,-0.166772,0.0,0.0
3699,924.5,57.7684,60.4514,140.715,100.53,101.948,0.0024511,0.112371,20.8802,102.25,-0.125836,0.0,0.0
3708,926.75,57.6039,60.2443,142.288,100.512,102.562,0.00256109,0.112508,20.8807,102.2,-0.181477,0.0,0.0
3717,929,57.8721,60.5341,143.941,100.496,101.698,0.00268835,0.112669,20.8818,102.14,-0.106847,0.0,0.0
3726,931.25,57.3569,60.2529,144.373,100.497,102.566,0.00268747,0.112775,20.8823,102.13,-0.18311,0.0,0.0
3735,933.5,57.4893,60.0737,140.689,100.456,102.145,0.00266032,0.113301,20.8825,102.19,-0.149914,0.0,0.0
3744,935.75,57.2559,60.2421,142.539,100.424,102.346,0.00279345,0.113715,20.8812,102.23,-0.170374,0.0,0.0
3753,938,57.1285,59.7416,146.954,100.37,102.69,0.00286068,0.113709,20.8806,102.11,-0.205339,0.0,0.0
3762,940.25,57.3135,59.9248,142.568,100.348,102.062,0.00277871,0.113457,20.8804,102.13,-0.152195,0.0,0.0
3771,942.5,57.0415,59.3758,144.608,100.303,102.648,0.00263523,0.113169,20.8803,102.17,-0.207646,0.0,0.0
3780,944.75,57.7278,60.1112,144.261,100.235,102.106,0.00257,0.11277,20.8814,102.06,-0.166162,0.0,0.0
3789,947,57.5305,59.9895,147.437,100.18,101.701,0.00255484,0.112572,20.8825,102.01,-0.135435,0.0,0.0
3798,949.25,57.1755,59.8152,140.717,100.127,101.963,0.00264908,0.112216,20.884,101.96,-0.163266,0.0,0.0
3807,951.5,55.2273,58.0156,144.118,100.077,101.567,0.00281452,0.112367,20.8845,101.88,-0.132778,0.0,0.0
3816,953.75,55.0566,57.6354,141.768,100.011,101.834,0.00280604,0.112148,20.8848,101.94,-0.162295,0.0,0.0
3825,956,55.2502,58.2081,144.689,99.954,101.519,0.00268846,0.112053,20.8848,101.87,-0.139667,0.0,0.0
3834,958.25,55.5212,58.759,143.3,99.9292,101.895,0.00266955,0.112366,20.8849,101.9,-0.175096,0.0,0.0
3843,960.5,55.648,58.3261,148.15,99.8428,101.658,0.00268813,0.11328,20.8849,101.8,-0.161934,0.0,0.0
3852,962.75,55.2166,57.9856,142.048,99.7866,101.576,0.00280583,0.114086,20.8836,101.87,-0.159708,0.0,0.0
3861,965,55.4111,58.1722,141.988,99.7458,102.152,0.0029403,0.114432,20.883,101.82,-0.214239,0.0,0.0
3870,967.25,55.4605,58.5538,142.223,99.69,101.373,0.00301749,0.114767,20.8827,101.84,-0.150461,0.0,0.0
3879,969.5,54.7818,58.0387,143.712,99.6644,101.482,0.00305866,0.115314,20.8813,101.81,-0.16244,0.0,0.0
3888,971.75,55.2124,57.9237,143.138,99.6162,101.013,0.00309923,0.115729,20.8807,101.81,-0.125185,0.0,0.0
3897,974,55.0269,59.0774,141.152,99.5587,101.56,0.00312921,0.115671,20.8804,101.81,-0.178871,0.0,0.0
3906,976.25,54.2753,58.552,141.987,99.4873,101.048,0.00319962,0.115576,20.8803,101.67,-0.139929,0.0,0.0
3915,978.5,55.1161,58.1626,144.457,99.4374,100.734,0.00329127,0.115203,20.88,101.71,-0.116426,0.0,0.0
3924,980.75,54.7615,58.1541,142.863,99.3971,100.722,0.00331523,0.115051,20.8798,101.7,-0.119042,0.0,0.0
3933,983,54.6943,57.8273,142.329,99.3409,100.727,0.00331019,0.114928,20.8797,101.71,-0.124498,0.0,0.0
3942,985.25,54.4598,58.0154,144.106,99.3064,100.484,0.00335858,0.114338,20.8808,101.6,-0.105976,0.0,0.0
3951,987.5,54.2704,57.8028,143.603,99.2834,101.49,0.0033367,0.114043,20.882,101.65,-0.197603,0.0,0.0
3960,989.75,54.7383,57.4783,140.163,99.2897,100.802,0.00326243,0.11473,20.8825,101.63,-0.135825,0.0,0.0
3969,992,54.6762,57.5699,145.644,99.2678,100.854,0.003313,0.114466,20.8818,101.57,-0.14248,0.0,0.0
3978,994.25,54.9768,58.2583,142.639,99.272,100.616,0.00340982,0.1139,20.8809,101.6,-0.120861,0.0,0.0
3987,996.5,54.5081,57.6989,147.794,99.2376,100.386,0.00341515,0.11388,20.8813,101.53,-0.103389,0.0,0.0
3996,998.75,54.7135,58.152,145.278,99.228,100.634,0.00333787,0.113284,20.8817,101.59,-0.126496,0.0,0.0
4005,1001,54.7365,57.7836,146.211,99.1868,100.585,0.00319132,0.112396,20.8818,101.52,-0.125821,0.0,0.0
4014,1003.25,54.3139,57.7088,140.314,99.1923,101.05,0.00298427,0.112913,20.8845,101.47,-0.166744,0.0,0.0
4023,1005.5,54.252,57.653,143.5,99.1591,100.484,0.00284556,0.113713,20.8856,101.47,-0.119317,0.0,0.0
4032,1007.75,54.3096,57.8862,143.709,99.1373,100.717,0.00302712,0.114087,20.8846,101.45,-0.14211,0.0,0.0
4041,1010,53.5587,57.9154,145.081,99.1021,100.688,0.00321761,0.114474,20.8842,101.39,-0.142717,0.0,0.0
4050,1012.25,54.1415,57.1397,141.794,99.0781,100.703,0.00324991,0.114351,20.884,101.37,-0.146202,0.0,0.0
4059,1014.5,54.5678,57.6937,144.654,99.0391,100.38,0.00312125,0.113742,20.8833,101.45,-0.12089,0.0,0.0
4068,1016.75,54.1117,57.2592,145.032,98.9997,100.428,0.00297749,0.113627,20.8837,101.28,-0.128757,0.0,0.0
4077,1019,53.8633,57.0113,147.311,98.9699,100.43,0.00298987,0.114183,20.8852,101.3,-0.131669,0.0,0.0
4086,1021.25,54.1422,57.3768,144.629,98.9535,100.482,0.00317074,0.114561,20.885,101.3,-0.137728,0.0,0.0
4095,1023.5,53.9302,56.8137,142.426,98.948,100.406,0.00328328,0.114532,20.8843,101.32,-0.131426,0.0,0.0
4104,1025.75,53.5075,57.3136,143.531,98.9153,100.42,0.00329132,0.11397,20.8847,101.24,-0.135718,0.0,0.0
4113,1028,52.9982,56.5501,141.466,98.8859,100.026,0.00322122,0.113777,20.8856,101.24,-0.103001,0.0,0.0
4122,1030.25,53.6981,57.0711,143.866,98.9019,100.465,0.00324905,0.113999,20.8854,101.27,-0.140935,0.0,0.0
4131,1032.5,53.4234,56.7169,144.845,98.8763,100.886,0.00333857,0.1145,20.8851,101.18,-0.180872,0.0,0.0
4140,1034.75,53.6997,56.4374,144.707,98.8641,100.455,0.003476,0.114552,20.8848,101.119,-0.143503,0.0,0.0
4149,1037,53.7473,56.9384,145.666,98.8805,100.393,0.0034573,0.113855,20.8861,101.119,-0.136411,0.0,0.0
4158,1039.25,53.046,56.4307,146.299,98.8637,100.516,0.00334636,0.113529,20.8867,101.18,-0.148936,0.0,0.0
4167,1041.5,54.153,57.0537,146.004,98.8721,100.445,0.0032822,0.113717,20.8869,101.089,-0.141872,0.0,0.0
4176,1043.75,53.6095,57.2972,143.7,98.8687,100.5,0.0032136,0.113645,20.887,101.089,-0.147119,0.0,0.0
4185,1046,52.8444,56.596,144.051,98.8905,100.128,0.00313771,0.113111,20.8871,101.129,-0.111762,0.0,0.0
4194,1048.25,53.3159,57.0205,141.488,98.8805,100.146,0.00311252,0.113123,20.887,101.029,-0.11433,0.0,0.0
4203,1050.5,52.6371,56.6759,144.619,98.8973,100.532,0.00317128,0.113872,20.8869,101.029,-0.147366,0.0,0.0
4212,1052.75,53.5765,57.0222,141.476,98.9023,100.694,0.00335407,0.11486,20.8864,101.019,-0.161387,0.0,0.0
4221,1055,53.2672,56.7282,141.257,98.8994,100.349,0.00353084,0.115695,20.8853,101.079,-0.130736,0.0,0.0
4230,1057.25,53.4546,56.9419,140.337,98.9149,100.638,0.00354526,0.115527,20.8849,100.949,-0.155186,0.0,0.0
4239,1059.5,53.2942,56.7287,143.293,98.9342,101.1,0.00340512,0.115155,20.8852,100.919,-0.194582,0.0,0.0
4248,1061.75,53.1012,56.1726,144.975,98.9464,100.599,0.00330447,0.115092,20.8853,101.039,-0.148913,0.0,0.0
4257,1064,53.2152,56.1431,145.673,98.9648,100.563,0.00336025,0.114987,20.8866,100.949,-0.143944,0.0,0.0
4266,1066.25,52.9217,56.215,144.031,98.9753,100.355,0.00336573,0.115122,20.8873,100.809,-0.124371,0.0,0.0
4275,1068.5,52.242,55.9049,143.18,98.9971,100.103,0.00338387,0.114883,20.8865,100.829,-0.0998054,0.0,0.0