File: 01_Data/Pressure_Treated_Deck/Cone/Pressure_Treated_Deck_Cone_HF25Scan_230612_R1.csv
Names,Time,Stack TC,Smoke TC,Exh Press,Smoke Comp,Smoke Meas,CO Meter,CO2 Meter,O2 Meter,Sample Mass,Ext Coeff,Start Test,Flame Verif
Chan Gain,,500,500,1,1,1,1,1,1,1,1,1.0,1.0
Offset,,0,0,0.13972,0,0,0,0,0,0,0,0.0,0.0
Gain,,1,1,25.011,13.3025,15.4883,1,1,1,1.0009,1.01862,1.0,1.0
Units,sec,C,C,Pa,%,%,%,%,%,g,/m,,
Baseline,,22.0854,23.3284,160.886,99.7992,99.7332,0.000639097,0.0440025,20.9692,-442.962,0.00593231,,
13,3,20.3551,20.8488,163.472,99.8927,99.985,0.000479674,0.0501397,20.9658,175.359,-0.00825511,0.0,0.0
26,6.25,20.2856,20.9835,161.297,99.8131,99.9259,0.000724043,0.0517355,20.9622,175.328,-0.0100944,0.0,0.0
39,9.5,20.7986,21.9197,162.302,99.7632,99.8569,0.000913916,0.053965,20.9593,175.298,-0.00839158,0.0,0.0
52,12.75,20.719,22.277,160.681,99.7498,100.027,0.000840072,0.0549523,20.9564,175.178,-0.0248048,0.0,0.0
65,16,20.7365,22.6506,163.709,99.8752,100.205,0.000739718,0.0535593,20.9554,175.158,-0.0294363,0.0,0.0
78,19.25,20.8453,22.3043,163.8,99.954,100.055,0.000591217,0.0520327,20.957,175.088,-0.0090233,0.0,0.0
91,22.5,21.2983,22.2622,158.414,100.044,100.464,0.000564485,0.0512409,20.959,174.998,-0.0374438,0.0,0.0
104,25.75,20.6454,22.4105,157.65,100.109,100.152,0.000334354,0.051005,20.9596,174.928,-0.00381943,0.0,0.0
117,29,21.0664,22.5572,161.113,100.118,100.508,0.000287918,0.0497998,20.9611,174.878,-0.0347984,0.0,0.0
130,32.25,20.9048,23.0013,160.173,100.147,100.553,0.000540626,0.0484833,20.9627,174.858,-0.0361459,0.0,0.0
143,35.5,21.5037,22.3929,163.944,100.174,100.755,0.000630268,0.0476775,20.9655,174.818,-0.0516358,0.0,0.0
156,38.75,21.2116,22.5423,160.575,100.178,100.094,0.00052785,0.0470595,20.968,174.758,0.00744772,0.0,0.0
169,42,21.3604,22.685,161.268,100.16,100.244,0.000431097,0.0467569,20.9696,174.718,-0.00751097,0.0,0.0
182,45.25,21.2377,22.6065,164.144,100.166,99.7189,0.000408644,0.046621,20.9699,174.638,0.0399989,0.0,0.0
195,48.5,21.509,22.5549,160.468,100.141,99.9926,0.000405895,0.0463736,20.9699,174.618,0.0132642,0.0,0.0
208,51.75,21.5189,22.7901,161.45,100.12,99.8739,0.000602555,0.0463986,20.9694,174.568,0.0219527,0.0,0.0
221,55,21.3929,22.751,158.211,100.106,100.027,0.000593822,0.0465799,20.9693,174.538,0.00707202,0.0,0.0
234,58.25,21.6092,23.1146,162.781,100.083,99.8323,0.000317049,0.0477414,20.9685,174.478,0.0224127,0.0,0.0
247,61.5,21.6375,23.1231,157.387,100.062,99.7775,0.000349639,0.0517906,20.9676,174.448,0.0254372,0.0,0.0
260,64.75,21.8332,23.7186,167.019,100.042,99.8942,0.000645453,0.0577339,20.963,174.388,0.013176,0.0,0.0
273,68,21.8421,23.3899,157.809,100.036,99.2661,0.000666163,0.0607027,20.9559,174.358,0.0690333,0.0,0.0
286,71.25,22.0132,22.9173,162.922,100.03,100.068,0.00071117,0.0601151,20.9516,174.308,-0.00338414,0.0,0.0
299,74.5,22.126,23.3495,158.597,99.9901,99.5166,0.000683575,0.0586416,20.9522,174.258,0.0424141,0.0,0.0
312,77.75,21.5755,23.3167,159.215,99.9812,99.3256,0.00073111,0.0582898,20.9542,174.207,0.058777,0.0,0.0
325,81,21.9032,23.5817,153.743,99.9645,99.0879,0.00100949,0.0609796,20.9548,174.127,0.0787046,0.0,0.0
338,84.25,21.9186,23.3339,163.682,99.9381,99.4977,0.00101342,0.0637039,20.9508,174.097,0.0394665,0.0,0.0
351,87.5,21.6961,23.5147,160.287,99.9121,98.8284,0.000879853,0.0661635,20.9474,174.037,0.0974522,0.0,0.0
364,90.75,22.1659,23.5946,162.625,99.891,99.4069,0.000650706,0.0655951,20.9449,173.987,0.0434095,0.0,0.0
377,94,22.1497,23.8946,158.1,99.8699,99.3365,0.000455258,0.0615171,20.9469,173.917,0.047853,0.0,0.0
390,97.25,22.4376,23.6548,164.532,99.818,98.9451,0.000751528,0.0609257,20.9508,173.867,0.0784765,0.0,0.0
403,100.5,22.1492,23.7043,162.637,99.8001,99.2528,0.00107173,0.0594061,20.9528,173.797,0.0491328,0.0,0.0
416,103.75,21.9164,23.5537,160.515,99.7713,98.9116,0.00121691,0.0564223,20.9537,173.747,0.0773266,0.0,0.0
429,107,21.8848,23.922,157.83,99.7433,98.723,0.00104185,0.054857,20.9558,173.687,0.0918716,0.0,0.0
442,110.25,22.433,23.3048,162.19,99.7205,98.7603,0.00101553,0.0546006,20.9582,173.607,0.0864552,0.0,0.0
455,113.5,21.7285,23.185,157.488,99.6921,98.8298,0.0010374,0.0537462,20.9569,173.567,0.0776244,0.0,0.0
468,116.75,21.9708,23.1305,158.472,99.6734,98.3661,0.000941708,0.0521942,20.9584,173.517,0.117971,0.0,0.0
481,120,22.117,23.976,161.707,99.6223,98.1969,0.000879584,0.0516595,20.96,173.437,0.12877,0.0,0.0
494,123.25,22.3549,23.4535,167.639,99.606,98.2895,0.00096263,0.0518537,20.9592,173.367,0.118886,0.0,0.0
507,126.5,22.4761,24.0034,168,99.6097,98.229,0.00117237,0.0527445,20.9592,173.277,0.124716,0.0,0.0
520,129.75,22.7554,24.0665,163.819,99.5959,98.1265,0.00128266,0.054251,20.9588,173.257,0.132813,0.0,0.0
533,133,22.439,23.9966,160.152,99.6012,98.17,0.0012285,0.0540158,20.9571,173.167,0.129327,0.0,0.0
546,136.25,22.8762,24.3088,159.874,99.6012,97.8136,0.00123438,0.0528697,20.9581,173.117,0.161824,0.0,0.0
559,139.5,22.0017,23.7758,162.623,99.6073,97.7805,0.00131115,0.0532834,20.9585,173.016,0.165393,0.0,0.0
572,142.75,22.4855,23.8637,159.551,99.6377,97.3867,0.00153431,0.0553865,20.9582,172.956,0.204177,0.0,0.0
585,146,22.3789,24.3637,158.816,99.7039,97.2123,0.00165662,0.0561233,20.9568,172.896,0.226125,0.0,0.0
598,149.25,22.7316,24.2114,156.536,99.7429,97.2865,0.00170492,0.0549771,20.956,172.806,0.222799,0.0,0.0
611,152.5,22.9834,24.1042,160.727,99.792,97.6136,0.00164156,0.0529715,20.9565,172.746,0.197207,0.0,0.0
624,155.75,22.7754,23.9951,159.586,99.8744,97.9591,0.00174903,0.0517762,20.9583,172.666,0.173012,0.0,0.0
637,159,22.7981,24.5347,155.906,99.9345,97.3314,0.00170953,0.0524662,20.9594,172.586,0.235825,0.0,0.0
650,162.25,22.7035,24.659,156.738,99.9828,97.6401,0.0014776,0.0542397,20.9581,172.496,0.211853,0.0,0.0
663,165.5,23.1495,24.3508,161.567,100.042,97.7611,0.00149297,0.0549793,20.9559,172.406,0.206119,0.0,0.0
676,168.75,22.5637,24.5073,157.341,100.109,97.7365,0.00172557,0.0545825,20.9567,172.336,0.214345,0.0,0.0
689,172,22.6549,24.9128,159.607,100.148,97.6311,0.0018852,0.0542468,20.9572,172.206,0.227429,0.0,0.0
702,175.25,23.7406,27.113,150.095,100.164,100.618,0.00194141,0.0536485,20.9573,171.905,-0.0404542,0.0,1.0
715,178.5,24.1201,31.0492,142.897,100.185,100.034,0.00212657,0.0545242,20.9574,171.505,0.0134599,0.0,0.0
728,181.75,26.7878,35.5503,139.47,100.189,99.0898,0.00216775,0.0784521,20.9556,171.095,0.0985774,0.0,0.0
741,185,29.422,40.1349,145.763,100.18,98.3297,0.00219132,0.186506,20.9305,170.614,0.166618,0.0,0.0
754,188.25,31.7744,43.2096,145.217,100.15,98.394,0.00234736,0.306378,20.8009,170.164,0.158062,0.0,0.0
767,191.5,33.7721,45.5214,144.203,100.136,99.0425,0.00280095,0.38445,20.6615,169.683,0.0980959,0.0,0.0
780,194.75,34.5973,47.2255,145.3,100.067,98.5074,0.00313849,0.425568,20.5745,169.303,0.140374,0.0,0.0
793,198,36.1288,47.9505,146.006,100.017,98.6927,0.00333153,0.43684,20.5259,168.913,0.119087,0.0,0.0
806,201.25,36.9773,48.1229,144.06,99.9215,98.247,0.00328117,0.429842,20.5109,168.562,0.151007,0.0,0.0
819,204.5,37.7183,48.3229,147.358,99.8208,98.3552,0.00322722,0.409978,20.5169,168.192,0.132159,0.0,0.0
832,207.75,37.7485,47.8668,149.052,99.7538,98.3647,0.00300619,0.387387,20.5401,167.842,0.125303,0.0,0.0
845,211,38.5796,47.9595,149.36,99.822,99.0321,0.00283415,0.367983,20.5682,167.511,0.0709885,0.0,0.0
858,214.25,38.8511,48.2103,147.319,99.8902,98.1988,0.00285188,0.351161,20.5898,167.191,0.152596,0.0,0.0
871,217.5,39.1083,47.7809,144.693,99.9617,98.5287,0.00276938,0.335868,20.6061,166.861,0.129014,0.0,0.0
884,220.75,39.5515,47.4597,149.217,100.066,99.0595,0.00257758,0.326129,20.6278,166.561,0.090328,0.0,0.0
897,224,39.3195,47.1598,150.248,100.176,98.9508,0.00261523,0.315235,20.6392,166.2,0.109994,0.0,0.0
910,227.25,39.1728,47.2742,152.84,100.293,99.8092,0.0028517,0.306844,20.6525,165.93,0.043205,0.0,0.0
923,230.5,39.5868,47.1038,149.905,100.393,99.0255,0.00278294,0.29978,20.664,165.63,0.122532,0.0,0.0
936,233.75,39.6504,46.3688,148.961,100.501,99.0316,0.00267268,0.292567,20.6726,165.329,0.13162,0.0,0.0
949,237,39.7222,46.3285,150.832,100.584,99.4698,0.00267269,0.28806,20.6794,165.009,0.0995328,0.0,0.0
962,240.25,39.8404,46.1986,152.755,100.626,98.9839,0.00284189,0.28687,20.6853,164.729,0.147037,0.0,0.0
975,243.5,39.688,46.5053,155.429,100.646,99.7917,0.00282047,0.283821,20.687,164.429,0.0761808,0.0,0.0
988,246.75,39.3801,45.4857,149.138,100.653,100.023,0.00259099,0.27935,20.6907,164.198,0.0561152,0.0,0.0
1001,250,39.3674,45.1323,152.418,100.61,99.7364,0.00249524,0.274917,20.6957,163.878,0.0779264,0.0,0.0
1014,253.25,39.3305,44.8113,148.516,100.551,99.6272,0.00227365,0.269788,20.702,163.638,0.0824478,0.0,0.0
1027,256.5,39.3695,44.5403,149.993,100.465,99.562,0.00218826,0.264309,20.7079,163.318,0.0806851,0.0,0.0
1040,259.75,39.3765,44.2313,149.312,100.334,99.3946,0.00241473,0.255907,20.7148,163.087,0.0840803,0.0,0.0
1053,263,39.1204,44.4747,153.781,100.198,98.9546,0.00255815,0.255767,20.7231,162.787,0.111535,0.0,0.0
1066,266.25,39.4045,44.9066,149.441,100.044,98.8185,0.00220744,0.257135,20.725,162.537,0.110177,0.0,0.0
1079,269.5,39.4257,44.5612,153.078,99.9126,98.8336,0.00207395,0.253532,20.7247,162.267,0.0970191,0.0,0.0
1092,272.75,39.1973,44.4725,150.621,99.7339,98.7433,0.00242889,0.252499,20.7274,161.986,0.0891954,0.0,0.0
1105,276,38.9638,44.1492,151.424,99.5918,98.7877,0.00272197,0.251442,20.7283,161.696,0.0724371,0.0,0.0
1118,279.25,38.9262,43.3913,150.253,99.4575,98.8416,0.00295229,0.248564,20.7299,161.466,0.0555002,0.0,0.0
1131,282.5,38.9832,44.173,149.01,99.3207,98.7527,0.00283847,0.245334,20.7333,161.196,0.0512385,0.0,0.0
1144,285.75,39.2164,43.6253,148.502,99.1843,98.5448,0.00277317,0.241645,20.7368,160.956,0.057796,0.0,0.0
1157,289,39.2792,43.7489,149.649,99.0645,98.3671,0.00281673,0.238097,20.7409,160.675,0.0631292,0.0,0.0
1170,292.25,38.6774,43.4838,153.292,98.9675,98.1444,0.00276259,0.235495,20.7463,160.395,0.0746197,0.0,0.0
1183,295.5,38.6934,43.5669,153.223,98.8989,98.6615,0.0026997,0.233686,20.7489,160.165,0.0214692,0.0,0.0
1196,298.75,39.2903,43.3173,150.249,98.8676,98.0957,0.00236393,0.23298,20.7513,159.895,0.0700321,0.0,0.0
1209,302,38.8671,43.2329,148.79,98.8818,98.1898,0.00231661,0.232708,20.7534,159.624,0.0627527,0.0,0.0
1222,305.25,38.8194,43.1254,155.887,98.8916,98.3226,0.00256553,0.231094,20.7543,159.374,0.0515541,0.0,0.0
1235,308.5,38.8298,42.5646,147.491,98.9561,98.749,0.00252701,0.229853,20.7545,159.154,0.018723,0.0,0.0
1248,311.75,38.7766,43.0847,154.698,99.0369,98.4559,0.00268964,0.228363,20.7566,158.824,0.0525707,0.0,0.0
1261,315,39.3204,42.5209,152.844,99.114,98.54,0.00295305,0.226381,20.7588,158.603,0.0518951,0.0,0.0
1274,318.25,38.3513,42.4248,154.568,99.1981,99.2902,0.0029206,0.22574,20.7621,158.383,-0.00829296,0.0,0.0
1287,321.5,38.2856,42.7884,146.01,99.2959,99.2538,0.00282713,0.224859,20.7632,158.103,0.00379118,0.0,0.0
1300,324.75,38.7391,42.973,147.911,99.3775,99.1016,0.00285549,0.223671,20.764,157.843,0.0248423,0.0,0.0
1313,328,38.5015,42.7737,148.335,99.4457,99.3979,0.0030773,0.225727,20.7639,157.612,0.00429158,0.0,0.0
1326,331.25,38.3987,42.2279,145.856,99.52,99.5454,0.00320077,0.226155,20.7624,157.272,-0.00228187,0.0,0.0
1339,334.5,38.5192,42.196,149.199,99.5784,98.9669,0.00299625,0.226315,20.7616,157.042,0.0550471,0.0,0.0
1352,337.75,38.0935,42.2005,152.568,99.6365,99.6721,0.00278516,0.227101,20.7606,156.762,-0.00319127,0.0,0.0
1365,341,38.3394,42.5189,156.856,99.6787,99.7732,0.00245973,0.2254,20.7589,156.531,-0.00846887,0.0,0.0
1378,344.25,38.3601,42.0523,146.588,99.738,99.9859,0.00233563,0.221296,20.7608,156.231,-0.0221856,0.0,0.0
1391,347.5,38.1778,42.595,151.217,99.7895,99.7269,0.00242488,0.219451,20.7657,156.001,0.00560952,0.0,0.0
1404,350.75,38.6759,42.8003,151.297,99.8098,99.6144,0.00234828,0.220177,20.7672,155.731,0.0175122,0.0,0.0
1417,354,38.197,42.7779,151.162,99.8488,99.9604,0.00237106,0.222958,20.7676,155.34,-0.00998084,0.0,0.0
1430,357.25,38.5575,42.8965,146.377,99.8508,99.6258,0.00253628,0.225404,20.7645,155.2,0.0201642,0.0,0.0
1443,360.5,38.5053,43.5767,149.634,99.8525,99.3861,0.00240417,0.227145,20.7624,154.86,0.0418289,0.0,0.0
1456,363.75,38.8137,43.3953,150.656,99.8756,100.08,0.00246274,0.22961,20.7609,154.64,-0.0183087,0.0,0.0
1469,367,38.97,43.909,148.032,99.8797,99.9552,0.00241879,0.232172,20.7583,154.37,-0.0067557,0.0,0.0
1482,370.25,38.9314,43.4934,154.95,99.8724,99.3729,0.00234899,0.233073,20.7548,154.069,0.044798,0.0,0.0
1495,373.5,39.2721,43.8328,149.961,99.8415,99.7269,0.00239369,0.234632,20.7539,153.799,0.0102612,0.0,0.0
1508,376.75,38.7309,43.6517,153.066,99.8403,99.276,0.00243321,0.235533,20.7536,153.459,0.0506454,0.0,0.0
1521,380,39.1811,43.7243,150.997,99.8131,99.5232,0.00259497,0.235678,20.7536,153.148,0.0259895,0.0,0.0
1534,383.25,39.4436,43.9143,149.012,99.7766,99.6366,0.00261183,0.235153,20.7524,152.938,0.0125388,0.0,0.0
1547,386.5,39.0988,43.8358,155.523,99.7376,99.7784,0.0023956,0.235634,20.7513,152.648,-0.00365959,0.0,0.0
1560,389.75,39.5856,43.295,154.113,99.7116,99.7444,0.00233507,0.233864,20.7499,152.408,-0.00293874,0.0,0.0
1573,393,38.9382,43.3525,154.352,99.6803,99.8413,0.00253275,0.231137,20.7526,152.128,-0.0144164,0.0,0.0
1586,396.25,39.1971,43.2794,148.703,99.5837,99.4362,0.00279676,0.226365,20.7554,151.867,0.013244,0.0,0.0
1599,399.5,38.6032,42.4398,151.598,99.522,99.6352,0.00280577,0.220234,20.7599,151.577,-0.0101573,0.0,0.0
1612,402.75,38.4446,42.8133,153.081,99.4384,99.3261,0.00286008,0.215665,20.7688,151.367,0.0100963,0.0,0.0
1625,406,38.5228,42.3136,148.045,99.3414,99.3185,0.00293973,0.212763,20.7733,151.047,0.0020534,0.0,0.0
1638,409.25,38.8719,42.7646,149.152,99.2687,99.5454,0.0029631,0.209825,20.7756,150.806,-0.0248721,0.0,0.0
1651,412.5,38.2824,42.2355,151.766,99.1737,99.0742,0.00269033,0.20687,20.7792,150.586,0.0089727,0.0,0.0
1664,415.75,38.7313,42.4393,150.711,99.0811,98.8582,0.00263732,0.204739,20.7825,150.336,0.0201323,0.0,0.0
1677,419,38.3032,41.6598,152.517,99.0012,98.6185,0.00265906,0.202395,20.785,150.116,0.0346029,0.0,0.0
1690,422.25,38.1098,41.602,154.8,98.9456,99.3563,0.00267234,0.200194,20.788,149.885,-0.0370197,0.0,0.0
1703,425.5,38.5917,41.6597,152.863,98.8887,98.9645,0.00265433,0.19821,20.7906,149.635,-0.0068447,0.0,0.0
1716,428.75,38.3976,41.2404,151.837,98.8404,98.86,0.00268068,0.196881,20.792,149.415,-0.00177527,0.0,0.0
1729,432,37.9851,41.3626,154.538,98.8347,98.5826,0.00271239,0.195121,20.7935,149.165,0.0228239,0.0,0.0
1742,435.25,38.0368,41.0541,150.85,98.8331,98.8572,0.00259827,0.193728,20.796,148.965,-0.00217959,0.0,0.0
1755,438.5,37.8571,40.884,152.816,98.8282,99.1096,0.00241236,0.192903,20.798,148.704,-0.025404,0.0,0.0
1768,441.75,37.6157,40.5117,150.761,98.8688,98.9158,0.0022985,0.191818,20.7994,148.464,-0.00424569,0.0,0.0
1781,445,37.5865,40.8893,153.142,98.9204,98.7783,0.00233364,0.190957,20.7998,148.234,0.0128462,0.0,0.0
1794,448.25,37.527,40.5564,152.082,98.9829,99.2916,0.00237237,0.189629,20.801,148.024,-0.0278217,0.0,0.0
1807,451.5,36.945,40.0835,150.666,99.045,98.8478,0.00240661,0.188258,20.8027,147.794,0.0178131,0.0,0.0
1820,454.75,36.9556,40.335,152.801,99.15625,99.1262,0.00246646,0.187665,20.8041,147.583,0.0027115,0.0,0.0
1833,458,37.0009,40.0466,151.276,99.2671,98.9314,0.00234812,0.186352,20.8053,147.393,0.0302643,0.0,0.0
1846,461.25,36.4637,39.8132,150.175,99.3795,99.448,0.00221735,0.185068,20.8065,147.123,-0.00615824,0.0,0.0
1859,464.5,37.1615,39.93,148.612,99.5228,99.5846,0.00237725,0.184298,20.8081,146.893,-0.00554803,0.0,0.0
1872,467.75,36.9033,39.2295,152.772,99.6523,99.7855,0.00239099,0.18258,20.8107,146.693,-0.0119346,0.0,0.0
1885,471,36.939,39.2442,152.872,99.7721,99.8172,0.00229794,0.181415,20.812,146.432,-0.00403842,0.0,0.0
1898,474.25,36.2773,39.1171,151.766,99.8667,99.8734,0.00240714,0.18092,20.8131,146.222,-0.000605566,0.0,0.0
1911,477.5,36.4518,39.1428,154.154,99.9645,99.4575,0.00238722,0.179135,20.8156,146.002,0.045435,0.0,0.0
1924,480.75,36.2544,39.0838,154.849,100.05,100.104,0.0024714,0.17979,20.8168,145.782,-0.00485154,0.0,0.0
1937,484,36.3523,39.1155,153.259,100.108,100.527,0.00262126,0.179327,20.8154,145.552,-0.0373069,0.0,0.0
1950,487.25,35.8981,39.32,150.273,100.16,100.03,0.00282569,0.181411,20.8151,145.301,0.0115889,0.0,0.0
1963,490.5,35.991,38.6592,151.701,100.215,100.168,0.00283222,0.185268,20.813,145.101,0.00416169,0.0,0.0
1976,493.75,36.0071,38.6678,154.572,100.244,100.23,0.00247531,0.188321,20.8078,144.881,0.00124083,0.0,0.0
1989,497,36.1059,39.1138,154.221,100.273,99.6518,0.00243486,0.187196,20.804,144.631,0.0555701,0.0,0.0
2002,500.25,36.4238,38.5518,151.36,100.281,100.448,0.00255983,0.186959,20.8027,144.411,-0.0148709,0.0,0.0
2015,503.5,35.7644,38.5711,156.185,100.29,100.322,0.00258044,0.185786,20.8041,144.2,-0.0028844,0.0,0.0
2028,506.75,35.7576,38.5462,151.679,100.277,100.234,0.0027849,0.183709,20.8058,143.98,0.00383483,0.0,0.0
2041,510,35.4849,38.2273,151.261,100.275,100.372,0.00274804,0.181401,20.8076,143.78,-0.0086368,0.0,0.0
2054,513.25,35.5626,37.5733,149.577,100.263,100.209,0.00275924,0.179391,20.8111,143.57,0.00487925,0.0,0.0
2067,516.5,35.376,38.1068,151.74,100.223,100.391,0.00286169,0.179043,20.8145,143.36,-0.0149509,0.0,0.0
2080,519.75,35.3689,38.633,154.251,100.19,99.8186,0.00289813,0.178681,20.8155,143.129,0.0331672,0.0,0.0
2093,523,35.0433,37.6293,154.178,100.147,100.271,0.00277253,0.179993,20.8162,142.899,-0.011035,0.0,0.0
2106,526.25,35.4341,38.0943,150.51,100.083,100.071,0.00267009,0.179221,20.8164,142.689,0.00111729,0.0,0.0
2119,529.5,35.5555,38.0595,154.048,100.004,99.5771,0.00258383,0.178388,20.8182,142.479,0.0382172,0.0,0.0
2132,532.75,35.0715,37.8315,155.413,99.93,99.6248,0.00262272,0.178687,20.8199,142.249,0.0273308,0.0,0.0
2145,536,35.4323,37.9097,149.019,99.8456,100.664,0.00264335,0.178427,20.8205,142.018,-0.0729626,0.0,0.0
2158,539.25,35.3107,37.9592,151.671,99.7368,99.0165,0.00241835,0.17899,20.8195,141.788,0.0647621,0.0,0.0
2171,542.5,35.2106,37.3991,150,99.6499,99.1668,0.00229734,0.179343,20.819,141.578,0.0434223,0.0,0.0
2184,545.75,35.228,37.9831,156.87,99.563,99.9519,0.00250194,0.179356,20.8181,141.358,-0.0348326,0.0,0.0
2197,549,35.2766,38.1334,151.682,99.4676,99.0661,0.00281898,0.179202,20.8167,141.158,0.0361392,0.0,0.0
2210,552.25,35.2002,38.03,150.912,99.3909,99.4547,0.00300955,0.180243,20.8159,140.917,-0.00573082,0.0,0.0
2223,555.5,35.5254,38.4865,149.37,99.3284,99.2821,0.00302736,0.182728,20.8136,140.717,0.00416063,0.0,0.0
2236,558.75,35.5194,38.6737,152.806,99.2707,99.4376,0.00300925,0.184067,20.8113,140.507,-0.0150112,0.0,0.0
2249,562,35.1269,38.6582,151.988,99.2013,98.8147,0.00294408,0.184581,20.8089,140.297,0.0348937,0.0,0.0
2262,565.25,35.7365,38.7583,150.566,99.1477,98.9064,0.00256477,0.184224,20.808,140.047,0.0217774,0.0,0.0
2275,568.5,35.8438,38.2856,152.676,99.0929,99.1507,0.002271,0.185278,20.8077,139.786,-0.00521177,0.0,0.0
2288,571.75,35.4622,39.018,149.793,99.0397,98.9423,0.00222505,0.185691,20.8077,139.616,0.00879499,0.0,0.0
2301,575,35.177,38.7726,153.22,98.9971,98.3774,0.00222982,0.187062,20.8094,139.426,0.0561046,0.0,0.0
2314,578.25,35.7982,38.781,150.771,98.959,98.498,0.00216725,0.186811,20.8081,139.176,0.0417187,0.0,0.0
2327,581.5,35.2881,39.3341,153.713,98.9163,98.8686,0.00234015,0.184445,20.8078,138.876,0.00431607,0.0,0.0
2340,584.75,35.8704,38.4486,151.613,98.87,98.9844,0.00248577,0.184591,20.809,138.755,-0.0103247,0.0,0.0
2353,588,36.0029,38.7514,156.282,98.8567,99.1002,0.00272044,0.187035,20.8098,138.535,-0.0219827,0.0,0.0
2366,591.25,35.7104,39.3235,152.453,98.8554,99.1573,0.00272273,0.18698,20.8067,138.295,-0.0272479,0.0,0.0
2379,594.5,36.1101,39.6219,153.266,98.8522,99.1021,0.00254482,0.188773,20.8057,138.065,-0.0225572,0.0,0.0
2392,597.75,35.8504,38.7265,147.352,98.892,98.661,0.00258222,0.189013,20.8039,137.855,0.020889,0.0,0.0
2405,601,35.6349,39.223,147.624,98.9334,98.9881,0.00242322,0.188077,20.8038,137.634,-0.0049448,0.0,0.0
2418,604.25,35.6085,39.1847,153.91,98.9853,98.3878,0.00229657,0.18789,20.8049,137.424,0.0540975,0.0,0.0
2431,607.5,35.7619,38.8508,147.632,99.0438,99.1659,0.00227182,0.188503,20.8052,137.194,-0.0110057,0.0,0.0
2444,610.75,36.4426,39.2244,149.501,99.1112,99.1366,0.00238975,0.188533,20.8041,136.984,-0.00228667,0.0,0.0
2457,614,35.7165,38.9284,149.743,99.1891,98.9697,0.00253304,0.188004,20.8037,136.764,0.0197891,0.0,0.0
2470,617.25,36.1403,39.0786,150.539,99.2265,99.4773,0.00249648,0.186374,20.8049,136.543,-0.022562,0.0,0.0
2483,620.5,35.7298,39.1691,151.202,99.3085,98.8629,0.00234593,0.185916,20.8067,136.353,0.0401823,0.0,0.0
2496,623.75,36.8099,39.8751,151.898,99.3742,99.4362,0.00221643,0.185488,20.8074,136.103,-0.00557148,0.0,0.0
2509,627,36.2029,39.244,152.99,99.4303,99.3459,0.00209146,0.186177,20.8076,135.883,0.00758075,0.0,0.0
2522,630.25,36.6362,39.5925,152.854,99.5139,99.6815,0.00206412,0.18655,20.8063,135.683,-0.0150395,0.0,0.0
2535,633.5,35.9375,39.4199,152.8,99.6162,99.6749,0.00219679,0.186263,20.8055,135.462,-0.00526506,0.0,0.0
2548,636.75,36.1131,39.0708,149.536,99.7019,99.1989,0.00254561,0.185437,20.8081,135.242,0.0451849,0.0,0.0
2561,640,36.0611,38.9681,151.987,99.7879,99.6347,0.00267986,0.18586,20.8106,135.032,0.0137258,0.0,0.0
2574,643.25,35.7148,39.497,150.644,99.8646,99.6787,0.00235865,0.187598,20.8101,134.792,0.0166522,0.0,0.0
2587,646.5,36.4268,39.246,151.879,99.9434,100.084,0.00224195,0.188175,20.8077,134.572,-0.0125831,0.0,0.0
2600,649.75,36.3061,39.3412,155.358,99.9816,100.27,0.0022507,0.188933,20.807,134.361,-0.0257822,0.0,0.0
2613,653,36.4765,39.4692,154.697,100.027,100.238,0.00240501,0.189357,20.8069,134.151,-0.0188925,0.0,0.0
2626,656.25,36.2284,39.4344,151.121,100.049,100.151,0.00263199,0.190006,20.8068,133.931,-0.00917791,0.0,0.0
2639,659.5,36.4441,40.0144,156.271,100.068,99.5818,0.00259338,0.1891,20.8041,133.721,0.0434848,0.0,0.0
2652,662.75,36.5357,39.5894,151.559,100.075,100.055,0.00239987,0.189511,20.8028,133.481,0.00170623,0.0,0.0
2665,666,36.1651,39.5356,149.828,100.102,99.9292,0.00224862,0.190889,20.8032,133.27,0.0154124,0.0,0.0
2678,669.25,35.912,39.2998,153.46,100.092,100.001,0.00214579,0.191504,20.8021,133.03,0.00819907,0.0,0.0
2691,672.5,36.6101,39.713,150.528,100.062,99.6659,0.00235444,0.19149,20.8019,132.83,0.0354687,0.0,0.0
2704,675.75,36.0771,39.204,153.104,100.055,99.8508,0.00242569,0.191206,20.8019,132.61,0.0182627,0.0,0.0
2717,679,36.3788,39.7997,151.057,100.026,99.8233,0.00217781,0.190916,20.8019,132.38,0.0181416,0.0,0.0
2730,682.25,36.5386,39.5416,153.674,99.9718,99.4523,0.00213843,0.189759,20.8022,132.169,0.0465551,0.0,0.0
2743,685.5,36.2932,39.3505,148.321,99.9024,99.4518,0.00233649,0.189221,20.8027,131.959,0.0403912,0.0,0.0
2756,688.75,36.2828,39.493,149.513,99.8249,99.9977,0.0023219,0.189904,20.804,131.739,-0.0154609,0.0,0.0
2769,692,36.6624,39.4092,152.344,99.7226,100.003,0.00223647,0.190009,20.8043,131.539,-0.0250879,0.0,0.0
2782,695.25,35.9126,39.2915,146.693,99.5825,99.3493,0.00223529,0.189885,20.8049,131.309,0.0209538,0.0,0.0
2795,698.5,36.7186,39.6296,148.425,99.5066,99.1436,0.00232607,0.189529,20.8053,131.079,0.0326504,0.0,0.0
2808,701.75,36.5483,39.575,150.331,99.4465,99.7803,0.00234288,0.188828,20.8059,130.878,-0.0299429,0.0,0.0
2821,705,36.4769,39.4818,151.321,99.3791,99.1881,0.002355,0.1884,20.8062,130.688,0.0171933,0.0,0.0
2834,708.25,36.2428,39.9129,153.454,99.5042,99.0907,0.00236981,0.188355,20.8044,130.468,0.0372043,0.0,0.0
2847,711.5,36.6558,39.8025,149.666,99.6369,99.8484,0.00224963,0.187803,20.8033,130.238,-0.0189454,0.0,0.0
2860,714.75,36.5788,40.0549,150.735,99.8184,99.5776,0.00207206,0.189947,20.803,130.058,0.0215829,0.0,0.0
2873,718,36.5005,39.5684,148.167,99.9706,99.9973,0.00222554,0.190872,20.8014,129.817,-0.00238362,0.0,0.0
2886,721.25,36.634,39.5293,153.759,100.08,99.899,0.00228401,0.190796,20.8008,129.597,0.0161971,0.0,0.0
2899,724.5,36.4951,39.1631,150.115,100.156,100.23,0.00234538,0.19004,20.8012,129.377,-0.0066507,0.0,0.0
2912,727.75,36.9434,39.6705,150.146,100.147,100.495,0.00246424,0.188503,20.8028,129.197,-0.0309775,0.0,0.0
2925,731,36.4467,39.455,153.075,100.088,99.7723,0.00239043,0.187221,20.8052,128.997,0.0282588,0.0,0.0
2938,734.25,36.2352,39.5209,148.669,99.9316,99.9415,0.00227296,0.187835,20.8071,128.766,-0.000882532,0.0,0.0
2951,737.5,36.8221,39.7216,155.111,99.723,99.4641,0.00215912,0.187732,20.8062,128.556,0.0232245,0.0,0.0
2964,740.75,36.5102,39.8743,153.694,99.8464,99.5118,0.00214278,0.186508,20.806,128.356,0.0299873,0.0,0.0
2977,744,36.4945,39.6895,149.849,100.024,99.5898,0.00222795,0.185368,20.8078,128.156,0.0388854,0.0,0.0
2990,747.25,36.6273,39.5287,151.407,100.217,100.143,0.0022739,0.185322,20.8095,127.926,0.00657816,0.0,0.0
3003,750.5,36.334,39.7524,153.781,100.379,99.8399,0.00244053,0.185465,20.8086,127.735,0.048155,0.0,0.0
3016,753.75,36.5281,39.9536,150.579,100.535,100.033,0.00264291,0.185515,20.8072,127.535,0.0447005,0.0,0.0
3029,757,36.6486,39.8329,153.481,100.625,100.719,0.00262963,0.184264,20.8078,127.325,-0.0083452,0.0,0.0
3042,760.25,36.9003,39.894,150.174,100.638,100.425,0.00241918,0.18514,20.8093,127.135,0.0189632,0.0,0.0
3055,763.5,36.5069,39.8246,153.011,100.569,100.797,0.00205702,0.185478,20.8089,126.915,-0.0202013,0.0,0.0
3068,766.75,36.1998,39.5589,154.887,100.422,100.253,0.00192457,0.185904,20.8073,126.715,0.0150902,0.0,0.0
3081,770,36.6557,39.4256,153.057,100.187,100.227,0.00213594,0.186373,20.8084,126.494,-0.00356795,0.0,0.0
3094,773.25,36.3592,39.5622,147.724,99.891,99.7458,0.00228386,0.185482,20.8088,126.294,0.0129994,0.0,0.0
3107,776.5,36.7269,39.7522,159.437,99.6109,99.2098,0.00231307,0.184946,20.809,126.074,0.0360522,0.0,0.0
3120,779.75,36.628,39.6207,149.595,99.2931,98.8837,0.00212913,0.186243,20.8094,125.864,0.0369157,0.0,0.0
3133,783,36.7784,39.5687,148.411,99.0373,98.9097,0.00215415,0.187354,20.807,125.654,0.0115219,0.0,0.0
3146,786.25,36.8014,40.1407,151.757,98.9127,98.6086,0.0020615,0.188425,20.8054,125.453,0.0275113,0.0,0.0
3159,789.5,36.8531,40.0263,155.893,98.9082,98.2678,0.0020027,0.188894,20.803,125.243,0.0580425,0.0,0.0
3172,792.75,37.0952,40.2124,153.837,98.9906,98.5192,0.00198205,0.189739,20.8036,125.043,0.0426484,0.0,0.0
3185,796,37.1534,40.2303,150.199,99.1303,98.878,0.00221862,0.191321,20.8034,124.843,0.0227666,0.0,0.0
3198,799.25,36.9603,40.4446,153.806,99.289,99.3171,0.0024171,0.191083,20.8026,124.563,-0.00253066,0.0,0.0
3211,802.5,37.1811,40.2654,149.635,99.4583,99.8857,0.00228299,0.192233,20.803,124.412,-0.0383188,0.0,0.0
3224,805.75,36.9584,40.2737,153.027,99.6101,99.3663,0.00221276,0.194233,20.8011,124.162,0.0218995,0.0,0.0
3237,809,37.2242,40.4849,152.742,99.7295,99.7326,0.00221602,0.19416,20.7991,123.942,-0.000280143,0.0,0.0
3250,812.25,36.974,40.7036,151.643,99.8314,99.6319,0.00198818,0.195995,20.7977,123.722,0.0178694,0.0,0.0
3263,815.5,37.3665,40.5102,152.727,99.8894,99.6225,0.0019008,0.198007,20.7965,123.442,0.0239118,0.0,0.0
3276,818.75,37.2825,40.8272,148.89,99.9592,99.7676,0.00194382,0.199757,20.7951,123.281,0.0171497,0.0,0.0
3289,822,37.2701,40.921,150.458,99.9946,100.042,0.00214344,0.200813,20.7924,123.111,-0.00421265,0.0,0.0
3302,825.25,37.7826,41.1568,150.705,100.012,99.4632,0.00220855,0.201946,20.7914,122.931,0.0491338,0.0,0.0
3315,828.5,37.5831,41.4646,149.173,100.022,100.1,0.00216096,0.202584,20.7896,122.571,-0.00697902,0.0,0.0
3328,831.75,38.305,41.7297,150.48,100.051,99.4811,0.00204749,0.204322,20.7892,122.421,0.0510012,0.0,0.0
3341,835,37.778,41.9329,148.274,100.061,99.8035,0.00202324,0.207183,20.7882,122.241,0.0230003,0.0,0.0
3354,838.25,37.8589,41.8807,151.311,100.039,99.7647,0.00215995,0.209832,20.7841,121.99,0.0245141,0.0,0.0
3367,841.5,38.2206,42.1142,147.194,100.04,99.9481,0.00197627,0.210791,20.7818,121.8,0.00817672,0.0,0.0
3380,844.75,37.8964,42.178,152.584,100.049,100.03,0.00162128,0.212317,20.7801,121.5,0.00170197,0.0,0.0
3393,848,38.1642,42.4001,149.84,100.034,99.8148,0.00190777,0.213617,20.7773,121.35,0.0195924,0.0,0.0
3406,851.25,38.5785,42.2515,150.483,100.019,99.7529,0.00193317,0.213163,20.7762,121.119,0.0237588,0.0,0.0
3419,854.5,38.9743,42.1787,152.8,99.997,99.8838,0.00173435,0.214893,20.7759,120.849,0.0101165,0.0,0.0
3432,857.75,38.202,42.4286,146.203,99.9694,99.9491,0.00177388,0.21735,20.7736,120.659,0.00181592,0.0,0.0
3445,861,38.2468,42.4761,150.315,99.9288,99.8422,0.00172519,0.218024,20.7709,120.379,0.00774146,0.0,0.0
3458,864.25,38.5982,42.5233,148.06,99.8959,99.6409,0.00165795,0.216841,20.7701,120.189,0.0228388,0.0,0.0
3471,867.5,38.6985,42.7415,152.172,99.8862,99.6111,0.00156214,0.216913,20.7708,119.948,0.0246384,0.0,0.0
3484,870.75,38.8715,42.6733,149.44,99.8383,99.8938,0.0016264,0.217743,20.7718,119.758,-0.00496664,0.0,0.0
3497,874,39.1107,42.8639,147.462,99.7822,99.2415,0.00174141,0.220433,20.7714,119.518,0.0485544,0.0,0.0
3510,877.25,38.9642,43.6129,150.332,99.7088,99.1295,0.00180119,0.221702,20.7704,119.258,0.0520634,0.0,0.0
3523,880.5,38.6876,43.1825,155.973,99.6519,99.0605,0.00184421,0.224655,20.769,119.028,0.0531922,0.0,0.0
3536,883.75,39.1875,43.1495,151.298,99.561,99.5265,0.00175418,0.225084,20.7649,118.817,0.0030959,0.0,0.0
3549,887,38.8379,43.3352,151.308,99.5062,99.3951,0.00180262,0.226271,20.7651,118.537,0.00998034,0.0,0.0
3562,890.25,39.2416,43.4747,151.38,99.4181,99.3157,0.00197522,0.227262,20.764,118.287,0.00920786,0.0,0.0
3575,893.5,39.211,43.6204,151.157,99.317,98.5708,0.00200642,0.22953,20.7624,118.067,0.0673906,0.0,0.0
3588,896.75,39.5777,43.6336,148.838,99.246,98.6039,0.00202675,0.232812,20.7605,117.806,0.057997,0.0,0.0
3601,900,39.905,44.2582,147.857,99.1429,98.8676,0.00195762,0.237652,20.757,117.546,0.0248413,0.0,0.0
3614,903.25,39.7378,44.6266,149.054,99.0572,98.4829,0.0020334,0.241025,20.7508,117.326,0.0519575,0.0,0.0
3627,906.5,39.9543,44.6587,146.304,98.9813,98.2309,0.00194555,0.242416,20.7482,117.066,0.0679942,0.0,0.0
3640,909.75,40.4585,44.5723,149.253,98.922,98.8227,0.00188374,0.243369,20.7476,116.816,0.00897376,0.0,0.0
3653,913,40.4614,44.9835,145.401,98.896,98.532,0.00198732,0.246285,20.7459,116.505,0.0329497,0.0,0.0
3666,916.25,40.5038,44.9272,150.703,98.8741,98.204,0.00196276,0.247476,20.7417,116.265,0.0607651,0.0,0.0
3679,919.5,40.7673,44.9145,143.924,98.9143,97.8358,0.0018199,0.249514,20.7386,116.015,0.097961,0.0,0.0
3692,922.75,40.8827,45.6936,148.668,98.9435,98.3307,0.00208755,0.252405,20.7357,115.725,0.0555182,0.0,0.0
3705,926,41.1602,45.8865,147.832,99.0251,99.0089,0.00198758,0.253722,20.7348,115.414,0.00146129,0.0,0.0
3718,929.25,41.2311,46.4574,147.763,99.1538,98.9045,0.00183813,0.258592,20.7326,115.194,0.0224977,0.0,0.0
3731,932.5,41.5872,46.5872,149.235,99.2878,98.9929,0.00178803,0.261662,20.7258,114.914,0.0265799,0.0,0.0
3744,935.75,41.6532,46.4693,151.897,99.4315,98.8449,0.00198217,0.265721,20.7225,114.584,0.0528672,0.0,0.0
3757,939,41.926,46.377,146.52,99.5931,98.9673,0.00231252,0.267846,20.7179,114.313,0.0563153,0.0,0.0
3770,942.25,41.8607,46.7091,151.874,99.7611,99.3407,0.00229965,0.269003,20.7152,114.053,0.0377325,0.0,0.0
3783,945.5,42.0557,47.1294,151.897,99.9272,98.9763,0.00225311,0.271689,20.7137,113.703,0.0854298,0.0,0.0
3796,948.75,42.2976,47.8059,150.876,100.056,99.2542,0.0020414,0.274645,20.7116,113.473,0.0719099,0.0,0.0
3809,952,42.0495,47.4846,149.9,100.208,99.163,0.00180699,0.275435,20.7097,113.182,0.0936383,0.0,0.0
3822,955.25,42.887,47.8324,145.603,100.322,99.1347,0.00188535,0.277745,20.7083,112.882,0.10636,0.0,0.0
3835,958.5,42.9831,48.1501,150.789,100.416,99.8772,0.00205554,0.28008,20.7054,112.592,0.04803,0.0,0.0
3848,961.75,43.49,48.7008,147.528,100.487,100.101,0.00213115,0.282061,20.7015,112.292,0.0344417,0.0,0.0
3861,965,43.2318,48.7469,145.86,100.537,99.4906,0.00209517,0.282659,20.6969,111.991,0.0934444,0.0,0.0
3874,968.25,43.8846,48.5145,148.699,100.58,99.3705,0.0019338,0.283852,20.6944,111.731,0.108094,0.0,0.0
3887,971.5,43.9424,49.2225,149.395,100.607,99.6513,0.00204927,0.285992,20.6937,111.421,0.0852989,0.0,0.0
3900,974.75,43.8835,48.858,146.282,100.634,99.57,0.00205595,0.289636,20.6906,111.1,0.0950064,0.0,0.0
3913,978,43.4376,48.8686,147.855,100.638,98.9456,0.00211244,0.294372,20.6861,110.81,0.151504,0.0,0.0
3926,981.25,44.3737,49.214,147.551,100.64,99.6763,0.00219003,0.297102,20.6805,110.5,0.0859731,0.0,0.0
3939,984.5,44.2106,49.2743,145.823,100.643,99.4168,0.00219466,0.297045,20.6778,110.19,0.109553,0.0,0.0
3952,987.75,44.5926,49.6949,144.362,100.638,99.1715,0.00189058,0.300812,20.6774,109.859,0.131124,0.0,0.0
3965,991,44.5304,50.4518,146.755,100.632,99.1569,0.0020143,0.305189,20.6735,109.539,0.131904,0.0,0.0
3978,994.25,44.7442,50.4869,140.391,100.632,98.8747,0.00224008,0.307189,20.669,109.199,0.157368,0.0,0.0
3991,997.5,44.731,50.9113,153.775,100.606,98.8927,0.00226119,0.309279,20.6656,108.878,0.153474,0.0,0.0
4004,1000.75,45.1123,50.7644,152.661,100.594,98.809,0.00227357,0.312508,20.6625,108.568,0.15999,0.0,0.0
4017,1004,44.9092,51.1494,150.38,100.56,98.6804,0.00236507,0.315143,20.6583,108.238,0.16863,0.0,0.0
4030,1007.25,45.5609,51.2595,145.415,100.543,98.2635,0.00243989,0.318396,20.6557,107.868,0.204943,0.0,0.0
4043,1010.5,45.4575,50.9373,149.835,100.529,98.5344,0.00272248,0.320268,20.6531,107.537,0.179087,0.0,0.0
4056,1013.75,46.0659,51.5848,147.097,100.498,97.4123,0.00269746,0.323783,20.65,107.207,0.278647,0.0,0.0
4069,1017,46.4309,51.8191,147.236,100.458,98.1411,0.00271834,0.328382,20.6442,106.847,0.208503,0.0,0.0
4082,1020.25,46.7057,52.1432,152.179,100.434,97.1896,0.00291566,0.330124,20.6411,106.516,0.293422,0.0,0.0
4095,1023.5,46.5491,52.3351,143.711,100.398,97.9336,0.00293784,0.331679,20.6385,106.146,0.222069,0.0,0.0
4108,1026.75,46.4101,52.7643,141.402,100.351,97.8296,0.00301522,0.334101,20.6375,105.766,0.227406,0.0,0.0
4121,1030,46.7429,52.7993,143.885,100.329,97.6443,0.00314206,0.336822,20.6359,105.425,0.242321,0.0,0.0
4134,1033.25,47.031,53.0487,143.298,100.293,97.1882,0.00312007,0.339731,20.6324,105.075,0.280939,0.0,0.0
4147,1036.5,47.3137,53.366,137.93,100.266,97.1972,0.00314272,0.343256,20.6278,104.695,0.277762,0.0,0.0
4160,1039.75,47.279,54.0551,142.686,100.237,96.8158,0.00314839,0.346487,20.6231,104.334,0.310328,0.0,0.0
4173,1043,48.3186,54.415,144.474,100.222,96.9368,0.0031367,0.351271,20.6194,103.954,0.297792,0.0,0.0
4186,1046.25,48.1135,54.7018,143.436,100.206,97.7285,0.00326792,0.356341,20.6118,103.604,0.223699,0.0,0.0
4199,1049.5,48.2494,55.0291,148.218,100.191,97.6174,0.00318658,0.359176,20.6068,103.203,0.232485,0.0,0.0
4212,1052.75,48.5596,54.9374,146.763,100.179,96.5548,0.00328598,0.361219,20.6031,102.843,0.329229,0.0,0.0
4225,1056,48.8071,55.1069,144.714,100.166,96.0841,0.00352207,0.36323,20.601,102.463,0.371778,0.0,0.0
4238,1059.25,48.9347,55.3831,140.246,100.133,96.008,0.00364054,0.363992,20.5995,102.082,0.375924,0.0,0.0
4251,1062.5,49.2638,55.7905,149.686,100.133,96.0897,0.00381576,0.365692,20.597,101.702,0.36828,0.0,0.0
4264,1065.75,49.3281,56.0888,146.529,100.129,97.0847,0.00367562,0.369233,20.5949,101.282,0.275874,0.0,0.0
4277,1069,50.1717,56.2933,145.011,100.149,96.612,0.00369917,0.371354,20.5906,100.891,0.321292,0.0,0.0
4290,1072.25,49.8563,56.7785,141.437,100.151,96.1195,0.00379854,0.375984,20.5879,100.511,0.367106,0.0,0.0
4303,1075.5,50.3425,56.8752,145.387,100.189,96.9297,0.00371507,0.377779,20.5833,100.1,0.295514,0.0,0.0
4316,1078.75,50.1796,57.1033,145.585,100.215,95.5793,0.00381353,0.380798,20.5814,99.6701,0.423153,0.0,0.0
4329,1082,50.6545,56.8951,139.066,100.257,96.3029,0.00384388,0.384048,20.5769,99.3098,0.359557,0.0,0.0
4342,1085.25,50.3285,57.0268,143.466,100.307,95.8336,0.00401909,0.387694,20.572,98.9294,0.407661,0.0,0.0
4355,1088.5,50.6176,57.3602,145.598,100.354,96.4499,0.00422917,0.383915,20.5685,98.509,0.354535,0.0,0.0
4368,1091.75,50.9931,57.5216,142.054,100.397,95.394,0.00456367,0.383406,20.5697,98.1087,0.456765,0.0,0.0
4381,1095,51.341,58.1115,141.988,100.457,97.0261,0.00448213,0.388291,20.5704,97.6983,0.310493,0.0,0.0
4394,1098.25,51.2775,58.4394,139.059,100.505,96.232,0.00429034,0.38756,20.5669,97.308,0.388181,0.0,0.0
4407,1101.5,51.2395,58.2569,143.665,100.542,96.9637,0.00446228,0.389958,20.5665,96.9176,0.323784,0.0,0.0
4420,1104.75,51.6552,58.6853,144.281,100.56,96.0907,0.00455801,0.39009,20.5633,96.5273,0.406256,0.0,0.0
4433,1108,52.423,58.937,146.056,100.607,96.1309,0.00419358,0.387407,20.5622,96.1569,0.406633,0.0,0.0
4446,1111.25,52.3049,59.4151,141.184,100.652,96.1526,0.0043155,0.39123,20.564,95.6365,0.408649,0.0,0.0
4459,1114.5,52.1265,59.1678,145.344,100.642,96.6872,0.00467946,0.392717,20.5611,95.2961,0.358207,0.0,0.0
4472,1117.75,52.3377,59.4239,142.532,100.653,95.004,0.00469154,0.392652,20.5583,94.8958,0.516062,0.0,0.0
4485,1121,52.6285,59.2721,144.223,100.628,97.5016,0.00449332,0.392143,20.5586,94.5154,0.282035,0.0,0.0
4498,1124.25,52.5075,59.9186,144.463,100.588,95.7693,0.00444072,0.393656,20.5587,94.1051,0.43861,0.0,0.0
4511,1127.5,52.5819,59.7878,142.489,100.533,97.1462,0.00440934,0.394273,20.5594,93.7147,0.306229,0.0,0.0
4524,1130.75,53.147,59.9216,147.681,100.458,96.6016,0.00436239,0.395427,20.558,93.3444,0.349776,0.0,0.0
4537,1134,52.9821,60.114,142.473,100.376,96.8621,0.0046346,0.395257,20.5565,92.914,0.318422,0.0,0.0
4550,1137.25,53.4538,60.2538,145.64,100.244,96.4617,0.00445346,0.393913,20.5573,92.5036,0.34364,0.0,0.0
4563,1140.5,53.5155,60.3255,148.325,100.122,94.6443,0.00424119,0.397155,20.5562,92.1233,0.502694,0.0,0.0
4576,1143.75,53.2787,60.3532,144.163,99.9832,94.685,0.00427054,0.396651,20.5546,91.6829,0.486494,0.0,0.0
4589,1147,53.6408,59.8016,144.43,99.8228,95.1009,0.00450393,0.394158,20.5551,91.3426,0.432986,0.0,0.0
4602,1150.25,53.6398,60.231,140.063,99.669,94.3168,0.00452898,0.395187,20.5564,90.9122,0.493183,0.0,0.0
4615,1153.5,53.4094,60.3832,147.864,99.4989,95.1491,0.00453925,0.394164,20.5568,90.5418,0.399413,0.0,0.0
4628,1156.75,53.4959,60.2128,151.904,99.3511,95.7173,0.00456173,0.392476,20.5579,90.1615,0.332938,0.0,0.0
4641,1160,54.2222,60.1773,149.881,99.1887,94.096,0.00462352,0.389981,20.559,89.7812,0.470962,0.0,0.0
4654,1163.25,53.7986,59.4621,143.721,99.0665,94.0951,0.00463107,0.388422,20.5614,89.3908,0.460038,0.0,0.0
4667,1166.5,53.7931,60.0817,141.428,98.9711,92.2531,0.00452833,0.385505,20.564,89.0505,0.628078,0.0,0.0
4680,1169.75,53.6361,60.0178,140.404,98.9167,94.1433,0.00451102,0.382277,20.5672,88.6601,0.441939,0.0,0.0
4693,1173,53.3681,59.2988,144.695,98.8924,94.4827,0.0046244,0.380648,20.5695,88.2798,0.407587,0.0,0.0
4706,1176.25,53.9946,59.6516,145.765,98.9224,93.5728,0.00446427,0.380572,20.572,87.9595,0.496765,0.0,0.0
4719,1179.5,54.0616,59.8994,144.176,98.9772,94.3026,0.00445318,0.375373,20.5721,87.5692,0.432296,0.0,0.0
4732,1182.75,53.4675,59.5963,143.45,99.0876,93.8819,0.00433513,0.373783,20.5759,87.2088,0.482207,0.0,0.0
4745,1186,53.3775,59.3478,143.528,99.2249,94.6453,0.00434762,0.378299,20.577,86.8285,0.422213,0.0,0.0
4758,1189.25,53.8002,59.1775,145.881,99.3856,93.5624,0.00461184,0.376832,20.572,86.4482,0.539499,0.0,0.0
4771,1192.5,53.4191,59.408,143.761,99.5622,93.3228,0.00453061,0.371495,20.5726,86.0978,0.578277,0.0,0.0
4784,1195.75,53.6628,59.3767,142.506,99.7149,93.6243,0.00449163,0.371511,20.5774,85.7175,0.563139,0.0,0.0
4797,1199,53.7178,59.1413,143.662,99.8508,93.4972,0.004499,0.374168,20.5795,85.3672,0.58746,0.0,0.0
4810,1202.25,53.6614,59.4699,148.983,99.9657,94.2643,0.00425223,0.376317,20.5772,85.0068,0.52472,0.0,0.0
4823,1205.5,53.5614,59.494,145.291,100.047,95.4379,0.00401979,0.375301,20.5739,84.6565,0.421378,0.0,0.0
4836,1208.75,53.308,59.0794,144.783,100.111,94.8287,0.00392013,0.371365,20.5749,84.3062,0.484329,0.0,0.0
4849,1212,53.076,58.8744,146.515,100.133,94.8674,0.00382307,0.368061,20.5775,83.9759,0.48267,0.0,0.0
4862,1215.25,53.1245,59.1398,144.224,100.097,95.2796,0.00388703,0.364353,20.5808,83.6556,0.440746,0.0,0.0
4875,1218.5,53.2863,58.5474,146.462,100.037,94.5744,0.00385549,0.362225,20.5845,83.3053,0.501725,0.0,0.0
4888,1221.75,52.5776,58.3498,144.308,99.954,94.7266,0.00377495,0.362144,20.5852,83.005,0.479957,0.0,0.0
4901,1225,53.0308,58.0758,144.493,99.8277,94.7034,0.00363974,0.359836,20.5854,82.7048,0.470849,0.0,0.0
4914,1228.25,53.0494,57.7831,141.961,99.6812,94.5819,0.00361461,0.357875,20.5882,82.3945,0.46919,0.0,0.0
4927,1231.5,52.5727,57.3936,144.94,99.5549,95.4417,0.00360846,0.35505,20.5912,82.0942,0.377009,0.0,0.0
4940,1234.75,52.5678,57.3016,144.918,99.4522,94.4037,0.00350754,0.347357,20.5943,81.7639,0.465493,0.0,0.0
4953,1238,52.4763,56.8679,147.515,99.3844,93.4149,0.00354696,0.338988,20.6019,81.4236,0.553485,0.0,0.0
4966,1241.25,51.7286,56.2744,152.411,99.5415,93.9188,0.00358521,0.331098,20.6098,81.1834,0.519532,0.0,0.0
4979,1244.5,51.3444,55.8842,148.767,99.6714,94.4236,0.00381598,0.323843,20.619,80.9131,0.483288,0.0,0.0
4992,1247.75,51.0322,54.9432,152.604,99.8139,95.2385,0.00407146,0.315425,20.6281,80.6429,0.419273,0.0,0.0
5005,1251,50.6396,54.1684,143.129,99.9726,94.3924,0.00418162,0.307024,20.6372,80.3927,0.513203,0.0,0.0
5018,1254.25,50.7196,53.5678,149.179,100.089,95.964,0.0043562,0.297466,20.6462,80.2125,0.376066,0.0,0.0
5031,1257.5,49.6097,52.993,147.44,100.138,95.6057,0.00438844,0.285112,20.6576,79.9723,0.413836,0.0,0.0
5044,1260.75,49.0523,52.033,145.615,100.126,95.9612,0.00425763,0.277184,20.6702,79.7621,0.379627,0.0,0.0
5057,1264,48.5847,51.2464,146.932,100.094,97.9672,0.00389907,0.269705,20.6796,79.5819,0.191906,0.0,0.0
5070,1267.25,48.6371,50.7916,154.41,100.053,97.6689,0.00405768,0.259847,20.6876,79.3818,0.215525,0.0,0.0
5083,1270.5,47.6653,50.1256,150.278,100.01,97.5593,0.00490663,0.25142,20.6973,79.2817,0.221646,0.0,0.0
5096,1273.75,47.1297,49.0464,144.237,99.9682,98.1402,0.00521448,0.240581,20.7074,79.1315,0.1649,0.0,0.0
5109,1277,46.6345,48.4539,149.452,99.9345,98.1808,0.00490295,0.228871,20.7228,78.9213,0.158187,0.0,0.0
5122,1280.25,46.0466,47.6527,145.492,99.8988,98.2971,0.00469509,0.219771,20.7379,78.9013,0.144418,0.0,0.0
5135,1283.5,45.8777,47.1319,147.47,99.8772,97.9483,0.00458559,0.205597,20.7494,78.7912,0.174258,0.0,0.0
5148,1286.75,45.4263,45.803,153.089,99.8569,97.5295,0.00453703,0.195976,20.7669,78.6811,0.210726,0.0,0.0
5161,1290,44.4641,45.3727,156.525,99.8521,99.2722,0.00463069,0.187348,20.7764,78.521,0.0520401,0.0,0.0
5174,1293.25,43.3693,45.0656,156.649,99.8285,99.1342,0.00498816,0.179598,20.7866,78.4709,0.0623635,0.0,0.0
5187,1296.5,43.752,43.831,150.261,99.8326,98.541,0.00527471,0.172431,20.7966,78.3108,0.116354,0.0,0.0
5200,1299.75,43.2188,43.5335,150.913,99.8354,99.3228,0.00520183,0.166706,20.8046,78.3108,0.0459988,0.0,0.0
5213,1303,42.2604,42.4963,152.021,99.8687,99.3559,0.00528385,0.161375,20.8116,78.1907,0.0460009,0.0,0.0
5226,1306.25,42.0724,42.0679,149.199,99.8979,100.171,0.0054134,0.155505,20.8195,78.1406,-0.0244101,0.0,0.0
5239,1309.5,41.2691,41.3214,152.9,99.9665,99.5681,0.00555613,0.150094,20.8263,78.0606,0.0356851,0.0,0.0
5252,1312.75,40.5079,40.5378,149.829,100.006,100.116,0.00561303,0.145919,20.8326,78.0305,-0.00985874,0.0,0.0
5265,1316,40.011,39.9436,151.749,100.021,99.6329,0.00561198,0.139885,20.8393,77.9605,0.0347738,0.0,0.0
5278,1319.25,39.747,39.7889,153.256,100.052,99.7562,0.00573395,0.133086,20.8476,77.9305,0.0264716,0.0,0.0
5291,1322.5,39.8943,39.3943,153.391,100.077,99.7983,0.00583924,0.130074,20.8559,77.8304,0.0248806,0.0,0.0
5304,1325.75,38.8244,38.5173,153.864,100.094,99.8503,0.0062955,0.125764,20.8604,77.7803,0.0217848,0.0,0.0
5317,1329,38.3457,38.1463,153.315,100.111,99.8635,0.00681887,0.123419,20.8665,77.7503,0.0220855,0.0,0.0
5330,1332.25,38.1132,37.2478,153.733,100.126,99.7789,0.00698769,0.120318,20.8689,77.6702,0.0310361,0.0,0.0
5343,1335.5,37.4851,36.6492,152.479,100.118,99.7609,0.0069228,0.117934,20.8725,77.5901,0.0318841,0.0,0.0
5356,1338.75,37.3721,36.8063,156.125,100.103,99.6598,0.00704768,0.115881,20.8758,77.5301,0.0396436,0.0,0.0
5369,1342,37.3671,36.5551,152.427,100.077,99.3516,0.00711371,0.113852,20.8784,77.4901,0.0649979,0.0,0.0
5382,1345.25,34.5835,34.1388,156.876,100.028,99.5865,0.00749996,0.111843,20.8808,77.43,0.0395089,0.0,0.0
5395,1348.5,34.7217,34.3447,156.109,99.9393,99.3596,0.00776098,0.111032,20.8843,77.42,0.0519798,0.0,0.0
5408,1351.75,34.2921,34.0727,156.48,99.8849,99.4958,0.00796753,0.111393,20.8852,77.3199,0.0348809,0.0,0.0
5421,1355,33.5279,33.2618,155.715,99.796,99.0671,0.00791171,0.112146,20.8855,77.2899,0.0655087,0.0,0.0
5434,1358.25,33.216,33.1754,156.415,99.6718,99.2084,0.00777828,0.112841,20.8852,77.2498,0.0416402,0.0,0.0
5447,1361.5,32.9451,32.6803,155.599,99.5825,98.9234,0.00786274,0.112686,20.8826,77.1898,0.0593378,0.0,0.0
5460,1364.75,33.1506,32.409,155.255,99.5115,98.809,0.00858189,0.1094,20.882,77.1597,0.0632985,0.0,0.0
5473,1368,32.2755,31.2681,153.685,99.3734,98.8322,0.00943684,0.105864,20.8861,77.1097,0.0488023,0.0,0.0
5486,1371.25,32.3495,31.8482,159.471,99.3856,98.5864,0.00979025,0.104333,20.8912,77.0396,0.0721455,0.0,0.0
5499,1374.5,31.6236,32.0061,156.933,99.4351,98.7821,0.00960655,0.103415,20.893,77.0296,0.0588796,0.0,0.0
5512,1377.75,31.5536,31.7359,157.073,99.4871,99.0978,0.00956456,0.103508,20.8931,76.9596,0.0350337,0.0,0.0
5525,1381,31.3674,31.5782,155.962,99.5634,98.9815,0.00972896,0.103331,20.8928,76.8695,0.0523758,0.0,0.0
5538,1384.25,31.329,30.9356,155.864,99.6657,99.3398,0.00973938,0.102659,20.8917,76.8094,0.0292685,0.0,0.0
5551,1387.5,31.0964,30.8237,158.575,99.7733,99.5147,0.00953174,0.101335,20.8929,76.8094,0.0231915,0.0,0.0
5564,1390.75,31.0724,30.789,156.192,99.8492,99.4513,0.00907799,0.101116,20.895,76.7894,0.0356756,0.0,0.0
5577,1394,30.9689,30.886,159.689,99.945,99.189,0.00885509,0.102205,20.8964,76.7694,0.0678452,0.0,0.0
5590,1397.25,30.9092,30.7283,157.427,100.012,99.2836,0.00895523,0.102504,20.8935,76.7194,0.0653194,0.0,0.0
5603,1400.5,30.6994,31.1712,155.474,100.079,99.9944,0.00894988,0.10204,20.893,76.6993,0.00751583,0.0,0.0
5616,1403.75,30.8191,30.715,153.583,100.078,99.4183,0.00892692,0.101575,20.8934,76.6093,0.0591145,0.0,0.0
5629,1407,30.4813,30.0379,154.03,100.094,99.8961,0.00861449,0.101025,20.8935,76.5892,0.0176472,0.0,0.0
5642,1410.25,30.5656,30.1976,157.278,100.079,99.3464,0.00823557,0.100975,20.8954,76.5092,0.0656821,0.0,0.0
5655,1413.5,30.5549,30.775,156.559,100.04,99.3266,0.00823935,0.101513,20.8952,76.3991,0.0639161,0.0,0.0
5668,1416.75,30.5418,30.0396,159.553,100.008,99.4112,0.00840222,0.101407,20.8946,76.4591,0.0534432,0.0,0.0
5681,1420,30.0102,30.2184,155.56,99.9832,99.2339,0.0084287,0.102693,20.8941,76.4291,0.067212,0.0,0.0
5694,1423.25,29.7399,29.6373,156.489,99.9219,99.4178,0.0081862,0.102964,20.8926,76.379,0.0451912,0.0,0.0
5707,1426.5,30.0851,29.9508,155.786,99.8858,99.4773,0.00824231,0.103491,20.8916,76.279,0.0366092,0.0,0.0
5720,1429.75,29.6614,29.5845,159.23,99.8427,99.0869,0.00821991,0.103317,20.8914,76.2489,0.067897,0.0,0.0
5733,1433,29.5706,29.8453,156.868,99.8058,99.0415,0.00814037,0.103594,20.8919,76.1889,0.0686824,0.0,0.0
5746,1436.25,28.9204,29.4428,159.056,99.7485,99.241,0.0081577,0.101733,20.8933,76.1989,0.0455791,0.0,0.0
5759,1439.5,29.0715,29.4399,157.934,99.7335,99.0581,0.00781561,0.10084,20.8958,76.1388,0.0607185,0.0,0.0
5772,1442.75,28.7766,29.1904,154.303,99.7088,98.7712,0.00767174,0.10052,20.8983,76.1088,0.0844158,0.0,0.0
5785,1446,29.0528,28.8504,160.458,99.682,98.731,0.00763866,0.100051,20.899,76.0287,0.0856503,0.0,0.0
5798,1449.25,29.3467,29.4116,158.122,99.6592,98.9319,0.00756937,0.100355,20.8991,75.9987,0.0654505,0.0,0.0
5811,1452.5,28.8415,28.9215,152.287,99.6604,99,0.00762523,0.102128,20.8985,75.9687,0.059415,0.0,0.0
5824,1455.75,28.9991,29.0459,155.832,99.6556,99.077,0.00753464,0.100989,20.8962,75.9387,0.0520274,0.0,0.0
5837,1459,28.6572,29.1163,153.965,99.6475,99.4102,0.00731136,0.100061,20.8966,75.9186,0.0212981,0.0,0.0
5850,1462.25,27.8993,29.2831,162.645,99.6653,99.2495,0.00737273,0.0997353,20.8977,75.8686,0.0373559,0.0,0.0
5855,1463.5,28.5698,29.3838,158.577,99.6694,99.4079,0.00736792,0.100156,20.8981,75.8586,0.0234752,0.0,0.0