File: 01_Data/Pressure_Treated_Deck/Cone/Pressure_Treated_Deck_Cone_HF75Scan_230620_R3.csv
Names,Time,Stack TC,Smoke TC,Exh Press,Smoke Comp,Smoke Meas,CO Meter,CO2 Meter,O2 Meter,Sample Mass,Ext Coeff,Start Test,Flame Verif
Chan Gain,,500,500,1,1,1,1,1,1,1,1,1.0,1.0
Offset,,0,0,0.245636,0,0,0,0,0,0,0,0.0,0.0
Gain,,1,1,25.011,13.7537,14.9165,1,1,1,1.00094,1.03834,1.0,1.0
Units,sec,C,C,Pa,%,%,%,%,%,g,/m,,
Baseline,,41.2121,44.5186,139.233,99.9048,99.9413,0.000540746,0.0498487,20.9572,-444.792,-0.00331953,,
9,2,37.6027,40.2073,140.502,99.8384,99.8109,0.00050563,0.0574604,20.949,201.23,0.00250566,0.0,0.0
18,4.25,38.8971,40.6458,137.404,99.8678,99.4713,0.000543257,0.0578392,20.948,201.08,0.036228,0.0,0.0
27,6.5,38.5144,41.9006,142.223,99.8606,98.9997,0.000719575,0.0593524,20.9466,200.899,0.0788637,0.0,0.0
36,8.75,39.3279,42.1188,138.618,99.8749,98.1876,0.000968035,0.0618877,20.9454,200.789,0.155189,0.0,0.0
45,11,39.0927,42.5927,135.472,99.9039,96.9144,0.0012274,0.0623925,20.9415,200.729,0.276713,0.0,0.0
54,13.25,39.5039,42.8529,129.193,99.9076,99.9252,0.00131914,0.0607539,20.9393,200.489,-0.00159897,0.0,1.0
63,15.5,40.423,44.6943,128.794,99.9362,99.7991,0.00124149,0.0587301,20.9407,200.139,0.012504,0.0,1.0
72,17.75,41.7245,48.4921,120.336,99.9425,99.3179,0.00119766,0.0577007,20.9431,199.758,0.0570982,0.0,1.0
81,20,42.0132,50.9997,125.108,99.971,99.8633,0.00126532,0.0619285,20.9449,199.468,0.00982326,0.0,1.0
90,22.25,44.4083,55.7646,116.818,99.9949,99.0566,0.00151266,0.108017,20.9461,198.978,0.0858718,0.0,0.0
99,24.5,46.1945,60.2073,119.438,100.011,98.5828,0.00196805,0.204597,20.9198,198.497,0.131003,0.0,0.0
108,26.75,49.4859,64.5369,120.134,100.042,97.4998,0.00240773,0.31682,20.8218,198.067,0.234441,0.0,0.0
117,29,51.812,68.2881,114.878,100.073,96.3431,0.0027199,0.405782,20.7146,197.616,0.345934,0.0,0.0
126,31.25,54.5075,71.7753,122.234,100.094,96.5316,0.00317423,0.498863,20.6041,197.136,0.33012,0.0,0.0
135,33.5,56.1395,74.6666,116.393,100.11,95.836,0.00367697,0.559603,20.48,196.655,0.397363,0.0,0.0
144,35.75,57.6251,77.7574,120.359,100.152,95.256,0.0043395,0.603144,20.4004,196.265,0.456544,0.0,0.0
153,38,60.0234,79.2888,119.471,100.155,93.9942,0.00488234,0.631685,20.3462,195.644,0.578235,0.0,0.0
162,40.25,61.1769,81.149,118.578,100.188,94.5696,0.00523192,0.650931,20.3065,195.214,0.525701,0.0,0.0
171,42.5,62.741,82.098,121.397,100.213,93.9787,0.00552919,0.665269,20.2806,194.754,0.585039,0.0,0.0
180,44.75,64.4796,84.051,120.428,100.244,94.631,0.00579478,0.667451,20.2626,194.423,0.52482,0.0,0.0
189,47,65.7655,85.4412,113.956,100.25,95.6211,0.00613206,0.668404,20.2552,193.863,0.430553,0.0,0.0
198,49.25,66.6006,86.6438,117.305,100.272,93.5098,0.00638839,0.67352,20.2523,193.392,0.635934,0.0,0.0
207,51.5,67.6623,87.8573,115.3,100.317,94.3747,0.00638188,0.677305,20.2493,193.022,0.556193,0.0,0.0
216,53.75,69.1073,88.4211,120.23,100.314,94.6857,0.00634748,0.678166,20.2425,192.471,0.525969,0.0,0.0
225,56,69.3588,88.6929,119.388,100.341,94.3779,0.00637744,0.671701,20.2389,192.021,0.55802,0.0,0.0
234,58.25,70.0249,89.4758,120.21,100.369,95.1636,0.00644709,0.667129,20.2426,191.581,0.485097,0.0,0.0
243,60.5,71.5791,90.583,116.47,100.391,94.291,0.00655853,0.658206,20.2509,191.17,0.570947,0.0,0.0
252,62.75,72.1016,90.5433,119.069,100.401,95.3343,0.00679076,0.65073,20.2616,190.75,0.471668,0.0,0.0
261,65,72.1863,90.7719,117.555,100.427,94.2477,0.00692558,0.643789,20.2719,190.279,0.578438,0.0,0.0
270,67.25,72.7498,91.3164,119.972,100.454,95.1855,0.00692729,0.635439,20.2788,189.939,0.490697,0.0,0.0
279,69.5,73.5977,91.6669,119.047,100.453,94.2919,0.00684921,0.629297,20.2872,189.489,0.576531,0.0,0.0
288,71.75,73.9636,91.8186,119.816,100.463,94.825,0.00675365,0.623172,20.2951,189.088,0.526061,0.0,0.0
297,74,74.3087,91.7969,114.975,100.476,95.0307,0.00670772,0.616568,20.3001,188.638,0.507459,0.0,0.0
306,76.25,74.4651,91.6495,122.364,100.483,94.8723,0.00665117,0.611419,20.3101,188.308,0.52334,0.0,0.0
315,78.5,75.1649,91.8581,121.393,100.492,94.8605,0.0066824,0.603816,20.3183,187.817,0.525276,0.0,0.0
324,80.75,75.449,91.7695,119.604,100.476,96.1674,0.00672042,0.596382,20.3242,187.397,0.399199,0.0,0.0
333,83,75.5549,91.0784,121.178,100.484,96.9481,0.00668109,0.590051,20.3332,187.096,0.326242,0.0,0.0
342,85.25,75.9704,91.5163,124.228,100.463,94.443,0.00657686,0.581851,20.3412,186.656,0.562858,0.0,0.0
351,87.5,76.4538,91.3026,118.237,100.446,94.9014,0.00628042,0.575589,20.351,186.196,0.517196,0.0,0.0
360,89.75,76.3956,91.4441,116.905,100.419,94.8459,0.00601834,0.569107,20.3583,185.815,0.520052,0.0,0.0
369,92,76.4995,91.4761,121.661,100.398,94.5468,0.00589605,0.565555,20.3652,185.485,0.546915,0.0,0.0
378,94.25,76.8058,91.4113,119.785,100.345,95.1741,0.00584794,0.559038,20.3713,185.044,0.481848,0.0,0.0
387,96.5,76.5471,91.3549,117.924,100.306,96.0254,0.00591537,0.550102,20.3785,184.744,0.397275,0.0,0.0
396,98.75,76.2594,90.7086,122.756,100.254,95.2428,0.00602869,0.544147,20.3876,184.334,0.467,0.0,0.0
405,101,76.9955,90.3782,124.391,100.167,95.7117,0.00599927,0.540289,20.3932,184.003,0.41445,0.0,0.0
414,103.25,76.7562,90.5571,119.724,100.08,95.6607,0.0058468,0.536938,20.3975,183.573,0.411361,0.0,0.0
423,105.5,77.1601,89.8766,121.468,100.021,96.3954,0.0058257,0.5274,20.4013,183.223,0.336286,0.0,0.0
432,107.75,77.2587,90.7415,115.892,99.9412,96.4942,0.00589781,0.523119,20.4085,182.872,0.319692,0.0,0.0
441,110,77.0351,89.7955,120.599,99.8313,95.165,0.00595226,0.520247,20.4178,182.452,0.436005,0.0,0.0
450,112.25,77.0445,90.2761,120.047,99.7494,95.3721,0.00591439,0.517236,20.4219,182.032,0.408731,0.0,0.0
459,114.5,77.1527,90.5502,118.157,99.6709,94.7271,0.00583573,0.514931,20.426,181.711,0.463374,0.0,0.0
468,116.75,77.2669,90.5309,122.698,99.6126,95.6903,0.00590003,0.512729,20.4294,181.381,0.365891,0.0,0.0
477,119,77.2859,89.9246,122.493,99.4808,95.6466,0.00587615,0.50854,20.4321,180.941,0.357992,0.0,0.0
486,121.25,77.0052,90.2808,120.106,99.4015,94.179,0.00582507,0.505108,20.4349,180.6,0.491569,0.0,0.0
495,123.5,77.6793,90.0189,122.945,99.3284,94.5455,0.00586943,0.504261,20.44,180.22,0.449502,0.0,0.0
504,125.75,77.5594,90.326,118.634,99.2432,95.5187,0.0059079,0.502268,20.4427,179.95,0.348405,0.0,0.0
513,128,77.5636,90.2364,117.378,99.1664,94.4216,0.00572706,0.499973,20.4447,179.499,0.44657,0.0,0.0
522,130.25,77.9061,90.469,123.069,99.077,94.8527,0.00558665,0.497642,20.4471,179.039,0.396865,0.0,0.0
531,132.5,77.3007,89.7089,122.235,99.0178,95.1259,0.0055895,0.496835,20.4497,178.779,0.365232,0.0,0.0
540,134.75,77.8389,89.866,118.011,98.9435,94.9297,0.00554182,0.49498,20.4518,178.398,0.377202,0.0,0.0
549,137,77.4557,90.1166,122.87,98.8902,94.7508,0.00545439,0.491146,20.4537,178.098,0.389475,0.0,0.0
558,139.25,77.5486,89.7897,123.583,98.8646,95.3799,0.00544976,0.484804,20.4571,177.708,0.326841,0.0,0.0
567,141.5,77.8149,90.3645,122.542,98.8197,95.0885,0.00534072,0.482923,20.4617,177.477,0.350566,0.0,0.0
576,143.75,77.9363,89.937,121.423,98.7954,95.251,0.00522629,0.485999,20.4645,177.047,0.332768,0.0,0.0
585,146,78.005,89.9822,119.066,98.7584,95.8565,0.00523646,0.487851,20.4644,176.677,0.271651,0.0,0.0
594,148.25,77.7915,89.9242,120.039,98.7685,95.882,0.0051946,0.486647,20.4633,176.396,0.270159,0.0,0.0
603,150.5,77.991,89.7233,117.912,98.7488,95.4126,0.00497328,0.481612,20.4634,175.886,0.313033,0.0,0.0
612,152.75,77.6357,89.2326,119.03,98.7265,96.1952,0.00479039,0.475804,20.4689,175.596,0.236585,0.0,0.0
621,155,77.9163,89.1773,115.015,98.7324,95.9188,0.00471283,0.470321,20.4721,175.305,0.263327,0.0,0.0
630,157.25,77.9691,89.5736,119.705,98.729,95.018,0.0046382,0.467146,20.4797,175.035,0.348967,0.0,0.0
639,159.5,77.8717,89.5627,124.341,98.7076,95.0248,0.00460111,0.464503,20.4849,174.615,0.346337,0.0,0.0
648,161.75,77.7636,89.0231,119.508,98.7127,95.9716,0.00456498,0.460833,20.4881,174.314,0.256495,0.0,0.0
657,164,77.9119,89.1979,121.758,98.7181,95.3908,0.00438961,0.458465,20.4922,174.054,0.312293,0.0,0.0
666,166.25,77.944,89.6674,121.057,98.7169,95.312,0.00429271,0.456399,20.4946,173.724,0.319699,0.0,0.0
675,168.5,77.8144,88.6455,117.315,98.7102,95.8547,0.00443872,0.453657,20.4952,173.343,0.267371,0.0,0.0
684,170.75,77.7776,88.9182,121.582,98.7114,96.2334,0.00491167,0.450387,20.4993,173.013,0.23157,0.0,0.0
693,173,78.0538,88.5695,119.279,98.7303,95.7477,0.00506836,0.448382,20.5037,172.733,0.279402,0.0,0.0
702,175.25,77.3173,88.5794,125.934,98.7089,95.2533,0.00496854,0.446085,20.5076,172.322,0.324576,0.0,0.0
711,177.5,77.5436,88.395,119.311,98.6997,95.2556,0.00464547,0.442288,20.5109,172.012,0.323507,0.0,0.0
720,179.75,77.9054,88.3124,120.154,98.7064,95.4204,0.00421732,0.439549,20.5148,171.692,0.308383,0.0,0.0
729,182,77.2639,88.3147,123.047,98.6992,95.9425,0.00389191,0.437876,20.5186,171.372,0.258021,0.0,0.0
738,184.25,77.3966,88.5517,126.566,98.7013,95.648,0.00377733,0.437301,20.5213,171.011,0.286218,0.0,0.0
747,186.5,77.5781,88.7098,121.494,98.7144,96.354,0.00382826,0.437008,20.5213,170.681,0.220432,0.0,0.0
756,188.75,77.4552,88.5163,126.357,98.7475,96.3554,0.00385094,0.435564,20.5207,170.411,0.223362,0.0,0.0
765,191,78.6216,88.3482,120.415,98.7379,96.2871,0.00390526,0.43432,20.5217,170.06,0.228927,0.0,0.0
774,193.25,77.4186,88.3082,121.271,98.7475,95.5446,0.00403885,0.433872,20.5218,169.74,0.300323,0.0,0.0
783,195.5,77.8656,88.4531,121.223,98.7794,96.0804,0.00404315,0.434696,20.5231,169.41,0.252331,0.0,0.0
792,197.75,78.9762,88.3934,121.665,98.7849,96.7546,0.00393768,0.434925,20.5237,169.089,0.189147,0.0,0.0
801,200,77.7394,87.9805,114.956,98.797,95.9079,0.00385277,0.43533,20.5228,168.789,0.270325,0.0,0.0
810,202.25,78.2419,88.5302,121.778,98.8264,96.1751,0.00394929,0.434677,20.5222,168.399,0.247692,0.0,0.0
819,204.5,77.8972,88.4905,120.577,98.8642,96.11,0.00409033,0.432751,20.5219,168.098,0.257341,0.0,0.0
828,206.75,78.0043,88.2485,121.48,98.8822,96.3545,0.00416127,0.43203,20.524,167.758,0.235866,0.0,0.0
837,209,77.7061,88.1364,123.07,98.9142,96.842,0.00417508,0.432533,20.5254,167.418,0.192835,0.0,0.0
846,211.25,77.4754,88.5321,117.823,98.9553,97.1365,0.0041776,0.432396,20.5265,167.108,0.168963,0.0,0.0
855,213.5,77.8972,88.0606,118.36,98.9796,97.3487,0.00419799,0.429958,20.527,166.837,0.151334,0.0,0.0
864,215.75,77.7298,88.4169,119.095,99.0308,96.8652,0.00422122,0.426812,20.527,166.457,0.20139,0.0,0.0
873,218,77.7941,88.0147,125.19,99.0816,96.9531,0.0041574,0.426108,20.5287,166.117,0.197802,0.0,0.0
882,220.25,77.7531,88.1292,121.516,99.1505,96.7004,0.0041052,0.424843,20.5316,165.836,0.227893,0.0,0.0
891,222.5,77.7208,88.4945,118.976,99.1945,96.8607,0.00403138,0.423828,20.5337,165.496,0.216861,0.0,0.0
900,224.75,77.8686,87.7869,122.173,99.2487,97.2972,0.0038964,0.42158,20.5353,165.156,0.180873,0.0,0.0
909,227,77.7737,88.2422,122.917,99.3108,97.2394,0.00381073,0.4209,20.5375,164.835,0.191984,0.0,0.0
918,229.25,77.0862,87.9873,125.689,99.3603,97.6969,0.00388058,0.420357,20.5396,164.525,0.153775,0.0,0.0
927,231.5,77.9123,88.1021,122.922,99.4124,97.737,0.00396444,0.420626,20.5401,164.155,0.15481,0.0,0.0
936,233.75,78.1127,88.7017,119.217,99.4808,97.8294,0.00396057,0.421094,20.5384,163.824,0.152469,0.0,0.0
945,236,78.4181,87.3845,125.036,99.5496,98.5327,0.00395096,0.421511,20.5366,163.514,0.0935226,0.0,0.0
954,238.25,78.1036,87.8387,124.57,99.6201,97.9323,0.00392497,0.42262,20.5359,163.184,0.155645,0.0,0.0
963,240.5,77.7573,88.619,125.351,99.6713,98.2436,0.00378868,0.425533,20.5372,162.844,0.131413,0.0,0.0
972,242.75,78.0883,87.8394,122.2,99.7456,97.8767,0.00373048,0.427137,20.5349,162.533,0.172279,0.0,0.0
981,245,78.0507,88.352,118.945,99.8099,98.6433,0.00371835,0.425445,20.5333,162.203,0.107082,0.0,0.0
990,247.25,78.3874,88.4189,120.654,99.8678,98.0684,0.00367452,0.422263,20.5339,161.883,0.165609,0.0,0.0
999,249.5,78.8107,88.1924,124.047,99.932,99.0976,0.00362622,0.422695,20.5371,161.602,0.0763693,0.0,0.0
1008,251.75,77.7652,87.9988,122.414,100.009,98.2281,0.00351981,0.423355,20.538,161.312,0.163634,0.0,0.0
1017,254,78.2764,88.5045,122.177,100.06,99.7217,0.00350671,0.422022,20.5373,160.932,0.0308861,0.0,0.0
1026,256.25,77.8514,88.8892,122.232,100.112,98.5718,0.00365329,0.421558,20.5383,160.601,0.141182,0.0,0.0
1035,258.5,78.235,87.5256,121.123,100.17,98.2809,0.00365902,0.420767,20.5389,160.271,0.173407,0.0,0.0
1044,260.75,77.9393,88.8216,119.488,100.239,99.1454,0.00355078,0.420445,20.5403,160.021,0.0999373,0.0,0.0
1053,263,78.1615,88.3764,119.055,100.274,98.6761,0.00356648,0.418932,20.5397,159.651,0.146321,0.0,0.0
1062,265.25,78.3493,88.3955,118.21,100.309,99.9056,0.00351456,0.417498,20.5405,159.35,0.0366941,0.0,0.0
1071,267.5,77.4405,88.3005,121.22,100.352,98.9815,0.00338778,0.416873,20.5411,158.97,0.12522,0.0,0.0
1080,269.75,78.1796,87.9015,121.393,100.37,99.1008,0.00337129,0.414999,20.5425,158.66,0.115928,0.0,0.0
1089,272,78.2724,88.6781,125.184,100.396,99.647,0.00349213,0.414545,20.5433,158.369,0.0681825,0.0,0.0
1098,274.25,78.0116,87.352,120.529,100.405,99.8701,0.00366225,0.412774,20.5446,158.079,0.0486176,0.0,0.0
1107,276.5,78.1385,87.8238,120.713,100.428,100.178,0.00366132,0.413005,20.5467,157.729,0.0227287,0.0,0.0
1116,278.75,77.6301,87.6833,121.283,100.439,99.6402,0.00359129,0.411985,20.5478,157.368,0.072767,0.0,0.0
1125,281,77.9864,87.2211,117.163,100.442,99.4454,0.00354601,0.409931,20.5482,157.058,0.0908602,0.0,0.0
1134,283.25,78.3309,87.403,120.662,100.447,99.6862,0.00345269,0.409308,20.549,156.708,0.0692505,0.0,0.0
1143,285.5,77.8322,87.532,126.379,100.456,98.6629,0.00336552,0.408888,20.5503,156.427,0.164071,0.0,0.0
1152,287.75,77.9193,86.8211,124.854,100.441,99.597,0.00337465,0.408679,20.5522,156.047,0.0768732,0.0,0.0
1161,290,76.9253,86.8933,124.015,100.438,99.0516,0.00345832,0.407905,20.5536,155.777,0.126617,0.0,0.0
1170,292.25,77.6719,86.3008,124.953,100.448,99.1172,0.00350479,0.406043,20.5541,155.477,0.121466,0.0,0.0
1179,294.5,77.6708,86.7016,118.637,100.444,99.5455,0.00345433,0.404742,20.5556,155.166,0.0818837,0.0,0.0
1188,296.75,77.1922,87.1911,121.604,100.464,99.6379,0.003348,0.402242,20.5577,154.796,0.0751827,0.0,0.0
1197,299,77.7941,86.3423,118.847,100.444,99.551,0.00328872,0.40113,20.5594,154.506,0.0813069,0.0,0.0
1206,301.25,77.2518,86.7357,123.778,100.446,98.6456,0.00325231,0.40617,20.5606,154.245,0.164755,0.0,0.0
1215,303.5,77.2354,86.2983,126.058,100.442,100.032,0.00325709,0.407902,20.5586,153.795,0.0372002,0.0,0.0
1224,305.75,77.8942,86.8986,119.731,100.44,99.3721,0.00327769,0.40206,20.5546,153.495,0.0973853,0.0,0.0
1233,308,77.293,86.5775,118.719,100.449,99.5146,0.00334333,0.403033,20.5559,153.194,0.0851339,0.0,0.0
1242,310.25,77.7308,87.2221,124.09,100.462,99.6275,0.00346001,0.407935,20.558,152.894,0.0759882,0.0,0.0
1251,312.5,77.7485,87.171,122.602,100.462,99.3543,0.00348964,0.410013,20.5541,152.504,0.100992,0.0,0.0
1260,314.75,77.6502,87.0946,121.661,100.458,99.3129,0.00345305,0.411105,20.5515,152.234,0.104448,0.0,0.0
1269,317,77.8539,87.3541,119.66,100.47,99.7982,0.00343619,0.411367,20.5507,151.983,0.0610789,0.0,0.0
1278,319.25,77.5928,87.1326,121.431,100.476,99.3621,0.00344132,0.409597,20.5505,151.643,0.101576,0.0,0.0
1287,321.5,77.9821,87.3605,120.775,100.457,99.6812,0.00345384,0.407595,20.5517,151.333,0.070621,0.0,0.0
1296,323.75,77.7619,87.1565,119.421,100.457,99.1718,0.00349035,0.407607,20.5541,150.982,0.117285,0.0,0.0
1305,326,78.0514,87.028,119.725,100.45,98.6875,0.00345027,0.406621,20.5551,150.732,0.161231,0.0,0.0
1314,328.25,77.4438,87.1654,124.305,100.436,98.9474,0.00323962,0.40604,20.5541,150.452,0.135979,0.0,0.0
1323,330.5,77.4343,86.8259,121.042,100.423,99.0616,0.00312333,0.40531,20.5541,150.162,0.124286,0.0,0.0
1332,332.75,77.7789,86.9417,118.25,100.406,98.8186,0.0031986,0.402048,20.556,149.861,0.145181,0.0,0.0
1341,335,77.959,86.8181,126.766,100.352,99.7599,0.00326727,0.402128,20.5579,149.561,0.0539092,0.0,0.0
1350,337.25,78.0029,86.5966,124.392,100.309,99.0789,0.00328663,0.401992,20.5605,149.231,0.112412,0.0,0.0
1359,339.5,77.8573,86.7634,119.304,100.272,99.1304,0.00327173,0.401896,20.5621,148.92,0.104254,0.0,0.0
1368,341.75,77.748,86.9782,121.794,100.215,98.5195,0.00315883,0.402254,20.5627,148.59,0.155447,0.0,0.0
1377,344,77.6979,87.0939,121.935,100.147,98.8859,0.00311473,0.401691,20.563,148.34,0.11545,0.0,0.0
1386,346.25,77.9109,87.106,116.938,100.078,99.2496,0.00314598,0.400806,20.5628,147.96,0.0757082,0.0,0.0
1395,348.5,77.9281,86.8313,119.799,100.019,99.185,0.00316755,0.400059,20.5633,147.739,0.0762552,0.0,0.0
1404,350.75,77.4966,86.6696,123.277,99.9299,98.6884,0.00330387,0.398172,20.5647,147.429,0.11387,0.0,0.0
1413,353,77.5043,86.7154,117.037,99.8413,98.8741,0.00337038,0.397923,20.5661,147.099,0.088669,0.0,0.0
1422,355.25,77.9344,86.5853,126.233,99.7649,99.0348,0.00335967,0.398807,20.5665,146.808,0.0669065,0.0,0.0
1431,357.5,77.8073,86.3862,120.303,99.6957,99.2301,0.00331274,0.398424,20.566,146.518,0.0426389,0.0,0.0
1440,359.75,77.5995,86.5041,124.419,99.5987,98.484,0.00323663,0.397678,20.5658,146.158,0.102519,0.0,0.0
1449,362,77.9014,86.4056,122.031,99.5261,98.4093,0.0031934,0.397231,20.5657,145.898,0.102783,0.0,0.0
1458,364.25,76.7304,85.8124,124.554,99.4653,98.5677,0.00312658,0.398288,20.5657,145.617,0.0825616,0.0,0.0
1467,366.5,77.3011,86.3509,120.041,99.3989,97.8489,0.00304374,0.398669,20.5657,145.327,0.14315,0.0,0.0
1476,368.75,77.4921,86.3203,120.687,99.3263,98.6938,0.0030885,0.396654,20.5657,144.947,0.0581858,0.0,0.0
1485,371,77.0266,85.186,124.537,99.2474,98.3165,0.00311172,0.394107,20.5659,144.676,0.0858406,0.0,0.0
1494,373.25,77.5792,86.868,119.408,99.1941,98.8773,0.0030854,0.396832,20.5683,144.386,0.0291383,0.0,0.0
1503,375.5,77.5226,86.9098,121.653,99.1295,98.8563,0.00319314,0.404005,20.5676,144.046,0.0251306,0.0,0.0
1512,377.75,77.9798,86.638,122.996,99.0514,98.7403,0.00333291,0.407547,20.5631,143.736,0.0286555,0.0,0.0
1521,380,77.911,86.8582,126.69,98.9901,97.92,0.00348022,0.410352,20.559,143.455,0.099003,0.0,0.0
1530,382.25,78.0553,87.3399,123.609,98.9293,97.8235,0.00347312,0.411719,20.5555,143.135,0.102383,0.0,0.0
1539,384.5,78.0105,87.5577,120.271,98.8671,97.051,0.0033312,0.412607,20.554,142.785,0.168874,0.0,0.0
1548,386.75,77.4985,87.2642,124.615,98.8126,96.9098,0.00313723,0.411551,20.5534,142.534,0.177099,0.0,0.0
1557,389,77.9524,87.1622,119.633,98.7941,96.807,0.00316844,0.409571,20.5535,142.214,0.185071,0.0,0.0
1566,391.25,78.0598,87.5704,119.301,98.758,97.3719,0.00335488,0.409553,20.555,141.884,0.128745,0.0,0.0
1575,393.5,77.9334,87.2018,121.707,98.724,97.371,0.00339047,0.409429,20.5557,141.573,0.125695,0.0,0.0
1584,395.75,78.2615,87.9849,119.636,98.7152,98.1107,0.00325692,0.410728,20.5552,141.273,0.0559479,0.0,0.0
1593,398,78.4568,88.0189,121.173,98.7181,96.8748,0.00313371,0.413641,20.5544,141.053,0.171685,0.0,0.0
1602,400.25,78.4901,87.2702,119.003,98.703,97.5203,0.00293732,0.416645,20.5517,140.653,0.109802,0.0,0.0
1611,402.5,78.3589,87.45,119.94,98.7072,97.5499,0.00275461,0.417877,20.5478,140.372,0.107426,0.0,0.0
1620,404.75,78.5599,88.2204,122.419,98.7366,98.5609,0.00267995,0.418632,20.5447,140.122,0.0162224,0.0,0.0
1629,407,78.5084,87.9986,123.064,98.7366,97.7456,0.00276873,0.41739,20.5435,139.862,0.0918792,0.0,0.0
1638,409.25,78.04,87.998,120.158,98.7584,97.1707,0.0029119,0.417059,20.5429,139.471,0.147625,0.0,0.0
1647,411.5,78.8146,88.5251,121.635,98.7899,97.6505,0.00295502,0.420472,20.5423,139.191,0.105664,0.0,0.0
1656,413.75,78.8395,88.5397,123.23,98.8432,98.133,0.00298675,0.422743,20.5404,138.891,0.0656809,0.0,0.0
1665,416,79.0469,88.2967,123.459,98.8764,97.7907,0.00312227,0.425302,20.5361,138.501,0.100565,0.0,0.0
1674,418.25,79.2683,88.4376,116.797,98.9565,98.2291,0.00328604,0.426629,20.534,138.22,0.0672072,0.0,0.0
1683,420.5,79.3507,88.8295,119.244,99.025,97.1638,0.0032127,0.427623,20.5307,137.95,0.172813,0.0,0.0
1692,422.75,79.1992,88.7733,121.236,99.111,97.7629,0.00309148,0.427181,20.5295,137.62,0.124738,0.0,0.0
1701,425,79.3929,88.728,120.307,99.1576,97.3195,0.00320509,0.427905,20.5289,137.289,0.170422,0.0,0.0
1710,427.25,79.3449,89.3551,113.994,99.2252,97.3673,0.0034219,0.428461,20.5284,136.939,0.172154,0.0,0.0
1719,429.5,79.5621,89.2011,123.989,99.3095,98.3697,0.00344427,0.427923,20.5286,136.739,0.0866064,0.0,0.0
1728,431.75,79.4599,88.8846,120.704,99.3616,98.407,0.00324554,0.428875,20.5295,136.379,0.0879228,0.0,0.0
1737,434,79.2127,88.7444,124.546,99.4266,98.1344,0.00312411,0.430001,20.5305,136.018,0.119159,0.0,0.0
1746,436.25,80.006,89.1111,117.792,99.503,98.6934,0.00322286,0.429218,20.528,135.778,0.074417,0.0,0.0
1755,438.5,79.5361,89.3878,121.545,99.5589,97.8462,0.00335195,0.429993,20.5271,135.448,0.158046,0.0,0.0
1764,440.75,80.3157,89.7556,119.406,99.6155,96.9499,0.00340864,0.431842,20.5267,135.127,0.247049,0.0,0.0
1773,443,80.1194,89.4888,118.879,99.6865,97.8885,0.00347934,0.432339,20.5249,134.857,0.165772,0.0,0.0
1782,445.25,80.0541,89.3633,119.874,99.7372,97.2503,0.00342692,0.43339,20.5226,134.507,0.229989,0.0,0.0
1791,447.5,80.2507,90.0502,119.37,99.7788,97.3933,0.0033854,0.433919,20.5216,134.187,0.220405,0.0,0.0
1800,449.75,80.1167,89.7282,121.607,99.8057,98.6019,0.00341417,0.434076,20.5225,133.956,0.110525,0.0,0.0
1809,452,80.7043,89.7777,116.715,99.8518,96.9576,0.00341189,0.435481,20.5233,133.626,0.267903,0.0,0.0
1818,454.25,80.2279,90.0875,119.662,99.8946,98.697,0.00347756,0.434869,20.5225,133.336,0.109857,0.0,0.0
1827,456.5,80.9747,90.1717,120.298,99.9018,98.5409,0.003596,0.434745,20.5219,133.015,0.124928,0.0,0.0
1836,458.75,80.3544,90.3639,119.095,99.9102,98.0998,0.00382283,0.437707,20.5216,132.675,0.166558,0.0,0.0
1845,461,80.3748,89.6974,122.169,99.9513,97.6341,0.00395049,0.439839,20.5204,132.375,0.213647,0.0,0.0
1854,463.25,80.547,89.566,124.883,99.9366,98.4116,0.00387987,0.439686,20.5186,132.105,0.140061,0.0,0.0
1863,465.5,80.7724,89.5774,121.4,99.9093,98.2395,0.00375313,0.439364,20.5188,131.724,0.153514,0.0,0.0
1872,467.75,80.3292,90.1977,119.04,99.9169,98.113,0.00356723,0.439543,20.5195,131.464,0.165944,0.0,0.0
1881,470,80.6477,90.2333,125.684,99.8955,98.1476,0.00358793,0.44036,20.5198,131.114,0.160782,0.0,0.0
1890,472.25,80.9091,90.4376,118.381,99.8371,98.6529,0.00375916,0.441079,20.5196,130.763,0.108689,0.0,0.0
1899,474.5,80.726,89.8699,117.296,99.8044,97.6546,0.00385757,0.442126,20.5189,130.493,0.19834,0.0,0.0
1908,476.75,80.0272,90.487,119.463,99.7633,97.2171,0.00391773,0.444047,20.5177,130.213,0.235479,0.0,0.0
1917,479,81.0159,89.9472,121.942,99.7108,97.8148,0.00387882,0.444558,20.5155,129.852,0.17486,0.0,0.0
1926,481.25,80.9301,90.9371,116.114,99.6504,97.0728,0.00394278,0.444121,20.5131,129.542,0.238694,0.0,0.0
1935,483.5,80.3418,90.7005,127.017,99.5992,97.6377,0.00404995,0.447282,20.5121,129.202,0.18116,0.0,0.0
1944,485.75,81.5414,89.751,125.099,99.5433,97.1516,0.00400346,0.45019,20.5113,129.042,0.22152,0.0,0.0
1953,488,81.6863,90.7547,122.616,99.4657,96.4897,0.00377501,0.451199,20.5086,128.661,0.276678,0.0,0.0
1962,490.25,81.6553,91.148,118.88,99.4015,97.3978,0.00359449,0.452439,20.5066,128.351,0.18547,0.0,0.0
1971,492.5,81.8557,90.7658,121.573,99.333,96.5516,0.00361181,0.453148,20.5052,128.011,0.258682,0.0,0.0
1980,494.75,81.5485,90.8707,120.568,99.2982,97.5125,0.00379616,0.454829,20.503,127.72,0.165283,0.0,0.0
1989,497,81.6874,90.1453,121.879,99.234,96.334,0.0040174,0.455927,20.5014,127.41,0.270145,0.0,0.0
1998,499.25,81.7754,90.8793,122.206,99.1882,97.8266,0.00409114,0.456691,20.5005,127.09,0.125898,0.0,0.0
2007,501.5,81.2776,91.0312,119.998,99.2449,97.5048,0.00408895,0.458474,20.4979,126.81,0.161115,0.0,0.0
2016,503.75,81.7218,91.9413,122.519,99.3431,96.6549,0.00415314,0.459621,20.4967,126.519,0.249862,0.0,0.0
2025,506,81.6007,91.3326,119.066,99.4342,97.4397,0.00429188,0.457313,20.4961,126.199,0.184554,0.0,0.0
2034,508.25,82.1977,91.832,121.857,99.5152,97.0642,0.00440799,0.456745,20.496,125.839,0.227145,0.0,0.0
2043,510.5,82.5309,91.7443,122.013,99.6294,95.5173,0.00431803,0.460229,20.4964,125.598,0.383907,0.0,0.0
2052,512.75,81.5778,91.3919,120.012,99.72,95.5101,0.004069,0.462397,20.4945,125.188,0.392885,0.0,0.0
2061,515,81.753,92.2207,123.638,99.7822,96.0336,0.00396101,0.464586,20.4915,124.908,0.348771,0.0,0.0
2070,517.25,81.7356,91.7348,119.099,99.8338,97.96,0.00392501,0.467263,20.4891,124.467,0.172575,0.0,0.0
2079,519.5,82.8191,92.2574,119.2,99.8564,96.0445,0.00397807,0.469415,20.4877,124.287,0.354513,0.0,0.0
2088,521.75,82.8331,93.0908,117.729,99.8888,97.3569,0.00418966,0.471323,20.4839,123.997,0.233845,0.0,0.0
2097,524,82.9813,92.5359,120.265,99.9135,96.5234,0.00435731,0.472407,20.4817,123.677,0.314417,0.0,0.0
2106,526.25,82.9871,92.9748,122.585,99.9328,96.7455,0.00430503,0.476859,20.4805,123.476,0.295238,0.0,0.0
2115,528.5,83.1197,92.6613,119.685,99.9211,97.5353,0.00407666,0.482017,20.476,123.096,0.220112,0.0,0.0
2124,530.75,83.0703,92.5502,121.87,99.9249,95.4777,0.00405827,0.481467,20.4697,122.766,0.414658,0.0,0.0
2133,533,83.3014,93.4249,112.369,99.9383,96.8215,0.00423463,0.481618,20.4672,122.495,0.288582,0.0,0.0
2142,535.25,83.2004,92.8096,121.521,99.9274,96.7246,0.00442888,0.48237,20.4675,122.185,0.296713,0.0,0.0
2151,537.5,83.4235,93.2681,117.115,99.9295,95.5783,0.00463349,0.482742,20.4671,121.845,0.405485,0.0,0.0
2160,539.75,83.3953,93.5762,119.701,99.9379,94.9911,0.00469961,0.482417,20.4666,121.515,0.462384,0.0,0.0
2169,542,83.7057,93.1351,123.81,99.9496,96.8197,0.00470022,0.482728,20.4666,121.124,0.289785,0.0,0.0
2178,544.25,83.4753,93.2362,115.829,99.9299,95.9466,0.00483188,0.482557,20.4663,120.874,0.370497,0.0,0.0
2187,546.5,83.2216,93.3464,119.554,99.924,95.7996,0.00494365,0.482892,20.4658,120.544,0.383931,0.0,0.0
2196,548.75,84.0844,93.5496,118.029,99.9374,95.4026,0.00489874,0.483455,20.467,120.253,0.422973,0.0,0.0
2205,551,84.165,93.1735,120.414,99.9198,95.2169,0.0048048,0.482755,20.4674,119.883,0.439116,0.0,0.0
2214,553.25,84.1977,93.2429,120.769,99.9106,95.566,0.00471974,0.482813,20.4676,119.593,0.404935,0.0,0.0
2223,555.5,83.9903,93.5229,120.247,99.9156,96.3786,0.00467445,0.486152,20.4674,119.232,0.328279,0.0,0.0
2232,557.75,83.1153,93.4558,116.593,99.9131,96.0226,0.00467696,0.491235,20.4646,119.032,0.361753,0.0,0.0
2241,560,83.6348,93.13,116.202,99.9039,95.4786,0.00474386,0.494107,20.4584,118.672,0.412657,0.0,0.0
2250,562.25,83.6105,93.4246,119.502,99.911,95.3667,0.00492748,0.493933,20.4532,118.342,0.423997,0.0,0.0
2259,564.5,83.4376,93.5055,118.145,99.8997,95.2356,0.00504843,0.48817,20.4507,117.971,0.435494,0.0,0.0
2268,566.75,84.1948,93.8703,119.635,99.8909,94.1622,0.00503737,0.489714,20.4519,117.691,0.537932,0.0,0.0
2277,569,84.3558,94.3886,120.401,99.8774,95.1609,0.00509002,0.498044,20.4531,117.361,0.440608,0.0,0.0
2286,571.25,84.6064,94.913,117.765,99.8732,95.8806,0.00516012,0.503258,20.4483,117.04,0.371599,0.0,0.0
2295,573.5,84.6818,94.774,115.762,99.8787,94.5181,0.00503274,0.505452,20.4408,116.64,0.502452,0.0,0.0
2304,575.75,84.5913,95.0477,117.263,99.8577,95.4805,0.00490991,0.506098,20.4374,116.42,0.408274,0.0,0.0
2313,578,84.5354,94.6258,117.866,99.8451,94.9283,0.00498734,0.505787,20.4361,116.14,0.459951,0.0,0.0
2322,580.25,84.1611,95.4292,119.923,99.8384,95.0667,0.00498318,0.504439,20.4356,115.799,0.446071,0.0,0.0
2331,582.5,84.7139,94.7561,119.052,99.817,95.505,0.00480729,0.503214,20.4365,115.419,0.402215,0.0,0.0
2340,584.75,85.1483,95.4558,115.28,99.7759,94.9142,0.00487332,0.506831,20.4382,115.119,0.454986,0.0,0.0
2349,587,85.5769,95.4665,119.794,99.7549,95.9653,0.00510785,0.51186,20.4377,114.768,0.352758,0.0,0.0
2358,589.25,85.3211,95.9701,118.719,99.7465,93.5431,0.00537659,0.513004,20.4325,114.508,0.584839,0.0,0.0
2367,591.5,85.0126,95.9607,123.113,99.7398,95.0544,0.005383,0.511343,20.4295,114.188,0.438245,0.0,0.0
2376,593.75,85.9187,95.4827,114.551,99.7095,95.0576,0.00532974,0.511424,20.4301,113.857,0.43518,0.0,0.0
2385,596,85.5801,96.0444,116.835,99.6982,94.9624,0.00506744,0.512131,20.4303,113.507,0.443265,0.0,0.0
2394,598.25,86.0274,97.0443,116.284,99.7037,95.1805,0.00477875,0.513263,20.4287,113.197,0.422873,0.0,0.0
2403,600.5,86.0983,96.6754,120.014,99.6575,94.6543,0.00469266,0.513919,20.4269,112.796,0.469153,0.0,0.0
2412,602.75,84.7298,96.7725,118.569,99.6567,95.206,0.00498148,0.515629,20.4257,112.566,0.416139,0.0,0.0
2421,605,86.1217,96.208,120.336,99.6529,94.2928,0.00528428,0.516155,20.4243,112.216,0.503577,0.0,0.0
2430,607.25,86.2775,96.8566,116.361,99.6449,93.9619,0.00551695,0.512591,20.4233,111.926,0.534871,0.0,0.0
2439,609.5,85.5733,96.6712,119.555,99.5975,95.2055,0.00562904,0.512197,20.4248,111.585,0.410773,0.0,0.0
2448,611.75,86.7562,96.8278,119.292,99.5887,95.4982,0.00567446,0.513503,20.4262,111.255,0.382007,0.0,0.0
2457,614,86.4572,97.2265,121.954,99.5882,94.891,0.00572094,0.515172,20.4254,110.945,0.440071,0.0,0.0
2466,616.25,86.5336,96.8544,119.088,99.5421,94.8891,0.00575433,0.517586,20.4233,110.654,0.436022,0.0,0.0
2475,618.5,87.1945,97.0066,119.637,99.5362,95.9311,0.00588357,0.519112,20.42,110.254,0.336011,0.0,0.0
2484,620.75,86.6156,96.6028,123.526,99.5299,94.9856,0.00608474,0.515757,20.4185,109.914,0.425649,0.0,0.0
2493,623,86.5594,96.9524,119.314,99.5118,95.7591,0.00614633,0.513897,20.4194,109.623,0.350135,0.0,0.0
2502,625.25,86.3157,96.3904,117.962,99.5089,95.1063,0.00603471,0.516423,20.4225,109.373,0.412168,0.0,0.0
2511,627.5,85.8962,96.0068,117.634,99.4841,94.2996,0.00601734,0.518302,20.4201,109.043,0.487483,0.0,0.0
2520,629.75,86.7106,96.3407,116.748,99.4871,93.3182,0.00598002,0.513163,20.4171,108.682,0.583045,0.0,0.0
2529,632,86.2889,95.6167,119.843,99.4598,94.7694,0.00581295,0.505164,20.4171,108.232,0.439991,0.0,0.0
2538,634.25,86.3696,96.1225,117.796,99.4233,94.1426,0.00573096,0.505687,20.4263,108.022,0.49709,0.0,0.0
2547,636.5,86.1644,96.3285,118.99,99.414,94.7589,0.00592773,0.512627,20.4308,107.682,0.436806,0.0,0.0
2556,638.75,86.4162,96.1781,121.106,99.4195,95.231,0.00600355,0.519756,20.4282,107.411,0.392044,0.0,0.0
2565,641,86.2139,96.0458,118.263,99.3423,93.6177,0.0059821,0.520982,20.4181,106.981,0.540589,0.0,0.0
2574,643.25,86.8179,96.0382,120.578,99.3049,93.4406,0.00600082,0.520381,20.4136,106.681,0.554407,0.0,0.0
2583,645.5,86.7418,96.5542,121.078,99.2802,95.338,0.00612563,0.520252,20.413,106.3,0.369043,0.0,0.0
2592,647.75,86.3351,96.4128,117.315,99.2269,93.6164,0.00611102,0.521011,20.4128,106,0.530133,0.0,0.0
2601,650,86.9739,96.6722,113.12,99.1845,93.1293,0.00607635,0.520663,20.4128,105.63,0.573753,0.0,0.0
2610,652.25,87.1136,97.4752,121.097,99.1488,94.4312,0.00607084,0.524715,20.4127,105.399,0.444029,0.0,0.0
2619,654.5,86.6779,96.9091,117.573,99.1811,94.7394,0.00596958,0.524691,20.4105,105.069,0.41732,0.0,0.0
2628,656.75,87.0298,97.2854,117.199,99.1744,94.2851,0.00593219,0.526363,20.409,104.669,0.460486,0.0,0.0
2637,659,86.8848,97.8532,122.229,99.1962,94.5555,0.00609613,0.529597,20.4078,104.408,0.436405,0.0,0.0
2646,661.25,86.6332,96.8716,117.171,99.2285,93.6573,0.00625499,0.524294,20.4077,104.148,0.526302,0.0,0.0
2655,663.5,86.5667,97.1063,123.925,99.2554,94.8764,0.00624834,0.520798,20.4096,103.808,0.410976,0.0,0.0
2664,665.75,87.1001,96.7778,120.261,99.2726,94.743,0.00615005,0.519367,20.4119,103.578,0.425369,0.0,0.0
2673,668,86.8007,96.8998,121.848,99.3179,94.2131,0.00612732,0.514833,20.4144,103.207,0.48061,0.0,0.0
2682,670.25,86.8268,97.4981,118.657,99.3612,94.3019,0.0061115,0.5128,20.4175,102.907,0.475997,0.0,0.0
2691,672.5,86.8558,97.233,115.24,99.3847,94.4489,0.00596373,0.513405,20.4195,102.577,0.463961,0.0,0.0
2700,674.75,87.0036,97.387,118.449,99.4397,94.1512,0.00588957,0.514215,20.4204,102.266,0.497753,0.0,0.0
2709,677,85.9476,96.8797,116.786,99.4627,93.9783,0.00600265,0.518805,20.4205,101.976,0.516617,0.0,0.0
2718,679.25,87.0478,96.6651,122.732,99.4972,95.2178,0.00604279,0.51871,20.4176,101.686,0.400418,0.0,0.0
2727,681.5,86.9389,96.8664,123.502,99.5244,95.7586,0.00594814,0.513322,20.4142,101.316,0.351331,0.0,0.0
2736,683.75,86.553,95.6136,119.856,99.553,93.6692,0.00586587,0.505952,20.4163,101.055,0.554883,0.0,0.0
2745,686,86.4346,96.4636,121.834,99.5891,94.6415,0.00577523,0.501584,20.421,100.775,0.464124,0.0,0.0
2754,688.25,86.5025,96.1642,120.52,99.5832,94.6074,0.00571429,0.494963,20.4291,100.435,0.466873,0.0,0.0
2763,690.5,86.0978,95.9908,117.924,99.5987,94.7139,0.00564622,0.489112,20.435,100.134,0.458044,0.0,0.0
2772,692.75,85.8497,96.1126,122.6,99.6117,96.5234,0.00560624,0.48963,20.4414,99.8942,0.286864,0.0,0.0
2781,695,86.043,95.3922,117.94,99.6176,94.0575,0.00566555,0.487489,20.4446,99.6139,0.523115,0.0,0.0
2790,697.25,85.5745,95.3756,119.494,99.5996,95.3193,0.00574635,0.486527,20.4458,99.3637,0.400084,0.0,0.0
2799,699.5,85.5812,94.9265,118.98,99.6021,95.536,0.00593341,0.484395,20.4462,99.0834,0.379632,0.0,0.0
2808,701.75,85.8941,94.664,118.394,99.6235,95.8892,0.00604137,0.477113,20.4471,98.7731,0.347973,0.0,0.0
2817,704,85.4281,94.5793,120.735,99.5878,96.5866,0.00576387,0.470946,20.4507,98.5529,0.278707,0.0,0.0
2826,706.25,85.2976,94.1208,116.681,99.5672,95.6926,0.00550713,0.462836,20.4579,98.2727,0.361528,0.0,0.0
2835,708.5,85.1654,93.8857,122.948,99.5542,97.2904,0.00530872,0.45573,20.4652,97.9924,0.209511,0.0,0.0
2844,710.75,84.9623,93.5515,123.847,99.5677,97.2904,0.00496346,0.446578,20.4758,97.8523,0.210739,0.0,0.0
2853,713,84.6867,93.2638,118.656,99.5207,97.3441,0.00463105,0.435733,20.4852,97.592,0.20141,0.0,0.0
2862,715.25,84.5739,92.2168,124.263,99.4858,97.0437,0.00435163,0.428442,20.4989,97.3918,0.226378,0.0,0.0
2871,717.5,83.6577,91.7532,121.587,99.4867,97.6823,0.004022,0.420078,20.5091,97.2317,0.166707,0.0,0.0
2880,719.75,83.7712,91.7816,122.229,99.435,98.1234,0.00371124,0.411632,20.5187,97.0215,0.120941,0.0,0.0
2889,722,83.6166,91.2995,121.678,99.3994,97.9723,0.00342741,0.399394,20.5267,96.8213,0.131712,0.0,0.0
2898,724.25,83.6039,90.431,124.239,99.3591,97.95,0.00313572,0.387106,20.539,96.6311,0.130093,0.0,0.0
2907,726.5,82.7414,89.7776,119.511,99.3356,97.355,0.00289231,0.378099,20.5549,96.491,0.183431,0.0,0.0
2916,728.75,82.3446,89.2412,123.925,99.2818,98.3083,0.00274646,0.369001,20.5636,96.2908,0.0897582,0.0,0.0
2925,731,82.1703,88.8027,124.618,99.2579,97.7643,0.00279421,0.355806,20.571,96.1206,0.138102,0.0,0.0
2934,733.25,81.4022,88.2233,124.035,99.2407,98.2741,0.00275417,0.342589,20.5873,96.0706,0.0891475,0.0,0.0
2943,735.5,81.1143,86.9364,122.102,99.2176,99.3216,0.00265809,0.333292,20.6012,95.9004,-0.00953822,0.0,0.0
2952,737.75,80.7038,86.5887,126.746,99.1845,100.276,0.00259536,0.32106,20.6136,95.7203,-0.0996639,0.0,0.0
2961,740,80.2971,85.7933,121.613,99.1912,100.556,0.00249243,0.310228,20.6261,95.6202,-0.124441,0.0,0.0
2970,742.25,80.0213,84.8751,123.336,99.2865,100.027,0.00243595,0.298972,20.6382,95.5601,-0.0676975,0.0,0.0
2979,744.5,79.0621,84.0977,124.627,99.3696,101.365,0.00247426,0.284668,20.6506,95.3799,-0.181134,0.0,0.0
2988,746.75,78.7695,83.3081,124.599,99.4363,100.152,0.00242097,0.269837,20.6656,95.2298,-0.0653536,0.0,0.0
2997,749,78.8581,83.0887,126.621,99.5051,100.951,0.00226898,0.257509,20.6805,95.1597,-0.131377,0.0,0.0
3006,751.25,77.9661,82.3537,127.273,99.5794,101.73,0.00203161,0.248087,20.6939,95.1397,-0.194583,0.0,0.0
3015,753.5,77.2416,80.9108,127.62,99.6659,101.305,0.00189915,0.237918,20.7069,95.0196,-0.148613,0.0,0.0
3024,755.75,76.6319,80.3834,128.365,99.7389,101.273,0.00185568,0.228492,20.7196,94.9095,-0.139035,0.0,0.0
3033,758,75.8991,79.2989,131.402,99.8115,101.417,0.0018643,0.219428,20.7319,94.9796,-0.145375,0.0,0.0
3042,760.25,75.6166,79.1207,126.242,99.8636,101.651,0.00192937,0.211458,20.7423,94.8594,-0.161575,0.0,0.0
3051,762.5,74.4778,78.8418,127.537,99.8837,101.512,0.00197874,0.203071,20.7519,94.7093,-0.147248,0.0,0.0
3060,764.75,74.9436,77.5651,125.543,99.9114,101.19,0.00182307,0.195635,20.7622,94.6593,-0.11584,0.0,0.0
3069,767,74.1644,77.1572,130.424,99.9349,101.932,0.00155213,0.188825,20.7715,94.6392,-0.180242,0.0,0.0
3078,769.25,73.7743,76.4065,128.303,99.9374,101.227,0.00133421,0.181651,20.7785,94.5592,-0.116787,0.0,0.0
3087,771.5,72.6724,75.8347,125.871,99.9412,101.623,0.00126902,0.174855,20.7842,94.5091,-0.152007,0.0,0.0
3096,773.75,71.8327,75.0161,124.242,99.9412,101.789,0.00136181,0.168428,20.7923,94.5191,-0.166846,0.0,0.0
3105,776,72.1331,74.3847,127.978,99.9051,101.608,0.00148601,0.163392,20.7989,94.4791,-0.153911,0.0,0.0
3114,778.25,71.5065,74.0474,129.477,99.8753,101.564,0.0015148,0.158887,20.8064,94.349,-0.152669,0.0,0.0
3123,780.5,70.9487,72.508,130.802,99.8338,101.912,0.00146745,0.154374,20.8131,94.359,-0.187677,0.0,0.0
3132,782.75,70.7506,72.6799,127.165,99.7847,101.724,0.00141721,0.148934,20.818,94.3189,-0.175299,0.0,0.0
3141,785,69.7184,71.9875,127.545,99.7196,101.298,0.00141511,0.14317,20.8243,94.2489,-0.143008,0.0,0.0
3150,787.25,69.7003,72.1016,127.506,99.6382,101.592,0.00154069,0.138714,20.8315,94.2088,-0.176852,0.0,0.0
3159,789.5,69.1775,71.1063,129.405,99.5601,102.031,0.00175338,0.135479,20.8376,94.2088,-0.223331,0.0,0.0
3168,791.75,68.9177,70.8657,132.293,99.5429,101.266,0.00190006,0.133044,20.8418,94.1788,-0.156338,0.0,0.0
3177,794,68.634,70.5969,128.201,99.5488,102.038,0.00197983,0.132571,20.8447,94.1388,-0.224937,0.0,0.0
3186,796.25,68.1201,70.0628,127.875,99.5836,101.763,0.00198382,0.13147,20.8458,94.0787,-0.197215,0.0,0.0
3195,798.5,67.8968,70.1834,132.931,99.652,101.498,0.00195757,0.129753,20.8462,94.1288,-0.167175,0.0,0.0
3204,800.75,67.6207,69.2228,130.102,99.6911,100.915,0.00181911,0.128559,20.8476,94.0487,-0.111128,0.0,0.0
3213,803,67.2681,69.3039,128.971,99.7435,101.648,0.00174758,0.127742,20.8489,94.0687,-0.172286,0.0,0.0
3222,805.25,66.9666,69.2495,126.886,99.7868,101.911,0.00175346,0.127373,20.8502,94.0487,-0.191884,0.0,0.0
3231,807.5,66.5089,68.6541,129.089,99.8581,101.296,0.00158039,0.126167,20.8506,94.0487,-0.130243,0.0,0.0
3240,809.75,66.5228,68.1109,129.058,99.9165,101.56,0.00123212,0.125886,20.8508,93.9286,-0.148591,0.0,0.0
3249,812,66.1096,68.0846,132.495,99.9391,101.346,0.00106852,0.126276,20.8509,93.9286,-0.127359,0.0,0.0
3258,814.25,65.8856,67.3947,129.977,100.003,101.328,0.00114292,0.126459,20.851,93.9486,-0.11987,0.0,0.0
3267,816.5,65.2758,67.2764,129.545,100.037,101.664,0.00126745,0.12561,20.851,93.8885,-0.146961,0.0,0.0
3276,818.75,64.6931,67.7206,129.438,100.094,102.196,0.00137496,0.124798,20.851,93.8385,-0.189238,0.0,0.0
3285,821,65.2378,66.8737,130.338,100.144,102.04,0.00154227,0.124056,20.851,93.7784,-0.170767,0.0,0.0
3294,823.25,64.6207,67.2822,128.43,100.196,102.321,0.00156705,0.123003,20.8524,93.7684,-0.191153,0.0,0.0
3303,825.5,64.7985,67.2231,132.52,100.233,101.593,0.00145309,0.121601,20.8536,93.6783,-0.122764,0.0,0.0
3312,827.75,64.8666,66.6543,123.845,100.28,102.126,0.00137436,0.120868,20.8552,93.6883,-0.166201,0.0,0.0
3321,830,64.2106,66.8829,137.18,100.344,102.086,0.00140151,0.119996,20.8561,93.6883,-0.156796,0.0,0.0
3330,832.25,64.1134,66.5461,130.714,100.391,102.048,0.00154002,0.119665,20.8577,93.6483,-0.149118,0.0,0.0
3339,834.5,64.0194,66.0741,130.166,100.417,102.358,0.00166427,0.120259,20.8589,93.5482,-0.174346,0.0,0.0
3348,836.75,63.6842,66.0746,131.499,100.456,102.09,0.00165984,0.119824,20.8582,93.5782,-0.146954,0.0,0.0
3357,839,64.2086,66.4131,127.981,100.488,102.183,0.00165706,0.118505,20.8584,93.6183,-0.152306,0.0,0.0
3366,841.25,63.2023,66.2478,130.238,100.478,102.175,0.00164665,0.117308,20.8593,93.4882,-0.152529,0.0,0.0
3375,843.5,63.4061,65.8821,133.186,100.458,102.41,0.00159064,0.117341,20.8596,93.4481,-0.17527,0.0,0.0
3384,845.75,63.1423,65.5407,132.709,100.455,101.95,0.00152617,0.118043,20.8597,93.4481,-0.13455,0.0,0.0
3393,848,63.2888,65.6914,134.732,100.403,101.656,0.0014335,0.117856,20.8594,93.4882,-0.112925,0.0,0.0
3402,850.25,63.0792,65.2804,130.459,100.347,102.168,0.0013906,0.116532,20.8593,93.358,-0.163878,0.0,0.0
3411,852.5,62.3943,65.1394,130.032,100.298,101.547,0.00135053,0.115705,20.8601,93.348,-0.112693,0.0,0.0
3420,854.75,62.3676,64.4312,131.841,100.223,101.477,0.00137141,0.115792,20.8624,93.3881,-0.113229,0.0,0.0
3429,857,62.0064,65.1804,132.23,100.133,101.676,0.00132797,0.115424,20.8633,93.298,-0.139312,0.0,0.0
3438,859.25,62.1165,64.6603,132.233,100.038,101.437,0.00127799,0.114446,20.8637,93.2579,-0.12647,0.0,0.0
3447,861.5,62.5345,64.3197,130.715,99.9488,101.165,0.00133247,0.113781,20.8651,93.2279,-0.110181,0.0,0.0
3456,863.75,61.5977,64.0818,130.476,99.8577,101.284,0.00148089,0.114125,20.8658,93.2579,-0.129216,0.0,0.0
3465,866,61.657,64.5533,132.727,99.7347,101.161,0.00161228,0.11456,20.866,93.1278,-0.1293,0.0,0.0
3474,868.25,61.6982,64.4649,130.172,99.6113,101.181,0.00173188,0.114447,20.8661,93.1779,-0.14242,0.0,0.0
3483,870.5,61.2775,63.6678,133.775,99.4988,100.37,0.00178833,0.11408,20.8665,93.1478,-0.0793948,0.0,0.0
3492,872.75,61.5646,63.763,131.221,99.375,101.099,0.00179246,0.113858,20.867,93.0878,-0.156674,0.0,0.0
3501,875,61.6126,63.7624,126.677,99.2583,101.019,0.00176132,0.113841,20.8671,93.0577,-0.160113,0.0,0.0
3510,877.25,61.2286,63.3656,132.14,99.1609,100.468,0.00175142,0.114247,20.8672,93.0477,-0.119296,0.0,0.0
3519,879.5,61.1923,64.1879,130.521,99.0728,100.527,0.00187,0.113757,20.8672,93.0778,-0.132717,0.0,0.0
3528,881.75,60.6552,63.4925,128.808,98.9654,100.816,0.00188795,0.11332,20.8672,92.9977,-0.168796,0.0,0.0
3537,884,60.6435,63.5677,132.177,98.902,100.264,0.00176136,0.113016,20.8672,92.9376,-0.124607,0.0,0.0
3546,886.25,60.7265,63.4209,131.34,98.855,99.6521,0.00166759,0.113113,20.8672,92.9176,-0.0731472,0.0,0.0
3555,888.5,60.4765,63.46,131.244,98.8021,100.029,0.00177157,0.113628,20.8672,92.9877,-0.112407,0.0,0.0
3564,890.75,60.8496,63.1241,133.72,98.766,100.13,0.00182288,0.1142,20.8672,92.8275,-0.124974,0.0,0.0
3573,893,60.1893,62.9715,130.534,98.7735,99.7786,0.0018525,0.113886,20.8672,92.8275,-0.0922117,0.0,0.0
3582,895.25,60.1675,63.4624,130.514,98.8105,100.632,0.00172915,0.113646,20.868,92.9276,-0.166348,0.0,0.0
3591,897.5,60.5738,63.3332,134.855,98.8243,99.9971,0.00165903,0.114062,20.8698,92.8776,-0.107455,0.0,0.0
3600,899.75,60.3381,62.373,135.831,98.8688,99.5592,0.00173928,0.115611,20.8698,92.8275,-0.0633787,0.0,0.0
3609,902,60.2212,63.1918,127.918,98.9297,100.434,0.00179305,0.116088,20.869,92.8275,-0.137468,0.0,0.0
3618,904.25,60.0628,62.5815,128.119,99.0027,100.005,0.00187844,0.115947,20.8681,92.7575,-0.0917324,0.0,0.0
3627,906.5,60.0438,62.3103,132.21,99.0543,100.353,0.00191154,0.115176,20.8676,92.7975,-0.118647,0.0,0.0
3636,908.75,59.0049,62.4729,133.998,99.1022,100.894,0.00171345,0.114556,20.8695,92.7274,-0.163241,0.0,0.0
3645,911,59.6893,62.1185,129.184,99.1727,100.353,0.00144953,0.113592,20.8703,92.7875,-0.107728,0.0,0.0
3654,913.25,59.2115,62.4284,130.211,99.2071,100.448,0.00145745,0.113567,20.8713,92.7074,-0.113198,0.0,0.0
3663,915.5,59.1533,62.2509,126.961,99.2533,100.853,0.00161869,0.113863,20.8724,92.7074,-0.145624,0.0,0.0
3672,917.75,59.5052,62.589,131.787,99.3129,100.361,0.00182769,0.114508,20.871,92.7074,-0.0956465,0.0,0.0
3681,920,59.6464,63.0084,134.084,99.3603,100.286,0.00202855,0.114663,20.8695,92.7675,-0.084479,0.0,0.0
3690,922.25,59.2345,61.626,129.31,99.3985,100.679,0.00211116,0.114534,20.8683,92.6474,-0.116546,0.0,0.0
3699,924.5,59.3583,62.1343,131.401,99.4581,101.421,0.0021882,0.114509,20.8683,92.6073,-0.177969,0.0,0.0
3708,926.75,58.8556,62.029,129.158,99.5202,101.235,0.00225139,0.114066,20.8685,92.6173,-0.155586,0.0,0.0
3717,929,58.5624,61.6847,133.917,99.5517,100.834,0.00223059,0.113473,20.8685,92.6173,-0.116593,0.0,0.0
3726,931.25,59.641,61.9494,132.874,99.587,100.547,0.00213406,0.113446,20.8691,92.4772,-0.0873847,0.0,0.0
3735,933.5,58.4806,61.4115,128.645,99.6357,100.785,0.0020545,0.11429,20.8702,92.4772,-0.104474,0.0,0.0
3744,935.75,59.3192,61.9038,132.164,99.6995,100.975,0.00198872,0.114906,20.8694,92.5873,-0.115782,0.0,0.0
3753,938,58.1394,61.3805,134.23,99.7293,101.126,0.00201056,0.114429,20.8689,92.5272,-0.126683,0.0,0.0
3762,940.25,57.1969,59.1066,129.78,99.741,101.05,0.00213045,0.114861,20.8695,92.4271,-0.1188,0.0,0.0
3771,942.5,56.6906,59.2263,132.008,99.7914,100.685,0.00223294,0.114958,20.8713,92.4672,-0.0812357,0.0,0.0
3780,944.75,56.6088,60.0787,130.931,99.8078,101.275,0.0021665,0.114705,20.872,92.4872,-0.132914,0.0,0.0
3789,947,56.844,59.4846,129.36,99.8057,101.767,0.00216727,0.115227,20.8723,92.3571,-0.177255,0.0,0.0
3798,949.25,56.6784,59.3738,131.495,99.8304,101.112,0.0023388,0.115119,20.8724,92.3471,-0.116177,0.0,0.0
3807,951.5,56.1327,59.5505,133.477,99.8648,101.033,0.00252512,0.114661,20.8733,92.3871,-0.1059,0.0,0.0
3816,953.75,56.5358,59.736,132.74,99.8674,101.729,0.00262221,0.114745,20.8742,92.307,-0.168202,0.0,0.0
3825,956,56.3256,59.265,134.013,99.872,101.13,0.00261142,0.114457,20.8746,92.297,-0.114028,0.0,0.0
3834,958.25,56.3805,59.3289,131.119,99.903,101.358,0.00252758,0.113775,20.8747,92.297,-0.131672,0.0,0.0
3843,960.5,56.4651,59.1757,132.32,99.9018,101.626,0.00250996,0.114013,20.8748,92.317,-0.15589,0.0,0.0
3852,962.75,56.786,58.8176,128.558,99.8883,101.235,0.00259527,0.114796,20.8748,92.247,-0.122,0.0,0.0
3861,965,56.4802,59.8574,132.027,99.9089,101.284,0.00268758,0.11494,20.8742,92.1769,-0.124547,0.0,0.0
3870,967.25,54.9726,59.1073,128.77,99.9265,101.367,0.0026739,0.115133,20.8736,92.287,-0.130388,0.0,0.0
3879,969.5,56.3207,59.1513,130.532,99.9349,101.251,0.00245575,0.115723,20.8719,92.1369,-0.119187,0.0,0.0
3888,971.75,55.7831,59.2283,131.508,99.9173,100.865,0.00222685,0.115289,20.8713,92.1369,-0.0860013,0.0,0.0
3897,974,56.1563,58.6404,130.826,99.9353,100.933,0.00213769,0.115279,20.871,92.1469,-0.0904794,0.0,0.0
3906,976.25,56.258,59.4972,130.596,99.9517,101.066,0.0022257,0.115528,20.8717,92.1669,-0.101015,0.0,0.0
3915,978.5,55.8658,58.591,130.196,99.9383,101.152,0.0024194,0.11607,20.8726,92.1169,-0.109908,0.0,0.0
3924,980.75,56.0459,58.9962,131.35,99.9454,101.143,0.00267939,0.116517,20.873,92.1068,-0.10852,0.0,0.0
3933,983,55.7446,59.1634,129.775,99.9538,101.183,0.00281313,0.115866,20.8725,92.1469,-0.111362,0.0,0.0
3942,985.25,56.0365,59.2569,129.521,99.9551,100.99,0.0027218,0.115352,20.8728,92.0768,-0.0938154,0.0,0.0
3951,987.5,56.1103,58.5487,134.548,99.9593,101.357,0.00253316,0.116146,20.8732,91.9967,-0.126463,0.0,0.0
3960,989.75,55.5801,58.8768,131.644,99.9597,100.992,0.00238683,0.117127,20.8738,92.0068,-0.0935998,0.0,0.0
3969,992,55.669,58.7928,130.496,99.9601,100.881,0.00239441,0.116677,20.874,92.0668,-0.0834976,0.0,0.0
3978,994.25,55.7274,59.0281,133.717,99.9442,101.288,0.00245563,0.115835,20.8741,91.9067,-0.12162,0.0,0.0
3987,996.5,55.6058,58.9586,137.498,99.9517,100.968,0.00249616,0.115793,20.8742,91.8966,-0.0921502,0.0,0.0
3996,998.75,55.5552,58.7738,129.947,99.9685,101.848,0.0024827,0.116424,20.8742,91.9367,-0.169695,0.0,0.0
4005,1001,55.8809,58.4717,128.941,99.9505,101.226,0.00253987,0.117024,20.8732,91.9067,-0.115478,0.0,0.0
4014,1003.25,55.4064,57.8844,129.043,99.9333,101.131,0.00266154,0.116958,20.8724,91.8966,-0.108481,0.0,0.0
4023,1005.5,55.3376,58.1579,134.75,99.9291,101.324,0.00258356,0.115995,20.8721,91.7765,-0.126231,0.0,0.0
4032,1007.75,55.3416,57.5259,132.501,99.9135,101.219,0.00250605,0.116036,20.8733,91.8866,-0.11827,0.0,0.0
4041,1010,55.4385,58.5823,134.304,99.8795,100.944,0.00256656,0.116303,20.8738,91.6864,-0.0965139,0.0,0.0
4050,1012.25,54.7062,58.657,132.647,99.851,100.571,0.00265638,0.117033,20.8746,91.7065,-0.0654143,0.0,0.0
4059,1014.5,55.4372,58.4835,132.44,99.8346,100.984,0.00279667,0.118038,20.8751,91.7665,-0.104223,0.0,0.0
4068,1016.75,55.1647,58.3827,130.03,99.7939,101.375,0.00288939,0.119103,20.8743,91.8066,-0.14314,0.0,0.0
4077,1019,55.3595,58.1505,133.003,99.7725,100.753,0.00286056,0.118949,20.8736,91.6764,-0.0890522,0.0,0.0
4086,1021.25,55.6817,58.1799,131.396,99.7209,101.457,0.0028124,0.117725,20.8734,91.5964,-0.157248,0.0,0.0
4095,1023.5,55.066,58.5883,134.931,99.6877,100.871,0.00281579,0.118212,20.8732,91.7165,-0.107489,0.0,0.0
4104,1025.75,55.1053,57.8614,131.44,99.6235,100.519,0.00298075,0.118756,20.8738,91.5864,-0.0815298,0.0,0.0
4113,1028,55.2822,58.5206,132.224,99.558,100.425,0.00308271,0.118745,20.8735,91.5563,-0.0789753,0.0,0.0
4122,1030.25,54.5083,58.3787,131.994,99.4858,100.358,0.00290145,0.117674,20.8746,91.5663,-0.0795109,0.0,0.0
4131,1032.5,54.816,58.2325,132.869,99.3981,100.2,0.00263061,0.116964,20.876,91.6864,-0.0731987,0.0,0.0
4140,1034.75,54.7635,57.7462,133.35,99.3276,100.421,0.00253121,0.116916,20.8771,91.5864,-0.0997512,0.0,0.0
4149,1037,54.914,58.0071,135.938,99.2327,100.236,0.00253147,0.116659,20.8767,91.5663,-0.0915925,0.0,0.0
4158,1039.25,54.4605,58.1331,131.201,99.1798,100.103,0.00261714,0.117819,20.8766,91.5663,-0.0843617,0.0,0.0
4167,1041.5,55.0332,57.8027,133.844,99.0892,99.688,0.00271207,0.119041,20.8765,91.5163,-0.0548795,0.0,0.0
4176,1043.75,55.4029,57.8263,130.641,99.0308,99.9611,0.00273859,0.119366,20.8754,91.4662,-0.0851645,0.0,0.0
4185,1046,54.8611,58.0341,134.853,98.9633,99.9734,0.00271475,0.118597,20.8747,91.5263,-0.0925023,0.0,0.0
4194,1048.25,54.7702,57.1798,131.985,98.9179,99.7167,0.00268416,0.117713,20.8744,91.5363,-0.0732545,0.0,0.0
4203,1050.5,54.5015,58.4091,133.441,98.8533,99.3157,0.00264175,0.11724,20.8757,91.4462,-0.0425023,0.0,0.0
4212,1052.75,54.6874,58.0097,136.035,98.7958,99.8036,0.00269095,0.116762,20.8762,91.4162,-0.0924464,0.0,0.0
4221,1055,54.6934,58.0054,130.694,98.7874,99.9352,0.0028598,0.116553,20.8764,91.4662,-0.105219,0.0,0.0
4230,1057.25,55.0248,57.9051,132.743,98.7555,99.6935,0.0030429,0.117419,20.8765,91.4062,-0.0861027,0.0,0.0
4231,1057.5,54.2423,58.0056,130.82,98.7513,100.259,0.00305695,0.117503,20.8765,91.3261,-0.13804,0.0,0.0