File: 01_Data/Pressure_Treated_Deck/Cone/Pressure_Treated_Deck_HRRPUA_75.csv
Time after Ignition,Pressure_Treated_Deck_R1,Pressure_Treated_Deck_R2,Pressure_Treated_Deck_R3,Mean,Std. Dev.
0.0,27.1,6.8,8.7,14.2,11.2
0.75,25.6,6.7,8.4,13.6,10.4
1.5,23.0,6.8,7.9,12.6,9.0
2.25,20.2,6.9,7.6,11.6,7.5
3.0,17.7,6.6,7.0,10.4,6.3
3.75,15.4,6.3,6.7,9.5,5.1
4.5,13.8,6.2,6.6,8.9,4.3
5.25,12.4,6.1,6.2,8.2,3.6
6.0,11.1,6.1,5.8,7.7,3.0
6.75,10.0,5.8,5.5,7.1,2.5
7.5,9.0,5.9,5.2,6.7,2.0
8.25,8.5,5.9,5.1,6.5,1.8
9.0,7.9,6.2,5.3,6.5,1.3
9.75,10.2,6.3,6.1,7.5,2.3
10.5,17.2,6.3,10.8,11.4,5.4
11.25,29.5,9.4,21.6,20.2,10.1
12.0,45.1,16.9,35.1,32.4,14.3
12.75,64.2,24.0,52.1,46.8,20.7
13.5,82.5,40.1,63.8,62.1,21.3
14.25,106.5,55.5,80.4,80.8,25.5
15.0,127.2,76.4,98.5,100.7,25.5
15.75,149.1,97.2,111.5,119.3,26.8
16.5,167.6,124.1,129.6,140.4,23.7
17.25,188.9,144.6,148.2,160.6,24.6
18.0,198.7,172.2,164.0,178.3,18.2
18.75,208.0,187.7,180.7,192.1,14.2
19.5,224.7,207.1,199.9,210.6,12.8
20.25,232.3,224.3,209.1,221.9,11.8
21.0,243.0,235.7,229.6,236.1,6.7
21.75,255.6,252.2,236.8,248.2,10.0
22.5,260.4,259.9,250.3,256.9,5.7
23.25,266.8,275.1,257.4,266.5,8.8
24.0,277.8,286.9,266.0,276.9,10.5
24.75,278.1,304.2,265.9,282.7,19.6
25.5,287.8,304.7,271.8,288.1,16.5
26.25,291.1,313.8,285.5,296.8,15.0
27.0,289.9,323.3,290.2,301.1,19.2
27.75,293.8,329.3,287.8,303.7,22.4
28.5,293.8,329.6,286.9,303.4,22.9
29.25,295.0,327.7,306.4,309.7,16.6
30.0,301.0,344.2,301.1,315.4,24.9
30.75,303.6,338.8,305.1,315.8,19.9
31.5,311.4,342.5,299.8,317.9,22.1
32.25,313.4,347.9,299.4,320.2,25.0
33.0,305.5,357.7,309.4,324.2,29.1
33.75,317.9,359.9,303.9,327.3,29.1
34.5,310.9,360.6,300.7,324.1,32.0
35.25,312.7,357.5,304.4,324.8,28.6
36.0,314.2,355.5,302.9,324.2,27.7
36.75,305.4,359.4,303.7,322.9,31.7
37.5,311.2,366.8,309.4,329.1,32.7
38.25,307.7,357.3,302.9,322.6,30.1
39.0,306.8,357.6,304.4,323.0,30.1
39.75,307.3,358.4,308.1,324.6,29.3
40.5,304.7,358.4,310.2,324.4,29.5
41.25,311.6,353.8,310.0,325.1,24.8
42.0,306.8,360.0,305.2,324.0,31.2
42.75,313.7,356.2,304.9,324.9,27.4
43.5,307.3,363.7,303.9,325.0,33.6
44.25,311.5,354.4,309.4,325.1,25.4
45.0,311.3,356.0,304.5,323.9,28.0
45.75,314.6,351.9,304.7,323.7,24.9
46.5,305.7,348.0,297.2,317.0,27.2
47.25,306.3,347.7,298.2,317.4,26.5
48.0,300.1,344.9,299.8,314.9,25.9
48.75,310.2,344.4,301.9,318.8,22.5
49.5,305.3,335.5,297.0,312.6,20.3
50.25,305.4,335.7,294.0,311.7,21.6
51.0,304.3,335.5,294.0,311.3,21.6
51.75,300.8,330.6,287.6,306.3,22.0
52.5,303.9,332.4,293.1,309.8,20.3
53.25,298.8,336.1,293.1,309.3,23.4
54.0,298.9,327.6,284.7,303.7,21.9
54.75,300.1,320.8,286.5,302.5,17.3
55.5,291.0,332.0,291.9,305.0,23.4
56.25,291.9,322.6,286.4,300.3,19.5
57.0,290.1,332.2,291.4,304.6,24.0
57.75,282.1,318.7,284.4,295.1,20.5
58.5,285.2,321.4,279.8,295.5,22.6
59.25,281.4,316.8,284.5,294.2,19.6
60.0,281.1,321.7,278.9,293.9,24.1
60.75,282.2,311.5,285.9,293.2,15.9
61.5,277.1,313.2,276.4,288.9,21.0
62.25,285.9,311.1,279.9,292.3,16.5
63.0,276.2,312.9,276.9,288.7,20.9
63.75,276.0,306.3,283.2,288.5,15.8
64.5,278.1,306.8,270.1,285.0,19.3
65.25,278.2,304.8,274.3,285.8,16.6
66.0,276.8,305.3,270.6,284.2,18.5
66.75,274.8,307.5,275.3,285.9,18.7
67.5,265.9,303.3,274.5,281.3,19.6
68.25,261.3,296.9,268.6,275.6,18.8
69.0,266.4,302.5,268.2,279.0,20.4
69.75,267.3,296.2,266.4,276.7,16.9
70.5,263.7,290.1,263.4,272.4,15.3
71.25,264.5,301.4,260.6,275.5,22.5
72.0,261.0,298.3,267.9,275.7,19.8
72.75,262.5,296.6,264.5,274.5,19.1
73.5,261.1,292.3,260.3,271.2,18.2
74.25,259.0,285.4,257.5,267.3,15.7
75.0,260.5,278.1,259.6,266.1,10.4
75.75,261.1,282.4,258.3,267.2,13.2
76.5,257.4,280.3,259.0,265.6,12.7
77.25,255.1,281.6,257.3,264.7,14.7
78.0,250.9,281.5,259.6,264.0,15.8
78.75,253.6,274.0,253.2,260.3,11.9
79.5,246.9,274.9,256.3,259.4,14.3
80.25,248.3,276.2,257.1,260.5,14.3
81.0,246.7,275.0,251.5,257.7,15.1
81.75,249.3,276.2,249.7,258.4,15.4
82.5,249.4,275.5,249.2,258.0,15.1
83.25,248.2,264.6,257.6,256.8,8.2
84.0,248.8,270.1,247.3,255.4,12.8
84.75,243.8,270.2,248.1,254.0,14.2
85.5,245.0,265.0,239.0,249.7,13.6
86.25,244.6,267.5,247.6,253.2,12.4
87.0,240.6,260.3,243.6,248.2,10.6
87.75,247.5,261.4,238.0,249.0,11.7
88.5,245.4,268.8,237.3,250.5,16.4
89.25,243.7,260.1,239.1,247.7,11.1
90.0,241.1,259.2,240.8,247.0,10.5
90.75,238.0,259.2,240.6,245.9,11.5
91.5,246.1,262.9,236.4,248.5,13.4
92.25,240.0,259.7,244.1,247.9,10.4
93.0,238.1,265.6,235.7,246.5,16.6
93.75,240.2,261.9,234.8,245.6,14.4
94.5,240.0,260.2,228.9,243.1,15.9
95.25,238.2,253.5,238.6,243.4,8.7
96.0,236.4,259.0,233.8,243.1,13.8
96.75,235.9,254.2,232.3,240.8,11.7
97.5,233.8,255.3,231.3,240.2,13.2
98.25,236.2,255.2,230.1,240.5,13.1
99.0,232.3,257.7,233.2,241.1,14.4
99.75,233.6,257.0,228.0,239.6,15.4
100.5,233.7,258.5,235.7,242.6,13.8
101.25,230.0,254.3,228.4,237.6,14.5
102.0,229.8,257.8,229.7,239.1,16.2
102.75,233.9,250.8,228.4,237.7,11.7
103.5,228.9,252.4,232.7,238.0,12.6
104.25,229.8,254.6,226.6,237.0,15.3
105.0,228.8,249.8,226.7,235.1,12.8
105.75,236.1,250.3,224.4,237.0,13.0
106.5,230.8,250.2,226.0,235.7,12.8
107.25,226.2,248.5,222.0,232.2,14.2
108.0,228.1,243.4,223.7,231.7,10.4
108.75,228.8,243.0,228.0,233.2,8.4
109.5,232.2,248.3,223.3,234.6,12.7
110.25,226.5,236.0,223.7,228.8,6.5
111.0,226.5,244.4,222.2,231.0,11.8
111.75,230.4,239.3,217.8,229.2,10.8
112.5,231.5,239.1,220.2,230.2,9.5
113.25,230.2,248.7,220.1,233.0,14.5
114.0,226.6,237.8,225.3,229.9,6.8
114.75,226.2,237.4,217.9,227.1,9.8
115.5,227.9,241.0,218.4,229.1,11.4
116.25,223.6,235.1,218.6,225.7,8.5
117.0,220.2,235.3,219.7,225.0,8.9
117.75,224.2,241.5,222.0,229.3,10.7
118.5,225.0,235.4,222.1,227.5,7.0
119.25,222.5,238.4,219.4,226.7,10.2
120.0,223.7,240.5,220.4,228.2,10.8
120.75,224.3,243.0,215.8,227.7,13.9
121.5,218.7,235.2,211.7,221.9,12.1
122.25,223.0,237.2,215.3,225.2,11.1
123.0,215.8,230.4,217.1,221.1,8.1
123.75,214.1,235.1,215.1,221.4,11.8
124.5,219.5,233.6,216.5,223.2,9.2
125.25,216.0,239.9,213.4,223.1,14.6
126.0,217.0,233.1,214.2,221.5,10.2
126.75,214.5,230.4,217.5,220.8,8.4
127.5,211.5,228.8,215.3,218.5,9.1
128.25,212.9,230.0,212.4,218.4,10.0
129.0,210.9,229.8,211.4,217.4,10.8
129.75,210.3,230.9,212.7,218.0,11.3
130.5,211.1,227.9,215.3,218.1,8.7
131.25,214.4,224.8,213.8,217.6,6.2
132.0,210.7,230.5,214.2,218.4,10.5
132.75,211.7,227.2,213.9,217.6,8.4
133.5,211.4,228.1,216.2,218.6,8.6
134.25,209.1,226.6,213.2,216.3,9.1
135.0,205.9,229.3,215.6,217.0,11.8
135.75,208.5,228.8,214.7,217.4,10.4
136.5,207.6,229.3,214.1,217.0,11.2
137.25,210.0,224.9,211.9,215.6,8.1
138.0,206.9,227.0,211.6,215.1,10.5
138.75,208.3,227.1,209.5,215.0,10.5
139.5,207.3,224.5,208.3,213.4,9.6
140.25,206.2,228.3,211.2,215.2,11.6
141.0,207.4,226.8,208.6,214.3,10.9
141.75,204.2,223.2,206.9,211.4,10.3
142.5,203.9,224.0,208.8,212.2,10.5
143.25,203.2,218.7,208.6,210.2,7.9
144.0,201.8,224.9,206.5,211.1,12.2
144.75,201.9,224.5,204.9,210.4,12.3
145.5,203.8,226.8,206.7,212.4,12.5
146.25,205.2,222.6,201.7,209.8,11.2
147.0,207.5,224.3,201.1,210.9,12.0
147.75,204.9,223.6,202.1,210.2,11.7
148.5,208.9,223.5,203.0,211.8,10.6
149.25,200.6,223.6,205.1,209.7,12.2
150.0,206.7,222.7,196.9,208.8,13.0
150.75,199.0,220.4,196.5,205.3,13.1
151.5,201.9,220.3,200.4,207.6,11.1
152.25,200.6,219.0,196.7,205.4,11.9
153.0,200.7,216.9,199.3,205.6,9.7
153.75,199.0,220.0,200.8,206.6,11.7
154.5,200.6,220.1,199.4,206.7,11.6
155.25,201.2,221.6,200.4,207.7,12.0
156.0,201.3,222.0,197.7,207.0,13.1
156.75,205.5,223.3,195.2,208.0,14.2
157.5,202.5,221.5,194.7,206.2,13.8
158.25,199.0,221.5,197.4,206.0,13.5
159.0,197.8,218.8,196.4,204.3,12.6
159.75,199.8,216.6,196.6,204.3,10.8
160.5,200.1,218.6,194.8,204.5,12.5
161.25,200.4,220.3,194.6,205.1,13.5
162.0,199.1,217.6,197.3,204.7,11.2
162.75,196.9,210.4,192.4,199.9,9.3
163.5,197.3,218.3,192.8,202.8,13.6
164.25,195.1,211.8,189.7,198.9,11.5
165.0,196.3,217.4,190.9,201.5,14.0
165.75,198.1,213.1,192.7,201.3,10.6
166.5,196.4,212.9,188.1,199.1,12.6
167.25,198.6,217.0,191.3,202.3,13.2
168.0,195.2,216.7,193.6,201.9,12.9
168.75,193.4,212.8,191.5,199.2,11.7
169.5,198.9,213.3,188.0,200.1,12.7
170.25,194.3,217.4,188.5,200.1,15.2
171.0,196.7,215.9,189.8,200.8,13.5
171.75,193.3,211.9,189.2,198.1,12.1
172.5,193.4,215.0,189.6,199.3,13.7
173.25,197.9,212.7,188.6,199.7,12.2
174.0,195.0,213.3,188.5,198.9,12.8
174.75,195.0,213.2,190.7,199.6,12.0
175.5,191.8,212.2,186.1,196.7,13.7
176.25,197.0,214.2,189.8,200.4,12.5
177.0,196.2,210.6,185.6,197.5,12.6
177.75,192.9,205.7,188.6,195.7,8.9
178.5,197.1,212.6,186.3,198.7,13.2
179.25,194.3,207.4,191.9,197.9,8.3
180.0,196.8,207.6,188.3,197.6,9.7
180.75,197.2,210.8,187.9,198.6,11.6
181.5,193.1,210.0,190.4,197.8,10.6
182.25,196.4,209.2,190.8,198.8,9.5
183.0,191.2,206.9,187.2,195.1,10.4
183.75,198.1,208.6,186.8,197.8,10.9
184.5,200.5,211.5,190.5,200.8,10.5
185.25,193.8,207.9,186.2,196.0,11.1
186.0,195.2,205.3,188.4,196.3,8.5
186.75,200.0,206.6,187.5,198.0,9.7
187.5,197.3,201.5,189.2,196.0,6.2
188.25,197.6,203.6,185.6,195.6,9.2
189.0,195.9,200.4,191.0,195.8,4.7
189.75,196.5,204.0,187.9,196.2,8.0
190.5,197.4,204.6,188.5,196.8,8.1
191.25,195.4,203.5,190.4,196.4,6.6
192.0,195.1,204.9,186.1,195.4,9.4
192.75,196.7,206.1,189.2,197.3,8.5
193.5,197.3,205.3,185.3,196.0,10.1
194.25,195.5,204.1,188.8,196.1,7.6
195.0,194.1,206.8,186.4,195.8,10.3
195.75,191.4,202.8,186.5,193.6,8.4
196.5,191.4,201.4,187.5,193.4,7.2
197.25,193.9,201.6,184.2,193.3,8.7
198.0,194.6,201.9,183.7,193.4,9.1
198.75,189.3,203.7,183.4,192.1,10.5
199.5,191.0,200.5,182.8,191.4,8.9
200.25,190.2,202.7,187.9,193.6,8.0
201.0,190.9,198.8,186.3,192.0,6.3
201.75,193.2,201.3,186.1,193.6,7.6
202.5,192.5,200.7,188.0,193.7,6.5
203.25,190.5,199.0,186.1,191.9,6.6
204.0,191.7,199.8,188.0,193.1,6.1
204.75,192.3,199.8,184.7,192.3,7.6
205.5,192.1,201.0,183.8,192.3,8.6
206.25,188.0,198.3,182.8,189.7,7.9
207.0,192.5,196.5,188.4,192.4,4.1
207.75,190.1,200.6,184.6,191.7,8.1
208.5,189.5,197.0,185.1,190.5,6.0
209.25,189.2,198.9,180.3,189.5,9.3
210.0,189.8,198.8,185.0,191.2,7.0
210.75,189.2,194.1,186.4,189.9,3.9
211.5,190.7,199.5,182.8,191.0,8.3
212.25,186.8,195.9,181.6,188.1,7.2
213.0,190.4,195.9,183.7,190.0,6.1
213.75,188.9,197.2,183.7,189.9,6.8
214.5,189.0,195.6,183.6,189.4,6.0
215.25,186.4,194.5,177.8,186.3,8.4
216.0,187.5,198.4,179.7,188.5,9.4
216.75,186.9,195.4,180.4,187.6,7.6
217.5,183.0,196.6,180.3,186.6,8.8
218.25,188.1,197.0,177.5,187.5,9.7
219.0,188.9,201.9,179.7,190.2,11.1
219.75,186.5,195.6,179.7,187.3,8.0
220.5,187.6,191.1,183.4,187.4,3.8
221.25,186.7,191.1,181.6,186.5,4.8
222.0,188.0,191.7,178.6,186.1,6.7
222.75,183.2,193.0,181.2,185.8,6.3
223.5,193.1,190.2,183.1,188.8,5.1
224.25,185.3,190.6,182.4,186.1,4.2
225.0,186.0,192.0,182.1,186.7,5.0
225.75,183.0,193.8,182.6,186.5,6.3
226.5,188.0,191.8,183.7,187.8,4.0
227.25,184.8,188.0,185.2,186.0,1.7
228.0,183.6,189.8,183.2,185.5,3.7
228.75,183.3,191.8,182.8,186.0,5.1
229.5,186.4,186.5,181.7,184.9,2.7
230.25,182.9,191.8,182.2,185.6,5.4
231.0,182.3,189.1,184.9,185.4,3.4
231.75,189.8,191.7,186.3,189.2,2.8
232.5,184.3,192.8,182.1,186.4,5.7
233.25,183.6,192.2,183.6,186.5,5.0
234.0,183.1,190.0,181.0,184.7,4.7
234.75,184.4,190.1,184.9,186.5,3.2
235.5,181.4,189.7,186.2,185.8,4.2
236.25,184.6,187.2,182.3,184.7,2.5
237.0,182.0,191.0,180.3,184.4,5.7
237.75,183.4,190.1,180.7,184.8,4.8
238.5,184.2,187.8,181.7,184.6,3.0
239.25,185.1,190.2,182.3,185.9,4.0
240.0,185.5,190.7,182.7,186.3,4.1
240.75,184.7,190.5,183.2,186.1,3.9
241.5,185.2,189.8,180.1,185.0,4.8
242.25,187.2,188.8,182.6,186.2,3.2
243.0,185.3,190.1,182.5,186.0,3.9
243.75,182.2,189.8,185.6,185.9,3.8
244.5,186.0,189.2,182.6,186.0,3.3
245.25,182.6,189.5,179.6,183.9,5.1
246.0,181.0,189.3,182.1,184.1,4.5
246.75,180.1,187.1,180.8,182.7,3.8
247.5,179.3,187.2,180.2,182.2,4.4
248.25,185.5,185.9,181.9,184.4,2.2
249.0,183.8,190.3,178.7,184.3,5.8
249.75,186.8,187.1,178.5,184.1,4.9
250.5,180.9,189.7,178.1,182.9,6.1
251.25,181.4,190.1,180.1,183.9,5.4
252.0,181.7,188.9,180.3,183.6,4.6
252.75,181.9,194.7,179.6,185.4,8.1
253.5,182.5,191.0,179.5,184.3,5.9
254.25,180.6,188.7,179.5,182.9,5.0
255.0,179.1,190.2,179.5,182.9,6.3
255.75,178.7,190.5,179.7,183.0,6.5
256.5,179.8,190.1,181.8,183.9,5.5
257.25,182.8,192.7,180.6,185.4,6.5
258.0,184.4,186.7,179.3,183.5,3.8
258.75,180.5,189.1,183.9,184.5,4.3
259.5,180.7,185.1,180.4,182.1,2.6
260.25,179.1,189.3,177.2,181.9,6.5
261.0,179.6,187.9,178.3,181.9,5.2
261.75,183.0,186.2,179.7,182.9,3.2
262.5,184.1,188.8,178.6,183.8,5.1
263.25,181.5,185.2,178.8,181.8,3.2
264.0,180.0,187.1,178.5,181.9,4.6
264.75,180.3,185.7,178.4,181.4,3.8
265.5,180.7,187.9,174.8,181.1,6.6
266.25,181.5,186.9,175.2,181.2,5.8
267.0,184.5,183.2,176.8,181.5,4.1
267.75,180.9,184.7,177.0,180.9,3.8
268.5,176.7,191.4,178.2,182.1,8.1
269.25,183.2,187.2,172.3,180.9,7.7
270.0,177.7,186.8,176.6,180.4,5.6
270.75,179.7,185.8,175.7,180.4,5.1
271.5,181.9,183.4,176.3,180.5,3.7
272.25,182.7,187.4,177.4,182.5,5.0
273.0,180.8,185.3,173.9,180.0,5.7
273.75,181.1,189.5,178.9,183.2,5.6
274.5,178.7,190.1,173.3,180.7,8.6
275.25,180.6,187.3,179.1,182.3,4.3
276.0,180.9,188.5,177.1,182.2,5.8
276.75,180.3,188.7,178.1,182.3,5.6
277.5,181.0,190.5,173.3,181.6,8.6
278.25,181.4,189.1,178.8,183.1,5.3
279.0,178.4,188.8,172.4,179.9,8.3
279.75,179.0,190.0,173.0,180.7,8.6
280.5,179.0,187.1,172.9,179.6,7.1
281.25,181.8,187.6,172.6,180.7,7.6
282.0,181.8,187.4,173.7,181.0,6.9
282.75,182.6,191.3,176.5,183.5,7.4
283.5,184.5,190.3,173.3,182.7,8.6
284.25,180.3,184.5,171.5,178.8,6.7
285.0,180.2,185.2,174.6,180.0,5.3
285.75,180.0,184.7,171.5,178.7,6.7
286.5,181.0,185.7,174.8,180.5,5.5
287.25,183.9,183.5,170.2,179.2,7.8
288.0,184.5,184.5,171.1,180.0,7.7
288.75,182.1,182.3,170.8,178.4,6.6
289.5,184.2,183.4,173.0,180.2,6.2
290.25,181.7,185.8,173.3,180.2,6.4
291.0,183.1,185.4,173.3,180.6,6.4
291.75,181.9,184.3,171.0,179.1,7.1
292.5,182.2,182.9,175.2,180.1,4.2
293.25,180.8,183.5,174.2,179.5,4.8
294.0,180.7,184.6,172.5,179.3,6.2
294.75,179.8,183.6,170.6,178.0,6.7
295.5,179.2,183.8,174.0,179.0,4.9
296.25,180.1,183.3,176.2,179.9,3.6
297.0,182.3,182.2,172.8,179.1,5.4
297.75,180.3,181.6,175.5,179.2,3.2
298.5,180.7,183.9,174.5,179.7,4.8
299.25,180.4,183.6,171.3,178.4,6.4
300.0,184.0,184.6,176.6,181.7,4.5
300.75,182.8,183.2,176.1,180.7,4.0
301.5,182.2,182.4,176.1,180.2,3.6
302.25,181.9,183.8,176.1,180.6,4.0
303.0,185.5,183.6,175.2,181.4,5.4
303.75,181.0,185.2,176.0,180.7,4.6
304.5,183.0,184.2,176.2,181.1,4.3
305.25,184.3,183.4,178.4,182.0,3.2
306.0,186.6,184.9,175.2,182.3,6.2
306.75,181.4,178.4,179.4,179.7,1.5
307.5,187.7,185.5,177.9,183.7,5.1
308.25,184.6,179.9,173.6,179.3,5.5
309.0,184.2,181.2,174.2,179.9,5.1
309.75,185.5,183.2,176.6,181.8,4.7
310.5,182.1,180.8,177.4,180.1,2.4
311.25,184.2,180.8,174.6,179.9,4.9
312.0,179.1,182.8,173.1,178.3,4.9
312.75,181.3,183.3,176.3,180.3,3.6
313.5,181.6,180.9,175.7,179.4,3.2
314.25,184.4,183.4,175.7,181.2,4.8
315.0,184.2,183.7,175.9,181.3,4.7
315.75,182.4,181.5,174.0,179.3,4.6
316.5,181.8,183.2,172.2,179.1,5.9
317.25,187.8,182.3,174.7,181.6,6.6
318.0,186.9,180.8,174.0,180.5,6.5
318.75,182.1,185.8,174.5,180.8,5.8
319.5,184.4,182.7,172.8,180.0,6.3
320.25,184.8,184.4,173.8,181.0,6.2
321.0,184.5,187.1,174.2,181.9,6.8
321.75,184.5,182.0,172.2,179.6,6.5
322.5,183.9,183.3,173.6,180.3,5.8
323.25,182.9,183.7,171.4,179.4,6.9
324.0,183.7,185.1,170.2,179.6,8.2
324.75,185.6,184.4,172.3,180.7,7.4
325.5,184.1,184.2,170.6,179.6,7.8
326.25,183.7,185.5,172.2,180.5,7.2
327.0,184.5,186.0,171.9,180.8,7.8
327.75,182.9,185.4,173.3,180.6,6.4
328.5,189.2,183.5,170.0,180.9,9.9
329.25,181.4,182.2,169.9,177.8,6.9
330.0,185.0,184.6,168.6,179.4,9.3
330.75,185.1,182.1,172.8,180.0,6.4
331.5,181.7,183.5,172.4,179.2,6.0
332.25,182.8,186.9,171.9,180.5,7.7
333.0,183.2,181.5,174.1,179.6,4.9
333.75,182.0,182.8,167.0,177.3,8.9
334.5,182.8,182.8,169.2,178.2,7.9
335.25,183.0,186.6,168.9,179.5,9.4
336.0,183.1,184.4,171.0,179.5,7.4
336.75,183.4,183.7,171.5,179.5,7.0
337.5,181.4,185.0,170.3,178.9,7.6
338.25,184.9,183.6,168.8,179.1,9.0
339.0,187.3,183.5,173.6,181.4,7.1
339.75,185.3,186.4,170.8,180.8,8.7
340.5,184.8,185.3,169.4,179.8,9.1
341.25,187.0,186.6,168.1,180.5,10.8
342.0,183.5,186.4,171.7,180.6,7.8
342.75,186.6,182.7,168.8,179.3,9.4
343.5,186.1,181.7,172.8,180.2,6.8
344.25,184.0,184.2,170.4,179.5,7.9
345.0,184.0,180.8,171.8,178.9,6.3
345.75,187.1,183.2,168.4,179.6,9.9
346.5,185.3,183.5,173.7,180.8,6.2
347.25,185.6,183.2,172.8,180.5,6.8
348.0,181.2,180.6,172.9,178.3,4.6
348.75,185.2,183.2,169.2,179.2,8.7
349.5,188.6,184.6,172.2,181.8,8.5
350.25,184.9,185.5,171.2,180.6,8.1
351.0,181.7,183.5,167.5,177.6,8.7
351.75,179.6,181.4,169.3,176.8,6.5
352.5,182.5,182.8,172.3,179.2,6.0
353.25,181.5,180.6,174.5,178.9,3.8
354.0,184.4,180.8,168.3,177.8,8.5
354.75,186.6,183.9,167.2,179.3,10.5
355.5,180.2,183.2,168.4,177.3,7.8
356.25,190.4,182.0,167.1,179.9,11.8
357.0,187.0,182.6,170.2,180.0,8.7
357.75,183.0,183.7,168.9,178.5,8.3
358.5,183.4,181.7,168.6,177.9,8.1
359.25,183.2,182.9,170.3,178.8,7.4
360.0,182.0,181.7,170.4,178.0,6.6
360.75,183.5,185.5,168.1,179.0,9.5
361.5,184.0,186.6,168.4,179.7,9.8
362.25,187.0,181.1,169.2,179.1,9.1
363.0,181.9,182.6,170.8,178.5,6.6
363.75,183.3,182.1,169.2,178.2,7.8
364.5,184.2,183.4,170.7,179.4,7.6
365.25,185.0,184.1,172.5,180.5,7.0
366.0,189.2,187.7,170.4,182.5,10.5
366.75,187.0,183.9,174.2,181.7,6.7
367.5,186.1,188.3,172.8,182.4,8.4
368.25,187.9,184.0,176.1,182.6,6.0
369.0,189.0,190.3,175.8,185.0,8.0
369.75,189.3,188.3,173.2,183.6,9.1
370.5,190.7,186.8,174.4,183.9,8.5
371.25,190.6,186.2,174.5,183.7,8.3
372.0,189.0,185.8,173.2,182.6,8.3
372.75,189.7,186.7,175.6,184.0,7.4
373.5,189.6,183.7,174.4,182.5,7.7
374.25,192.0,186.0,176.1,184.7,8.1
375.0,189.8,186.5,172.5,182.9,9.2
375.75,189.5,185.8,173.0,182.8,8.6
376.5,189.5,183.4,171.8,181.6,9.0
377.25,190.4,184.6,174.1,183.0,8.3
378.0,189.9,186.9,174.6,183.8,8.1
378.75,190.2,186.0,172.3,182.9,9.4
379.5,188.9,184.5,176.1,183.2,6.5
380.25,189.5,193.1,173.3,185.3,10.6
381.0,189.5,184.9,173.1,182.5,8.5
381.75,193.3,187.2,173.0,184.5,10.4
382.5,192.4,186.8,177.1,185.4,7.8
383.25,189.6,188.5,173.7,183.9,8.9
384.0,190.2,185.3,176.0,183.8,7.2
384.75,184.6,187.9,174.9,182.4,6.7
385.5,191.0,186.9,175.6,184.5,8.0
386.25,193.4,187.7,174.3,185.2,9.8
387.0,192.3,186.6,178.6,185.8,6.9
387.75,189.7,186.7,176.7,184.4,6.8
388.5,194.8,186.9,177.5,186.4,8.7
389.25,192.2,187.4,177.3,185.6,7.6
390.0,191.0,188.6,178.4,186.0,6.7
390.75,190.8,186.6,177.7,185.1,6.7
391.5,192.3,189.0,180.3,187.2,6.2
392.25,193.5,185.9,176.5,185.3,8.5
393.0,191.8,187.7,179.8,186.4,6.1
393.75,192.5,189.1,178.9,186.9,7.1
394.5,191.2,187.8,177.5,185.5,7.1
395.25,190.8,186.2,177.5,184.8,6.8
396.0,187.1,191.8,177.7,185.5,7.2
396.75,192.3,186.6,181.1,186.7,5.6
397.5,189.8,184.6,176.1,183.5,6.9
398.25,192.7,190.6,179.0,187.4,7.4
399.0,189.3,193.1,177.3,186.6,8.3
399.75,189.1,188.7,176.9,184.9,7.0
400.5,189.1,186.3,183.8,186.4,2.7
401.25,190.7,188.9,179.2,186.3,6.2
402.0,185.7,184.4,182.8,184.3,1.5
402.75,190.3,188.4,183.1,187.3,3.7
403.5,192.4,184.4,181.2,186.0,5.8
404.25,187.9,190.9,179.6,186.1,5.8
405.0,190.8,189.4,183.5,187.9,3.9
405.75,194.8,191.3,180.8,189.0,7.3
406.5,190.0,188.9,183.2,187.4,3.7
407.25,190.6,189.6,186.5,188.9,2.2
408.0,192.2,193.2,181.2,188.9,6.7
408.75,192.5,194.8,185.1,190.8,5.1
409.5,188.5,191.4,182.4,187.4,4.5
410.25,191.3,191.1,186.4,189.6,2.8
411.0,191.1,191.5,185.4,189.3,3.4
411.75,191.5,191.4,185.1,189.3,3.7
412.5,190.1,192.0,185.9,189.3,3.2
413.25,191.4,194.6,183.1,189.7,5.9
414.0,188.4,193.2,183.4,188.3,4.9
414.75,192.8,194.9,185.8,191.2,4.7
415.5,191.2,192.6,185.1,189.6,4.0
416.25,193.9,191.3,185.6,190.3,4.3
417.0,191.2,194.4,183.5,189.7,5.6
417.75,193.2,194.6,184.9,190.9,5.2
418.5,189.9,191.2,183.4,188.2,4.2
419.25,187.1,193.2,184.3,188.2,4.5
420.0,186.1,197.0,186.1,189.8,6.3
420.75,189.3,193.5,183.3,188.7,5.1
421.5,186.8,197.0,185.1,189.6,6.5
422.25,190.5,193.6,185.5,189.9,4.1
423.0,189.2,195.5,184.3,189.7,5.6
423.75,192.9,197.2,183.0,191.1,7.3
424.5,189.7,196.6,183.6,190.0,6.5
425.25,191.4,198.5,187.0,192.3,5.8
426.0,191.7,196.7,187.3,191.9,4.7
426.75,194.1,197.8,182.2,191.4,8.1
427.5,192.6,197.4,184.9,191.6,6.3
428.25,194.3,198.2,186.2,192.9,6.1
429.0,192.4,198.3,189.8,193.5,4.4
429.75,196.6,198.9,184.7,193.4,7.6
430.5,195.0,198.4,190.1,194.5,4.2
431.25,192.7,198.1,187.5,192.8,5.3
432.0,193.6,200.1,185.4,193.0,7.4
432.75,193.6,199.4,184.9,192.6,7.3
433.5,194.4,197.0,192.5,194.6,2.3
434.25,193.1,195.9,187.0,192.0,4.6
435.0,193.2,196.3,186.8,192.1,4.8
435.75,193.2,197.5,185.9,192.2,5.8
436.5,195.1,197.3,188.3,193.6,4.7
437.25,194.8,199.2,189.0,194.3,5.2
438.0,195.8,200.9,186.6,194.4,7.2
438.75,190.5,197.9,185.2,191.2,6.4
439.5,195.2,200.0,188.8,194.7,5.6
440.25,194.3,197.3,184.5,192.0,6.7
441.0,197.4,199.8,185.3,194.2,7.7
441.75,196.2,200.6,187.5,194.7,6.7
442.5,195.3,201.0,186.3,194.2,7.4
443.25,196.2,200.5,188.3,195.0,6.2
444.0,192.2,203.7,189.5,195.1,7.5
444.75,196.8,200.7,187.0,194.8,7.1
445.5,195.5,198.6,183.6,192.5,7.9
446.25,194.7,204.1,185.9,194.9,9.1
447.0,198.4,203.1,190.3,197.3,6.5
447.75,200.0,200.7,189.4,196.7,6.3
448.5,196.7,203.9,187.9,196.2,8.0
449.25,194.6,199.8,189.3,194.6,5.2
450.0,194.7,205.2,187.7,195.9,8.8
450.75,197.2,205.3,190.5,197.6,7.4
451.5,196.0,203.6,187.9,195.8,7.8
452.25,196.6,202.9,187.8,195.8,7.6
453.0,194.2,203.7,189.2,195.7,7.4
453.75,196.1,206.2,191.2,197.8,7.6
454.5,194.8,204.4,188.7,196.0,7.9
455.25,193.4,201.6,188.9,194.6,6.4
456.0,200.5,205.0,186.6,197.4,9.6
456.75,201.7,202.4,188.1,197.4,8.1
457.5,200.2,205.9,190.6,198.9,7.7
458.25,199.0,205.6,186.5,197.0,9.7
459.0,197.3,207.2,187.5,197.4,9.8
459.75,200.0,208.4,188.0,198.8,10.3
460.5,202.0,206.3,190.2,199.5,8.3
461.25,200.9,205.2,185.8,197.3,10.2
462.0,197.2,205.5,187.1,196.6,9.2
462.75,203.4,205.8,187.3,198.8,10.1
463.5,200.5,208.1,187.2,198.6,10.6
464.25,199.8,205.6,188.3,197.9,8.8
465.0,203.3,209.2,190.0,200.9,9.8
465.75,196.7,203.3,188.9,196.3,7.2
466.5,200.7,209.1,187.7,199.2,10.8
467.25,202.9,208.0,189.9,200.3,9.3
468.0,204.6,201.4,190.6,198.9,7.3
468.75,205.9,205.9,194.5,202.1,6.6
469.5,205.1,207.8,193.5,202.1,7.6
470.25,201.0,211.8,190.0,201.0,10.9
471.0,202.0,212.0,191.1,201.7,10.5
471.75,204.7,209.6,189.5,201.3,10.5
472.5,203.5,215.0,190.2,202.9,12.5
473.25,203.3,213.9,197.0,204.7,8.6
474.0,204.4,220.7,192.3,205.8,14.3
474.75,203.4,215.8,191.2,203.5,12.3
475.5,202.2,214.6,193.2,203.3,10.8
476.25,206.5,215.5,194.7,205.6,10.4
477.0,203.5,214.4,190.0,202.6,12.3
477.75,206.7,211.2,192.5,203.5,9.8
478.5,200.8,210.8,190.0,200.5,10.4
479.25,204.4,213.1,192.5,203.3,10.3
480.0,205.4,212.8,193.3,203.8,9.8
480.75,206.6,213.0,194.8,204.8,9.2
481.5,205.5,216.3,196.0,205.9,10.1
482.25,206.9,215.5,191.8,204.7,12.0
483.0,205.3,218.8,195.5,206.5,11.7
483.75,206.9,217.1,194.2,206.1,11.5
484.5,204.5,219.6,195.5,206.5,12.2
485.25,203.0,220.6,195.8,206.5,12.8
486.0,204.4,219.6,196.0,206.6,12.0
486.75,209.2,216.7,198.2,208.1,9.3
487.5,202.3,220.7,199.0,207.3,11.7
488.25,205.1,216.9,197.1,206.4,10.0
489.0,202.0,220.9,195.1,206.0,13.4
489.75,207.6,218.5,197.4,207.8,10.5
490.5,205.7,221.1,198.5,208.4,11.5
491.25,205.2,221.3,195.9,207.4,12.8
492.0,206.0,221.2,196.1,207.7,12.7
492.75,205.1,219.8,196.6,207.2,11.7
493.5,206.1,221.1,193.0,206.7,14.1
494.25,208.3,221.7,193.7,207.9,14.0
495.0,205.4,223.7,197.4,208.8,13.5
495.75,202.1,217.2,199.5,206.2,9.5
496.5,203.9,219.3,203.0,208.7,9.2
497.25,207.5,215.8,195.9,206.4,10.0
498.0,206.8,217.7,196.6,207.0,10.5
498.75,208.6,218.7,199.4,208.9,9.6
499.5,203.5,216.5,196.5,205.5,10.1
500.25,204.3,218.3,199.9,207.5,9.6
501.0,206.0,216.0,196.7,206.2,9.6
501.75,206.6,219.3,198.9,208.3,10.3
502.5,205.9,221.4,200.4,209.2,10.9
503.25,206.1,222.1,201.0,209.7,11.0
504.0,202.6,224.8,193.7,207.0,16.0
504.75,203.0,220.0,196.7,206.5,12.1
505.5,204.3,220.0,200.9,208.4,10.2
506.25,204.4,221.9,200.3,208.8,11.5
507.0,205.6,224.8,196.8,209.1,14.3
507.75,201.6,224.3,198.8,208.3,14.0
508.5,207.0,221.7,204.2,211.0,9.4
509.25,201.7,219.2,205.6,208.8,9.2
510.0,207.2,221.3,205.1,211.2,8.8
510.75,207.0,226.6,200.0,211.2,13.8
511.5,203.6,226.9,202.7,211.1,13.7
512.25,205.1,221.4,203.8,210.1,9.8
513.0,204.7,222.1,205.5,210.8,9.8
513.75,205.2,221.5,200.7,209.1,11.0
514.5,205.5,227.1,203.1,211.9,13.2
515.25,208.7,221.5,207.0,212.4,7.9
516.0,206.4,221.7,211.4,213.1,7.8
516.75,211.3,225.0,205.9,214.1,9.8
517.5,205.0,228.4,205.7,213.0,13.3
518.25,204.9,223.6,205.6,211.4,10.6
519.0,204.5,225.1,211.2,213.6,10.5
519.75,207.9,220.0,211.8,213.3,6.2
520.5,206.8,219.3,209.0,211.7,6.6
521.25,204.8,221.3,208.6,211.6,8.6
522.0,206.6,218.7,208.1,211.1,6.6
522.75,205.9,220.6,207.5,211.3,8.0
523.5,206.1,224.2,212.2,214.2,9.2
524.25,206.2,221.1,213.6,213.6,7.4
525.0,206.4,222.2,211.6,213.4,8.1
525.75,204.6,221.5,209.0,211.7,8.7
526.5,206.4,225.5,205.0,212.3,11.5
527.25,203.3,220.6,213.7,212.5,8.7
528.0,206.9,222.0,211.3,213.4,7.8
528.75,205.1,218.1,209.3,210.8,6.6
529.5,207.3,222.9,208.7,213.0,8.7
530.25,208.0,221.1,209.3,212.8,7.2
531.0,206.9,222.1,210.0,213.0,8.0
531.75,207.1,220.2,210.1,212.5,6.8
532.5,206.2,220.9,211.2,212.8,7.5
533.25,205.5,219.0,207.5,210.7,7.3
534.0,208.7,218.4,209.9,212.3,5.3
534.75,204.0,221.7,207.2,211.0,9.5
535.5,206.2,221.8,209.3,212.4,8.3
536.25,211.4,221.4,209.6,214.1,6.3
537.0,209.4,220.6,205.9,212.0,7.6
537.75,209.5,218.4,209.5,212.5,5.2
538.5,208.1,221.5,207.3,212.3,8.0
539.25,210.4,220.7,208.4,213.2,6.6
540.0,212.2,220.0,209.3,213.8,5.5
540.75,208.7,222.3,210.8,213.9,7.3
541.5,206.6,217.2,206.6,210.1,6.1
542.25,207.9,217.8,207.1,210.9,6.0
543.0,206.2,219.9,209.4,211.9,7.2
543.75,209.6,218.1,207.6,211.8,5.6
544.5,211.0,220.9,207.9,213.3,6.8
545.25,209.4,217.3,209.5,212.1,4.6
546.0,204.3,220.0,213.2,212.5,7.9
546.75,209.8,218.8,212.2,213.6,4.6
547.5,212.3,224.2,210.4,215.6,7.5
548.25,216.3,213.8,213.1,214.4,1.7
549.0,209.4,219.2,214.5,214.4,4.9
549.75,210.5,213.7,212.9,212.4,1.6
550.5,213.7,213.6,218.1,215.1,2.6
551.25,214.6,219.1,216.3,216.7,2.3
552.0,213.0,217.8,213.8,214.9,2.6
552.75,212.5,215.8,215.1,214.5,1.7
553.5,214.1,216.3,215.6,215.3,1.1
554.25,210.8,216.5,214.4,213.9,2.8
555.0,213.1,221.0,214.3,216.1,4.2
555.75,212.1,220.0,212.4,214.8,4.5
556.5,213.6,216.2,216.0,215.3,1.4
557.25,214.0,216.7,213.9,214.8,1.6
558.0,216.1,220.3,213.6,216.7,3.4
558.75,215.6,215.0,215.1,215.2,0.3
559.5,217.3,214.2,216.2,215.9,1.6
560.25,215.8,219.1,219.3,218.1,2.0
561.0,220.7,213.8,221.4,218.6,4.2
561.75,218.1,216.9,219.2,218.1,1.1
562.5,216.3,216.9,222.5,218.5,3.4
563.25,212.8,208.4,216.8,212.7,4.2
564.0,218.0,214.4,217.0,216.4,1.9
564.75,216.1,214.4,223.0,217.8,4.5
565.5,214.3,212.1,220.8,215.7,4.5
566.25,216.4,216.6,218.7,217.2,1.3
567.0,218.5,213.0,219.4,217.0,3.5
567.75,218.6,213.7,217.4,216.6,2.5
568.5,216.4,210.4,223.3,216.7,6.4
569.25,218.3,212.4,219.6,216.8,3.8
570.0,217.3,211.0,218.8,215.7,4.1
570.75,217.1,213.3,219.4,216.6,3.1
571.5,216.9,214.2,213.3,214.8,1.9
572.25,218.6,216.0,218.6,217.7,1.5
573.0,216.9,212.0,218.6,215.8,3.4
573.75,214.1,217.2,218.9,216.7,2.5
574.5,219.0,211.9,217.0,216.0,3.6
575.25,220.4,212.7,218.7,217.3,4.0
576.0,216.1,213.6,221.3,217.0,3.9
576.75,220.2,215.8,222.8,219.6,3.6
577.5,220.0,217.0,223.6,220.2,3.3
578.25,219.0,215.8,222.0,218.9,3.1
579.0,221.5,215.7,225.3,220.8,4.9
579.75,221.3,215.7,218.6,218.5,2.8
580.5,223.4,213.4,225.4,220.7,6.4
581.25,218.5,215.1,222.1,218.5,3.5
582.0,224.3,217.5,226.7,222.8,4.8
582.75,221.2,217.6,223.4,220.7,3.0
583.5,224.9,214.7,223.4,221.0,5.5
584.25,225.9,214.2,220.4,220.2,5.8
585.0,228.7,217.1,223.4,223.1,5.8
585.75,224.6,215.9,224.0,221.5,4.9
586.5,227.9,218.4,223.5,223.3,4.7
587.25,226.3,212.8,224.1,221.1,7.2
588.0,227.2,216.9,225.3,223.1,5.5
588.75,223.3,214.8,223.9,220.7,5.1
589.5,229.4,216.8,221.6,222.6,6.3
590.25,223.5,218.1,229.1,223.6,5.5
591.0,224.9,216.9,224.2,222.0,4.4
591.75,222.1,212.3,223.0,219.1,5.9
592.5,226.2,211.7,224.9,220.9,8.0
593.25,228.1,216.5,225.1,223.2,6.0
594.0,231.5,216.0,225.7,224.4,7.9
594.75,227.1,212.3,221.4,220.3,7.4
595.5,227.3,211.2,229.3,222.6,9.9
596.25,226.1,213.9,220.1,220.0,6.1
597.0,224.2,215.8,224.4,221.5,4.9
597.75,227.3,213.8,225.0,222.0,7.2
598.5,227.4,216.7,226.9,223.7,6.0
599.25,224.8,215.2,223.1,221.0,5.1
600.0,230.7,209.0,227.3,222.3,11.7
600.75,225.9,215.3,223.6,221.6,5.6
601.5,229.3,210.5,225.6,221.8,10.0
602.25,229.9,214.4,223.8,222.7,7.9
603.0,227.2,218.0,224.3,223.2,4.7
603.75,229.6,215.5,228.5,224.5,7.8
604.5,233.5,214.7,226.7,225.0,9.5
605.25,227.3,213.4,230.5,223.7,9.1
606.0,230.7,211.3,226.8,222.9,10.3
606.75,231.2,213.0,226.0,223.4,9.4
607.5,232.9,215.2,231.2,226.4,9.8
608.25,226.7,215.0,226.4,222.7,6.7
609.0,226.3,217.6,229.8,224.6,6.3
609.75,233.6,212.6,228.8,225.0,11.0
610.5,231.6,207.9,227.7,222.4,12.7
611.25,232.3,211.9,227.0,223.8,10.6
612.0,236.3,217.6,228.4,227.4,9.4
612.75,231.9,217.4,222.2,223.9,7.4
613.5,230.5,216.2,229.6,225.4,8.0
614.25,233.9,216.8,229.0,226.6,8.8
615.0,232.4,213.6,228.3,224.8,9.9
615.75,234.3,210.6,230.0,225.0,12.6
616.5,232.2,216.0,228.4,225.6,8.5
617.25,237.3,215.0,226.5,226.3,11.1
618.0,238.9,216.4,229.8,228.4,11.3
618.75,235.0,214.6,229.1,226.2,10.5
619.5,233.8,214.7,225.5,224.7,9.5
620.25,233.8,211.4,226.1,223.8,11.4
621.0,229.5,209.7,224.7,221.3,10.3
621.75,232.3,214.7,225.9,224.3,8.9
622.5,231.3,214.8,220.8,222.3,8.3
623.25,231.2,215.6,223.7,223.5,7.8
624.0,232.9,213.6,222.8,223.1,9.7
624.75,233.3,213.7,224.7,223.9,9.8
625.5,229.4,214.3,230.4,224.7,9.0
626.25,230.6,212.6,228.3,223.8,9.8
627.0,233.5,209.3,226.3,223.0,12.4
627.75,230.9,209.7,222.7,221.1,10.7
628.5,229.1,214.6,230.2,224.6,8.7
629.25,232.3,212.4,228.1,224.3,10.5
630.0,231.0,213.7,234.2,226.3,11.0
630.75,228.6,209.7,227.8,222.0,10.7
631.5,229.4,210.5,229.7,223.2,11.0
632.25,229.2,211.1,229.4,223.3,10.5
633.0,231.2,214.8,227.6,224.5,8.6
633.75,231.4,212.5,226.3,223.4,9.8
634.5,230.8,211.1,230.9,224.3,11.4
635.25,227.8,210.3,225.5,221.2,9.5
636.0,227.6,210.1,230.5,222.7,11.0
636.75,229.1,204.3,229.7,221.0,14.5
637.5,226.8,207.4,233.0,222.4,13.3
638.25,225.7,205.4,232.8,221.3,14.2
639.0,226.4,210.3,234.0,223.6,12.1
639.75,226.8,206.4,234.2,222.5,14.4
640.5,222.2,207.5,227.2,219.0,10.3
641.25,229.2,207.1,228.6,221.6,12.6
642.0,228.4,212.7,231.9,224.4,10.2
642.75,226.5,209.3,235.4,223.7,13.3
643.5,224.8,208.1,230.9,221.3,11.8
644.25,224.6,207.1,235.1,222.3,14.1
645.0,223.3,211.7,232.0,222.3,10.2
645.75,223.6,208.2,233.5,221.8,12.7
646.5,223.8,206.8,233.9,221.5,13.7
647.25,222.6,211.2,230.4,221.4,9.6
648.0,228.7,204.6,231.4,221.5,14.8
648.75,223.7,208.1,232.3,221.4,12.3
649.5,223.8,203.3,230.7,219.2,14.3
650.25,225.0,207.0,230.3,220.8,12.2
651.0,221.2,207.3,228.9,219.2,10.9
651.75,227.6,205.6,229.1,220.8,13.1
652.5,226.9,202.2,232.0,220.4,15.9
653.25,223.1,206.4,226.5,218.7,10.8
654.0,220.9,204.7,228.2,217.9,12.0
654.75,225.3,201.2,229.5,218.6,15.3
655.5,219.2,203.7,227.3,216.7,12.0
656.25,217.0,204.8,227.6,216.4,11.4
657.0,217.0,200.8,231.1,216.3,15.2
657.75,220.9,199.1,227.2,215.7,14.8
658.5,221.7,205.2,223.8,216.9,10.2
659.25,220.2,199.0,230.3,216.5,16.0
660.0,223.0,201.6,227.4,217.3,13.8
660.75,219.8,196.1,230.2,215.4,17.5
661.5,224.2,202.5,225.4,217.4,12.9
662.25,219.0,201.6,229.4,216.7,14.1
663.0,218.4,202.1,225.3,215.3,11.9
663.75,221.3,200.0,226.2,215.8,13.9
664.5,220.7,204.5,224.1,216.5,10.4
665.25,217.7,198.2,228.1,214.6,15.2
666.0,220.4,203.2,230.2,217.9,13.6
666.75,217.8,200.7,228.2,215.6,13.9
667.5,219.2,201.6,231.9,217.6,15.2
668.25,218.5,199.3,230.9,216.2,15.9
669.0,217.9,198.5,228.3,214.9,15.1
669.75,219.4,195.8,225.2,213.4,15.5
670.5,216.5,199.8,228.1,214.8,14.2
671.25,216.7,198.7,230.4,215.3,15.9
672.0,218.0,194.6,229.7,214.1,17.9
672.75,216.8,194.4,226.5,212.6,16.4
673.5,212.3,194.5,227.0,211.3,16.3
674.25,211.6,195.0,225.7,210.8,15.4
675.0,214.6,195.7,226.1,212.1,15.4
675.75,210.7,193.3,222.4,208.8,14.7
676.5,210.3,193.8,219.0,207.7,12.8
677.25,211.4,190.5,218.9,207.0,14.7
678.0,216.1,196.0,218.0,210.0,12.2
678.75,211.4,193.7,216.7,207.3,12.1
679.5,208.5,190.6,224.8,208.0,17.1
680.25,206.7,190.6,218.3,205.2,13.9
681.0,212.2,193.0,217.3,207.5,12.8
681.75,210.2,190.8,217.2,206.1,13.7
682.5,208.2,189.3,217.3,205.0,14.3
683.25,210.7,192.8,218.8,207.4,13.3
684.0,211.8,193.8,216.0,207.2,11.8
684.75,205.9,189.4,217.2,204.2,14.0
685.5,205.5,191.5,219.9,205.6,14.2
686.25,205.1,193.7,217.3,205.4,11.8
687.0,206.3,186.6,216.5,203.1,15.2
687.75,204.6,186.5,213.2,201.4,13.6
688.5,206.0,188.9,214.7,203.2,13.2
689.25,203.5,189.4,215.0,202.6,12.8
690.0,203.1,186.1,216.8,202.0,15.4
690.75,204.4,187.9,214.8,202.4,13.6
691.5,200.3,183.0,215.5,199.6,16.3
692.25,202.2,184.5,213.1,199.9,14.4
693.0,202.1,185.4,215.4,201.0,15.0
693.75,205.7,184.8,217.1,202.6,16.4
694.5,204.6,184.3,213.4,200.8,14.9
695.25,201.5,183.8,208.2,197.8,12.6
696.0,199.7,182.4,206.9,196.3,12.6
696.75,201.2,182.7,209.0,197.6,13.5
697.5,201.1,178.8,205.5,195.1,14.3
698.25,200.4,181.0,202.7,194.7,11.9
699.0,198.0,179.4,202.9,193.5,12.4
699.75,195.7,178.7,202.1,192.2,12.1
700.5,197.3,178.9,202.5,192.9,12.4
701.25,194.5,179.3,196.9,190.2,9.6
702.0,198.1,177.6,198.1,191.2,11.8
702.75,194.0,175.7,192.9,187.5,10.3
703.5,196.4,176.7,192.1,188.4,10.4
704.25,193.1,172.0,192.4,185.8,12.0
705.0,192.1,175.5,191.8,186.5,9.5
705.75,187.9,170.1,187.9,182.0,10.3
706.5,187.2,171.5,188.5,182.4,9.4
707.25,189.8,170.9,187.8,182.8,10.4
708.0,186.8,170.5,185.9,181.0,9.2
708.75,187.6,169.2,185.2,180.7,10.0
709.5,186.6,169.0,184.5,180.0,9.6
710.25,181.1,166.2,182.6,176.7,9.1
711.0,181.5,166.9,178.3,175.6,7.7
711.75,180.5,168.2,177.0,175.2,6.3
712.5,180.6,163.3,174.6,172.9,8.8
713.25,177.8,164.0,173.8,171.9,7.1
714.0,176.4,165.3,171.3,171.0,5.5
714.75,176.1,163.0,172.4,170.5,6.7
715.5,172.1,163.2,172.2,169.2,5.2
716.25,173.7,163.1,169.6,168.8,5.3
717.0,169.8,158.7,169.0,165.8,6.2
717.75,173.7,158.8,165.4,166.0,7.5
718.5,168.3,157.6,164.9,163.6,5.5
719.25,169.5,156.9,163.7,163.4,6.3
720.0,164.5,154.6,159.7,159.6,4.9
720.75,165.2,154.7,161.3,160.4,5.3
721.5,163.9,153.9,155.9,157.9,5.3
722.25,162.1,149.4,154.6,155.3,6.4
723.0,161.4,153.3,153.9,156.2,4.5
723.75,161.5,150.1,152.6,154.7,6.0
724.5,158.0,145.4,148.7,150.7,6.5
725.25,156.8,144.0,147.4,149.4,6.6
726.0,159.2,142.9,146.7,149.6,8.5
726.75,159.6,142.5,144.0,148.7,9.5
727.5,157.4,142.1,141.5,147.0,9.0
728.25,154.0,139.8,142.7,145.5,7.5
729.0,151.7,138.8,138.5,143.0,7.5
729.75,150.9,138.7,139.6,143.1,6.8
730.5,148.9,138.6,136.1,141.2,6.7
731.25,146.9,136.2,133.4,138.8,7.1
732.0,146.8,134.6,134.2,138.5,7.2
732.75,142.6,133.5,132.2,136.1,5.7
733.5,144.7,132.7,127.5,134.9,8.8
734.25,139.8,133.3,126.9,133.4,6.5
735.0,141.1,129.5,123.4,131.3,9.0
735.75,138.2,126.5,121.2,128.6,8.7
736.5,136.1,125.8,119.7,127.2,8.3
737.25,134.5,123.4,116.8,124.9,8.9
738.0,132.3,122.0,115.9,123.4,8.3
738.75,131.0,119.6,113.0,121.2,9.1
739.5,127.6,117.6,113.2,119.5,7.4
740.25,126.7,115.6,111.6,117.9,7.8
741.0,123.6,113.0,110.1,115.6,7.1
741.75,121.6,113.1,108.7,114.5,6.6
742.5,120.5,111.2,105.5,112.4,7.6
743.25,118.8,109.6,103.3,110.6,7.8
744.0,117.9,108.1,101.2,109.1,8.4
744.75,116.3,107.2,100.2,107.9,8.1
745.5,114.5,103.3,96.8,104.8,9.0
746.25,113.2,103.6,96.5,104.4,8.4
747.0,111.5,100.2,95.5,102.4,8.2
747.75,109.6,99.7,93.6,101.0,8.1
748.5,106.6,96.2,93.6,98.8,6.9
749.25,105.8,94.0,91.5,97.1,7.7
750.0,104.0,93.8,90.9,96.2,6.9
750.75,101.7,92.1,87.8,93.9,7.2
751.5,100.2,89.9,87.3,92.5,6.8
752.25,97.8,87.6,86.4,90.6,6.3
753.0,95.9,85.3,84.9,88.7,6.2
753.75,95.0,84.8,82.6,87.5,6.6
754.5,93.3,82.7,81.3,85.8,6.5
755.25,90.8,81.6,79.9,84.1,5.9
756.0,89.6,81.0,80.8,83.8,5.0
756.75,88.5,77.4,79.2,81.7,6.0
757.5,86.4,79.0,79.2,81.5,4.2
758.25,83.4,77.6,76.5,79.2,3.7
759.0,83.7,75.0,76.1,78.3,4.7
759.75,80.5,76.1,75.5,77.4,2.7
760.5,80.4,74.5,74.4,76.4,3.4
761.25,79.6,73.4,73.4,75.5,3.5
762.0,77.1,73.0,74.5,74.9,2.1
762.75,75.7,71.7,71.4,73.0,2.4
763.5,74.3,69.5,69.9,71.2,2.7
764.25,73.6,70.1,70.8,71.5,1.8
765.0,73.1,68.7,68.1,69.9,2.7
765.75,72.3,68.7,67.6,69.6,2.4
766.5,70.6,66.7,66.1,67.8,2.5
767.25,70.8,66.4,65.1,67.4,3.0
768.0,69.7,65.2,64.7,66.5,2.8
768.75,68.9,65.0,64.7,66.2,2.3
769.5,68.4,64.3,63.3,65.3,2.7
770.25,66.3,63.7,62.3,64.1,2.0
771.0,65.9,63.5,61.0,63.5,2.5
771.75,64.5,63.5,60.7,62.9,2.0
772.5,63.9,62.5,58.3,61.6,3.0
773.25,62.4,62.0,58.5,61.0,2.2
774.0,60.3,61.8,57.8,60.0,2.0
774.75,60.5,60.2,56.0,58.9,2.5
775.5,59.4,59.6,55.2,58.1,2.5
776.25,60.0,58.7,54.3,57.7,3.0
777.0,59.6,57.5,53.8,57.0,3.0
777.75,59.1,56.6,53.8,56.5,2.7
778.5,58.8,56.4,52.3,55.8,3.3
779.25,59.0,56.0,52.3,55.8,3.4
780.0,58.8,56.0,51.2,55.3,3.8
780.75,57.8,55.5,51.4,54.9,3.2
781.5,57.3,54.7,51.7,54.5,2.8
782.25,57.1,54.4,50.6,54.0,3.2
783.0,55.9,54.4,51.3,53.9,2.4
783.75,56.1,54.1,50.7,53.6,2.7
784.5,55.9,53.8,51.2,53.6,2.4
785.25,55.3,52.8,50.4,52.8,2.4
786.0,55.8,53.2,49.7,52.9,3.1
786.75,54.4,52.8,50.2,52.4,2.1
787.5,55.1,53.4,50.5,53.0,2.4
788.25,55.3,53.1,50.3,52.9,2.5
789.0,55.3,53.4,49.7,52.8,2.8
789.75,54.3,52.7,48.5,51.8,3.0
790.5,55.2,52.5,49.3,52.3,2.9
791.25,54.9,52.5,48.5,52.0,3.3
792.0,55.4,52.8,48.4,52.2,3.5
792.75,55.2,52.5,48.9,52.2,3.2
793.5,53.8,52.5,48.5,51.6,2.7
794.25,53.8,52.8,49.1,51.9,2.4
795.0,53.3,51.7,49.4,51.5,2.0
795.75,53.7,51.8,49.3,51.6,2.2
796.5,53.0,52.4,47.8,51.1,2.8
797.25,53.7,51.9,49.3,51.6,2.2
798.0,53.2,52.3,49.1,51.5,2.1
798.75,53.4,52.0,48.4,51.3,2.6
799.5,52.5,51.9,49.2,51.2,1.7
800.25,53.3,52.3,48.4,51.3,2.6
801.0,53.4,52.2,49.6,51.7,2.0
801.75,53.3,51.5,50.1,51.6,1.6
802.5,52.7,51.5,49.3,51.2,1.7
803.25,53.7,52.4,49.4,51.9,2.2
804.0,53.6,50.9,48.8,51.1,2.4
804.75,53.4,51.4,48.0,51.0,2.7
805.5,54.1,50.8,49.1,51.4,2.5
806.25,53.4,51.6,48.8,51.3,2.3
807.0,53.8,51.3,49.4,51.5,2.2
807.75,53.2,51.2,49.6,51.3,1.8
808.5,52.9,51.7,48.4,51.0,2.3
809.25,53.3,52.2,48.6,51.4,2.4
810.0,53.3,51.8,48.5,51.2,2.5
810.75,53.2,51.8,47.4,50.8,3.0
811.5,52.7,52.3,47.5,50.8,2.9
812.25,53.2,52.4,47.6,51.1,3.1
813.0,52.6,51.4,46.7,50.3,3.1
813.75,53.5,50.9,46.4,50.3,3.6
814.5,52.0,51.5,47.4,50.3,2.6
815.25,52.3,50.5,46.5,49.8,2.9
816.0,52.2,50.5,46.8,49.8,2.7
816.75,52.3,50.3,46.0,49.5,3.2
817.5,51.6,50.6,46.2,49.5,2.8
818.25,51.9,49.7,46.1,49.2,2.9
819.0,51.8,49.5,46.1,49.1,2.9
819.75,51.2,49.2,45.4,48.6,2.9
820.5,50.9,49.6,44.8,48.5,3.2
821.25,51.2,48.7,45.1,48.3,3.1
822.0,50.6,48.9,45.9,48.5,2.4
822.75,50.1,48.9,45.3,48.1,2.5
823.5,49.9,49.1,45.2,48.1,2.5
824.25,49.7,49.2,45.2,48.1,2.5
825.0,49.9,49.7,45.8,48.5,2.3
825.75,49.9,49.1,45.4,48.1,2.4
826.5,49.3,49.3,44.8,47.8,2.6
827.25,49.9,49.8,45.0,48.2,2.8
828.0,49.6,49.2,45.7,48.2,2.1
828.75,49.7,50.7,45.0,48.5,3.1
829.5,50.5,50.5,44.6,48.5,3.4
830.25,50.3,50.1,45.3,48.6,2.8
831.0,49.9,50.9,45.1,48.6,3.1
831.75,49.9,51.0,45.3,48.7,3.0
832.5,49.2,50.9,44.9,48.3,3.1
833.25,49.8,50.3,45.7,48.6,2.5
834.0,49.6,49.8,44.4,47.9,3.1
834.75,48.9,50.1,44.9,48.0,2.7
835.5,48.3,49.9,44.5,47.6,2.8
836.25,47.8,49.5,45.5,47.6,2.0
837.0,47.8,50.1,45.2,47.7,2.4
837.75,47.6,49.5,45.7,47.6,1.9
838.5,47.4,49.9,45.3,47.5,2.3
839.25,46.3,48.9,44.2,46.5,2.3
840.0,47.7,49.1,44.2,47.0,2.5
840.75,47.4,48.9,44.9,47.1,2.0
841.5,47.1,48.3,44.1,46.5,2.2
842.25,47.1,49.9,43.4,46.8,3.3
843.0,47.3,50.1,44.0,47.1,3.1
843.75,47.6,49.6,43.4,46.9,3.2
844.5,47.3,49.7,42.9,46.7,3.5
845.25,47.7,49.4,43.9,47.0,2.8
846.0,46.1,49.0,43.6,46.2,2.7
846.75,47.5,49.5,42.5,46.5,3.6
847.5,47.1,49.0,43.0,46.4,3.1
848.25,47.0,49.5,42.6,46.4,3.5
849.0,47.1,48.9,42.6,46.2,3.2
849.75,46.2,48.9,42.3,45.8,3.3
850.5,46.9,48.8,42.3,46.0,3.3
851.25,46.2,48.3,42.0,45.5,3.2
852.0,46.7,47.6,41.9,45.4,3.1
852.75,46.9,47.6,42.5,45.7,2.8
853.5,46.2,47.8,42.4,45.5,2.8
854.25,46.5,47.3,42.1,45.3,2.8
855.0,45.9,47.5,42.4,45.3,2.6
855.75,46.6,46.6,42.1,45.1,2.6
856.5,46.9,46.7,42.3,45.3,2.6
857.25,46.8,48.2,42.2,45.7,3.2
858.0,46.8,47.6,42.1,45.5,3.0
858.75,46.5,47.4,42.2,45.4,2.8
859.5,46.7,48.2,42.0,45.6,3.2
860.25,46.3,47.8,41.6,45.2,3.2
861.0,45.8,47.0,41.9,44.9,2.7
861.75,46.1,46.6,42.1,44.9,2.5
862.5,45.7,47.4,41.8,45.0,2.8
863.25,45.0,46.3,42.2,44.5,2.1
864.0,45.8,47.6,42.1,45.1,2.8
864.75,45.1,47.1,41.8,44.6,2.7
865.5,45.6,47.4,41.7,44.9,2.9
866.25,45.4,47.2,42.0,44.9,2.6
867.0,44.7,47.4,41.6,44.5,2.9
867.75,45.0,47.8,41.6,44.8,3.1
868.5,45.6,48.1,41.2,44.9,3.5
869.25,44.9,47.6,42.1,44.9,2.7
870.0,45.3,46.4,41.9,44.5,2.4
870.75,44.9,46.9,41.2,44.3,2.9
871.5,45.1,46.6,41.5,44.4,2.6
872.25,44.9,46.9,41.8,44.5,2.6
873.0,44.5,46.6,42.1,44.4,2.3
873.75,45.1,46.1,42.1,44.4,2.1
874.5,44.6,46.1,42.0,44.2,2.1
875.25,45.4,46.7,42.3,44.8,2.3
876.0,44.7,46.8,41.3,44.3,2.8
876.75,44.5,47.2,41.6,44.4,2.8
877.5,45.4,47.2,41.9,44.8,2.7
878.25,44.3,47.7,41.3,44.5,3.2
879.0,43.6,47.1,42.7,44.5,2.3
879.75,43.5,47.6,42.1,44.4,2.9
880.5,43.7,47.1,41.6,44.1,2.8
881.25,44.0,46.7,41.6,44.1,2.6
882.0,44.4,47.6,41.4,44.5,3.1
882.75,43.3,47.1,40.8,43.8,3.2
883.5,43.4,,41.1,42.2,1.7
884.25,43.4,,39.8,41.6,2.6
885.0,43.0,,40.5,41.8,1.7
885.75,43.4,,41.0,42.2,1.7
886.5,43.0,,40.6,41.8,1.7
887.25,43.3,,40.8,42.1,1.8
888.0,44.3,,41.0,42.6,2.3
888.75,44.1,,41.0,42.6,2.2
889.5,44.8,,41.4,43.1,2.4
890.25,44.8,,41.3,43.0,2.5
891.0,44.2,,41.6,42.9,1.8
891.75,44.7,,41.6,43.1,2.2
892.5,44.5,,42.0,43.3,1.8
893.25,44.3,,42.2,43.2,1.5
894.0,44.3,,41.7,43.0,1.9
894.75,44.1,,41.5,42.8,1.9
895.5,44.4,,41.3,42.9,2.1
896.25,44.3,,40.4,42.3,2.8
897.0,43.3,,41.4,42.4,1.4
897.75,43.6,,40.7,42.2,2.0
898.5,43.8,,40.1,42.0,2.6
899.25,43.8,,40.0,41.9,2.7
900.0,43.8,,39.8,41.8,2.9
900.75,44.3,,39.7,42.0,3.2
901.5,43.7,,39.5,41.6,3.0
902.25,43.8,,39.6,41.7,3.0
903.0,43.5,,39.3,41.4,2.9
903.75,43.4,,40.0,41.7,2.4
904.5,43.5,,40.2,41.8,2.4
905.25,44.2,,40.7,42.5,2.5
906.0,43.3,,40.9,42.1,1.7
906.75,43.9,,41.1,42.5,2.0
907.5,43.6,,40.9,42.2,1.9
908.25,43.7,,41.4,42.5,1.6
909.0,43.2,,40.7,42.0,1.8
909.75,44.4,,41.6,43.0,2.0
910.5,44.0,,41.4,42.7,1.9
911.25,43.6,,41.1,42.4,1.8
912.0,43.6,,41.2,42.4,1.7
912.75,44.3,,41.4,42.9,2.1
913.5,43.6,,41.4,42.5,1.5
914.25,43.5,,41.6,42.5,1.4
915.0,42.9,,41.1,42.0,1.3
915.75,42.9,,41.1,42.0,1.3
916.5,42.3,,40.9,41.6,1.0
917.25,42.1,,40.8,41.5,0.9
918.0,42.7,,41.2,41.9,1.1
918.75,42.8,,41.6,42.2,0.9
919.5,42.6,,40.7,41.6,1.4
920.25,42.9,,40.0,41.5,2.1
921.0,43.6,,40.9,42.2,1.9
921.75,43.4,,41.3,42.4,1.5
922.5,43.1,,41.6,42.4,1.1
923.25,43.8,,40.7,42.2,2.1
924.0,43.1,,40.9,42.0,1.5
924.75,43.2,,,43.2,
925.5,43.2,,,43.2,
926.25,43.9,,,43.9,
927.0,43.7,,,43.7,
927.75,43.5,,,43.5,
928.5,43.3,,,43.3,
929.25,43.7,,,43.7,
930.0,43.3,,,43.3,
930.75,43.2,,,43.2,
931.5,43.1,,,43.1,
932.25,43.1,,,43.1,
933.0,42.7,,,42.7,
933.75,42.1,,,42.1,
934.5,42.0,,,42.0,