File: 01_Data/Pressure_Treated_Deck/Cone/Pressure_Treated_Deck_Cone_HF50Scan_230613_R3.csv
Names,Time,Stack TC,Smoke TC,Exh Press,Smoke Comp,Smoke Meas,CO Meter,CO2 Meter,O2 Meter,Sample Mass,Ext Coeff,Start Test,Flame Verif
Chan Gain,,500,500,1,1,1,1,1,1,1,1,1.0,1.0
Offset,,0,0,0.245636,0,0,0,0,0,0,0,0.0,0.0
Gain,,1,1,25.011,13.3733,15.7861,1,1,1,1.00098,1.01809,1.0,1.0
Units,sec,C,C,Pa,%,%,%,%,%,g,/m,,
Baseline,,36.3079,38.7078,154.18,100.676,100.659,0.000532934,0.0536614,20.9444,-446.328,0.00152346,,
10,2.25,35.0356,36.4599,155.971,99.9817,100.241,0.000650185,0.0652361,20.9344,195.432,-0.0231267,0.0,0.0
20,4.75,34.7282,36.9578,151.961,100.025,100.025,0.000589163,0.0660352,20.93,195.442,6.49411e-05,0.0,0.0
30,7.25,35.317,37.5273,148.639,100.118,100.106,0.000646688,0.0642367,20.9274,195.302,0.00103048,0.0,0.0
40,9.75,35.5134,38.0424,149.627,100.196,100.057,0.000748355,0.0626349,20.9287,195.272,0.0123654,0.0,0.0
50,12.25,35.5748,37.8041,155.865,100.242,100.025,0.0005265,0.0608765,20.9313,195.112,0.0193571,0.0,0.0
60,14.75,35.4061,37.9458,153.586,100.315,99.6417,0.000202809,0.0588234,20.933,195.102,0.0601234,0.0,0.0
70,17.25,35.8895,38.1046,151.755,100.348,99.4287,0.000172537,0.057479,20.9351,194.922,0.0821718,0.0,0.0
80,19.75,35.3407,38.3069,151.631,100.384,99.3772,0.000446052,0.05686,20.9366,194.922,0.0899986,0.0,0.0
90,22.25,35.495,38.2603,151.74,100.449,99.0727,0.000562396,0.0563428,20.9385,194.752,0.123245,0.0,0.0
100,24.75,35.6348,38.0658,151.535,100.511,98.3568,0.000552017,0.0557815,20.9393,194.731,0.193524,0.0,0.0
110,27.25,35.6905,38.5727,151.344,100.576,97.8616,0.000514431,0.0553973,20.9405,194.581,0.244297,0.0,0.0
120,29.75,36.0831,38.8725,156.214,100.607,97.5533,0.000525229,0.0550995,20.9435,194.471,0.275268,0.0,0.0
130,32.25,36.5282,39.1902,159.086,100.649,101.3,0.000671058,0.0549237,20.9446,194.341,-0.0576015,0.0,1.0
140,34.75,37.1036,40.9343,141.164,100.68,102.174,0.000837674,0.0552452,20.9451,194.021,-0.131569,0.0,1.0
150,37.25,37.3514,43.2704,142.242,100.706,101.298,0.000926198,0.0561048,20.9452,193.781,-0.0523634,0.0,0.0
160,39.75,38.8834,46.5017,133.862,100.694,102.037,0.00111231,0.0636985,20.9449,193.37,-0.118336,0.0,0.0
170,42.25,40.5694,49.6243,138.606,100.693,100.809,0.00155978,0.115471,20.9416,193.06,-0.0102778,0.0,0.0
180,44.75,42.6688,53.0847,135.777,100.651,100.442,0.00196073,0.201372,20.914,192.579,0.0185369,0.0,0.0
190,47.25,44.6059,56.0249,133.329,100.631,102.568,0.00217781,0.282723,20.8068,192.309,-0.17025,0.0,0.0
200,49.75,45.9905,58.5489,135.641,100.548,100.015,0.00240042,0.339575,20.7195,191.829,0.0474819,0.0,0.0
210,52.25,47.6277,60.2368,133.081,100.466,100.634,0.00271436,0.385003,20.6534,191.528,-0.0148717,0.0,0.0
220,54.75,48.9988,62.5719,135.075,100.372,100.046,0.00305429,0.418089,20.5849,191.088,0.029056,0.0,0.0
230,57.25,50.571,64.4402,136.306,100.29,99.5863,0.00330934,0.436999,20.5364,190.667,0.0629104,0.0,0.0
240,59.75,51.4181,65.6159,135.822,100.346,99.304,0.00341209,0.448614,20.5093,190.237,0.0932042,0.0,0.0
250,62.25,52.9075,66.3846,134.288,100.404,100.112,0.00349183,0.45727,20.4906,189.957,0.0260344,0.0,0.0
260,64.75,54.0774,67.0261,136.064,100.474,97.7845,0.00355654,0.46233,20.4788,189.586,0.242306,0.0,0.0
270,67.25,54.9453,68.3465,131.663,100.521,98.4455,0.00366744,0.46458,20.4723,189.156,0.186314,0.0,0.0
280,69.75,55.3572,69.1596,136.119,100.596,99.0144,0.00380955,0.467211,20.4688,188.896,0.141482,0.0,0.0
290,72.25,56.2751,69.687,142.008,100.638,98.6175,0.00389412,0.471058,20.4663,188.355,0.18109,0.0,0.0
300,74.75,56.5883,70.9813,133.812,100.707,99.3714,0.00412583,0.470951,20.463,188.095,0.119228,0.0,0.0
310,77.25,57.6362,70.929,141.287,100.749,98.6623,0.004364,0.466968,20.4611,187.584,0.186915,0.0,0.0
320,79.75,58.1303,71.3626,138.515,100.817,99.5776,0.00426686,0.462509,20.4629,187.274,0.110484,0.0,0.0
330,82.25,58.6995,71.8022,136.674,100.842,99.3753,0.00408642,0.462259,20.4669,186.874,0.130817,0.0,0.0
340,84.75,59.4529,71.8113,141.007,100.9,98.3193,0.00410596,0.461009,20.4701,186.593,0.231356,0.0,0.0
350,87.25,59.8654,72.2653,137.383,100.918,99.304,0.00417481,0.456357,20.4716,186.103,0.143947,0.0,0.0
360,89.75,60.4281,72.5561,137.802,100.969,98.5283,0.0041639,0.453579,20.4759,185.843,0.21856,0.0,0.0
370,92.25,61.0609,72.9628,135.538,100.971,99.3314,0.00425531,0.45252,20.4782,185.452,0.146171,0.0,0.0
380,94.75,61.3148,73.262,139.687,100.98,98.642,0.0042644,0.450619,20.48,185.162,0.209163,0.0,0.0
390,97.25,61.6463,73.0516,144.108,100.994,98.8179,0.00426085,0.44925,20.4823,184.652,0.194557,0.0,0.0
400,99.75,61.5891,73.2067,135.282,101.009,99.7241,0.00416524,0.447758,20.4853,184.321,0.114297,0.0,0.0
410,102.25,61.8962,73.6746,138.552,101.009,98.7393,0.00418713,0.446456,20.4879,184.101,0.202991,0.0,0.0
420,104.75,62.4456,73.3115,135.605,100.994,98.8246,0.00422955,0.443065,20.4903,183.671,0.193911,0.0,0.0
430,107.25,62.5958,73.9074,138.527,101.007,98.1969,0.00419988,0.437675,20.4942,183.39,0.251938,0.0,0.0
440,109.75,62.8954,73.9474,141.305,100.996,98.4575,0.00428878,0.434006,20.5011,182.97,0.227328,0.0,0.0
450,112.25,62.7866,73.4592,141.667,101.018,97.1616,0.00450929,0.43114,20.5062,182.71,0.347604,0.0,0.0
460,114.75,62.9379,73.1282,137.834,100.983,99.1941,0.00457088,0.425602,20.5083,182.279,0.159607,0.0,0.0
470,117.25,63.4323,72.8574,140.824,101.003,98.3771,0.00446504,0.418382,20.5147,182.059,0.235241,0.0,0.0
480,119.75,63.4562,73.329,142.223,100.947,98.9701,0.00442518,0.41205,20.522,181.619,0.176585,0.0,0.0
490,122.25,62.9322,72.1566,138.875,100.952,99.1228,0.00444061,0.408405,20.5279,181.418,0.163321,0.0,0.0
500,124.75,63.1354,72.4382,135.329,100.923,98.8791,0.0042298,0.404022,20.5342,180.978,0.182748,0.0,0.0
510,127.25,62.4537,72.3169,138.821,100.93,99.3305,0.00401413,0.399468,20.5396,180.738,0.142648,0.0,0.0
520,129.75,63.2155,72.509,137.767,100.87,100.303,0.00388538,0.394387,20.5459,180.307,0.0503555,0.0,0.0
530,132.25,62.5885,71.8301,139.097,100.843,99.2905,0.00398911,0.388558,20.5505,180.157,0.138549,0.0,0.0
540,134.75,62.0804,71.7838,137.564,100.808,99.3969,0.00407598,0.383217,20.5562,179.837,0.125868,0.0,0.0
550,137.25,62.9726,71.305,138.648,100.765,98.8444,0.00403561,0.380306,20.5634,179.486,0.171821,0.0,0.0
560,139.75,62.9862,71.1014,137.66,100.743,99.7549,0.00396868,0.377824,20.5676,179.266,0.0880149,0.0,0.0
570,142.25,62.5732,71.3023,141.816,100.7,98.8391,0.0039498,0.372455,20.5705,178.846,0.166584,0.0,0.0
580,144.75,62.178,70.606,138.212,100.662,98.9248,0.00396201,0.369399,20.5737,178.566,0.155435,0.0,0.0
590,147.25,62.078,70.5682,141.939,100.62,99.7766,0.00394508,0.3676,20.578,178.225,0.0751416,0.0,0.0
600,149.75,62.1589,70.8634,138.58,100.6,99.3107,0.00388634,0.363945,20.5806,178.015,0.115197,0.0,0.0
610,152.25,62.7879,70.2928,142.039,100.542,99.5415,0.00369097,0.361288,20.5845,177.645,0.0892883,0.0,0.0
620,154.75,62.3402,70.2302,141.333,100.517,98.512,0.003509,0.358198,20.588,177.384,0.179958,0.0,0.0
630,157.25,62.2773,69.9883,141.354,100.489,99.7944,0.00334552,0.356266,20.5919,177.044,0.0619843,0.0,0.0
640,159.75,62.0336,70.0777,137.961,100.462,99.7515,0.00326937,0.352675,20.5949,176.854,0.0634274,0.0,0.0
650,162.25,62.6631,69.7631,141.457,100.408,99.6889,0.00328839,0.348456,20.5985,176.514,0.0641736,0.0,0.0
660,164.75,62.3799,69.3363,142.302,100.4,99.2225,0.0033018,0.34386,20.6035,176.283,0.105322,0.0,0.0
670,167.25,62.5373,69.6564,138.581,100.346,99.2486,0.00331017,0.340962,20.6085,175.973,0.098224,0.0,0.0
680,169.75,61.823,69.7089,136.477,100.316,99.2409,0.00327388,0.3385,20.6117,175.673,0.0962295,0.0,0.0
690,172.25,62.2084,69.1229,140.021,100.265,100.193,0.00309111,0.336871,20.6149,175.412,0.00638645,0.0,0.0
700,174.75,61.9419,69.3704,139.038,100.249,100.246,0.00296576,0.335451,20.6173,175.042,0.000290634,0.0,0.0
710,177.25,62.2808,68.8498,137.683,100.308,99.4523,0.00297807,0.333344,20.6199,174.872,0.0765276,0.0,0.0
720,179.75,62.0458,69.1507,140.482,100.366,99.6335,0.00290948,0.330244,20.6224,174.492,0.0654345,0.0,0.0
730,182.25,62.0045,68.9316,138.146,100.44,100.521,0.00290752,0.328139,20.6258,174.321,-0.00718369,0.0,0.0
740,184.75,61.7477,68.8375,136.382,100.48,99.5102,0.00310783,0.327391,20.6286,173.921,0.0866581,0.0,0.0
750,187.25,61.8925,68.7127,138.783,100.543,99.8358,0.0032602,0.326463,20.6303,173.731,0.0630267,0.0,0.0
760,189.75,61.9443,68.8687,142.665,100.579,100.713,0.00316501,0.324522,20.6309,173.38,-0.0118725,0.0,0.0
770,192.25,61.4062,68.9265,136.103,100.622,100.125,0.00308369,0.323241,20.6311,173.21,0.0441583,0.0,0.0
780,194.75,61.4659,68.2681,138.212,100.617,99.9823,0.00315014,0.322862,20.6326,172.81,0.0565315,0.0,0.0
790,197.25,62.0166,68.5072,146.619,100.642,100.863,0.00310538,0.321678,20.6342,172.61,-0.0195394,0.0,0.0
800,199.75,61.2682,68.4697,137.099,100.611,100.091,0.0030221,0.319687,20.6352,172.259,0.0463117,0.0,0.0
810,202.25,61.4212,68.2766,140.765,100.596,100.808,0.00302636,0.317232,20.6368,172.089,-0.0188481,0.0,0.0
820,204.75,61.2256,68.1258,135.89,100.553,100.54,0.00306379,0.315139,20.6402,171.709,0.00119441,0.0,0.0
830,207.25,61.2569,68.0528,140.002,100.509,101.342,0.00287933,0.313513,20.6433,171.529,-0.073653,0.0,0.0
840,209.75,61.2686,67.9025,141.157,100.434,99.9789,0.00270649,0.311997,20.6439,171.268,0.0405896,0.0,0.0
850,212.25,60.8671,67.3893,142.969,100.351,100.844,0.00272908,0.310173,20.6453,170.888,-0.0436924,0.0,0.0
860,214.75,61.2605,67.9475,138.547,100.288,100.576,0.00277538,0.307786,20.6476,170.698,-0.0256071,0.0,0.0
870,217.25,61.0594,67.9825,141.036,100.227,100.648,0.00270701,0.306427,20.6517,170.358,-0.037396,0.0,0.0
880,219.75,61.2756,67.0419,143.292,100.153,100.69,0.0026733,0.303551,20.6556,170.217,-0.0477839,0.0,0.0
890,222.25,61.0176,67.6541,141.837,100.037,99.6976,0.00274537,0.301126,20.6585,169.847,0.0303388,0.0,0.0
900,224.75,61.2284,66.986,139.07,99.9307,100.36,0.00263168,0.299951,20.6627,169.687,-0.038323,0.0,0.0
910,227.25,60.461,66.6708,136.151,99.9625,100.308,0.00243897,0.299798,20.6644,169.306,-0.0308466,0.0,0.0
920,229.75,61.1245,67.0749,138.072,100.016,100.197,0.00254943,0.297883,20.6656,169.126,-0.0161221,0.0,0.0
930,232.25,60.4635,66.9531,140.495,100.084,100.933,0.00280301,0.295719,20.667,168.806,-0.0754448,0.0,0.0
940,234.75,60.3523,67.1734,139.969,100.178,100.916,0.00276072,0.294383,20.6684,168.616,-0.0655443,0.0,0.0
950,237.25,60.4862,66.9246,146.977,100.242,100.516,0.00254037,0.294026,20.6698,168.215,-0.0243297,0.0,0.0
960,239.75,60.3671,66.6557,140.369,100.34,101.395,0.00252592,0.292863,20.6703,168.025,-0.0933894,0.0,0.0
970,242.25,60.7911,66.2998,137.925,100.399,101.54,0.00262612,0.291661,20.6707,167.735,-0.100959,0.0,0.0
980,244.75,60.8027,66.332,136.371,100.464,101.688,0.00250403,0.291261,20.6716,167.575,-0.108187,0.0,0.0
990,247.25,60.5251,66.3026,140.058,100.529,100.727,0.00247979,0.289452,20.6731,167.274,-0.0175402,0.0,0.0
1000,249.75,60.1194,66.5222,139.279,100.592,100.872,0.00262655,0.288413,20.6746,166.914,-0.0247631,0.0,0.0
1010,252.25,60.1568,67.0494,145.316,100.646,101.529,0.00264023,0.288411,20.6766,166.694,-0.0780482,0.0,0.0
1020,254.75,60.1024,66.1713,141.892,100.674,101.825,0.00260171,0.287816,20.6772,166.354,-0.101531,0.0,0.0
1030,257.25,60.2151,66.6722,141.646,100.71,101.487,0.00250351,0.286507,20.6775,166.173,-0.0685981,0.0,0.0
1040,259.75,59.7182,66.2169,140.479,100.722,101.983,0.0023838,0.284737,20.6787,165.803,-0.111102,0.0,0.0
1050,262.25,59.6771,66.2083,137.251,100.734,101.753,0.00227336,0.28166,20.6801,165.663,-0.0898706,0.0,0.0
1060,264.75,60.3253,66.0213,140.785,100.733,101.981,0.00228637,0.281853,20.681,165.313,-0.109884,0.0,0.0
1070,267.25,59.6462,66.411,142.112,100.747,102.301,0.00247973,0.284127,20.6815,165.162,-0.13678,0.0,0.0
1080,269.75,59.5694,66.5378,139.344,100.747,101.76,0.00257127,0.285957,20.6804,164.802,-0.0893109,0.0,0.0
1090,272.25,59.8207,65.2072,140.29,100.74,101.743,0.00241995,0.285841,20.6787,164.582,-0.0885179,0.0,0.0
1100,274.75,59.9454,65.9191,144.635,100.727,101.47,0.00210116,0.285674,20.6781,164.232,-0.0656306,0.0,0.0
1110,277.25,60.1794,65.6681,141.087,100.739,101.505,0.00194433,0.284719,20.6779,164.061,-0.0676342,0.0,0.0
1120,279.75,60.661,65.5285,139.234,100.734,101.805,0.00209555,0.282179,20.6796,163.741,-0.0944362,0.0,0.0
1130,282.25,59.7617,65.8185,142.748,100.73,102.32,0.00215679,0.281218,20.681,163.511,-0.139866,0.0,0.0
1140,284.75,59.6293,64.7545,138.3,100.725,102.262,0.0019305,0.279955,20.6814,163.311,-0.135248,0.0,0.0
1150,287.25,59.4816,66.1739,136.759,100.717,102.18,0.00174943,0.278501,20.6847,162.97,-0.12878,0.0,0.0
1160,289.75,59.8872,65.4388,141.796,100.737,101.522,0.00188102,0.277647,20.6875,162.75,-0.0693405,0.0,0.0
1170,292.25,60.067,65.1406,143.592,100.723,101.593,0.00211234,0.277964,20.6898,162.41,-0.0767982,0.0,0.0
1180,294.75,59.9008,65.4907,140.931,100.736,101.641,0.0022236,0.278034,20.691,162.24,-0.0798811,0.0,0.0
1190,297.25,59.5003,65.7276,140.748,100.721,102.057,0.00215426,0.277843,20.6906,161.869,-0.117674,0.0,0.0
1200,299.75,59.7625,65.3691,142.258,100.743,101.444,0.00214866,0.276898,20.691,161.729,-0.0619726,0.0,0.0
1210,302.25,58.7888,65.2624,141.472,100.737,101.798,0.00226951,0.274883,20.6921,161.349,-0.0936331,0.0,0.0
1220,304.75,59.3785,64.6471,141.149,100.748,101.666,0.00228251,0.273446,20.6939,161.199,-0.0809902,0.0,0.0
1230,307.25,58.9101,65.1593,139.259,100.739,101.938,0.00225467,0.272426,20.6969,160.848,-0.105664,0.0,0.0
1240,309.75,59.2117,64.5292,139.811,100.75,101.997,0.00234769,0.271154,20.6975,160.698,-0.109834,0.0,0.0
1250,312.25,59.1716,64.6999,139.236,100.74,101.837,0.00255712,0.269504,20.6973,160.328,-0.0966814,0.0,0.0
1260,314.75,59.2509,65.1617,142.495,100.745,101.851,0.00261681,0.269828,20.6981,160.167,-0.0974369,0.0,0.0
1270,317.25,59.4353,64.5002,145.345,100.749,101.514,0.00249412,0.271871,20.6982,159.817,-0.0675779,0.0,0.0
1280,319.75,58.9758,64.8921,142.498,100.744,102.493,0.00239508,0.27206,20.697,159.607,-0.153713,0.0,0.0
1290,322.25,59.4753,65.4915,140.627,100.742,101.48,0.00237847,0.271182,20.6965,159.307,-0.0651759,0.0,0.0
1300,324.75,59.7667,64.6747,140.28,100.736,101.935,0.00226453,0.270153,20.6983,159.046,-0.105622,0.0,0.0
1310,327.25,58.5873,65.231,138.276,100.735,101.935,0.00221911,0.270764,20.6991,158.836,-0.105767,0.0,0.0
1320,329.75,58.9231,65.0311,136.386,100.713,101.698,0.00233666,0.270386,20.6993,158.486,-0.086859,0.0,0.0
1330,332.25,59.3455,64.9539,135.911,100.726,102.501,0.00229694,0.2699,20.6994,158.296,-0.156024,0.0,0.0
1340,334.75,58.9942,65.1889,141.473,100.708,101.417,0.00211759,0.270867,20.6992,157.985,-0.0627092,0.0,0.0
1350,337.25,59.5173,64.9489,139.776,100.713,101.868,0.00205895,0.271288,20.6979,157.805,-0.10178,0.0,0.0
1360,339.75,59.7914,64.5828,143.272,100.689,101.399,0.00214972,0.272077,20.6962,157.455,-0.0627981,0.0,0.0
1370,342.25,59.1904,64.6124,141.608,100.69,101.615,0.00228605,0.272572,20.6953,157.315,-0.0816424,0.0,0.0
1380,344.75,58.5867,64.9785,141.781,100.658,101.59,0.00233398,0.271784,20.695,156.964,-0.0823359,0.0,0.0
1390,347.25,59.2436,64.677,139.954,100.688,101.674,0.0023968,0.270679,20.6949,156.804,-0.0870659,0.0,0.0
1400,349.75,59.1568,64.5672,142.585,100.642,102.049,0.00248655,0.27094,20.6963,156.414,-0.124059,0.0,0.0
1410,352.25,59.3297,64.395,145.398,100.638,102.353,0.00253824,0.272905,20.6956,156.254,-0.150984,0.0,0.0
1420,354.75,59.041,64.1262,140.853,100.622,101.711,0.00252353,0.274603,20.6951,155.933,-0.096117,0.0,0.0
1430,357.25,58.5995,64.5082,144,100.598,101.58,0.00251168,0.27498,20.6928,155.733,-0.0867714,0.0,0.0
1440,359.75,59.1992,63.8875,143.33,100.605,101.323,0.00253944,0.27465,20.6915,155.443,-0.063479,0.0,0.0
1450,362.25,58.5341,64.2029,140.376,100.57,101.338,0.00251801,0.275117,20.691,155.173,-0.067912,0.0,0.0
1460,364.75,59.6202,64.8745,144.32,100.585,101.374,0.00241919,0.275347,20.6909,154.962,-0.0697547,0.0,0.0
1470,367.25,58.8285,64.8569,139.436,100.554,101.314,0.0023277,0.276113,20.6903,154.632,-0.0672384,0.0,0.0
1480,369.75,59.3382,65.1839,141.117,100.554,101.903,0.00225437,0.27733,20.6889,154.472,-0.118987,0.0,0.0
1490,372.25,59.3671,65.1168,142.491,100.533,101.253,0.0022507,0.277296,20.6865,154.142,-0.0637347,0.0,0.0
1500,374.75,59.254,65.0482,140.25,100.531,101.668,0.00231235,0.276939,20.6857,153.961,-0.100426,0.0,0.0
1510,377.25,59.187,65.1511,135.721,100.518,102.735,0.00236365,0.276733,20.6859,153.601,-0.19479,0.0,0.0
1520,379.75,59.474,65.144,139.763,100.527,101.696,0.00235512,0.276672,20.686,153.431,-0.103249,0.0,0.0
1530,382.25,59.215,65.2524,142.451,100.493,101.996,0.00224699,0.276154,20.6875,153.101,-0.132528,0.0,0.0
1540,384.75,59.7264,65.3457,140.353,100.522,101.903,0.00213856,0.275291,20.6892,152.92,-0.121845,0.0,0.0
1550,387.25,59.5266,65.4982,139.559,100.505,101.489,0.00205526,0.275913,20.6887,152.57,-0.0869966,0.0,0.0
1560,389.75,59.0375,65.2818,137.035,100.535,101.973,0.00205031,0.277341,20.688,152.42,-0.12681,0.0,0.0
1570,392.25,59.947,65.8908,142.968,100.526,101.496,0.00220821,0.278264,20.6869,152.09,-0.085777,0.0,0.0
1580,394.75,59.5921,65.2396,145.972,100.503,101.4,0.00233126,0.277818,20.6858,151.909,-0.0793682,0.0,0.0
1590,397.25,59.6911,65.3075,138.638,100.515,101.354,0.00226248,0.277179,20.6858,151.609,-0.0742488,0.0,0.0
1600,399.75,59.8245,65.2977,140.114,100.506,101.625,0.00202654,0.276842,20.686,151.379,-0.0988712,0.0,0.0
1610,402.25,59.6128,65.2805,141.788,100.482,101.625,0.00187272,0.276357,20.6872,151.159,-0.100975,0.0,0.0
1620,404.75,59.0603,65.6749,146.652,100.449,101.525,0.00199172,0.275816,20.6897,150.818,-0.0951813,0.0,0.0
1630,407.25,59.2058,64.6776,140.305,100.445,101.501,0.00216403,0.276364,20.6912,150.648,-0.0933474,0.0,0.0
1640,409.75,59.7373,65.3153,140.715,100.411,101.626,0.00222198,0.277278,20.6908,150.288,-0.107373,0.0,0.0
1650,412.25,59.653,65.2647,142.967,100.408,101.195,0.002271,0.277296,20.6898,150.158,-0.0697713,0.0,0.0
1660,414.75,59.4736,65.1464,139.563,100.366,101.484,0.002254,0.277223,20.6895,149.807,-0.0989843,0.0,0.0
1670,417.25,59.599,64.5586,141.895,100.353,101.192,0.00208521,0.276667,20.6893,149.657,-0.0743819,0.0,0.0
1680,419.75,59.7322,65.2099,144.798,100.307,101.302,0.0020197,0.275772,20.6901,149.327,-0.0881754,0.0,0.0
1690,422.25,59.8288,65.262,146.421,100.28,101.043,0.00201118,0.276358,20.6916,149.157,-0.0676953,0.0,0.0
1700,424.75,59.6497,65.2161,141.815,100.235,101.417,0.00192844,0.277171,20.6922,148.816,-0.104711,0.0,0.0
1710,427.25,59.7661,64.5869,142.101,100.216,101.27,0.00187275,0.278105,20.6897,148.636,-0.0934792,0.0,0.0
1720,429.75,60.0772,65.529,142.049,100.158,101.647,0.00195882,0.27854,20.6874,148.316,-0.131799,0.0,0.0
1730,432.25,59.8991,65.6135,143.978,100.123,101.281,0.00211383,0.278767,20.6866,148.156,-0.102746,0.0,0.0
1740,434.75,59.9466,65.5607,141.645,100.072,101.733,0.00227707,0.278686,20.6863,147.885,-0.147097,0.0,0.0
1750,437.25,59.7089,65.3163,141.078,100.038,100.552,0.00231435,0.278603,20.6862,147.635,-0.0457446,0.0,0.0
1760,439.75,59.5299,65.3775,146.673,100.006,101.241,0.00225345,0.278874,20.6861,147.395,-0.109558,0.0,0.0
1770,442.25,59.9104,65.1917,142.5,99.9727,100.971,0.0021518,0.27901,20.6861,147.055,-0.0887173,0.0,0.0
1780,444.75,59.7376,65.8822,140.762,99.9895,100.729,0.00221432,0.27828,20.6861,146.884,-0.0658494,0.0,0.0
1790,447.25,59.7526,65.2787,140.965,100.06,100.656,0.00232885,0.277509,20.6861,146.574,-0.0530445,0.0,0.0
1800,449.75,59.8177,65.2479,140.741,100.145,101.468,0.00229481,0.277806,20.6875,146.434,-0.117216,0.0,0.0
1810,452.25,59.9732,65.5282,143.041,100.205,101.26,0.00219291,0.278784,20.6885,146.094,-0.0936056,0.0,0.0
1820,454.75,60.1152,65.4401,142.527,100.283,101.16,0.00230376,0.279355,20.6884,145.934,-0.0777759,0.0,0.0
1830,457.25,59.8971,65.4921,138.218,100.318,101.281,0.00246593,0.280233,20.6873,145.593,-0.0853197,0.0,0.0
1840,459.75,59.7903,65.8434,148.218,100.392,101.593,0.00242105,0.281355,20.687,145.403,-0.106158,0.0,0.0
1850,462.25,60.2308,65.6674,141.744,100.467,102.444,0.00239709,0.281751,20.6855,145.103,-0.173998,0.0,0.0
1860,464.75,60.2545,65.6523,135.067,100.534,101.42,0.00244109,0.281943,20.6848,144.933,-0.0784305,0.0,0.0
1870,467.25,60.4917,66.0865,138.892,100.596,102.022,0.00225726,0.28252,20.6846,144.582,-0.125719,0.0,0.0
1880,469.75,60.2048,65.8149,139.954,100.64,101.553,0.00210905,0.281869,20.6845,144.412,-0.0807104,0.0,0.0
1890,472.25,60.2976,65.965,136.404,100.675,101.386,0.00210144,0.282577,20.6844,144.092,-0.0628828,0.0,0.0
1900,474.75,60.1871,65.8697,139.589,100.686,101.25,0.00217041,0.284448,20.6835,143.881,-0.0499312,0.0,0.0
1910,477.25,60.0522,65.7082,142.967,100.684,101.268,0.00208768,0.283726,20.6819,143.631,-0.0516845,0.0,0.0
1920,479.75,60.0928,66.0109,139.294,100.654,101.607,0.00195256,0.282791,20.682,143.321,-0.0841444,0.0,0.0
1930,482.25,60.2586,66.2676,138.675,100.628,100.93,0.00187251,0.284383,20.6824,143.161,-0.0267778,0.0,0.0
1940,484.75,60.4962,65.6993,138.689,100.52,101.229,0.00181601,0.285941,20.6807,142.83,-0.0626915,0.0,0.0
1950,487.25,60.2275,66.2585,142.123,100.432,101.097,0.0018894,0.285055,20.6789,142.66,-0.0588734,0.0,0.0
1960,489.75,60.391,66.2037,137.693,100.301,100.937,0.00204567,0.285457,20.6795,142.34,-0.0564266,0.0,0.0
1970,492.25,60.4628,66.3826,140.389,100.343,102.262,0.00206489,0.286985,20.6802,142.17,-0.169218,0.0,0.0
1980,494.75,60.9648,66.3638,135.544,100.396,102.075,0.00175061,0.288025,20.6787,141.809,-0.148128,0.0,0.0
1990,497.25,60.4066,66.9463,138.296,100.468,101.526,0.00152996,0.288933,20.6768,141.669,-0.093561,0.0,0.0
2000,499.75,60.9174,66.5741,141.678,100.544,101.721,0.001606,0.292262,20.6748,141.329,-0.103962,0.0,0.0
2010,502.25,61.0941,66.8887,141.164,100.647,101.806,0.00172393,0.29422,20.6732,141.159,-0.102308,0.0,0.0
2020,504.75,60.7775,66.8094,139.127,100.722,102.176,0.00184009,0.294109,20.6705,140.828,-0.128003,0.0,0.0
2030,507.25,60.9897,67.3246,138.925,100.825,101.857,0.00189584,0.294759,20.6696,140.648,-0.0909337,0.0,0.0
2040,509.75,61.2579,66.84,141.286,100.913,101.574,0.00184853,0.295899,20.6693,140.338,-0.0582213,0.0,0.0
2050,512.25,60.9482,66.765,139.061,100.991,101.831,0.00181208,0.297382,20.668,140.128,-0.0740309,0.0,0.0
2060,514.75,61.0757,67.2101,141.008,101.08,101.7,0.00195534,0.299035,20.667,139.878,-0.0546243,0.0,0.0
2070,517.25,60.9605,66.9466,142.111,101.138,102.215,0.00212575,0.300159,20.6653,139.567,-0.0945427,0.0,0.0
2080,519.75,61.3288,67.1168,137.71,101.193,101.987,0.00235778,0.300127,20.6641,139.387,-0.0697471,0.0,0.0
2090,522.25,61.3383,67.9528,141.993,101.208,102.016,0.00251324,0.300815,20.665,139.017,-0.0710176,0.0,0.0
2100,524.75,61.5549,68.1291,137.251,101.222,102.338,0.00244404,0.302977,20.6655,138.847,-0.0979627,0.0,0.0
2110,527.25,61.6532,67.8623,137.888,101.172,102.453,0.00226152,0.306158,20.6633,138.496,-0.112357,0.0,0.0
2120,529.75,61.5995,68.1796,137.665,101.14,101.779,0.00215602,0.308041,20.6586,138.336,-0.0561883,0.0,0.0
2130,532.25,62.0891,67.9016,138.223,101.055,102.458,0.00198062,0.30953,20.656,137.996,-0.123134,0.0,0.0
2140,534.75,62.1853,68.6239,143.763,100.98,101.729,0.00182356,0.311513,20.6551,137.796,-0.0660012,0.0,0.0
2150,537.25,62.3668,68.2445,140.985,100.869,101.162,0.00190948,0.313244,20.6526,137.435,-0.0258339,0.0,0.0
2160,539.75,62.3852,68.6144,143.48,100.766,102.79,0.00199747,0.314073,20.6497,137.325,-0.177622,0.0,0.0
2170,542.25,62.391,68.9787,138.496,100.655,101.135,0.00214432,0.314781,20.6484,136.995,-0.0424424,0.0,0.0
2180,544.75,61.9793,68.9798,141.288,100.546,102.326,0.00238505,0.315338,20.6454,136.674,-0.156741,0.0,0.0
2190,547.25,62.4195,68.2514,135.684,100.436,101.42,0.00235533,0.315751,20.6438,136.484,-0.0870638,0.0,0.0
2200,549.75,62.266,68.9949,144.625,100.358,101.041,0.00200828,0.316415,20.6433,136.264,-0.0606225,0.0,0.0
2210,552.25,63.0775,69.5647,138.651,100.309,100.477,0.0018682,0.318067,20.6428,135.994,-0.0149079,0.0,0.0
2220,554.75,62.8324,69.4056,138.599,100.215,100.855,0.00199867,0.318746,20.6403,135.643,-0.0568123,0.0,0.0
2230,557.25,63.003,69.4609,138.948,100.156,100.732,0.00224223,0.32034,20.639,135.473,-0.0512396,0.0,0.0
2240,559.75,63.0379,69.7311,140.348,100.072,101.378,0.00243046,0.321328,20.6385,135.183,-0.115832,0.0,0.0
2250,562.25,62.975,69.4537,141.501,100.007,100.09,0.00243466,0.321644,20.6384,134.953,-0.00737974,0.0,0.0
2260,564.75,63.1704,69.5869,135.532,99.9438,100.726,0.00238239,0.323557,20.6379,134.642,-0.0696334,0.0,0.0
2270,567.25,63.313,70.0935,135.168,99.9021,100.196,0.00235216,0.326051,20.6367,134.432,-0.026245,0.0,0.0
2280,569.75,63.2881,69.2105,138.611,99.836,99.712,0.00227305,0.326327,20.634,134.072,0.0111013,0.0,0.0
2290,572.25,62.9961,70.3463,141.729,99.8152,99.5641,0.0021408,0.32542,20.6337,133.852,0.0224956,0.0,0.0
2300,574.75,63.1362,70.3655,139.32,99.7907,99.3507,0.00197783,0.325845,20.6343,133.551,0.0394672,0.0,0.0
2310,577.25,63.5977,70.2879,139.522,99.7642,100.413,0.0019105,0.326427,20.6343,133.321,-0.0579304,0.0,0.0
2320,579.75,63.9614,70.3843,135.21,99.743,99.8508,0.0019838,0.327795,20.633,133.031,-0.00964527,0.0,0.0
2330,582.25,63.8236,71.0668,136.95,99.716,99.6075,0.00222545,0.330478,20.6311,132.811,0.00972951,0.0,0.0
2340,584.75,63.4421,70.3469,138.788,99.7013,99.9206,0.00239045,0.332348,20.628,132.51,-0.0196184,0.0,0.0
2350,587.25,64.0518,69.8648,139.634,99.6769,99.2871,0.00238675,0.335418,20.6262,132.25,0.034989,0.0,0.0
2360,589.75,63.5187,70.9316,141.069,99.6842,99.687,0.00244601,0.335866,20.6242,131.99,-0.000246993,0.0,0.0
2370,592.25,64.1471,70.2039,142.716,99.6552,100.582,0.00268109,0.334828,20.6223,131.659,-0.0826309,0.0,0.0
2380,594.75,64.4128,71.5264,139.275,99.6642,99.7477,0.00291128,0.336247,20.6216,131.469,-0.00747457,0.0,0.0
2390,597.25,64.4447,71.0708,137.962,99.6552,100.242,0.00280604,0.339093,20.6201,131.089,-0.0524667,0.0,0.0
2400,599.75,63.9616,71.1444,138.231,99.6597,99.3661,0.00248917,0.340379,20.6177,130.909,0.0263507,0.0,0.0
2410,602.25,64.7963,71.498,140.509,99.6569,99.0245,0.00225527,0.341575,20.6152,130.558,0.0568446,0.0,0.0
2420,604.75,64.7652,71.5345,134.165,99.6691,98.6695,0.00220303,0.342113,20.6131,130.338,0.0900197,0.0,0.0
2430,607.25,64.347,71.6198,137.199,99.6569,99.4567,0.0022713,0.342458,20.6123,129.948,0.0179568,0.0,0.0
2440,609.75,64.5775,71.0239,142.527,99.6752,99.7443,0.00241536,0.344363,20.6121,129.798,-0.00618541,0.0,0.0
2450,612.25,64.7395,70.0999,137.918,99.6928,99.8464,0.00252449,0.347742,20.6119,129.407,-0.0137526,0.0,0.0
2460,614.75,64.8205,71.6231,138.647,99.6989,100.115,0.00264511,0.350172,20.6088,129.227,-0.0371731,0.0,0.0
2470,617.25,64.6456,71.8997,134.175,99.7218,99.8016,0.00272741,0.352054,20.6057,128.967,-0.00714853,0.0,0.0
2480,619.75,64.9571,71.8139,138.524,99.7099,99.2139,0.00277878,0.353,20.6032,128.657,0.0445396,0.0,0.0
2490,622.25,65.0176,71.9417,139.427,99.7218,100.094,0.00258933,0.355298,20.6019,128.376,-0.0332778,0.0,0.0
2500,624.75,65.3148,72.8255,138.092,99.7389,99.5896,0.00238482,0.357354,20.5989,128.036,0.0133732,0.0,0.0
2510,627.25,66.0423,72.9345,138.622,99.7638,98.9918,0.00255524,0.359511,20.5963,127.776,0.0693767,0.0,0.0
2520,629.75,65.5128,72.2961,137.383,99.7789,99.5771,0.0027515,0.362272,20.5933,127.415,0.018078,0.0,0.0
2530,632.25,65.9415,72.602,138.948,99.825,99.3093,0.00274144,0.366881,20.592,127.205,0.0462598,0.0,0.0
2540,634.75,66.0542,73.2664,141.36,99.8315,98.8781,0.0026302,0.370361,20.5883,126.825,0.0857018,0.0,0.0
2550,637.25,66.1396,73.7862,136.945,99.896,99.2582,0.00262964,0.372539,20.5828,126.615,0.0572043,0.0,0.0
2560,639.75,64.8134,73.9627,136.198,99.9201,99.2283,0.00269878,0.37261,20.5793,126.294,0.0620435,0.0,0.0
2570,642.25,66.8107,74.2089,136.268,99.9401,98.3077,0.00284187,0.374128,20.5773,125.974,0.147076,0.0,0.0
2580,644.75,66.5137,73.6381,133.466,100.005,97.7937,0.0028918,0.37784,20.5754,125.714,0.199654,0.0,0.0
2590,647.25,66.4645,74.8002,135.723,100.062,98.6252,0.00288206,0.381785,20.5731,125.483,0.129179,0.0,0.0
2600,649.75,66.7667,74.8488,136.479,100.078,99.3762,0.00292599,0.383843,20.5694,125.133,0.0628481,0.0,0.0
2610,652.25,66.2162,74.9916,136.071,100.149,99.3464,0.00293578,0.383851,20.5645,124.883,0.0718673,0.0,0.0
2620,654.75,66.7817,74.8213,140.558,100.206,99.3353,0.00314904,0.385347,20.5624,124.552,0.0779219,0.0,0.0
2630,657.25,67.2076,75.2301,135.869,100.291,99.262,0.00348686,0.388892,20.5617,124.242,0.0921063,0.0,0.0
2640,659.75,67.2826,75.5896,137.216,100.382,98.1959,0.00353941,0.388982,20.5585,123.972,0.196607,0.0,0.0
2650,662.25,68.6519,75.1481,143.593,100.483,98.4845,0.00332412,0.389166,20.5562,123.602,0.179439,0.0,0.0
2660,664.75,67.9646,75.4132,134.891,100.572,98.51,0.00318214,0.392866,20.5554,123.331,0.185026,0.0,0.0
2670,667.25,67.9966,75.9439,136.68,100.635,99.3223,0.0031077,0.396933,20.552,122.951,0.117274,0.0,0.0
2680,669.75,68.0357,76.0666,137.699,100.753,99.4109,0.00310099,0.400401,20.5474,122.691,0.119731,0.0,0.0
2690,672.25,68.2993,76.3355,138.134,100.827,99.3425,0.00309678,0.402371,20.5433,122.33,0.132461,0.0,0.0
2700,674.75,68.3584,76.5705,136.561,100.901,99.223,0.00316732,0.401694,20.5408,122.13,0.149783,0.0,0.0
2710,677.25,68.5127,76.1405,139.403,100.941,98.2904,0.00333079,0.404011,20.5399,121.75,0.23763,0.0,0.0
2720,679.75,69.023,77.0841,133.622,101.001,98.3125,0.00340203,0.40805,20.5374,121.469,0.240959,0.0,0.0
2730,682.25,68.7673,76.6806,135.361,101.027,98.9778,0.00337691,0.410203,20.5332,121.099,0.183,0.0,0.0
2740,684.75,68.4617,77.2984,136.617,101.095,99.223,0.00330126,0.410824,20.5314,120.849,0.166961,0.0,0.0
2750,687.25,68.9507,76.5059,137.305,101.112,99.6258,0.00338505,0.41043,20.5299,120.488,0.132264,0.0,0.0
2760,689.75,69.0596,77.1631,140.437,101.146,100.072,0.00361896,0.410467,20.5293,120.278,0.0953542,0.0,0.0
2770,692.25,69.2886,76.9692,139.802,101.151,99.8869,0.00366746,0.410261,20.5291,119.908,0.112311,0.0,0.0
2780,694.75,69.7263,76.8178,133.982,101.171,98.4397,0.00364003,0.409863,20.5291,119.588,0.244377,0.0,0.0
2790,697.25,69.3422,77.831,141.324,101.175,98.2542,0.00364718,0.410425,20.529,119.327,0.261615,0.0,0.0
2800,699.75,69.7778,77.3812,135.557,101.171,99.0665,0.00349259,0.411931,20.529,118.987,0.187732,0.0,0.0
2810,702.25,70.2622,78.1699,134.539,101.162,98.2841,0.00344519,0.413039,20.5279,118.677,0.257784,0.0,0.0
2820,704.75,69.8045,77.7101,139.483,101.127,98.3954,0.00358107,0.414591,20.5271,118.346,0.244579,0.0,0.0
2830,707.25,69.7276,78.2873,136.87,101.117,98.3631,0.00369324,0.417069,20.5259,118.096,0.246572,0.0,0.0
2840,709.75,69.7067,78.324,140.756,101.079,98.4055,0.00370558,0.419164,20.5233,117.706,0.239371,0.0,0.0
2850,712.25,70.388,78.071,136.79,101.06,98.3559,0.00381394,0.418836,20.5198,117.455,0.242179,0.0,0.0
2860,714.75,70.0076,77.7236,136.268,100.989,98.8188,0.00388725,0.419536,20.5186,117.055,0.194037,0.0,0.0
2870,717.25,70.5925,77.8967,133.921,100.953,97.955,0.00380799,0.42027,20.5182,116.825,0.269267,0.0,0.0
2880,719.75,70.1134,78.1518,138.584,100.886,98.4657,0.00380669,0.42032,20.5181,116.455,0.216836,0.0,0.0
2890,722.25,70.2647,78.2911,142.092,100.851,97.3317,0.00396622,0.420757,20.518,116.194,0.31718,0.0,0.0
2900,724.75,70.1881,77.8567,136.693,100.785,98.1998,0.00401116,0.421642,20.5174,115.854,0.232059,0.0,0.0
2910,727.25,70.4467,78.5139,138.115,100.735,97.8582,0.00389792,0.421588,20.5145,115.574,0.258727,0.0,0.0
2920,729.75,70.6022,78.4344,137.075,100.682,98.2436,0.00392674,0.424477,20.5136,115.183,0.218991,0.0,0.0
2930,732.25,71.2432,79.2987,139.076,100.638,97.9131,0.004061,0.428583,20.5125,114.883,0.245173,0.0,0.0
2940,734.75,70.4761,79.0785,135.801,100.589,97.5398,0.00419982,0.428888,20.5092,114.523,0.274872,0.0,0.0
2950,737.25,70.8644,78.9514,141.319,100.555,97.1857,0.0042817,0.429599,20.5079,114.142,0.304344,0.0,0.0
2960,739.75,70.9509,78.8618,139.121,100.544,97.3345,0.0042471,0.43003,20.5064,113.882,0.289732,0.0,0.0
2970,742.25,71.6071,78.5373,131.015,100.516,98.9918,0.00419228,0.429496,20.5054,113.512,0.136421,0.0,0.0
2980,744.75,71.4641,78.7068,136.992,100.521,98.1656,0.00422373,0.431422,20.505,113.231,0.211742,0.0,0.0
2990,747.25,70.6141,79.8028,135.933,100.509,97.7513,0.0042872,0.431313,20.5035,112.841,0.248498,0.0,0.0
3000,749.75,71.7951,78.9921,137.631,100.517,97.0243,0.00442222,0.428877,20.5028,112.591,0.31585,0.0,0.0
3010,752.25,70.9835,79.1014,129.679,100.516,96.899,0.00458002,0.430709,20.5036,112.21,0.327314,0.0,0.0
3020,754.75,71.2339,78.9846,134.268,100.529,97.5634,0.00459166,0.436204,20.5036,111.98,0.267456,0.0,0.0
3030,757.25,71.4432,79.8389,135.741,100.528,96.6331,0.00431286,0.435791,20.4987,111.59,0.352872,0.0,0.0
3040,759.75,71.7749,79.365,134.061,100.553,97.9411,0.0041233,0.435752,20.4972,111.349,0.235053,0.0,0.0
3050,762.25,71.3965,79.7102,137.327,100.561,96.9785,0.00436003,0.440556,20.4966,110.879,0.323979,0.0,0.0
3060,764.75,71.2,79.2647,135.097,100.594,96.2337,0.00459162,0.441369,20.4919,110.629,0.395766,0.0,0.0
3070,767.25,71.0622,79.8488,138.235,100.601,96.2949,0.00474928,0.437263,20.4901,110.248,0.390669,0.0,0.0
3080,769.75,71.2183,79.4693,133.815,100.656,96.9463,0.00477815,0.435802,20.4952,110.018,0.335321,0.0,0.0
3090,772.25,72.0385,79.5403,135.973,100.672,95.9717,0.00495415,0.435351,20.4983,109.698,0.427002,0.0,0.0
3100,774.75,71.1796,79.6082,136.1,100.689,97.1635,0.00510769,0.436518,20.4988,109.317,0.318298,0.0,0.0
3110,777.25,71.8633,79.9241,136.5,100.745,96.7237,0.00503133,0.437118,20.4984,109.067,0.363811,0.0,0.0
3120,779.75,72.1305,79.7947,142.761,100.766,97.0171,0.00493333,0.436998,20.4972,108.667,0.338608,0.0,0.0
3130,782.25,72.061,79.9571,132.761,100.811,97.0657,0.00488906,0.439017,20.4957,108.387,0.338071,0.0,0.0
3140,784.75,71.5614,79.0038,137.504,100.85,97.218,0.00490513,0.439687,20.4938,108.066,0.327546,0.0,0.0
3150,787.25,72.4011,79.502,134.183,100.914,96.1123,0.00506529,0.439643,20.4921,107.816,0.435401,0.0,0.0
3160,789.75,71.4102,79.8618,134.004,100.938,96.5647,0.00522195,0.43863,20.4915,107.406,0.395561,0.0,0.0
3170,792.25,72.2952,79.8816,137.997,101.001,97.0012,0.00516287,0.437339,20.4929,107.155,0.360845,0.0,0.0
3180,794.75,72.4371,79.9501,135.517,101.018,95.8117,0.00499649,0.437521,20.4933,106.765,0.472582,0.0,0.0
3190,797.25,72.0872,79.4231,135.996,101.067,96.3527,0.00499948,0.436052,20.4935,106.505,0.426625,0.0,0.0
3200,799.75,71.9431,79.2015,137.48,101.088,96.8846,0.00500128,0.433827,20.4935,106.134,0.379304,0.0,0.0
3210,802.25,71.8969,79.6246,135.163,101.136,97.456,0.00490927,0.432584,20.4951,105.894,0.331046,0.0,0.0
3220,804.75,72.1509,79.1919,133.235,101.148,96.7564,0.00478749,0.430937,20.4969,105.544,0.396386,0.0,0.0
3230,807.25,71.7632,79.5264,134.672,101.162,96.3922,0.00458461,0.429376,20.4978,105.284,0.431327,0.0,0.0
3240,809.75,71.609,79.3724,132.323,101.195,96.6225,0.0043831,0.427779,20.4993,104.973,0.412899,0.0,0.0
3250,812.25,71.9508,78.9994,136.119,101.178,97.0065,0.00445267,0.425931,20.5001,104.673,0.37604,0.0,0.0
3260,814.75,72.2157,78.7345,132.412,101.203,97.0166,0.00471249,0.424985,20.5029,104.373,0.377271,0.0,0.0
3270,817.25,72.066,78.9252,136.638,101.19,97.0995,0.00479716,0.422917,20.5043,104.012,0.36853,0.0,0.0
3280,819.75,71.8878,79.2841,132.046,101.194,97.3056,0.00469104,0.42252,20.5056,103.772,0.349909,0.0,0.0
3290,822.25,72.005,79.1107,138.05,101.176,97.2738,0.00456599,0.421239,20.5072,103.422,0.35128,0.0,0.0
3300,824.75,72.2416,78.9614,135.561,101.173,98.3959,0.00452172,0.418684,20.5097,103.171,0.248606,0.0,0.0
3310,827.25,71.8568,78.5536,136.504,101.156,97.942,0.0044393,0.416014,20.5124,102.821,0.288342,0.0,0.0
3320,829.75,72.107,78.5644,133.401,101.151,99.1055,0.00433485,0.413084,20.5143,102.601,0.182414,0.0,0.0
3330,832.25,71.8234,78.2137,133.914,101.113,97.7363,0.00439269,0.41003,20.5172,102.251,0.30337,0.0,0.0
3340,834.75,71.5212,78.3313,133.917,101.108,98.5934,0.00433202,0.407956,20.5201,102.08,0.224932,0.0,0.0
3350,837.25,71.5553,77.5807,134.088,101.072,98.1723,0.00408888,0.40371,20.5228,101.71,0.259944,0.0,0.0
3360,839.75,71.0955,77.9622,135.422,101.049,98.8232,0.00395098,0.400577,20.5279,101.53,0.198912,0.0,0.0
3370,842.25,71.1404,77.3982,135.399,101.011,98.9388,0.00384552,0.39795,20.5309,101.21,0.185152,0.0,0.0
3380,844.75,70.9543,77.5542,143.159,100.999,97.8211,0.00366278,0.394669,20.5344,101.009,0.285528,0.0,0.0
3390,847.25,70.5956,77.2429,136.657,100.951,98.4175,0.00340481,0.388664,20.5371,100.749,0.226984,0.0,0.0
3400,849.75,70.7631,76.7485,141.589,100.902,98.7326,0.0033672,0.383264,20.5443,100.479,0.194105,0.0,0.0
3410,852.25,70.9859,77.1163,136.569,100.877,98.6921,0.0034731,0.378329,20.5496,100.269,0.195564,0.0,0.0
3420,854.75,70.3367,75.9732,140.724,100.83,98.9884,0.00365928,0.375665,20.5557,99.9883,0.164602,0.0,0.0
3430,857.25,70.1942,75.9659,136.674,100.809,98.4888,0.00366829,0.372412,20.5599,99.8081,0.207943,0.0,0.0
3440,859.75,69.9293,75.8246,141.855,100.771,99.2235,0.0036391,0.366449,20.5636,99.5279,0.138174,0.0,0.0
3450,862.25,69.5474,75.1968,138.84,100.766,99.3343,0.00368834,0.359836,20.5686,99.3577,0.127773,0.0,0.0
3460,864.75,69.6199,74.9537,143.677,100.708,98.8598,0.00357065,0.353783,20.5769,99.0975,0.1654,0.0,0.0
3470,867.25,69.2994,74.5793,139.03,100.667,99.4355,0.00341469,0.348074,20.5833,98.9373,0.109889,0.0,0.0
3480,869.75,68.9558,74.1893,138.902,100.62,99.0742,0.00323731,0.342694,20.5897,98.687,0.138233,0.0,0.0
3490,872.25,69.1579,73.6675,142.575,100.581,98.9894,0.00295187,0.337194,20.5948,98.5269,0.142437,0.0,0.0
3500,874.75,68.4552,73.2051,136.242,100.526,99.0708,0.00271922,0.329804,20.6015,98.2666,0.130238,0.0,0.0
3510,877.25,67.9751,73.2073,136.017,100.468,99.1156,0.00273163,0.32323,20.6085,98.1665,0.121014,0.0,0.0
3520,879.75,67.5576,72.4423,139.422,100.403,98.7461,0.0028059,0.315635,20.6166,97.8963,0.148636,0.0,0.0
3530,882.25,67.6389,71.7601,138.898,100.354,99.1633,0.00273418,0.308416,20.6252,97.8262,0.106626,0.0,0.0
3540,884.75,67.4708,71.2823,139.507,100.277,99.3175,0.00256251,0.302755,20.6333,97.586,0.0858505,0.0,0.0
3550,887.25,66.8458,70.7727,139.475,100.211,99.6325,0.00248778,0.296104,20.6403,97.4759,0.0516744,0.0,0.0
3560,889.75,66.2557,70.9771,140.31,100.154,99.4196,0.0025038,0.288917,20.6475,97.3457,0.0656882,0.0,0.0
3570,892.25,66.2423,70.0966,138.992,100.063,99.3189,0.00231616,0.282447,20.6547,97.1055,0.066691,0.0,0.0
3580,894.75,65.7125,69.531,145.174,100.014,99.8994,0.00204403,0.274989,20.6634,97.0755,0.0101985,0.0,0.0
3590,897.25,65.3905,68.7861,141.166,99.9385,99.5342,0.0019153,0.267777,20.6722,96.8052,0.0361957,0.0,0.0
3600,899.75,65.1929,68.2138,140.672,99.8854,99.5723,0.00202115,0.261901,20.681,96.7752,0.0280383,0.0,0.0
3610,902.25,64.5864,67.6213,143.121,99.8266,99.7274,0.00213247,0.255594,20.6881,96.585,0.00887977,0.0,0.0
3620,904.75,63.8867,67.42,148.694,99.7752,99.4403,0.00214004,0.248084,20.6956,96.5249,0.0300279,0.0,0.0
3630,907.25,63.374,66.3577,141.539,99.7001,100.042,0.00203296,0.239781,20.7045,96.3147,-0.0306153,0.0,0.0
3640,909.75,63.3724,66.0265,142.196,99.6687,99.6513,0.00196617,0.232521,20.7154,96.3147,0.00155846,0.0,0.0
3650,912.25,63.01,65.3024,141.914,99.6177,100.247,0.00199151,0.227341,20.7225,96.1145,-0.0562611,0.0,0.0
3660,914.75,61.4697,65.2972,145.184,99.6026,100.076,0.00193455,0.221704,20.7279,96.1245,-0.0423659,0.0,0.0
3670,917.25,62.0265,64.0977,143.377,99.5769,99.9249,0.00186792,0.215129,20.7345,95.9343,-0.0311628,0.0,0.0
3680,919.75,61.8675,63.8326,145.105,99.5712,100.119,0.00186049,0.20858,20.743,95.9143,-0.0490095,0.0,0.0
3690,922.25,61.0241,63.1686,143.294,99.574,100.175,0.00193167,0.201617,20.7491,95.7642,-0.0537797,0.0,0.0
3700,924.75,60.9294,62.8617,145.441,99.576,100.183,0.00175272,0.197465,20.7574,95.7241,-0.0542413,0.0,0.0
3710,927.25,60.6705,62.8743,143.841,99.5895,100.47,0.00143707,0.193224,20.7631,95.6641,-0.0785916,0.0,0.0
3720,929.75,60.3785,61.8483,145.657,99.6271,100.003,0.00117262,0.188094,20.7682,95.5139,-0.0336775,0.0,0.0
3730,932.25,59.5215,61.2148,141.718,99.6732,100.695,0.0012135,0.183425,20.7737,95.554,-0.0910681,0.0,0.0
3740,934.75,59.2262,60.4859,143.794,99.7275,100.486,0.00154885,0.178229,20.7795,95.3838,-0.0676439,0.0,0.0
3750,937.25,58.9504,60.2901,150.129,99.7817,101.007,0.00174099,0.172697,20.7852,95.4539,-0.109033,0.0,0.0
3760,939.75,57.7058,59.6566,147.858,99.8091,100.793,0.00180907,0.16606,20.7896,95.2737,-0.0876115,0.0,0.0
3770,942.25,57.9627,58.8866,148.039,99.8895,100.762,0.00166652,0.159579,20.7963,95.3738,-0.0776884,0.0,0.0
3780,944.75,57.4405,58.4533,142.537,99.9621,101.082,0.00138791,0.153486,20.8035,95.1936,-0.0994601,0.0,0.0
3790,947.25,57.1452,57.9867,149.144,100.041,100.624,0.00127092,0.148222,20.8116,95.2737,-0.051905,0.0,0.0
3800,949.75,56.6204,57.2004,145.769,100.134,100.802,0.00152312,0.142336,20.8184,95.1135,-0.0594018,0.0,0.0
3810,952.25,56.1676,57.0126,148.134,100.236,101.016,0.00188802,0.137625,20.8264,95.1836,-0.0691946,0.0,0.0
3820,954.75,55.9213,56.6333,144.806,100.329,101.247,0.00220281,0.133104,20.8321,95.0134,-0.0814076,0.0,0.0
3830,957.25,54.9401,56.5809,141.924,100.428,101.074,0.00234372,0.129342,20.8371,95.0835,-0.0572789,0.0,0.0
3840,959.75,55.2223,55.8044,149.455,100.524,101.429,0.00231062,0.126645,20.8416,94.9734,-0.0800282,0.0,0.0
3850,962.25,54.7296,55.3563,149.439,100.609,101.515,0.00221535,0.124806,20.8466,94.9934,-0.0800428,0.0,0.0
3860,964.75,54.3115,55.1903,147.485,100.675,101.328,0.00209732,0.12395,20.8499,94.9534,-0.0577472,0.0,0.0
3870,967.25,54.5883,54.6075,145.612,100.728,101.439,0.00206553,0.122875,20.8518,94.8433,-0.0628089,0.0,0.0
3880,969.75,54.1228,54.7409,146.12,100.773,101.585,0.00217959,0.1225,20.8535,94.9033,-0.0716293,0.0,0.0
3890,972.25,53.5665,54.5451,148.511,100.783,101.618,0.00229559,0.122486,20.8541,94.7532,-0.073689,0.0,0.0
3900,974.75,53.5421,54.0789,150.723,100.796,101.584,0.00229367,0.122707,20.8543,94.8232,-0.0695545,0.0,0.0
3910,977.25,53.1074,53.7097,152.269,100.762,101.658,0.00215221,0.123806,20.8541,94.6831,-0.0790046,0.0,0.0
3920,979.75,52.8614,53.7189,150.199,100.752,101.257,0.0020983,0.124261,20.8528,94.7532,-0.0447062,0.0,0.0
3930,982.25,52.1475,53.4684,145.655,100.677,101.217,0.00234543,0.124112,20.8523,94.593,-0.047801,0.0,0.0
3940,984.75,52.7183,53.5966,147.718,100.629,101.744,0.00257532,0.12354,20.8522,94.6931,-0.0984137,0.0,0.0
3950,987.25,52.3431,53.1698,149.007,100.51,101.387,0.00249831,0.122789,20.8525,94.533,-0.0776068,0.0,0.0
3960,989.75,51.9841,53.0143,154.912,100.41,101.256,0.00225059,0.122304,20.8538,94.613,-0.0749031,0.0,0.0
3970,992.25,51.8572,52.2818,148.843,100.304,101.218,0.00213361,0.12214,20.8542,94.4629,-0.0809945,0.0,0.0
3980,994.75,51.2145,52.6549,146.74,100.211,101.196,0.00220965,0.121935,20.8543,94.553,-0.0873702,0.0,0.0
3990,997.25,51.4744,52.4277,152.234,100.119,100.683,0.00238617,0.121987,20.8536,94.4329,-0.0501212,0.0,0.0
4000,999.75,51.5963,51.8027,145.56,100.035,100.726,0.00250811,0.122396,20.8526,94.4429,-0.0614688,0.0,0.0
4010,1002.25,50.7535,51.9687,147.079,99.9764,100.782,0.00249172,0.12207,20.8523,94.4429,-0.0716706,0.0,0.0
4020,1004.75,50.81,51.8381,146.407,100.045,100.903,0.00240996,0.121322,20.8521,94.3228,-0.0763349,0.0,0.0
4030,1007.25,50.6105,51.5407,151.901,100.177,101.28,0.00233725,0.120077,20.8524,94.4229,-0.0978201,0.0,0.0
4040,1009.75,49.1281,49.681,148.602,100.252,101.177,0.00229741,0.118861,20.8537,94.2827,-0.0819905,0.0,0.0
4050,1012.25,49.0973,49.8017,145.25,100.32,101.524,0.0022423,0.118485,20.8553,94.2527,-0.106571,0.0,0.0
4060,1014.75,48.7191,49.4787,148.726,100.362,101.009,0.00221442,0.118715,20.8558,94.1226,-0.0574482,0.0,0.0
4070,1017.25,48.4071,49.4462,153.266,100.421,101.384,0.00237245,0.118397,20.856,94.3127,-0.0852181,0.0,0.0
4080,1019.75,48.3945,49.7696,148.038,100.469,101.487,0.00246131,0.117335,20.8565,94.1626,-0.0900497,0.0,0.0
4090,1022.25,48.9227,49.7536,144.503,100.522,101.479,0.0024225,0.116357,20.8586,94.2226,-0.0846136,0.0,0.0
4100,1024.75,48.2264,49.6388,142.677,100.561,101.702,0.00250377,0.116459,20.8599,94.1226,-0.100748,0.0,0.0
4110,1027.25,48.1589,49.885,146.588,100.595,101.541,0.00259981,0.116705,20.8605,94.1826,-0.0836001,0.0,0.0
4120,1029.75,48.0955,48.9641,151.386,100.609,101.145,0.00262929,0.116978,20.86,94.0325,-0.0474644,0.0,0.0
4130,1032.25,48.2114,49.1186,147.979,100.641,101.171,0.0026981,0.116592,20.859,94.1726,-0.046864,0.0,0.0
4140,1034.75,47.8552,49.7362,149.545,100.633,101.413,0.00247668,0.115266,20.8601,94.0325,-0.0689526,0.0,0.0
4150,1037.25,47.5287,49.1531,145.383,100.632,101.665,0.00226564,0.114258,20.862,93.9224,-0.0912219,0.0,0.0
4160,1039.75,47.3269,49.081,148.946,100.652,101.443,0.00226874,0.113569,20.8627,94.0725,-0.0699231,0.0,0.0
4170,1042.25,47.5884,49.0507,145.947,100.647,101.467,0.00237976,0.113185,20.863,93.9023,-0.0725083,0.0,0.0
4180,1044.75,47.8325,49.2915,147.453,100.663,101.243,0.00238884,0.112762,20.8644,93.9624,-0.0512845,0.0,0.0
4190,1047.25,47.5122,48.8705,148.193,100.638,101.736,0.00245684,0.113229,20.8651,93.7622,-0.0968606,0.0,0.0
4200,1049.75,47.3655,48.669,150.13,100.656,101.232,0.00256974,0.113597,20.8642,93.8923,-0.0510013,0.0,0.0
4210,1052.25,48.26,48.2272,146.115,100.625,101.729,0.00261289,0.113552,20.8635,93.7922,-0.0974644,0.0,0.0
4220,1054.75,47.02,48.4474,153.672,100.64,101.639,0.00252918,0.113457,20.8641,93.9023,-0.088176,0.0,0.0
4230,1057.25,47.0021,48.7448,150.632,100.616,101.291,0.0024304,0.113381,20.864,93.7021,-0.0597345,0.0,0.0
4240,1059.75,46.5764,48.1277,148.483,100.634,101.363,0.00256322,0.113005,20.8634,93.8323,-0.064473,0.0,0.0
4250,1062.25,47.2641,48.3521,152.921,100.628,101.537,0.00273116,0.112673,20.8643,93.7122,-0.0802839,0.0,0.0
4260,1064.75,46.9778,48.5554,143.293,100.625,101.365,0.00267835,0.112156,20.865,93.7622,-0.0654344,0.0,0.0
4270,1067.25,47.0685,48.3931,147.933,100.629,101.851,0.0025271,0.111632,20.8653,93.6921,-0.107874,0.0,0.0
4280,1069.75,46.9701,47.6163,150.062,100.62,101.393,0.00235305,0.11142,20.8664,93.542,-0.0682934,0.0,0.0
4290,1072.25,46.5567,47.8448,149.531,100.622,101.222,0.00234324,0.111619,20.8673,93.6821,-0.0530364,0.0,0.0
4300,1074.75,46.7239,48.0787,144.686,100.618,101.241,0.00257029,0.112141,20.8672,93.542,-0.0551711,0.0,0.0
4310,1077.25,46.9679,48.2393,150.29,100.628,101.243,0.00283348,0.112062,20.8659,93.6121,-0.0543993,0.0,0.0
4320,1079.75,46.0746,48.0404,148.591,100.622,101.95,0.00288483,0.11201,20.8656,93.4819,-0.117073,0.0,0.0
4330,1082.25,46.218,47.9843,146.034,100.642,101.426,0.00276746,0.112636,20.8662,93.592,-0.0692949,0.0,0.0
4340,1084.75,45.9164,48.1607,148.233,100.629,101.327,0.00270171,0.11225,20.8653,93.4319,-0.0617181,0.0,0.0
4350,1087.25,46.5022,48.0478,148.163,100.637,101.78,0.00260229,0.111451,20.865,93.512,-0.100859,0.0,0.0
4360,1089.75,46.0208,47.4003,149.2,100.624,101.174,0.00237308,0.111327,20.8664,93.3818,-0.0486766,0.0,0.0
4370,1092.25,46.0186,47.5513,149.281,100.65,101.673,0.00233723,0.111043,20.8669,93.512,-0.0903051,0.0,0.0
4380,1094.75,46.1904,47.2899,151.232,100.644,101.184,0.00238337,0.110757,20.867,93.3118,-0.0478374,0.0,0.0
4390,1097.25,46.1938,47.5374,150.843,100.632,101.203,0.00245444,0.110737,20.8671,93.4519,-0.0505029,0.0,0.0
4400,1099.75,45.5627,47.811,151.167,100.638,101.401,0.00251912,0.110744,20.8671,93.2717,-0.0674154,0.0,0.0
4410,1102.25,46.1177,47.7117,150.684,100.649,101.112,0.00258013,0.110908,20.8675,93.3718,-0.0409921,0.0,0.0
4420,1104.75,45.4142,47.5975,148.27,100.638,101.733,0.0026961,0.111024,20.8672,93.2717,-0.0966857,0.0,0.0
4430,1107.25,46.2676,46.667,147.18,100.638,101.243,0.00275938,0.110446,20.867,93.2217,-0.053566,0.0,0.0
4440,1109.75,45.4471,47.3235,147.252,100.644,101.408,0.00268404,0.109934,20.8674,93.2317,-0.0675505,0.0,0.0
4450,1112.25,45.3058,47.1228,147.554,100.629,101.345,0.00255346,0.109677,20.8685,93.1116,-0.0632951,0.0,0.0
4460,1114.75,45.7615,46.6768,150.007,100.646,101.296,0.00245534,0.109493,20.8682,93.2217,-0.0574724,0.0,0.0
4470,1117.25,45.3882,46.7151,146.951,100.639,101.143,0.00245531,0.110104,20.8679,93.0215,-0.0446564,0.0,0.0
4480,1119.75,45.5374,47.1129,148.426,100.653,101.413,0.00246735,0.110774,20.8678,93.0915,-0.0672142,0.0,0.0
4490,1122.25,44.9872,46.6231,145.219,100.637,101.55,0.0024947,0.110883,20.8678,92.9114,-0.0806669,0.0,0.0
4500,1124.75,44.924,46.6121,146.292,100.651,101.217,0.00258778,0.110642,20.8697,93.1016,-0.0501555,0.0,0.0
4508,1126.75,45.4319,47.0076,145.814,100.65,101.457,0.0026524,0.110194,20.8713,93.1116,-0.0713701,0.0,0.0