File: 01_Data/Pressure_Treated_Deck/Cone/Pressure_Treated_Deck_HRRPUA_50.csv
Time after Ignition,Pressure_Treated_Deck_R1,Pressure_Treated_Deck_R2,Pressure_Treated_Deck_R3,Mean,Std. Dev.
0.0,4.2,9.1,0.0,4.4,4.5
0.75,3.8,9.1,-0.1,4.3,4.7
1.5,3.2,9.1,-0.2,4.0,4.7
2.25,2.8,9.4,-0.3,4.0,4.9
3.0,2.4,9.3,-0.3,3.8,4.9
3.75,2.0,9.1,-0.3,3.6,4.9
4.5,1.6,9.3,-0.4,3.5,5.1
5.25,1.3,9.3,-0.4,3.4,5.1
6.0,1.2,9.0,-0.4,3.3,5.0
6.75,1.3,8.7,-0.4,3.2,4.8
7.5,1.4,8.6,-0.4,3.2,4.8
8.25,1.4,8.4,-0.3,3.2,4.6
9.0,1.4,8.3,0.0,3.2,4.4
9.75,1.4,8.3,0.3,3.4,4.3
10.5,2.7,8.3,1.1,4.1,3.8
11.25,3.5,8.5,1.8,4.6,3.5
12.0,7.6,12.4,5.0,8.3,3.7
12.75,12.9,21.8,10.9,15.2,5.8
13.5,20.9,37.5,19.9,26.1,9.9
14.25,33.5,56.4,31.7,40.5,13.8
15.0,50.9,76.0,48.1,58.3,15.4
15.75,69.4,93.8,65.1,76.1,15.5
16.5,92.7,110.2,79.0,93.9,15.6
17.25,111.8,125.8,93.3,110.3,16.3
18.0,126.6,134.3,102.7,121.2,16.5
18.75,142.4,150.1,114.8,135.7,18.5
19.5,154.8,164.7,123.9,147.8,21.3
20.25,165.5,176.1,131.9,157.8,23.1
21.0,171.8,185.6,142.0,166.5,22.3
21.75,182.6,198.0,154.5,178.4,22.0
22.5,192.3,204.5,160.0,185.6,23.0
23.25,202.2,217.8,169.3,196.4,24.7
24.0,198.6,219.7,180.5,199.6,19.6
24.75,207.5,227.4,182.7,205.9,22.4
25.5,211.2,233.3,192.5,212.3,20.4
26.25,213.7,235.5,196.3,215.2,19.6
27.0,220.5,242.9,202.8,222.1,20.1
27.75,226.3,244.8,200.9,224.0,22.0
28.5,229.1,247.6,206.7,227.8,20.5
29.25,228.5,254.2,206.8,229.8,23.7
30.0,232.2,252.6,207.5,230.7,22.6
30.75,232.6,255.2,211.4,233.1,21.9
31.5,236.0,254.2,214.8,235.0,19.8
32.25,237.2,255.8,209.9,234.3,23.1
33.0,238.6,254.6,217.3,236.8,18.7
33.75,241.5,256.5,218.7,238.9,19.0
34.5,239.4,258.0,218.8,238.7,19.6
35.25,244.0,253.9,219.7,239.2,17.6
36.0,245.3,258.0,221.0,241.5,18.8
36.75,242.5,257.6,219.5,239.9,19.2
37.5,242.5,260.7,219.1,240.7,20.9
38.25,238.7,260.2,222.2,240.4,19.1
39.0,246.0,265.4,225.6,245.7,19.9
39.75,239.7,258.0,224.7,240.8,16.7
40.5,240.5,256.3,224.5,240.4,15.9
41.25,240.9,259.8,222.7,241.1,18.6
42.0,237.1,260.5,221.5,239.7,19.6
42.75,240.0,261.4,226.3,242.5,17.7
43.5,237.3,258.7,224.4,240.1,17.3
44.25,236.5,253.1,230.3,240.0,11.8
45.0,238.3,253.1,224.4,238.6,14.3
45.75,235.1,249.0,229.2,237.7,10.2
46.5,235.4,249.7,224.5,236.5,12.7
47.25,238.0,252.2,223.6,237.9,14.3
48.0,238.0,245.4,225.1,236.2,10.2
48.75,237.3,246.6,226.1,236.7,10.2
49.5,235.6,243.8,228.9,236.1,7.4
50.25,235.9,246.7,224.1,235.5,11.3
51.0,234.4,237.5,221.1,231.0,8.7
51.75,228.7,236.0,222.8,229.2,6.6
52.5,239.3,233.9,219.1,230.8,10.5
53.25,235.6,236.4,224.1,232.1,6.9
54.0,231.7,234.9,221.1,229.2,7.2
54.75,233.3,230.7,220.9,228.3,6.5
55.5,233.3,228.9,217.0,226.4,8.4
56.25,229.1,228.4,214.0,223.8,8.5
57.0,225.0,230.2,220.3,225.2,5.0
57.75,224.0,224.3,216.2,221.5,4.6
58.5,223.8,222.2,216.4,220.8,3.9
59.25,220.3,226.4,211.9,219.5,7.3
60.0,218.7,220.8,215.9,218.4,2.5
60.75,219.3,221.6,215.5,218.8,3.1
61.5,219.0,215.1,219.1,217.7,2.3
62.25,217.4,214.9,216.1,216.1,1.2
63.0,220.1,214.7,215.8,216.9,2.9
63.75,215.5,210.7,214.2,213.5,2.5
64.5,219.7,206.7,210.5,212.3,6.7
65.25,222.5,207.5,212.9,214.3,7.6
66.0,221.4,208.8,213.8,214.7,6.3
66.75,220.2,203.3,212.2,211.9,8.5
67.5,219.4,202.6,209.5,210.5,8.4
68.25,219.4,202.4,211.9,211.2,8.5
69.0,216.1,200.8,210.3,209.1,7.7
69.75,218.4,201.2,214.9,211.5,9.1
70.5,216.1,201.6,211.7,209.8,7.4
71.25,214.9,192.4,210.5,205.9,11.9
72.0,212.7,194.8,211.9,206.4,10.1
72.75,213.2,195.4,215.8,208.1,11.1
73.5,211.1,196.6,213.2,207.0,9.0
74.25,212.1,193.3,209.3,204.9,10.1
75.0,210.0,195.0,213.4,206.1,9.8
75.75,209.9,192.1,209.9,204.0,10.3
76.5,204.5,189.6,206.2,200.1,9.1
77.25,206.1,189.2,206.6,200.6,9.9
78.0,201.7,192.1,205.7,199.8,7.0
78.75,207.7,185.7,204.1,199.2,11.8
79.5,202.7,188.6,202.2,197.8,8.0
80.25,202.0,188.4,204.4,198.2,8.6
81.0,201.0,187.8,204.4,197.7,8.8
81.75,197.0,186.5,204.5,196.0,9.1
82.5,198.1,187.5,205.0,196.9,8.8
83.25,196.3,182.3,202.8,193.8,10.5
84.0,201.6,181.6,202.2,195.1,11.7
84.75,197.6,184.0,201.2,194.3,9.1
85.5,197.0,182.8,204.6,194.8,11.1
86.25,194.5,178.3,199.5,190.8,11.1
87.0,193.9,183.2,196.2,191.1,7.0
87.75,192.1,178.9,196.0,189.0,9.0
88.5,192.6,178.4,195.3,188.8,9.1
89.25,192.0,179.5,197.2,189.6,9.1
90.0,193.9,181.1,192.3,189.1,6.9
90.75,190.8,177.0,194.5,187.4,9.2
91.5,191.4,179.2,192.6,187.7,7.4
92.25,191.2,174.7,190.7,185.6,9.4
93.0,190.3,179.0,193.4,187.6,7.6
93.75,189.5,178.8,194.4,187.5,8.0
94.5,190.9,174.9,188.9,184.9,8.7
95.25,190.8,179.0,186.8,185.5,6.0
96.0,189.0,174.4,188.1,183.9,8.2
96.75,189.1,175.7,187.8,184.2,7.4
97.5,190.9,175.4,183.4,183.2,7.7
98.25,186.1,175.8,185.3,182.4,5.7
99.0,186.1,172.2,186.9,181.7,8.2
99.75,188.5,172.4,184.3,181.7,8.4
100.5,191.0,170.9,183.9,181.9,10.2
101.25,187.1,173.8,182.7,181.2,6.8
102.0,186.6,171.2,182.6,180.1,8.0
102.75,189.1,168.6,184.7,180.8,10.8
103.5,184.8,168.0,180.2,177.7,8.6
104.25,187.0,175.2,181.4,181.2,5.9
105.0,181.1,170.0,177.5,176.2,5.7
105.75,183.1,168.6,177.9,176.5,7.4
106.5,180.7,168.2,177.8,175.6,6.5
107.25,180.8,168.2,177.4,175.4,6.5
108.0,181.5,169.2,175.7,175.5,6.2
108.75,178.7,167.2,178.2,174.7,6.5
109.5,177.4,168.3,177.8,174.5,5.3
110.25,179.1,169.6,173.6,174.1,4.8
111.0,180.1,167.8,174.1,174.0,6.2
111.75,178.7,168.5,173.5,173.6,5.1
112.5,178.5,169.4,173.2,173.7,4.6
113.25,173.8,169.3,173.0,172.1,2.4
114.0,175.9,166.3,174.3,172.2,5.1
114.75,175.0,164.8,171.9,170.6,5.3
115.5,174.4,167.2,170.6,170.7,3.6
116.25,169.4,168.4,171.8,169.9,1.7
117.0,173.3,165.8,170.3,169.8,3.8
117.75,174.9,165.9,170.4,170.4,4.5
118.5,172.5,166.3,169.5,169.4,3.1
119.25,174.6,165.5,170.5,170.2,4.5
120.0,172.4,169.2,170.1,170.6,1.6
120.75,173.6,167.4,170.2,170.4,3.1
121.5,172.0,169.4,165.5,169.0,3.3
122.25,171.9,165.7,166.7,168.1,3.3
123.0,172.6,167.4,169.4,169.8,2.6
123.75,172.2,165.9,169.8,169.3,3.2
124.5,172.4,167.0,165.8,168.4,3.5
125.25,173.1,165.5,164.8,167.8,4.6
126.0,172.1,166.7,164.6,167.8,3.9
126.75,172.7,167.2,163.2,167.7,4.8
127.5,169.5,168.4,163.1,167.0,3.4
128.25,169.7,168.4,163.1,167.1,3.5
129.0,168.0,168.7,164.0,166.9,2.5
129.75,170.1,168.4,161.6,166.7,4.5
130.5,169.3,168.8,161.6,166.6,4.3
131.25,166.9,167.8,163.3,166.0,2.4
132.0,166.4,167.0,160.2,164.5,3.8
132.75,166.5,165.7,161.4,164.6,2.7
133.5,164.0,163.9,159.8,162.5,2.4
134.25,163.8,171.9,160.0,165.2,6.1
135.0,165.2,169.5,155.9,163.5,7.0
135.75,166.2,168.0,157.0,163.7,5.9
136.5,166.1,164.8,157.9,162.9,4.4
137.25,164.9,163.9,157.1,162.0,4.2
138.0,164.2,165.9,157.6,162.6,4.4
138.75,162.7,165.0,155.3,161.0,5.1
139.5,164.6,164.0,154.4,161.0,5.7
140.25,165.1,162.0,153.4,160.2,6.0
141.0,162.3,161.8,153.2,159.1,5.1
141.75,163.6,162.4,153.0,159.7,5.8
142.5,161.2,161.9,156.0,159.7,3.2
143.25,162.2,163.3,153.3,159.6,5.5
144.0,161.9,160.1,154.7,158.9,3.8
144.75,160.9,163.0,152.6,158.8,5.5
145.5,159.6,164.1,154.5,159.4,4.8
146.25,161.1,161.9,153.7,158.9,4.5
147.0,158.4,159.9,150.8,156.4,4.9
147.75,159.7,163.2,151.8,158.2,5.8
148.5,160.1,163.1,150.3,157.9,6.7
149.25,157.8,162.2,149.8,156.6,6.3
150.0,161.2,163.3,149.5,158.0,7.5
150.75,161.1,161.5,148.9,157.1,7.2
151.5,158.1,165.2,148.3,157.2,8.5
152.25,157.7,161.0,146.8,155.2,7.4
153.0,157.6,156.8,149.2,154.5,4.6
153.75,154.1,157.9,147.9,153.3,5.0
154.5,156.7,158.0,146.9,153.8,6.0
155.25,156.4,157.8,147.7,153.9,5.5
156.0,155.7,157.7,146.7,153.4,5.8
156.75,155.6,156.4,145.8,152.6,5.9
157.5,155.8,156.1,148.7,153.5,4.2
158.25,153.7,156.3,148.9,153.0,3.8
159.0,155.1,154.3,149.3,152.9,3.2
159.75,156.6,157.5,148.3,154.2,5.1
160.5,154.9,157.4,146.5,152.9,5.7
161.25,157.1,157.3,149.9,154.8,4.2
162.0,156.7,157.6,149.7,154.7,4.3
162.75,154.1,158.5,146.4,153.0,6.1
163.5,153.8,157.3,149.5,153.5,3.9
164.25,153.9,156.1,146.2,152.1,5.2
165.0,155.6,156.5,147.1,153.1,5.2
165.75,154.3,156.1,149.3,153.3,3.5
166.5,153.8,155.6,147.8,152.4,4.1
167.25,154.5,158.1,146.0,152.9,6.2
168.0,153.4,155.1,145.1,151.2,5.4
168.75,154.6,150.1,146.5,150.4,4.1
169.5,152.2,152.7,143.4,149.4,5.2
170.25,150.5,151.7,145.8,149.4,3.1
171.0,153.6,150.3,143.4,149.1,5.2
171.75,151.5,152.7,145.0,149.7,4.1
172.5,150.6,147.7,144.6,147.6,3.0
173.25,147.9,148.8,141.2,146.0,4.2
174.0,151.6,149.4,142.5,147.8,4.8
174.75,147.6,145.1,139.6,144.1,4.1
175.5,150.0,146.3,143.0,146.4,3.5
176.25,149.4,146.0,143.5,146.3,2.9
177.0,148.8,148.1,141.7,146.2,3.9
177.75,150.4,145.5,141.2,145.7,4.6
178.5,145.5,147.5,142.8,145.3,2.4
179.25,147.0,146.8,141.8,145.2,3.0
180.0,145.9,144.1,141.2,143.7,2.4
180.75,146.8,147.3,142.5,145.5,2.6
181.5,147.5,148.3,141.1,145.6,4.0
182.25,148.1,145.5,141.7,145.1,3.2
183.0,147.8,148.4,139.7,145.3,4.9
183.75,149.1,148.8,141.4,146.4,4.3
184.5,146.8,146.2,142.9,145.3,2.1
185.25,149.0,149.0,137.7,145.2,6.5
186.0,146.9,148.8,138.5,144.7,5.5
186.75,147.6,147.6,137.8,144.3,5.7
187.5,145.2,145.0,136.9,142.4,4.7
188.25,147.4,145.0,137.7,143.4,5.1
189.0,144.3,144.4,137.2,142.0,4.1
189.75,147.0,145.1,137.1,143.1,5.2
190.5,144.4,143.5,135.8,141.2,4.8
191.25,142.9,142.5,133.3,139.6,5.5
192.0,146.0,145.6,135.5,142.3,5.9
192.75,143.9,142.7,134.2,140.3,5.3
193.5,144.0,144.5,134.1,140.9,5.9
194.25,148.8,143.6,133.3,141.9,7.9
195.0,144.6,142.5,134.7,140.6,5.3
195.75,142.8,141.8,130.3,138.3,7.0
196.5,143.4,141.1,131.5,138.7,6.3
197.25,142.1,143.0,133.3,139.4,5.4
198.0,142.8,141.9,133.3,139.3,5.2
198.75,144.9,139.9,132.6,139.1,6.2
199.5,143.4,142.9,133.8,140.0,5.4
200.25,141.6,139.0,131.5,137.4,5.2
201.0,141.1,138.7,128.5,136.1,6.7
201.75,143.7,139.4,131.1,138.1,6.4
202.5,143.0,140.2,131.6,138.3,6.0
203.25,141.1,140.9,130.3,137.4,6.2
204.0,140.6,141.4,132.4,138.1,5.0
204.75,138.6,139.9,131.8,136.8,4.4
205.5,140.0,140.8,130.5,137.1,5.8
206.25,138.4,136.7,128.8,134.7,5.1
207.0,139.2,139.5,129.5,136.1,5.7
207.75,138.7,137.4,129.8,135.3,4.8
208.5,141.6,140.1,128.2,136.6,7.3
209.25,138.9,139.6,128.1,135.5,6.5
210.0,139.7,137.8,132.7,136.7,3.6
210.75,137.2,137.2,128.1,134.2,5.3
211.5,139.6,136.3,132.6,136.2,3.5
212.25,139.6,138.0,128.8,135.4,5.8
213.0,138.7,137.1,130.7,135.5,4.3
213.75,138.1,139.5,129.9,135.8,5.2
214.5,137.4,137.5,128.9,134.6,5.0
215.25,139.4,136.0,127.3,134.2,6.3
216.0,139.0,134.1,128.0,133.7,5.5
216.75,139.6,136.8,128.1,134.8,6.0
217.5,140.1,135.9,129.2,135.1,5.5
218.25,137.9,136.5,127.1,133.8,5.9
219.0,138.4,133.4,128.2,133.4,5.1
219.75,137.8,135.5,128.2,133.8,5.0
220.5,139.2,132.2,127.5,133.0,5.9
221.25,138.8,134.1,128.0,133.6,5.4
222.0,137.9,133.5,127.6,133.0,5.2
222.75,139.6,137.8,127.7,135.0,6.4
223.5,138.9,134.2,127.6,133.6,5.6
224.25,139.0,135.3,125.7,133.3,6.8
225.0,141.1,133.8,128.0,134.3,6.6
225.75,137.7,133.2,126.8,132.5,5.5
226.5,137.5,135.3,125.8,132.9,6.2
227.25,137.2,137.1,125.7,133.3,6.6
228.0,139.0,133.7,125.6,132.8,6.7
228.75,139.3,132.9,125.5,132.6,6.9
229.5,138.0,132.1,126.2,132.1,5.9
230.25,140.6,135.2,125.2,133.6,7.8
231.0,138.5,133.0,125.8,132.4,6.4
231.75,138.5,134.2,126.9,133.2,5.9
232.5,138.4,130.7,125.4,131.5,6.5
233.25,138.2,131.7,124.7,131.5,6.8
234.0,140.0,132.4,123.6,132.0,8.2
234.75,137.7,132.7,124.9,131.8,6.4
235.5,137.8,133.2,123.1,131.4,7.5
236.25,136.1,131.5,124.2,130.6,6.0
237.0,138.2,131.5,125.5,131.7,6.3
237.75,136.3,133.4,126.1,131.9,5.3
238.5,138.0,132.7,125.9,132.2,6.1
239.25,137.0,133.5,127.6,132.7,4.8
240.0,137.8,134.0,124.9,132.3,6.6
240.75,133.8,132.0,125.6,130.5,4.3
241.5,133.8,132.9,124.3,130.3,5.2
242.25,136.6,133.2,126.3,132.0,5.3
243.0,135.5,132.3,127.5,131.8,4.0
243.75,135.9,132.0,128.2,132.0,3.8
244.5,135.5,131.6,126.5,131.2,4.5
245.25,134.4,132.6,125.3,130.8,4.8
246.0,135.0,131.8,126.7,131.2,4.2
246.75,132.8,132.5,125.9,130.4,3.9
247.5,135.2,131.1,126.0,130.7,4.6
248.25,135.1,131.4,124.6,130.4,5.3
249.0,131.4,130.0,125.2,128.8,3.3
249.75,134.2,129.6,125.2,129.7,4.5
250.5,130.9,129.8,125.9,128.9,2.6
251.25,131.4,129.0,124.5,128.3,3.5
252.0,134.1,131.0,124.8,130.0,4.7
252.75,132.6,129.7,127.0,129.8,2.8
253.5,135.5,131.0,124.0,130.1,5.8
254.25,136.1,130.8,124.5,130.5,5.8
255.0,134.8,128.1,125.8,129.6,4.7
255.75,136.8,127.5,121.3,128.5,7.8
256.5,134.4,132.2,121.2,129.3,7.0
257.25,135.9,130.9,121.1,129.3,7.5
258.0,139.5,130.1,123.0,130.8,8.3
258.75,135.4,131.3,121.1,129.3,7.4
259.5,135.2,131.5,122.0,129.6,6.8
260.25,135.4,131.2,120.2,128.9,7.8
261.0,135.6,128.9,120.6,128.3,7.5
261.75,136.2,128.7,121.4,128.8,7.4
262.5,136.4,131.0,120.6,129.4,8.0
263.25,136.6,132.0,120.1,129.6,8.5
264.0,135.1,130.3,121.0,128.8,7.2
264.75,132.9,128.5,121.7,127.7,5.6
265.5,136.0,130.1,121.7,129.3,7.2
266.25,138.1,131.2,120.6,130.0,8.9
267.0,133.8,130.7,120.9,128.5,6.7
267.75,135.1,129.4,119.6,128.1,7.8
268.5,134.1,126.7,121.5,127.5,6.3
269.25,136.0,129.2,120.1,128.4,8.0
270.0,134.7,128.2,119.9,127.6,7.4
270.75,132.1,131.0,120.0,127.7,6.7
271.5,132.4,128.3,122.0,127.6,5.3
272.25,134.3,130.7,119.9,128.3,7.5
273.0,132.1,128.4,117.9,126.1,7.4
273.75,132.6,128.7,119.0,126.7,7.0
274.5,130.3,127.9,118.5,125.6,6.3
275.25,132.1,128.8,118.2,126.4,7.3
276.0,133.6,127.2,117.1,126.0,8.3
276.75,132.7,129.2,117.1,126.3,8.2
277.5,131.0,130.8,117.4,126.4,7.8
278.25,133.1,126.6,116.7,125.4,8.2
279.0,130.5,126.4,118.4,125.1,6.1
279.75,133.7,129.1,116.4,126.4,9.0
280.5,132.1,127.1,116.9,125.3,7.8
281.25,133.4,128.6,116.1,126.0,8.9
282.0,132.3,127.8,118.6,126.3,7.0
282.75,133.7,129.3,116.6,126.6,8.9
283.5,129.9,129.3,116.5,125.2,7.6
284.25,131.4,126.4,114.6,124.1,8.6
285.0,134.7,126.2,117.5,126.1,8.6
285.75,129.0,126.7,118.6,124.7,5.4
286.5,131.4,125.8,117.1,124.8,7.2
287.25,134.1,126.3,118.3,126.2,7.9
288.0,132.2,125.0,116.8,124.7,7.7
288.75,133.9,125.9,115.6,125.1,9.2
289.5,132.9,126.4,118.0,125.7,7.5
290.25,131.8,127.1,118.2,125.7,6.9
291.0,130.9,128.4,119.2,126.2,6.1
291.75,130.2,126.3,117.6,124.7,6.4
292.5,132.6,128.0,115.1,125.3,9.1
293.25,130.2,127.1,116.4,124.5,7.2
294.0,128.7,127.5,115.0,123.7,7.5
294.75,127.4,126.1,115.1,122.9,6.8
295.5,131.0,126.9,115.9,124.6,7.8
296.25,129.2,126.9,116.7,124.3,6.7
297.0,129.3,128.5,114.7,124.2,8.2
297.75,127.6,127.5,115.5,123.5,6.9
298.5,127.9,127.1,115.2,123.4,7.2
299.25,127.5,127.1,117.1,123.9,5.9
300.0,127.0,126.4,115.5,123.0,6.5
300.75,126.7,128.2,114.1,123.0,7.7
301.5,125.9,125.4,114.4,121.9,6.5
302.25,128.3,126.4,115.9,123.5,6.7
303.0,130.9,126.8,115.2,124.3,8.1
303.75,127.7,129.0,116.1,124.3,7.1
304.5,129.3,125.2,117.8,124.1,5.8
305.25,127.0,125.8,115.1,122.6,6.6
306.0,127.5,125.3,116.4,123.1,5.9
306.75,131.3,126.1,118.1,125.2,6.7
307.5,130.0,125.5,119.7,125.1,5.1
308.25,129.1,126.8,118.7,124.9,5.5
309.0,127.5,126.3,118.7,124.2,4.8
309.75,130.0,124.2,119.5,124.6,5.3
310.5,128.5,126.5,119.0,124.7,5.0
311.25,130.7,127.1,119.7,125.8,5.6
312.0,129.1,125.7,117.1,124.0,6.2
312.75,128.7,127.5,118.7,125.0,5.5
313.5,128.4,125.6,117.8,123.9,5.5
314.25,126.4,123.8,121.2,123.8,2.6
315.0,127.8,126.1,117.0,123.7,5.8
315.75,128.7,123.6,118.0,123.4,5.4
316.5,126.6,125.5,118.2,123.4,4.6
317.25,128.7,125.3,116.5,123.5,6.3
318.0,128.0,123.8,119.4,123.7,4.3
318.75,126.3,122.6,117.3,122.1,4.6
319.5,126.5,124.3,117.9,122.9,4.5
320.25,128.5,125.4,119.9,124.6,4.4
321.0,127.5,123.4,119.8,123.6,3.9
321.75,128.0,123.9,117.7,123.2,5.2
322.5,129.2,122.6,120.3,124.1,4.6
323.25,127.2,123.9,118.3,123.1,4.5
324.0,127.5,122.6,118.5,122.9,4.5
324.75,129.7,124.8,120.4,125.0,4.7
325.5,127.4,123.2,119.7,123.4,3.8
326.25,126.5,122.2,120.1,123.0,3.3
327.0,125.7,122.4,119.8,122.6,3.0
327.75,125.8,122.6,120.0,122.8,2.9
328.5,128.1,121.9,119.2,123.1,4.6
329.25,127.2,122.7,120.7,123.6,3.3
330.0,126.8,123.9,121.6,124.1,2.6
330.75,126.3,125.3,120.1,123.9,3.3
331.5,126.5,124.4,121.5,124.1,2.5
332.25,126.4,126.0,119.4,123.9,3.9
333.0,127.2,126.8,118.7,124.3,4.8
333.75,128.1,127.4,120.5,125.3,4.2
334.5,128.6,127.5,121.8,126.0,3.7
335.25,126.7,126.9,121.0,124.9,3.3
336.0,129.1,126.4,121.3,125.6,3.9
336.75,127.4,124.8,119.2,123.8,4.2
337.5,127.6,126.5,121.5,125.2,3.3
338.25,129.0,126.7,121.3,125.7,4.0
339.0,127.4,125.2,121.8,124.8,2.8
339.75,129.6,125.7,123.1,126.2,3.3
340.5,130.3,123.6,121.5,125.1,4.6
341.25,127.8,126.3,121.8,125.3,3.1
342.0,131.0,126.6,121.9,126.5,4.6
342.75,128.2,127.8,123.3,126.5,2.7
343.5,131.2,126.9,122.3,126.8,4.4
344.25,131.1,126.4,122.5,126.7,4.3
345.0,132.5,127.6,121.2,127.1,5.6
345.75,130.1,128.1,120.4,126.2,5.1
346.5,131.2,126.3,121.4,126.3,4.9
347.25,129.8,128.0,123.6,127.1,3.2
348.0,130.5,129.1,121.8,127.1,4.7
348.75,130.0,124.7,121.1,125.3,4.5
349.5,128.1,128.9,122.1,126.4,3.7
350.25,129.3,129.2,124.1,127.5,3.0
351.0,126.7,129.8,121.2,125.9,4.4
351.75,128.8,127.0,121.2,125.7,4.0
352.5,128.7,127.8,121.9,126.1,3.7
353.25,128.4,126.5,120.7,125.2,4.0
354.0,129.5,126.2,121.7,125.8,3.9
354.75,129.8,126.5,121.2,125.8,4.3
355.5,129.4,127.4,121.0,125.9,4.3
356.25,128.0,125.3,119.8,124.4,4.2
357.0,128.6,126.5,120.7,125.2,4.1
357.75,128.0,125.0,122.0,125.0,3.0
358.5,128.3,125.6,119.8,124.5,4.3
359.25,127.7,127.7,118.3,124.6,5.4
360.0,127.0,124.9,121.7,124.5,2.6
360.75,126.4,125.0,122.9,124.7,1.7
361.5,126.3,126.2,122.7,125.1,2.1
362.25,127.5,128.0,121.6,125.7,3.6
363.0,129.5,123.5,121.7,124.9,4.1
363.75,126.7,126.0,124.8,125.8,0.9
364.5,129.5,125.8,123.9,126.4,2.8
365.25,129.5,126.2,122.5,126.1,3.5
366.0,129.3,126.2,122.1,125.8,3.6
366.75,130.7,128.3,122.0,127.0,4.5
367.5,129.7,127.0,123.7,126.8,3.0
368.25,129.8,125.5,122.1,125.8,3.9
369.0,129.3,126.5,122.1,125.9,3.6
369.75,130.0,124.6,122.8,125.8,3.7
370.5,131.9,125.3,121.7,126.3,5.2
371.25,132.5,122.9,123.8,126.4,5.3
372.0,128.9,123.4,120.6,124.3,4.2
372.75,129.9,124.2,122.1,125.4,4.1
373.5,130.3,124.5,119.5,124.8,5.4
374.25,128.5,124.9,120.0,124.5,4.3
375.0,129.6,125.4,121.3,125.5,4.1
375.75,129.2,123.2,119.9,124.1,4.7
376.5,128.0,126.8,121.0,125.2,3.7
377.25,129.2,124.1,119.9,124.4,4.7
378.0,128.3,124.4,118.4,123.7,5.0
378.75,130.5,124.1,119.8,124.8,5.4
379.5,129.2,125.9,121.9,125.7,3.7
380.25,129.4,125.4,120.1,124.9,4.7
381.0,128.3,126.4,120.2,125.0,4.3
381.75,129.5,126.7,119.9,125.4,4.9
382.5,128.7,127.1,119.4,125.1,5.0
383.25,131.0,127.3,120.3,126.2,5.4
384.0,129.1,125.8,120.9,125.3,4.2
384.75,131.0,128.7,120.7,126.8,5.4
385.5,129.9,126.4,121.6,126.0,4.2
386.25,131.0,128.2,121.7,126.9,4.8
387.0,129.6,127.6,121.6,126.3,4.2
387.75,128.8,127.5,121.9,126.1,3.7
388.5,129.6,127.1,118.7,125.1,5.7
389.25,131.6,127.9,119.7,126.4,6.1
390.0,131.2,127.8,119.3,126.1,6.1
390.75,130.3,127.0,122.1,126.5,4.1
391.5,130.4,127.9,120.0,126.1,5.4
392.25,129.8,127.9,119.4,125.7,5.6
393.0,129.1,125.4,117.5,124.0,5.9
393.75,132.3,126.6,118.5,125.8,7.0
394.5,129.4,128.9,119.5,125.9,5.6
395.25,129.8,128.2,121.3,126.4,4.5
396.0,129.4,125.8,121.8,125.7,3.8
396.75,127.6,125.6,120.6,124.6,3.6
397.5,127.4,125.9,120.8,124.7,3.5
398.25,129.2,126.3,122.3,125.9,3.5
399.0,129.4,125.9,121.9,125.7,3.8
399.75,131.4,124.9,122.4,126.2,4.7
400.5,130.3,126.5,122.0,126.3,4.2
401.25,130.8,126.9,122.1,126.6,4.4
402.0,130.9,129.2,121.2,127.1,5.2
402.75,132.3,126.7,122.0,127.0,5.2
403.5,131.3,127.5,119.1,126.0,6.3
404.25,131.8,127.4,123.5,127.6,4.2
405.0,132.9,127.1,122.2,127.4,5.4
405.75,132.8,125.7,122.5,127.0,5.3
406.5,131.7,126.5,123.3,127.2,4.3
407.25,134.2,125.7,122.4,127.4,6.1
408.0,132.6,125.9,122.9,127.2,5.0
408.75,130.8,128.0,124.5,127.8,3.2
409.5,131.2,125.5,123.5,126.7,4.0
410.25,130.6,126.4,121.7,126.2,4.4
411.0,131.4,126.0,122.1,126.5,4.7
411.75,133.0,125.8,122.8,127.2,5.3
412.5,130.5,128.1,122.7,127.1,4.0
413.25,130.9,128.5,122.4,127.2,4.4
414.0,129.9,126.1,122.8,126.3,3.6
414.75,129.1,126.1,121.5,125.5,3.8
415.5,129.7,125.5,122.1,125.8,3.8
416.25,129.4,126.9,120.9,125.7,4.4
417.0,131.0,124.0,122.1,125.7,4.7
417.75,129.9,127.7,120.8,126.1,4.8
418.5,128.6,126.8,121.3,125.6,3.8
419.25,128.6,126.8,122.4,125.9,3.2
420.0,130.2,125.9,121.8,126.0,4.2
420.75,129.2,128.2,122.2,126.5,3.8
421.5,130.1,126.6,121.1,125.9,4.6
422.25,132.8,126.7,119.6,126.4,6.6
423.0,130.7,127.4,120.9,126.4,5.0
423.75,132.1,130.8,121.4,128.1,5.8
424.5,130.4,126.6,122.1,126.4,4.2
425.25,132.2,127.8,121.4,127.1,5.4
426.0,131.7,128.2,120.2,126.7,5.9
426.75,132.9,128.0,122.2,127.7,5.4
427.5,131.2,128.3,121.7,127.1,4.9
428.25,133.1,131.0,125.2,129.8,4.1
429.0,131.0,127.8,122.1,127.0,4.5
429.75,132.5,128.1,121.9,127.5,5.3
430.5,133.3,128.9,124.2,128.8,4.5
431.25,134.4,126.4,122.4,127.8,6.1
432.0,134.0,127.4,123.8,128.4,5.2
432.75,133.5,128.2,122.4,128.0,5.5
433.5,131.8,126.5,124.1,127.5,4.0
434.25,131.4,128.3,122.0,127.2,4.8
435.0,134.2,127.4,123.8,128.5,5.3
435.75,132.6,128.1,122.2,127.6,5.2
436.5,132.3,127.0,121.8,127.0,5.2
437.25,133.8,130.1,122.8,128.9,5.6
438.0,132.8,128.7,123.9,128.5,4.4
438.75,135.5,129.1,121.8,128.8,6.9
439.5,134.2,130.5,122.9,129.2,5.8
440.25,135.7,129.1,124.3,129.7,5.7
441.0,136.4,129.8,123.8,130.0,6.3
441.75,134.4,129.6,121.8,128.6,6.3
442.5,136.2,129.8,122.5,129.5,6.8
443.25,133.3,132.0,123.0,129.4,5.6
444.0,135.1,128.7,123.2,129.0,5.9
444.75,136.0,129.9,124.9,130.3,5.6
445.5,136.0,131.8,125.9,131.2,5.0
446.25,137.3,128.2,124.5,130.0,6.6
447.0,135.5,129.7,122.9,129.4,6.3
447.75,136.4,128.9,124.1,129.8,6.2
448.5,139.2,129.8,123.4,130.8,7.9
449.25,138.3,129.6,122.6,130.1,7.9
450.0,134.1,132.1,125.7,130.6,4.4
450.75,139.6,131.4,123.1,131.4,8.2
451.5,137.3,130.6,125.3,131.0,6.0
452.25,136.9,132.3,125.5,131.5,5.7
453.0,134.6,131.0,124.8,130.1,5.0
453.75,137.9,130.4,126.4,131.6,5.8
454.5,134.4,129.2,125.5,129.7,4.5
455.25,139.5,131.0,125.1,131.9,7.2
456.0,135.4,131.6,126.9,131.3,4.3
456.75,134.6,130.1,125.8,130.2,4.4
457.5,134.8,132.3,126.6,131.2,4.2
458.25,135.7,134.3,124.0,131.3,6.4
459.0,136.3,131.0,125.1,130.8,5.6
459.75,134.9,131.9,123.9,130.2,5.7
460.5,138.5,131.4,123.5,131.2,7.5
461.25,136.8,131.7,124.8,131.1,6.0
462.0,136.9,130.3,124.7,130.6,6.1
462.75,137.8,129.4,123.0,130.0,7.4
463.5,139.2,133.3,125.6,132.7,6.8
464.25,137.6,132.6,125.7,132.0,6.0
465.0,137.3,130.8,125.0,131.0,6.2
465.75,137.3,131.3,125.5,131.4,5.9
466.5,139.2,132.1,126.2,132.5,6.5
467.25,139.0,134.9,126.7,133.5,6.3
468.0,137.1,133.2,125.7,132.0,5.8
468.75,142.2,133.8,128.1,134.7,7.1
469.5,139.4,132.1,130.1,133.9,4.9
470.25,138.4,133.6,128.2,133.4,5.1
471.0,138.0,134.4,128.0,133.4,5.1
471.75,138.5,133.1,129.5,133.7,4.5
472.5,141.0,131.7,127.0,133.2,7.1
473.25,140.6,131.8,128.8,133.7,6.2
474.0,139.6,134.3,127.9,133.9,5.8
474.75,138.8,131.1,131.3,133.7,4.4
475.5,141.9,134.8,132.1,136.2,5.1
476.25,139.5,134.3,127.9,133.9,5.8
477.0,139.5,132.8,130.1,134.1,4.8
477.75,141.6,133.3,128.7,134.5,6.5
478.5,140.8,132.5,129.3,134.2,5.9
479.25,140.5,132.7,128.3,133.8,6.2
480.0,141.0,134.3,130.3,135.2,5.4
480.75,141.3,132.4,129.9,134.5,6.0
481.5,141.4,133.3,129.3,134.7,6.2
482.25,141.6,138.0,130.9,136.8,5.4
483.0,141.2,134.0,130.9,135.4,5.2
483.75,142.3,136.1,130.6,136.3,5.8
484.5,140.3,133.6,130.8,134.9,4.9
485.25,142.0,134.4,132.7,136.4,4.9
486.0,141.3,135.1,131.9,136.1,4.8
486.75,140.2,135.6,131.5,135.8,4.4
487.5,141.4,134.9,132.1,136.1,4.8
488.25,144.1,133.6,131.0,136.2,6.9
489.0,142.4,135.3,132.3,136.7,5.2
489.75,140.4,134.9,133.1,136.1,3.8
490.5,141.4,138.0,130.3,136.6,5.7
491.25,140.5,134.3,132.4,135.7,4.3
492.0,141.5,134.2,131.9,135.9,5.0
492.75,141.8,136.7,132.5,137.0,4.7
493.5,141.0,135.7,133.6,136.8,3.8
494.25,143.1,136.5,130.9,136.8,6.1
495.0,140.5,134.5,132.9,136.0,4.0
495.75,144.3,137.0,131.4,137.6,6.5
496.5,141.5,135.1,133.5,136.7,4.2
497.25,139.0,136.2,134.0,136.4,2.5
498.0,142.0,134.6,136.6,137.7,3.9
498.75,142.3,135.1,134.1,137.2,4.5
499.5,142.7,136.3,135.7,138.3,3.9
500.25,143.4,136.0,134.4,137.9,4.8
501.0,144.1,135.3,138.1,139.2,4.5
501.75,142.5,136.6,134.8,138.0,4.0
502.5,142.1,137.9,135.4,138.4,3.4
503.25,146.7,136.3,137.9,140.3,5.6
504.0,145.7,138.9,135.2,139.9,5.3
504.75,145.3,136.1,136.0,139.1,5.4
505.5,143.5,136.8,137.2,139.2,3.8
506.25,148.0,136.6,136.5,140.4,6.6
507.0,147.3,139.1,139.8,142.1,4.5
507.75,146.1,136.3,136.7,139.7,5.6
508.5,149.2,137.3,140.0,142.2,6.2
509.25,147.3,138.5,137.5,141.1,5.4
510.0,148.6,138.8,139.0,142.2,5.6
510.75,148.5,138.9,138.5,141.9,5.7
511.5,145.8,136.9,140.7,141.1,4.4
512.25,147.6,140.7,139.1,142.5,4.5
513.0,147.8,138.1,138.4,141.4,5.5
513.75,149.1,140.0,141.6,143.6,4.8
514.5,145.2,137.3,140.2,140.9,4.0
515.25,149.5,137.7,140.4,142.6,6.2
516.0,146.4,140.7,143.0,143.4,2.8
516.75,148.9,139.4,140.3,142.8,5.2
517.5,147.5,138.1,140.0,141.8,4.9
518.25,147.9,137.7,144.0,143.2,5.1
519.0,147.1,138.9,141.0,142.3,4.3
519.75,145.7,141.3,141.3,142.8,2.6
520.5,147.1,139.5,142.6,143.1,3.8
521.25,147.7,139.0,142.2,143.0,4.4
522.0,147.1,139.6,141.5,142.7,3.9
522.75,148.0,139.8,142.9,143.6,4.1
523.5,148.5,138.7,143.2,143.5,4.9
524.25,150.6,141.1,144.6,145.4,4.8
525.0,147.1,139.9,142.3,143.1,3.6
525.75,150.6,140.4,142.9,144.7,5.3
526.5,147.7,136.8,142.4,142.3,5.4
527.25,151.0,140.9,142.8,144.9,5.4
528.0,150.0,140.6,142.8,144.5,4.9
528.75,149.6,142.8,144.6,145.7,3.5
529.5,153.1,140.7,143.7,145.8,6.5
530.25,149.7,142.5,144.5,145.6,3.7
531.0,151.5,144.9,143.4,146.6,4.3
531.75,151.4,140.3,145.2,145.6,5.5
532.5,151.1,140.7,144.3,145.3,5.3
533.25,152.0,142.3,141.6,145.3,5.8
534.0,151.6,142.2,146.0,146.6,4.7
534.75,153.6,145.2,143.5,147.5,5.4
535.5,152.6,146.2,143.2,147.3,4.8
536.25,149.3,144.3,143.9,145.8,3.0
537.0,150.2,143.0,142.4,145.2,4.3
537.75,149.1,145.0,144.8,146.3,2.4
538.5,149.7,146.8,145.7,147.4,2.1
539.25,149.8,144.3,147.2,147.1,2.7
540.0,152.4,145.4,144.3,147.4,4.4
540.75,149.8,145.2,146.8,147.3,2.3
541.5,149.6,146.2,145.0,146.9,2.4
542.25,150.9,147.3,145.7,148.0,2.7
543.0,150.3,144.8,148.5,147.9,2.8
543.75,149.8,146.0,145.8,147.2,2.2
544.5,151.7,145.9,143.6,147.1,4.2
545.25,150.2,147.9,144.3,147.5,3.0
546.0,152.1,148.7,144.7,148.5,3.7
546.75,150.5,147.0,146.3,147.9,2.3
547.5,152.0,148.1,142.0,147.4,5.0
548.25,151.3,147.5,143.5,147.5,3.9
549.0,150.5,148.6,148.6,149.2,1.1
549.75,149.0,146.0,146.8,147.3,1.6
550.5,151.2,148.2,148.4,149.3,1.7
551.25,151.8,147.8,151.0,150.2,2.1
552.0,150.6,145.7,147.0,147.7,2.5
552.75,152.1,145.7,146.2,148.0,3.6
553.5,152.6,148.7,149.3,150.2,2.1
554.25,152.5,149.8,146.4,149.6,3.1
555.0,151.4,148.5,147.8,149.2,1.9
555.75,153.7,149.7,149.0,150.8,2.6
556.5,153.6,149.5,146.3,149.8,3.7
557.25,156.6,148.8,148.6,151.3,4.5
558.0,152.8,148.0,149.9,150.2,2.4
558.75,151.5,148.0,149.9,149.8,1.7
559.5,150.6,150.9,148.9,150.1,1.1
560.25,154.3,152.3,149.2,151.9,2.6
561.0,152.5,153.1,150.7,152.1,1.3
561.75,153.7,153.2,152.5,153.1,0.6
562.5,156.0,156.5,148.5,153.6,4.5
563.25,156.6,154.6,150.9,154.0,2.9
564.0,155.4,153.8,151.1,153.4,2.1
564.75,157.8,154.9,148.2,153.6,4.9
565.5,156.0,154.9,149.7,153.6,3.4
566.25,154.4,152.2,152.4,153.0,1.2
567.0,156.6,155.5,150.6,154.2,3.2
567.75,155.5,153.5,152.7,153.9,1.5
568.5,156.1,153.0,150.6,153.3,2.7
569.25,157.5,152.4,154.1,154.7,2.6
570.0,157.9,153.0,152.0,154.3,3.2
570.75,154.5,155.6,154.4,154.9,0.7
571.5,161.6,154.5,155.9,157.3,3.8
572.25,158.4,155.3,156.5,156.8,1.6
573.0,158.6,154.3,153.9,155.6,2.6
573.75,156.7,156.8,152.0,155.2,2.7
574.5,156.8,157.2,153.8,156.0,1.9
575.25,158.0,158.9,152.1,156.3,3.7
576.0,158.3,157.8,158.7,158.3,0.4
576.75,158.1,156.6,154.4,156.4,1.9
577.5,157.1,158.5,155.1,156.9,1.7
578.25,156.1,159.2,157.1,157.5,1.6
579.0,161.3,162.3,157.4,160.3,2.6
579.75,157.3,157.7,155.2,156.7,1.3
580.5,160.8,161.3,155.2,159.1,3.4
581.25,158.9,163.1,153.6,158.6,4.8
582.0,160.5,159.8,156.5,159.0,2.1
582.75,160.2,165.7,159.2,161.7,3.5
583.5,161.2,161.8,155.5,159.5,3.5
584.25,164.2,162.3,159.2,161.9,2.6
585.0,160.1,162.5,158.0,160.2,2.2
585.75,161.8,159.9,155.3,159.0,3.3
586.5,162.1,164.4,159.2,161.9,2.6
587.25,164.8,162.6,161.6,163.0,1.6
588.0,165.4,161.8,160.2,162.5,2.6
588.75,163.9,163.4,160.5,162.6,1.9
589.5,165.9,164.1,158.8,162.9,3.7
590.25,162.2,164.2,158.8,161.7,2.7
591.0,164.3,163.7,161.0,163.0,1.8
591.75,164.0,166.1,158.1,162.7,4.2
592.5,165.0,164.6,161.1,163.5,2.2
593.25,161.4,167.1,160.5,163.0,3.6
594.0,164.6,164.0,160.4,163.0,2.3
594.75,163.1,164.5,162.9,163.5,0.9
595.5,162.3,166.7,161.5,163.5,2.8
596.25,162.0,167.2,162.3,163.8,2.9
597.0,163.3,166.3,165.3,164.9,1.5
597.75,162.9,167.9,160.0,163.6,4.0
598.5,163.8,167.6,163.7,165.0,2.3
599.25,166.1,169.4,160.3,165.3,4.6
600.0,167.3,169.5,163.1,166.6,3.2
600.75,171.2,167.1,164.1,167.5,3.6
601.5,171.6,169.6,165.5,168.9,3.1
602.25,171.2,167.9,164.4,167.9,3.4
603.0,168.9,170.6,163.6,167.7,3.7
603.75,173.2,165.2,166.5,168.3,4.3
604.5,169.0,171.3,167.7,169.3,1.8
605.25,172.8,170.4,167.3,170.2,2.7
606.0,174.6,172.2,167.0,171.3,3.9
606.75,175.1,174.1,167.7,172.3,4.0
607.5,172.6,168.4,169.4,170.1,2.2
608.25,172.9,171.7,168.5,171.0,2.3
609.0,169.0,169.1,172.0,170.0,1.7
609.75,173.2,172.2,170.9,172.1,1.1
610.5,171.6,174.4,168.5,171.5,3.0
611.25,173.9,172.6,167.3,171.3,3.5
612.0,170.2,175.6,169.7,171.8,3.3
612.75,170.7,172.5,168.6,170.6,2.0
613.5,173.4,176.0,168.3,172.5,3.9
614.25,174.3,173.7,169.9,172.6,2.4
615.0,172.1,176.5,171.3,173.3,2.8
615.75,172.7,172.8,170.7,172.0,1.2
616.5,173.3,174.1,173.5,173.6,0.4
617.25,172.4,180.8,173.6,175.6,4.6
618.0,174.9,173.2,173.9,174.0,0.9
618.75,176.8,177.0,175.6,176.5,0.8
619.5,176.8,176.4,172.8,175.4,2.2
620.25,177.3,176.7,174.4,176.1,1.5
621.0,178.6,175.3,177.1,177.0,1.7
621.75,177.4,180.0,175.4,177.6,2.3
622.5,177.6,179.3,177.2,178.0,1.2
623.25,176.8,180.5,178.5,178.6,1.9
624.0,178.6,178.6,175.5,177.6,1.8
624.75,179.1,177.8,175.7,177.5,1.7
625.5,177.3,177.0,177.1,177.1,0.2
626.25,177.0,179.0,177.9,177.9,1.0
627.0,178.9,178.0,176.3,177.7,1.3
627.75,180.4,180.9,178.2,179.9,1.4
628.5,177.3,179.4,178.9,178.6,1.1
629.25,181.1,178.5,178.6,179.4,1.5
630.0,179.7,180.4,179.5,179.9,0.5
630.75,178.3,180.1,182.9,180.4,2.3
631.5,180.5,178.9,178.4,179.3,1.1
632.25,183.4,178.1,178.2,179.9,3.0
633.0,180.8,181.5,179.3,180.6,1.1
633.75,178.2,177.3,180.6,178.7,1.7
634.5,178.3,182.0,179.0,179.7,2.0
635.25,181.5,180.3,177.5,179.8,2.1
636.0,182.9,181.4,184.7,183.0,1.6
636.75,180.3,176.5,184.4,180.4,4.0
637.5,179.2,183.7,181.5,181.5,2.2
638.25,182.5,182.2,183.3,182.6,0.6
639.0,182.8,181.7,183.8,182.8,1.1
639.75,179.5,181.3,183.4,181.4,2.0
640.5,181.5,181.3,183.4,182.1,1.1
641.25,183.4,182.2,185.0,183.5,1.4
642.0,180.9,181.8,187.7,183.5,3.7
642.75,188.0,179.3,184.1,183.8,4.4
643.5,178.9,179.6,183.9,180.8,2.7
644.25,186.0,183.4,183.7,184.4,1.5
645.0,182.9,183.6,188.2,184.9,2.9
645.75,186.2,181.2,187.7,185.1,3.4
646.5,185.0,181.9,191.2,186.0,4.7
647.25,186.6,182.9,185.4,185.0,1.9
648.0,188.3,180.8,187.3,185.5,4.1
648.75,187.4,184.2,185.1,185.6,1.6
649.5,187.0,182.4,187.4,185.6,2.8
650.25,186.4,182.4,188.8,185.9,3.2
651.0,187.4,189.0,189.2,188.5,1.0
651.75,187.0,182.0,185.8,184.9,2.6
652.5,189.5,186.8,187.4,187.9,1.4
653.25,184.0,183.3,189.7,185.7,3.5
654.0,184.0,184.2,187.4,185.2,1.9
654.75,186.1,187.2,188.5,187.3,1.2
655.5,192.8,183.0,189.6,188.5,5.0
656.25,186.4,181.8,191.4,186.5,4.8
657.0,187.0,184.9,192.5,188.1,3.9
657.75,188.3,183.2,188.5,186.7,3.0
658.5,187.8,187.7,192.4,189.3,2.7
659.25,184.9,184.2,189.8,186.3,3.1
660.0,188.6,185.1,189.9,187.9,2.5
660.75,189.1,188.0,192.7,189.9,2.5
661.5,188.2,186.9,191.7,188.9,2.5
662.25,185.9,188.3,192.8,189.0,3.5
663.0,185.8,188.2,191.3,188.5,2.8
663.75,188.7,185.9,190.9,188.5,2.5
664.5,191.3,189.0,188.0,189.5,1.7
665.25,188.8,190.5,191.4,190.2,1.3
666.0,194.5,187.5,190.0,190.6,3.5
666.75,189.8,190.3,190.1,190.0,0.3
667.5,191.4,189.9,192.7,191.4,1.4
668.25,190.3,188.4,189.7,189.5,1.0
669.0,189.0,189.1,189.2,189.1,0.1
669.75,190.6,191.7,194.9,192.4,2.2
670.5,189.9,188.9,189.9,189.6,0.6
671.25,190.0,190.6,192.0,190.9,1.1
672.0,187.2,189.5,193.5,190.1,3.2
672.75,191.5,195.5,192.4,193.1,2.1
673.5,188.9,190.4,187.1,188.8,1.6
674.25,193.1,192.9,192.4,192.8,0.4
675.0,191.3,191.6,187.6,190.2,2.2
675.75,190.7,190.6,192.1,191.1,0.8
676.5,191.1,192.7,192.9,192.2,1.0
677.25,193.0,190.3,192.7,192.0,1.5
678.0,190.9,192.6,193.0,192.2,1.1
678.75,196.8,190.1,193.0,193.3,3.4
679.5,193.0,190.6,192.2,191.9,1.3
680.25,194.3,189.6,193.8,192.5,2.6
681.0,191.1,193.4,196.7,193.7,2.9
681.75,197.4,188.4,194.9,193.6,4.7
682.5,194.5,190.0,195.5,193.3,2.9
683.25,193.0,188.5,194.9,192.1,3.3
684.0,198.6,189.6,193.8,194.0,4.5
684.75,194.6,189.5,200.6,194.9,5.5
685.5,193.3,189.6,194.1,192.3,2.4
686.25,199.4,192.1,194.8,195.5,3.7
687.0,196.6,189.8,196.4,194.3,3.9
687.75,198.8,194.5,193.9,195.7,2.7
688.5,197.8,189.2,192.9,193.3,4.3
689.25,195.8,189.9,194.9,193.5,3.2
690.0,196.8,190.7,193.6,193.7,3.0
690.75,196.9,193.7,199.2,196.6,2.8
691.5,195.0,193.5,194.4,194.3,0.8
692.25,194.2,193.5,198.1,195.3,2.5
693.0,194.1,193.7,195.0,194.3,0.7
693.75,195.9,192.0,195.9,194.6,2.2
694.5,198.2,194.0,198.9,197.1,2.7
695.25,196.9,194.9,191.0,194.3,3.0
696.0,197.9,194.9,195.6,196.1,1.5
696.75,198.7,191.9,197.3,196.0,3.6
697.5,194.2,190.5,194.9,193.2,2.3
698.25,198.1,191.9,197.6,195.9,3.4
699.0,199.1,195.8,195.7,196.9,2.0
699.75,197.2,194.5,196.0,195.9,1.3
700.5,200.8,191.6,199.8,197.4,5.0
701.25,200.5,193.2,198.0,197.2,3.7
702.0,201.3,194.1,197.0,197.5,3.6
702.75,200.0,193.6,200.2,197.9,3.7
703.5,201.1,193.4,197.4,197.3,3.9
704.25,197.9,190.3,200.5,196.2,5.3
705.0,197.3,195.2,198.2,196.9,1.5
705.75,201.0,191.7,203.2,198.6,6.1
706.5,197.7,190.2,200.8,196.3,5.5
707.25,200.4,191.0,202.4,197.9,6.1
708.0,201.7,192.3,198.7,197.6,4.8
708.75,200.7,194.0,201.1,198.6,4.0
709.5,198.0,193.7,200.2,197.3,3.3
710.25,205.5,192.0,195.9,197.8,7.0
711.0,199.9,193.3,202.6,198.6,4.8
711.75,202.5,196.0,199.4,199.3,3.3
712.5,200.8,194.5,199.3,198.2,3.3
713.25,201.8,195.7,201.2,199.6,3.4
714.0,199.4,196.2,198.9,198.1,1.7
714.75,203.5,195.3,205.7,201.5,5.5
715.5,201.6,196.5,199.0,199.0,2.6
716.25,206.4,196.3,202.9,201.9,5.1
717.0,205.0,194.8,200.9,200.2,5.1
717.75,202.9,199.9,203.1,202.0,1.8
718.5,207.5,196.7,202.7,202.3,5.4
719.25,205.4,195.8,202.7,201.3,4.9
720.0,206.5,197.1,200.1,201.2,4.8
720.75,202.8,202.1,196.5,200.4,3.5
721.5,205.4,198.7,198.5,200.9,3.9
722.25,202.7,202.0,202.2,202.3,0.4
723.0,205.9,199.7,195.8,200.5,5.1
723.75,208.1,203.4,201.1,204.2,3.6
724.5,206.4,198.3,202.7,202.5,4.0
725.25,208.8,199.7,199.5,202.7,5.3
726.0,203.9,202.0,204.5,203.5,1.3
726.75,204.4,194.9,204.2,201.2,5.4
727.5,206.7,199.5,205.4,203.9,3.9
728.25,205.3,203.2,202.4,203.6,1.5
729.0,204.4,200.2,206.0,203.5,3.0
729.75,206.7,203.2,201.8,203.9,2.5
730.5,208.1,200.6,202.9,203.9,3.8
731.25,205.0,202.5,204.8,204.1,1.3
732.0,207.9,205.4,203.1,205.4,2.4
732.75,206.3,201.3,204.9,204.2,2.6
733.5,207.0,203.3,205.1,205.1,1.8
734.25,205.6,203.5,204.6,204.6,1.0
735.0,205.1,204.5,208.1,205.9,2.0
735.75,208.1,200.9,209.0,206.0,4.5
736.5,211.4,206.2,204.6,207.4,3.5
737.25,209.9,203.0,204.8,205.9,3.6
738.0,208.4,204.9,206.3,206.5,1.8
738.75,207.7,204.0,205.9,205.9,1.8
739.5,209.0,204.8,206.1,206.6,2.1
740.25,206.1,202.9,202.3,203.8,2.1
741.0,204.8,204.2,202.3,203.8,1.3
741.75,205.4,203.4,202.2,203.7,1.6
742.5,210.6,202.9,202.0,205.2,4.7
743.25,209.6,204.5,203.4,205.8,3.3
744.0,207.5,200.3,200.3,202.7,4.2
744.75,210.0,204.5,202.9,205.8,3.7
745.5,209.1,203.4,202.4,205.0,3.6
746.25,205.9,204.5,205.1,205.1,0.7
747.0,210.2,203.7,199.0,204.3,5.6
747.75,210.7,204.0,205.8,206.8,3.5
748.5,214.8,210.4,202.3,209.1,6.3
749.25,212.1,205.0,207.6,208.2,3.6
750.0,210.2,202.5,201.0,204.6,5.0
750.75,208.2,202.3,202.0,204.2,3.5
751.5,211.6,210.6,209.2,210.4,1.2
752.25,208.2,207.3,200.9,205.5,4.0
753.0,210.1,206.0,201.8,206.0,4.1
753.75,212.8,211.8,205.0,209.9,4.2
754.5,207.3,210.1,204.4,207.3,2.9
755.25,213.5,201.8,205.0,206.8,6.0
756.0,210.6,207.0,202.5,206.7,4.1
756.75,208.2,202.0,203.9,204.7,3.2
757.5,210.5,204.2,204.4,206.4,3.6
758.25,210.6,208.9,205.0,208.2,2.9
759.0,209.6,208.6,206.0,208.1,1.9
759.75,211.6,208.9,203.1,207.8,4.3
760.5,209.3,206.0,206.5,207.3,1.8
761.25,211.4,204.7,204.5,206.9,3.9
762.0,210.3,201.4,205.8,205.9,4.4
762.75,205.9,203.4,206.7,205.4,1.7
763.5,212.2,203.3,202.9,206.1,5.3
764.25,213.3,205.8,205.8,208.3,4.3
765.0,212.7,206.7,204.0,207.8,4.5
765.75,212.4,206.4,205.5,208.1,3.8
766.5,213.1,203.4,203.3,206.6,5.7
767.25,210.3,207.4,208.0,208.6,1.5
768.0,208.7,203.7,204.3,205.6,2.7
768.75,212.1,207.3,206.5,208.6,3.0
769.5,210.4,202.4,206.2,206.3,4.0
770.25,213.4,202.1,204.4,206.6,6.0
771.0,213.7,206.5,200.6,206.9,6.5
771.75,213.8,202.7,208.1,208.2,5.5
772.5,213.8,203.8,206.7,208.1,5.2
773.25,213.8,204.4,201.8,206.7,6.3
774.0,212.2,207.7,199.7,206.5,6.4
774.75,209.0,205.4,202.9,205.8,3.1
775.5,210.7,205.2,204.3,206.7,3.5
776.25,209.6,204.8,203.9,206.1,3.1
777.0,210.3,208.9,204.0,207.7,3.3
777.75,210.1,207.8,204.2,207.4,2.9
778.5,211.3,204.5,202.0,206.0,4.8
779.25,206.9,206.1,208.0,207.0,0.9
780.0,211.2,208.7,200.3,206.7,5.7
780.75,209.7,203.9,202.6,205.4,3.8
781.5,211.3,203.9,204.9,206.7,4.0
782.25,208.4,207.2,202.4,206.0,3.2
783.0,210.3,206.1,203.5,206.6,3.4
783.75,209.1,206.7,201.3,205.7,4.0
784.5,209.2,205.4,202.5,205.7,3.3
785.25,209.2,205.6,201.7,205.5,3.8
786.0,205.5,206.8,201.2,204.5,2.9
786.75,208.7,204.6,201.7,205.0,3.5
787.5,212.5,204.9,199.3,205.6,6.6
788.25,209.6,205.7,197.1,204.1,6.4
789.0,214.2,204.3,199.6,206.1,7.5
789.75,212.4,203.6,197.7,204.6,7.4
790.5,211.0,203.6,198.5,204.4,6.3
791.25,208.4,202.9,196.0,202.4,6.3
792.0,208.9,204.9,199.4,204.4,4.8
792.75,209.1,204.7,199.9,204.6,4.6
793.5,209.4,202.7,197.6,203.2,5.9
794.25,205.9,202.9,199.0,202.6,3.5
795.0,207.2,203.1,196.3,202.2,5.5
795.75,208.5,206.0,197.3,203.9,5.9
796.5,207.7,203.3,194.9,202.0,6.5
797.25,207.1,200.7,197.4,201.8,4.9
798.0,204.7,197.9,194.4,199.0,5.2
798.75,206.4,203.1,197.3,202.3,4.6
799.5,203.3,202.5,195.5,200.4,4.3
800.25,204.8,206.1,196.8,202.6,5.0
801.0,206.1,204.9,196.6,202.5,5.2
801.75,203.9,201.0,191.0,198.6,6.8
802.5,206.6,203.3,190.9,200.3,8.3
803.25,201.5,199.4,192.1,197.7,4.9
804.0,198.5,203.8,195.5,199.3,4.2
804.75,204.8,204.4,192.4,200.5,7.0
805.5,202.1,201.3,194.3,199.2,4.3
806.25,202.2,201.2,192.8,198.8,5.2
807.0,198.7,201.2,191.5,197.1,5.1
807.75,197.2,200.9,193.8,197.3,3.5
808.5,198.3,203.4,191.4,197.7,6.0
809.25,200.4,199.6,192.1,197.4,4.6
810.0,199.4,194.8,189.5,194.6,5.0
810.75,199.0,197.0,188.4,194.8,5.6
811.5,198.8,202.0,191.6,197.5,5.3
812.25,200.2,195.1,189.7,195.0,5.3
813.0,195.8,201.2,187.9,195.0,6.7
813.75,195.6,194.8,188.7,193.0,3.8
814.5,198.6,196.2,186.8,193.9,6.2
815.25,193.4,196.2,184.7,191.4,6.0
816.0,196.3,193.2,189.2,192.9,3.6
816.75,194.0,196.2,186.7,192.3,4.9
817.5,194.9,194.2,187.2,192.1,4.3
818.25,190.3,194.4,186.6,190.4,3.9
819.0,192.4,192.0,179.5,188.0,7.3
819.75,195.2,193.5,184.3,191.0,5.9
820.5,190.3,194.2,180.4,188.3,7.1
821.25,193.9,192.5,180.3,188.9,7.5
822.0,190.1,190.5,179.1,186.5,6.5
822.75,187.3,188.5,179.2,185.0,5.0
823.5,188.7,188.6,177.3,184.9,6.5
824.25,190.8,190.0,179.0,186.6,6.6
825.0,188.3,190.1,176.3,184.9,7.5
825.75,188.6,189.3,176.3,184.8,7.3
826.5,189.6,189.8,173.6,184.3,9.3
827.25,188.9,188.8,173.9,183.9,8.6
828.0,189.7,189.3,176.8,185.3,7.3
828.75,186.6,185.2,176.8,182.9,5.3
829.5,185.2,189.5,175.7,183.5,7.1
830.25,185.0,183.9,173.9,180.9,6.1
831.0,184.6,184.8,173.5,181.0,6.5
831.75,183.9,185.2,169.4,179.5,8.8
832.5,185.6,184.1,171.8,180.5,7.6
833.25,182.9,182.4,173.0,179.4,5.6
834.0,182.2,180.6,167.0,176.6,8.4
834.75,178.9,185.0,168.4,177.4,8.4
835.5,186.3,179.8,169.5,178.6,8.5
836.25,177.0,177.7,166.0,173.6,6.6
837.0,178.8,177.7,164.7,173.7,7.8
837.75,176.7,178.4,165.9,173.7,6.8
838.5,180.7,174.4,164.7,173.3,8.0
839.25,179.9,173.6,167.2,173.6,6.4
840.0,177.8,177.3,166.5,173.9,6.4
840.75,175.4,172.7,164.1,170.7,5.9
841.5,178.0,171.9,162.6,170.9,7.8
842.25,177.1,173.5,162.6,171.1,7.5
843.0,173.0,170.7,158.3,167.3,7.9
843.75,170.2,169.7,158.3,166.0,6.7
844.5,171.5,167.4,158.7,165.9,6.5
845.25,173.2,168.8,157.5,166.5,8.1
846.0,173.2,168.2,156.3,165.9,8.7
846.75,170.4,166.7,152.4,163.2,9.5
847.5,167.0,164.6,153.7,161.8,7.1
848.25,167.4,164.7,152.6,161.5,7.9
849.0,167.4,162.4,150.8,160.2,8.5
849.75,166.0,162.3,150.9,159.7,7.9
850.5,166.2,163.0,148.7,159.3,9.3
851.25,164.1,161.1,148.5,157.9,8.3
852.0,161.9,158.6,146.4,155.6,8.1
852.75,165.4,160.1,143.5,156.3,11.5
853.5,159.8,154.6,145.5,153.3,7.2
854.25,160.4,157.9,146.0,154.7,7.7
855.0,159.2,155.1,143.3,152.5,8.3
855.75,157.6,151.5,141.8,150.3,8.0
856.5,158.6,153.0,142.0,151.2,8.4
857.25,156.0,150.0,142.2,149.4,6.9
858.0,154.1,146.9,139.4,146.8,7.3
858.75,152.6,148.6,139.1,146.8,6.9
859.5,151.6,142.9,136.9,143.8,7.4
860.25,149.8,144.7,137.0,143.8,6.5
861.0,149.2,143.6,135.9,142.9,6.7
861.75,150.4,141.4,134.0,141.9,8.2
862.5,146.5,138.9,133.8,139.7,6.4
863.25,144.5,137.0,134.0,138.5,5.4
864.0,143.4,135.8,130.9,136.7,6.3
864.75,141.1,133.3,129.8,134.7,5.8
865.5,139.5,130.7,129.3,133.1,5.5
866.25,139.7,133.1,130.4,134.4,4.8
867.0,136.4,128.1,127.3,130.6,5.0
867.75,135.9,130.5,125.8,130.7,5.1
868.5,133.8,128.7,125.3,129.3,4.2
869.25,132.9,126.2,124.2,127.8,4.5
870.0,131.7,124.8,121.8,126.1,5.0
870.75,129.5,122.3,121.6,124.5,4.4
871.5,130.7,119.5,121.1,123.8,6.1
872.25,127.3,118.0,119.2,121.5,5.1
873.0,124.8,116.8,116.4,119.3,4.7
873.75,127.8,114.1,118.0,119.9,7.1
874.5,125.1,114.9,115.9,118.6,5.6
875.25,121.2,113.3,115.3,116.6,4.1
876.0,118.6,112.2,113.1,114.6,3.5
876.75,120.0,109.5,109.3,112.9,6.1
877.5,119.8,108.1,110.8,112.9,6.1
878.25,115.6,107.5,108.5,110.5,4.4
879.0,115.2,104.1,108.7,109.3,5.6
879.75,114.0,104.0,106.6,108.2,5.2
880.5,113.8,102.0,104.6,106.8,6.2
881.25,110.8,101.0,104.8,105.5,4.9
882.0,112.2,100.0,103.4,105.2,6.3
882.75,108.6,98.5,104.1,103.7,5.1
883.5,108.0,95.6,102.7,102.1,6.2
884.25,106.2,94.4,102.1,100.9,6.0
885.0,104.9,93.0,100.9,99.6,6.1
885.75,103.4,91.2,100.1,98.3,6.3
886.5,102.3,91.4,99.5,97.7,5.7
887.25,101.4,88.6,98.7,96.2,6.8
888.0,99.1,86.2,96.0,93.8,6.7
888.75,98.9,86.0,94.8,93.2,6.6
889.5,98.4,84.4,95.6,92.8,7.4
890.25,97.2,81.9,95.2,91.4,8.3
891.0,94.9,81.9,94.6,90.5,7.4
891.75,94.0,80.0,91.8,88.6,7.5
892.5,92.1,78.5,91.9,87.5,7.8
893.25,90.7,77.7,90.0,86.1,7.3
894.0,88.5,75.8,90.2,84.8,7.8
894.75,87.3,75.2,87.9,83.5,7.2
895.5,87.0,74.3,88.3,83.2,7.7
896.25,86.8,72.5,87.7,82.3,8.5
897.0,84.9,72.1,86.9,81.3,8.0
897.75,83.0,72.1,85.6,80.2,7.2
898.5,81.9,69.6,85.8,79.1,8.5
899.25,80.8,67.9,83.6,77.5,8.4
900.0,80.0,67.4,82.9,76.8,8.2
900.75,78.7,66.7,81.3,75.6,7.8
901.5,77.4,65.5,81.4,74.8,8.2
902.25,75.9,63.6,81.1,73.5,9.0
903.0,75.4,62.1,81.5,73.0,9.9
903.75,74.7,60.9,78.7,71.4,9.3
904.5,73.0,59.1,77.8,70.0,9.7
905.25,71.7,57.5,76.8,68.7,10.0
906.0,71.0,57.4,77.5,68.6,10.2
906.75,69.4,56.3,76.3,67.4,10.1
907.5,68.0,56.0,76.5,66.8,10.3
908.25,68.0,55.8,75.6,66.5,10.0
909.0,67.2,55.1,74.7,65.6,9.9
909.75,66.3,55.3,72.5,64.7,8.7
910.5,65.4,54.0,71.5,63.7,8.9
911.25,64.6,54.6,71.8,63.7,8.6
912.0,64.5,53.9,70.5,63.0,8.4
912.75,63.8,53.9,69.0,62.3,7.7
913.5,62.6,53.4,68.6,61.5,7.7
914.25,63.0,52.9,66.8,60.9,7.2
915.0,61.8,52.5,65.9,60.1,6.9
915.75,60.7,52.3,65.2,59.4,6.5
916.5,61.0,51.9,64.0,59.0,6.3
917.25,60.4,51.4,63.4,58.4,6.2
918.0,59.9,52.1,62.9,58.3,5.5
918.75,58.1,52.2,60.8,57.0,4.4
919.5,57.3,51.6,59.5,56.2,4.1
920.25,56.8,51.4,58.3,55.5,3.6
921.0,56.5,51.5,57.6,55.2,3.2
921.75,54.7,50.8,56.9,54.1,3.1
922.5,54.7,51.2,55.0,53.6,2.1
923.25,53.5,50.6,54.4,52.8,2.0
924.0,53.9,51.2,53.4,52.9,1.4
924.75,52.1,50.1,53.6,51.9,1.8
925.5,52.1,50.5,52.8,51.8,1.2
926.25,51.4,50.0,52.1,51.2,1.1
927.0,51.3,50.2,50.4,50.6,0.6
927.75,49.6,49.3,50.3,49.7,0.5
928.5,50.2,48.8,50.3,49.8,0.8
929.25,49.6,49.1,48.7,49.1,0.4
930.0,49.8,48.9,49.1,49.3,0.4
930.75,49.6,48.3,48.3,48.7,0.8
931.5,49.2,49.4,47.0,48.5,1.3
932.25,48.6,49.3,46.6,48.2,1.4
933.0,49.1,48.3,45.9,47.8,1.7
933.75,48.5,48.7,46.5,47.9,1.2
934.5,48.3,47.8,46.3,47.5,1.1
935.25,48.6,48.6,45.8,47.7,1.6
936.0,48.3,48.5,46.1,47.6,1.3
936.75,47.6,48.1,44.8,46.8,1.8
937.5,48.0,48.3,44.6,47.0,2.1
938.25,48.2,,44.4,46.3,2.7
939.0,47.4,,45.4,46.4,1.5
939.75,48.4,,44.6,46.5,2.7
940.5,47.7,,43.9,45.8,2.6
941.25,47.2,,44.2,45.7,2.1
942.0,47.7,,44.2,45.9,2.4
942.75,47.8,,44.4,46.1,2.4
943.5,47.5,,44.3,45.9,2.3
944.25,48.0,,44.6,46.3,2.4
945.0,47.2,,43.9,45.6,2.4
945.75,47.2,,45.1,46.1,1.5
946.5,47.4,,45.0,46.2,1.7
947.25,47.2,,45.1,46.1,1.4
948.0,46.9,,45.5,46.2,1.0
948.75,46.9,,45.2,46.1,1.2
949.5,45.7,,45.3,45.5,0.3
950.25,46.6,,45.1,45.8,1.1
951.0,46.0,,45.5,45.7,0.3
951.75,45.8,,45.6,45.7,0.1
952.5,46.6,,45.4,46.0,0.9
953.25,46.0,,45.4,45.7,0.5
954.0,45.6,,45.5,45.6,0.1
954.75,46.2,,45.2,45.7,0.7
955.5,45.7,,45.4,45.5,0.2
956.25,46.1,,44.8,45.4,0.9
957.0,45.7,,46.2,46.0,0.4
957.75,46.2,,44.7,45.4,1.1
958.5,45.3,,45.1,45.2,0.2
959.25,45.9,,44.6,45.2,0.9
960.0,46.2,,44.2,45.2,1.4
960.75,45.8,,44.6,45.2,0.8
961.5,45.1,,44.5,44.8,0.4
962.25,45.5,,44.7,45.1,0.6
963.0,45.2,,43.9,44.5,0.9
963.75,44.6,,43.9,44.2,0.5
964.5,45.5,,43.8,44.7,1.2
965.25,46.4,,45.1,45.7,0.9
966.0,45.7,,44.1,44.9,1.1
966.75,45.8,,45.0,45.4,0.6
967.5,45.6,,45.4,45.5,0.1
968.25,45.4,,44.9,45.2,0.3
969.0,45.6,,45.4,45.5,0.2
969.75,45.7,,45.4,45.5,0.3
970.5,46.2,,45.0,45.6,0.9
971.25,46.1,,45.4,45.7,0.5
972.0,45.8,,45.7,45.7,0.1
972.75,46.1,,45.8,45.9,0.2
973.5,45.4,,45.2,45.3,0.1
974.25,45.7,,46.1,45.9,0.3
975.0,46.1,,45.4,45.7,0.5
975.75,45.5,,,45.5,
976.5,44.5,,,44.5,
977.25,44.7,,,44.7,
978.0,44.5,,,44.5,
978.75,43.8,,,43.8,
979.5,43.2,,,43.2,
980.25,43.8,,,43.8,
981.0,43.6,,,43.6,
981.75,43.1,,,43.1,
982.5,43.3,,,43.3,
983.25,42.8,,,42.8,
984.0,43.2,,,43.2,
984.75,43.0,,,43.0,
985.5,43.2,,,43.2,
986.25,43.2,,,43.2,
986.75,43.4,,,43.4,