File: 01_Data/Pressure_Treated_Deck/Cone/Pressure_Treated_Deck_Cone_HF50Scan_230612_R2.csv
Names,Time,Stack TC,Smoke TC,Exh Press,Smoke Comp,Smoke Meas,CO Meter,CO2 Meter,O2 Meter,Sample Mass,Ext Coeff,Start Test,Flame Verif
Chan Gain,,500,500,1,1,1,1,1,1,1,1,1.0,1.0
Offset,,0,0,0.245636,0,0,0,0,0,0,0,0.0,0.0
Gain,,1,1,25.011,13.2729,15.6672,1,1,1,1.00098,1.01809,1.0,1.0
Units,sec,C,C,Pa,%,%,%,%,%,g,/m,,
Baseline,,32.2225,34.6656,155.947,99.6897,99.7446,0.000584466,0.0525263,20.9479,-444.895,-0.00490909,,
10,2.25,30.5327,31.6993,154.245,99.6864,99.6555,0.000638632,0.0640486,20.935,203.67,0.0027633,0.0,0.0
20,4.75,30.541,32.1306,153.743,99.6844,99.7923,0.000634351,0.0629208,20.9319,203.62,-0.00966285,0.0,0.0
30,7.25,30.3995,32.8255,155.352,99.6921,99.5499,0.000525761,0.0643479,20.9338,203.6,0.012746,0.0,0.0
40,9.75,30.9986,32.9486,158.725,99.6795,99.3462,0.000681719,0.0670126,20.9331,203.4,0.0299123,0.0,0.0
50,12.25,30.9165,33.131,154.75,99.6884,99.3519,0.000879785,0.0660245,20.9298,203.41,0.0301956,0.0,0.0
60,14.75,31.1217,33.297,153.504,99.6945,99.3223,0.000817695,0.0637122,20.9299,203.27,0.0334035,0.0,0.0
70,17.25,31.4745,33.8467,157.456,99.7164,98.5028,0.00079612,0.0622413,20.9322,203.22,0.109355,0.0,0.0
80,19.75,31.4682,33.9881,155.149,99.722,98.3101,0.000968201,0.0624762,20.9345,203.06,0.12735,0.0,0.0
90,22.25,31.3704,34.2936,155.463,99.7666,97.8712,0.00102008,0.0632315,20.9354,203.04,0.1713,0.0,0.0
100,24.75,31.615,33.9191,154.433,99.7625,97.2219,0.000989406,0.0648897,20.9347,202.799,0.230382,0.0,0.0
110,27.25,31.5677,33.8717,156.22,99.7958,96.7691,0.00087218,0.0681229,20.9335,202.799,0.275044,0.0,0.0
120,29.75,32.1256,34.059,155.053,99.818,95.8511,0.000880905,0.0699441,20.9316,202.589,0.362162,0.0,0.0
130,32.25,32.1862,35.2955,149.44,99.8525,100.521,0.000950305,0.069977,20.9298,202.419,-0.0595882,0.0,1.0
140,34.75,33.3205,38.3579,136.078,99.8743,100.188,0.00100865,0.0694527,20.9292,202.039,-0.0280187,0.0,1.0
150,37.25,33.726,41.5652,137.612,99.899,101.185,0.00104757,0.0694669,20.9299,201.678,-0.114189,0.0,0.0
160,39.75,35.5387,45.1329,143.399,99.9225,100.473,0.00137193,0.0835447,20.9308,201.288,-0.049032,0.0,0.0
170,42.25,37.803,49.0085,134.991,99.9363,100.465,0.00181182,0.153398,20.9303,200.827,-0.0471637,0.0,0.0
180,44.75,39.9527,52.8149,134.835,99.9614,100.033,0.00219802,0.262598,20.8559,200.487,-0.00637291,0.0,0.0
190,47.25,41.5139,55.3453,137.261,99.9809,100.134,0.00250752,0.354044,20.7266,199.947,-0.0136806,0.0,0.0
200,49.75,43.9898,58.2538,131.534,99.993,99.4633,0.00283238,0.417511,20.6277,199.626,0.0474332,0.0,0.0
210,52.25,45.8467,60.6384,138.373,99.9857,98.4148,0.00304854,0.463801,20.547,199.096,0.141427,0.0,0.0
220,54.75,47.4452,63.0264,138.012,99.9991,98.6137,0.00324965,0.495285,20.4829,198.785,0.12459,0.0,0.0
230,57.25,48.5206,64.2922,133.401,99.9914,98.2666,0.00334681,0.513435,20.4437,198.225,0.155394,0.0,0.0
240,59.75,49.6717,66.0632,135.442,99.9853,98.4555,0.00345337,0.520898,20.4184,197.885,0.137704,0.0,0.0
250,62.25,50.8924,66.7545,137.436,99.972,98.761,0.00377817,0.524008,20.4076,197.384,0.10884,0.0,0.0
260,64.75,52.5454,67.9043,137.172,99.9558,98.3742,0.0039712,0.525626,20.4025,197.064,0.142438,0.0,0.0
270,67.25,52.8306,68.5194,133.42,99.9209,97.7034,0.00398302,0.527723,20.4,196.583,0.200431,0.0,0.0
280,69.75,53.8459,68.9738,132.999,99.9047,97.7191,0.00411184,0.526083,20.3966,196.283,0.19754,0.0,0.0
290,72.25,54.8811,68.6466,138.243,99.8687,97.5303,0.00441576,0.520379,20.3955,195.863,0.211593,0.0,0.0
300,74.75,54.7499,68.766,140.211,99.8367,97.4399,0.00451684,0.511984,20.4023,195.432,0.21701,0.0,0.0
310,77.25,55.4394,69.0196,137.56,99.784,98.0199,0.0044912,0.500861,20.4102,195.162,0.1593,0.0,0.0
320,79.75,56.0011,69.2936,138.847,99.7411,98.0567,0.00458373,0.488383,20.4242,194.671,0.152105,0.0,0.0
330,82.25,56.582,69.44,137.263,99.7143,97.5872,0.00471423,0.477846,20.4389,194.411,0.192574,0.0,0.0
340,84.75,56.5651,69.2512,140.447,99.658,96.9824,0.00484128,0.466779,20.4511,193.941,0.243053,0.0,0.0
350,87.25,57.1424,68.709,138.957,99.6341,97.777,0.00491065,0.457139,20.4625,193.71,0.168035,0.0,0.0
360,89.75,56.776,68.066,138.657,99.5831,97.6512,0.00479313,0.445597,20.4749,193.26,0.174952,0.0,0.0
370,92.25,57.3156,68.919,134.225,99.558,97.8191,0.00461355,0.435853,20.4871,193.06,0.157365,0.0,0.0
380,94.75,57.1435,68.044,139.192,99.5134,97.2147,0.00446379,0.426437,20.5008,192.619,0.208713,0.0,0.0
390,97.25,57.6895,67.6421,135.895,99.4794,97.536,0.00429522,0.41921,20.5131,192.369,0.176192,0.0,0.0
400,99.75,57.3661,67.5345,143.187,99.4215,96.9403,0.00399845,0.413044,20.5212,191.939,0.225704,0.0,0.0
410,102.25,57.6267,67.5293,132.135,99.4178,97.4036,0.00377896,0.407968,20.5288,191.719,0.182797,0.0,0.0
420,104.75,57.5258,67.5378,141.139,99.3785,98.0639,0.00384708,0.402037,20.5343,191.288,0.118932,0.0,0.0
430,107.25,57.1293,67.2361,140.265,99.3465,98.1801,0.004008,0.396336,20.5405,191.078,0.105481,0.0,0.0
440,109.75,58.1618,67.161,134.817,99.3312,97.3849,0.00401459,0.391298,20.5473,190.728,0.176717,0.0,0.0
450,112.25,57.6436,66.4839,137.343,99.3008,97.2788,0.00380398,0.385467,20.5521,190.387,0.183725,0.0,0.0
460,114.75,57.535,67.0509,141.643,99.2919,97.0751,0.00366007,0.381616,20.5589,190.167,0.201642,0.0,0.0
470,117.25,57.5409,66.589,135.467,99.2809,97.8659,0.00368872,0.379997,20.5646,189.747,0.1282,0.0,0.0
480,119.75,57.4575,66.8228,140.194,99.3461,97.5853,0.00370333,0.377674,20.5672,189.536,0.159711,0.0,0.0
490,122.25,58.2321,66.7533,140.581,99.383,98.2092,0.00361561,0.374593,20.5713,189.126,0.106104,0.0,0.0
500,124.75,57.3619,66.5635,143.889,99.4486,98.105,0.00360949,0.371764,20.5752,188.906,0.121482,0.0,0.0
510,127.25,58.1528,66.7919,137.175,99.4778,98.126,0.00369719,0.368464,20.5781,188.485,0.122187,0.0,0.0
520,129.75,57.8012,65.9174,136.088,99.5361,98.3627,0.00382192,0.365543,20.5818,188.255,0.105907,0.0,0.0
530,132.25,57.8228,66.4764,143.621,99.5714,98.4296,0.00384787,0.36426,20.5852,187.885,0.102994,0.0,0.0
540,134.75,58.2534,66.4321,138.877,99.6665,98.6328,0.00380399,0.363464,20.5869,187.645,0.0931093,0.0,0.0
550,137.25,58.2614,66.3945,139.385,99.7269,98.6362,0.00365516,0.362667,20.5889,187.234,0.0982124,0.0,0.0
560,139.75,57.7156,65.855,137.396,99.797,98.2417,0.00348505,0.362045,20.591,187.034,0.140271,0.0,0.0
570,142.25,58.2809,66.0844,139.944,99.8541,98.2154,0.00343033,0.362456,20.5933,186.644,0.147772,0.0,0.0
580,144.75,58.2094,66.2228,142.357,99.9076,98.5506,0.00352409,0.362055,20.5932,186.403,0.122128,0.0,0.0
590,147.25,58.0117,65.7672,140.629,99.9574,98.5721,0.00340713,0.362112,20.5927,186.043,0.124631,0.0,0.0
600,149.75,57.8335,65.8761,141.862,99.9946,98.3249,0.00322016,0.361964,20.5924,185.773,0.150383,0.0,0.0
610,152.25,58.2082,66.169,140.067,100.023,98.8925,0.00324233,0.36159,20.5931,185.472,0.101552,0.0,0.0
620,154.75,57.7686,65.8779,136.821,100.039,98.476,0.00333762,0.361553,20.5932,185.112,0.140649,0.0,0.0
630,157.25,58.276,66.5305,144.336,100.07,98.8537,0.00338423,0.362508,20.5926,184.882,0.109208,0.0,0.0
640,159.75,58.1733,65.9864,143.4,100.055,99.1191,0.00333738,0.362102,20.5915,184.481,0.0838943,0.0,0.0
650,162.25,58.3687,65.9945,138.928,100.062,98.6988,0.00326481,0.360822,20.5916,184.321,0.122527,0.0,0.0
660,164.75,58.1579,66.3474,137.492,100.041,98.717,0.0032901,0.359188,20.5939,183.851,0.118967,0.0,0.0
670,167.25,58.2344,66.1761,141.933,100.027,98.6438,0.00319809,0.356031,20.5959,183.701,0.124322,0.0,0.0
680,169.75,58.1539,66.2086,140.562,99.9942,98.8972,0.00300049,0.351987,20.5997,183.27,0.0985157,0.0,0.0
690,172.25,58.5959,66.1968,142.697,99.9505,98.8494,0.00294366,0.351146,20.6042,183.07,0.0989263,0.0,0.0
700,174.75,58.6499,65.805,143.485,99.8885,99.2587,0.00299101,0.352157,20.6059,182.7,0.0564871,0.0,0.0
710,177.25,58.0952,65.7051,139.69,99.8197,99.1358,0.00310647,0.350751,20.6053,182.469,0.0613912,0.0,0.0
720,179.75,58.7203,65.9824,137.304,99.7346,98.7744,0.00318242,0.348313,20.6057,182.099,0.0863998,0.0,0.0
730,182.25,58.7149,66.0959,140.606,99.6341,98.9226,0.00313681,0.345007,20.6071,181.929,0.0640087,0.0,0.0
740,184.75,58.2051,65.9425,138.634,99.6447,99.4079,0.0032313,0.342086,20.6124,181.549,0.0212488,0.0,0.0
750,187.25,58.1344,65.9577,138.829,99.6884,98.7911,0.00329539,0.34077,20.6169,181.298,0.0807508,0.0,0.0
760,189.75,58.637,65.9774,138.827,99.7354,99.0263,0.0030948,0.340386,20.6185,181.028,0.0637191,0.0,0.0
770,192.25,58.1326,65.679,143.079,99.7828,99.0598,0.00291069,0.338333,20.619,180.688,0.0649441,0.0,0.0
780,194.75,57.9389,65.0309,141.17,99.8484,99.3448,0.0028729,0.336308,20.6198,180.327,0.0451614,0.0,0.0
790,197.25,57.7394,65.0555,138.3,99.8909,99.4806,0.00293469,0.334006,20.622,179.967,0.0367662,0.0,0.0
800,199.75,58.0773,64.3868,135.045,99.9643,99.383,0.00299315,0.330183,20.6248,179.837,0.0520798,0.0,0.0
810,202.25,58.1497,64.7284,139.455,100.025,99.5221,0.00296685,0.325726,20.6283,179.497,0.0449761,0.0,0.0
820,204.75,58.1731,65.2198,145.773,100.097,99.646,0.00293014,0.322403,20.6341,179.266,0.0403416,0.0,0.0
830,207.25,58.8312,65.4722,139.623,100.121,100.062,0.00291082,0.321877,20.6387,178.976,0.00522784,0.0,0.0
840,209.75,58.2211,65.0305,137.464,100.195,100.626,0.0028919,0.324429,20.6397,178.756,-0.0382909,0.0,0.0
850,212.25,58.3762,65.0219,138.779,100.232,100.383,0.0027783,0.325062,20.6378,178.385,-0.0133869,0.0,0.0
860,214.75,57.8735,65.2951,142.817,100.265,99.7703,0.00266988,0.321719,20.6367,178.205,0.0441922,0.0,0.0
870,217.25,58.0039,65.0369,140.388,100.305,100.769,0.00272101,0.317521,20.6382,177.825,-0.0412268,0.0,0.0
880,219.75,58.1269,64.8408,141.843,100.338,100.535,0.00288318,0.316698,20.6424,177.625,-0.0175311,0.0,0.0
890,222.25,57.8401,64.7152,138.525,100.379,100.948,0.00286818,0.315331,20.6452,177.324,-0.0505051,0.0,0.0
900,224.75,57.9965,64.6959,143.211,100.407,100.59,0.00267981,0.313603,20.6471,177.114,-0.0162517,0.0,0.0
910,227.25,57.9022,64.8626,137.103,100.425,100.996,0.00256405,0.31167,20.6491,176.844,-0.0505902,0.0,0.0
920,229.75,57.6745,65.2099,138.647,100.423,100.084,0.00248383,0.309863,20.6511,176.484,0.0301415,0.0,0.0
930,232.25,57.4846,64.437,140.718,100.456,100.853,0.00233393,0.309177,20.6525,176.243,-0.0352036,0.0,0.0
940,234.75,58.3797,64.5572,143.419,100.459,100.323,0.00218418,0.308074,20.6535,175.863,0.0120762,0.0,0.0
950,237.25,57.9297,64.9933,136.035,100.477,100.535,0.00214346,0.307656,20.6549,175.733,-0.0051377,0.0,0.0
960,239.75,57.8252,64.2091,141.978,100.46,101.065,0.00217572,0.306171,20.6562,175.372,-0.0535859,0.0,0.0
970,242.25,58.0162,64.644,139.169,100.491,100.393,0.0022897,0.304447,20.6574,175.142,0.00871598,0.0,0.0
980,244.75,58.0548,64.3537,145.727,100.481,101.441,0.00243964,0.303308,20.6591,174.722,-0.0849741,0.0,0.0
990,247.25,57.9565,64.6581,140.424,100.494,101.155,0.00242729,0.302121,20.6612,174.612,-0.0586152,0.0,0.0
1000,249.75,58.1333,64.593,142.18,100.481,100.76,0.00224154,0.301123,20.6633,174.231,-0.0247471,0.0,0.0
1010,252.25,58.0828,64.7356,139.702,100.49,101.193,0.00219335,0.300417,20.6644,174.051,-0.0622369,0.0,0.0
1020,254.75,58.0949,64.2906,142.361,100.481,101.243,0.002219,0.300049,20.6641,173.721,-0.0675307,0.0,0.0
1030,257.25,57.6548,64.3808,141.99,100.473,101.32,0.00219752,0.299677,20.6638,173.541,-0.0749606,0.0,0.0
1040,259.75,57.4891,64.4607,137.609,100.461,101.443,0.00224379,0.297963,20.665,173.24,-0.0868283,0.0,0.0
1050,262.25,57.8895,64.7225,140.053,100.464,101.42,0.00227862,0.296497,20.6665,172.98,-0.0845915,0.0,0.0
1060,264.75,57.8636,64.3596,139.33,100.463,101.216,0.00221628,0.296216,20.6682,172.74,-0.0666324,0.0,0.0
1070,267.25,57.7277,64.0158,138.556,100.435,100.816,0.00210634,0.295881,20.6689,172.38,-0.0338212,0.0,0.0
1080,269.75,57.8391,64.6768,140.817,100.433,101.293,0.00221908,0.295409,20.6691,172.239,-0.0761233,0.0,0.0
1090,272.25,57.4902,64.4131,143.038,100.411,100.934,0.00247429,0.294566,20.6692,171.849,-0.0463894,0.0,0.0
1100,274.75,58.4437,64.2829,140.944,100.42,101.445,0.00272392,0.2935,20.67,171.709,-0.0906766,0.0,0.0
1110,277.25,58.0144,64.2537,139.643,100.384,101.489,0.00275913,0.293062,20.671,171.198,-0.0977905,0.0,0.0
1120,279.75,57.5964,64.5675,139.115,100.379,101.051,0.00268191,0.292337,20.6728,171.078,-0.0596011,0.0,0.0
1130,282.25,57.7284,64.5382,138.158,100.349,101.082,0.00257026,0.291706,20.6738,170.708,-0.0650145,0.0,0.0
1140,284.75,58.026,64.5854,141.991,100.355,101.13,0.00232745,0.291866,20.6742,170.598,-0.0686962,0.0,0.0
1150,287.25,57.9456,64.0816,140.831,100.323,101.998,0.00231235,0.291269,20.6743,170.197,-0.147888,0.0,0.0
1160,289.75,58.2611,64.2707,143.912,100.321,101.202,0.00242053,0.291261,20.6743,170.087,-0.0780557,0.0,0.0
1170,292.25,57.9288,64.5343,139.758,100.281,100.773,0.00244962,0.291253,20.6744,169.677,-0.043778,0.0,0.0
1180,294.75,58.0032,63.8657,142.067,100.267,101.194,0.0022856,0.291071,20.6748,169.497,-0.082214,0.0,0.0
1190,297.25,58.0811,63.9185,145.402,100.251,101.021,0.00222166,0.291134,20.676,169.136,-0.0683696,0.0,0.0
1200,299.75,57.9321,63.9511,147.07,100.206,100.785,0.00225703,0.290575,20.6767,168.896,-0.0515131,0.0,0.0
1210,302.25,58.207,63.7333,142.626,100.18,101.107,0.00243671,0.290024,20.6776,168.696,-0.0822553,0.0,0.0
1220,304.75,57.9989,64.1268,141.72,100.12,101.409,0.00248117,0.289613,20.6778,168.316,-0.114288,0.0,0.0
1230,307.25,57.7399,63.3112,144.35,100.112,100.588,0.00237773,0.288718,20.678,168.165,-0.0423782,0.0,0.0
1240,309.75,57.6968,63.6505,139.155,100.081,101.724,0.0022652,0.28839,20.6792,167.795,-0.145426,0.0,0.0
1250,312.25,57.7346,63.2268,143.573,100.044,101.549,0.00220457,0.287897,20.6799,167.595,-0.133298,0.0,0.0
1260,314.75,57.7282,63.7436,137.317,100.008,101.183,0.00218696,0.286944,20.6802,167.274,-0.104363,0.0,0.0
1270,317.25,57.2508,63.4585,146.114,99.9934,101.189,0.00217041,0.286255,20.6822,167.104,-0.106178,0.0,0.0
1280,319.75,57.51,63.4078,140.836,99.9339,101.194,0.0023133,0.286348,20.6831,166.694,-0.11192,0.0,0.0
1290,322.25,57.7266,64.0174,137.107,99.9067,100.855,0.00246189,0.286379,20.6831,166.574,-0.0843787,0.0,0.0
1300,324.75,57.5894,63.7959,142.121,99.8517,101.303,0.00259673,0.285664,20.6815,166.153,-0.128844,0.0,0.0
1310,327.25,57.9919,63.5885,141.11,99.8496,101.09,0.00250604,0.283402,20.681,166.003,-0.110291,0.0,0.0
1320,329.75,57.3856,63.5263,140.914,99.8051,100.437,0.00245888,0.283863,20.6822,165.613,-0.0563484,0.0,0.0
1330,332.25,57.0313,63.3981,138.619,99.7832,101.156,0.00248624,0.28518,20.6827,165.443,-0.122061,0.0,0.0
1340,334.75,58.0798,63.4441,148.036,99.752,100.888,0.00243479,0.284482,20.683,165.112,-0.101141,0.0,0.0
1350,337.25,57.5414,63.6634,141.949,99.7261,100.686,0.00224895,0.283562,20.6828,164.842,-0.0855416,0.0,0.0
1360,339.75,57.762,63.6919,144.917,99.7026,101.017,0.00219616,0.283339,20.6824,164.622,-0.116944,0.0,0.0
1370,342.25,57.9303,63.1949,143.114,99.671,100.98,0.00228353,0.283581,20.6825,164.232,-0.116519,0.0,0.0
1380,344.75,57.6274,64.0156,139.824,99.6649,100.644,0.00233638,0.283261,20.6838,164.041,-0.0872879,0.0,0.0
1390,347.25,57.5173,63.0296,142.812,99.6252,100.411,0.00238155,0.2821,20.6856,163.701,-0.0702026,0.0,0.0
1400,349.75,57.3182,63.1891,137.32,99.6349,100.516,0.00237699,0.281329,20.6869,163.541,-0.0786394,0.0,0.0
1410,352.25,57.284,63.629,142.93,99.6135,101.104,0.00215953,0.281993,20.6884,163.17,-0.132662,0.0,0.0
1420,354.75,57.331,63.3106,142.758,99.6244,100.128,0.00188738,0.280232,20.6894,163.01,-0.0450651,0.0,0.0
1430,357.25,57.6817,62.8969,140.4,99.6139,100.481,0.00188711,0.279494,20.6903,162.64,-0.0773829,0.0,0.0
1440,359.75,57.6975,63.8074,145.771,99.6305,100.413,0.00197971,0.283198,20.6911,162.51,-0.0698587,0.0,0.0
1450,362.25,57.3272,63.163,141.008,99.6147,101.36,0.00204877,0.285353,20.6865,162.149,-0.155119,0.0,0.0
1460,364.75,57.0476,62.9659,144.639,99.6418,101.329,0.00217035,0.285045,20.6836,161.969,-0.14999,0.0,0.0
1470,367.25,57.3139,63.2623,142.584,99.6503,101.098,0.00227525,0.284949,20.6826,161.569,-0.128809,0.0,0.0
1480,369.75,57.1979,63.2555,140.02,99.673,100.468,0.00253794,0.285591,20.6838,161.349,-0.0709355,0.0,0.0
1490,372.25,57.6054,62.963,142.765,99.6977,100.288,0.00275193,0.286498,20.684,161.078,-0.0526846,0.0,0.0
1500,374.75,57.7672,63.1639,142.352,99.7391,100.833,0.00251394,0.287015,20.6822,160.798,-0.0973907,0.0,0.0
1510,377.25,57.2285,63.549,140.017,99.7723,100.879,0.00214996,0.287056,20.681,160.638,-0.0985235,0.0,0.0
1520,379.75,56.8113,63.5128,135.336,99.8103,100.997,0.00195281,0.286904,20.6806,160.268,-0.105524,0.0,0.0
1530,382.25,57.3097,63.3311,140.858,99.8768,100.602,0.00178992,0.286094,20.6812,160.127,-0.0646338,0.0,0.0
1540,384.75,57.5738,63.3125,136.851,99.9144,100.803,0.00177576,0.286615,20.6822,159.767,-0.079032,0.0,0.0
1550,387.25,57.3465,63.0726,138.868,99.9813,101.226,0.00209875,0.286582,20.6825,159.597,-0.110512,0.0,0.0
1560,389.75,57.7466,63.3244,136.264,100.027,101.157,0.0023344,0.286431,20.6826,159.227,-0.100312,0.0,0.0
1570,392.25,57.5037,63.0559,137.706,100.092,101.411,0.00231088,0.286086,20.6823,159.076,-0.116949,0.0,0.0
1580,394.75,57.4838,63.2937,139.954,100.146,101.772,0.00213154,0.28612,20.6821,158.666,-0.143841,0.0,0.0
1590,397.25,57.4952,63.4306,142.075,100.203,100.943,0.00212337,0.285308,20.6823,158.496,-0.065658,0.0,0.0
1600,399.75,57.3851,63.1299,134.866,100.25,101.58,0.0023148,0.284292,20.6839,158.135,-0.117758,0.0,0.0
1610,402.25,57.568,63.1998,136.84,100.309,101.484,0.00233969,0.284771,20.6857,158.015,-0.104039,0.0,0.0
1620,404.75,57.6531,63.135,140.085,100.346,101.53,0.00236288,0.285296,20.685,157.695,-0.104754,0.0,0.0
1630,407.25,57.7088,63.7855,142.418,100.386,101.464,0.00243546,0.284602,20.6846,157.445,-0.0954224,0.0,0.0
1640,409.75,58.1029,63.7656,138.515,100.422,101.493,0.00243382,0.285614,20.6844,157.245,-0.0946622,0.0,0.0
1650,412.25,58.1335,63.8078,141.487,100.452,101.45,0.00237374,0.28807,20.6838,156.894,-0.0882523,0.0,0.0
1660,414.75,57.9526,63.4857,135.92,100.479,101.307,0.00228503,0.289308,20.6819,156.734,-0.0733181,0.0,0.0
1670,417.25,58.1296,63.6301,143.134,100.489,101.028,0.00227392,0.288522,20.6803,156.384,-0.0478117,0.0,0.0
1680,419.75,58.0366,63.5434,137.561,100.517,101.111,0.00235977,0.287527,20.6794,156.224,-0.0526011,0.0,0.0
1690,422.25,57.8035,63.7169,146.161,100.521,101.226,0.00232583,0.286749,20.6808,155.873,-0.0624068,0.0,0.0
1700,424.75,58.025,63.8986,141.566,100.525,101.807,0.00213078,0.286518,20.682,155.723,-0.113116,0.0,0.0
1710,427.25,58.0278,63.801,141.397,100.488,101.715,0.00192598,0.286504,20.6825,155.343,-0.10837,0.0,0.0
1720,429.75,57.7906,64.213,137.986,100.489,101.461,0.00177045,0.287205,20.682,155.183,-0.0860221,0.0,0.0
1730,432.25,57.9489,63.4257,140.977,100.447,101.698,0.00177135,0.287765,20.681,154.842,-0.110532,0.0,0.0
1740,434.75,58.0602,63.9635,146.837,100.422,101.254,0.00194487,0.287625,20.6806,154.672,-0.0736863,0.0,0.0
1750,437.25,58.3576,64.0022,139.819,100.374,101.025,0.00208237,0.286954,20.6804,154.332,-0.0577874,0.0,0.0
1760,439.75,58.4074,64.6636,143.841,100.341,101.009,0.00201994,0.287098,20.6812,154.122,-0.0591912,0.0,0.0
1770,442.25,58.4379,64.1866,136.859,100.275,101.012,0.00191587,0.287418,20.6815,153.811,-0.0653598,0.0,0.0
1780,444.75,58.1517,64.1296,137.148,100.241,101.444,0.00183325,0.287433,20.6819,153.621,-0.106558,0.0,0.0
1790,447.25,58.3917,64.1562,142.689,100.193,100.891,0.00190063,0.289124,20.6823,153.341,-0.0619909,0.0,0.0
1800,449.75,58.3493,64.2071,142.946,100.136,101.239,0.00200203,0.289637,20.6824,153.04,-0.0977986,0.0,0.0
1810,452.25,58.6266,64.1986,142.645,100.069,100.963,0.00206593,0.290633,20.6811,152.86,-0.0794342,0.0,0.0
1820,454.75,58.1065,63.7387,148.314,100.005,100.939,0.00205325,0.291931,20.6796,152.5,-0.0829908,0.0,0.0
1830,457.25,58.2422,63.6337,140.494,99.9497,100.705,0.00194411,0.292209,20.6779,152.35,-0.0671949,0.0,0.0
1840,459.75,58.0795,64.0668,145.164,99.8719,100.956,0.00185396,0.291682,20.6773,151.969,-0.0964221,0.0,0.0
1850,462.25,57.9856,63.9277,135.979,99.8176,100.754,0.00177635,0.291681,20.6771,151.819,-0.0833675,0.0,0.0
1860,464.75,58.0951,63.6296,144.438,99.7391,100.888,0.00176642,0.292549,20.6777,151.479,-0.10226,0.0,0.0
1870,467.25,58.5095,64.4689,143.338,99.684,100.485,0.00190873,0.292554,20.6768,151.289,-0.0714426,0.0,0.0
1880,469.75,58.2055,63.9138,140.734,99.6005,100.922,0.00203142,0.293162,20.6758,150.988,-0.117718,0.0,0.0
1890,472.25,58.5791,64.5722,136.816,99.5422,100.498,0.00206894,0.294437,20.6746,150.788,-0.0853433,0.0,0.0
1900,474.75,58.3718,63.9018,140.894,99.4527,100.464,0.00207485,0.293935,20.6742,150.448,-0.090361,0.0,0.0
1910,477.25,58.8751,64.5772,137.529,99.3939,100.253,0.00192524,0.293737,20.6744,150.268,-0.0768304,0.0,0.0
1920,479.75,58.4349,64.5581,145.982,99.3178,99.6665,0.00181341,0.295216,20.6742,149.957,-0.0313043,0.0,0.0
1930,482.25,58.7278,64.5867,145.75,99.2392,100.08,0.00173706,0.295969,20.6731,149.707,-0.0753556,0.0,0.0
1940,484.75,58.5946,64.2611,140.32,99.1809,100.1,0.00165312,0.296005,20.6726,149.507,-0.0823547,0.0,0.0
1950,487.25,58.4019,64.531,134.823,99.1132,100.298,0.00167527,0.297161,20.6711,149.207,-0.106091,0.0,0.0
1960,489.75,58.5227,64.1657,139.818,99.048,99.7364,0.00183361,0.296477,20.67,148.997,-0.0618478,0.0,0.0
1970,492.25,58.7059,64.1803,141.174,98.9792,99.9821,0.00196586,0.295636,20.6706,148.666,-0.0900367,0.0,0.0
1980,494.75,58.5615,64.1909,143.343,98.9391,99.0383,0.00195081,0.2973,20.6709,148.476,-0.00895148,0.0,0.0
1990,497.25,57.9791,63.9453,141.763,98.8666,100.151,0.00193017,0.298531,20.6691,148.126,-0.115267,0.0,0.0
2000,499.75,58.762,64.2469,141.694,98.8402,99.9625,0.0020055,0.298079,20.6667,147.966,-0.100831,0.0,0.0
2010,502.25,58.6417,64.4618,143.063,98.8143,99.8956,0.00210488,0.298273,20.667,147.635,-0.0971905,0.0,0.0
2020,504.75,58.9677,64.9657,140.819,98.7941,99.4122,0.00214397,0.299782,20.6671,147.445,-0.0557024,0.0,0.0
2030,507.25,58.8577,64.9041,142,98.7766,99.4911,0.00211784,0.300395,20.666,147.155,-0.0643614,0.0,0.0
2040,509.75,58.0565,65.1195,141.369,98.7924,99.208,0.00202352,0.301997,20.6668,146.934,-0.0374896,0.0,0.0
2050,512.25,58.9515,64.3828,142.122,98.8022,99.6732,0.00192818,0.302839,20.6654,146.624,-0.0783908,0.0,0.0
2060,514.75,59.4004,65.2101,143.858,98.8435,99.5274,0.00181469,0.303099,20.6638,146.414,-0.0615814,0.0,0.0
2070,517.25,59.5182,65.4996,143.588,98.8803,99.0761,0.00191984,0.303617,20.6632,146.114,-0.0176597,0.0,0.0
2080,519.75,59.0671,64.5833,136.242,98.9459,99.8315,0.00202967,0.303607,20.6616,145.883,-0.0795723,0.0,0.0
2090,522.25,58.8774,64.6999,137.097,99.0201,99.7842,0.00204882,0.304024,20.661,145.653,-0.068649,0.0,0.0
2100,524.75,58.9643,64.8247,138.704,99.0999,99.9558,0.00215915,0.303911,20.6607,145.313,-0.0768041,0.0,0.0
2110,527.25,59.5799,65.2211,143.422,99.2032,100.174,0.00224132,0.304842,20.6607,145.123,-0.0870009,0.0,0.0
2120,529.75,59.1913,65.6858,138.476,99.2979,100.226,0.00225589,0.306982,20.6604,144.812,-0.0831176,0.0,0.0
2130,532.25,59.6742,65.6401,141.61,99.4182,100.258,0.00214172,0.307453,20.6583,144.622,-0.0750733,0.0,0.0
2140,534.75,59.5562,64.9374,141.461,99.5065,100.19,0.0020614,0.307328,20.6578,144.302,-0.0610952,0.0,0.0
2150,537.25,59.6565,65.709,139.634,99.6297,99.8573,0.00207849,0.30861,20.6583,144.112,-0.0203813,0.0,0.0
2160,539.75,59.349,65.3241,140.358,99.703,100.548,0.00206485,0.310059,20.6568,143.781,-0.0753873,0.0,0.0
2170,542.25,60.2052,65.9555,143.323,99.8083,99.8525,0.00214566,0.31044,20.6555,143.571,-0.00395538,0.0,0.0
2180,544.75,59.4393,65.4528,142.561,99.8589,100.381,0.00223169,0.31013,20.6541,143.291,-0.046597,0.0,0.0
2190,547.25,59.5929,66.0287,137.779,99.9343,100.372,0.0021213,0.310302,20.6536,143.071,-0.0390532,0.0,0.0
2200,549.75,59.4395,66.3747,138.257,99.9675,100.513,0.00195539,0.311698,20.6538,142.75,-0.0485835,0.0,0.0
2210,552.25,60.2417,65.749,139.692,100.003,100.103,0.00204553,0.313283,20.653,142.54,-0.00891205,0.0,0.0
2220,554.75,59.6714,66.3361,136.78,99.9963,100.51,0.00217653,0.314486,20.6521,142.25,-0.0458024,0.0,0.0
2230,557.25,60.1048,66.3461,134.056,99.9898,101.036,0.0021585,0.316223,20.6504,142.03,-0.0929478,0.0,0.0
2240,559.75,60.0621,66.477,142.902,99.9541,100.282,0.00222977,0.317962,20.6484,141.749,-0.0292779,0.0,0.0
2250,562.25,60.2094,66.4295,140.876,99.9039,100.765,0.00228985,0.31919,20.6454,141.439,-0.0766693,0.0,0.0
2260,564.75,60.5004,66.9193,139.356,99.8504,100.327,0.00216489,0.321157,20.6431,141.249,-0.0425494,0.0,0.0
2270,567.25,60.1538,66.5148,139.014,99.752,100.051,0.00208642,0.322306,20.641,140.899,-0.0267239,0.0,0.0
2280,569.75,60.203,66.9153,134.553,99.6763,100.351,0.00217372,0.323001,20.6399,140.688,-0.0602688,0.0,0.0
2290,572.25,60.2099,66.3678,141.432,99.5957,100.366,0.00217395,0.32414,20.6388,140.308,-0.0687703,0.0,0.0
2300,574.75,60.7634,67.1101,139.71,99.4985,99.4103,0.00222777,0.325545,20.6377,140.138,0.00791826,0.0,0.0
2310,577.25,60.2167,66.7348,138.354,99.411,99.5121,0.00223124,0.325699,20.637,139.807,-0.00908203,0.0,0.0
2320,579.75,60.3558,67.399,135.954,99.3425,99.4839,0.00206094,0.326356,20.6357,139.637,-0.0127029,0.0,0.0
2330,582.25,60.9472,67.5258,140.189,99.2902,99.4849,0.00185353,0.329402,20.6345,139.297,-0.0174869,0.0,0.0
2340,584.75,60.5015,67.7272,133.817,99.2481,99.4892,0.00191465,0.331361,20.6315,139.067,-0.0216629,0.0,0.0
2350,587.25,61.0884,68.0893,144.687,99.3636,99.8157,0.00215003,0.334401,20.6285,138.786,-0.0405466,0.0,0.0
2360,589.75,60.9584,68.3716,132.894,99.4555,99.8497,0.00230871,0.33692,20.6254,138.486,-0.0353228,0.0,0.0
2370,592.25,61.1232,67.8989,137.372,99.5276,99.1569,0.00239244,0.340321,20.6211,138.226,0.0333293,0.0,0.0
2380,594.75,61.5949,67.885,137.016,99.6179,99.6522,0.00225292,0.34086,20.6173,138.026,-0.00307034,0.0,0.0
2390,597.25,61.4905,68.4018,133.639,99.7204,99.8411,0.00218791,0.340762,20.6169,137.745,-0.0107974,0.0,0.0
2400,599.75,61.8205,68.6031,134.614,99.8241,99.2252,0.00225215,0.343036,20.6173,137.425,0.0537393,0.0,0.0
2410,602.25,62.3745,68.7034,141.756,99.8942,99.624,0.00229903,0.34671,20.6169,137.115,0.0241882,0.0,0.0
2420,604.75,61.7818,69.3508,138.263,99.9428,99.843,0.0023442,0.348834,20.6125,136.865,0.00892444,0.0,0.0
2430,607.25,62.0384,69.4829,138.175,99.9724,99.0894,0.00248314,0.349802,20.6092,136.594,0.079222,0.0,0.0
2440,609.75,62.5198,69.3552,137.086,99.9756,99.2515,0.0025993,0.350475,20.6073,136.234,0.0649156,0.0,0.0
2450,612.25,62.3656,69.3661,144.286,99.9857,99.7775,0.0025654,0.352544,20.6059,136.044,0.0186219,0.0,0.0
2460,614.75,62.1129,69.1756,141.458,99.978,99.3663,0.00246193,0.355395,20.6031,135.643,0.0548133,0.0,0.0
2470,617.25,62.6883,69.6893,133.285,99.9712,99.4705,0.00233981,0.359033,20.6009,135.493,0.0448352,0.0,0.0
2480,619.75,62.4346,69.7738,137.151,99.9481,98.8709,0.00232674,0.360289,20.5964,135.093,0.0967655,0.0,0.0
2490,622.25,62.3884,69.6045,136.691,99.9315,99.1602,0.00232025,0.359329,20.5945,134.893,0.0691919,0.0,0.0
2500,624.75,63.1519,69.718,141.124,99.8946,99.5069,0.00240593,0.362233,20.5941,134.562,0.0347313,0.0,0.0
2510,627.25,62.8659,70.0408,139.925,99.8662,98.8571,0.00252236,0.366976,20.5916,134.292,0.0907037,0.0,0.0
2520,629.75,63.3203,70.2343,135.623,99.8423,98.5353,0.00253499,0.369609,20.5858,134.002,0.117683,0.0,0.0
2530,632.25,63.3839,71.0137,140.867,99.8193,98.7538,0.00252512,0.370514,20.5836,133.711,0.0958366,0.0,0.0
2540,634.75,63.6135,70.7408,130.387,99.7783,98.9503,0.00248115,0.370359,20.5828,133.431,0.0744216,0.0,0.0
2550,637.25,63.3903,70.8248,142.451,99.7354,98.0892,0.00257309,0.373137,20.5826,133.131,0.148635,0.0,0.0
2560,639.75,63.8997,71.7223,136.824,99.7075,98.0725,0.00254191,0.376367,20.5794,132.871,0.147656,0.0,0.0
2570,642.25,63.7714,70.9802,136.756,99.6633,97.9219,0.00246122,0.378092,20.5753,132.5,0.157426,0.0,0.0
2580,644.75,64.1054,70.9831,137.852,99.6232,97.6278,0.00259689,0.379445,20.5732,132.24,0.180691,0.0,0.0
2590,647.25,63.7721,71.6682,135.034,99.5616,97.6928,0.00279522,0.38046,20.5713,131.93,0.169223,0.0,0.0
2600,649.75,64.1601,71.724,139.905,99.5673,97.2998,0.00279031,0.381117,20.5698,131.669,0.205731,0.0,0.0
2610,652.25,64.8404,71.5538,134.459,99.5774,97.121,0.00270297,0.382339,20.568,131.299,0.223067,0.0,0.0
2620,654.75,64.4193,71.7036,140.007,99.6078,97.461,0.00270325,0.384006,20.5662,131.079,0.194587,0.0,0.0
2630,657.25,64.7353,72.4225,139.724,99.6228,98.3962,0.0027675,0.386381,20.565,130.689,0.110644,0.0,0.0
2640,659.75,65.4614,72.4026,133.424,99.6459,97.8774,0.00282631,0.387284,20.5635,130.418,0.159922,0.0,0.0
2650,662.25,65.1602,72.6468,136.037,99.6532,97.3572,0.00288687,0.388529,20.5612,130.108,0.208166,0.0,0.0
2660,664.75,65.4036,72.831,133.559,99.6751,97.0412,0.00297682,0.389776,20.5596,129.818,0.239164,0.0,0.0
2670,667.25,64.677,72.0012,140.944,99.699,96.7753,0.00295168,0.390386,20.5574,129.487,0.265803,0.0,0.0
2680,669.75,65.1036,72.6279,140.196,99.7026,97.2807,0.00293256,0.391331,20.5559,129.287,0.219614,0.0,0.0
2690,672.25,65.5076,72.6288,138.66,99.7269,97.8239,0.00303173,0.39255,20.5561,128.987,0.172066,0.0,0.0
2700,674.75,64.9052,72.5855,136.729,99.7006,97.0976,0.00311,0.394383,20.5556,128.657,0.236259,0.0,0.0
2710,677.25,65.3396,72.5831,138.961,99.7216,97.4485,0.00308669,0.395978,20.5533,128.326,0.205925,0.0,0.0
2720,679.75,65.4847,72.8913,138.601,99.7075,97.1989,0.00314332,0.395412,20.5517,128.006,0.227558,0.0,0.0
2730,682.25,65.8467,72.9687,139.628,99.7273,96.7849,0.00319098,0.397567,20.5511,127.746,0.26746,0.0,0.0
2740,684.75,66.0013,73.5667,141.882,99.6961,96.6859,0.00314519,0.39833,20.5482,127.415,0.273803,0.0,0.0
2750,687.25,65.8603,72.7345,132.25,99.7208,97.2931,0.00316073,0.398895,20.5473,127.115,0.220105,0.0,0.0
2760,689.75,65.2308,73.4802,138.949,99.688,97.0206,0.00332284,0.40091,20.5469,126.815,0.242217,0.0,0.0
2770,692.25,65.8164,73.5257,134.555,99.669,96.2331,0.00338844,0.402891,20.5455,126.554,0.313292,0.0,0.0
2780,694.75,66.1704,73.5826,135.488,99.6503,96.6458,0.00346942,0.403634,20.5431,126.144,0.273413,0.0,0.0
2790,697.25,66.1085,73.4519,141.382,99.654,97.2295,0.00362519,0.405515,20.5413,125.864,0.219957,0.0,0.0
2800,699.75,65.963,73.9318,135.159,99.6503,97.1803,0.00362043,0.406929,20.5381,125.573,0.224154,0.0,0.0
2810,702.25,65.9517,73.8367,137.173,99.6289,98.4617,0.0034837,0.408164,20.5354,125.283,0.105245,0.0,0.0
2820,704.75,66.4063,73.9412,136.424,99.609,95.7502,0.00348365,0.407051,20.5341,124.933,0.352848,0.0,0.0
2830,707.25,66.4437,74.1428,134.665,99.5868,96.3507,0.00342588,0.407872,20.5336,124.633,0.295014,0.0,0.0
2840,709.75,66.5233,74.3339,135.424,99.5795,97.1755,0.00338214,0.408436,20.5335,124.362,0.218239,0.0,0.0
2850,712.25,66.7785,74.7823,131.383,99.5531,95.4877,0.00352174,0.408028,20.5334,123.972,0.37235,0.0,0.0
2860,714.75,67.1102,74.9137,135.322,99.5722,95.5714,0.00365438,0.408836,20.5334,123.682,0.366236,0.0,0.0
2870,717.25,67.0788,74.8368,138.447,99.5576,95.8831,0.00366685,0.410558,20.5333,123.331,0.335845,0.0,0.0
2880,719.75,67.2837,74.6744,135.316,99.5787,96.7184,0.00351822,0.411645,20.5327,123.061,0.260273,0.0,0.0
2890,722.25,66.9537,74.5075,137.148,99.5657,96.4268,0.00341108,0.411984,20.5314,122.721,0.286081,0.0,0.0
2900,724.75,67.4419,74.7487,136.008,99.5851,95.4782,0.00348108,0.413107,20.5297,122.5,0.376115,0.0,0.0
2910,727.25,67.1531,74.7981,136.697,99.5633,96.6018,0.00362625,0.413618,20.5273,122.11,0.26967,0.0,0.0
2920,729.75,67.7501,75.0314,139.033,99.5637,96.4105,0.00379332,0.41402,20.5264,121.79,0.287405,0.0,0.0
2930,732.25,67.4439,74.7626,136.074,99.545,95.3476,0.00391669,0.410694,20.5271,121.449,0.384735,0.0,0.0
2940,734.75,67.1756,74.3361,136.174,99.5787,95.9343,0.0040992,0.409859,20.5288,121.209,0.33297,0.0,0.0
2950,737.25,67.665,74.0908,142.336,99.5892,95.3763,0.00412454,0.414631,20.5301,120.849,0.386009,0.0,0.0
2960,739.75,67.6081,74.8576,137.421,99.6196,95.8425,0.00387795,0.416858,20.5273,120.599,0.345189,0.0,0.0
2970,742.25,67.4399,74.7537,139.47,99.6593,95.6847,0.00374843,0.41517,20.5255,120.208,0.36346,0.0,0.0
2980,744.75,67.2779,74.997,141.504,99.688,96.0285,0.00378802,0.417308,20.524,119.928,0.334009,0.0,0.0
2990,747.25,67.4985,75.1734,136.54,99.7309,96.4483,0.00385821,0.420814,20.521,119.588,0.298899,0.0,0.0
3000,749.75,67.5826,75.177,135.639,99.7868,95.5465,0.00395221,0.422988,20.5182,119.257,0.387793,0.0,0.0
3010,752.25,68.1907,75.5755,137.461,99.8569,95.8023,0.00400963,0.424421,20.5158,118.947,0.370185,0.0,0.0
3020,754.75,67.6258,75.0177,141.216,99.9258,96.2699,0.00403214,0.424966,20.5127,118.627,0.332858,0.0,0.0
3030,757.25,67.9335,75.1912,134.757,99.9857,95.853,0.00406419,0.426272,20.5116,118.326,0.376975,0.0,0.0
3040,759.75,67.82,75.8508,137.822,100.054,95.9071,0.00400375,0.426099,20.5114,117.956,0.378054,0.0,0.0
3050,762.25,67.9187,75.5666,138.646,100.144,96.9016,0.00382247,0.427903,20.5104,117.736,0.293913,0.0,0.0
3060,764.75,67.5998,75.8407,132.956,100.2,96.1322,0.00376864,0.430943,20.5094,117.315,0.370152,0.0,0.0
3070,767.25,68.1171,75.6748,134.07,100.285,95.7459,0.00396085,0.430936,20.5052,117.035,0.413691,0.0,0.0
3080,769.75,68.2324,75.9488,136.166,100.339,95.6933,0.00414181,0.430096,20.5031,116.665,0.423394,0.0,0.0
3090,772.25,68.6528,76.518,133.278,100.398,95.7158,0.00416352,0.430057,20.5036,116.394,0.426524,0.0,0.0
3100,774.75,68.1351,76.0783,138.642,100.437,94.8016,0.00410539,0.430933,20.5038,115.994,0.515723,0.0,0.0
3110,777.25,68.7885,76.0388,136.762,100.501,96.149,0.00428992,0.431547,20.5026,115.744,0.395309,0.0,0.0
3120,779.75,68.3549,75.9019,133.978,100.505,93.7407,0.0045864,0.434582,20.5022,115.413,0.622246,0.0,0.0
3130,782.25,68.383,76.2775,134.576,100.494,95.9764,0.0046697,0.435773,20.4983,115.113,0.410742,0.0,0.0
3140,784.75,68.7258,76.1737,142.521,100.486,95.7722,0.00459924,0.434265,20.4961,114.803,0.429112,0.0,0.0
3150,787.25,68.5639,76.2913,132.916,100.454,95.3567,0.00455173,0.433694,20.4963,114.453,0.465024,0.0,0.0
3160,789.75,69.1757,76.4605,133.208,100.417,97.0335,0.004382,0.434108,20.499,114.122,0.306073,0.0,0.0
3170,792.25,69.1166,76.4647,135.464,100.366,95.6699,0.00432286,0.433511,20.4997,113.752,0.427924,0.0,0.0
3180,794.75,68.9573,76.5022,136.7,100.312,96.3302,0.00449281,0.433054,20.4996,113.482,0.361741,0.0,0.0
3190,797.25,69.0938,76.5944,132.757,100.236,96.0562,0.00447736,0.431925,20.5008,113.101,0.380358,0.0,0.0
3200,799.75,68.6924,77.3038,139.738,100.154,95.437,0.0041823,0.432253,20.5013,112.861,0.430852,0.0,0.0
3210,802.25,68.716,76.767,134.746,100.049,95.6804,0.00401859,0.43331,20.5002,112.491,0.398749,0.0,0.0
3220,804.75,69.5758,76.7502,137.88,99.9683,95.0283,0.00405931,0.433538,20.4995,112.23,0.452595,0.0,0.0
3230,807.25,69.2367,76.8235,135.349,99.8537,95.1344,0.00404983,0.434714,20.4993,111.87,0.432378,0.0,0.0
3240,809.75,69.2261,76.794,139.323,99.7403,94.804,0.00409929,0.435234,20.4981,111.64,0.453297,0.0,0.0
3250,812.25,69.4403,76.8525,136.712,99.62,95.4524,0.0041521,0.432704,20.4973,111.239,0.381653,0.0,0.0
3260,814.75,69.0509,76.2959,136.847,99.5223,95.0976,0.00421989,0.431019,20.4976,110.989,0.406152,0.0,0.0
3270,817.25,69.3561,76.9268,139.065,99.4215,94.7223,0.00423776,0.430159,20.499,110.689,0.432413,0.0,0.0
3280,819.75,69.1516,76.6006,135.845,99.3012,95.2941,0.00418465,0.430018,20.4995,110.399,0.367849,0.0,0.0
3290,822.25,68.9116,76.7421,133.043,99.2323,95.7531,0.00408043,0.427092,20.4997,110.078,0.318742,0.0,0.0
3300,824.75,69.5852,76.912,136.005,99.1072,95.8286,0.00399369,0.424674,20.502,109.768,0.300427,0.0,0.0
3310,827.25,69.1562,76.6169,142.342,99.0496,94.8126,0.00392485,0.424633,20.5036,109.498,0.390434,0.0,0.0
3320,829.75,69.4359,76.8626,136.105,98.9516,95.4437,0.00384429,0.424121,20.5042,109.117,0.322341,0.0,0.0
3330,832.25,69.2469,76.7133,134.177,98.899,95.9888,0.00371678,0.421942,20.505,108.897,0.266732,0.0,0.0
3340,834.75,69.265,76.5042,137.312,98.8374,95.5346,0.00355146,0.419388,20.5062,108.557,0.30353,0.0,0.0
3350,837.25,69.1839,76.5021,137.384,98.8297,95.373,0.00347963,0.416417,20.5105,108.347,0.317955,0.0,0.0
3360,839.75,69.2712,76.0014,141.16,98.7868,96.4344,0.00343146,0.41397,20.5151,108.006,0.215232,0.0,0.0
3370,842.25,68.8746,76.0187,132.537,98.8131,95.2874,0.0034099,0.411709,20.5183,107.836,0.324471,0.0,0.0
3380,844.75,69.075,75.8155,133.793,98.8078,95.1884,0.00337775,0.408616,20.519,107.476,0.333277,0.0,0.0
3390,847.25,69.0776,75.4515,139.33,98.8374,94.9996,0.00335975,0.404224,20.5234,107.255,0.353685,0.0,0.0
3400,849.75,68.8788,75.5819,140.975,98.8706,95.4165,0.00324409,0.399639,20.5273,106.985,0.317578,0.0,0.0
3410,852.25,68.8814,75.561,139.205,98.9119,96.1992,0.0031356,0.396121,20.5326,106.715,0.248352,0.0,0.0
3420,854.75,68.3496,75.1895,138.788,98.9698,96.4134,0.00304165,0.393108,20.5363,106.475,0.233717,0.0,0.0
3430,857.25,68.6813,74.877,139.176,99.0533,95.8549,0.00289794,0.389151,20.5393,106.254,0.293121,0.0,0.0
3440,859.75,68.511,74.553,135.78,99.1221,96.2771,0.00293013,0.384803,20.5436,106.004,0.260079,0.0,0.0
3450,862.25,68.403,74.4863,133.425,99.2072,96.4234,0.00304132,0.379418,20.5482,105.714,0.254179,0.0,0.0
3460,864.75,68.4371,74.0243,138.943,99.3218,97.4304,0.0030402,0.372497,20.5542,105.564,0.171716,0.0,0.0
3470,867.25,67.926,73.5255,137.616,99.413,96.9006,0.00307173,0.366013,20.563,105.254,0.228598,0.0,0.0
3480,869.75,67.3767,73.3103,139.992,99.5361,97.111,0.00303717,0.36088,20.5706,105.153,0.220284,0.0,0.0
3490,872.25,67.3038,72.3071,138.742,99.6042,97.7373,0.00298157,0.354697,20.5753,104.853,0.168973,0.0,0.0
3500,874.75,66.916,72.8608,138.283,99.6876,96.979,0.00279633,0.347332,20.582,104.733,0.24601,0.0,0.0
3510,877.25,66.683,72.0378,139.166,99.7488,98.0715,0.00256567,0.339466,20.5877,104.463,0.151443,0.0,0.0
3520,879.75,66.336,71.3848,136.678,99.8363,98.334,0.00259897,0.332028,20.5985,104.353,0.135403,0.0,0.0
3530,882.25,66.1757,70.6093,141.673,99.8784,97.7779,0.00264342,0.323972,20.6051,104.132,0.189815,0.0,0.0
3540,884.75,65.8126,70.388,140.575,99.9444,99.0875,0.00260137,0.314789,20.6119,104.042,0.0768981,0.0,0.0
3550,887.25,65.3113,69.3588,145.683,99.974,98.4975,0.00264212,0.30468,20.6249,103.862,0.132874,0.0,0.0
3560,889.75,65.0133,69.0672,146.288,100.004,98.9838,0.00274187,0.295072,20.6374,103.732,0.0915362,0.0,0.0
3570,892.25,64.147,67.8743,145.174,100.009,98.8848,0.00264636,0.285015,20.649,103.602,0.10094,0.0,0.0
3580,894.75,64.187,67.7968,142.825,100.006,99.1071,0.00240783,0.275416,20.66,103.412,0.0805936,0.0,0.0
3590,897.25,63.4862,66.7428,145.787,99.9744,99.8396,0.00225861,0.265096,20.6703,103.362,0.0120465,0.0,0.0
3600,899.75,62.9615,66.0009,144.017,99.9234,99.4509,0.00216669,0.254353,20.6799,103.151,0.0423254,0.0,0.0
3610,902.25,62.1013,65.3596,145.383,99.8719,99.5757,0.00198239,0.245332,20.6942,103.131,0.0265269,0.0,0.0
3620,904.75,61.6889,64.5033,139.647,99.7804,100.19,0.00185796,0.236775,20.7056,102.961,-0.0365542,0.0,0.0
3630,907.25,61.555,64.0799,143.38,99.7066,99.7679,0.00193809,0.226758,20.7153,102.951,-0.00548497,0.0,0.0
3640,909.75,60.8293,62.9499,141.55,99.5819,99.6919,0.00194714,0.216248,20.7278,102.801,-0.00985949,0.0,0.0
3650,912.25,60.478,62.8349,146.792,99.4968,99.7301,0.00196693,0.206865,20.7392,102.821,-0.0209164,0.0,0.0
3660,914.75,59.8046,61.4579,143.063,99.3867,100.128,0.00197734,0.196996,20.7498,102.631,-0.066405,0.0,0.0
3670,917.25,59.5481,60.9022,143.977,99.3218,100.215,0.00190525,0.187607,20.7601,102.661,-0.079988,0.0,0.0
3680,919.75,58.7206,60.1786,148.936,99.2688,100.33,0.00193823,0.179219,20.7719,102.521,-0.0949382,0.0,0.0
3690,922.25,58.3608,59.2186,148.26,99.3328,100.296,0.00201864,0.172543,20.7813,102.581,-0.0862032,0.0,0.0
3700,924.75,57.9056,58.8508,147.011,99.4754,100.253,0.00204854,0.165999,20.7903,102.431,-0.0695186,0.0,0.0
3710,927.25,57.0211,57.8929,143.732,99.573,100.66,0.00201761,0.159097,20.7974,102.431,-0.0969736,0.0,0.0
3720,929.75,56.5466,57.3463,146.103,99.684,100.696,0.00198349,0.151826,20.8049,102.411,-0.0902481,0.0,0.0
3730,932.25,55.9067,56.6151,145.918,99.8107,100.381,0.00199218,0.144434,20.8138,102.281,-0.0509087,0.0,0.0
3740,934.75,55.7363,56.5822,146.996,99.9096,101.008,0.00208644,0.140051,20.8231,102.331,-0.0976199,0.0,0.0
3750,937.25,54.9785,55.6961,143.516,99.9602,100.841,0.00206064,0.137989,20.8318,102.18,-0.0783725,0.0,0.0
3760,939.75,55.3242,55.7045,147.878,99.9955,100.925,0.00212156,0.136068,20.8343,102.251,-0.0826738,0.0,0.0
3770,942.25,54.4549,54.8146,148.418,99.9817,100.743,0.00222261,0.133949,20.8368,102.08,-0.0677699,0.0,0.0
3780,944.75,53.6331,54.3899,148.618,99.925,100.602,0.00214836,0.132003,20.8395,102.16,-0.0602822,0.0,0.0
3790,947.25,53.8436,54.4256,150.297,99.7982,100.738,0.00206488,0.131112,20.8416,101.99,-0.0837511,0.0,0.0
3800,949.75,53.3879,53.6694,150.545,99.6362,100.809,0.00213938,0.130073,20.8428,102.08,-0.104491,0.0,0.0
3810,952.25,53.3321,53.8417,145.022,99.6143,100.231,0.00223486,0.128641,20.8437,101.91,-0.055094,0.0,0.0
3820,954.75,53.2524,53.2672,143.116,99.7431,100.613,0.00221401,0.12724,20.8448,102,-0.0775279,0.0,0.0
3830,957.25,52.3775,53.3589,148.15,99.8638,100.801,0.00221294,0.126688,20.8465,101.86,-0.0834319,0.0,0.0
3840,959.75,52.1052,52.7146,143.261,100.023,100.816,0.0022028,0.126307,20.8483,101.93,-0.0705986,0.0,0.0
3850,962.25,52.0724,52.8123,147.11,100.134,100.901,0.0021961,0.125648,20.8492,101.81,-0.0681464,0.0,0.0
3860,964.75,51.9927,52.4762,149.719,100.244,100.831,0.00230587,0.125351,20.8497,101.8,-0.0521513,0.0,0.0
3870,967.25,51.3166,52.1237,149.016,100.335,101.241,0.00245438,0.125092,20.8498,101.76,-0.0802533,0.0,0.0
3880,969.75,50.0243,50.4367,148.995,100.418,101.578,0.0024745,0.12488,20.8498,101.64,-0.102622,0.0,0.0
3890,972.25,49.5988,49.955,147.917,100.461,101.226,0.0022912,0.124008,20.8508,101.74,-0.0677404,0.0,0.0
3900,974.75,49.0293,50.1501,147.148,100.479,101.291,0.00215272,0.123337,20.8517,101.52,-0.0718847,0.0,0.0
3910,977.25,49.287,49.7858,151.083,100.495,101.243,0.00225948,0.123257,20.852,101.64,-0.066235,0.0,0.0
3920,979.75,48.8802,49.6017,147.756,100.464,101.663,0.00250239,0.123622,20.8522,101.5,-0.10596,0.0,0.0
3930,982.25,48.7885,50.0502,145.626,100.44,101.443,0.00259387,0.123586,20.8522,101.6,-0.0887431,0.0,0.0
3940,984.75,48.481,49.3602,149.924,100.375,101.138,0.00263794,0.123348,20.8533,101.46,-0.0676422,0.0,0.0
3950,987.25,48.299,49.8167,149.648,100.324,101.113,0.00268877,0.123428,20.8541,101.58,-0.0699891,0.0,0.0
3960,989.75,47.7165,49.1948,150.151,100.237,101.146,0.00258306,0.122793,20.8544,101.41,-0.0806212,0.0,0.0
3970,992.25,47.7327,49.5091,146.469,100.169,100.739,0.00239711,0.121694,20.8545,101.5,-0.0507315,0.0,0.0
3980,994.75,48.0525,49.1326,148.952,100.058,101.056,0.00234578,0.120491,20.8556,101.35,-0.0886894,0.0,0.0
3990,997.25,47.4128,49.0178,152.902,99.9967,100.598,0.00239621,0.120269,20.8565,101.4,-0.0535805,0.0,0.0
4000,999.75,47.7049,48.7718,145.708,99.9116,100.873,0.0024112,0.120047,20.8567,101.27,-0.0855524,0.0,0.0
4010,1002.25,47.6597,48.1963,150.308,99.8472,100.443,0.00237805,0.119412,20.8581,101.28,-0.0531751,0.0,0.0
4020,1004.75,47.5119,48.5299,149.371,99.7455,100.534,0.00242974,0.119399,20.8596,101.32,-0.070304,0.0,0.0
4030,1007.25,46.9967,48.6305,145.458,99.6678,100.562,0.00256791,0.119411,20.8606,101.179,-0.0797763,0.0,0.0
4040,1009.75,46.8097,48.3158,147.181,99.6111,100.26,0.00261485,0.119318,20.861,101.3,-0.0579829,0.0,0.0
4050,1012.25,46.8908,48.1011,151.151,99.5232,100.527,0.00249776,0.119451,20.8609,101.129,-0.0896426,0.0,0.0
4060,1014.75,46.2701,48.0532,144.797,99.4835,100.446,0.0024582,0.119376,20.8603,101.169,-0.0859813,0.0,0.0
4070,1017.25,46.5177,47.6033,148.53,99.4041,100.571,0.00259023,0.11929,20.8589,101.029,-0.104242,0.0,0.0
4080,1019.75,46.056,48.0878,147.15,99.3729,100.347,0.0025814,0.118989,20.8595,101.149,-0.08711,0.0,0.0
4090,1022.25,46.3084,47.8611,147.006,99.3194,99.854,0.00254003,0.119249,20.8601,100.939,-0.0479369,0.0,0.0
4100,1024.75,46.8092,47.99,146.585,99.2858,100.385,0.00257817,0.118768,20.8592,101.029,-0.0983432,0.0,0.0
4110,1027.25,46.3434,48.1252,151.335,99.2501,99.7966,0.00256046,0.118283,20.8592,100.849,-0.0490352,0.0,0.0
4120,1029.75,46.2934,47.7765,147.523,99.2416,100.068,0.0024975,0.118638,20.8601,100.849,-0.0740271,0.0,0.0
4130,1032.25,46.067,47.7125,153.645,99.2194,99.9682,0.0024769,0.119042,20.8604,100.789,-0.0671526,0.0,0.0
4140,1034.75,46.3676,48.09,148.976,99.2291,99.7163,0.0024984,0.119027,20.8605,100.869,-0.043739,0.0,0.0
4150,1037.25,46.2835,47.8337,149.154,99.2084,99.5527,0.00247715,0.118764,20.8605,100.799,-0.0309417,0.0,0.0
4160,1039.75,45.6929,47.47,149.862,99.2048,99.8114,0.00251521,0.118977,20.8605,100.759,-0.0544443,0.0,0.0
4170,1042.25,46.2584,47.602,152.081,99.204,99.8095,0.00271397,0.119243,20.8605,100.759,-0.0543458,0.0,0.0
4180,1044.75,45.8954,47.5026,150.019,99.1906,99.7531,0.00291341,0.119173,20.8608,100.689,-0.0504997,0.0,0.0
4190,1047.25,45.7568,47.0563,150.626,99.2113,99.9568,0.00301899,0.118705,20.8602,100.779,-0.0668565,0.0,0.0
4200,1049.75,45.3479,47.1148,150.975,99.2222,99.9443,0.00300714,0.117594,20.8614,100.609,-0.0647614,0.0,0.0
4210,1052.25,45.3014,47.3423,149.179,99.2534,99.7789,0.00280549,0.117304,20.8635,100.709,-0.0471599,0.0,0.0
4220,1054.75,45.6604,47.5255,145.567,99.2433,100.168,0.00262191,0.117961,20.8642,100.519,-0.0828377,0.0,0.0
4230,1057.25,45.5376,46.6334,146.344,99.3081,99.9984,0.00262798,0.118334,20.8644,100.669,-0.0618622,0.0,0.0
4240,1059.75,44.7393,46.7186,148.81,99.3008,99.9352,0.00260543,0.117917,20.8645,100.449,-0.0568793,0.0,0.0
4250,1062.25,45.1812,46.9947,148.92,99.3235,100.145,0.00256739,0.11694,20.8645,100.569,-0.0735774,0.0,0.0
4260,1064.75,45.5971,47.1052,150.133,99.3376,99.7612,0.00274008,0.117381,20.8646,100.439,-0.0379985,0.0,0.0
4270,1067.25,45.0297,47.1084,145.314,99.3875,99.7536,0.00297333,0.117851,20.8652,100.509,-0.0328365,0.0,0.0
4280,1069.75,44.6541,46.1067,144.305,99.4089,100.001,0.00306892,0.117553,20.865,100.359,-0.0530102,0.0,0.0
4290,1072.25,45.1708,46.7103,147.226,99.4276,100.086,0.00296438,0.116704,20.8634,100.449,-0.058934,0.0,0.0
4300,1074.75,44.6567,46.7076,146.377,99.4652,100.072,0.00285979,0.116485,20.8634,100.369,-0.0542708,0.0,0.0
4310,1077.25,43.9451,46.7083,149.278,99.4733,99.8817,0.00295731,0.116425,20.8642,100.409,-0.0365873,0.0,0.0
4320,1079.75,44.1615,46.3142,148.594,99.5203,100.039,0.00301376,0.116729,20.8644,100.379,-0.0464664,0.0,0.0
4330,1082.25,44.3413,46.2662,152.309,99.5811,100.188,0.00294918,0.116958,20.8645,100.239,-0.0542804,0.0,0.0
4340,1084.75,44.5342,46.8086,148.242,99.6196,99.9467,0.00282377,0.116541,20.864,100.299,-0.0292811,0.0,0.0
4350,1087.25,44.8587,45.7973,149.862,99.6528,100.04,0.00265705,0.116047,20.864,100.158,-0.0346302,0.0,0.0
4354,1088.25,43.9445,46.2164,147.348,99.6568,100.125,0.00262841,0.115887,20.8639,100.179,-0.0418621,0.0,0.0