File: 01_Data/Pressure_Treated_Deck/Cone/Pressure_Treated_Deck_Cone_HF25Scan_230612_R2.csv
Names,Time,Stack TC,Smoke TC,Exh Press,Smoke Comp,Smoke Meas,CO Meter,CO2 Meter,O2 Meter,Sample Mass,Ext Coeff,Start Test,Flame Verif
Chan Gain,,500,500,1,1,1,1,1,1,1,1,1.0,1.0
Offset,,0,0,0.13972,0,0,0,0,0,0,0,0.0,0.0
Gain,,1,1,25.011,13.3025,15.4883,1,1,1,1.0009,1.01862,1.0,1.0
Units,sec,C,C,Pa,%,%,%,%,%,g,/m,,
Baseline,,26.0099,27.5868,159.286,100.095,99.157,0.000656969,0.0439777,20.9646,-443.757,0.084122,,
12,2.75,23.3718,24.1129,158.075,100.592,99.6035,0.000579892,0.0502198,20.9609,194.586,0.0882473,0.0,0.0
24,5.75,23.962,24.277,160.099,100.573,99.752,0.000778446,0.0493262,20.9593,194.726,0.0732834,0.0,0.0
36,8.75,23.532,24.8828,157.652,100.539,99.9292,0.000786469,0.0477045,20.9596,194.546,0.0543897,0.0,0.0
48,11.75,24.088,24.5414,158.397,100.508,99.6943,0.000536476,0.0463767,20.9607,194.556,0.072678,0.0,0.0
60,14.75,24.1767,24.9813,157.993,100.509,99.6518,0.000474511,0.045432,20.9623,194.536,0.0765262,0.0,0.0
72,17.75,23.7528,25.3757,159.009,100.508,99.8593,0.000578323,0.0448543,20.9632,194.456,0.057833,0.0,0.0
84,20.75,24.0978,25.6397,157.644,100.508,99.432,0.000782318,0.0446378,20.9642,194.436,0.0962204,0.0,0.0
96,23.75,23.855,25.6982,158.731,100.532,99.4788,0.00079841,0.0446154,20.9649,194.396,0.0941453,0.0,0.0
108,26.75,23.9153,25.4345,157.566,100.545,99.7402,0.000656359,0.0446216,20.9652,194.356,0.071781,0.0,0.0
120,29.75,24.0543,26.151,160.542,100.564,99.6059,0.000525585,0.0446338,20.9653,194.216,0.08551,0.0,0.0
132,32.75,24.3432,26.0186,161.612,100.579,99.4046,0.000529569,0.0446508,20.9643,194.286,0.104925,0.0,0.0
144,35.75,24.5599,26.1165,156.68,100.6,99.8848,0.000607482,0.0447844,20.964,194.246,0.0637384,0.0,0.0
156,38.75,24.1502,25.8653,159.375,100.625,99.5265,0.00066546,0.0448606,20.9641,194.135,0.0980811,0.0,0.0
168,41.75,23.74,25.898,160.052,100.629,99.8654,0.000767391,0.0447467,20.965,194.085,0.0681031,0.0,0.0
180,44.75,24.1138,25.87,156.868,100.644,99.4022,0.00065697,0.0447814,20.9666,194.055,0.110906,0.0,0.0
192,47.75,24.6829,26.4641,161.587,100.643,99.5568,0.0005769,0.0456348,20.9657,194.075,0.0969875,0.0,0.0
204,50.75,24.2312,26.0206,158.907,100.642,99.5676,0.000677272,0.0460416,20.9646,193.975,0.0958674,0.0,0.0
216,53.75,24.5519,26.3136,156.667,100.609,99.6863,0.000830431,0.0463383,20.9631,193.965,0.0823074,0.0,0.0
228,56.75,24.5626,26.1907,158.818,100.595,99.6012,0.000831309,0.0474265,20.9626,193.855,0.0886744,0.0,0.0
240,59.75,24.7555,26.4212,158.97,100.577,99.8158,0.00070595,0.0480767,20.9611,193.765,0.0678938,0.0,0.0
252,62.75,24.5836,26.4971,156.356,100.52,99.2963,0.000476886,0.0477433,20.9604,193.695,0.109429,0.0,0.0
264,65.75,24.6904,26.03125,160.127,100.437,99.3715,0.000439109,0.0475134,20.9609,193.695,0.0953047,0.0,0.0
276,68.75,24.7354,26.5015,157.817,100.352,99.6187,0.000543619,0.0471279,20.9624,193.665,0.0655161,0.0,0.0
288,71.75,24.7839,26.84,162.419,100.275,99.2689,0.000643185,0.0467918,20.9634,193.615,0.0900739,0.0,0.0
300,74.75,25.1488,26.6182,161.269,100.183,99.2231,0.000654311,0.0466254,20.9637,193.555,0.0860585,0.0,0.0
312,77.75,25.1005,27.0422,160.091,100.088,98.6686,0.000851488,0.0472729,20.9628,193.515,0.127615,0.0,0.0
324,80.75,25.0843,26.1816,162.029,99.9767,98.6157,0.000914598,0.0476172,20.9635,193.495,0.122474,0.0,0.0
336,83.75,24.9043,26.3375,156.256,99.8659,98.524,0.000742985,0.047842,20.9637,193.445,0.120876,0.0,0.0
348,86.75,25.19,26.4179,162.87,99.7831,98.6138,0.000589013,0.0485222,20.9638,193.375,0.105322,0.0,0.0
360,89.75,24.7465,27.1063,164.537,99.7181,98.4743,0.000648611,0.0493177,20.9626,193.345,0.112146,0.0,0.0
372,92.75,25.0667,26.3387,157.241,99.8086,98.4502,0.000646675,0.0495239,20.9604,193.295,0.122443,0.0,0.0
384,95.75,24.7674,26.5639,160.333,99.9393,98.3935,0.000602093,0.0490433,20.9602,193.245,0.139287,0.0,0.0
396,98.75,25.1734,26.6991,157.251,100.046,98.3585,0.000634128,0.0482279,20.9611,193.235,0.152005,0.0,0.0
408,101.75,24.7421,26.5644,157.851,100.119,98.2054,0.000713044,0.0480358,20.9623,193.215,0.172415,0.0,0.0
420,104.75,24.8387,26.383,164.203,100.137,98.4559,0.000793347,0.0480394,20.9623,193.115,0.151245,0.0,0.0
432,107.75,25.1771,26.6359,159.298,100.138,98.3935,0.000784903,0.0480192,20.9617,193.095,0.157054,0.0,0.0
444,110.75,24.6211,26.6365,156.576,100.08,98.1544,0.00073631,0.0481002,20.9614,193.045,0.173582,0.0,0.0
456,113.75,25.0115,26.9216,161.224,99.9779,98.0234,0.00083296,0.0488877,20.9605,192.994,0.176408,0.0,0.0
468,116.75,25.1359,26.6888,160.805,99.8391,97.7606,0.00097555,0.0505762,20.9597,192.944,0.187978,0.0,0.0
480,119.75,25.0041,26.6316,158.9,99.6747,97.65,0.000884315,0.0522274,20.9581,192.924,0.183366,0.0,0.0
492,122.75,25.0083,26.9168,158.067,99.5204,97.5994,0.000813454,0.0526004,20.9561,192.794,0.174156,0.0,0.0
504,125.75,25.0171,26.3439,164.052,99.3958,97.5181,0.00102348,0.0518822,20.9556,192.794,0.170405,0.0,0.0
516,128.75,25.023,27.1061,159.232,99.4449,97.5933,0.00110166,0.0509208,20.9559,192.724,0.167936,0.0,0.0
528,131.75,25.469,26.6754,158.944,99.561,97.0705,0.00131132,0.0499995,20.9572,192.684,0.226352,0.0,0.0
540,134.75,24.9973,27.0168,158.543,99.6925,96.9855,0.00139085,0.0498893,20.9593,192.654,0.245985,0.0,0.0
552,137.75,25.2191,27.0089,160.247,99.8151,97.2705,0.00116363,0.0508036,20.9601,192.554,0.230746,0.0,0.0
564,140.75,24.5901,27.0124,158.189,99.9341,97.6538,0.00101338,0.0514195,20.9596,192.524,0.206244,0.0,0.0
576,143.75,25.5218,27.1746,157.874,100.015,97.4506,0.00101558,0.0514131,20.9581,192.434,0.232116,0.0,0.0
588,146.75,25.2593,27.0598,159.857,100.075,97.3763,0.00132727,0.0510832,20.958,192.354,0.244254,0.0,0.0
600,149.75,25.4919,26.7849,161.552,100.114,97.2979,0.00153846,0.0504133,20.9592,192.284,0.254899,0.0,0.0
612,152.75,25.3169,26.9775,158.341,100.099,97.4652,0.00144379,0.049906,20.961,192.204,0.238278,0.0,0.0
624,155.75,25.5706,26.5719,162.11,100.073,97.7866,0.00145567,0.0497387,20.9618,192.114,0.206468,0.0,0.0
636,158.75,25.3332,27.6086,157.864,99.9775,96.4598,0.00151897,0.0499161,20.9609,192.094,0.320047,0.0,0.0
648,161.75,25.0885,27.5102,162.77,99.9032,96.9973,0.00153277,0.0503476,20.9603,191.994,0.26376,0.0,0.0
660,164.75,25.4328,27.3712,162.541,99.7733,97.4945,0.00158175,0.0508611,20.9585,191.853,0.206446,0.0,0.0
672,167.75,25.3034,27.5228,158.118,99.6353,96.1091,0.00175079,0.0517905,20.9565,191.833,0.321954,0.0,0.0
684,170.75,25.328,26.5847,164.275,99.5216,96.3024,0.00170056,0.0517645,20.9557,191.783,0.293801,0.0,0.0
696,173.75,25.8024,27.5278,159.768,99.3759,96.1266,0.0015554,0.051149,20.9569,191.733,0.297035,0.0,0.0
708,176.75,25.6291,27.1148,156.441,99.2598,95.913,0.00177145,0.0514169,20.9575,191.683,0.306471,0.0,0.0
720,179.75,25.169,27.95,161.303,99.1343,96.2278,0.00190923,0.0516782,20.9577,191.613,0.265893,0.0,0.0
732,182.75,25.7361,27.2416,157.706,99.0556,95.3737,0.00180412,0.0519647,20.9586,191.513,0.338455,0.0,0.0
744,185.75,25.9223,27.7052,161.509,98.9756,95.462,0.00185529,0.0515377,20.9589,191.453,0.322961,0.0,0.0
756,188.75,25.5786,27.0871,157.546,98.933,96.6484,0.0020411,0.0511384,20.959,191.323,0.20875,0.0,1.0
768,191.75,26.3869,29.2046,154.656,98.9098,98.385,0.00208469,0.0512104,20.9591,191.113,0.0475362,0.0,1.0
780,194.75,26.2673,31.0578,147.753,98.9106,97.7989,0.0021574,0.0521123,20.9591,190.802,0.100999,0.0,0.0
792,197.75,27.1131,33.8809,148.974,98.9192,97.9053,0.00206145,0.0628551,20.9577,190.592,0.0920582,0.0,0.0
804,200.75,29.1699,36.0925,152.849,98.961,97.7649,0.0021448,0.118546,20.9497,190.222,0.108656,0.0,0.0
816,203.75,30.146,38.7255,140.948,98.9829,97.4146,0.00220518,0.200248,20.9069,189.882,0.142702,0.0,0.0
828,206.75,32.2451,40.8587,146.407,99.0223,97.5985,0.00220795,0.257976,20.8069,189.531,0.129407,0.0,0.0
840,209.75,33.352,43.0644,149.525,99.0669,97.7048,0.00247864,0.290365,20.7311,189.181,0.123704,0.0,0.0
852,212.75,34.5581,44.3013,145.554,99.1002,97.9261,0.00270363,0.316078,20.6888,188.831,0.1065,0.0,0.0
864,215.75,35.6597,45.0481,147.016,99.1542,97.8079,0.00271348,0.336265,20.6573,188.51,0.122155,0.0,0.0
876,218.75,36.3652,46.0282,145.103,99.192,97.8235,0.00265078,0.346278,20.6299,188.15,0.124132,0.0,0.0
888,221.75,36.9937,46.8787,151.144,99.233,98.2271,0.00271488,0.347627,20.617,187.82,0.0910302,0.0,0.0
900,224.75,37.9129,47.852,146.359,99.2411,97.8788,0.00299245,0.349386,20.6127,187.459,0.123505,0.0,0.0
912,227.75,38.5024,47.8059,144.753,99.2703,98.0868,0.00310732,0.35017,20.6121,187.079,0.107172,0.0,0.0
924,230.75,39.3949,48.3295,149.5,99.2882,97.8656,0.00311171,0.350991,20.6115,186.719,0.128953,0.0,0.0
936,233.75,39.2175,48.8998,147.956,99.3085,97.9866,0.00310899,0.348904,20.611,186.398,0.119738,0.0,0.0
948,236.75,40.19,49.4614,152.018,99.3479,97.6651,0.0029494,0.343717,20.6136,186.068,0.152638,0.0,0.0
960,239.75,40.5144,49.5801,150.325,99.3491,97.65,0.00286581,0.339075,20.62,185.738,0.154131,0.0,0.0
972,242.75,40.9895,50.4613,144.858,99.3645,97.8457,0.00287209,0.337511,20.625,185.448,0.137631,0.0,0.0
984,245.75,41.8902,50.0069,144.424,99.3876,97.798,0.00276049,0.337906,20.6264,185.167,0.144072,0.0,0.0
996,248.75,42.234,50.6394,147.134,99.3824,97.3281,0.0028035,0.338799,20.6268,184.817,0.186628,0.0,0.0
1008,251.75,42.4682,50.775,140.103,99.4043,97.019,0.00303357,0.336638,20.6275,184.547,0.217021,0.0,0.0
1020,254.75,42.2538,50.2295,144.685,99.4303,97.9369,0.00299348,0.336306,20.6291,184.257,0.135216,0.0,0.0
1032,257.75,43.01,50.5143,148.578,99.4319,97.823,0.00281659,0.33242,20.6285,183.966,0.145761,0.0,0.0
1044,260.75,42.837,49.8854,146.99,99.451,98.3945,0.00260337,0.326511,20.6319,183.626,0.0954301,0.0,0.0
1056,263.75,43.0311,49.9581,153.293,99.4737,97.9795,0.00257506,0.321024,20.6391,183.336,0.135239,0.0,0.0
1068,266.75,42.7944,49.6099,152.012,99.5147,98.1477,0.00270918,0.314917,20.6453,183.065,0.123589,0.0,0.0
1080,269.75,42.8904,49.3013,148.358,99.5257,97.8764,0.00276236,0.310077,20.6514,182.755,0.149307,0.0,0.0
1092,272.75,42.2819,49.8164,149.869,99.5598,98.3888,0.00281486,0.30656,20.6588,182.485,0.105715,0.0,0.0
1104,275.75,42.8814,49.5863,145.841,99.5703,98.3581,0.0026684,0.302801,20.6631,182.195,0.109453,0.0,0.0
1116,278.75,43.6587,49.7697,150.086,99.5837,97.5692,0.00249499,0.297947,20.6677,181.924,0.18261,0.0,0.0
1128,281.75,42.9406,49.7814,150.527,99.6125,98.3018,0.00257494,0.294811,20.6741,181.644,0.118352,0.0,0.0
1140,284.75,43.0908,49.2331,148.903,99.602,98.229,0.00259579,0.293379,20.6776,181.354,0.124024,0.0,0.0
1152,287.75,43.049,49.1811,147.537,99.5983,98.5051,0.00266213,0.290068,20.6803,181.084,0.0986216,0.0,0.0
1164,290.75,43.2797,48.9334,140.439,99.5582,98.0211,0.00283052,0.285626,20.6836,180.833,0.139028,0.0,0.0
1176,293.75,42.9102,48.6147,146.314,99.5403,98.7381,0.00273116,0.281696,20.6892,180.553,0.0722998,0.0,0.0
1188,296.75,42.9658,48.6551,147.471,99.4879,98.5424,0.00260213,0.277827,20.6937,180.293,0.0853243,0.0,0.0
1200,299.75,43.0218,48.5591,149.675,99.4481,98.5226,0.00267734,0.275174,20.6972,179.953,0.0835506,0.0,0.0
1212,302.75,42.8147,48.3214,150.228,99.3832,98.8463,0.00262859,0.272531,20.7007,179.722,0.0483965,0.0,0.0
1224,305.75,43.0949,47.82,147.809,99.3365,98.3406,0.00250351,0.271271,20.7048,179.422,0.0900338,0.0,0.0
1236,308.75,42.8692,47.939,145.875,99.278,98.3874,0.00257741,0.270098,20.706,179.162,0.0805236,0.0,0.0
1248,311.75,42.8668,48.3009,149.497,99.222,98.0471,0.00267258,0.267908,20.7086,178.922,0.10644,0.0,0.0
1260,314.75,42.5932,47.939,150.15,99.1627,98.0376,0.00257619,0.267213,20.7105,178.661,0.101963,0.0,0.0
1272,317.75,42.5082,47.1238,150.75,99.1242,98.0811,0.0024749,0.263939,20.711,178.421,0.0945237,0.0,0.0
1284,320.75,42.6253,46.9278,151.354,99.0442,97.9861,0.00258318,0.258839,20.7131,178.221,0.0959717,0.0,0.0
1296,323.75,42.5555,46.7307,152.414,99.0044,97.703,0.00262035,0.253541,20.7186,177.981,0.118237,0.0,0.0
1308,326.75,41.9921,46.9181,146.126,98.9703,97.8377,0.00242296,0.251943,20.7264,177.711,0.102847,0.0,0.0
1320,329.75,42.0025,46.513,152.676,98.9387,98.3151,0.00223253,0.249563,20.7287,177.48,0.0564952,0.0,0.0
1332,332.75,41.9422,46.6065,150.956,98.9167,98.1217,0.00221701,0.246911,20.7301,177.23,0.0721022,0.0,0.0
1344,335.75,42.0283,46.4019,152.951,98.9188,98.1496,0.00230052,0.245199,20.7339,176.99,0.0697467,0.0,0.0
1356,338.75,42.3776,46.8212,147.401,98.9309,98.014,0.00244781,0.2428,20.7359,176.74,0.0832055,0.0,0.0
1368,341.75,41.6927,46.2761,151.481,98.9395,98.2026,0.00241799,0.241791,20.738,176.48,0.0667975,0.0,0.0
1380,344.75,41.7817,46.7846,151.328,98.9496,97.7091,0.00240358,0.239946,20.7399,176.269,0.112728,0.0,0.0
1392,347.75,41.8022,45.5925,150.026,98.9939,98.2456,0.00249947,0.237367,20.7421,175.989,0.0677976,0.0,0.0
1404,350.75,41.7635,45.1367,147.558,99.0316,98.7802,0.00247431,0.234758,20.7452,175.769,0.0227166,0.0,0.0
1416,353.75,41.5682,45.918,146.605,99.0958,98.4427,0.00240091,0.232268,20.749,175.499,0.0590817,0.0,0.0
1428,356.75,41.3572,45.6676,150.097,99.1672,98.4578,0.00260234,0.230501,20.752,175.288,0.0641488,0.0,0.0
1440,359.75,41.2336,45.85,155.612,99.2561,98.7338,0.00263166,0.229285,20.7546,175.018,0.04714,0.0,0.0
1452,362.75,41.465,45.748,148.651,99.3381,99.5974,0.00251848,0.228198,20.7553,174.818,-0.0232919,0.0,0.0
1464,365.75,41.3294,45.6981,149.92,99.4226,98.6951,0.00228573,0.226464,20.7563,174.538,0.0656186,0.0,0.0
1476,368.75,41.6938,45.6335,148.974,99.5086,98.7102,0.00206803,0.224817,20.7578,174.308,0.0719807,0.0,0.0
1488,371.75,41.5023,45.5857,149.449,99.5793,99.2292,0.00206038,0.22234,20.7609,174.067,0.0314659,0.0,0.0
1500,374.75,41.1209,44.8252,150.125,99.6682,99.25,0.00225992,0.221642,20.7633,173.807,0.037567,0.0,0.0
1512,377.75,40.9497,45.3155,148.283,99.7441,99.1455,0.00244384,0.220187,20.764,173.557,0.0537799,0.0,0.0
1524,380.75,41.0731,44.748,152.376,99.8618,99.4112,0.00281588,0.216247,20.7656,173.277,0.0404124,0.0,0.0
1536,383.75,40.9525,44.8978,148.161,99.93,99.3757,0.00295123,0.214162,20.7696,173.056,0.0496995,0.0,0.0
1548,386.75,40.6054,44.8726,152.886,99.9832,99.3753,0.00258137,0.213278,20.7722,172.806,0.0544956,0.0,0.0
1560,389.75,40.4829,44.8219,149.27,100.028,99.4944,0.00236424,0.212155,20.7744,172.596,0.0478191,0.0,0.0
1572,392.75,40.6337,44.4218,149.164,100.064,99.6243,0.00233385,0.209058,20.7764,172.386,0.0393075,0.0,0.0
1584,395.75,40.2294,44.0757,154.204,100.108,99.4636,0.00253507,0.207079,20.78,172.226,0.0577187,0.0,0.0
1596,398.75,40.088,44.6557,151.638,100.134,99.3266,0.00251489,0.204825,20.7824,171.985,0.072323,0.0,0.0
1608,401.75,40.2944,43.9658,152.296,100.151,99.8233,0.00258588,0.202608,20.7845,171.755,0.0292675,0.0,0.0
1620,404.75,39.7728,44.5744,151.275,100.15,99.7477,0.00271719,0.200687,20.7865,171.525,0.0360034,0.0,0.0
1632,407.75,40.6436,44.0618,151.604,100.142,99.5705,0.00283064,0.199242,20.7886,171.245,0.0511347,0.0,0.0
1644,410.75,40.2673,43.815,153.024,100.107,99.6721,0.00268942,0.197943,20.79,170.975,0.0388673,0.0,0.0
1656,413.75,40.4879,43.3183,153.121,100.064,99.31,0.00262434,0.197725,20.7919,170.774,0.0675788,0.0,0.0
1668,416.75,40.0197,43.5489,143.563,100.021,99.6437,0.00289091,0.197273,20.7919,170.604,0.0337626,0.0,0.0
1680,419.75,40.5773,43.7988,147.999,99.9507,99.785,0.00313602,0.19677,20.7918,170.414,0.0148222,0.0,0.0
1692,422.75,39.8854,44.1074,151.84,99.8939,99.4939,0.00320108,0.195734,20.7933,170.164,0.0358496,0.0,0.0
1704,425.75,40.5134,43.6856,151.479,99.7952,98.9758,0.00325147,0.196675,20.7935,169.934,0.0736669,0.0,0.0
1716,428.75,40.1782,43.7143,148.849,99.7027,99.1583,0.00334321,0.196745,20.7934,169.693,0.0489199,0.0,0.0
1728,431.75,40.0023,43.8359,148.032,99.5951,99.1989,0.00329102,0.196212,20.7919,169.493,0.0356119,0.0,0.0
1740,434.75,40.0474,43.7749,151.704,99.5074,98.8927,0.00322766,0.195708,20.7919,169.303,0.0553711,0.0,0.0
1752,437.75,39.8693,43.7825,148.521,99.4627,99.0671,0.00317877,0.195601,20.7936,169.043,0.0356162,0.0,0.0
1764,440.75,40.3222,42.7557,154.574,99.4323,98.6941,0.00317044,0.195621,20.7955,168.853,0.0665808,0.0,0.0
1776,443.75,40.0272,43.4622,151.159,99.4883,98.9825,0.00309983,0.194854,20.796,168.632,0.0455473,0.0,0.0
1788,446.75,39.3699,43.1148,146.803,99.5845,98.8615,0.00312304,0.194723,20.7961,168.372,0.0651143,0.0,0.0
1800,449.75,39.0226,43.4393,153.919,99.6905,99.5326,0.00319379,0.194528,20.7962,168.122,0.0141587,0.0,0.0
1812,452.75,39.9336,43.2838,154.096,99.7814,98.774,0.00326008,0.19416,20.7962,167.852,0.0906696,0.0,0.0
1824,455.75,39.8525,42.8012,148.819,99.9126,99.3129,0.00334459,0.19386,20.7966,167.632,0.0537926,0.0,0.0
1836,458.75,39.6136,43.2082,148.063,99.9966,99.6707,0.00319767,0.193755,20.7981,167.411,0.0291698,0.0,0.0
1848,461.75,39.4325,43.4217,153.213,100.085,99.2155,0.00306019,0.193375,20.7976,167.211,0.0780098,0.0,0.0
1860,464.75,39.6883,43.1288,152.134,100.141,99.5894,0.00320258,0.193458,20.7968,166.971,0.0493658,0.0,0.0
1872,467.75,40.2327,42.8158,150.863,100.167,99.4759,0.00323406,0.19338,20.7966,166.761,0.0618314,0.0,0.0
1884,470.75,39.5854,43.4951,152.669,100.171,99.6744,0.00293938,0.193218,20.7966,166.521,0.0444165,0.0,0.0
1896,473.75,39.3967,43.4265,153.008,100.124,99.3365,0.00277963,0.193726,20.7966,166.35,0.0705615,0.0,0.0
1908,476.75,39.8689,42.7532,152.929,100.046,99.1418,0.00269196,0.194022,20.7966,166.14,0.081101,0.0,0.0
1920,479.75,39.7981,42.9754,153.41,99.9097,99.1129,0.00246542,0.193447,20.7966,165.9,0.0715443,0.0,0.0
1932,482.75,39.9095,42.598,150.12,99.7591,99.2212,0.00253917,0.192778,20.7981,165.7,0.0483128,0.0,0.0
1944,485.75,40.0818,42.1168,147.604,99.835,99.7581,0.00279275,0.192102,20.7991,165.45,0.00688576,0.0,0.0
1956,488.75,39.5445,42.5283,148.574,99.9264,99.5605,0.00297087,0.192126,20.7995,165.289,0.0327703,0.0,0.0
1968,491.75,39.0413,43.1068,149.502,100.025,99.1947,0.00303455,0.192071,20.7996,165.079,0.0745173,0.0,0.0
1980,494.75,39.2427,43.1056,148.09,100.165,99.8588,0.00298507,0.191684,20.7996,164.879,0.0273987,0.0,0.0
1992,497.75,39.4241,42.7742,151.993,100.27,99.5293,0.00276618,0.191155,20.7996,164.689,0.0662647,0.0,0.0
2004,500.75,38.8394,42.8588,146.413,100.399,99.7732,0.00274548,0.19077,20.8013,164.499,0.0558919,0.0,0.0
2016,503.75,39.2824,42.5613,147.907,100.511,99.8177,0.00289386,0.190908,20.8018,164.238,0.0618081,0.0,0.0
2028,506.75,39.8225,42.3661,153.099,100.589,99.9302,0.00291368,0.190578,20.8019,163.978,0.0587061,0.0,0.0
2040,509.75,39.298,42.2779,155.037,100.641,99.9916,0.00280984,0.190263,20.8019,163.808,0.0578288,0.0,0.0
2052,512.75,38.8918,42.29,155.124,100.679,99.9079,0.00273851,0.189826,20.802,163.578,0.0686951,0.0,0.0
2064,515.75,39.5414,42.1979,153.571,100.677,100.191,0.0025993,0.188734,20.8026,163.318,0.0432707,0.0,0.0
2076,518.75,39.6274,41.7754,155.539,100.632,99.8333,0.00268567,0.187416,20.8038,163.198,0.0711597,0.0,0.0
2088,521.75,39.031,42.1448,157.279,100.56,99.8578,0.00290348,0.186846,20.8042,162.987,0.0626501,0.0,0.0
2100,524.75,39.1741,42.5849,151.049,100.458,99.8309,0.00305536,0.18768,20.8048,162.707,0.05593,0.0,0.0
2112,527.75,39.6637,42.1163,152.403,100.316,99.3582,0.00295737,0.187807,20.8045,162.507,0.0857252,0.0,0.0
2124,530.75,39.0029,41.632,150.111,100.15,99.5667,0.00281326,0.187685,20.8045,162.307,0.052235,0.0,0.0
2136,533.75,39.5218,41.9808,146.736,99.9511,99.5029,0.00282392,0.187353,20.8053,162.036,0.0401622,0.0,0.0
2148,536.75,39.3387,42.1181,151.895,99.7567,99.1257,0.00272223,0.186595,20.8073,161.746,0.0566963,0.0,0.0
2160,539.75,38.7023,42.0248,150.429,99.5545,98.6852,0.00269114,0.18651,20.8078,161.586,0.0783678,0.0,0.0
2172,542.75,38.8972,41.7452,155.036,99.3832,98.6105,0.00279508,0.18649,20.8072,161.386,0.0697436,0.0,0.0
2184,545.75,39.5723,42.6291,151.688,99.209,98.8288,0.00293081,0.184805,20.807,161.206,0.0343059,0.0,0.0
2196,548.75,39.0976,42.377,156.179,99.0828,98.5382,0.00289187,0.184024,20.8094,160.976,0.0492482,0.0,0.0
2208,551.75,38.8314,41.9649,156.251,99.0004,98.2716,0.0027802,0.184628,20.8101,160.855,0.0660194,0.0,0.0
2220,554.75,38.7235,41.3521,152.723,98.9695,98.4436,0.00281883,0.184126,20.8102,160.705,0.047604,0.0,0.0
2232,557.75,38.8508,41.669,146.336,98.9634,98.1756,0.00283005,0.182851,20.8099,160.475,0.0714133,0.0,0.0
2244,560.75,38.8796,41.9878,154.715,99.0129,98.5996,0.00294278,0.182082,20.8111,160.285,0.0373782,0.0,0.0
2256,563.75,38.6217,41.7798,147.461,99.0714,98.014,0.00303219,0.182349,20.8118,160.065,0.0958822,0.0,0.0
2268,566.75,38.743,41.6645,155.638,99.1579,98.4157,0.00306216,0.182857,20.8114,159.905,0.0671253,0.0,0.0
2280,569.75,38.793,41.6232,154.571,99.2265,99.0028,0.00297492,0.182098,20.811,159.744,0.0201653,0.0,0.0
2292,572.75,38.6156,41.7826,154.854,99.2764,98.5646,0.00307004,0.181914,20.8115,159.454,0.0642937,0.0,0.0
2304,575.75,38.2701,41.6057,148.655,99.3564,98.9059,0.00312498,0.179568,20.8119,159.324,0.0406054,0.0,0.0
2316,578.75,38.6503,40.9572,154.424,99.4396,98.8199,0.00315577,0.179519,20.8131,159.044,0.0558612,0.0,0.0
2328,581.75,37.6331,40.5441,150.089,99.5009,98.6748,0.00309162,0.179958,20.8136,158.934,0.0744983,0.0,0.0
2340,584.75,37.9643,40.9298,153.348,99.5675,99.37,0.00301938,0.17983,20.8137,158.754,0.0177355,0.0,0.0
2352,587.75,37.5952,40.8747,146.84,99.5951,98.9593,0.00309375,0.179449,20.8138,158.493,0.0572234,0.0,0.0
2364,590.75,38.4588,41.0114,149.718,99.6203,99.3095,0.00321751,0.179537,20.8146,158.323,0.0279127,0.0,0.0
2376,593.75,38.4516,41.0897,155.799,99.6243,99.1649,0.00326266,0.181436,20.814,158.133,0.0412988,0.0,0.0
2388,596.75,38.6399,41.4302,154.431,99.617,98.7986,0.00317803,0.182922,20.8126,157.923,0.0737113,0.0,0.0
2400,599.75,38.3883,40.7841,153.522,99.6178,99.3266,0.00306216,0.183587,20.8118,157.673,0.0261626,0.0,0.0
2412,602.75,38.0298,41.3063,154.497,99.6093,99.2231,0.00287742,0.183927,20.8118,157.462,0.0347144,0.0,0.0
2424,605.75,38.2932,41.2953,150.382,99.602,98.9631,0.00278907,0.18366,20.8106,157.302,0.0574996,0.0,0.0
2436,608.75,38.1324,41.6958,152.66,99.5752,99.0567,0.00278906,0.183556,20.8111,157.082,0.0466504,0.0,0.0
2448,611.75,38.8002,41.3012,153.995,99.5188,99.1503,0.00282176,0.181538,20.8118,156.892,0.0331481,0.0,0.0
2460,614.75,38.3117,41.2988,149.418,99.4895,98.818,0.00293483,0.180664,20.8127,156.722,0.0605185,0.0,0.0
2472,617.75,38.0483,41.4726,151.672,99.4425,98.974,0.00315868,0.181892,20.8135,156.542,0.0421947,0.0,0.0
2484,620.75,38.5847,40.6656,155.137,99.4019,98.8501,0.00313525,0.181117,20.8127,156.351,0.0497334,0.0,0.0
2496,623.75,38.1142,40.8233,153.171,99.3592,98.8875,0.00325558,0.179623,20.814,156.181,0.0425265,0.0,0.0
2508,626.75,38.0129,41.1199,154.789,99.3312,98.6062,0.00322032,0.179428,20.8139,156.011,0.0654548,0.0,0.0
2520,629.75,37.9422,41.2413,150.092,99.2833,99.1843,0.00301677,0.178859,20.8155,155.801,0.00891524,0.0,0.0
2532,632.75,38.546,40.886,153.377,99.2342,98.5041,0.00305149,0.178748,20.816,155.591,0.0659792,0.0,0.0
2544,635.75,38.0624,40.5887,153.523,99.179,98.7655,0.00327279,0.177894,20.8161,155.36,0.0373284,0.0,0.0
2556,638.75,37.8072,40.9913,150.12,99.1615,98.6663,0.00334271,0.178171,20.8171,155.16,0.0447397,0.0,0.0
2568,641.75,38.2004,40.9392,151.887,99.101,98.5845,0.00335168,0.179011,20.8181,155.03,0.046696,0.0,0.0
2580,644.75,38.1608,41.0089,156.476,99.0365,98.299,0.00326636,0.178948,20.8168,154.8,0.066788,0.0,0.0
2592,647.75,38.0011,41.2416,154.539,98.9841,98.4862,0.00306881,0.178083,20.8164,154.66,0.0450641,0.0,0.0
2604,650.75,37.4348,40.2848,152.518,98.9488,98.55,0.00283351,0.177841,20.8176,154.45,0.0360872,0.0,0.0
2616,653.75,37.7822,40.7646,147.673,98.9244,98.3855,0.00292612,0.177296,20.8192,154.239,0.0488139,0.0,0.0
2628,656.75,37.9956,40.8398,153.536,98.9273,98.558,0.00319462,0.176045,20.8197,153.999,0.0334156,0.0,0.0
2640,659.75,37.8479,41.0816,153.704,98.9354,98.4035,0.00332974,0.176025,20.8214,153.869,0.0481719,0.0,0.0
2652,662.75,37.7272,40.5242,150.147,98.9654,98.8345,0.00334339,0.176604,20.8209,153.659,0.0118293,0.0,0.0
2664,665.75,37.7535,39.4765,151.898,99.0361,98.8284,0.00344095,0.17707,20.8202,153.479,0.0187591,0.0,0.0
2676,668.75,38.0046,40.3459,151.299,99.0836,98.126,0.00329309,0.176202,20.82,153.259,0.0867738,0.0,0.0
2688,671.75,37.3292,40.5268,151.675,99.1713,98.5538,0.00326255,0.175791,20.8199,153.058,0.0558104,0.0,0.0
2700,674.75,37.5282,39.9497,151.293,99.3016,98.3188,0.00334861,0.17598,20.8199,152.838,0.0888685,0.0,0.0
2712,677.75,37.2549,40.2567,155.055,99.438,98.8213,0.0034127,0.17498,20.8199,152.618,0.055587,0.0,0.0
2724,680.75,37.2577,40.1622,152.798,99.576,99.5482,0.0032956,0.174541,20.8214,152.458,0.00249214,0.0,0.0
2736,683.75,37.7718,40.3382,151.883,99.7339,99.3209,0.00310364,0.173412,20.822,152.228,0.0370812,0.0,0.0
2748,686.75,37.6075,40.535,153,99.8996,99.3994,0.00315222,0.174965,20.8222,152.178,0.044851,0.0,0.0
2760,689.75,37.399,39.7132,145.867,100.082,99.2335,0.00314831,0.175937,20.8216,151.957,0.0761027,0.0,0.0
2772,692.75,37.5229,40.2619,154.535,100.223,99.4944,0.00307746,0.175648,20.8213,151.777,0.0651714,0.0,0.0
2784,695.75,37.6933,39.8915,152.243,100.363,99.6447,0.00313016,0.176097,20.8209,151.547,0.0641974,0.0,0.0
2796,698.75,37.3614,39.8178,151.06,100.47,100.506,0.00339646,0.175968,20.8204,151.417,-0.00323123,0.0,0.0
2808,701.75,37.9098,40.6439,150.526,100.572,99.8838,0.00351593,0.17609,20.8203,151.247,0.0613702,0.0,0.0
2820,704.75,37.9863,40.6437,153.07,100.621,100.113,0.00337765,0.175778,20.8203,151.077,0.0452495,0.0,0.0
2832,707.75,37.6383,40.5826,153.365,100.64,99.6286,0.00332596,0.176842,20.8194,150.846,0.09029,0.0,0.0
2844,710.75,37.8446,40.0921,155.422,100.621,100.597,0.0033392,0.176578,20.8183,150.676,0.00208322,0.0,0.0
2856,713.75,37.8881,40.5549,147.038,100.572,99.9765,0.00334727,0.176828,20.818,150.486,0.0530504,0.0,0.0
2868,716.75,37.3745,40.4365,150.028,100.495,100.41,0.00348486,0.176571,20.8179,150.296,0.00754138,0.0,0.0
2880,719.75,37.3846,40.7923,152.359,100.396,99.8276,0.00354854,0.176456,20.819,150.096,0.0507364,0.0,0.0
2892,722.75,37.755,40.4568,151.691,100.3,99.4504,0.00333161,0.177024,20.8183,149.926,0.0759939,0.0,0.0
2904,725.75,37.1665,40.1827,151.671,100.184,99.3218,0.00304555,0.177227,20.8186,149.705,0.0772031,0.0,0.0
2916,728.75,37.4838,40.3028,148.822,100.068,99.4003,0.002837,0.176975,20.8193,149.535,0.0598224,0.0,0.0
2928,731.75,37.6146,40.0633,146.873,99.9503,99.6277,0.00289716,0.176282,20.8195,149.375,0.0288906,0.0,0.0
2940,734.75,37.8773,40.7285,155.264,99.8338,99.6796,0.00306834,0.176001,20.8196,149.145,0.0138066,0.0,0.0
2952,737.75,37.5742,40.242,152.452,99.7713,99.3247,0.00312389,0.17638,20.8196,148.975,0.0400858,0.0,0.0
2964,740.75,37.62,40.2561,157.444,99.7839,99.6409,0.00309667,0.177176,20.8196,148.795,0.0128111,0.0,0.0
2976,743.75,37.6886,40.4697,153.591,99.919,99.137,0.0030411,0.177321,20.8189,148.594,0.0702075,0.0,0.0
2988,746.75,37.1515,40.0479,149.316,100.028,99.2694,0.00309767,0.17746,20.8186,148.324,0.0680471,0.0,0.0
3000,749.75,37.5646,40.4435,154.285,100.086,99.4107,0.00319962,0.176728,20.8186,148.144,0.0605196,0.0,0.0
3012,752.75,37.493,39.8973,148.341,100.122,99.0652,0.00309957,0.176602,20.8186,147.934,0.0948178,0.0,0.0
3024,755.75,37.3289,40.3329,155.339,100.149,99.5766,0.00271518,0.177079,20.8186,147.744,0.0512353,0.0,0.0
3036,758.75,37.7818,40.0717,151.102,100.161,99.3403,0.00255376,0.176224,20.8186,147.583,0.073481,0.0,0.0
3048,761.75,37.2294,40.605,154.162,100.15,99.6097,0.00247789,0.178292,20.8186,147.383,0.0483753,0.0,0.0
3060,764.75,37.6073,40.1834,152.898,100.139,99.5204,0.00254359,0.180113,20.817,147.243,0.0553785,0.0,0.0
3072,767.75,37.6233,40.0572,150.35,100.124,99.5402,0.00258557,0.180413,20.8153,147.103,0.0522922,0.0,0.0
3084,770.75,37.4733,40.7882,152.969,100.107,99.8021,0.0024736,0.180183,20.8143,146.933,0.0272957,0.0,0.0
3096,773.75,37.5707,39.8446,151.3,100.097,99.699,0.0025425,0.179547,20.8139,146.783,0.0356194,0.0,0.0
3108,776.75,36.9214,40.3952,149.487,100.081,99.4731,0.00291638,0.179595,20.8144,146.552,0.0544416,0.0,0.0
3120,779.75,37.7137,40.6611,155.008,100.069,99.4665,0.00325004,0.180317,20.814,146.372,0.0539853,0.0,0.0
3132,782.75,37.3813,39.672,151.924,100.06,99.4064,0.0032404,0.18081,20.8138,146.202,0.0585812,0.0,0.0
3144,785.75,37.6415,40.3884,153.855,100.056,99.3199,0.00308881,0.181433,20.8138,145.972,0.0659972,0.0,0.0
3156,788.75,37.2208,40.198,150.984,100.056,99.1947,0.00297165,0.181964,20.8149,145.802,0.0772369,0.0,0.0
3168,791.75,37.1644,40.3783,156.913,100.06,99.4665,0.00291063,0.180484,20.8164,145.642,0.0531509,0.0,0.0
3180,794.75,37.6395,40.1109,153.576,100.059,99.3091,0.0028289,0.18104,20.8173,145.431,0.0672299,0.0,0.0
3192,797.75,37.177,40.4974,156.453,100.055,99.1919,0.00281558,0.182505,20.8176,145.201,0.0773837,0.0,0.0
3204,800.75,37.4255,40.0503,150.803,100.065,99.578,0.0027593,0.184391,20.8161,145.081,0.0436078,0.0,0.0
3216,803.75,37.6733,40.068,151.574,100.077,99.4745,0.00247495,0.185001,20.8137,144.901,0.0539154,0.0,0.0
3228,806.75,36.99,40.1101,147.327,100.082,99.5615,0.00247147,0.184773,20.8116,144.711,0.0465784,0.0,0.0
3240,809.75,37.3515,40.8585,148.817,100.101,99.7992,0.00253367,0.185377,20.8114,144.541,0.0270058,0.0,0.0
3252,812.75,36.6313,40.9894,150.915,100.106,99.2774,0.00249654,0.185473,20.8118,144.33,0.0742469,0.0,0.0
3264,815.75,37.4835,40.8311,149.015,100.104,99.5719,0.00248512,0.187578,20.8109,144.12,0.047639,0.0,0.0
3276,818.75,37.3897,41.3183,148.94,100.102,99.8663,0.00240438,0.189812,20.8082,143.92,0.0210356,0.0,0.0
3288,821.75,37.3587,41.1723,152.173,100.085,99.7865,0.00250137,0.190641,20.8059,143.69,0.026735,0.0,0.0
3300,824.75,38,40.9346,145.253,100.102,99.821,0.00271749,0.192591,20.8043,143.47,0.0251323,0.0,0.0
3312,827.75,37.7065,41.3529,148.951,100.114,99.8224,0.00267965,0.193957,20.8028,143.28,0.0260553,0.0,0.0
3324,830.75,37.5066,41.7685,152.523,100.099,99.5322,0.00238673,0.193337,20.801,143.069,0.0507672,0.0,0.0
3336,833.75,37.7983,41.4144,148.809,100.104,99.6522,0.00223573,0.193964,20.8002,142.899,0.0404304,0.0,0.0
3348,836.75,38.0333,41.6771,154.758,100.124,99.5813,0.00235086,0.19596,20.7992,142.719,0.048602,0.0,0.0
3360,839.75,38.3021,41.3047,150.379,100.134,99.4915,0.00242395,0.197821,20.7978,142.539,0.0575335,0.0,0.0
3372,842.75,37.9743,41.458,151.388,100.133,99.5799,0.00216311,0.199001,20.7953,142.369,0.0494898,0.0,0.0
3384,845.75,38.1475,41.7698,155.026,100.137,99.6466,0.00192743,0.199433,20.7942,142.199,0.0438738,0.0,0.0
3396,848.75,38.0962,42.2928,151.108,100.141,99.5057,0.00171091,0.200836,20.793,141.998,0.0568392,0.0,0.0
3408,851.75,38.5675,42.4591,154.284,100.155,99.5582,0.00175105,0.202091,20.7919,141.808,0.0533966,0.0,0.0
3420,854.75,38.5841,42.4277,148.608,100.164,99.5468,0.00186036,0.203823,20.7916,141.588,0.0552112,0.0,0.0
3432,857.75,38.8812,42.4965,149.949,100.172,99.9363,0.00202489,0.205756,20.7893,141.348,0.0210813,0.0,0.0
3444,860.75,39.2808,42.4884,151.548,100.177,99.9221,0.00224533,0.207299,20.7858,141.188,0.0227474,0.0,0.0
3456,863.75,38.9767,42.7951,149.775,100.183,99.6116,0.00223844,0.208517,20.784,140.997,0.0510669,0.0,0.0
3468,866.75,38.9081,42.9493,146.133,100.188,99.6154,0.00200776,0.208536,20.7809,140.777,0.0512353,0.0,0.0
3480,869.75,38.8335,43.0138,149.651,100.182,99.6589,0.00189857,0.20915,20.78,140.577,0.0467914,0.0,0.0
3492,872.75,39.6485,43.4583,152.068,100.178,99.5818,0.00190688,0.212834,20.7787,140.357,0.0533034,0.0,0.0
3504,875.75,39.6608,43.6366,147.019,100.176,99.734,0.00187237,0.215117,20.7756,140.147,0.0395492,0.0,0.0
3516,878.75,39.6417,43.5591,145.678,100.167,99.3322,0.00186514,0.217206,20.7734,139.967,0.0747475,0.0,0.0
3528,881.75,39.6333,43.9639,151.135,100.124,99.785,0.00187835,0.21944,20.7711,139.736,0.0302686,0.0,0.0
3540,884.75,39.8712,44.2608,148.864,100.096,100.131,0.00202184,0.220629,20.7709,139.526,-0.00308738,0.0,0.0
3552,887.75,40.4284,44.3907,149.956,100.057,99.6702,0.00223778,0.222644,20.7691,139.306,0.0346518,0.0,0.0
3564,890.75,40.4436,44.8697,151.072,100.013,99.6536,0.00226189,0.224575,20.7669,139.066,0.0321834,0.0,0.0
3576,893.75,40.2491,44.8953,149.354,99.9613,99.5856,0.00208978,0.226291,20.7631,138.825,0.0336437,0.0,0.0
3588,896.75,40.1208,45.1017,148.582,99.8906,99.5728,0.00189077,0.228449,20.7618,138.595,0.0284733,0.0,0.0
3600,899.75,40.893,45.4681,150.463,99.8277,99.4291,0.00185706,0.231578,20.7606,138.315,0.0357456,0.0,0.0
3612,902.75,41.1507,45.3685,147.247,99.7534,99.4443,0.00174457,0.233778,20.7577,138.095,0.0277353,0.0,0.0
3624,905.75,41.4456,46.3667,149.457,99.7944,99.3875,0.00166392,0.235861,20.7547,137.845,0.0365052,0.0,0.0
3636,908.75,41.509,46.2823,147.153,99.837,99.3289,0.00166883,0.238466,20.7527,137.554,0.0455918,0.0,0.0
3648,911.75,41.9735,46.4027,143.505,99.8841,100.011,0.00175245,0.240148,20.7491,137.424,-0.0113827,0.0,0.0
3660,914.75,41.9933,47.088,149.629,99.9422,99.3521,0.00175859,0.241725,20.7462,137.234,0.0529138,0.0,0.0
3672,917.75,42.4947,46.8738,147.378,99.9824,99.5861,0.00174234,0.244524,20.7451,136.994,0.0354889,0.0,0.0
3684,920.75,42.6596,47.184,145.56,100.048,99.6787,0.00195827,0.247188,20.7428,136.764,0.0330197,0.0,0.0
3696,923.75,43.0052,47.4569,145.756,100.12,99.9396,0.00203982,0.250458,20.7398,136.543,0.0161493,0.0,0.0
3708,926.75,42.5653,48.2179,146.015,100.189,99.7033,0.00193739,0.253388,20.7349,136.323,0.0433883,0.0,0.0
3720,929.75,43.4277,48.4176,150.208,100.271,99.9027,0.00190755,0.255498,20.7315,136.063,0.0328404,0.0,0.0
3732,932.75,43.5852,48.6934,150.594,100.325,100.067,0.00200685,0.258259,20.7287,135.803,0.0229929,0.0,0.0
3744,935.75,43.6702,48.8017,148.82,100.413,99.5553,0.00201325,0.261127,20.725,135.563,0.0766561,0.0,0.0
3756,938.75,43.7933,48.975,151.617,100.46,99.9996,0.00219869,0.263549,20.722,135.302,0.041021,0.0,0.0
3768,941.75,43.6164,49.2696,149.559,100.537,100.533,0.00222038,0.264199,20.7192,135.032,0.000364279,0.0,0.0
3780,944.75,44.1425,49.8242,149.451,100.58,100.056,0.00223355,0.266341,20.7168,134.802,0.046642,0.0,0.0
3792,947.75,44.5211,49.3961,150.933,100.62,99.994,0.00222465,0.270741,20.713,134.522,0.0557786,0.0,0.0
3804,950.75,44.9886,50.0449,142.954,100.651,99.8106,0.00211577,0.273276,20.7081,134.241,0.0748849,0.0,0.0
3816,953.75,45.0986,50.0828,146.746,100.676,100.149,0.00194676,0.275897,20.7065,133.981,0.04691,0.0,0.0
3828,956.75,45.3911,50.2316,144.391,100.683,100.475,0.00196407,0.278324,20.7033,133.711,0.0185072,0.0,0.0
3840,959.75,45.6065,50.7265,143.028,100.671,100.172,0.00206812,0.27976,20.7017,133.491,0.0444536,0.0,0.0
3852,962.75,45.3923,51.2212,146.226,100.667,100.06,0.00205975,0.282655,20.6998,133.2,0.0540128,0.0,0.0
3864,965.75,45.7967,51.5985,150.669,100.606,99.9585,0.00200792,0.28559,20.697,132.93,0.0576859,0.0,0.0
3876,968.75,45.1186,51.8002,147.26,100.544,99.6347,0.00213384,0.288698,20.6934,132.62,0.0811569,0.0,0.0
3888,971.75,46.3029,51.4989,146.606,100.461,99.2509,0.00220354,0.293341,20.6904,132.32,0.108316,0.0,0.0
3900,974.75,46.3145,52.2311,146.002,100.385,99.2689,0.00214542,0.294455,20.6864,131.999,0.0999447,0.0,0.0
3912,977.75,46.607,52.863,149.447,100.275,99.6281,0.00216062,0.295795,20.6815,131.669,0.0578711,0.0,0.0
3924,980.75,46.9177,52.5494,142.278,100.155,99.2311,0.00224674,0.29937,20.6792,131.429,0.0828002,0.0,0.0
3936,983.75,46.9888,53.0529,143.663,100.033,98.6866,0.00221293,0.303484,20.6757,131.109,0.121093,0.0,0.0
3948,986.75,47.0833,53.1825,151.85,99.913,99.0075,0.00242073,0.307371,20.6712,130.788,0.0813427,0.0,0.0
3960,989.75,46.9282,53.2962,149.611,99.7879,98.8128,0.00256068,0.307691,20.6665,130.498,0.0877463,0.0,0.0
3972,992.75,47.2868,53.4607,144.605,99.6584,98.7943,0.00259244,0.311237,20.6648,130.248,0.0778092,0.0,0.0
3984,995.75,47.637,53.5664,149.825,99.5139,97.9185,0.00249369,0.312842,20.6622,129.967,0.14441,0.0,0.0
3996,998.75,47.8424,54.252,147.335,99.3698,98.0466,0.00239175,0.314946,20.6602,129.667,0.11978,0.0,0.0
4008,1001.75,48.2941,54.4722,140.217,99.2598,97.6708,0.00234644,0.31854,20.6582,129.367,0.144193,0.0,0.0
4020,1004.75,48.6264,54.4595,146.671,99.1567,97.7871,0.00222063,0.322558,20.6539,129.097,0.124275,0.0,0.0
4032,1007.75,48.8822,55.2986,144.228,99.0803,97.6926,0.00212349,0.326417,20.6491,128.786,0.126036,0.0,0.0
4044,1010.75,49.1782,55.058,143.472,99.0154,97.1778,0.00215027,0.329852,20.6445,128.436,0.167381,0.0,0.0
4056,1013.75,49.1255,55.9249,147.128,98.9926,97.642,0.0021429,0.333668,20.6403,128.136,0.122752,0.0,0.0
4068,1016.75,49.4727,56.0603,139.779,98.9695,97.0275,0.00207959,0.336259,20.6361,127.826,0.177071,0.0,0.0
4080,1019.75,49.7491,56.3221,141.917,99.0032,97.5853,0.00224526,0.337819,20.6332,127.435,0.128897,0.0,0.0
4092,1022.75,50.322,56.7949,144.593,99.0267,97.0247,0.00222748,0.33975,20.6306,127.065,0.182499,0.0,0.0
4104,1025.75,50.2691,56.3211,144.092,99.0925,97.002,0.00220234,0.342402,20.629,126.735,0.190521,0.0,0.0
4116,1028.75,50.5682,56.3054,147.32,99.1664,97.4562,0.00252189,0.345761,20.6263,126.474,0.155437,0.0,0.0
4128,1031.75,50.9652,57.1355,141.357,99.2521,97.2903,0.00282109,0.348096,20.6216,126.024,0.178375,0.0,0.0
4140,1034.75,50.7163,57.5496,148.629,99.3548,97.2903,0.00280176,0.349502,20.6195,125.684,0.187617,0.0,0.0
4152,1037.75,51.0464,57.4468,139.879,99.4985,97.6779,0.00276645,0.35512,20.6174,125.353,0.165007,0.0,0.0
4164,1040.75,51.442,57.9912,145.217,99.6158,98.7504,0.00288047,0.358867,20.6112,125.043,0.0779634,0.0,0.0
4176,1043.75,51.5871,57.7886,146.818,99.7303,97.8462,0.00280269,0.358831,20.6064,124.713,0.170419,0.0,0.0
4188,1046.75,51.5308,58.9902,140.532,99.8435,97.5749,0.00283381,0.36293,20.605,124.342,0.205371,0.0,0.0
4200,1049.75,51.8296,59.0424,138.626,99.9491,97.0578,0.00294227,0.36774,20.6013,124.012,0.262291,0.0,0.0
4212,1052.75,52.6084,59.4301,148.36,100.04,97.0762,0.00307706,0.371185,20.5952,123.562,0.268684,0.0,0.0
4224,1055.75,52.0386,59.3085,143.322,100.115,97.0913,0.00324143,0.377785,20.5909,123.251,0.274033,0.0,0.0
4236,1058.75,52.3341,59.7856,140.541,100.155,97.1835,0.00321688,0.378539,20.5843,122.811,0.269142,0.0,0.0
4248,1061.75,52.4122,59.7628,140.541,100.177,97.7786,0.00311799,0.37928,20.5818,122.511,0.216549,0.0,0.0
4260,1064.75,52.7544,60.3348,143.154,100.168,97.2052,0.00319208,0.381187,20.5811,122.08,0.2683,0.0,0.0
4272,1067.75,53.2495,60.368,143.044,100.106,98.204,0.00330531,0.384175,20.5787,121.81,0.17142,0.0,0.0
4284,1070.75,53.2872,60.5985,143.932,100.014,98.2153,0.00329406,0.385948,20.5751,121.41,0.162196,0.0,0.0
4296,1073.75,53.7623,60.9757,141.863,99.9369,96.8091,0.00317994,0.387876,20.5725,121.119,0.28412,0.0,0.0
4308,1076.75,53.5267,61.428,142.341,99.8679,96.3289,0.00304844,0.389181,20.5696,120.739,0.322381,0.0,0.0
4320,1079.75,54.46,61.2962,145.633,99.7843,96.4929,0.00294959,0.393367,20.568,120.309,0.299695,0.0,0.0
4332,1082.75,53.7941,61.6318,140.81,99.6958,96.7354,0.00303175,0.396778,20.563,119.918,0.269341,0.0,0.0
4344,1085.75,54.2139,61.5563,143.47,99.5849,96.2386,0.00304284,0.398437,20.5592,119.558,0.305407,0.0,0.0
4356,1088.75,54.337,61.6198,143.666,99.5115,96.605,0.00297072,0.398369,20.5572,119.238,0.264866,0.0,0.0
4368,1091.75,54.6566,62.3005,141.945,99.4684,95.9593,0.00303941,0.398087,20.5567,118.877,0.32092,0.0,0.0
4380,1094.75,54.6076,62.4505,138.899,99.4473,95.4526,0.00303983,0.399029,20.5579,118.467,0.366331,0.0,0.0
4392,1097.75,54.9973,62.4775,144.218,99.4278,96.2401,0.00312293,0.404335,20.5576,118.107,0.291167,0.0,0.0
4404,1100.75,55.5606,62.8811,144.657,99.4096,96.4008,0.00326687,0.406179,20.5522,117.716,0.274618,0.0,0.0
4416,1103.75,55.2909,63.3384,145.199,99.4075,96.4589,0.00322033,0.406177,20.5489,117.286,0.269048,0.0,0.0
4428,1106.75,55.757,62.7616,138.965,99.401,96.2443,0.00317066,0.404862,20.548,116.936,0.288365,0.0,0.0
4440,1109.75,55.4756,62.6521,142.485,99.4047,95.8076,0.00338555,0.408751,20.5493,116.605,0.329332,0.0,0.0
4452,1112.75,55.7134,63.1732,137.666,99.4157,95.852,0.00364648,0.40949,20.5454,116.195,0.326175,0.0,0.0
4464,1115.75,56.0226,62.7741,145.206,99.3978,96.5147,0.00383701,0.410644,20.5436,115.745,0.263008,0.0,0.0
4476,1118.75,56.1178,63.4241,140.835,99.3889,95.844,0.00351295,0.41067,20.5417,115.354,0.324515,0.0,0.0
4488,1121.75,55.5003,63.2833,142.038,99.3921,95.1496,0.00322517,0.412571,20.5406,114.874,0.389776,0.0,0.0
4500,1124.75,55.8808,62.982,143.441,99.4014,95.7953,0.00331563,0.413491,20.5387,114.544,0.330186,0.0,0.0
4512,1127.75,56.6375,63.7695,141.028,99.4209,94.7063,0.0033091,0.411522,20.5366,114.133,0.434098,0.0,0.0
4524,1130.75,56.6626,63.7283,145.83,99.4246,95.8988,0.00325902,0.414433,20.536,113.753,0.322617,0.0,0.0
4536,1133.75,56.6395,63.9658,147.06,99.4469,95.6941,0.00315148,0.416713,20.5344,113.362,0.343713,0.0,0.0
4548,1136.75,56.5654,64.2528,139.956,99.4571,94.3366,0.00317452,0.418535,20.5314,113.032,0.472285,0.0,0.0
4560,1139.75,57.2206,63.6603,139.636,99.496,95.2985,0.0034191,0.420626,20.5294,112.642,0.385141,0.0,0.0
4572,1142.75,56.9002,64.1032,142.345,99.5419,94.857,0.00372162,0.419478,20.5264,112.251,0.430749,0.0,0.0
4584,1145.75,57.0144,64.9264,142.87,99.6032,95.1529,0.00395304,0.421417,20.5271,111.821,0.408422,0.0,0.0
4596,1148.75,57.7215,64.9071,143.976,99.6523,95.6743,0.00424809,0.42709,20.5258,111.411,0.364004,0.0,0.0
4608,1151.75,57.6338,65.1155,140.535,99.7181,93.8555,0.00453449,0.433459,20.5189,111.04,0.541398,0.0,0.0
4620,1154.75,57.8531,65.4071,140.865,99.7798,94.8216,0.00477468,0.436852,20.5121,110.64,0.455418,0.0,0.0
4632,1157.75,58.4223,66.014,142.464,99.8565,95.5197,0.00494784,0.437221,20.5071,110.25,0.396741,0.0,0.0
4644,1160.75,58.0336,65.4386,139.652,99.9121,94.0474,0.00485151,0.435071,20.5055,109.879,0.540518,0.0,0.0
4656,1163.75,58.3696,65.8983,140.585,99.9844,94.8221,0.0047033,0.434863,20.506,109.439,0.473676,0.0,0.0
4668,1166.75,58.5134,65.9372,133.152,100.014,95.6724,0.00483164,0.438588,20.5058,109.089,0.396591,0.0,0.0
4680,1169.75,58.6896,66.1981,142.739,100.059,94.6349,0.00471738,0.437215,20.5029,108.668,0.498005,0.0,0.0
4692,1172.75,59.1516,66.5115,134.725,100.104,94.5205,0.00459973,0.437745,20.5026,108.268,0.512835,0.0,0.0
4704,1175.75,58.9251,66.7725,140.584,100.145,94.5309,0.00485065,0.440426,20.5031,107.868,0.515475,0.0,0.0
4716,1178.75,59.0341,66.8542,140.964,100.15,94.5507,0.00522033,0.439843,20.4993,107.477,0.514034,0.0,0.0
4728,1181.75,59.1452,66.7213,139.807,100.153,94.6684,0.00551907,0.438109,20.4991,107.047,0.503207,0.0,0.0
4740,1184.75,59.1023,67.1519,143.679,100.152,95.1553,0.00545754,0.436783,20.5009,106.666,0.457266,0.0,0.0
4752,1187.75,59.2867,66.8122,141.311,100.118,94.3243,0.00507817,0.439882,20.5005,106.266,0.532665,0.0,0.0
4764,1190.75,59.2474,66.7199,144.281,100.06,94.4728,0.00508422,0.439579,20.497,105.856,0.513362,0.0,0.0
4776,1193.75,59.9475,66.7651,138.536,99.997,94.9393,0.0051535,0.436463,20.496,105.455,0.463763,0.0,0.0
4788,1196.75,59.4772,66.6888,142.277,99.9235,93.6654,0.00510537,0.43615,20.499,105.095,0.577893,0.0,0.0
4800,1199.75,59.7694,66.9346,138.538,99.8403,92.7782,0.00527487,0.433141,20.4999,104.625,0.655487,0.0,0.0
4812,1202.75,59.6698,66.3209,147.153,99.7355,94.2842,0.00535983,0.428573,20.501,104.364,0.50224,0.0,0.0
4824,1205.75,59.2674,65.7374,142.406,99.6397,93.9741,0.00523918,0.422838,20.5051,104.034,0.523088,0.0,0.0
4836,1208.75,59.3142,65.7343,139.271,99.5318,93.4958,0.00516163,0.417745,20.5114,103.744,0.558995,0.0,0.0
4848,1211.75,59.2801,64.9632,145.579,99.4177,93.5893,0.00513302,0.41063,20.5172,103.413,0.53981,0.0,0.0
4860,1214.75,58.6492,64.8182,146.642,99.2878,94.0143,0.00493799,0.40264,20.5246,103.113,0.48765,0.0,0.0
4872,1217.75,58.652,63.9806,147.793,99.1924,93.5629,0.00499472,0.393897,20.5331,102.863,0.522064,0.0,0.0
4884,1220.75,58.2198,63.6942,142.842,99.1043,93.2424,0.00477003,0.386937,20.5442,102.543,0.544782,0.0,0.0
4896,1223.75,57.9623,63.1369,140.256,99.0223,93.6153,0.00459307,0.377317,20.5515,102.232,0.501719,0.0,0.0
4908,1226.75,57.5567,62.6458,146.543,98.9699,93.4442,0.00460103,0.367795,20.5599,102.032,0.513339,0.0,0.0
4920,1229.75,57.2608,62.1208,148.071,98.9399,92.9148,0.00434655,0.357501,20.5705,101.712,0.561392,0.0,0.0
4932,1232.75,56.2231,60.8648,140.768,98.9573,92.8482,0.00409692,0.347027,20.5808,101.462,0.569378,0.0,0.0
4944,1235.75,55.7596,59.9973,146.576,99.0089,93.4967,0.00380091,0.337098,20.5935,101.242,0.511841,0.0,0.0
4956,1238.75,55.7406,59.0785,145.546,99.1018,93.1871,0.00335522,0.327641,20.6065,101.041,0.549864,0.0,0.0
4968,1241.75,54.877,58.5032,145.28,99.2171,94.0729,0.00314737,0.317151,20.6176,100.831,0.475721,0.0,0.0
4980,1244.75,54.6116,57.6434,150.179,99.3556,94.4179,0.00315031,0.303358,20.629,100.691,0.455467,0.0,0.0
4992,1247.75,53.8356,56.9105,146.769,99.5208,94.563,0.00316863,0.290769,20.6434,100.491,0.456591,0.0,0.0
5004,1250.75,53.4351,55.7051,145.721,99.6564,95.4498,0.00300972,0.2778,20.6588,100.271,0.385361,0.0,0.0
5016,1253.75,52.6178,54.7395,146.478,99.8261,95.7721,0.00280326,0.265232,20.6724,100.05,0.370437,0.0,0.0
5028,1256.75,52.1668,53.9237,149.507,99.9759,96.0321,0.00274571,0.254628,20.6834,99.9303,0.359614,0.0,0.0
5040,1259.75,51.2283,53.2173,152.669,100.102,97.0304,0.00277317,0.241585,20.6973,99.8102,0.278486,0.0,0.0
5052,1262.75,50.2026,52.4023,148.398,100.239,97.6751,0.00289119,0.228371,20.7124,99.7402,0.231552,0.0,0.0
5064,1265.75,50.2798,51.7011,156.125,100.371,98.2125,0.0028928,0.21967,20.7294,99.58,0.194241,0.0,0.0
5076,1268.75,49.6084,50.6506,152.759,100.48,98.7556,0.00275538,0.209925,20.7399,99.4299,0.154684,0.0,0.0
5088,1271.75,48.6934,49.5062,151.597,100.547,99.1881,0.00263567,0.20031,20.7504,99.3298,0.121628,0.0,0.0
5100,1274.75,48.2649,47.7815,148.714,100.594,99.959,0.00277904,0.189206,20.763,99.2097,0.0565608,0.0,0.0
5112,1277.75,47.577,47.3315,158.569,100.618,99.7628,0.00304535,0.177315,20.7743,99.0996,0.07624,0.0,0.0
5124,1280.75,46.2858,46.0311,151.818,100.655,100.084,0.00320168,0.16581,20.7889,99.0796,0.0508572,0.0,0.0
5136,1283.75,45.6968,45.5105,155.3,100.653,100.088,0.00348072,0.15419,20.8043,99.0195,0.0503393,0.0,0.0
5148,1286.75,44.9271,44.5364,156.741,100.64,100.129,0.00372125,0.144155,20.8188,98.9194,0.0455102,0.0,0.0
5160,1289.75,44.6676,43.4812,159.575,100.612,99.7832,0.00397465,0.137189,20.8319,98.9595,0.0739511,0.0,0.0
5172,1292.75,44.3123,42.8179,148.768,100.632,100.025,0.00452516,0.132207,20.843,98.9595,0.0540785,0.0,0.0
5184,1295.75,43.5494,42.2498,153.108,100.58,99.8092,0.00504804,0.127565,20.8504,98.8894,0.0687384,0.0,0.0
5196,1298.75,42.4471,41.9643,158.94,100.57,99.596,0.00573666,0.124692,20.8566,98.8193,0.0869774,0.0,0.0
5208,1301.75,42.5344,41.256,150.889,100.559,99.4504,0.00621374,0.12575,20.8616,98.7893,0.0990746,0.0,0.0
5220,1304.75,41.5871,41.1548,155.067,100.545,99.4098,0.00627947,0.127237,20.8611,98.7292,0.101499,0.0,0.0
5232,1307.75,41.3063,40.1643,157.438,100.543,99.536,0.00643164,0.127784,20.8588,98.6792,0.0899115,0.0,0.0
5244,1310.75,40.5745,39.7118,152.419,100.556,99.6045,0.00653875,0.126007,20.8571,98.6492,0.0849518,0.0,0.0
5256,1313.75,40.0166,39.6121,160.115,100.549,99.6376,0.00676115,0.122796,20.8583,98.5791,0.0814071,0.0,0.0
5268,1316.75,38.8805,39.0664,151.893,100.554,99.6021,0.00696331,0.118218,20.8619,98.5191,0.0850194,0.0,0.0
5280,1319.75,39.4313,38.0578,158.263,100.579,99.6541,0.00713561,0.114541,20.8679,98.469,0.0825206,0.0,0.0
5292,1322.75,37.2584,35.9487,156.789,100.595,99.8148,0.00732712,0.112991,20.8732,98.3989,0.0696019,0.0,0.0
5304,1325.75,36.2405,35.3652,154.055,100.6,99.5979,0.00741598,0.111555,20.8761,98.3489,0.0894411,0.0,0.0
5316,1328.75,36.4717,35.4147,157.763,100.621,99.9396,0.00759807,0.109069,20.8768,98.2989,0.060746,0.0,0.0
5328,1331.75,36.174,34.9606,152.52,100.647,99.7988,0.00777856,0.107574,20.8792,98.2888,0.0756549,0.0,0.0
5340,1334.75,36.0126,34.5766,154.342,100.648,99.7416,0.00791577,0.106563,20.882,98.2688,0.0808487,0.0,0.0
5352,1337.75,35.4024,34.6391,154.532,100.656,99.7283,0.00830764,0.10497,20.8836,98.1988,0.082719,0.0,0.0
5364,1340.75,35.2591,34.1543,155.497,100.672,100.148,0.00876593,0.103303,20.8861,98.1287,0.0466759,0.0,0.0
5376,1343.75,35.6836,34.2213,153.878,100.664,99.8985,0.00902663,0.102072,20.8896,98.0486,0.0681718,0.0,0.0
5388,1346.75,34.5726,33.8266,153.319,100.669,99.9689,0.00885382,0.101677,20.8908,97.9786,0.0623783,0.0,0.0
5400,1349.75,34.5773,34.1894,157.102,100.679,99.5166,0.00890388,0.101659,20.8911,97.9385,0.103765,0.0,0.0
5412,1352.75,34.065,33.9717,155.435,100.673,99.9202,0.00916585,0.101264,20.8927,97.9085,0.0670914,0.0,0.0
5424,1355.75,34.6276,33.5944,154.406,100.681,99.9736,0.00907243,0.100484,20.8931,97.8685,0.0629642,0.0,0.0
5436,1358.75,33.7837,33.3895,153.852,100.69,99.647,0.00894391,0.099503,20.8946,97.8284,0.0930322,0.0,0.0
5448,1361.75,33.8565,33.2951,157.025,100.679,99.804,0.00886336,0.0987622,20.8965,97.8184,0.0779993,0.0,0.0
5460,1364.75,33.4753,32.852,152.95,100.674,99.6622,0.00845299,0.0984659,20.8976,97.8184,0.0902352,0.0,0.0
5472,1367.75,33.2372,32.8834,155.441,100.652,99.4958,0.00805976,0.0980277,20.8979,97.8084,0.103219,0.0,0.0
5484,1370.75,33.0438,32.336,156.406,100.665,99.8337,0.00807449,0.0971808,20.898,97.7984,0.0740726,0.0,0.0
5496,1373.75,32.3022,31.936,155.996,100.625,99.8923,0.00824528,0.0969223,20.8992,97.7484,0.0653332,0.0,0.0
5508,1376.75,32.5671,32.1799,156.121,100.603,99.8224,0.00820097,0.0968201,20.8996,97.7083,0.0695734,0.0,0.0
5520,1379.75,32.9239,32.4329,156.664,100.562,99.7397,0.00822544,0.0965877,20.8997,97.6883,0.0734102,0.0,0.0
5532,1382.75,32.4084,32.208,158.288,100.555,99.6579,0.00829471,0.0961187,20.8997,97.6082,0.0800528,0.0,0.0
5544,1385.75,32.6336,31.936,160.092,100.506,99.8035,0.0080829,0.0956705,20.8997,97.6082,0.0626797,0.0,0.0
5556,1388.75,32.098,31.8614,154.913,100.463,99.8394,0.00809416,0.0961139,20.8997,97.5782,0.0556029,0.0,0.0
5568,1391.75,32.087,31.8579,155.035,100.406,99.7118,0.00818765,0.0964418,20.8997,97.5282,0.0620102,0.0,0.0
5580,1394.75,31.9388,31.8333,153.929,100.36,99.6981,0.00817482,0.0964177,20.8998,97.4981,0.0591198,0.0,0.0
5592,1397.75,31.9631,31.6164,158.721,100.289,99.4807,0.00796762,0.0973014,20.9002,97.4681,0.0722998,0.0,0.0
5604,1400.75,31.5462,31.9954,157.04,100.239,99.7487,0.00769588,0.0992148,20.8997,97.4181,0.0438113,0.0,0.0
5616,1403.75,31.7258,31.6791,158.134,100.193,99.4031,0.00744945,0.100256,20.8972,97.388,0.0706894,0.0,0.0
5628,1406.75,31.5134,31.6747,160.228,100.118,99.4102,0.00726143,0.100168,20.8955,97.348,0.0633884,0.0,0.0
5640,1409.75,31.8956,31.8489,159.288,100.038,99.3838,0.00732839,0.0989306,20.8961,97.308,0.0586637,0.0,0.0
5652,1412.75,30.9612,31.2025,154.365,99.9584,99.0609,0.0073567,0.0971312,20.8971,97.2779,0.080589,0.0,0.0
5664,1415.75,31.4553,31.2653,157.754,99.8801,98.9361,0.0072184,0.0962623,20.8988,97.2179,0.0848453,0.0,0.0
5676,1418.75,30.9972,31.1722,161.021,99.7644,98.9862,0.00736821,0.0964009,20.9011,97.1678,0.0699655,0.0,0.0
5688,1421.75,31.091,31.4032,157.918,99.6852,98.7296,0.00752986,0.0958464,20.9013,97.1078,0.0860701,0.0,0.0
5700,1424.75,30.7415,31.3223,155.583,99.6024,98.7003,0.00741979,0.0952669,20.9011,97.0577,0.0812963,0.0,0.0
5712,1427.75,30.4181,30.9613,157.063,99.5123,98.48,0.00718526,0.0952208,20.9026,97.0277,0.0931703,0.0,0.0
5724,1430.75,30.4035,31.1714,155.439,99.4047,98.4332,0.00693374,0.0949049,20.9032,96.9977,0.0877526,0.0,0.0
5736,1433.75,30.7789,30.9192,156.728,99.3154,98.5419,0.00693516,0.0952088,20.9034,96.9777,0.0698577,0.0,0.0
5748,1436.75,30.4352,30.8441,157.613,99.2464,98.0792,0.00690799,0.0954868,20.9028,96.9576,0.105704,0.0,0.0
5760,1439.75,30.6513,30.529,153.51,99.1737,98.4408,0.00679109,0.0951822,20.9026,96.9677,0.0662784,0.0,0.0
5762,1440.25,30.6918,30.9272,155.87,99.1709,97.78,0.00679883,0.0950576,20.9028,96.9677,0.126203,0.0,0.0