File: 01_Data/Pressure_Treated_Deck/Cone/Pressure_Treated_Deck_Cone_HF25Scan_230614_R4.csv
Names,Time,Stack TC,Smoke TC,Exh Press,Smoke Comp,Smoke Meas,CO Meter,CO2 Meter,O2 Meter,Sample Mass,Ext Coeff,Start Test,Flame Verif
Chan Gain,,500,500,1,1,1,1,1,1,1,1,1.0,1.0
Offset,,0,0,0.13972,0,0,0,0,0,0,0,0.0,0.0
Gain,,1,1,25.011,13.3261,15.6582,1,1,1,1.0009,1.01862,1.0,1.0
Units,sec,C,C,Pa,%,%,%,%,%,g,/m,,
Baseline,,18.5049,20.0119,165.231,99.736,100.259,0.000623745,0.0494177,20.9535,-443.694,-0.0466999,,
13,3,16.8215,17.7548,165.272,99.9151,99.9806,0.000981048,0.0540688,20.9527,209.079,-0.00586033,0.0,0.0
26,6.25,16.7565,18.4914,158.737,99.9741,100.449,0.000881194,0.0584069,20.9497,209.039,-0.0423847,0.0,0.0
39,9.5,17.0201,18.5777,164.761,100.06,100.318,0.000949386,0.0608706,20.9444,209.049,-0.0230281,0.0,0.0
52,12.75,17.1257,18.7503,163.743,100.136,100.399,0.00114054,0.060634,20.9406,208.999,-0.0234233,0.0,0.0
65,16,17.3231,19.7014,166.118,100.18,100.616,0.00122687,0.0586691,20.9407,208.909,-0.0388344,0.0,0.0
78,19.25,17.4043,19.5337,159.715,100.271,100.498,0.00109497,0.0558899,20.9452,208.919,-0.0201885,0.0,0.0
91,22.5,17.4463,19.3452,166.465,100.32,100.441,0.000905629,0.0554606,20.9491,208.839,-0.0107417,0.0,0.0
104,25.75,17.6819,18.7521,160.259,100.341,100.573,0.000802094,0.056795,20.9498,208.719,-0.0206257,0.0,0.0
117,29,17.7483,19.3693,164.849,100.383,100.593,0.000821107,0.0576008,20.9488,208.629,-0.0186364,0.0,0.0
130,32.25,17.6143,19.3331,167.18,100.403,100.595,0.000865448,0.058443,20.9485,208.559,-0.0170754,0.0,0.0
143,35.5,18.0602,18.9546,165.601,100.428,100.716,0.000953822,0.0578715,20.9484,208.639,-0.0256353,0.0,0.0
156,38.75,17.8376,19.6749,164.861,100.426,100.621,0.000836693,0.0569447,20.9479,208.529,-0.0173465,0.0,0.0
169,42,18.164,19.8258,162.587,100.433,100.723,0.000791394,0.0560366,20.9482,208.518,-0.0258014,0.0,0.0
182,45.25,18.2982,19.0903,165.941,100.44,100.629,0.000860464,0.0546713,20.9498,208.529,-0.0168316,0.0,0.0
195,48.5,18.3213,19.1027,163.55,100.429,100.543,0.000760684,0.0532317,20.9523,208.428,-0.0101675,0.0,0.0
208,51.75,17.8633,19.8699,166.2,100.409,100.418,0.000406116,0.0516569,20.9541,208.388,-0.000771212,0.0,0.0
221,55,18.6071,19.3823,162.257,100.382,100.635,0.000638757,0.0505673,20.9565,208.348,-0.0224857,0.0,0.0
234,58.25,18.8691,19.8714,166.645,100.327,100.676,0.000943146,0.0500245,20.9575,208.318,-0.0310951,0.0,0.0
247,61.5,18.4664,19.8105,161.605,100.238,100.229,0.000933453,0.0507402,20.9578,208.228,0.00075517,0.0,0.0
260,64.75,17.9988,20.7173,168.016,100.165,100.414,0.000798047,0.051964,20.9564,208.198,-0.0221717,0.0,0.0
273,68,18.4651,20.2012,167.134,100.051,100.003,0.000641981,0.0525422,20.9552,208.178,0.0043512,0.0,0.0
286,71.25,19.0264,20.3061,162.011,99.9236,99.4029,0.000633165,0.053286,20.9539,208.088,0.0466844,0.0,0.0
299,74.5,18.658,20.4472,165.453,99.8094,99.9792,0.000644795,0.0534672,20.9535,208.058,-0.0151931,0.0,0.0
312,77.75,18.6404,20.6461,165.82,99.6959,99.3241,0.000663476,0.0529874,20.9534,208.048,0.0333858,0.0,0.0
325,81,19.0055,19.9544,162.002,99.7097,99.476,0.000624672,0.0518377,20.9544,208.038,0.0209655,0.0,0.0
338,84.25,19.04,20.4751,163.528,99.7138,99.6237,0.000682718,0.0512136,20.9554,207.878,0.00807669,0.0,0.0
351,87.5,18.9997,20.822,160.784,99.7756,99.3389,0.00108285,0.0518258,20.9568,207.888,0.039195,0.0,0.0
364,90.75,18.6011,21.2682,167.426,99.8297,99.3575,0.00129503,0.0525474,20.9568,207.848,0.0423611,0.0,0.0
377,94,18.7768,20.6329,161.027,99.8781,99.3207,0.000978478,0.0536604,20.9553,207.728,0.0500014,0.0,0.0
390,97.25,18.8393,20.9209,164.171,99.972,99.2873,0.000638859,0.0552589,20.9541,207.748,0.0614114,0.0,0.0
403,100.5,18.9118,20.4157,161.167,100.061,99.5023,0.00066408,0.0553303,20.9529,207.718,0.0500003,0.0,0.0
416,103.75,19.3624,21.1417,163.493,100.13,99.2983,0.000653109,0.0558868,20.9538,207.608,0.0745141,0.0,0.0
429,107,18.8581,20.4429,161.61,100.219,99.7656,0.000616024,0.0574054,20.9538,207.558,0.0405397,0.0,0.0
442,110.25,19.0849,20.9011,162.022,100.293,98.9967,0.000615697,0.056724,20.9513,207.538,0.116229,0.0,0.0
455,113.5,19.1811,21.0444,163.364,100.333,99.1291,0.000944413,0.0547068,20.9495,207.468,0.107839,0.0,0.0
468,116.75,19.2596,21.1853,162.074,100.358,99.3451,0.00121553,0.0535353,20.9501,207.337,0.0906728,0.0,0.0
481,120,19.3576,20.8215,163.377,100.37,98.8219,0.00127826,0.0525945,20.951,207.327,0.138909,0.0,0.0
494,123.25,18.724,20.9446,164.124,100.315,99.1153,0.00123845,0.052149,20.9512,207.277,0.107495,0.0,0.0
507,126.5,18.7501,21.1611,162.054,100.234,99.1167,0.00102457,0.0518253,20.9519,207.187,0.10019,0.0,0.0
520,129.75,19.4541,21.5212,164.544,100.146,98.9055,0.000859711,0.0514004,20.9532,207.127,0.111416,0.0,0.0
533,133,18.9196,20.9889,162.445,100.011,98.712,0.00104212,0.0513538,20.9545,207.047,0.116863,0.0,0.0
546,136.25,19.5912,21.2453,160.591,99.8451,98.0014,0.00132656,0.0520793,20.9568,206.987,0.166542,0.0,0.0
559,139.5,19.4184,21.4476,164.596,99.6674,97.9135,0.00134707,0.0523357,20.9573,206.847,0.158643,0.0,0.0
572,142.75,19.0066,21.53,169.572,99.5052,97.7214,0.00143561,0.052225,20.9575,206.867,0.161631,0.0,0.0
585,146,20.04,20.9836,163.255,99.3624,97.353,0.00137635,0.0519853,20.9575,206.807,0.182556,0.0,0.0
598,149.25,19.3943,21.9321,163.137,99.2205,97.6631,0.00148454,0.0518903,20.9575,206.637,0.141364,0.0,0.0
611,152.5,19.7477,21.2783,164.986,99.1583,97.3553,0.00162615,0.0520945,20.9575,206.607,0.163959,0.0,0.0
624,155.75,19.7133,21.6217,162.254,99.131,97.5211,0.00169968,0.0525859,20.9575,206.557,0.146298,0.0,0.0
637,159,19.6869,21.6273,163.169,99.1318,97.2067,0.00174809,0.0530266,20.957,206.427,0.175226,0.0,0.0
650,162.25,20.2553,22.5771,163.05,99.2213,99.3422,0.00178945,0.0535151,20.9569,206.296,-0.0108846,0.0,1.0
663,165.5,19.7927,22.9855,152.896,99.3148,99.3623,0.00178457,0.054041,20.9554,206.066,-0.00426967,0.0,0.0
676,168.75,21.1442,26.3589,152.362,99.4791,99.165,0.00182371,0.0608897,20.9541,205.756,0.0282641,0.0,0.0
689,172,22.3756,29.7334,150.032,99.6361,99.6366,0.00179685,0.109011,20.9472,205.316,-4.36718e-05,0.0,0.0
702,175.25,24.8363,33.573,144.786,99.8354,99.1583,0.00190639,0.182524,20.9026,204.945,0.0608084,0.0,0.0
715,178.5,26.1272,36.0184,148.236,100.056,99.5468,0.00206737,0.249367,20.8195,204.555,0.045612,0.0,0.0
728,181.75,28.0688,38.5387,146.52,100.234,99.8894,0.0023314,0.308025,20.7496,204.064,0.0307325,0.0,0.0
741,185,29.6374,40.2041,149.822,100.415,99.2892,0.00255378,0.348575,20.6705,203.744,0.100735,0.0,0.0
754,188.25,30.6072,41.0995,149.058,100.578,99.5009,0.00278246,0.369097,20.6201,203.354,0.0962046,0.0,0.0
767,191.5,31.8718,42.0119,151.182,100.691,98.8988,0.00284617,0.371735,20.5954,202.903,0.160439,0.0,0.0
780,194.75,32.6572,43.2556,148.039,100.781,99.9773,0.00289802,0.369265,20.5892,202.583,0.0715337,0.0,0.0
793,198,32.9019,43.2346,151.009,100.866,100.066,0.00304198,0.360091,20.5921,202.253,0.0711332,0.0,0.0
806,201.25,34.0132,43.9101,147.549,100.89,99.4889,0.00301209,0.351598,20.5991,201.913,0.124982,0.0,0.0
819,204.5,33.8446,43.6077,147.877,100.913,98.807,0.00304117,0.344747,20.609,201.462,0.188487,0.0,0.0
832,207.75,34.663,43.8994,153.416,100.932,99.2452,0.00314518,0.34076,20.6176,201.152,0.150604,0.0,0.0
845,211,35.3396,44.6902,150.626,100.955,99.66,0.00309041,0.336964,20.6226,200.771,0.115355,0.0,0.0
858,214.25,36.2881,45.0555,151.124,100.959,99.4846,0.00303188,0.33617,20.6266,200.371,0.131453,0.0,0.0
871,217.5,36.1879,44.9954,152.255,100.972,99.9209,0.0029842,0.339762,20.6279,200.051,0.0934697,0.0,0.0
884,220.75,36.8631,45.1021,153.781,100.955,99.2156,0.00289398,0.339266,20.6242,199.721,0.155252,0.0,0.0
897,224,36.6018,44.467,150.576,100.981,99.5898,0.00297363,0.33278,20.6239,199.31,0.123923,0.0,0.0
910,227.25,37.2933,44.1899,149.273,100.966,99.316,0.00288404,0.326797,20.6328,198.92,0.147264,0.0,0.0
923,230.5,36.9179,45.0223,146.146,100.981,99.186,0.00297363,0.318958,20.6401,198.65,0.160224,0.0,0.0
936,233.75,37.2725,45.0096,148.245,100.973,99.8879,0.00313263,0.312733,20.6496,198.279,0.096526,0.0,0.0
949,237,37.1769,45.0024,153.405,100.968,99.0135,0.0029441,0.310077,20.6576,197.849,0.174661,0.0,0.0
962,240.25,38.2436,45.115,148.827,100.985,99.5644,0.00263531,0.311655,20.66,197.599,0.126592,0.0,0.0
975,243.5,37.8874,45.0453,151.741,100.983,99.077,0.00244158,0.312303,20.6589,197.308,0.170296,0.0,0.0
988,246.75,38.4849,45.4322,154.014,100.979,99.7154,0.00260268,0.311338,20.6585,196.908,0.112475,0.0,0.0
1001,250,38.3446,45.2438,148.267,100.982,100.273,0.00268598,0.308336,20.659,196.628,0.0629674,0.0,0.0
1014,253.25,38.3786,45.1343,150.403,100.976,100.036,0.00277158,0.306396,20.6617,196.287,0.0835368,0.0,0.0
1027,256.5,38.5914,44.8539,146.941,100.972,100.119,0.00307813,0.304578,20.664,196.007,0.0758682,0.0,0.0
1040,259.75,38.8424,45.3825,148.602,100.965,100.059,0.00342209,0.302377,20.6646,195.567,0.0805099,0.0,0.0
1053,263,38.6467,45.3724,158.269,100.96,99.9166,0.00349656,0.297039,20.6675,195.317,0.0928098,0.0,0.0
1066,266.25,38.8194,44.9571,152.545,100.953,99.8382,0.00326222,0.29613,20.6744,195.006,0.0992452,0.0,0.0
1079,269.5,38.1872,44.2599,149.185,100.934,100.056,0.00303884,0.291843,20.6761,194.576,0.0781154,0.0,0.0
1092,272.75,38.4503,44.7226,153.603,100.926,100.294,0.00283586,0.287049,20.6802,194.356,0.0561279,0.0,0.0
1105,276,38.6664,44.1345,153.165,100.9,99.801,0.00262372,0.28336,20.6843,194.055,0.097902,0.0,0.0
1118,279.25,38.4965,43.9325,157.081,100.872,100.787,0.00276844,0.28091,20.6886,193.735,0.00755308,0.0,0.0
1131,282.5,38.8685,44.0032,149.583,100.847,100.796,0.00284816,0.277309,20.6919,193.395,0.00447151,0.0,0.0
1144,285.75,39.0383,44.3646,153.789,100.808,99.9577,0.0027495,0.271965,20.6962,193.105,0.0757013,0.0,0.0
1157,289,38.7098,44.154,149.957,100.768,99.9673,0.00270452,0.268869,20.7017,192.804,0.071277,0.0,0.0
1170,292.25,38.4333,43.7848,148.589,100.683,100.14,0.00279969,0.267632,20.7052,192.454,0.0483319,0.0,0.0
1183,295.5,38.3447,43.5936,152.303,100.639,100.176,0.002662,0.265471,20.7061,192.244,0.0411928,0.0,0.0
1196,298.75,38.4296,43.9584,150.869,100.556,100.164,0.00255645,0.263847,20.7095,191.913,0.0349266,0.0,0.0
1209,302,38.2968,43.7918,156.99,100.484,99.9692,0.00263795,0.260882,20.712,191.593,0.0459002,0.0,0.0
1222,305.25,38.3122,43.1763,149.045,100.414,101.066,0.00273562,0.259334,20.7169,191.343,-0.0578501,0.0,0.0
1235,308.5,38.5208,43.087,149.661,100.344,100.643,0.00271741,0.258202,20.719,191.063,-0.0266037,0.0,0.0
1248,311.75,38.5677,42.9444,150.366,100.265,100.606,0.00279383,0.254664,20.72,190.762,-0.0302865,0.0,0.0
1261,315,38.3981,43.3395,150.695,100.181,99.5797,0.00295074,0.253031,20.7238,190.382,0.0538318,0.0,0.0
1274,318.25,38.2019,43.1131,151.602,100.107,99.8015,0.0028657,0.25264,20.7261,190.192,0.0272819,0.0,0.0
1287,321.5,38.2801,42.7446,146.883,100.013,100.268,0.0026964,0.250937,20.7286,189.892,-0.0227286,0.0,0.0
1300,324.75,38.188,42.2574,150.578,99.9118,99.25,0.00271514,0.24791,20.7309,189.651,0.0593854,0.0,0.0
1313,328,38.0461,42.6759,153.089,99.8297,100.321,0.00281094,0.24561,20.7341,189.351,-0.0438987,0.0,0.0
1326,331.25,37.6265,42.2401,151.043,99.7467,100.115,0.00293913,0.243688,20.7368,189.101,-0.0329647,0.0,0.0
1339,334.5,37.6796,42.4927,153.522,99.6528,99.3126,0.00293742,0.240016,20.7402,188.831,0.0305531,0.0,0.0
1352,337.75,37.9558,42.2289,155.092,99.5828,99.5683,0.00279795,0.236334,20.7446,188.45,0.00130793,0.0,0.0
1365,341,37.2733,42.4903,152.265,99.5247,99.6151,0.0029315,0.236396,20.7473,188.27,-0.00811331,0.0,0.0
1378,344.25,37.8933,42.0203,148.066,99.4625,99.8048,0.00281611,0.235365,20.7465,188.04,-0.0307007,0.0,0.0
1391,347.5,37.8209,41.464,151.452,99.3604,99.8779,0.00284272,0.234278,20.7472,187.68,-0.0464188,0.0,0.0
1404,350.75,37.7406,42.3433,155.451,99.3014,99.4029,0.00279758,0.233809,20.748,187.449,-0.00912939,0.0,0.0
1417,354,37.7337,41.6013,155.859,99.2571,99.4617,0.00283063,0.231675,20.7507,187.199,-0.0184005,0.0,0.0
1430,357.25,37.3318,41.7391,151.868,99.214,99.2792,0.00294089,0.230392,20.753,186.859,-0.00586779,0.0,0.0
1443,360.5,37.4292,41.495,154.058,99.181,99.4072,0.00288004,0.227499,20.7544,186.599,-0.020354,0.0,0.0
1456,363.75,37.507,41.3204,152.298,99.1562,99.0885,0.00259744,0.225687,20.7577,186.378,0.00610557,0.0,0.0
1469,367,37.4087,41.5167,149.441,99.1611,99.3872,0.00267623,0.224449,20.761,186.078,-0.0203454,0.0,0.0
1482,370.25,37.7363,41.9893,147.44,99.1591,99.682,0.00263823,0.224319,20.7635,185.708,-0.0469959,0.0,0.0
1495,373.5,36.8434,41.2539,150.502,99.1936,99.6356,0.00265592,0.225412,20.7643,185.558,-0.0397256,0.0,0.0
1508,376.75,36.9356,41.3891,152.242,99.2721,99.3891,0.00270628,0.224545,20.7628,185.308,-0.0105188,0.0,0.0
1521,380,37.3588,41.5248,153.003,99.3035,99.6141,0.00271441,0.223932,20.7624,184.937,-0.0279114,0.0,0.0
1534,383.25,37.2441,41.4662,150.16,99.3746,99.8263,0.0027033,0.223751,20.7622,184.717,-0.0405211,0.0,0.0
1547,386.5,37.8893,41.193,151.65,99.4669,99.4483,0.00269902,0.225339,20.763,184.487,0.00167215,0.0,0.0
1560,389.75,37.5249,41.3544,149.532,99.5483,100.118,0.00272963,0.225153,20.7615,184.187,-0.0509732,0.0,0.0
1573,393,37.5293,41.5248,153.964,99.6406,99.9195,0.00266031,0.222824,20.7614,183.836,-0.0249746,0.0,0.0
1586,396.25,37.6045,40.8209,152.694,99.7569,100.354,0.00274412,0.219906,20.764,183.726,-0.0533522,0.0,0.0
1599,399.5,37.4054,40.9141,152.33,99.8512,101.019,0.002863,0.217302,20.767,183.416,-0.103935,0.0,0.0
1612,402.75,37.4365,40.6443,155.067,99.9318,100.047,0.00283502,0.215863,20.7694,183.096,-0.0103029,0.0,0.0
1625,406,36.8032,40.6833,152.514,100.063,100.314,0.00291738,0.214154,20.77,182.925,-0.0224269,0.0,0.0
1638,409.25,36.9417,40.4068,154.095,100.166,100.083,0.00307164,0.21136,20.7723,182.645,0.0073381,0.0,0.0
1651,412.5,36.758,40.2865,155.596,100.26,100.417,0.00310419,0.211465,20.7759,182.365,-0.0140211,0.0,0.0
1664,415.75,37.0986,39.9214,154.909,100.32,100.167,0.00317936,0.210017,20.777,181.995,0.0136918,0.0,0.0
1677,419,36.7197,39.9805,148.161,100.372,100.203,0.00313461,0.207104,20.7769,181.854,0.0150466,0.0,0.0
1690,422.25,36.5503,40.5553,151.8,100.397,100.526,0.0031767,0.204625,20.7792,181.584,-0.01154,0.0,0.0
1703,425.5,36.7207,39.9472,149.663,100.385,100.394,0.0031687,0.205446,20.7831,181.194,-0.000859096,0.0,0.0
1716,428.75,36.6822,40.2337,153.256,100.352,100.223,0.00305869,0.204762,20.7829,181.074,0.0114825,0.0,0.0
1729,432,36.6265,39.9279,153.56,100.279,100.388,0.00289344,0.204145,20.7826,180.793,-0.00972278,0.0,0.0
1742,435.25,36.3612,39.3163,153.674,100.197,100.732,0.00291754,0.203069,20.7846,180.553,-0.0475383,0.0,0.0
1755,438.5,36.6002,39.4949,151.685,100.123,100.898,0.00291664,0.202112,20.7875,180.293,-0.0688736,0.0,0.0
1768,441.75,36.372,39.5531,153.289,100.033,100.214,0.0028488,0.200528,20.7896,180.053,-0.0161358,0.0,0.0
1781,445,35.9817,39.6879,154.043,99.9045,99.8416,0.00276797,0.201017,20.7912,179.793,0.00562975,0.0,0.0
1794,448.25,36.4032,39.4344,154.468,99.8346,100.109,0.00287904,0.202261,20.7912,179.482,-0.0245447,0.0,0.0
1807,451.5,36.9327,40.4905,151.469,99.7854,100.139,0.00293722,0.202047,20.7882,179.282,-0.0316365,0.0,0.0
1820,454.75,36.7461,39.8468,152.336,99.7333,99.7059,0.00308634,0.202287,20.7873,179.002,0.00245806,0.0,0.0
1833,458,36.3131,39.7609,152.778,99.7382,99.8363,0.00314617,0.20271,20.7861,178.611,-0.0087882,0.0,0.0
1846,461.25,36.265,40.0077,155.828,99.9062,99.6763,0.00318299,0.202265,20.7868,178.511,0.0205851,0.0,0.0
1859,464.5,36.8,39.7464,153.713,100.089,99.9983,0.00321545,0.202383,20.7876,178.251,0.0081118,0.0,0.0
1872,467.75,36.2633,39.9744,150.902,100.258,100.626,0.00304116,0.203071,20.7861,177.961,-0.0328001,0.0,0.0
1885,471,36.2611,39.7957,149.383,100.383,100.745,0.00269811,0.202474,20.7857,177.591,-0.0321234,0.0,0.0
1898,474.25,36.0584,39.3331,147.577,100.473,100.388,0.00278598,0.20169,20.7868,177.39,0.00758714,0.0,0.0
1911,477.5,36.1485,39.8271,153.019,100.509,100.551,0.00301524,0.20179,20.7876,177.13,-0.00376402,0.0,0.0
1924,480.75,35.7359,39.3741,152.213,100.488,100.939,0.00315882,0.202066,20.7884,176.86,-0.0400156,0.0,0.0
1937,484,36.3322,39.4115,153.245,100.422,100.7,0.00314778,0.201519,20.789,176.76,-0.0246649,0.0,0.0
1950,487.25,36.0629,39.8496,152.092,100.292,100.146,0.00316993,0.201947,20.7876,176.46,0.0129834,0.0,0.0
1963,490.5,36.3646,39.7851,155.714,100.101,99.7728,0.00309132,0.203965,20.7871,176.189,0.0293407,0.0,0.0
1976,493.75,36.2348,39.8968,153.684,100.137,99.866,0.00288592,0.202993,20.7852,175.899,0.0242305,0.0,0.0
1989,497,36.5035,39.8623,151.978,100.229,99.9582,0.00266379,0.202754,20.7864,175.729,0.0241434,0.0,0.0
2002,500.25,35.9151,39.8398,148.902,100.376,101.089,0.00276961,0.203161,20.7863,175.469,-0.0632443,0.0,0.0
2015,503.5,36.6752,40.08,152.018,100.516,100.564,0.00261017,0.202766,20.7861,175.108,-0.00429631,0.0,0.0
2028,506.75,36.513,39.9749,153.425,100.671,101.015,0.00252631,0.203376,20.7863,174.978,-0.0304874,0.0,0.0
2041,510,36.5355,40.2562,156.481,100.767,100.782,0.00254586,0.203676,20.787,174.738,-0.00131664,0.0,0.0
2054,513.25,35.8622,40.0969,154.914,100.842,100.544,0.0025816,0.203629,20.7873,174.388,0.0264398,0.0,0.0
2067,516.5,36.4594,39.7164,153.344,100.931,101.271,0.00262059,0.204336,20.7873,174.137,-0.0300733,0.0,0.0
2080,519.75,35.7647,39.7457,149.784,100.953,100.97,0.00273081,0.203966,20.7867,173.907,-0.00149828,0.0,0.0
2093,523,35.6258,39.4681,154.164,100.986,100.473,0.00264825,0.202559,20.7862,173.807,0.0455463,0.0,0.0
2106,526.25,36.6993,39.7357,153.825,100.963,100.895,0.00262079,0.201569,20.7879,173.527,0.00597038,0.0,0.0
2119,529.5,36.3799,39.8782,153.847,100.963,101.247,0.00285541,0.200877,20.7886,173.197,-0.025121,0.0,0.0
2132,532.75,36.2358,39.6118,152.622,100.941,101.109,0.00311586,0.201386,20.7878,173.016,-0.0148682,0.0,0.0
2145,536,36.3069,40.1751,153.913,100.899,100.776,0.00309674,0.204095,20.7875,172.676,0.0108623,0.0,0.0
2158,539.25,36.4907,39.9826,152.562,100.89,100.932,0.00301219,0.202928,20.7857,172.486,-0.00368943,0.0,0.0
2171,542.5,36.1432,39.5931,151.475,100.878,101.603,0.00282115,0.201678,20.7869,172.226,-0.0640145,0.0,0.0
2184,545.75,36.0965,39.7153,148.99,100.862,100.732,0.00266242,0.201452,20.7879,171.975,0.0115262,0.0,0.0
2197,549,36.428,39.6657,153.234,100.859,100.847,0.0026801,0.200146,20.7883,171.775,0.00106404,0.0,0.0
2210,552.25,36.0431,39.9075,150.473,100.857,100.637,0.00259166,0.200238,20.7904,171.545,0.0195319,0.0,0.0
2223,555.5,35.8212,39.5549,152.491,100.874,100.557,0.00260136,0.200824,20.7909,171.335,0.0281686,0.0,0.0
2236,558.75,36.2425,39.7923,148.518,100.871,101.085,0.00261271,0.199697,20.791,171.005,-0.0189934,0.0,0.0
2249,562,36.6037,39.2391,153.797,100.896,101.099,0.0027863,0.198722,20.791,170.945,-0.0179789,0.0,0.0
2262,565.25,36.642,39.4017,150.324,100.91,100.892,0.00278539,0.199398,20.7916,170.614,0.00158802,0.0,0.0
2275,568.5,36.3172,39.9102,150.312,100.915,101.061,0.00249822,0.197373,20.7918,170.304,-0.0129074,0.0,0.0
2288,571.75,36.4427,39.5398,153.835,100.927,101.119,0.00249016,0.196472,20.7936,170.134,-0.0170221,0.0,0.0
2301,575,36.5203,39.538,149.16,100.954,101.565,0.00288433,0.197351,20.7941,169.934,-0.0539126,0.0,0.0
2314,578.25,36.2263,39.7911,149.671,100.936,100.897,0.00287118,0.195768,20.7937,169.733,0.00350477,0.0,0.0
2327,581.5,36.564,39.7969,150.905,100.941,101.041,0.00271656,0.19628,20.7936,169.363,-0.00887669,0.0,0.0
2340,584.75,36.5188,39.5053,156.986,100.895,100.804,0.00292284,0.197027,20.7936,169.203,0.00800219,0.0,0.0
2353,588,36.1837,39.4044,153.187,100.852,101.134,0.00308595,0.196688,20.792,169.033,-0.0249159,0.0,0.0
2366,591.25,36.1903,38.7685,154.632,100.794,100.956,0.00284942,0.195742,20.7929,168.702,-0.0143145,0.0,0.0
2379,594.5,36.3629,39.4753,156.476,100.744,100.844,0.00280974,0.194392,20.7952,168.522,-0.00884791,0.0,0.0
2392,597.75,36.5069,39.4591,152.756,100.69,100.642,0.00267738,0.196476,20.7953,168.282,0.00432352,0.0,0.0
2405,601,36.3454,39.5483,149.944,100.575,100.809,0.00252684,0.195623,20.7955,168.062,-0.0207677,0.0,0.0
2418,604.25,36.2683,38.944,151.397,100.5,100.772,0.00267216,0.192978,20.7956,167.832,-0.0241629,0.0,0.0
2431,607.5,36.4527,39.3301,151.49,100.401,101.029,0.00274685,0.193414,20.7991,167.652,-0.0556344,0.0,0.0
2444,610.75,36.2909,39.8009,144.307,100.326,100.961,0.00277226,0.194954,20.7989,167.431,-0.0563289,0.0,0.0
2457,614,36.2582,39.0209,155.735,100.234,100.601,0.00266903,0.195924,20.7971,167.131,-0.0326173,0.0,0.0
2470,617.25,36.5096,39.4199,153.6,100.152,100.319,0.00268703,0.195496,20.7962,166.981,-0.0149029,0.0,0.0
2483,620.5,36.4015,39.875,154.349,100.089,100.084,0.00263386,0.195465,20.7947,166.731,0.000429251,0.0,0.0
2496,623.75,36.4126,39.6691,148.599,100.048,100.316,0.00240517,0.195289,20.7945,166.45,-0.0238259,0.0,0.0
2509,627,36.548,39.3413,151.77,100.213,100.429,0.00237273,0.194816,20.7938,166.26,-0.0192101,0.0,0.0
2522,630.25,36.5506,39.3932,153.779,100.329,100.394,0.00251903,0.195153,20.7932,166.08,-0.00578358,0.0,0.0
2535,633.5,36.3604,39.5329,151.478,100.429,100.452,0.00253481,0.195164,20.7931,165.87,-0.0020592,0.0,0.0
2548,636.75,35.786,39.5503,153.772,100.46,100.631,0.00253675,0.195308,20.793,165.54,-0.0151926,0.0,0.0
2561,640,36.5088,39.416,153.913,100.47,100.828,0.00262774,0.195851,20.7925,165.39,-0.0317941,0.0,0.0
2574,643.25,36.3366,39.1094,150.17,100.434,100.333,0.00264629,0.195419,20.7924,165.189,0.00904399,0.0,0.0
2587,646.5,36.4276,39.5564,151.575,100.352,100.338,0.00269655,0.194882,20.7929,164.929,0.00127065,0.0,0.0
2600,649.75,36.045,39.0464,151.311,100.239,100.262,0.00268388,0.193574,20.7946,164.729,-0.00207625,0.0,0.0
2613,653,36.188,39.1574,147.902,100.129,100.013,0.00263706,0.193892,20.7953,164.489,0.0103878,0.0,0.0
2626,656.25,36.2771,39.116,151.841,100.001,99.8684,0.00274671,0.194099,20.7955,164.289,0.0118506,0.0,0.0
2639,659.5,36.51,39.4127,158.409,99.8769,100.627,0.00279299,0.193961,20.796,163.978,-0.0668741,0.0,0.0
2652,662.75,36.2287,39.2938,152.849,99.7622,100.346,0.00281134,0.193668,20.7963,163.838,-0.0521131,0.0,0.0
2665,666,35.9293,39.4492,154.078,99.687,99.5898,0.00265271,0.193661,20.7964,163.608,0.00871518,0.0,0.0
2678,669.25,36.0766,38.9415,152.396,99.6918,99.7183,0.00242486,0.192656,20.7969,163.318,-0.00237297,0.0,0.0
2691,672.5,35.8192,39.0908,151.883,99.7142,100.137,0.00239618,0.192962,20.7996,163.168,-0.0377978,0.0,0.0
2704,675.75,35.9964,38.4778,151.666,99.7296,99.8798,0.002291,0.192701,20.7988,162.957,-0.013445,0.0,0.0
2717,679,35.8278,38.6798,151.759,99.7357,99.6342,0.00226195,0.191808,20.7995,162.697,0.00910145,0.0,0.0
2730,682.25,35.7408,38.9735,156.402,99.7597,99.9319,0.0024006,0.192697,20.801,162.487,-0.015407,0.0,0.0
2743,685.5,36.2755,38.1689,150.892,99.7723,99.7886,0.00262009,0.193264,20.7996,162.307,-0.00145087,0.0,0.0
2756,688.75,35.3406,38.7513,151.633,99.7841,99.5033,0.0027418,0.194398,20.7992,162.066,0.0251865,0.0,0.0
2769,692,35.3859,38.0277,153.475,99.7711,99.3102,0.00278058,0.193392,20.799,161.706,0.041373,0.0,0.0
2782,695.25,34.9753,38.6586,157.55,99.7805,99.9028,0.00280873,0.192707,20.7979,161.566,-0.0109422,0.0,0.0
2795,698.5,35.5995,38.3637,150.141,99.7825,99.746,0.00278356,0.193496,20.7983,161.326,0.00326839,0.0,0.0
2808,701.75,35.8078,38.8308,151.564,99.7634,99.4407,0.00267892,0.193427,20.7978,161.046,0.0289521,0.0,0.0
2821,705,35.6994,38.922,149.304,99.7589,99.7436,0.00264054,0.194783,20.7977,160.945,0.0013697,0.0,0.0
2834,708.25,35.8448,38.1034,154.638,99.7585,99.9109,0.00259671,0.19476,20.796,160.705,-0.013636,0.0,0.0
2847,711.5,35.34,38.61,151.581,99.7272,100.254,0.00278897,0.194534,20.7954,160.485,-0.0471148,0.0,0.0
2860,714.75,35.7044,38.3215,149.344,99.7097,99.6748,0.00292489,0.195511,20.7953,160.245,0.00312891,0.0,0.0
2873,718,35.6594,38.2226,156.071,99.6947,99.6409,0.00274363,0.194451,20.7952,160.095,0.00482176,0.0,0.0
2886,721.25,35.369,38.6178,155.247,99.6841,99.9228,0.00256055,0.195088,20.7963,159.844,-0.021373,0.0,0.0
2899,724.5,35.5329,38.8756,148.427,99.7565,99.9582,0.00247377,0.195733,20.7955,159.524,-0.0180483,0.0,0.0
2912,727.75,35.9581,39.1963,152.016,99.8199,99.5066,0.00241122,0.196604,20.7953,159.394,0.02809,0.0,0.0
2925,731,36.0811,38.9865,150.946,99.8968,99.8526,0.00241844,0.197174,20.794,159.194,0.00395514,0.0,0.0
2938,734.25,35.4148,39.1536,153.883,99.992,100.136,0.00246875,0.197504,20.7931,158.984,-0.0128578,0.0,0.0
2951,737.5,35.9643,39.4347,150.45,100.108,100.06,0.00247065,0.197333,20.7929,158.713,0.00431181,0.0,0.0
2964,740.75,35.8572,39.0462,156.651,100.215,99.8879,0.00243998,0.197362,20.7951,158.513,0.0291921,0.0,0.0
2977,744,35.9005,39.6617,147.328,100.321,100.389,0.00243124,0.198921,20.7962,158.333,-0.00599836,0.0,0.0
2990,747.25,36.2231,39.3093,154.418,100.368,100.386,0.00227181,0.198944,20.7952,158.033,-0.00157818,0.0,0.0
3003,750.5,36.4721,39.7176,151.788,100.423,100.954,0.00228542,0.197556,20.7947,157.833,-0.0471212,0.0,0.0
3016,753.75,35.8511,39.3517,151.27,100.47,100.857,0.0022759,0.199138,20.7961,157.643,-0.0343712,0.0,0.0
3029,757,36.3794,39.5609,152.301,100.481,100.437,0.00222501,0.199505,20.7949,157.332,0.00393811,0.0,0.0
3042,760.25,36.1553,39.5247,151.324,100.485,100.648,0.0023854,0.199007,20.7944,157.182,-0.0144772,0.0,0.0
3055,763.5,36.571,39.3148,151.789,100.475,100.841,0.00250212,0.199227,20.7948,157.002,-0.032497,0.0,0.0
3068,766.75,36.6472,40.0286,152.411,100.453,100.393,0.00254571,0.200376,20.7937,156.772,0.00534766,0.0,0.0
3081,770,36.2237,39.557,153.194,100.386,100.76,0.00265845,0.200285,20.7914,156.471,-0.0333052,0.0,0.0
3094,773.25,36.1521,40.0859,149.351,100.331,100.483,0.00267578,0.199091,20.7903,156.351,-0.0135394,0.0,0.0
3107,776.5,36.8565,40.1505,148.41,100.27,100.271,0.00250448,0.199237,20.7912,156.081,-8.68113e-05,0.0,0.0
3120,779.75,36.9804,39.7381,155.525,100.161,100.43,0.00234949,0.201348,20.7909,155.751,-0.0239802,0.0,0.0
3133,783,36.6226,40.0533,151.158,100.051,100.278,0.00253263,0.201539,20.7902,155.671,-0.0202088,0.0,0.0
3146,786.25,36.6974,39.9784,151.737,100.095,100.187,0.00276677,0.20222,20.7888,155.481,-0.00822952,0.0,0.0
3159,789.5,36.1516,40.2451,148.357,100.151,100.127,0.00259542,0.202084,20.788,155.17,0.00218651,0.0,0.0
3172,792.75,36.5707,40.2033,145.885,100.221,100.266,0.00240309,0.203509,20.7878,155.01,-0.0040544,0.0,0.0
3185,796,36.9996,40.456,151.416,100.31,100.939,0.00257115,0.204402,20.7875,154.74,-0.0557962,0.0,0.0
3198,799.25,36.9122,40.0981,149.776,100.38,100.534,0.00250405,0.206107,20.7859,154.55,-0.0136616,0.0,0.0
3211,802.5,36.5238,40.3288,149.37,100.447,100.338,0.002413,0.205865,20.7843,154.219,0.00966114,0.0,0.0
3224,805.75,36.8743,40.6915,147.104,100.539,100.722,0.00221819,0.20441,20.7838,154.109,-0.016314,0.0,0.0
3237,809,36.8566,40.7594,150.146,100.627,100.5,0.0021455,0.204954,20.785,153.889,0.0112591,0.0,0.0
3250,812.25,36.3538,40.2579,152.359,100.706,100.603,0.00248667,0.207459,20.7849,153.629,0.00920361,0.0,0.0
3263,815.5,36.4583,40.2783,153.517,100.8,100.722,0.00267563,0.208247,20.7816,153.409,0.00685916,0.0,0.0
3276,818.75,37.5803,40.5832,150.914,100.863,100.828,0.00279217,0.208075,20.7796,153.168,0.00308205,0.0,0.0
3289,822,37.0778,40.7177,150.264,100.902,101.175,0.00265529,0.209174,20.7796,152.928,-0.0241511,0.0,0.0
3302,825.25,37.3388,40.5458,146.619,100.937,101.213,0.00224868,0.210273,20.7804,152.668,-0.0243877,0.0,0.0
3315,828.5,37.1889,40.788,150.793,100.961,101.654,0.0022306,0.210034,20.7793,152.518,-0.0610449,0.0,0.0
3328,831.75,37.748,41.162,151.944,100.972,100.892,0.00250711,0.211632,20.779,152.268,0.00713056,0.0,0.0
3341,835,37.3533,40.9047,152.465,100.947,101.397,0.00231827,0.212796,20.7806,151.967,-0.0397989,0.0,0.0
3354,838.25,37.2089,40.7697,154.22,100.929,101.01,0.0020899,0.213759,20.778,151.827,-0.00720928,0.0,0.0
3367,841.5,37.4159,40.7786,149.465,100.888,101.154,0.00189969,0.214146,20.7771,151.637,-0.0235189,0.0,0.0
3380,844.75,37.6263,41.1678,151.908,100.789,101.085,0.00209311,0.212855,20.7769,151.407,-0.0262004,0.0,0.0
3393,848,37.8584,41.4333,151.401,100.724,100.458,0.00234762,0.212682,20.7777,151.207,0.02366,0.0,0.0
3406,851.25,38.0543,41.9487,149.054,100.62,100.806,0.00231243,0.221196,20.7766,150.966,-0.0165461,0.0,0.0
3419,854.5,38.1506,42.0609,145.523,100.48,100.466,0.00233305,0.223527,20.7683,150.696,0.00123657,0.0,0.0
3432,857.75,38.2195,42.0564,150.084,100.343,100.392,0.00224985,0.222384,20.7654,150.426,-0.00429737,0.0,0.0
3445,861,38.563,42.2822,145.833,100.204,100.579,0.00209939,0.22254,20.7678,150.286,-0.0334261,0.0,0.0
3458,864.25,38.3792,42.2169,148.677,100.064,99.8645,0.00211611,0.221954,20.7689,150.056,0.0178237,0.0,0.0
3471,867.5,38.5022,42.2499,149.291,99.9041,100.144,0.00208325,0.223436,20.7683,149.745,-0.0213928,0.0,0.0
3484,870.75,38.8595,43.2433,147.585,99.7707,99.7193,0.00214869,0.225753,20.7671,149.585,0.00460991,0.0,0.0
3497,874,38.9906,43.0608,152.104,99.6361,99.4082,0.0022081,0.225768,20.7645,149.335,0.0204639,0.0,0.0
3510,877.25,39.3374,43.3165,145.687,99.4995,99.6242,0.00196375,0.227401,20.7633,149.095,-0.0111918,0.0,0.0
3523,880.5,38.8881,43.2285,149.108,99.4023,99.0603,0.00180316,0.228689,20.7626,148.835,0.0307919,0.0,0.0
3536,883.75,39.0485,42.9184,150.016,99.314,99.6557,0.00181506,0.228602,20.7613,148.644,-0.0306889,0.0,0.0
3549,887,39.421,43.4492,150.33,99.2648,99.0508,0.0018237,0.229344,20.7604,148.364,0.0192895,0.0,0.0
3562,890.25,39.4083,43.9063,144.437,99.2091,98.9609,0.00181611,0.229676,20.759,147.984,0.0223809,0.0,0.0
3575,893.5,39.3737,43.7854,148.277,99.1827,99.1889,0.00175588,0.230412,20.7587,147.834,-0.000557631,0.0,0.0
3588,896.75,39.4179,44.135,146.46,99.1778,99.5052,0.0015776,0.232363,20.7586,147.543,-0.0294481,0.0,0.0
3601,900,39.4065,43.5988,150.039,99.1851,99.4517,0.00163804,0.235018,20.7553,147.323,-0.0239813,0.0,0.0
3614,903.25,39.8165,44.3011,150.308,99.2176,99.0985,0.00192724,0.23668,20.7527,147.103,0.0107325,0.0,0.0
3627,906.5,39.583,44.1743,151.216,99.2429,99.1478,0.00203321,0.23668,20.75,146.923,0.0085662,0.0,0.0
3640,909.75,39.8521,44.5198,147.065,99.2937,98.9198,0.00207319,0.23791,20.7504,146.613,0.0337063,0.0,0.0
3653,913,40.2673,44.54,146.44,99.3518,99.4741,0.0020364,0.241692,20.749,146.272,-0.0109907,0.0,0.0
3666,916.25,40.1207,44.9691,149.651,99.4287,99.2099,0.00197171,0.242696,20.7448,146.142,0.019687,0.0,0.0
3679,919.5,40.3492,44.6941,149.512,99.5145,99.2887,0.00196671,0.242464,20.7439,145.862,0.020296,0.0,0.0
3692,922.75,40.032,45.1035,151.018,99.5816,99.7876,0.00186912,0.243868,20.7434,145.582,-0.0184629,0.0,0.0
3705,926,40.4908,45.0523,145.077,99.6914,99.5558,0.00207496,0.24611,20.7429,145.311,0.0121602,0.0,0.0
3718,929.25,40.4097,45.3021,145.483,99.7768,99.865,0.00222971,0.247183,20.7407,145.071,-0.00789316,0.0,0.0
3731,932.5,40.8401,45.7145,147.859,99.8647,99.6677,0.00199696,0.250495,20.7373,144.801,0.0176451,0.0,0.0
3744,935.75,41.005,45.6241,147.406,99.9671,99.8058,0.00192628,0.25367,20.7352,144.461,0.0144373,0.0,0.0
3757,939,40.7128,45.5401,151.904,100.097,100.007,0.00209009,0.256212,20.7308,144.32,0.00799048,0.0,0.0
3770,942.25,40.9064,45.2058,146.895,100.179,100.138,0.00221347,0.25911,20.7274,143.96,0.00363041,0.0,0.0
3783,945.5,41.4361,45.586,149.512,100.234,100.043,0.00204649,0.25932,20.7248,143.64,0.0169786,0.0,0.0
3796,948.75,41.4267,46.001,149.048,100.279,100.142,0.00197473,0.26112,20.7238,143.37,0.0122506,0.0,0.0
3809,952,41.2673,45.6442,146.157,100.327,100.251,0.00213822,0.265667,20.7234,143.219,0.00673037,0.0,0.0
3822,955.25,41.2374,46.7114,145.73,100.344,100.546,0.00223114,0.267123,20.7197,142.909,-0.0179944,0.0,0.0
3835,958.5,41.7201,46.8036,144.001,100.367,100.16,0.00221695,0.264666,20.7178,142.689,0.0184541,0.0,0.0
3848,961.75,42.0691,47.1731,148.149,100.39,99.7637,0.00213717,0.272938,20.7189,142.429,0.0558908,0.0,0.0
3861,965,41.1883,47.4549,145.429,100.385,99.6165,0.00222745,0.278863,20.7091,142.128,0.0686845,0.0,0.0
3874,968.25,42.0646,47.5312,143.283,100.382,100.07,0.00231969,0.280461,20.7042,141.778,0.0278182,0.0,0.0
3887,971.5,42.7296,47.7491,144.04,100.388,99.542,0.00228526,0.279872,20.7014,141.428,0.0756263,0.0,0.0
3900,974.75,42.8617,47.9044,148.473,100.38,100.004,0.0023482,0.281135,20.6991,141.168,0.0335991,0.0,0.0
3913,978,42.7863,48.0479,143.515,100.372,99.983,0.00232912,0.28637,20.6968,140.817,0.0347112,0.0,0.0
3926,981.25,42.8846,48.07,148.418,100.374,100.11,0.00246679,0.287435,20.6914,140.607,0.0235474,0.0,0.0
3939,984.5,43.4219,48.5586,144.114,100.382,100.525,0.00250893,0.288867,20.6894,140.357,-0.0126797,0.0,0.0
3952,987.75,43.6175,49.2214,147.751,100.372,99.6758,0.00233426,0.292703,20.687,139.977,0.0622122,0.0,0.0
3965,991,43.8445,48.9647,145.555,100.369,99.8765,0.002141,0.29406,20.6827,139.666,0.0439862,0.0,0.0
3978,994.25,43.9721,49.537,141.957,100.369,99.6509,0.00226997,0.299171,20.6813,139.456,0.0641149,0.0,0.0
3991,997.5,44.0995,49.7958,148.264,100.358,99.6471,0.00254283,0.301859,20.6774,139.116,0.0635523,0.0,0.0
4004,1000.75,44.4866,49.6856,144.587,100.343,99.5888,0.00247402,0.303568,20.674,138.705,0.0673695,0.0,0.0
4017,1004,44.2936,50.3288,146.173,100.347,99.7747,0.00244496,0.305931,20.6719,138.505,0.051068,0.0,0.0
4030,1007.25,44.5722,50.4398,148.545,100.328,98.9332,0.00243436,0.306664,20.668,138.185,0.125118,0.0,0.0
4043,1010.5,44.998,51.0982,144.08,100.289,99.6036,0.0024939,0.308427,20.667,137.845,0.061294,0.0,0.0
4056,1013.75,45.1876,51.3699,144.337,100.263,98.6121,0.0024909,0.316001,20.6659,137.554,0.14837,0.0,0.0
4069,1017,45.6857,52.0122,144.353,100.227,99.1057,0.0023564,0.317743,20.6595,137.254,0.100492,0.0,0.0
4082,1020.25,45.7559,52.1473,147.023,100.172,98.9088,0.00217949,0.319158,20.6554,136.934,0.113401,0.0,0.0
4095,1023.5,45.7811,52.1055,152.105,100.116,99.0173,0.00241649,0.322011,20.6529,136.503,0.0985995,0.0,0.0
4108,1026.75,46.3168,52.802,146.281,100.056,98.9471,0.00259279,0.323288,20.6487,136.273,0.0995665,0.0,0.0
4121,1030,46.4633,53.4145,141.099,99.9427,98.5576,0.00257121,0.327044,20.6472,135.953,0.124702,0.0,0.0
4134,1033.25,46.561,53.1856,147.488,99.8297,98.808,0.00270216,0.328505,20.644,135.533,0.0919179,0.0,0.0
4147,1036.5,47.2316,53.48,140.929,99.7463,98.7999,0.00283614,0.330241,20.6412,135.302,0.0851871,0.0,0.0
4160,1039.75,47.3245,53.6377,147.36,99.6479,98.6575,0.00301519,0.332436,20.6383,134.942,0.0892534,0.0,0.0
4173,1043,47.4978,53.7466,142.338,99.554,98.3598,0.00301863,0.33404,20.6368,134.612,0.107829,0.0,0.0
4186,1046.25,47.83,54.1337,145.123,99.4499,98.0735,0.00276975,0.336185,20.6347,134.211,0.124521,0.0,0.0
4199,1049.5,47.9724,53.9689,141.013,99.388,96.9358,0.0028564,0.338732,20.6325,133.921,0.22323,0.0,0.0
4212,1052.75,48.375,54.2207,142.702,99.2969,97.7362,0.00291025,0.337858,20.63,133.571,0.141561,0.0,0.0
4225,1056,48.4063,54.709,141.681,99.227,97.5823,0.00279894,0.338488,20.6294,133.13,0.149342,0.0,0.0
4238,1059.25,48.4083,54.7638,141.264,99.1802,97.308,0.00268322,0.34181,20.6287,132.86,0.17028,0.0,0.0
4251,1062.5,48.5224,55.3182,145.962,99.1538,97.5035,0.00263677,0.341971,20.6255,132.52,0.149971,0.0,0.0
4264,1065.75,48.5223,54.7502,144.901,99.1355,97.4906,0.00268567,0.344759,20.6247,132.149,0.149503,0.0,0.0
4277,1069,48.6438,55.0045,146.403,99.1481,97.665,0.00278717,0.345272,20.6197,131.859,0.134668,0.0,0.0
4290,1072.25,48.7991,55.3851,144.307,99.1627,97.8671,0.00289646,0.343942,20.6183,131.479,0.117514,0.0,0.0
4303,1075.5,49.3388,55.5973,144.972,99.2205,97.3171,0.00287742,0.345807,20.6193,131.189,0.173072,0.0,0.0
4316,1078.75,49.7482,55.7819,145.811,99.2681,97.6162,0.00288674,0.348112,20.6176,130.758,0.149934,0.0,0.0
4329,1082,49.4668,55.5897,138.954,99.3457,97.0514,0.00312647,0.349578,20.6156,130.478,0.208774,0.0,0.0
4342,1085.25,49.5301,55.5831,147.835,99.4259,98.419,0.00324317,0.34916,20.6151,130.118,0.0909438,0.0,0.0
4355,1088.5,49.1769,55.8614,143.812,99.5109,97.675,0.00296288,0.351274,20.6148,129.677,0.166383,0.0,0.0
4368,1091.75,49.7204,56.0651,146.003,99.6284,98.4152,0.00314729,0.348257,20.6139,129.427,0.109473,0.0,0.0
4381,1095,49.4895,55.5814,142.415,99.763,97.8375,0.00324375,0.350549,20.614,129.057,0.174143,0.0,0.0
4394,1098.25,49.6221,55.4292,141.048,99.8805,98.5829,0.00310751,0.351629,20.6121,128.696,0.116843,0.0,0.0
4407,1101.5,49.8355,55.6509,150.405,99.9981,98.3388,0.00286067,0.35146,20.6099,128.326,0.14951,0.0,0.0
4420,1104.75,49.6577,55.678,147.354,100.148,98.7072,0.00260907,0.350162,20.6104,128.036,0.129496,0.0,0.0
4433,1108,49.9634,55.6498,142.791,100.263,98.4988,0.00264153,0.349996,20.6107,127.635,0.158638,0.0,0.0
4446,1111.25,49.8883,56.1144,150.195,100.351,98.6861,0.00272883,0.351409,20.6108,127.135,0.149522,0.0,0.0
4459,1114.5,50.0271,55.9955,138.679,100.473,99.0015,0.00281009,0.356498,20.61,126.945,0.131797,0.0,0.0
4472,1117.75,50.2731,56.0899,142.472,100.549,99.2596,0.00263646,0.358032,20.6047,126.564,0.115299,0.0,0.0
4485,1121,50.4398,55.3027,144.008,100.619,98.3536,0.00233113,0.360607,20.6016,126.254,0.203517,0.0,0.0
4498,1124.25,50.1626,55.5822,141.578,100.673,98.3368,0.00253368,0.36077,20.5986,125.874,0.209767,0.0,0.0
4511,1127.5,50.3183,56.4173,141.17,100.728,98.8309,0.00278872,0.358128,20.5978,125.553,0.169855,0.0,0.0
4524,1130.75,50.3421,55.7921,139.591,100.735,99.5582,0.0028382,0.354834,20.6011,125.123,0.104955,0.0,0.0
4537,1134,50.5455,56.432,147.005,100.75,98.2733,0.0027972,0.357734,20.6052,124.783,0.222399,0.0,0.0
4550,1137.25,50.9551,57.1073,146.276,100.771,98.3196,0.0026993,0.360416,20.6016,124.493,0.220024,0.0,0.0
4563,1140.5,50.8423,56.8267,143.912,100.787,99.1057,0.00277226,0.363991,20.5984,124.132,0.150278,0.0,0.0
4576,1143.75,51.2466,56.8869,143.821,100.782,98.5433,0.00274009,0.366125,20.5947,123.672,0.200697,0.0,0.0
4589,1147,51.4498,57.4141,142.309,100.782,98.1514,0.00272928,0.36647,20.5924,123.352,0.236333,0.0,0.0
4602,1150.25,51.3276,57.4828,145.111,100.778,98.2422,0.00298383,0.367515,20.5909,122.991,0.227712,0.0,0.0
4615,1153.5,51.4164,58.0362,145.573,100.76,98.6508,0.00312322,0.369978,20.5892,122.661,0.189007,0.0,0.0
4628,1156.75,51.4522,57.6217,140.401,100.757,98.2647,0.00337878,0.368932,20.5851,122.23,0.223794,0.0,0.0
4641,1160,51.7674,57.7847,142.996,100.733,97.8485,0.00337135,0.36813,20.5852,121.92,0.259591,0.0,0.0
4654,1163.25,51.8742,58.4121,143.839,100.705,98.171,0.00335201,0.370701,20.5868,121.55,0.227733,0.0,0.0
4667,1166.5,51.7499,58.1839,143.681,100.663,97.7758,0.00340729,0.374359,20.5853,121.109,0.26002,0.0,0.0
4680,1169.75,52.0427,58.2228,142.612,100.639,98.1189,0.00340233,0.375013,20.5822,120.809,0.226556,0.0,0.0
4693,1173,52.126,58.4564,139.446,100.578,97.3897,0.00356318,0.374245,20.581,120.429,0.287826,0.0,0.0
4706,1176.25,52.3073,58.9098,140.003,100.526,96.9549,0.00350028,0.375557,20.5796,120.049,0.323223,0.0,0.0
4719,1179.5,52.2646,59.323,139.348,100.473,97.4304,0.0033051,0.377495,20.5783,119.698,0.274739,0.0,0.0
4732,1182.75,52.4537,59.1234,144.674,100.432,97.5737,0.00329434,0.382017,20.5765,119.288,0.257947,0.0,0.0
4745,1186,52.647,58.9341,142.718,100.369,97.5173,0.0032255,0.38134,20.5727,118.958,0.257503,0.0,0.0
4758,1189.25,52.9343,58.9738,143.759,100.294,97.1785,0.00344125,0.381091,20.5713,118.497,0.281971,0.0,0.0
4771,1192.5,52.6674,59.562,140.007,100.222,97.7099,0.00369438,0.380328,20.5709,118.227,0.226796,0.0,0.0
4784,1195.75,53.5167,60.1303,141.658,100.114,96.532,0.00365259,0.381048,20.5708,117.847,0.325552,0.0,0.0
4797,1199,53.6023,60.4106,139.023,99.9879,96.391,0.0035502,0.38473,20.571,117.456,0.327351,0.0,0.0
4810,1202.25,53.648,59.815,149.786,99.8895,97.3979,0.0037043,0.38695,20.5666,117.116,0.225704,0.0,0.0
4823,1205.5,53.3869,59.926,140.908,99.7695,96.0202,0.00375393,0.384732,20.565,116.756,0.342253,0.0,0.0
4836,1208.75,53.2106,60.0776,134.043,99.6564,96.0675,0.0037778,0.381013,20.5652,116.345,0.327721,0.0,0.0
4849,1212,53.2433,59.5525,141.612,99.5649,96.1961,0.00397829,0.381273,20.567,115.865,0.307566,0.0,0.0
4862,1215.25,53.5557,59.3127,141.425,99.4616,96.2204,0.00402378,0.382366,20.5665,115.615,0.296027,0.0,0.0
4875,1218.5,53.039,59.6198,139.879,99.3803,96.7929,0.00396283,0.376992,20.5654,115.294,0.235715,0.0,0.0
4888,1221.75,53.3503,60.0515,145.088,99.2851,95.6169,0.00386829,0.374972,20.5714,114.854,0.336378,0.0,0.0
4901,1225,53.6874,59.3331,140.63,99.2254,95.8085,0.0038512,0.374277,20.5742,114.614,0.313108,0.0,0.0
4914,1228.25,53.5205,59.7893,147.587,99.1774,96.1301,0.00386654,0.373173,20.5757,114.283,0.278843,0.0,0.0
4927,1231.5,53.4408,59.4752,143.054,99.155,96.5248,0.00396558,0.368197,20.5765,113.883,0.240215,0.0,0.0
4940,1234.75,52.8176,57.8419,143.457,99.1497,95.9098,0.00370733,0.365771,20.5806,113.563,0.296852,0.0,0.0
4953,1238,52.617,58.1511,146.447,99.1684,95.668,0.00341892,0.362028,20.5848,113.262,0.321092,0.0,0.0
4966,1241.25,52.7536,57.849,142.638,99.2152,96.2945,0.00324318,0.353911,20.5897,112.972,0.266984,0.0,0.0
4979,1244.5,52.9471,57.6153,141.747,99.2689,96.1488,0.00302378,0.348581,20.5982,112.592,0.285352,0.0,0.0
4992,1247.75,53.1569,57.8847,143.41,99.3624,95.7555,0.00297376,0.354276,20.6041,112.382,0.33039,0.0,0.0
5005,1251,52.6282,57.551,142.938,99.4494,97.146,0.00298393,0.353944,20.5982,112.081,0.209389,0.0,0.0
5018,1254.25,52.2042,56.8168,148.484,99.5491,96.683,0.0028668,0.347238,20.5956,111.711,0.261027,0.0,0.0
5031,1257.5,52.1983,57.0325,147.4,99.6731,97.0724,0.0028444,0.340715,20.604,111.481,0.236233,0.0,0.0
5044,1260.75,52.2607,56.4863,146.805,99.7996,97.2182,0.00297702,0.333301,20.6125,111.241,0.23416,0.0,0.0
5057,1264,51.9903,56.3157,143.973,99.8826,97.6726,0.00294277,0.327699,20.6197,110.99,0.199915,0.0,0.0
5070,1267.25,50.9154,56.4124,145.595,99.996,97.383,0.00281323,0.323051,20.6278,110.66,0.23659,0.0,0.0
5083,1270.5,51.7211,55.7323,146.449,100.088,97.8762,0.0027759,0.316437,20.6327,110.45,0.199629,0.0,0.0
5096,1273.75,50.9442,55.2932,146.749,100.184,97.3099,0.00283723,0.30969,20.6391,110.21,0.260073,0.0,0.0
5109,1277,50.9469,54.5624,143.45,100.242,97.7137,0.00281592,0.305417,20.6461,109.819,0.228259,0.0,0.0
5122,1280.25,50.8454,54.0753,144.514,100.316,97.9933,0.002647,0.296397,20.6524,109.709,0.209292,0.0,0.0
5135,1283.5,50.0322,53.4269,147.931,100.374,98.1175,0.00257492,0.287925,20.6625,109.419,0.20315,0.0,0.0
5148,1286.75,49.9197,52.8884,146.026,100.374,98.1204,0.00261559,0.281769,20.6711,109.329,0.202924,0.0,0.0
5161,1290,49.1886,52.538,144.517,100.384,97.9746,0.00259869,0.275886,20.6783,109.099,0.217111,0.0,0.0
5174,1293.25,49.3056,51.7763,145.585,100.363,98.2489,0.00264348,0.269909,20.6848,108.938,0.190212,0.0,0.0
5187,1296.5,48.791,51.3475,145.172,100.332,97.4557,0.00262503,0.262379,20.6907,108.748,0.259857,0.0,0.0
5200,1299.75,48.1527,50.9107,148.513,100.26,97.8155,0.00259421,0.252921,20.6979,108.388,0.220515,0.0,0.0
5213,1303,47.7367,49.859,154.458,100.168,98.0716,0.00252024,0.243742,20.7108,108.358,0.188954,0.0,0.0
5226,1306.25,47.0394,49.0947,151.903,100.057,98.2317,0.0027282,0.234663,20.7215,108.238,0.164508,0.0,0.0
5239,1309.5,46.6931,48.4503,147.838,99.922,97.8227,0.00286348,0.222653,20.7325,107.998,0.189727,0.0,0.0
5252,1312.75,46.3533,47.7424,149.599,99.8159,97.6516,0.00277662,0.216494,20.7469,107.868,0.19587,0.0,0.0
5265,1316,45.5468,47.0022,151.385,99.7541,98.0224,0.00282795,0.209761,20.7556,107.777,0.15647,0.0,0.0
5278,1319.25,45.069,45.6304,147.317,99.6719,97.9785,0.00305168,0.200983,20.7629,107.687,0.153116,0.0,0.0
5291,1322.5,44.5088,45.7615,148.473,99.8329,99.0613,0.00323761,0.19307,20.7715,107.497,0.0693356,0.0,0.0
5304,1325.75,43.7936,44.6463,151.747,100.027,98.9284,0.0034461,0.185451,20.7786,107.467,0.0986353,0.0,0.0
5317,1329,43.8231,44.0289,155.2,100.224,99.2381,0.00372622,0.17873,20.7885,107.397,0.0883127,0.0,0.0
5330,1332.25,42.759,43.135,152.49,100.353,99.9759,0.00399711,0.173068,20.7957,107.117,0.0336862,0.0,0.0
5343,1335.5,42.1251,42.588,150.205,100.434,99.7045,0.00417833,0.165872,20.8033,107.107,0.0651439,0.0,0.0
5356,1338.75,42.0194,42.2285,156.183,100.453,99.7045,0.00455264,0.157064,20.8114,107.087,0.0668081,0.0,0.0
5369,1342,41.2975,41.3602,155.564,100.392,99.7092,0.00508554,0.149561,20.8233,107.007,0.0609883,0.0,0.0
5382,1345.25,40.7217,40.9639,154.826,100.257,99.8913,0.00545927,0.144663,20.8316,106.877,0.0326631,0.0,0.0
5395,1348.5,40.1944,40.0418,153.525,100.055,99.7006,0.00563501,0.141214,20.8375,106.787,0.0317377,0.0,0.0
5408,1351.75,38.9572,38.9497,155.123,100.1,99.9305,0.00603253,0.137542,20.8434,106.767,0.0151572,0.0,0.0
5421,1355,39.0402,37.3841,156.784,100.208,100.122,0.00627631,0.133431,20.8462,106.606,0.00769144,0.0,0.0
5434,1358.25,38.6932,37.9993,151.274,100.349,100.181,0.00626915,0.129754,20.8511,106.676,0.0150211,0.0,0.0
5447,1361.5,38.0057,37.6039,153.955,100.517,100.656,0.00630992,0.12396,20.8558,106.586,-0.0123778,0.0,0.0
5460,1364.75,37.5242,36.7304,156.325,100.643,100.492,0.00660511,0.121012,20.8634,106.576,0.0134184,0.0,0.0
5473,1368,37.1928,37.0667,151.64,100.774,100.749,0.00670275,0.116627,20.8673,106.496,0.0022568,0.0,0.0
5486,1371.25,37.2066,37.2576,154.288,100.863,100.785,0.00674557,0.116266,20.8744,106.416,0.00685171,0.0,0.0
5499,1374.5,36.8838,36.7487,149.983,100.915,100.536,0.00698629,0.115663,20.8775,106.416,0.033597,0.0,0.0
5512,1377.75,36.4828,36.2471,152.575,100.926,101.012,0.00721272,0.115942,20.8769,106.246,-0.00758826,0.0,0.0
5525,1381,35.7132,35.7853,162.216,100.907,100.768,0.00718085,0.114879,20.8764,106.246,0.0123389,0.0,0.0
5538,1384.25,35.8335,35.2595,152.123,100.844,100.636,0.00703661,0.1147,20.878,106.216,0.0184998,0.0,0.0
5551,1387.5,35.5897,34.8741,157.241,100.73,100.743,0.007197,0.11055,20.8789,106.056,-0.00117229,0.0,0.0
5564,1390.75,34.4983,34.5328,155.146,100.608,100.561,0.00768533,0.111858,20.8826,106.206,0.00416169,0.0,0.0
5577,1394,34.2779,34.5547,155.88,100.438,100.059,0.0082258,0.117986,20.8804,106.116,0.0337509,0.0,0.0
5590,1397.25,34.4404,34.0552,152.482,100.268,99.8784,0.00832787,0.116624,20.8729,106.066,0.0347589,0.0,0.0
5603,1400.5,35.1599,34.617,155.006,100.093,99.9419,0.00814767,0.113615,20.8725,105.956,0.013478,0.0,0.0
5616,1403.75,33.7244,34.1067,154.558,99.9444,99.6165,0.00839886,0.114897,20.8763,105.946,0.0293588,0.0,0.0
5629,1407,34.0951,34.0996,154.233,99.8346,99.5706,0.008419,0.114659,20.8758,105.796,0.0236526,0.0,0.0
5642,1410.25,33.7842,33.5373,156.918,99.6686,99.4564,0.00839397,0.113663,20.8754,105.756,0.019044,0.0,0.0
5655,1413.5,33.3043,33.479,154.958,99.5536,99.3537,0.0085265,0.110709,20.8759,105.816,0.0179555,0.0,0.0
5668,1416.75,33.2453,33.6684,154.745,99.4503,99.5343,0.00844659,0.108005,20.8801,105.676,-0.00755094,0.0,0.0
5681,1420,33.4765,33.2476,156.107,99.397,99.1917,0.00789129,0.105543,20.8846,105.565,0.0184721,0.0,0.0
5694,1423.25,33.3975,32.5689,157.129,99.3254,99.5281,0.00781923,0.106506,20.8886,105.545,-0.0182174,0.0,0.0
5707,1426.5,31.4201,31.2709,155.879,99.3165,99.4364,0.00747237,0.106886,20.8884,105.505,-0.0107822,0.0,0.0
5720,1429.75,30.851,31.0967,157.279,99.2961,99.2476,0.00716922,0.105824,20.8882,105.475,0.00436504,0.0,0.0
5733,1433,30.7178,31.3914,155.396,99.2815,99.0804,0.00760735,0.104424,20.8897,105.415,0.0181182,0.0,0.0
5746,1436.25,31.3305,30.8814,155.353,99.2717,99.2333,0.0078401,0.1033,20.8903,105.495,0.00346005,0.0,0.0
5759,1439.5,30.6479,30.7444,153.225,99.2506,99.3336,0.00777741,0.102619,20.8914,105.465,-0.00747472,0.0,0.0
5772,1442.75,30.7993,30.5958,155.145,99.2506,99.3461,0.00797181,0.101635,20.8935,105.385,-0.00859202,0.0,0.0
5785,1446,30.3233,30.7455,155.895,99.2717,99.1731,0.00850951,0.102216,20.8954,105.385,0.00888331,0.0,0.0
5798,1449.25,30.1443,30.6405,156.436,99.2908,99.4072,0.00902232,0.100436,20.8964,105.295,-0.0104676,0.0,0.0
5811,1452.5,30.2131,30.4965,155.819,99.3266,99.5071,0.00890856,0.0992051,20.8988,105.165,-0.0162196,0.0,0.0
5824,1455.75,29.8749,29.6969,159.373,99.3531,99.401,0.00890849,0.098931,20.9013,105.035,-0.00431123,0.0,0.0
5837,1459,29.0642,30.2381,157.354,99.4088,99.498,0.00909413,0.098875,20.9015,105.165,-0.00801789,0.0,0.0
5850,1462.25,28.9326,29.4761,155.264,99.4621,99.7809,0.00907726,0.0987033,20.9003,105.125,-0.028599,0.0,0.0
5863,1465.5,29.2301,29.9258,156.312,99.5222,99.7809,0.00877843,0.100322,20.8993,104.985,-0.0231931,0.0,0.0
5876,1468.75,28.9568,28.919,154.956,99.5812,99.7513,0.0085289,0.099775,20.899,104.985,-0.0152475,0.0,0.0
5889,1472,29.7453,29.1658,157.555,99.6752,99.3958,0.00840159,0.0997298,20.8986,105.015,0.0250813,0.0,0.0
5902,1475.25,28.964,29.8228,153.005,99.7862,99.8244,0.00825292,0.0977056,20.8982,104.955,-0.0034209,0.0,0.0
5915,1478.5,28.8566,29.0001,153.516,99.9066,99.51,0.00804603,0.0987279,20.8995,104.855,0.0355398,0.0,0.0
5928,1481.75,28.7062,28.9584,156.663,100.022,100.052,0.00832057,0.0990196,20.9004,104.845,-0.00274002,0.0,0.0
5941,1485,28.9172,29.7202,154.766,100.14,100.329,0.00812002,0.0982499,20.9011,104.825,-0.0168129,0.0,0.0
5954,1488.25,28.6414,28.9555,154.591,100.264,100.342,0.00785038,0.0978803,20.9012,104.745,-0.00694331,0.0,0.0
5967,1491.5,28.8065,28.9454,158.512,100.405,100.676,0.0078376,0.0984529,20.9013,104.745,-0.0241431,0.0,0.0
5980,1494.75,27.8268,29.0172,153.839,100.533,100.644,0.00797854,0.0988103,20.9001,104.725,-0.00987154,0.0,0.0
5993,1498,28.3138,29.0327,157.554,100.654,101.054,0.00800833,0.0986473,20.8992,104.645,-0.0354272,0.0,0.0
6006,1501.25,28.4005,28.911,157.89,100.768,100.718,0.00789658,0.0982095,20.899,104.635,0.00442786,0.0,0.0
6019,1504.5,28.3543,28.7742,158.704,100.844,100.794,0.00750138,0.0972351,20.9001,104.605,0.00446831,0.0,0.0
6032,1507.75,28.5152,28.9231,155.638,100.869,101.166,0.00742047,0.0960595,20.901,104.565,-0.0262731,0.0,0.0
6045,1511,28.4755,28.604,156.651,100.87,101.324,0.00728165,0.0954337,20.9032,104.444,-0.0400814,0.0,0.0
6058,1514.25,28.5479,29.1082,154.613,100.863,100.799,0.00712631,0.0956429,20.904,104.464,0.00570107,0.0,0.0
6071,1517.5,28.9353,28.8054,159.193,100.826,100.79,0.00701802,0.0970442,20.904,104.444,0.00322048,0.0,0.0
6084,1520.75,28.357,28.7407,155.338,100.742,100.554,0.00711123,0.0975074,20.9025,104.254,0.016716,0.0,0.0
6097,1524,28.8071,28.8237,155.206,100.667,100.956,0.00760757,0.0975925,20.9021,104.364,-0.0256123,0.0,0.0
6110,1527.25,28.1794,28.8124,158.323,100.548,100.902,0.00776948,0.0974458,20.9005,104.304,-0.0314499,0.0,0.0
6123,1530.5,28.1286,27.6796,154.95,100.427,100.745,0.00768111,0.0975474,20.9015,104.264,-0.0282154,0.0,0.0
6136,1533.75,27.9585,28.4225,155.307,100.321,100.717,0.00759961,0.0980819,20.9014,104.204,-0.0352117,0.0,0.0
6149,1537,28.047,28.9822,153.728,100.214,100.128,0.00751912,0.0977326,20.9011,104.224,0.00768079,0.0,0.0
6162,1540.25,28.0209,29.0317,157.036,100.109,100.306,0.00730199,0.0977122,20.9019,104.194,-0.0175642,0.0,0.0
6175,1543.5,27.8008,28.5913,159.249,100.015,100.025,0.00719407,0.0973413,20.9029,104.034,-0.000888924,0.0,0.0