File: 01_Data/Pressure_Treated_Deck/Cone/Pressure_Treated_Deck_HRRPUA_25.csv
Time after Ignition,Pressure_Treated_Deck_R1,Pressure_Treated_Deck_R2,Pressure_Treated_Deck_R3,Pressure_Treated_Deck_R4,Mean,Std. Dev.
0.0,6.4,2.9,3.7,-1.9,2.8,3.4
1.0,6.2,2.9,3.9,-1.8,2.8,3.4
2.0,6.2,2.9,4.0,-1.8,2.8,3.4
3.0,6.0,2.9,4.1,-1.7,2.8,3.3
4.0,6.2,2.9,4.1,-1.6,2.9,3.3
5.0,6.1,2.8,4.2,-1.2,2.9,3.1
6.0,6.3,2.8,4.2,-0.8,3.1,3.0
7.0,6.6,2.8,4.1,-0.6,3.2,3.0
8.0,6.7,3.3,4.3,-0.4,3.5,3.0
9.0,6.9,3.5,4.8,-0.3,3.7,3.0
10.0,7.4,4.1,5.5,0.0,4.2,3.1
11.0,10.1,5.1,7.9,1.1,6.1,3.9
12.0,19.6,7.7,11.0,3.3,10.4,6.9
13.0,35.8,11.1,18.0,6.8,17.9,12.8
14.0,56.0,17.8,30.1,14.0,29.5,19.0
15.0,78.6,28.6,41.0,24.1,43.1,24.7
16.0,100.6,46.2,59.0,37.4,60.8,28.0
17.0,122.2,64.6,75.7,50.0,78.1,31.2
18.0,141.9,79.2,92.5,62.2,94.0,34.3
19.0,161.4,94.3,104.3,73.5,108.4,37.6
20.0,173.5,104.7,117.8,85.3,120.4,37.9
21.0,187.3,118.2,123.7,95.7,131.2,39.3
22.0,196.4,124.7,130.4,107.1,139.7,39.1
23.0,203.1,131.5,138.6,118.8,148.0,37.6
24.0,214.0,137.4,145.6,133.7,157.7,37.9
25.0,220.0,144.5,151.0,144.2,164.9,36.9
26.0,220.9,148.2,161.1,150.9,170.3,34.2
27.0,228.7,153.5,165.2,163.3,177.7,34.4
28.0,224.3,157.6,168.9,168.4,179.8,30.1
29.0,227.5,161.1,170.2,171.7,182.6,30.2
30.0,224.5,165.8,172.8,179.8,185.7,26.5
31.0,221.4,169.2,175.8,182.1,187.1,23.5
32.0,220.0,171.2,176.9,182.6,187.7,22.0
33.0,218.9,175.6,180.2,182.7,189.4,19.9
34.0,219.1,171.9,182.0,183.3,189.1,20.7
35.0,217.1,173.7,185.9,182.0,189.7,19.0
36.0,205.9,174.6,185.9,187.6,188.5,13.0
37.0,203.8,174.8,187.4,180.7,186.7,12.5
38.0,200.7,173.0,188.7,183.6,186.5,11.5
39.0,194.3,173.8,186.3,183.4,184.4,8.5
40.0,191.7,173.1,186.4,179.6,182.7,8.1
41.0,187.7,174.3,187.9,180.5,182.6,6.5
42.0,185.4,176.7,186.2,179.2,181.9,4.7
43.0,182.4,178.7,182.3,175.9,179.8,3.1
44.0,183.9,175.5,182.6,177.5,179.9,4.0
45.0,178.3,176.0,179.1,175.6,177.3,1.7
46.0,174.1,176.1,180.3,173.8,176.1,3.0
47.0,171.6,177.8,180.5,172.6,175.6,4.3
48.0,169.1,176.9,179.8,168.3,173.5,5.7
49.0,169.3,171.1,177.5,168.1,171.5,4.2
50.0,167.3,172.5,177.7,165.4,170.7,5.5
51.0,165.6,172.6,174.7,167.3,170.1,4.3
52.0,163.9,168.7,173.4,166.1,168.0,4.1
53.0,158.9,169.7,172.1,166.8,166.9,5.8
54.0,156.4,166.9,169.0,164.7,164.3,5.5
55.0,157.0,167.7,167.7,165.6,164.5,5.1
56.0,154.0,166.6,169.1,164.7,163.6,6.6
57.0,153.2,165.7,166.4,162.8,162.0,6.1
58.0,151.1,166.9,162.6,166.0,161.7,7.3
59.0,149.6,167.0,158.2,167.0,160.4,8.4
60.0,147.1,166.9,160.1,166.4,160.1,9.3
61.0,149.9,170.9,158.0,164.9,160.9,9.1
62.0,147.7,164.4,158.1,167.9,159.5,8.9
63.0,146.3,162.5,157.3,168.5,158.7,9.4
64.0,145.8,164.6,155.6,166.3,158.1,9.4
65.0,143.6,166.1,152.5,165.9,157.0,11.0
66.0,140.9,164.4,151.8,165.6,155.7,11.7
67.0,139.8,164.0,152.5,161.8,154.5,11.0
68.0,143.8,164.7,152.2,161.5,155.5,9.5
69.0,141.0,166.7,148.9,160.0,154.2,11.4
70.0,142.2,166.4,150.1,158.5,154.3,10.4
71.0,142.9,165.5,150.6,158.8,154.4,9.8
72.0,141.5,164.2,150.8,158.1,153.7,9.8
73.0,139.9,167.4,146.7,155.1,152.3,11.8
74.0,137.7,163.6,147.1,155.9,151.1,11.2
75.0,136.4,164.0,145.4,151.6,149.3,11.6
76.0,137.8,158.7,144.2,149.1,147.5,8.8
77.0,138.4,156.4,144.7,150.6,147.5,7.7
78.0,136.2,160.3,144.7,149.1,147.6,10.0
79.0,135.4,159.9,141.3,148.8,146.3,10.6
80.0,135.3,157.5,141.4,148.4,145.7,9.5
81.0,131.6,155.3,141.0,148.9,144.2,10.3
82.0,133.6,155.0,140.9,151.0,145.1,9.7
83.0,131.6,153.6,139.5,147.9,143.2,9.6
84.0,130.1,152.6,139.8,148.2,142.7,9.9
85.0,128.8,150.3,135.6,148.0,140.7,10.2
86.0,126.5,151.8,134.9,148.1,140.3,11.7
87.0,126.3,148.3,135.0,146.1,138.9,10.2
88.0,128.0,150.3,135.2,147.8,140.3,10.5
89.0,124.8,148.5,131.1,148.6,138.2,12.2
90.0,125.2,148.0,133.7,147.1,138.5,11.0
91.0,124.5,146.3,136.3,146.2,138.3,10.3
92.0,123.7,144.4,134.0,146.8,137.2,10.6
93.0,121.7,145.2,135.2,149.0,137.8,12.2
94.0,122.5,144.5,132.2,146.1,136.3,11.1
95.0,123.5,143.1,133.0,148.9,137.1,11.2
96.0,122.4,142.7,132.9,144.0,135.5,10.0
97.0,123.9,142.0,131.3,145.8,135.8,10.0
98.0,122.8,140.9,134.0,145.4,135.8,9.8
99.0,122.8,140.6,133.1,144.3,135.2,9.5
100.0,121.6,136.6,130.0,145.6,133.4,10.2
101.0,120.3,139.8,131.8,143.5,133.8,10.3
102.0,121.4,135.6,131.9,142.7,132.9,8.9
103.0,121.7,137.4,130.5,147.6,134.3,10.9
104.0,120.1,138.1,129.8,142.5,132.6,9.9
105.0,120.4,135.7,131.6,142.8,132.6,9.4
106.0,120.8,138.8,130.7,142.7,133.2,9.7
107.0,120.5,135.9,131.5,141.2,132.3,8.8
108.0,120.3,134.1,129.3,139.3,130.7,8.1
109.0,122.2,133.2,127.2,141.7,131.1,8.4
110.0,118.1,135.2,127.2,138.6,129.8,9.2
111.0,117.6,133.3,127.6,138.5,129.3,9.0
112.0,116.5,131.8,127.7,139.9,129.0,9.7
113.0,116.6,131.1,126.3,136.9,127.7,8.6
114.0,114.9,131.8,123.3,137.2,126.8,9.8
115.0,116.2,129.8,125.9,138.5,127.6,9.3
116.0,114.6,131.9,124.7,136.7,127.0,9.6
117.0,113.5,128.7,123.8,137.1,125.8,9.9
118.0,113.2,128.7,123.5,132.9,124.6,8.5
119.0,111.0,127.5,122.2,132.6,123.3,9.2
120.0,113.1,127.3,123.2,131.8,123.9,8.0
121.0,112.4,128.5,125.1,133.0,124.7,8.9
122.0,111.4,129.8,122.6,131.7,123.9,9.2
123.0,111.0,127.6,124.6,130.0,123.3,8.5
124.0,110.0,128.8,122.5,132.1,123.3,9.8
125.0,111.6,127.5,122.5,130.9,123.1,8.4
126.0,111.1,127.0,124.5,129.4,123.0,8.2
127.0,110.4,126.8,122.6,128.5,122.0,8.2
128.0,107.9,127.4,120.6,130.3,121.5,10.0
129.0,108.1,127.0,121.7,126.6,120.8,8.8
130.0,110.7,125.4,122.2,125.2,120.9,7.0
131.0,107.1,126.5,121.5,126.6,120.4,9.2
132.0,108.9,126.2,124.3,124.6,121.0,8.1
133.0,109.5,127.6,121.2,122.7,120.3,7.6
134.0,109.0,124.1,121.0,126.0,120.0,7.6
135.0,107.6,123.9,121.3,128.6,120.3,9.0
136.0,108.2,122.7,123.7,125.1,119.9,7.8
137.0,108.2,121.1,122.2,123.7,118.8,7.2
138.0,106.9,117.6,121.2,122.0,116.9,7.0
139.0,105.7,119.6,123.9,124.8,118.5,8.8
140.0,108.3,117.8,124.8,121.7,118.2,7.1
141.0,106.1,119.0,122.2,121.5,117.2,7.5
142.0,106.8,117.1,125.9,124.3,118.5,8.7
143.0,104.0,118.6,123.2,121.7,116.9,8.8
144.0,105.6,117.7,121.3,121.1,116.4,7.4
145.0,105.4,117.1,123.9,118.2,116.2,7.8
146.0,104.1,114.4,125.4,119.2,115.8,9.0
147.0,104.4,116.5,126.3,118.5,116.4,9.1
148.0,104.8,117.0,127.3,118.7,117.0,9.3
149.0,104.8,114.0,126.2,119.7,116.2,9.1
150.0,102.7,113.3,124.6,119.0,114.9,9.3
151.0,104.3,113.0,124.0,118.6,115.0,8.5
152.0,104.1,112.9,122.5,117.8,114.3,7.8
153.0,102.1,113.9,125.0,115.3,114.1,9.4
154.0,103.6,113.6,121.4,117.5,114.0,7.6
155.0,102.8,110.9,121.8,115.8,112.9,8.1
156.0,105.0,113.0,120.6,115.2,113.4,6.5
157.0,104.6,112.5,122.4,115.1,113.7,7.4
158.0,105.2,111.3,122.0,115.5,113.5,7.1
159.0,105.4,111.4,123.3,114.3,113.6,7.4
160.0,104.2,110.6,121.8,116.7,113.3,7.6
161.0,105.1,110.6,121.7,113.3,112.7,6.9
162.0,105.6,108.9,120.8,114.7,112.5,6.7
163.0,104.7,107.9,120.8,112.1,111.4,7.0
164.0,104.0,108.4,118.7,112.7,111.0,6.3
165.0,106.2,106.7,119.0,113.0,111.2,6.0
166.0,106.7,108.9,119.2,112.0,111.7,5.4
167.0,106.2,106.9,120.0,112.4,111.4,6.4
168.0,108.3,106.5,118.4,111.6,111.2,5.2
169.0,106.8,104.3,116.1,111.9,109.8,5.3
170.0,106.3,104.6,117.2,109.8,109.5,5.6
171.0,106.4,107.2,115.3,109.5,109.6,4.0
172.0,104.6,104.7,113.7,108.8,107.9,4.3
173.0,103.7,106.5,113.5,109.6,108.3,4.2
174.0,103.8,104.3,112.4,108.5,107.3,4.0
175.0,103.3,104.7,113.4,109.0,107.6,4.6
176.0,101.7,104.7,112.0,106.6,106.3,4.3
177.0,101.6,104.3,111.5,106.9,106.1,4.2
178.0,101.6,103.2,112.9,104.7,105.6,5.0
179.0,102.2,105.4,111.8,103.4,105.7,4.3
180.0,102.0,103.2,111.0,104.4,105.2,4.0
181.0,101.9,104.1,110.2,104.7,105.2,3.5
182.0,103.2,103.5,110.8,105.2,105.7,3.5
183.0,102.6,101.8,109.4,103.0,104.2,3.5
184.0,104.4,100.7,108.8,104.4,104.6,3.3
185.0,104.4,99.8,107.9,105.6,104.4,3.4
186.0,104.4,100.9,106.5,106.1,104.5,2.5
187.0,103.3,100.9,105.1,104.5,103.5,1.8
188.0,105.6,101.6,104.9,105.7,104.5,1.9
189.0,103.3,100.0,104.1,103.5,102.7,1.9
190.0,105.2,101.4,103.4,104.0,103.5,1.6
191.0,104.7,100.1,104.1,105.7,103.7,2.5
192.0,105.1,100.5,103.3,103.7,103.2,1.9
193.0,107.5,100.2,103.2,102.8,103.4,3.0
194.0,105.4,99.4,102.9,104.2,103.0,2.6
195.0,108.5,97.1,102.2,102.6,102.6,4.6
196.0,106.5,96.2,102.0,102.7,101.8,4.2
197.0,108.9,96.2,101.0,102.5,102.2,5.3
198.0,108.3,97.4,99.8,101.8,101.8,4.6
199.0,107.5,96.4,99.9,102.3,101.5,4.7
200.0,108.9,96.3,98.8,101.6,101.4,5.5
201.0,108.1,95.2,98.2,100.6,100.5,5.5
202.0,107.4,94.7,97.1,101.1,100.1,5.6
203.0,109.3,93.9,97.6,98.9,99.9,6.6
204.0,108.8,94.2,96.3,98.1,99.3,6.5
205.0,109.0,94.9,95.6,100.0,99.9,6.5
206.0,109.5,95.5,95.7,98.0,99.7,6.7
207.0,108.8,94.0,96.4,96.9,99.0,6.6
208.0,110.6,92.1,95.2,98.3,99.0,8.1
209.0,109.9,93.1,94.9,98.6,99.2,7.5
210.0,108.5,92.0,95.3,95.9,97.9,7.2
211.0,107.8,90.5,96.0,95.1,97.3,7.3
212.0,108.9,91.7,93.9,96.5,97.7,7.7
213.0,108.4,91.1,93.2,96.8,97.4,7.7
214.0,109.9,90.7,93.4,97.0,97.8,8.5
215.0,108.6,90.6,92.5,96.3,97.0,8.1
216.0,108.9,89.9,90.6,95.9,96.3,8.8
217.0,111.8,88.5,91.5,95.9,96.9,10.4
218.0,110.5,89.3,91.0,97.5,97.0,9.6
219.0,108.1,88.8,91.2,96.9,96.2,8.6
220.0,110.5,88.5,91.0,97.3,96.8,9.8
221.0,108.5,87.3,90.9,95.5,95.5,9.2
222.0,109.4,88.6,91.0,96.4,96.3,9.3
223.0,107.6,88.1,88.9,97.5,95.5,9.1
224.0,106.9,87.0,88.9,97.3,95.0,9.1
225.0,106.1,87.6,89.5,96.9,95.0,8.4
226.0,106.1,86.9,87.5,96.5,94.3,9.0
227.0,105.8,87.8,87.4,96.8,94.5,8.8
228.0,104.1,84.9,88.7,97.0,93.7,8.6
229.0,102.7,88.3,87.8,98.6,94.4,7.5
230.0,103.5,85.9,87.6,98.1,93.8,8.4
231.0,101.4,86.1,87.1,98.1,93.2,7.7
232.0,99.2,86.2,89.2,97.9,93.1,6.4
233.0,98.0,85.4,88.2,98.1,92.4,6.6
234.0,97.4,86.6,89.3,96.8,92.5,5.4
235.0,96.7,85.7,88.3,97.3,92.0,5.9
236.0,97.0,86.9,89.7,97.1,92.7,5.2
237.0,98.9,86.3,89.1,96.8,92.8,6.1
238.0,96.8,86.3,88.0,95.8,91.7,5.4
239.0,96.3,86.2,88.2,94.8,91.4,4.9
240.0,96.6,85.7,87.4,94.8,91.1,5.4
241.0,94.8,85.5,87.7,93.6,90.4,4.5
242.0,94.5,86.8,88.4,94.4,91.0,4.0
243.0,93.6,86.2,88.5,94.0,90.6,3.9
244.0,93.0,86.6,87.8,92.7,90.0,3.3
245.0,94.0,87.9,87.2,94.7,91.0,4.0
246.0,93.6,87.3,88.2,93.4,90.6,3.4
247.0,92.9,86.7,88.5,93.4,90.4,3.3
248.0,91.7,86.6,87.6,94.8,90.2,3.8
249.0,93.2,85.5,87.8,92.5,89.7,3.7
250.0,90.5,85.9,86.4,92.3,88.8,3.2
251.0,91.1,85.5,86.4,90.1,88.3,2.7
252.0,90.2,86.2,87.4,91.1,88.7,2.3
253.0,91.4,85.1,87.5,90.9,88.7,3.0
254.0,90.1,85.0,87.8,88.9,88.0,2.2
255.0,89.6,85.0,89.1,89.0,88.2,2.1
256.0,89.6,85.9,89.4,89.0,88.5,1.7
257.0,89.9,85.7,88.3,89.9,88.4,2.0
258.0,89.1,83.8,87.9,90.2,87.7,2.8
259.0,89.9,84.3,87.9,88.6,87.7,2.4
260.0,89.6,84.8,89.5,88.8,88.2,2.3
261.0,88.9,85.8,90.0,91.0,88.9,2.2
262.0,89.0,86.3,88.5,89.1,88.2,1.3
263.0,87.3,85.3,90.4,87.1,87.5,2.1
264.0,86.3,85.8,88.1,87.1,86.8,1.0
265.0,86.2,85.5,88.7,88.4,87.2,1.6
266.0,86.5,86.0,89.7,86.5,87.2,1.7
267.0,87.4,84.1,88.6,86.1,86.6,1.9
268.0,85.9,84.5,88.9,87.7,86.7,1.9
269.0,86.3,83.7,89.1,86.8,86.5,2.2
270.0,86.1,83.2,88.6,86.6,86.1,2.2
271.0,85.7,83.9,89.2,87.8,86.7,2.3
272.0,86.4,83.5,88.9,87.3,86.5,2.3
273.0,85.7,84.9,89.7,86.4,86.7,2.1
274.0,86.2,85.9,89.7,86.3,87.1,1.8
275.0,85.0,85.3,89.0,86.3,86.4,1.8
276.0,84.7,84.9,89.2,86.2,86.2,2.1
277.0,85.2,84.4,89.1,85.3,86.0,2.1
278.0,84.6,84.1,88.0,84.2,85.2,1.9
279.0,83.8,84.6,88.2,85.6,85.5,1.9
280.0,84.2,84.6,89.5,85.2,85.9,2.5
281.0,84.6,85.9,89.1,84.0,85.9,2.3
282.0,84.0,85.2,89.2,83.3,85.4,2.6
283.0,83.7,85.1,88.4,83.8,85.2,2.2
284.0,83.4,83.8,86.6,82.8,84.1,1.7
285.0,83.1,85.3,87.5,83.2,84.8,2.1
286.0,82.5,84.9,86.9,81.0,83.8,2.6
287.0,83.7,84.5,87.4,83.6,84.8,1.8
288.0,82.6,85.3,89.4,82.8,85.0,3.2
289.0,82.2,84.0,86.5,83.1,84.0,1.8
290.0,82.6,84.8,88.5,83.4,84.8,2.6
291.0,83.1,85.4,88.8,83.6,85.2,2.6
292.0,82.7,83.3,88.6,84.6,84.8,2.7
293.0,80.9,84.2,88.2,84.3,84.4,3.0
294.0,80.2,83.7,88.5,84.6,84.2,3.4
295.0,80.9,84.9,88.6,84.9,84.8,3.1
296.0,81.0,84.4,87.7,84.8,84.4,2.8
297.0,79.1,82.4,87.7,83.9,83.3,3.6
298.0,80.2,84.9,87.2,85.4,84.4,3.0
299.0,80.4,84.4,86.7,85.0,84.1,2.7
300.0,80.7,82.6,84.9,85.6,83.4,2.2
301.0,80.0,82.8,87.3,85.5,83.9,3.2
302.0,80.2,83.7,86.7,84.2,83.7,2.7
303.0,77.7,82.9,85.9,86.0,83.1,3.9
304.0,78.9,82.6,86.1,84.5,83.0,3.1
305.0,77.4,84.7,86.5,83.7,83.1,4.0
306.0,78.2,82.5,86.8,83.9,82.8,3.6
307.0,77.2,83.4,87.8,84.7,83.3,4.4
308.0,77.9,83.4,86.6,84.5,83.1,3.7
309.0,76.9,83.5,87.6,86.7,83.7,4.8
310.0,79.0,81.6,86.4,84.7,82.9,3.3
311.0,78.6,82.0,87.4,84.6,83.1,3.7
312.0,78.0,81.2,87.4,85.2,82.9,4.2
313.0,78.3,81.5,88.5,84.4,83.2,4.3
314.0,78.8,83.3,88.4,84.6,83.8,4.0
315.0,79.0,81.3,87.6,84.5,83.1,3.8
316.0,79.1,83.4,87.7,84.2,83.6,3.6
317.0,79.2,83.1,88.2,85.7,84.0,3.8
318.0,80.3,82.6,88.7,84.7,84.1,3.6
319.0,81.5,82.0,86.7,83.9,83.5,2.4
320.0,81.5,83.3,87.8,84.3,84.2,2.7
321.0,82.1,83.2,86.5,83.7,83.9,1.9
322.0,83.3,82.0,87.1,82.6,83.7,2.3
323.0,83.0,83.1,86.5,85.3,84.5,1.7
324.0,84.7,83.2,88.4,84.0,85.1,2.3
325.0,84.0,82.3,86.3,84.2,84.2,1.7
326.0,84.9,81.9,86.3,83.3,84.1,1.9
327.0,84.5,82.4,87.4,84.7,84.7,2.0
328.0,85.9,81.1,84.8,84.9,84.2,2.1
329.0,84.2,82.7,86.6,85.1,84.6,1.6
330.0,84.7,82.3,87.7,85.2,85.0,2.2
331.0,83.4,81.0,86.0,86.9,84.3,2.7
332.0,83.3,80.7,87.0,85.0,84.0,2.7
333.0,83.3,82.7,87.2,85.8,84.7,2.1
334.0,83.3,80.0,87.2,85.5,84.0,3.1
335.0,83.4,80.2,85.4,85.6,83.7,2.5
336.0,82.9,80.7,85.9,85.0,83.6,2.3
337.0,82.2,81.3,86.2,85.0,83.7,2.3
338.0,81.7,80.0,87.1,85.4,83.6,3.3
339.0,80.9,81.1,86.4,85.4,83.5,2.9
340.0,80.4,81.1,85.9,87.0,83.6,3.3
341.0,80.6,82.8,85.2,85.1,83.4,2.2
342.0,80.0,80.6,86.2,86.3,83.3,3.4
343.0,78.9,80.3,87.2,85.8,83.1,4.1
344.0,78.9,81.2,84.5,85.2,82.4,3.0
345.0,79.0,79.2,87.1,85.6,82.7,4.2
346.0,78.5,79.9,86.1,85.7,82.5,3.9
347.0,79.0,79.0,86.6,85.3,82.5,4.0
348.0,77.4,79.6,85.7,85.2,82.0,4.1
349.0,78.0,78.4,86.3,84.8,81.9,4.3
350.0,78.6,79.9,86.2,85.9,82.7,4.0
351.0,78.5,79.1,84.9,84.1,81.6,3.3
352.0,78.0,79.9,85.9,84.7,82.1,3.8
353.0,78.7,80.3,85.8,84.1,82.2,3.3
354.0,78.6,80.6,84.7,84.9,82.2,3.1
355.0,77.7,78.6,83.8,84.2,81.1,3.4
356.0,77.4,80.7,83.2,84.6,81.5,3.1
357.0,76.3,79.7,84.5,84.6,81.3,4.0
358.0,77.0,78.3,84.2,84.3,81.0,3.9
359.0,76.5,78.2,84.4,84.8,81.0,4.3
360.0,75.6,79.7,84.1,85.5,81.2,4.5
361.0,75.9,77.9,84.6,86.1,81.1,5.0
362.0,76.6,77.5,85.0,85.8,81.2,4.8
363.0,75.1,79.4,86.2,85.8,81.6,5.4
364.0,75.4,77.7,84.0,85.0,80.5,4.7
365.0,75.6,77.7,83.8,83.9,80.3,4.3
366.0,75.8,78.4,83.4,84.1,80.4,4.0
367.0,76.7,77.4,83.9,84.0,80.5,4.0
368.0,76.1,77.3,82.9,84.4,80.1,4.1
369.0,77.4,76.9,83.3,84.5,80.5,3.9
370.0,76.6,78.1,83.4,82.8,80.2,3.4
371.0,78.0,77.9,84.3,84.8,81.3,3.8
372.0,77.6,78.5,83.4,83.8,80.8,3.2
373.0,76.8,77.4,84.0,83.8,80.5,3.9
374.0,76.1,77.1,82.8,83.9,80.0,3.9
375.0,77.4,76.3,83.1,85.4,80.6,4.4
376.0,77.7,77.0,83.4,85.0,80.8,4.0
377.0,77.9,77.6,83.8,84.1,80.9,3.6
378.0,78.6,78.6,82.7,85.4,81.3,3.3
379.0,78.8,79.1,83.2,85.2,81.6,3.1
380.0,77.5,79.1,82.4,84.6,80.9,3.2
381.0,77.5,78.5,83.6,86.7,81.6,4.3
382.0,78.9,77.4,82.6,86.1,81.2,3.9
383.0,79.2,77.8,82.3,84.3,80.9,3.0
384.0,79.8,78.3,82.3,83.3,80.9,2.3
385.0,79.8,78.0,84.2,84.9,81.7,3.4
386.0,79.9,77.2,81.6,83.2,80.5,2.6
387.0,80.7,76.6,83.0,83.9,81.0,3.3
388.0,81.1,77.2,82.1,85.5,81.5,3.4
389.0,81.8,77.3,83.0,84.3,81.6,3.1
390.0,82.1,77.4,81.8,83.6,81.2,2.7
391.0,82.3,76.6,80.5,83.7,80.8,3.1
392.0,82.6,76.3,81.9,82.1,80.7,3.0
393.0,81.8,76.2,82.3,81.3,80.4,2.8
394.0,82.3,76.2,80.8,83.8,80.8,3.3
395.0,81.7,76.5,81.9,83.0,80.8,2.9
396.0,82.9,76.9,82.5,84.7,81.7,3.4
397.0,82.5,76.7,82.4,83.7,81.3,3.1
398.0,81.7,75.8,83.6,82.2,80.8,3.4
399.0,82.5,75.3,83.1,82.7,80.9,3.8
400.0,83.1,75.1,82.9,82.0,80.8,3.8
401.0,82.2,76.9,84.1,83.0,81.6,3.2
402.0,81.8,75.5,83.2,83.1,80.9,3.7
403.0,81.4,76.7,82.7,82.4,80.8,2.8
404.0,81.5,76.7,82.3,83.0,80.9,2.8
405.0,81.4,77.3,82.7,82.5,81.0,2.5
406.0,83.0,77.4,84.3,82.5,81.8,3.0
407.0,82.4,77.5,83.8,82.4,81.5,2.8
408.0,82.5,77.7,82.5,81.1,80.9,2.3
409.0,83.4,76.4,84.7,83.0,81.9,3.7
410.0,82.0,78.1,84.9,82.0,81.8,2.8
411.0,81.3,77.9,84.1,81.3,81.1,2.5
412.0,81.8,78.0,84.7,80.9,81.4,2.8
413.0,80.9,76.8,85.9,81.4,81.3,3.7
414.0,80.2,78.1,85.2,81.2,81.2,3.0
415.0,82.3,77.0,85.6,80.3,81.3,3.6
416.0,81.7,77.6,86.2,81.1,81.7,3.5
417.0,82.0,77.7,84.4,82.0,81.5,2.8
418.0,82.6,78.6,85.7,81.1,82.0,2.9
419.0,83.1,78.2,84.5,81.2,81.8,2.7
420.0,84.3,78.1,84.8,80.9,82.0,3.2
421.0,83.4,77.3,84.2,81.3,81.5,3.0
422.0,84.0,78.2,84.1,81.1,81.8,2.8
423.0,83.5,77.9,84.7,82.2,82.1,2.9
424.0,84.1,78.2,83.9,82.2,82.1,2.7
425.0,83.7,77.9,83.3,81.4,81.6,2.6
426.0,84.2,76.4,83.4,82.0,81.5,3.5
427.0,84.0,76.5,84.7,82.7,82.0,3.7
428.0,83.0,77.7,85.1,82.5,82.1,3.2
429.0,84.3,76.6,85.1,82.0,82.0,3.9
430.0,83.7,77.1,84.1,81.6,81.7,3.2
431.0,84.7,76.8,82.9,82.5,81.7,3.4
432.0,83.6,77.8,83.7,81.8,81.7,2.8
433.0,83.2,76.5,82.8,81.2,81.0,3.1
434.0,84.4,76.0,83.2,80.2,80.9,3.7
435.0,83.5,76.7,83.6,80.3,81.0,3.3
436.0,82.8,75.9,83.3,82.1,81.0,3.4
437.0,84.6,77.0,84.7,80.2,81.6,3.7
438.0,84.9,77.2,84.6,80.1,81.7,3.7
439.0,84.0,77.3,85.2,81.2,81.9,3.5
440.0,85.2,76.5,84.3,81.0,81.8,3.9
441.0,83.7,75.2,85.6,79.8,81.1,4.6
442.0,83.5,75.1,85.5,81.0,81.3,4.5
443.0,84.4,74.7,83.9,80.0,80.8,4.5
444.0,84.0,75.7,85.7,80.4,81.4,4.4
445.0,83.4,75.6,86.9,80.2,81.6,4.8
446.0,81.9,75.6,83.9,81.5,80.7,3.6
447.0,82.2,75.7,84.9,79.0,80.5,4.0
448.0,82.0,76.4,85.0,79.0,80.6,3.7
449.0,81.7,74.7,85.5,79.8,80.4,4.5
450.0,82.0,74.4,84.8,76.6,79.5,4.8
451.0,82.4,75.4,86.3,78.1,80.6,4.8
452.0,82.0,74.8,85.9,78.7,80.3,4.7
453.0,82.5,74.3,85.7,79.5,80.5,4.9
454.0,82.5,75.0,85.5,80.6,80.9,4.4
455.0,83.5,74.8,84.7,78.6,80.4,4.6
456.0,82.8,76.1,86.4,79.8,81.3,4.4
457.0,83.0,76.7,85.7,80.0,81.4,3.9
458.0,83.2,75.1,85.6,82.3,81.5,4.5
459.0,82.6,75.9,86.1,79.8,81.1,4.3
460.0,83.5,75.3,85.3,80.5,81.2,4.4
461.0,84.3,74.9,85.1,80.5,81.2,4.7
462.0,83.5,74.8,87.2,80.7,81.5,5.2
463.0,82.0,74.6,86.1,82.4,81.3,4.8
464.0,81.8,74.3,85.0,81.9,80.8,4.5
465.0,82.0,72.7,85.1,81.7,80.4,5.3
466.0,80.2,73.4,86.5,80.9,80.2,5.4
467.0,80.8,73.4,86.1,81.1,80.4,5.2
468.0,79.7,73.9,85.4,81.4,80.1,4.8
469.0,80.7,72.9,85.8,81.6,80.3,5.4
470.0,80.8,73.6,84.3,82.0,80.2,4.6
471.0,81.5,73.1,84.4,82.6,80.4,5.0
472.0,81.1,73.3,85.7,82.2,80.6,5.2
473.0,82.2,72.8,84.6,80.6,80.1,5.1
474.0,81.9,72.5,85.1,81.3,80.2,5.4
475.0,80.4,73.0,84.3,81.2,79.7,4.8
476.0,83.7,72.4,84.3,80.6,80.3,5.5
477.0,81.9,73.3,83.1,81.0,79.8,4.5
478.0,81.9,73.4,83.5,81.3,80.0,4.5
479.0,82.8,73.9,82.7,82.3,80.4,4.4
480.0,83.3,73.2,83.5,82.4,80.6,5.0
481.0,82.0,73.5,83.4,82.0,80.2,4.5
482.0,81.8,74.1,85.0,82.7,80.9,4.7
483.0,82.6,73.4,82.4,82.4,80.2,4.5
484.0,82.8,73.2,84.1,82.8,80.7,5.1
485.0,84.5,73.8,84.4,82.4,81.3,5.1
486.0,84.2,73.3,83.7,81.5,80.7,5.0
487.0,83.4,73.7,82.2,82.9,80.6,4.6
488.0,85.6,73.7,84.2,81.0,81.1,5.3
489.0,85.1,74.3,82.9,81.7,81.0,4.7
490.0,84.1,73.5,82.3,81.6,80.4,4.7
491.0,84.6,72.9,82.5,81.2,80.3,5.1
492.0,83.9,72.9,81.2,80.1,79.5,4.7
493.0,83.9,73.2,83.3,79.4,80.0,4.9
494.0,85.1,74.1,82.1,79.7,80.2,4.7
495.0,84.0,72.4,83.2,79.4,79.7,5.3
496.0,83.9,72.8,84.0,79.7,80.1,5.3
497.0,85.2,73.8,83.5,81.5,81.0,5.0
498.0,85.4,72.6,84.6,80.1,80.6,5.9
499.0,85.5,72.5,83.7,80.1,80.5,5.8
500.0,84.3,72.7,83.0,79.6,79.9,5.2
501.0,84.9,71.2,83.5,80.7,80.1,6.2
502.0,85.5,72.6,82.4,79.4,79.9,5.5
503.0,84.6,73.3,83.0,81.6,80.6,5.0
504.0,85.9,73.4,83.1,79.6,80.5,5.4
505.0,84.7,72.3,83.5,79.9,80.1,5.6
506.0,84.9,72.8,82.5,80.5,80.2,5.2
507.0,84.6,73.0,83.6,79.6,80.2,5.3
508.0,85.1,73.1,83.2,80.2,80.4,5.2
509.0,84.6,72.5,82.4,79.3,79.7,5.3
510.0,84.3,73.0,84.4,79.9,80.4,5.4
511.0,85.3,73.5,83.9,79.5,80.5,5.3
512.0,84.2,73.9,84.1,78.6,80.2,4.9
513.0,84.7,72.9,86.4,78.9,80.7,6.1
514.0,84.7,73.6,85.1,78.5,80.5,5.5
515.0,83.9,73.9,84.9,78.9,80.4,5.1
516.0,83.9,73.5,85.0,79.7,80.5,5.2
517.0,83.7,74.1,85.4,79.4,80.7,5.1
518.0,85.0,74.4,84.3,78.5,80.6,5.0
519.0,84.0,74.0,83.7,78.4,80.0,4.8
520.0,83.7,74.0,84.3,78.2,80.1,4.9
521.0,83.6,74.5,84.6,77.2,80.0,4.9
522.0,83.6,75.1,83.7,77.1,79.9,4.4
523.0,83.4,74.6,84.2,80.0,80.5,4.4
524.0,84.5,73.6,84.1,78.9,80.2,5.1
525.0,84.0,73.2,84.8,78.1,80.0,5.4
526.0,82.6,73.6,83.9,78.5,79.7,4.6
527.0,84.3,73.6,82.2,79.8,80.0,4.7
528.0,84.2,74.0,82.9,79.0,80.0,4.6
529.0,83.4,75.0,83.9,78.4,80.2,4.3
530.0,83.4,73.9,84.7,78.6,80.2,4.9
531.0,83.3,74.1,82.4,77.3,79.3,4.4
532.0,82.8,75.6,82.4,79.1,80.0,3.3
533.0,83.1,74.2,82.4,79.7,79.8,4.1
534.0,82.3,74.2,84.3,79.1,80.0,4.4
535.0,84.1,74.6,84.1,79.4,80.5,4.5
536.0,82.9,74.1,83.8,79.0,80.0,4.4
537.0,85.7,74.1,83.1,78.8,80.4,5.1
538.0,83.5,74.8,82.3,78.2,79.7,4.0
539.0,84.7,73.4,83.8,78.6,80.1,5.2
540.0,84.5,73.0,82.3,79.1,79.7,5.0
541.0,84.4,73.9,83.3,80.1,80.4,4.7
542.0,84.9,74.2,83.1,80.7,80.7,4.7
543.0,84.9,72.4,84.0,79.6,80.2,5.7
544.0,86.4,74.0,84.1,78.6,80.8,5.6
545.0,84.3,74.3,85.1,78.7,80.6,5.1
546.0,85.6,74.4,85.0,81.4,81.6,5.1
547.0,85.6,73.4,85.8,80.2,81.2,5.8
548.0,85.5,73.6,85.1,79.5,81.0,5.6
549.0,86.2,73.8,85.9,81.1,81.8,5.8
550.0,86.3,73.7,85.7,79.8,81.4,5.9
551.0,86.3,73.5,84.9,81.7,81.6,5.7
552.0,86.2,75.0,86.3,80.1,81.9,5.5
553.0,84.6,74.3,86.4,80.6,81.5,5.3
554.0,84.9,73.2,86.1,81.0,81.3,5.8
555.0,84.3,74.4,84.7,80.3,80.9,4.8
556.0,82.7,73.8,84.2,81.5,80.5,4.6
557.0,83.3,74.3,85.9,80.9,81.1,5.0
558.0,83.8,73.5,86.0,81.7,81.3,5.5
559.0,83.0,74.6,87.0,80.4,81.2,5.2
560.0,83.8,73.6,85.3,80.2,80.7,5.2
561.0,82.6,74.7,87.6,79.3,81.1,5.4
562.0,83.4,74.0,85.5,80.3,80.8,5.0
563.0,82.7,73.1,85.7,81.7,80.8,5.4
564.0,82.4,73.3,85.3,80.9,80.5,5.1
565.0,83.1,74.3,85.2,80.9,80.9,4.7
566.0,83.1,74.1,85.4,80.5,80.8,4.9
567.0,83.4,75.0,86.1,79.7,81.1,4.8
568.0,84.2,73.9,85.5,80.4,81.0,5.2
569.0,84.6,73.8,85.1,82.2,81.4,5.2
570.0,82.2,73.9,85.8,81.3,80.8,5.0
571.0,81.5,75.2,84.8,80.9,80.6,4.0
572.0,81.3,74.2,84.9,81.6,80.5,4.5
573.0,80.3,74.7,84.2,82.2,80.4,4.1
574.0,80.9,74.4,84.4,81.8,80.4,4.2
575.0,81.1,74.3,84.5,82.0,80.5,4.4
576.0,81.9,75.2,85.4,81.4,81.0,4.2
577.0,81.7,75.9,86.1,81.5,81.3,4.2
578.0,82.1,74.8,85.5,81.1,80.9,4.5
579.0,82.5,75.4,85.8,81.1,81.2,4.3
580.0,82.3,76.2,84.8,81.5,81.2,3.6
581.0,81.7,76.1,85.6,79.9,80.8,3.9
582.0,81.8,76.6,86.0,80.0,81.1,3.9
583.0,81.8,77.5,85.1,80.4,81.2,3.1
584.0,82.5,77.5,85.0,78.8,81.0,3.4
585.0,83.6,76.3,84.5,78.8,80.8,3.9
586.0,80.8,75.5,86.1,80.2,80.7,4.3
587.0,80.8,76.3,84.8,80.4,80.5,3.5
588.0,80.4,75.7,84.8,79.7,80.2,3.7
589.0,80.5,76.0,85.3,80.7,80.6,3.8
590.0,81.1,75.9,87.1,81.5,81.4,4.5
591.0,82.6,77.2,85.6,80.7,81.5,3.5
592.0,83.6,76.1,86.3,80.9,81.7,4.3
593.0,81.4,75.9,85.8,80.8,81.0,4.1
594.0,82.6,76.6,88.5,79.4,81.8,5.1
595.0,82.3,76.7,86.8,80.2,81.5,4.2
596.0,82.1,78.9,86.7,80.5,82.0,3.3
597.0,82.1,77.0,86.5,80.8,81.6,3.9
598.0,82.0,76.4,87.4,80.4,81.5,4.5
599.0,82.5,76.7,86.4,81.6,81.8,4.0
600.0,80.5,75.8,85.4,80.1,80.5,3.9
601.0,81.4,75.0,86.0,80.4,80.7,4.5
602.0,81.7,75.0,84.4,80.6,80.4,4.0
603.0,80.9,76.5,86.1,80.3,81.0,3.9
604.0,80.5,75.2,86.5,80.6,80.7,4.6
605.0,80.7,74.1,85.7,80.4,80.2,4.7
606.0,81.0,75.2,88.1,79.7,81.0,5.4
607.0,81.4,75.2,87.4,80.6,81.2,5.0
608.0,81.6,74.8,87.5,82.0,81.5,5.2
609.0,82.3,75.8,87.3,82.3,81.9,4.7
610.0,81.5,75.0,86.9,82.8,81.6,4.9
611.0,84.1,75.3,86.8,81.5,81.9,4.9
612.0,84.0,75.1,87.9,83.1,82.5,5.3
613.0,82.4,75.8,88.5,82.8,82.4,5.2
614.0,83.5,76.9,88.6,82.5,82.9,4.8
615.0,83.7,76.5,89.7,82.7,83.2,5.4
616.0,84.1,76.6,89.2,82.8,83.2,5.2
617.0,84.1,77.0,90.5,82.0,83.4,5.6
618.0,83.0,76.6,89.7,81.4,82.7,5.4
619.0,84.7,77.3,89.9,83.2,83.8,5.2
620.0,84.2,79.0,89.6,82.3,83.8,4.5
621.0,82.7,77.0,90.2,83.2,83.3,5.4
622.0,83.7,77.4,89.5,82.2,83.2,5.0
623.0,83.8,78.8,89.0,82.8,83.6,4.2
624.0,84.9,77.4,90.2,84.3,84.2,5.2
625.0,84.3,76.4,90.3,82.8,83.5,5.7
626.0,84.6,78.5,91.1,84.2,84.6,5.2
627.0,84.2,77.3,91.2,83.2,83.9,5.7
628.0,84.7,79.6,91.9,84.4,85.1,5.1
629.0,84.6,79.4,91.8,83.8,84.9,5.2
630.0,83.3,78.6,91.6,84.0,84.4,5.4
631.0,84.7,80.0,90.2,83.6,84.6,4.2
632.0,84.5,81.8,90.9,82.7,85.0,4.1
633.0,85.2,80.6,91.2,83.9,85.2,4.4
634.0,86.6,80.5,92.5,84.6,86.0,5.0
635.0,86.8,81.0,92.4,83.8,86.0,4.9
636.0,86.6,79.5,89.8,84.2,85.0,4.3
637.0,86.2,80.7,92.5,84.1,85.9,5.0
638.0,86.9,81.4,91.1,84.5,86.0,4.1
639.0,87.4,81.3,93.6,84.1,86.6,5.3
640.0,87.4,81.4,94.4,85.5,87.2,5.4
641.0,87.6,82.8,93.1,85.1,87.1,4.4
642.0,87.3,83.2,93.4,86.0,87.5,4.3
643.0,88.4,84.0,92.8,86.0,87.8,3.8
644.0,87.0,83.8,93.9,86.9,87.9,4.2
645.0,87.6,82.6,92.8,85.1,87.0,4.4
646.0,88.7,83.9,93.1,86.9,88.1,3.8
647.0,87.4,83.5,95.2,85.4,87.9,5.2
648.0,89.1,84.7,94.1,84.6,88.1,4.5
649.0,89.4,83.0,94.4,85.1,88.0,5.0
650.0,89.9,84.1,94.8,85.3,88.5,4.8
651.0,90.2,84.1,93.9,86.1,88.6,4.4
652.0,88.2,84.0,94.9,84.5,87.9,5.0
653.0,90.0,84.8,95.5,85.6,89.0,4.9
654.0,90.9,85.7,94.4,86.5,89.4,4.0
655.0,91.6,85.8,95.1,86.9,89.8,4.3
656.0,90.4,86.3,96.2,87.6,90.1,4.4
657.0,90.6,87.3,96.1,87.5,90.4,4.1
658.0,89.9,86.5,99.0,87.3,90.7,5.8
659.0,91.8,85.7,97.1,87.9,90.6,5.0
660.0,90.1,86.8,98.5,88.0,90.8,5.3
661.0,91.3,86.0,99.9,87.6,91.2,6.2
662.0,90.7,87.4,99.2,87.8,91.3,5.5
663.0,92.0,88.2,99.4,88.3,92.0,5.3
664.0,91.9,86.8,99.9,87.7,91.6,6.0
665.0,92.4,87.0,100.7,87.0,91.8,6.5
666.0,94.5,86.7,100.5,88.1,92.5,6.3
667.0,94.0,87.3,100.7,88.0,92.5,6.2
668.0,94.5,88.3,102.0,87.5,93.1,6.7
669.0,94.5,88.2,101.9,87.8,93.1,6.6
670.0,94.3,89.1,101.9,89.3,93.6,6.0
671.0,95.3,89.5,102.1,88.7,93.9,6.2
672.0,95.9,90.4,104.7,87.4,94.6,7.6
673.0,96.0,91.0,103.0,87.1,94.3,6.8
674.0,96.5,91.6,102.7,87.2,94.5,6.7
675.0,96.6,90.8,103.3,87.9,94.7,6.8
676.0,96.4,91.1,102.6,88.5,94.7,6.2
677.0,96.7,92.3,103.7,88.3,95.3,6.6
678.0,98.2,91.2,104.1,88.4,95.5,7.1
679.0,98.4,92.1,103.3,89.3,95.8,6.3
680.0,98.2,91.4,105.5,89.5,96.2,7.3
681.0,97.2,92.8,104.1,89.4,95.9,6.4
682.0,98.2,92.3,104.3,87.8,95.6,7.2
683.0,99.2,93.0,104.0,90.8,96.7,6.0
684.0,98.6,94.0,106.6,90.0,97.3,7.1
685.0,99.2,94.5,105.8,89.7,97.3,6.8
686.0,100.2,94.1,107.1,89.4,97.7,7.7
687.0,98.8,94.0,106.0,88.9,96.9,7.3
688.0,100.0,95.4,105.5,89.0,97.5,7.0
689.0,100.4,96.6,108.0,89.0,98.5,7.9
690.0,100.5,94.7,108.6,88.2,98.0,8.7
691.0,100.8,95.4,108.2,88.8,98.3,8.2
692.0,101.0,98.2,107.3,89.6,99.0,7.3
693.0,101.1,97.6,110.5,92.5,100.4,7.6
694.0,99.9,96.1,107.9,93.1,99.2,6.4
695.0,99.4,97.8,108.7,92.8,99.7,6.7
696.0,99.7,96.9,110.2,94.8,100.4,6.8
697.0,100.1,97.5,109.1,93.8,100.1,6.5
698.0,98.5,97.8,108.8,93.8,99.7,6.4
699.0,98.9,98.1,111.1,93.2,100.3,7.6
700.0,99.2,99.3,112.0,95.1,101.4,7.3
701.0,98.6,99.4,110.5,92.1,100.2,7.6
702.0,100.5,99.5,111.0,93.1,101.0,7.4
703.0,98.4,99.6,113.4,92.8,101.0,8.8
704.0,100.0,99.7,113.2,93.8,101.7,8.2
705.0,100.9,100.9,113.8,92.9,102.1,8.6
706.0,101.1,101.4,114.2,92.7,102.3,8.9
707.0,99.2,102.6,115.0,94.6,102.8,8.7
708.0,101.3,101.3,114.1,93.0,102.4,8.7
709.0,102.0,101.4,115.8,94.2,103.4,9.0
710.0,102.5,101.9,115.7,93.8,103.5,9.1
711.0,103.2,102.4,115.3,93.4,103.6,9.0
712.0,102.6,103.9,115.0,93.6,103.8,8.8
713.0,103.4,103.6,116.2,94.8,104.5,8.8
714.0,103.1,102.7,115.2,95.7,104.2,8.1
715.0,102.8,102.8,117.6,94.3,104.4,9.7
716.0,103.2,102.3,117.4,96.4,104.8,8.9
717.0,101.6,104.9,117.4,95.4,104.8,9.3
718.0,102.8,106.2,119.3,93.8,105.5,10.5
719.0,103.8,105.0,119.1,96.3,106.0,9.5
720.0,104.3,105.1,117.5,95.7,105.6,9.0
721.0,103.9,105.8,120.5,96.6,106.7,10.0
722.0,103.1,109.0,121.8,97.0,107.7,10.6
723.0,104.8,105.4,124.1,96.8,107.8,11.6
724.0,105.5,108.9,120.5,95.9,107.7,10.2
725.0,105.1,107.6,120.2,96.3,107.3,9.9
726.0,105.5,109.1,119.8,97.8,108.0,9.1
727.0,105.8,109.1,121.1,97.2,108.3,9.9
728.0,107.3,108.9,121.2,97.5,108.7,9.7
729.0,108.4,108.8,121.6,97.0,108.9,10.0
730.0,109.2,109.1,119.9,98.1,109.1,8.9
731.0,108.8,112.0,123.6,98.2,110.7,10.5
732.0,108.9,109.2,123.7,96.9,109.7,11.0
733.0,110.8,110.5,126.5,96.8,111.1,12.1
734.0,110.4,111.2,125.5,97.6,111.2,11.4
735.0,112.6,110.7,125.1,98.1,111.6,11.0
736.0,112.6,112.4,127.4,98.3,112.7,11.9
737.0,109.3,113.1,126.5,98.4,111.8,11.6
738.0,112.0,113.3,129.1,98.1,113.1,12.7
739.0,113.2,113.8,127.1,100.0,113.5,11.1
740.0,110.3,115.5,128.7,99.6,113.5,12.1
741.0,111.4,116.4,129.1,100.5,114.4,11.9
742.0,113.8,113.2,129.5,99.7,114.0,12.2
743.0,113.6,115.0,130.4,99.9,114.7,12.5
744.0,114.2,117.9,131.7,101.0,116.2,12.6
745.0,114.5,117.3,129.6,100.9,115.6,11.7
746.0,114.0,118.2,132.1,101.2,116.4,12.7
747.0,115.1,119.0,131.9,101.7,116.9,12.4
748.0,115.4,120.6,132.7,101.5,117.5,12.9
749.0,116.1,118.4,131.9,101.0,116.9,12.7
750.0,117.0,121.6,133.6,101.9,118.5,13.1
751.0,116.0,122.4,133.3,101.6,118.3,13.3
752.0,117.3,122.9,135.7,100.8,119.2,14.4
753.0,116.6,122.2,135.8,101.4,119.0,14.2
754.0,116.2,123.2,137.2,103.2,120.0,14.2
755.0,115.3,123.1,136.4,101.8,119.2,14.5
756.0,117.8,123.3,138.3,104.4,121.0,14.0
757.0,119.3,123.3,137.0,104.6,121.1,13.3
758.0,119.4,123.0,139.1,104.2,121.4,14.3
759.0,121.1,125.7,139.8,105.3,123.0,14.2
760.0,119.6,125.8,137.9,105.6,122.2,13.4
761.0,123.0,124.0,138.6,106.5,123.0,13.1
762.0,124.1,124.6,141.0,104.5,123.5,14.9
763.0,122.2,129.3,139.8,105.1,124.1,14.6
764.0,123.1,127.8,140.7,106.3,124.5,14.2
765.0,125.8,127.0,140.3,104.7,124.4,14.7
766.0,124.2,127.1,141.4,103.9,124.2,15.5
767.0,126.5,129.9,139.5,103.8,124.9,15.2
768.0,125.6,127.5,141.1,106.3,125.1,14.4
769.0,125.4,130.0,140.3,105.2,125.2,14.8
770.0,127.3,128.9,142.7,105.3,126.1,15.5
771.0,126.5,127.6,143.2,107.5,126.2,14.6
772.0,127.6,128.6,140.0,106.7,125.7,13.8
773.0,126.3,128.9,145.8,108.4,127.4,15.3
774.0,128.9,130.0,142.9,109.9,127.9,13.6
775.0,127.5,130.8,144.5,108.0,127.7,15.0
776.0,128.4,129.5,145.9,110.5,128.6,14.5
777.0,127.2,133.2,145.0,109.7,128.8,14.7
778.0,128.9,131.2,147.8,111.7,129.9,14.8
779.0,129.7,134.4,147.6,112.4,131.0,14.6
780.0,130.2,133.6,149.5,111.9,131.3,15.4
781.0,128.5,134.7,150.0,110.8,131.0,16.2
782.0,129.2,135.6,150.9,114.0,132.4,15.3
783.0,127.6,134.6,152.2,111.8,131.5,16.7
784.0,128.6,134.1,150.2,110.8,130.9,16.3
785.0,131.7,136.3,154.3,113.6,134.0,16.7
786.0,130.8,136.3,150.3,112.2,132.4,15.8
787.0,132.2,137.1,150.8,113.4,133.4,15.5
788.0,131.3,139.2,153.4,111.7,133.9,17.4
789.0,132.4,140.2,152.9,114.5,135.0,16.1
790.0,134.4,139.4,151.9,114.3,135.0,15.7
791.0,132.8,136.9,154.7,114.1,134.7,16.7
792.0,134.0,137.8,157.1,113.7,135.7,17.8
793.0,134.9,139.5,154.3,114.7,135.8,16.3
794.0,134.8,141.2,157.9,115.2,137.3,17.6
795.0,136.5,140.2,156.3,117.3,137.6,16.0
796.0,136.8,141.4,156.4,117.3,138.0,16.2
797.0,136.8,142.4,154.9,116.6,137.7,16.0
798.0,136.4,146.3,156.5,117.7,139.2,16.5
799.0,136.5,143.2,157.5,117.3,138.6,16.7
800.0,136.2,145.3,158.4,116.1,139.0,17.8
801.0,136.3,147.6,158.0,115.8,139.4,18.1
802.0,139.9,145.7,158.9,117.2,140.4,17.4
803.0,139.9,145.9,161.2,117.6,141.1,18.1
804.0,139.7,145.8,159.4,119.6,141.1,16.5
805.0,140.2,145.4,158.5,120.5,141.1,15.8
806.0,138.7,146.5,162.8,122.4,142.6,16.8
807.0,141.2,149.7,161.6,122.0,143.6,16.7
808.0,141.5,148.1,158.7,123.6,143.0,14.7
809.0,143.8,146.2,163.1,122.9,144.0,16.5
810.0,143.2,149.3,164.1,123.3,145.0,16.9
811.0,144.5,149.0,165.3,125.9,146.2,16.2
812.0,146.6,147.6,163.6,124.4,145.6,16.1
813.0,143.1,146.5,167.8,124.8,145.6,17.6
814.0,143.7,147.9,164.3,125.7,145.4,15.9
815.0,143.4,149.5,170.1,124.4,146.8,18.8
816.0,142.9,151.9,169.7,127.5,148.0,17.7
817.0,145.5,152.3,165.5,126.4,147.4,16.3
818.0,145.6,150.1,168.0,125.4,147.3,17.5
819.0,146.7,152.8,168.8,128.5,149.2,16.7
820.0,145.2,155.2,167.1,129.3,149.2,16.0
821.0,147.9,156.0,168.5,128.3,150.2,16.9
822.0,146.2,154.6,172.2,129.4,150.6,17.8
823.0,150.5,161.2,172.3,129.3,153.3,18.3
824.0,150.4,156.2,167.8,131.8,151.6,15.0
825.0,147.4,158.6,172.5,128.1,151.6,18.8
826.0,152.2,156.6,174.1,129.2,153.0,18.5
827.0,152.1,159.0,169.3,131.2,152.9,16.1
828.0,151.7,156.5,170.8,131.4,152.6,16.3
829.0,150.5,162.3,171.6,131.6,154.0,17.2
830.0,155.1,160.4,178.3,133.3,156.8,18.5
831.0,154.8,159.0,175.7,132.9,155.6,17.6
832.0,154.0,160.4,172.5,133.7,155.2,16.2
833.0,151.6,160.3,180.5,133.2,156.4,19.6
834.0,155.5,161.6,176.4,135.5,157.2,16.9
835.0,152.6,162.3,179.2,133.1,156.8,19.2
836.0,153.6,162.2,176.7,136.7,157.3,16.7
837.0,156.3,162.1,177.7,136.3,158.1,17.1
838.0,155.3,164.0,180.6,135.0,158.7,19.0
839.0,155.5,161.9,177.8,137.1,158.1,16.8
840.0,158.8,165.1,183.4,137.3,161.1,19.0
841.0,154.4,164.7,179.6,135.9,158.7,18.4
842.0,156.8,163.7,179.4,137.7,159.4,17.3
843.0,159.3,163.9,182.5,139.1,161.2,17.9
844.0,159.7,165.2,180.9,138.4,161.0,17.6
845.0,158.9,168.3,181.4,139.5,162.0,17.6
846.0,157.6,169.1,184.0,138.7,162.3,19.1
847.0,160.9,170.1,182.7,141.2,163.7,17.5
848.0,159.4,167.0,183.0,140.0,162.4,17.9
849.0,160.5,165.0,186.2,140.2,163.0,18.9
850.0,163.3,169.4,183.7,141.6,164.5,17.5
851.0,163.8,164.9,184.9,140.4,163.5,18.2
852.0,163.2,171.0,185.2,140.1,164.9,18.9
853.0,163.1,173.7,184.4,143.4,166.1,17.5
854.0,164.7,174.3,184.0,140.4,165.8,18.7
855.0,160.6,174.2,182.9,143.4,165.3,17.2
856.0,166.6,170.6,188.2,141.7,166.8,19.2
857.0,161.8,171.4,185.8,143.2,165.5,17.9
858.0,163.8,171.1,188.9,145.3,167.3,18.1
859.0,162.5,179.1,187.4,145.4,168.6,18.6
860.0,166.6,172.8,191.2,147.2,169.4,18.1
861.0,164.0,171.6,190.1,146.4,168.0,18.1
862.0,165.6,177.1,190.4,147.5,170.2,18.2
863.0,166.2,175.7,188.4,145.9,169.0,17.9
864.0,164.8,180.3,192.7,148.8,171.6,19.0
865.0,166.9,180.5,197.1,148.2,173.2,20.7
866.0,170.2,181.8,195.6,148.6,174.0,19.9
867.0,167.8,179.4,192.3,148.5,172.0,18.6
868.0,171.7,177.6,191.9,149.2,172.6,17.8
869.0,167.2,178.8,193.7,147.8,171.9,19.3
870.0,169.7,180.7,196.2,147.3,173.5,20.5
871.0,172.9,184.3,192.4,149.9,174.9,18.5
872.0,174.1,181.3,195.0,148.2,174.7,19.7
873.0,174.9,181.8,193.1,148.2,174.5,19.1
874.0,174.7,184.3,195.1,150.1,176.1,19.2
875.0,174.2,181.5,194.7,152.2,175.7,17.8
876.0,175.0,183.8,194.2,150.2,175.8,18.8
877.0,177.3,180.8,197.4,154.3,177.4,17.8
878.0,178.2,185.0,195.7,151.0,177.5,19.1
879.0,176.4,184.7,196.2,153.9,177.8,17.9
880.0,177.1,182.3,198.5,152.4,177.6,19.1
881.0,177.1,187.8,201.5,153.5,180.0,20.3
882.0,176.5,187.0,196.4,153.4,178.3,18.5
883.0,178.6,183.9,199.8,152.7,178.8,19.6
884.0,177.5,187.5,202.8,154.3,180.5,20.4
885.0,179.7,186.7,200.5,154.5,180.4,19.3
886.0,179.7,185.7,205.0,153.5,181.0,21.3
887.0,182.7,190.5,199.8,155.4,182.1,19.1
888.0,182.2,188.5,200.9,155.6,181.8,19.1
889.0,178.8,190.6,204.8,155.4,182.4,20.9
890.0,179.6,187.6,202.0,157.4,181.6,18.6
891.0,178.2,191.1,202.2,157.2,182.2,19.3
892.0,180.4,188.4,203.8,158.5,182.8,18.9
893.0,181.6,191.2,202.5,158.9,183.5,18.5
894.0,180.9,190.5,199.5,157.4,182.1,18.1
895.0,180.9,195.4,199.9,156.2,183.1,19.7
896.0,183.4,193.6,198.5,155.7,182.8,19.1
897.0,180.8,194.0,200.7,158.2,183.4,18.7
898.0,180.4,194.3,201.1,158.0,183.4,19.0
899.0,184.9,195.4,196.8,158.3,183.8,17.8
900.0,185.2,195.0,203.4,160.1,185.9,18.8
901.0,183.2,193.1,198.6,158.5,183.3,17.7
902.0,185.7,193.0,202.6,156.3,184.4,19.9
903.0,186.5,194.0,202.2,159.9,185.7,18.3
904.0,186.6,193.6,199.6,162.5,185.6,16.3
905.0,186.3,192.5,201.7,158.7,184.8,18.5
906.0,192.1,191.3,207.3,158.0,187.2,20.8
907.0,189.7,193.7,204.2,161.8,187.4,18.1
908.0,188.3,193.5,205.1,162.3,187.3,18.1
909.0,185.9,195.0,201.2,162.9,186.3,16.8
910.0,189.2,191.0,204.1,161.8,186.5,17.8
911.0,191.9,193.5,202.2,160.3,187.0,18.3
912.0,192.0,197.7,205.3,161.7,189.2,19.1
913.0,191.5,196.6,205.2,165.0,189.6,17.3
914.0,193.8,197.0,203.9,159.2,188.5,20.0
915.0,192.9,199.7,203.0,162.7,189.6,18.4
916.0,195.2,199.9,203.4,160.9,189.8,19.6
917.0,189.7,197.6,204.3,162.6,188.5,18.3
918.0,192.5,195.7,201.3,160.2,187.4,18.5
919.0,192.8,198.1,205.2,164.7,190.2,17.7
920.0,191.6,193.4,200.7,161.9,186.9,17.1
921.0,191.3,197.6,205.9,165.4,190.0,17.5
922.0,190.7,199.7,205.4,160.4,189.1,20.0
923.0,195.1,199.6,202.1,162.3,189.8,18.5
924.0,194.6,195.9,203.4,163.8,189.4,17.5
925.0,192.1,200.2,202.4,163.6,189.6,17.9
926.0,193.7,198.2,202.1,162.3,189.1,18.2
927.0,193.9,202.0,206.3,165.2,191.9,18.5
928.0,197.5,200.3,202.5,163.5,190.9,18.4
929.0,192.4,200.0,203.0,165.1,190.1,17.3
930.0,194.5,199.8,203.2,165.5,190.8,17.2
931.0,197.1,203.4,208.4,161.8,192.7,21.1
932.0,196.8,201.9,203.9,162.7,191.3,19.3
933.0,193.1,201.4,203.5,164.6,190.6,17.9
934.0,194.2,201.7,208.9,166.1,192.7,18.7
935.0,197.1,203.4,209.2,163.2,193.2,20.6
936.0,192.5,203.2,206.5,163.1,191.3,19.7
937.0,196.8,202.8,208.3,165.9,193.4,19.0
938.0,192.9,204.2,206.8,168.0,193.0,17.7
939.0,194.3,202.2,205.6,166.6,192.2,17.7
940.0,195.3,200.8,209.5,164.7,192.6,19.5
941.0,194.9,200.5,205.8,166.0,191.8,17.8
942.0,194.6,205.9,210.5,167.7,194.7,19.2
943.0,195.9,202.1,208.8,166.4,193.3,18.7
944.0,198.7,203.4,210.8,166.2,194.8,19.7
945.0,198.2,207.5,213.9,165.6,196.3,21.4
946.0,196.9,205.0,211.3,165.6,194.7,20.3
947.0,195.6,208.1,209.0,164.7,194.3,20.7
948.0,197.5,203.8,213.3,164.8,194.9,21.0
949.0,195.8,205.4,212.6,164.7,194.7,21.1
950.0,194.3,205.4,209.4,163.6,193.2,20.7
951.0,197.0,204.3,208.5,166.1,194.0,19.2
952.0,193.2,206.1,213.6,165.0,194.5,21.4
953.0,197.1,206.4,211.4,166.8,195.4,20.0
954.0,194.9,207.8,211.6,165.2,194.9,21.0
955.0,199.2,206.5,205.4,167.1,194.6,18.6
956.0,198.5,206.1,213.8,166.2,196.2,20.9
957.0,197.6,207.9,212.3,171.5,197.3,18.3
958.0,197.0,211.5,214.9,169.1,198.1,20.8
959.0,196.2,206.7,213.9,166.5,195.8,20.9
960.0,197.9,209.0,213.0,168.7,197.1,20.0
961.0,197.1,206.5,210.5,169.8,196.0,18.3
962.0,199.1,212.3,216.2,170.2,199.5,20.8
963.0,199.3,209.8,216.2,173.6,199.7,18.8
964.0,198.3,211.3,216.7,173.7,200.0,19.2
965.0,201.2,212.0,209.0,172.8,198.8,17.9
966.0,194.6,213.1,214.3,170.9,198.2,20.3
967.0,196.9,209.6,214.6,171.0,198.0,19.5
968.0,198.1,217.7,217.9,171.3,201.2,22.0
969.0,198.3,216.5,212.6,169.7,199.3,21.2
970.0,199.1,212.4,216.5,170.9,199.7,20.6
971.0,199.2,217.5,215.1,170.3,200.5,21.7
972.0,198.4,215.3,214.4,168.4,199.1,21.9
973.0,198.4,217.9,211.3,167.8,198.9,22.2
974.0,199.0,215.4,213.0,169.8,199.3,20.9
975.0,201.8,215.6,215.4,168.4,200.3,22.2
976.0,196.2,213.1,217.7,172.3,199.8,20.5
977.0,198.3,218.5,214.5,170.3,200.4,21.9
978.0,199.5,209.9,219.6,169.9,199.7,21.5
979.0,196.2,215.9,218.9,169.2,200.1,22.9
980.0,199.6,217.3,214.9,170.7,200.6,21.5
981.0,196.4,218.6,215.5,171.0,200.4,21.9
982.0,195.8,217.8,213.8,173.2,200.2,20.4
983.0,197.4,216.5,221.0,173.3,202.0,21.7
984.0,198.0,212.4,216.3,172.5,199.8,19.8
985.0,194.5,215.3,213.1,175.0,199.5,18.8
986.0,199.9,214.7,217.3,175.8,201.9,19.0
987.0,200.6,216.8,215.5,172.9,201.5,20.4
988.0,200.2,215.5,214.6,173.8,201.0,19.4
989.0,195.4,215.2,216.5,172.7,200.0,20.6
990.0,196.5,218.8,218.5,173.0,201.7,21.8
991.0,192.8,217.5,217.5,173.9,200.4,21.2
992.0,193.3,218.0,215.4,176.9,200.9,19.5
993.0,196.7,218.0,213.9,171.5,200.0,21.1
994.0,190.9,215.6,212.6,175.5,198.7,19.0
995.0,195.0,220.6,214.3,177.8,201.9,19.4
996.0,195.1,220.2,210.9,182.5,202.1,16.7
997.0,195.9,216.9,213.8,175.3,200.5,19.2
998.0,193.2,217.6,210.3,177.6,199.7,18.0
999.0,192.9,218.4,212.3,176.1,199.9,19.3
1000.0,192.4,217.8,208.9,176.7,199.0,18.2
1001.0,189.5,219.4,209.5,176.7,198.8,19.3
1002.0,194.2,222.4,206.8,175.7,199.8,19.8
1003.0,189.1,217.8,211.0,176.8,198.7,19.1
1004.0,187.9,218.3,209.8,177.3,198.4,19.0
1005.0,192.1,218.2,200.6,176.0,196.7,17.6
1006.0,188.1,220.8,202.2,174.1,196.3,20.0
1007.0,190.6,221.9,200.3,177.7,197.6,18.7
1008.0,187.0,219.8,196.4,176.5,194.9,18.5
1009.0,186.9,217.2,197.9,179.3,195.3,16.5
1010.0,187.8,219.8,193.6,179.9,195.3,17.3
1011.0,187.2,216.4,190.5,178.2,193.1,16.4
1012.0,187.8,218.8,191.1,181.4,194.8,16.5
1013.0,188.0,223.3,185.7,176.3,193.3,20.6
1014.0,188.5,222.5,184.5,178.3,193.5,19.8
1015.0,190.8,218.4,181.1,178.0,192.1,18.4
1016.0,189.6,216.5,181.3,178.4,191.5,17.3
1017.0,191.5,217.1,179.3,180.8,192.2,17.5
1018.0,188.7,217.6,179.0,176.6,190.5,18.8
1019.0,193.0,213.4,176.7,180.1,190.8,16.6
1020.0,189.9,211.8,176.1,180.5,189.6,15.9
1021.0,190.8,215.8,174.4,183.4,191.1,17.8
1022.0,188.3,211.9,168.6,177.5,186.6,18.7
1023.0,188.3,213.8,169.3,180.3,187.9,18.9
1024.0,187.6,213.2,165.3,180.9,186.7,20.0
1025.0,188.0,207.8,162.6,181.8,185.1,18.7
1026.0,186.8,211.3,162.7,182.2,185.8,20.0
1027.0,188.5,208.6,160.4,184.6,185.5,19.8
1028.0,189.1,204.1,160.3,183.1,184.2,18.2
1029.0,186.5,208.0,158.0,182.0,183.6,20.5
1030.0,189.5,203.4,153.1,183.2,182.3,21.2
1031.0,186.4,198.7,154.1,182.4,180.4,18.9
1032.0,191.2,199.4,148.3,181.8,180.2,22.5
1033.0,192.5,197.9,146.7,184.6,180.4,23.2
1034.0,189.4,198.5,146.2,180.9,178.8,22.9
1035.0,190.0,194.3,143.4,182.2,177.5,23.3
1036.0,188.3,196.2,141.0,182.6,177.0,24.7
1037.0,186.2,194.2,142.8,181.2,176.1,22.8
1038.0,186.2,194.7,139.0,181.1,175.3,24.8
1039.0,189.8,193.1,137.5,180.4,175.2,25.7
1040.0,189.0,190.4,135.3,185.4,175.0,26.6
1041.0,186.0,190.7,133.3,186.1,174.0,27.3
1042.0,187.1,186.6,133.8,181.4,172.2,25.7
1043.0,186.6,185.4,130.7,183.3,171.5,27.2
1044.0,184.8,181.4,129.1,185.3,170.1,27.4
1045.0,184.2,182.9,125.9,188.3,170.3,29.7
1046.0,184.2,181.5,126.4,185.4,169.4,28.7
1047.0,183.4,179.1,122.7,185.6,167.7,30.1
1048.0,183.6,179.4,119.6,185.5,167.0,31.7
1049.0,187.8,177.1,119.9,185.2,167.5,32.0
1050.0,183.4,172.3,117.5,186.6,165.0,32.2
1051.0,182.2,170.3,114.5,184.8,162.9,32.9
1052.0,184.8,170.2,110.7,184.0,162.4,35.1
1053.0,187.0,167.1,107.9,183.8,161.4,36.8
1054.0,183.2,165.3,104.7,186.1,159.8,37.9
1055.0,182.5,165.2,102.9,185.1,158.9,38.4
1056.0,183.7,164.4,101.6,187.0,159.2,39.7
1057.0,182.9,160.7,98.9,183.2,156.4,39.8
1058.0,183.6,158.2,97.8,187.5,156.8,41.4
1059.0,179.4,155.8,93.4,182.7,152.8,41.4
1060.0,182.1,154.5,91.3,183.7,152.9,43.2
1061.0,180.8,150.1,90.3,181.8,150.7,42.9
1062.0,179.9,147.9,88.0,179.5,148.8,43.2
1063.0,178.6,147.9,85.7,180.6,148.2,44.3
1064.0,179.5,145.1,83.3,184.7,148.2,46.7
1065.0,178.8,141.9,81.7,179.9,145.6,46.1
1066.0,179.2,141.6,79.1,181.2,145.3,47.7
1067.0,177.6,137.9,77.6,181.6,143.7,48.2
1068.0,175.4,138.1,75.7,180.2,142.4,48.2
1069.0,174.4,137.2,73.4,181.0,141.5,49.3
1070.0,172.0,134.1,72.5,180.9,139.9,49.3
1071.0,171.2,132.9,71.8,178.3,138.5,48.7
1072.0,172.1,129.0,71.4,178.0,137.6,49.3
1073.0,175.1,126.4,70.2,184.4,139.0,52.5
1074.0,168.6,123.8,67.8,179.8,135.0,50.9
1075.0,165.2,120.4,67.0,179.4,133.0,50.7
1076.0,166.7,116.5,65.3,180.4,132.2,52.4
1077.0,163.6,118.5,64.0,175.0,130.3,50.5
1078.0,159.8,115.1,62.6,178.8,129.1,51.7
1079.0,160.1,114.3,61.5,178.2,128.5,52.1
1080.0,159.9,112.1,61.3,176.8,127.5,52.0
1081.0,155.5,110.5,61.2,175.6,125.7,50.9
1082.0,159.6,109.5,60.9,174.2,126.1,51.5
1083.0,153.6,106.6,58.4,173.8,123.1,51.5
1084.0,156.1,104.1,58.2,173.8,123.1,52.4
1085.0,150.9,102.7,57.9,169.2,120.2,50.1
1086.0,150.2,99.5,56.7,169.1,118.9,50.8
1087.0,149.3,98.4,55.5,168.3,117.9,51.0
1088.0,148.8,96.6,55.0,167.8,117.0,51.2
1089.0,145.6,97.1,53.6,168.7,116.3,51.3
1090.0,146.1,92.7,52.9,168.6,115.1,52.3
1091.0,141.8,89.8,52.2,170.2,113.5,52.7
1092.0,140.6,87.9,52.6,171.1,113.0,53.0
1093.0,140.6,86.3,50.9,174.3,113.0,55.1
1094.0,142.0,83.7,50.6,172.3,112.1,55.1
1095.0,136.5,81.2,50.5,170.9,109.8,54.1
1096.0,135.9,78.6,51.3,170.8,109.1,54.1
1097.0,136.7,75.6,50.9,170.5,108.4,54.9
1098.0,134.5,74.3,51.0,167.1,106.7,53.5
1099.0,131.3,71.9,50.3,163.5,104.3,52.3
1100.0,131.0,68.5,50.3,164.7,103.6,53.4
1101.0,129.8,68.3,49.8,164.6,103.1,53.4
1102.0,128.3,64.1,49.5,163.6,101.4,53.8
1103.0,126.3,64.1,48.5,162.2,100.3,53.2
1104.0,122.1,60.5,47.7,160.7,97.8,53.1
1105.0,118.1,59.4,48.4,157.5,95.8,51.2
1106.0,116.2,58.2,47.5,158.9,95.2,52.1
1107.0,115.8,57.7,47.0,159.3,94.9,52.5
1108.0,114.9,57.2,47.0,157.9,94.3,51.9
1109.0,112.1,55.7,46.6,155.6,92.5,51.1
1110.0,109.6,55.7,46.9,155.3,91.9,50.6
1111.0,107.5,53.5,46.8,154.8,90.7,50.6
1112.0,105.1,52.7,46.6,155.1,89.9,50.8
1113.0,103.4,51.8,47.0,155.1,89.3,50.7
1114.0,101.9,52.0,46.9,152.0,88.2,49.2
1115.0,100.4,51.5,46.3,151.4,87.4,49.1
1116.0,98.0,52.8,46.7,151.4,87.2,48.5
1117.0,98.2,52.8,46.0,148.1,86.3,47.3
1118.0,94.2,53.2,45.8,147.3,85.1,46.6
1119.0,93.8,54.4,46.0,147.5,85.4,46.3
1120.0,92.7,54.2,45.3,148.5,85.2,47.0
1121.0,90.7,54.2,45.0,146.2,84.0,45.9
1122.0,89.3,54.4,45.5,144.0,83.3,44.6
1123.0,87.6,55.4,44.8,141.3,82.3,43.3
1124.0,87.0,55.1,44.8,142.1,82.3,43.7
1125.0,84.9,55.2,44.2,139.3,80.9,42.5
1126.0,82.5,53.3,44.0,138.7,79.6,42.7
1127.0,82.1,53.0,43.8,138.2,79.3,42.6
1128.0,81.3,52.1,43.2,136.1,78.2,41.9
1129.0,80.3,51.6,43.4,135.3,77.7,41.6
1130.0,79.5,50.9,43.8,133.5,76.9,40.7
1131.0,79.3,50.0,43.5,136.2,77.3,42.3
1132.0,77.3,,42.8,132.6,84.2,45.3
1133.0,75.1,,42.1,132.0,83.1,45.5
1134.0,74.9,,42.4,130.0,82.5,44.3
1135.0,74.4,,42.0,128.5,81.6,43.7
1136.0,73.8,,42.1,129.2,81.7,44.1
1137.0,72.5,,41.5,131.3,81.7,45.6
1138.0,71.6,,42.2,128.4,80.7,43.8
1139.0,70.5,,41.6,123.6,78.6,41.6
1140.0,69.5,,41.8,124.7,78.7,42.2
1141.0,68.4,,,123.6,96.0,39.0
1142.0,67.5,,,122.2,94.8,38.7
1143.0,65.7,,,122.0,93.9,39.8
1144.0,64.7,,,118.0,91.3,37.6
1145.0,64.4,,,115.5,90.0,36.2
1146.0,62.5,,,114.7,88.6,36.9
1147.0,61.1,,,114.5,87.8,37.8
1148.0,59.0,,,111.6,85.3,37.2
1149.0,58.5,,,109.5,84.0,36.0
1150.0,57.6,,,107.5,82.5,35.3
1151.0,57.4,,,108.1,82.7,35.8
1152.0,55.6,,,103.5,79.6,33.8
1153.0,55.1,,,102.1,78.6,33.2
1154.0,54.7,,,100.7,77.7,32.5
1155.0,53.4,,,99.3,76.4,32.4
1156.0,52.4,,,98.9,75.7,32.9
1157.0,52.2,,,97.9,75.0,32.3
1158.0,52.6,,,96.5,74.5,31.0
1159.0,51.7,,,95.4,73.6,30.9
1160.0,50.6,,,93.3,71.9,30.2
1161.0,50.4,,,94.4,72.4,31.1
1162.0,50.8,,,91.6,71.2,28.9
1163.0,49.4,,,90.7,70.1,29.2
1164.0,49.4,,,89.2,69.3,28.2
1165.0,48.5,,,88.7,68.6,28.4
1166.0,48.3,,,86.0,67.2,26.7
1167.0,47.3,,,83.5,65.4,25.6
1168.0,47.5,,,83.7,65.6,25.6
1169.0,46.3,,,83.8,65.0,26.6
1170.0,46.5,,,82.2,64.3,25.2
1170.75,48.2,,,82.2,65.2,24.0