File: 01_Data/Pressure_Treated_Deck/Cone/Pressure_Treated_Deck_Cone_HF25Scan_230612_R3.csv
Names,Time,Stack TC,Smoke TC,Exh Press,Smoke Comp,Smoke Meas,CO Meter,CO2 Meter,O2 Meter,Sample Mass,Ext Coeff,Start Test,Flame Verif
Chan Gain,,500,500,1,1,1,1,1,1,1,1,1.0,1.0
Offset,,0,0,0.13972,0,0,0,0,0,0,0,0.0,0.0
Gain,,1,1,25.011,13.3261,15.6582,1,1,1,1.0009,1.01862,1.0,1.0
Units,sec,C,C,Pa,%,%,%,%,%,g,/m,,
Baseline,,27.8788,29.2306,158.925,99.7097,99.8091,0.000537837,0.0448762,20.9696,-443.973,-0.00887732,,
13,3,24.0376,25.148,156.732,99.1778,99.045,0.000670559,0.0512545,20.961,198.88,0.0119698,0.0,0.0
26,6.25,24.5071,25.6703,159.023,99.1953,99.293,0.000567006,0.053626,20.9595,198.81,-0.00880046,0.0,0.0
39,9.5,24.9617,25.7932,160.207,99.2246,99.1368,0.00038405,0.0544991,20.9558,198.76,0.0079096,0.0,0.0
52,12.75,25.3922,26.4695,156.573,99.2632,99.3489,0.000379221,0.0532674,20.9548,198.68,-0.00771512,0.0,0.0
65,16,25.5174,26.1268,156.125,99.3279,99.3833,0.000409562,0.052941,20.9559,198.69,-0.00498956,0.0,0.0
78,19.25,25.399,26.6479,158.64,99.4157,99.4048,0.00054331,0.0510591,20.9566,198.63,0.000975637,0.0,0.0
91,22.5,25.3395,27.0789,158.111,99.4893,99.7202,0.000442057,0.0492586,20.9596,198.539,-0.0207143,0.0,0.0
104,25.75,25.2002,26.5692,162.473,99.5747,100.127,0.000372995,0.0477791,20.9614,198.469,-0.0494537,0.0,0.0
117,29,25.4939,26.9128,160.493,99.6882,99.8526,0.000290117,0.0468078,20.9633,198.499,-0.0147252,0.0,0.0
130,32.25,24.9131,27.1708,158.694,99.8085,99.843,1.49073e-05,0.0467023,20.9655,198.429,-0.00308578,0.0,0.0
143,35.5,25.2877,26.7174,159.027,99.944,99.8631,0.000177897,0.0471127,20.9661,198.329,0.00723273,0.0,0.0
156,38.75,25.5202,27.2836,156.552,100.097,100.287,0.000414296,0.0479805,20.9663,198.289,-0.0169138,0.0,0.0
169,42,25.3381,27.4008,162.601,100.218,100.154,0.000497921,0.0479357,20.9648,198.239,0.00570533,0.0,0.0
182,45.25,25.0825,27.1001,159.504,100.337,100.161,0.000442664,0.0471892,20.9653,198.139,0.0156825,0.0,0.0
195,48.5,25.0783,26.9274,161.425,100.454,100.371,0.000400003,0.0466287,20.9661,198.119,0.00734023,0.0,0.0
208,51.75,25.3815,27.2589,155.372,100.591,100.247,0.000386356,0.0464702,20.9663,198.039,0.0305892,0.0,0.0
221,55,25.3084,26.7957,153.651,100.654,100.876,0.000352038,0.0463713,20.966,197.929,-0.0196531,0.0,0.0
234,58.25,25.9509,26.9655,157.55,100.736,100.526,0.000277634,0.0461868,20.9658,197.929,0.0185944,0.0,0.0
247,61.5,25.7829,26.9541,158.795,100.785,100.618,0.000558511,0.0461301,20.9664,197.919,0.0148499,0.0,0.0
260,64.75,25.0001,27.2956,160.645,100.831,100.676,0.000855716,0.0461005,20.9663,197.849,0.0136684,0.0,0.0
273,68,25.69,27.3955,164.599,100.833,100.664,0.000853762,0.0462625,20.9665,197.759,0.0149881,0.0,0.0
286,71.25,25.5531,27.1268,157.452,100.835,100.577,0.000664185,0.0462805,20.9666,197.779,0.0228983,0.0,0.0
299,74.5,25.9943,26.6642,156.976,100.741,100.707,0.000586883,0.0464211,20.9666,197.749,0.00310229,0.0,0.0
312,77.75,26.1534,27.6368,160.075,100.634,100.398,0.000347639,0.0465236,20.9663,197.629,0.0209262,0.0,0.0
325,81,26.0434,27.621,157.306,100.532,100.241,0.000371255,0.0464744,20.9659,197.589,0.0258971,0.0,0.0
338,84.25,26.0498,27.3876,156.556,100.386,100.037,0.000682321,0.0465771,20.9658,197.649,0.0310817,0.0,0.0
351,87.5,25.6824,27.8373,164.895,100.224,100.036,0.000896333,0.0465243,20.9667,197.448,0.0167479,0.0,0.0
364,90.75,25.2385,27.1891,154.825,100.075,99.6046,0.00095112,0.0467028,20.9677,197.458,0.042094,0.0,0.0
377,94,25.3311,27.5714,163.141,99.9635,99.6094,0.000829389,0.04677,20.9665,197.428,0.0317101,0.0,0.0
390,97.25,26.3775,27.0927,157.863,100.019,99.1129,0.000626892,0.0470109,20.9659,197.378,0.0813005,0.0,0.0
403,100.5,25.8238,27.1709,159.527,100.185,99.4588,0.000762801,0.0469943,20.9658,197.298,0.0650128,0.0,0.0
416,103.75,26.0667,27.5153,158.99,100.308,99.6844,0.00072869,0.0470594,20.9669,197.288,0.0557193,0.0,0.0
429,107,25.996,27.2899,157.223,100.339,99.1301,0.000827748,0.0472978,20.9671,197.218,0.108332,0.0,0.0
442,110.25,26.2805,27.8017,156.905,100.218,99.4655,0.000968393,0.0475488,20.9661,197.178,0.0673494,0.0,0.0
455,113.5,25.7569,27.3926,159.05,99.9972,98.9633,0.000972376,0.0476181,20.9674,197.078,0.0928688,0.0,0.0
468,116.75,26.0241,27.3908,159.111,99.7923,98.7588,0.000884115,0.0477209,20.9678,197.048,0.0930196,0.0,0.0
481,120,26.6154,27.854,158.815,99.5991,98.7946,0.00083486,0.0479713,20.9685,196.998,0.0724646,0.0,0.0
494,123.25,26.2518,27.682,160.152,99.6723,98.5031,0.000964269,0.0481339,20.9687,196.878,0.105432,0.0,0.0
507,126.5,26.2607,27.8564,157.418,99.8439,98.4262,0.00102539,0.0483562,20.967,196.908,0.127785,0.0,0.0
520,129.75,25.8725,27.8054,159.375,100.02,98.765,0.00121,0.0482383,20.9659,196.838,0.11279,0.0,0.0
533,133,26.2108,27.7154,159.697,100.164,98.5911,0.00133817,0.0485249,20.964,196.738,0.141391,0.0,0.0
546,136.25,26.5062,27.8117,160.491,100.264,99.2342,0.00111142,0.0487399,20.9634,196.708,0.0922817,0.0,0.0
559,139.5,25.7954,27.7755,157.472,100.335,98.3956,0.0011846,0.0489032,20.9632,196.628,0.174419,0.0,0.0
572,142.75,26.4014,28.2971,157.364,100.303,98.7507,0.00122124,0.0490578,20.9632,196.538,0.139337,0.0,0.0
585,146,25.9607,27.2971,158.372,100.232,99.2811,0.00125232,0.0489975,20.9643,196.388,0.085166,0.0,0.0
598,149.25,26.2471,27.8443,159.062,100.129,98.5289,0.00107131,0.0492883,20.9653,196.428,0.143903,0.0,0.0
611,152.5,26.4444,27.2963,158.966,99.9606,98.4926,0.000993243,0.0494088,20.9661,196.347,0.132196,0.0,0.0
624,155.75,26.3165,28.2017,161.387,99.7496,98.4052,0.00116798,0.049569,20.9663,196.217,0.121246,0.0,0.0
637,159,26.3415,28.0205,159.404,99.5194,97.2392,0.00100256,0.0500338,20.9657,196.137,0.207104,0.0,0.0
650,162.25,26.5203,27.8243,159.65,99.3693,96.9329,0.000983251,0.0503405,20.9645,196.077,0.221812,0.0,0.0
663,165.5,26.2603,28.1866,158.88,99.2221,96.5975,0.00127376,0.0504316,20.9641,196.027,0.23954,0.0,0.0
676,168.75,26.3812,27.8128,159.773,99.1314,96.6371,0.00151613,0.050484,20.9641,195.917,0.227701,0.0,0.0
689,172,26.076,27.7599,159.568,99.1164,97.0017,0.00167293,0.0504866,20.9633,195.847,0.192697,0.0,0.0
702,175.25,27.2693,29.3288,149.519,99.1652,100.124,0.00182813,0.0504979,20.9618,195.687,-0.0860227,0.0,1.0
715,178.5,27.0596,31.3481,150.002,99.2656,99.51,0.00185544,0.0509004,20.9615,195.277,-0.0219667,0.0,0.0
728,181.75,28.5067,34.8734,150.582,99.4665,99.239,0.00180645,0.0653967,20.9604,194.906,0.0204607,0.0,0.0
741,185,30.35,38.5599,146.984,99.702,99.7766,0.00198873,0.138035,20.9478,194.646,-0.00668374,0.0,0.0
754,188.25,32.0302,41.2854,148.415,99.9399,99.7651,0.00215538,0.224359,20.8817,194.226,0.0156389,0.0,0.0
767,191.5,33.3072,43.1837,151.237,100.186,99.8067,0.00220546,0.285558,20.7726,193.855,0.0338867,0.0,0.0
780,194.75,34.9396,44.8304,140.761,100.404,100.337,0.00237856,0.31971,20.705,193.515,0.00598316,0.0,0.0
793,198,36.3617,46.7293,140.35,100.582,100.725,0.00250734,0.340171,20.6599,193.135,-0.0127026,0.0,0.0
806,201.25,37.8318,47.8795,142.597,100.715,99.6409,0.00263096,0.350211,20.6285,192.684,0.0958432,0.0,0.0
819,204.5,38.7689,48.9257,144.585,100.804,100.318,0.00270978,0.365956,20.6128,192.374,0.0431117,0.0,0.0
832,207.75,39.8682,49.6158,146.585,100.844,99.8535,0.00267282,0.372008,20.5964,192.034,0.0881524,0.0,0.0
845,211,40.1342,50.0904,147.425,100.863,99.7532,0.00278825,0.365942,20.5892,191.613,0.0988302,0.0,0.0
858,214.25,40.5396,50.014,143.71,100.875,100.316,0.00283321,0.360691,20.5925,191.323,0.049673,0.0,0.0
871,217.5,41.3399,50.9124,150.376,100.87,99.8263,0.0027931,0.355751,20.5989,190.963,0.0929321,0.0,0.0
884,220.75,41.5007,50.2673,146.358,100.826,99.9458,0.00286339,0.349638,20.6065,190.612,0.0783551,0.0,0.0
897,224,42.0069,50.6451,145.578,100.791,100.504,0.0031422,0.339968,20.6144,190.202,0.0254892,0.0,0.0
910,227.25,41.7906,49.7819,149.928,100.751,99.9759,0.00323805,0.331135,20.6251,189.912,0.0689942,0.0,0.0
923,230.5,42.3353,49.4102,144.81,100.709,99.7532,0.00333045,0.323082,20.6364,189.661,0.0852377,0.0,0.0
936,233.75,42.1648,49.872,147.417,100.643,99.7498,0.00331767,0.315879,20.6472,189.261,0.0796178,0.0,0.0
949,237,41.8268,49.8388,147.123,100.607,99.9262,0.00321924,0.310449,20.6551,189.031,0.0606593,0.0,0.0
962,240.25,42.0954,49.8118,144.324,100.569,99.6734,0.00315699,0.304122,20.6615,188.721,0.0798955,0.0,0.0
975,243.5,42.8277,49.6927,146.385,100.498,99.735,0.00290767,0.300035,20.6678,188.42,0.068119,0.0,0.0
988,246.75,42.657,49.2941,145.52,100.463,99.9137,0.00264627,0.29737,20.6735,188.12,0.0489749,0.0,0.0
1001,250,42.8905,49.5003,149.095,100.427,100.511,0.0026379,0.292321,20.6787,187.8,-0.00750297,0.0,0.0
1014,253.25,43.2871,48.8399,153.264,100.364,99.7389,0.00254748,0.286273,20.6847,187.51,0.0557998,0.0,0.0
1027,256.5,42.9719,49.0182,145.865,100.276,99.4708,0.0024199,0.280815,20.6913,187.179,0.072024,0.0,0.0
1040,259.75,42.5562,49.4533,144.363,100.227,99.4584,0.00237546,0.279698,20.6972,186.949,0.0687902,0.0,0.0
1053,263,43.5684,49.5317,145.914,100.189,99.8512,0.0023997,0.279793,20.6978,186.669,0.0301624,0.0,0.0
1066,266.25,42.8494,48.7132,146.352,100.141,99.8096,0.00259331,0.276568,20.6977,186.288,0.029603,0.0,0.0
1079,269.5,42.9054,48.8863,148.307,100.09,99.3829,0.00271241,0.275278,20.7002,186.108,0.0633133,0.0,0.0
1092,272.75,43.2106,48.1111,146.999,100.052,99.3207,0.00285473,0.272351,20.7026,185.818,0.0655594,0.0,0.0
1105,276,43.2736,47.8165,148.469,99.9911,100.176,0.00292319,0.270263,20.7067,185.548,-0.0164693,0.0,0.0
1118,279.25,43.5913,47.9888,147.729,99.9745,99.9075,0.00285075,0.26772,20.7082,185.187,0.00598422,0.0,0.0
1131,282.5,43.1792,48.2224,148.348,100.058,100.031,0.00268039,0.264423,20.7122,184.977,0.00240695,0.0,0.0
1144,285.75,42.901,48.0243,148.591,100.118,100.359,0.0025501,0.260738,20.715,184.707,-0.021483,0.0,0.0
1157,289,42.7818,48.1852,148.606,100.155,99.9157,0.00264035,0.256961,20.7188,184.327,0.0213821,0.0,0.0
1170,292.25,43.0135,47.8061,150.247,100.223,100.226,0.00249612,0.256803,20.7221,184.197,-0.000295055,0.0,0.0
1183,295.5,42.8958,47.6443,144.943,100.223,100.003,0.00254792,0.25592,20.7232,183.896,0.019585,0.0,0.0
1196,298.75,42.9053,48.3691,147.455,100.234,100.774,0.00275594,0.254067,20.7235,183.576,-0.04804,0.0,0.0
1209,302,43.1054,47.8483,147.267,100.242,100.146,0.00272938,0.254484,20.7235,183.326,0.00860451,0.0,0.0
1222,305.25,42.6959,47.6386,150.866,100.242,100.52,0.00252433,0.255811,20.7236,183.065,-0.0247525,0.0,0.0
1235,308.5,42.9958,48.0515,152.994,100.208,100.883,0.00240715,0.25854,20.7236,182.715,-0.0599854,0.0,0.0
1248,311.75,43.0662,48.5215,147.772,100.161,100.245,0.00218169,0.259783,20.7213,182.365,-0.00751203,0.0,0.0
1261,315,42.8668,48.2055,152.816,100.136,100.12,0.00197404,0.260972,20.7198,182.205,0.00136863,0.0,0.0
1274,318.25,43.3932,48.2285,148.751,100.07,99.7814,0.00202793,0.261594,20.7178,181.924,0.025811,0.0,0.0
1287,321.5,43.0337,48.232,148.264,99.9663,100.085,0.00211594,0.259557,20.7169,181.564,-0.0105833,0.0,0.0
1300,324.75,43.3982,47.9065,146.397,100.009,100.162,0.00221811,0.257088,20.7191,181.384,-0.0137133,0.0,0.0
1313,328,42.8725,47.9927,145.421,100.048,100.727,0.00218002,0.254865,20.7218,181.104,-0.0604277,0.0,0.0
1326,331.25,43.1354,48.2397,152.164,100.099,100.024,0.00210758,0.252692,20.7244,180.833,0.00675698,0.0,0.0
1339,334.5,43.1192,47.8111,152.147,100.169,100.519,0.0021667,0.249635,20.7259,180.523,-0.0311164,0.0,0.0
1352,337.75,42.7163,47.1002,149.741,100.249,100.678,0.0022423,0.247635,20.7299,180.283,-0.0381064,0.0,0.0
1365,341,43.1185,47.9072,150.865,100.309,100.858,0.00210729,0.241733,20.7332,179.963,-0.0487115,0.0,0.0
1378,344.25,42.6702,47.8638,151.314,100.358,100.649,0.00229611,0.238622,20.7389,179.662,-0.0259248,0.0,0.0
1391,347.5,42.5342,46.4964,147.568,100.411,100.739,0.00252767,0.237979,20.7432,179.452,-0.0291601,0.0,0.0
1404,350.75,42.7381,46.8841,153.742,100.468,100.554,0.00245086,0.23458,20.7448,179.222,-0.0076357,0.0,0.0
1417,354,42.3155,46.1935,148.313,100.522,100.962,0.00243119,0.229483,20.748,178.912,-0.0390516,0.0,0.0
1430,357.25,42.3256,46.3822,147.036,100.595,100.866,0.00253666,0.224884,20.7542,178.682,-0.0240785,0.0,0.0
1443,360.5,41.8388,46.3576,152.485,100.658,100.974,0.00256261,0.222061,20.7599,178.461,-0.0280071,0.0,0.0
1456,363.75,41.9125,46.3444,146.175,100.712,101.214,0.00265551,0.22035,20.7627,178.221,-0.0444869,0.0,0.0
1469,367,41.9117,45.6643,151.63,100.774,101.714,0.00255054,0.218086,20.7651,177.851,-0.082949,0.0,0.0
1482,370.25,41.5775,45.6831,150.205,100.818,101.258,0.00229322,0.216129,20.7681,177.681,-0.0389195,0.0,0.0
1495,373.5,42.1198,45.2522,152.547,100.844,101.577,0.00232433,0.21315,20.772,177.38,-0.0647655,0.0,0.0
1508,376.75,41.4188,45.0346,152.975,100.857,101.854,0.00228777,0.211625,20.7755,177.08,-0.0878877,0.0,0.0
1521,380,41.8395,45.5878,151.299,100.884,101.493,0.00211991,0.210088,20.7779,176.89,-0.0537621,0.0,0.0
1534,383.25,41.8356,45.5691,155.455,100.898,101.026,0.0023696,0.207869,20.7797,176.64,-0.0113411,0.0,0.0
1547,386.5,41.129,45.0125,148.131,100.895,100.935,0.00271726,0.205019,20.7839,176.359,-0.00355303,0.0,0.0
1560,389.75,41.2996,44.9877,151.895,100.917,101.272,0.00298661,0.20382,20.7871,176.049,-0.0313452,0.0,0.0
1573,393,41.3448,44.9552,149.873,100.872,101.196,0.00306821,0.20197,20.788,175.849,-0.0286429,0.0,0.0
1586,396.25,41.496,44.1453,154.616,100.821,101.722,0.0026504,0.199256,20.7899,175.529,-0.0795104,0.0,0.0
1599,399.5,41.0831,44.9897,145.075,100.769,101.251,0.00260916,0.198536,20.7937,175.308,-0.0426063,0.0,0.0
1612,402.75,41.2671,44.7153,147.684,100.726,101.445,0.00275633,0.199691,20.7949,175.218,-0.063498,0.0,0.0
1625,406,41.4912,44.7954,148.923,100.614,101.062,0.00279588,0.199773,20.793,174.968,-0.0396775,0.0,0.0
1638,409.25,41.4198,44.536,148.589,100.51,101.122,0.00272368,0.198853,20.7927,174.648,-0.0542191,0.0,0.0
1651,412.5,41.3287,44.5543,147.751,100.404,100.64,0.00244716,0.19896,20.7934,174.438,-0.0210282,0.0,0.0
1664,415.75,41.0884,44.1997,152.952,100.266,100.912,0.00223319,0.198556,20.7921,174.228,-0.0574186,0.0,0.0
1677,419,41.0043,44.5427,148.953,100.106,100.266,0.0021843,0.19762,20.7931,173.997,-0.0142851,0.0,0.0
1690,422.25,41.2852,44.3944,152.772,99.9533,100.26,0.00236875,0.197402,20.7951,173.657,-0.0273906,0.0,0.0
1703,425.5,40.8067,44.2094,148.004,99.7906,100.427,0.00253359,0.197366,20.7948,173.487,-0.0567941,0.0,0.0
1716,428.75,40.73,44.2897,153.621,99.6365,100.37,0.00270382,0.19733,20.7936,173.257,-0.0655445,0.0,0.0
1729,432,40.8626,44.9679,147.145,99.4804,99.6524,0.00292819,0.196738,20.7927,172.956,-0.0154369,0.0,0.0
1742,435.25,41.2902,44.8243,152.401,99.3657,99.6863,0.00311997,0.197408,20.7924,172.776,-0.028785,0.0,0.0
1755,438.5,40.6846,44.4517,147.104,99.2644,99.6299,0.00291391,0.19816,20.7923,172.546,-0.0328402,0.0,0.0
1768,441.75,41.0085,44.3836,149.377,99.1973,99.2983,0.00274336,0.198045,20.7923,172.286,-0.00909101,0.0,0.0
1781,445,40.6031,44.1855,149.802,99.1566,99.4928,0.0026007,0.197443,20.7923,172.005,-0.0302373,0.0,0.0
1794,448.25,40.5659,44.0126,153.049,99.1522,99.7675,0.0023896,0.198264,20.7923,171.845,-0.0552833,0.0,0.0
1807,451.5,40.9562,44.2496,151.565,99.1741,99.3991,0.00240723,0.198184,20.7924,171.565,-0.0202467,0.0,0.0
1820,454.75,40.4191,43.554,148.3125,99.2111,99.4937,0.00248549,0.197298,20.7931,171.275,-0.0254147,0.0,0.0
1833,458,39.9438,43.3057,149.844,99.3067,99.5496,0.0024497,0.196728,20.7954,171.105,-0.0218311,0.0,0.0
1846,461.25,40.2799,43.9455,149.909,99.4214,99.6175,0.00234824,0.197431,20.7952,170.874,-0.0176059,0.0,0.0
1859,464.5,40.4396,43.6763,148.969,99.5405,100.049,0.00243271,0.19683,20.7942,170.574,-0.0455237,0.0,0.0
1872,467.75,40.4757,43.6721,147.937,99.6918,100.044,0.00248265,0.195548,20.7944,170.334,-0.0315274,0.0,0.0
1885,471,40.214,43.4153,150.621,99.8545,99.9711,0.0024362,0.195344,20.7964,170.164,-0.0104271,0.0,0.0
1898,474.25,40.4247,43.7152,149.685,99.9977,100.424,0.00242234,0.194653,20.798,169.934,-0.0380235,0.0,0.0
1911,477.5,40.0448,43.1349,155.103,100.128,100.326,0.00255822,0.193356,20.7974,169.643,-0.01764,0.0,0.0
1924,480.75,40.3905,43.324,154.655,100.259,100.504,0.00283001,0.194893,20.797,169.353,-0.0218647,0.0,0.0
1937,484,40.2672,43.2475,149.758,100.331,100.748,0.00281243,0.195112,20.7954,169.203,-0.0370491,0.0,0.0
1950,487.25,40.0586,43.1937,150.37,100.353,100.74,0.00270523,0.194365,20.7947,168.883,-0.0343862,0.0,0.0
1963,490.5,40.076,43.2886,150.679,100.36,100.785,0.00255341,0.192883,20.7945,168.743,-0.0377893,0.0,0.0
1976,493.75,40.234,43.3925,149.48,100.319,100.544,0.00242325,0.19315,20.7961,168.532,-0.0199904,0.0,0.0
1989,497,39.7169,43.5147,155.072,100.244,100.577,0.00252873,0.192158,20.7967,168.292,-0.029618,0.0,0.0
2002,500.25,39.7916,43.9664,151.214,100.135,100.82,0.00276149,0.193562,20.7976,167.982,-0.0609264,0.0,0.0
2015,503.5,39.9653,43.7976,149.209,100.021,100.502,0.0028737,0.193848,20.7971,167.832,-0.0428856,0.0,0.0
2028,506.75,40.1228,43.344,152.166,99.9086,100.421,0.00263317,0.193534,20.7963,167.592,-0.0456875,0.0,0.0
2041,510,40.0485,43.3967,149.669,99.7573,100.182,0.00265265,0.192999,20.7979,167.321,-0.0379861,0.0,0.0
2054,513.25,39.8308,43.0571,147.282,99.691,100.027,0.0027169,0.192786,20.7983,167.151,-0.0301053,0.0,0.0
2067,516.5,40.1626,43.0686,155.549,99.6276,100.135,0.00258609,0.191842,20.7983,166.881,-0.0453937,0.0,0.0
2080,519.75,40.0568,43.4721,155.141,99.8049,100.283,0.00241779,0.191375,20.7984,166.511,-0.0426705,0.0,0.0
2093,523,40.3823,42.7693,153.277,99.9875,100.378,0.00234526,0.190689,20.7997,166.41,-0.0348498,0.0,0.0
2106,526.25,40.2887,42.3501,154.423,100.196,100.63,0.00239309,0.190157,20.8011,166.2,-0.0385712,0.0,0.0
2119,529.5,39.843,43.0172,146.948,100.326,100.876,0.00245865,0.190356,20.8024,166.03,-0.0488405,0.0,0.0
2132,532.75,39.9363,43.055,148.038,100.38,100.95,0.00267977,0.191,20.8012,165.69,-0.0505827,0.0,0.0
2145,536,39.6972,43.3797,155.048,100.373,100.672,0.00271052,0.190782,20.8009,165.55,-0.0265845,0.0,0.0
2158,539.25,39.551,43.1175,148.245,100.278,100.465,0.00250587,0.190127,20.8026,165.339,-0.0166769,0.0,0.0
2171,542.5,40.0206,43.3198,149.075,100.126,100.426,0.00254267,0.189734,20.803,165.089,-0.0267607,0.0,0.0
2184,545.75,39.9156,43.5435,146.206,99.9513,99.8005,0.00271487,0.190611,20.8032,164.919,0.0134897,0.0,0.0
2197,549,40.1942,43.524,150.916,100.037,100.414,0.00248614,0.190664,20.8041,164.719,-0.0336009,0.0,0.0
2210,552.25,40.3337,43.1345,149.616,100.143,100.492,0.00225224,0.190313,20.805,164.479,-0.0310587,0.0,0.0
2223,555.5,39.6306,43.1219,152.681,100.254,100.526,0.00222487,0.190117,20.8053,164.148,-0.0242104,0.0,0.0
2236,558.75,39.7234,42.7155,149.342,100.362,100.937,0.00242197,0.188915,20.8053,163.938,-0.0509919,0.0,0.0
2249,562,39.6753,42.9485,152.691,100.441,100.598,0.00252085,0.18833,20.806,163.718,-0.0140014,0.0,0.0
2262,565.25,39.512,41.9623,151.733,100.493,101.066,0.00258168,0.189724,20.807,163.388,-0.0508693,0.0,0.0
2275,568.5,39.6915,42.7092,152.808,100.561,101.135,0.00251807,0.189686,20.8058,163.328,-0.050836,0.0,0.0
2288,571.75,39.9176,43.1203,151.391,100.608,100.878,0.00249798,0.189,20.8039,163.157,-0.0239391,0.0,0.0
2301,575,39.5812,43.1317,150.559,100.625,101.223,0.0023488,0.18768,20.8044,162.917,-0.0529713,0.0,0.0
2314,578.25,40.0472,43.593,150.033,100.655,101.031,0.00231016,0.189926,20.8048,162.707,-0.0333325,0.0,0.0
2327,581.5,39.6247,42.9238,149.523,100.667,101.274,0.00230785,0.189772,20.8032,162.477,-0.0537283,0.0,0.0
2340,584.75,39.8976,43.411,151.677,100.707,101.291,0.00240913,0.189628,20.8012,162.177,-0.0516733,0.0,0.0
2353,588,39.4406,43.1706,152.402,100.686,100.881,0.0025626,0.189685,20.8007,161.896,-0.0173092,0.0,0.0
2366,591.25,39.8945,43.1032,153.058,100.702,101.194,0.00282615,0.190875,20.8018,161.746,-0.0436172,0.0,0.0
2379,594.5,39.6334,42.2886,153.322,100.719,101.205,0.00303395,0.191813,20.803,161.526,-0.043036,0.0,0.0
2392,597.75,39.9453,42.6864,151.605,100.685,100.523,0.0029978,0.190882,20.8023,161.276,0.0143033,0.0,0.0
2405,601,39.8255,42.7402,153.545,100.682,100.92,0.00283672,0.189829,20.8021,161.106,-0.0210554,0.0,0.0
2418,604.25,39.3175,43.2077,148.225,100.654,100.831,0.00268803,0.190365,20.8036,160.885,-0.0156802,0.0,0.0
2431,607.5,39.3733,43.1826,147.78,100.615,101.238,0.00263226,0.190986,20.8034,160.705,-0.0551515,0.0,0.0
2444,610.75,39.8333,42.9782,151.588,100.569,100.975,0.00266998,0.191997,20.8024,160.405,-0.0360368,0.0,0.0
2457,614,39.8625,43.348,153.829,100.54,101.326,0.00245766,0.192247,20.8014,160.255,-0.0695917,0.0,0.0
2470,617.25,39.3756,42.792,148.135,100.52,100.819,0.00227232,0.191674,20.8,160.015,-0.0265423,0.0,0.0
2483,620.5,39.4737,43.2201,148.066,100.473,101.346,0.00245132,0.191439,20.8003,159.734,-0.0772845,0.0,0.0
2496,623.75,39.8997,43.1534,153.945,100.436,100.821,0.00254558,0.190551,20.7988,159.594,-0.0341617,0.0,0.0
2509,627,39.7165,42.8154,149.378,100.361,100.804,0.00257928,0.191027,20.7992,159.364,-0.0393747,0.0,0.0
2522,630.25,39.7899,43.0962,153.587,100.301,100.773,0.00273207,0.191281,20.7997,159.094,-0.0419037,0.0,0.0
2535,633.5,39.5348,42.6119,152.282,100.251,100.631,0.00275594,0.190696,20.7998,158.844,-0.0337682,0.0,0.0
2548,636.75,39.7115,43.0138,152.642,100.205,100.433,0.00263455,0.191248,20.7999,158.703,-0.0202387,0.0,0.0
2561,640,39.4816,42.7279,153.931,100.166,100.562,0.00255325,0.192028,20.8005,158.413,-0.0352705,0.0,0.0
2574,643.25,39.6019,42.7282,149.954,100.112,100.717,0.00261738,0.191477,20.8017,158.123,-0.0538848,0.0,0.0
2587,646.5,39.7525,42.6794,150.756,100.075,100.451,0.00261118,0.191164,20.802,158.013,-0.0335383,0.0,0.0
2600,649.75,39.6863,43.0157,151.598,100.043,100.95,0.00257186,0.190925,20.8035,157.833,-0.0806792,0.0,0.0
2613,653,39.3559,42.3035,151.313,99.9757,100.382,0.00269125,0.191065,20.8042,157.582,-0.0362009,0.0,0.0
2626,656.25,39.8071,42.7056,147.809,99.9488,100.294,0.00271859,0.190445,20.8044,157.432,-0.0307712,0.0,0.0
2639,659.5,39.6628,42.5902,151.779,99.9354,100.063,0.00268433,0.18975,20.8044,157.172,-0.0113848,0.0,0.0
2652,662.75,39.5777,42.6443,152.436,100.046,100.569,0.00252473,0.190054,20.8047,156.952,-0.0466522,0.0,0.0
2665,666,39.5434,42.4039,153.651,100.107,100.599,0.00228825,0.190653,20.8058,156.632,-0.0438436,0.0,0.0
2678,669.25,39.6033,42.5175,148.229,100.199,100.345,0.00222011,0.189444,20.803,156.521,-0.0130722,0.0,0.0
2691,672.5,39.4071,42.7075,146.839,100.242,100.722,0.00237112,0.19064,20.8041,156.311,-0.0427374,0.0,0.0
2704,675.75,40.1615,42.8592,151.488,100.279,100.244,0.00244467,0.190287,20.8044,156.001,0.00305117,0.0,0.0
2717,679,39.4736,42.5184,148.173,100.327,100.557,0.00252804,0.189979,20.8044,155.871,-0.0204495,0.0,0.0
2730,682.25,39.7178,42.1518,151.999,100.332,100.787,0.00257643,0.18931,20.804,155.681,-0.0403793,0.0,0.0
2743,685.5,39.5574,42.1023,147.754,100.326,101.008,0.00248061,0.188696,20.8026,155.471,-0.0605511,0.0,0.0
2756,688.75,39.1199,42.2581,148.319,100.299,100.437,0.00244755,0.18959,20.802,155.22,-0.0122487,0.0,0.0
2769,692,39.4615,42.3595,150.315,100.224,100.183,0.00236323,0.189504,20.8033,155.02,0.0036549,0.0,0.0
2782,695.25,39.1237,42.2604,152.778,100.138,100.374,0.00233558,0.188945,20.8039,154.83,-0.0211088,0.0,0.0
2795,698.5,39.0907,42.1079,154.255,99.9802,100.188,0.00236945,0.188395,20.8054,154.49,-0.0185152,0.0,0.0
2808,701.75,39.0113,41.6353,150.079,99.8285,99.8612,0.00247899,0.18924,20.8054,154.35,-0.00292755,0.0,0.0
2821,705,39.1549,41.7533,147.367,99.6731,99.8736,0.00255336,0.18972,20.8044,154.169,-0.0179554,0.0,0.0
2834,708.25,39.2866,42.571,151.793,99.5804,100.642,0.0025384,0.18892,20.8034,153.919,-0.0947511,0.0,0.0
2847,711.5,39.3751,42.447,151.476,99.6503,100.042,0.00250094,0.188431,20.8043,153.749,-0.0350754,0.0,0.0
2860,714.75,39.7859,42.3899,153.21,99.7565,100.389,0.00281302,0.191987,20.8043,153.519,-0.0564517,0.0,0.0
2873,718,38.9874,42.4652,151.496,99.8826,100.502,0.00295656,0.191925,20.8013,153.239,-0.055241,0.0,0.0
2886,721.25,39.3518,42.1167,152.106,100.015,100.368,0.00279774,0.192049,20.8,153.008,-0.0315216,0.0,0.0
2899,724.5,39.5625,42.037,155.016,100.117,100.285,0.00266176,0.191728,20.7996,152.868,-0.0149653,0.0,0.0
2912,727.75,39.5585,42.6442,149.311,100.203,100.757,0.00250279,0.191073,20.8004,152.698,-0.0492336,0.0,0.0
2925,731,39.1868,42.6907,153.536,100.269,101.026,0.00253595,0.191383,20.8005,152.408,-0.0671939,0.0,0.0
2938,734.25,39.4353,42.502,149.899,100.292,100.805,0.00262976,0.191818,20.8001,152.268,-0.0456538,0.0,0.0
2951,737.5,38.9471,42.3069,152.302,100.325,100.698,0.0026581,0.192462,20.8003,152.027,-0.0332261,0.0,0.0
2964,740.75,39.1883,42.8434,155.941,100.312,100.871,0.00282036,0.192579,20.8009,151.777,-0.0496856,0.0,0.0
2977,744,38.7828,42.4242,150.192,100.269,100.766,0.00271965,0.192018,20.8011,151.557,-0.0442022,0.0,0.0
2990,747.25,39.2986,42.2344,153.149,100.192,100.224,0.0027529,0.192655,20.8012,151.417,-0.00283805,0.0,0.0
3003,750.5,38.9584,42.408,149.153,100.092,100.202,0.00270437,0.193382,20.8001,151.167,-0.00980436,0.0,0.0
3016,753.75,39.5238,42.6515,151.448,99.9533,100.375,0.00247522,0.192618,20.7997,150.866,-0.0376048,0.0,0.0
3029,757,39.4966,42.9171,149.314,99.8191,100.229,0.00246981,0.192902,20.8002,150.746,-0.0365844,0.0,0.0
3042,760.25,39.1891,42.4315,148.059,99.667,99.8908,0.0027567,0.194966,20.7999,150.606,-0.0200401,0.0,0.0
3055,763.5,39.41,42.7459,151.15,99.4877,99.5659,0.00297723,0.19604,20.7991,150.226,-0.00702059,0.0,0.0
3068,766.75,39.5218,42.7484,147.196,99.3453,99.7948,0.00288802,0.195536,20.7977,150.116,-0.0403307,0.0,0.0
3081,770,39.5933,42.8136,151.115,99.2311,99.6423,0.00259505,0.195657,20.7981,149.895,-0.036956,0.0,0.0
3094,773.25,39.4199,43.1115,146.994,99.1375,99.6313,0.00254448,0.196634,20.7985,149.685,-0.0443975,0.0,0.0
3107,776.5,39.9735,42.519,151.342,99.1115,99.6724,0.00247653,0.196955,20.7988,149.405,-0.0504279,0.0,0.0
3120,779.75,39.7957,43.1426,149.264,99.1143,99.5859,0.00245671,0.197126,20.7975,149.275,-0.0424147,0.0,0.0
3133,783,39.8278,42.9282,149.086,99.1701,99.5525,0.00258115,0.198353,20.7961,149.035,-0.034391,0.0,0.0
3146,786.25,39.7408,43.3542,150.312,99.2144,99.2605,0.00266907,0.200856,20.7942,148.744,-0.00415457,0.0,0.0
3159,789.5,40.184,43.3625,150.547,99.3201,100.196,0.00270202,0.200706,20.7917,148.614,-0.0784234,0.0,0.0
3172,792.75,40.1461,43.44,148.51,99.447,99.9768,0.00257573,0.200565,20.7911,148.344,-0.0474773,0.0,0.0
3185,796,40.0312,43.3343,147.563,99.5918,100.227,0.00236611,0.201716,20.791,148.154,-0.0567866,0.0,0.0
3198,799.25,39.8672,43.6416,148.38,99.7398,100.069,0.00209288,0.203185,20.7893,147.894,-0.0294459,0.0,0.0
3211,802.5,39.6924,44.014,152.081,99.8891,100.191,0.00186957,0.20394,20.7887,147.724,-0.0270011,0.0,0.0
3224,805.75,39.7877,43.5922,154.713,100.025,100.136,0.00216937,0.204032,20.7886,147.473,-0.00992112,0.0,0.0
3237,809,40.3654,43.5811,143.711,100.145,100.545,0.00239135,0.205085,20.7869,147.183,-0.0355502,0.0,0.0
3250,812.25,39.8161,43.9893,150.17,100.26,100.377,0.00221669,0.206173,20.7854,147.043,-0.0104847,0.0,0.0
3263,815.5,40.1211,44.074,146.715,100.362,100.803,0.00192079,0.207735,20.7848,146.833,-0.0392115,0.0,0.0
3276,818.75,40.1474,44.0355,152.428,100.416,100.644,0.00179834,0.20962,20.7839,146.552,-0.0202878,0.0,0.0
3289,822,40.2117,44.3833,150.453,100.479,100.763,0.00194808,0.210998,20.7819,146.392,-0.0252315,0.0,0.0
3302,825.25,40.747,44.6737,149.912,100.528,100.86,0.00183276,0.213349,20.7805,146.162,-0.0294187,0.0,0.0
3315,828.5,40.3765,43.4159,145.615,100.556,100.822,0.00179527,0.215488,20.7778,145.912,-0.0236161,0.0,0.0
3328,831.75,40.1943,44.3899,147.653,100.58,100.842,0.00187696,0.216031,20.7739,145.622,-0.0232262,0.0,0.0
3341,835,40.4671,44.1574,149.011,100.6,100.908,0.00203081,0.217974,20.7712,145.492,-0.0273334,0.0,0.0
3354,838.25,40.3617,45.1219,151.377,100.608,101.074,0.00203345,0.22045,20.7698,145.241,-0.0412814,0.0,0.0
3367,841.5,40.9071,44.8867,152.595,100.603,100.39,0.0018933,0.223176,20.7676,144.921,0.0189834,0.0,0.0
3380,844.75,41.0404,46.2972,148.827,100.617,101.094,0.0018139,0.224512,20.7638,144.781,-0.0422247,0.0,0.0
3393,848,40.8562,45.6741,148.589,100.611,100.959,0.00200977,0.226995,20.7626,144.531,-0.0308065,0.0,0.0
3406,851.25,41.3373,45.2409,148.767,100.588,100.903,0.00217706,0.229933,20.7622,144.28,-0.0279157,0.0,0.0
3419,854.5,41.5334,45.1784,146.704,100.582,100.749,0.00226672,0.232369,20.76,144.05,-0.0148218,0.0,0.0
3432,857.75,41.304,45.6011,151.185,100.542,100.847,0.00247617,0.23452,20.7577,143.8,-0.0270401,0.0,0.0
3445,861,41.7119,46.0552,144.628,100.515,100.73,0.00240481,0.236697,20.7549,143.56,-0.0191258,0.0,0.0
3458,864.25,41.8417,46.1789,147.938,100.471,100.932,0.00220424,0.237939,20.752,143.239,-0.04087,0.0,0.0
3471,867.5,41.6055,46.8056,147.712,100.454,100.762,0.00215289,0.238748,20.7498,143.059,-0.0273895,0.0,0.0
3484,870.75,42.864,46.6698,146.836,100.418,100.651,0.0020973,0.241128,20.7479,142.799,-0.0206582,0.0,0.0
3497,874,42.8413,46.747,147.381,100.378,100.83,0.00203426,0.243971,20.7465,142.509,-0.0401349,0.0,0.0
3510,877.25,43.1521,46.6843,148.064,100.336,100.387,0.00180618,0.24729,20.7424,142.289,-0.00452383,0.0,0.0
3523,880.5,42.4784,46.969,152.325,100.282,100.881,0.00174028,0.248495,20.7392,142.028,-0.0532917,0.0,0.0
3536,883.75,42.5573,47.6477,147.842,100.229,100.347,0.00171816,0.250177,20.7377,141.758,-0.0104442,0.0,0.0
3549,887,42.5768,47.6761,145.951,100.162,100.592,0.00176077,0.252889,20.736,141.408,-0.0383017,0.0,0.0
3562,890.25,43.238,47.2434,148.342,100.095,100.229,0.00193659,0.255789,20.7308,141.238,-0.0119005,0.0,0.0
3575,893.5,42.6459,48.0345,145.924,100.046,100.181,0.00200649,0.256771,20.7276,140.997,-0.0119965,0.0,0.0
3588,896.75,43.0971,47.9603,147.026,99.9704,100.288,0.00204821,0.258773,20.7259,140.647,-0.0283752,0.0,0.0
3601,900,43.2769,47.8389,148.032,99.9281,100.508,0.00186676,0.26247,20.7254,140.437,-0.0516765,0.0,0.0
3614,903.25,43.5737,48.6014,146.771,99.8765,100.102,0.00191451,0.268112,20.7218,140.157,-0.0201138,0.0,0.0
3627,906.5,43.7636,49.4755,149.464,99.8301,100.165,0.00191538,0.270266,20.7145,139.876,-0.0298911,0.0,0.0
3640,909.75,44.0641,49.4181,149.347,99.8102,99.7842,0.00179481,0.272988,20.7119,139.536,0.00232069,0.0,0.0
3653,913,44.2029,49.6842,148.275,99.7988,100.397,0.00207472,0.277742,20.7097,139.306,-0.0533876,0.0,0.0
3666,916.25,44.2296,50.006,145.53,99.7931,100.045,0.00227849,0.280165,20.7048,139.026,-0.0224979,0.0,0.0
3679,919.5,45.2494,50.1557,144.165,99.7654,99.5066,0.00224635,0.281891,20.7001,138.635,0.0232096,0.0,0.0
3692,922.75,45.1639,50.804,147.062,99.7443,99.4985,0.00198768,0.285052,20.6989,138.445,0.0220451,0.0,0.0
3705,926,45.1285,50.894,146.265,99.7248,99.3709,0.00183296,0.288172,20.6931,138.105,0.0317621,0.0,0.0
3718,929.25,45.8228,50.962,145.005,99.6987,99.4058,0.00202111,0.291306,20.6907,137.815,0.0262932,0.0,0.0
3731,932.5,45.6815,51.2233,145.665,99.6605,98.9518,0.00212144,0.293952,20.6868,137.514,0.0637649,0.0,0.0
3744,935.75,46.1234,51.7716,143.047,99.6325,99.8617,0.00207424,0.295133,20.6838,137.204,-0.0205322,0.0,0.0
3757,939,46.2397,51.9051,147.526,99.5706,99.304,0.00202993,0.298025,20.6824,136.884,0.0239585,0.0,0.0
3770,942.25,46.2089,51.9559,143.299,99.5218,99.4679,0.00197945,0.301442,20.68,136.463,0.00484305,0.0,0.0
3783,945.5,46.8776,52.7862,144.586,99.4555,99.143,0.00211565,0.303773,20.6771,136.283,0.0281261,0.0,0.0
3796,948.75,47.1414,52.9568,147.658,99.3941,99.0488,0.00226991,0.309125,20.6724,135.913,0.0310955,0.0,0.0
3809,952,47.4059,53.2245,144.043,99.3242,98.4243,0.00229789,0.313685,20.6654,135.543,0.0813248,0.0,0.0
3822,955.25,47.0806,52.8633,144.124,99.2579,98.5653,0.0023639,0.314292,20.6602,135.282,0.0625708,0.0,0.0
3835,958.5,47.8613,53.8957,144.228,99.2022,98.1553,0.00217711,0.31627,20.6588,134.942,0.0947988,0.0,0.0
3848,961.75,47.487,53.6756,146.823,99.1566,97.6736,0.0019939,0.320253,20.6558,134.532,0.134651,0.0,0.0
3861,965,48.1838,54.1704,149.223,99.1367,98.8634,0.00214536,0.323123,20.6512,134.231,0.024665,0.0,0.0
3874,968.25,47.9565,54.0049,145.499,99.1241,98.1968,0.00233493,0.326496,20.648,133.931,0.083979,0.0,0.0
3887,971.5,48.4781,54.8407,143.507,99.1302,98.3431,0.00226071,0.327729,20.6444,133.601,0.0712336,0.0,0.0
3900,974.75,48.6343,54.9681,142.509,99.1607,98.246,0.00229863,0.331074,20.6417,133.13,0.0828013,0.0,0.0
3913,978,49.5504,55.6804,141.075,99.2221,98.1849,0.00230595,0.334665,20.6384,132.87,0.0938976,0.0,0.0
3926,981.25,49.1299,55.9805,139.969,99.2868,98.301,0.00238583,0.339598,20.6341,132.54,0.0891575,0.0,0.0
3939,984.5,49.754,55.7884,143.924,99.3636,97.8824,0.00257699,0.344218,20.6282,132.109,0.134202,0.0,0.0
3952,987.75,49.6932,56.4258,148.741,99.4616,98.0864,0.00260035,0.347049,20.6228,131.849,0.124405,0.0,0.0
3965,991,50.4968,56.674,141.606,99.58,98.408,0.00268214,0.349224,20.6184,131.439,0.105781,0.0,0.0
3978,994.25,50.6152,57.0624,143.802,99.7057,98.5901,0.00291344,0.351795,20.6161,131.099,0.100536,0.0,0.0
3991,997.5,50.4282,57.9161,144.865,99.815,97.9808,0.00305974,0.356693,20.6136,130.628,0.165722,0.0,0.0
4004,1000.75,51.0783,58.0158,139.297,99.9419,97.4643,0.00300097,0.359864,20.6086,130.288,0.224304,0.0,0.0
4017,1004,51.2973,58.0529,142.671,100.06,97.4485,0.00300031,0.362221,20.6033,129.937,0.236325,0.0,0.0
4030,1007.25,51.3909,58.0206,140.751,100.167,97.1279,0.00304425,0.364109,20.5996,129.457,0.275319,0.0,0.0
4043,1010.5,51.6103,58.3321,146.323,100.266,98.0812,0.00302006,0.367921,20.5968,129.187,0.196822,0.0,0.0
4056,1013.75,51.8406,58.2702,140.087,100.314,97.7586,0.00288583,0.370909,20.5933,128.756,0.230529,0.0,0.0
4069,1017,51.8552,58.9169,141.397,100.33,97.8461,0.00283723,0.374099,20.5903,128.436,0.224026,0.0,0.0
4082,1020.25,52.1487,59.0039,144.881,100.371,97.805,0.0028309,0.376932,20.5875,127.956,0.231365,0.0,0.0
4095,1023.5,52.6966,59.5619,138.276,100.364,97.2177,0.00305932,0.376803,20.5851,127.585,0.284599,0.0,0.0
4108,1026.75,53.1954,60.4571,142.501,100.32,97.2942,0.00354236,0.381338,20.583,127.195,0.273663,0.0,0.0
4121,1030,52.8568,60.7243,141.381,100.281,97.9584,0.00355946,0.38492,20.5793,126.685,0.209357,0.0,0.0
4134,1033.25,53.7039,61.193,143.624,100.192,97.9464,0.00375001,0.389906,20.5735,126.404,0.202545,0.0,0.0
4147,1036.5,53.9721,61.295,139.542,100.104,97.4385,0.00356316,0.392766,20.5665,126.004,0.24113,0.0,0.0
4160,1039.75,54.1628,61.2844,140.03,99.9956,96.9291,0.00328655,0.394302,20.5626,125.513,0.278302,0.0,0.0
4173,1043,54.4845,61.901,144.339,99.8887,96.5459,0.00320375,0.396452,20.5606,125.143,0.304138,0.0,0.0
4186,1046.25,54.5372,61.7914,142.163,99.7719,97.8533,0.00321842,0.397004,20.559,124.773,0.173505,0.0,0.0
4199,1049.5,55.2085,62.6484,141.71,99.7044,97.1245,0.00332845,0.400567,20.5571,124.402,0.234248,0.0,0.0
4212,1052.75,55.3822,63.3588,140.203,99.6255,95.5257,0.00348628,0.404596,20.5544,123.922,0.375493,0.0,0.0
4225,1056,55.2437,63.2411,141.932,99.7622,96.3858,0.00365721,0.407024,20.549,123.572,0.307645,0.0,0.0
4238,1059.25,55.4688,62.4524,139.207,99.9232,97.0935,0.00385549,0.40793,20.5472,123.141,0.256692,0.0,0.0
4251,1062.5,55.7714,62.6782,144.546,100.074,96.8268,0.00400114,0.409975,20.5447,122.671,0.294709,0.0,0.0
4264,1065.75,56.0785,63.3494,145.111,100.25,96.0565,0.00422682,0.406745,20.541,122.301,0.381822,0.0,0.0
4277,1069,55.7038,63.5475,137.495,100.346,95.8554,0.00437009,0.405809,20.5446,121.89,0.409069,0.0,0.0
4290,1072.25,56.0331,63.5604,140.926,100.388,96.9296,0.00455011,0.409152,20.5462,121.46,0.313293,0.0,0.0
4303,1075.5,56.1324,63.7093,140.65,100.364,97.234,0.0043459,0.412431,20.5424,121.009,0.283106,0.0,0.0
4316,1078.75,56.3825,63.4726,141.351,100.298,96.7724,0.00417606,0.413605,20.5382,120.679,0.319722,0.0,0.0
4329,1082,56.1094,63.5318,136.456,100.14,96.2195,0.00396052,0.413203,20.5369,120.289,0.356849,0.0,0.0
4342,1085.25,56.3724,63.9541,145.514,99.959,96.3949,0.00396101,0.412687,20.5371,119.748,0.324415,0.0,0.0
4355,1088.5,57.0528,64.1315,145.014,100.068,95.864,0.00405021,0.41236,20.5376,119.428,0.383463,0.0,0.0
4368,1091.75,57.4022,64.2439,137.926,100.196,97.5536,0.00409769,0.414102,20.5377,119.028,0.238812,0.0,0.0
4381,1095,57.3774,64.1415,142.188,100.31,96.4785,0.00410941,0.411616,20.5361,118.597,0.347986,0.0,0.0
4394,1098.25,57.5449,64.1303,142.954,100.477,97.1761,0.00373794,0.413045,20.5375,118.137,0.298445,0.0,0.0
4407,1101.5,57.6052,65.0965,139.59,100.603,96.8101,0.00369986,0.417229,20.5369,117.736,0.343404,0.0,0.0
4420,1104.75,57.4116,64.7212,138.684,100.726,97.0768,0.00361804,0.417502,20.5328,117.376,0.329694,0.0,0.0
4433,1108,57.7965,65.0959,144.125,100.81,96.6429,0.00357112,0.419466,20.5307,116.846,0.377221,0.0,0.0
4446,1111.25,57.8973,65.4215,141.384,100.867,97.5584,0.00381663,0.421255,20.5278,116.535,0.297978,0.0,0.0
4459,1114.5,57.9465,66.1974,136.811,100.892,96.4785,0.00400236,0.422932,20.525,116.095,0.39971,0.0,0.0
4472,1117.75,58.4558,65.4736,142.411,100.845,96.1803,0.00427792,0.423892,20.5221,115.584,0.423153,0.0,0.0
4485,1121,58.7647,65.8992,143.799,100.773,97.0318,0.00444117,0.424439,20.5209,115.254,0.338049,0.0,0.0
4498,1124.25,58.6977,66.3797,142.753,100.666,97.1733,0.00449995,0.426011,20.5189,114.874,0.315544,0.0,0.0
4511,1127.5,58.3466,66.0632,141.102,100.532,96.2768,0.00469095,0.426572,20.5173,114.413,0.386402,0.0,0.0
4524,1130.75,59.0967,66.3477,137.927,100.338,95.1849,0.00473201,0.427499,20.5158,113.963,0.471058,0.0,0.0
4537,1134,59.1167,66.6779,136.272,100.151,94.6072,0.00484249,0.429386,20.5143,113.513,0.508854,0.0,0.0
4550,1137.25,59.5134,66.2982,140.023,99.9501,95.2819,0.00467764,0.431111,20.5111,113.122,0.427377,0.0,0.0
4563,1140.5,59.1827,66.1715,137.705,99.7504,94.795,0.00448865,0.430737,20.5092,112.632,0.455288,0.0,0.0
4576,1143.75,59.7719,66.6631,142.528,99.571,94.8084,0.00461854,0.427134,20.5093,112.292,0.437947,0.0,0.0
4589,1147,59.1859,66.6432,138.082,99.4181,93.3753,0.00467278,0.430192,20.5119,111.841,0.560306,0.0,0.0
4602,1150.25,58.9044,66.2407,140.346,99.2762,93.8646,0.00474066,0.430693,20.5081,111.521,0.50084,0.0,0.0
4615,1153.5,59.4333,66.8281,144.098,99.1997,94.5379,0.0048401,0.42925,20.5059,111.11,0.430091,0.0,0.0
4628,1156.75,59.5634,66.2197,138.205,99.1631,92.7312,0.00480678,0.426693,20.5071,110.76,0.599213,0.0,0.0
4641,1160,59.6803,66.2183,139.036,99.166,94.041,0.00476051,0.426775,20.5078,110.36,0.474145,0.0,0.0
4654,1163.25,59.599,66.5213,140.306,99.2294,93.8608,0.00478044,0.422094,20.5083,109.889,0.496993,0.0,0.0
4667,1166.5,59.248,65.8023,139.392,99.2961,93.8513,0.00484543,0.416831,20.5123,109.599,0.503907,0.0,0.0
4680,1169.75,59.3472,65.0733,143.55,99.3868,94.063,0.00482287,0.408473,20.5187,109.279,0.491932,0.0,0.0
4693,1173,58.4371,64.6339,141.5,99.4958,93.9554,0.00451579,0.399492,20.5267,108.948,0.511944,0.0,0.0
4706,1176.25,58.6536,64.0477,139.44,99.5857,94.332,0.00436915,0.389635,20.5351,108.628,0.484275,0.0,0.0
4719,1179.5,58.1504,63.2177,139.754,99.6731,94.7171,0.00435662,0.378768,20.5465,108.288,0.455708,0.0,0.0
4732,1182.75,57.3799,62.0605,147.77,99.7663,95.1563,0.00435988,0.365681,20.5606,108.078,0.422722,0.0,0.0
4745,1186,57.3765,61.4751,141.564,99.8358,94.7802,0.00406671,0.351358,20.5771,107.697,0.464331,0.0,0.0
4758,1189.25,56.6963,60.8423,143.914,99.9053,94.1036,0.00388527,0.342152,20.5924,107.557,0.53457,0.0,0.0
4771,1192.5,55.8392,59.8368,140.737,99.9598,94.6885,0.00383923,0.326582,20.602,107.237,0.484079,0.0,0.0
4784,1195.75,55.4833,59.1204,145.582,99.9989,94.462,0.0036622,0.313203,20.618,107.017,0.508967,0.0,0.0
4797,1199,54.9089,58.615,146.762,100.029,94.5962,0.00368084,0.300078,20.6335,106.887,0.498927,0.0,0.0
4810,1202.25,54.4279,57.7306,147.262,100.043,94.7898,0.00339075,0.287326,20.6456,106.686,0.481974,0.0,0.0
4823,1205.5,53.8252,57.0881,148.958,100.055,95.7287,0.00321111,0.277054,20.6622,106.416,0.394915,0.0,0.0
4836,1208.75,53.1848,55.7586,152.453,100.068,97.5871,0.00314421,0.265388,20.6743,106.256,0.224353,0.0,0.0
4849,1212,52.5409,55.0832,147.616,100.059,97.7357,0.00310076,0.254539,20.6877,106.196,0.209886,0.0,0.0
4862,1215.25,51.8336,53.7244,153.317,100.062,97.7376,0.00304257,0.243751,20.6986,106.056,0.210001,0.0,0.0
4875,1218.5,51.274,52.561,150.849,100.007,98.1906,0.00271383,0.229527,20.7128,105.846,0.163742,0.0,0.0
4888,1221.75,50.2431,51.6809,150.586,100.021,98.8066,0.00276108,0.214466,20.7264,105.836,0.109137,0.0,0.0
4901,1225,49.6425,50.5898,148.104,100,99.3246,0.00307278,0.200248,20.7442,105.706,0.0605651,0.0,0.0
4914,1228.25,49.0588,49.9843,146.572,99.9773,99.6987,0.00323548,0.188956,20.7638,105.615,0.0249348,0.0,0.0
4927,1231.5,48.2482,48.4549,150.036,99.9623,100.271,0.00346546,0.17771,20.7779,105.525,-0.0275268,0.0,0.0
4940,1234.75,47.5821,47.4616,152.153,99.9135,99.9912,0.00375963,0.166779,20.7927,105.445,-0.00694491,0.0,0.0
4953,1238,46.572,46.849,152.39,99.8659,100.436,0.00430387,0.156749,20.8067,105.395,-0.0508676,0.0,0.0
4966,1241.25,45.7815,45.4625,150.58,99.8244,100.119,0.00455734,0.149793,20.8202,105.225,-0.0263505,0.0,0.0
4979,1244.5,44.9333,45.0541,155.827,99.7618,99.7403,0.00487643,0.143316,20.8272,105.225,0.00192561,0.0,0.0
4992,1247.75,44.3125,43.9663,152.452,99.6865,99.951,0.00489704,0.137434,20.8368,105.175,-0.0236748,0.0,0.0
5005,1251,43.9519,43.2353,150.432,99.5788,99.8884,0.00518809,0.132729,20.8444,105.035,-0.0277416,0.0,0.0
5018,1254.25,43.2199,42.4625,150.844,99.4999,99.8101,0.00557319,0.128781,20.8513,105.055,-0.0278105,0.0,0.0
5031,1257.5,42.6259,41.5615,150.193,99.3872,99.9004,0.00595918,0.12477,20.8558,105.005,-0.0460146,0.0,0.0
5044,1260.75,41.8951,41.6319,153.426,99.3075,99.5606,0.00658494,0.120619,20.8613,104.925,-0.0227436,0.0,0.0
5057,1264,41.6456,40.3166,151.405,99.24,99.5945,0.00712332,0.11935,20.8659,104.815,-0.0318647,0.0,0.0
5070,1267.25,40.9793,39.9492,153.182,99.2006,99.3508,0.00736713,0.118154,20.8693,104.815,-0.0135256,0.0,0.0
5083,1270.5,40.7989,39.887,156.183,99.1424,99.5788,0.00760665,0.116635,20.8693,104.775,-0.039242,0.0,0.0
5096,1273.75,39.3475,39.872,157.809,99.096,99.2792,0.00787435,0.114281,20.872,104.585,-0.0164965,0.0,0.0
5109,1277,39.6394,39.0608,150.657,99.105,99.4416,0.00811927,0.112953,20.875,104.645,-0.0303004,0.0,0.0
5122,1280.25,38.9684,38.874,153.865,99.155,99.3317,0.00807651,0.112138,20.8768,104.615,-0.0159107,0.0,0.0
5135,1283.5,39.249,38.1407,155.296,99.2339,99.5014,0.00801821,0.111739,20.8781,104.504,-0.0240502,0.0,0.0
5148,1286.75,38.2034,38.1104,156.493,99.3718,100.083,0.00787979,0.111296,20.8779,104.474,-0.0637581,0.0,0.0
5161,1290,38.5922,37.7654,153.747,99.5633,100.065,0.00781582,0.109791,20.8795,104.464,-0.0449301,0.0,0.0
5174,1293.25,38.0968,37.642,152.125,99.7805,100.33,0.00766148,0.108196,20.881,104.424,-0.0490692,0.0,0.0
5187,1296.5,37.9199,36.8041,152.445,99.9895,99.8129,0.00769311,0.107111,20.8824,104.274,0.0157952,0.0,0.0
5200,1299.75,37.4803,37.3436,150.849,100.209,100.471,0.00823837,0.106095,20.8844,104.334,-0.0233555,0.0,0.0
5213,1303,37.0458,36.6777,157.814,100.42,100.724,0.00827923,0.105571,20.8851,104.264,-0.0270011,0.0,0.0
5226,1306.25,37.0822,36.1836,152.491,100.573,101.088,0.00779005,0.105265,20.887,104.094,-0.0456549,0.0,0.0
5239,1309.5,36.5827,35.4655,157.86,100.708,100.76,0.00760198,0.105656,20.8879,104.124,-0.00464586,0.0,0.0
5252,1312.75,36.5525,35.5647,156.917,100.781,100.823,0.00777395,0.105563,20.8882,104.024,-0.00373898,0.0,0.0
5265,1316,34.5353,33.851,155.533,100.804,101.077,0.00797027,0.103323,20.8883,104.014,-0.0241431,0.0,0.0
5278,1319.25,34.0618,33.4042,155.815,100.782,101.4,0.00781359,0.102942,20.8901,103.944,-0.054636,0.0,0.0
5291,1322.5,33.6554,33.5335,154.974,100.693,100.509,0.00762093,0.103539,20.892,103.984,0.0163725,0.0,0.0
5304,1325.75,33.6685,33.673,150.614,100.549,100.854,0.00743584,0.104817,20.8913,103.944,-0.0270246,0.0,0.0
5317,1329,33.5289,33.535,153.301,100.38,100.406,0.00744621,0.104414,20.8891,103.834,-0.0023149,0.0,0.0
5330,1332.25,33.3544,33.2912,157.728,100.233,100.376,0.00764931,0.10354,20.8899,103.864,-0.0127495,0.0,0.0
5343,1335.5,33.4786,33.1159,157.457,100.046,100.328,0.0077378,0.102988,20.8914,103.834,-0.0251861,0.0,0.0
5356,1338.75,33.3983,33.451,154.956,99.8903,100.371,0.00779015,0.102408,20.8928,103.784,-0.0429011,0.0,0.0
5369,1342,33.3217,32.6622,159.017,100.114,100.406,0.0077913,0.101659,20.8943,103.724,-0.0260215,0.0,0.0
5382,1345.25,32.7114,32.7129,160.154,100.271,100.722,0.00761772,0.10177,20.8955,103.654,-0.0400856,0.0,0.0
5395,1348.5,32.6166,32.8681,156.691,100.313,100.932,0.00748649,0.101816,20.8961,103.534,-0.0549447,0.0,0.0
5408,1351.75,32.348,32.2486,154.864,100.25,100.454,0.00748852,0.102012,20.8956,103.504,-0.0181993,0.0,0.0
5421,1355,32.618,32.4252,155.02,100.079,100.068,0.00741142,0.101145,20.895,103.494,0.000972442,0.0,0.0
5434,1358.25,31.9824,31.6311,153.742,99.8451,100.019,0.00720606,0.100809,20.8957,103.474,-0.0155767,0.0,0.0
5447,1361.5,32.162,31.6028,156.335,99.6259,99.2567,0.00714794,0.101534,20.8968,103.363,0.0331778,0.0,0.0
5460,1364.75,31.597,32.0448,153.713,99.6076,99.9195,0.00727967,0.100178,20.895,103.413,-0.0279296,0.0,0.0
5473,1368,31.7421,31.5838,153.41,99.7284,99.8727,0.00762236,0.0978905,20.8967,103.433,-0.0129122,0.0,0.0
5486,1371.25,31.3983,31.5914,157.45,99.8931,100.095,0.00767617,0.0973437,20.8981,103.393,-0.0180253,0.0,0.0
5499,1374.5,31.5907,31.5983,156.093,100.058,100.354,0.00774577,0.0996237,20.8982,103.263,-0.0263954,0.0,0.0
5512,1377.75,31.148,31.3803,156.668,100.197,100.397,0.00790787,0.0992224,20.8975,103.323,-0.0178177,0.0,0.0
5525,1381,31.2443,31.4464,158.013,100.294,100.153,0.00780671,0.0982203,20.8985,103.253,0.012575,0.0,0.0
5538,1384.25,30.7907,31.1332,150.635,100.299,100.585,0.00777292,0.0977658,20.9,103.173,-0.0254174,0.0,0.0
5551,1387.5,30.6006,31.3745,154.604,100.273,100.542,0.00763222,0.0975599,20.9012,103.223,-0.023945,0.0,0.0
5564,1390.75,31.2629,31.1015,154.928,100.163,100.434,0.00766727,0.097159,20.9018,103.183,-0.0241388,0.0,0.0
5577,1394,30.5605,31.0841,156.267,100.008,99.9983,0.00758896,0.0973219,20.902,103.123,0.000847831,0.0,0.0
5590,1397.25,30.7845,31.0169,154.527,99.8346,100.107,0.00739257,0.097139,20.902,103.013,-0.0243311,0.0,0.0
5603,1400.5,30.9891,31.3134,159.871,99.6455,99.5807,0.00711065,0.0965711,20.9023,103.053,0.00580965,0.0,0.0
5616,1403.75,30.6141,30.9929,159.892,99.4401,99.5233,0.00698048,0.0969386,20.9028,103.073,-0.00747739,0.0,0.0
5629,1407,30.7252,30.6769,156.011,99.242,99.5835,0.00731368,0.0970578,20.9029,102.953,-0.0306948,0.0,0.0
5642,1410.25,30.5833,31.0662,153.162,99.1322,99.1965,0.00733248,0.0964043,20.9033,102.963,-0.00579051,0.0,0.0
5655,1413.5,30.785,31.0491,157.852,99.0912,99.4106,0.0072167,0.0964817,20.9035,102.923,-0.0287551,0.0,0.0
5668,1416.75,29.9013,30.875,156.647,99.105,99.3007,0.00698146,0.0965576,20.9036,102.893,-0.0176251,0.0,0.0
5681,1420,29.7434,30.7866,155.759,99.2067,99.5362,0.00695543,0.0958007,20.9036,102.843,-0.0296362,0.0,0.0
5694,1423.25,29.9947,30.8612,155.587,99.3661,99.4082,0.00707682,0.0963601,20.9018,102.833,-0.00378533,0.0,0.0
5707,1426.5,29.4607,30.308,157.214,99.5336,99.7279,0.00685573,0.0960755,20.9007,102.783,-0.0174196,0.0,0.0
5720,1429.75,29.7811,30.7384,156.551,99.763,99.9811,0.00670937,0.095939,20.9022,102.663,-0.0195154,0.0,0.0
5733,1433,29.6129,30.4238,157.805,99.9924,100.315,0.00668102,0.0962177,20.9023,102.673,-0.0287545,0.0,0.0
5734,1433.25,29.9185,29.9819,156.145,100.015,100.011,0.00668153,0.0962286,20.9023,102.663,0.000391972,0.0,0.0