File: 01_Data/Overstuffed_Chair_Assembly/Cone/Overstuffed_Chair_Assembly_HRRPUA_50.csv
Time after Ignition,Overstuffed_Chair_Assembly_R1,Overstuffed_Chair_Assembly_R2,Overstuffed_Chair_Assembly_R3,Mean,Std. Dev.
0.0,42.6,46.0,24.7,37.8,11.4
0.25,43.0,52.1,27.6,40.9,12.4
0.5,42.8,57.2,31.0,43.7,13.2
0.75,44.2,62.6,33.8,46.9,14.6
1.0,44.1,66.1,41.7,50.6,13.5
1.25,44.8,76.0,49.4,56.7,16.8
1.5,45.2,83.1,55.9,61.4,19.6
1.75,45.9,90.2,61.1,65.7,22.5
2.0,45.6,97.1,69.0,70.6,25.8
2.25,46.8,108.5,76.7,77.3,30.9
2.5,48.0,113.8,83.2,81.7,32.9
2.75,48.2,122.0,90.8,87.0,37.0
3.0,49.8,126.0,96.5,90.8,38.4
3.25,52.5,133.1,101.7,95.8,40.6
3.5,55.8,139.8,108.7,101.4,42.5
3.75,58.5,144.6,112.3,105.1,43.5
4.0,61.7,146.4,119.1,109.0,43.2
4.25,68.9,153.6,125.3,115.9,43.2
4.5,72.2,155.6,129.6,119.1,42.7
4.75,77.8,162.9,134.4,125.0,43.3
5.0,81.4,163.4,135.6,126.8,41.7
5.25,84.0,169.3,142.4,131.9,43.6
5.5,92.7,169.1,147.7,136.5,39.4
5.75,98.6,171.4,150.4,140.1,37.5
6.0,104.0,171.4,151.4,142.3,34.7
6.25,108.5,174.1,156.7,146.4,34.0
6.5,111.0,176.6,161.1,149.6,34.3
6.75,117.8,178.4,161.5,152.6,31.3
7.0,118.2,184.1,168.1,156.8,34.4
7.25,126.6,181.6,172.1,160.1,29.4
7.5,131.2,183.0,175.6,163.3,28.0
7.75,139.6,181.9,179.3,166.9,23.7
8.0,145.1,183.9,182.0,170.3,21.9
8.25,145.5,184.7,183.3,171.2,22.2
8.5,148.7,189.0,192.8,176.8,24.4
8.75,157.0,188.2,192.7,179.3,19.4
9.0,163.5,192.0,190.7,182.1,16.1
9.25,165.1,191.3,192.3,182.9,15.4
9.5,166.7,194.6,197.0,186.1,16.9
9.75,168.6,195.7,196.3,186.9,15.8
10.0,173.3,192.9,193.8,186.7,11.6
10.25,180.4,196.1,202.7,193.0,11.4
10.5,183.5,197.1,195.7,192.1,7.5
10.75,185.5,193.6,198.4,192.5,6.6
11.0,192.1,195.9,199.3,195.8,3.6
11.25,190.7,200.4,202.1,197.8,6.1
11.5,192.4,203.4,199.2,198.3,5.6
11.75,200.8,203.8,196.3,200.3,3.8
12.0,200.2,202.9,199.9,201.0,1.6
12.25,200.5,201.1,198.3,199.9,1.5
12.5,199.6,201.9,198.2,199.9,1.9
12.75,204.1,202.2,200.3,202.2,1.9
13.0,207.2,204.9,202.0,204.7,2.6
13.25,207.0,202.1,197.5,202.2,4.7
13.5,210.9,204.4,192.6,202.6,9.3
13.75,208.9,207.5,195.3,203.9,7.5
14.0,208.1,203.1,198.0,203.1,5.1
14.25,209.1,205.6,197.0,203.9,6.2
14.5,203.9,205.2,196.6,201.9,4.6
14.75,213.5,205.6,194.9,204.7,9.3
15.0,213.8,210.6,191.0,205.1,12.4
15.25,214.1,207.1,192.9,204.7,10.8
15.5,217.2,203.4,194.1,204.9,11.6
15.75,209.7,204.3,190.6,201.6,9.8
16.0,211.9,207.1,196.7,205.3,7.8
16.25,211.6,205.6,190.5,202.6,10.9
16.5,210.0,203.7,195.5,203.1,7.3
16.75,211.3,212.7,190.5,204.8,12.4
17.0,214.3,207.8,194.0,205.3,10.4
17.25,211.7,208.1,192.4,204.1,10.3
17.5,209.6,214.9,190.2,204.9,13.0
17.75,210.5,216.9,190.4,205.9,13.8
18.0,212.0,213.7,191.6,205.8,12.3
18.25,208.7,210.5,190.2,203.1,11.2
18.5,209.7,214.0,194.2,206.0,10.4
18.75,210.7,213.9,193.5,206.0,10.9
19.0,212.0,219.9,190.5,207.5,15.2
19.25,205.4,217.1,192.2,204.9,12.5
19.5,212.7,218.7,193.1,208.2,13.4
19.75,205.5,219.7,188.8,204.7,15.5
20.0,210.5,215.3,192.9,206.2,11.8
20.25,208.5,221.5,190.5,206.9,15.6
20.5,203.3,216.8,193.3,204.5,11.8
20.75,208.4,215.0,190.7,204.7,12.6
21.0,208.5,226.2,194.9,209.8,15.7
21.25,207.9,224.1,194.0,208.6,15.1
21.5,205.7,217.0,194.5,205.7,11.2
21.75,206.0,223.1,194.2,207.8,14.5
22.0,206.9,220.6,194.8,207.4,12.9
22.25,205.1,217.9,198.4,207.2,9.9
22.5,208.2,215.0,198.2,207.1,8.4
22.75,206.6,222.7,196.9,208.7,13.0
23.0,208.4,216.8,202.6,209.3,7.1
23.25,210.2,216.9,196.4,207.8,10.5
23.5,208.7,216.4,200.6,208.6,7.9
23.75,207.7,220.1,202.5,210.1,9.0
24.0,211.0,218.1,206.6,211.9,5.8
24.25,214.2,219.0,216.0,216.4,2.4
24.5,212.2,216.0,209.4,212.5,3.3
24.75,213.7,221.9,215.3,216.9,4.4
25.0,216.7,224.4,213.0,218.0,5.8
25.25,213.7,221.6,213.2,216.2,4.7
25.5,214.1,222.6,220.1,219.0,4.4
25.75,210.9,223.4,219.9,218.1,6.5
26.0,218.7,228.7,220.3,222.6,5.4
26.25,217.4,226.6,227.3,223.8,5.5
26.5,217.7,226.0,232.7,225.5,7.5
26.75,214.2,229.4,237.4,227.0,11.8
27.0,216.7,234.6,232.7,228.0,9.8
27.25,220.6,233.3,237.0,230.3,8.6
27.5,217.9,239.6,252.7,236.7,17.6
27.75,214.7,240.2,254.0,236.3,19.9
28.0,216.4,248.6,260.3,241.8,22.7
28.25,218.1,253.3,267.5,246.3,25.5
28.5,218.7,257.2,263.0,246.3,24.1
28.75,223.5,264.3,275.7,254.5,27.4
29.0,224.3,275.5,281.5,260.4,31.5
29.25,232.5,280.6,283.4,265.5,28.6
29.5,232.8,289.4,311.7,278.0,40.7
29.75,237.7,292.4,322.1,284.1,42.8
30.0,233.4,299.7,319.6,284.2,45.1
30.25,241.6,316.5,324.9,294.3,45.9
30.5,242.7,324.1,342.3,303.0,53.0
30.75,241.3,325.6,356.4,307.8,59.6
31.0,249.1,335.9,341.8,308.9,51.9
31.25,254.9,339.0,375.1,323.0,61.7
31.5,256.1,362.7,371.0,329.9,64.1
31.75,263.1,364.9,398.7,342.2,70.6
32.0,274.0,363.1,387.3,341.5,59.7
32.25,278.0,371.7,409.8,353.2,67.8
32.5,288.0,386.1,419.4,364.5,68.3
32.75,285.7,380.7,417.2,361.2,67.9
33.0,290.4,394.7,425.9,370.3,70.9
33.25,296.2,410.0,451.4,385.8,80.4
33.5,300.8,414.7,445.6,387.1,76.3
33.75,299.7,437.4,451.6,396.2,83.9
34.0,307.7,424.3,455.5,395.8,77.9
34.25,311.6,460.7,479.1,417.1,91.9
34.5,322.8,447.4,475.1,415.1,81.1
34.75,319.5,449.9,506.7,425.3,96.0
35.0,327.2,452.1,496.2,425.2,87.7
35.25,342.0,456.0,516.6,438.2,88.7
35.5,354.4,471.8,520.3,448.9,85.3
35.75,360.6,476.7,533.2,456.8,88.0
36.0,363.6,465.4,536.2,455.1,86.8
36.25,377.0,496.5,568.5,480.7,96.7
36.5,381.8,489.4,551.0,474.1,85.6
36.75,397.1,507.0,568.9,491.0,87.0
37.0,392.3,501.1,575.7,489.7,92.2
37.25,409.5,504.3,610.9,508.2,100.8
37.5,425.4,506.1,588.7,506.8,81.7
37.75,437.3,516.3,628.9,527.5,96.3
38.0,448.0,558.2,634.1,546.8,93.6
38.25,440.1,531.8,596.1,522.7,78.4
38.5,453.7,529.3,596.7,526.6,71.5
38.75,468.9,551.9,650.6,557.1,90.9
39.0,497.8,560.7,684.4,580.9,94.9
39.25,494.1,575.6,692.1,587.3,99.5
39.5,502.2,572.1,687.9,587.4,93.8
39.75,502.4,560.0,693.0,585.1,97.8
40.0,491.9,570.9,654.9,572.6,81.5
40.25,530.6,594.7,701.4,608.9,86.3
40.5,513.8,611.0,677.2,600.7,82.2
40.75,528.8,587.3,727.8,614.6,102.3
41.0,547.7,585.7,721.8,618.4,91.5
41.25,549.9,617.7,719.4,629.0,85.3
41.5,539.7,605.1,701.1,615.3,81.2
41.75,561.3,618.8,710.8,630.3,75.4
42.0,576.1,643.1,712.8,644.0,68.4
42.25,563.4,623.8,692.0,626.4,64.3
42.5,567.7,615.6,753.1,645.4,96.2
42.75,597.2,637.9,732.4,655.8,69.4
43.0,583.2,654.6,742.1,660.0,79.6
43.25,580.2,643.3,728.8,650.8,74.6
43.5,621.4,650.1,734.7,668.7,58.9
43.75,639.1,639.8,756.3,678.4,67.5
44.0,623.9,648.4,763.7,678.7,74.7
44.25,639.4,662.4,724.6,675.5,44.1
44.5,638.3,630.1,729.2,665.8,55.0
44.75,626.3,656.6,759.1,680.7,69.6
45.0,650.1,648.6,723.9,674.2,43.0
45.25,681.0,638.0,756.3,691.8,59.9
45.5,685.6,656.5,746.9,696.3,46.1
45.75,692.8,670.6,761.3,708.2,47.3
46.0,684.6,655.7,756.0,698.7,51.6
46.25,670.0,636.3,775.9,694.1,72.8
46.5,683.2,664.7,761.5,703.1,51.4
46.75,719.5,671.8,795.7,729.0,62.5
47.0,746.4,672.9,761.9,727.1,47.6
47.25,688.1,665.0,736.9,696.7,36.7
47.5,712.2,645.8,774.0,710.7,64.1
47.75,735.5,676.7,767.7,726.6,46.2
48.0,721.2,664.1,786.3,723.9,61.2
48.25,725.9,663.1,768.0,719.0,52.8
48.5,744.4,662.6,806.5,737.9,72.2
48.75,763.8,668.7,795.8,742.8,66.1
49.0,732.1,651.3,783.1,722.1,66.5
49.25,753.9,661.5,753.8,723.0,53.3
49.5,753.7,687.5,782.0,741.1,48.5
49.75,729.0,676.6,777.9,727.9,50.7
50.0,737.9,664.7,781.9,728.2,59.2
50.25,759.0,667.0,765.2,730.4,55.0
50.5,764.3,682.2,767.4,738.0,48.3
50.75,754.7,684.7,764.1,734.5,43.4
51.0,773.6,643.5,793.1,736.7,81.3
51.25,759.9,686.6,772.7,739.7,46.5
51.5,753.0,675.4,785.3,737.9,56.5
51.75,765.5,664.2,758.1,729.3,56.5
52.0,789.4,680.4,798.5,756.1,65.7
52.25,775.0,667.4,772.0,738.1,61.3
52.5,777.9,707.0,769.8,751.6,38.8
52.75,756.9,688.6,763.9,736.5,41.6
53.0,794.6,690.9,781.0,755.5,56.4
53.25,780.8,674.2,762.5,739.2,57.0
53.5,791.1,674.6,745.1,736.9,58.7
53.75,792.3,668.1,759.5,740.0,64.4
54.0,752.3,687.6,774.6,738.2,45.2
54.25,800.2,655.3,737.0,730.9,72.6
54.5,775.4,651.8,777.5,734.9,72.0
54.75,793.2,656.1,762.1,737.1,71.9
55.0,766.4,667.6,746.8,726.9,52.3
55.25,781.5,678.0,767.1,742.2,56.1
55.5,800.1,665.0,764.1,743.1,70.0
55.75,793.2,642.3,733.7,723.0,76.0
56.0,805.1,690.4,749.9,748.5,57.3
56.25,796.0,669.1,755.1,740.1,64.7
56.5,819.0,667.1,768.6,751.6,77.3
56.75,804.4,655.0,773.8,744.4,78.9
57.0,818.2,665.8,751.3,745.1,76.4
57.25,781.5,675.5,694.8,717.3,56.4
57.5,787.5,671.8,717.8,725.7,58.3
57.75,782.2,676.9,741.9,733.7,53.2
58.0,801.4,650.2,697.5,716.4,77.4
58.25,772.5,645.9,716.2,711.5,63.4
58.5,811.1,648.0,707.0,722.0,82.6
58.75,789.8,655.7,724.5,723.3,67.0
59.0,788.6,651.1,715.0,718.2,68.8
59.25,805.3,644.4,700.7,716.8,81.6
59.5,805.6,650.1,707.8,721.2,78.6
59.75,763.3,646.4,689.1,699.6,59.1
60.0,809.6,663.1,693.2,722.0,77.4
60.25,799.5,656.0,697.9,717.8,73.8
60.5,799.4,646.2,677.7,707.8,80.9
60.75,796.6,655.2,653.4,701.7,82.1
61.0,784.6,654.9,668.5,702.7,71.3
61.25,800.1,644.8,671.0,705.3,83.1
61.5,764.8,617.4,639.5,673.9,79.5
61.75,767.5,619.7,679.2,688.8,74.4
62.0,765.3,636.4,658.3,686.7,69.0
62.25,797.3,625.5,630.0,684.3,97.9
62.5,764.9,622.5,635.8,674.4,78.6
62.75,812.0,615.8,625.0,684.3,110.7
63.0,798.8,596.6,625.4,673.6,109.4
63.25,770.1,621.4,614.7,668.7,87.8
63.5,764.9,619.1,615.2,666.4,85.3
63.75,794.1,600.9,598.9,664.6,112.1
64.0,767.0,602.8,604.1,658.0,94.5
64.25,771.5,592.5,589.0,651.0,104.4
64.5,733.1,584.4,588.3,635.3,84.8
64.75,742.0,574.0,561.9,625.9,100.6
65.0,742.9,566.9,572.6,627.5,100.0
65.25,747.2,581.5,533.9,620.8,112.0
65.5,752.3,571.5,530.8,618.2,117.9
65.75,745.3,594.0,526.0,621.8,112.3
66.0,734.7,573.6,525.1,611.1,109.7
66.25,737.6,568.6,518.7,608.3,114.7
66.5,730.6,551.0,514.9,598.9,115.6
66.75,757.5,569.9,486.8,604.8,138.7
67.0,694.6,550.0,503.2,582.6,99.8
67.25,731.0,550.9,485.5,589.2,127.1
67.5,706.7,550.3,485.0,580.7,113.9
67.75,692.5,549.9,475.6,572.7,110.2
68.0,673.9,547.9,463.9,561.9,105.7
68.25,698.7,549.8,462.4,570.3,119.4
68.5,679.9,530.0,452.8,554.2,115.5
68.75,680.1,527.9,450.2,552.7,116.9
69.0,660.6,527.2,437.4,541.7,112.3
69.25,663.5,512.7,434.6,537.0,116.3
69.5,649.8,523.1,430.1,534.3,110.3
69.75,676.5,526.2,425.2,542.7,126.4
70.0,656.9,515.1,418.0,530.0,120.1
70.25,648.3,497.7,415.2,520.4,118.2
70.5,626.8,512.1,412.5,517.1,107.2
70.75,646.7,496.4,403.0,515.4,123.0
71.0,626.4,497.4,391.9,505.2,117.4
71.25,626.8,483.6,384.4,498.2,121.8
71.5,648.3,477.7,372.7,499.6,139.1
71.75,641.9,470.3,378.9,497.1,133.5
72.0,623.1,463.8,360.7,482.5,132.2
72.25,607.7,476.8,356.6,480.4,125.6
72.5,604.5,455.5,356.8,472.2,124.7
72.75,591.6,460.7,351.7,468.0,120.1
73.0,581.8,456.2,340.9,459.7,120.5
73.25,590.2,446.0,336.4,457.6,127.3
73.5,583.8,449.9,322.7,452.1,130.6
73.75,575.7,438.8,321.6,445.3,127.2
74.0,568.9,436.0,321.3,442.1,123.9
74.25,565.0,425.7,310.0,433.6,127.7
74.5,566.5,423.5,304.7,431.6,131.1
74.75,533.6,410.8,302.0,415.5,115.8
75.0,542.4,416.7,293.8,417.6,124.3
75.25,535.7,421.4,295.3,417.4,120.2
75.5,536.0,416.4,285.9,412.8,125.1
75.75,527.8,397.7,276.8,400.8,125.5
76.0,524.4,403.1,278.4,401.9,123.0
76.25,526.0,381.9,279.9,395.9,123.7
76.5,521.6,382.0,275.9,393.2,123.2
76.75,502.4,377.0,265.5,381.6,118.5
77.0,509.4,376.1,265.9,383.8,122.0
77.25,507.0,373.8,259.5,380.1,123.9
77.5,499.6,369.1,261.9,376.9,119.0
77.75,499.4,374.8,253.1,375.8,123.1
78.0,490.2,359.3,250.7,366.8,119.9
78.25,482.2,348.4,252.3,361.0,115.5
78.5,489.0,340.6,249.9,359.8,120.7
78.75,477.7,332.9,246.5,352.3,116.8
79.0,461.4,332.2,240.7,344.7,110.9
79.25,477.3,323.2,237.2,345.9,121.6
79.5,460.0,316.7,233.7,336.8,114.5
79.75,464.6,303.7,226.6,331.6,121.4
80.0,455.8,306.8,228.1,330.2,115.6
80.25,470.7,303.1,221.6,331.8,127.0
80.5,456.2,303.1,220.8,326.7,119.4
80.75,460.1,294.1,216.6,323.6,124.4
81.0,456.4,288.1,214.6,319.7,124.0
81.25,431.6,277.8,206.5,305.3,115.0
81.5,438.1,278.2,207.1,307.8,118.3
81.75,422.7,273.8,205.4,300.6,111.1
82.0,429.1,270.4,200.2,299.9,117.3
82.25,416.0,266.2,197.2,293.1,111.8
82.5,429.6,262.3,194.5,295.5,121.0
82.75,422.4,257.8,195.8,292.0,117.1
83.0,401.9,251.5,191.1,281.5,108.6
83.25,393.8,246.7,187.8,276.1,106.1
83.5,399.6,242.9,182.6,275.1,112.0
83.75,388.2,237.1,181.9,269.1,106.8
84.0,387.9,237.7,178.4,268.0,108.0
84.25,368.6,236.3,176.7,260.5,98.2
84.5,366.6,228.3,172.8,255.9,99.8
84.75,364.8,227.8,168.7,253.8,100.6
85.0,359.5,222.5,166.1,249.4,99.5
85.25,352.3,220.8,161.8,245.0,97.5
85.5,349.2,215.7,158.1,241.0,98.0
85.75,337.7,207.3,154.6,233.2,94.3
86.0,324.5,202.7,150.9,226.0,89.1
86.25,314.4,202.3,146.7,221.1,85.4
86.5,313.1,191.5,141.2,215.3,88.4
86.75,302.6,190.5,138.3,210.5,83.9
87.0,295.8,185.5,136.0,205.8,81.8
87.25,284.4,183.6,131.0,199.7,77.9
87.5,276.9,177.7,126.9,193.8,76.3
87.75,264.0,172.6,124.5,187.0,70.8
88.0,256.8,168.4,119.4,181.5,69.6
88.25,253.9,165.9,118.7,179.5,68.6
88.5,244.3,162.8,112.0,173.0,66.7
88.75,234.3,158.9,108.9,167.4,63.1
89.0,229.1,156.2,107.4,164.2,61.3
89.25,218.9,152.5,103.2,158.2,58.0
89.5,207.1,149.3,101.0,152.5,53.1
89.75,202.1,146.1,99.3,149.2,51.5
90.0,197.0,142.6,98.0,145.9,49.6
90.25,191.2,139.3,93.8,141.4,48.7
90.5,186.8,134.8,91.9,137.8,47.5
90.75,176.7,134.8,89.1,133.5,43.8
91.0,170.6,128.9,86.1,128.6,42.2
91.25,168.5,127.7,84.7,127.0,41.9
91.5,158.1,121.3,81.9,120.4,38.1
91.75,152.7,121.0,80.1,117.9,36.4
92.0,147.0,118.8,77.1,114.3,35.2
92.25,141.2,113.3,74.2,109.5,33.6
92.5,139.5,112.7,72.2,108.1,33.9
92.75,134.6,108.9,70.6,104.7,32.2
93.0,128.9,104.9,68.7,100.8,30.3
93.25,124.7,102.2,66.6,97.8,29.3
93.5,119.0,99.3,63.8,94.1,28.0
93.75,115.4,96.9,61.6,91.3,27.4
94.0,109.6,93.5,60.6,87.9,25.0
94.25,107.7,90.0,58.9,85.6,24.7
94.5,104.3,87.6,55.7,82.5,24.7
94.75,100.4,87.0,54.4,80.6,23.6
95.0,97.2,83.6,52.1,77.6,23.1
95.25,95.7,81.9,50.2,75.9,23.3
95.5,93.1,79.5,48.8,73.8,22.7
95.75,90.0,78.0,47.2,71.7,22.0
96.0,87.3,75.5,45.6,69.5,21.5
96.25,86.2,74.9,44.1,68.4,21.7
96.5,82.8,73.9,42.9,66.5,20.9
96.75,81.9,70.2,42.6,64.9,20.2
97.0,80.7,69.8,40.8,63.8,20.6
97.25,78.1,66.9,,72.5,7.9
97.5,74.7,65.3,,70.0,6.7
97.75,74.8,63.9,,69.4,7.7
98.0,73.5,61.7,,67.6,8.3
98.25,70.8,60.2,,65.5,7.4
98.5,69.8,59.2,,64.5,7.5
98.75,68.3,59.8,,64.1,6.0
99.0,69.1,57.6,,63.3,8.1
99.25,66.4,56.6,,61.5,6.9
99.5,64.9,54.2,,59.6,7.6
99.75,62.9,52.8,,57.9,7.1
100.0,62.4,52.9,,57.7,6.8
100.25,61.6,51.3,,56.5,7.3
100.5,60.9,49.3,,55.1,8.2
100.75,59.4,48.5,,53.9,7.7
101.0,58.1,47.8,,52.9,7.2
101.25,56.7,46.6,,51.7,7.2
101.5,55.9,44.9,,50.4,7.7
101.75,55.4,44.4,,49.9,7.8
102.0,54.1,43.7,,48.9,7.4
102.25,54.4,42.6,,48.5,8.4
102.5,53.1,42.2,,47.6,7.7
102.75,52.3,41.8,,47.1,7.4
103.0,51.7,40.9,,46.3,7.6
103.25,51.8,40.0,,45.9,8.3
103.5,50.8,39.7,,45.3,7.9
103.75,50.6,39.0,,44.8,8.2
104.0,50.6,38.4,,44.5,8.6
104.25,50.0,38.3,,44.2,8.2