File: 01_Data/Masonite_Board/STA/N2/10K_min/Masonite_Board_STA_N2_10KData_222306_R2.csv
##Temp./Â°C,Time/min,DSC(subtr.)/mW,Mass loss(subtr.)/mg,Sensit./(uV/mW)
49.661,10.00917,0.03707099,-0.02097,1.07019
50.261,10.73958,0.17486,-0.02096855,1.07003
50.861,10.92779,0.27671,-0.02167629,1.06986
51.461,11.06758,0.36185,-0.01868583,1.06969
52.061,11.1866,0.43528,-0.02144279,1.06953
52.661,11.29423,0.49104,-0.02081958,1.06936
53.261,11.39069,0.54086,-0.01978321,1.0692
53.861,11.48108,0.58601,-0.02140689,1.06903
54.461,11.56637,0.62776,-0.02143327,1.06886
55.061,11.64827,0.66646,-0.02088793,1.06869
55.661,11.72724,0.70449,-0.01993488,1.06853
56.261,11.8043,0.73594,-0.02156,1.06836
56.861,11.879,0.75487,-0.02073923,1.06819
57.461,11.95238,0.77947,-0.02020801,1.06802
58.061,12.02442,0.81386,-0.02091572,1.06785
58.661,12.09534,0.8305,-0.02192858,1.06768
59.261,12.1653,0.85096,-0.02175566,1.06751
59.861,12.23453,0.86528,-0.02157285,1.06734
60.461,12.30299,0.89117,-0.02162182,1.06717
61.061,12.37101,0.90742,-0.02305161,1.067
61.661,12.43816,0.92487,-0.02306817,1.06682
62.261,12.50497,0.93423,-0.02306054,1.06665
62.861,12.57146,0.95382,-0.02305338,1.06648
63.461,12.63809,0.96802,-0.02305866,1.06631
64.061,12.7043,0.9768,-0.02410533,1.06613
64.661,12.77009,1.00115,-0.02379487,1.06596
65.261,12.83549,1.00202,-0.02305808,1.06578
65.861,12.90075,1.00456,-0.02305832,1.06561
66.461,12.96567,1.01853,-0.0230429,1.06543
67.061,13.03006,1.03579,-0.02437131,1.06526
67.661,13.09458,1.04052,-0.02435835,1.06508
68.261,13.1585,1.05315,-0.02405298,1.06491
68.861,13.22287,1.05842,-0.02434204,1.06473
69.461,13.2869,1.06906,-0.02568881,1.06456
70.061,13.3514,1.07906,-0.02567972,1.06438
70.661,13.4161,1.08281,-0.02575704,1.0642
71.261,13.4796,1.09564,-0.02402427,1.06402
71.861,13.5432,1.10612,-0.02507966,1.06384
72.461,13.6066,1.1153,-0.02498264,1.06367
73.061,13.6698,1.12057,-0.02574421,1.06349
73.661,13.73315,1.13672,-0.02634842,1.06331
74.261,13.79575,1.13775,-0.02503907,1.06313
74.861,13.85868,1.13698,-0.02635035,1.06295
75.461,13.92141,1.1531,-0.02765086,1.06277
76.061,13.98414,1.16025,-0.02661412,1.06259
76.661,14.0468,1.17249,-0.02767013,1.0624
77.261,14.10914,1.17649,-0.02767,1.06222
77.861,14.17131,1.18065,-0.02902353,1.06204
78.461,14.23337,1.18105,-0.02798472,1.06186
79.061,14.29543,1.18523,-0.02766628,1.06168
79.661,14.35715,1.18716,-0.02896348,1.06149
80.261,14.41889,1.19268,-0.02766998,1.06131
80.861,14.4801,1.18796,-0.02766999,1.06113
81.461,14.5417,1.19145,-0.02824631,1.06094
82.061,14.603,1.19777,-0.02898978,1.06076
82.661,14.66474,1.20305,-0.02859169,1.06057
83.261,14.7263,1.20665,-0.02894064,1.06039
83.861,14.7875,1.20327,-0.03029968,1.0602
84.461,14.84857,1.20115,-0.03029999,1.06001
85.061,14.9095,1.20584,-0.03031763,1.05983
85.661,14.9706,1.20014,-0.03029971,1.05964
86.261,15.03144,1.20119,-0.03029678,1.05945
86.861,15.09237,1.20479,-0.03161817,1.05927
87.461,15.15264,1.20377,-0.03161999,1.05908
88.061,15.2128,1.19863,-0.03158256,1.05889
88.661,15.27297,1.19791,-0.032929,1.0587
89.261,15.3331,1.19541,-0.03292982,1.05851
89.861,15.39325,1.19966,-0.03317029,1.05832
90.461,15.45311,1.18984,-0.03294006,1.05813
91.061,15.51305,1.18629,-0.03293999,1.05794
91.661,15.5731,1.18116,-0.03290668,1.05775
92.261,15.63305,1.18405,-0.03260833,1.05756
92.861,15.69311,1.18125,-0.03260801,1.05737
93.461,15.753,1.1761,-0.03295315,1.05718
94.061,15.8127,1.17729,-0.03424577,1.05698
94.661,15.87142,1.17803,-0.03294573,1.05679
95.261,15.9304,1.17689,-0.03425214,1.0566
95.861,15.9896,1.17147,-0.03425706,1.05641
96.461,16.04928,1.16871,-0.03292994,1.05621
97.061,16.1097,1.16509,-0.03424585,1.05602
97.661,16.1692,1.15543,-0.03425,1.05582
98.261,16.2287,1.15685,-0.03425,1.05563
98.861,16.28795,1.15297,-0.03424997,1.05543
99.461,16.3469,1.14978,-0.03537539,1.05524
100.061,16.406,1.15845,-0.03425959,1.05504
100.661,16.46496,1.16246,-0.034261,1.05484
101.261,16.52421,1.16041,-0.03561559,1.05465
101.861,16.58326,1.1659,-0.03425591,1.05445
102.461,16.64255,1.16561,-0.03544811,1.05425
103.061,16.70131,1.17023,-0.03556999,1.05405
103.661,16.7602,1.16853,-0.03556617,1.05386
104.261,16.81899,1.17734,-0.0355706,1.05366
104.861,16.87781,1.17897,-0.03557,1.05346
105.461,16.93672,1.17081,-0.03555754,1.05326
106.061,16.99558,1.17925,-0.03424736,1.05306
106.661,17.0543,1.17733,-0.03452061,1.05286
107.261,17.11299,1.1782,-0.03557026,1.05266
107.861,17.17176,1.17896,-0.03554349,1.05246
108.461,17.2303,1.17945,-0.03688905,1.05225
109.061,17.28912,1.1828,-0.03558021,1.05205
109.661,17.34769,1.17806,-0.03558,1.05185
110.261,17.40624,1.17704,-0.03557998,1.05165
110.861,17.46477,1.18051,-0.03552892,1.05145
111.461,17.52352,1.17302,-0.03687714,1.05124
112.061,17.582,1.18002,-0.03556642,1.05104
112.661,17.64026,1.1733,-0.03557,1.05083
113.261,17.69875,1.17282,-0.03557027,1.05063
113.861,17.75735,1.18035,-0.03656568,1.05042
114.461,17.81645,1.17288,-0.03612482,1.05022
115.061,17.87511,1.17829,-0.03559839,1.05001
115.661,17.93378,1.17441,-0.03562596,1.04981
116.261,17.9922,1.17032,-0.03689045,1.0496
116.861,18.05067,1.17187,-0.03736047,1.04939
117.461,18.10904,1.16639,-0.03821001,1.04919
118.061,18.1675,1.17223,-0.0382104,1.04898
118.661,18.2258,1.16722,-0.03714877,1.04877
119.261,18.28408,1.16815,-0.03721996,1.04856
119.861,18.34244,1.1733,-0.03721956,1.04835
120.461,18.40089,1.16975,-0.03690517,1.04814
121.061,18.45946,1.16843,-0.03819882,1.04793
121.661,18.51799,1.17496,-0.03689044,1.04772
122.261,18.57631,1.17644,-0.03689002,1.04751
122.861,18.63438,1.17925,-0.03694881,1.0473
123.461,18.69256,1.17547,-0.03588957,1.04709
124.061,18.7507,1.17006,-0.0372127,1.04688
124.661,18.80876,1.17596,-0.03722,1.04667
125.261,18.86693,1.17749,-0.03722218,1.04646
125.861,18.92511,1.17814,-0.03688987,1.04624
126.461,18.98343,1.1794,-0.03821682,1.04603
127.061,19.04168,1.17881,-0.03821337,1.04582
127.661,19.09989,1.17631,-0.03689071,1.0456
128.261,19.15798,1.18333,-0.03688588,1.04539
128.861,19.21606,1.17647,-0.03820885,1.04517
129.461,19.27401,1.17909,-0.03821661,1.04496
130.061,19.33219,1.18248,-0.03688959,1.04474
130.661,19.39027,1.18044,-0.03819255,1.04453
131.261,19.4485,1.18782,-0.03819935,1.04431
131.861,19.5064,1.19077,-0.03688682,1.04409
132.461,19.56437,1.19248,-0.03776034,1.04388
133.061,19.62227,1.18497,-0.03679503,1.04366
133.661,19.68005,1.18828,-0.03688998,1.04344
134.261,19.7379,1.18644,-0.0368897,1.04322
134.861,19.796,1.19166,-0.03819332,1.043
135.461,19.85393,1.19752,-0.03821003,1.04278
136.061,19.9119,1.19565,-0.03760739,1.04256
136.661,19.96975,1.19454,-0.03689004,1.04235
137.261,20.02746,1.20242,-0.03689,1.04212
137.861,20.08555,1.19861,-0.03689,1.0419
138.461,20.14351,1.20262,-0.03688687,1.04168
139.061,20.20147,1.21201,-0.03818171,1.04146
139.661,20.25936,1.20529,-0.03688994,1.04124
140.261,20.317,1.21521,-0.03689,1.04102
140.861,20.37473,1.21077,-0.03689,1.04079
141.461,20.4325,1.21134,-0.03689124,1.04057
142.061,20.4901,1.21867,-0.0382132,1.04035
142.661,20.54789,1.21123,-0.03742078,1.04012
143.261,20.6054,1.21935,-0.03680837,1.0399
143.861,20.66316,1.22464,-0.03687702,1.03968
144.461,20.72095,1.22431,-0.03818991,1.03945
145.061,20.77874,1.22526,-0.03950615,1.03922
145.661,20.83669,1.22641,-0.03821269,1.039
146.261,20.89418,1.23796,-0.03820001,1.03877
146.861,20.95195,1.22705,-0.0382,1.03855
147.461,21.0096,1.23607,-0.0382,1.03832
148.061,21.0674,1.24028,-0.03819997,1.03809
148.661,21.12521,1.23845,-0.03809243,1.03786
149.261,21.18263,1.24129,-0.03860335,1.03764
149.861,21.24025,1.23683,-0.03854001,1.03741
150.461,21.29776,1.2535,-0.03854,1.03718
151.061,21.3553,1.25111,-0.03853224,1.03695
151.661,21.41294,1.25263,-0.0395004,1.03672
152.261,21.4703,1.25537,-0.03820974,1.03649
152.861,21.5277,1.25764,-0.03821,1.03626
153.461,21.5847,1.27091,-0.03821,1.03603
154.061,21.6422,1.2639,-0.03821,1.0358
154.661,21.69993,1.26955,-0.03821002,1.03556
155.261,21.75786,1.26916,-0.0381511,1.03533
155.861,21.81523,1.27424,-0.03819456,1.0351
156.461,21.8729,1.27055,-0.03828901,1.03487
157.061,21.93035,1.27362,-0.03887009,1.03463
157.661,21.988,1.28042,-0.03820537,1.0344
158.261,22.04563,1.28228,-0.03927463,1.03416
158.861,22.1031,1.28016,-0.03820089,1.03393
159.461,22.16059,1.28659,-0.03819993,1.03369
160.061,22.21811,1.2917,-0.038772,1.03346
160.661,22.2757,1.29658,-0.03953652,1.03322
161.261,22.33287,1.30177,-0.03853112,1.03299
161.861,22.3899,1.30149,-0.0384968,1.03275
162.461,22.44708,1.3011,-0.03786985,1.03251
163.061,22.50422,1.29945,-0.03787012,1.03227
163.661,22.56181,1.30625,-0.03928071,1.03204
164.261,22.61921,1.31618,-0.03919,1.0318
164.861,22.67625,1.31521,-0.0392151,1.03156
165.461,22.7337,1.32229,-0.0405401,1.03132
166.061,22.79094,1.32288,-0.04022252,1.03108
166.661,22.84819,1.32112,-0.03861461,1.03084
167.261,22.9059,1.31993,-0.03871292,1.0306
167.861,22.9634,1.33101,-0.04018805,1.03036
168.461,23.021,1.33114,-0.04019,1.03012
169.061,23.07849,1.34017,-0.04018868,1.02988
169.661,23.1359,1.34357,-0.04147556,1.02964
170.261,23.19284,1.34348,-0.04023514,1.02939
170.861,23.2501,1.3419,-0.03920015,1.02915
171.461,23.30744,1.34647,-0.0392,1.02891
172.061,23.3644,1.34844,-0.03918411,1.02866
172.661,23.42217,1.35269,-0.04027513,1.02842
173.261,23.47944,1.34984,-0.04050838,1.02817
173.861,23.5368,1.35861,-0.04083969,1.02793
174.461,23.5943,1.36244,-0.04084008,1.02768
175.061,23.65158,1.36658,-0.04095687,1.02744
175.661,23.70884,1.36296,-0.04083442,1.02719
176.261,23.766,1.36289,-0.04117012,1.02695
176.861,23.82311,1.37283,-0.04117,1.0267
177.461,23.88024,1.36292,-0.041169,1.02645
178.061,23.93736,1.3682,-0.04182332,1.0262
178.661,23.99476,1.37146,-0.04182999,1.02596
179.261,24.052,1.38097,-0.04183069,1.02571
179.861,24.10928,1.37793,-0.04282103,1.02546
180.461,24.1662,1.38198,-0.04281999,1.02521
181.061,24.22334,1.38782,-0.04282618,1.02496
181.661,24.28067,1.38724,-0.04182492,1.02471
182.261,24.33805,1.38502,-0.04181091,1.02446
182.861,24.39545,1.39434,-0.04216215,1.02421
183.461,24.45251,1.3944,-0.04348686,1.02396
184.061,24.5095,1.39506,-0.04348,1.0237
184.661,24.56651,1.40435,-0.04348,1.02345
185.261,24.62361,1.39049,-0.04348,1.0232
185.861,24.68068,1.40582,-0.04348,1.02295
186.461,24.73793,1.39956,-0.04348,1.02269
187.061,24.79505,1.40725,-0.04348001,1.02244
187.661,24.85215,1.40722,-0.04349415,1.02219
188.261,24.90942,1.40884,-0.04513044,1.02193
188.861,24.9665,1.41139,-0.04513,1.02168
189.461,25.02372,1.41468,-0.04513602,1.02142
190.061,25.08091,1.42867,-0.04381209,1.02116
190.661,25.13788,1.41422,-0.04478423,1.02091
191.261,25.195,1.42,-0.0461092,1.02065
191.861,25.252,1.42272,-0.04611,1.02039
192.461,25.309,1.4172,-0.04611,1.02014
193.061,25.3659,1.42479,-0.04610996,1.01988
193.661,25.42313,1.42193,-0.04684945,1.01962
194.261,25.48014,1.43104,-0.04742994,1.01936
194.861,25.5375,1.43077,-0.04743,1.0191
195.461,25.59444,1.42474,-0.04743,1.01884
196.061,25.65161,1.43175,-0.04743,1.01858
196.661,25.70894,1.42803,-0.04743,1.01832
197.261,25.76615,1.43411,-0.04743,1.01806
197.861,25.82374,1.43564,-0.04743,1.0178
198.461,25.88092,1.44331,-0.04743,1.01754
199.061,25.93808,1.43756,-0.04742973,1.01727
199.661,25.99522,1.44891,-0.04874894,1.01701
200.261,26.0519,1.44625,-0.05008169,1.01675
200.861,26.10885,1.44402,-0.05006,1.01649
201.461,26.16599,1.45104,-0.05006,1.01622
202.061,26.22308,1.45236,-0.05006,1.01596
202.661,26.28047,1.46015,-0.05006,1.01569
203.261,26.33772,1.4661,-0.05006006,1.01543
203.861,26.3948,1.4613,-0.05135835,1.01516
204.461,26.4518,1.47506,-0.05237055,1.0149
205.061,26.50895,1.47541,-0.05236827,1.01463
205.661,26.566,1.47909,-0.0510476,1.01436
206.261,26.6234,1.48389,-0.05181928,1.0141
206.861,26.68052,1.48274,-0.05237656,1.01383
207.461,26.73788,1.4858,-0.05368804,1.01356
208.061,26.79498,1.49116,-0.05402211,1.01329
208.661,26.85215,1.49579,-0.05401999,1.01302
209.261,26.90945,1.50364,-0.05401777,1.01275
209.861,26.96671,1.50768,-0.05500647,1.01248
210.461,27.02386,1.51191,-0.05500001,1.01221
211.061,27.08087,1.51479,-0.05500848,1.01194
211.661,27.1378,1.51556,-0.05435057,1.01167
212.261,27.1946,1.52006,-0.05567619,1.0114
212.861,27.2516,1.52828,-0.0556698,1.01113
213.461,27.3084,1.52919,-0.0569931,1.01086
214.061,27.3656,1.53741,-0.05826161,1.01058
214.661,27.42298,1.538,-0.05763708,1.01031
215.261,27.48027,1.53579,-0.05763,1.01004
215.861,27.53789,1.53701,-0.05763,1.00976
216.461,27.5949,1.54136,-0.05762951,1.00949
217.061,27.65183,1.54689,-0.05892578,1.00921
217.661,27.70875,1.54327,-0.05893816,1.00894
218.261,27.7661,1.56253,-0.06026937,1.00866
218.861,27.8233,1.56905,-0.06027,1.00839
219.461,27.88045,1.56529,-0.06026828,1.00811
220.061,27.93758,1.56402,-0.06159175,1.00783
220.661,27.9945,1.5699,-0.06267443,1.00756
221.261,28.05155,1.57216,-0.06258001,1.00728
221.861,28.1084,1.57958,-0.06259012,1.007
222.461,28.16556,1.5814,-0.06390042,1.00672
223.061,28.2226,1.5908,-0.06406212,1.00644
223.661,28.27965,1.58855,-0.06521007,1.00616
224.261,28.33646,1.60541,-0.06521,1.00588
224.861,28.3937,1.60158,-0.06520976,1.0056
225.461,28.4507,1.60262,-0.06599856,1.00532
226.061,28.508,1.60182,-0.06653006,1.00504
226.661,28.5652,1.60533,-0.06662755,1.00476
227.261,28.62207,1.60619,-0.06817141,1.00448
227.861,28.6791,1.6099,-0.06818048,1.0042
228.461,28.73622,1.61874,-0.06949975,1.00391
229.061,28.7933,1.62474,-0.06983618,1.00363
229.661,28.8506,1.62041,-0.07083079,1.00335
230.261,28.9078,1.62535,-0.07212952,1.00306
230.861,28.9649,1.63224,-0.07213,1.00278
231.461,29.0223,1.63358,-0.07212769,1.00249
232.061,29.07943,1.63514,-0.07344905,1.00221
232.661,29.1368,1.63652,-0.07476917,1.00192
233.261,29.19411,1.64324,-0.07476348,1.00164
233.861,29.25132,1.64688,-0.07608852,1.00135
234.461,29.3086,1.64087,-0.07608894,1.00106
235.061,29.36567,1.63969,-0.07876709,1.00077
235.661,29.4229,1.65118,-0.0786377,1.00049
236.261,29.48002,1.65372,-0.0800299,1.0002
236.861,29.5371,1.65796,-0.08052151,0.99991
237.461,29.5944,1.65858,-0.0813593,0.99962
238.061,29.6515,1.66125,-0.08165055,0.99933
238.661,29.70895,1.66098,-0.08266959,0.99904
239.261,29.76633,1.66537,-0.08397163,0.99875
239.861,29.82371,1.67089,-0.08526868,0.99846
240.461,29.88099,1.67679,-0.08661858,0.99817
241.061,29.93814,1.67842,-0.08659481,0.99788
241.661,29.9955,1.68524,-0.08926368,0.99758
242.261,30.053,1.68704,-0.09046699,0.99729
242.861,30.1104,1.68519,-0.09154292,0.997
243.461,30.1677,1.69132,-0.09155535,0.9967
244.061,30.2249,1.69271,-0.09288029,0.99641
244.661,30.28179,1.69603,-0.0942034,0.99612
245.261,30.33853,1.68756,-0.09551079,0.99582
245.861,30.39585,1.69442,-0.0968947,0.99553
246.461,30.45315,1.70306,-0.09898826,0.99523
247.061,30.5108,1.70559,-0.10057,0.99493
247.661,30.5683,1.70556,-0.10046,0.99464
248.261,30.6255,1.71393,-0.10178,0.99434
248.861,30.6828,1.7132,-0.10475,0.99404
249.461,30.74,1.71037,-0.10474,0.99375
250.061,30.7973,1.71674,-0.10625,0.99345
250.661,30.85453,1.71937,-0.10832,0.99315
251.261,30.9117,1.72121,-0.11022,0.99285
251.861,30.9691,1.73102,-0.11154,0.99255
252.461,31.02621,1.73285,-0.11281,0.99225
253.061,31.0836,1.73201,-0.1144,0.99195
253.661,31.1408,1.73627,-0.117,0.99165
254.261,31.19795,1.73211,-0.11857,0.99135
254.861,31.255,1.73403,-0.12128,0.99105
255.461,31.3122,1.73642,-0.12305,0.99074
256.061,31.3693,1.7432,-0.12516,0.99044
256.661,31.42659,1.74353,-0.12739,0.99014
257.261,31.48405,1.74474,-0.12955,0.98984
257.861,31.5414,1.75095,-0.13188,0.98953
258.461,31.59875,1.74983,-0.13403,0.98923
259.061,31.6558,1.75256,-0.13729,0.98892
259.661,31.7128,1.75993,-0.13969,0.98862
260.261,31.7699,1.75862,-0.14179,0.98831
260.861,31.82715,1.75793,-0.14318,0.98801
261.461,31.8844,1.76741,-0.14588,0.9877
262.061,31.94149,1.7678,-0.15075,0.98739
262.661,31.99839,1.76828,-0.15391,0.98709
263.261,32.05523,1.77182,-0.15531,0.98678
263.861,32.11257,1.77799,-0.15842,0.98647
264.461,32.16995,1.77106,-0.16232,0.98616
265.061,32.22755,1.7736,-0.16526,0.98585
265.661,32.28503,1.77972,-0.16864,0.98554
266.261,32.34215,1.7771,-0.17076,0.98523
266.861,32.39935,1.77781,-0.17545,0.98492
267.461,32.45653,1.77689,-0.17716,0.98461
268.061,32.51381,1.78039,-0.18307,0.9843
268.661,32.57111,1.77784,-0.18658,0.98399
269.261,32.62825,1.78352,-0.19028,0.98368
269.861,32.68546,1.78238,-0.19449,0.98336
270.461,32.74256,1.78063,-0.19856,0.98305
271.061,32.79967,1.7817,-0.20168,0.98274
271.661,32.85692,1.7764,-0.20558,0.98242
272.261,32.9142,1.78663,-0.20923,0.98211
272.861,32.97168,1.78146,-0.21301,0.9818
273.461,33.02884,1.78789,-0.21877,0.98148
274.061,33.08616,1.78707,-0.22431,0.98116
274.661,33.14352,1.78988,-0.22896,0.98085
275.261,33.20084,1.79306,-0.23194,0.98053
275.861,33.25819,1.78961,-0.2372,0.98022
276.461,33.31538,1.78917,-0.24255,0.9799
277.061,33.3726,1.79475,-0.24841,0.97958
277.661,33.42988,1.78647,-0.25421,0.97926
278.261,33.48724,1.78976,-0.25702,0.97894
278.861,33.54456,1.78643,-0.26359,0.97862
279.461,33.6019,1.77809,-0.26947,0.97831
280.061,33.65941,1.77947,-0.27536,0.97799
280.661,33.71666,1.78101,-0.28135,0.97767
281.261,33.7741,1.77503,-0.28653,0.97734
281.861,33.8315,1.78119,-0.29126,0.97702
282.461,33.88896,1.77709,-0.29837,0.9767
283.061,33.94631,1.77205,-0.30496,0.97638
283.661,34.0037,1.76472,-0.31109,0.97606
284.261,34.0609,1.7723,-0.3169,0.97573
284.861,34.11828,1.76391,-0.32398,0.97541
285.461,34.1758,1.76105,-0.33061,0.97509
286.061,34.23315,1.75974,-0.33724,0.97476
286.661,34.29083,1.7542,-0.34419,0.97444
287.261,34.34832,1.75605,-0.351,0.97411
287.861,34.40574,1.74839,-0.35801,0.97379
288.461,34.463,1.74371,-0.36486,0.97346
289.061,34.52023,1.74353,-0.37235,0.97313
289.661,34.5777,1.73524,-0.37909,0.97281
290.261,34.63547,1.73377,-0.38577,0.97248
290.861,34.6931,1.72859,-0.39376,0.97215
291.461,34.7505,1.73374,-0.3997,0.97182
292.061,34.80791,1.7185,-0.40644,0.9715
292.661,34.86521,1.71419,-0.41449,0.97117
293.261,34.92279,1.7122,-0.42115,0.97084
293.861,34.98015,1.70974,-0.42749,0.97051
294.461,35.0376,1.70825,-0.43565,0.97018
295.061,35.09518,1.70094,-0.44434,0.96985
295.661,35.15271,1.70847,-0.45167,0.96952
296.261,35.2102,1.70047,-0.4589,0.96918
296.861,35.26755,1.70085,-0.46622,0.96885
297.461,35.3248,1.69645,-0.47441,0.96852
298.061,35.38217,1.69283,-0.48157,0.96819
298.661,35.4397,1.69881,-0.49068,0.96785
299.261,35.49736,1.68485,-0.49772,0.96752
299.861,35.55485,1.68035,-0.50387,0.96718
300.461,35.6124,1.68235,-0.51166,0.96685
301.061,35.6699,1.68375,-0.51992,0.96651
301.661,35.72746,1.67649,-0.52718,0.96618
302.261,35.78499,1.67678,-0.53451,0.96584
302.861,35.84254,1.67731,-0.54237,0.96551
303.461,35.89999,1.67641,-0.55036,0.96517
304.061,35.95756,1.67054,-0.55809,0.96483
304.661,36.01506,1.67701,-0.56613,0.96449
305.261,36.07265,1.67783,-0.5739,0.96416
305.861,36.1301,1.68805,-0.58024,0.96382
306.461,36.18776,1.67704,-0.58909,0.96348
307.061,36.24542,1.67888,-0.59605,0.96314
307.661,36.30311,1.68207,-0.60395,0.9628
308.261,36.3605,1.68703,-0.61159,0.96246
308.861,36.41783,1.69597,-0.61922,0.96212
309.461,36.4752,1.69613,-0.62658,0.96177
310.061,36.5327,1.69149,-0.63382,0.96143
310.661,36.59094,1.70091,-0.64245,0.96109
311.261,36.64882,1.69942,-0.65033,0.96075
311.861,36.70643,1.71014,-0.65779,0.96041
312.461,36.76413,1.71929,-0.66669,0.96006
313.061,36.8217,1.72482,-0.67433,0.95972
313.661,36.87919,1.72409,-0.68186,0.95937
314.261,36.93704,1.7405,-0.69039,0.95903
314.861,36.99472,1.73929,-0.69842,0.95868
315.461,37.0524,1.75629,-0.70545,0.95834
316.061,37.1098,1.7609,-0.71361,0.95799
316.661,37.1675,1.77701,-0.72242,0.95764
317.261,37.22506,1.78182,-0.73051,0.9573
317.861,37.2828,1.79419,-0.73963,0.95695
318.461,37.34047,1.80452,-0.74827,0.9566
319.061,37.39824,1.81605,-0.75676,0.95625
319.661,37.45588,1.82793,-0.76559,0.9559
320.261,37.5135,1.83795,-0.772,0.95556
320.861,37.5711,1.84492,-0.78188,0.95521
321.461,37.62858,1.86229,-0.78989,0.95486
322.061,37.68628,1.87762,-0.80007,0.9545
322.661,37.744,1.89682,-0.80884,0.95415
323.261,37.80166,1.9047,-0.818,0.9538
323.861,37.8594,1.92047,-0.82748,0.95345
324.461,37.91672,1.9391,-0.83632,0.9531
325.061,37.97437,1.95497,-0.8461,0.95275
325.661,38.0321,1.97668,-0.85407,0.95239
326.261,38.08987,1.99802,-0.865,0.95204
326.861,38.14772,2.02128,-0.87363,0.95168
327.461,38.20541,2.04903,-0.88237,0.95133
328.061,38.2631,2.06286,-0.89509,0.95097
328.661,38.32082,2.08481,-0.90528,0.95062
329.261,38.37863,2.11688,-0.91592,0.95026
329.861,38.43631,2.1451,-0.92727,0.94991
330.461,38.49418,2.16028,-0.93772,0.94955
331.061,38.55208,2.18794,-0.94884,0.94919
331.661,38.60988,2.21643,-0.95969,0.94884
332.261,38.6678,2.24859,-0.97176,0.94848
332.861,38.72578,2.27254,-0.98317,0.94812
333.461,38.78371,2.30575,-0.99679,0.94776
334.061,38.84187,2.33563,-1.00846,0.9474
334.661,38.89976,2.37286,-1.02043,0.94704
335.261,38.95772,2.41361,-1.03267,0.94668
335.861,39.0156,2.44697,-1.04639,0.94632
336.461,39.07345,2.49358,-1.05787,0.94596
337.061,39.1314,2.53496,-1.07128,0.9456
337.661,39.18936,2.57892,-1.08591,0.94524
338.261,39.2474,2.60961,-1.0993,0.94487
338.861,39.30539,2.65461,-1.11415,0.94451
339.461,39.36353,2.71031,-1.12885,0.94415
340.061,39.4215,2.75434,-1.14435,0.94378
340.661,39.4794,2.81122,-1.1585,0.94342
341.261,39.53751,2.86174,-1.17517,0.94305
341.861,39.5955,2.92057,-1.19103,0.94269
342.461,39.65343,2.97179,-1.20847,0.94232
343.061,39.7115,3.03389,-1.22437,0.94196
343.661,39.76955,3.08655,-1.24,0.94159
344.261,39.8278,3.14376,-1.25778,0.94122
344.861,39.8858,3.20101,-1.27673,0.94086
345.461,39.944,3.26707,-1.29626,0.94049
346.061,40.0022,3.33817,-1.31338,0.94012
346.661,40.06029,3.39705,-1.33336,0.93975
347.261,40.11848,3.47144,-1.35235,0.93938
347.861,40.1766,3.54014,-1.37572,0.93901
348.461,40.23465,3.61561,-1.39328,0.93864
349.061,40.29278,3.68367,-1.41637,0.93827
349.661,40.35094,3.76725,-1.4371,0.9379
350.261,40.409,3.8327,-1.45951,0.93753
350.861,40.46719,3.91142,-1.48194,0.93716
351.461,40.52527,3.98785,-1.50652,0.93679
352.061,40.5834,4.05635,-1.53167,0.93641
352.661,40.64183,4.14156,-1.55368,0.93604
353.261,40.7002,4.22665,-1.57989,0.93567
353.861,40.75853,4.29584,-1.60586,0.93529
354.461,40.81688,4.37432,-1.63243,0.93492
355.061,40.87506,4.44101,-1.65779,0.93454
355.661,40.9328,4.50929,-1.6851,0.93417
356.261,40.99082,4.58035,-1.71196,0.93379
356.861,41.04911,4.64672,-1.74113,0.93342
357.461,41.10737,4.71717,-1.77055,0.93304
358.061,41.16633,4.77857,-1.79937,0.93266
358.661,41.22453,4.84982,-1.82828,0.93229
359.261,41.28269,4.90406,-1.85693,0.93191
359.861,41.34084,4.95326,-1.88988,0.93153
360.461,41.399,4.99886,-1.91916,0.93115
361.061,41.45728,5.0436,-1.95282,0.93077
361.661,41.51562,5.08004,-1.98273,0.93039
362.261,41.57398,5.1112,-2.01459,0.93001
362.861,41.63231,5.1296,-2.04607,0.92963
363.461,41.6905,5.15528,-2.07916,0.92925
364.061,41.749,5.15657,-2.1114,0.92887
364.661,41.80738,5.15114,-2.14316,0.92849
365.261,41.86564,5.1414,-2.17649,0.92811
365.861,41.924,5.12303,-2.20869,0.92772
366.461,41.9821,5.08584,-2.24181,0.92734
367.061,42.04038,5.03934,-2.27252,0.92696
367.661,42.0985,4.98325,-2.30508,0.92657
368.261,42.15682,4.91437,-2.33513,0.92619
368.861,42.2145,4.83207,-2.36651,0.9258
369.461,42.2727,4.74511,-2.39684,0.92542
370.061,42.3308,4.64862,-2.42668,0.92503
370.661,42.38901,4.52772,-2.45569,0.92465
371.261,42.44747,4.39625,-2.48434,0.92426
371.861,42.50558,4.25097,-2.51223,0.92387
372.461,42.56368,4.10225,-2.53753,0.92349
373.061,42.62168,3.95293,-2.56476,0.9231
373.661,42.6794,3.77137,-2.58692,0.92271
374.261,42.73738,3.59427,-2.61255,0.92232
374.861,42.79538,3.4105,-2.6339,0.92193
375.461,42.8532,3.21825,-2.65481,0.92154
376.061,42.9113,3.01241,-2.67325,0.92115
376.661,42.96908,2.8084,-2.69252,0.92076
377.261,43.02709,2.6205,-2.70971,0.92037
377.861,43.08507,2.4217,-2.7263,0.91998
378.461,43.1429,2.22317,-2.7414,0.91959
379.061,43.2008,2.02398,-2.75512,0.91919
379.661,43.2586,1.84889,-2.76716,0.9188
380.261,43.31622,1.65901,-2.77809,0.91841
380.861,43.37425,1.49498,-2.78651,0.91802
381.461,43.43212,1.33259,-2.79609,0.91762
382.061,43.49003,1.18841,-2.80476,0.91723
382.661,43.548,1.05622,-2.81132,0.91683
383.261,43.6057,0.93346,-2.81797,0.91644
383.861,43.66332,0.82758,-2.82449,0.91604
384.461,43.72104,0.73208,-2.82954,0.91564
385.061,43.7789,0.65584,-2.83383,0.91525
385.661,43.83683,0.5859,-2.83842,0.91485
386.261,43.8949,0.52793,-2.84228,0.91445
386.861,43.95306,0.46299,-2.8454,0.91406
387.461,44.01104,0.40697,-2.84869,0.91366
388.061,44.06913,0.37678,-2.85163,0.91326
388.661,44.12726,0.35164,-2.85294,0.91286
389.261,44.1853,0.32535,-2.85586,0.91246
389.861,44.24354,0.29416,-2.85911,0.91206
390.461,44.30177,0.28902,-2.86028,0.91166
391.061,44.35986,0.271,-2.86166,0.91126
391.661,44.41805,0.26556,-2.86438,0.91086
392.261,44.4763,0.24463,-2.86559,0.91045
392.861,44.53447,0.2378,-2.86861,0.91005
393.461,44.59264,0.21928,-2.87082,0.90965
394.061,44.6509,0.22448,-2.8729,0.90925
394.661,44.70881,0.21402,-2.8752,0.90884
395.261,44.76663,0.20635,-2.87668,0.90844
395.861,44.82495,0.18794,-2.87782,0.90803
396.461,44.88295,0.17586,-2.87958,0.90763
397.061,44.94171,0.17885,-2.88078,0.90722
397.661,45.00009,0.16321,-2.88288,0.90682
398.261,45.0582,0.15327,-2.88479,0.90641
398.861,45.11663,0.147,-2.88609,0.90601
399.461,45.17514,0.13432,-2.88897,0.9056
400.061,45.23361,0.12211,-2.89052,0.90519
400.661,45.2922,0.1102,-2.89205,0.90478
401.261,45.3506,0.10223,-2.89459,0.90438
401.861,45.40906,0.09959657,-2.89521,0.90397
402.461,45.46723,0.09001777,-2.89579,0.90356
403.061,45.52551,0.07277774,-2.89972,0.90315
403.661,45.5839,0.07038898,-2.90128,0.90274
404.261,45.64241,0.05824469,-2.90271,0.90233
404.861,45.70095,0.05557904,-2.90538,0.90192
405.461,45.75953,0.04743926,-2.90662,0.90151
406.061,45.81817,0.03501189,-2.90657,0.90109
406.661,45.87673,0.02604519,-2.90952,0.90068
407.261,45.9354,0.02223854,-2.91211,0.90027
407.861,45.9935,0.00917972,-2.91333,0.89986
408.461,46.05175,0.007524177,-2.91495,0.89944
409.061,46.11022,-0.00877399,-2.9165,0.89903
409.661,46.16881,-0.01104501,-2.91879,0.89861
410.261,46.228,-0.02245774,-2.92018,0.8982
410.861,46.2866,-0.02543979,-2.92277,0.89778
411.461,46.34523,-0.04102686,-2.92421,0.89737
412.061,46.40377,-0.04096763,-2.92552,0.89695
412.661,46.4616,-0.04140061,-2.92697,0.89654
413.261,46.51985,-0.05356613,-2.92901,0.89612
413.861,46.5781,-0.05785824,-2.93057,0.8957
414.461,46.63648,-0.06640463,-2.93188,0.89528
415.061,46.6952,-0.07193249,-2.9331,0.89487
415.661,46.75307,-0.08161114,-2.93624,0.89445
416.261,46.81142,-0.09101615,-2.93749,0.89403
416.861,46.87024,-0.09139745,-2.94019,0.89361
417.461,46.92897,-0.09140754,-2.94274,0.89319
418.061,46.98791,-0.09473673,-2.9423,0.89277
418.661,47.0466,-0.10483,-2.94404,0.89235
419.261,47.10536,-0.10953,-2.94547,0.89193
419.861,47.16406,-0.11461,-2.94705,0.89151
420.461,47.22298,-0.11756,-2.94965,0.89108
421.061,47.28165,-0.11371,-2.95128,0.89066
421.661,47.34039,-0.1201,-2.95359,0.89024
422.261,47.39886,-0.11831,-2.95526,0.88982
422.861,47.45733,-0.12468,-2.95659,0.88939
423.461,47.51592,-0.11246,-2.95792,0.88897
424.061,47.57463,-0.11915,-2.96023,0.88854
424.661,47.63351,-0.11777,-2.96203,0.88812
425.261,47.69226,-0.11869,-2.96323,0.88769
425.861,47.75096,-0.11338,-2.96598,0.88727
426.461,47.80961,-0.10832,-2.96744,0.88684
427.061,47.86831,-0.1105,-2.96876,0.88641
427.661,47.92709,-0.10618,-2.97006,0.88599
428.261,47.98596,-0.11002,-2.97162,0.88556
428.861,48.045,-0.10774,-2.97462,0.88513
429.461,48.10374,-0.09975957,-2.97592,0.8847
430.061,48.1627,-0.09465462,-2.97751,0.88428
430.661,48.22145,-0.0938039,-2.97991,0.88385
431.261,48.2802,-0.08374179,-2.98128,0.88342
431.861,48.33885,-0.0795003,-2.9826,0.88299
432.461,48.39732,-0.07646684,-2.9839,0.88256
433.061,48.4561,-0.06004894,-2.98537,0.88213
433.661,48.51505,-0.05707509,-2.9878,0.88169
434.261,48.5742,-0.05641761,-2.9894,0.88126
434.861,48.63321,-0.04365977,-2.99092,0.88083
435.461,48.69205,-0.03674974,-2.99266,0.8804
436.061,48.75091,-0.03621577,-2.99416,0.87997
436.661,48.80979,-0.032829,-2.99601,0.87953
437.261,48.86874,-0.02013338,-2.99731,0.8791
437.861,48.92756,-0.0149994,-2.99855,0.87866
438.461,48.98657,-0.009773228,-3.00024,0.87823
439.061,49.0454,-0.009174043,-3.00177,0.87779
439.661,49.10433,0.00181973,-3.00257,0.87736
440.261,49.1631,0.01501283,-3.00439,0.87692
440.861,49.22184,0.01864998,-3.00587,0.87649
441.461,49.28093,0.02816501,-3.00737,0.87605
442.061,49.33977,0.04114377,-3.00839,0.87561
442.661,49.3987,0.04340128,-3.00971,0.87518
443.261,49.45762,0.05103578,-3.01103,0.87474
443.861,49.5167,0.06214852,-3.01233,0.8743
444.461,49.57589,0.0688603,-3.01389,0.87386
445.061,49.6349,0.07817259,-3.01509,0.87342
445.661,49.69383,0.08737608,-3.01638,0.87298
446.261,49.75261,0.08560753,-3.01875,0.87254
446.861,49.81151,0.09230657,-3.01927,0.8721
447.461,49.87068,0.10718,-3.02151,0.87166
448.061,49.9298,0.11368,-3.02148,0.87122
448.661,49.98874,0.12793,-3.02276,0.87078
449.261,50.04712,0.13882,-3.02503,0.87034
449.861,50.10583,0.13967,-3.02757,0.86989
450.461,50.16483,0.15506,-3.02767,0.86945
451.061,50.2239,0.16372,-3.02832,0.86901
451.661,50.28293,0.16702,-3.02969,0.86856
452.261,50.34183,0.16715,-3.03106,0.86812
452.861,50.4007,0.18534,-3.03228,0.86768
453.461,50.45983,0.18654,-3.03303,0.86723
454.061,50.51885,0.18825,-3.03463,0.86679
454.661,50.5777,0.19486,-3.03517,0.86634
455.261,50.63673,0.19763,-3.03595,0.86589
455.861,50.69571,0.21037,-3.03724,0.86545
456.461,50.75476,0.21064,-3.03859,0.865
457.061,50.81375,0.21179,-3.03988,0.86455
457.661,50.8728,0.21662,-3.04123,0.8641
458.261,50.93177,0.22128,-3.04133,0.86366
458.861,50.99078,0.22822,-3.04259,0.86321
459.461,51.04983,0.22986,-3.04385,0.86276
460.061,51.109,0.23358,-3.04517,0.86231
460.661,51.16791,0.2385,-3.0465,0.86186
461.261,51.22696,0.24393,-3.04744,0.86141
461.861,51.28606,0.24801,-3.04892,0.86096
462.461,51.34533,0.24935,-3.04987,0.86051
463.061,51.4046,0.24896,-3.05002,0.86006
463.661,51.4637,0.25876,-3.05149,0.85961
464.261,51.52277,0.26334,-3.05274,0.85915
464.861,51.58182,0.26813,-3.05269,0.8587
465.461,51.64075,0.28291,-3.05406,0.85825
466.061,51.69984,0.28112,-3.05538,0.85779
466.661,51.75865,0.30146,-3.05567,0.85734
467.261,51.81765,0.31376,-3.0567,0.85689
467.861,51.87677,0.32741,-3.05802,0.85643
468.461,51.93584,0.33473,-3.05933,0.85598
469.061,51.99494,0.35496,-3.05932,0.85552
469.661,52.0541,0.34888,-3.06065,0.85506
470.261,52.11332,0.35753,-3.06207,0.85461
470.861,52.17261,0.34995,-3.06197,0.85415
471.461,52.23188,0.34269,-3.06327,0.85369
472.061,52.29121,0.3428,-3.0646,0.85324
472.661,52.35034,0.348,-3.06468,0.85278
473.261,52.40934,0.33744,-3.06592,0.85232
473.861,52.46846,0.34193,-3.06595,0.85186
474.461,52.5277,0.33973,-3.06725,0.8514
475.061,52.5876,0.33977,-3.06724,0.85094
475.661,52.6471,0.33922,-3.06724,0.85048
476.261,52.70613,0.34603,-3.06852,0.85002
476.861,52.7654,0.34353,-3.07054,0.84956
477.461,52.8246,0.34088,-3.07184,0.8491
478.061,52.88394,0.33836,-3.07185,0.84864
478.661,52.94333,0.33892,-3.07314,0.84818
479.261,53.00254,0.34398,-3.07345,0.84772
479.861,53.06171,0.34036,-3.07449,0.84725
480.461,53.12093,0.35041,-3.07494,0.84679
481.061,53.18015,0.35086,-3.07548,0.84633
481.661,53.23952,0.3573,-3.07679,0.84586
482.261,53.29875,0.35198,-3.07822,0.8454
482.861,53.358,0.36003,-3.07818,0.84494
483.461,53.4171,0.35501,-3.07943,0.84447
484.061,53.4763,0.35938,-3.07954,0.84401
484.661,53.53556,0.35674,-3.07991,0.84354
485.261,53.595,0.36421,-3.08095,0.84307
485.861,53.6542,0.36335,-3.08147,0.84261
486.461,53.7133,0.37073,-3.08249,0.84214
487.061,53.7724,0.3665,-3.08383,0.84167
487.661,53.8315,0.36746,-3.08384,0.84121
488.261,53.89071,0.36875,-3.08514,0.84074
488.861,53.9502,0.37617,-3.08514,0.84027
489.461,54.00962,0.37137,-3.08645,0.8398
490.061,54.0692,0.36723,-3.08645,0.83933
490.661,54.12855,0.35949,-3.08777,0.83886
491.261,54.1872,0.36913,-3.08845,0.83839
491.861,54.2465,0.37066,-3.08794,0.83792
492.461,54.30565,0.36192,-3.09041,0.83745
493.061,54.36498,0.37517,-3.09049,0.83698
493.661,54.4242,0.36827,-3.09172,0.83651
494.261,54.4836,0.36894,-3.09305,0.83604
494.861,54.54291,0.36682,-3.09269,0.83556
495.461,54.6028,0.36619,-3.09236,0.83509
496.061,54.6624,0.36122,-3.09337,0.83462
496.661,54.7222,0.35387,-3.09479,0.83414
497.261,54.7815,0.34698,-3.09469,0.83367
497.861,54.8411,0.33693,-3.09664,0.8332
498.461,54.9006,0.32099,-3.09713,0.83272
499.061,54.96024,0.31554,-3.09798,0.83225
499.661,55.0195,0.30811,-3.09798,0.83177
500.261,55.07884,0.30569,-3.0993,0.8313
500.861,55.1385,0.30116,-3.10062,0.83082
501.461,55.19784,0.29957,-3.10061,0.83034
502.061,55.25781,0.29305,-3.10193,0.82987
502.661,55.3172,0.29603,-3.10127,0.82939
503.261,55.3767,0.29417,-3.1024,0.82891
503.861,55.4367,0.2875,-3.10189,0.82843
504.461,55.4963,0.28715,-3.10325,0.82795
505.061,55.5559,0.27966,-3.10364,0.82748
505.661,55.61543,0.28079,-3.10588,0.827
506.261,55.67495,0.27305,-3.10721,0.82652
506.861,55.73444,0.28754,-3.10719,0.82604
507.461,55.79399,0.27247,-3.10852,0.82556
508.061,55.85324,0.27299,-3.10755,0.82508
508.661,55.9128,0.26447,-3.10852,0.8246
509.261,55.97243,0.2683,-3.1097,0.82411
509.861,56.03196,0.27362,-3.10983,0.82363
510.461,56.0915,0.27117,-3.10981,0.82315
511.061,56.1508,0.26609,-3.11115,0.82267
511.661,56.21017,0.263,-3.11117,0.82218
512.261,56.26973,0.26195,-3.1115,0.8217
512.861,56.32923,0.26015,-3.11215,0.82122
513.461,56.3887,0.25469,-3.1128,0.82073
514.061,56.4479,0.26112,-3.11477,0.82025
514.661,56.5073,0.25842,-3.11477,0.81976
515.261,56.5667,0.2545,-3.11479,0.81928
515.861,56.6264,0.25127,-3.11609,0.81879
516.461,56.68616,0.25004,-3.11477,0.81831
517.061,56.7458,0.25075,-3.11609,0.81782
517.661,56.80562,0.23907,-3.11672,0.81734
518.261,56.86509,0.23559,-3.11741,0.81685
518.861,56.9246,0.23499,-3.1187,0.81636
519.461,56.98424,0.23923,-3.11872,0.81587
520.061,57.0439,0.24737,-3.11873,0.81539
520.661,57.10365,0.23632,-3.12134,0.8149
521.261,57.16326,0.22761,-3.12259,0.81441
521.861,57.2229,0.23589,-3.12268,0.81392
522.461,57.28232,0.22978,-3.12407,0.81343
523.061,57.3418,0.23936,-3.12268,0.81294
523.661,57.40132,0.23688,-3.12407,0.81245
524.261,57.4611,0.24126,-3.12399,0.81196
524.861,57.52064,0.24181,-3.124,0.81147
525.461,57.58019,0.24126,-3.12531,0.81098
526.061,57.6396,0.23043,-3.12531,0.81049
526.661,57.6991,0.24299,-3.12598,0.80999
527.261,57.7585,0.2405,-3.12598,0.8095
527.861,57.81816,0.23881,-3.1273,0.80901
528.461,57.87778,0.24239,-3.1273,0.80851
529.061,57.9377,0.23856,-3.12861,0.80802
529.661,57.9976,0.24263,-3.12863,0.80753
530.261,58.05754,0.24002,-3.12993,0.80703
530.861,58.11727,0.23378,-3.13089,0.80654
531.461,58.1767,0.23017,-3.13125,0.80604
532.061,58.23633,0.23373,-3.13205,0.80555
532.661,58.29605,0.24117,-3.1319,0.80505
533.261,58.3557,0.23927,-3.1319,0.80456
533.861,58.41559,0.22576,-3.13322,0.80406
534.461,58.4753,0.23366,-3.13317,0.80356
535.061,58.53505,0.23926,-3.13454,0.80307
535.661,58.5949,0.23226,-3.13524,0.80257
536.261,58.6547,0.23328,-3.13586,0.80207
536.861,58.7144,0.22908,-3.13693,0.80157
537.461,58.77398,0.22988,-3.13717,0.80108
538.061,58.83356,0.22794,-3.1385,0.80058
538.661,58.8933,0.22693,-3.13849,0.80008
539.261,58.953,0.22005,-3.13883,0.79958
539.861,59.0129,0.22579,-3.13981,0.79908
540.461,59.07252,0.22023,-3.13996,0.79858
541.061,59.1323,0.21589,-3.13917,0.79808
541.661,59.19206,0.22448,-3.13984,0.79758
542.261,59.25172,0.22063,-3.14113,0.79708
542.861,59.3112,0.21523,-3.14244,0.79657
543.461,59.37072,0.20954,-3.14142,0.79607
544.061,59.4303,0.20854,-3.14253,0.79557
544.661,59.49,0.21497,-3.14277,0.79507
545.261,59.5496,0.21972,-3.14276,0.79457
545.861,59.6093,0.21906,-3.14409,0.79406
546.461,59.66868,0.2104,-3.14409,0.79356
547.061,59.72841,0.21697,-3.14572,0.79305
547.661,59.78829,0.21415,-3.14664,0.79255
548.261,59.8482,0.21859,-3.14705,0.79205
548.861,59.90764,0.21401,-3.14708,0.79154
549.461,59.96716,0.21969,-3.14592,0.79104
550.061,60.0266,0.22095,-3.14817,0.79053
550.661,60.0863,0.21412,-3.14837,0.79002
551.261,60.14589,0.21528,-3.14838,0.78952
551.861,60.2055,0.20426,-3.1497,0.78901
552.461,60.2652,0.20439,-3.15129,0.7885
553.061,60.3251,0.21527,-3.15133,0.788
553.661,60.3847,0.20791,-3.15128,0.78749
554.261,60.44429,0.20607,-3.15265,0.78698
554.861,60.50382,0.20589,-3.15265,0.78647
555.461,60.5634,0.20937,-3.15364,0.78596
556.061,60.62319,0.21208,-3.15295,0.78546
556.661,60.68284,0.20867,-3.15295,0.78495
557.261,60.74285,0.20739,-3.15333,0.78444
557.861,60.8029,0.19955,-3.15465,0.78393
558.461,60.86294,0.19854,-3.15596,0.78342
559.061,60.92289,0.19528,-3.15528,0.78291
559.661,60.98256,0.18821,-3.15528,0.78239
560.261,61.04243,0.1859,-3.1566,0.78188
560.861,61.10235,0.18422,-3.15725,0.78137
561.461,61.16235,0.18576,-3.15792,0.78086
562.061,61.2223,0.1943,-3.15793,0.78035
562.661,61.28235,0.18585,-3.15923,0.77983
563.261,61.3422,0.17807,-3.15923,0.77932
563.861,61.4022,0.18064,-3.15858,0.77881
564.461,61.4619,0.17865,-3.15956,0.77829
565.061,61.5218,0.17727,-3.16093,0.77778
565.661,61.58164,0.17871,-3.16088,0.77727
566.261,61.6416,0.18033,-3.1622,0.77675
566.861,61.70151,0.17313,-3.1621,0.77624
567.461,61.7613,0.16304,-3.16221,0.77572
568.061,61.82128,0.1716,-3.16351,0.77521
568.661,61.8812,0.16402,-3.16351,0.77469
569.261,61.941,0.16795,-3.16427,0.77417
569.861,62.00105,0.16907,-3.1645,0.77366
570.461,62.06075,0.16739,-3.16483,0.77314
571.061,62.12065,0.16914,-3.16615,0.77262
571.661,62.1805,0.1737,-3.16617,0.77211
572.261,62.2404,0.17745,-3.16681,0.77159
572.861,62.3004,0.17612,-3.16682,0.77107
573.461,62.3604,0.17399,-3.16682,0.77055
574.061,62.4203,0.16172,-3.16755,0.77003
574.661,62.4803,0.16587,-3.16813,0.76952
575.261,62.5405,0.16315,-3.16813,0.769
575.861,62.60055,0.15441,-3.16943,0.76848
576.461,62.6604,0.15796,-3.16945,0.76796
577.061,62.72031,0.16204,-3.17077,0.76744
577.661,62.7802,0.15819,-3.17077,0.76692
578.261,62.84007,0.16579,-3.17077,0.7664
578.861,62.9,0.16607,-3.1721,0.76587
579.461,62.9599,0.15735,-3.17143,0.76535
580.061,63.01981,0.15478,-3.17235,0.76483
580.661,63.07951,0.15875,-3.17142,0.76431
581.261,63.1395,0.15491,-3.17407,0.76379
581.861,63.19955,0.15378,-3.17406,0.76326
582.461,63.2597,0.1528,-3.17538,0.76274
583.061,63.31957,0.15088,-3.17538,0.76222
583.661,63.37941,0.1513,-3.17472,0.76169
584.261,63.4394,0.15641,-3.17604,0.76117
584.861,63.4991,0.15343,-3.17604,0.76065
585.461,63.559,0.15657,-3.17602,0.76012
586.061,63.6188,0.15175,-3.17669,0.7596
586.661,63.67869,0.15496,-3.17799,0.75907
587.261,63.7386,0.16006,-3.17801,0.75855
587.861,63.79843,0.156,-3.17802,0.75802
588.461,63.8583,0.171,-3.17904,0.75749
589.061,63.9183,0.16528,-3.17929,0.75697
589.661,63.97844,0.17056,-3.17999,0.75644
590.261,64.03848,0.17668,-3.17999,0.75591
590.861,64.09829,0.17371,-3.17999,0.75539
591.461,64.15811,0.17577,-3.17998,0.75486
592.061,64.2181,0.17308,-3.18064,0.75433
592.661,64.27811,0.16965,-3.18196,0.7538
593.261,64.33813,0.17044,-3.18196,0.75328
593.861,64.39831,0.17431,-3.18162,0.75275
594.461,64.45829,0.17054,-3.18163,0.75222
595.061,64.51807,0.16424,-3.18295,0.75169
595.661,64.57794,0.16781,-3.18295,0.75116
596.261,64.6379,0.17233,-3.18296,0.75063
596.861,64.69796,0.17281,-3.18427,0.7501
597.461,64.75786,0.17012,-3.18482,0.74957
598.061,64.818,0.17223,-3.1846,0.74904
598.661,64.878,0.17654,-3.1846,0.74851
599.261,64.93815,0.15852,-3.1846,0.74798
599.861,64.99821,0.17147,-3.18592,0.74744
600.461,65.0583,0.17591,-3.1869,0.74691
601.061,65.1184,0.16132,-3.18822,0.74638
601.661,65.17845,0.16061,-3.18824,0.74585
602.261,65.23855,0.17134,-3.18822,0.74532
602.861,65.29858,0.16285,-3.18822,0.74478
603.461,65.35857,0.16159,-3.18822,0.74425
604.061,65.4188,0.16406,-3.18954,0.74372
604.661,65.47895,0.16126,-3.18954,0.74318
605.261,65.53905,0.15822,-3.19086,0.74265
605.861,65.59908,0.16239,-3.19086,0.74211
606.461,65.6592,0.15844,-3.19218,0.74158
607.061,65.71938,0.16165,-3.19218,0.74104
607.661,65.77943,0.16708,-3.19183,0.74051
608.261,65.8395,0.16284,-3.19122,0.73997
608.861,65.89939,0.15779,-3.19217,0.73944
609.461,65.95929,0.159,-3.19349,0.7389
610.061,66.01925,0.15808,-3.19481,0.73837
610.661,66.07916,0.16855,-3.19349,0.73783
611.261,66.1391,0.15728,-3.19448,0.73729
611.861,66.19932,0.15842,-3.19448,0.73675
612.461,66.25926,0.1669,-3.19448,0.73622
613.061,66.3192,0.15659,-3.19481,0.73568
613.661,66.37941,0.16408,-3.19613,0.73514
614.261,66.43936,0.16319,-3.19613,0.7346
614.861,66.49894,0.15894,-3.19482,0.73407
615.461,66.55901,0.1601,-3.19612,0.73353
616.061,66.619,0.16442,-3.19678,0.73299
616.661,66.6791,0.16771,-3.19678,0.73245
617.261,66.7392,0.15423,-3.19744,0.73191
617.861,66.79912,0.15751,-3.19744,0.73137
618.461,66.85921,0.15973,-3.19744,0.73083
619.061,66.91942,0.15678,-3.19876,0.73029
619.661,66.97949,0.164,-3.19812,0.72975
620.261,67.0394,0.15786,-3.19942,0.72921
620.861,67.09939,0.16653,-3.19942,0.72867
621.461,67.15908,0.15931,-3.19942,0.72812
622.061,67.21891,0.15928,-3.20073,0.72758
622.661,67.27901,0.16257,-3.20073,0.72704
623.261,67.339,0.16387,-3.20073,0.7265
623.861,67.39909,0.17756,-3.20205,0.72596
624.461,67.45911,0.1735,-3.20139,0.72541
625.061,67.51935,0.1705,-3.20271,0.72487
625.661,67.57965,0.16339,-3.20271,0.72433
626.261,67.63996,0.16553,-3.20199,0.72378
626.861,67.69991,0.1752,-3.20271,0.72324
627.461,67.76015,0.16607,-3.20272,0.7227
628.061,67.8203,0.17633,-3.20371,0.72215
628.661,67.8806,0.16468,-3.20404,0.72161
629.261,67.94086,0.17435,-3.20533,0.72106
629.861,68.00102,0.17535,-3.20403,0.72052
630.461,68.0611,0.17424,-3.20534,0.71997
631.061,68.12136,0.16998,-3.20535,0.71943
631.661,68.18162,0.16307,-3.20676,0.71888
632.261,68.24167,0.16391,-3.20667,0.71834
632.861,68.30176,0.1707,-3.20668,0.71779
633.461,68.36188,0.16151,-3.20787,0.71724
634.061,68.42196,0.15666,-3.20667,0.7167
634.661,68.48225,0.15072,-3.2073,0.71615
635.261,68.54236,0.14566,-3.2093,0.7156
635.861,68.6024,0.14937,-3.20797,0.71506
636.461,68.6624,0.13517,-3.20798,0.71451
637.061,68.72248,0.15254,-3.20798,0.71396
637.661,68.78254,0.15461,-3.20931,0.71341
638.261,68.8428,0.1539,-3.2093,0.71286
638.861,68.90309,0.14607,-3.2093,0.71232
639.461,68.96329,0.14974,-3.2093,0.71177
640.061,69.02354,0.16946,-3.21063,0.71122
640.661,69.08391,0.14857,-3.2106,0.71067
641.261,69.14404,0.15287,-3.21059,0.71012
641.861,69.2044,0.15339,-3.21061,0.70957
642.461,69.26462,0.14899,-3.21055,0.70902
643.061,69.325,0.14945,-3.2116,0.70847
643.661,69.3852,0.16,-3.21195,0.70792
644.261,69.44538,0.16055,-3.2116,0.70737
644.861,69.5054,0.15831,-3.2116,0.70682
645.461,69.56568,0.15707,-3.21292,0.70627
646.061,69.62612,0.15231,-3.21292,0.70572
646.661,69.68652,0.14033,-3.21292,0.70516
647.261,69.74648,0.14456,-3.21292,0.70461
647.861,69.80671,0.15527,-3.21408,0.70406
648.461,69.86704,0.14681,-3.21292,0.70351
649.061,69.9276,0.1448,-3.21423,0.70295
649.661,69.98777,0.14537,-3.21423,0.7024
649.761,69.99778,0.1439,-3.21423,0.70231