File: 01_Data/Masonite_Board/STA/N2/10K_min/Masonite_Board_STA_N2_10KData_222706_R3.csv
##Temp./Â°C,Time/min,DSC(subtr.)/mW,Mass loss(subtr.)/mg,Sensit./(uV/mW)
49.731,10.01,0.0306553,-0.04074,1.07017
50.331,10.73806,0.17648,-0.04275666,1.07001
50.931,10.93037,0.27063,-0.04270752,1.06984
51.531,11.0712,0.36305,-0.04191389,1.06967
52.131,11.19,0.43724,-0.04325704,1.06951
52.731,11.2959,0.49564,-0.04124797,1.06934
53.331,11.39236,0.55668,-0.04255242,1.06918
53.931,11.4823,0.5888,-0.04359893,1.06901
54.531,11.56719,0.63992,-0.04298363,1.06884
55.131,11.64962,0.68092,-0.04293377,1.06867
55.731,11.72977,0.71328,-0.04456928,1.06851
56.331,11.80637,0.7497,-0.04478067,1.06834
56.931,11.8817,0.77434,-0.04412702,1.06817
57.531,11.955,0.79499,-0.04311982,1.068
58.131,12.0267,0.8237,-0.04431509,1.06783
58.731,12.09675,0.84265,-0.0444271,1.06766
59.331,12.16625,0.86189,-0.04470571,1.06749
59.931,12.23516,0.88062,-0.0450251,1.06732
60.531,12.30361,0.89718,-0.04423906,1.06715
61.131,12.37161,0.91658,-0.04632237,1.06698
61.731,12.43869,0.92915,-0.04634919,1.0668
62.331,12.5056,0.93834,-0.0471347,1.06663
62.931,12.57232,0.95276,-0.04650849,1.06646
63.531,12.63845,0.97229,-0.04645891,1.06629
64.131,12.70447,0.97515,-0.04664054,1.06611
64.731,12.7697,0.99544,-0.04697722,1.06594
65.331,12.83505,1.00554,-0.04679843,1.06576
65.931,12.9003,1.00458,-0.04763974,1.06559
66.531,12.9655,1.0253,-0.04632294,1.06541
67.131,13.03045,1.03712,-0.04764994,1.06524
67.731,13.09535,1.04657,-0.04763235,1.06506
68.331,13.1598,1.05176,-0.04797163,1.06489
68.931,13.22414,1.06195,-0.04761924,1.06471
69.531,13.28845,1.06866,-0.0489698,1.06453
70.131,13.35245,1.0791,-0.05026673,1.06436
70.731,13.41645,1.08116,-0.05035836,1.06418
71.331,13.47984,1.09783,-0.04830978,1.064
71.931,13.5432,1.10707,-0.04967885,1.06382
72.531,13.6068,1.11503,-0.05094116,1.06364
73.131,13.6703,1.12284,-0.05162653,1.06347
73.731,13.7339,1.13878,-0.05084157,1.06329
74.331,13.797,1.13993,-0.05095303,1.06311
74.931,13.85997,1.13982,-0.0512821,1.06293
75.531,13.92274,1.14948,-0.05224578,1.06275
76.131,13.9856,1.15435,-0.05257702,1.06257
76.731,14.04834,1.16131,-0.05359008,1.06238
77.331,14.1108,1.16291,-0.0535911,1.0622
77.931,14.1734,1.16925,-0.05363502,1.06202
78.531,14.2356,1.18461,-0.05358002,1.06184
79.131,14.29771,1.1852,-0.05357681,1.06165
79.731,14.3596,1.19039,-0.05489898,1.06147
80.331,14.42124,1.18504,-0.05481521,1.06129
80.931,14.48276,1.1895,-0.05357995,1.0611
81.531,14.5444,1.19649,-0.05437075,1.06092
82.131,14.6059,1.19823,-0.05476976,1.06074
82.731,14.6675,1.20399,-0.05382231,1.06055
83.331,14.7288,1.20938,-0.05520141,1.06036
83.931,14.78997,1.21042,-0.05654,1.06018
84.531,14.85084,1.20191,-0.05654286,1.05999
85.131,14.9115,1.21318,-0.05730198,1.05981
85.731,14.97189,1.20287,-0.05852004,1.05962
86.331,15.03255,1.20688,-0.0585659,1.05943
86.931,15.09327,1.21063,-0.05851862,1.05924
87.531,15.15425,1.20558,-0.05730022,1.05906
88.131,15.2148,1.20664,-0.05716242,1.05887
88.731,15.275,1.20617,-0.05851907,1.05868
89.331,15.33516,1.20191,-0.0584862,1.05849
89.931,15.3952,1.20731,-0.05992261,1.0583
90.531,15.45529,1.20337,-0.06017041,1.05811
91.131,15.5152,1.20158,-0.05891064,1.05792
91.731,15.57431,1.20401,-0.05883597,1.05773
92.331,15.6338,1.20336,-0.05983882,1.05754
92.931,15.69326,1.19839,-0.0598383,1.05735
93.531,15.7531,1.19471,-0.0601812,1.05715
94.131,15.81267,1.19449,-0.06149379,1.05696
94.731,15.87195,1.1918,-0.06036843,1.05677
95.331,15.9314,1.19155,-0.06148244,1.05658
95.931,15.9908,1.19041,-0.06215079,1.05638
96.531,16.05,1.18755,-0.06214002,1.05619
97.131,16.10933,1.18409,-0.06349866,1.05599
97.731,16.16841,1.18901,-0.06203499,1.0558
98.331,16.2279,1.17844,-0.06072087,1.0556
98.931,16.28709,1.17463,-0.06072193,1.05541
99.531,16.34646,1.17696,-0.06269962,1.05521
100.131,16.40561,1.18823,-0.0630198,1.05502
100.731,16.46474,1.18541,-0.06277933,1.05482
101.331,16.52366,1.19267,-0.06308296,1.05462
101.931,16.58259,1.19786,-0.06302974,1.05443
102.531,16.64159,1.19759,-0.06409302,1.05423
103.131,16.70065,1.20704,-0.06532018,1.05403
103.731,16.75974,1.19463,-0.06532043,1.05383
104.331,16.81829,1.20106,-0.06566736,1.05363
104.931,16.87695,1.19794,-0.06533579,1.05343
105.531,16.9356,1.19234,-0.06532822,1.05324
106.131,16.9942,1.19759,-0.06400322,1.05304
106.731,17.05303,1.19455,-0.06414658,1.05283
107.331,17.11175,1.19353,-0.06533019,1.05263
107.931,17.17026,1.19838,-0.06532808,1.05243
108.531,17.2289,1.20184,-0.06532941,1.05223
109.131,17.2876,1.2048,-0.0658547,1.05203
109.731,17.34627,1.19876,-0.06598979,1.05183
110.331,17.40466,1.18602,-0.06457804,1.05162
110.931,17.46332,1.19592,-0.06463595,1.05142
111.531,17.52175,1.19213,-0.06596841,1.05122
112.131,17.58044,1.19273,-0.06466988,1.05101
112.731,17.63944,1.18915,-0.06467,1.05081
113.331,17.6982,1.19517,-0.0646709,1.05061
113.931,17.75655,1.19451,-0.06567152,1.0504
114.531,17.81486,1.19999,-0.06565984,1.05019
115.131,17.87304,1.1993,-0.06602439,1.04999
115.731,17.93161,1.19813,-0.06461057,1.04978
116.331,17.98994,1.19719,-0.06598999,1.04958
116.931,18.0483,1.19667,-0.06619723,1.04937
117.531,18.10669,1.205,-0.06731033,1.04916
118.131,18.16532,1.2002,-0.06731,1.04895
118.731,18.22387,1.19942,-0.06731552,1.04875
119.331,18.28227,1.20077,-0.06599161,1.04854
119.931,18.34061,1.20737,-0.06599,1.04833
120.531,18.39885,1.20911,-0.06598622,1.04812
121.131,18.45725,1.20224,-0.06729894,1.04791
121.731,18.5157,1.20655,-0.06730002,1.0477
122.331,18.57365,1.20505,-0.06733789,1.04749
122.931,18.63204,1.2085,-0.06598081,1.04728
123.531,18.69045,1.2079,-0.06597876,1.04707
124.131,18.74905,1.20068,-0.0673067,1.04686
124.731,18.80746,1.21049,-0.06730001,1.04664
125.331,18.8656,1.21381,-0.0673,1.04643
125.931,18.92351,1.21811,-0.06729635,1.04622
126.531,18.9814,1.21066,-0.06797325,1.046
127.131,19.03911,1.21173,-0.06797,1.04579
127.731,19.09672,1.21168,-0.0679699,1.04558
128.331,19.1545,1.22705,-0.06766851,1.04536
128.931,19.21274,1.21833,-0.06862835,1.04515
129.531,19.27104,1.22117,-0.0682058,1.04493
130.131,19.32943,1.22124,-0.06731026,1.04472
130.731,19.3879,1.22917,-0.06864136,1.0445
131.331,19.44599,1.22408,-0.06861815,1.04428
131.931,19.50398,1.2329,-0.06730406,1.04407
132.531,19.56201,1.23536,-0.06782198,1.04385
133.131,19.61992,1.22596,-0.06862325,1.04363
133.731,19.67804,1.23944,-0.06795986,1.04342
134.331,19.736,1.23341,-0.06795947,1.0432
134.931,19.7936,1.24284,-0.06916865,1.04298
135.531,19.8514,1.24767,-0.06861991,1.04276
136.131,19.90917,1.24544,-0.06862,1.04254
136.731,19.96717,1.24049,-0.06862,1.04232
137.331,20.02546,1.25155,-0.06862,1.0421
137.931,20.08297,1.24785,-0.06862,1.04188
138.531,20.14026,1.24585,-0.06861985,1.04166
139.131,20.19799,1.25168,-0.06946759,1.04144
139.731,20.2558,1.25081,-0.06861979,1.04121
140.331,20.314,1.26067,-0.06860712,1.04099
140.931,20.37226,1.25516,-0.06763893,1.04077
141.531,20.42981,1.26476,-0.06764,1.04055
142.131,20.4875,1.27154,-0.06764006,1.04032
142.731,20.54524,1.26534,-0.06792208,1.0401
143.331,20.60313,1.27233,-0.06897269,1.03987
143.931,20.66104,1.27223,-0.0686199,1.03965
144.531,20.719,1.26925,-0.06861987,1.03942
145.131,20.77683,1.27755,-0.06979559,1.0392
145.731,20.83442,1.27556,-0.06993995,1.03897
146.331,20.89225,1.28908,-0.06996324,1.03875
146.931,20.95,1.28267,-0.06862,1.03852
147.531,21.00759,1.28708,-0.06862,1.03829
148.131,21.0653,1.29501,-0.06861996,1.03807
148.731,21.1231,1.29472,-0.06855403,1.03784
149.331,21.1806,1.2948,-0.06995182,1.03761
149.931,21.23795,1.29951,-0.06993984,1.03738
150.531,21.29524,1.30975,-0.07033482,1.03715
151.131,21.35277,1.30449,-0.06893039,1.03692
151.731,21.41016,1.3055,-0.0699407,1.03669
152.331,21.46858,1.30896,-0.06994,1.03646
152.931,21.5262,1.31302,-0.06994,1.03623
153.531,21.58395,1.31169,-0.0699416,1.036
154.131,21.64134,1.3206,-0.07126424,1.03577
154.731,21.69892,1.31373,-0.07001219,1.03554
155.331,21.75649,1.31254,-0.0698436,1.0353
155.931,21.8145,1.31909,-0.07124989,1.03507
156.531,21.87248,1.31925,-0.07125001,1.03484
157.131,21.93046,1.32434,-0.07125383,1.0346
157.731,21.98805,1.3283,-0.06993854,1.03437
158.331,22.0455,1.33001,-0.07085056,1.03414
158.931,22.10312,1.33348,-0.0699554,1.0339
159.531,22.1604,1.34405,-0.06992999,1.03367
160.131,22.21779,1.34175,-0.07040646,1.03343
160.731,22.27533,1.34251,-0.07125024,1.03319
161.331,22.33284,1.35379,-0.07124994,1.03296
161.931,22.39039,1.34674,-0.07123258,1.03272
162.531,22.44794,1.34918,-0.07058987,1.03248
163.131,22.50526,1.35133,-0.06971349,1.03225
163.731,22.5627,1.35744,-0.07069155,1.03201
164.331,22.62021,1.3635,-0.07125774,1.03177
164.931,22.6778,1.36304,-0.0712819,1.03153
165.531,22.7349,1.36835,-0.07258053,1.03129
166.131,22.7916,1.37189,-0.07260991,1.03105
166.731,22.84883,1.37389,-0.07125974,1.03081
167.331,22.9061,1.37631,-0.07238983,1.03057
167.931,22.96419,1.37889,-0.07266701,1.03033
168.531,23.0221,1.37956,-0.07158954,1.03009
169.131,23.07953,1.38772,-0.07158904,1.02985
169.731,23.137,1.393,-0.07290161,1.02961
170.331,23.19427,1.39348,-0.07296095,1.02936
170.931,23.25171,1.38947,-0.07192023,1.02912
171.531,23.30923,1.39738,-0.07192,1.02888
172.131,23.36658,1.39717,-0.07190376,1.02863
172.731,23.4238,1.3984,-0.07302448,1.02839
173.331,23.4811,1.39962,-0.07322997,1.02815
173.931,23.53833,1.40403,-0.07323,1.0279
174.531,23.59556,1.41411,-0.07323008,1.02766
175.131,23.653,1.41649,-0.07338758,1.02741
175.731,23.71034,1.41638,-0.07422756,1.02716
176.331,23.76768,1.41893,-0.07455009,1.02692
176.931,23.8249,1.42659,-0.07455,1.02667
177.531,23.88213,1.42351,-0.07454787,1.02642
178.131,23.93944,1.4249,-0.07520818,1.02618
178.731,23.9967,1.43037,-0.07510517,1.02593
179.331,24.05408,1.4381,-0.07620111,1.02568
179.931,24.11143,1.43922,-0.07652382,1.02543
180.531,24.16874,1.44019,-0.07653001,1.02518
181.131,24.2259,1.44259,-0.07653,1.02493
181.731,24.28327,1.44732,-0.07653003,1.02468
182.331,24.3403,1.45001,-0.07653669,1.02443
182.931,24.39743,1.44962,-0.07686184,1.02418
183.531,24.45445,1.45413,-0.07818679,1.02393
184.131,24.5117,1.4517,-0.07818,1.02368
184.731,24.5689,1.46665,-0.07818,1.02342
185.331,24.62613,1.46004,-0.07818,1.02317
185.931,24.6833,1.4648,-0.07818,1.02292
186.531,24.7407,1.46519,-0.07818,1.02266
187.131,24.79794,1.47337,-0.07817793,1.02241
187.731,24.8552,1.47166,-0.07850999,1.02216
188.331,24.9123,1.47748,-0.07896833,1.0219
188.931,24.96935,1.47908,-0.07949004,1.02165
189.531,25.02634,1.4846,-0.07949,1.02139
190.131,25.08349,1.48897,-0.07949144,1.02113
190.731,25.14067,1.48634,-0.08045999,1.02088
191.331,25.19774,1.49284,-0.08047002,1.02062
191.931,25.2549,1.49658,-0.08047,1.02036
192.531,25.3122,1.49344,-0.08047,1.02011
193.131,25.36937,1.50453,-0.08046999,1.01985
193.731,25.42663,1.50198,-0.08150608,1.01959
194.331,25.4838,1.5101,-0.08178984,1.01933
194.931,25.5408,1.50779,-0.0817799,1.01907
195.531,25.5979,1.50822,-0.08244945,1.01881
196.131,25.65504,1.51168,-0.08245,1.01855
196.731,25.71176,1.51894,-0.08245,1.01829
197.331,25.76843,1.52444,-0.08245,1.01803
197.931,25.8255,1.53023,-0.08245,1.01777
198.531,25.88269,1.52677,-0.08244938,1.01751
199.131,25.94043,1.52483,-0.08343629,1.01724
199.731,25.99784,1.5358,-0.08474888,1.01698
200.331,26.05499,1.53518,-0.08475999,1.01672
200.931,26.1118,1.53944,-0.08475911,1.01645
201.531,26.16876,1.54608,-0.08508779,1.01619
202.131,26.22553,1.55236,-0.08508999,1.01593
202.731,26.28261,1.55773,-0.08509003,1.01566
203.331,26.3398,1.56436,-0.08508445,1.0154
203.931,26.3968,1.56574,-0.0863052,1.01513
204.531,26.4537,1.57508,-0.08740055,1.01487
205.131,26.51081,1.57572,-0.0874,1.0146
205.731,26.56778,1.58011,-0.0874,1.01433
206.331,26.62482,1.58128,-0.08739655,1.01406
206.931,26.6812,1.58638,-0.08870222,1.0138
207.531,26.7384,1.59027,-0.08870821,1.01353
208.131,26.79565,1.5865,-0.08904218,1.01326
208.731,26.8533,1.59418,-0.08903999,1.01299
209.331,26.9109,1.60242,-0.08903083,1.01272
209.931,26.96773,1.60232,-0.09167489,1.01245
210.531,27.02465,1.61066,-0.09167001,1.01218
211.131,27.08158,1.6099,-0.09167792,1.01191
211.731,27.1386,1.61343,-0.09101954,1.01164
212.331,27.19551,1.61749,-0.09102,1.01137
212.931,27.2525,1.62643,-0.09102071,1.0111
213.531,27.30935,1.62061,-0.09365811,1.01083
214.131,27.36637,1.63331,-0.09365186,1.01055
214.731,27.4234,1.64038,-0.09293105,1.01028
215.331,27.4804,1.63309,-0.09430997,1.01001
215.931,27.53758,1.63634,-0.09431,1.00973
216.531,27.59475,1.64213,-0.09430958,1.00946
217.131,27.6518,1.64453,-0.09562126,1.00918
217.731,27.7088,1.6442,-0.09693969,1.00891
218.331,27.76571,1.65285,-0.09748356,1.00863
218.931,27.82276,1.66033,-0.09826003,1.00836
219.531,27.87995,1.66272,-0.09826006,1.00808
220.131,27.93696,1.66868,-0.09958375,1.0078
220.731,27.9941,1.66884,-0.10068,1.00752
221.331,28.05122,1.67247,-0.10057,1.00725
221.931,28.10841,1.67318,-0.10057,1.00697
222.531,28.16562,1.68656,-0.10056,1.00669
223.131,28.22288,1.68493,-0.10189,1.00641
223.731,28.28002,1.68339,-0.10189,1.00613
224.331,28.337,1.69529,-0.10191,1.00585
224.931,28.39395,1.70212,-0.1032,1.00557
225.531,28.4509,1.70381,-0.1032,1.00529
226.131,28.50812,1.69914,-0.10452,1.00501
226.731,28.5653,1.71078,-0.1046,1.00473
227.331,28.6224,1.70809,-0.10616,1.00445
227.931,28.6796,1.71383,-0.10647,1.00416
228.531,28.7369,1.72398,-0.10749,1.00388
229.131,28.79397,1.72787,-0.10783,1.0036
229.731,28.85112,1.72302,-0.10881,1.00331
230.331,28.90816,1.72943,-0.10881,1.00303
230.931,28.9653,1.73796,-0.11006,1.00274
231.531,29.0221,1.7419,-0.1101,1.00246
232.131,29.0792,1.73969,-0.11144,1.00217
232.731,29.1361,1.74641,-0.11242,1.00189
233.331,29.19316,1.74868,-0.11276,1.0016
233.931,29.2505,1.75122,-0.11408,1.00132
234.531,29.3078,1.75799,-0.11403,1.00103
235.131,29.3651,1.75693,-0.11669,1.00074
235.731,29.4222,1.7703,-0.11668,1.00045
236.331,29.47928,1.76736,-0.11802,1.00016
236.931,29.53623,1.76913,-0.11934,0.99988
237.531,29.59325,1.77457,-0.11934,0.99959
238.131,29.65038,1.7796,-0.12066,0.9993
238.731,29.7077,1.78179,-0.12199,0.99901
239.331,29.76502,1.78356,-0.12198,0.99872
239.931,29.8223,1.79381,-0.12329,0.99843
240.531,29.8795,1.79401,-0.12461,0.99813
241.131,29.93662,1.79796,-0.12473,0.99784
241.731,29.99379,1.79997,-0.12758,0.99755
242.331,30.05068,1.8042,-0.12856,0.99726
242.931,30.1078,1.80447,-0.12961,0.99696
243.531,30.1649,1.80437,-0.1308,0.99667
244.131,30.2219,1.81352,-0.13217,0.99638
244.731,30.27911,1.8152,-0.1335,0.99608
245.331,30.3363,1.81951,-0.13464,0.99579
245.931,30.3935,1.81682,-0.13551,0.99549
246.531,30.4506,1.82805,-0.13723,0.9952
247.131,30.5076,1.82427,-0.13878,0.9949
247.731,30.5645,1.82387,-0.13968,0.9946
248.331,30.62148,1.82589,-0.14014,0.99431
248.931,30.6787,1.83615,-0.14273,0.99401
249.531,30.7357,1.83529,-0.14404,0.99371
250.131,30.7928,1.83398,-0.14548,0.99341
250.731,30.84995,1.83531,-0.14811,0.99311
251.331,30.9071,1.839,-0.15023,0.99282
251.931,30.9643,1.84471,-0.15086,0.99252
252.531,31.0217,1.85061,-0.15218,0.99222
253.131,31.07878,1.84599,-0.15343,0.99192
253.731,31.13621,1.84996,-0.15592,0.99161
254.331,31.19339,1.85017,-0.15803,0.99131
254.931,31.2508,1.85126,-0.16035,0.99101
255.531,31.3078,1.85511,-0.16273,0.99071
256.131,31.36478,1.85524,-0.16634,0.99041
256.731,31.42189,1.86075,-0.16762,0.9901
257.331,31.47898,1.86272,-0.17042,0.9898
257.931,31.53616,1.86756,-0.17252,0.9895
258.531,31.5933,1.86689,-0.17481,0.98919
259.131,31.65076,1.87033,-0.1776,0.98889
259.731,31.708,1.87372,-0.17929,0.98858
260.331,31.76525,1.87273,-0.18205,0.98828
260.931,31.82242,1.87461,-0.18518,0.98797
261.531,31.8796,1.881,-0.18675,0.98766
262.131,31.9369,1.88023,-0.1906,0.98736
262.731,31.99415,1.88082,-0.19414,0.98705
263.331,32.05146,1.88719,-0.19623,0.98674
263.931,32.1087,1.89089,-0.19988,0.98643
264.531,32.16601,1.88843,-0.2026,0.98613
265.131,32.223,1.8889,-0.20538,0.98582
265.731,32.2802,1.89214,-0.20783,0.98551
266.331,32.33736,1.89004,-0.21124,0.9852
266.931,32.3945,1.87872,-0.21466,0.98489
267.531,32.4518,1.88944,-0.21957,0.98458
268.131,32.509,1.90299,-0.22409,0.98426
268.731,32.56622,1.89059,-0.22839,0.98395
269.331,32.6236,1.89427,-0.23157,0.98364
269.931,32.68078,1.90113,-0.23579,0.98333
270.531,32.7382,1.90085,-0.23933,0.98302
271.131,32.79553,1.90469,-0.24235,0.9827
271.731,32.85297,1.90035,-0.24639,0.98239
272.331,32.91039,1.90799,-0.25113,0.98207
272.931,32.96765,1.90958,-0.25573,0.98176
273.531,33.02448,1.90401,-0.26041,0.98144
274.131,33.0818,1.91465,-0.26564,0.98113
274.731,33.1391,1.91614,-0.27109,0.98081
275.331,33.19662,1.91492,-0.27426,0.9805
275.931,33.25423,1.91676,-0.27822,0.98018
276.531,33.31147,1.92279,-0.28379,0.97986
277.131,33.3689,1.92773,-0.29039,0.97954
277.731,33.42642,1.92331,-0.2952,0.97923
278.331,33.48395,1.92112,-0.29938,0.97891
278.931,33.54125,1.92223,-0.30636,0.97859
279.531,33.59854,1.91415,-0.31124,0.97827
280.131,33.65586,1.91063,-0.31726,0.97795
280.731,33.71321,1.91954,-0.32375,0.97763
281.331,33.7708,1.91657,-0.32975,0.97731
281.931,33.82809,1.91804,-0.33567,0.97699
282.531,33.8857,1.91989,-0.34142,0.97666
283.131,33.94319,1.91291,-0.34746,0.97634
283.731,34.00073,1.91461,-0.3537,0.97602
284.331,34.05835,1.91105,-0.36059,0.9757
284.931,34.11566,1.91107,-0.36771,0.97537
285.531,34.1731,1.91135,-0.37468,0.97505
286.131,34.23055,1.91289,-0.38178,0.97472
286.731,34.28778,1.90749,-0.38905,0.9744
287.331,34.34522,1.90403,-0.3958,0.97407
287.931,34.4026,1.90395,-0.40357,0.97375
288.531,34.4602,1.90059,-0.40995,0.97342
289.131,34.51757,1.89682,-0.41673,0.9731
289.731,34.57499,1.88805,-0.42386,0.97277
290.331,34.6322,1.89153,-0.43058,0.97244
290.931,34.68953,1.8843,-0.43997,0.97211
291.531,34.74692,1.88681,-0.44598,0.97179
292.131,34.8043,1.88028,-0.45156,0.97146
292.731,34.86185,1.86466,-0.45947,0.97113
293.331,34.9193,1.87753,-0.46586,0.9708
293.931,34.97655,1.86473,-0.47398,0.97047
294.531,35.03394,1.86274,-0.48328,0.97014
295.131,35.0912,1.86429,-0.49024,0.96981
295.731,35.1484,1.86309,-0.4988,0.96948
296.331,35.20561,1.85151,-0.50619,0.96914
296.931,35.26291,1.86133,-0.51378,0.96881
297.531,35.3202,1.85209,-0.51997,0.96848
298.131,35.3778,1.8512,-0.52814,0.96815
298.731,35.43543,1.84576,-0.53745,0.96781
299.331,35.49303,1.84079,-0.54566,0.96748
299.931,35.55052,1.84031,-0.5516,0.96714
300.531,35.6081,1.83873,-0.56002,0.96681
301.131,35.66571,1.83989,-0.5663,0.96647
301.731,35.72338,1.83484,-0.57477,0.96614
302.331,35.78117,1.84073,-0.58189,0.9658
302.931,35.83865,1.83544,-0.58941,0.96547
303.531,35.8962,1.83806,-0.59836,0.96513
304.131,35.95363,1.82822,-0.60589,0.96479
304.731,36.011,1.83363,-0.61371,0.96445
305.331,36.06845,1.83691,-0.62081,0.96412
305.931,36.1261,1.84249,-0.6293,0.96378
306.531,36.18359,1.84078,-0.63689,0.96344
307.131,36.2412,1.83687,-0.64387,0.9631
307.731,36.29891,1.85184,-0.65318,0.96276
308.331,36.3564,1.84968,-0.65975,0.96242
308.931,36.41372,1.85629,-0.66811,0.96208
309.531,36.47115,1.86125,-0.67543,0.96174
310.131,36.52864,1.85554,-0.68338,0.96139
310.731,36.58632,1.86455,-0.69195,0.96105
311.331,36.644,1.86836,-0.69961,0.96071
311.931,36.70172,1.87918,-0.70719,0.96037
312.531,36.7594,1.87772,-0.71646,0.96002
313.131,36.81706,1.88598,-0.72367,0.95968
313.731,36.8746,1.89527,-0.73097,0.95933
314.331,36.93212,1.91097,-0.73976,0.95899
314.931,36.9897,1.90838,-0.74684,0.95864
315.531,37.0471,1.91982,-0.75517,0.9583
316.131,37.10413,1.92866,-0.76362,0.95795
316.731,37.16173,1.94582,-0.77132,0.9576
317.331,37.21922,1.95322,-0.78007,0.95726
317.931,37.2774,1.9563,-0.78945,0.95691
318.531,37.33556,1.97297,-0.79811,0.95656
319.131,37.39332,1.98049,-0.80733,0.95621
319.731,37.45097,1.99034,-0.81666,0.95586
320.331,37.50847,2.00178,-0.82384,0.95551
320.931,37.56592,2.01324,-0.83219,0.95516
321.531,37.62353,2.03206,-0.84154,0.95481
322.131,37.68087,2.04764,-0.85053,0.95446
322.731,37.7386,2.05756,-0.85991,0.95411
323.331,37.79631,2.07277,-0.8694,0.95376
323.931,37.85368,2.08761,-0.87909,0.95341
324.531,37.91148,2.10669,-0.8889,0.95306
325.131,37.96918,2.12813,-0.89777,0.9527
325.731,38.02698,2.1487,-0.90588,0.95235
326.331,38.0854,2.17142,-0.91603,0.952
326.931,38.1432,2.20535,-0.92552,0.95164
327.531,38.20104,2.21476,-0.93671,0.95129
328.131,38.25846,2.23946,-0.94838,0.95093
328.731,38.31612,2.26569,-0.95784,0.95058
329.331,38.37375,2.29089,-0.96973,0.95022
329.931,38.4315,2.32044,-0.97941,0.94987
330.531,38.4895,2.33877,-0.99019,0.94951
331.131,38.54735,2.36231,-1.00094,0.94915
331.731,38.6053,2.40121,-1.01275,0.94879
332.331,38.66325,2.42945,-1.02467,0.94844
332.931,38.72116,2.46244,-1.03622,0.94808
333.531,38.7791,2.48929,-1.04906,0.94772
334.131,38.83655,2.52651,-1.06148,0.94736
334.731,38.8944,2.55402,-1.07352,0.947
335.331,38.9522,2.59302,-1.08684,0.94664
335.931,39.01021,2.63413,-1.09998,0.94628
336.531,39.0685,2.67137,-1.11246,0.94592
337.131,39.12666,2.71448,-1.12604,0.94555
337.731,39.18462,2.75746,-1.13924,0.94519
338.331,39.24279,2.7841,-1.15356,0.94483
338.931,39.3007,2.84509,-1.16737,0.94447
339.531,39.35882,2.89099,-1.18214,0.9441
340.131,39.41704,2.93319,-1.19725,0.94374
340.731,39.47522,2.99374,-1.21487,0.94338
341.331,39.5336,3.04486,-1.22974,0.94301
341.931,39.59175,3.09696,-1.24583,0.94265
342.531,39.64989,3.1447,-1.26304,0.94228
343.131,39.70778,3.20621,-1.27903,0.94191
343.731,39.76575,3.26213,-1.29644,0.94155
344.331,39.82375,3.33446,-1.3136,0.94118
344.931,39.88194,3.39143,-1.33181,0.94081
345.531,39.94016,3.45938,-1.35094,0.94045
346.131,39.99791,3.52901,-1.36934,0.94008
346.731,40.05592,3.59815,-1.38798,0.93971
347.331,40.1139,3.65664,-1.40885,0.93934
347.931,40.17217,3.73602,-1.42959,0.93897
348.531,40.2305,3.80644,-1.44882,0.9386
349.131,40.28877,3.88488,-1.47108,0.93823
349.731,40.34705,3.96178,-1.49374,0.93786
350.331,40.40505,4.03027,-1.5165,0.93749
350.931,40.46311,4.10437,-1.53756,0.93712
351.531,40.521,4.18185,-1.56426,0.93674
352.131,40.57918,4.25757,-1.58703,0.93637
352.731,40.63754,4.33571,-1.61138,0.936
353.331,40.69599,4.41971,-1.63476,0.93562
353.931,40.75427,4.49739,-1.66282,0.93525
354.531,40.81237,4.56732,-1.68907,0.93488
355.131,40.87045,4.63703,-1.71583,0.9345
355.731,40.92863,4.71413,-1.74044,0.93413
356.331,40.98705,4.78576,-1.76861,0.93375
356.931,41.04535,4.84699,-1.79659,0.93337
357.531,41.10334,4.92722,-1.82676,0.933
358.131,41.16098,4.98926,-1.85726,0.93262
358.731,41.2192,5.0497,-1.88445,0.93224
359.331,41.27747,5.11354,-1.91555,0.93187
359.931,41.33632,5.15587,-1.94622,0.93149
360.531,41.39478,5.21193,-1.97853,0.93111
361.131,41.45304,5.25918,-2.00929,0.93073
361.731,41.51128,5.28467,-2.04092,0.93035
362.331,41.56945,5.32004,-2.07268,0.92997
362.931,41.62769,5.3417,-2.10504,0.92959
363.531,41.68595,5.37027,-2.13788,0.92921
364.131,41.74405,5.37443,-2.16932,0.92883
364.731,41.80238,5.37523,-2.20366,0.92844
365.331,41.86057,5.37223,-2.23508,0.92806
365.931,41.9189,5.35003,-2.26882,0.92768
366.531,41.97717,5.31635,-2.30018,0.9273
367.131,42.0355,5.2795,-2.33304,0.92691
367.731,42.09357,5.21922,-2.36496,0.92653
368.331,42.15157,5.16548,-2.39618,0.92614
368.931,42.20948,5.07618,-2.42764,0.92576
369.531,42.2673,4.98428,-2.45666,0.92537
370.131,42.32537,4.89005,-2.48871,0.92499
370.731,42.38351,4.77656,-2.51562,0.9246
371.331,42.4416,4.65473,-2.54697,0.92422
371.931,42.49946,4.51633,-2.57352,0.92383
372.531,42.5574,4.36389,-2.6018,0.92344
373.131,42.61508,4.21661,-2.62618,0.92305
373.731,42.67289,4.04253,-2.65203,0.92266
374.331,42.73069,3.86465,-2.67567,0.92228
374.931,42.7887,3.67424,-2.69828,0.92189
375.531,42.84664,3.48112,-2.71886,0.9215
376.131,42.90437,3.28265,-2.73791,0.92111
376.731,42.96215,3.07691,-2.75961,0.92072
377.331,43.0198,2.88481,-2.77714,0.92032
377.931,43.07768,2.68649,-2.79373,0.91993
378.531,43.13565,2.48193,-2.80875,0.91954
379.131,43.1934,2.28,-2.82241,0.91915
379.731,43.25116,2.0949,-2.83494,0.91876
380.331,43.30887,1.91714,-2.84693,0.91836
380.931,43.36652,1.7407,-2.85732,0.91797
381.531,43.4244,1.57321,-2.86612,0.91758
382.131,43.4822,1.43018,-2.87564,0.91718
382.731,43.5401,1.28378,-2.88348,0.91679
383.331,43.59786,1.1539,-2.89034,0.91639
383.931,43.6556,1.0464,-2.89683,0.91599
384.531,43.71317,0.94034,-2.90093,0.9156
385.131,43.7708,0.85249,-2.906,0.9152
385.731,43.82857,0.77774,-2.90989,0.9148
386.331,43.8865,0.71217,-2.91433,0.91441
386.931,43.94449,0.64753,-2.91836,0.91401
387.531,44.0026,0.59232,-2.92079,0.91361
388.131,44.06047,0.55368,-2.92446,0.91321
388.731,44.11845,0.52438,-2.92736,0.91281
389.331,44.17638,0.48913,-2.9294,0.91241
389.931,44.23445,0.46155,-2.93158,0.91201
390.531,44.29244,0.44441,-2.93319,0.91161
391.131,44.35054,0.42853,-2.93605,0.91121
391.731,44.40842,0.41162,-2.93868,0.91081
392.331,44.46672,0.4007,-2.94001,0.91041
392.931,44.5248,0.39486,-2.94315,0.91001
393.531,44.58287,0.39179,-2.9444,0.9096
394.131,44.64131,0.38329,-2.94576,0.9092
394.731,44.69944,0.3711,-2.94832,0.9088
395.331,44.75781,0.3588,-2.94968,0.90839
395.931,44.81608,0.35119,-2.95089,0.90799
396.531,44.87437,0.34077,-2.95386,0.90758
397.131,44.9326,0.33853,-2.95529,0.90718
397.731,44.99087,0.3233,-2.95806,0.90677
398.331,45.04923,0.32088,-2.95933,0.90637
398.931,45.10753,0.31982,-2.96067,0.90596
399.531,45.1659,0.31133,-2.96187,0.90555
400.131,45.22443,0.298,-2.96505,0.90514
400.731,45.2827,0.28901,-2.96624,0.90474
401.331,45.34098,0.28743,-2.96799,0.90433
401.931,45.39947,0.27711,-2.97029,0.90392
402.531,45.45782,0.27379,-2.97032,0.90351
403.131,45.51658,0.26035,-2.97405,0.9031
403.731,45.5751,0.24572,-2.97602,0.90269
404.331,45.63357,0.2449,-2.97726,0.90228
404.931,45.69202,0.2418,-2.97865,0.90187
405.531,45.7505,0.23206,-2.98,0.90146
406.131,45.80881,0.22419,-2.9815,0.90105
406.731,45.86743,0.21805,-2.98283,0.90063
407.331,45.9258,0.21404,-2.98545,0.90022
407.931,45.98448,0.20459,-2.9872,0.89981
408.531,46.04322,0.19612,-2.98987,0.89939
409.131,46.10181,0.19066,-2.99197,0.89898
409.731,46.16049,0.18348,-2.99351,0.89857
410.331,46.2192,0.17694,-2.99376,0.89815
410.931,46.27782,0.17551,-2.99634,0.89774
411.531,46.33661,0.15973,-2.99765,0.89732
412.131,46.39537,0.15785,-3.00022,0.8969
412.731,46.45414,0.15623,-3.00073,0.89649
413.331,46.51282,0.14711,-3.00215,0.89607
413.931,46.57127,0.14242,-3.00496,0.89565
414.531,46.62979,0.13884,-3.00631,0.89524
415.131,46.6883,0.13277,-3.00762,0.89482
415.731,46.747,0.12829,-3.0101,0.8944
416.331,46.80575,0.10968,-3.01173,0.89398
416.931,46.86432,0.1152,-3.01421,0.89356
417.531,46.92306,0.11412,-3.01694,0.89314
418.131,46.98189,0.11709,-3.01735,0.89272
418.731,47.04,0.10773,-3.0185,0.8923
419.331,47.09872,0.09693468,-3.01977,0.89188
419.931,47.15724,0.09166679,-3.02223,0.89146
420.531,47.21605,0.10323,-3.02393,0.89104
421.131,47.27511,0.09768259,-3.02523,0.89061
421.731,47.33381,0.09365358,-3.02684,0.89019
422.331,47.39244,0.09993557,-3.02936,0.88977
422.931,47.451,0.09939799,-3.03083,0.88934
423.531,47.5096,0.0932848,-3.03307,0.88892
424.131,47.56825,0.09564541,-3.03486,0.88849
424.731,47.62692,0.09753989,-3.03685,0.88807
425.331,47.6854,0.09486265,-3.03802,0.88764
425.931,47.74369,0.10389,-3.0415,0.88722
426.531,47.80223,0.10651,-3.04223,0.88679
427.131,47.8608,0.10242,-3.04287,0.88637
427.731,47.91964,0.10571,-3.04417,0.88594
428.331,47.97865,0.11267,-3.04723,0.88551
428.931,48.03761,0.11454,-3.04982,0.88508
429.531,48.0964,0.11634,-3.05063,0.88465
430.131,48.1552,0.12303,-3.0522,0.88423
430.731,48.2138,0.12781,-3.05396,0.8838
431.331,48.27243,0.14029,-3.05527,0.88337
431.931,48.3313,0.14306,-3.05657,0.88294
432.531,48.39,0.14179,-3.05945,0.88251
433.131,48.44885,0.16124,-3.06112,0.88208
433.731,48.5075,0.15349,-3.0634,0.88164
434.331,48.56582,0.1589,-3.06484,0.88121
434.931,48.6245,0.16586,-3.06611,0.88078
435.531,48.68332,0.17562,-3.06746,0.88035
436.131,48.74203,0.18447,-3.06879,0.87991
436.731,48.80106,0.18759,-3.07013,0.87948
437.331,48.86,0.19702,-3.07141,0.87905
437.931,48.91896,0.20479,-3.07398,0.87861
438.531,48.97788,0.20972,-3.07452,0.87818
439.131,49.03667,0.21926,-3.07581,0.87774
439.731,49.09551,0.21973,-3.07701,0.87731
440.331,49.1544,0.23304,-3.07949,0.87687
440.931,49.21348,0.2377,-3.08147,0.87644
441.531,49.27241,0.24616,-3.08346,0.876
442.131,49.33136,0.25441,-3.0838,0.87556
442.731,49.39004,0.2598,-3.08514,0.87512
443.331,49.44882,0.26891,-3.08645,0.87469
443.931,49.5077,0.27917,-3.08777,0.87425
444.531,49.56647,0.28719,-3.08906,0.87381
445.131,49.62549,0.29737,-3.09046,0.87337
445.731,49.68443,0.31267,-3.09176,0.87293
446.331,49.74337,0.32037,-3.09379,0.87249
446.931,49.80223,0.32418,-3.09535,0.87205
447.531,49.86099,0.33469,-3.09666,0.87161
448.131,49.9197,0.34604,-3.09666,0.87117
448.731,49.9786,0.34768,-3.09821,0.87073
449.331,50.0374,0.35844,-3.10011,0.87028
449.931,50.0961,0.3676,-3.1016,0.86984
450.531,50.15505,0.38487,-3.10288,0.8694
451.131,50.214,0.38477,-3.10361,0.86896
451.731,50.27324,0.4032,-3.1049,0.86851
452.331,50.33246,0.40124,-3.10623,0.86807
452.931,50.39158,0.41708,-3.10754,0.86762
453.531,50.45057,0.4384,-3.10851,0.86718
454.131,50.50954,0.43891,-3.10984,0.86673
454.731,50.5685,0.44821,-3.11109,0.86629
455.331,50.62744,0.45582,-3.11227,0.86584
455.931,50.6865,0.45998,-3.11247,0.86539
456.531,50.74555,0.46465,-3.11376,0.86495
457.131,50.80461,0.47435,-3.11509,0.8645
457.731,50.86363,0.47742,-3.11642,0.86405
458.331,50.92263,0.49185,-3.11758,0.8636
458.931,50.98165,0.49424,-3.11854,0.86316
459.531,51.0406,0.49508,-3.1191,0.86271
460.131,51.09983,0.50077,-3.12168,0.86226
460.731,51.15912,0.51337,-3.12169,0.86181
461.331,51.2184,0.51631,-3.12399,0.86136
461.931,51.27755,0.52034,-3.12446,0.86091
462.531,51.33667,0.52314,-3.12532,0.86046
463.131,51.39581,0.52623,-3.12532,0.86
463.731,51.45493,0.53465,-3.12636,0.85955
464.331,51.51426,0.54191,-3.12805,0.8591
464.931,51.57328,0.55787,-3.12797,0.85865
465.531,51.63195,0.56083,-3.12923,0.85819
466.131,51.69081,0.55443,-3.13058,0.85774
466.731,51.7498,0.56426,-3.1319,0.85729
467.331,51.80897,0.56357,-3.13318,0.85683
467.931,51.86838,0.57905,-3.13324,0.85638
468.531,51.92747,0.57889,-3.13454,0.85592
469.131,51.98676,0.59213,-3.13583,0.85547
469.731,52.04607,0.59596,-3.13725,0.85501
470.331,52.10553,0.60613,-3.13717,0.85456
470.931,52.16458,0.61302,-3.13846,0.8541
471.531,52.22356,0.61036,-3.13849,0.85364
472.131,52.28259,0.61162,-3.1398,0.85318
472.731,52.34182,0.61849,-3.14116,0.85273
473.331,52.40122,0.62205,-3.1422,0.85227
473.931,52.4604,0.63404,-3.14209,0.85181
474.531,52.5198,0.64067,-3.14245,0.85135
475.131,52.57909,0.64628,-3.14246,0.85089
475.731,52.63847,0.64144,-3.14377,0.85043
476.331,52.6976,0.64523,-3.1451,0.84997
476.931,52.7569,0.64296,-3.14706,0.84951
477.531,52.8162,0.64854,-3.14845,0.84905
478.131,52.87571,0.6547,-3.14847,0.84859
478.731,52.9354,0.65964,-3.1497,0.84813
479.331,52.9945,0.67272,-3.14962,0.84766
479.931,53.05379,0.67218,-3.15101,0.8472
480.531,53.113,0.68064,-3.15103,0.84674
481.131,53.17188,0.68161,-3.152,0.84627
481.731,53.2314,0.67948,-3.15335,0.84581
482.331,53.2908,0.6794,-3.15337,0.84535
482.931,53.3505,0.69088,-3.15466,0.84488
483.531,53.40974,0.68762,-3.15595,0.84442
484.131,53.4691,0.69653,-3.15595,0.84395
484.731,53.52834,0.69082,-3.15727,0.84349
485.331,53.58739,0.69433,-3.15839,0.84302
485.931,53.64675,0.70447,-3.15842,0.84255
486.531,53.70605,0.70778,-3.15892,0.84209
487.131,53.7651,0.7135,-3.15891,0.84162
487.731,53.8245,0.70581,-3.16023,0.84115
488.331,53.88354,0.71631,-3.16042,0.84068
488.931,53.9427,0.72099,-3.16154,0.84021
489.531,54.00205,0.727,-3.16295,0.83975
490.131,54.06139,0.72563,-3.16365,0.83928
490.731,54.12069,0.72382,-3.16418,0.83881
491.331,54.18016,0.72714,-3.1655,0.83834
491.931,54.2393,0.73191,-3.16419,0.83787
492.531,54.2985,0.7254,-3.16681,0.8374
493.131,54.35768,0.73932,-3.16814,0.83692
493.731,54.4169,0.74458,-3.16931,0.83645
494.331,54.47628,0.74287,-3.16945,0.83598
494.931,54.5357,0.75479,-3.17049,0.83551
495.531,54.59502,0.75906,-3.16978,0.83504
496.131,54.65438,0.76778,-3.16974,0.83456
496.731,54.71359,0.77321,-3.17109,0.83409
497.331,54.7729,0.77351,-3.17242,0.83361
497.931,54.8321,0.78304,-3.1739,0.83314
498.531,54.8915,0.78532,-3.17439,0.83267
499.131,54.9509,0.77452,-3.17512,0.83219
499.731,55.01039,0.78514,-3.17571,0.83172
500.331,55.06954,0.7809,-3.17703,0.83124
500.931,55.1288,0.77958,-3.17704,0.83076
501.531,55.1879,0.78891,-3.17835,0.83029
502.131,55.24725,0.78335,-3.17835,0.82981
502.731,55.3067,0.7865,-3.17886,0.82933
503.331,55.36616,0.79679,-3.17895,0.82886
503.931,55.42541,0.79573,-3.18017,0.82838
504.531,55.48471,0.79414,-3.17966,0.8279
505.131,55.5437,0.79717,-3.18033,0.82742
505.731,55.603,0.79589,-3.1832,0.82694
506.331,55.6625,0.79515,-3.18364,0.82646
506.931,55.72192,0.80081,-3.18493,0.82598
507.531,55.78145,0.79886,-3.18499,0.8255
508.131,55.84072,0.80824,-3.18494,0.82502
508.731,55.8999,0.79663,-3.18493,0.82454
509.331,55.95929,0.80889,-3.18625,0.82406
509.931,56.0186,0.80703,-3.18756,0.82358
510.531,56.07804,0.81347,-3.18757,0.82309
511.131,56.13755,0.81347,-3.18758,0.82261
511.731,56.19696,0.80915,-3.18889,0.82213
512.331,56.2567,0.81872,-3.18788,0.82164
512.931,56.31635,0.81667,-3.18921,0.82116
513.531,56.37594,0.81202,-3.18921,0.82068
514.131,56.43557,0.81009,-3.19116,0.82019
514.731,56.4949,0.81822,-3.19259,0.81971
515.331,56.55425,0.8111,-3.1925,0.81922
515.931,56.6135,0.80938,-3.19319,0.81874
516.531,56.67292,0.81593,-3.19264,0.81825
517.131,56.73239,0.82526,-3.19383,0.81777
517.731,56.79179,0.82037,-3.19382,0.81728
518.331,56.85142,0.81589,-3.19383,0.81679
518.931,56.91106,0.81747,-3.19514,0.8163
519.531,56.97065,0.82319,-3.19553,0.81582
520.131,57.0302,0.8272,-3.19645,0.81533
520.731,57.0897,0.81086,-3.19907,0.81484
521.331,57.1493,0.81617,-3.19909,0.81435
521.931,57.20881,0.81943,-3.20037,0.81386
522.531,57.26845,0.81658,-3.20041,0.81337
523.131,57.32804,0.81824,-3.20026,0.81288
523.731,57.38759,0.8152,-3.20041,0.81239
524.331,57.44704,0.82194,-3.20041,0.8119
524.931,57.50636,0.82404,-3.20141,0.81141
525.531,57.56584,0.82125,-3.20205,0.81092
526.131,57.6254,0.81832,-3.20304,0.81043
526.731,57.6851,0.82591,-3.20424,0.80994
527.331,57.7447,0.82946,-3.20371,0.80944
527.931,57.80421,0.82222,-3.20494,0.80895
528.531,57.86384,0.82649,-3.20503,0.80846
529.131,57.9235,0.82019,-3.20635,0.80796
529.731,57.98305,0.82482,-3.20636,0.80747
530.331,58.0428,0.82672,-3.20766,0.80698
530.931,58.1024,0.82289,-3.20823,0.80648
531.531,58.1624,0.81681,-3.20898,0.80599
532.131,58.22229,0.81032,-3.21042,0.80549
532.731,58.2822,0.81184,-3.20964,0.805
533.331,58.34189,0.80512,-3.20964,0.8045
533.931,58.40155,0.80511,-3.20963,0.804
534.531,58.461,0.80224,-3.21095,0.80351
535.131,58.52077,0.80972,-3.21167,0.80301
535.731,58.58053,0.80578,-3.21227,0.80251
536.331,58.63991,0.80666,-3.21359,0.80201
536.931,58.69967,0.80445,-3.21359,0.80152
537.531,58.75948,0.79731,-3.21359,0.80102
538.131,58.8194,0.80037,-3.21491,0.80052
538.731,58.87955,0.80122,-3.21489,0.80002
539.331,58.9393,0.80069,-3.21622,0.79952
539.931,58.99893,0.80582,-3.21754,0.79902
540.531,59.0587,0.80104,-3.21724,0.79852
541.131,59.1185,0.79566,-3.21765,0.79802
541.731,59.1784,0.80756,-3.21775,0.79752
542.331,59.2381,0.80269,-3.22018,0.79702
542.931,59.29815,0.8036,-3.22018,0.79652
543.531,59.35805,0.80241,-3.21954,0.79601
544.131,59.41777,0.80636,-3.21911,0.79551
544.731,59.4775,0.81051,-3.2205,0.79501
545.331,59.53708,0.81194,-3.22181,0.79451
545.931,59.59678,0.80291,-3.22181,0.794
546.531,59.6565,0.81217,-3.22314,0.7935
547.131,59.71634,0.8077,-3.22312,0.793
547.731,59.77601,0.8119,-3.22478,0.79249
548.331,59.83591,0.80616,-3.22477,0.79199
548.931,59.89565,0.80398,-3.22608,0.79148
549.531,59.95541,0.8119,-3.22478,0.79098
550.131,60.01503,0.81302,-3.22478,0.79047
550.731,60.07479,0.80651,-3.22611,0.78996
551.331,60.13471,0.81331,-3.22735,0.78946
551.931,60.19471,0.80566,-3.22742,0.78895
552.531,60.2546,0.80686,-3.22767,0.78844
553.131,60.31384,0.8107,-3.22906,0.78794
553.731,60.3733,0.81288,-3.22906,0.78743
554.331,60.43297,0.81686,-3.23043,0.78692
554.931,60.49269,0.8205,-3.2305,0.78641
555.531,60.55288,0.81246,-3.2317,0.7859
556.131,60.61258,0.81714,-3.23126,0.7854
556.731,60.6723,0.82314,-3.23237,0.78489
557.331,60.7322,0.81848,-3.23236,0.78438
557.931,60.792,0.81596,-3.23244,0.78387
558.531,60.85188,0.80979,-3.23367,0.78336
559.131,60.9116,0.81015,-3.2344,0.78285
559.731,60.9714,0.80823,-3.23433,0.78233
560.331,61.0312,0.80673,-3.23509,0.78182
560.931,61.09104,0.8071,-3.23565,0.78131
561.531,61.1509,0.80158,-3.23697,0.7808
562.131,61.2108,0.81066,-3.23697,0.78029
562.731,61.27066,0.80724,-3.23736,0.77977
563.331,61.33064,0.80389,-3.23828,0.77926
563.931,61.3904,0.8103,-3.23762,0.77875
564.531,61.4498,0.8048,-3.23861,0.77824
565.131,61.50905,0.80926,-3.23861,0.77772
565.731,61.5687,0.80011,-3.23993,0.77721
566.331,61.62905,0.81101,-3.24125,0.77669
566.931,61.68923,0.81123,-3.24099,0.77618
567.531,61.7493,0.80918,-3.24125,0.77566
568.131,61.80904,0.80618,-3.24126,0.77515
568.731,61.86837,0.80904,-3.24256,0.77463
569.331,61.9282,0.8137,-3.24256,0.77411
569.931,61.9878,0.81209,-3.24256,0.7736
570.531,62.0479,0.80343,-3.24248,0.77308
571.131,62.1079,0.80161,-3.24388,0.77256
571.731,62.1677,0.81308,-3.24409,0.77205
572.331,62.2275,0.82453,-3.24422,0.77153
572.931,62.2874,0.8074,-3.24454,0.77101
573.531,62.347,0.80843,-3.24457,0.77049
574.131,62.4069,0.8035,-3.24551,0.76997
574.731,62.46643,0.81096,-3.24587,0.76946
575.331,62.52621,0.80391,-3.24587,0.76894
575.931,62.5861,0.80246,-3.24716,0.76842
576.531,62.6462,0.79967,-3.24846,0.7679
577.131,62.7062,0.79742,-3.2485,0.76738
577.731,62.76619,0.80421,-3.2485,0.76686
578.331,62.8258,0.79884,-3.24905,0.76633
578.931,62.8857,0.80306,-3.24982,0.76581
579.531,62.94574,0.80619,-3.25046,0.76529
580.131,63.00569,0.79445,-3.25047,0.76477
580.731,63.06585,0.80142,-3.25047,0.76425
581.331,63.1257,0.79591,-3.25131,0.76373
581.931,63.186,0.80206,-3.25311,0.7632
582.531,63.2461,0.7898,-3.25311,0.76268
583.131,63.3062,0.79546,-3.25311,0.76216
583.731,63.36609,0.7953,-3.25254,0.76163
584.331,63.42592,0.79551,-3.25375,0.76111
584.931,63.486,0.79407,-3.25506,0.76058
585.531,63.546,0.79547,-3.25443,0.76006
586.131,63.60612,0.80392,-3.25442,0.75954
586.731,63.6663,0.80839,-3.25437,0.75901
587.331,63.7262,0.81337,-3.25569,0.75848
587.931,63.78604,0.80308,-3.25706,0.75796
588.531,63.8459,0.80737,-3.25768,0.75743
589.131,63.90571,0.80455,-3.25739,0.75691
589.731,63.96589,0.80851,-3.25739,0.75638
590.331,64.02586,0.81628,-3.25775,0.75585
590.931,64.0858,0.81999,-3.25907,0.75533
591.531,64.14577,0.80767,-3.25901,0.7548
592.131,64.20564,0.80987,-3.25891,0.75427
592.731,64.26556,0.804,-3.25969,0.75374
593.331,64.32554,0.8125,-3.25969,0.75321
593.931,64.38552,0.80897,-3.2595,0.75269
594.531,64.44549,0.81141,-3.25944,0.75216
595.131,64.50551,0.80896,-3.26069,0.75163
595.731,64.5655,0.81732,-3.262,0.7511
596.331,64.6256,0.8145,-3.262,0.75057
596.931,64.68584,0.81786,-3.26329,0.75004
597.531,64.74589,0.81828,-3.26331,0.74951
598.131,64.806,0.81772,-3.26375,0.74898
598.731,64.86584,0.82634,-3.26365,0.74845
599.331,64.9258,0.81728,-3.26365,0.74791
599.931,64.98585,0.8156,-3.26492,0.74738
600.531,65.04593,0.82664,-3.26588,0.74685
601.131,65.10582,0.81941,-3.26595,0.74632
601.731,65.16586,0.81867,-3.26584,0.74579
602.331,65.2259,0.82377,-3.26596,0.74525
602.931,65.2861,0.82647,-3.26596,0.74472
603.531,65.34604,0.82126,-3.26693,0.74419
604.131,65.40596,0.82034,-3.26727,0.74365
604.731,65.46592,0.82785,-3.26717,0.74312
605.331,65.5262,0.82511,-3.26859,0.74259
605.931,65.58625,0.82344,-3.26859,0.74205
606.531,65.64639,0.83431,-3.26859,0.74152
607.131,65.70648,0.83095,-3.26974,0.74098
607.731,65.7668,0.83504,-3.26993,0.74045
608.331,65.827,0.82807,-3.26937,0.73991
608.931,65.88723,0.83114,-3.26991,0.73937
609.531,65.94736,0.83534,-3.27029,0.73884
610.131,66.00753,0.82427,-3.27188,0.7383
610.731,66.06777,0.83048,-3.27052,0.73777
611.331,66.12771,0.83004,-3.27125,0.73723
611.931,66.18769,0.83484,-3.27118,0.73669
612.531,66.24766,0.83659,-3.27254,0.73615
613.131,66.3077,0.84074,-3.27246,0.73562
613.731,66.3677,0.84481,-3.27386,0.73508
614.331,66.42792,0.84282,-3.27522,0.73454
614.931,66.48795,0.84292,-3.2742,0.734
615.531,66.54804,0.84799,-3.27386,0.73346
616.131,66.60829,0.85405,-3.27382,0.73292
616.731,66.66842,0.85472,-3.27517,0.73239
617.331,66.7286,0.85233,-3.27517,0.73185
617.931,66.78867,0.84989,-3.27514,0.73131
618.531,66.84868,0.85545,-3.27649,0.73077
619.131,66.9087,0.85487,-3.27649,0.73023
619.731,66.9688,0.86395,-3.27717,0.72968
620.331,67.02893,0.85682,-3.27715,0.72914
620.931,67.08906,0.86168,-3.27713,0.7286
621.531,67.14925,0.8657,-3.27846,0.72806
622.131,67.20943,0.85552,-3.27846,0.72752
622.731,67.26956,0.86044,-3.27846,0.72698
623.331,67.32953,0.86222,-3.27846,0.72644
623.931,67.38954,0.86157,-3.27978,0.72589
624.531,67.4498,0.86993,-3.27912,0.72535
625.131,67.5102,0.86523,-3.27912,0.72481
625.731,67.57064,0.85956,-3.28044,0.72426
626.331,67.63082,0.86568,-3.28041,0.72372
626.931,67.69086,0.86646,-3.27919,0.72318
627.531,67.75085,0.85283,-3.28045,0.72263
628.131,67.8109,0.85923,-3.2819,0.72209
628.731,67.87105,0.86296,-3.28307,0.72154
629.331,67.93124,0.86856,-3.28308,0.721
629.931,67.99149,0.86018,-3.28308,0.72046
630.531,68.05154,0.86915,-3.28308,0.71991
631.131,68.11174,0.87349,-3.28308,0.71936
631.731,68.1718,0.86693,-3.2842,0.71882
632.331,68.2315,0.85731,-3.2844,0.71827
632.931,68.29126,0.8652,-3.2844,0.71773
633.531,68.35132,0.85651,-3.28573,0.71718
634.131,68.41171,0.85478,-3.2844,0.71663
634.731,68.47239,0.85444,-3.2857,0.71609
635.331,68.53271,0.85736,-3.28703,0.71554
635.931,68.59311,0.86009,-3.28584,0.71499
636.531,68.65344,0.83919,-3.2859,0.71444
637.131,68.71353,0.86062,-3.28707,0.7139
637.731,68.77373,0.86363,-3.28845,0.71335
638.331,68.834,0.86748,-3.28835,0.7128
638.931,68.89424,0.85716,-3.28835,0.71225
639.531,68.95472,0.87299,-3.28835,0.7117
640.131,69.01507,0.87766,-3.28835,0.71115
640.731,69.07553,0.86793,-3.28835,0.7106
641.331,69.13575,0.867,-3.28835,0.71006
641.931,69.19565,0.8669,-3.28967,0.70951
642.531,69.2556,0.87563,-3.28968,0.70896
643.131,69.31596,0.87743,-3.29065,0.70841
643.731,69.37645,0.87865,-3.29065,0.70785
644.331,69.4373,0.88728,-3.29005,0.7073
644.931,69.4977,0.88296,-3.29188,0.70675
645.531,69.55807,0.88461,-3.29197,0.7062
646.131,69.61844,0.88287,-3.29197,0.70565
646.731,69.67876,0.88622,-3.29197,0.7051
647.331,69.73908,0.8742,-3.29197,0.70455
647.931,69.79938,0.87566,-3.29197,0.704
648.531,69.8596,0.8894,-3.29065,0.70344
649.131,69.91982,0.88787,-3.29164,0.70289
649.731,69.98008,0.88099,-3.29197,0.70234
649.831,69.99014,0.8844,-3.29197,0.70225