File: 01_Data/Nylon_Carpet_Low_Pile/FTIR/IS/Nylon_Carpet_Low_Pile_IS_S_221122_R9.dpt
7497.03,0.72431
7491.25,0.71886
7485.46,0.71914
7479.67,0.72594
7473.89,0.72367
7468.1,0.73072
7462.32,0.72103
7456.53,0.71959
7450.74,0.70765
7444.96,0.71873
7439.17,0.72989
7433.38,0.72669
7427.6,0.72788
7421.81,0.72253
7416.03,0.71919
7410.24,0.71327
7404.45,0.71427
7398.67,0.71787
7392.88,0.71528
7387.09,0.72320
7381.31,0.72516
7375.52,0.71255
7369.74,0.71416
7363.95,0.69435
7358.16,0.71338
7352.38,0.70972
7346.59,0.69605
7340.8,0.71168
7335.02,0.69416
7329.23,0.69558
7323.45,0.68770
7317.66,0.68851
7311.87,0.68968
7306.09,0.68136
7300.3,0.68373
7294.51,0.67562
7288.73,0.67675
7282.94,0.67029
7277.16,0.65354
7271.37,0.65393
7265.58,0.64435
7259.8,0.64652
7254.01,0.64518
7248.22,0.63552
7242.44,0.63711
7236.65,0.62981
7230.87,0.62626
7225.08,0.62732
7219.29,0.62377
7213.51,0.61960
7207.72,0.61718
7201.93,0.62089
7196.15,0.62833
7190.36,0.62940
7184.58,0.62575
7178.79,0.62898
7173,0.63252
7167.22,0.62583
7161.43,0.62077
7155.65,0.63023
7149.86,0.63346
7144.07,0.63138
7138.29,0.62088
7132.5,0.62026
7126.71,0.61953
7120.93,0.61476
7115.14,0.62364
7109.36,0.61513
7103.57,0.61362
7097.78,0.62259
7092,0.62245
7086.21,0.61643
7080.42,0.61428
7074.64,0.61879
7068.85,0.62303
7063.07,0.61976
7057.28,0.62161
7051.49,0.62872
7045.71,0.63027
7039.92,0.62831
7034.13,0.62136
7028.35,0.61846
7022.56,0.62985
7016.78,0.61548
7010.99,0.62269
7005.2,0.62121
6999.42,0.62396
6993.63,0.63229
6987.84,0.63288
6982.06,0.62931
6976.27,0.62653
6970.49,0.63662
6964.7,0.63458
6958.91,0.64494
6953.13,0.63804
6947.34,0.63436
6941.55,0.64218
6935.77,0.64912
6929.98,0.63819
6924.2,0.65066
6918.41,0.64310
6912.62,0.64175
6906.84,0.64624
6901.05,0.65018
6895.26,0.64945
6889.48,0.64369
6883.69,0.65336
6877.91,0.65388
6872.12,0.64741
6866.33,0.65316
6860.55,0.65013
6854.76,0.65637
6848.97,0.64948
6843.19,0.65451
6837.4,0.66042
6831.62,0.66117
6825.83,0.65795
6820.04,0.66090
6814.26,0.65176
6808.47,0.65807
6802.68,0.65941
6796.9,0.65460
6791.11,0.64647
6785.33,0.64601
6779.54,0.64060
6773.75,0.63626
6767.97,0.63182
6762.18,0.62878
6756.39,0.63034
6750.61,0.62704
6744.82,0.62533
6739.04,0.62928
6733.25,0.62610
6727.46,0.62351
6721.68,0.62514
6715.89,0.62174
6710.1,0.61906
6704.32,0.61938
6698.53,0.61685
6692.75,0.61421
6686.96,0.61530
6681.17,0.60633
6675.39,0.60312
6669.6,0.60803
6663.82,0.60338
6658.03,0.59943
6652.24,0.59502
6646.46,0.59515
6640.67,0.58730
6634.88,0.57654
6629.1,0.56934
6623.31,0.57064
6617.53,0.57024
6611.74,0.56653
6605.95,0.56581
6600.17,0.56285
6594.38,0.56745
6588.59,0.56309
6582.81,0.56092
6577.02,0.56507
6571.24,0.56049
6565.45,0.55849
6559.66,0.55253
6553.88,0.55769
6548.09,0.55404
6542.3,0.54697
6536.52,0.54483
6530.73,0.53665
6524.95,0.53365
6519.16,0.52830
6513.37,0.52702
6507.59,0.52799
6501.8,0.52856
6496.01,0.52405
6490.23,0.53088
6484.44,0.53334
6478.66,0.53775
6472.87,0.54146
6467.08,0.55100
6461.3,0.56064
6455.51,0.57326
6449.72,0.58381
6443.94,0.58868
6438.15,0.59217
6432.37,0.59948
6426.58,0.59981
6420.79,0.60123
6415.01,0.59525
6409.22,0.59575
6403.43,0.58964
6397.65,0.58495
6391.86,0.58089
6386.08,0.58071
6380.29,0.57064
6374.5,0.56441
6368.72,0.56528
6362.93,0.56363
6357.14,0.55701
6351.36,0.55827
6345.57,0.56042
6339.79,0.56339
6334,0.56624
6328.21,0.56512
6322.43,0.57002
6316.64,0.57660
6310.85,0.58495
6305.07,0.58625
6299.28,0.58478
6293.5,0.58849
6287.71,0.58443
6281.92,0.58628
6276.14,0.58253
6270.35,0.57589
6264.56,0.57710
6258.78,0.57248
6252.99,0.57166
6247.21,0.57085
6241.42,0.57080
6235.63,0.57675
6229.85,0.57630
6224.06,0.57657
6218.27,0.57916
6212.49,0.58022
6206.7,0.58162
6200.92,0.58742
6195.13,0.58724
6189.34,0.59037
6183.56,0.59849
6177.77,0.59996
6171.98,0.60362
6166.2,0.61092
6160.41,0.61646
6154.63,0.61993
6148.84,0.62398
6143.05,0.62863
6137.27,0.63317
6131.48,0.63235
6125.7,0.63172
6119.91,0.63476
6114.12,0.63728
6108.34,0.63786
6102.55,0.64158
6096.76,0.64049
6090.98,0.64057
6085.19,0.64093
6079.41,0.63965
6073.62,0.63903
6067.83,0.63935
6062.05,0.63475
6056.26,0.63578
6050.47,0.63228
6044.69,0.63387
6038.9,0.63292
6033.12,0.63322
6027.33,0.62950
6021.54,0.63126
6015.76,0.62703
6009.97,0.62860
6004.18,0.62352
5998.4,0.62163
5992.61,0.61675
5986.83,0.61725
5981.04,0.61569
5975.25,0.60874
5969.47,0.60479
5963.68,0.60724
5957.89,0.60050
5952.11,0.59486
5946.32,0.59275
5940.54,0.58569
5934.75,0.57690
5928.96,0.56974
5923.18,0.56159
5917.39,0.55224
5911.6,0.53897
5905.82,0.52501
5900.03,0.50890
5894.25,0.49493
5888.46,0.48295
5882.67,0.47359
5876.89,0.46103
5871.1,0.44923
5865.31,0.44025
5859.53,0.43146
5853.74,0.42305
5847.96,0.41759
5842.17,0.40892
5836.38,0.40379
5830.6,0.40467
5824.81,0.40386
5819.02,0.40152
5813.24,0.40528
5807.45,0.40758
5801.67,0.40911
5795.88,0.41658
5790.09,0.41850
5784.31,0.42394
5778.52,0.42867
5772.73,0.43029
5766.95,0.43530
5761.16,0.43600
5755.38,0.44133
5749.59,0.43807
5743.8,0.43381
5738.02,0.43082
5732.23,0.42612
5726.44,0.42369
5720.66,0.42110
5714.87,0.41592
5709.09,0.41562
5703.3,0.41725
5697.51,0.42398
5691.73,0.42475
5685.94,0.42768
5680.15,0.43108
5674.37,0.43762
5668.58,0.44417
5662.8,0.45103
5657.01,0.45855
5651.22,0.46336
5645.44,0.46921
5639.65,0.47497
5633.87,0.47853
5628.08,0.48143
5622.29,0.48506
5616.51,0.48616
5610.72,0.49011
5604.93,0.49227
5599.15,0.49569
5593.36,0.49271
5587.58,0.49342
5581.79,0.49724
5576,0.49753
5570.22,0.49977
5564.43,0.50091
5558.64,0.50222
5552.86,0.50235
5547.07,0.50185
5541.29,0.50400
5535.5,0.50315
5529.71,0.50416
5523.93,0.50319
5518.14,0.50602
5512.35,0.50849
5506.57,0.50864
5500.78,0.51111
5495,0.51090
5489.21,0.51215
5483.42,0.51352
5477.64,0.51337
5471.85,0.51461
5466.06,0.51431
5460.28,0.51516
5454.49,0.51726
5448.71,0.51804
5442.92,0.51863
5437.13,0.51978
5431.35,0.52160
5425.56,0.52405
5419.77,0.52471
5413.99,0.52805
5408.2,0.52793
5402.42,0.52863
5396.63,0.53205
5390.84,0.53187
5385.06,0.53489
5379.27,0.53616
5373.48,0.53938
5367.7,0.54193
5361.91,0.54253
5356.13,0.54406
5350.34,0.54541
5344.55,0.54727
5338.77,0.54719
5332.98,0.54780
5327.19,0.54780
5321.41,0.54575
5315.62,0.54553
5309.84,0.54723
5304.05,0.54459
5298.26,0.54224
5292.48,0.54067
5286.69,0.53986
5280.9,0.53559
5275.12,0.53388
5269.33,0.53281
5263.55,0.52932
5257.76,0.52986
5251.97,0.52853
5246.19,0.52653
5240.4,0.52423
5234.61,0.52340
5228.83,0.52021
5223.04,0.51730
5217.26,0.51675
5211.47,0.51383
5205.68,0.51068
5199.9,0.50802
5194.11,0.50625
5188.32,0.50500
5182.54,0.50081
5176.75,0.49907
5170.97,0.49657
5165.18,0.49493
5159.39,0.49105
5153.61,0.48990
5147.82,0.48774
5142.03,0.48856
5136.25,0.48554
5130.46,0.48498
5124.68,0.48431
5118.89,0.48373
5113.1,0.48449
5107.32,0.48706
5101.53,0.48619
5095.75,0.48934
5089.96,0.49093
5084.17,0.49027
5078.39,0.49245
5072.6,0.49348
5066.81,0.49365
5061.03,0.49414
5055.24,0.49468
5049.46,0.49470
5043.67,0.49471
5037.88,0.49261
5032.1,0.48995
5026.31,0.48913
5020.52,0.48572
5014.74,0.48225
5008.95,0.47702
5003.17,0.47025
4997.38,0.46065
4991.59,0.45042
4985.81,0.43712
4980.02,0.42462
4974.23,0.41641
4968.45,0.41258
4962.66,0.41005
4956.88,0.40744
4951.09,0.40659
4945.3,0.40620
4939.52,0.40384
4933.73,0.40226
4927.94,0.39984
4922.16,0.39618
4916.37,0.38677
4910.59,0.37548
4904.8,0.36092
4899.01,0.34532
4893.23,0.32846
4887.44,0.31736
4881.65,0.30684
4875.87,0.30104
4870.08,0.29810
4864.3,0.30684
4858.51,0.32381
4852.72,0.34276
4846.94,0.36449
4841.15,0.38236
4835.36,0.39909
4829.58,0.41349
4823.79,0.42448
4818.01,0.43038
4812.22,0.43457
4806.43,0.43422
4800.65,0.43297
4794.86,0.43063
4789.07,0.42960
4783.29,0.42947
4777.5,0.42679
4771.72,0.42460
4765.93,0.42180
4760.14,0.41927
4754.36,0.41697
4748.57,0.41247
4742.78,0.40843
4737,0.40452
4731.21,0.39977
4725.43,0.39459
4719.64,0.38910
4713.85,0.38096
4708.07,0.37455
4702.28,0.36827
4696.49,0.36195
4690.71,0.35931
4684.92,0.35811
4679.14,0.35708
4673.35,0.35862
4667.56,0.35933
4661.78,0.35888
4655.99,0.35888
4650.2,0.35800
4644.42,0.35652
4638.63,0.35174
4632.85,0.34618
4627.06,0.34047
4621.27,0.33349
4615.49,0.32777
4609.7,0.32338
4603.92,0.32027
4598.13,0.31735
4592.34,0.31338
4586.56,0.31176
4580.77,0.30974
4574.98,0.30953
4569.2,0.31009
4563.41,0.31041
4557.63,0.31343
4551.84,0.31663
4546.05,0.31974
4540.27,0.32196
4534.48,0.32319
4528.69,0.32356
4522.91,0.32639
4517.12,0.32903
4511.34,0.33390
4505.55,0.33899
4499.76,0.34236
4493.98,0.34520
4488.19,0.34637
4482.4,0.34628
4476.62,0.34471
4470.83,0.34473
4465.05,0.34417
4459.26,0.34318
4453.47,0.34036
4447.69,0.33466
4441.9,0.32915
4436.11,0.32193
4430.33,0.31393
4424.54,0.30429
4418.76,0.29646
4412.97,0.28710
4407.18,0.27713
4401.4,0.26695
4395.61,0.25672
4389.82,0.24498
4384.04,0.23209
4378.25,0.21903
4372.47,0.20551
4366.68,0.19427
4360.89,0.18662
4355.11,0.18249
4349.32,0.18698
4343.53,0.19657
4337.75,0.20970
4331.96,0.21937
4326.18,0.22454
4320.39,0.23025
4314.6,0.23575
4308.82,0.24015
4303.03,0.24390
4297.24,0.24462
4291.46,0.24186
4285.67,0.23620
4279.89,0.22804
4274.1,0.22029
4268.31,0.21275
4262.53,0.20937
4256.74,0.21125
4250.95,0.21534
4245.17,0.21720
4239.38,0.21592
4233.6,0.21385
4227.81,0.21220
4222.02,0.21195
4216.24,0.21260
4210.45,0.21424
4204.66,0.21566
4198.88,0.21579
4193.09,0.21662
4187.31,0.21716
4181.52,0.21960
4175.73,0.22507
4169.95,0.22978
4164.16,0.23450
4158.37,0.23787
4152.59,0.24217
4146.8,0.24803
4141.02,0.25287
4135.23,0.25677
4129.44,0.26030
4123.66,0.26218
4117.87,0.26181
4112.09,0.26051
4106.3,0.25872
4100.51,0.25866
4094.73,0.26197
4088.94,0.26300
4083.15,0.26469
4077.37,0.26320
4071.58,0.26048
4065.8,0.25797
4060.01,0.25331
4054.22,0.24847
4048.44,0.24423
4042.65,0.24124
4036.86,0.23799
4031.08,0.23474
4025.29,0.23250
4019.51,0.23343
4013.72,0.23463
4007.93,0.23742
4002.15,0.24302
3996.36,0.24963
3990.57,0.25690
3984.79,0.26236
3979,0.26601
3973.22,0.26977
3967.43,0.27361
3961.64,0.27641
3955.86,0.27906
3950.07,0.28102
3944.28,0.28201
3938.5,0.28473
3932.71,0.28917
3926.93,0.29454
3921.14,0.30035
3915.35,0.30389
3909.57,0.30779
3903.78,0.30986
3897.99,0.31257
3892.21,0.31574
3886.42,0.31844
3880.64,0.32227
3874.85,0.32397
3869.06,0.32426
3863.28,0.32059
3857.49,0.31263
3851.7,0.30822
3845.92,0.31464
3840.13,0.32201
3834.35,0.32523
3828.56,0.32637
3822.77,0.32783
3816.99,0.33114
3811.2,0.33541
3805.41,0.33889
3799.63,0.34116
3793.84,0.34234
3788.06,0.34275
3782.27,0.34346
3776.48,0.34108
3770.7,0.33906
3764.91,0.33754
3759.12,0.33719
3753.34,0.33540
3747.55,0.33475
3741.77,0.33669
3735.98,0.34024
3730.19,0.34399
3724.41,0.34733
3718.62,0.34523
3712.83,0.34182
3707.05,0.33759
3701.26,0.33214
3695.48,0.32496
3689.69,0.31600
3683.9,0.30110
3678.12,0.28949
3672.33,0.28134
3666.54,0.27858
3660.76,0.27723
3654.97,0.27398
3649.19,0.26688
3643.4,0.25866
3637.61,0.24777
3631.83,0.23762
3626.04,0.22809
3620.25,0.22058
3614.47,0.21281
3608.68,0.20574
3602.9,0.19904
3597.11,0.19129
3591.32,0.18329
3585.54,0.17569
3579.75,0.16823
3573.97,0.16071
3568.18,0.15261
3562.39,0.14512
3556.61,0.13775
3550.82,0.13074
3545.03,0.12438
3539.25,0.11686
3533.46,0.11145
3527.68,0.10543
3521.89,0.10084
3516.1,0.09527
3510.32,0.09128
3504.53,0.08775
3498.74,0.08464
3492.96,0.08263
3487.17,0.08038
3481.39,0.07970
3475.6,0.07699
3469.81,0.07492
3464.03,0.07264
3458.24,0.07062
3452.45,0.06805
3446.67,0.06643
3440.88,0.06423
3435.1,0.06220
3429.31,0.05998
3423.52,0.05813
3417.74,0.05454
3411.95,0.05109
3406.16,0.04841
3400.38,0.04490
3394.59,0.04193
3388.81,0.03874
3383.02,0.03575
3377.23,0.03238
3371.45,0.02983
3365.66,0.02740
3359.87,0.02668
3354.09,0.02484
3348.3,0.02413
3342.52,0.02250
3336.73,0.02137
3330.94,0.02188
3325.16,0.02144
3319.37,0.02096
3313.58,0.02133
3307.8,0.02223
3302.01,0.02285
3296.23,0.02330
3290.44,0.02372
3284.65,0.02438
3278.87,0.02487
3273.08,0.02448
3267.29,0.02475
3261.51,0.02518
3255.72,0.02474
3249.94,0.02498
3244.15,0.02677
3238.36,0.02783
3232.58,0.02810
3226.79,0.02894
3221,0.02899
3215.22,0.03082
3209.43,0.03099
3203.65,0.03113
3197.86,0.03210
3192.07,0.03328
3186.29,0.03441
3180.5,0.03679
3174.71,0.03888
3168.93,0.04177
3163.14,0.04439
3157.36,0.04561
3151.57,0.04673
3145.78,0.04672
3140,0.04618
3134.21,0.04473
3128.42,0.04312
3122.64,0.04063
3116.85,0.03836
3111.07,0.03512
3105.28,0.03242
3099.49,0.03092
3093.71,0.03009
3087.92,0.02965
3082.14,0.02974
3076.35,0.03013
3070.56,0.03086
3064.78,0.03274
3058.99,0.03442
3053.2,0.03666
3047.42,0.04055
3041.63,0.04442
3035.85,0.04896
3030.06,0.05234
3024.27,0.05494
3018.49,0.05573
3012.7,0.05601
3006.91,0.05515
3001.13,0.05396
2995.34,0.05095
2989.56,0.04556
2983.77,0.03936
2977.98,0.03298
2972.2,0.02765
2966.41,0.02429
2960.62,0.02309
2954.84,0.02217
2949.05,0.02196
2943.27,0.02199
2937.48,0.02263
2931.69,0.02259
2925.91,0.02297
2920.12,0.02443
2914.33,0.02494
2908.55,0.02461
2902.76,0.02500
2896.98,0.02561
2891.19,0.02603
2885.4,0.02632
2879.62,0.02500
2873.83,0.02375
2868.04,0.02377
2862.26,0.02428
2856.47,0.02521
2850.69,0.02632
2844.9,0.03010
2839.11,0.03653
2833.33,0.04282
2827.54,0.04646
2821.75,0.05009
2815.97,0.05425
2810.18,0.05888
2804.4,0.06301
2798.61,0.06637
2792.82,0.07002
2787.04,0.07368
2781.25,0.07754
2775.46,0.08127
2769.68,0.08434
2763.89,0.08683
2758.11,0.08839
2752.32,0.08795
2746.53,0.08809
2740.75,0.08927
2734.96,0.09245
2729.17,0.09706
2723.39,0.10164
2717.6,0.10650
2711.82,0.11152
2706.03,0.11398
2700.24,0.11582
2694.46,0.11912
2688.67,0.12139
2682.88,0.12358
2677.1,0.12519
2671.31,0.12758
2665.53,0.12878
2659.74,0.12896
2653.95,0.12948
2648.17,0.13231
2642.38,0.13472
2636.59,0.13705
2630.81,0.13874
2625.02,0.14010
2619.24,0.14253
2613.45,0.14505
2607.66,0.14739
2601.88,0.14979
2596.09,0.15144
2590.3,0.15194
2584.52,0.15260
2578.73,0.15395
2572.95,0.15641
2567.16,0.15738
2561.37,0.15761
2555.59,0.15700
2549.8,0.15692
2544.02,0.15915
2538.23,0.16340
2532.44,0.16859
2526.66,0.17310
2520.87,0.17779
2515.08,0.18278
2509.3,0.18585
2503.51,0.18755
2497.73,0.18739
2491.94,0.18564
2486.15,0.18438
2480.37,0.18387
2474.58,0.18503
2468.79,0.18858
2463.01,0.19340
2457.22,0.19738
2451.44,0.20059
2445.65,0.20480
2439.86,0.20901
2434.08,0.21188
2428.29,0.21440
2422.5,0.21610
2416.72,0.21749
2410.93,0.21796
2405.15,0.21735
2399.36,0.21772
2393.57,0.21836
2387.79,0.21789
2382,0.21872
2376.21,0.22123
2370.43,0.22363
2364.64,0.22532
2358.86,0.22528
2353.07,0.22515
2347.28,0.22420
2341.5,0.22290
2335.71,0.22228
2329.92,0.22250
2324.14,0.22195
2318.35,0.22200
2312.57,0.22349
2306.78,0.22573
2300.99,0.22741
2295.21,0.22858
2289.42,0.22899
2283.63,0.23053
2277.85,0.23204
2272.06,0.23213
2266.28,0.23357
2260.49,0.23679
2254.7,0.23937
2248.92,0.24164
2243.13,0.24260
2237.34,0.24290
2231.56,0.24174
2225.77,0.23951
2219.99,0.23633
2214.2,0.23165
2208.41,0.22803
2202.63,0.22480
2196.84,0.22013
2191.05,0.21822
2185.27,0.21997
2179.48,0.22344
2173.7,0.22582
2167.91,0.22770
2162.12,0.22947
2156.34,0.23072
2150.55,0.23099
2144.76,0.23118
2138.98,0.23077
2133.19,0.22963
2127.41,0.22942
2121.62,0.23048
2115.83,0.23352
2110.05,0.23739
2104.26,0.23940
2098.47,0.23950
2092.69,0.23744
2086.9,0.23560
2081.12,0.23339
2075.33,0.23072
2069.54,0.22947
2063.76,0.23053
2057.97,0.23426
2052.19,0.23772
2046.4,0.23635
2040.61,0.23342
2034.83,0.23544
2029.04,0.23903
2023.25,0.24256
2017.47,0.24573
2011.68,0.24762
2005.9,0.24894
2000.11,0.25024
1994.32,0.24943
1988.54,0.24696
1982.75,0.24536
1976.96,0.24562
1971.18,0.24621
1965.39,0.24983
1959.61,0.25276
1953.82,0.25438
1948.03,0.25455
1942.25,0.25404
1936.46,0.25370
1930.67,0.25499
1924.89,0.25495
1919.1,0.25302
1913.32,0.24805
1907.53,0.24187
1901.74,0.23766
1895.96,0.23762
1890.17,0.23905
1884.38,0.24025
1878.6,0.24176
1872.81,0.24231
1867.03,0.24197
1861.24,0.24082
1855.45,0.23815
1849.67,0.23472
1843.88,0.22901
1838.09,0.22382
1832.31,0.22095
1826.52,0.21675
1820.74,0.21238
1814.95,0.20798
1809.16,0.20237
1803.38,0.19533
1797.59,0.18784
1791.8,0.18043
1786.02,0.17293
1780.23,0.16454
1774.45,0.15507
1768.66,0.14210
1762.87,0.12827
1757.09,0.11280
1751.3,0.09741
1745.51,0.08110
1739.73,0.06995
1733.94,0.06518
1728.16,0.06369
1722.37,0.06289
1716.58,0.06035
1710.8,0.05674
1705.01,0.05132
1699.22,0.04258
1693.44,0.03342
1687.65,0.02549
1681.87,0.01894
1676.08,0.01720
1670.29,0.01578
1664.51,0.01596
1658.72,0.01762
1652.93,0.02070
1647.15,0.02591
1641.36,0.03160
1635.58,0.03236
1629.79,0.02942
1624,0.02780
1618.22,0.02657
1612.43,0.02600
1606.64,0.02567
1600.86,0.02523
1595.07,0.02419
1589.29,0.02284
1583.5,0.02106
1577.71,0.02034
1571.93,0.01957
1566.14,0.01982
1560.35,0.02054
1554.57,0.02184
1548.78,0.02551
1543,0.03086
1537.21,0.03239
1531.42,0.03136
1525.64,0.03009
1519.85,0.02948
1514.07,0.02915
1508.28,0.02906
1502.49,0.02986
1496.71,0.03087
1490.92,0.03044
1485.13,0.02897
1479.35,0.02605
1473.56,0.02579
1467.78,0.02565
1461.99,0.02576
1456.2,0.02626
1450.42,0.02592
1444.63,0.02583
1438.84,0.02617
1433.06,0.02660
1427.27,0.02765
1421.49,0.02697
1415.7,0.02803
1409.91,0.02992
1404.13,0.03122
1398.34,0.03091
1392.55,0.02862
1386.77,0.02659
1380.98,0.02518
1375.2,0.02486
1369.41,0.02553
1363.62,0.02664
1357.84,0.02682
1352.05,0.02758
1346.26,0.02851
1340.48,0.02941
1334.69,0.02903
1328.91,0.02969
1323.12,0.02954
1317.33,0.02805
1311.55,0.02722
1305.76,0.02670
1299.97,0.02637
1294.19,0.02645
1288.4,0.02650
1282.62,0.02537
1276.83,0.02452
1271.04,0.02483
1265.26,0.02638
1259.47,0.02708
1253.68,0.02810
1247.9,0.02847
1242.11,0.02775
1236.33,0.02802
1230.54,0.03016
1224.75,0.03309
1218.97,0.03080
1213.18,0.02815
1207.39,0.02816
1201.61,0.02885
1195.82,0.03215
1190.04,0.03489
1184.25,0.03672
1178.46,0.03282
1172.68,0.02843
1166.89,0.03042
1161.1,0.03845
1155.32,0.04973
1149.53,0.06029
1143.75,0.06883
1137.96,0.07265
1132.17,0.06418
1126.39,0.04754
1120.6,0.04171
1114.81,0.04717
1109.03,0.05559
1103.24,0.06524
1097.46,0.07117
1091.67,0.07072
1085.88,0.06549
1080.1,0.05965
1074.31,0.06079
1068.52,0.06714
1062.74,0.07408
1056.95,0.08078
1051.17,0.08336
1045.38,0.07712
1039.59,0.07241
1033.81,0.07247
1028.02,0.07467
1022.24,0.08825
1016.45,0.09541
1010.66,0.09674
1004.88,0.09266
999.09,0.08919
993.304,0.08850
987.518,0.08188
981.731,0.07549
975.945,0.06817
970.159,0.07208
964.373,0.07366
958.586,0.07165
952.8,0.08090
947.014,0.09325
941.228,0.10000
935.441,0.08794
929.655,0.07077
923.869,0.08149
918.083,0.09868
912.297,0.11059
906.51,0.11928
900.724,0.12478
894.938,0.12545
889.152,0.12470
883.365,0.12673
877.579,0.12864
871.793,0.12879
866.007,0.12801
860.22,0.12620
854.434,0.12274
848.648,0.11744
842.862,0.10950
837.075,0.09744
831.289,0.09532
825.503,0.10275
819.717,0.10101
813.931,0.09594
808.144,0.08855
802.358,0.08129
796.572,0.07364
790.786,0.06580
784.999,0.05898
779.213,0.05347
773.427,0.05033
767.641,0.04742
761.854,0.04331
756.068,0.03895
750.282,0.03543
744.496,0.03387
738.709,0.03043
732.923,0.02742
727.137,0.02772
721.351,0.02697
715.565,0.02654
709.778,0.02628
703.992,0.02720
698.206,0.02785
692.42,0.02877
686.633,0.02940
680.847,0.03189
675.061,0.03375
669.275,0.03734
663.488,0.04218
657.702,0.04481
651.916,0.04630
646.13,0.04808
640.343,0.04837
634.557,0.04549
628.771,0.04575
622.985,0.04600
617.198,0.04845
611.412,0.04798
605.626,0.04478
599.84,0.04667