File: 01_Data/Nylon_Carpet_Low_Pile/FTIR/IS/Nylon_Carpet_Low_Pile_IS_S_221122_R4.dpt
7497.03,0.72427
7491.25,0.72354
7485.46,0.71411
7479.67,0.72377
7473.89,0.72994
7468.1,0.72736
7462.32,0.72302
7456.53,0.71663
7450.74,0.72160
7444.96,0.71672
7439.17,0.72227
7433.38,0.72349
7427.6,0.73092
7421.81,0.72399
7416.03,0.72525
7410.24,0.71402
7404.45,0.71474
7398.67,0.70911
7392.88,0.71936
7387.09,0.71233
7381.31,0.71866
7375.52,0.72737
7369.74,0.71279
7363.95,0.70195
7358.16,0.70352
7352.38,0.72076
7346.59,0.70136
7340.8,0.70310
7335.02,0.70805
7329.23,0.69742
7323.45,0.69497
7317.66,0.68736
7311.87,0.69258
7306.09,0.67971
7300.3,0.68711
7294.51,0.67087
7288.73,0.66321
7282.94,0.66495
7277.16,0.65739
7271.37,0.65820
7265.58,0.64986
7259.8,0.65516
7254.01,0.63881
7248.22,0.64102
7242.44,0.63527
7236.65,0.62800
7230.87,0.63325
7225.08,0.63023
7219.29,0.62472
7213.51,0.62225
7207.72,0.62794
7201.93,0.61862
7196.15,0.62383
7190.36,0.62087
7184.58,0.63106
7178.79,0.62189
7173,0.62277
7167.22,0.62335
7161.43,0.62697
7155.65,0.63287
7149.86,0.63073
7144.07,0.62377
7138.29,0.62272
7132.5,0.62260
7126.71,0.62283
7120.93,0.61943
7115.14,0.62205
7109.36,0.61475
7103.57,0.62101
7097.78,0.62375
7092,0.62343
7086.21,0.62612
7080.42,0.61912
7074.64,0.61775
7068.85,0.61307
7063.07,0.61299
7057.28,0.62185
7051.49,0.62523
7045.71,0.62194
7039.92,0.62469
7034.13,0.62767
7028.35,0.62239
7022.56,0.62801
7016.78,0.62796
7010.99,0.62191
7005.2,0.63090
6999.42,0.62838
6993.63,0.62350
6987.84,0.63268
6982.06,0.63576
6976.27,0.63429
6970.49,0.63115
6964.7,0.63212
6958.91,0.63593
6953.13,0.63952
6947.34,0.63632
6941.55,0.63738
6935.77,0.63999
6929.98,0.64490
6924.2,0.64496
6918.41,0.64923
6912.62,0.65107
6906.84,0.64961
6901.05,0.65029
6895.26,0.64574
6889.48,0.64903
6883.69,0.64937
6877.91,0.65883
6872.12,0.65076
6866.33,0.65465
6860.55,0.65494
6854.76,0.65088
6848.97,0.65592
6843.19,0.65624
6837.4,0.65643
6831.62,0.65801
6825.83,0.65964
6820.04,0.65573
6814.26,0.65200
6808.47,0.64824
6802.68,0.65308
6796.9,0.64866
6791.11,0.64500
6785.33,0.64254
6779.54,0.64251
6773.75,0.64069
6767.97,0.63432
6762.18,0.62992
6756.39,0.62079
6750.61,0.61924
6744.82,0.62884
6739.04,0.62596
6733.25,0.62000
6727.46,0.62543
6721.68,0.62428
6715.89,0.62383
6710.1,0.61748
6704.32,0.62152
6698.53,0.61504
6692.75,0.61547
6686.96,0.61623
6681.17,0.61257
6675.39,0.61005
6669.6,0.60163
6663.82,0.60771
6658.03,0.60221
6652.24,0.59484
6646.46,0.59533
6640.67,0.58797
6634.88,0.58124
6629.1,0.57452
6623.31,0.57805
6617.53,0.56800
6611.74,0.56714
6605.95,0.56700
6600.17,0.56633
6594.38,0.56675
6588.59,0.56291
6582.81,0.56417
6577.02,0.56477
6571.24,0.56062
6565.45,0.55964
6559.66,0.55609
6553.88,0.55649
6548.09,0.55405
6542.3,0.54915
6536.52,0.54847
6530.73,0.54026
6524.95,0.53303
6519.16,0.53360
6513.37,0.52975
6507.59,0.52876
6501.8,0.52856
6496.01,0.52652
6490.23,0.53045
6484.44,0.53480
6478.66,0.53503
6472.87,0.54775
6467.08,0.55367
6461.3,0.56335
6455.51,0.57661
6449.72,0.58243
6443.94,0.58775
6438.15,0.59312
6432.37,0.59295
6426.58,0.60366
6420.79,0.59738
6415.01,0.59792
6409.22,0.59672
6403.43,0.59249
6397.65,0.59001
6391.86,0.58820
6386.08,0.57986
6380.29,0.57752
6374.5,0.57134
6368.72,0.56823
6362.93,0.56483
6357.14,0.55930
6351.36,0.55531
6345.57,0.55783
6339.79,0.55898
6334,0.56471
6328.21,0.57070
6322.43,0.57240
6316.64,0.58248
6310.85,0.58097
6305.07,0.58636
6299.28,0.58581
6293.5,0.58893
6287.71,0.58856
6281.92,0.58380
6276.14,0.58627
6270.35,0.58398
6264.56,0.57821
6258.78,0.57515
6252.99,0.57264
6247.21,0.57292
6241.42,0.57165
6235.63,0.56999
6229.85,0.57242
6224.06,0.57641
6218.27,0.57751
6212.49,0.58130
6206.7,0.58738
6200.92,0.58805
6195.13,0.58635
6189.34,0.59065
6183.56,0.59355
6177.77,0.59944
6171.98,0.60289
6166.2,0.60550
6160.41,0.61193
6154.63,0.61901
6148.84,0.62179
6143.05,0.62602
6137.27,0.63300
6131.48,0.63780
6125.7,0.63553
6119.91,0.63900
6114.12,0.63839
6108.34,0.63939
6102.55,0.64224
6096.76,0.64364
6090.98,0.63902
6085.19,0.63950
6079.41,0.64084
6073.62,0.63932
6067.83,0.64198
6062.05,0.63943
6056.26,0.63737
6050.47,0.63448
6044.69,0.63282
6038.9,0.63466
6033.12,0.63497
6027.33,0.63302
6021.54,0.63137
6015.76,0.63022
6009.97,0.62881
6004.18,0.62272
5998.4,0.62361
5992.61,0.61817
5986.83,0.61712
5981.04,0.61718
5975.25,0.61164
5969.47,0.60720
5963.68,0.60068
5957.89,0.59725
5952.11,0.59651
5946.32,0.59048
5940.54,0.58630
5934.75,0.58083
5928.96,0.56968
5923.18,0.56088
5917.39,0.54782
5911.6,0.53521
5905.82,0.52084
5900.03,0.51153
5894.25,0.49730
5888.46,0.48390
5882.67,0.47273
5876.89,0.45939
5871.1,0.44843
5865.31,0.43787
5859.53,0.43105
5853.74,0.42305
5847.96,0.41216
5842.17,0.41224
5836.38,0.40706
5830.6,0.40398
5824.81,0.40312
5819.02,0.40448
5813.24,0.40595
5807.45,0.40867
5801.67,0.41393
5795.88,0.41464
5790.09,0.41896
5784.31,0.42437
5778.52,0.42948
5772.73,0.43264
5766.95,0.43375
5761.16,0.43627
5755.38,0.43762
5749.59,0.43971
5743.8,0.43553
5738.02,0.43022
5732.23,0.42957
5726.44,0.42368
5720.66,0.41888
5714.87,0.41642
5709.09,0.41844
5703.3,0.42045
5697.51,0.42192
5691.73,0.42294
5685.94,0.42640
5680.15,0.43182
5674.37,0.43690
5668.58,0.44398
5662.8,0.45158
5657.01,0.45788
5651.22,0.46312
5645.44,0.46844
5639.65,0.47560
5633.87,0.47873
5628.08,0.48211
5622.29,0.48411
5616.51,0.49087
5610.72,0.49161
5604.93,0.49064
5599.15,0.49195
5593.36,0.49141
5587.58,0.49513
5581.79,0.49715
5576,0.49859
5570.22,0.49889
5564.43,0.49856
5558.64,0.50244
5552.86,0.50485
5547.07,0.50447
5541.29,0.50217
5535.5,0.50196
5529.71,0.50444
5523.93,0.50553
5518.14,0.50782
5512.35,0.50867
5506.57,0.51034
5500.78,0.51254
5495,0.51330
5489.21,0.51389
5483.42,0.51311
5477.64,0.51498
5471.85,0.51683
5466.06,0.51722
5460.28,0.51736
5454.49,0.51842
5448.71,0.51859
5442.92,0.51945
5437.13,0.52088
5431.35,0.52152
5425.56,0.52516
5419.77,0.52536
5413.99,0.52801
5408.2,0.52821
5402.42,0.52953
5396.63,0.53057
5390.84,0.53271
5385.06,0.53497
5379.27,0.53718
5373.48,0.54094
5367.7,0.54207
5361.91,0.54417
5356.13,0.54428
5350.34,0.54624
5344.55,0.54676
5338.77,0.54762
5332.98,0.54611
5327.19,0.54851
5321.41,0.54802
5315.62,0.54647
5309.84,0.54640
5304.05,0.54592
5298.26,0.54363
5292.48,0.54065
5286.69,0.53849
5280.9,0.53674
5275.12,0.53333
5269.33,0.53200
5263.55,0.53118
5257.76,0.52796
5251.97,0.52569
5246.19,0.52510
5240.4,0.52227
5234.61,0.52256
5228.83,0.51986
5223.04,0.51716
5217.26,0.51419
5211.47,0.51201
5205.68,0.51141
5199.9,0.50746
5194.11,0.50581
5188.32,0.50233
5182.54,0.49967
5176.75,0.49697
5170.97,0.49455
5165.18,0.49293
5159.39,0.48929
5153.61,0.48804
5147.82,0.48524
5142.03,0.48453
5136.25,0.48409
5130.46,0.48275
5124.68,0.48344
5118.89,0.48329
5113.1,0.48250
5107.32,0.48376
5101.53,0.48424
5095.75,0.48593
5089.96,0.48811
5084.17,0.48874
5078.39,0.49052
5072.6,0.49191
5066.81,0.49270
5061.03,0.49331
5055.24,0.49331
5049.46,0.49275
5043.67,0.49304
5037.88,0.49112
5032.1,0.48951
5026.31,0.48799
5020.52,0.48491
5014.74,0.48262
5008.95,0.47572
5003.17,0.46853
4997.38,0.46050
4991.59,0.44956
4985.81,0.43691
4980.02,0.42520
4974.23,0.41555
4968.45,0.41291
4962.66,0.40924
4956.88,0.40757
4951.09,0.40600
4945.3,0.40557
4939.52,0.40330
4933.73,0.40231
4927.94,0.40083
4922.16,0.39571
4916.37,0.38781
4910.59,0.37612
4904.8,0.36083
4899.01,0.34494
4893.23,0.32969
4887.44,0.31844
4881.65,0.30821
4875.87,0.30089
4870.08,0.29900
4864.3,0.30693
4858.51,0.32409
4852.72,0.34343
4846.94,0.36280
4841.15,0.38273
4835.36,0.40135
4829.58,0.41384
4823.79,0.42413
4818.01,0.43113
4812.22,0.43365
4806.43,0.43366
4800.65,0.43274
4794.86,0.43174
4789.07,0.43120
4783.29,0.42976
4777.5,0.42755
4771.72,0.42427
4765.93,0.42162
4760.14,0.42063
4754.36,0.41655
4748.57,0.41300
4742.78,0.40886
4737,0.40440
4731.21,0.39963
4725.43,0.39470
4719.64,0.38879
4713.85,0.38262
4708.07,0.37481
4702.28,0.36893
4696.49,0.36483
4690.71,0.36133
4684.92,0.35804
4679.14,0.35836
4673.35,0.35851
4667.56,0.35869
4661.78,0.35995
4655.99,0.35949
4650.2,0.35915
4644.42,0.35630
4638.63,0.35172
4632.85,0.34574
4627.06,0.33860
4621.27,0.33349
4615.49,0.32816
4609.7,0.32451
4603.92,0.32059
4598.13,0.31697
4592.34,0.31464
4586.56,0.31091
4580.77,0.30959
4574.98,0.30968
4569.2,0.30953
4563.41,0.31179
4557.63,0.31423
4551.84,0.31660
4546.05,0.32033
4540.27,0.32247
4534.48,0.32260
4528.69,0.32450
4522.91,0.32689
4517.12,0.33031
4511.34,0.33463
4505.55,0.33929
4499.76,0.34268
4493.98,0.34544
4488.19,0.34745
4482.4,0.34586
4476.62,0.34566
4470.83,0.34545
4465.05,0.34501
4459.26,0.34378
4453.47,0.34090
4447.69,0.33515
4441.9,0.32915
4436.11,0.32213
4430.33,0.31348
4424.54,0.30388
4418.76,0.29605
4412.97,0.28745
4407.18,0.27714
4401.4,0.26731
4395.61,0.25762
4389.82,0.24515
4384.04,0.23212
4378.25,0.21982
4372.47,0.20574
4366.68,0.19417
4360.89,0.18617
4355.11,0.18256
4349.32,0.18783
4343.53,0.19745
4337.75,0.20974
4331.96,0.21893
4326.18,0.22527
4320.39,0.23010
4314.6,0.23488
4308.82,0.24040
4303.03,0.24466
4297.24,0.24487
4291.46,0.24287
4285.67,0.23624
4279.89,0.22873
4274.1,0.22085
4268.31,0.21274
4262.53,0.20926
4256.74,0.21096
4250.95,0.21517
4245.17,0.21717
4239.38,0.21576
4233.6,0.21389
4227.81,0.21283
4222.02,0.21329
4216.24,0.21235
4210.45,0.21296
4204.66,0.21512
4198.88,0.21663
4193.09,0.21724
4187.31,0.21724
4181.52,0.21986
4175.73,0.22452
4169.95,0.23080
4164.16,0.23462
4158.37,0.23842
4152.59,0.24230
4146.8,0.24820
4141.02,0.25292
4135.23,0.25722
4129.44,0.26072
4123.66,0.26186
4117.87,0.26251
4112.09,0.26125
4106.3,0.25898
4100.51,0.25957
4094.73,0.26164
4088.94,0.26283
4083.15,0.26427
4077.37,0.26366
4071.58,0.26189
4065.8,0.25817
4060.01,0.25404
4054.22,0.24797
4048.44,0.24422
4042.65,0.24115
4036.86,0.23847
4031.08,0.23478
4025.29,0.23359
4019.51,0.23414
4013.72,0.23573
4007.93,0.23773
4002.15,0.24290
3996.36,0.25042
3990.57,0.25732
3984.79,0.26312
3979,0.26666
3973.22,0.27044
3967.43,0.27372
3961.64,0.27721
3955.86,0.27922
3950.07,0.28029
3944.28,0.28263
3938.5,0.28560
3932.71,0.28949
3926.93,0.29515
3921.14,0.30069
3915.35,0.30465
3909.57,0.30808
3903.78,0.31078
3897.99,0.31340
3892.21,0.31544
3886.42,0.31919
3880.64,0.32156
3874.85,0.32482
3869.06,0.32414
3863.28,0.32005
3857.49,0.31248
3851.7,0.30895
3845.92,0.31500
3840.13,0.32237
3834.35,0.32566
3828.56,0.32656
3822.77,0.32818
3816.99,0.33127
3811.2,0.33551
3805.41,0.33837
3799.63,0.34063
3793.84,0.34274
3788.06,0.34340
3782.27,0.34264
3776.48,0.34056
3770.7,0.33912
3764.91,0.33793
3759.12,0.33689
3753.34,0.33631
3747.55,0.33540
3741.77,0.33648
3735.98,0.33948
3730.19,0.34424
3724.41,0.34583
3718.62,0.34399
3712.83,0.34194
3707.05,0.33730
3701.26,0.33150
3695.48,0.32432
3689.69,0.31361
3683.9,0.29908
3678.12,0.28739
3672.33,0.27957
3666.54,0.27514
3660.76,0.27418
3654.97,0.27001
3649.19,0.26405
3643.4,0.25426
3637.61,0.24298
3631.83,0.23275
3626.04,0.22313
3620.25,0.21552
3614.47,0.20835
3608.68,0.20103
3602.9,0.19322
3597.11,0.18573
3591.32,0.17768
3585.54,0.17048
3579.75,0.16241
3573.97,0.15443
3568.18,0.14693
3562.39,0.13938
3556.61,0.13247
3550.82,0.12513
3545.03,0.11812
3539.25,0.11243
3533.46,0.10584
3527.68,0.10057
3521.89,0.09466
3516.1,0.09090
3510.32,0.08686
3504.53,0.08326
3498.74,0.08063
3492.96,0.07819
3487.17,0.07654
3481.39,0.07501
3475.6,0.07323
3469.81,0.07123
3464.03,0.06867
3458.24,0.06774
3452.45,0.06452
3446.67,0.06321
3440.88,0.06178
3435.1,0.05975
3429.31,0.05801
3423.52,0.05468
3417.74,0.05293
3411.95,0.05005
3406.16,0.04725
3400.38,0.04368
3394.59,0.04071
3388.81,0.03781
3383.02,0.03466
3377.23,0.03216
3371.45,0.02932
3365.66,0.02737
3359.87,0.02616
3354.09,0.02419
3348.3,0.02303
3342.52,0.02345
3336.73,0.02299
3330.94,0.02179
3325.16,0.02144
3319.37,0.02116
3313.58,0.02181
3307.8,0.02149
3302.01,0.02247
3296.23,0.02316
3290.44,0.02384
3284.65,0.02473
3278.87,0.02387
3273.08,0.02391
3267.29,0.02473
3261.51,0.02492
3255.72,0.02525
3249.94,0.02530
3244.15,0.02592
3238.36,0.02662
3232.58,0.02825
3226.79,0.02922
3221,0.02974
3215.22,0.03015
3209.43,0.03041
3203.65,0.03161
3197.86,0.03156
3192.07,0.03320
3186.29,0.03440
3180.5,0.03575
3174.71,0.03842
3168.93,0.04157
3163.14,0.04319
3157.36,0.04466
3151.57,0.04597
3145.78,0.04601
3140,0.04564
3134.21,0.04489
3128.42,0.04331
3122.64,0.04067
3116.85,0.03785
3111.07,0.03503
3105.28,0.03278
3099.49,0.03174
3093.71,0.02963
3087.92,0.02891
3082.14,0.02923
3076.35,0.03028
3070.56,0.03073
3064.78,0.03199
3058.99,0.03392
3053.2,0.03692
3047.42,0.04078
3041.63,0.04501
3035.85,0.04890
3030.06,0.05233
3024.27,0.05428
3018.49,0.05567
3012.7,0.05592
3006.91,0.05553
3001.13,0.05380
2995.34,0.05086
2989.56,0.04594
2983.77,0.03964
2977.98,0.03260
2972.2,0.02753
2966.41,0.02475
2960.62,0.02304
2954.84,0.02214
2949.05,0.02160
2943.27,0.02202
2937.48,0.02207
2931.69,0.02291
2925.91,0.02369
2920.12,0.02414
2914.33,0.02421
2908.55,0.02436
2902.76,0.02396
2896.98,0.02511
2891.19,0.02582
2885.4,0.02596
2879.62,0.02553
2873.83,0.02419
2868.04,0.02387
2862.26,0.02407
2856.47,0.02427
2850.69,0.02633
2844.9,0.02954
2839.11,0.03674
2833.33,0.04245
2827.54,0.04647
2821.75,0.05003
2815.97,0.05359
2810.18,0.05893
2804.4,0.06319
2798.61,0.06680
2792.82,0.06996
2787.04,0.07376
2781.25,0.07717
2775.46,0.08091
2769.68,0.08470
2763.89,0.08721
2758.11,0.08806
2752.32,0.08804
2746.53,0.08762
2740.75,0.08937
2734.96,0.09289
2729.17,0.09734
2723.39,0.10163
2717.6,0.10673
2711.82,0.11142
2706.03,0.11394
2700.24,0.11601
2694.46,0.11875
2688.67,0.12153
2682.88,0.12366
2677.1,0.12564
2671.31,0.12749
2665.53,0.12921
2659.74,0.12915
2653.95,0.12967
2648.17,0.13221
2642.38,0.13528
2636.59,0.13719
2630.81,0.13864
2625.02,0.14024
2619.24,0.14240
2613.45,0.14485
2607.66,0.14774
2601.88,0.14998
2596.09,0.15149
2590.3,0.15241
2584.52,0.15252
2578.73,0.15396
2572.95,0.15644
2567.16,0.15787
2561.37,0.15796
2555.59,0.15733
2549.8,0.15713
2544.02,0.15920
2538.23,0.16367
2532.44,0.16877
2526.66,0.17343
2520.87,0.17816
2515.08,0.18309
2509.3,0.18589
2503.51,0.18795
2497.73,0.18704
2491.94,0.18594
2486.15,0.18400
2480.37,0.18368
2474.58,0.18505
2468.79,0.18859
2463.01,0.19374
2457.22,0.19754
2451.44,0.20128
2445.65,0.20491
2439.86,0.20890
2434.08,0.21245
2428.29,0.21460
2422.5,0.21595
2416.72,0.21713
2410.93,0.21806
2405.15,0.21711
2399.36,0.21790
2393.57,0.21806
2387.79,0.21808
2382,0.21847
2376.21,0.21802
2370.43,0.21874
2364.64,0.21895
2358.86,0.21859
2353.07,0.21983
2347.28,0.22045
2341.5,0.21762
2335.71,0.21724
2329.92,0.21775
2324.14,0.21801
2318.35,0.21868
2312.57,0.22118
2306.78,0.22425
2300.99,0.22686
2295.21,0.22797
2289.42,0.22909
2283.63,0.23051
2277.85,0.23107
2272.06,0.23115
2266.28,0.23289
2260.49,0.23565
2254.7,0.23889
2248.92,0.24092
2243.13,0.24222
2237.34,0.24229
2231.56,0.24143
2225.77,0.23880
2219.99,0.23543
2214.2,0.23108
2208.41,0.22721
2202.63,0.22370
2196.84,0.21951
2191.05,0.21748
2185.27,0.21909
2179.48,0.22238
2173.7,0.22507
2167.91,0.22678
2162.12,0.22875
2156.34,0.22954
2150.55,0.22968
2144.76,0.22997
2138.98,0.22988
2133.19,0.22871
2127.41,0.22862
2121.62,0.22956
2115.83,0.23259
2110.05,0.23664
2104.26,0.23890
2098.47,0.23864
2092.69,0.23696
2086.9,0.23476
2081.12,0.23237
2075.33,0.23045
2069.54,0.22937
2063.76,0.22990
2057.97,0.23388
2052.19,0.23742
2046.4,0.23593
2040.61,0.23325
2034.83,0.23526
2029.04,0.23898
2023.25,0.24240
2017.47,0.24547
2011.68,0.24739
2005.9,0.24896
2000.11,0.25012
1994.32,0.24891
1988.54,0.24643
1982.75,0.24562
1976.96,0.24573
1971.18,0.24671
1965.39,0.24972
1959.61,0.25262
1953.82,0.25432
1948.03,0.25430
1942.25,0.25367
1936.46,0.25365
1930.67,0.25508
1924.89,0.25512
1919.1,0.25291
1913.32,0.24799
1907.53,0.24170
1901.74,0.23793
1895.96,0.23785
1890.17,0.23905
1884.38,0.24038
1878.6,0.24165
1872.81,0.24252
1867.03,0.24182
1861.24,0.24125
1855.45,0.23882
1849.67,0.23477
1843.88,0.22913
1838.09,0.22372
1832.31,0.22084
1826.52,0.21694
1820.74,0.21296
1814.95,0.20808
1809.16,0.20248
1803.38,0.19569
1797.59,0.18798
1791.8,0.18066
1786.02,0.17373
1780.23,0.16475
1774.45,0.15515
1768.66,0.14281
1762.87,0.12864
1757.09,0.11303
1751.3,0.09761
1745.51,0.08077
1739.73,0.07032
1733.94,0.06546
1728.16,0.06391
1722.37,0.06258
1716.58,0.06023
1710.8,0.05692
1705.01,0.05147
1699.22,0.04310
1693.44,0.03344
1687.65,0.02560
1681.87,0.01894
1676.08,0.01669
1670.29,0.01591
1664.51,0.01619
1658.72,0.01758
1652.93,0.02060
1647.15,0.02623
1641.36,0.03181
1635.58,0.03276
1629.79,0.02941
1624,0.02750
1618.22,0.02627
1612.43,0.02569
1606.64,0.02565
1600.86,0.02533
1595.07,0.02457
1589.29,0.02299
1583.5,0.02117
1577.71,0.02034
1571.93,0.01954
1566.14,0.01982
1560.35,0.02091
1554.57,0.02141
1548.78,0.02529
1543,0.03052
1537.21,0.03256
1531.42,0.03156
1525.64,0.03031
1519.85,0.02937
1514.07,0.02874
1508.28,0.02928
1502.49,0.02960
1496.71,0.03027
1490.92,0.03043
1485.13,0.02891
1479.35,0.02625
1473.56,0.02619
1467.78,0.02588
1461.99,0.02550
1456.2,0.02564
1450.42,0.02604
1444.63,0.02595
1438.84,0.02621
1433.06,0.02631
1427.27,0.02726
1421.49,0.02732
1415.7,0.02825
1409.91,0.03053
1404.13,0.03161
1398.34,0.03085
1392.55,0.02869
1386.77,0.02637
1380.98,0.02494
1375.2,0.02466
1369.41,0.02568
1363.62,0.02638
1357.84,0.02708
1352.05,0.02767
1346.26,0.02836
1340.48,0.02928
1334.69,0.02957
1328.91,0.02981
1323.12,0.02911
1317.33,0.02815
1311.55,0.02694
1305.76,0.02640
1299.97,0.02623
1294.19,0.02611
1288.4,0.02639
1282.62,0.02537
1276.83,0.02461
1271.04,0.02489
1265.26,0.02595
1259.47,0.02722
1253.68,0.02815
1247.9,0.02821
1242.11,0.02763
1236.33,0.02830
1230.54,0.03072
1224.75,0.03340
1218.97,0.03062
1213.18,0.02814
1207.39,0.02841
1201.61,0.02867
1195.82,0.03209
1190.04,0.03473
1184.25,0.03603
1178.46,0.03299
1172.68,0.02880
1166.89,0.03015
1161.1,0.03840
1155.32,0.04941
1149.53,0.05999
1143.75,0.06831
1137.96,0.07265
1132.17,0.06347
1126.39,0.04697
1120.6,0.04123
1114.81,0.04725
1109.03,0.05522
1103.24,0.06503
1097.46,0.07176
1091.67,0.07117
1085.88,0.06533
1080.1,0.05991
1074.31,0.06130
1068.52,0.06716
1062.74,0.07348
1056.95,0.08112
1051.17,0.08271
1045.38,0.07693
1039.59,0.07284
1033.81,0.07358
1028.02,0.07470
1022.24,0.08850
1016.45,0.09585
1010.66,0.09670
1004.88,0.09320
999.09,0.08861
993.304,0.08815
987.518,0.08113
981.731,0.07529
975.945,0.06793
970.159,0.07290
964.373,0.07360
958.586,0.07123
952.8,0.08134
947.014,0.09305
941.228,0.10010
935.441,0.08734
929.655,0.06996
923.869,0.08119
918.083,0.09944
912.297,0.11002
906.51,0.11879
900.724,0.12400
894.938,0.12515
889.152,0.12451
883.365,0.12650
877.579,0.12835
871.793,0.12830
866.007,0.12808
860.22,0.12545
854.434,0.12179
848.648,0.11705
842.862,0.10966
837.075,0.09674
831.289,0.09553
825.503,0.10179
819.717,0.09955
813.931,0.09472
808.144,0.08756
802.358,0.08051
796.572,0.07241
790.786,0.06520
784.999,0.05884
779.213,0.05321
773.427,0.05040
767.641,0.04693
761.854,0.04334
756.068,0.03824
750.282,0.03463
744.496,0.03299
738.709,0.02984
732.923,0.02755
727.137,0.02763
721.351,0.02671
715.565,0.02603
709.778,0.02538
703.992,0.02693
698.206,0.02701
692.42,0.02768
686.633,0.02929
680.847,0.03072
675.061,0.03265
669.275,0.03881
663.488,0.04142
657.702,0.04368
651.916,0.04624
646.13,0.04906
640.343,0.04729
634.557,0.04458
628.771,0.04401
622.985,0.04566
617.198,0.04473
611.412,0.04524
605.626,0.04567
599.84,0.04544