File: 01_Data/Nylon_Carpet_Low_Pile/FTIR/IS/Nylon_Carpet_Low_Pile_IS_S_221122_R7.dpt
7497.03,0.71683
7491.25,0.72660
7485.46,0.71904
7479.67,0.73530
7473.89,0.72871
7468.1,0.72607
7462.32,0.73743
7456.53,0.71384
7450.74,0.71536
7444.96,0.71867
7439.17,0.72883
7433.38,0.71497
7427.6,0.72134
7421.81,0.72353
7416.03,0.72580
7410.24,0.71855
7404.45,0.72440
7398.67,0.71225
7392.88,0.70843
7387.09,0.71786
7381.31,0.72221
7375.52,0.71809
7369.74,0.72129
7363.95,0.70108
7358.16,0.70390
7352.38,0.71672
7346.59,0.70639
7340.8,0.70177
7335.02,0.69416
7329.23,0.68624
7323.45,0.68360
7317.66,0.67997
7311.87,0.68532
7306.09,0.68158
7300.3,0.67972
7294.51,0.67726
7288.73,0.66886
7282.94,0.67810
7277.16,0.66493
7271.37,0.65403
7265.58,0.65166
7259.8,0.65702
7254.01,0.65165
7248.22,0.63792
7242.44,0.64181
7236.65,0.62699
7230.87,0.63156
7225.08,0.62589
7219.29,0.62157
7213.51,0.62178
7207.72,0.62356
7201.93,0.62407
7196.15,0.61972
7190.36,0.62627
7184.58,0.63159
7178.79,0.62340
7173,0.62072
7167.22,0.62045
7161.43,0.62035
7155.65,0.63124
7149.86,0.63185
7144.07,0.62257
7138.29,0.62447
7132.5,0.61402
7126.71,0.62243
7120.93,0.62479
7115.14,0.62303
7109.36,0.62189
7103.57,0.62336
7097.78,0.61804
7092,0.61180
7086.21,0.62108
7080.42,0.61288
7074.64,0.61239
7068.85,0.62612
7063.07,0.61828
7057.28,0.61716
7051.49,0.62673
7045.71,0.62619
7039.92,0.61822
7034.13,0.62927
7028.35,0.62496
7022.56,0.62294
7016.78,0.62739
7010.99,0.62066
7005.2,0.62154
6999.42,0.62475
6993.63,0.62992
6987.84,0.63565
6982.06,0.63246
6976.27,0.63092
6970.49,0.63094
6964.7,0.63825
6958.91,0.63628
6953.13,0.63567
6947.34,0.63783
6941.55,0.64349
6935.77,0.64398
6929.98,0.64140
6924.2,0.65157
6918.41,0.64293
6912.62,0.64458
6906.84,0.64294
6901.05,0.64135
6895.26,0.64607
6889.48,0.65284
6883.69,0.64292
6877.91,0.64359
6872.12,0.65301
6866.33,0.65386
6860.55,0.65608
6854.76,0.65528
6848.97,0.65527
6843.19,0.66209
6837.4,0.65485
6831.62,0.65466
6825.83,0.65680
6820.04,0.64928
6814.26,0.64842
6808.47,0.65100
6802.68,0.65398
6796.9,0.64670
6791.11,0.64529
6785.33,0.64457
6779.54,0.64280
6773.75,0.63276
6767.97,0.63024
6762.18,0.63377
6756.39,0.62915
6750.61,0.62528
6744.82,0.62488
6739.04,0.62352
6733.25,0.62435
6727.46,0.62796
6721.68,0.62946
6715.89,0.62982
6710.1,0.61526
6704.32,0.61809
6698.53,0.61940
6692.75,0.61454
6686.96,0.61277
6681.17,0.61157
6675.39,0.61083
6669.6,0.61004
6663.82,0.60385
6658.03,0.59838
6652.24,0.60015
6646.46,0.59053
6640.67,0.58484
6634.88,0.58172
6629.1,0.57621
6623.31,0.57613
6617.53,0.56756
6611.74,0.56371
6605.95,0.56858
6600.17,0.56660
6594.38,0.56469
6588.59,0.56428
6582.81,0.56682
6577.02,0.56297
6571.24,0.56280
6565.45,0.56375
6559.66,0.55732
6553.88,0.55276
6548.09,0.54754
6542.3,0.54981
6536.52,0.54491
6530.73,0.53902
6524.95,0.53017
6519.16,0.53192
6513.37,0.53489
6507.59,0.53147
6501.8,0.52884
6496.01,0.53042
6490.23,0.53141
6484.44,0.52981
6478.66,0.53560
6472.87,0.54222
6467.08,0.55234
6461.3,0.56319
6455.51,0.57754
6449.72,0.57979
6443.94,0.59090
6438.15,0.59353
6432.37,0.59684
6426.58,0.59710
6420.79,0.59627
6415.01,0.60107
6409.22,0.59446
6403.43,0.59217
6397.65,0.58922
6391.86,0.58100
6386.08,0.57995
6380.29,0.56915
6374.5,0.57096
6368.72,0.56547
6362.93,0.56545
6357.14,0.56016
6351.36,0.55877
6345.57,0.55879
6339.79,0.56434
6334,0.56272
6328.21,0.57126
6322.43,0.57691
6316.64,0.57935
6310.85,0.58166
6305.07,0.58806
6299.28,0.58304
6293.5,0.58800
6287.71,0.58805
6281.92,0.58241
6276.14,0.58210
6270.35,0.58303
6264.56,0.57767
6258.78,0.57352
6252.99,0.57255
6247.21,0.57201
6241.42,0.57335
6235.63,0.57406
6229.85,0.57728
6224.06,0.57685
6218.27,0.58004
6212.49,0.57746
6206.7,0.57971
6200.92,0.58909
6195.13,0.58623
6189.34,0.59068
6183.56,0.59106
6177.77,0.59883
6171.98,0.60492
6166.2,0.60818
6160.41,0.61520
6154.63,0.61621
6148.84,0.62194
6143.05,0.62704
6137.27,0.62783
6131.48,0.63324
6125.7,0.63685
6119.91,0.63958
6114.12,0.64121
6108.34,0.63908
6102.55,0.63977
6096.76,0.64106
6090.98,0.63934
6085.19,0.63748
6079.41,0.63919
6073.62,0.63869
6067.83,0.63786
6062.05,0.63871
6056.26,0.63466
6050.47,0.63443
6044.69,0.63527
6038.9,0.63338
6033.12,0.63136
6027.33,0.63118
6021.54,0.63181
6015.76,0.62680
6009.97,0.62622
6004.18,0.62104
5998.4,0.62485
5992.61,0.61974
5986.83,0.61656
5981.04,0.61624
5975.25,0.61032
5969.47,0.60743
5963.68,0.60439
5957.89,0.60087
5952.11,0.59463
5946.32,0.58687
5940.54,0.58381
5934.75,0.57825
5928.96,0.56874
5923.18,0.56048
5917.39,0.55127
5911.6,0.53570
5905.82,0.52454
5900.03,0.51002
5894.25,0.49501
5888.46,0.48435
5882.67,0.46920
5876.89,0.45910
5871.1,0.44816
5865.31,0.43933
5859.53,0.42994
5853.74,0.42171
5847.96,0.41695
5842.17,0.40862
5836.38,0.40790
5830.6,0.40521
5824.81,0.40337
5819.02,0.40266
5813.24,0.40579
5807.45,0.40770
5801.67,0.41103
5795.88,0.41693
5790.09,0.41765
5784.31,0.42335
5778.52,0.42688
5772.73,0.43156
5766.95,0.43288
5761.16,0.43608
5755.38,0.43574
5749.59,0.43638
5743.8,0.43223
5738.02,0.42868
5732.23,0.42456
5726.44,0.42217
5720.66,0.41995
5714.87,0.41842
5709.09,0.41650
5703.3,0.41860
5697.51,0.41978
5691.73,0.42508
5685.94,0.42610
5680.15,0.43305
5674.37,0.43723
5668.58,0.44514
5662.8,0.45032
5657.01,0.45894
5651.22,0.46175
5645.44,0.46705
5639.65,0.47399
5633.87,0.47833
5628.08,0.48415
5622.29,0.48630
5616.51,0.48709
5610.72,0.49071
5604.93,0.49236
5599.15,0.49193
5593.36,0.49218
5587.58,0.49329
5581.79,0.49387
5576,0.49631
5570.22,0.49798
5564.43,0.49868
5558.64,0.50324
5552.86,0.49910
5547.07,0.50061
5541.29,0.50121
5535.5,0.50253
5529.71,0.50292
5523.93,0.50419
5518.14,0.50510
5512.35,0.50710
5506.57,0.50922
5500.78,0.51060
5495,0.51145
5489.21,0.51086
5483.42,0.51249
5477.64,0.51415
5471.85,0.51441
5466.06,0.51525
5460.28,0.51512
5454.49,0.51497
5448.71,0.51768
5442.92,0.51902
5437.13,0.52121
5431.35,0.52024
5425.56,0.52132
5419.77,0.52521
5413.99,0.52713
5408.2,0.52735
5402.42,0.52941
5396.63,0.53134
5390.84,0.53307
5385.06,0.53480
5379.27,0.53899
5373.48,0.53906
5367.7,0.54247
5361.91,0.54299
5356.13,0.54432
5350.34,0.54427
5344.55,0.54509
5338.77,0.54631
5332.98,0.54655
5327.19,0.54612
5321.41,0.54737
5315.62,0.54530
5309.84,0.54500
5304.05,0.54248
5298.26,0.54182
5292.48,0.53986
5286.69,0.53678
5280.9,0.53526
5275.12,0.53368
5269.33,0.53110
5263.55,0.52975
5257.76,0.52778
5251.97,0.52702
5246.19,0.52437
5240.4,0.52196
5234.61,0.52131
5228.83,0.52008
5223.04,0.51766
5217.26,0.51545
5211.47,0.51288
5205.68,0.51032
5199.9,0.50693
5194.11,0.50479
5188.32,0.50255
5182.54,0.50111
5176.75,0.49914
5170.97,0.49574
5165.18,0.49276
5159.39,0.49013
5153.61,0.48842
5147.82,0.48527
5142.03,0.48439
5136.25,0.48396
5130.46,0.48249
5124.68,0.48343
5118.89,0.48353
5113.1,0.48386
5107.32,0.48447
5101.53,0.48596
5095.75,0.48804
5089.96,0.48972
5084.17,0.48911
5078.39,0.48973
5072.6,0.48996
5066.81,0.49287
5061.03,0.49284
5055.24,0.49321
5049.46,0.49348
5043.67,0.49381
5037.88,0.49245
5032.1,0.49094
5026.31,0.48920
5020.52,0.48556
5014.74,0.48152
5008.95,0.47559
5003.17,0.46929
4997.38,0.45883
4991.59,0.44824
4985.81,0.43705
4980.02,0.42458
4974.23,0.41692
4968.45,0.41194
4962.66,0.41014
4956.88,0.40846
4951.09,0.40545
4945.3,0.40596
4939.52,0.40307
4933.73,0.40113
4927.94,0.39934
4922.16,0.39550
4916.37,0.38660
4910.59,0.37449
4904.8,0.36054
4899.01,0.34423
4893.23,0.32849
4887.44,0.31601
4881.65,0.30721
4875.87,0.29995
4870.08,0.29836
4864.3,0.30780
4858.51,0.32395
4852.72,0.34204
4846.94,0.36393
4841.15,0.38378
4835.36,0.39993
4829.58,0.41379
4823.79,0.42340
4818.01,0.43038
4812.22,0.43420
4806.43,0.43355
4800.65,0.43232
4794.86,0.43051
4789.07,0.42937
4783.29,0.42845
4777.5,0.42614
4771.72,0.42430
4765.93,0.42206
4760.14,0.42005
4754.36,0.41579
4748.57,0.41256
4742.78,0.40741
4737,0.40367
4731.21,0.39901
4725.43,0.39366
4719.64,0.38820
4713.85,0.38170
4708.07,0.37349
4702.28,0.36897
4696.49,0.36278
4690.71,0.35970
4684.92,0.35804
4679.14,0.35837
4673.35,0.35841
4667.56,0.35761
4661.78,0.35854
4655.99,0.35847
4650.2,0.35822
4644.42,0.35514
4638.63,0.35179
4632.85,0.34519
4627.06,0.33851
4621.27,0.33442
4615.49,0.32853
4609.7,0.32451
4603.92,0.31961
4598.13,0.31588
4592.34,0.31299
4586.56,0.31025
4580.77,0.30961
4574.98,0.30947
4569.2,0.30926
4563.41,0.31025
4557.63,0.31411
4551.84,0.31732
4546.05,0.32054
4540.27,0.32111
4534.48,0.32224
4528.69,0.32393
4522.91,0.32574
4517.12,0.32991
4511.34,0.33414
4505.55,0.33815
4499.76,0.34257
4493.98,0.34545
4488.19,0.34502
4482.4,0.34586
4476.62,0.34487
4470.83,0.34419
4465.05,0.34363
4459.26,0.34255
4453.47,0.33967
4447.69,0.33434
4441.9,0.32828
4436.11,0.32103
4430.33,0.31296
4424.54,0.30423
4418.76,0.29470
4412.97,0.28607
4407.18,0.27715
4401.4,0.26707
4395.61,0.25648
4389.82,0.24383
4384.04,0.23114
4378.25,0.21740
4372.47,0.20585
4366.68,0.19468
4360.89,0.18553
4355.11,0.18287
4349.32,0.18727
4343.53,0.19691
4337.75,0.20875
4331.96,0.21840
4326.18,0.22328
4320.39,0.22894
4314.6,0.23539
4308.82,0.24017
4303.03,0.24426
4297.24,0.24434
4291.46,0.24200
4285.67,0.23631
4279.89,0.22872
4274.1,0.21955
4268.31,0.21215
4262.53,0.20876
4256.74,0.21026
4250.95,0.21465
4245.17,0.21667
4239.38,0.21554
4233.6,0.21472
4227.81,0.21217
4222.02,0.21209
4216.24,0.21218
4210.45,0.21330
4204.66,0.21438
4198.88,0.21593
4193.09,0.21633
4187.31,0.21673
4181.52,0.21928
4175.73,0.22521
4169.95,0.23015
4164.16,0.23459
4158.37,0.23819
4152.59,0.24197
4146.8,0.24704
4141.02,0.25310
4135.23,0.25664
4129.44,0.25943
4123.66,0.26166
4117.87,0.26100
4112.09,0.25978
4106.3,0.25834
4100.51,0.25903
4094.73,0.26090
4088.94,0.26331
4083.15,0.26355
4077.37,0.26329
4071.58,0.26134
4065.8,0.25840
4060.01,0.25327
4054.22,0.24835
4048.44,0.24347
4042.65,0.24108
4036.86,0.23733
4031.08,0.23447
4025.29,0.23292
4019.51,0.23385
4013.72,0.23461
4007.93,0.23671
4002.15,0.24220
3996.36,0.24972
3990.57,0.25741
3984.79,0.26245
3979,0.26628
3973.22,0.26951
3967.43,0.27295
3961.64,0.27570
3955.86,0.27791
3950.07,0.27997
3944.28,0.28235
3938.5,0.28518
3932.71,0.28925
3926.93,0.29464
3921.14,0.29962
3915.35,0.30372
3909.57,0.30735
3903.78,0.31013
3897.99,0.31176
3892.21,0.31517
3886.42,0.31775
3880.64,0.32098
3874.85,0.32391
3869.06,0.32383
3863.28,0.31952
3857.49,0.31170
3851.7,0.30911
3845.92,0.31452
3840.13,0.32140
3834.35,0.32448
3828.56,0.32572
3822.77,0.32686
3816.99,0.33078
3811.2,0.33510
3805.41,0.33817
3799.63,0.34019
3793.84,0.34245
3788.06,0.34262
3782.27,0.34238
3776.48,0.34048
3770.7,0.33820
3764.91,0.33706
3759.12,0.33663
3753.34,0.33571
3747.55,0.33467
3741.77,0.33642
3735.98,0.34009
3730.19,0.34396
3724.41,0.34628
3718.62,0.34431
3712.83,0.34117
3707.05,0.33703
3701.26,0.33205
3695.48,0.32472
3689.69,0.31433
3683.9,0.29969
3678.12,0.28836
3672.33,0.28103
3666.54,0.27775
3660.76,0.27596
3654.97,0.27188
3649.19,0.26569
3643.4,0.25624
3637.61,0.24571
3631.83,0.23536
3626.04,0.22607
3620.25,0.21868
3614.47,0.21093
3608.68,0.20398
3602.9,0.19635
3597.11,0.18877
3591.32,0.18171
3585.54,0.17261
3579.75,0.16504
3573.97,0.15773
3568.18,0.15032
3562.39,0.14250
3556.61,0.13522
3550.82,0.12748
3545.03,0.12154
3539.25,0.11498
3533.46,0.10970
3527.68,0.10331
3521.89,0.09865
3516.1,0.09380
3510.32,0.08964
3504.53,0.08616
3498.74,0.08319
3492.96,0.08100
3487.17,0.07862
3481.39,0.07690
3475.6,0.07555
3469.81,0.07358
3464.03,0.07119
3458.24,0.06841
3452.45,0.06636
3446.67,0.06474
3440.88,0.06382
3435.1,0.06246
3429.31,0.05980
3423.52,0.05627
3417.74,0.05376
3411.95,0.05152
3406.16,0.04820
3400.38,0.04453
3394.59,0.04109
3388.81,0.03864
3383.02,0.03609
3377.23,0.03280
3371.45,0.03013
3365.66,0.02795
3359.87,0.02609
3354.09,0.02446
3348.3,0.02315
3342.52,0.02296
3336.73,0.02238
3330.94,0.02172
3325.16,0.02160
3319.37,0.02152
3313.58,0.02180
3307.8,0.02208
3302.01,0.02273
3296.23,0.02367
3290.44,0.02413
3284.65,0.02348
3278.87,0.02482
3273.08,0.02482
3267.29,0.02502
3261.51,0.02505
3255.72,0.02525
3249.94,0.02535
3244.15,0.02651
3238.36,0.02724
3232.58,0.02769
3226.79,0.02836
3221,0.02969
3215.22,0.03046
3209.43,0.03028
3203.65,0.03090
3197.86,0.03170
3192.07,0.03380
3186.29,0.03456
3180.5,0.03704
3174.71,0.03936
3168.93,0.04182
3163.14,0.04368
3157.36,0.04484
3151.57,0.04621
3145.78,0.04702
3140,0.04652
3134.21,0.04547
3128.42,0.04263
3122.64,0.04103
3116.85,0.03821
3111.07,0.03546
3105.28,0.03285
3099.49,0.03124
3093.71,0.02975
3087.92,0.02960
3082.14,0.02900
3076.35,0.03004
3070.56,0.03101
3064.78,0.03221
3058.99,0.03386
3053.2,0.03687
3047.42,0.04024
3041.63,0.04481
3035.85,0.04906
3030.06,0.05209
3024.27,0.05421
3018.49,0.05600
3012.7,0.05601
3006.91,0.05492
3001.13,0.05412
2995.34,0.05042
2989.56,0.04630
2983.77,0.03949
2977.98,0.03263
2972.2,0.02778
2966.41,0.02492
2960.62,0.02282
2954.84,0.02216
2949.05,0.02186
2943.27,0.02215
2937.48,0.02245
2931.69,0.02257
2925.91,0.02337
2920.12,0.02380
2914.33,0.02432
2908.55,0.02487
2902.76,0.02486
2896.98,0.02524
2891.19,0.02598
2885.4,0.02596
2879.62,0.02495
2873.83,0.02390
2868.04,0.02488
2862.26,0.02438
2856.47,0.02499
2850.69,0.02600
2844.9,0.02995
2839.11,0.03672
2833.33,0.04279
2827.54,0.04699
2821.75,0.04981
2815.97,0.05411
2810.18,0.05888
2804.4,0.06245
2798.61,0.06640
2792.82,0.07020
2787.04,0.07364
2781.25,0.07718
2775.46,0.08072
2769.68,0.08472
2763.89,0.08748
2758.11,0.08803
2752.32,0.08776
2746.53,0.08773
2740.75,0.08913
2734.96,0.09275
2729.17,0.09739
2723.39,0.10175
2717.6,0.10667
2711.82,0.11114
2706.03,0.11393
2700.24,0.11606
2694.46,0.11902
2688.67,0.12134
2682.88,0.12335
2677.1,0.12555
2671.31,0.12726
2665.53,0.12902
2659.74,0.12881
2653.95,0.12936
2648.17,0.13171
2642.38,0.13474
2636.59,0.13712
2630.81,0.13865
2625.02,0.13974
2619.24,0.14231
2613.45,0.14485
2607.66,0.14735
2601.88,0.14962
2596.09,0.15091
2590.3,0.15188
2584.52,0.15236
2578.73,0.15408
2572.95,0.15624
2567.16,0.15670
2561.37,0.15738
2555.59,0.15696
2549.8,0.15656
2544.02,0.15897
2538.23,0.16294
2532.44,0.16796
2526.66,0.17290
2520.87,0.17772
2515.08,0.18273
2509.3,0.18605
2503.51,0.18749
2497.73,0.18743
2491.94,0.18544
2486.15,0.18400
2480.37,0.18347
2474.58,0.18493
2468.79,0.18823
2463.01,0.19283
2457.22,0.19744
2451.44,0.20096
2445.65,0.20460
2439.86,0.20879
2434.08,0.21184
2428.29,0.21415
2422.5,0.21597
2416.72,0.21755
2410.93,0.21743
2405.15,0.21720
2399.36,0.21761
2393.57,0.21782
2387.79,0.21748
2382,0.21892
2376.21,0.22055
2370.43,0.22314
2364.64,0.22495
2358.86,0.22504
2353.07,0.22442
2347.28,0.22402
2341.5,0.22245
2335.71,0.22122
2329.92,0.22155
2324.14,0.22106
2318.35,0.22131
2312.57,0.22283
2306.78,0.22497
2300.99,0.22716
2295.21,0.22793
2289.42,0.22874
2283.63,0.23063
2277.85,0.23146
2272.06,0.23174
2266.28,0.23311
2260.49,0.23573
2254.7,0.23882
2248.92,0.24080
2243.13,0.24210
2237.34,0.24258
2231.56,0.24110
2225.77,0.23875
2219.99,0.23561
2214.2,0.23129
2208.41,0.22776
2202.63,0.22418
2196.84,0.21945
2191.05,0.21766
2185.27,0.21953
2179.48,0.22276
2173.7,0.22566
2167.91,0.22720
2162.12,0.22910
2156.34,0.23001
2150.55,0.23024
2144.76,0.23027
2138.98,0.23000
2133.19,0.22854
2127.41,0.22851
2121.62,0.22986
2115.83,0.23326
2110.05,0.23634
2104.26,0.23884
2098.47,0.23857
2092.69,0.23725
2086.9,0.23507
2081.12,0.23309
2075.33,0.23056
2069.54,0.22888
2063.76,0.22972
2057.97,0.23387
2052.19,0.23728
2046.4,0.23591
2040.61,0.23283
2034.83,0.23479
2029.04,0.23863
2023.25,0.24196
2017.47,0.24528
2011.68,0.24682
2005.9,0.24881
2000.11,0.24937
1994.32,0.24893
1988.54,0.24656
1982.75,0.24490
1976.96,0.24522
1971.18,0.24614
1965.39,0.24935
1959.61,0.25235
1953.82,0.25430
1948.03,0.25406
1942.25,0.25327
1936.46,0.25346
1930.67,0.25477
1924.89,0.25477
1919.1,0.25245
1913.32,0.24721
1907.53,0.24131
1901.74,0.23752
1895.96,0.23726
1890.17,0.23877
1884.38,0.24006
1878.6,0.24116
1872.81,0.24156
1867.03,0.24151
1861.24,0.24066
1855.45,0.23854
1849.67,0.23435
1843.88,0.22860
1838.09,0.22370
1832.31,0.22035
1826.52,0.21643
1820.74,0.21231
1814.95,0.20765
1809.16,0.20173
1803.38,0.19523
1797.59,0.18762
1791.8,0.18035
1786.02,0.17304
1780.23,0.16435
1774.45,0.15496
1768.66,0.14202
1762.87,0.12825
1757.09,0.11272
1751.3,0.09710
1745.51,0.08108
1739.73,0.07018
1733.94,0.06535
1728.16,0.06357
1722.37,0.06239
1716.58,0.06066
1710.8,0.05681
1705.01,0.05130
1699.22,0.04370
1693.44,0.03338
1687.65,0.02575
1681.87,0.01902
1676.08,0.01692
1670.29,0.01585
1664.51,0.01604
1658.72,0.01779
1652.93,0.02083
1647.15,0.02571
1641.36,0.03210
1635.58,0.03257
1629.79,0.02940
1624,0.02745
1618.22,0.02628
1612.43,0.02568
1606.64,0.02546
1600.86,0.02513
1595.07,0.02436
1589.29,0.02275
1583.5,0.02158
1577.71,0.02004
1571.93,0.01942
1566.14,0.01992
1560.35,0.02092
1554.57,0.02168
1548.78,0.02534
1543,0.03105
1537.21,0.03240
1531.42,0.03180
1525.64,0.03047
1519.85,0.02937
1514.07,0.02919
1508.28,0.02904
1502.49,0.02964
1496.71,0.03056
1490.92,0.03054
1485.13,0.02868
1479.35,0.02617
1473.56,0.02615
1467.78,0.02555
1461.99,0.02548
1456.2,0.02590
1450.42,0.02583
1444.63,0.02598
1438.84,0.02607
1433.06,0.02657
1427.27,0.02730
1421.49,0.02752
1415.7,0.02862
1409.91,0.03003
1404.13,0.03120
1398.34,0.03063
1392.55,0.02807
1386.77,0.02636
1380.98,0.02499
1375.2,0.02499
1369.41,0.02558
1363.62,0.02620
1357.84,0.02668
1352.05,0.02735
1346.26,0.02811
1340.48,0.02937
1334.69,0.02935
1328.91,0.02978
1323.12,0.02934
1317.33,0.02838
1311.55,0.02691
1305.76,0.02629
1299.97,0.02628
1294.19,0.02693
1288.4,0.02662
1282.62,0.02523
1276.83,0.02462
1271.04,0.02471
1265.26,0.02591
1259.47,0.02727
1253.68,0.02778
1247.9,0.02832
1242.11,0.02823
1236.33,0.02831
1230.54,0.03026
1224.75,0.03310
1218.97,0.03026
1213.18,0.02808
1207.39,0.02813
1201.61,0.02916
1195.82,0.03223
1190.04,0.03504
1184.25,0.03687
1178.46,0.03314
1172.68,0.02885
1166.89,0.03052
1161.1,0.03857
1155.32,0.04977
1149.53,0.06021
1143.75,0.06854
1137.96,0.07195
1132.17,0.06362
1126.39,0.04714
1120.6,0.04129
1114.81,0.04716
1109.03,0.05519
1103.24,0.06523
1097.46,0.07212
1091.67,0.07093
1085.88,0.06512
1080.1,0.06039
1074.31,0.06109
1068.52,0.06652
1062.74,0.07378
1056.95,0.08070
1051.17,0.08262
1045.38,0.07711
1039.59,0.07253
1033.81,0.07309
1028.02,0.07443
1022.24,0.08839
1016.45,0.09567
1010.66,0.09694
1004.88,0.09333
999.09,0.08903
993.304,0.08833
987.518,0.08197
981.731,0.07519
975.945,0.06823
970.159,0.07224
964.373,0.07383
958.586,0.07134
952.8,0.08096
947.014,0.09260
941.228,0.10072
935.441,0.08767
929.655,0.07007
923.869,0.08137
918.083,0.09869
912.297,0.10989
906.51,0.11939
900.724,0.12488
894.938,0.12502
889.152,0.12523
883.365,0.12672
877.579,0.12773
871.793,0.12894
866.007,0.12797
860.22,0.12519
854.434,0.12268
848.648,0.11770
842.862,0.10998
837.075,0.09732
831.289,0.09484
825.503,0.10210
819.717,0.10029
813.931,0.09559
808.144,0.08791
802.358,0.08047
796.572,0.07347
790.786,0.06557
784.999,0.05796
779.213,0.05286
773.427,0.05040
767.641,0.04748
761.854,0.04406
756.068,0.03931
750.282,0.03609
744.496,0.03351
738.709,0.03089
732.923,0.02788
727.137,0.02822
721.351,0.02747
715.565,0.02551
709.778,0.02527
703.992,0.02709
698.206,0.02697
692.42,0.02792
686.633,0.02942
680.847,0.03061
675.061,0.03390
669.275,0.03701
663.488,0.04162
657.702,0.04376
651.916,0.04739
646.13,0.04954
640.343,0.04803
634.557,0.04701
628.771,0.04571
622.985,0.04481
617.198,0.04497
611.412,0.04567
605.626,0.04694
599.84,0.04407