File: 01_Data/Nylon_Carpet_Low_Pile/FTIR/IS/Nylon_Carpet_Low_Pile_IS_S_221122_R1.dpt
7497.03,0.71852
7491.25,0.72474
7485.46,0.73028
7479.67,0.72182
7473.89,0.71645
7468.1,0.71876
7462.32,0.72506
7456.53,0.71782
7450.74,0.71248
7444.96,0.72178
7439.17,0.71796
7433.38,0.71098
7427.6,0.71982
7421.81,0.73475
7416.03,0.72215
7410.24,0.71934
7404.45,0.71156
7398.67,0.71191
7392.88,0.71581
7387.09,0.71881
7381.31,0.71344
7375.52,0.71927
7369.74,0.70595
7363.95,0.71416
7358.16,0.71429
7352.38,0.70744
7346.59,0.70482
7340.8,0.70920
7335.02,0.70896
7329.23,0.68732
7323.45,0.67575
7317.66,0.69035
7311.87,0.69024
7306.09,0.66986
7300.3,0.67629
7294.51,0.67799
7288.73,0.65805
7282.94,0.66624
7277.16,0.65993
7271.37,0.65459
7265.58,0.65072
7259.8,0.64946
7254.01,0.63754
7248.22,0.62575
7242.44,0.63057
7236.65,0.62987
7230.87,0.62225
7225.08,0.62186
7219.29,0.62084
7213.51,0.62410
7207.72,0.62725
7201.93,0.62116
7196.15,0.63070
7190.36,0.62204
7184.58,0.61798
7178.79,0.62717
7173,0.62757
7167.22,0.62311
7161.43,0.61567
7155.65,0.62344
7149.86,0.62455
7144.07,0.63055
7138.29,0.61546
7132.5,0.62037
7126.71,0.62059
7120.93,0.61458
7115.14,0.62089
7109.36,0.62453
7103.57,0.61782
7097.78,0.62381
7092,0.61458
7086.21,0.61080
7080.42,0.60736
7074.64,0.61569
7068.85,0.61570
7063.07,0.61859
7057.28,0.61955
7051.49,0.61654
7045.71,0.62251
7039.92,0.62568
7034.13,0.62791
7028.35,0.62350
7022.56,0.61936
7016.78,0.62320
7010.99,0.61988
7005.2,0.62267
6999.42,0.62092
6993.63,0.62237
6987.84,0.62547
6982.06,0.62421
6976.27,0.62627
6970.49,0.63199
6964.7,0.63250
6958.91,0.63036
6953.13,0.62986
6947.34,0.63441
6941.55,0.63131
6935.77,0.63438
6929.98,0.63571
6924.2,0.64005
6918.41,0.64649
6912.62,0.64044
6906.84,0.64254
6901.05,0.64694
6895.26,0.64387
6889.48,0.64886
6883.69,0.64396
6877.91,0.64652
6872.12,0.64599
6866.33,0.64807
6860.55,0.64689
6854.76,0.64173
6848.97,0.64909
6843.19,0.64887
6837.4,0.65225
6831.62,0.65264
6825.83,0.65530
6820.04,0.65065
6814.26,0.65377
6808.47,0.64774
6802.68,0.64954
6796.9,0.64755
6791.11,0.64416
6785.33,0.63988
6779.54,0.63658
6773.75,0.63376
6767.97,0.63209
6762.18,0.62647
6756.39,0.62187
6750.61,0.62263
6744.82,0.62334
6739.04,0.62394
6733.25,0.62638
6727.46,0.61842
6721.68,0.61710
6715.89,0.62202
6710.1,0.61990
6704.32,0.61691
6698.53,0.61091
6692.75,0.61459
6686.96,0.60787
6681.17,0.61134
6675.39,0.60924
6669.6,0.60695
6663.82,0.60056
6658.03,0.59372
6652.24,0.59907
6646.46,0.59235
6640.67,0.58491
6634.88,0.57700
6629.1,0.57418
6623.31,0.56541
6617.53,0.56811
6611.74,0.56424
6605.95,0.56501
6600.17,0.56127
6594.38,0.56358
6588.59,0.55730
6582.81,0.56407
6577.02,0.56234
6571.24,0.56046
6565.45,0.55575
6559.66,0.55662
6553.88,0.55646
6548.09,0.54732
6542.3,0.54202
6536.52,0.53889
6530.73,0.53793
6524.95,0.53314
6519.16,0.53288
6513.37,0.53033
6507.59,0.52652
6501.8,0.52736
6496.01,0.53021
6490.23,0.52902
6484.44,0.53385
6478.66,0.53949
6472.87,0.54384
6467.08,0.54851
6461.3,0.56227
6455.51,0.56855
6449.72,0.57999
6443.94,0.58843
6438.15,0.59424
6432.37,0.59766
6426.58,0.59668
6420.79,0.59400
6415.01,0.59252
6409.22,0.58730
6403.43,0.59003
6397.65,0.58415
6391.86,0.57807
6386.08,0.58095
6380.29,0.57386
6374.5,0.56695
6368.72,0.56050
6362.93,0.55829
6357.14,0.56346
6351.36,0.55740
6345.57,0.55854
6339.79,0.55938
6334,0.56014
6328.21,0.56332
6322.43,0.57000
6316.64,0.57454
6310.85,0.57874
6305.07,0.58532
6299.28,0.58357
6293.5,0.58544
6287.71,0.58124
6281.92,0.57964
6276.14,0.57871
6270.35,0.57731
6264.56,0.57399
6258.78,0.57664
6252.99,0.57251
6247.21,0.56874
6241.42,0.57073
6235.63,0.57073
6229.85,0.57149
6224.06,0.57441
6218.27,0.57726
6212.49,0.57995
6206.7,0.58500
6200.92,0.58357
6195.13,0.58936
6189.34,0.58724
6183.56,0.59352
6177.77,0.59777
6171.98,0.59807
6166.2,0.60743
6160.41,0.61647
6154.63,0.61659
6148.84,0.62152
6143.05,0.62575
6137.27,0.62693
6131.48,0.63105
6125.7,0.63475
6119.91,0.63541
6114.12,0.63652
6108.34,0.64067
6102.55,0.63865
6096.76,0.64083
6090.98,0.63802
6085.19,0.63862
6079.41,0.64096
6073.62,0.63870
6067.83,0.63537
6062.05,0.63760
6056.26,0.63317
6050.47,0.63385
6044.69,0.63228
6038.9,0.63214
6033.12,0.63131
6027.33,0.62755
6021.54,0.62532
6015.76,0.62290
6009.97,0.62582
6004.18,0.62259
5998.4,0.61870
5992.61,0.61596
5986.83,0.61576
5981.04,0.61379
5975.25,0.61062
5969.47,0.60571
5963.68,0.60168
5957.89,0.60002
5952.11,0.59615
5946.32,0.59146
5940.54,0.58373
5934.75,0.58044
5928.96,0.56755
5923.18,0.55939
5917.39,0.54612
5911.6,0.53589
5905.82,0.52056
5900.03,0.50822
5894.25,0.49566
5888.46,0.48216
5882.67,0.47381
5876.89,0.45979
5871.1,0.44813
5865.31,0.43848
5859.53,0.42975
5853.74,0.41956
5847.96,0.41630
5842.17,0.41056
5836.38,0.40757
5830.6,0.40236
5824.81,0.39944
5819.02,0.40164
5813.24,0.40566
5807.45,0.40470
5801.67,0.40914
5795.88,0.41544
5790.09,0.41854
5784.31,0.42283
5778.52,0.42512
5772.73,0.42888
5766.95,0.43328
5761.16,0.43471
5755.38,0.43646
5749.59,0.43504
5743.8,0.43350
5738.02,0.43128
5732.23,0.42810
5726.44,0.42205
5720.66,0.41803
5714.87,0.41683
5709.09,0.41647
5703.3,0.42014
5697.51,0.42186
5691.73,0.42342
5685.94,0.42534
5680.15,0.43147
5674.37,0.43687
5668.58,0.44510
5662.8,0.45006
5657.01,0.45412
5651.22,0.46194
5645.44,0.46463
5639.65,0.47235
5633.87,0.47792
5628.08,0.48095
5622.29,0.48590
5616.51,0.48744
5610.72,0.48945
5604.93,0.49206
5599.15,0.49037
5593.36,0.49286
5587.58,0.49395
5581.79,0.49490
5576,0.49655
5570.22,0.49819
5564.43,0.49838
5558.64,0.49944
5552.86,0.49933
5547.07,0.49872
5541.29,0.50111
5535.5,0.50047
5529.71,0.50378
5523.93,0.50444
5518.14,0.50279
5512.35,0.50668
5506.57,0.50791
5500.78,0.50955
5495,0.50865
5489.21,0.50912
5483.42,0.51100
5477.64,0.51353
5471.85,0.51199
5466.06,0.51361
5460.28,0.51335
5454.49,0.51612
5448.71,0.51561
5442.92,0.51776
5437.13,0.51739
5431.35,0.51956
5425.56,0.51935
5419.77,0.52339
5413.99,0.52414
5408.2,0.52651
5402.42,0.52786
5396.63,0.52988
5390.84,0.53149
5385.06,0.53411
5379.27,0.53677
5373.48,0.53858
5367.7,0.54054
5361.91,0.54110
5356.13,0.54314
5350.34,0.54398
5344.55,0.54360
5338.77,0.54353
5332.98,0.54336
5327.19,0.54355
5321.41,0.54335
5315.62,0.54363
5309.84,0.54357
5304.05,0.54103
5298.26,0.53995
5292.48,0.53529
5286.69,0.53432
5280.9,0.53139
5275.12,0.52855
5269.33,0.52947
5263.55,0.52367
5257.76,0.52384
5251.97,0.52118
5246.19,0.51844
5240.4,0.51714
5234.61,0.51519
5228.83,0.51266
5223.04,0.50961
5217.26,0.50886
5211.47,0.50711
5205.68,0.50332
5199.9,0.50265
5194.11,0.49854
5188.32,0.49672
5182.54,0.49250
5176.75,0.48895
5170.97,0.48619
5165.18,0.48618
5159.39,0.48233
5153.61,0.48010
5147.82,0.47891
5142.03,0.47722
5136.25,0.47540
5130.46,0.47570
5124.68,0.47627
5118.89,0.47500
5113.1,0.47564
5107.32,0.47648
5101.53,0.47978
5095.75,0.47931
5089.96,0.48199
5084.17,0.48313
5078.39,0.48390
5072.6,0.48452
5066.81,0.48780
5061.03,0.48777
5055.24,0.48683
5049.46,0.48895
5043.67,0.48789
5037.88,0.48744
5032.1,0.48532
5026.31,0.48483
5020.52,0.48152
5014.74,0.47728
5008.95,0.47256
5003.17,0.46630
4997.38,0.45777
4991.59,0.44800
4985.81,0.43409
4980.02,0.42189
4974.23,0.41471
4968.45,0.41094
4962.66,0.40657
4956.88,0.40501
4951.09,0.40288
4945.3,0.40363
4939.52,0.40231
4933.73,0.40106
4927.94,0.39782
4922.16,0.39373
4916.37,0.38618
4910.59,0.37423
4904.8,0.36019
4899.01,0.34348
4893.23,0.32776
4887.44,0.31604
4881.65,0.30731
4875.87,0.30076
4870.08,0.29736
4864.3,0.30732
4858.51,0.32241
4852.72,0.34128
4846.94,0.36233
4841.15,0.38195
4835.36,0.39933
4829.58,0.41188
4823.79,0.42219
4818.01,0.42786
4812.22,0.43204
4806.43,0.43209
4800.65,0.43099
4794.86,0.42836
4789.07,0.42808
4783.29,0.42675
4777.5,0.42394
4771.72,0.42380
4765.93,0.42115
4760.14,0.41899
4754.36,0.41451
4748.57,0.41110
4742.78,0.40764
4737,0.40154
4731.21,0.39839
4725.43,0.39335
4719.64,0.38769
4713.85,0.38038
4708.07,0.37326
4702.28,0.36687
4696.49,0.36222
4690.71,0.35906
4684.92,0.35800
4679.14,0.35707
4673.35,0.35714
4667.56,0.35670
4661.78,0.35727
4655.99,0.35796
4650.2,0.35759
4644.42,0.35601
4638.63,0.35122
4632.85,0.34427
4627.06,0.33876
4621.27,0.33254
4615.49,0.32728
4609.7,0.32339
4603.92,0.31908
4598.13,0.31598
4592.34,0.31314
4586.56,0.31031
4580.77,0.30863
4574.98,0.30784
4569.2,0.30772
4563.41,0.31000
4557.63,0.31241
4551.84,0.31607
4546.05,0.32006
4540.27,0.32087
4534.48,0.32144
4528.69,0.32305
4522.91,0.32571
4517.12,0.32836
4511.34,0.33284
4505.55,0.33752
4499.76,0.34150
4493.98,0.34381
4488.19,0.34512
4482.4,0.34537
4476.62,0.34472
4470.83,0.34398
4465.05,0.34337
4459.26,0.34145
4453.47,0.33935
4447.69,0.33435
4441.9,0.32814
4436.11,0.32054
4430.33,0.31275
4424.54,0.30396
4418.76,0.29504
4412.97,0.28489
4407.18,0.27552
4401.4,0.26624
4395.61,0.25624
4389.82,0.24456
4384.04,0.23106
4378.25,0.21817
4372.47,0.20509
4366.68,0.19327
4360.89,0.18600
4355.11,0.18244
4349.32,0.18695
4343.53,0.19646
4337.75,0.20904
4331.96,0.21872
4326.18,0.22379
4320.39,0.22979
4314.6,0.23465
4308.82,0.24007
4303.03,0.24356
4297.24,0.24440
4291.46,0.24083
4285.67,0.23499
4279.89,0.22848
4274.1,0.21988
4268.31,0.21224
4262.53,0.20874
4256.74,0.21044
4250.95,0.21379
4245.17,0.21536
4239.38,0.21502
4233.6,0.21361
4227.81,0.21226
4222.02,0.21124
4216.24,0.21116
4210.45,0.21270
4204.66,0.21454
4198.88,0.21507
4193.09,0.21570
4187.31,0.21666
4181.52,0.21956
4175.73,0.22412
4169.95,0.22926
4164.16,0.23402
4158.37,0.23855
4152.59,0.24221
4146.8,0.24698
4141.02,0.25241
4135.23,0.25607
4129.44,0.25952
4123.66,0.26100
4117.87,0.26147
4112.09,0.25924
4106.3,0.25771
4100.51,0.25898
4094.73,0.26081
4088.94,0.26182
4083.15,0.26260
4077.37,0.26288
4071.58,0.26019
4065.8,0.25721
4060.01,0.25251
4054.22,0.24692
4048.44,0.24295
4042.65,0.24098
4036.86,0.23799
4031.08,0.23418
4025.29,0.23222
4019.51,0.23256
4013.72,0.23390
4007.93,0.23606
4002.15,0.24175
3996.36,0.24898
3990.57,0.25655
3984.79,0.26159
3979,0.26596
3973.22,0.26856
3967.43,0.27278
3961.64,0.27559
3955.86,0.27837
3950.07,0.27915
3944.28,0.28121
3938.5,0.28438
3932.71,0.28810
3926.93,0.29351
3921.14,0.29904
3915.35,0.30302
3909.57,0.30666
3903.78,0.30734
3897.99,0.31001
3892.21,0.31337
3886.42,0.31588
3880.64,0.31924
3874.85,0.32183
3869.06,0.32063
3863.28,0.31720
3857.49,0.30995
3851.7,0.30419
3845.92,0.31213
3840.13,0.31799
3834.35,0.32144
3828.56,0.32343
3822.77,0.32394
3816.99,0.32774
3811.2,0.33339
3805.41,0.33488
3799.63,0.33726
3793.84,0.34042
3788.06,0.34116
3782.27,0.33994
3776.48,0.33918
3770.7,0.33576
3764.91,0.33424
3759.12,0.33370
3753.34,0.33187
3747.55,0.32954
3741.77,0.33179
3735.98,0.33320
3730.19,0.33878
3724.41,0.34074
3718.62,0.34028
3712.83,0.33599
3707.05,0.33182
3701.26,0.32699
3695.48,0.32037
3689.69,0.30721
3683.9,0.29244
3678.12,0.27829
3672.33,0.26967
3666.54,0.26718
3660.76,0.26628
3654.97,0.26038
3649.19,0.25237
3643.4,0.24486
3637.61,0.23379
3631.83,0.22319
3626.04,0.21359
3620.25,0.20524
3614.47,0.19741
3608.68,0.18946
3602.9,0.18281
3597.11,0.17496
3591.32,0.16684
3585.54,0.15877
3579.75,0.15163
3573.97,0.14451
3568.18,0.13571
3562.39,0.12890
3556.61,0.12220
3550.82,0.11504
3545.03,0.10889
3539.25,0.10394
3533.46,0.09779
3527.68,0.09221
3521.89,0.08812
3516.1,0.08331
3510.32,0.07990
3504.53,0.07690
3498.74,0.07393
3492.96,0.07222
3487.17,0.07022
3481.39,0.06899
3475.6,0.06756
3469.81,0.06562
3464.03,0.06394
3458.24,0.06227
3452.45,0.06036
3446.67,0.05842
3440.88,0.05771
3435.1,0.05612
3429.31,0.05444
3423.52,0.05224
3417.74,0.05000
3411.95,0.04763
3406.16,0.04499
3400.38,0.04234
3394.59,0.03946
3388.81,0.03588
3383.02,0.03400
3377.23,0.03176
3371.45,0.02936
3365.66,0.02744
3359.87,0.02607
3354.09,0.02458
3348.3,0.02384
3342.52,0.02296
3336.73,0.02229
3330.94,0.02232
3325.16,0.02048
3319.37,0.02095
3313.58,0.02097
3307.8,0.02175
3302.01,0.02297
3296.23,0.02384
3290.44,0.02369
3284.65,0.02391
3278.87,0.02460
3273.08,0.02389
3267.29,0.02460
3261.51,0.02504
3255.72,0.02446
3249.94,0.02521
3244.15,0.02536
3238.36,0.02681
3232.58,0.02717
3226.79,0.02820
3221,0.02943
3215.22,0.02926
3209.43,0.03015
3203.65,0.03084
3197.86,0.03114
3192.07,0.03304
3186.29,0.03466
3180.5,0.03612
3174.71,0.03833
3168.93,0.04108
3163.14,0.04262
3157.36,0.04398
3151.57,0.04514
3145.78,0.04542
3140,0.04477
3134.21,0.04379
3128.42,0.04286
3122.64,0.04016
3116.85,0.03777
3111.07,0.03534
3105.28,0.03262
3099.49,0.03106
3093.71,0.03010
3087.92,0.02956
3082.14,0.02863
3076.35,0.02978
3070.56,0.03073
3064.78,0.03168
3058.99,0.03454
3053.2,0.03596
3047.42,0.04000
3041.63,0.04451
3035.85,0.04848
3030.06,0.05129
3024.27,0.05353
3018.49,0.05536
3012.7,0.05500
3006.91,0.05448
3001.13,0.05321
2995.34,0.05075
2989.56,0.04571
2983.77,0.03935
2977.98,0.03288
2972.2,0.02758
2966.41,0.02419
2960.62,0.02310
2954.84,0.02273
2949.05,0.02212
2943.27,0.02213
2937.48,0.02267
2931.69,0.02299
2925.91,0.02320
2920.12,0.02463
2914.33,0.02476
2908.55,0.02430
2902.76,0.02509
2896.98,0.02525
2891.19,0.02613
2885.4,0.02625
2879.62,0.02546
2873.83,0.02431
2868.04,0.02380
2862.26,0.02438
2856.47,0.02486
2850.69,0.02650
2844.9,0.02974
2839.11,0.03642
2833.33,0.04331
2827.54,0.04665
2821.75,0.04931
2815.97,0.05390
2810.18,0.05872
2804.4,0.06279
2798.61,0.06631
2792.82,0.06982
2787.04,0.07349
2781.25,0.07711
2775.46,0.08075
2769.68,0.08462
2763.89,0.08687
2758.11,0.08783
2752.32,0.08796
2746.53,0.08712
2740.75,0.08904
2734.96,0.09323
2729.17,0.09708
2723.39,0.10178
2717.6,0.10697
2711.82,0.11113
2706.03,0.11343
2700.24,0.11571
2694.46,0.11891
2688.67,0.12098
2682.88,0.12290
2677.1,0.12553
2671.31,0.12732
2665.53,0.12867
2659.74,0.12852
2653.95,0.12918
2648.17,0.13167
2642.38,0.13439
2636.59,0.13688
2630.81,0.13876
2625.02,0.14028
2619.24,0.14201
2613.45,0.14452
2607.66,0.14672
2601.88,0.14906
2596.09,0.15088
2590.3,0.15122
2584.52,0.15159
2578.73,0.15306
2572.95,0.15573
2567.16,0.15706
2561.37,0.15702
2555.59,0.15629
2549.8,0.15609
2544.02,0.15853
2538.23,0.16243
2532.44,0.16756
2526.66,0.17209
2520.87,0.17747
2515.08,0.18193
2509.3,0.18540
2503.51,0.18707
2497.73,0.18584
2491.94,0.18473
2486.15,0.18305
2480.37,0.18271
2474.58,0.18428
2468.79,0.18738
2463.01,0.19213
2457.22,0.19663
2451.44,0.19992
2445.65,0.20382
2439.86,0.20804
2434.08,0.21132
2428.29,0.21365
2422.5,0.21528
2416.72,0.21624
2410.93,0.21708
2405.15,0.21648
2399.36,0.21668
2393.57,0.21703
2387.79,0.21656
2382,0.21715
2376.21,0.21740
2370.43,0.21736
2364.64,0.21648
2358.86,0.21630
2353.07,0.21863
2347.28,0.21871
2341.5,0.21575
2335.71,0.21446
2329.92,0.21576
2324.14,0.21622
2318.35,0.21673
2312.57,0.21934
2306.78,0.22252
2300.99,0.22495
2295.21,0.22646
2289.42,0.22690
2283.63,0.22868
2277.85,0.22979
2272.06,0.22998
2266.28,0.23112
2260.49,0.23410
2254.7,0.23690
2248.92,0.23869
2243.13,0.24001
2237.34,0.24020
2231.56,0.23876
2225.77,0.23604
2219.99,0.23268
2214.2,0.22882
2208.41,0.22505
2202.63,0.22133
2196.84,0.21703
2191.05,0.21492
2185.27,0.21648
2179.48,0.21983
2173.7,0.22250
2167.91,0.22425
2162.12,0.22595
2156.34,0.22680
2150.55,0.22689
2144.76,0.22698
2138.98,0.22651
2133.19,0.22590
2127.41,0.22563
2121.62,0.22689
2115.83,0.23034
2110.05,0.23410
2104.26,0.23606
2098.47,0.23592
2092.69,0.23410
2086.9,0.23201
2081.12,0.23042
2075.33,0.22875
2069.54,0.22700
2063.76,0.22774
2057.97,0.23178
2052.19,0.23502
2046.4,0.23404
2040.61,0.23122
2034.83,0.23319
2029.04,0.23673
2023.25,0.24027
2017.47,0.24378
2011.68,0.24521
2005.9,0.24703
2000.11,0.24785
1994.32,0.24689
1988.54,0.24439
1982.75,0.24335
1976.96,0.24364
1971.18,0.24473
1965.39,0.24775
1959.61,0.25112
1953.82,0.25257
1948.03,0.25272
1942.25,0.25222
1936.46,0.25221
1930.67,0.25342
1924.89,0.25342
1919.1,0.25074
1913.32,0.24628
1907.53,0.24001
1901.74,0.23631
1895.96,0.23615
1890.17,0.23732
1884.38,0.23897
1878.6,0.23982
1872.81,0.24059
1867.03,0.23940
1861.24,0.23950
1855.45,0.23743
1849.67,0.23318
1843.88,0.22629
1838.09,0.22271
1832.31,0.21913
1826.52,0.21494
1820.74,0.21154
1814.95,0.20681
1809.16,0.20068
1803.38,0.19390
1797.59,0.18654
1791.8,0.17905
1786.02,0.17212
1780.23,0.16343
1774.45,0.15361
1768.66,0.14133
1762.87,0.12753
1757.09,0.11195
1751.3,0.09680
1745.51,0.08066
1739.73,0.06991
1733.94,0.06513
1728.16,0.06365
1722.37,0.06270
1716.58,0.05980
1710.8,0.05664
1705.01,0.05048
1699.22,0.04247
1693.44,0.03342
1687.65,0.02538
1681.87,0.01906
1676.08,0.01689
1670.29,0.01581
1664.51,0.01616
1658.72,0.01760
1652.93,0.02027
1647.15,0.02550
1641.36,0.03146
1635.58,0.03233
1629.79,0.02938
1624,0.02763
1618.22,0.02640
1612.43,0.02571
1606.64,0.02539
1600.86,0.02504
1595.07,0.02400
1589.29,0.02285
1583.5,0.02111
1577.71,0.01953
1571.93,0.01954
1566.14,0.01963
1560.35,0.02076
1554.57,0.02154
1548.78,0.02549
1543,0.03032
1537.21,0.03193
1531.42,0.03078
1525.64,0.03016
1519.85,0.02904
1514.07,0.02874
1508.28,0.02906
1502.49,0.02929
1496.71,0.03064
1490.92,0.03062
1485.13,0.02857
1479.35,0.02648
1473.56,0.02607
1467.78,0.02589
1461.99,0.02609
1456.2,0.02586
1450.42,0.02599
1444.63,0.02613
1438.84,0.02583
1433.06,0.02660
1427.27,0.02729
1421.49,0.02706
1415.7,0.02829
1409.91,0.03034
1404.13,0.03144
1398.34,0.03039
1392.55,0.02872
1386.77,0.02628
1380.98,0.02505
1375.2,0.02484
1369.41,0.02549
1363.62,0.02606
1357.84,0.02684
1352.05,0.02733
1346.26,0.02862
1340.48,0.02944
1334.69,0.02949
1328.91,0.02936
1323.12,0.02951
1317.33,0.02803
1311.55,0.02712
1305.76,0.02673
1299.97,0.02614
1294.19,0.02630
1288.4,0.02625
1282.62,0.02546
1276.83,0.02489
1271.04,0.02522
1265.26,0.02630
1259.47,0.02725
1253.68,0.02805
1247.9,0.02840
1242.11,0.02825
1236.33,0.02836
1230.54,0.03011
1224.75,0.03377
1218.97,0.03088
1213.18,0.02785
1207.39,0.02853
1201.61,0.02930
1195.82,0.03202
1190.04,0.03488
1184.25,0.03637
1178.46,0.03247
1172.68,0.02852
1166.89,0.02987
1161.1,0.03896
1155.32,0.04948
1149.53,0.05922
1143.75,0.06847
1137.96,0.07251
1132.17,0.06356
1126.39,0.04693
1120.6,0.04211
1114.81,0.04670
1109.03,0.05492
1103.24,0.06454
1097.46,0.07152
1091.67,0.07005
1085.88,0.06500
1080.1,0.05980
1074.31,0.06041
1068.52,0.06629
1062.74,0.07368
1056.95,0.08050
1051.17,0.08258
1045.38,0.07720
1039.59,0.07246
1033.81,0.07209
1028.02,0.07388
1022.24,0.08793
1016.45,0.09517
1010.66,0.09645
1004.88,0.09238
999.09,0.08779
993.304,0.08769
987.518,0.08089
981.731,0.07465
975.945,0.06809
970.159,0.07146
964.373,0.07346
958.586,0.07173
952.8,0.08053
947.014,0.09241
941.228,0.09971
935.441,0.08689
929.655,0.06989
923.869,0.08087
918.083,0.09813
912.297,0.10888
906.51,0.11861
900.724,0.12370
894.938,0.12420
889.152,0.12311
883.365,0.12574
877.579,0.12773
871.793,0.12763
866.007,0.12690
860.22,0.12393
854.434,0.12084
848.648,0.11605
842.862,0.10834
837.075,0.09596
831.289,0.09372
825.503,0.09965
819.717,0.09814
813.931,0.09310
808.144,0.08653
802.358,0.07871
796.572,0.07122
790.786,0.06453
784.999,0.05835
779.213,0.05188
773.427,0.04952
767.641,0.04693
761.854,0.04313
756.068,0.03765
750.282,0.03542
744.496,0.03225
738.709,0.03097
732.923,0.02711
727.137,0.02637
721.351,0.02663
715.565,0.02550
709.778,0.02646
703.992,0.02712
698.206,0.02702
692.42,0.02845
686.633,0.03028
680.847,0.03081
675.061,0.03447
669.275,0.03587
663.488,0.04001
657.702,0.04435
651.916,0.04779
646.13,0.04885
640.343,0.04861
634.557,0.04591
628.771,0.04369
622.985,0.04547
617.198,0.04710
611.412,0.04521
605.626,0.04573
599.84,0.04446