File: 01_Data/Nylon_Carpet_Low_Pile/FTIR/IS/Nylon_Carpet_Low_Pile_IS_S_221122_R2.dpt
7497.03,0.73115
7491.25,0.73451
7485.46,0.72103
7479.67,0.72065
7473.89,0.72453
7468.1,0.72952
7462.32,0.71767
7456.53,0.71055
7450.74,0.72172
7444.96,0.71616
7439.17,0.72129
7433.38,0.71988
7427.6,0.72036
7421.81,0.72076
7416.03,0.72350
7410.24,0.72075
7404.45,0.72418
7398.67,0.71336
7392.88,0.71397
7387.09,0.71640
7381.31,0.71399
7375.52,0.71891
7369.74,0.70465
7363.95,0.70527
7358.16,0.70943
7352.38,0.70760
7346.59,0.69792
7340.8,0.69692
7335.02,0.69055
7329.23,0.68625
7323.45,0.68703
7317.66,0.68673
7311.87,0.68748
7306.09,0.67421
7300.3,0.67601
7294.51,0.67364
7288.73,0.67186
7282.94,0.66578
7277.16,0.65198
7271.37,0.66833
7265.58,0.65796
7259.8,0.65258
7254.01,0.65015
7248.22,0.64994
7242.44,0.64174
7236.65,0.63498
7230.87,0.62910
7225.08,0.62591
7219.29,0.62267
7213.51,0.61596
7207.72,0.61864
7201.93,0.61352
7196.15,0.61683
7190.36,0.62409
7184.58,0.62723
7178.79,0.61939
7173,0.62949
7167.22,0.62087
7161.43,0.62816
7155.65,0.62334
7149.86,0.62159
7144.07,0.62979
7138.29,0.62917
7132.5,0.62802
7126.71,0.62257
7120.93,0.62227
7115.14,0.61983
7109.36,0.61798
7103.57,0.61580
7097.78,0.61955
7092,0.61477
7086.21,0.61427
7080.42,0.61067
7074.64,0.61784
7068.85,0.62737
7063.07,0.61600
7057.28,0.62144
7051.49,0.62197
7045.71,0.62790
7039.92,0.62278
7034.13,0.62528
7028.35,0.61643
7022.56,0.62052
7016.78,0.62652
7010.99,0.62084
7005.2,0.62407
6999.42,0.62331
6993.63,0.62846
6987.84,0.63477
6982.06,0.63036
6976.27,0.63739
6970.49,0.63518
6964.7,0.64161
6958.91,0.63418
6953.13,0.63652
6947.34,0.63956
6941.55,0.63938
6935.77,0.63575
6929.98,0.64168
6924.2,0.64271
6918.41,0.64817
6912.62,0.64941
6906.84,0.64441
6901.05,0.64015
6895.26,0.65189
6889.48,0.65083
6883.69,0.64591
6877.91,0.64917
6872.12,0.65660
6866.33,0.65398
6860.55,0.65474
6854.76,0.65958
6848.97,0.66020
6843.19,0.65793
6837.4,0.65548
6831.62,0.65527
6825.83,0.64833
6820.04,0.65685
6814.26,0.65284
6808.47,0.65038
6802.68,0.64883
6796.9,0.64986
6791.11,0.64749
6785.33,0.64572
6779.54,0.64004
6773.75,0.63736
6767.97,0.62978
6762.18,0.62469
6756.39,0.62932
6750.61,0.62388
6744.82,0.62533
6739.04,0.62833
6733.25,0.62090
6727.46,0.62091
6721.68,0.62013
6715.89,0.62061
6710.1,0.62598
6704.32,0.61835
6698.53,0.62286
6692.75,0.61315
6686.96,0.61487
6681.17,0.61325
6675.39,0.61009
6669.6,0.60278
6663.82,0.60350
6658.03,0.60347
6652.24,0.60058
6646.46,0.59348
6640.67,0.58550
6634.88,0.58077
6629.1,0.57495
6623.31,0.56854
6617.53,0.56252
6611.74,0.56527
6605.95,0.56457
6600.17,0.56610
6594.38,0.56064
6588.59,0.56960
6582.81,0.56501
6577.02,0.56165
6571.24,0.55864
6565.45,0.55349
6559.66,0.55504
6553.88,0.55155
6548.09,0.54782
6542.3,0.54920
6536.52,0.54599
6530.73,0.54100
6524.95,0.53706
6519.16,0.53505
6513.37,0.53292
6507.59,0.52484
6501.8,0.52673
6496.01,0.52596
6490.23,0.52836
6484.44,0.52944
6478.66,0.53758
6472.87,0.54230
6467.08,0.55512
6461.3,0.56378
6455.51,0.57346
6449.72,0.57880
6443.94,0.59279
6438.15,0.59622
6432.37,0.59711
6426.58,0.60122
6420.79,0.60001
6415.01,0.59548
6409.22,0.59348
6403.43,0.59218
6397.65,0.59154
6391.86,0.58649
6386.08,0.57989
6380.29,0.57146
6374.5,0.56948
6368.72,0.56731
6362.93,0.56070
6357.14,0.55968
6351.36,0.55680
6345.57,0.55863
6339.79,0.56268
6334,0.56419
6328.21,0.56740
6322.43,0.57275
6316.64,0.57659
6310.85,0.57950
6305.07,0.58374
6299.28,0.58639
6293.5,0.58524
6287.71,0.58758
6281.92,0.58326
6276.14,0.58346
6270.35,0.57529
6264.56,0.57213
6258.78,0.57475
6252.99,0.57398
6247.21,0.57383
6241.42,0.57084
6235.63,0.57434
6229.85,0.57402
6224.06,0.57626
6218.27,0.57815
6212.49,0.58250
6206.7,0.58539
6200.92,0.58622
6195.13,0.58830
6189.34,0.59080
6183.56,0.59549
6177.77,0.59786
6171.98,0.60133
6166.2,0.61020
6160.41,0.61359
6154.63,0.61808
6148.84,0.62370
6143.05,0.62701
6137.27,0.63298
6131.48,0.63587
6125.7,0.63622
6119.91,0.63958
6114.12,0.64531
6108.34,0.63982
6102.55,0.63930
6096.76,0.64188
6090.98,0.64122
6085.19,0.64036
6079.41,0.64014
6073.62,0.63835
6067.83,0.63706
6062.05,0.63530
6056.26,0.63618
6050.47,0.63408
6044.69,0.63588
6038.9,0.63564
6033.12,0.63102
6027.33,0.63097
6021.54,0.62836
6015.76,0.62848
6009.97,0.62669
6004.18,0.62443
5998.4,0.62019
5992.61,0.61942
5986.83,0.62021
5981.04,0.61323
5975.25,0.61003
5969.47,0.60682
5963.68,0.60254
5957.89,0.59801
5952.11,0.59428
5946.32,0.59258
5940.54,0.58722
5934.75,0.58071
5928.96,0.56963
5923.18,0.55832
5917.39,0.54754
5911.6,0.53654
5905.82,0.52257
5900.03,0.50713
5894.25,0.49471
5888.46,0.48586
5882.67,0.47352
5876.89,0.45798
5871.1,0.44870
5865.31,0.43843
5859.53,0.43132
5853.74,0.42306
5847.96,0.41685
5842.17,0.40984
5836.38,0.40513
5830.6,0.40331
5824.81,0.40309
5819.02,0.40535
5813.24,0.40416
5807.45,0.40785
5801.67,0.41178
5795.88,0.41558
5790.09,0.42047
5784.31,0.42660
5778.52,0.42447
5772.73,0.42901
5766.95,0.43332
5761.16,0.43577
5755.38,0.43925
5749.59,0.43955
5743.8,0.43555
5738.02,0.43238
5732.23,0.42746
5726.44,0.42333
5720.66,0.41705
5714.87,0.41461
5709.09,0.41880
5703.3,0.41900
5697.51,0.42075
5691.73,0.42333
5685.94,0.42944
5680.15,0.43153
5674.37,0.43701
5668.58,0.44238
5662.8,0.45196
5657.01,0.45694
5651.22,0.46366
5645.44,0.46860
5639.65,0.47436
5633.87,0.47764
5628.08,0.48204
5622.29,0.48711
5616.51,0.48762
5610.72,0.48999
5604.93,0.49141
5599.15,0.48938
5593.36,0.49232
5587.58,0.49585
5581.79,0.49474
5576,0.49743
5570.22,0.49909
5564.43,0.49940
5558.64,0.50031
5552.86,0.50312
5547.07,0.50133
5541.29,0.50356
5535.5,0.50294
5529.71,0.50460
5523.93,0.50750
5518.14,0.50662
5512.35,0.50684
5506.57,0.50947
5500.78,0.51141
5495,0.51065
5489.21,0.51222
5483.42,0.51491
5477.64,0.51319
5471.85,0.51574
5466.06,0.51372
5460.28,0.51717
5454.49,0.51732
5448.71,0.51783
5442.92,0.51703
5437.13,0.52073
5431.35,0.52193
5425.56,0.52340
5419.77,0.52442
5413.99,0.52715
5408.2,0.52668
5402.42,0.52906
5396.63,0.53183
5390.84,0.53249
5385.06,0.53592
5379.27,0.53732
5373.48,0.54037
5367.7,0.54316
5361.91,0.54557
5356.13,0.54483
5350.34,0.54503
5344.55,0.54494
5338.77,0.54677
5332.98,0.54905
5327.19,0.54693
5321.41,0.54692
5315.62,0.54620
5309.84,0.54551
5304.05,0.54339
5298.26,0.54298
5292.48,0.53782
5286.69,0.53809
5280.9,0.53375
5275.12,0.53292
5269.33,0.53080
5263.55,0.52771
5257.76,0.52620
5251.97,0.52457
5246.19,0.52246
5240.4,0.52214
5234.61,0.51800
5228.83,0.51731
5223.04,0.51671
5217.26,0.51241
5211.47,0.51111
5205.68,0.50729
5199.9,0.50407
5194.11,0.50032
5188.32,0.49817
5182.54,0.49659
5176.75,0.49443
5170.97,0.49207
5165.18,0.48864
5159.39,0.48754
5153.61,0.48448
5147.82,0.48249
5142.03,0.48213
5136.25,0.47987
5130.46,0.47955
5124.68,0.47925
5118.89,0.47975
5113.1,0.47927
5107.32,0.48022
5101.53,0.48249
5095.75,0.48375
5089.96,0.48467
5084.17,0.48602
5078.39,0.48670
5072.6,0.48808
5066.81,0.49017
5061.03,0.49012
5055.24,0.49134
5049.46,0.49097
5043.67,0.49155
5037.88,0.49028
5032.1,0.48995
5026.31,0.48574
5020.52,0.48128
5014.74,0.47945
5008.95,0.47220
5003.17,0.46750
4997.38,0.45926
4991.59,0.44901
4985.81,0.43696
4980.02,0.42411
4974.23,0.41669
4968.45,0.41252
4962.66,0.40982
4956.88,0.40810
4951.09,0.40630
4945.3,0.40562
4939.52,0.40332
4933.73,0.40215
4927.94,0.39944
4922.16,0.39561
4916.37,0.38853
4910.59,0.37574
4904.8,0.36141
4899.01,0.34502
4893.23,0.32941
4887.44,0.31746
4881.65,0.30870
4875.87,0.30085
4870.08,0.29858
4864.3,0.30926
4858.51,0.32514
4852.72,0.34307
4846.94,0.36311
4841.15,0.38285
4835.36,0.40157
4829.58,0.41410
4823.79,0.42414
4818.01,0.43074
4812.22,0.43313
4806.43,0.43280
4800.65,0.43143
4794.86,0.43044
4789.07,0.43096
4783.29,0.42923
4777.5,0.42654
4771.72,0.42417
4765.93,0.42178
4760.14,0.41847
4754.36,0.41552
4748.57,0.41243
4742.78,0.40906
4737,0.40458
4731.21,0.39896
4725.43,0.39549
4719.64,0.38737
4713.85,0.38150
4708.07,0.37416
4702.28,0.36895
4696.49,0.36394
4690.71,0.36025
4684.92,0.35805
4679.14,0.35772
4673.35,0.35832
4667.56,0.35873
4661.78,0.35964
4655.99,0.35982
4650.2,0.35879
4644.42,0.35501
4638.63,0.35220
4632.85,0.34511
4627.06,0.33942
4621.27,0.33395
4615.49,0.32854
4609.7,0.32428
4603.92,0.32018
4598.13,0.31632
4592.34,0.31355
4586.56,0.31136
4580.77,0.31034
4574.98,0.30917
4569.2,0.30935
4563.41,0.31040
4557.63,0.31426
4551.84,0.31630
4546.05,0.32023
4540.27,0.32217
4534.48,0.32263
4528.69,0.32348
4522.91,0.32633
4517.12,0.33062
4511.34,0.33468
4505.55,0.33956
4499.76,0.34253
4493.98,0.34587
4488.19,0.34582
4482.4,0.34569
4476.62,0.34601
4470.83,0.34505
4465.05,0.34476
4459.26,0.34356
4453.47,0.34022
4447.69,0.33532
4441.9,0.32920
4436.11,0.32192
4430.33,0.31448
4424.54,0.30494
4418.76,0.29572
4412.97,0.28593
4407.18,0.27746
4401.4,0.26724
4395.61,0.25722
4389.82,0.24423
4384.04,0.23257
4378.25,0.21871
4372.47,0.20484
4366.68,0.19372
4360.89,0.18600
4355.11,0.18283
4349.32,0.18694
4343.53,0.19718
4337.75,0.20980
4331.96,0.21876
4326.18,0.22484
4320.39,0.23062
4314.6,0.23654
4308.82,0.23992
4303.03,0.24381
4297.24,0.24499
4291.46,0.24249
4285.67,0.23628
4279.89,0.22777
4274.1,0.22070
4268.31,0.21416
4262.53,0.20956
4256.74,0.21076
4250.95,0.21517
4245.17,0.21658
4239.38,0.21495
4233.6,0.21357
4227.81,0.21300
4222.02,0.21171
4216.24,0.21202
4210.45,0.21433
4204.66,0.21488
4198.88,0.21549
4193.09,0.21676
4187.31,0.21681
4181.52,0.22055
4175.73,0.22507
4169.95,0.23025
4164.16,0.23550
4158.37,0.23915
4152.59,0.24364
4146.8,0.24858
4141.02,0.25284
4135.23,0.25629
4129.44,0.25985
4123.66,0.26163
4117.87,0.26207
4112.09,0.26011
4106.3,0.25821
4100.51,0.25905
4094.73,0.26166
4088.94,0.26276
4083.15,0.26411
4077.37,0.26354
4071.58,0.26174
4065.8,0.25855
4060.01,0.25365
4054.22,0.24832
4048.44,0.24446
4042.65,0.24120
4036.86,0.23845
4031.08,0.23526
4025.29,0.23378
4019.51,0.23331
4013.72,0.23543
4007.93,0.23784
4002.15,0.24268
3996.36,0.25025
3990.57,0.25766
3984.79,0.26319
3979,0.26647
3973.22,0.26976
3967.43,0.27324
3961.64,0.27659
3955.86,0.27872
3950.07,0.28042
3944.28,0.28228
3938.5,0.28438
3932.71,0.28912
3926.93,0.29517
3921.14,0.29982
3915.35,0.30437
3909.57,0.30833
3903.78,0.31018
3897.99,0.31281
3892.21,0.31570
3886.42,0.31835
3880.64,0.32155
3874.85,0.32438
3869.06,0.32382
3863.28,0.32017
3857.49,0.31249
3851.7,0.30855
3845.92,0.31499
3840.13,0.32133
3834.35,0.32507
3828.56,0.32635
3822.77,0.32739
3816.99,0.33085
3811.2,0.33502
3805.41,0.33881
3799.63,0.34095
3793.84,0.34200
3788.06,0.34316
3782.27,0.34279
3776.48,0.34084
3770.7,0.33915
3764.91,0.33730
3759.12,0.33629
3753.34,0.33611
3747.55,0.33497
3741.77,0.33611
3735.98,0.33999
3730.19,0.34380
3724.41,0.34572
3718.62,0.34367
3712.83,0.34080
3707.05,0.33537
3701.26,0.33032
3695.48,0.32314
3689.69,0.31316
3683.9,0.29659
3678.12,0.28411
3672.33,0.27612
3666.54,0.27278
3660.76,0.27050
3654.97,0.26641
3649.19,0.25988
3643.4,0.25003
3637.61,0.24004
3631.83,0.22940
3626.04,0.21931
3620.25,0.21172
3614.47,0.20402
3608.68,0.19640
3602.9,0.18900
3597.11,0.18099
3591.32,0.17295
3585.54,0.16537
3579.75,0.15769
3573.97,0.14938
3568.18,0.14293
3562.39,0.13486
3556.61,0.12710
3550.82,0.12089
3545.03,0.11422
3539.25,0.10798
3533.46,0.10228
3527.68,0.09744
3521.89,0.09150
3516.1,0.08731
3510.32,0.08296
3504.53,0.07962
3498.74,0.07763
3492.96,0.07525
3487.17,0.07349
3481.39,0.07153
3475.6,0.07061
3469.81,0.06811
3464.03,0.06719
3458.24,0.06481
3452.45,0.06299
3446.67,0.06068
3440.88,0.05899
3435.1,0.05797
3429.31,0.05646
3423.52,0.05413
3417.74,0.05154
3411.95,0.04882
3406.16,0.04589
3400.38,0.04301
3394.59,0.04088
3388.81,0.03755
3383.02,0.03468
3377.23,0.03183
3371.45,0.02956
3365.66,0.02818
3359.87,0.02640
3354.09,0.02467
3348.3,0.02347
3342.52,0.02244
3336.73,0.02279
3330.94,0.02193
3325.16,0.02047
3319.37,0.02130
3313.58,0.02103
3307.8,0.02128
3302.01,0.02298
3296.23,0.02396
3290.44,0.02414
3284.65,0.02358
3278.87,0.02458
3273.08,0.02415
3267.29,0.02427
3261.51,0.02513
3255.72,0.02531
3249.94,0.02509
3244.15,0.02615
3238.36,0.02748
3232.58,0.02818
3226.79,0.02841
3221,0.02913
3215.22,0.02962
3209.43,0.03025
3203.65,0.03063
3197.86,0.03156
3192.07,0.03252
3186.29,0.03430
3180.5,0.03631
3174.71,0.03820
3168.93,0.04071
3163.14,0.04301
3157.36,0.04504
3151.57,0.04550
3145.78,0.04638
3140,0.04563
3134.21,0.04486
3128.42,0.04262
3122.64,0.04075
3116.85,0.03769
3111.07,0.03445
3105.28,0.03311
3099.49,0.03101
3093.71,0.03015
3087.92,0.02928
3082.14,0.02952
3076.35,0.02936
3070.56,0.03054
3064.78,0.03209
3058.99,0.03370
3053.2,0.03614
3047.42,0.04017
3041.63,0.04474
3035.85,0.04885
3030.06,0.05192
3024.27,0.05394
3018.49,0.05549
3012.7,0.05591
3006.91,0.05506
3001.13,0.05377
2995.34,0.05067
2989.56,0.04581
2983.77,0.03921
2977.98,0.03240
2972.2,0.02724
2966.41,0.02457
2960.62,0.02314
2954.84,0.02243
2949.05,0.02176
2943.27,0.02248
2937.48,0.02247
2931.69,0.02315
2925.91,0.02349
2920.12,0.02405
2914.33,0.02390
2908.55,0.02503
2902.76,0.02458
2896.98,0.02521
2891.19,0.02646
2885.4,0.02594
2879.62,0.02507
2873.83,0.02415
2868.04,0.02393
2862.26,0.02401
2856.47,0.02475
2850.69,0.02608
2844.9,0.03010
2839.11,0.03647
2833.33,0.04245
2827.54,0.04626
2821.75,0.04955
2815.97,0.05388
2810.18,0.05883
2804.4,0.06314
2798.61,0.06662
2792.82,0.06982
2787.04,0.07345
2781.25,0.07736
2775.46,0.08105
2769.68,0.08433
2763.89,0.08748
2758.11,0.08810
2752.32,0.08796
2746.53,0.08724
2740.75,0.08904
2734.96,0.09278
2729.17,0.09729
2723.39,0.10178
2717.6,0.10694
2711.82,0.11116
2706.03,0.11447
2700.24,0.11662
2694.46,0.11871
2688.67,0.12144
2682.88,0.12314
2677.1,0.12547
2671.31,0.12750
2665.53,0.12907
2659.74,0.12887
2653.95,0.12973
2648.17,0.13217
2642.38,0.13467
2636.59,0.13749
2630.81,0.13882
2625.02,0.14025
2619.24,0.14245
2613.45,0.14516
2607.66,0.14747
2601.88,0.14952
2596.09,0.15131
2590.3,0.15222
2584.52,0.15247
2578.73,0.15376
2572.95,0.15621
2567.16,0.15757
2561.37,0.15780
2555.59,0.15721
2549.8,0.15674
2544.02,0.15890
2538.23,0.16337
2532.44,0.16850
2526.66,0.17246
2520.87,0.17777
2515.08,0.18263
2509.3,0.18571
2503.51,0.18763
2497.73,0.18789
2491.94,0.18568
2486.15,0.18442
2480.37,0.18396
2474.58,0.18527
2468.79,0.18827
2463.01,0.19305
2457.22,0.19718
2451.44,0.20072
2445.65,0.20509
2439.86,0.20910
2434.08,0.21194
2428.29,0.21453
2422.5,0.21581
2416.72,0.21721
2410.93,0.21770
2405.15,0.21717
2399.36,0.21767
2393.57,0.21802
2387.79,0.21767
2382,0.21852
2376.21,0.21984
2370.43,0.22145
2364.64,0.22290
2358.86,0.22272
2353.07,0.22325
2347.28,0.22282
2341.5,0.22080
2335.71,0.21944
2329.92,0.21978
2324.14,0.21988
2318.35,0.22032
2312.57,0.22179
2306.78,0.22452
2300.99,0.22661
2295.21,0.22758
2289.42,0.22865
2283.63,0.22983
2277.85,0.23103
2272.06,0.23100
2266.28,0.23244
2260.49,0.23534
2254.7,0.23827
2248.92,0.24019
2243.13,0.24134
2237.34,0.24155
2231.56,0.24026
2225.77,0.23778
2219.99,0.23440
2214.2,0.23052
2208.41,0.22668
2202.63,0.22287
2196.84,0.21868
2191.05,0.21661
2185.27,0.21844
2179.48,0.22158
2173.7,0.22387
2167.91,0.22555
2162.12,0.22748
2156.34,0.22863
2150.55,0.22888
2144.76,0.22859
2138.98,0.22878
2133.19,0.22785
2127.41,0.22728
2121.62,0.22892
2115.83,0.23240
2110.05,0.23575
2104.26,0.23801
2098.47,0.23775
2092.69,0.23580
2086.9,0.23359
2081.12,0.23168
2075.33,0.22966
2069.54,0.22823
2063.76,0.22937
2057.97,0.23315
2052.19,0.23673
2046.4,0.23506
2040.61,0.23254
2034.83,0.23451
2029.04,0.23799
2023.25,0.24162
2017.47,0.24488
2011.68,0.24682
2005.9,0.24834
2000.11,0.24920
1994.32,0.24856
1988.54,0.24606
1982.75,0.24503
1976.96,0.24489
1971.18,0.24605
1965.39,0.24917
1959.61,0.25238
1953.82,0.25410
1948.03,0.25427
1942.25,0.25335
1936.46,0.25346
1930.67,0.25465
1924.89,0.25478
1919.1,0.25273
1913.32,0.24712
1907.53,0.24119
1901.74,0.23696
1895.96,0.23723
1890.17,0.23849
1884.38,0.24012
1878.6,0.24101
1872.81,0.24166
1867.03,0.24139
1861.24,0.24077
1855.45,0.23836
1849.67,0.23448
1843.88,0.22878
1838.09,0.22356
1832.31,0.22052
1826.52,0.21683
1820.74,0.21262
1814.95,0.20782
1809.16,0.20226
1803.38,0.19568
1797.59,0.18791
1791.8,0.18069
1786.02,0.17313
1780.23,0.16458
1774.45,0.15518
1768.66,0.14215
1762.87,0.12881
1757.09,0.11292
1751.3,0.09745
1745.51,0.08086
1739.73,0.07003
1733.94,0.06548
1728.16,0.06390
1722.37,0.06264
1716.58,0.06086
1710.8,0.05668
1705.01,0.05109
1699.22,0.04317
1693.44,0.03353
1687.65,0.02537
1681.87,0.01915
1676.08,0.01684
1670.29,0.01594
1664.51,0.01614
1658.72,0.01730
1652.93,0.02094
1647.15,0.02599
1641.36,0.03189
1635.58,0.03214
1629.79,0.02946
1624,0.02728
1618.22,0.02630
1612.43,0.02566
1606.64,0.02570
1600.86,0.02533
1595.07,0.02463
1589.29,0.02293
1583.5,0.02137
1577.71,0.01972
1571.93,0.01952
1566.14,0.02032
1560.35,0.02033
1554.57,0.02148
1548.78,0.02580
1543,0.03101
1537.21,0.03235
1531.42,0.03133
1525.64,0.03063
1519.85,0.02942
1514.07,0.02937
1508.28,0.02941
1502.49,0.02927
1496.71,0.03054
1490.92,0.03078
1485.13,0.02870
1479.35,0.02589
1473.56,0.02606
1467.78,0.02549
1461.99,0.02536
1456.2,0.02606
1450.42,0.02577
1444.63,0.02579
1438.84,0.02614
1433.06,0.02628
1427.27,0.02740
1421.49,0.02772
1415.7,0.02815
1409.91,0.03014
1404.13,0.03170
1398.34,0.03096
1392.55,0.02795
1386.77,0.02652
1380.98,0.02473
1375.2,0.02509
1369.41,0.02537
1363.62,0.02595
1357.84,0.02682
1352.05,0.02738
1346.26,0.02847
1340.48,0.02935
1334.69,0.02928
1328.91,0.02955
1323.12,0.02959
1317.33,0.02826
1311.55,0.02725
1305.76,0.02617
1299.97,0.02605
1294.19,0.02628
1288.4,0.02602
1282.62,0.02517
1276.83,0.02466
1271.04,0.02489
1265.26,0.02593
1259.47,0.02717
1253.68,0.02813
1247.9,0.02813
1242.11,0.02806
1236.33,0.02824
1230.54,0.03019
1224.75,0.03348
1218.97,0.03074
1213.18,0.02825
1207.39,0.02843
1201.61,0.02946
1195.82,0.03237
1190.04,0.03492
1184.25,0.03704
1178.46,0.03269
1172.68,0.02818
1166.89,0.02975
1161.1,0.03884
1155.32,0.04997
1149.53,0.06025
1143.75,0.06855
1137.96,0.07231
1132.17,0.06328
1126.39,0.04699
1120.6,0.04178
1114.81,0.04679
1109.03,0.05536
1103.24,0.06533
1097.46,0.07207
1091.67,0.06988
1085.88,0.06518
1080.1,0.05996
1074.31,0.06101
1068.52,0.06750
1062.74,0.07319
1056.95,0.08094
1051.17,0.08269
1045.38,0.07677
1039.59,0.07297
1033.81,0.07269
1028.02,0.07483
1022.24,0.08864
1016.45,0.09543
1010.66,0.09684
1004.88,0.09265
999.09,0.08879
993.304,0.08742
987.518,0.08172
981.731,0.07507
975.945,0.06875
970.159,0.07179
964.373,0.07341
958.586,0.07149
952.8,0.08038
947.014,0.09262
941.228,0.10033
935.441,0.08770
929.655,0.07042
923.869,0.08145
918.083,0.09921
912.297,0.11010
906.51,0.11912
900.724,0.12375
894.938,0.12404
889.152,0.12409
883.365,0.12655
877.579,0.12777
871.793,0.12795
866.007,0.12754
860.22,0.12498
854.434,0.12189
848.648,0.11656
842.862,0.10905
837.075,0.09689
831.289,0.09414
825.503,0.10092
819.717,0.09971
813.931,0.09419
808.144,0.08813
802.358,0.07982
796.572,0.07195
790.786,0.06580
784.999,0.05861
779.213,0.05317
773.427,0.05030
767.641,0.04669
761.854,0.04392
756.068,0.03871
750.282,0.03492
744.496,0.03252
738.709,0.02991
732.923,0.02751
727.137,0.02785
721.351,0.02739
715.565,0.02593
709.778,0.02510
703.992,0.02745
698.206,0.02687
692.42,0.02802
686.633,0.02907
680.847,0.03130
675.061,0.03400
669.275,0.03628
663.488,0.03999
657.702,0.04297
651.916,0.04523
646.13,0.04733
640.343,0.04786
634.557,0.04799
628.771,0.04451
622.985,0.04365
617.198,0.04484
611.412,0.04956
605.626,0.04710
599.84,0.04286