File: 01_Data/Nylon_Carpet_Low_Pile/FTIR/IS/Nylon_Carpet_Low_Pile_IS_S_221122_R5.dpt
7497.03,0.72824
7491.25,0.73036
7485.46,0.72284
7479.67,0.72196
7473.89,0.71844
7468.1,0.72402
7462.32,0.72188
7456.53,0.72302
7450.74,0.73044
7444.96,0.72518
7439.17,0.71707
7433.38,0.71217
7427.6,0.72501
7421.81,0.71896
7416.03,0.72503
7410.24,0.71627
7404.45,0.70930
7398.67,0.71581
7392.88,0.71628
7387.09,0.71544
7381.31,0.72390
7375.52,0.71668
7369.74,0.70381
7363.95,0.70825
7358.16,0.70693
7352.38,0.71192
7346.59,0.69552
7340.8,0.70609
7335.02,0.70170
7329.23,0.68879
7323.45,0.69891
7317.66,0.68814
7311.87,0.69850
7306.09,0.68319
7300.3,0.68237
7294.51,0.67324
7288.73,0.66410
7282.94,0.66483
7277.16,0.65926
7271.37,0.64680
7265.58,0.64736
7259.8,0.64354
7254.01,0.63806
7248.22,0.63366
7242.44,0.62908
7236.65,0.62419
7230.87,0.63536
7225.08,0.63120
7219.29,0.62725
7213.51,0.62159
7207.72,0.61767
7201.93,0.63105
7196.15,0.62624
7190.36,0.62501
7184.58,0.62417
7178.79,0.62548
7173,0.63210
7167.22,0.62591
7161.43,0.62351
7155.65,0.62580
7149.86,0.62639
7144.07,0.62320
7138.29,0.62599
7132.5,0.62378
7126.71,0.61985
7120.93,0.62385
7115.14,0.61545
7109.36,0.61734
7103.57,0.62288
7097.78,0.61883
7092,0.61776
7086.21,0.62105
7080.42,0.61209
7074.64,0.61813
7068.85,0.61547
7063.07,0.62171
7057.28,0.61289
7051.49,0.62274
7045.71,0.62552
7039.92,0.62298
7034.13,0.62218
7028.35,0.62577
7022.56,0.62034
7016.78,0.63046
7010.99,0.61935
7005.2,0.62371
6999.42,0.62951
6993.63,0.62963
6987.84,0.63155
6982.06,0.63887
6976.27,0.63144
6970.49,0.63025
6964.7,0.63786
6958.91,0.64151
6953.13,0.63607
6947.34,0.63961
6941.55,0.63805
6935.77,0.64655
6929.98,0.64263
6924.2,0.64297
6918.41,0.64658
6912.62,0.64601
6906.84,0.64917
6901.05,0.64605
6895.26,0.65545
6889.48,0.64967
6883.69,0.65411
6877.91,0.65331
6872.12,0.65328
6866.33,0.64735
6860.55,0.64982
6854.76,0.64875
6848.97,0.65389
6843.19,0.65482
6837.4,0.65489
6831.62,0.65682
6825.83,0.65285
6820.04,0.65380
6814.26,0.65604
6808.47,0.65834
6802.68,0.65022
6796.9,0.65135
6791.11,0.64480
6785.33,0.64393
6779.54,0.64046
6773.75,0.63698
6767.97,0.62999
6762.18,0.63008
6756.39,0.62523
6750.61,0.63046
6744.82,0.62835
6739.04,0.62064
6733.25,0.62417
6727.46,0.62733
6721.68,0.62470
6715.89,0.62524
6710.1,0.62397
6704.32,0.61893
6698.53,0.61777
6692.75,0.61501
6686.96,0.61974
6681.17,0.60944
6675.39,0.60873
6669.6,0.60618
6663.82,0.60597
6658.03,0.59975
6652.24,0.59260
6646.46,0.58949
6640.67,0.58236
6634.88,0.57827
6629.1,0.57788
6623.31,0.56896
6617.53,0.56490
6611.74,0.56571
6605.95,0.56184
6600.17,0.56283
6594.38,0.56380
6588.59,0.56618
6582.81,0.56431
6577.02,0.56057
6571.24,0.56173
6565.45,0.55912
6559.66,0.55618
6553.88,0.55843
6548.09,0.55047
6542.3,0.54906
6536.52,0.53970
6530.73,0.53763
6524.95,0.53592
6519.16,0.53449
6513.37,0.52647
6507.59,0.52897
6501.8,0.52516
6496.01,0.52849
6490.23,0.53007
6484.44,0.53115
6478.66,0.53901
6472.87,0.54342
6467.08,0.55663
6461.3,0.56672
6455.51,0.57616
6449.72,0.57698
6443.94,0.58854
6438.15,0.59314
6432.37,0.59264
6426.58,0.59810
6420.79,0.59836
6415.01,0.59752
6409.22,0.59563
6403.43,0.59401
6397.65,0.58388
6391.86,0.58586
6386.08,0.57940
6380.29,0.57376
6374.5,0.56682
6368.72,0.56559
6362.93,0.55914
6357.14,0.56035
6351.36,0.55649
6345.57,0.56033
6339.79,0.56449
6334,0.56500
6328.21,0.56731
6322.43,0.57424
6316.64,0.58005
6310.85,0.57816
6305.07,0.58397
6299.28,0.58594
6293.5,0.58760
6287.71,0.58746
6281.92,0.58670
6276.14,0.58164
6270.35,0.58029
6264.56,0.57315
6258.78,0.57117
6252.99,0.57080
6247.21,0.57497
6241.42,0.57524
6235.63,0.57291
6229.85,0.57640
6224.06,0.57733
6218.27,0.57773
6212.49,0.57904
6206.7,0.58122
6200.92,0.58319
6195.13,0.58900
6189.34,0.59094
6183.56,0.59425
6177.77,0.59844
6171.98,0.60144
6166.2,0.60882
6160.41,0.61151
6154.63,0.61772
6148.84,0.62319
6143.05,0.62660
6137.27,0.62999
6131.48,0.63528
6125.7,0.63409
6119.91,0.63884
6114.12,0.64118
6108.34,0.63685
6102.55,0.63819
6096.76,0.64300
6090.98,0.64529
6085.19,0.64186
6079.41,0.63882
6073.62,0.63812
6067.83,0.63787
6062.05,0.63622
6056.26,0.63309
6050.47,0.63448
6044.69,0.63343
6038.9,0.63000
6033.12,0.63472
6027.33,0.63206
6021.54,0.62911
6015.76,0.63038
6009.97,0.62425
6004.18,0.62180
5998.4,0.62157
5992.61,0.61588
5986.83,0.61616
5981.04,0.61443
5975.25,0.61215
5969.47,0.60936
5963.68,0.60534
5957.89,0.60160
5952.11,0.59552
5946.32,0.59096
5940.54,0.58463
5934.75,0.57700
5928.96,0.56850
5923.18,0.55743
5917.39,0.54703
5911.6,0.53559
5905.82,0.52380
5900.03,0.50866
5894.25,0.49647
5888.46,0.48101
5882.67,0.46930
5876.89,0.46266
5871.1,0.44747
5865.31,0.43877
5859.53,0.43205
5853.74,0.42564
5847.96,0.41649
5842.17,0.40967
5836.38,0.40551
5830.6,0.40400
5824.81,0.40068
5819.02,0.40344
5813.24,0.40521
5807.45,0.40884
5801.67,0.41196
5795.88,0.41513
5790.09,0.42156
5784.31,0.42444
5778.52,0.42741
5772.73,0.43070
5766.95,0.43504
5761.16,0.43676
5755.38,0.43690
5749.59,0.43539
5743.8,0.43352
5738.02,0.43107
5732.23,0.42592
5726.44,0.42253
5720.66,0.41997
5714.87,0.41895
5709.09,0.41679
5703.3,0.41905
5697.51,0.42150
5691.73,0.42579
5685.94,0.42888
5680.15,0.43129
5674.37,0.43662
5668.58,0.44353
5662.8,0.44879
5657.01,0.45756
5651.22,0.46236
5645.44,0.46872
5639.65,0.47107
5633.87,0.47606
5628.08,0.48054
5622.29,0.48485
5616.51,0.48979
5610.72,0.49083
5604.93,0.49179
5599.15,0.49367
5593.36,0.49375
5587.58,0.49326
5581.79,0.49488
5576,0.49774
5570.22,0.49803
5564.43,0.49993
5558.64,0.50196
5552.86,0.50167
5547.07,0.50163
5541.29,0.50377
5535.5,0.50323
5529.71,0.50282
5523.93,0.50441
5518.14,0.50686
5512.35,0.50680
5506.57,0.51004
5500.78,0.51060
5495,0.51183
5489.21,0.51119
5483.42,0.51236
5477.64,0.51368
5471.85,0.51357
5466.06,0.51746
5460.28,0.51473
5454.49,0.51655
5448.71,0.51645
5442.92,0.51824
5437.13,0.51840
5431.35,0.52107
5425.56,0.52432
5419.77,0.52363
5413.99,0.52448
5408.2,0.52683
5402.42,0.52931
5396.63,0.53145
5390.84,0.53267
5385.06,0.53503
5379.27,0.53735
5373.48,0.53869
5367.7,0.54128
5361.91,0.54178
5356.13,0.54389
5350.34,0.54513
5344.55,0.54808
5338.77,0.54912
5332.98,0.54682
5327.19,0.54643
5321.41,0.54665
5315.62,0.54700
5309.84,0.54515
5304.05,0.54401
5298.26,0.54342
5292.48,0.54016
5286.69,0.53701
5280.9,0.53537
5275.12,0.53402
5269.33,0.53197
5263.55,0.53040
5257.76,0.52647
5251.97,0.52601
5246.19,0.52471
5240.4,0.52313
5234.61,0.52105
5228.83,0.51755
5223.04,0.51656
5217.26,0.51528
5211.47,0.51457
5205.68,0.51029
5199.9,0.50680
5194.11,0.50584
5188.32,0.50258
5182.54,0.49910
5176.75,0.49731
5170.97,0.49563
5165.18,0.49334
5159.39,0.48998
5153.61,0.48776
5147.82,0.48643
5142.03,0.48591
5136.25,0.48530
5130.46,0.48303
5124.68,0.48305
5118.89,0.48243
5113.1,0.48227
5107.32,0.48299
5101.53,0.48260
5095.75,0.48620
5089.96,0.48808
5084.17,0.48821
5078.39,0.48947
5072.6,0.49162
5066.81,0.49194
5061.03,0.49092
5055.24,0.49236
5049.46,0.49298
5043.67,0.49068
5037.88,0.49136
5032.1,0.48950
5026.31,0.48688
5020.52,0.48550
5014.74,0.48141
5008.95,0.47573
5003.17,0.46853
4997.38,0.45980
4991.59,0.44903
4985.81,0.43589
4980.02,0.42470
4974.23,0.41603
4968.45,0.41170
4962.66,0.40840
4956.88,0.40778
4951.09,0.40605
4945.3,0.40436
4939.52,0.40409
4933.73,0.40247
4927.94,0.40005
4922.16,0.39459
4916.37,0.38705
4910.59,0.37450
4904.8,0.36122
4899.01,0.34524
4893.23,0.32868
4887.44,0.31742
4881.65,0.30830
4875.87,0.30035
4870.08,0.29854
4864.3,0.30787
4858.51,0.32419
4852.72,0.34153
4846.94,0.36265
4841.15,0.38227
4835.36,0.40082
4829.58,0.41204
4823.79,0.42343
4818.01,0.43070
4812.22,0.43278
4806.43,0.43354
4800.65,0.43248
4794.86,0.43114
4789.07,0.42882
4783.29,0.42867
4777.5,0.42726
4771.72,0.42577
4765.93,0.42281
4760.14,0.41950
4754.36,0.41682
4748.57,0.41359
4742.78,0.40880
4737,0.40409
4731.21,0.40000
4725.43,0.39469
4719.64,0.38862
4713.85,0.38140
4708.07,0.37548
4702.28,0.36837
4696.49,0.36379
4690.71,0.36062
4684.92,0.35791
4679.14,0.35803
4673.35,0.35876
4667.56,0.35848
4661.78,0.35861
4655.99,0.35927
4650.2,0.35831
4644.42,0.35653
4638.63,0.35273
4632.85,0.34698
4627.06,0.34017
4621.27,0.33368
4615.49,0.32884
4609.7,0.32413
4603.92,0.31988
4598.13,0.31651
4592.34,0.31334
4586.56,0.31160
4580.77,0.30941
4574.98,0.30811
4569.2,0.30948
4563.41,0.31115
4557.63,0.31376
4551.84,0.31835
4546.05,0.32011
4540.27,0.32142
4534.48,0.32238
4528.69,0.32423
4522.91,0.32608
4517.12,0.32918
4511.34,0.33334
4505.55,0.33801
4499.76,0.34223
4493.98,0.34484
4488.19,0.34595
4482.4,0.34661
4476.62,0.34561
4470.83,0.34401
4465.05,0.34407
4459.26,0.34324
4453.47,0.34023
4447.69,0.33416
4441.9,0.32815
4436.11,0.32145
4430.33,0.31303
4424.54,0.30359
4418.76,0.29514
4412.97,0.28583
4407.18,0.27679
4401.4,0.26806
4395.61,0.25677
4389.82,0.24463
4384.04,0.23131
4378.25,0.21838
4372.47,0.20535
4366.68,0.19413
4360.89,0.18652
4355.11,0.18172
4349.32,0.18668
4343.53,0.19634
4337.75,0.20917
4331.96,0.21905
4326.18,0.22415
4320.39,0.22981
4314.6,0.23512
4308.82,0.23899
4303.03,0.24384
4297.24,0.24531
4291.46,0.24189
4285.67,0.23608
4279.89,0.22901
4274.1,0.22051
4268.31,0.21315
4262.53,0.20935
4256.74,0.21059
4250.95,0.21478
4245.17,0.21689
4239.38,0.21586
4233.6,0.21373
4227.81,0.21165
4222.02,0.21259
4216.24,0.21257
4210.45,0.21350
4204.66,0.21562
4198.88,0.21615
4193.09,0.21661
4187.31,0.21745
4181.52,0.21938
4175.73,0.22472
4169.95,0.23039
4164.16,0.23512
4158.37,0.23912
4152.59,0.24224
4146.8,0.24745
4141.02,0.25310
4135.23,0.25662
4129.44,0.26000
4123.66,0.26179
4117.87,0.26150
4112.09,0.26039
4106.3,0.25893
4100.51,0.25965
4094.73,0.26103
4088.94,0.26313
4083.15,0.26374
4077.37,0.26291
4071.58,0.26213
4065.8,0.25797
4060.01,0.25328
4054.22,0.24805
4048.44,0.24429
4042.65,0.24079
4036.86,0.23781
4031.08,0.23461
4025.29,0.23319
4019.51,0.23381
4013.72,0.23496
4007.93,0.23701
4002.15,0.24294
3996.36,0.25043
3990.57,0.25666
3984.79,0.26254
3979,0.26620
3973.22,0.26889
3967.43,0.27301
3961.64,0.27698
3955.86,0.27868
3950.07,0.28037
3944.28,0.28278
3938.5,0.28528
3932.71,0.28963
3926.93,0.29561
3921.14,0.30040
3915.35,0.30482
3909.57,0.30787
3903.78,0.31048
3897.99,0.31314
3892.21,0.31558
3886.42,0.31871
3880.64,0.32211
3874.85,0.32438
3869.06,0.32421
3863.28,0.31993
3857.49,0.31218
3851.7,0.30922
3845.92,0.31443
3840.13,0.32180
3834.35,0.32488
3828.56,0.32547
3822.77,0.32823
3816.99,0.33119
3811.2,0.33562
3805.41,0.33847
3799.63,0.34078
3793.84,0.34286
3788.06,0.34333
3782.27,0.34236
3776.48,0.34071
3770.7,0.33915
3764.91,0.33749
3759.12,0.33709
3753.34,0.33600
3747.55,0.33508
3741.77,0.33642
3735.98,0.34048
3730.19,0.34438
3724.41,0.34653
3718.62,0.34509
3712.83,0.34166
3707.05,0.33715
3701.26,0.33181
3695.48,0.32418
3689.69,0.31478
3683.9,0.29978
3678.12,0.28720
3672.33,0.28028
3666.54,0.27626
3660.76,0.27447
3654.97,0.27085
3649.19,0.26465
3643.4,0.25561
3637.61,0.24463
3631.83,0.23429
3626.04,0.22461
3620.25,0.21702
3614.47,0.20969
3608.68,0.20210
3602.9,0.19428
3597.11,0.18667
3591.32,0.17857
3585.54,0.17037
3579.75,0.16342
3573.97,0.15554
3568.18,0.14844
3562.39,0.14108
3556.61,0.13304
3550.82,0.12728
3545.03,0.12047
3539.25,0.11333
3533.46,0.10667
3527.68,0.10181
3521.89,0.09629
3516.1,0.09225
3510.32,0.08696
3504.53,0.08440
3498.74,0.08189
3492.96,0.07960
3487.17,0.07686
3481.39,0.07579
3475.6,0.07366
3469.81,0.07185
3464.03,0.06994
3458.24,0.06719
3452.45,0.06522
3446.67,0.06390
3440.88,0.06245
3435.1,0.06058
3429.31,0.05867
3423.52,0.05598
3417.74,0.05265
3411.95,0.05052
3406.16,0.04737
3400.38,0.04413
3394.59,0.04083
3388.81,0.03816
3383.02,0.03514
3377.23,0.03216
3371.45,0.03013
3365.66,0.02800
3359.87,0.02618
3354.09,0.02532
3348.3,0.02332
3342.52,0.02223
3336.73,0.02256
3330.94,0.02156
3325.16,0.02069
3319.37,0.02089
3313.58,0.02151
3307.8,0.02118
3302.01,0.02217
3296.23,0.02356
3290.44,0.02365
3284.65,0.02395
3278.87,0.02480
3273.08,0.02429
3267.29,0.02466
3261.51,0.02506
3255.72,0.02576
3249.94,0.02592
3244.15,0.02635
3238.36,0.02715
3232.58,0.02807
3226.79,0.02878
3221,0.02963
3215.22,0.03050
3209.43,0.03068
3203.65,0.03069
3197.86,0.03194
3192.07,0.03384
3186.29,0.03468
3180.5,0.03649
3174.71,0.03922
3168.93,0.04118
3163.14,0.04357
3157.36,0.04495
3151.57,0.04615
3145.78,0.04648
3140,0.04567
3134.21,0.04493
3128.42,0.04372
3122.64,0.04070
3116.85,0.03778
3111.07,0.03531
3105.28,0.03293
3099.49,0.03096
3093.71,0.02981
3087.92,0.02945
3082.14,0.02961
3076.35,0.02999
3070.56,0.03070
3064.78,0.03161
3058.99,0.03389
3053.2,0.03701
3047.42,0.04060
3041.63,0.04483
3035.85,0.04864
3030.06,0.05197
3024.27,0.05439
3018.49,0.05551
3012.7,0.05597
3006.91,0.05570
3001.13,0.05353
2995.34,0.05051
2989.56,0.04570
2983.77,0.03924
2977.98,0.03340
2972.2,0.02828
2966.41,0.02448
2960.62,0.02309
2954.84,0.02217
2949.05,0.02227
2943.27,0.02260
2937.48,0.02242
2931.69,0.02290
2925.91,0.02334
2920.12,0.02412
2914.33,0.02465
2908.55,0.02474
2902.76,0.02457
2896.98,0.02530
2891.19,0.02632
2885.4,0.02597
2879.62,0.02452
2873.83,0.02418
2868.04,0.02371
2862.26,0.02416
2856.47,0.02509
2850.69,0.02606
2844.9,0.02959
2839.11,0.03675
2833.33,0.04270
2827.54,0.04703
2821.75,0.05019
2815.97,0.05374
2810.18,0.05927
2804.4,0.06293
2798.61,0.06630
2792.82,0.06986
2787.04,0.07356
2781.25,0.07744
2775.46,0.08115
2769.68,0.08447
2763.89,0.08741
2758.11,0.08852
2752.32,0.08802
2746.53,0.08779
2740.75,0.08952
2734.96,0.09287
2729.17,0.09691
2723.39,0.10173
2717.6,0.10669
2711.82,0.11086
2706.03,0.11386
2700.24,0.11616
2694.46,0.11874
2688.67,0.12149
2682.88,0.12337
2677.1,0.12556
2671.31,0.12735
2665.53,0.12859
2659.74,0.12901
2653.95,0.12943
2648.17,0.13168
2642.38,0.13469
2636.59,0.13754
2630.81,0.13906
2625.02,0.14051
2619.24,0.14268
2613.45,0.14534
2607.66,0.14723
2601.88,0.14971
2596.09,0.15123
2590.3,0.15252
2584.52,0.15264
2578.73,0.15365
2572.95,0.15584
2567.16,0.15721
2561.37,0.15794
2555.59,0.15718
2549.8,0.15725
2544.02,0.15847
2538.23,0.16342
2532.44,0.16818
2526.66,0.17277
2520.87,0.17802
2515.08,0.18297
2509.3,0.18564
2503.51,0.18748
2497.73,0.18734
2491.94,0.18597
2486.15,0.18412
2480.37,0.18414
2474.58,0.18493
2468.79,0.18845
2463.01,0.19325
2457.22,0.19763
2451.44,0.20114
2445.65,0.20495
2439.86,0.20874
2434.08,0.21192
2428.29,0.21442
2422.5,0.21586
2416.72,0.21731
2410.93,0.21779
2405.15,0.21702
2399.36,0.21745
2393.57,0.21790
2387.79,0.21772
2382,0.21933
2376.21,0.22235
2370.43,0.22641
2364.64,0.22914
2358.86,0.22985
2353.07,0.22807
2347.28,0.22640
2341.5,0.22600
2335.71,0.22462
2329.92,0.22487
2324.14,0.22376
2318.35,0.22299
2312.57,0.22423
2306.78,0.22605
2300.99,0.22759
2295.21,0.22823
2289.42,0.22897
2283.63,0.23048
2277.85,0.23158
2272.06,0.23132
2266.28,0.23294
2260.49,0.23584
2254.7,0.23894
2248.92,0.24052
2243.13,0.24142
2237.34,0.24218
2231.56,0.24126
2225.77,0.23836
2219.99,0.23544
2214.2,0.23123
2208.41,0.22722
2202.63,0.22379
2196.84,0.21935
2191.05,0.21726
2185.27,0.21941
2179.48,0.22252
2173.7,0.22538
2167.91,0.22708
2162.12,0.22866
2156.34,0.22969
2150.55,0.22992
2144.76,0.22991
2138.98,0.22987
2133.19,0.22856
2127.41,0.22864
2121.62,0.22990
2115.83,0.23319
2110.05,0.23691
2104.26,0.23886
2098.47,0.23837
2092.69,0.23679
2086.9,0.23470
2081.12,0.23280
2075.33,0.23077
2069.54,0.22872
2063.76,0.22960
2057.97,0.23401
2052.19,0.23719
2046.4,0.23579
2040.61,0.23303
2034.83,0.23503
2029.04,0.23880
2023.25,0.24215
2017.47,0.24530
2011.68,0.24717
2005.9,0.24866
2000.11,0.24988
1994.32,0.24909
1988.54,0.24635
1982.75,0.24523
1976.96,0.24543
1971.18,0.24616
1965.39,0.24933
1959.61,0.25258
1953.82,0.25423
1948.03,0.25459
1942.25,0.25352
1936.46,0.25345
1930.67,0.25467
1924.89,0.25508
1919.1,0.25256
1913.32,0.24775
1907.53,0.24113
1901.74,0.23766
1895.96,0.23728
1890.17,0.23863
1884.38,0.24027
1878.6,0.24154
1872.81,0.24185
1867.03,0.24193
1861.24,0.24090
1855.45,0.23856
1849.67,0.23432
1843.88,0.22877
1838.09,0.22395
1832.31,0.22062
1826.52,0.21660
1820.74,0.21243
1814.95,0.20778
1809.16,0.20247
1803.38,0.19546
1797.59,0.18816
1791.8,0.18046
1786.02,0.17305
1780.23,0.16452
1774.45,0.15540
1768.66,0.14227
1762.87,0.12870
1757.09,0.11319
1751.3,0.09715
1745.51,0.08114
1739.73,0.07015
1733.94,0.06515
1728.16,0.06374
1722.37,0.06276
1716.58,0.06075
1710.8,0.05663
1705.01,0.05149
1699.22,0.04341
1693.44,0.03332
1687.65,0.02566
1681.87,0.01893
1676.08,0.01703
1670.29,0.01571
1664.51,0.01636
1658.72,0.01739
1652.93,0.02050
1647.15,0.02602
1641.36,0.03167
1635.58,0.03242
1629.79,0.02920
1624,0.02740
1618.22,0.02634
1612.43,0.02539
1606.64,0.02568
1600.86,0.02534
1595.07,0.02438
1589.29,0.02296
1583.5,0.02143
1577.71,0.01994
1571.93,0.01944
1566.14,0.01985
1560.35,0.02136
1554.57,0.02120
1548.78,0.02541
1543,0.03098
1537.21,0.03222
1531.42,0.03129
1525.64,0.03027
1519.85,0.02947
1514.07,0.02890
1508.28,0.02953
1502.49,0.02947
1496.71,0.03013
1490.92,0.03084
1485.13,0.02862
1479.35,0.02590
1473.56,0.02621
1467.78,0.02578
1461.99,0.02583
1456.2,0.02593
1450.42,0.02600
1444.63,0.02604
1438.84,0.02580
1433.06,0.02677
1427.27,0.02748
1421.49,0.02744
1415.7,0.02803
1409.91,0.03023
1404.13,0.03156
1398.34,0.03051
1392.55,0.02818
1386.77,0.02655
1380.98,0.02506
1375.2,0.02508
1369.41,0.02517
1363.62,0.02602
1357.84,0.02675
1352.05,0.02747
1346.26,0.02842
1340.48,0.02930
1334.69,0.02963
1328.91,0.02957
1323.12,0.02926
1317.33,0.02806
1311.55,0.02679
1305.76,0.02618
1299.97,0.02607
1294.19,0.02659
1288.4,0.02668
1282.62,0.02524
1276.83,0.02486
1271.04,0.02490
1265.26,0.02627
1259.47,0.02728
1253.68,0.02805
1247.9,0.02850
1242.11,0.02786
1236.33,0.02844
1230.54,0.03010
1224.75,0.03299
1218.97,0.03070
1213.18,0.02820
1207.39,0.02840
1201.61,0.02886
1195.82,0.03235
1190.04,0.03475
1184.25,0.03646
1178.46,0.03321
1172.68,0.02809
1166.89,0.02989
1161.1,0.03861
1155.32,0.04966
1149.53,0.05988
1143.75,0.06884
1137.96,0.07233
1132.17,0.06379
1126.39,0.04668
1120.6,0.04158
1114.81,0.04681
1109.03,0.05531
1103.24,0.06623
1097.46,0.07129
1091.67,0.07037
1085.88,0.06510
1080.1,0.06063
1074.31,0.06117
1068.52,0.06721
1062.74,0.07367
1056.95,0.08086
1051.17,0.08256
1045.38,0.07673
1039.59,0.07298
1033.81,0.07267
1028.02,0.07481
1022.24,0.08855
1016.45,0.09630
1010.66,0.09717
1004.88,0.09307
999.09,0.08936
993.304,0.08805
987.518,0.08122
981.731,0.07554
975.945,0.06804
970.159,0.07186
964.373,0.07348
958.586,0.07171
952.8,0.08100
947.014,0.09241
941.228,0.10028
935.441,0.08768
929.655,0.06976
923.869,0.08189
918.083,0.09909
912.297,0.10968
906.51,0.11927
900.724,0.12513
894.938,0.12503
889.152,0.12468
883.365,0.12595
877.579,0.12813
871.793,0.12823
866.007,0.12723
860.22,0.12574
854.434,0.12192
848.648,0.11722
842.862,0.10970
837.075,0.09699
831.289,0.09589
825.503,0.10203
819.717,0.10001
813.931,0.09537
808.144,0.08811
802.358,0.08053
796.572,0.07311
790.786,0.06585
784.999,0.05911
779.213,0.05344
773.427,0.05007
767.641,0.04670
761.854,0.04338
756.068,0.03806
750.282,0.03500
744.496,0.03337
738.709,0.03143
732.923,0.02803
727.137,0.02790
721.351,0.02772
715.565,0.02595
709.778,0.02652
703.992,0.02699
698.206,0.02734
692.42,0.02869
686.633,0.03007
680.847,0.03066
675.061,0.03414
669.275,0.03863
663.488,0.04100
657.702,0.04507
651.916,0.04687
646.13,0.04954
640.343,0.04870
634.557,0.04692
628.771,0.04480
622.985,0.04387
617.198,0.04664
611.412,0.04685
605.626,0.04755
599.84,0.04491