File: 01_Data/Nylon_Carpet_Low_Pile/FTIR/IS/Nylon_Carpet_Low_Pile_IS_S_221122_R6.dpt
7497.03,0.73709
7491.25,0.72761
7485.46,0.72281
7479.67,0.72631
7473.89,0.73516
7468.1,0.72027
7462.32,0.72359
7456.53,0.72960
7450.74,0.72410
7444.96,0.73224
7439.17,0.71653
7433.38,0.71573
7427.6,0.73093
7421.81,0.72794
7416.03,0.72895
7410.24,0.71071
7404.45,0.71806
7398.67,0.71871
7392.88,0.70916
7387.09,0.71658
7381.31,0.70880
7375.52,0.71673
7369.74,0.70999
7363.95,0.71167
7358.16,0.71317
7352.38,0.70832
7346.59,0.70718
7340.8,0.70306
7335.02,0.69814
7329.23,0.69974
7323.45,0.68564
7317.66,0.67642
7311.87,0.67594
7306.09,0.67835
7300.3,0.67097
7294.51,0.67568
7288.73,0.66639
7282.94,0.66046
7277.16,0.65914
7271.37,0.65633
7265.58,0.65029
7259.8,0.65068
7254.01,0.64188
7248.22,0.63600
7242.44,0.63415
7236.65,0.63265
7230.87,0.62712
7225.08,0.62882
7219.29,0.62901
7213.51,0.62560
7207.72,0.62604
7201.93,0.61754
7196.15,0.62145
7190.36,0.62122
7184.58,0.63241
7178.79,0.63059
7173,0.63483
7167.22,0.63251
7161.43,0.62966
7155.65,0.62846
7149.86,0.62881
7144.07,0.63037
7138.29,0.62940
7132.5,0.63394
7126.71,0.62533
7120.93,0.62669
7115.14,0.61370
7109.36,0.61067
7103.57,0.61626
7097.78,0.61424
7092,0.61775
7086.21,0.61387
7080.42,0.61903
7074.64,0.62191
7068.85,0.62247
7063.07,0.62238
7057.28,0.61499
7051.49,0.62831
7045.71,0.62327
7039.92,0.63269
7034.13,0.62399
7028.35,0.62791
7022.56,0.62288
7016.78,0.62584
7010.99,0.62635
7005.2,0.62527
6999.42,0.62340
6993.63,0.62997
6987.84,0.62404
6982.06,0.63318
6976.27,0.63583
6970.49,0.62975
6964.7,0.63359
6958.91,0.63607
6953.13,0.63383
6947.34,0.63698
6941.55,0.64022
6935.77,0.64590
6929.98,0.64239
6924.2,0.64365
6918.41,0.64610
6912.62,0.65017
6906.84,0.64536
6901.05,0.63926
6895.26,0.64973
6889.48,0.64945
6883.69,0.65387
6877.91,0.65539
6872.12,0.64514
6866.33,0.65098
6860.55,0.65038
6854.76,0.66038
6848.97,0.66054
6843.19,0.65570
6837.4,0.65533
6831.62,0.65196
6825.83,0.65637
6820.04,0.66208
6814.26,0.66523
6808.47,0.65676
6802.68,0.64918
6796.9,0.65556
6791.11,0.64654
6785.33,0.64290
6779.54,0.63459
6773.75,0.64176
6767.97,0.63795
6762.18,0.63483
6756.39,0.62182
6750.61,0.62281
6744.82,0.61936
6739.04,0.63098
6733.25,0.62655
6727.46,0.62655
6721.68,0.62479
6715.89,0.62652
6710.1,0.62210
6704.32,0.61845
6698.53,0.62090
6692.75,0.61799
6686.96,0.61723
6681.17,0.61649
6675.39,0.61117
6669.6,0.60313
6663.82,0.60586
6658.03,0.60180
6652.24,0.59546
6646.46,0.59523
6640.67,0.58916
6634.88,0.58626
6629.1,0.57831
6623.31,0.57402
6617.53,0.57236
6611.74,0.56768
6605.95,0.57212
6600.17,0.57140
6594.38,0.56328
6588.59,0.56931
6582.81,0.56117
6577.02,0.56161
6571.24,0.56140
6565.45,0.56015
6559.66,0.55229
6553.88,0.55451
6548.09,0.55320
6542.3,0.54862
6536.52,0.54742
6530.73,0.53788
6524.95,0.53434
6519.16,0.53410
6513.37,0.52975
6507.59,0.52764
6501.8,0.52822
6496.01,0.53601
6490.23,0.53082
6484.44,0.53679
6478.66,0.54163
6472.87,0.54644
6467.08,0.55528
6461.3,0.56645
6455.51,0.57423
6449.72,0.58617
6443.94,0.59449
6438.15,0.59647
6432.37,0.59812
6426.58,0.59881
6420.79,0.59636
6415.01,0.59904
6409.22,0.59445
6403.43,0.59235
6397.65,0.58794
6391.86,0.58514
6386.08,0.57584
6380.29,0.57349
6374.5,0.56928
6368.72,0.56249
6362.93,0.56677
6357.14,0.56517
6351.36,0.56470
6345.57,0.56197
6339.79,0.56174
6334,0.56504
6328.21,0.57034
6322.43,0.57042
6316.64,0.57956
6310.85,0.58322
6305.07,0.58403
6299.28,0.58656
6293.5,0.58742
6287.71,0.58722
6281.92,0.58731
6276.14,0.58161
6270.35,0.58052
6264.56,0.57316
6258.78,0.57559
6252.99,0.57348
6247.21,0.57696
6241.42,0.57522
6235.63,0.57385
6229.85,0.57381
6224.06,0.57484
6218.27,0.57708
6212.49,0.58058
6206.7,0.58412
6200.92,0.58405
6195.13,0.58497
6189.34,0.59167
6183.56,0.59434
6177.77,0.59973
6171.98,0.60068
6166.2,0.61110
6160.41,0.61420
6154.63,0.62106
6148.84,0.62569
6143.05,0.62958
6137.27,0.63171
6131.48,0.63359
6125.7,0.63560
6119.91,0.63951
6114.12,0.64063
6108.34,0.64325
6102.55,0.64171
6096.76,0.64403
6090.98,0.63963
6085.19,0.64067
6079.41,0.64149
6073.62,0.63940
6067.83,0.63928
6062.05,0.63730
6056.26,0.63664
6050.47,0.63514
6044.69,0.63283
6038.9,0.63201
6033.12,0.63288
6027.33,0.63051
6021.54,0.63095
6015.76,0.63032
6009.97,0.62713
6004.18,0.62311
5998.4,0.62304
5992.61,0.62267
5986.83,0.62076
5981.04,0.61554
5975.25,0.60899
5969.47,0.60787
5963.68,0.60492
5957.89,0.60092
5952.11,0.59749
5946.32,0.59297
5940.54,0.58801
5934.75,0.58004
5928.96,0.56957
5923.18,0.55869
5917.39,0.54872
5911.6,0.53724
5905.82,0.52240
5900.03,0.50962
5894.25,0.49484
5888.46,0.48355
5882.67,0.47127
5876.89,0.46109
5871.1,0.44945
5865.31,0.44091
5859.53,0.43077
5853.74,0.42325
5847.96,0.41642
5842.17,0.41244
5836.38,0.40462
5830.6,0.40454
5824.81,0.40213
5819.02,0.40356
5813.24,0.40638
5807.45,0.40825
5801.67,0.41061
5795.88,0.41637
5790.09,0.41988
5784.31,0.42436
5778.52,0.42893
5772.73,0.42932
5766.95,0.43442
5761.16,0.43924
5755.38,0.43791
5749.59,0.43777
5743.8,0.43357
5738.02,0.42957
5732.23,0.42707
5726.44,0.42438
5720.66,0.42107
5714.87,0.41658
5709.09,0.41686
5703.3,0.42012
5697.51,0.42264
5691.73,0.42526
5685.94,0.42879
5680.15,0.43377
5674.37,0.43658
5668.58,0.44536
5662.8,0.45014
5657.01,0.45926
5651.22,0.46415
5645.44,0.46620
5639.65,0.47464
5633.87,0.47763
5628.08,0.48202
5622.29,0.48448
5616.51,0.48888
5610.72,0.49131
5604.93,0.49312
5599.15,0.49273
5593.36,0.49573
5587.58,0.49477
5581.79,0.49666
5576,0.49852
5570.22,0.49784
5564.43,0.49873
5558.64,0.50011
5552.86,0.50354
5547.07,0.50315
5541.29,0.50101
5535.5,0.50330
5529.71,0.50242
5523.93,0.50426
5518.14,0.50802
5512.35,0.50885
5506.57,0.51057
5500.78,0.51296
5495,0.51144
5489.21,0.51202
5483.42,0.51443
5477.64,0.51289
5471.85,0.51594
5466.06,0.51494
5460.28,0.51747
5454.49,0.51675
5448.71,0.51635
5442.92,0.51842
5437.13,0.51910
5431.35,0.52190
5425.56,0.52327
5419.77,0.52558
5413.99,0.52774
5408.2,0.52598
5402.42,0.52902
5396.63,0.53202
5390.84,0.53350
5385.06,0.53704
5379.27,0.53940
5373.48,0.54152
5367.7,0.54245
5361.91,0.54470
5356.13,0.54589
5350.34,0.54744
5344.55,0.54807
5338.77,0.54796
5332.98,0.54646
5327.19,0.54871
5321.41,0.54727
5315.62,0.54751
5309.84,0.54916
5304.05,0.54520
5298.26,0.54333
5292.48,0.54149
5286.69,0.53925
5280.9,0.53665
5275.12,0.53571
5269.33,0.53230
5263.55,0.53114
5257.76,0.52959
5251.97,0.52824
5246.19,0.52424
5240.4,0.52333
5234.61,0.52088
5228.83,0.52048
5223.04,0.51884
5217.26,0.51502
5211.47,0.51354
5205.68,0.51039
5199.9,0.50802
5194.11,0.50754
5188.32,0.50340
5182.54,0.50173
5176.75,0.49950
5170.97,0.49555
5165.18,0.49437
5159.39,0.49102
5153.61,0.48941
5147.82,0.48763
5142.03,0.48531
5136.25,0.48464
5130.46,0.48479
5124.68,0.48380
5118.89,0.48422
5113.1,0.48415
5107.32,0.48502
5101.53,0.48483
5095.75,0.48690
5089.96,0.48864
5084.17,0.49039
5078.39,0.49082
5072.6,0.49287
5066.81,0.49289
5061.03,0.49220
5055.24,0.49456
5049.46,0.49427
5043.67,0.49294
5037.88,0.49434
5032.1,0.49217
5026.31,0.48911
5020.52,0.48502
5014.74,0.48155
5008.95,0.47594
5003.17,0.46885
4997.38,0.46024
4991.59,0.45075
4985.81,0.43798
4980.02,0.42533
4974.23,0.41803
4968.45,0.41257
4962.66,0.40959
4956.88,0.40680
4951.09,0.40718
4945.3,0.40510
4939.52,0.40399
4933.73,0.40135
4927.94,0.39962
4922.16,0.39552
4916.37,0.38733
4910.59,0.37667
4904.8,0.36189
4899.01,0.34517
4893.23,0.32880
4887.44,0.31723
4881.65,0.30921
4875.87,0.30060
4870.08,0.29973
4864.3,0.30731
4858.51,0.32412
4852.72,0.34252
4846.94,0.36349
4841.15,0.38314
4835.36,0.40122
4829.58,0.41539
4823.79,0.42510
4818.01,0.43175
4812.22,0.43418
4806.43,0.43433
4800.65,0.43296
4794.86,0.43168
4789.07,0.42969
4783.29,0.42882
4777.5,0.42792
4771.72,0.42481
4765.93,0.42165
4760.14,0.42022
4754.36,0.41727
4748.57,0.41275
4742.78,0.40862
4737,0.40473
4731.21,0.40142
4725.43,0.39496
4719.64,0.38906
4713.85,0.38230
4708.07,0.37563
4702.28,0.36967
4696.49,0.36419
4690.71,0.36173
4684.92,0.35946
4679.14,0.35854
4673.35,0.35918
4667.56,0.35907
4661.78,0.35875
4655.99,0.35958
4650.2,0.35924
4644.42,0.35674
4638.63,0.35152
4632.85,0.34641
4627.06,0.34021
4621.27,0.33425
4615.49,0.32914
4609.7,0.32472
4603.92,0.32053
4598.13,0.31730
4592.34,0.31414
4586.56,0.31143
4580.77,0.30949
4574.98,0.30906
4569.2,0.30994
4563.41,0.31131
4557.63,0.31309
4551.84,0.31729
4546.05,0.32065
4540.27,0.32194
4534.48,0.32325
4528.69,0.32354
4522.91,0.32633
4517.12,0.33034
4511.34,0.33439
4505.55,0.33876
4499.76,0.34353
4493.98,0.34580
4488.19,0.34652
4482.4,0.34621
4476.62,0.34533
4470.83,0.34461
4465.05,0.34450
4459.26,0.34480
4453.47,0.34034
4447.69,0.33561
4441.9,0.32920
4436.11,0.32193
4430.33,0.31386
4424.54,0.30481
4418.76,0.29532
4412.97,0.28616
4407.18,0.27705
4401.4,0.26787
4395.61,0.25723
4389.82,0.24475
4384.04,0.23205
4378.25,0.21916
4372.47,0.20561
4366.68,0.19379
4360.89,0.18561
4355.11,0.18282
4349.32,0.18749
4343.53,0.19744
4337.75,0.20968
4331.96,0.21952
4326.18,0.22415
4320.39,0.23013
4314.6,0.23554
4308.82,0.24088
4303.03,0.24382
4297.24,0.24502
4291.46,0.24198
4285.67,0.23622
4279.89,0.22810
4274.1,0.22090
4268.31,0.21286
4262.53,0.20880
4256.74,0.21132
4250.95,0.21561
4245.17,0.21709
4239.38,0.21520
4233.6,0.21270
4227.81,0.21292
4222.02,0.21232
4216.24,0.21279
4210.45,0.21287
4204.66,0.21517
4198.88,0.21676
4193.09,0.21673
4187.31,0.21703
4181.52,0.22035
4175.73,0.22550
4169.95,0.23055
4164.16,0.23469
4158.37,0.23868
4152.59,0.24278
4146.8,0.24768
4141.02,0.25317
4135.23,0.25683
4129.44,0.26050
4123.66,0.26199
4117.87,0.26169
4112.09,0.26102
4106.3,0.26008
4100.51,0.25953
4094.73,0.26144
4088.94,0.26314
4083.15,0.26457
4077.37,0.26392
4071.58,0.26142
4065.8,0.25873
4060.01,0.25387
4054.22,0.24887
4048.44,0.24436
4042.65,0.24196
4036.86,0.23830
4031.08,0.23487
4025.29,0.23337
4019.51,0.23374
4013.72,0.23607
4007.93,0.23796
4002.15,0.24251
3996.36,0.24943
3990.57,0.25758
3984.79,0.26292
3979,0.26635
3973.22,0.27019
3967.43,0.27330
3961.64,0.27744
3955.86,0.27922
3950.07,0.28040
3944.28,0.28206
3938.5,0.28512
3932.71,0.28967
3926.93,0.29471
3921.14,0.30099
3915.35,0.30484
3909.57,0.30795
3903.78,0.31021
3897.99,0.31331
3892.21,0.31604
3886.42,0.31850
3880.64,0.32169
3874.85,0.32478
3869.06,0.32382
3863.28,0.32015
3857.49,0.31300
3851.7,0.30900
3845.92,0.31454
3840.13,0.32203
3834.35,0.32539
3828.56,0.32651
3822.77,0.32786
3816.99,0.33110
3811.2,0.33513
3805.41,0.33890
3799.63,0.34152
3793.84,0.34291
3788.06,0.34377
3782.27,0.34293
3776.48,0.34167
3770.7,0.33964
3764.91,0.33829
3759.12,0.33711
3753.34,0.33641
3747.55,0.33581
3741.77,0.33666
3735.98,0.33991
3730.19,0.34409
3724.41,0.34609
3718.62,0.34542
3712.83,0.34185
3707.05,0.33769
3701.26,0.33208
3695.48,0.32480
3689.69,0.31479
3683.9,0.30085
3678.12,0.28862
3672.33,0.28112
3666.54,0.27767
3660.76,0.27579
3654.97,0.27228
3649.19,0.26550
3643.4,0.25697
3637.61,0.24636
3631.83,0.23571
3626.04,0.22560
3620.25,0.21817
3614.47,0.21160
3608.68,0.20380
3602.9,0.19562
3597.11,0.18857
3591.32,0.18094
3585.54,0.17307
3579.75,0.16526
3573.97,0.15720
3568.18,0.14999
3562.39,0.14268
3556.61,0.13534
3550.82,0.12815
3545.03,0.12124
3539.25,0.11453
3533.46,0.10842
3527.68,0.10337
3521.89,0.09808
3516.1,0.09303
3510.32,0.08966
3504.53,0.08585
3498.74,0.08232
3492.96,0.08067
3487.17,0.07900
3481.39,0.07628
3475.6,0.07526
3469.81,0.07342
3464.03,0.07044
3458.24,0.06848
3452.45,0.06584
3446.67,0.06433
3440.88,0.06346
3435.1,0.06213
3429.31,0.05881
3423.52,0.05572
3417.74,0.05375
3411.95,0.05055
3406.16,0.04818
3400.38,0.04506
3394.59,0.04098
3388.81,0.03833
3383.02,0.03491
3377.23,0.03245
3371.45,0.03003
3365.66,0.02748
3359.87,0.02617
3354.09,0.02496
3348.3,0.02283
3342.52,0.02260
3336.73,0.02213
3330.94,0.02185
3325.16,0.02154
3319.37,0.02190
3313.58,0.02126
3307.8,0.02147
3302.01,0.02264
3296.23,0.02392
3290.44,0.02442
3284.65,0.02440
3278.87,0.02425
3273.08,0.02472
3267.29,0.02462
3261.51,0.02489
3255.72,0.02493
3249.94,0.02560
3244.15,0.02659
3238.36,0.02653
3232.58,0.02774
3226.79,0.02852
3221,0.02959
3215.22,0.03085
3209.43,0.03178
3203.65,0.03105
3197.86,0.03247
3192.07,0.03304
3186.29,0.03487
3180.5,0.03706
3174.71,0.03900
3168.93,0.04149
3163.14,0.04296
3157.36,0.04470
3151.57,0.04616
3145.78,0.04668
3140,0.04628
3134.21,0.04558
3128.42,0.04344
3122.64,0.04090
3116.85,0.03817
3111.07,0.03542
3105.28,0.03262
3099.49,0.03083
3093.71,0.02970
3087.92,0.02939
3082.14,0.02963
3076.35,0.02986
3070.56,0.03078
3064.78,0.03246
3058.99,0.03408
3053.2,0.03685
3047.42,0.04061
3041.63,0.04502
3035.85,0.04917
3030.06,0.05250
3024.27,0.05430
3018.49,0.05550
3012.7,0.05576
3006.91,0.05479
3001.13,0.05335
2995.34,0.05137
2989.56,0.04604
2983.77,0.03955
2977.98,0.03289
2972.2,0.02720
2966.41,0.02431
2960.62,0.02279
2954.84,0.02178
2949.05,0.02188
2943.27,0.02218
2937.48,0.02221
2931.69,0.02220
2925.91,0.02337
2920.12,0.02388
2914.33,0.02481
2908.55,0.02481
2902.76,0.02508
2896.98,0.02566
2891.19,0.02602
2885.4,0.02615
2879.62,0.02530
2873.83,0.02416
2868.04,0.02440
2862.26,0.02477
2856.47,0.02472
2850.69,0.02582
2844.9,0.03011
2839.11,0.03706
2833.33,0.04290
2827.54,0.04643
2821.75,0.04960
2815.97,0.05415
2810.18,0.05894
2804.4,0.06343
2798.61,0.06643
2792.82,0.06996
2787.04,0.07347
2781.25,0.07745
2775.46,0.08141
2769.68,0.08440
2763.89,0.08701
2758.11,0.08830
2752.32,0.08799
2746.53,0.08775
2740.75,0.08929
2734.96,0.09317
2729.17,0.09720
2723.39,0.10214
2717.6,0.10679
2711.82,0.11127
2706.03,0.11437
2700.24,0.11623
2694.46,0.11891
2688.67,0.12170
2682.88,0.12380
2677.1,0.12616
2671.31,0.12798
2665.53,0.12906
2659.74,0.12897
2653.95,0.12951
2648.17,0.13214
2642.38,0.13533
2636.59,0.13736
2630.81,0.13880
2625.02,0.14065
2619.24,0.14292
2613.45,0.14537
2607.66,0.14755
2601.88,0.14975
2596.09,0.15171
2590.3,0.15216
2584.52,0.15233
2578.73,0.15415
2572.95,0.15626
2567.16,0.15769
2561.37,0.15786
2555.59,0.15724
2549.8,0.15685
2544.02,0.15940
2538.23,0.16381
2532.44,0.16846
2526.66,0.17317
2520.87,0.17843
2515.08,0.18303
2509.3,0.18597
2503.51,0.18816
2497.73,0.18734
2491.94,0.18590
2486.15,0.18434
2480.37,0.18395
2474.58,0.18508
2468.79,0.18843
2463.01,0.19357
2457.22,0.19780
2451.44,0.20143
2445.65,0.20532
2439.86,0.20950
2434.08,0.21201
2428.29,0.21440
2422.5,0.21597
2416.72,0.21775
2410.93,0.21809
2405.15,0.21719
2399.36,0.21810
2393.57,0.21828
2387.79,0.21794
2382,0.21854
2376.21,0.21909
2370.43,0.21902
2364.64,0.22014
2358.86,0.22045
2353.07,0.22097
2347.28,0.22154
2341.5,0.21923
2335.71,0.21784
2329.92,0.21775
2324.14,0.21860
2318.35,0.21961
2312.57,0.22212
2306.78,0.22467
2300.99,0.22659
2295.21,0.22812
2289.42,0.22898
2283.63,0.23111
2277.85,0.23163
2272.06,0.23192
2266.28,0.23335
2260.49,0.23660
2254.7,0.23919
2248.92,0.24145
2243.13,0.24257
2237.34,0.24266
2231.56,0.24175
2225.77,0.23917
2219.99,0.23610
2214.2,0.23159
2208.41,0.22781
2202.63,0.22439
2196.84,0.22010
2191.05,0.21776
2185.27,0.22002
2179.48,0.22305
2173.7,0.22579
2167.91,0.22733
2162.12,0.22929
2156.34,0.23014
2150.55,0.23049
2144.76,0.23047
2138.98,0.23018
2133.19,0.22954
2127.41,0.22887
2121.62,0.23018
2115.83,0.23334
2110.05,0.23701
2104.26,0.23902
2098.47,0.23891
2092.69,0.23734
2086.9,0.23528
2081.12,0.23296
2075.33,0.23090
2069.54,0.22942
2063.76,0.23035
2057.97,0.23412
2052.19,0.23767
2046.4,0.23643
2040.61,0.23321
2034.83,0.23532
2029.04,0.23871
2023.25,0.24198
2017.47,0.24545
2011.68,0.24737
2005.9,0.24901
2000.11,0.25026
1994.32,0.24963
1988.54,0.24668
1982.75,0.24549
1976.96,0.24559
1971.18,0.24665
1965.39,0.24999
1959.61,0.25286
1953.82,0.25440
1948.03,0.25434
1942.25,0.25399
1936.46,0.25420
1930.67,0.25526
1924.89,0.25546
1919.1,0.25284
1913.32,0.24764
1907.53,0.24180
1901.74,0.23791
1895.96,0.23772
1890.17,0.23926
1884.38,0.24082
1878.6,0.24165
1872.81,0.24238
1867.03,0.24207
1861.24,0.24121
1855.45,0.23898
1849.67,0.23491
1843.88,0.22910
1838.09,0.22401
1832.31,0.22043
1826.52,0.21713
1820.74,0.21245
1814.95,0.20783
1809.16,0.20229
1803.38,0.19545
1797.59,0.18791
1791.8,0.18035
1786.02,0.17327
1780.23,0.16447
1774.45,0.15498
1768.66,0.14237
1762.87,0.12880
1757.09,0.11308
1751.3,0.09751
1745.51,0.08070
1739.73,0.07014
1733.94,0.06549
1728.16,0.06372
1722.37,0.06271
1716.58,0.06085
1710.8,0.05660
1705.01,0.05134
1699.22,0.04363
1693.44,0.03390
1687.65,0.02534
1681.87,0.01923
1676.08,0.01718
1670.29,0.01590
1664.51,0.01638
1658.72,0.01748
1652.93,0.02071
1647.15,0.02598
1641.36,0.03211
1635.58,0.03281
1629.79,0.02964
1624,0.02756
1618.22,0.02663
1612.43,0.02547
1606.64,0.02478
1600.86,0.02499
1595.07,0.02445
1589.29,0.02296
1583.5,0.02127
1577.71,0.02027
1571.93,0.01950
1566.14,0.01986
1560.35,0.02084
1554.57,0.02160
1548.78,0.02573
1543,0.03063
1537.21,0.03240
1531.42,0.03119
1525.64,0.02998
1519.85,0.02918
1514.07,0.02916
1508.28,0.02962
1502.49,0.02959
1496.71,0.03042
1490.92,0.03040
1485.13,0.02863
1479.35,0.02615
1473.56,0.02621
1467.78,0.02571
1461.99,0.02583
1456.2,0.02609
1450.42,0.02631
1444.63,0.02637
1438.84,0.02614
1433.06,0.02647
1427.27,0.02781
1421.49,0.02760
1415.7,0.02802
1409.91,0.03045
1404.13,0.03171
1398.34,0.03113
1392.55,0.02850
1386.77,0.02686
1380.98,0.02495
1375.2,0.02501
1369.41,0.02537
1363.62,0.02640
1357.84,0.02693
1352.05,0.02805
1346.26,0.02845
1340.48,0.02959
1334.69,0.02972
1328.91,0.02974
1323.12,0.02951
1317.33,0.02820
1311.55,0.02696
1305.76,0.02602
1299.97,0.02621
1294.19,0.02651
1288.4,0.02656
1282.62,0.02561
1276.83,0.02504
1271.04,0.02492
1265.26,0.02633
1259.47,0.02727
1253.68,0.02794
1247.9,0.02835
1242.11,0.02789
1236.33,0.02845
1230.54,0.03005
1224.75,0.03295
1218.97,0.03125
1213.18,0.02761
1207.39,0.02800
1201.61,0.02918
1195.82,0.03199
1190.04,0.03483
1184.25,0.03634
1178.46,0.03286
1172.68,0.02824
1166.89,0.03010
1161.1,0.03855
1155.32,0.04951
1149.53,0.05998
1143.75,0.06875
1137.96,0.07271
1132.17,0.06419
1126.39,0.04687
1120.6,0.04161
1114.81,0.04673
1109.03,0.05521
1103.24,0.06504
1097.46,0.07123
1091.67,0.07020
1085.88,0.06523
1080.1,0.06083
1074.31,0.06162
1068.52,0.06752
1062.74,0.07379
1056.95,0.08082
1051.17,0.08229
1045.38,0.07703
1039.59,0.07289
1033.81,0.07269
1028.02,0.07481
1022.24,0.08865
1016.45,0.09622
1010.66,0.09705
1004.88,0.09359
999.09,0.08854
993.304,0.08882
987.518,0.08200
981.731,0.07512
975.945,0.06847
970.159,0.07180
964.373,0.07392
958.586,0.07161
952.8,0.08099
947.014,0.09238
941.228,0.10082
935.441,0.08751
929.655,0.07017
923.869,0.08115
918.083,0.09874
912.297,0.11020
906.51,0.11982
900.724,0.12439
894.938,0.12490
889.152,0.12538
883.365,0.12705
877.579,0.12806
871.793,0.12828
866.007,0.12782
860.22,0.12570
854.434,0.12240
848.648,0.11704
842.862,0.10980
837.075,0.09691
831.289,0.09466
825.503,0.10110
819.717,0.10002
813.931,0.09584
808.144,0.08851
802.358,0.08055
796.572,0.07299
790.786,0.06581
784.999,0.05926
779.213,0.05286
773.427,0.05033
767.641,0.04758
761.854,0.04361
756.068,0.03891
750.282,0.03485
744.496,0.03327
738.709,0.03001
732.923,0.02733
727.137,0.02724
721.351,0.02730
715.565,0.02604
709.778,0.02584
703.992,0.02706
698.206,0.02697
692.42,0.02762
686.633,0.02924
680.847,0.03015
675.061,0.03350
669.275,0.03681
663.488,0.04052
657.702,0.04279
651.916,0.04652
646.13,0.04935
640.343,0.04662
634.557,0.04682
628.771,0.04345
622.985,0.04442
617.198,0.04567
611.412,0.04543
605.626,0.04627
599.84,0.04414