File: 01_Data/Nylon_Carpet_Low_Pile/FTIR/IS/Nylon_Carpet_Low_Pile_IS_S_221122_R3.dpt
7497.03,0.71721
7491.25,0.73837
7485.46,0.72389
7479.67,0.72271
7473.89,0.73368
7468.1,0.71792
7462.32,0.71848
7456.53,0.72241
7450.74,0.72552
7444.96,0.72124
7439.17,0.72370
7433.38,0.71920
7427.6,0.72257
7421.81,0.72920
7416.03,0.72004
7410.24,0.71338
7404.45,0.72125
7398.67,0.71557
7392.88,0.71013
7387.09,0.71452
7381.31,0.71115
7375.52,0.72211
7369.74,0.70130
7363.95,0.71040
7358.16,0.69771
7352.38,0.70558
7346.59,0.70794
7340.8,0.69965
7335.02,0.70037
7329.23,0.70266
7323.45,0.68780
7317.66,0.68277
7311.87,0.68454
7306.09,0.68353
7300.3,0.67890
7294.51,0.67201
7288.73,0.66354
7282.94,0.64923
7277.16,0.65059
7271.37,0.64784
7265.58,0.65012
7259.8,0.65445
7254.01,0.64369
7248.22,0.64235
7242.44,0.64367
7236.65,0.62373
7230.87,0.62607
7225.08,0.63010
7219.29,0.62339
7213.51,0.63416
7207.72,0.61970
7201.93,0.62698
7196.15,0.62245
7190.36,0.62014
7184.58,0.61799
7178.79,0.63566
7173,0.62890
7167.22,0.63211
7161.43,0.62719
7155.65,0.62830
7149.86,0.62168
7144.07,0.62180
7138.29,0.62337
7132.5,0.61957
7126.71,0.62221
7120.93,0.62375
7115.14,0.61859
7109.36,0.62015
7103.57,0.62438
7097.78,0.62312
7092,0.62459
7086.21,0.61520
7080.42,0.61389
7074.64,0.61888
7068.85,0.62304
7063.07,0.62230
7057.28,0.62703
7051.49,0.62671
7045.71,0.61724
7039.92,0.62182
7034.13,0.63060
7028.35,0.62100
7022.56,0.61896
7016.78,0.62383
7010.99,0.62695
7005.2,0.62166
6999.42,0.62647
6993.63,0.63043
6987.84,0.63551
6982.06,0.62816
6976.27,0.62912
6970.49,0.63031
6964.7,0.63822
6958.91,0.63678
6953.13,0.63418
6947.34,0.63438
6941.55,0.63508
6935.77,0.63699
6929.98,0.63763
6924.2,0.64694
6918.41,0.64314
6912.62,0.64574
6906.84,0.64149
6901.05,0.65027
6895.26,0.64929
6889.48,0.65003
6883.69,0.64810
6877.91,0.64457
6872.12,0.64832
6866.33,0.65204
6860.55,0.64933
6854.76,0.64882
6848.97,0.65762
6843.19,0.65347
6837.4,0.64986
6831.62,0.65319
6825.83,0.65264
6820.04,0.65311
6814.26,0.65280
6808.47,0.65020
6802.68,0.65227
6796.9,0.65613
6791.11,0.64476
6785.33,0.63651
6779.54,0.63791
6773.75,0.64082
6767.97,0.63374
6762.18,0.62397
6756.39,0.62896
6750.61,0.62584
6744.82,0.62768
6739.04,0.62306
6733.25,0.62549
6727.46,0.62149
6721.68,0.62167
6715.89,0.62036
6710.1,0.62789
6704.32,0.62204
6698.53,0.62398
6692.75,0.61713
6686.96,0.61511
6681.17,0.61291
6675.39,0.60451
6669.6,0.60411
6663.82,0.60549
6658.03,0.60227
6652.24,0.60267
6646.46,0.58872
6640.67,0.57824
6634.88,0.57549
6629.1,0.57405
6623.31,0.57234
6617.53,0.56663
6611.74,0.56751
6605.95,0.56976
6600.17,0.56641
6594.38,0.56487
6588.59,0.56383
6582.81,0.55753
6577.02,0.55638
6571.24,0.55809
6565.45,0.55936
6559.66,0.56201
6553.88,0.55288
6548.09,0.54770
6542.3,0.54757
6536.52,0.54426
6530.73,0.53968
6524.95,0.53408
6519.16,0.53372
6513.37,0.53144
6507.59,0.53342
6501.8,0.52697
6496.01,0.52480
6490.23,0.53265
6484.44,0.53324
6478.66,0.53825
6472.87,0.53996
6467.08,0.54854
6461.3,0.56219
6455.51,0.57391
6449.72,0.58206
6443.94,0.59082
6438.15,0.59816
6432.37,0.59903
6426.58,0.60167
6420.79,0.60121
6415.01,0.59329
6409.22,0.59346
6403.43,0.59232
6397.65,0.58623
6391.86,0.58584
6386.08,0.57647
6380.29,0.56931
6374.5,0.56828
6368.72,0.56584
6362.93,0.56270
6357.14,0.56113
6351.36,0.56273
6345.57,0.56455
6339.79,0.56144
6334,0.56358
6328.21,0.56888
6322.43,0.57278
6316.64,0.57727
6310.85,0.57846
6305.07,0.58564
6299.28,0.58829
6293.5,0.58638
6287.71,0.58491
6281.92,0.58246
6276.14,0.58073
6270.35,0.57903
6264.56,0.57849
6258.78,0.57245
6252.99,0.57160
6247.21,0.56833
6241.42,0.57068
6235.63,0.57215
6229.85,0.57690
6224.06,0.57593
6218.27,0.57789
6212.49,0.57697
6206.7,0.58012
6200.92,0.58862
6195.13,0.58879
6189.34,0.59169
6183.56,0.59096
6177.77,0.59686
6171.98,0.60358
6166.2,0.60974
6160.41,0.61510
6154.63,0.61955
6148.84,0.62655
6143.05,0.62860
6137.27,0.63282
6131.48,0.63660
6125.7,0.63716
6119.91,0.63774
6114.12,0.63962
6108.34,0.64201
6102.55,0.64108
6096.76,0.64064
6090.98,0.63898
6085.19,0.64375
6079.41,0.64053
6073.62,0.64276
6067.83,0.63790
6062.05,0.63521
6056.26,0.63559
6050.47,0.63612
6044.69,0.63332
6038.9,0.63238
6033.12,0.63068
6027.33,0.63246
6021.54,0.62811
6015.76,0.62750
6009.97,0.62790
6004.18,0.62092
5998.4,0.62054
5992.61,0.61800
5986.83,0.61402
5981.04,0.61368
5975.25,0.61206
5969.47,0.60653
5963.68,0.60339
5957.89,0.59953
5952.11,0.59686
5946.32,0.59120
5940.54,0.58416
5934.75,0.57758
5928.96,0.57021
5923.18,0.56071
5917.39,0.54779
5911.6,0.53824
5905.82,0.52461
5900.03,0.50861
5894.25,0.49403
5888.46,0.48151
5882.67,0.47132
5876.89,0.45780
5871.1,0.45195
5865.31,0.43825
5859.53,0.43032
5853.74,0.42297
5847.96,0.41638
5842.17,0.40943
5836.38,0.40428
5830.6,0.40408
5824.81,0.40374
5819.02,0.40293
5813.24,0.40579
5807.45,0.40841
5801.67,0.41198
5795.88,0.41456
5790.09,0.41875
5784.31,0.42585
5778.52,0.42579
5772.73,0.43090
5766.95,0.43481
5761.16,0.43873
5755.38,0.43830
5749.59,0.43493
5743.8,0.43538
5738.02,0.43089
5732.23,0.42543
5726.44,0.42274
5720.66,0.41850
5714.87,0.41699
5709.09,0.41562
5703.3,0.41734
5697.51,0.42066
5691.73,0.42451
5685.94,0.42794
5680.15,0.43273
5674.37,0.43841
5668.58,0.44359
5662.8,0.45253
5657.01,0.45705
5651.22,0.46413
5645.44,0.46725
5639.65,0.47334
5633.87,0.47855
5628.08,0.48059
5622.29,0.48669
5616.51,0.48782
5610.72,0.48993
5604.93,0.49293
5599.15,0.49292
5593.36,0.49140
5587.58,0.49516
5581.79,0.49512
5576,0.49644
5570.22,0.49952
5564.43,0.49951
5558.64,0.50042
5552.86,0.50062
5547.07,0.50288
5541.29,0.50303
5535.5,0.50508
5529.71,0.50518
5523.93,0.50377
5518.14,0.50547
5512.35,0.50810
5506.57,0.51001
5500.78,0.51091
5495,0.51039
5489.21,0.51153
5483.42,0.51334
5477.64,0.51425
5471.85,0.51422
5466.06,0.51714
5460.28,0.51571
5454.49,0.51580
5448.71,0.51742
5442.92,0.51938
5437.13,0.52189
5431.35,0.52180
5425.56,0.52335
5419.77,0.52599
5413.99,0.52562
5408.2,0.52585
5402.42,0.52915
5396.63,0.52944
5390.84,0.53315
5385.06,0.53501
5379.27,0.53804
5373.48,0.53997
5367.7,0.54171
5361.91,0.54440
5356.13,0.54555
5350.34,0.54380
5344.55,0.54631
5338.77,0.54407
5332.98,0.54728
5327.19,0.54805
5321.41,0.54631
5315.62,0.54695
5309.84,0.54552
5304.05,0.54540
5298.26,0.54220
5292.48,0.54015
5286.69,0.53797
5280.9,0.53424
5275.12,0.53211
5269.33,0.52863
5263.55,0.52989
5257.76,0.52815
5251.97,0.52684
5246.19,0.52310
5240.4,0.51998
5234.61,0.51867
5228.83,0.51728
5223.04,0.51641
5217.26,0.51253
5211.47,0.51100
5205.68,0.50835
5199.9,0.50629
5194.11,0.50412
5188.32,0.50088
5182.54,0.49944
5176.75,0.49526
5170.97,0.49237
5165.18,0.49084
5159.39,0.48779
5153.61,0.48547
5147.82,0.48418
5142.03,0.48330
5136.25,0.48240
5130.46,0.48062
5124.68,0.48151
5118.89,0.48083
5113.1,0.48124
5107.32,0.48242
5101.53,0.48326
5095.75,0.48379
5089.96,0.48657
5084.17,0.48828
5078.39,0.48864
5072.6,0.48999
5066.81,0.49011
5061.03,0.49173
5055.24,0.49307
5049.46,0.49206
5043.67,0.49070
5037.88,0.49001
5032.1,0.48901
5026.31,0.48735
5020.52,0.48413
5014.74,0.48176
5008.95,0.47398
5003.17,0.46752
4997.38,0.45990
4991.59,0.44957
4985.81,0.43594
4980.02,0.42345
4974.23,0.41583
4968.45,0.41119
4962.66,0.40805
4956.88,0.40623
4951.09,0.40633
4945.3,0.40391
4939.52,0.40313
4933.73,0.40070
4927.94,0.39940
4922.16,0.39542
4916.37,0.38737
4910.59,0.37550
4904.8,0.36096
4899.01,0.34514
4893.23,0.32897
4887.44,0.31771
4881.65,0.30707
4875.87,0.29970
4870.08,0.29919
4864.3,0.30758
4858.51,0.32358
4852.72,0.34342
4846.94,0.36260
4841.15,0.38155
4835.36,0.40067
4829.58,0.41474
4823.79,0.42456
4818.01,0.43065
4812.22,0.43342
4806.43,0.43326
4800.65,0.43199
4794.86,0.43007
4789.07,0.42930
4783.29,0.42851
4777.5,0.42515
4771.72,0.42441
4765.93,0.42273
4760.14,0.41907
4754.36,0.41606
4748.57,0.41323
4742.78,0.40855
4737,0.40444
4731.21,0.39958
4725.43,0.39528
4719.64,0.38989
4713.85,0.38089
4708.07,0.37471
4702.28,0.36934
4696.49,0.36308
4690.71,0.36007
4684.92,0.35822
4679.14,0.35755
4673.35,0.35796
4667.56,0.35835
4661.78,0.35907
4655.99,0.35970
4650.2,0.35868
4644.42,0.35618
4638.63,0.35203
4632.85,0.34667
4627.06,0.34029
4621.27,0.33336
4615.49,0.32862
4609.7,0.32374
4603.92,0.32023
4598.13,0.31711
4592.34,0.31350
4586.56,0.31105
4580.77,0.30946
4574.98,0.30861
4569.2,0.30963
4563.41,0.31101
4557.63,0.31211
4551.84,0.31759
4546.05,0.32112
4540.27,0.32182
4534.48,0.32295
4528.69,0.32426
4522.91,0.32607
4517.12,0.32983
4511.34,0.33365
4505.55,0.33779
4499.76,0.34362
4493.98,0.34601
4488.19,0.34675
4482.4,0.34654
4476.62,0.34611
4470.83,0.34605
4465.05,0.34480
4459.26,0.34340
4453.47,0.33991
4447.69,0.33520
4441.9,0.32922
4436.11,0.32203
4430.33,0.31397
4424.54,0.30467
4418.76,0.29621
4412.97,0.28645
4407.18,0.27720
4401.4,0.26700
4395.61,0.25702
4389.82,0.24497
4384.04,0.23190
4378.25,0.21811
4372.47,0.20494
4366.68,0.19418
4360.89,0.18609
4355.11,0.18171
4349.32,0.18700
4343.53,0.19781
4337.75,0.20974
4331.96,0.21893
4326.18,0.22493
4320.39,0.22950
4314.6,0.23541
4308.82,0.24058
4303.03,0.24394
4297.24,0.24511
4291.46,0.24134
4285.67,0.23572
4279.89,0.22887
4274.1,0.22066
4268.31,0.21258
4262.53,0.20857
4256.74,0.21086
4250.95,0.21519
4245.17,0.21696
4239.38,0.21533
4233.6,0.21412
4227.81,0.21261
4222.02,0.21273
4216.24,0.21235
4210.45,0.21408
4204.66,0.21490
4198.88,0.21622
4193.09,0.21605
4187.31,0.21710
4181.52,0.22003
4175.73,0.22539
4169.95,0.23060
4164.16,0.23452
4158.37,0.23856
4152.59,0.24277
4146.8,0.24757
4141.02,0.25309
4135.23,0.25695
4129.44,0.25944
4123.66,0.26197
4117.87,0.26163
4112.09,0.25942
4106.3,0.25900
4100.51,0.25968
4094.73,0.26114
4088.94,0.26222
4083.15,0.26388
4077.37,0.26380
4071.58,0.26154
4065.8,0.25805
4060.01,0.25290
4054.22,0.24776
4048.44,0.24409
4042.65,0.24134
4036.86,0.23827
4031.08,0.23415
4025.29,0.23276
4019.51,0.23441
4013.72,0.23547
4007.93,0.23730
4002.15,0.24186
3996.36,0.24993
3990.57,0.25766
3984.79,0.26187
3979,0.26644
3973.22,0.26976
3967.43,0.27243
3961.64,0.27660
3955.86,0.27902
3950.07,0.28007
3944.28,0.28144
3938.5,0.28441
3932.71,0.28937
3926.93,0.29530
3921.14,0.30002
3915.35,0.30390
3909.57,0.30795
3903.78,0.31024
3897.99,0.31198
3892.21,0.31512
3886.42,0.31811
3880.64,0.32133
3874.85,0.32409
3869.06,0.32470
3863.28,0.32053
3857.49,0.31289
3851.7,0.30884
3845.92,0.31495
3840.13,0.32217
3834.35,0.32439
3828.56,0.32624
3822.77,0.32754
3816.99,0.33034
3811.2,0.33544
3805.41,0.33917
3799.63,0.34080
3793.84,0.34217
3788.06,0.34281
3782.27,0.34292
3776.48,0.34064
3770.7,0.33845
3764.91,0.33722
3759.12,0.33716
3753.34,0.33667
3747.55,0.33454
3741.77,0.33542
3735.98,0.33933
3730.19,0.34327
3724.41,0.34514
3718.62,0.34385
3712.83,0.34117
3707.05,0.33621
3701.26,0.33052
3695.48,0.32358
3689.69,0.31382
3683.9,0.29764
3678.12,0.28543
3672.33,0.27792
3666.54,0.27397
3660.76,0.27248
3654.97,0.26920
3649.19,0.26193
3643.4,0.25248
3637.61,0.24197
3631.83,0.23142
3626.04,0.22198
3620.25,0.21387
3614.47,0.20714
3608.68,0.19903
3602.9,0.19175
3597.11,0.18339
3591.32,0.17633
3585.54,0.16827
3579.75,0.16050
3573.97,0.15246
3568.18,0.14467
3562.39,0.13737
3556.61,0.12987
3550.82,0.12345
3545.03,0.11616
3539.25,0.11002
3533.46,0.10459
3527.68,0.09893
3521.89,0.09383
3516.1,0.08943
3510.32,0.08514
3504.53,0.08212
3498.74,0.07956
3492.96,0.07691
3487.17,0.07509
3481.39,0.07343
3475.6,0.07244
3469.81,0.07074
3464.03,0.06831
3458.24,0.06578
3452.45,0.06356
3446.67,0.06222
3440.88,0.06015
3435.1,0.05941
3429.31,0.05689
3423.52,0.05440
3417.74,0.05242
3411.95,0.04938
3406.16,0.04737
3400.38,0.04299
3394.59,0.04068
3388.81,0.03753
3383.02,0.03436
3377.23,0.03278
3371.45,0.03000
3365.66,0.02772
3359.87,0.02578
3354.09,0.02472
3348.3,0.02282
3342.52,0.02250
3336.73,0.02217
3330.94,0.02114
3325.16,0.02159
3319.37,0.02077
3313.58,0.02130
3307.8,0.02180
3302.01,0.02321
3296.23,0.02345
3290.44,0.02383
3284.65,0.02427
3278.87,0.02366
3273.08,0.02378
3267.29,0.02478
3261.51,0.02407
3255.72,0.02494
3249.94,0.02506
3244.15,0.02527
3238.36,0.02688
3232.58,0.02775
3226.79,0.02872
3221,0.02987
3215.22,0.02987
3209.43,0.03060
3203.65,0.03143
3197.86,0.03180
3192.07,0.03309
3186.29,0.03462
3180.5,0.03694
3174.71,0.03841
3168.93,0.04106
3163.14,0.04375
3157.36,0.04490
3151.57,0.04615
3145.78,0.04578
3140,0.04591
3134.21,0.04520
3128.42,0.04351
3122.64,0.04127
3116.85,0.03738
3111.07,0.03485
3105.28,0.03234
3099.49,0.03100
3093.71,0.02911
3087.92,0.02930
3082.14,0.02908
3076.35,0.02946
3070.56,0.03000
3064.78,0.03161
3058.99,0.03396
3053.2,0.03675
3047.42,0.04090
3041.63,0.04485
3035.85,0.04867
3030.06,0.05174
3024.27,0.05465
3018.49,0.05516
3012.7,0.05582
3006.91,0.05559
3001.13,0.05337
2995.34,0.05023
2989.56,0.04588
2983.77,0.03940
2977.98,0.03272
2972.2,0.02737
2966.41,0.02419
2960.62,0.02352
2954.84,0.02255
2949.05,0.02189
2943.27,0.02216
2937.48,0.02256
2931.69,0.02290
2925.91,0.02306
2920.12,0.02443
2914.33,0.02379
2908.55,0.02437
2902.76,0.02520
2896.98,0.02537
2891.19,0.02588
2885.4,0.02611
2879.62,0.02511
2873.83,0.02425
2868.04,0.02380
2862.26,0.02461
2856.47,0.02462
2850.69,0.02550
2844.9,0.02978
2839.11,0.03671
2833.33,0.04261
2827.54,0.04684
2821.75,0.04980
2815.97,0.05419
2810.18,0.05906
2804.4,0.06346
2798.61,0.06671
2792.82,0.06958
2787.04,0.07376
2781.25,0.07785
2775.46,0.08114
2769.68,0.08474
2763.89,0.08703
2758.11,0.08791
2752.32,0.08821
2746.53,0.08773
2740.75,0.08938
2734.96,0.09294
2729.17,0.09709
2723.39,0.10131
2717.6,0.10705
2711.82,0.11138
2706.03,0.11373
2700.24,0.11619
2694.46,0.11941
2688.67,0.12219
2682.88,0.12367
2677.1,0.12584
2671.31,0.12770
2665.53,0.12898
2659.74,0.12856
2653.95,0.12945
2648.17,0.13191
2642.38,0.13465
2636.59,0.13715
2630.81,0.13893
2625.02,0.14039
2619.24,0.14289
2613.45,0.14518
2607.66,0.14721
2601.88,0.14973
2596.09,0.15154
2590.3,0.15180
2584.52,0.15274
2578.73,0.15358
2572.95,0.15638
2567.16,0.15756
2561.37,0.15773
2555.59,0.15692
2549.8,0.15704
2544.02,0.15867
2538.23,0.16305
2532.44,0.16822
2526.66,0.17295
2520.87,0.17809
2515.08,0.18243
2509.3,0.18617
2503.51,0.18784
2497.73,0.18746
2491.94,0.18573
2486.15,0.18409
2480.37,0.18338
2474.58,0.18494
2468.79,0.18836
2463.01,0.19326
2457.22,0.19768
2451.44,0.20077
2445.65,0.20544
2439.86,0.20895
2434.08,0.21212
2428.29,0.21464
2422.5,0.21600
2416.72,0.21749
2410.93,0.21756
2405.15,0.21744
2399.36,0.21739
2393.57,0.21795
2387.79,0.21780
2382,0.21800
2376.21,0.21816
2370.43,0.21915
2364.64,0.21937
2358.86,0.21919
2353.07,0.22013
2347.28,0.22033
2341.5,0.21786
2335.71,0.21698
2329.92,0.21714
2324.14,0.21758
2318.35,0.21909
2312.57,0.22141
2306.78,0.22392
2300.99,0.22621
2295.21,0.22745
2289.42,0.22874
2283.63,0.23036
2277.85,0.23137
2272.06,0.23088
2266.28,0.23245
2260.49,0.23571
2254.7,0.23872
2248.92,0.24052
2243.13,0.24157
2237.34,0.24189
2231.56,0.24077
2225.77,0.23837
2219.99,0.23492
2214.2,0.23061
2208.41,0.22665
2202.63,0.22331
2196.84,0.21888
2191.05,0.21724
2185.27,0.21869
2179.48,0.22217
2173.7,0.22426
2167.91,0.22648
2162.12,0.22825
2156.34,0.22895
2150.55,0.22952
2144.76,0.22908
2138.98,0.22884
2133.19,0.22853
2127.41,0.22823
2121.62,0.22917
2115.83,0.23249
2110.05,0.23600
2104.26,0.23822
2098.47,0.23804
2092.69,0.23614
2086.9,0.23405
2081.12,0.23232
2075.33,0.23026
2069.54,0.22847
2063.76,0.22954
2057.97,0.23360
2052.19,0.23651
2046.4,0.23564
2040.61,0.23275
2034.83,0.23448
2029.04,0.23819
2023.25,0.24197
2017.47,0.24519
2011.68,0.24679
2005.9,0.24837
2000.11,0.24941
1994.32,0.24862
1988.54,0.24637
1982.75,0.24511
1976.96,0.24473
1971.18,0.24622
1965.39,0.24963
1959.61,0.25222
1953.82,0.25420
1948.03,0.25415
1942.25,0.25318
1936.46,0.25376
1930.67,0.25487
1924.89,0.25483
1919.1,0.25251
1913.32,0.24765
1907.53,0.24132
1901.74,0.23760
1895.96,0.23715
1890.17,0.23857
1884.38,0.23999
1878.6,0.24136
1872.81,0.24224
1867.03,0.24185
1861.24,0.24071
1855.45,0.23845
1849.67,0.23448
1843.88,0.22860
1838.09,0.22372
1832.31,0.22040
1826.52,0.21654
1820.74,0.21265
1814.95,0.20775
1809.16,0.20224
1803.38,0.19528
1797.59,0.18794
1791.8,0.18074
1786.02,0.17299
1780.23,0.16471
1774.45,0.15513
1768.66,0.14254
1762.87,0.12830
1757.09,0.11272
1751.3,0.09751
1745.51,0.08102
1739.73,0.07035
1733.94,0.06534
1728.16,0.06380
1722.37,0.06272
1716.58,0.06085
1710.8,0.05666
1705.01,0.05143
1699.22,0.04314
1693.44,0.03340
1687.65,0.02559
1681.87,0.01904
1676.08,0.01702
1670.29,0.01578
1664.51,0.01628
1658.72,0.01780
1652.93,0.02066
1647.15,0.02624
1641.36,0.03206
1635.58,0.03236
1629.79,0.02925
1624,0.02730
1618.22,0.02663
1612.43,0.02551
1606.64,0.02576
1600.86,0.02506
1595.07,0.02437
1589.29,0.02281
1583.5,0.02134
1577.71,0.02002
1571.93,0.01980
1566.14,0.01985
1560.35,0.02144
1554.57,0.02180
1548.78,0.02561
1543,0.03097
1537.21,0.03264
1531.42,0.03162
1525.64,0.03013
1519.85,0.02921
1514.07,0.02854
1508.28,0.02965
1502.49,0.02976
1496.71,0.03059
1490.92,0.03117
1485.13,0.02877
1479.35,0.02580
1473.56,0.02606
1467.78,0.02528
1461.99,0.02566
1456.2,0.02565
1450.42,0.02600
1444.63,0.02594
1438.84,0.02625
1433.06,0.02633
1427.27,0.02740
1421.49,0.02758
1415.7,0.02833
1409.91,0.03023
1404.13,0.03188
1398.34,0.03082
1392.55,0.02881
1386.77,0.02669
1380.98,0.02500
1375.2,0.02456
1369.41,0.02577
1363.62,0.02640
1357.84,0.02715
1352.05,0.02770
1346.26,0.02879
1340.48,0.02964
1334.69,0.02953
1328.91,0.02984
1323.12,0.02961
1317.33,0.02836
1311.55,0.02678
1305.76,0.02612
1299.97,0.02575
1294.19,0.02661
1288.4,0.02623
1282.62,0.02526
1276.83,0.02529
1271.04,0.02480
1265.26,0.02599
1259.47,0.02750
1253.68,0.02794
1247.9,0.02844
1242.11,0.02849
1236.33,0.02860
1230.54,0.03059
1224.75,0.03344
1218.97,0.03103
1213.18,0.02838
1207.39,0.02833
1201.61,0.02971
1195.82,0.03194
1190.04,0.03492
1184.25,0.03707
1178.46,0.03296
1172.68,0.02879
1166.89,0.02972
1161.1,0.03894
1155.32,0.04994
1149.53,0.05976
1143.75,0.06837
1137.96,0.07222
1132.17,0.06381
1126.39,0.04717
1120.6,0.04150
1114.81,0.04682
1109.03,0.05501
1103.24,0.06572
1097.46,0.07113
1091.67,0.07063
1085.88,0.06563
1080.1,0.05996
1074.31,0.06098
1068.52,0.06653
1062.74,0.07383
1056.95,0.08105
1051.17,0.08259
1045.38,0.07691
1039.59,0.07284
1033.81,0.07268
1028.02,0.07398
1022.24,0.08869
1016.45,0.09550
1010.66,0.09696
1004.88,0.09319
999.09,0.08913
993.304,0.08832
987.518,0.08152
981.731,0.07541
975.945,0.06877
970.159,0.07226
964.373,0.07365
958.586,0.07139
952.8,0.08046
947.014,0.09265
941.228,0.10014
935.441,0.08794
929.655,0.06960
923.869,0.08166
918.083,0.09903
912.297,0.10977
906.51,0.11908
900.724,0.12474
894.938,0.12437
889.152,0.12434
883.365,0.12668
877.579,0.12821
871.793,0.12736
866.007,0.12753
860.22,0.12523
854.434,0.12170
848.648,0.11615
842.862,0.10956
837.075,0.09706
831.289,0.09541
825.503,0.10136
819.717,0.10034
813.931,0.09524
808.144,0.08767
802.358,0.07964
796.572,0.07290
790.786,0.06565
784.999,0.05887
779.213,0.05360
773.427,0.05014
767.641,0.04698
761.854,0.04356
756.068,0.03882
750.282,0.03514
744.496,0.03282
738.709,0.03021
732.923,0.02705
727.137,0.02648
721.351,0.02697
715.565,0.02628
709.778,0.02634
703.992,0.02635
698.206,0.02733
692.42,0.02812
686.633,0.02912
680.847,0.03182
675.061,0.03284
669.275,0.03663
663.488,0.04066
657.702,0.04319
651.916,0.04593
646.13,0.04636
640.343,0.04723
634.557,0.04600
628.771,0.04648
622.985,0.04252
617.198,0.04447
611.412,0.04551
605.626,0.04783
599.84,0.04610