File: 01_Data/Nylon_Carpet_Low_Pile/FTIR/IS/Nylon_Carpet_Low_Pile_IS_S_221122_R8.dpt
7497.03,0.73798
7491.25,0.72671
7485.46,0.72350
7479.67,0.71859
7473.89,0.73152
7468.1,0.73306
7462.32,0.73316
7456.53,0.72693
7450.74,0.71989
7444.96,0.72216
7439.17,0.71358
7433.38,0.71969
7427.6,0.71815
7421.81,0.72846
7416.03,0.71680
7410.24,0.71714
7404.45,0.71926
7398.67,0.71332
7392.88,0.71906
7387.09,0.71779
7381.31,0.71102
7375.52,0.71579
7369.74,0.69800
7363.95,0.70911
7358.16,0.71464
7352.38,0.70999
7346.59,0.70545
7340.8,0.70116
7335.02,0.68855
7329.23,0.69353
7323.45,0.68955
7317.66,0.68313
7311.87,0.68930
7306.09,0.68775
7300.3,0.68798
7294.51,0.68381
7288.73,0.66882
7282.94,0.65219
7277.16,0.66143
7271.37,0.65566
7265.58,0.64609
7259.8,0.65339
7254.01,0.64001
7248.22,0.63454
7242.44,0.64212
7236.65,0.64442
7230.87,0.63139
7225.08,0.62222
7219.29,0.62282
7213.51,0.62253
7207.72,0.62876
7201.93,0.61476
7196.15,0.62536
7190.36,0.62395
7184.58,0.63158
7178.79,0.63476
7173,0.63412
7167.22,0.62628
7161.43,0.62861
7155.65,0.62014
7149.86,0.62113
7144.07,0.62338
7138.29,0.62668
7132.5,0.62595
7126.71,0.61651
7120.93,0.61361
7115.14,0.61784
7109.36,0.61870
7103.57,0.62518
7097.78,0.62031
7092,0.61827
7086.21,0.61420
7080.42,0.61372
7074.64,0.61401
7068.85,0.62404
7063.07,0.61284
7057.28,0.61813
7051.49,0.61991
7045.71,0.61884
7039.92,0.63114
7034.13,0.62570
7028.35,0.62467
7022.56,0.62236
7016.78,0.62796
7010.99,0.62132
7005.2,0.63184
6999.42,0.63414
6993.63,0.62630
6987.84,0.63368
6982.06,0.63245
6976.27,0.63310
6970.49,0.63495
6964.7,0.64177
6958.91,0.63939
6953.13,0.63366
6947.34,0.64447
6941.55,0.64072
6935.77,0.64332
6929.98,0.63978
6924.2,0.64565
6918.41,0.65138
6912.62,0.65023
6906.84,0.64680
6901.05,0.65249
6895.26,0.65414
6889.48,0.64956
6883.69,0.65219
6877.91,0.65201
6872.12,0.64951
6866.33,0.65795
6860.55,0.65581
6854.76,0.65401
6848.97,0.64855
6843.19,0.65609
6837.4,0.66128
6831.62,0.65953
6825.83,0.65449
6820.04,0.65812
6814.26,0.65829
6808.47,0.65571
6802.68,0.65080
6796.9,0.64752
6791.11,0.64922
6785.33,0.64480
6779.54,0.63497
6773.75,0.63794
6767.97,0.63429
6762.18,0.62814
6756.39,0.62624
6750.61,0.62733
6744.82,0.62584
6739.04,0.63114
6733.25,0.62310
6727.46,0.61883
6721.68,0.62492
6715.89,0.62743
6710.1,0.62155
6704.32,0.62015
6698.53,0.62079
6692.75,0.62012
6686.96,0.61689
6681.17,0.61282
6675.39,0.60765
6669.6,0.60148
6663.82,0.59920
6658.03,0.60231
6652.24,0.59653
6646.46,0.58936
6640.67,0.58876
6634.88,0.58179
6629.1,0.57907
6623.31,0.56970
6617.53,0.56259
6611.74,0.56333
6605.95,0.56222
6600.17,0.56367
6594.38,0.56339
6588.59,0.56723
6582.81,0.55864
6577.02,0.56238
6571.24,0.56225
6565.45,0.56156
6559.66,0.55755
6553.88,0.55511
6548.09,0.54863
6542.3,0.54517
6536.52,0.53884
6530.73,0.53950
6524.95,0.53477
6519.16,0.53258
6513.37,0.53090
6507.59,0.52654
6501.8,0.52564
6496.01,0.53048
6490.23,0.53461
6484.44,0.53581
6478.66,0.53768
6472.87,0.54609
6467.08,0.55470
6461.3,0.56687
6455.51,0.57620
6449.72,0.58015
6443.94,0.59083
6438.15,0.59455
6432.37,0.59712
6426.58,0.59842
6420.79,0.59542
6415.01,0.59826
6409.22,0.59477
6403.43,0.59336
6397.65,0.59111
6391.86,0.58597
6386.08,0.58170
6380.29,0.57428
6374.5,0.57290
6368.72,0.56635
6362.93,0.56319
6357.14,0.55783
6351.36,0.56083
6345.57,0.56078
6339.79,0.56248
6334,0.56732
6328.21,0.56708
6322.43,0.57225
6316.64,0.57871
6310.85,0.57991
6305.07,0.58611
6299.28,0.58458
6293.5,0.58702
6287.71,0.58595
6281.92,0.58374
6276.14,0.58386
6270.35,0.58154
6264.56,0.57546
6258.78,0.57288
6252.99,0.57610
6247.21,0.57519
6241.42,0.57578
6235.63,0.57447
6229.85,0.57651
6224.06,0.58061
6218.27,0.57586
6212.49,0.57851
6206.7,0.58366
6200.92,0.58569
6195.13,0.58865
6189.34,0.59268
6183.56,0.59136
6177.77,0.59668
6171.98,0.60580
6166.2,0.60829
6160.41,0.61373
6154.63,0.61746
6148.84,0.62438
6143.05,0.62974
6137.27,0.63324
6131.48,0.63509
6125.7,0.63631
6119.91,0.63979
6114.12,0.63970
6108.34,0.63725
6102.55,0.64136
6096.76,0.64128
6090.98,0.64343
6085.19,0.64299
6079.41,0.63938
6073.62,0.63937
6067.83,0.63909
6062.05,0.63694
6056.26,0.63769
6050.47,0.63541
6044.69,0.63391
6038.9,0.63211
6033.12,0.63491
6027.33,0.63247
6021.54,0.63141
6015.76,0.63229
6009.97,0.62763
6004.18,0.62552
5998.4,0.62427
5992.61,0.61870
5986.83,0.61554
5981.04,0.61482
5975.25,0.61291
5969.47,0.60751
5963.68,0.60604
5957.89,0.59951
5952.11,0.59562
5946.32,0.58989
5940.54,0.58299
5934.75,0.57406
5928.96,0.56775
5923.18,0.56055
5917.39,0.54915
5911.6,0.53640
5905.82,0.52137
5900.03,0.51068
5894.25,0.49550
5888.46,0.48301
5882.67,0.47061
5876.89,0.46309
5871.1,0.44976
5865.31,0.44121
5859.53,0.43112
5853.74,0.42218
5847.96,0.41736
5842.17,0.40587
5836.38,0.40753
5830.6,0.40594
5824.81,0.40679
5819.02,0.40514
5813.24,0.40602
5807.45,0.40643
5801.67,0.41290
5795.88,0.41625
5790.09,0.42355
5784.31,0.42518
5778.52,0.42646
5772.73,0.43190
5766.95,0.43647
5761.16,0.43831
5755.38,0.43661
5749.59,0.43949
5743.8,0.43512
5738.02,0.43096
5732.23,0.42699
5726.44,0.42273
5720.66,0.42148
5714.87,0.41807
5709.09,0.41760
5703.3,0.41949
5697.51,0.42197
5691.73,0.42554
5685.94,0.42711
5680.15,0.43111
5674.37,0.43678
5668.58,0.44322
5662.8,0.44975
5657.01,0.45714
5651.22,0.46317
5645.44,0.46928
5639.65,0.47341
5633.87,0.47831
5628.08,0.48403
5622.29,0.48644
5616.51,0.48869
5610.72,0.48916
5604.93,0.49260
5599.15,0.49302
5593.36,0.49289
5587.58,0.49566
5581.79,0.49777
5576,0.49771
5570.22,0.49854
5564.43,0.50000
5558.64,0.49888
5552.86,0.50189
5547.07,0.50274
5541.29,0.50294
5535.5,0.50426
5529.71,0.50286
5523.93,0.50427
5518.14,0.50531
5512.35,0.50778
5506.57,0.51309
5500.78,0.51047
5495,0.51206
5489.21,0.51356
5483.42,0.51446
5477.64,0.51541
5471.85,0.51414
5466.06,0.51690
5460.28,0.51625
5454.49,0.51789
5448.71,0.51794
5442.92,0.51979
5437.13,0.52135
5431.35,0.52397
5425.56,0.52227
5419.77,0.52400
5413.99,0.52676
5408.2,0.52658
5402.42,0.52915
5396.63,0.53234
5390.84,0.53449
5385.06,0.53628
5379.27,0.53828
5373.48,0.53964
5367.7,0.54258
5361.91,0.54317
5356.13,0.54468
5350.34,0.54655
5344.55,0.54642
5338.77,0.54668
5332.98,0.54808
5327.19,0.54793
5321.41,0.54784
5315.62,0.54793
5309.84,0.54619
5304.05,0.54576
5298.26,0.54404
5292.48,0.53868
5286.69,0.53842
5280.9,0.53801
5275.12,0.53481
5269.33,0.53246
5263.55,0.53186
5257.76,0.52906
5251.97,0.52830
5246.19,0.52491
5240.4,0.52231
5234.61,0.52197
5228.83,0.52194
5223.04,0.51961
5217.26,0.51698
5211.47,0.51382
5205.68,0.51080
5199.9,0.50956
5194.11,0.50781
5188.32,0.50267
5182.54,0.50014
5176.75,0.49998
5170.97,0.49517
5165.18,0.49438
5159.39,0.49112
5153.61,0.48984
5147.82,0.48743
5142.03,0.48693
5136.25,0.48481
5130.46,0.48420
5124.68,0.48492
5118.89,0.48439
5113.1,0.48402
5107.32,0.48532
5101.53,0.48725
5095.75,0.48903
5089.96,0.49016
5084.17,0.49027
5078.39,0.49181
5072.6,0.49330
5066.81,0.49251
5061.03,0.49336
5055.24,0.49319
5049.46,0.49426
5043.67,0.49438
5037.88,0.49348
5032.1,0.49187
5026.31,0.48892
5020.52,0.48534
5014.74,0.48208
5008.95,0.47562
5003.17,0.46919
4997.38,0.45933
4991.59,0.45019
4985.81,0.43753
4980.02,0.42567
4974.23,0.41719
4968.45,0.41308
4962.66,0.40968
4956.88,0.40721
4951.09,0.40632
4945.3,0.40628
4939.52,0.40368
4933.73,0.40227
4927.94,0.40107
4922.16,0.39641
4916.37,0.38692
4910.59,0.37675
4904.8,0.36253
4899.01,0.34564
4893.23,0.32885
4887.44,0.31781
4881.65,0.30766
4875.87,0.30009
4870.08,0.29935
4864.3,0.30805
4858.51,0.32423
4852.72,0.34199
4846.94,0.36364
4841.15,0.38304
4835.36,0.40059
4829.58,0.41409
4823.79,0.42323
4818.01,0.43038
4812.22,0.43362
4806.43,0.43448
4800.65,0.43369
4794.86,0.43129
4789.07,0.43088
4783.29,0.42907
4777.5,0.42607
4771.72,0.42551
4765.93,0.42259
4760.14,0.41961
4754.36,0.41615
4748.57,0.41218
4742.78,0.40929
4737,0.40553
4731.21,0.40021
4725.43,0.39590
4719.64,0.38965
4713.85,0.38149
4708.07,0.37376
4702.28,0.36839
4696.49,0.36418
4690.71,0.36138
4684.92,0.36021
4679.14,0.35791
4673.35,0.35867
4667.56,0.35898
4661.78,0.35950
4655.99,0.35955
4650.2,0.35821
4644.42,0.35551
4638.63,0.35160
4632.85,0.34628
4627.06,0.33968
4621.27,0.33386
4615.49,0.32828
4609.7,0.32471
4603.92,0.32021
4598.13,0.31680
4592.34,0.31422
4586.56,0.31108
4580.77,0.30942
4574.98,0.30866
4569.2,0.30977
4563.41,0.31176
4557.63,0.31353
4551.84,0.31634
4546.05,0.32000
4540.27,0.32132
4534.48,0.32322
4528.69,0.32340
4522.91,0.32618
4517.12,0.32972
4511.34,0.33373
4505.55,0.33896
4499.76,0.34216
4493.98,0.34456
4488.19,0.34612
4482.4,0.34620
4476.62,0.34569
4470.83,0.34557
4465.05,0.34513
4459.26,0.34361
4453.47,0.34014
4447.69,0.33467
4441.9,0.32927
4436.11,0.32216
4430.33,0.31393
4424.54,0.30431
4418.76,0.29564
4412.97,0.28645
4407.18,0.27709
4401.4,0.26733
4395.61,0.25668
4389.82,0.24446
4384.04,0.23181
4378.25,0.21872
4372.47,0.20498
4366.68,0.19354
4360.89,0.18660
4355.11,0.18260
4349.32,0.18714
4343.53,0.19741
4337.75,0.20958
4331.96,0.21879
4326.18,0.22406
4320.39,0.23000
4314.6,0.23623
4308.82,0.24007
4303.03,0.24359
4297.24,0.24416
4291.46,0.24149
4285.67,0.23673
4279.89,0.22846
4274.1,0.22057
4268.31,0.21269
4262.53,0.20928
4256.74,0.21153
4250.95,0.21529
4245.17,0.21656
4239.38,0.21535
4233.6,0.21448
4227.81,0.21283
4222.02,0.21213
4216.24,0.21214
4210.45,0.21305
4204.66,0.21515
4198.88,0.21549
4193.09,0.21682
4187.31,0.21665
4181.52,0.21988
4175.73,0.22584
4169.95,0.23029
4164.16,0.23456
4158.37,0.23768
4152.59,0.24167
4146.8,0.24749
4141.02,0.25229
4135.23,0.25701
4129.44,0.26062
4123.66,0.26198
4117.87,0.26246
4112.09,0.26067
4106.3,0.25853
4100.51,0.25925
4094.73,0.26156
4088.94,0.26341
4083.15,0.26432
4077.37,0.26344
4071.58,0.26134
4065.8,0.25792
4060.01,0.25424
4054.22,0.24791
4048.44,0.24347
4042.65,0.24140
4036.86,0.23817
4031.08,0.23472
4025.29,0.23298
4019.51,0.23468
4013.72,0.23481
4007.93,0.23706
4002.15,0.24256
3996.36,0.24999
3990.57,0.25744
3984.79,0.26313
3979,0.26589
3973.22,0.26995
3967.43,0.27319
3961.64,0.27638
3955.86,0.27868
3950.07,0.28078
3944.28,0.28186
3938.5,0.28461
3932.71,0.28947
3926.93,0.29514
3921.14,0.30050
3915.35,0.30506
3909.57,0.30788
3903.78,0.31040
3897.99,0.31221
3892.21,0.31594
3886.42,0.31813
3880.64,0.32153
3874.85,0.32419
3869.06,0.32399
3863.28,0.31964
3857.49,0.31231
3851.7,0.30932
3845.92,0.31469
3840.13,0.32184
3834.35,0.32538
3828.56,0.32631
3822.77,0.32775
3816.99,0.33084
3811.2,0.33564
3805.41,0.33878
3799.63,0.34063
3793.84,0.34275
3788.06,0.34314
3782.27,0.34324
3776.48,0.34086
3770.7,0.33890
3764.91,0.33824
3759.12,0.33690
3753.34,0.33629
3747.55,0.33528
3741.77,0.33662
3735.98,0.34028
3730.19,0.34446
3724.41,0.34651
3718.62,0.34486
3712.83,0.34227
3707.05,0.33744
3701.26,0.33205
3695.48,0.32515
3689.69,0.31530
3683.9,0.30046
3678.12,0.28953
3672.33,0.28192
3666.54,0.27826
3660.76,0.27626
3654.97,0.27255
3649.19,0.26640
3643.4,0.25734
3637.61,0.24767
3631.83,0.23654
3626.04,0.22680
3620.25,0.21967
3614.47,0.21290
3608.68,0.20529
3602.9,0.19859
3597.11,0.19039
3591.32,0.18264
3585.54,0.17451
3579.75,0.16746
3573.97,0.15876
3568.18,0.15131
3562.39,0.14397
3556.61,0.13644
3550.82,0.12882
3545.03,0.12268
3539.25,0.11690
3533.46,0.11011
3527.68,0.10401
3521.89,0.09943
3516.1,0.09417
3510.32,0.09083
3504.53,0.08741
3498.74,0.08379
3492.96,0.08128
3487.17,0.08009
3481.39,0.07734
3475.6,0.07608
3469.81,0.07411
3464.03,0.07225
3458.24,0.06995
3452.45,0.06706
3446.67,0.06467
3440.88,0.06383
3435.1,0.06214
3429.31,0.05936
3423.52,0.05635
3417.74,0.05440
3411.95,0.05101
3406.16,0.04819
3400.38,0.04494
3394.59,0.04149
3388.81,0.03813
3383.02,0.03502
3377.23,0.03213
3371.45,0.03035
3365.66,0.02781
3359.87,0.02607
3354.09,0.02458
3348.3,0.02343
3342.52,0.02214
3336.73,0.02188
3330.94,0.02152
3325.16,0.02157
3319.37,0.02138
3313.58,0.02138
3307.8,0.02129
3302.01,0.02260
3296.23,0.02323
3290.44,0.02378
3284.65,0.02398
3278.87,0.02364
3273.08,0.02395
3267.29,0.02462
3261.51,0.02457
3255.72,0.02478
3249.94,0.02565
3244.15,0.02632
3238.36,0.02638
3232.58,0.02862
3226.79,0.02932
3221,0.02960
3215.22,0.02953
3209.43,0.03075
3203.65,0.03108
3197.86,0.03271
3192.07,0.03391
3186.29,0.03461
3180.5,0.03679
3174.71,0.03888
3168.93,0.04153
3163.14,0.04448
3157.36,0.04525
3151.57,0.04580
3145.78,0.04685
3140,0.04619
3134.21,0.04485
3128.42,0.04307
3122.64,0.04135
3116.85,0.03842
3111.07,0.03564
3105.28,0.03237
3099.49,0.03047
3093.71,0.02995
3087.92,0.03019
3082.14,0.02999
3076.35,0.03030
3070.56,0.03073
3064.78,0.03196
3058.99,0.03361
3053.2,0.03681
3047.42,0.04045
3041.63,0.04465
3035.85,0.04921
3030.06,0.05187
3024.27,0.05406
3018.49,0.05544
3012.7,0.05581
3006.91,0.05562
3001.13,0.05389
2995.34,0.05050
2989.56,0.04553
2983.77,0.03961
2977.98,0.03277
2972.2,0.02743
2966.41,0.02449
2960.62,0.02294
2954.84,0.02244
2949.05,0.02180
2943.27,0.02190
2937.48,0.02225
2931.69,0.02258
2925.91,0.02311
2920.12,0.02324
2914.33,0.02441
2908.55,0.02506
2902.76,0.02478
2896.98,0.02510
2891.19,0.02600
2885.4,0.02622
2879.62,0.02514
2873.83,0.02460
2868.04,0.02394
2862.26,0.02409
2856.47,0.02502
2850.69,0.02621
2844.9,0.03001
2839.11,0.03685
2833.33,0.04264
2827.54,0.04669
2821.75,0.04985
2815.97,0.05334
2810.18,0.05907
2804.4,0.06333
2798.61,0.06650
2792.82,0.07002
2787.04,0.07369
2781.25,0.07684
2775.46,0.08104
2769.68,0.08478
2763.89,0.08741
2758.11,0.08850
2752.32,0.08796
2746.53,0.08788
2740.75,0.08951
2734.96,0.09306
2729.17,0.09670
2723.39,0.10184
2717.6,0.10645
2711.82,0.11121
2706.03,0.11426
2700.24,0.11567
2694.46,0.11871
2688.67,0.12157
2682.88,0.12353
2677.1,0.12582
2671.31,0.12761
2665.53,0.12901
2659.74,0.12921
2653.95,0.12966
2648.17,0.13194
2642.38,0.13493
2636.59,0.13707
2630.81,0.13887
2625.02,0.14030
2619.24,0.14263
2613.45,0.14516
2607.66,0.14786
2601.88,0.14992
2596.09,0.15138
2590.3,0.15221
2584.52,0.15233
2578.73,0.15407
2572.95,0.15628
2567.16,0.15762
2561.37,0.15803
2555.59,0.15699
2549.8,0.15699
2544.02,0.15862
2538.23,0.16380
2532.44,0.16873
2526.66,0.17289
2520.87,0.17829
2515.08,0.18306
2509.3,0.18638
2503.51,0.18807
2497.73,0.18753
2491.94,0.18629
2486.15,0.18457
2480.37,0.18340
2474.58,0.18487
2468.79,0.18852
2463.01,0.19323
2457.22,0.19739
2451.44,0.20122
2445.65,0.20541
2439.86,0.20927
2434.08,0.21224
2428.29,0.21463
2422.5,0.21602
2416.72,0.21788
2410.93,0.21787
2405.15,0.21729
2399.36,0.21757
2393.57,0.21859
2387.79,0.21810
2382,0.21862
2376.21,0.22065
2370.43,0.22269
2364.64,0.22392
2358.86,0.22411
2353.07,0.22383
2347.28,0.22369
2341.5,0.22193
2335.71,0.22096
2329.92,0.22167
2324.14,0.22132
2318.35,0.22142
2312.57,0.22346
2306.78,0.22531
2300.99,0.22739
2295.21,0.22872
2289.42,0.22891
2283.63,0.23103
2277.85,0.23220
2272.06,0.23203
2266.28,0.23376
2260.49,0.23679
2254.7,0.23947
2248.92,0.24140
2243.13,0.24257
2237.34,0.24314
2231.56,0.24179
2225.77,0.23935
2219.99,0.23603
2214.2,0.23200
2208.41,0.22803
2202.63,0.22435
2196.84,0.22032
2191.05,0.21800
2185.27,0.22004
2179.48,0.22299
2173.7,0.22600
2167.91,0.22780
2162.12,0.22958
2156.34,0.23044
2150.55,0.23078
2144.76,0.23108
2138.98,0.23078
2133.19,0.22943
2127.41,0.22932
2121.62,0.23056
2115.83,0.23373
2110.05,0.23744
2104.26,0.23940
2098.47,0.23927
2092.69,0.23783
2086.9,0.23528
2081.12,0.23333
2075.33,0.23123
2069.54,0.22917
2063.76,0.23031
2057.97,0.23429
2052.19,0.23744
2046.4,0.23625
2040.61,0.23350
2034.83,0.23542
2029.04,0.23877
2023.25,0.24274
2017.47,0.24565
2011.68,0.24763
2005.9,0.24870
2000.11,0.24985
1994.32,0.24913
1988.54,0.24683
1982.75,0.24568
1976.96,0.24551
1971.18,0.24652
1965.39,0.24957
1959.61,0.25265
1953.82,0.25469
1948.03,0.25462
1942.25,0.25397
1936.46,0.25397
1930.67,0.25534
1924.89,0.25512
1919.1,0.25294
1913.32,0.24778
1907.53,0.24186
1901.74,0.23778
1895.96,0.23771
1890.17,0.23932
1884.38,0.24041
1878.6,0.24128
1872.81,0.24191
1867.03,0.24211
1861.24,0.24109
1855.45,0.23887
1849.67,0.23475
1843.88,0.22913
1838.09,0.22391
1832.31,0.22068
1826.52,0.21692
1820.74,0.21290
1814.95,0.20796
1809.16,0.20237
1803.38,0.19562
1797.59,0.18781
1791.8,0.18069
1786.02,0.17319
1780.23,0.16461
1774.45,0.15511
1768.66,0.14236
1762.87,0.12854
1757.09,0.11296
1751.3,0.09745
1745.51,0.08128
1739.73,0.06988
1733.94,0.06525
1728.16,0.06376
1722.37,0.06282
1716.58,0.06072
1710.8,0.05679
1705.01,0.05124
1699.22,0.04312
1693.44,0.03348
1687.65,0.02523
1681.87,0.01840
1676.08,0.01691
1670.29,0.01580
1664.51,0.01652
1658.72,0.01762
1652.93,0.02048
1647.15,0.02546
1641.36,0.03183
1635.58,0.03283
1629.79,0.02946
1624,0.02745
1618.22,0.02676
1612.43,0.02557
1606.64,0.02562
1600.86,0.02518
1595.07,0.02436
1589.29,0.02281
1583.5,0.02122
1577.71,0.02013
1571.93,0.01967
1566.14,0.01993
1560.35,0.02069
1554.57,0.02156
1548.78,0.02551
1543,0.03014
1537.21,0.03222
1531.42,0.03106
1525.64,0.03012
1519.85,0.02961
1514.07,0.02892
1508.28,0.02934
1502.49,0.03021
1496.71,0.03059
1490.92,0.03059
1485.13,0.02849
1479.35,0.02608
1473.56,0.02618
1467.78,0.02549
1461.99,0.02560
1456.2,0.02621
1450.42,0.02613
1444.63,0.02618
1438.84,0.02614
1433.06,0.02680
1427.27,0.02721
1421.49,0.02745
1415.7,0.02802
1409.91,0.03026
1404.13,0.03171
1398.34,0.03052
1392.55,0.02846
1386.77,0.02650
1380.98,0.02490
1375.2,0.02512
1369.41,0.02562
1363.62,0.02602
1357.84,0.02706
1352.05,0.02790
1346.26,0.02812
1340.48,0.02915
1334.69,0.02934
1328.91,0.02962
1323.12,0.02933
1317.33,0.02814
1311.55,0.02703
1305.76,0.02603
1299.97,0.02623
1294.19,0.02657
1288.4,0.02653
1282.62,0.02547
1276.83,0.02439
1271.04,0.02475
1265.26,0.02613
1259.47,0.02742
1253.68,0.02780
1247.9,0.02821
1242.11,0.02799
1236.33,0.02805
1230.54,0.03043
1224.75,0.03312
1218.97,0.03016
1213.18,0.02809
1207.39,0.02840
1201.61,0.02911
1195.82,0.03214
1190.04,0.03531
1184.25,0.03689
1178.46,0.03313
1172.68,0.02810
1166.89,0.02988
1161.1,0.03869
1155.32,0.04987
1149.53,0.06045
1143.75,0.06820
1137.96,0.07244
1132.17,0.06379
1126.39,0.04689
1120.6,0.04159
1114.81,0.04750
1109.03,0.05539
1103.24,0.06526
1097.46,0.07099
1091.67,0.07083
1085.88,0.06510
1080.1,0.06032
1074.31,0.06118
1068.52,0.06698
1062.74,0.07383
1056.95,0.08063
1051.17,0.08293
1045.38,0.07691
1039.59,0.07327
1033.81,0.07255
1028.02,0.07445
1022.24,0.08860
1016.45,0.09613
1010.66,0.09709
1004.88,0.09308
999.09,0.08888
993.304,0.08790
987.518,0.08186
981.731,0.07497
975.945,0.06835
970.159,0.07213
964.373,0.07413
958.586,0.07171
952.8,0.08120
947.014,0.09345
941.228,0.10121
935.441,0.08778
929.655,0.07009
923.869,0.08131
918.083,0.09959
912.297,0.10955
906.51,0.11901
900.724,0.12540
894.938,0.12474
889.152,0.12556
883.365,0.12768
877.579,0.12870
871.793,0.12824
866.007,0.12778
860.22,0.12577
854.434,0.12243
848.648,0.11699
842.862,0.10947
837.075,0.09663
831.289,0.09520
825.503,0.10210
819.717,0.10040
813.931,0.09512
808.144,0.08819
802.358,0.07995
796.572,0.07279
790.786,0.06571
784.999,0.05814
779.213,0.05362
773.427,0.05133
767.641,0.04718
761.854,0.04365
756.068,0.03838
750.282,0.03559
744.496,0.03329
738.709,0.03157
732.923,0.02811
727.137,0.02772
721.351,0.02747
715.565,0.02682
709.778,0.02610
703.992,0.02683
698.206,0.02762
692.42,0.02826
686.633,0.02834
680.847,0.03105
675.061,0.03378
669.275,0.03550
663.488,0.04101
657.702,0.04447
651.916,0.04821
646.13,0.04848
640.343,0.04800
634.557,0.04633
628.771,0.04548
622.985,0.04410
617.198,0.04557
611.412,0.04792
605.626,0.04590
599.84,0.04501