File: 01_Data/FDNY_LDF/Cone/FDNY_LDF_HRRPUA_25.csv
Time after Ignition,FDNY_LDF_R1,FDNY_LDF_R2,FDNY_LDF_R3,FDNY_LDF_R4,Mean,Std. Dev.
0.0,16.7,11.6,8.6,19.9,14.2,5.1
0.5,23.1,16.1,13.9,27.2,20.1,6.2
1.0,39.9,22.7,26.5,37.6,31.7,8.4
1.5,47.3,30.9,37.2,48.9,41.0,8.5
2.0,62.4,41.2,50.5,60.9,53.7,9.9
2.5,78.3,52.3,60.0,69.9,65.1,11.4
3.0,91.2,63.8,69.9,83.1,77.0,12.4
3.5,106.7,75.4,79.4,90.4,88.0,14.0
4.0,118.9,83.8,88.1,99.5,97.6,15.7
4.5,128.9,95.0,95.5,104.0,105.9,15.9
5.0,136.6,104.5,103.4,112.1,114.1,15.5
5.5,149.3,113.8,107.6,115.6,121.6,18.8
6.0,155.8,119.1,111.1,121.5,126.9,19.8
6.5,159.8,125.4,116.5,125.1,131.7,19.2
7.0,162.0,131.0,121.1,125.5,134.9,18.5
7.5,169.0,136.7,122.5,130.8,139.7,20.3
8.0,170.2,139.1,125.7,132.6,141.9,19.6
8.5,175.0,143.1,126.4,136.7,145.3,21.0
9.0,174.3,144.1,132.0,135.9,146.6,19.2
9.5,174.7,147.0,130.9,136.2,147.2,19.5
10.0,181.3,149.9,132.3,135.0,149.6,22.5
10.5,179.4,149.4,133.3,137.9,150.0,20.7
11.0,177.7,149.2,133.5,140.2,150.1,19.4
11.5,178.6,148.7,132.6,139.3,149.8,20.3
12.0,179.4,150.7,133.2,138.8,150.5,20.6
12.5,180.7,150.1,133.1,139.8,150.9,21.1
13.0,176.8,149.4,133.9,137.4,149.4,19.4
13.5,177.3,150.5,135.5,138.0,150.3,19.1
14.0,174.3,147.6,131.6,137.7,147.8,18.8
14.5,175.4,148.0,133.9,137.8,148.8,18.7
15.0,173.6,146.7,133.1,137.2,147.7,18.2
15.5,169.9,147.9,132.2,136.5,146.6,16.9
16.0,165.5,144.8,132.3,136.5,144.8,14.8
16.5,167.7,144.3,132.1,136.5,145.1,15.9
17.0,163.7,143.5,131.2,134.1,143.1,14.7
17.5,165.9,141.9,130.6,131.3,142.4,16.5
18.0,160.5,143.0,129.4,133.4,141.6,13.8
18.5,162.3,143.8,130.9,131.0,142.0,14.8
19.0,161.4,141.4,127.9,130.5,140.3,15.2
19.5,158.0,142.1,129.0,131.9,140.3,13.1
20.0,158.2,143.8,130.0,132.3,141.1,12.9
20.5,151.6,141.4,129.1,128.8,137.7,11.0
21.0,154.2,142.6,128.1,128.0,138.2,12.7
21.5,154.5,141.6,128.9,129.0,138.5,12.2
22.0,150.1,140.9,127.2,128.2,136.6,10.9
22.5,147.2,142.1,126.8,125.8,135.5,10.8
23.0,147.0,139.8,126.9,127.2,135.2,9.9
23.5,145.5,138.5,125.9,127.5,134.3,9.3
24.0,145.3,138.8,123.5,126.6,133.6,10.3
24.5,144.2,138.1,125.1,123.0,132.6,10.2
25.0,144.0,139.3,126.7,126.3,134.1,9.0
25.5,144.9,136.0,125.2,125.5,132.9,9.4
26.0,142.2,136.8,123.7,123.9,131.6,9.3
26.5,143.4,136.5,124.1,124.9,132.2,9.4
27.0,139.5,134.8,123.7,122.1,130.0,8.4
27.5,137.5,132.8,125.7,123.5,129.9,6.4
28.0,139.8,134.2,123.3,121.4,129.7,8.8
28.5,138.5,132.0,121.9,121.6,128.5,8.2
29.0,134.2,131.8,122.1,119.5,126.9,7.2
29.5,135.8,130.4,121.5,120.8,127.1,7.2
30.0,136.3,131.1,119.8,118.9,126.5,8.6
30.5,133.0,130.5,121.7,117.5,125.7,7.3
31.0,132.2,129.5,119.4,117.8,124.7,7.2
31.5,133.3,130.6,118.8,118.8,125.4,7.7
32.0,129.8,129.6,120.8,118.5,124.7,5.9
32.5,131.9,127.5,117.1,116.4,123.2,7.7
33.0,129.8,126.9,116.4,115.1,122.1,7.4
33.5,129.6,126.9,117.2,115.4,122.3,7.0
34.0,128.8,125.8,116.9,114.3,121.5,6.9
34.5,129.3,126.3,115.0,115.1,121.5,7.5
35.0,127.9,126.2,115.9,113.1,120.8,7.3
35.5,125.7,123.5,114.0,114.5,119.4,6.0
36.0,124.6,123.6,113.2,113.8,118.8,6.1
36.5,127.0,123.1,114.2,112.0,119.1,7.2
37.0,125.2,124.7,113.0,110.5,118.3,7.7
37.5,124.1,123.0,113.4,111.7,118.0,6.4
38.0,123.6,123.0,114.7,109.3,117.6,6.9
38.5,122.2,122.1,112.9,108.0,116.3,7.0
39.0,121.6,123.8,112.0,109.0,116.6,7.2
39.5,121.7,123.7,114.0,109.7,117.3,6.6
40.0,121.4,121.8,112.3,109.5,116.2,6.3
40.5,121.0,120.7,112.3,108.3,115.6,6.3
41.0,121.0,119.9,110.7,109.2,115.2,6.1
41.5,121.3,119.8,110.9,108.6,115.2,6.3
42.0,118.2,118.0,110.5,109.6,114.1,4.6
42.5,118.2,119.3,109.7,108.4,113.9,5.6
43.0,117.9,117.6,111.7,106.6,113.4,5.4
43.5,118.3,117.5,109.3,106.4,112.9,5.9
44.0,116.9,116.9,108.3,107.7,112.4,5.2
44.5,118.0,115.0,109.1,104.9,111.7,5.9
45.0,117.4,116.2,109.2,105.8,112.1,5.6
45.5,114.5,114.0,108.0,106.3,110.7,4.1
46.0,114.0,114.8,106.3,107.3,110.6,4.4
46.5,116.4,114.0,106.1,106.0,110.6,5.4
47.0,115.8,113.7,107.5,103.8,110.2,5.5
47.5,111.5,112.7,106.2,103.5,108.5,4.4
48.0,112.5,112.7,105.1,104.8,108.8,4.4
48.5,111.9,111.9,105.5,104.1,108.4,4.1
49.0,112.8,113.6,107.3,103.3,109.2,4.8
49.5,111.2,110.1,104.6,104.2,107.5,3.6
50.0,111.2,111.0,103.9,102.5,107.2,4.6
50.5,111.0,113.8,105.2,103.4,108.4,4.9
51.0,109.0,111.6,103.9,103.2,106.9,4.1
51.5,110.4,111.3,104.2,101.9,107.0,4.6
52.0,109.0,112.0,103.5,100.0,106.1,5.4
52.5,108.7,110.3,103.2,101.2,105.9,4.4
53.0,109.5,110.9,102.6,100.3,105.8,5.2
53.5,109.9,111.1,104.0,100.7,106.4,4.9
54.0,108.3,108.8,100.8,100.1,104.5,4.7
54.5,108.1,109.3,102.7,99.5,104.9,4.6
55.0,104.7,110.1,101.5,99.9,104.1,4.5
55.5,105.7,107.8,100.6,98.9,103.3,4.2
56.0,107.1,107.8,100.0,98.4,103.3,4.8
56.5,104.2,105.5,100.0,99.7,102.3,2.9
57.0,104.0,106.3,98.4,98.7,101.9,3.9
57.5,104.4,106.9,99.9,97.2,102.1,4.4
58.0,104.1,104.1,98.1,96.6,100.7,4.0
58.5,104.3,104.9,98.0,98.0,101.3,3.8
59.0,104.1,104.8,98.1,96.7,100.9,4.1
59.5,101.5,103.9,97.8,96.2,99.9,3.5
60.0,102.9,104.3,99.3,97.6,101.0,3.1
60.5,102.0,104.2,98.9,97.1,100.6,3.2
61.0,98.9,103.6,98.7,95.1,99.1,3.5
61.5,99.8,104.1,97.5,96.9,99.6,3.3
62.0,100.0,102.7,98.4,96.1,99.3,2.8
62.5,98.5,101.6,97.4,95.6,98.3,2.5
63.0,98.7,102.2,98.4,94.2,98.4,3.3
63.5,98.1,101.7,97.6,96.3,98.4,2.3
64.0,98.1,100.9,97.0,95.0,97.8,2.4
64.5,97.0,101.1,97.1,95.2,97.6,2.5
65.0,97.6,100.7,97.8,94.5,97.7,2.5
65.5,96.6,101.7,97.2,95.1,97.6,2.9
66.0,96.5,101.7,96.3,94.5,97.2,3.1
66.5,95.6,100.7,96.9,94.2,96.9,2.8
67.0,95.1,99.9,95.1,92.8,95.7,3.0
67.5,95.3,101.2,95.0,93.4,96.2,3.4
68.0,94.5,99.6,94.6,93.4,95.5,2.7
68.5,93.2,98.8,96.0,93.1,95.3,2.7
69.0,94.5,98.5,93.8,92.0,94.7,2.8
69.5,94.5,100.0,93.5,92.8,95.2,3.3
70.0,93.9,97.7,93.1,93.1,94.4,2.2
70.5,94.3,96.6,93.2,92.2,94.1,1.9
71.0,94.3,97.9,93.3,91.9,94.3,2.6
71.5,93.0,97.9,92.3,91.3,93.6,2.9
72.0,94.0,97.5,92.2,91.6,93.8,2.6
72.5,93.0,96.0,93.0,91.4,93.3,1.9
73.0,93.1,97.2,92.4,92.2,93.7,2.4
73.5,92.8,97.5,92.9,91.6,93.7,2.6
74.0,93.8,97.3,92.2,91.1,93.6,2.7
74.5,93.7,97.4,92.4,90.2,93.4,3.0
75.0,91.8,96.4,92.3,91.5,93.0,2.3
75.5,90.5,95.4,93.0,91.7,92.7,2.1
76.0,92.0,94.7,93.2,90.4,92.6,1.8
76.5,91.1,95.1,92.9,89.6,92.2,2.3
77.0,90.2,94.5,92.8,90.0,91.9,2.2
77.5,90.5,94.5,92.4,89.3,91.7,2.3
78.0,91.5,95.3,91.4,90.2,92.1,2.2
78.5,90.4,94.9,90.8,88.0,91.0,2.9
79.0,89.7,94.5,91.1,90.2,91.4,2.2
79.5,89.0,93.1,90.2,87.7,90.0,2.3
80.0,88.4,93.6,89.9,89.5,90.3,2.3
80.5,89.7,93.6,91.0,87.9,90.5,2.4
81.0,89.4,92.5,89.2,88.7,89.9,1.7
81.5,88.4,93.1,88.8,88.3,89.6,2.3
82.0,88.3,93.7,89.2,87.8,89.8,2.7
82.5,89.8,92.6,90.5,88.7,90.4,1.6
83.0,88.4,91.3,88.8,87.3,89.0,1.7
83.5,89.1,92.0,90.1,88.9,90.1,1.4
84.0,88.3,91.1,88.7,87.2,88.8,1.7
84.5,89.7,91.2,90.0,87.7,89.6,1.4
85.0,88.7,91.5,90.7,86.3,89.3,2.4
85.5,87.7,90.9,89.0,87.4,88.8,1.6
86.0,88.4,90.8,89.8,88.1,89.3,1.3
86.5,88.5,90.5,90.4,88.2,89.4,1.2
87.0,87.8,90.4,88.9,86.4,88.4,1.7
87.5,87.7,91.0,88.4,86.6,88.4,1.9
88.0,88.2,90.5,88.5,85.6,88.2,2.0
88.5,88.0,90.1,88.0,86.0,88.0,1.7
89.0,88.5,90.1,87.0,85.2,87.7,2.1
89.5,86.3,90.4,85.3,85.0,86.7,2.5
90.0,86.0,89.0,87.5,85.6,87.0,1.6
90.5,86.5,90.0,87.8,85.7,87.5,1.9
91.0,87.1,90.1,86.5,86.6,87.6,1.7
91.5,87.1,89.1,83.9,83.7,85.9,2.6
92.0,86.8,88.1,84.8,84.1,85.9,1.8
92.5,85.7,87.1,83.6,84.4,85.2,1.5
93.0,85.4,87.1,83.8,83.5,84.9,1.6
93.5,85.9,87.6,83.0,84.8,85.3,1.9
94.0,84.7,87.1,83.4,83.5,84.7,1.7
94.5,85.3,86.6,83.2,83.0,84.5,1.7
95.0,85.1,85.8,82.3,83.7,84.2,1.6
95.5,84.5,87.3,82.0,82.2,84.0,2.5
96.0,84.5,85.9,81.8,83.7,84.0,1.7
96.5,85.1,85.7,82.4,83.4,84.1,1.5
97.0,86.2,84.7,81.7,82.8,83.9,2.0
97.5,83.8,84.4,83.3,82.0,83.4,1.0
98.0,82.5,84.8,81.2,82.0,82.6,1.6
98.5,84.3,85.4,81.0,81.6,83.1,2.1
99.0,83.1,84.2,79.6,81.1,82.0,2.0
99.5,83.6,85.2,80.3,81.4,82.6,2.2
100.0,84.4,83.9,81.1,80.8,82.5,1.8
100.5,83.7,84.8,80.4,79.6,82.1,2.5
101.0,82.8,84.1,79.0,80.7,81.7,2.2
101.5,84.3,84.2,79.5,80.4,82.1,2.5
102.0,82.5,83.6,80.8,78.9,81.5,2.0
102.5,83.3,83.0,79.2,78.9,81.1,2.4
103.0,82.8,82.8,80.3,79.2,81.3,1.8
103.5,82.6,83.0,78.6,79.8,81.0,2.2
104.0,83.0,83.5,79.9,79.1,81.4,2.2
104.5,83.8,82.0,78.2,80.1,81.0,2.4
105.0,83.3,81.2,79.3,78.6,80.6,2.1
105.5,82.4,80.9,78.5,78.3,80.0,2.0
106.0,82.0,81.5,78.0,78.6,80.0,2.0
106.5,80.8,80.1,77.1,77.3,78.8,1.9
107.0,81.0,80.9,76.5,79.1,79.4,2.1
107.5,80.2,80.6,77.0,77.0,78.7,2.0
108.0,79.5,79.4,76.1,77.0,78.0,1.7
108.5,80.0,79.0,76.0,76.7,77.9,1.9
109.0,79.9,79.6,76.5,76.5,78.1,1.9
109.5,78.6,80.3,76.3,76.9,78.0,1.8
110.0,78.7,79.6,76.0,76.6,77.7,1.7
110.5,79.2,79.9,75.9,76.2,77.8,2.0
111.0,78.6,79.5,75.1,74.1,76.8,2.6
111.5,78.8,80.0,75.0,75.7,77.4,2.4
112.0,77.8,80.2,75.3,75.1,77.1,2.4
112.5,77.6,79.8,76.1,74.6,77.0,2.2
113.0,77.4,79.2,76.4,75.4,77.1,1.6
113.5,76.3,77.0,77.0,74.3,76.2,1.3
114.0,77.0,79.2,76.4,74.8,76.8,1.8
114.5,78.1,78.9,76.0,73.8,76.7,2.3
115.0,75.6,77.9,76.3,73.9,75.9,1.7
115.5,76.3,79.6,76.3,74.2,76.6,2.3
116.0,76.1,78.6,76.4,73.6,76.2,2.0
116.5,76.5,79.1,77.2,73.5,76.6,2.3
117.0,75.6,78.9,76.2,73.6,76.1,2.2
117.5,75.2,78.6,77.4,73.5,76.2,2.3
118.0,76.2,79.0,76.8,73.1,76.3,2.4
118.5,75.7,77.6,75.4,72.8,75.3,2.0
119.0,75.5,78.7,76.7,72.2,75.8,2.7
119.5,75.1,78.1,75.9,73.3,75.6,2.0
120.0,75.7,77.8,76.0,72.5,75.5,2.2
120.5,76.6,78.0,75.9,71.7,75.5,2.7
121.0,76.6,77.6,76.2,71.8,75.5,2.6
121.5,75.5,78.0,74.1,71.6,74.8,2.7
122.0,74.9,77.5,74.9,71.4,74.7,2.5
122.5,75.0,78.4,74.3,70.8,74.6,3.1
123.0,74.4,76.9,74.7,71.1,74.3,2.4
123.5,75.9,77.0,73.9,70.5,74.3,2.8
124.0,74.3,77.1,73.3,70.2,73.7,2.9
124.5,74.2,77.0,73.3,70.6,73.8,2.6
125.0,74.1,76.8,74.1,69.9,73.7,2.8
125.5,74.3,75.9,73.0,70.0,73.3,2.5
126.0,74.0,75.7,72.3,69.5,72.9,2.6
126.5,75.4,74.9,73.0,70.0,73.3,2.4
127.0,74.3,75.2,72.4,69.3,72.8,2.6
127.5,73.9,74.1,73.3,70.0,72.8,1.9
128.0,74.0,74.8,72.2,69.0,72.5,2.6
128.5,73.2,75.5,72.0,68.8,72.4,2.8
129.0,73.6,75.9,72.4,68.9,72.7,2.9
129.5,75.3,74.1,71.6,68.9,72.5,2.8
130.0,74.3,74.0,70.6,68.5,71.9,2.8
130.5,74.9,76.0,70.7,69.7,72.8,3.1
131.0,73.4,75.0,71.4,68.4,72.1,2.8
131.5,75.0,74.2,69.6,69.0,72.0,3.1
132.0,74.5,74.6,69.1,67.7,71.5,3.6
132.5,74.1,75.3,70.2,67.2,71.7,3.7
133.0,74.9,73.8,70.3,69.0,72.0,2.8
133.5,74.9,73.0,70.1,68.0,71.5,3.0
134.0,75.2,73.4,70.5,67.7,71.7,3.3
134.5,73.7,72.7,69.1,67.9,70.9,2.8
135.0,74.1,73.6,71.0,68.0,71.7,2.8
135.5,73.5,74.2,69.7,67.8,71.3,3.0
136.0,74.8,73.1,67.6,67.5,70.8,3.7
136.5,73.6,73.8,69.4,67.2,71.0,3.3
137.0,74.8,74.3,68.2,66.4,70.9,4.3
137.5,74.5,73.6,68.0,66.8,70.7,3.9
138.0,74.9,74.5,68.8,66.1,71.1,4.3
138.5,73.6,73.9,68.8,67.5,71.0,3.3
139.0,74.3,74.8,67.9,65.5,70.6,4.7
139.5,74.6,72.9,67.3,65.4,70.1,4.4
140.0,74.0,73.0,67.8,66.0,70.2,3.9
140.5,74.2,73.8,68.6,65.5,70.5,4.2
141.0,74.6,72.8,66.7,65.8,70.0,4.4
141.5,74.6,74.4,68.0,65.7,70.7,4.5
142.0,74.9,73.0,67.1,64.9,70.0,4.7
142.5,74.2,73.2,68.4,65.3,70.3,4.1
143.0,74.8,73.4,68.7,63.6,70.1,5.0
143.5,73.6,73.6,68.5,64.8,70.1,4.3
144.0,73.6,73.4,69.1,64.1,70.0,4.5
144.5,74.2,73.3,68.8,64.3,70.1,4.6
145.0,73.7,72.8,68.5,64.3,69.8,4.3
145.5,73.1,74.1,67.2,64.9,69.8,4.5
146.0,73.6,74.0,67.0,63.5,69.5,5.2
146.5,74.1,72.7,67.1,64.0,69.5,4.7
147.0,73.5,73.0,67.1,63.1,69.2,5.0
147.5,73.1,73.2,67.3,63.1,69.2,4.9
148.0,72.9,73.7,67.1,63.9,69.4,4.7
148.5,74.3,72.9,65.4,63.0,68.9,5.6
149.0,73.6,73.8,66.2,63.5,69.3,5.2
149.5,73.2,73.4,66.7,63.6,69.2,4.9
150.0,74.3,74.0,65.3,62.6,69.1,6.0
150.5,74.9,72.3,65.6,63.4,69.0,5.4
151.0,74.7,72.8,65.5,62.9,69.0,5.7
151.5,74.7,73.5,65.8,62.7,69.2,5.8
152.0,74.8,73.3,64.9,63.5,69.2,5.8
152.5,75.5,73.9,65.6,62.7,69.4,6.2
153.0,74.9,73.2,66.1,62.4,69.1,5.9
153.5,74.8,74.2,65.8,61.6,69.1,6.5
154.0,75.2,74.0,65.1,62.3,69.1,6.4
154.5,73.9,74.2,64.5,61.8,68.6,6.4
155.0,75.2,73.1,64.8,62.8,69.0,6.1
155.5,76.5,74.0,64.2,62.2,69.2,7.1
156.0,75.8,72.3,65.3,61.7,68.8,6.4
156.5,74.5,73.3,64.9,61.8,68.6,6.2
157.0,73.8,73.8,65.4,61.7,68.7,6.1
157.5,74.0,73.7,64.6,62.0,68.6,6.2
158.0,76.3,73.0,65.0,61.6,69.0,6.8
158.5,76.4,73.3,65.0,61.7,69.1,6.9
159.0,74.6,73.6,64.6,61.8,68.7,6.4
159.5,75.2,73.0,65.5,62.1,68.9,6.2
160.0,75.3,74.2,65.6,61.8,69.2,6.6
160.5,75.4,73.6,64.7,60.8,68.6,7.0
161.0,76.7,73.7,64.3,61.1,69.0,7.4
161.5,75.0,75.2,64.6,60.8,68.9,7.3
162.0,75.6,73.9,64.9,61.5,69.0,6.9
162.5,77.3,73.9,65.9,60.5,69.4,7.6
163.0,76.3,74.5,64.5,60.1,68.8,7.8
163.5,75.9,74.2,65.4,60.6,69.0,7.3
164.0,76.6,74.2,64.3,61.1,69.0,7.5
164.5,77.1,74.2,65.7,60.1,69.3,7.8
165.0,78.4,74.5,65.3,60.3,69.6,8.3
165.5,77.5,74.7,65.1,59.7,69.2,8.3
166.0,77.3,73.9,65.1,59.2,68.9,8.3
166.5,77.6,73.8,64.5,60.2,69.1,8.1
167.0,78.5,73.0,64.9,61.0,69.3,7.9
167.5,79.1,73.4,64.3,59.7,69.1,8.8
168.0,78.6,73.5,65.0,59.7,69.2,8.4
168.5,80.1,73.0,63.4,60.9,69.4,8.9
169.0,79.1,72.6,64.0,59.4,68.8,8.8
169.5,79.9,72.9,64.3,59.7,69.2,9.0
170.0,79.2,72.6,64.6,59.6,69.0,8.7
170.5,79.3,72.7,64.3,59.3,68.9,8.8
171.0,81.1,73.8,63.6,59.2,69.4,9.9
171.5,78.9,73.5,64.6,59.8,69.2,8.6
172.0,80.9,73.6,63.3,59.4,69.3,9.8
172.5,80.9,73.9,62.7,60.0,69.4,9.8
173.0,80.7,74.0,63.1,59.4,69.3,9.8
173.5,82.3,73.2,62.3,59.8,69.4,10.4
174.0,81.8,73.3,63.0,59.4,69.4,10.1
174.5,81.0,73.6,63.3,60.0,69.5,9.6
175.0,82.1,72.9,63.1,59.7,69.5,10.1
175.5,82.1,74.3,62.7,59.6,69.7,10.4
176.0,81.5,75.0,63.4,59.8,69.9,10.1
176.5,81.7,74.3,62.8,59.2,69.5,10.4
177.0,82.0,74.9,63.0,59.3,69.8,10.5
177.5,82.6,75.8,63.4,59.6,70.4,10.7
178.0,83.0,75.1,63.3,59.9,70.3,10.6
178.5,82.2,76.2,64.0,60.1,70.6,10.3
179.0,83.4,75.9,62.7,59.9,70.5,11.1
179.5,82.6,75.7,62.8,59.7,70.2,10.8
180.0,83.6,76.9,63.4,60.3,71.1,11.0
180.5,83.6,77.2,63.6,60.3,71.2,11.1
181.0,84.2,76.7,63.2,59.7,71.0,11.5
181.5,84.9,77.4,63.4,60.5,71.6,11.5
182.0,85.4,77.2,64.6,60.1,71.8,11.6
182.5,85.3,76.9,64.0,59.4,71.4,11.9
183.0,85.6,78.3,64.7,59.7,72.1,12.0
183.5,87.6,77.7,65.1,60.3,72.7,12.4
184.0,88.1,76.9,65.8,60.6,72.8,12.2
184.5,89.3,78.2,67.5,60.8,74.0,12.5
185.0,88.9,76.9,65.3,60.7,73.0,12.6
185.5,89.0,78.2,66.8,60.3,73.6,12.7
186.0,91.1,77.3,65.9,61.4,73.9,13.3
186.5,89.6,79.1,66.7,61.1,74.1,12.8
187.0,89.7,78.7,65.6,62.2,74.1,12.7
187.5,88.6,78.9,66.1,61.3,73.7,12.4
188.0,90.9,79.6,66.0,61.5,74.5,13.4
188.5,91.0,79.4,65.4,60.7,74.1,13.8
189.0,91.0,79.5,66.1,62.8,74.8,13.0
189.5,92.0,79.7,66.1,62.3,75.0,13.5
190.0,91.6,80.7,67.8,62.6,75.7,13.0
190.5,91.1,81.8,66.7,63.1,75.7,13.1
191.0,92.3,80.5,66.9,62.2,75.5,13.6
191.5,93.1,81.1,66.5,62.8,75.9,13.9
192.0,90.5,81.2,67.3,62.9,75.5,12.7
192.5,93.6,81.1,66.8,63.5,76.3,13.9
193.0,93.9,81.7,67.4,63.4,76.6,13.9
193.5,94.9,81.9,67.1,63.3,76.8,14.5
194.0,92.6,82.8,67.2,64.0,76.6,13.4
194.5,93.8,83.7,66.8,64.5,77.2,14.0
195.0,95.0,83.2,67.7,63.6,77.4,14.5
195.5,95.5,83.9,68.5,63.9,77.9,14.5
196.0,93.6,84.4,67.8,63.8,77.4,14.0
196.5,95.6,82.4,67.8,64.0,77.5,14.5
197.0,97.3,83.3,68.7,64.5,78.5,14.9
197.5,99.0,82.5,67.6,64.6,78.4,15.8
198.0,98.2,83.1,68.7,64.8,78.7,15.2
198.5,98.6,83.8,68.0,64.0,78.6,15.8
199.0,97.2,84.3,67.7,64.7,78.5,15.1
199.5,97.6,83.8,67.5,65.7,78.6,15.0
200.0,98.9,83.7,68.8,66.2,79.4,15.1
200.5,99.2,83.8,68.2,65.3,79.1,15.6
201.0,99.4,84.0,68.7,65.5,79.4,15.6
201.5,99.5,84.8,68.4,65.8,79.6,15.7
202.0,102.4,86.0,69.0,65.2,80.7,17.1
202.5,101.7,85.3,69.3,66.4,80.7,16.3
203.0,102.7,85.2,68.7,67.2,81.0,16.6
203.5,103.0,86.1,69.2,65.4,80.9,17.3
204.0,102.6,85.7,68.7,65.2,80.6,17.2
204.5,102.9,86.5,70.2,65.2,81.2,17.1
205.0,103.5,86.2,69.8,65.5,81.2,17.3
205.5,105.3,87.3,69.8,66.9,82.3,17.8
206.0,104.1,86.4,70.2,66.1,81.7,17.3
206.5,106.5,86.8,70.3,66.5,82.5,18.3
207.0,105.8,86.6,70.3,66.7,82.4,17.9
207.5,104.5,88.0,70.6,67.3,82.6,17.2
208.0,106.4,87.6,70.4,67.1,82.9,18.1
208.5,107.5,85.5,72.3,67.7,83.2,17.9
209.0,108.0,88.0,71.2,68.1,83.8,18.3
209.5,106.7,88.5,71.3,67.0,83.4,18.1
210.0,108.4,89.3,70.7,66.7,83.8,19.2
210.5,108.4,87.6,71.9,66.9,83.7,18.7
211.0,109.7,89.3,72.0,67.1,84.5,19.3
211.5,109.5,88.7,72.0,67.9,84.5,18.9
212.0,110.8,88.4,72.6,69.0,85.2,19.1
212.5,112.4,90.0,72.3,68.2,85.7,20.1
213.0,111.2,89.8,72.1,66.9,85.0,20.0
213.5,111.5,89.7,73.2,68.7,85.8,19.4
214.0,111.5,90.5,73.4,67.1,85.6,19.9
214.5,114.2,90.4,73.4,67.3,86.3,21.0
215.0,110.9,90.6,73.5,68.5,85.9,19.2
215.5,114.0,91.0,73.8,68.1,86.7,20.6
216.0,115.3,91.2,73.6,68.1,87.0,21.2
216.5,113.7,91.2,74.5,67.3,86.6,20.6
217.0,113.5,92.2,73.5,67.8,86.8,20.7
217.5,115.6,92.9,74.0,69.3,88.0,21.0
218.0,113.6,92.7,74.0,70.1,87.6,19.9
218.5,114.2,91.6,75.0,68.6,87.4,20.4
219.0,115.2,93.1,75.1,69.2,88.1,20.7
219.5,116.1,93.7,76.0,69.0,88.7,21.0
220.0,113.8,93.3,76.0,69.8,88.2,19.7
220.5,115.6,93.6,76.1,68.8,88.5,20.8
221.0,119.1,94.4,76.8,69.0,89.8,22.2
221.5,118.7,94.6,76.6,70.7,90.1,21.6
222.0,117.4,93.6,76.8,69.1,89.2,21.4
222.5,118.2,95.5,76.3,69.4,89.8,21.9
223.0,119.6,94.6,76.3,69.4,90.0,22.4
223.5,119.7,94.8,77.1,70.5,90.5,22.0
224.0,118.5,94.6,75.5,69.8,89.6,22.0
224.5,120.3,94.6,77.4,70.5,90.7,22.2
225.0,119.9,96.5,76.7,70.0,90.8,22.4
225.5,120.0,95.7,77.5,70.3,90.9,22.2
226.0,120.1,94.8,76.4,70.4,90.4,22.3
226.5,120.9,95.7,78.6,71.5,91.7,22.0
227.0,121.3,96.0,76.6,70.9,91.2,22.7
227.5,119.4,95.5,77.3,71.4,90.9,21.6
228.0,121.3,96.0,77.5,72.5,91.8,22.1
228.5,119.9,96.9,76.7,71.3,91.2,22.1
229.0,122.2,96.2,77.4,72.3,92.0,22.6
229.5,120.8,97.3,79.4,71.8,92.3,21.8
230.0,120.3,100.2,78.9,72.5,93.0,21.7
230.5,122.9,99.0,77.9,71.9,92.9,23.1
231.0,122.2,98.9,78.6,73.2,93.2,22.3
231.5,121.1,98.9,78.6,73.3,93.0,21.8
232.0,120.9,98.4,78.6,73.8,92.9,21.5
232.5,122.7,100.6,78.2,73.0,93.6,22.8
233.0,124.0,99.8,78.5,73.1,93.8,23.2
233.5,125.0,99.7,78.8,73.0,94.1,23.6
234.0,125.7,98.7,78.7,73.7,94.2,23.6
234.5,123.4,101.1,79.2,72.9,94.1,22.9
235.0,124.4,101.1,79.7,73.3,94.6,23.1
235.5,124.5,102.5,78.6,75.9,95.3,22.8
236.0,124.3,100.3,78.0,74.5,94.3,23.0
236.5,126.6,104.5,79.4,75.3,96.5,23.9
237.0,126.6,103.4,79.2,77.0,96.6,23.4
237.5,128.5,102.3,79.4,75.3,96.4,24.5
238.0,128.2,102.7,80.4,75.7,96.7,24.1
238.5,129.5,103.4,79.9,77.6,97.6,24.3
239.0,130.5,103.0,80.2,77.6,97.8,24.6
239.5,127.0,103.1,81.1,77.1,97.1,23.0
240.0,131.1,103.0,81.9,77.1,98.3,24.6
240.5,129.5,105.3,81.1,77.0,98.2,24.3
241.0,130.4,103.4,81.8,77.1,98.2,24.3
241.5,129.5,104.7,82.3,76.1,98.1,24.2
242.0,129.6,103.8,82.0,75.9,97.8,24.3
242.5,132.0,105.1,82.1,77.5,99.2,25.0
243.0,131.1,106.3,81.9,78.5,99.4,24.5
243.5,132.0,108.1,82.6,78.0,100.2,25.0
244.0,131.7,106.1,82.3,78.0,99.5,24.8
244.5,132.2,106.2,83.4,77.4,99.8,24.9
245.0,132.2,105.9,82.0,78.3,99.6,24.9
245.5,131.9,107.3,82.6,78.5,100.1,24.7
246.0,130.9,105.5,83.3,79.3,99.8,23.8
246.5,135.1,106.4,84.0,79.4,101.2,25.5
247.0,131.1,106.2,82.5,78.0,99.5,24.5
247.5,135.2,108.7,83.6,79.2,101.7,25.8
248.0,134.6,109.2,84.2,78.6,101.7,25.7
248.5,133.8,108.3,83.3,78.9,101.1,25.4
249.0,137.9,109.0,84.3,79.3,102.6,26.9
249.5,138.6,109.3,84.9,79.0,103.0,27.1
250.0,134.8,107.3,85.0,79.5,101.6,25.1
250.5,136.0,108.1,85.7,78.5,102.1,25.9
251.0,136.8,111.3,85.2,79.2,103.1,26.4
251.5,139.0,109.2,85.3,79.7,103.3,27.0
252.0,138.9,109.2,86.3,79.5,103.5,26.8
252.5,139.1,112.3,87.4,80.3,104.8,26.7
253.0,139.1,110.8,87.5,81.2,104.6,26.3
253.5,140.5,109.2,87.2,79.9,104.2,27.2
254.0,141.3,109.8,88.0,80.0,104.8,27.4
254.5,142.1,110.4,87.2,80.4,105.0,27.8
255.0,142.1,109.4,88.9,81.3,105.4,27.2
255.5,142.6,111.5,88.6,80.8,105.9,27.7
256.0,142.9,112.6,88.4,82.4,106.6,27.5
256.5,142.7,110.8,88.6,81.3,105.9,27.6
257.0,144.0,110.3,89.5,81.9,106.4,27.8
257.5,144.8,112.3,89.9,80.8,107.0,28.5
258.0,145.1,111.3,88.6,84.3,107.3,27.8
258.5,145.0,113.3,89.1,82.7,107.5,28.2
259.0,145.3,113.7,89.5,82.9,107.8,28.3
259.5,147.6,112.4,89.3,84.4,108.4,28.8
260.0,145.5,111.8,89.4,83.9,107.6,28.0
260.5,148.8,112.7,89.0,83.2,108.4,29.8
261.0,148.1,112.2,90.4,84.5,108.8,28.8
261.5,147.3,112.1,90.6,83.7,108.4,28.6
262.0,147.2,114.9,90.1,83.7,108.9,28.8
262.5,148.5,113.2,91.3,84.2,109.3,28.9
263.0,152.0,113.8,91.5,84.3,110.4,30.5
263.5,149.0,113.5,92.4,82.9,109.5,29.3
264.0,151.3,113.3,91.3,84.4,110.1,30.1
264.5,152.9,113.1,91.5,85.6,110.8,30.4
265.0,150.4,114.9,92.8,84.9,110.8,29.3
265.5,151.3,114.3,92.1,84.0,110.4,30.1
266.0,148.4,113.1,94.2,85.8,110.3,27.8
266.5,149.3,115.4,93.5,85.3,110.9,28.6
267.0,151.6,114.8,94.5,85.9,111.7,29.2
267.5,150.6,113.5,93.5,86.4,111.0,28.8
268.0,152.5,115.4,95.1,86.5,112.4,29.4
268.5,151.6,115.3,94.1,86.7,111.9,29.1
269.0,151.4,116.1,94.0,86.9,112.1,29.0
269.5,152.6,116.0,96.2,86.3,112.8,29.3
270.0,151.2,114.3,95.5,86.3,111.8,28.7
270.5,154.2,115.0,95.9,86.2,112.8,30.1
271.0,149.6,116.9,97.3,85.8,112.4,27.9
271.5,152.4,115.8,95.5,86.8,112.6,29.2
272.0,149.9,115.9,96.3,85.9,112.0,28.2
272.5,153.9,116.9,97.5,86.3,113.7,29.7
273.0,153.9,116.8,96.6,87.6,113.7,29.4
273.5,152.7,117.9,97.7,88.0,114.1,28.6
274.0,153.6,116.8,96.6,87.3,113.6,29.4
274.5,154.8,117.7,95.7,88.0,114.1,29.9
275.0,153.5,118.3,96.7,87.9,114.1,29.2
275.5,153.4,119.6,96.1,88.2,114.3,29.3
276.0,151.6,120.4,97.1,90.0,114.8,27.8
276.5,151.1,119.8,96.7,90.3,114.5,27.5
277.0,153.8,118.5,96.5,89.7,114.6,28.9
277.5,150.7,120.7,97.2,90.5,114.8,27.2
278.0,149.2,120.6,97.7,90.8,114.6,26.4
278.5,152.3,120.0,97.1,91.6,115.3,27.6
279.0,152.2,122.2,99.7,91.3,116.4,27.2
279.5,151.8,123.2,99.0,92.2,116.5,27.0
280.0,150.3,123.1,97.7,92.6,115.9,26.5
280.5,151.6,121.6,97.4,93.3,116.0,26.8
281.0,153.1,122.8,99.9,93.2,117.3,27.0
281.5,150.0,123.0,99.9,93.4,116.6,25.7
282.0,150.6,124.5,99.3,93.3,116.9,26.2
282.5,147.4,126.0,100.1,93.6,116.8,24.7
283.0,149.2,124.7,101.5,93.1,117.1,25.2
283.5,149.5,124.2,101.3,93.9,117.2,25.1
284.0,147.2,125.6,102.2,94.8,117.5,23.8
284.5,148.9,125.5,102.0,93.4,117.5,25.0
285.0,148.4,125.6,101.4,94.1,117.4,24.7
285.5,148.7,125.0,102.1,95.2,117.8,24.3
286.0,146.6,126.6,102.4,95.1,117.7,23.5
286.5,148.3,127.0,101.2,95.5,118.0,24.4
287.0,146.1,127.5,102.5,96.0,118.0,23.1
287.5,144.7,125.9,103.2,95.9,117.4,22.2
288.0,143.6,127.7,102.5,95.8,117.4,22.2
288.5,144.8,127.0,101.9,95.8,117.4,22.7
289.0,147.3,129.0,101.9,97.6,118.9,23.5
289.5,143.4,127.8,102.7,96.0,117.5,22.0
290.0,142.2,129.3,102.2,95.7,117.3,22.0
290.5,142.4,129.0,102.9,95.7,117.5,21.9
291.0,142.3,128.2,103.3,96.1,117.5,21.5
291.5,139.3,133.5,104.7,98.9,119.1,20.3
292.0,140.1,130.2,101.2,97.4,117.2,21.1
292.5,139.2,130.0,101.5,97.9,117.1,20.5
293.0,141.6,131.3,101.8,97.6,118.0,21.7
293.5,139.3,131.7,103.4,97.3,117.9,20.7
294.0,137.0,130.6,103.7,96.7,117.0,19.8
294.5,138.2,130.1,101.9,97.9,117.0,20.1
295.0,138.4,131.0,102.8,98.5,117.7,20.0
295.5,138.2,130.9,103.7,100.2,118.2,19.1
296.0,139.2,129.7,102.7,98.3,117.5,20.1
296.5,136.6,131.4,102.6,98.7,117.3,19.4
297.0,137.4,130.7,104.9,99.6,118.2,18.7
297.5,138.7,131.0,104.2,99.5,118.3,19.4
298.0,136.3,131.4,103.0,99.8,117.6,18.9
298.5,138.8,132.3,102.7,101.2,118.7,19.6
299.0,138.6,132.6,103.0,101.3,118.9,19.5
299.5,139.9,132.8,101.6,101.3,118.9,20.3
300.0,139.8,133.6,102.8,100.7,119.2,20.3
300.5,137.5,131.9,103.0,100.4,118.2,19.2
301.0,139.2,130.0,103.2,100.7,118.3,19.2
301.5,139.4,132.1,103.6,103.0,119.5,19.0
302.0,138.0,131.4,103.2,102.6,118.8,18.6
302.5,139.7,133.7,105.5,103.1,120.5,18.9
303.0,141.9,130.9,105.0,101.7,119.9,19.6
303.5,141.1,132.7,106.1,102.2,120.5,19.3
304.0,141.5,131.7,105.1,104.3,120.6,18.8
304.5,142.8,131.5,104.2,103.1,120.4,19.9
305.0,147.9,132.9,106.7,103.1,122.6,21.4
305.5,152.2,128.6,107.1,103.8,122.9,22.4
306.0,154.6,131.4,106.1,104.6,124.2,23.7
306.5,158.7,133.1,107.0,106.3,126.3,25.0
307.0,160.2,130.6,105.9,103.8,125.2,26.4
307.5,164.8,131.9,105.2,104.6,126.6,28.5
308.0,163.0,130.6,104.5,108.2,126.6,26.9
308.5,163.7,130.6,107.0,108.2,127.4,26.5
309.0,165.2,132.0,106.5,108.5,128.0,27.3
309.5,169.5,131.0,107.1,108.3,129.0,29.2
310.0,167.8,128.8,106.1,108.7,127.8,28.5
310.5,170.1,128.8,108.3,107.8,128.7,29.2
311.0,169.8,129.8,107.8,108.5,129.0,29.1
311.5,169.0,126.4,107.6,109.1,128.0,28.6
312.0,168.5,127.0,106.7,110.7,128.2,28.3
312.5,167.6,129.0,106.9,108.3,128.0,28.3
313.0,166.7,127.9,108.5,111.2,128.6,26.8
313.5,161.0,125.5,108.6,111.2,126.6,24.1
314.0,159.3,125.3,109.6,111.7,126.5,23.0
314.5,156.0,123.5,108.9,112.8,125.3,21.4
315.0,154.4,124.8,108.3,113.2,125.2,20.7
315.5,147.6,124.7,109.9,110.6,123.2,17.7
316.0,147.6,120.2,109.8,111.8,122.4,17.5
316.5,144.7,120.5,109.3,114.0,122.1,15.7
317.0,140.8,119.0,111.7,114.8,121.6,13.2
317.5,137.3,118.1,110.0,113.4,119.7,12.2
318.0,134.2,118.8,110.2,113.3,119.1,10.7
318.5,131.3,116.0,111.8,114.1,118.3,8.8
319.0,126.4,114.1,110.5,111.9,115.7,7.3
319.5,122.3,114.6,111.2,114.7,115.7,4.7
320.0,118.7,113.2,110.9,113.4,114.0,3.3
320.5,113.5,113.9,113.5,115.3,114.1,0.8
321.0,112.9,111.5,114.2,117.1,113.9,2.4
321.5,108.4,110.2,114.4,117.3,112.6,4.1
322.0,105.3,107.6,113.5,116.6,110.8,5.2
322.5,103.7,105.2,115.3,118.7,110.7,7.4
323.0,101.4,106.6,113.8,118.1,110.0,7.4
323.5,101.4,102.1,113.5,116.9,108.5,7.9
324.0,98.4,101.4,113.9,117.6,107.8,9.3
324.5,97.6,100.5,114.1,117.7,107.5,9.9
325.0,95.2,98.3,114.8,118.1,106.6,11.5
325.5,94.7,96.2,114.1,117.9,105.7,12.0
326.0,94.1,94.1,116.4,116.6,105.3,12.9
326.5,93.7,93.1,114.5,117.5,104.7,13.1
327.0,91.8,93.3,117.1,118.1,105.1,14.5
327.5,92.0,90.7,117.5,117.1,104.3,15.0
328.0,90.9,89.0,116.3,118.1,103.6,15.7
328.5,89.7,86.9,116.0,116.9,102.4,16.3
329.0,90.1,86.4,117.3,118.8,103.1,17.3
329.5,87.9,84.7,116.7,116.6,101.5,17.6
330.0,88.7,83.3,117.2,120.1,102.3,19.1
330.5,87.9,80.4,117.5,119.7,101.4,20.2
331.0,86.7,80.1,117.5,116.3,100.2,19.6
331.5,86.2,76.8,116.8,119.0,99.7,21.4
332.0,86.9,75.0,118.0,119.1,99.7,22.3
332.5,84.7,73.7,118.8,119.1,99.1,23.4
333.0,85.7,72.0,117.7,121.0,99.1,24.1
333.5,84.1,71.4,120.5,119.1,98.8,24.9
334.0,84.0,69.2,118.1,119.1,97.6,25.0
334.5,84.2,68.1,117.2,118.3,97.0,24.9
335.0,84.0,67.4,117.0,120.0,97.1,25.6
335.5,84.2,66.2,118.4,122.2,97.7,27.1
336.0,83.9,63.8,119.6,122.5,97.5,28.5
336.5,84.7,62.6,116.1,121.7,96.3,27.7
337.0,83.9,61.7,117.2,120.7,95.9,28.2
337.5,83.9,60.7,116.8,122.4,95.9,29.0
338.0,83.6,58.6,117.0,121.1,95.1,29.6
338.5,82.9,58.9,115.2,122.7,94.9,29.6
339.0,83.3,57.1,115.7,120.6,94.2,29.8
339.5,83.4,56.7,113.3,122.0,93.8,29.8
340.0,83.5,55.3,114.5,123.5,94.2,31.1
340.5,82.4,54.7,114.1,120.7,93.0,30.5
341.0,84.4,53.6,113.3,122.4,93.4,31.1
341.5,82.6,52.7,113.6,120.8,92.4,31.2
342.0,81.3,52.2,115.1,123.3,93.0,32.7
342.5,80.9,51.0,112.9,121.0,91.5,32.0
343.0,79.7,50.3,112.3,119.3,90.4,31.8
343.5,78.8,50.2,112.1,121.0,90.5,32.4
344.0,79.2,48.5,112.0,120.6,90.1,32.9
344.5,77.9,48.6,112.2,119.7,89.6,32.8
345.0,77.8,47.1,110.1,119.1,88.5,32.8
345.5,78.0,46.7,111.1,117.0,88.2,32.6
346.0,78.1,45.9,110.2,119.5,88.4,33.4
346.5,78.1,45.6,107.9,118.0,87.4,32.6
347.0,77.7,44.8,107.5,116.6,86.6,32.5
347.5,76.0,44.0,106.5,116.3,85.7,32.6
348.0,78.1,44.2,106.6,116.1,86.2,32.3
348.5,76.8,43.0,105.5,114.1,84.8,32.1
349.0,77.2,43.0,106.2,115.2,85.4,32.6
349.5,76.6,42.3,103.5,114.7,84.3,32.2
350.0,77.3,42.1,102.3,112.7,83.6,31.4
350.5,75.8,41.8,101.8,113.6,83.3,31.8
351.0,75.0,41.0,99.6,111.0,81.6,31.0
351.5,76.2,40.4,99.7,113.4,82.4,32.0
352.0,75.1,40.3,99.3,111.2,81.5,31.3
352.5,75.9,39.5,98.1,110.1,80.9,31.0
353.0,75.5,39.0,97.2,109.0,80.2,30.8
353.5,74.9,38.7,97.1,109.3,80.0,31.0
354.0,74.2,38.3,97.3,109.2,79.7,31.2
354.5,74.3,38.1,94.9,106.8,78.5,30.1
355.0,73.8,37.6,95.4,106.5,78.3,30.3
355.5,75.0,37.0,92.4,107.0,77.8,30.2
356.0,73.3,36.7,92.0,105.0,76.8,29.7
356.5,72.9,36.6,91.2,103.8,76.1,29.3
357.0,72.4,36.9,89.7,105.5,76.1,29.4
357.5,73.5,35.7,87.9,103.4,75.1,29.0
358.0,73.5,36.1,88.8,102.8,75.3,28.7
358.5,73.0,35.1,88.5,101.8,74.6,28.8
359.0,73.4,35.1,87.6,100.8,74.2,28.4
359.5,73.2,34.3,86.9,98.5,73.2,27.9