File: 01_Data/FDNY_LDF/Cone/FDNY_LDF_HRRPUA_50.csv
Time after Ignition,FDNY_LDF_R1,FDNY_LDF_R2,FDNY_LDF_R3,Mean,Std. Dev.
0.0,46.8,27.8,38.1,37.6,9.5
0.5,57.7,39.5,51.6,49.6,9.3
1.0,71.7,49.9,65.5,62.4,11.2
1.5,84.4,59.4,78.2,74.0,13.0
2.0,95.5,74.3,84.2,84.6,10.6
2.5,108.7,85.8,94.8,96.4,11.5
3.0,119.4,101.1,108.5,109.7,9.2
3.5,128.5,112.8,116.7,119.3,8.2
4.0,138.3,122.4,127.4,129.4,8.1
4.5,148.4,129.3,138.0,138.6,9.5
5.0,155.0,140.6,143.5,146.3,7.6
5.5,160.8,150.3,153.3,154.8,5.4
6.0,166.1,153.6,158.5,159.4,6.3
6.5,171.6,162.8,166.1,166.8,4.4
7.0,178.2,169.6,171.9,173.2,4.4
7.5,180.4,173.4,173.8,175.9,3.9
8.0,184.1,177.1,181.1,180.8,3.5
8.5,187.0,183.4,185.7,185.3,1.8
9.0,190.0,183.9,185.9,186.6,3.1
9.5,188.7,185.3,187.0,187.0,1.7
10.0,192.7,191.1,196.1,193.3,2.6
10.5,192.5,191.8,194.6,193.0,1.5
11.0,193.1,190.9,196.5,193.5,2.9
11.5,194.9,194.3,197.3,195.5,1.6
12.0,194.3,193.0,200.1,195.8,3.8
12.5,197.2,196.7,199.4,197.8,1.4
13.0,200.3,192.9,198.7,197.3,3.9
13.5,195.8,196.4,202.3,198.2,3.6
14.0,199.0,193.5,199.2,197.2,3.2
14.5,199.2,193.0,199.4,197.2,3.6
15.0,195.6,193.5,198.7,195.9,2.6
15.5,195.9,195.1,198.6,196.5,1.9
16.0,199.0,195.9,199.0,198.0,1.8
16.5,194.9,195.1,199.1,196.4,2.4
17.0,197.5,193.1,197.9,196.2,2.6
17.5,195.7,198.3,195.4,196.5,1.6
18.0,196.7,199.0,199.6,198.5,1.5
18.5,194.6,199.7,195.4,196.6,2.7
19.0,194.9,191.9,195.2,194.0,1.8
19.5,193.4,196.3,193.8,194.5,1.6
20.0,192.2,195.0,198.9,195.4,3.4
20.5,191.5,193.3,195.5,193.4,2.0
21.0,192.7,195.3,194.0,194.0,1.3
21.5,192.5,197.1,197.1,195.5,2.7
22.0,191.6,191.0,191.8,191.5,0.4
22.5,194.1,191.9,192.3,192.7,1.2
23.0,191.6,194.1,192.3,192.7,1.3
23.5,189.0,191.3,192.7,191.0,1.9
24.0,190.3,193.6,193.7,192.6,1.9
24.5,187.9,192.8,194.4,191.7,3.4
25.0,187.0,193.3,190.4,190.2,3.2
25.5,184.9,188.5,189.8,187.7,2.5
26.0,185.4,189.4,186.9,187.2,2.0
26.5,185.6,192.6,191.6,189.9,3.8
27.0,185.7,189.5,188.4,187.9,2.0
27.5,183.1,188.6,189.6,187.1,3.5
28.0,181.1,191.9,182.2,185.1,6.0
28.5,182.7,186.8,182.9,184.1,2.3
29.0,179.4,186.4,185.9,183.9,3.9
29.5,181.2,184.7,180.5,182.1,2.2
30.0,177.9,184.6,182.2,181.6,3.4
30.5,176.5,185.8,181.8,181.3,4.7
31.0,179.9,184.3,177.9,180.7,3.3
31.5,176.4,181.4,176.6,178.1,2.8
32.0,173.3,182.2,176.7,177.4,4.5
32.5,173.8,182.0,180.6,178.8,4.4
33.0,172.4,178.7,177.4,176.2,3.3
33.5,169.5,180.0,177.2,175.5,5.5
34.0,172.3,179.7,175.8,175.9,3.7
34.5,171.6,177.6,174.8,174.6,3.0
35.0,167.9,178.0,177.5,174.5,5.7
35.5,168.7,177.4,172.0,172.7,4.4
36.0,168.2,175.8,170.6,171.5,3.9
36.5,165.2,172.4,177.3,171.6,6.1
37.0,167.0,174.8,171.9,171.2,3.9
37.5,166.0,171.1,174.6,170.6,4.3
38.0,166.7,174.1,169.7,170.2,3.7
38.5,166.5,171.7,168.6,169.0,2.6
39.0,165.0,169.2,170.6,168.3,2.9
39.5,162.1,168.1,168.1,166.1,3.4
40.0,160.3,168.1,168.4,165.6,4.6
40.5,159.9,166.1,166.7,164.2,3.8
41.0,162.6,168.2,165.0,165.3,2.8
41.5,159.7,169.4,166.5,165.2,5.0
42.0,161.9,168.4,163.0,164.4,3.5
42.5,158.0,164.7,166.6,163.1,4.5
43.0,160.0,168.2,165.4,164.5,4.2
43.5,156.9,167.3,166.1,163.4,5.7
44.0,158.1,164.6,163.9,162.2,3.6
44.5,158.4,162.9,161.5,160.9,2.3
45.0,154.3,159.8,162.3,158.8,4.1
45.5,155.4,163.9,162.0,160.4,4.4
46.0,156.0,159.4,159.3,158.2,1.9
46.5,153.8,161.2,163.9,159.6,5.2
47.0,157.7,159.4,158.3,158.5,0.8
47.5,153.7,158.6,158.4,156.9,2.7
48.0,152.0,157.6,159.5,156.4,3.9
48.5,157.7,156.6,157.8,157.4,0.7
49.0,152.4,156.9,157.3,155.5,2.7
49.5,153.9,157.1,157.0,156.0,1.8
50.0,150.0,157.5,155.0,154.2,3.8
50.5,149.3,153.3,155.5,152.7,3.1
51.0,148.5,152.5,153.2,151.4,2.5
51.5,151.6,153.8,154.1,153.2,1.3
52.0,147.9,152.1,154.9,151.6,3.5
52.5,148.2,149.9,153.1,150.4,2.5
53.0,149.1,151.8,151.9,150.9,1.6
53.5,149.0,155.5,152.4,152.3,3.3
54.0,149.4,150.3,153.0,150.9,1.9
54.5,147.6,147.1,149.1,147.9,1.0
55.0,145.4,147.3,149.3,147.3,1.9
55.5,145.9,146.8,151.1,147.9,2.8
56.0,145.7,147.3,150.9,148.0,2.7
56.5,146.2,145.6,148.6,146.8,1.6
57.0,143.2,144.7,148.8,145.6,2.9
57.5,143.0,144.5,146.4,144.6,1.7
58.0,144.2,143.2,148.8,145.4,3.0
58.5,143.3,142.2,146.2,143.9,2.1
59.0,144.5,141.8,143.9,143.4,1.4
59.5,142.0,138.6,143.0,141.2,2.3
60.0,142.3,142.0,143.1,142.5,0.5
60.5,139.7,137.5,144.5,140.6,3.6
61.0,140.9,142.9,141.1,141.6,1.1
61.5,138.6,141.1,140.6,140.1,1.3
62.0,138.9,138.5,140.0,139.2,0.8
62.5,135.3,141.2,137.2,137.9,3.0
63.0,134.5,138.1,139.3,137.3,2.5
63.5,137.0,137.4,138.6,137.7,0.9
64.0,135.9,136.8,137.5,136.7,0.8
64.5,135.6,137.9,136.5,136.7,1.2
65.0,133.0,138.6,137.3,136.3,2.9
65.5,134.5,134.2,135.9,134.9,0.9
66.0,135.1,135.1,136.2,135.5,0.6
66.5,135.4,133.7,134.7,134.6,0.9
67.0,134.8,133.5,133.6,134.0,0.7
67.5,132.0,131.6,133.8,132.5,1.1
68.0,132.4,133.7,135.4,133.8,1.5
68.5,131.7,131.4,131.9,131.7,0.3
69.0,130.9,131.2,131.8,131.3,0.5
69.5,130.0,130.4,132.6,131.0,1.4
70.0,130.0,128.3,129.9,129.4,0.9
70.5,131.7,128.8,128.8,129.8,1.7
71.0,130.5,128.5,129.4,129.5,1.0
71.5,131.5,128.9,129.1,129.8,1.5
72.0,128.9,127.9,130.4,129.1,1.2
72.5,126.9,128.3,126.9,127.4,0.8
73.0,127.3,126.5,125.8,126.6,0.8
73.5,126.6,124.8,127.8,126.4,1.5
74.0,127.4,124.7,127.2,126.4,1.5
74.5,127.0,125.1,127.0,126.4,1.1
75.0,125.6,123.0,123.7,124.1,1.3
75.5,125.6,122.7,126.9,125.1,2.1
76.0,127.0,122.7,124.4,124.7,2.2
76.5,125.7,123.3,123.8,124.3,1.2
77.0,124.2,123.4,124.7,124.1,0.7
77.5,121.3,121.6,123.4,122.1,1.1
78.0,121.6,120.7,122.1,121.5,0.7
78.5,123.2,119.5,121.7,121.5,1.8
79.0,121.9,123.3,124.8,123.3,1.4
79.5,119.0,120.6,123.4,121.0,2.2
80.0,119.7,121.0,124.3,121.6,2.4
80.5,120.5,120.7,120.9,120.7,0.2
81.0,119.2,119.0,123.1,120.4,2.3
81.5,122.8,119.5,119.7,120.6,1.8
82.0,120.3,120.1,119.1,119.9,0.7
82.5,118.2,118.5,119.2,118.6,0.5
83.0,117.5,118.1,118.0,117.8,0.3
83.5,116.8,117.9,116.4,117.0,0.8
84.0,117.1,119.0,117.0,117.7,1.1
84.5,115.3,118.4,117.3,117.0,1.6
85.0,115.8,117.6,115.8,116.4,1.0
85.5,113.4,116.9,116.3,115.5,1.9
86.0,115.8,115.0,118.3,116.4,1.7
86.5,114.1,117.9,117.0,116.3,2.0
87.0,113.8,115.8,115.9,115.1,1.2
87.5,113.7,113.7,114.3,113.9,0.3
88.0,114.2,115.3,114.3,114.6,0.6
88.5,113.0,113.1,114.1,113.4,0.6
89.0,114.8,114.1,113.5,114.1,0.7
89.5,112.7,112.3,116.6,113.9,2.4
90.0,113.3,112.1,114.3,113.2,1.1
90.5,112.3,113.1,114.4,113.3,1.0
91.0,111.7,112.2,110.6,111.5,0.8
91.5,110.1,111.5,112.0,111.2,1.0
92.0,112.1,111.2,111.2,111.5,0.5
92.5,111.0,111.1,113.8,111.9,1.6
93.0,112.7,111.0,110.9,111.5,1.0
93.5,111.0,110.1,111.1,110.7,0.6
94.0,111.1,110.5,110.9,110.8,0.3
94.5,109.4,110.9,110.4,110.2,0.8
95.0,108.3,110.8,107.9,109.0,1.6
95.5,107.9,109.4,109.6,109.0,0.9
96.0,108.8,109.5,109.4,109.2,0.4
96.5,107.7,108.8,108.2,108.2,0.6
97.0,107.3,108.9,106.9,107.7,1.1
97.5,107.8,108.5,108.4,108.2,0.4
98.0,106.8,108.9,107.1,107.6,1.1
98.5,106.7,109.4,107.3,107.8,1.4
99.0,106.6,107.5,107.3,107.1,0.5
99.5,107.7,106.2,105.8,106.6,1.0
100.0,106.1,105.5,107.1,106.2,0.8
100.5,107.5,107.0,109.4,107.9,1.3
101.0,106.4,106.8,106.3,106.5,0.3
101.5,106.5,106.4,107.0,106.6,0.3
102.0,106.7,104.5,104.4,105.2,1.3
102.5,106.4,104.5,105.5,105.5,1.0
103.0,104.2,105.6,105.2,105.0,0.7
103.5,104.9,105.4,104.5,104.9,0.4
104.0,103.9,107.1,105.2,105.4,1.6
104.5,104.5,104.5,104.6,104.5,0.1
105.0,102.7,104.0,102.7,103.1,0.8
105.5,101.5,104.0,103.1,102.9,1.3
106.0,102.0,105.0,103.1,103.4,1.5
106.5,101.5,104.3,103.5,103.1,1.4
107.0,102.8,103.0,105.4,103.7,1.4
107.5,102.0,104.7,102.8,103.1,1.4
108.0,101.6,104.6,102.9,103.0,1.5
108.5,102.0,102.2,101.5,101.9,0.4
109.0,101.8,102.5,102.3,102.2,0.4
109.5,100.3,101.9,102.3,101.5,1.1
110.0,102.4,103.7,101.6,102.6,1.0
110.5,100.4,103.1,102.1,101.9,1.4
111.0,101.6,103.6,100.9,102.0,1.4
111.5,99.7,103.5,100.5,101.3,2.0
112.0,100.0,102.9,101.5,101.5,1.4
112.5,99.4,104.0,100.3,101.3,2.4
113.0,99.1,100.2,101.4,100.2,1.1
113.5,99.8,103.5,101.6,101.6,1.9
114.0,99.7,101.6,101.1,100.8,1.0
114.5,98.9,103.1,101.7,101.2,2.2
115.0,98.6,101.7,102.6,101.0,2.1
115.5,99.1,102.3,101.1,100.8,1.6
116.0,98.6,102.2,101.7,100.8,1.9
116.5,100.6,102.2,99.9,100.9,1.2
117.0,99.2,102.6,100.6,100.8,1.7
117.5,101.3,102.6,102.3,102.1,0.7
118.0,99.5,103.0,102.1,101.5,1.8
118.5,99.2,100.4,100.8,100.1,0.8
119.0,99.9,103.0,99.7,100.9,1.8
119.5,97.1,102.3,99.8,99.7,2.6
120.0,101.1,101.7,100.5,101.1,0.6
120.5,98.0,102.0,99.4,99.8,2.0
121.0,98.6,102.3,99.8,100.2,1.9
121.5,98.9,102.5,99.0,100.1,2.1
122.0,99.3,101.0,100.0,100.1,0.9
122.5,98.1,102.0,99.1,99.7,2.0
123.0,99.3,102.7,99.4,100.4,1.9
123.5,98.3,104.0,99.6,100.6,3.0
124.0,98.4,103.4,99.9,100.6,2.6
124.5,98.5,102.3,100.9,100.5,1.9
125.0,96.9,102.5,102.4,100.6,3.2
125.5,98.3,102.2,101.2,100.6,2.0
126.0,97.4,102.8,99.3,99.8,2.7
126.5,96.5,101.8,101.7,100.0,3.0
127.0,98.0,102.0,99.7,99.9,2.0
127.5,97.8,103.1,100.2,100.3,2.7
128.0,97.9,103.1,101.7,100.9,2.7
128.5,99.2,103.9,102.3,101.8,2.4
129.0,98.2,103.1,101.5,101.0,2.5
129.5,99.6,104.1,100.1,101.3,2.5
130.0,98.1,103.6,103.1,101.6,3.1
130.5,98.3,103.7,101.8,101.3,2.7
131.0,99.4,103.2,103.8,102.1,2.4
131.5,100.4,103.6,101.3,101.8,1.7
132.0,98.6,103.2,105.0,102.3,3.3
132.5,97.3,104.2,103.1,101.5,3.7
133.0,99.5,104.5,102.4,102.2,2.5
133.5,98.9,104.4,104.4,102.6,3.2
134.0,98.3,105.2,102.1,101.9,3.4
134.5,100.2,103.6,105.8,103.2,2.8
135.0,101.3,105.2,105.6,104.0,2.4
135.5,100.3,105.0,104.1,103.1,2.5
136.0,99.8,105.7,105.6,103.7,3.4
136.5,100.2,106.5,106.5,104.4,3.6
137.0,101.1,108.9,105.6,105.2,3.9
137.5,101.1,107.5,105.8,104.8,3.3
138.0,102.6,107.8,105.9,105.4,2.6
138.5,102.4,109.3,108.9,106.9,3.9
139.0,99.2,111.1,107.5,105.9,6.1
139.5,101.9,109.5,107.3,106.2,3.9
140.0,101.7,109.8,106.8,106.1,4.1
140.5,102.9,109.6,108.7,107.1,3.6
141.0,102.5,109.2,108.8,106.8,3.7
141.5,104.1,111.9,109.4,108.5,4.0
142.0,103.7,112.4,110.3,108.8,4.6
142.5,104.5,111.2,111.4,109.0,3.9
143.0,104.9,113.6,114.3,111.0,5.2
143.5,105.6,115.6,110.8,110.7,5.0
144.0,107.0,112.5,111.8,110.4,3.0
144.5,107.3,113.9,113.3,111.5,3.6
145.0,106.6,115.0,115.5,112.4,5.0
145.5,108.0,114.6,114.2,112.3,3.7
146.0,105.9,113.5,115.1,111.5,4.9
146.5,107.8,117.1,115.8,113.6,5.0
147.0,109.8,116.3,116.2,114.1,3.7
147.5,108.1,115.7,119.4,114.4,5.8
148.0,108.5,119.0,119.7,115.7,6.3
148.5,110.9,118.0,121.3,116.7,5.3
149.0,111.0,120.5,121.0,117.5,5.6
149.5,111.8,119.3,119.5,116.9,4.4
150.0,110.6,121.5,122.1,118.1,6.5
150.5,114.6,121.3,123.7,119.9,4.8
151.0,114.6,122.7,124.4,120.5,5.3
151.5,112.8,123.9,124.7,120.5,6.6
152.0,115.4,125.7,125.2,122.1,5.8
152.5,117.7,125.0,127.4,123.3,5.0
153.0,118.3,125.0,128.7,124.0,5.3
153.5,117.9,128.8,130.0,125.5,6.7
154.0,119.4,128.3,132.0,126.6,6.5
154.5,120.2,131.4,131.3,127.6,6.4
155.0,120.3,127.7,133.1,127.0,6.4
155.5,121.9,131.1,131.2,128.0,5.4
156.0,123.4,130.4,136.0,129.9,6.3
156.5,123.2,131.0,133.9,129.3,5.6
157.0,121.7,131.9,134.8,129.4,6.9
157.5,122.6,132.5,136.5,130.5,7.2
158.0,125.0,131.3,137.5,131.2,6.2
158.5,124.1,131.7,140.0,131.9,8.0
159.0,126.9,133.3,141.8,134.0,7.5
159.5,126.3,134.8,144.1,135.1,8.9
160.0,127.0,138.6,142.2,135.9,7.9
160.5,128.5,135.8,144.4,136.2,8.0
161.0,128.0,136.3,146.5,136.9,9.3
161.5,131.3,138.2,146.6,138.7,7.6
162.0,132.3,138.3,148.5,139.7,8.2
162.5,132.1,139.7,148.6,140.1,8.3
163.0,134.8,140.5,151.1,142.1,8.3
163.5,135.9,142.5,148.2,142.2,6.1
164.0,134.1,145.3,151.6,143.7,8.9
164.5,136.6,146.6,151.6,144.9,7.6
165.0,137.8,145.0,154.6,145.8,8.4
165.5,139.4,145.7,154.4,146.5,7.5
166.0,140.1,151.1,158.0,149.7,9.1
166.5,141.8,146.5,155.4,147.9,6.9
167.0,142.0,150.5,155.8,149.4,7.0
167.5,142.6,153.1,157.1,150.9,7.5
168.0,143.1,151.1,161.0,151.8,9.0
168.5,146.1,154.5,162.2,154.3,8.0
169.0,146.0,155.4,162.7,154.7,8.4
169.5,145.6,158.0,161.5,155.0,8.4
170.0,145.3,157.2,164.9,155.8,9.8
170.5,145.8,158.5,166.4,156.9,10.4
171.0,146.9,162.4,165.6,158.3,10.0
171.5,149.8,163.9,166.9,160.2,9.1
172.0,148.5,165.4,167.9,160.6,10.5
172.5,149.4,165.6,167.5,160.8,10.0
173.0,150.6,165.8,171.2,162.5,10.7
173.5,153.4,166.1,171.3,163.6,9.2
174.0,154.6,166.4,171.5,164.2,8.7
174.5,156.8,168.4,170.8,165.4,7.5
175.0,154.4,166.4,170.9,163.9,8.5
175.5,155.2,171.0,171.7,166.0,9.3
176.0,157.5,171.9,172.7,167.3,8.5
176.5,158.8,171.3,173.6,167.9,7.9
177.0,159.7,170.4,176.0,168.7,8.3
177.5,161.4,171.6,174.0,169.0,6.7
178.0,161.1,171.3,174.4,168.9,7.0
178.5,161.9,172.0,178.2,170.7,8.2
179.0,164.0,174.4,179.3,172.6,7.8
179.5,165.8,173.7,180.0,173.2,7.1
180.0,162.2,173.0,181.0,172.1,9.4
180.5,162.5,172.3,178.9,171.2,8.3
181.0,163.0,173.5,180.1,172.2,8.6
181.5,166.1,175.4,180.2,173.9,7.2
182.0,166.7,173.3,183.7,174.6,8.5
182.5,166.4,176.4,182.3,175.1,8.0
183.0,166.1,174.5,184.1,174.9,9.0
183.5,165.7,173.1,186.8,175.2,10.7
184.0,167.7,174.2,186.0,175.9,9.3
184.5,166.9,174.8,187.8,176.5,10.6
185.0,164.0,176.5,187.5,176.0,11.8
185.5,169.2,179.1,191.4,179.9,11.1
186.0,168.6,175.4,186.5,176.8,9.0
186.5,167.0,178.0,187.2,177.4,10.1
187.0,171.5,175.9,189.2,178.9,9.2
187.5,167.4,178.6,190.2,178.7,11.4
188.0,168.4,178.7,189.7,178.9,10.7
188.5,167.1,178.4,189.7,178.4,11.3
189.0,166.9,176.3,193.1,178.7,13.2
189.5,168.3,175.5,193.6,179.1,13.0
190.0,168.4,178.2,193.4,180.0,12.6
190.5,169.5,178.8,194.7,181.0,12.7
191.0,170.1,177.3,193.9,180.4,12.2
191.5,169.2,178.3,192.4,180.0,11.7
192.0,169.1,178.6,196.5,181.4,13.9
192.5,172.5,181.5,196.8,183.6,12.3
193.0,172.5,180.0,201.8,184.8,15.2
193.5,168.2,179.2,198.3,181.9,15.2
194.0,172.5,179.2,202.8,184.8,15.9
194.5,173.9,178.6,201.9,184.8,15.0
195.0,171.4,181.9,203.1,185.4,16.1
195.5,166.3,182.0,206.7,185.0,20.4
196.0,172.2,182.7,202.0,185.6,15.1
196.5,172.3,181.8,203.5,185.8,16.0
197.0,172.3,185.5,206.1,188.0,17.0
197.5,170.8,183.6,205.5,186.7,17.5
198.0,170.7,182.3,205.0,186.0,17.4
198.5,169.8,182.4,208.5,186.9,19.7
199.0,172.0,185.5,206.9,188.1,17.6
199.5,171.6,188.5,205.5,188.5,16.9
200.0,171.2,189.4,204.6,188.4,16.8
200.5,172.7,184.6,205.4,187.5,16.5
201.0,175.6,188.2,211.3,191.7,18.1
201.5,171.1,189.2,209.0,189.8,18.9
202.0,174.2,187.7,208.9,190.3,17.5
202.5,176.2,188.1,208.4,190.9,16.3
203.0,174.9,186.9,208.7,190.2,17.1
203.5,176.1,189.0,206.2,190.4,15.1
204.0,176.2,190.6,208.9,191.9,16.4
204.5,179.7,188.6,207.0,191.8,13.9
205.0,176.0,187.0,209.3,190.8,17.0
205.5,178.9,192.0,205.2,192.0,13.2
206.0,178.7,188.6,206.2,191.2,14.0
206.5,178.4,190.0,209.8,192.7,15.9
207.0,180.5,191.9,208.8,193.7,14.3
207.5,180.6,189.3,207.0,192.3,13.4
208.0,181.7,192.5,208.7,194.3,13.6
208.5,179.6,191.3,208.9,193.3,14.8
209.0,182.7,192.0,210.1,194.9,13.9
209.5,178.2,190.0,208.6,192.3,15.3
210.0,184.0,192.3,209.0,195.1,12.7
210.5,186.3,193.4,207.9,195.9,11.0
211.0,184.2,191.7,204.7,193.5,10.4
211.5,183.6,189.3,207.5,193.5,12.5
212.0,184.7,193.6,204.6,194.3,9.9
212.5,183.5,194.7,203.9,194.0,10.2
213.0,186.4,193.6,205.3,195.1,9.5
213.5,185.2,193.1,204.3,194.2,9.6
214.0,183.2,188.7,200.7,190.9,8.9
214.5,186.9,188.3,197.8,191.0,5.9
215.0,181.7,190.5,195.4,189.2,6.9
215.5,185.7,190.0,196.3,190.6,5.3
216.0,184.9,189.1,195.1,189.7,5.2
216.5,188.7,192.1,193.9,191.6,2.6
217.0,183.9,185.1,191.8,186.9,4.2
217.5,187.5,188.6,189.7,188.6,1.1
218.0,183.5,188.5,186.9,186.3,2.6
218.5,186.2,187.2,186.3,186.6,0.5
219.0,188.5,191.4,182.6,187.5,4.5
219.5,186.0,183.3,185.4,184.9,1.4
220.0,186.8,186.7,182.0,185.1,2.8
220.5,188.3,181.5,179.3,183.0,4.7
221.0,189.9,189.7,173.8,184.5,9.3
221.5,188.2,184.1,172.4,181.6,8.2
222.0,189.9,178.1,168.9,179.0,10.5
222.5,187.7,178.0,164.0,176.5,11.9
223.0,185.2,178.1,165.4,176.2,10.0
223.5,186.3,174.1,161.6,174.0,12.4
224.0,187.1,174.3,157.3,172.9,15.0
224.5,185.4,172.8,153.4,170.5,16.2
225.0,184.0,169.8,149.4,167.7,17.4
225.5,180.8,167.4,148.3,165.5,16.4
226.0,183.9,167.7,142.6,164.8,20.8
226.5,179.8,164.8,140.7,161.8,19.8
227.0,179.6,163.2,134.2,159.0,23.0
227.5,175.3,161.5,130.8,155.9,22.8
228.0,177.1,161.5,127.3,155.3,25.5
228.5,177.8,158.3,118.1,151.4,30.5
229.0,174.1,159.0,113.5,148.9,31.6
229.5,173.8,155.0,108.8,145.9,33.4
230.0,171.5,151.4,105.2,142.7,34.0
230.5,167.7,147.5,98.5,137.9,35.6
231.0,168.5,143.2,95.0,135.6,37.3
231.5,167.7,138.1,90.9,132.2,38.7
232.0,164.5,135.4,84.8,128.2,40.4
232.5,164.3,130.5,83.0,125.9,40.8
233.0,159.7,129.6,79.8,123.0,40.4
233.5,156.3,126.2,77.3,119.9,39.8
234.0,153.9,119.5,74.0,115.8,40.1
234.5,152.0,116.1,70.6,112.9,40.8
235.0,144.8,112.0,68.0,108.3,38.5
235.5,145.4,107.5,65.0,105.9,40.2
236.0,142.6,103.4,62.7,102.9,39.9
236.5,136.6,96.6,60.1,97.8,38.2
237.0,133.2,94.3,58.0,95.2,37.6
237.5,132.6,90.2,56.4,93.1,38.2
238.0,129.2,87.7,54.8,90.6,37.3
238.5,128.2,83.8,52.7,88.2,37.9
239.0,124.1,81.0,51.5,85.5,36.5
239.5,119.7,79.4,49.8,83.0,35.1
240.0,115.0,77.5,48.9,80.4,33.2
240.5,109.3,73.8,46.7,76.6,31.4
241.0,106.3,72.1,46.0,74.8,30.3
241.5,103.6,69.1,44.7,72.5,29.6
242.0,98.6,67.5,44.0,70.1,27.4
242.5,94.7,65.6,43.5,67.9,25.7
243.0,91.4,63.8,42.3,65.8,24.6
243.5,88.0,61.6,41.7,63.8,23.2
244.0,84.8,60.4,41.0,62.1,22.0
244.5,82.3,59.5,40.4,60.7,21.0
245.0,79.4,57.5,39.9,59.0,19.8
245.5,75.0,56.7,39.9,57.2,17.6
246.0,72.2,55.8,39.4,55.8,16.4
246.5,68.7,55.0,38.7,54.1,15.0
247.0,66.7,54.0,39.4,53.4,13.7
247.5,64.8,52.4,38.8,52.0,13.0
248.0,61.8,50.7,39.7,50.7,11.0
248.5,59.8,51.0,39.4,50.1,10.3
249.0,57.2,49.7,40.1,49.0,8.6
249.5,55.8,50.0,39.8,48.6,8.1
250.0,55.0,48.9,40.3,48.1,7.4
250.5,52.2,49.0,39.8,47.0,6.4
251.0,51.0,48.0,39.4,46.1,6.0
251.5,49.8,47.2,39.6,45.5,5.3
252.0,48.3,47.1,38.9,44.8,5.1
252.5,48.6,46.6,40.2,45.1,4.4
253.0,47.2,45.5,39.3,44.0,4.2
253.5,46.4,45.6,39.2,43.7,4.0
254.0,45.5,45.2,39.6,43.4,3.3
254.5,43.6,43.9,39.8,42.4,2.3
255.0,42.9,43.1,39.8,41.9,1.9
255.5,42.4,43.3,39.2,41.6,2.1
256.0,41.9,43.3,39.0,41.4,2.2
256.5,41.0,42.5,39.0,40.8,1.8
257.0,41.4,42.3,38.9,40.9,1.7
257.5,39.9,41.5,38.7,40.0,1.4
258.0,39.5,41.0,38.8,39.8,1.2
258.5,39.7,41.8,37.8,39.8,2.0
259.0,39.1,41.1,37.8,39.3,1.6
259.5,38.7,40.4,37.8,39.0,1.3
260.0,39.1,40.5,37.3,38.9,1.6
260.5,39.2,40.2,37.6,39.0,1.3
261.0,38.7,39.5,37.2,38.5,1.2
261.5,38.8,39.2,37.2,38.4,1.1
262.0,38.0,39.7,37.0,38.2,1.4
262.5,38.2,39.0,37.2,38.2,0.9
263.0,38.1,38.7,36.8,37.9,0.9
263.5,37.9,38.4,36.8,37.7,0.8
264.0,37.8,38.0,36.9,37.6,0.6
264.5,38.3,37.5,36.8,37.5,0.7
265.0,37.9,37.8,36.9,37.5,0.6
265.5,38.1,38.6,36.7,37.8,1.0
266.0,37.9,37.8,37.0,37.6,0.5
266.5,38.1,37.7,36.4,37.4,0.9
267.0,38.1,37.5,36.1,37.2,1.0
267.5,37.9,36.6,35.9,36.8,1.0
268.0,38.3,36.8,36.2,37.1,1.1
268.5,37.7,37.2,36.4,37.1,0.7
269.0,37.6,36.5,36.1,36.7,0.8
269.5,37.7,37.0,36.0,36.9,0.8
270.0,37.7,36.3,36.1,36.7,0.9
270.5,37.4,36.2,35.5,36.3,1.0
271.0,37.2,36.5,35.9,36.5,0.7
271.5,37.5,35.5,35.7,36.2,1.1
272.0,37.1,35.4,36.3,36.2,0.8
272.5,36.7,35.2,35.8,35.9,0.7
273.0,36.9,35.5,36.0,36.2,0.7
273.5,36.4,35.2,35.6,35.7,0.6
274.0,36.5,34.5,34.8,35.3,1.1
274.5,36.0,35.2,34.8,35.3,0.6
275.0,36.4,34.5,34.6,35.2,1.1
275.5,36.3,34.6,35.3,35.4,0.9
276.0,35.9,34.8,35.3,35.3,0.5
276.5,35.9,35.5,34.4,35.3,0.7
277.0,35.8,35.3,35.9,35.7,0.3
277.5,36.2,35.2,36.8,36.1,0.8
278.0,35.9,35.6,38.6,36.7,1.6
278.5,36.4,35.1,40.0,37.2,2.5
279.0,36.2,35.7,41.3,37.7,3.1
279.5,35.9,35.4,42.1,37.8,3.8
280.0,35.8,35.8,43.3,38.3,4.3
280.5,35.0,35.5,44.1,38.2,5.1
281.0,35.4,35.4,44.5,38.4,5.2
281.5,35.2,35.6,44.9,38.6,5.5
282.0,35.7,35.2,45.7,38.9,5.9
282.5,35.4,35.1,45.5,38.7,5.9
283.0,35.8,34.7,46.3,38.9,6.4
283.5,35.4,34.7,44.8,38.3,5.6
284.0,35.5,34.6,44.2,38.1,5.3
284.5,35.3,35.1,44.2,38.2,5.2
285.0,36.0,34.7,43.6,38.1,4.8
285.5,35.6,34.8,42.6,37.7,4.3
286.0,35.6,35.5,43.1,38.1,4.3
286.5,35.4,34.7,42.3,37.4,4.2
287.0,35.5,34.2,42.3,37.3,4.4
287.5,35.9,34.3,42.0,37.4,4.0
288.0,35.9,34.1,41.9,37.3,4.1
288.5,35.3,34.1,41.1,36.9,3.8
289.0,35.6,33.6,40.6,36.6,3.6
289.5,34.9,33.7,40.1,36.2,3.4
290.0,34.8,33.7,40.0,36.2,3.4
290.5,36.0,33.4,39.9,36.4,3.3
291.0,34.7,34.3,39.4,36.2,2.8
291.5,34.8,33.6,39.8,36.1,3.3
292.0,34.5,33.2,39.4,35.7,3.3
292.5,34.7,33.6,39.4,35.9,3.1
293.0,34.2,33.3,39.5,35.7,3.3
293.5,34.0,33.5,37.9,35.1,2.4
294.0,34.3,33.2,36.8,34.8,1.9
294.5,33.8,33.1,36.0,34.3,1.5
295.0,34.6,33.5,36.5,34.9,1.5
295.5,34.3,33.6,35.3,34.4,0.9
296.0,34.2,33.3,35.1,34.2,0.9
296.5,34.4,33.2,34.4,34.0,0.7
297.0,34.7,33.9,34.2,34.3,0.4
297.5,35.0,33.6,34.3,34.3,0.7
298.0,34.8,33.6,33.3,33.9,0.8
298.5,34.8,33.8,33.8,34.1,0.6
299.0,34.2,33.6,32.9,33.6,0.7
299.5,34.2,34.0,32.9,33.7,0.7
300.0,33.8,33.3,32.8,33.3,0.5
300.5,34.0,33.5,33.1,33.5,0.5
301.0,34.0,34.5,32.7,33.7,0.9
301.5,33.1,33.6,32.7,33.1,0.4
302.0,33.7,34.0,32.2,33.3,1.0
302.5,33.7,33.5,32.4,33.2,0.7
303.0,33.2,33.0,32.0,32.8,0.6
303.5,33.5,33.7,32.6,33.2,0.6
304.0,33.7,33.3,32.0,33.0,0.9
304.5,33.3,33.6,32.3,33.1,0.7
305.0,34.1,33.5,31.9,33.2,1.1
305.5,33.9,33.2,32.1,33.1,0.9
306.0,33.5,33.1,31.9,32.8,0.8
306.5,33.5,33.4,32.0,33.0,0.8
307.0,33.5,33.0,32.7,33.1,0.4
307.5,33.6,33.2,32.3,33.0,0.7
308.0,33.3,33.4,33.2,33.3,0.1
308.5,33.8,33.7,32.6,33.4,0.7
309.0,33.1,33.2,33.3,33.2,0.1
309.5,32.6,33.3,32.9,32.9,0.4
310.0,33.0,32.9,32.9,32.9,0.0
310.5,32.5,32.9,33.0,32.8,0.3
311.0,32.4,33.3,33.1,32.9,0.5
311.5,31.8,33.0,33.2,32.7,0.8
312.0,31.6,33.3,32.9,32.6,0.9
312.5,31.8,33.9,33.0,32.9,1.1
313.0,31.6,33.1,33.0,32.6,0.8
313.5,31.8,32.9,32.7,32.5,0.6
314.0,31.7,33.4,32.3,32.5,0.9
314.5,31.5,32.9,32.0,32.1,0.7
315.0,31.7,32.8,31.8,32.1,0.6
315.5,31.6,33.1,31.8,32.1,0.8
316.0,31.7,33.0,31.6,32.1,0.8
316.5,31.5,32.9,31.3,31.9,0.9
317.0,31.4,33.0,31.6,32.0,0.9
317.5,31.6,33.2,30.7,31.8,1.3
318.0,31.6,33.0,30.5,31.7,1.2
318.5,31.2,32.4,30.3,31.3,1.1
319.0,31.3,32.8,30.3,31.5,1.3
319.5,31.8,32.8,30.2,31.6,1.3
320.0,31.3,32.6,30.5,31.5,1.1
320.5,31.3,32.0,30.5,31.3,0.8
321.0,31.7,32.1,31.0,31.6,0.6
321.5,31.8,32.5,29.9,31.4,1.3
322.0,31.7,32.2,30.5,31.5,0.8
322.5,31.6,32.6,30.1,31.4,1.3
323.0,31.4,32.1,29.8,31.1,1.1
323.5,31.4,32.2,30.0,31.2,1.1
324.0,31.7,33.1,30.2,31.7,1.5
324.5,30.8,32.2,29.9,31.0,1.1
325.0,31.4,32.3,31.0,31.6,0.7
325.5,31.6,31.6,30.5,31.2,0.7
326.0,31.7,32.7,30.6,31.7,1.1
326.5,31.5,32.2,30.2,31.3,1.0
327.0,31.2,32.4,29.8,31.1,1.3
327.5,31.5,32.4,30.0,31.3,1.2
328.0,31.0,33.0,30.4,31.5,1.4
328.5,30.9,32.4,30.1,31.1,1.2
329.0,31.2,32.6,30.0,31.3,1.3
329.5,30.9,32.1,30.2,31.1,1.0
330.0,30.9,32.1,30.2,31.1,0.9
330.5,31.3,32.5,30.1,31.3,1.2
331.0,31.3,32.5,29.7,31.2,1.4
331.5,31.1,32.2,30.0,31.1,1.1
332.0,31.2,32.8,29.9,31.3,1.5
332.5,31.1,32.5,29.4,31.0,1.5
333.0,30.8,32.6,29.5,31.0,1.5
333.5,31.0,32.1,29.6,30.9,1.2
334.0,30.7,32.2,29.8,30.9,1.2
334.5,30.6,32.6,29.3,30.9,1.6
335.0,30.2,32.5,29.6,30.8,1.6
335.5,30.7,32.6,28.9,30.7,1.8
336.0,30.0,32.2,29.3,30.5,1.5
336.5,30.2,31.9,28.3,30.1,1.8
337.0,30.5,32.1,28.8,30.5,1.6
337.5,30.2,32.6,28.4,30.4,2.1
338.0,30.0,32.5,28.2,30.2,2.1
338.5,30.4,32.8,28.1,30.4,2.4
339.0,30.2,32.0,28.1,30.1,1.9
339.5,30.3,31.5,28.3,30.0,1.6
340.0,30.1,31.7,28.5,30.1,1.6
340.5,30.0,31.4,28.4,29.9,1.5
341.0,30.0,31.4,28.3,29.9,1.5
341.5,30.0,31.8,28.5,30.1,1.7
342.0,29.9,31.4,28.6,30.0,1.4
342.5,30.4,31.2,28.5,30.0,1.4
343.0,29.7,30.9,28.7,29.8,1.1
343.5,29.9,31.1,28.6,29.9,1.3
344.0,30.1,30.8,29.1,30.0,0.9
344.5,30.1,30.8,28.5,29.8,1.2
345.0,29.8,31.4,28.7,30.0,1.4
345.5,29.9,31.6,28.5,30.0,1.6
346.0,29.7,31.2,28.5,29.8,1.4
346.5,30.4,30.6,28.6,29.9,1.1
347.0,30.2,31.2,28.5,29.9,1.3
347.5,29.8,30.8,28.9,29.8,0.9
348.0,29.7,31.0,28.3,29.7,1.3
348.5,30.2,31.3,28.4,30.0,1.5
349.0,30.1,30.8,28.9,29.9,0.9
349.5,30.4,30.9,28.9,30.0,1.0
350.0,30.4,30.6,28.6,29.9,1.1
350.5,30.4,,28.4,29.4,1.4
351.0,30.4,,28.7,29.5,1.2
351.5,30.3,,28.4,29.3,1.3
352.0,30.1,,28.6,29.4,1.1
352.5,29.9,,28.6,29.2,0.9
353.0,29.6,,28.6,29.1,0.7
353.5,29.7,,28.8,29.3,0.6
354.0,29.5,,28.4,29.0,0.8
354.5,29.9,,29.1,29.5,0.6
355.0,29.5,,28.6,29.1,0.6
355.5,29.4,,28.8,29.1,0.4
356.0,29.6,,28.5,29.1,0.8
356.5,29.4,,28.4,28.9,0.7
357.0,29.3,,28.4,28.8,0.6
357.5,29.5,,28.6,29.0,0.7
358.0,29.3,,28.5,28.9,0.6
358.5,29.3,,28.1,28.7,0.8
359.0,29.2,,27.6,28.4,1.1
359.5,29.5,,27.5,28.5,1.4
360.0,29.3,,28.4,28.8,0.7
360.5,29.4,,27.6,28.5,1.2
361.0,29.2,,27.6,28.4,1.1
361.5,29.2,,27.7,28.5,1.0
362.0,28.8,,27.3,28.0,1.1
362.5,28.9,,27.2,28.1,1.2
363.0,28.2,,26.8,27.5,1.0
363.5,28.2,,27.0,27.6,0.9
364.0,28.6,,26.9,27.8,1.3
364.5,28.7,,27.1,27.9,1.1
365.0,28.6,,27.0,27.8,1.1
365.5,28.7,,27.2,27.9,1.0
366.0,28.7,,27.2,28.0,1.1
366.5,29.0,,27.1,28.1,1.4
367.0,28.9,,27.3,28.1,1.2
367.5,28.5,,26.9,27.7,1.1
368.0,28.8,,27.4,28.1,1.1
368.5,28.7,,26.9,27.8,1.2
369.0,28.7,,26.8,27.8,1.3
369.5,28.9,,27.1,28.0,1.3
370.0,28.9,,26.7,27.8,1.6
370.5,28.3,,26.8,27.5,1.0
371.0,28.6,,26.7,27.6,1.3
371.5,28.5,,26.7,27.6,1.3
372.0,28.4,,26.9,27.6,1.1
372.5,27.8,,26.5,27.2,0.9
373.0,27.8,,26.3,27.1,1.0
373.5,27.9,,26.6,27.2,0.9
374.0,27.8,,26.5,27.2,0.9
374.5,27.8,,26.9,27.4,0.6
375.0,28.0,,26.6,27.3,1.0
375.5,28.1,,27.0,27.6,0.8
376.0,27.7,,26.5,27.1,0.8
376.5,27.9,,26.4,27.1,1.0
376.75,27.9,,26.8,27.3,0.8