File: 01_Data/Basswood_Panel/Cone/Basswood_Panel_HRRPUA_50.csv
Time after Ignition,Basswood_Panel_R1,Basswood_Panel_R2,Basswood_Panel_R3,Mean,Std. Dev.
0.0,2.7,3.7,4.2,3.5,0.8
0.5,2.7,3.4,3.9,3.3,0.6
1.0,2.6,3.1,3.7,3.1,0.5
1.5,2.6,3.0,3.6,3.0,0.5
2.0,2.6,2.7,3.4,2.9,0.5
2.5,2.6,2.6,3.4,2.9,0.4
3.0,2.6,2.5,3.3,2.8,0.4
3.5,2.6,2.4,3.2,2.7,0.4
4.0,2.6,2.4,3.1,2.7,0.4
4.5,2.5,2.4,3.0,2.6,0.3
5.0,2.3,2.6,2.9,2.6,0.3
5.5,2.0,2.7,2.8,2.5,0.4
6.0,1.7,2.7,2.8,2.4,0.6
6.5,1.5,2.8,2.9,2.4,0.8
7.0,1.3,2.9,3.1,2.4,1.0
7.5,1.2,2.9,3.2,2.4,1.1
8.0,1.3,3.2,3.3,2.6,1.1
8.5,1.4,3.3,3.3,2.7,1.1
9.0,1.6,4.6,3.5,3.2,1.5
9.5,4.2,6.7,5.0,5.3,1.3
10.0,8.6,8.5,7.5,8.2,0.6
10.5,12.2,15.7,12.5,13.5,1.9
11.0,23.2,21.1,19.3,21.2,2.0
11.5,31.8,29.5,28.3,29.9,1.8
12.0,46.7,40.2,39.3,42.1,4.1
12.5,58.7,48.9,48.3,52.0,5.8
13.0,69.0,63.2,56.1,62.8,6.4
13.5,80.1,74.7,69.6,74.8,5.2
14.0,92.3,90.7,79.9,87.6,6.7
14.5,106.3,105.8,91.8,101.3,8.3
15.0,115.8,120.1,105.3,113.7,7.6
15.5,129.8,132.8,117.3,126.7,8.2
16.0,140.7,147.0,131.5,139.7,7.8
16.5,157.0,162.5,145.2,154.9,8.8
17.0,165.6,171.1,156.4,164.4,7.4
17.5,180.6,181.0,172.3,177.9,4.9
18.0,190.7,187.7,180.6,186.3,5.2
18.5,200.0,197.6,187.3,194.9,6.8
19.0,206.7,204.6,195.4,202.2,6.0
19.5,213.9,211.8,199.8,208.5,7.6
20.0,225.1,219.0,207.4,217.2,9.0
20.5,229.2,224.9,213.7,222.6,8.0
21.0,236.0,227.8,217.5,227.1,9.3
21.5,242.0,229.9,223.1,231.7,9.6
22.0,244.4,238.2,225.9,236.2,9.4
22.5,252.3,238.3,228.0,239.5,12.2
23.0,257.7,242.1,235.6,245.1,11.4
23.5,256.7,246.2,235.0,246.0,10.9
24.0,262.2,252.1,240.6,251.6,10.8
24.5,263.7,250.7,238.5,251.0,12.6
25.0,265.4,256.1,245.4,255.6,10.0
25.5,269.4,260.9,245.6,258.7,12.0
26.0,269.7,261.3,247.0,259.3,11.5
26.5,267.1,267.2,247.8,260.7,11.2
27.0,278.6,271.6,258.6,269.6,10.2
27.5,274.2,266.8,250.1,263.7,12.4
28.0,278.5,269.4,256.3,268.1,11.2
28.5,271.1,270.5,266.3,269.3,2.6
29.0,280.0,276.1,253.7,269.9,14.2
29.5,272.5,275.7,259.6,269.3,8.5
30.0,279.8,275.2,261.7,272.2,9.4
30.5,280.3,274.0,257.6,270.6,11.7
31.0,281.2,281.4,260.4,274.3,12.1
31.5,286.3,281.2,263.4,277.0,12.1
32.0,280.0,279.9,263.3,274.4,9.6
32.5,283.6,274.7,269.8,276.0,7.0
33.0,279.3,279.5,262.1,273.6,10.0
33.5,286.7,272.6,267.0,275.4,10.2
34.0,283.0,277.3,265.0,275.1,9.2
34.5,281.5,283.3,268.8,277.9,7.9
35.0,278.7,273.1,264.1,272.0,7.4
35.5,282.2,278.2,263.5,274.6,9.8
36.0,281.8,283.3,265.0,276.7,10.1
36.5,282.8,275.1,269.9,275.9,6.5
37.0,283.8,279.5,261.5,274.9,11.8
37.5,279.5,272.8,261.1,271.1,9.3
38.0,277.5,274.8,267.0,273.1,5.5
38.5,277.4,278.2,265.5,273.7,7.1
39.0,283.6,274.8,262.1,273.5,10.8
39.5,280.2,277.2,267.7,275.0,6.5
40.0,281.6,271.6,268.3,273.8,6.9
40.5,274.2,270.7,273.0,272.6,1.8
41.0,286.3,273.9,266.3,275.5,10.1
41.5,278.7,272.9,265.1,272.2,6.8
42.0,279.8,266.3,268.7,271.6,7.2
42.5,279.2,265.9,265.3,270.2,7.8
43.0,278.8,274.4,264.5,272.6,7.3
43.5,273.7,271.6,267.0,270.7,3.4
44.0,274.0,272.7,273.1,273.3,0.7
44.5,278.1,269.5,271.0,272.9,4.6
45.0,272.9,273.1,272.8,272.9,0.2
45.5,268.3,265.1,268.9,267.4,2.1
46.0,268.3,270.8,271.4,270.2,1.7
46.5,270.4,264.3,269.0,267.9,3.2
47.0,267.1,269.3,262.7,266.4,3.3
47.5,270.3,267.9,266.6,268.3,1.8
48.0,268.7,266.5,268.9,268.0,1.3
48.5,271.5,267.0,266.8,268.4,2.7
49.0,264.3,265.7,264.8,264.9,0.7
49.5,266.0,265.9,260.1,264.0,3.4
50.0,263.7,270.0,261.8,265.1,4.3
50.5,265.9,261.1,259.3,262.1,3.4
51.0,262.6,262.6,256.0,260.4,3.8
51.5,260.6,261.0,257.6,259.7,1.8
52.0,259.1,254.8,258.0,257.3,2.3
52.5,258.4,257.7,256.0,257.4,1.3
53.0,257.0,248.7,255.0,253.6,4.4
53.5,260.1,254.1,248.7,254.3,5.7
54.0,258.6,252.5,247.3,252.8,5.7
54.5,253.8,250.1,247.1,250.3,3.3
55.0,253.5,251.9,244.6,250.0,4.8
55.5,255.9,246.2,249.2,250.5,4.9
56.0,252.7,249.4,250.2,250.8,1.7
56.5,252.1,251.9,245.8,249.9,3.6
57.0,250.0,252.3,251.7,251.3,1.2
57.5,250.8,246.1,248.6,248.5,2.3
58.0,250.5,244.8,243.1,246.1,3.9
58.5,249.3,241.9,246.0,245.7,3.7
59.0,249.6,245.3,243.6,246.2,3.1
59.5,249.6,247.4,246.3,247.7,1.7
60.0,247.0,242.5,244.2,244.5,2.3
60.5,237.4,248.8,247.4,244.5,6.2
61.0,242.4,240.6,246.4,243.1,3.0
61.5,238.9,243.0,243.2,241.7,2.4
62.0,240.4,242.7,244.4,242.5,2.0
62.5,243.9,242.2,242.6,242.9,0.9
63.0,240.7,238.3,244.5,241.2,3.1
63.5,243.8,238.4,234.1,238.8,4.9
64.0,247.3,245.6,240.1,244.3,3.8
64.5,239.1,238.3,241.0,239.5,1.4
65.0,237.3,237.5,235.9,236.9,0.9
65.5,235.3,232.8,233.7,233.9,1.2
66.0,242.6,235.6,234.0,237.4,4.6
66.5,239.3,233.5,232.4,235.1,3.7
67.0,237.3,234.3,229.6,233.7,3.9
67.5,235.1,236.0,228.7,233.3,4.0
68.0,232.4,233.5,230.4,232.1,1.6
68.5,233.0,231.6,228.4,231.0,2.3
69.0,237.3,233.5,227.9,232.9,4.7
69.5,235.0,231.6,233.4,233.3,1.7
70.0,231.8,231.0,233.0,232.0,1.0
70.5,233.9,228.9,228.2,230.4,3.1
71.0,231.8,232.4,225.1,229.7,4.1
71.5,230.8,228.8,224.4,228.0,3.3
72.0,226.9,221.9,228.0,225.6,3.3
72.5,228.1,229.1,222.8,226.6,3.4
73.0,229.0,226.0,221.6,225.5,3.7
73.5,230.4,226.3,227.4,228.0,2.1
74.0,228.1,224.5,221.0,224.5,3.5
74.5,228.0,220.7,219.0,222.6,4.8
75.0,227.8,221.4,222.1,223.7,3.5
75.5,225.0,221.6,224.5,223.7,1.9
76.0,225.5,220.3,224.0,223.2,2.7
76.5,222.1,220.3,219.6,220.7,1.3
77.0,225.6,219.6,222.6,222.6,3.0
77.5,225.5,220.6,219.7,222.0,3.1
78.0,220.7,219.7,222.0,220.8,1.2
78.5,219.1,221.4,218.0,219.5,1.8
79.0,222.7,219.9,220.8,221.1,1.4
79.5,219.7,220.6,220.2,220.2,0.5
80.0,222.8,219.0,217.0,219.6,2.9
80.5,217.2,218.9,217.2,217.7,1.0
81.0,219.2,220.3,218.2,219.2,1.1
81.5,220.8,219.4,217.4,219.2,1.7
82.0,220.7,214.2,217.5,217.5,3.3
82.5,217.3,217.3,214.3,216.3,1.7
83.0,216.6,217.7,215.9,216.7,0.9
83.5,214.2,213.6,211.6,213.2,1.4
84.0,212.1,213.5,216.8,214.2,2.4
84.5,216.7,215.1,215.3,215.7,0.9
85.0,212.6,212.0,216.3,213.6,2.3
85.5,213.8,212.1,213.9,213.3,1.0
86.0,214.1,212.7,212.3,213.0,1.0
86.5,213.5,212.0,212.8,212.7,0.7
87.0,214.7,208.0,211.5,211.4,3.3
87.5,210.8,211.6,215.9,212.7,2.8
88.0,212.1,209.1,217.4,212.8,4.2
88.5,211.9,208.8,210.7,210.5,1.6
89.0,213.2,211.4,211.1,211.9,1.1
89.5,211.9,205.4,212.8,210.0,4.0
90.0,211.9,207.8,213.0,210.9,2.7
90.5,209.9,210.1,209.6,209.9,0.3
91.0,208.5,206.6,210.7,208.6,2.1
91.5,209.7,206.6,213.1,209.8,3.3
92.0,214.9,212.8,211.0,212.9,2.0
92.5,210.6,205.6,212.0,209.4,3.3
93.0,210.5,202.0,216.8,209.8,7.4
93.5,213.0,203.3,209.8,208.7,5.0
94.0,204.7,203.2,206.3,204.7,1.6
94.5,206.2,203.9,210.1,206.7,3.1
95.0,207.6,204.4,206.0,206.0,1.6
95.5,203.2,201.3,207.5,204.0,3.2
96.0,204.3,200.8,206.6,203.9,2.9
96.5,205.6,205.1,206.1,205.6,0.5
97.0,206.0,199.6,206.8,204.1,3.9
97.5,208.3,203.0,203.9,205.1,2.8
98.0,206.2,201.9,206.9,205.0,2.7
98.5,203.7,200.5,205.6,203.3,2.6
99.0,200.6,203.8,205.9,203.4,2.6
99.5,199.7,205.2,202.9,202.6,2.8
100.0,199.6,202.9,203.1,201.8,1.9
100.5,205.0,203.7,203.8,204.2,0.7
101.0,201.8,200.0,207.0,202.9,3.6
101.5,198.7,201.7,203.1,201.2,2.3
102.0,200.3,196.9,204.0,200.4,3.6
102.5,198.7,201.2,203.2,201.0,2.3
103.0,198.8,201.6,199.0,199.8,1.6
103.5,196.5,199.1,204.9,200.2,4.3
104.0,197.2,200.1,202.7,200.0,2.8
104.5,197.1,196.9,198.3,197.5,0.7
105.0,194.1,196.9,197.8,196.3,1.9
105.5,197.2,199.2,198.7,198.4,1.1
106.0,197.4,198.1,198.5,198.0,0.6
106.5,196.0,196.5,199.6,197.4,1.9
107.0,197.1,194.5,197.2,196.3,1.5
107.5,193.3,195.3,196.5,195.0,1.6
108.0,195.5,196.7,193.5,195.2,1.7
108.5,197.3,195.3,196.1,196.2,1.0
109.0,194.4,193.9,197.0,195.1,1.7
109.5,193.8,196.3,196.7,195.6,1.5
110.0,192.4,191.6,194.8,193.0,1.7
110.5,190.9,196.0,192.0,193.0,2.7
111.0,188.2,194.5,197.2,193.3,4.6
111.5,190.4,191.9,194.1,192.1,1.8
112.0,190.9,194.2,192.4,192.5,1.7
112.5,190.4,192.3,194.6,192.4,2.1
113.0,189.4,188.2,189.1,188.9,0.7
113.5,188.8,190.7,193.0,190.8,2.1
114.0,187.5,189.2,193.7,190.1,3.2
114.5,192.5,191.4,188.0,190.7,2.4
115.0,192.2,190.8,192.5,191.8,0.9
115.5,188.4,191.0,191.8,190.4,1.8
116.0,190.6,189.2,196.8,192.2,4.0
116.5,190.9,188.8,193.2,190.9,2.2
117.0,188.6,187.7,189.6,188.6,1.0
117.5,193.1,191.0,192.2,192.1,1.1
118.0,193.2,188.5,185.6,189.1,3.8
118.5,187.2,187.9,192.1,189.1,2.7
119.0,190.1,190.1,189.5,189.9,0.4
119.5,187.8,183.5,189.3,186.9,3.0
120.0,188.0,190.1,190.0,189.4,1.2
120.5,189.9,186.3,184.3,186.8,2.9
121.0,187.4,185.7,187.6,186.9,1.0
121.5,189.0,189.9,186.7,188.5,1.7
122.0,189.9,185.4,184.9,186.7,2.7
122.5,187.6,188.0,186.2,187.3,1.0
123.0,185.0,187.3,184.5,185.6,1.5
123.5,187.6,185.6,185.3,186.2,1.3
124.0,187.3,187.8,184.9,186.6,1.5
124.5,185.9,185.3,187.1,186.1,0.9
125.0,185.0,186.4,181.1,184.2,2.7
125.5,182.9,187.7,185.6,185.4,2.4
126.0,183.9,184.9,183.8,184.2,0.6
126.5,183.8,185.9,181.1,183.6,2.4
127.0,182.9,182.8,180.3,182.0,1.5
127.5,184.5,181.5,183.7,183.2,1.6
128.0,179.1,183.7,183.8,182.2,2.7
128.5,183.5,182.5,182.1,182.7,0.7
129.0,181.8,180.3,183.9,182.0,1.8
129.5,177.9,180.8,181.8,180.2,2.0
130.0,182.3,181.5,180.2,181.4,1.1
130.5,181.2,181.0,182.5,181.6,0.8
131.0,181.5,182.8,181.2,181.8,0.8
131.5,179.2,183.0,180.7,181.0,1.9
132.0,179.6,178.9,181.1,179.9,1.2
132.5,180.5,180.6,178.6,179.9,1.1
133.0,178.4,182.3,178.8,179.8,2.2
133.5,179.0,180.1,179.0,179.4,0.6
134.0,178.0,184.4,180.6,181.0,3.2
134.5,178.6,181.3,177.9,179.3,1.8
135.0,181.3,181.4,179.3,180.7,1.2
135.5,177.8,178.8,177.3,177.9,0.8
136.0,177.3,182.7,177.4,179.1,3.1
136.5,179.9,179.9,179.1,179.6,0.4
137.0,173.7,180.5,179.0,177.7,3.6
137.5,178.2,176.5,181.0,178.6,2.3
138.0,177.8,180.1,179.5,179.1,1.2
138.5,175.3,176.4,177.0,176.2,0.9
139.0,175.5,177.9,177.6,177.0,1.3
139.5,176.4,177.4,175.5,176.4,0.9
140.0,172.7,177.4,177.3,175.8,2.7
140.5,175.0,174.5,175.7,175.1,0.6
141.0,173.5,175.0,176.5,175.0,1.5
141.5,171.7,176.3,176.2,174.7,2.6
142.0,172.5,178.5,174.5,175.1,3.0
142.5,170.4,173.2,172.4,172.0,1.5
143.0,175.2,174.9,174.1,174.8,0.5
143.5,171.0,172.2,172.4,171.8,0.8
144.0,170.8,175.6,174.3,173.6,2.5
144.5,170.7,176.7,173.6,173.7,3.0
145.0,172.1,173.3,170.5,172.0,1.4
145.5,170.9,170.1,172.5,171.2,1.2
146.0,171.5,175.1,172.0,172.9,2.0
146.5,171.4,171.6,170.0,171.0,0.9
147.0,171.8,173.3,170.9,172.0,1.2
147.5,171.0,175.6,171.5,172.7,2.5
148.0,171.0,173.6,167.8,170.8,2.9
148.5,173.1,172.3,171.4,172.3,0.8
149.0,173.4,170.7,170.0,171.4,1.8
149.5,169.7,174.6,170.1,171.5,2.7
150.0,170.1,173.1,168.4,170.5,2.4
150.5,167.7,172.4,166.8,169.0,3.0
151.0,175.5,172.3,167.4,171.7,4.1
151.5,168.8,173.7,167.5,170.0,3.3
152.0,168.7,173.1,169.4,170.4,2.4
152.5,168.3,169.5,169.2,169.0,0.6
153.0,168.4,170.2,168.3,169.0,1.0
153.5,171.0,169.8,166.2,169.0,2.5
154.0,169.7,171.2,166.1,169.0,2.6
154.5,170.7,170.3,163.5,168.2,4.1
155.0,167.7,170.9,165.5,168.0,2.7
155.5,169.0,172.8,166.3,169.4,3.3
156.0,168.9,170.2,164.5,167.9,3.0
156.5,168.3,166.4,163.5,166.1,2.4
157.0,169.0,170.6,164.6,168.1,3.1
157.5,169.8,168.4,166.6,168.3,1.6
158.0,167.0,169.3,161.4,165.9,4.1
158.5,169.1,166.5,163.6,166.4,2.7
159.0,167.5,166.7,161.7,165.3,3.1
159.5,168.5,168.7,164.4,167.2,2.4
160.0,167.0,167.6,166.2,166.9,0.7
160.5,167.4,167.6,163.6,166.2,2.2
161.0,165.8,166.6,162.1,164.8,2.4
161.5,165.4,165.4,162.6,164.5,1.6
162.0,165.7,167.4,162.2,165.1,2.7
162.5,162.6,169.5,162.8,165.0,3.9
163.0,164.3,170.1,162.2,165.5,4.1
163.5,164.9,168.0,160.1,164.3,4.0
164.0,163.0,166.1,159.7,162.9,3.2
164.5,163.8,168.3,161.6,164.6,3.4
165.0,165.6,167.8,161.8,165.1,3.0
165.5,164.6,167.1,160.3,164.0,3.4
166.0,164.0,164.3,161.0,163.1,1.8
166.5,164.4,165.2,160.5,163.3,2.5
167.0,162.7,165.4,156.0,161.4,4.8
167.5,163.8,168.8,158.7,163.8,5.1
168.0,164.4,166.7,157.9,163.0,4.5
168.5,164.2,165.9,156.9,162.3,4.8
169.0,162.2,166.2,158.3,162.2,4.0
169.5,161.0,167.6,159.2,162.6,4.4
170.0,165.1,164.9,159.1,163.0,3.4
170.5,162.4,166.4,160.6,163.1,3.0
171.0,163.0,167.8,159.7,163.5,4.1
171.5,165.6,168.2,155.7,163.2,6.6
172.0,162.0,167.2,160.5,163.2,3.5
172.5,163.0,167.6,156.8,162.5,5.4
173.0,161.9,164.2,159.1,161.7,2.5
173.5,163.6,166.8,159.4,163.3,3.7
174.0,160.9,164.7,156.5,160.7,4.1
174.5,161.6,167.0,158.5,162.4,4.3
175.0,161.8,168.7,158.4,163.0,5.3
175.5,162.6,167.8,157.7,162.7,5.1
176.0,159.6,168.5,155.1,161.1,6.8
176.5,158.9,164.4,159.4,160.9,3.0
177.0,161.9,163.5,158.9,161.4,2.3
177.5,163.2,165.1,158.1,162.1,3.7
178.0,162.8,166.0,158.4,162.4,3.8
178.5,160.4,161.6,158.1,160.0,1.7
179.0,160.0,165.5,156.9,160.8,4.4
179.5,161.5,163.7,158.3,161.1,2.7
180.0,161.7,163.5,156.2,160.5,3.8
180.5,162.7,166.5,158.2,162.5,4.1
181.0,160.5,163.6,155.4,159.9,4.1
181.5,160.1,165.1,157.8,161.0,3.7
182.0,162.9,166.3,156.2,161.8,5.1
182.5,162.6,162.1,155.2,159.9,4.1
183.0,160.1,164.5,156.4,160.3,4.1
183.5,159.7,167.9,159.4,162.3,4.8
184.0,161.7,165.9,156.3,161.3,4.8
184.5,159.1,165.7,157.2,160.6,4.5
185.0,160.4,166.2,155.7,160.8,5.3
185.5,158.4,164.9,157.7,160.3,4.0
186.0,158.5,164.4,156.9,159.9,4.0
186.5,159.6,163.8,157.2,160.2,3.4
187.0,158.0,166.1,158.6,160.9,4.5
187.5,158.7,163.9,157.0,159.9,3.6
188.0,159.3,164.7,156.1,160.0,4.3
188.5,158.2,161.5,154.4,158.0,3.6
189.0,159.2,165.1,154.3,159.5,5.4
189.5,159.1,162.1,157.9,159.7,2.2
190.0,156.8,161.6,154.2,157.5,3.8
190.5,160.2,163.2,155.0,159.5,4.2
191.0,159.0,162.4,155.9,159.1,3.3
191.5,159.9,164.5,153.4,159.3,5.6
192.0,158.3,163.6,154.0,158.6,4.8
192.5,158.5,161.5,156.3,158.8,2.6
193.0,157.0,164.0,154.3,158.4,5.0
193.5,159.4,165.5,154.2,159.7,5.6
194.0,160.3,163.5,153.6,159.1,5.0
194.5,157.1,163.2,157.1,159.1,3.5
195.0,155.7,164.1,154.7,158.2,5.2
195.5,157.6,161.3,154.3,157.7,3.5
196.0,157.2,161.6,153.0,157.3,4.3
196.5,159.0,163.0,154.8,158.9,4.1
197.0,158.9,162.5,157.1,159.5,2.7
197.5,159.2,162.1,154.2,158.5,4.0
198.0,156.4,162.2,153.3,157.3,4.5
198.5,157.8,160.9,152.7,157.1,4.1
199.0,156.4,161.9,155.8,158.1,3.4
199.5,159.3,161.1,151.0,157.1,5.4
200.0,158.2,161.5,154.2,158.0,3.7
200.5,158.9,160.6,153.7,157.7,3.6
201.0,160.1,159.5,155.0,158.2,2.8
201.5,158.0,160.8,152.8,157.2,4.0
202.0,159.5,161.5,153.2,158.1,4.3
202.5,154.2,159.2,152.8,155.4,3.4
203.0,156.2,158.7,151.3,155.4,3.8
203.5,156.5,158.8,151.0,155.4,4.0
204.0,155.0,158.9,150.7,154.9,4.1
204.5,154.5,162.8,152.0,156.4,5.7
205.0,158.0,158.7,151.9,156.2,3.7
205.5,158.2,158.2,154.1,156.8,2.4
206.0,157.6,160.7,152.5,156.9,4.1
206.5,154.8,159.5,153.0,155.8,3.3
207.0,154.6,160.7,154.0,156.4,3.7
207.5,156.1,163.8,152.8,157.5,5.6
208.0,154.5,160.6,154.6,156.6,3.5
208.5,157.1,160.9,152.7,156.9,4.1
209.0,156.7,160.1,153.6,156.8,3.2
209.5,158.3,160.5,150.3,156.4,5.4
210.0,154.5,158.9,152.5,155.3,3.3
210.5,155.1,158.6,154.5,156.1,2.2
211.0,154.7,159.0,151.9,155.2,3.6
211.5,155.5,160.2,152.1,155.9,4.1
212.0,154.7,159.3,152.3,155.4,3.6
212.5,158.5,158.7,153.0,156.7,3.2
213.0,156.5,156.3,152.6,155.1,2.2
213.5,153.8,159.1,151.8,154.9,3.8
214.0,157.1,159.1,151.7,156.0,3.8
214.5,156.2,158.0,153.0,155.8,2.6
215.0,154.9,157.3,154.3,155.5,1.6
215.5,154.2,158.7,151.2,154.7,3.8
216.0,155.5,156.9,154.1,155.5,1.4
216.5,156.4,156.1,154.8,155.8,0.9
217.0,157.5,157.6,153.9,156.3,2.1
217.5,159.2,156.6,156.7,157.5,1.4
218.0,155.2,160.4,157.6,157.7,2.6
218.5,157.3,157.6,151.5,155.5,3.4
219.0,156.1,156.4,152.9,155.1,2.0
219.5,155.6,159.0,153.4,156.0,2.8
220.0,156.6,156.2,149.6,154.1,3.9
220.5,157.7,156.1,153.8,155.8,1.9
221.0,157.9,160.4,152.5,156.9,4.1
221.5,160.2,154.9,152.1,155.7,4.1
222.0,159.0,157.3,153.2,156.5,3.0
222.5,157.6,158.0,152.4,156.0,3.1
223.0,157.6,156.1,153.9,155.9,1.9
223.5,157.7,156.3,152.8,155.6,2.5
224.0,157.8,153.7,152.0,154.5,3.0
224.5,156.7,156.5,150.6,154.6,3.5
225.0,156.5,154.3,153.4,154.7,1.6
225.5,157.6,154.4,152.5,154.8,2.5
226.0,155.7,153.9,151.3,153.6,2.2
226.5,157.6,155.1,152.7,155.2,2.5
227.0,156.3,156.4,150.4,154.3,3.5
227.5,153.8,154.6,150.9,153.1,1.9
228.0,154.7,156.0,151.8,154.1,2.2
228.5,158.2,154.0,151.7,154.6,3.3
229.0,157.8,158.1,152.3,156.1,3.3
229.5,154.7,157.3,152.1,154.7,2.6
230.0,158.0,153.9,151.3,154.4,3.4
230.5,158.0,156.1,150.8,155.0,3.7
231.0,157.5,154.3,152.1,154.7,2.7
231.5,154.9,155.3,152.3,154.1,1.6
232.0,157.5,154.0,150.2,153.9,3.7
232.5,157.8,153.2,150.6,153.9,3.7
233.0,156.4,154.1,148.8,153.1,3.9
233.5,153.5,153.0,149.8,152.1,2.0
234.0,155.8,155.9,149.7,153.8,3.6
234.5,157.1,151.3,151.4,153.3,3.3
235.0,156.6,152.3,148.4,152.4,4.1
235.5,154.4,154.8,146.7,152.0,4.6
236.0,154.4,155.4,150.7,153.5,2.5
236.5,155.6,153.3,149.9,152.9,2.9
237.0,154.5,153.0,148.4,152.0,3.2
237.5,154.5,152.5,149.6,152.2,2.5
238.0,153.7,155.6,147.1,152.1,4.4
238.5,155.9,153.8,151.8,153.8,2.0
239.0,154.6,153.5,149.6,152.6,2.6
239.5,157.6,156.4,150.6,154.9,3.7
240.0,157.2,153.5,152.0,154.2,2.7
240.5,156.8,155.4,148.1,153.5,4.7
241.0,157.5,153.2,150.4,153.7,3.6
241.5,155.3,152.9,148.5,152.2,3.4
242.0,156.6,156.1,149.4,154.0,4.0
242.5,156.4,155.6,151.9,154.6,2.4
243.0,157.5,154.2,150.8,154.1,3.3
243.5,153.4,156.2,150.7,153.4,2.8
244.0,154.9,154.6,150.0,153.2,2.7
244.5,156.7,153.7,152.0,154.1,2.4
245.0,159.5,154.1,152.6,155.4,3.6
245.5,156.2,154.2,150.0,153.5,3.2
246.0,157.7,157.6,150.0,155.1,4.4
246.5,157.1,155.5,151.6,154.7,2.8
247.0,155.3,154.8,151.3,153.8,2.2
247.5,156.3,154.1,151.7,154.0,2.3
248.0,156.7,155.3,150.1,154.0,3.5
248.5,155.4,155.2,152.3,154.3,1.7
249.0,156.5,155.6,149.2,153.8,4.0
249.5,158.0,154.7,150.0,154.3,4.0
250.0,154.7,153.0,151.3,153.0,1.7
250.5,156.6,154.5,151.3,154.1,2.7
251.0,156.1,154.7,149.2,153.3,3.6
251.5,156.1,155.4,150.0,153.9,3.3
252.0,154.0,157.3,148.3,153.2,4.6
252.5,155.6,155.6,152.3,154.5,1.9
253.0,154.6,154.7,150.3,153.2,2.5
253.5,156.6,151.9,150.6,153.0,3.2
254.0,155.2,155.7,151.1,154.0,2.5
254.5,155.9,155.6,152.8,154.7,1.7
255.0,157.5,154.1,151.5,154.4,3.0
255.5,154.9,152.0,150.3,152.4,2.4
256.0,155.8,153.6,150.8,153.4,2.5
256.5,154.2,155.7,150.1,153.3,2.9
257.0,156.3,156.3,147.6,153.4,5.0
257.5,157.8,154.8,150.3,154.3,3.7
258.0,156.5,154.6,148.5,153.2,4.1
258.5,159.2,154.8,149.3,154.4,4.9
259.0,155.3,156.8,148.2,153.4,4.6
259.5,157.1,154.3,148.0,153.2,4.7
260.0,154.2,156.3,149.7,153.4,3.4
260.5,155.4,156.2,149.5,153.7,3.6
261.0,155.5,155.7,147.7,153.0,4.6
261.5,153.4,156.2,150.3,153.3,2.9
262.0,158.9,156.4,146.7,154.0,6.4
262.5,155.5,155.2,148.0,152.9,4.2
263.0,156.0,153.6,150.0,153.2,3.1
263.5,155.2,154.2,149.4,153.0,3.1
264.0,157.9,154.1,147.7,153.3,5.2
264.5,158.7,153.8,150.7,154.4,4.0
265.0,155.9,155.4,146.8,152.7,5.1
265.5,154.8,155.6,149.2,153.2,3.5
266.0,155.3,155.7,148.5,153.2,4.0
266.5,156.7,155.7,147.9,153.5,4.9
267.0,156.0,154.7,151.4,154.1,2.4
267.5,158.1,157.1,147.5,154.2,5.9
268.0,156.4,155.1,150.1,153.9,3.3
268.5,155.5,155.5,150.0,153.7,3.1
269.0,154.8,153.4,149.3,152.5,2.9
269.5,154.8,155.1,148.7,152.9,3.6
270.0,156.9,153.4,149.7,153.3,3.6
270.5,155.1,155.7,150.6,153.8,2.8
271.0,157.1,153.8,148.2,153.0,4.5
271.5,156.6,154.9,149.6,153.7,3.6
272.0,157.0,157.5,152.6,155.7,2.7
272.5,156.8,153.6,151.3,153.9,2.8
273.0,155.1,153.9,149.4,152.8,3.0
273.5,157.1,156.3,151.5,155.0,3.0
274.0,158.1,153.6,148.5,153.4,4.8
274.5,159.2,158.6,148.3,155.4,6.1
275.0,159.1,153.4,150.0,154.1,4.6
275.5,157.9,154.2,149.8,154.0,4.1
276.0,157.6,154.9,149.6,154.0,4.1
276.5,156.9,154.3,149.0,153.4,4.0
277.0,156.5,152.3,149.2,152.7,3.6
277.5,157.3,155.7,152.0,155.0,2.7
278.0,155.7,155.5,152.0,154.4,2.1
278.5,155.8,155.9,150.6,154.1,3.0
279.0,155.9,153.9,153.4,154.4,1.3
279.5,154.3,157.9,151.4,154.5,3.2
280.0,157.0,157.8,150.8,155.2,3.9
280.5,156.7,155.0,153.7,155.1,1.5
281.0,157.5,154.7,149.3,153.8,4.2
281.5,156.3,153.6,147.9,152.6,4.3
282.0,157.1,155.6,149.2,154.0,4.2
282.5,158.1,155.8,151.2,155.0,3.5
283.0,157.0,157.2,153.3,155.8,2.2
283.5,156.9,154.8,150.4,154.0,3.3
284.0,156.4,156.3,148.5,153.7,4.5
284.5,160.3,155.2,151.6,155.7,4.4
285.0,157.4,154.7,151.5,154.5,3.0
285.5,157.1,154.2,148.2,153.2,4.6
286.0,158.5,158.0,150.8,155.7,4.3
286.5,159.2,154.8,149.7,154.6,4.7
287.0,157.3,154.4,146.7,152.8,5.5
287.5,157.6,155.4,149.6,154.2,4.1
288.0,157.1,153.6,148.6,153.1,4.3
288.5,160.9,153.9,152.1,155.6,4.7
289.0,158.5,155.2,149.9,154.6,4.4
289.5,157.0,153.7,148.5,153.1,4.3
290.0,158.4,154.3,150.2,154.3,4.1
290.5,158.1,153.4,148.4,153.3,4.9
291.0,157.2,154.0,151.2,154.1,3.0
291.5,156.7,154.4,149.7,153.6,3.5
292.0,158.7,153.6,151.8,154.7,3.6
292.5,158.6,154.8,152.3,155.2,3.2
293.0,158.1,155.3,150.4,154.6,3.9
293.5,159.4,156.4,152.2,156.0,3.6
294.0,158.0,155.9,148.1,154.0,5.2
294.5,159.1,157.0,150.9,155.7,4.3
295.0,158.2,157.1,147.9,154.4,5.6
295.5,156.9,156.2,148.8,154.0,4.5
296.0,159.7,157.0,149.1,155.2,5.5
296.5,155.1,156.8,149.7,153.8,3.7
297.0,158.5,154.0,152.2,154.9,3.2
297.5,161.4,154.3,149.9,155.2,5.8
298.0,156.7,156.3,147.3,153.4,5.3
298.5,158.8,156.9,147.2,154.3,6.2
299.0,157.6,154.9,151.9,154.8,2.9
299.5,157.7,153.8,150.7,154.0,3.5
300.0,158.2,156.7,149.0,154.6,4.9
300.5,157.6,155.6,150.6,154.6,3.6
301.0,156.9,155.4,152.3,154.9,2.4
301.5,156.4,154.7,150.6,153.9,2.9
302.0,160.4,157.1,149.0,155.5,5.9
302.5,158.6,155.2,151.7,155.2,3.5
303.0,158.7,154.7,150.4,154.6,4.2
303.5,157.6,157.9,149.1,154.8,5.0
304.0,159.3,159.7,148.7,155.9,6.2
304.5,159.4,155.6,151.8,155.6,3.8
305.0,158.6,158.5,150.5,155.9,4.7
305.5,159.3,155.6,149.2,154.7,5.2
306.0,158.2,155.5,150.3,154.7,4.0
306.5,159.0,155.1,150.5,154.9,4.3
307.0,160.2,156.5,148.7,155.1,5.9
307.5,159.7,157.1,151.2,156.0,4.4
308.0,159.4,158.6,150.1,156.1,5.2
308.5,157.7,157.0,150.5,155.1,4.0
309.0,158.5,154.8,150.7,154.7,3.9
309.5,157.0,158.7,148.4,154.7,5.5
310.0,158.5,158.1,150.9,155.8,4.3
310.5,159.0,153.8,148.9,153.9,5.0
311.0,157.9,154.9,148.6,153.8,4.8
311.5,158.7,155.6,151.2,155.2,3.8
312.0,162.3,155.2,149.8,155.7,6.3
312.5,160.0,157.9,149.5,155.8,5.5
313.0,158.9,155.7,150.2,154.9,4.4
313.5,157.1,156.8,151.8,155.2,3.0
314.0,160.0,158.1,153.2,157.1,3.5
314.5,158.9,158.3,149.5,155.5,5.2
315.0,160.1,155.4,150.6,155.3,4.7
315.5,159.9,157.3,151.2,156.1,4.5
316.0,160.6,155.3,149.8,155.3,5.4
316.5,159.4,158.1,153.2,156.9,3.2
317.0,158.3,157.3,151.1,155.6,3.9
317.5,157.5,156.6,152.1,155.4,2.9
318.0,159.4,157.5,149.9,155.6,5.0
318.5,158.2,158.8,151.8,156.3,3.9
319.0,159.4,155.9,148.1,154.5,5.8
319.5,159.8,155.4,152.4,155.9,3.7
320.0,158.9,158.0,150.8,155.9,4.4
320.5,156.6,159.1,152.8,156.2,3.2
321.0,161.4,157.7,152.3,157.1,4.6
321.5,161.2,156.3,148.9,155.5,6.2
322.0,159.0,156.7,151.3,155.7,4.0
322.5,157.1,158.7,149.0,155.0,5.2
323.0,161.0,154.9,150.7,155.5,5.2
323.5,158.6,155.0,146.4,153.3,6.3
324.0,161.7,157.5,148.9,156.1,6.5
324.5,158.9,155.8,149.6,154.8,4.7
325.0,159.4,155.8,150.0,155.1,4.7
325.5,160.6,156.8,147.6,155.0,6.7
326.0,160.9,156.0,148.0,155.0,6.5
326.5,162.1,156.0,149.7,155.9,6.2
327.0,163.2,156.9,151.0,157.0,6.1
327.5,158.6,156.3,147.2,154.0,6.0
328.0,161.2,159.7,148.3,156.4,7.1
328.5,158.9,156.2,147.7,154.3,5.9
329.0,161.5,156.6,147.8,155.3,6.9
329.5,159.0,156.4,147.3,154.2,6.2
330.0,159.8,154.8,148.8,154.5,5.5
330.5,158.6,154.9,145.4,153.0,6.8
331.0,159.8,158.0,149.1,155.6,5.7
331.5,161.4,156.2,149.3,155.7,6.1
332.0,163.2,156.7,146.8,155.5,8.3
332.5,161.9,157.2,147.4,155.5,7.4
333.0,161.9,157.0,145.8,154.9,8.3
333.5,161.5,157.2,148.4,155.7,6.7
334.0,160.9,159.0,149.7,156.5,6.0
334.5,163.4,155.9,148.2,155.8,7.6
335.0,162.7,158.2,148.6,156.5,7.2
335.5,162.7,157.3,148.3,156.1,7.3
336.0,160.3,157.8,148.0,155.4,6.5
336.5,160.5,156.5,149.0,155.3,5.8
337.0,160.2,156.9,148.0,155.0,6.3
337.5,160.7,155.7,150.8,155.7,4.9
338.0,157.5,155.3,147.9,153.6,5.0
338.5,160.7,158.4,149.9,156.3,5.7
339.0,161.6,159.3,151.3,157.4,5.4
339.5,159.6,155.9,150.5,155.3,4.6
340.0,158.7,157.4,149.5,155.2,5.0
340.5,160.2,155.2,148.0,154.5,6.1
341.0,160.8,158.0,150.2,156.3,5.5
341.5,159.2,156.8,147.7,154.6,6.1
342.0,161.7,158.5,149.2,156.5,6.5
342.5,160.2,157.4,150.3,156.0,5.1
343.0,159.3,155.4,147.6,154.1,6.0
343.5,159.8,155.4,150.3,155.1,4.8
344.0,160.0,158.2,148.8,155.7,6.0
344.5,159.9,158.0,149.1,155.7,5.8
345.0,160.5,157.9,147.9,155.4,6.7
345.5,159.4,157.6,149.0,155.3,5.6
346.0,159.6,159.5,149.3,156.1,5.9
346.5,159.6,159.7,150.3,156.5,5.4
347.0,159.5,159.8,149.2,156.1,6.0
347.5,160.6,158.3,152.0,157.0,4.5
348.0,162.4,158.4,150.7,157.2,6.0
348.5,163.1,158.4,153.3,158.3,4.9
349.0,163.9,159.2,152.5,158.5,5.8
349.5,165.3,158.5,153.6,159.2,5.9
350.0,162.5,157.7,147.6,155.9,7.6
350.5,161.2,159.6,153.9,158.2,3.8
351.0,160.0,157.6,153.9,157.1,3.1
351.5,163.6,156.0,153.9,157.9,5.1
352.0,162.4,156.4,152.0,156.9,5.3
352.5,162.8,157.7,150.2,156.9,6.4
353.0,165.1,160.9,151.4,159.2,7.0
353.5,161.7,162.0,150.4,158.1,6.6
354.0,164.0,159.4,152.6,158.7,5.7
354.5,161.3,159.1,151.4,157.3,5.2
355.0,161.5,161.0,152.1,158.2,5.2
355.5,161.1,158.2,149.3,156.2,6.2
356.0,163.0,158.3,151.1,157.5,6.0
356.5,160.6,161.4,151.3,157.8,5.7
357.0,160.4,161.4,150.7,157.5,5.9
357.5,160.9,160.0,151.4,157.4,5.2
358.0,163.6,162.9,151.1,159.2,7.0
358.5,161.6,162.0,151.0,158.2,6.2
359.0,163.4,161.9,152.6,159.3,5.8
359.5,164.6,162.2,152.7,159.8,6.3
360.0,162.0,158.2,152.9,157.7,4.6
360.5,163.6,161.6,153.2,159.5,5.5
361.0,161.8,164.6,151.3,159.2,7.0
361.5,161.9,160.5,153.2,158.5,4.6
362.0,161.5,164.7,156.0,160.7,4.4
362.5,161.5,161.1,153.6,158.7,4.4
363.0,163.9,161.6,154.8,160.1,4.7
363.5,163.6,162.4,153.7,159.9,5.4
364.0,167.4,160.7,152.0,160.0,7.7
364.5,163.4,162.2,155.5,160.4,4.3
365.0,164.0,161.8,152.1,159.3,6.3
365.5,162.6,164.9,153.6,160.4,6.0
366.0,160.9,163.5,155.5,160.0,4.1
366.5,163.2,162.4,155.7,160.4,4.1
367.0,165.3,164.8,154.3,161.4,6.2
367.5,163.4,161.6,152.8,159.2,5.7
368.0,164.7,165.3,154.7,161.6,6.0
368.5,163.2,163.4,154.3,160.3,5.2
369.0,161.7,163.6,155.7,160.3,4.1
369.5,161.8,163.2,152.5,159.1,5.8
370.0,161.9,163.2,154.3,159.8,4.8
370.5,164.8,162.5,154.4,160.6,5.5
371.0,162.5,162.0,154.5,159.6,4.5
371.5,162.4,160.4,155.5,159.5,3.6
372.0,163.7,162.1,154.3,160.0,5.0
372.5,162.3,162.2,154.4,159.6,4.5
373.0,161.3,159.6,153.9,158.3,3.9
373.5,165.5,164.1,151.8,160.5,7.5
374.0,163.7,163.0,152.0,159.6,6.6
374.5,163.7,162.1,154.3,160.0,5.1
375.0,162.4,159.4,153.9,158.6,4.3
375.5,166.5,162.1,154.2,160.9,6.3
376.0,163.2,160.0,153.2,158.8,5.1
376.5,162.5,160.8,153.9,159.1,4.6
377.0,164.9,161.9,155.1,160.6,5.0
377.5,161.6,161.9,154.1,159.2,4.4
378.0,164.9,161.6,155.0,160.5,5.0
378.5,163.9,160.8,159.2,161.3,2.4
379.0,163.4,163.8,157.2,161.5,3.7
379.5,162.9,164.7,159.4,162.3,2.7
380.0,163.8,162.9,156.3,161.0,4.1
380.5,163.6,164.9,158.3,162.3,3.5
381.0,161.8,165.1,155.7,160.8,4.8
381.5,158.9,162.3,157.0,159.4,2.7
382.0,164.8,165.3,156.6,162.3,4.9
382.5,163.5,162.6,157.4,161.2,3.3
383.0,161.4,162.7,160.2,161.5,1.2
383.5,165.7,163.0,158.7,162.5,3.5
384.0,162.3,162.7,155.7,160.2,3.9
384.5,162.3,162.4,158.5,161.1,2.2
385.0,163.2,163.9,158.8,162.0,2.8
385.5,165.0,164.6,155.1,161.6,5.6
386.0,164.1,165.4,159.8,163.1,3.0
386.5,161.4,165.0,161.6,162.7,2.0
387.0,164.6,166.7,159.2,163.5,3.9
387.5,163.1,165.3,156.7,161.7,4.5
388.0,161.7,164.2,156.1,160.7,4.2
388.5,162.3,165.5,156.2,161.3,4.7
389.0,164.2,166.0,159.5,163.2,3.4
389.5,165.2,168.6,155.7,163.1,6.7
390.0,162.7,165.5,157.1,161.8,4.3
390.5,161.8,165.8,158.4,162.0,3.7
391.0,164.9,169.1,157.5,163.9,5.9
391.5,161.1,165.3,162.2,162.8,2.2
392.0,166.8,165.0,160.0,163.9,3.5
392.5,163.3,167.1,158.1,162.8,4.5
393.0,163.8,169.1,161.7,164.9,3.8
393.5,161.9,166.2,161.2,163.1,2.7
394.0,165.1,168.0,160.4,164.5,3.8
394.5,165.8,165.0,164.1,164.9,0.9
395.0,164.9,168.1,162.0,165.0,3.1
395.5,164.4,167.8,160.5,164.2,3.7
396.0,163.5,166.5,166.5,165.5,1.7
396.5,164.7,167.5,161.1,164.4,3.2
397.0,167.2,166.2,162.7,165.4,2.4
397.5,166.6,166.8,162.7,165.3,2.3
398.0,164.2,167.5,164.3,165.3,1.9
398.5,165.3,169.5,165.1,166.6,2.5
399.0,164.4,167.4,162.2,164.7,2.6
399.5,171.3,165.4,165.7,167.5,3.3
400.0,165.1,166.4,163.1,164.8,1.7
400.5,163.9,167.2,166.6,165.9,1.8
401.0,165.3,166.9,163.7,165.3,1.6
401.5,165.7,167.5,165.3,166.1,1.2
402.0,165.6,166.2,163.8,165.2,1.2
402.5,162.4,167.2,165.6,165.1,2.4
403.0,163.6,164.9,165.3,164.6,0.9
403.5,165.1,168.5,165.9,166.5,1.8
404.0,166.3,167.5,163.3,165.7,2.1
404.5,165.3,169.0,169.5,167.9,2.3
405.0,163.0,166.4,165.7,165.1,1.8
405.5,166.5,171.6,165.6,167.9,3.2
406.0,166.1,168.1,167.1,167.1,1.0
406.5,168.0,168.0,167.2,167.7,0.5
407.0,164.7,168.2,165.6,166.2,1.8
407.5,165.4,168.4,170.0,167.9,2.3
408.0,168.5,167.1,166.3,167.3,1.1
408.5,165.3,168.6,167.1,167.0,1.6
409.0,165.6,166.9,169.6,167.4,2.1
409.5,167.4,168.4,168.6,168.1,0.6
410.0,164.7,169.6,165.7,166.7,2.6
410.5,166.7,166.5,167.7,166.9,0.6
411.0,166.2,170.8,168.3,168.4,2.3
411.5,164.0,170.0,168.8,167.6,3.1
412.0,167.3,169.7,169.2,168.7,1.3
412.5,166.0,169.8,168.2,168.0,1.9
413.0,165.9,170.9,168.2,168.3,2.5
413.5,164.2,168.4,167.8,166.8,2.3
414.0,165.6,170.8,170.1,168.8,2.8
414.5,166.4,169.5,167.0,167.6,1.7
415.0,165.9,171.6,166.3,167.9,3.1
415.5,163.4,171.9,169.9,168.4,4.5
416.0,164.5,169.3,171.2,168.3,3.5
416.5,166.9,171.1,169.1,169.0,2.1
417.0,167.7,170.5,169.8,169.3,1.4
417.5,169.4,170.0,172.7,170.7,1.7
418.0,165.0,173.6,173.2,170.6,4.8
418.5,165.6,172.0,172.2,170.0,3.7
419.0,166.7,173.6,170.7,170.3,3.4
419.5,169.8,169.1,171.2,170.0,1.1
420.0,168.9,169.6,170.2,169.6,0.6
420.5,168.3,170.5,173.4,170.7,2.6
421.0,169.6,171.1,173.3,171.3,1.9
421.5,169.5,170.1,168.7,169.4,0.7
422.0,170.1,171.8,171.1,171.0,0.9
422.5,169.0,172.6,173.8,171.8,2.5
423.0,170.2,172.8,173.1,172.1,1.6
423.5,170.2,174.7,174.1,173.0,2.4
424.0,170.5,175.7,169.5,171.9,3.3
424.5,170.3,170.7,173.3,171.4,1.7
425.0,169.1,171.1,170.0,170.1,1.0
425.5,170.3,173.5,170.7,171.5,1.7
426.0,167.9,172.5,171.0,170.5,2.3
426.5,169.2,172.5,172.1,171.2,1.8
427.0,167.8,173.3,176.0,172.4,4.2
427.5,168.0,172.2,173.5,171.2,2.9
428.0,170.8,174.9,176.1,173.9,2.8
428.5,169.6,172.2,173.0,171.6,1.8
429.0,169.2,172.2,174.7,172.0,2.7
429.5,169.4,175.2,174.7,173.1,3.2
430.0,167.5,174.6,173.5,171.9,3.8
430.5,172.2,169.2,176.2,172.5,3.5
431.0,170.9,173.2,173.0,172.4,1.3
431.5,170.9,172.5,173.3,172.2,1.2
432.0,167.4,175.7,176.3,173.1,5.0
432.5,169.6,173.0,175.7,172.8,3.0
433.0,170.1,173.3,174.4,172.6,2.3
433.5,168.6,176.3,175.6,173.5,4.3
434.0,170.6,173.4,173.0,172.3,1.5
434.5,168.5,174.9,174.2,172.5,3.5
435.0,170.8,175.3,177.9,174.7,3.6
435.5,172.9,173.8,179.2,175.3,3.4
436.0,169.2,176.7,173.9,173.3,3.8
436.5,173.7,173.0,178.5,175.1,3.0
437.0,167.9,176.2,179.8,174.7,6.1
437.5,171.5,177.0,178.5,175.6,3.7
438.0,170.2,175.9,181.6,175.9,5.7
438.5,171.4,173.0,178.7,174.4,3.8
439.0,171.9,174.7,176.5,174.4,2.3
439.5,173.1,175.6,179.5,176.1,3.2
440.0,173.3,177.1,178.7,176.4,2.8
440.5,172.5,174.7,180.7,176.0,4.3
441.0,170.9,175.2,183.1,176.4,6.2
441.5,169.5,171.4,182.4,174.4,6.9
442.0,172.1,172.9,182.1,175.7,5.6
442.5,172.9,175.3,182.4,176.9,5.0
443.0,173.6,175.0,180.8,176.5,3.8
443.5,171.4,175.2,180.5,175.7,4.5
444.0,172.0,174.4,182.0,176.1,5.2
444.5,173.2,174.5,186.0,177.9,7.0
445.0,174.4,176.4,181.8,177.5,3.8
445.5,172.9,174.9,185.4,177.7,6.7
446.0,172.7,178.9,182.2,177.9,4.8
446.5,174.8,175.2,180.9,176.9,3.4
447.0,173.4,177.1,182.9,177.8,4.8
447.5,174.9,180.8,184.2,180.0,4.7
448.0,174.7,179.4,187.3,180.5,6.4
448.5,174.9,176.6,188.3,179.9,7.3
449.0,172.0,179.3,183.7,178.3,5.9
449.5,173.1,179.5,186.5,179.7,6.7
450.0,171.3,180.6,185.1,179.0,7.0
450.5,173.3,180.8,187.5,180.5,7.1
451.0,175.8,178.3,186.8,180.3,5.7
451.5,175.4,178.4,184.3,179.4,4.5
452.0,175.8,180.6,188.3,181.6,6.3
452.5,173.3,182.9,184.1,180.1,5.9
453.0,174.4,182.5,184.2,180.4,5.3
453.5,176.5,178.5,187.1,180.7,5.6
454.0,176.3,181.4,189.0,182.2,6.4
454.5,177.0,182.5,187.4,182.3,5.2
455.0,177.8,179.6,187.9,181.8,5.4
455.5,179.0,180.8,187.4,182.4,4.5
456.0,178.2,180.7,187.8,182.2,5.0
456.5,179.4,179.5,190.7,183.2,6.5
457.0,177.3,182.9,186.0,182.1,4.4
457.5,177.2,183.5,187.1,182.6,5.0
458.0,180.2,181.0,186.5,182.6,3.4
458.5,180.1,187.9,188.5,185.5,4.7
459.0,178.6,184.2,189.3,184.0,5.3
459.5,178.7,181.5,185.4,181.9,3.4
460.0,177.3,184.9,186.0,182.7,4.7
460.5,178.5,183.9,185.3,182.6,3.6
461.0,179.3,184.7,189.3,184.4,5.0
461.5,178.9,183.4,188.1,183.5,4.6
462.0,177.5,186.1,184.4,182.7,4.5
462.5,178.9,183.6,187.9,183.5,4.5
463.0,179.2,183.5,189.1,183.9,4.9
463.5,181.0,187.1,188.1,185.4,3.8
464.0,182.9,186.5,190.8,186.7,4.0
464.5,179.5,185.1,187.6,184.1,4.2
465.0,183.8,185.5,194.1,187.8,5.5
465.5,182.5,187.7,188.4,186.2,3.2
466.0,178.7,186.0,188.8,184.5,5.2
466.5,179.2,187.6,189.7,185.5,5.6
467.0,183.9,188.6,190.5,187.7,3.4
467.5,181.4,188.2,190.9,186.8,4.9
468.0,182.6,186.7,196.5,188.6,7.1
468.5,183.8,195.0,191.1,190.0,5.7
469.0,181.8,186.2,193.4,187.1,5.8
469.5,180.6,190.0,193.4,188.0,6.6
470.0,184.5,189.0,195.2,189.5,5.4
470.5,182.3,194.2,192.4,189.6,6.4
471.0,181.5,191.2,190.2,187.7,5.3
471.5,183.3,191.5,192.6,189.2,5.1
472.0,181.4,190.4,196.5,189.4,7.6
472.5,185.3,189.6,196.0,190.3,5.4
473.0,182.4,190.2,193.0,188.6,5.5
473.5,183.0,192.6,196.6,190.7,7.0
474.0,185.9,195.0,193.0,191.3,4.8
474.5,182.8,190.7,195.5,189.6,6.4
475.0,183.5,191.9,194.5,189.9,5.7
475.5,183.0,196.1,196.1,191.7,7.6
476.0,184.2,192.0,197.5,191.2,6.7
476.5,180.2,192.6,196.0,189.6,8.3
477.0,181.8,193.6,195.3,190.2,7.4
477.5,182.7,197.2,195.3,191.7,7.9
478.0,185.6,194.7,198.3,192.8,6.6
478.5,184.9,196.9,196.9,192.9,6.9
479.0,186.0,199.1,198.8,194.6,7.5
479.5,185.5,193.8,199.5,192.9,7.1
480.0,187.2,194.6,198.5,193.4,5.7
480.5,186.2,193.3,200.2,193.3,7.0
481.0,186.5,196.1,199.7,194.1,6.9
481.5,188.9,194.8,197.6,193.8,4.4
482.0,184.3,196.4,198.9,193.2,7.8
482.5,188.8,194.4,201.1,194.7,6.2
483.0,189.5,196.6,199.8,195.3,5.3
483.5,188.8,197.9,201.5,196.0,6.6
484.0,186.6,196.6,200.9,194.7,7.4
484.5,186.7,195.9,202.4,195.0,7.9
485.0,188.8,196.2,204.2,196.4,7.7
485.5,189.9,197.6,198.7,195.4,4.8
486.0,187.1,196.2,202.4,195.2,7.7
486.5,186.4,196.6,198.3,193.8,6.4
487.0,189.7,200.6,206.1,198.8,8.4
487.5,191.0,194.7,202.3,196.0,5.8
488.0,186.5,200.2,202.7,196.5,8.7
488.5,192.0,198.1,206.1,198.7,7.1
489.0,191.4,201.8,203.4,198.9,6.5
489.5,188.9,201.6,204.3,198.2,8.2
490.0,192.3,201.6,200.8,198.2,5.2
490.5,189.8,202.1,208.0,199.9,9.3
491.0,190.3,201.6,208.1,200.0,9.0
491.5,191.7,203.1,205.7,200.2,7.4
492.0,193.6,202.7,206.1,200.8,6.5
492.5,188.3,202.8,205.6,198.9,9.2
493.0,193.0,202.1,207.6,200.9,7.3
493.5,187.2,203.3,206.4,199.0,10.3
494.0,191.5,202.1,209.8,201.1,9.2
494.5,192.2,204.6,212.9,203.2,10.4
495.0,191.9,205.6,208.8,202.1,9.0
495.5,194.1,204.9,211.3,203.4,8.7
496.0,193.0,206.2,211.2,203.5,9.4
496.5,194.7,208.0,215.8,206.2,10.7
497.0,195.7,207.2,208.5,203.8,7.1
497.5,193.1,206.4,209.7,203.1,8.8
498.0,190.9,204.6,209.7,201.8,9.7
498.5,196.7,206.2,211.3,204.7,7.4
499.0,192.0,204.6,207.6,201.4,8.3
499.5,194.0,206.9,211.3,204.1,9.0
500.0,195.1,206.4,209.5,203.7,7.6
500.5,191.7,208.8,209.9,203.4,10.2
501.0,195.7,207.7,211.2,204.9,8.1
501.5,194.8,207.0,212.0,204.6,8.8
502.0,192.9,209.0,212.4,204.8,10.4
502.5,196.2,207.6,209.4,204.4,7.2
503.0,194.1,206.9,213.3,204.7,9.8
503.5,196.0,210.3,214.5,206.9,9.7
504.0,194.6,211.7,214.5,206.9,10.8
504.5,197.3,207.9,210.5,205.2,7.0
505.0,197.9,205.4,213.8,205.7,8.0
505.5,193.9,209.9,213.2,205.7,10.3
506.0,195.8,206.8,214.7,205.8,9.5
506.5,198.9,211.9,213.9,208.3,8.1
507.0,194.0,208.9,211.3,204.7,9.4
507.5,199.6,208.6,213.7,207.3,7.1
508.0,194.4,209.2,217.8,207.1,11.8
508.5,198.9,214.1,210.5,207.8,8.0
509.0,197.6,207.2,217.4,207.4,9.9
509.5,196.7,210.3,219.0,208.7,11.3
510.0,196.0,208.5,215.9,206.8,10.1
510.5,196.9,208.0,218.4,207.8,10.8
511.0,198.4,208.4,218.0,208.3,9.8
511.5,199.5,213.3,220.1,211.0,10.5
512.0,196.7,208.6,215.9,207.1,9.7
512.5,196.7,211.0,218.8,208.8,11.2
513.0,198.5,210.9,218.8,209.4,10.2
513.5,196.4,213.3,219.9,209.8,12.1
514.0,198.1,209.1,216.7,208.0,9.3
514.5,200.8,208.5,217.3,208.9,8.3
515.0,197.2,209.4,218.2,208.3,10.6
515.5,198.3,211.0,220.8,210.0,11.3
516.0,197.2,214.7,215.9,209.3,10.5
516.5,197.8,210.2,224.0,210.7,13.1
517.0,197.6,213.4,219.4,210.1,11.3
517.5,196.9,209.9,222.1,209.6,12.6
518.0,200.1,212.7,218.7,210.5,9.5
518.5,199.0,209.1,220.2,209.4,10.6
519.0,199.7,212.5,218.8,210.3,9.7
519.5,200.6,213.4,218.6,210.9,9.3
520.0,196.6,212.0,217.9,208.8,11.0
520.5,198.8,214.0,219.8,210.9,10.8
521.0,196.5,213.1,222.7,210.8,13.3
521.5,199.3,211.6,220.0,210.3,10.4
522.0,199.2,212.5,220.1,210.6,10.6
522.5,197.9,211.0,216.8,208.6,9.7
523.0,199.8,210.7,218.3,209.6,9.3
523.5,197.0,210.7,219.4,209.0,11.3
524.0,197.3,213.4,219.2,210.0,11.3
524.5,202.4,209.1,218.1,209.9,7.9
525.0,198.9,212.2,221.6,210.9,11.4
525.5,196.2,209.8,218.2,208.1,11.1
526.0,198.2,211.3,221.5,210.3,11.7
526.5,198.5,213.0,222.7,211.4,12.2
527.0,199.4,209.4,222.5,210.5,11.5
527.5,199.0,211.9,220.5,210.5,10.8
528.0,200.1,209.1,222.1,210.5,11.1
528.5,202.1,212.1,214.7,209.7,6.6
529.0,198.8,208.0,220.0,208.9,10.6
529.5,199.0,209.0,221.2,209.7,11.2
530.0,197.9,209.4,221.8,209.7,12.0
530.5,199.4,209.2,221.1,209.9,10.9
531.0,200.0,209.2,219.4,209.5,9.7
531.5,200.3,209.8,221.7,210.6,10.7
532.0,203.2,209.0,225.3,212.5,11.4
532.5,200.4,211.7,225.1,212.4,12.4
533.0,200.9,212.1,219.8,210.9,9.5
533.5,200.6,209.8,219.5,209.9,9.4
534.0,201.5,212.0,219.2,210.9,8.9
534.5,200.6,209.9,224.6,211.7,12.1
535.0,205.3,206.8,217.9,210.0,6.9
535.5,200.5,209.2,220.2,209.9,9.9
536.0,201.8,209.5,218.9,210.1,8.5
536.5,202.5,208.6,221.6,210.9,9.8
537.0,201.4,208.1,223.7,211.1,11.5
537.5,198.4,208.7,220.8,209.3,11.3
538.0,201.6,206.8,220.3,209.5,9.6
538.5,196.4,204.0,219.9,206.8,12.0
539.0,201.3,205.5,219.8,208.9,9.7
539.5,200.3,204.4,222.7,209.2,11.9
540.0,203.2,200.9,220.2,208.1,10.6
540.5,199.9,205.2,220.0,208.4,10.4
541.0,198.2,202.6,216.3,205.7,9.5
541.5,198.2,199.9,218.7,205.6,11.4
542.0,198.1,198.8,216.3,204.4,10.3
542.5,198.1,199.0,221.3,206.1,13.1
543.0,197.8,200.8,221.2,206.6,12.7
543.5,195.2,199.5,217.2,204.0,11.7
544.0,199.7,199.2,217.6,205.5,10.5
544.5,196.2,194.1,214.9,201.7,11.5
545.0,196.0,196.3,219.7,204.0,13.6
545.5,196.3,195.4,214.1,201.9,10.5
546.0,196.6,190.0,215.8,200.8,13.4
546.5,195.3,191.0,215.9,200.7,13.3
547.0,196.0,191.1,219.7,202.3,15.3
547.5,195.6,191.2,215.8,200.9,13.1
548.0,195.5,191.4,216.2,201.0,13.3
548.5,193.3,188.5,217.8,199.9,15.7
549.0,196.0,187.3,215.5,199.6,14.4
549.5,192.2,188.6,216.2,199.0,15.0
550.0,194.4,186.0,217.5,199.3,16.3
550.5,195.8,185.8,213.4,198.4,14.0
551.0,194.8,185.6,215.6,198.7,15.4
551.5,193.1,184.8,215.7,197.9,16.0
552.0,192.1,181.9,214.3,196.1,16.6
552.5,191.6,181.9,215.7,196.4,17.4
553.0,190.9,181.8,212.8,195.1,15.9
553.5,190.3,177.3,214.6,194.1,18.9
554.0,190.9,177.0,217.0,195.0,20.3
554.5,189.6,175.2,212.8,192.5,19.0
555.0,188.9,174.2,213.3,192.1,19.8
555.5,184.7,173.9,213.5,190.7,20.5
556.0,186.2,172.1,213.9,190.7,21.3
556.5,188.2,170.6,211.7,190.2,20.6
557.0,185.0,168.4,213.4,188.9,22.8
557.5,184.4,166.7,211.8,187.7,22.7
558.0,184.9,163.3,211.6,186.6,24.2
558.5,185.3,161.7,215.7,187.6,27.1
559.0,185.8,160.1,213.9,186.6,26.9
559.5,180.0,155.8,209.5,181.8,26.9
560.0,178.3,153.6,213.0,181.6,29.8
560.5,178.0,154.4,212.6,181.6,29.3
561.0,175.8,153.6,209.9,179.8,28.4
561.5,173.7,149.2,210.3,177.7,30.8
562.0,174.4,145.9,214.3,178.2,34.4
562.5,171.6,145.3,213.2,176.7,34.3
563.0,169.9,144.7,210.3,175.0,33.1
563.5,168.1,140.0,210.5,172.8,35.5
564.0,167.0,134.4,211.3,170.9,38.6
564.5,162.8,133.1,212.9,169.6,40.3
565.0,161.1,130.9,209.9,167.3,39.9
565.5,159.1,127.3,207.4,164.6,40.3
566.0,156.2,125.2,209.5,163.6,42.6
566.5,153.6,121.5,209.1,161.4,44.3
567.0,152.3,118.0,210.2,160.2,46.6
567.5,149.4,115.8,209.9,158.4,47.7
568.0,147.0,115.3,208.0,156.8,47.2
568.5,145.2,111.2,207.6,154.7,48.9
569.0,141.7,106.2,214.8,154.2,55.4
569.5,140.3,105.8,212.3,152.8,54.3
570.0,137.9,102.1,209.0,149.6,54.5
570.5,133.9,101.3,208.4,147.9,54.9
571.0,131.0,98.5,214.4,147.9,59.8
571.5,129.5,95.2,205.4,143.4,56.4
572.0,126.7,93.8,205.3,142.0,57.3
572.5,123.5,92.6,206.9,141.0,59.1
573.0,119.9,89.9,208.7,139.5,61.8
573.5,119.0,86.9,211.0,139.0,64.4
574.0,113.2,85.8,206.9,135.3,63.5
574.5,111.1,84.1,208.7,134.6,65.6
575.0,108.5,82.7,206.2,132.5,65.1
575.5,108.0,81.0,209.8,132.9,68.0
576.0,104.9,79.1,206.8,130.3,67.5
576.5,100.8,77.0,204.0,127.3,67.5
577.0,99.0,76.6,205.6,127.1,69.0
577.5,95.4,73.1,206.1,124.9,71.2
578.0,94.0,72.0,206.3,124.1,72.0
578.5,90.9,70.2,207.2,122.8,73.8
579.0,87.0,68.6,203.0,119.5,72.9
579.5,84.0,67.2,202.9,118.0,74.0
580.0,83.6,65.8,204.0,117.8,75.2
580.5,82.5,64.6,205.5,117.5,76.7
581.0,81.4,64.8,203.0,116.4,75.5
581.5,77.7,61.6,205.2,114.8,78.7
582.0,76.4,62.7,202.0,113.7,76.8
582.5,75.8,61.1,208.9,115.3,81.4
583.0,73.7,60.4,202.1,112.1,78.3
583.5,72.7,59.2,209.3,113.7,83.0
584.0,70.9,59.2,200.3,110.2,78.3
584.5,68.7,59.3,200.4,109.5,78.9
585.0,67.3,57.7,201.8,108.9,80.6
585.5,65.9,57.4,202.2,108.5,81.2
586.0,65.1,56.9,199.9,107.3,80.3
586.5,63.2,56.1,201.4,106.9,81.9
587.0,62.2,56.2,200.1,106.2,81.4
587.5,61.5,55.4,198.9,105.3,81.2
588.0,59.0,54.6,199.4,104.3,82.3
588.5,59.0,54.5,200.5,104.7,83.0
589.0,58.5,53.7,197.5,103.2,81.6
589.5,58.1,53.8,198.4,103.4,82.3
590.0,57.5,54.0,197.4,103.0,81.8
590.5,56.3,52.3,195.8,101.5,81.8
591.0,55.2,53.7,196.3,101.7,81.9
591.5,54.7,52.1,194.8,100.6,81.6
592.0,53.7,51.9,195.0,100.2,82.1
592.5,54.2,51.7,195.7,100.5,82.4
593.0,52.9,51.6,196.1,100.2,83.0
593.5,52.7,52.0,191.9,98.8,80.6
594.0,52.2,51.9,194.0,99.4,82.0
594.5,52.0,50.9,190.9,97.9,80.5
595.0,52.0,50.5,190.0,97.5,80.1
595.5,52.6,50.3,192.7,98.6,81.6
596.0,51.3,50.7,192.7,98.2,81.8
596.5,51.9,50.1,192.8,98.3,81.9
597.0,51.2,50.2,191.6,97.7,81.3
597.5,50.7,50.1,192.2,97.7,81.9
598.0,51.3,49.3,192.2,97.6,81.9
598.5,51.5,48.8,185.4,95.2,78.1
599.0,50.7,48.8,188.3,95.9,80.0
599.5,51.2,49.2,191.0,97.1,81.3
600.0,51.1,49.4,189.9,96.8,80.6
600.5,51.3,48.4,189.8,96.5,80.8
601.0,52.4,48.1,182.3,94.3,76.3
601.5,52.0,49.1,180.6,93.9,75.1
602.0,51.4,48.9,182.4,94.3,76.4
602.5,52.0,48.0,181.5,93.8,75.9
603.0,52.1,48.4,182.5,94.3,76.4
603.5,52.0,48.2,178.7,93.0,74.3
604.0,52.5,47.8,175.3,91.9,72.3
604.5,51.6,47.3,176.9,91.9,73.6
605.0,51.7,47.2,175.2,91.4,72.7
605.5,51.3,47.6,173.5,90.8,71.7
606.0,51.2,47.6,175.0,91.3,72.6
606.5,50.3,47.7,175.6,91.2,73.1
607.0,51.3,48.2,176.2,91.9,73.0
607.5,50.6,47.1,176.0,91.2,73.4
608.0,49.5,46.9,173.2,89.9,72.1
608.5,50.6,46.3,170.1,89.0,70.3
609.0,49.3,47.4,167.4,88.0,68.8
609.5,48.6,47.0,166.9,87.5,68.8
610.0,49.5,46.6,164.9,87.0,67.5
610.5,49.1,46.3,166.7,87.4,68.7
611.0,48.1,46.4,164.6,86.4,67.8
611.5,47.6,46.4,163.8,86.0,67.4
612.0,47.1,46.4,160.0,84.5,65.4
612.5,47.3,46.3,156.5,83.4,63.4
613.0,46.8,46.1,158.7,83.8,64.8
613.5,46.4,46.4,158.9,83.9,65.0
614.0,47.4,46.0,153.4,82.2,61.6
614.5,46.6,45.3,154.4,82.1,62.6
615.0,46.9,46.5,153.4,82.3,61.6
615.25,46.7,47.0,151.2,81.6,60.2