File: 01_Data/Basswood_Panel/Cone/Basswood_Panel_HRRPUA_75.csv
Time after Ignition,Basswood_Panel_R1,Basswood_Panel_R2,Basswood_Panel_R3,Mean,Std. Dev.
0.0,6.3,3.5,6.9,5.5,1.8
0.5,6.5,3.7,7.1,5.8,1.8
1.0,6.5,4.0,7.1,5.9,1.7
1.5,6.6,4.3,7.2,6.0,1.5
2.0,6.9,4.7,7.2,6.2,1.4
2.5,6.7,5.0,7.2,6.3,1.1
3.0,6.8,5.5,7.1,6.4,0.9
3.5,6.8,5.7,7.4,6.6,0.8
4.0,6.7,5.9,7.0,6.5,0.5
4.5,7.0,6.2,6.9,6.7,0.4
5.0,6.9,6.3,6.8,6.6,0.3
5.5,7.0,6.3,6.5,6.6,0.3
6.0,7.0,6.6,6.7,6.7,0.2
6.5,7.1,6.5,6.5,6.7,0.4
7.0,7.1,6.6,6.8,6.8,0.2
7.5,7.0,6.8,6.8,6.9,0.1
8.0,7.6,6.9,6.9,7.1,0.4
8.5,8.2,7.0,7.4,7.5,0.6
9.0,14.5,9.2,7.7,10.4,3.6
9.5,19.5,12.8,10.0,14.1,4.9
10.0,23.4,19.5,12.0,18.3,5.8
10.5,35.5,28.1,16.6,26.7,9.5
11.0,45.6,34.3,23.7,34.5,11.0
11.5,64.0,45.4,28.3,45.9,17.8
12.0,79.2,57.7,42.5,59.8,18.5
12.5,102.3,75.9,51.8,76.7,25.3
13.0,116.6,94.4,68.1,93.0,24.3
13.5,148.5,114.5,83.4,115.5,32.6
14.0,169.9,134.8,102.6,135.8,33.7
14.5,188.7,159.0,121.4,156.4,33.7
15.0,201.0,178.9,135.8,171.9,33.2
15.5,223.2,203.0,159.4,195.2,32.6
16.0,237.5,224.8,177.8,213.3,31.4
16.5,249.8,243.7,194.1,229.2,30.6
17.0,269.3,260.7,206.4,245.5,34.1
17.5,278.1,272.6,224.5,258.4,29.5
18.0,297.8,292.9,240.1,276.9,32.0
18.5,303.6,298.4,248.4,283.5,30.5
19.0,312.8,313.5,265.3,297.2,27.7
19.5,329.2,324.0,276.3,309.8,29.2
20.0,335.7,330.6,295.1,320.5,22.1
20.5,334.8,325.1,297.1,319.0,19.6
21.0,341.7,346.0,296.9,328.2,27.2
21.5,355.4,344.0,315.6,338.4,20.5
22.0,352.8,356.6,318.0,342.5,21.3
22.5,355.4,365.2,326.5,349.1,20.1
23.0,370.5,362.2,336.1,356.3,18.0
23.5,362.5,370.6,337.5,356.8,17.3
24.0,368.2,368.4,336.6,357.8,18.3
24.5,369.3,378.6,339.6,362.5,20.4
25.0,371.9,381.0,351.2,368.0,15.2
25.5,381.6,378.7,342.3,367.5,21.9
26.0,378.1,385.1,353.6,372.2,16.6
26.5,380.8,382.5,359.2,374.2,13.0
27.0,380.6,378.4,359.6,372.9,11.5
27.5,376.6,375.0,361.2,370.9,8.4
28.0,375.4,383.5,363.5,374.1,10.1
28.5,379.0,382.4,364.2,375.2,9.7
29.0,373.6,377.0,357.3,369.3,10.5
29.5,381.1,383.5,363.3,376.0,11.1
30.0,368.3,380.1,362.6,370.4,8.9
30.5,379.7,378.8,367.7,375.4,6.7
31.0,379.6,386.3,369.2,378.4,8.6
31.5,374.6,378.8,362.4,371.9,8.5
32.0,368.9,380.2,368.8,372.6,6.6
32.5,373.5,374.4,363.9,370.6,5.8
33.0,367.1,373.3,359.0,366.5,7.2
33.5,374.1,376.6,365.4,372.0,5.9
34.0,377.7,382.2,364.4,374.8,9.3
34.5,376.2,375.6,358.3,370.0,10.2
35.0,371.9,368.6,361.8,367.5,5.2
35.5,372.1,369.4,360.4,367.3,6.1
36.0,359.4,372.2,352.4,361.3,10.0
36.5,364.5,369.5,356.5,363.5,6.6
37.0,365.9,363.8,362.0,363.9,2.0
37.5,367.1,355.3,348.2,356.9,9.5
38.0,360.3,364.6,349.9,358.3,7.5
38.5,355.3,351.0,348.3,351.5,3.5
39.0,363.2,362.8,350.8,358.9,7.0
39.5,358.4,360.7,344.2,354.4,9.0
40.0,356.9,358.2,347.7,354.2,5.7
40.5,353.6,349.7,351.7,351.7,2.0
41.0,353.2,352.8,344.7,350.2,4.8
41.5,346.1,359.9,346.5,350.9,7.8
42.0,340.2,349.0,345.8,345.0,4.5
42.5,348.5,352.2,341.9,347.5,5.2
43.0,345.0,349.2,339.1,344.4,5.1
43.5,348.0,347.1,338.0,344.4,5.5
44.0,338.9,342.1,328.7,336.6,7.0
44.5,341.3,335.0,331.0,335.8,5.2
45.0,332.4,338.2,333.7,334.8,3.1
45.5,337.1,338.3,338.0,337.8,0.6
46.0,335.9,333.2,336.8,335.3,1.9
46.5,329.0,338.3,331.7,333.0,4.8
47.0,329.4,334.5,334.5,332.8,3.0
47.5,330.2,328.5,338.3,332.3,5.2
48.0,329.9,328.2,324.5,327.5,2.8
48.5,322.0,342.4,324.4,329.6,11.1
49.0,314.5,330.3,323.2,322.7,7.9
49.5,319.5,329.6,323.7,324.3,5.1
50.0,319.5,331.6,316.1,322.4,8.2
50.5,319.0,322.3,316.3,319.2,3.0
51.0,318.6,330.1,322.7,323.8,5.9
51.5,315.3,327.2,321.4,321.3,5.9
52.0,313.5,321.3,315.9,316.9,4.0
52.5,317.0,317.0,315.8,316.6,0.7
53.0,311.7,322.8,320.3,318.3,5.8
53.5,310.2,312.6,318.5,313.8,4.3
54.0,310.0,311.6,309.7,310.4,1.0
54.5,309.1,303.6,311.2,308.0,3.9
55.0,304.5,313.5,309.2,309.1,4.5
55.5,306.9,306.8,301.9,305.2,2.9
56.0,303.8,308.4,310.6,307.6,3.5
56.5,307.3,307.9,305.6,307.0,1.2
57.0,299.9,308.6,309.7,306.1,5.4
57.5,307.0,299.5,301.9,302.8,3.8
58.0,299.2,302.9,302.7,301.6,2.1
58.5,300.4,304.6,299.1,301.4,2.9
59.0,307.0,308.1,300.5,305.2,4.1
59.5,293.9,303.2,296.6,297.9,4.8
60.0,297.0,293.3,289.9,293.4,3.5
60.5,295.5,305.1,300.4,300.3,4.8
61.0,293.9,296.6,293.2,294.6,1.8
61.5,293.6,295.4,293.4,294.1,1.1
62.0,290.2,294.5,295.3,293.3,2.7
62.5,288.0,295.2,291.1,291.5,3.6
63.0,292.4,290.0,293.3,291.9,1.7
63.5,279.5,292.7,289.1,287.1,6.8
64.0,286.3,289.9,287.6,287.9,1.8
64.5,279.7,295.3,288.8,287.9,7.8
65.0,284.0,285.3,286.0,285.1,1.0
65.5,284.6,282.6,283.3,283.5,1.0
66.0,279.1,289.7,281.3,283.4,5.6
66.5,275.4,287.1,279.8,280.8,5.9
67.0,278.7,286.3,278.5,281.2,4.4
67.5,277.9,283.0,281.8,280.9,2.7
68.0,276.5,283.1,274.2,277.9,4.6
68.5,275.7,286.8,281.9,281.4,5.5
69.0,278.2,283.4,275.7,279.1,3.9
69.5,274.8,280.6,276.7,277.4,2.9
70.0,265.7,286.9,273.5,275.4,10.8
70.5,266.1,282.8,271.2,273.4,8.6
71.0,274.3,278.7,277.4,276.8,2.3
71.5,274.3,279.0,273.3,275.5,3.1
72.0,267.5,278.3,271.7,272.5,5.4
72.5,268.0,281.5,272.2,273.9,6.9
73.0,267.1,281.1,269.7,272.6,7.4
73.5,267.9,286.8,267.1,273.9,11.1
74.0,266.3,278.7,268.3,271.1,6.7
74.5,264.7,280.5,268.2,271.1,8.3
75.0,263.9,276.6,267.5,269.3,6.5
75.5,270.9,282.2,269.8,274.3,6.9
76.0,261.6,275.1,269.3,268.7,6.8
76.5,261.6,276.8,268.7,269.0,7.6
77.0,260.3,275.8,270.8,269.0,8.0
77.5,257.0,280.8,266.0,267.9,12.0
78.0,261.1,276.8,270.3,269.4,7.9
78.5,259.9,275.4,269.5,268.2,7.8
79.0,263.3,271.1,267.0,267.1,3.9
79.5,256.7,274.5,264.2,265.2,8.9
80.0,255.6,274.9,262.2,264.3,9.8
80.5,258.6,279.6,262.4,266.9,11.2
81.0,256.7,272.3,263.3,264.1,7.8
81.5,254.9,270.6,266.7,264.1,8.1
82.0,252.2,267.6,263.9,261.2,8.0
82.5,252.7,268.2,256.1,259.0,8.1
83.0,253.1,266.3,264.4,261.3,7.1
83.5,252.7,272.7,264.1,263.2,10.0
84.0,248.9,270.8,258.1,259.3,11.0
84.5,250.9,267.5,262.2,260.2,8.5
85.0,249.3,270.2,260.0,259.8,10.4
85.5,246.9,265.7,256.6,256.4,9.4
86.0,252.5,266.1,255.2,258.0,7.2
86.5,242.9,269.3,260.4,257.5,13.4
87.0,240.7,263.1,263.6,255.8,13.1
87.5,246.0,267.9,256.9,256.9,11.0
88.0,242.9,260.1,257.6,253.6,9.3
88.5,246.7,265.4,252.9,255.0,9.5
89.0,249.5,263.6,255.0,256.1,7.1
89.5,244.6,263.9,259.8,256.1,10.2
90.0,249.8,263.2,256.4,256.5,6.7
90.5,241.4,266.2,260.9,256.2,13.1
91.0,242.8,261.7,257.0,253.9,9.8
91.5,243.1,265.4,253.0,253.8,11.2
92.0,241.0,263.0,256.5,253.5,11.3
92.5,240.3,265.5,257.8,254.5,12.9
93.0,240.4,264.0,255.2,253.2,11.9
93.5,236.3,262.8,250.6,249.9,13.2
94.0,237.1,263.8,259.3,253.4,14.3
94.5,243.8,262.8,250.5,252.3,9.6
95.0,239.5,262.6,251.4,251.2,11.6
95.5,243.4,260.5,248.8,250.9,8.7
96.0,239.3,263.5,249.5,250.8,12.1
96.5,242.1,260.0,255.5,252.5,9.3
97.0,234.8,257.3,249.3,247.1,11.4
97.5,236.7,258.6,250.7,248.7,11.1
98.0,237.0,260.1,251.2,249.4,11.6
98.5,235.5,252.8,251.9,246.7,9.8
99.0,235.0,257.1,249.8,247.3,11.3
99.5,233.2,253.8,248.0,245.0,10.6
100.0,234.4,258.2,245.2,245.9,11.9
100.5,237.6,260.5,246.0,248.0,11.6
101.0,230.1,253.8,248.4,244.1,12.4
101.5,232.2,253.4,247.5,244.4,10.9
102.0,234.3,257.7,240.2,244.0,12.2
102.5,229.5,257.6,241.9,243.0,14.0
103.0,229.7,258.2,242.9,243.6,14.3
103.5,231.7,257.6,240.7,243.3,13.1
104.0,229.1,251.3,243.3,241.2,11.2
104.5,232.0,252.4,238.3,240.9,10.4
105.0,229.1,254.3,243.6,242.3,12.6
105.5,231.1,254.4,246.5,244.0,11.8
106.0,223.5,254.7,238.9,239.0,15.6
106.5,226.3,257.5,239.2,241.0,15.7
107.0,227.4,249.9,237.6,238.3,11.2
107.5,228.1,250.8,240.3,239.7,11.4
108.0,228.7,249.5,239.2,239.1,10.4
108.5,231.0,252.5,240.5,241.4,10.8
109.0,224.8,249.6,239.1,237.9,12.4
109.5,224.5,250.9,239.9,238.4,13.3
110.0,227.7,248.9,241.2,239.3,10.7
110.5,224.5,246.7,238.8,236.7,11.3
111.0,227.9,251.6,237.8,239.1,11.9
111.5,225.2,245.1,238.5,236.3,10.1
112.0,228.6,250.2,234.5,237.8,11.2
112.5,219.6,244.4,236.0,233.4,12.6
113.0,222.5,245.9,235.0,234.5,11.7
113.5,221.1,243.7,234.7,233.1,11.4
114.0,221.0,250.4,234.3,235.2,14.7
114.5,221.3,240.2,234.7,232.1,9.7
115.0,223.7,244.6,237.4,235.3,10.6
115.5,221.1,245.8,233.2,233.4,12.3
116.0,220.8,245.5,233.8,233.4,12.3
116.5,223.8,242.4,233.7,233.3,9.3
117.0,219.2,242.6,230.3,230.7,11.7
117.5,217.6,241.7,230.1,229.8,12.0
118.0,222.9,243.7,234.3,233.6,10.4
118.5,218.5,243.2,230.2,230.6,12.3
119.0,222.6,243.8,233.7,233.4,10.6
119.5,215.0,243.1,230.0,229.4,14.1
120.0,221.1,241.0,229.5,230.5,10.0
120.5,216.4,243.8,237.3,232.5,14.3
121.0,217.5,242.3,233.1,231.0,12.5
121.5,215.6,236.7,231.8,228.0,11.0
122.0,217.5,239.4,229.0,228.7,11.0
122.5,216.8,236.8,230.3,228.0,10.2
123.0,217.4,240.6,233.2,230.4,11.8
123.5,216.6,240.2,230.4,229.1,11.9
124.0,216.1,236.0,232.2,228.1,10.6
124.5,214.3,237.2,233.0,228.2,12.2
125.0,214.8,235.9,230.7,227.1,11.0
125.5,216.5,235.2,227.3,226.3,9.4
126.0,214.7,236.7,229.3,226.9,11.2
126.5,209.3,232.9,228.7,223.6,12.6
127.0,215.7,234.8,227.7,226.1,9.7
127.5,215.0,236.8,226.4,226.1,10.9
128.0,214.0,232.0,224.3,223.5,9.0
128.5,211.1,233.7,225.5,223.4,11.4
129.0,213.0,231.7,227.2,224.0,9.8
129.5,208.6,232.3,227.9,222.9,12.6
130.0,211.8,232.4,225.8,223.3,10.5
130.5,212.1,230.8,228.7,223.9,10.3
131.0,211.2,229.9,224.2,221.8,9.6
131.5,212.2,228.6,220.8,220.5,8.2
132.0,212.6,228.0,224.4,221.7,8.0
132.5,209.0,234.2,225.8,223.0,12.8
133.0,208.2,229.1,221.7,219.7,10.6
133.5,208.3,223.1,224.4,218.6,8.9
134.0,209.9,229.6,224.9,221.5,10.3
134.5,210.4,226.1,220.0,218.8,7.9
135.0,208.8,226.3,219.4,218.2,8.8
135.5,208.1,229.3,222.6,220.0,10.8
136.0,208.6,228.2,223.8,220.2,10.3
136.5,210.5,230.7,219.8,220.3,10.1
137.0,210.8,226.6,220.2,219.2,8.0
137.5,213.2,230.1,224.6,222.6,8.6
138.0,207.7,227.6,221.4,218.9,10.2
138.5,205.3,230.3,219.9,218.5,12.5
139.0,206.2,229.7,218.1,218.0,11.7
139.5,207.3,233.6,221.1,220.6,13.2
140.0,209.2,233.2,220.6,221.0,12.0
140.5,206.4,229.1,218.6,218.0,11.4
141.0,202.1,230.3,218.8,217.0,14.2
141.5,204.8,226.7,221.7,217.7,11.5
142.0,206.2,227.1,217.9,217.1,10.5
142.5,210.1,232.8,219.0,220.6,11.4
143.0,205.1,227.0,218.6,216.9,11.1
143.5,201.0,228.1,220.2,216.4,13.9
144.0,202.8,230.1,215.2,216.0,13.7
144.5,204.6,226.4,214.0,215.0,10.9
145.0,209.3,224.9,218.4,217.6,7.9
145.5,203.6,223.4,218.7,215.3,10.3
146.0,206.2,224.6,219.9,216.9,9.6
146.5,208.4,225.9,219.8,218.0,8.9
147.0,204.6,222.3,217.1,214.7,9.1
147.5,204.4,221.9,210.4,212.2,8.9
148.0,203.9,224.8,216.1,215.0,10.5
148.5,204.4,222.5,215.9,214.2,9.2
149.0,204.6,220.7,215.3,213.5,8.2
149.5,201.0,221.4,216.8,213.1,10.7
150.0,204.6,221.7,212.7,213.0,8.6
150.5,203.2,225.5,212.8,213.9,11.2
151.0,207.5,224.3,216.9,216.2,8.4
151.5,203.7,223.9,208.9,212.2,10.5
152.0,208.8,223.6,211.4,214.6,7.9
152.5,206.2,220.6,215.1,214.0,7.3
153.0,204.6,222.0,217.7,214.8,9.1
153.5,200.5,226.3,212.1,212.9,12.9
154.0,203.7,221.3,212.2,212.4,8.8
154.5,201.5,226.4,211.2,213.0,12.5
155.0,202.2,214.9,216.5,211.2,7.8
155.5,202.2,222.7,213.7,212.9,10.3
156.0,200.4,222.6,213.2,212.0,11.2
156.5,202.7,217.6,214.5,211.6,7.9
157.0,199.7,220.6,213.7,211.3,10.7
157.5,201.1,214.1,216.0,210.4,8.1
158.0,203.6,214.8,210.5,209.6,5.7
158.5,204.1,220.6,212.6,212.4,8.3
159.0,201.3,226.3,211.7,213.1,12.6
159.5,202.0,218.8,215.7,212.1,8.9
160.0,197.6,218.4,212.4,209.5,10.7
160.5,201.1,219.9,211.8,210.9,9.4
161.0,201.6,219.7,211.2,210.8,9.1
161.5,196.6,217.4,209.9,207.9,10.5
162.0,199.0,223.7,208.5,210.4,12.4
162.5,198.5,224.4,210.1,211.0,13.0
163.0,198.2,220.5,206.7,208.5,11.3
163.5,199.7,220.6,211.2,210.5,10.5
164.0,199.7,219.1,213.0,210.6,9.9
164.5,195.5,217.8,209.6,207.6,11.3
165.0,201.4,216.9,208.6,209.0,7.8
165.5,198.1,219.6,209.6,209.1,10.8
166.0,199.0,221.8,206.4,209.1,11.6
166.5,199.9,218.7,211.7,210.1,9.5
167.0,195.0,217.3,214.3,208.9,12.1
167.5,197.9,216.4,210.2,208.2,9.4
168.0,198.1,217.7,207.1,207.7,9.8
168.5,200.1,218.9,210.4,209.8,9.4
169.0,198.0,218.0,209.8,208.6,10.1
169.5,199.5,217.3,210.2,209.0,9.0
170.0,195.5,215.3,209.7,206.9,10.2
170.5,198.7,220.9,212.5,210.7,11.2
171.0,194.8,219.6,207.4,207.3,12.4
171.5,197.8,217.2,211.9,209.0,10.0
172.0,195.6,213.6,205.2,204.8,9.0
172.5,196.5,218.7,205.4,206.9,11.2
173.0,193.2,217.6,210.9,207.2,12.6
173.5,198.8,220.1,205.3,208.1,10.9
174.0,195.5,220.5,206.6,207.5,12.5
174.5,196.9,221.2,206.2,208.1,12.3
175.0,196.2,213.3,203.9,204.5,8.6
175.5,195.9,213.4,206.4,205.2,8.8
176.0,196.2,213.7,206.5,205.5,8.8
176.5,195.4,217.1,201.5,204.7,11.2
177.0,195.2,215.9,206.8,206.0,10.4
177.5,198.9,218.7,204.9,207.5,10.1
178.0,197.2,212.4,206.6,205.4,7.6
178.5,196.4,215.9,203.9,205.4,9.8
179.0,195.9,217.0,203.9,205.6,10.7
179.5,196.6,217.2,206.9,206.9,10.3
180.0,198.8,215.9,201.0,205.2,9.3
180.5,194.4,217.8,203.1,205.1,11.8
181.0,196.9,215.7,201.3,204.6,9.8
181.5,198.1,214.8,202.5,205.1,8.6
182.0,194.9,212.0,205.7,204.2,8.7
182.5,194.9,216.2,201.9,204.3,10.9
183.0,194.4,216.9,199.6,203.6,11.8
183.5,192.7,213.1,203.8,203.2,10.2
184.0,193.6,212.7,199.4,201.9,9.8
184.5,195.7,211.8,202.1,203.2,8.1
185.0,196.0,215.6,203.9,205.2,9.8
185.5,193.3,211.6,200.5,201.8,9.2
186.0,196.5,218.1,202.9,205.8,11.1
186.5,193.2,212.4,201.0,202.2,9.7
187.0,195.7,214.9,201.6,204.0,9.8
187.5,192.0,213.8,198.9,201.6,11.1
188.0,193.0,214.7,203.6,203.8,10.9
188.5,196.8,213.5,196.2,202.2,9.8
189.0,193.1,214.9,201.7,203.2,11.0
189.5,189.6,210.5,198.1,199.4,10.6
190.0,196.1,212.4,203.7,204.1,8.1
190.5,193.1,212.9,200.5,202.2,10.0
191.0,191.6,211.8,202.3,201.9,10.1
191.5,193.9,211.0,201.9,202.3,8.5
192.0,191.0,210.1,204.8,202.0,9.9
192.5,190.7,212.9,201.6,201.7,11.1
193.0,190.7,209.3,202.0,200.7,9.4
193.5,193.9,211.4,199.9,201.7,8.9
194.0,193.0,208.6,201.1,200.9,7.8
194.5,190.5,210.0,200.6,200.4,9.7
195.0,194.6,208.5,199.4,200.8,7.0
195.5,192.3,210.5,203.5,202.1,9.2
196.0,195.2,208.4,197.9,200.5,6.9
196.5,191.5,208.3,198.1,199.3,8.5
197.0,192.9,205.5,198.0,198.8,6.3
197.5,189.0,209.4,202.2,200.2,10.3
198.0,192.7,209.2,200.5,200.8,8.3
198.5,193.5,208.6,197.1,199.7,7.9
199.0,192.2,210.3,201.7,201.4,9.1
199.5,192.5,208.5,196.7,199.2,8.3
200.0,191.4,209.6,199.9,200.3,9.1
200.5,193.0,207.8,198.8,199.9,7.4
201.0,189.7,207.8,199.7,199.1,9.1
201.5,190.2,212.0,201.3,201.2,10.9
202.0,197.7,208.5,197.5,201.2,6.3
202.5,191.1,209.5,199.3,200.0,9.2
203.0,194.4,207.8,199.9,200.7,6.7
203.5,190.4,208.2,199.9,199.5,8.9
204.0,189.4,213.0,198.6,200.3,11.9
204.5,189.7,210.7,197.8,199.4,10.6
205.0,195.6,210.5,200.0,202.1,7.7
205.5,193.7,210.5,195.2,199.8,9.3
206.0,187.9,208.6,201.6,199.4,10.5
206.5,191.7,212.5,203.9,202.7,10.4
207.0,193.4,210.0,196.6,200.0,8.8
207.5,194.6,211.0,198.5,201.3,8.6
208.0,190.0,212.0,196.6,199.5,11.3
208.5,193.6,209.4,195.0,199.3,8.8
209.0,187.6,211.4,198.0,199.0,11.9
209.5,190.6,209.5,198.2,199.4,9.5
210.0,193.9,209.9,198.2,200.6,8.3
210.5,189.7,210.6,198.7,199.7,10.5
211.0,189.3,207.2,198.8,198.5,9.0
211.5,191.4,208.4,196.4,198.7,8.8
212.0,192.9,209.0,198.9,200.2,8.1
212.5,192.3,206.4,196.9,198.5,7.2
213.0,190.8,208.4,196.3,198.5,9.0
213.5,190.2,207.5,194.9,197.5,8.9
214.0,196.9,210.3,198.8,202.0,7.3
214.5,195.2,209.6,193.7,199.5,8.8
215.0,194.2,208.7,196.4,199.8,7.8
215.5,194.9,205.7,198.2,199.6,5.5
216.0,192.1,207.0,197.2,198.8,7.6
216.5,193.5,208.6,193.3,198.5,8.8
217.0,189.9,208.2,195.7,197.9,9.4
217.5,193.0,204.6,197.1,198.3,5.9
218.0,193.5,206.3,195.2,198.3,7.0
218.5,189.9,206.4,198.1,198.1,8.2
219.0,192.9,207.7,201.2,200.6,7.4
219.5,192.1,207.0,199.6,199.6,7.5
220.0,195.0,208.8,200.4,201.4,7.0
220.5,193.7,206.3,201.1,200.4,6.3
221.0,193.0,207.8,203.9,201.6,7.7
221.5,189.5,207.8,201.6,199.6,9.3
222.0,193.1,207.9,199.0,200.0,7.5
222.5,190.9,207.4,199.9,199.4,8.3
223.0,190.8,210.4,202.7,201.3,9.9
223.5,193.4,211.2,199.9,201.5,9.0
224.0,193.3,208.6,201.2,201.0,7.7
224.5,193.6,211.3,203.4,202.7,8.9
225.0,193.1,210.6,198.1,200.6,9.0
225.5,193.2,211.0,200.2,201.5,9.0
226.0,192.8,210.9,197.1,200.3,9.5
226.5,190.2,210.8,198.4,199.8,10.4
227.0,192.2,210.6,196.3,199.7,9.7
227.5,195.1,210.1,201.8,202.3,7.5
228.0,193.2,207.0,197.8,199.3,7.1
228.5,190.0,205.4,198.5,198.0,7.7
229.0,190.2,210.9,197.2,199.4,10.5
229.5,194.7,207.2,201.1,201.0,6.3
230.0,191.1,204.5,198.6,198.1,6.7
230.5,193.3,208.4,197.7,199.8,7.8
231.0,192.0,204.7,199.6,198.7,6.4
231.5,191.0,205.6,202.3,199.6,7.6
232.0,193.4,212.5,198.7,201.5,9.9
232.5,193.0,209.0,199.7,200.6,8.0
233.0,188.8,204.0,197.4,196.7,7.6
233.5,198.3,204.2,196.2,199.6,4.2
234.0,192.4,204.5,198.9,198.6,6.1
234.5,195.9,200.6,195.6,197.4,2.8
235.0,190.3,205.6,197.1,197.7,7.7
235.5,193.3,204.3,197.0,198.2,5.6
236.0,193.9,208.5,196.4,199.6,7.8
236.5,194.8,201.8,200.5,199.0,3.7
237.0,196.2,204.9,197.7,199.6,4.6
237.5,193.6,202.6,198.4,198.2,4.5
238.0,193.3,201.9,197.4,197.5,4.3
238.5,194.6,198.6,198.6,197.3,2.3
239.0,194.7,202.3,197.8,198.3,3.8
239.5,193.4,202.1,198.5,198.0,4.4
240.0,194.9,207.4,200.2,200.9,6.3
240.5,191.5,202.4,196.3,196.7,5.5
241.0,195.5,203.4,198.5,199.1,4.0
241.5,193.7,200.0,200.4,198.0,3.7
242.0,191.0,203.2,197.8,197.3,6.1
242.5,193.7,199.2,202.0,198.3,4.2
243.0,195.4,203.8,202.7,200.6,4.6
243.5,196.1,201.2,194.9,197.4,3.4
244.0,193.0,202.8,201.7,199.2,5.4
244.5,190.8,202.0,199.4,197.4,5.9
245.0,191.4,202.1,198.6,197.3,5.5
245.5,193.9,199.5,201.2,198.2,3.8
246.0,193.0,204.1,196.8,198.0,5.7
246.5,194.6,203.9,201.9,200.1,4.9
247.0,193.6,203.6,199.6,199.0,5.0
247.5,194.7,200.4,197.1,197.4,2.9
248.0,193.2,204.1,202.9,200.1,6.0
248.5,192.9,202.4,197.6,197.6,4.8
249.0,192.4,204.1,200.9,199.1,6.0
249.5,192.6,200.2,202.4,198.4,5.1
250.0,192.6,204.0,202.3,199.7,6.1
250.5,194.7,202.0,201.6,199.4,4.1
251.0,192.1,203.9,199.3,198.4,5.9
251.5,191.1,202.9,200.2,198.1,6.2
252.0,191.6,202.2,197.6,197.1,5.3
252.5,192.1,202.7,202.7,199.2,6.1
253.0,194.5,201.2,197.1,197.6,3.3
253.5,194.1,202.0,195.7,197.3,4.2
254.0,187.6,204.0,200.6,197.4,8.6
254.5,194.0,203.3,202.1,199.8,5.1
255.0,188.1,203.1,202.3,197.8,8.4
255.5,195.5,207.1,198.2,200.3,6.1
256.0,192.0,203.0,200.3,198.4,5.7
256.5,191.4,200.4,198.4,196.8,4.7
257.0,196.6,203.5,201.4,200.5,3.5
257.5,197.6,205.2,202.3,201.7,3.8
258.0,193.7,203.6,201.1,199.5,5.2
258.5,194.8,201.6,201.6,199.3,3.9
259.0,193.1,206.3,199.8,199.8,6.6
259.5,192.5,206.6,201.9,200.4,7.2
260.0,192.4,204.2,199.7,198.7,5.9
260.5,192.8,205.1,201.9,199.9,6.4
261.0,192.7,205.0,200.5,199.4,6.2
261.5,193.0,204.9,202.9,200.3,6.4
262.0,193.6,203.0,204.0,200.2,5.7
262.5,196.0,203.9,203.3,201.0,4.4
263.0,196.9,202.5,200.1,199.8,2.8
263.5,190.6,203.8,197.4,197.2,6.6
264.0,196.6,205.0,204.0,201.9,4.6
264.5,193.7,209.5,204.3,202.5,8.0
265.0,192.1,202.6,203.9,199.5,6.5
265.5,191.4,207.5,205.1,201.3,8.7
266.0,193.2,205.8,202.9,200.6,6.6
266.5,196.4,202.8,201.2,200.1,3.3
267.0,193.1,205.4,200.2,199.6,6.2
267.5,196.5,205.9,201.2,201.2,4.7
268.0,196.5,205.1,203.6,201.7,4.6
268.5,195.3,204.4,201.3,200.3,4.7
269.0,198.0,205.3,201.0,201.4,3.7
269.5,190.8,208.8,203.2,200.9,9.2
270.0,197.0,208.9,201.9,202.6,5.9
270.5,193.7,206.9,198.9,199.8,6.6
271.0,197.8,212.3,203.4,204.5,7.3
271.5,196.3,202.6,204.0,200.9,4.1
272.0,196.3,206.3,200.8,201.2,5.0
272.5,193.8,205.9,201.9,200.5,6.1
273.0,196.5,210.6,203.0,203.4,7.1
273.5,191.6,212.6,203.8,202.7,10.5
274.0,191.0,212.2,203.2,202.1,10.6
274.5,197.2,209.7,201.7,202.8,6.3
275.0,196.9,209.3,204.6,203.6,6.2
275.5,195.3,210.7,201.4,202.5,7.8
276.0,195.0,207.2,202.9,201.7,6.1
276.5,196.8,205.8,203.1,201.9,4.6
277.0,196.5,206.9,201.4,201.6,5.2
277.5,192.9,210.5,201.4,201.6,8.8
278.0,199.0,207.5,202.9,203.1,4.3
278.5,195.3,205.5,203.8,201.5,5.5
279.0,195.6,207.1,205.5,202.7,6.2
279.5,196.8,212.3,202.3,203.8,7.8
280.0,195.5,206.5,202.7,201.6,5.6
280.5,199.0,208.1,201.5,202.9,4.7
281.0,196.8,205.1,207.1,203.0,5.4
281.5,196.2,208.6,202.4,202.4,6.2
282.0,195.8,209.5,204.8,203.4,7.0
282.5,194.4,208.0,207.2,203.2,7.6
283.0,196.6,207.2,204.4,202.7,5.5
283.5,198.5,205.1,202.8,202.1,3.4
284.0,193.9,205.6,205.8,201.8,6.8
284.5,194.7,203.4,206.3,201.5,6.1
285.0,196.5,209.4,208.5,204.8,7.2
285.5,195.9,210.6,205.9,204.1,7.5
286.0,196.5,204.1,206.0,202.2,5.0
286.5,195.1,204.9,206.4,202.1,6.1
287.0,197.1,209.5,204.9,203.8,6.3
287.5,199.7,206.2,205.9,203.9,3.7
288.0,197.0,207.4,201.7,202.0,5.2
288.5,196.6,208.9,206.8,204.1,6.6
289.0,194.4,208.7,205.9,203.0,7.6
289.5,197.6,206.5,205.4,203.2,4.8
290.0,198.5,204.6,207.5,203.5,4.6
290.5,199.5,207.9,209.3,205.5,5.3
291.0,197.7,206.9,203.2,202.6,4.7
291.5,198.7,209.4,207.0,205.0,5.6
292.0,199.4,207.4,204.6,203.8,4.0
292.5,200.0,206.4,205.5,204.0,3.5
293.0,195.7,206.7,205.7,202.7,6.1
293.5,200.1,208.0,206.1,204.8,4.1
294.0,193.2,213.2,206.0,204.1,10.1
294.5,200.0,205.3,207.2,204.2,3.7
295.0,197.5,207.2,207.5,204.1,5.7
295.5,201.0,209.1,208.1,206.1,4.4
296.0,196.0,205.9,206.7,202.9,6.0
296.5,199.7,205.8,203.4,203.0,3.1
297.0,198.3,211.0,204.2,204.5,6.3
297.5,200.9,209.0,206.0,205.3,4.1
298.0,199.5,208.5,210.6,206.2,5.9
298.5,197.9,206.7,204.1,202.9,4.5
299.0,202.5,208.7,204.6,205.3,3.2
299.5,199.3,207.6,202.8,203.2,4.1
300.0,204.8,205.4,205.5,205.2,0.3
300.5,199.7,207.1,203.2,203.4,3.7
301.0,199.5,204.8,206.4,203.6,3.6
301.5,199.6,207.6,209.6,205.6,5.3
302.0,199.0,207.3,205.6,204.0,4.4
302.5,200.5,208.7,205.8,205.0,4.1
303.0,201.0,207.4,205.6,204.6,3.3
303.5,200.7,212.2,205.1,206.0,5.8
304.0,198.8,204.7,206.1,203.2,3.9
304.5,199.3,206.9,204.4,203.5,3.9
305.0,202.9,208.2,204.1,205.1,2.8
305.5,200.1,211.3,202.9,204.8,5.9
306.0,202.7,205.8,204.7,204.4,1.6
306.5,197.1,207.9,202.8,202.6,5.4
307.0,203.6,206.7,207.5,205.9,2.0
307.5,203.9,207.8,205.5,205.7,1.9
308.0,200.5,206.6,205.0,204.0,3.2
308.5,203.2,208.4,208.5,206.7,3.1
309.0,202.1,206.6,204.5,204.4,2.3
309.5,199.1,210.8,206.5,205.5,6.0
310.0,200.3,209.0,203.2,204.1,4.4
310.5,199.5,206.2,209.0,204.9,4.9
311.0,200.1,209.0,205.4,204.8,4.5
311.5,198.8,208.1,206.5,204.5,5.0
312.0,200.4,204.5,205.5,203.5,2.7
312.5,199.0,206.0,202.9,202.6,3.5
313.0,198.5,209.7,203.8,204.0,5.6
313.5,199.3,204.1,206.2,203.2,3.5
314.0,203.6,208.2,204.5,205.4,2.4
314.5,198.1,204.6,206.1,202.9,4.3
315.0,199.8,206.7,205.1,203.9,3.6
315.5,199.8,209.6,206.6,205.3,5.0
316.0,204.9,206.2,203.8,205.0,1.2
316.5,205.1,206.7,203.7,205.2,1.5
317.0,203.6,205.6,206.0,205.1,1.3
317.5,198.7,208.2,209.3,205.4,5.8
318.0,203.5,204.6,206.1,204.7,1.3
318.5,198.1,204.2,204.9,202.4,3.8
319.0,206.6,204.1,205.7,205.4,1.3
319.5,199.7,205.3,205.7,203.5,3.4
320.0,202.7,207.1,210.0,206.6,3.6
320.5,201.9,203.9,207.8,204.5,3.0
321.0,203.1,203.7,207.7,204.8,2.5
321.5,205.3,205.4,206.8,205.8,0.8
322.0,205.1,203.0,207.3,205.1,2.1
322.5,205.3,204.4,209.1,206.3,2.5
323.0,205.2,207.2,210.0,207.4,2.4
323.5,201.3,207.5,211.1,206.6,4.9
324.0,201.2,204.6,205.2,203.7,2.2
324.5,203.4,204.4,205.5,204.4,1.0
325.0,201.8,206.7,207.6,205.3,3.1
325.5,205.3,204.0,207.1,205.5,1.6
326.0,207.8,207.9,207.4,207.7,0.3
326.5,202.5,207.5,208.0,206.0,3.0
327.0,203.3,209.9,208.6,207.3,3.5
327.5,203.9,211.2,207.7,207.6,3.7
328.0,204.1,210.8,206.7,207.2,3.4
328.5,203.6,207.0,209.4,206.6,2.9
329.0,204.0,208.6,208.4,207.0,2.6
329.5,204.1,206.6,212.7,207.8,4.4
330.0,203.2,207.6,207.9,206.2,2.7
330.5,206.7,206.5,208.5,207.2,1.1
331.0,206.0,208.6,208.5,207.7,1.5
331.5,201.1,207.5,206.5,205.0,3.5
332.0,202.9,210.0,207.6,206.8,3.6
332.5,205.2,209.6,210.4,208.4,2.8
333.0,203.7,207.9,206.2,205.9,2.2
333.5,204.3,208.3,209.4,207.4,2.7
334.0,205.4,208.7,208.2,207.4,1.8
334.5,204.6,208.1,207.4,206.7,1.8
335.0,205.9,210.5,209.8,208.7,2.5
335.5,204.2,207.5,206.8,206.2,1.7
336.0,209.0,206.6,206.4,207.3,1.4
336.5,206.1,209.8,211.2,209.0,2.7
337.0,205.7,213.6,207.8,209.0,4.1
337.5,207.7,208.9,209.1,208.6,0.8
338.0,207.0,207.1,206.3,206.8,0.5
338.5,206.2,211.9,206.8,208.3,3.2
339.0,207.8,210.9,208.9,209.2,1.6
339.5,207.1,207.2,208.7,207.7,0.9
340.0,207.2,209.4,210.6,209.1,1.7
340.5,207.2,206.1,210.0,207.8,2.0
341.0,206.9,208.9,206.9,207.6,1.2
341.5,207.3,210.5,208.9,208.9,1.6
342.0,209.3,211.7,212.2,211.1,1.5
342.5,206.4,214.0,206.2,208.9,4.4
343.0,211.1,207.6,207.3,208.7,2.1
343.5,211.0,207.5,213.9,210.8,3.2
344.0,206.1,205.3,206.3,205.9,0.5
344.5,207.7,203.7,211.5,207.6,3.9
345.0,207.9,211.6,207.9,209.1,2.1
345.5,207.0,206.7,206.9,206.9,0.1
346.0,209.0,213.4,209.4,210.6,2.4
346.5,207.0,208.6,208.9,208.2,1.0
347.0,212.1,213.8,206.7,210.8,3.7
347.5,207.3,210.3,207.1,208.2,1.8
348.0,212.1,212.0,206.7,210.3,3.1
348.5,210.8,212.4,207.6,210.3,2.4
349.0,212.1,211.3,208.1,210.5,2.1
349.5,207.8,213.1,210.3,210.4,2.7
350.0,211.0,216.5,207.8,211.8,4.4
350.5,211.9,215.1,207.7,211.5,3.7
351.0,211.6,211.3,208.0,210.3,2.0
351.5,211.8,210.2,212.8,211.6,1.3
352.0,211.0,215.2,205.0,210.4,5.1
352.5,213.5,217.4,209.0,213.3,4.2
353.0,210.2,214.1,206.2,210.2,4.0
353.5,211.7,214.0,208.8,211.5,2.6
354.0,208.8,219.9,206.0,211.6,7.3
354.5,210.3,217.9,205.4,211.2,6.3
355.0,212.4,212.1,209.5,211.3,1.6
355.5,211.2,214.7,207.2,211.0,3.8
356.0,209.1,216.1,210.6,211.9,3.7
356.5,212.8,219.6,205.8,212.7,6.9
357.0,212.2,212.7,206.9,210.6,3.2
357.5,213.0,215.2,207.9,212.0,3.8
358.0,213.9,216.3,208.0,212.7,4.3
358.5,216.1,218.4,209.7,214.7,4.5
359.0,215.3,215.5,208.7,213.2,3.9
359.5,214.8,214.5,207.8,212.3,4.0
360.0,214.1,213.7,210.9,212.9,1.7
360.5,215.9,217.0,209.8,214.2,3.9
361.0,219.0,216.4,205.5,213.7,7.1
361.5,217.9,217.0,208.3,214.4,5.3
362.0,217.8,217.1,210.8,215.2,3.9
362.5,216.9,218.3,206.1,213.7,6.7
363.0,218.8,217.3,208.5,214.9,5.6
363.5,220.8,218.5,204.7,214.7,8.7
364.0,221.3,218.4,210.0,216.6,5.8
364.5,218.2,222.9,207.4,216.2,7.9
365.0,220.0,221.4,209.2,216.9,6.7
365.5,221.6,220.7,210.9,217.7,5.9
366.0,216.1,223.5,206.9,215.5,8.3
366.5,217.9,224.7,204.6,215.7,10.2
367.0,216.5,220.4,208.7,215.2,6.0
367.5,217.9,221.5,211.3,216.9,5.2
368.0,216.5,223.7,210.4,216.9,6.6
368.5,218.8,221.7,213.1,217.9,4.4
369.0,218.8,220.8,206.6,215.4,7.7
369.5,221.0,224.0,203.9,216.3,10.8
370.0,217.5,224.6,208.8,217.0,7.9
370.5,220.3,221.0,210.6,217.3,5.8
371.0,219.5,222.7,208.4,216.9,7.5
371.5,221.1,220.1,207.1,216.1,7.8
372.0,220.2,224.8,212.2,219.0,6.4
372.5,221.1,220.6,212.0,217.9,5.1
373.0,219.3,226.8,207.8,217.9,9.6
373.5,221.3,226.3,206.3,218.0,10.4
374.0,223.8,222.4,208.4,218.2,8.5
374.5,220.7,226.4,210.4,219.2,8.1
375.0,220.4,225.6,207.5,217.8,9.3
375.5,223.8,220.4,209.5,217.9,7.5
376.0,223.6,225.0,212.7,220.4,6.8
376.5,222.2,222.6,208.9,217.9,7.8
377.0,220.8,227.1,210.3,219.4,8.5
377.5,223.1,226.4,211.8,220.4,7.7
378.0,222.2,225.2,212.4,219.9,6.7
378.5,221.8,225.1,212.3,219.8,6.6
379.0,219.5,228.3,210.6,219.5,8.9
379.5,221.8,225.6,210.3,219.2,8.0
380.0,220.8,228.5,210.9,220.1,8.8
380.5,225.4,223.6,212.3,220.4,7.1
381.0,223.6,226.7,215.3,221.8,5.9
381.5,227.3,234.9,211.4,224.6,12.0
382.0,222.8,227.4,210.9,220.4,8.5
382.5,222.1,231.5,209.1,220.9,11.2
383.0,223.8,230.6,210.3,221.6,10.3
383.5,223.3,234.1,213.4,223.6,10.4
384.0,223.3,232.0,212.3,222.5,9.9
384.5,220.4,226.6,215.0,220.7,5.8
385.0,221.2,226.6,210.0,219.3,8.5
385.5,220.8,232.9,212.1,221.9,10.5
386.0,223.6,236.3,208.2,222.7,14.1
386.5,226.0,231.7,215.8,224.5,8.0
387.0,219.3,232.7,211.2,221.0,10.9
387.5,219.9,233.0,211.5,221.5,10.8
388.0,225.5,235.2,211.7,224.1,11.8
388.5,223.8,227.5,212.3,221.2,7.9
389.0,220.9,230.3,212.7,221.3,8.8
389.5,225.2,232.1,212.2,223.2,10.1
390.0,220.9,233.8,214.8,223.2,9.7
390.5,227.6,234.5,215.5,225.9,9.6
391.0,223.1,235.2,210.2,222.8,12.5
391.5,225.3,232.6,216.2,224.7,8.2
392.0,221.0,234.8,212.1,222.6,11.5
392.5,225.9,233.7,211.3,223.7,11.4
393.0,223.8,232.3,215.2,223.8,8.6
393.5,221.3,234.1,213.3,222.9,10.5
394.0,224.3,233.8,219.4,225.8,7.3
394.5,225.5,234.0,214.1,224.5,10.0
395.0,225.9,237.1,220.1,227.7,8.7
395.5,222.9,235.2,212.8,223.6,11.2
396.0,227.1,237.1,216.7,227.0,10.2
396.5,222.7,228.6,212.6,221.3,8.1
397.0,225.3,235.6,212.9,224.6,11.3
397.5,227.3,237.7,214.7,226.6,11.5
398.0,225.0,236.0,215.4,225.5,10.3
398.5,221.6,236.4,215.3,224.4,10.8
399.0,226.9,235.0,217.2,226.4,8.9
399.5,229.9,240.1,217.2,229.1,11.5
400.0,225.6,235.8,210.1,223.8,12.9
400.5,228.1,238.1,215.7,227.3,11.2
401.0,225.7,237.2,215.7,226.2,10.8
401.5,224.6,237.8,215.5,226.0,11.2
402.0,229.7,236.2,216.4,227.4,10.1
402.5,227.7,237.5,215.4,226.9,11.1
403.0,226.6,234.8,216.6,226.0,9.1
403.5,224.1,238.2,210.6,224.3,13.8
404.0,226.8,242.2,217.2,228.7,12.6
404.5,228.9,235.4,219.0,227.8,8.3
405.0,231.8,239.3,216.1,229.1,11.9
405.5,231.3,239.2,217.3,229.3,11.1
406.0,229.4,238.2,222.0,229.9,8.1
406.5,229.0,239.2,218.5,228.9,10.4
407.0,227.7,243.6,218.6,230.0,12.6
407.5,229.5,243.0,216.4,229.7,13.3
408.0,228.8,239.8,221.0,229.9,9.4
408.5,229.7,239.9,220.9,230.2,9.5
409.0,226.9,237.2,219.4,227.8,8.9
409.5,228.8,237.6,217.8,228.1,9.9
410.0,229.9,237.3,217.9,228.4,9.8
410.5,227.1,237.8,222.3,229.1,7.9
411.0,233.2,240.5,220.4,231.4,10.1
411.5,234.2,241.7,219.4,231.8,11.3
412.0,232.9,242.2,218.4,231.2,12.0
412.5,228.4,240.2,222.0,230.2,9.2
413.0,232.4,240.6,220.3,231.1,10.2
413.5,231.8,240.9,219.7,230.8,10.7
414.0,234.1,246.0,222.6,234.2,11.7
414.5,232.4,241.7,222.1,232.1,9.8
415.0,230.8,241.3,222.8,231.6,9.2
415.5,232.6,237.2,222.6,230.8,7.5
416.0,234.2,242.7,223.7,233.5,9.5
416.5,232.5,243.9,217.6,231.3,13.2
417.0,236.9,245.3,223.5,235.2,11.0
417.5,233.6,238.9,222.0,231.5,8.6
418.0,235.7,242.8,222.9,233.8,10.1
418.5,235.6,240.4,223.9,233.3,8.5
419.0,234.4,243.6,224.5,234.2,9.5
419.5,235.4,243.0,222.1,233.5,10.6
420.0,234.5,239.5,223.8,232.6,8.0
420.5,238.7,238.7,222.2,233.2,9.5
421.0,238.5,241.4,224.0,234.7,9.3
421.5,237.8,238.8,224.5,233.7,8.0
422.0,242.5,235.0,225.4,234.3,8.6
422.5,238.9,238.1,223.2,233.4,8.9
423.0,233.9,237.1,226.2,232.4,5.6
423.5,235.6,240.3,223.5,233.1,8.7
424.0,240.7,235.2,223.7,233.2,8.7
424.5,239.2,236.4,224.7,233.4,7.7
425.0,237.4,237.9,223.3,232.9,8.3
425.5,241.3,233.1,225.3,233.2,8.0
426.0,238.9,235.3,225.5,233.2,7.0
426.5,236.1,233.4,225.6,231.7,5.4
427.0,241.7,228.9,232.0,234.2,6.7
427.5,239.9,227.3,227.4,231.6,7.3
428.0,237.5,226.3,225.5,229.8,6.7
428.5,239.2,225.9,226.0,230.4,7.6
429.0,244.7,224.7,225.4,231.6,11.3
429.5,236.9,224.1,225.0,228.7,7.2
430.0,237.5,223.6,230.0,230.3,7.0
430.5,243.5,218.1,228.4,230.0,12.8
431.0,241.3,221.9,223.8,229.0,10.7
431.5,241.1,219.1,225.2,228.5,11.4
432.0,241.6,213.3,224.4,226.4,14.3
432.5,240.1,212.4,224.0,225.5,13.9
433.0,244.8,209.3,228.1,227.4,17.7
433.5,239.3,206.8,228.1,224.7,16.5
434.0,242.5,207.4,226.1,225.3,17.5
434.5,241.0,201.3,231.7,224.7,20.8
435.0,242.4,201.3,224.6,222.8,20.6
435.5,241.2,198.7,223.7,221.2,21.3
436.0,241.7,197.4,225.9,221.7,22.5
436.5,243.0,196.9,226.7,222.2,23.4
437.0,248.9,193.2,226.7,222.9,28.0
437.5,247.4,190.4,226.6,221.5,28.9
438.0,243.1,185.2,227.2,218.5,29.9
438.5,245.2,180.3,229.3,218.3,33.8
439.0,241.8,178.9,227.6,216.1,33.0
439.5,247.3,174.4,230.6,217.4,38.2
440.0,244.6,172.1,228.3,215.0,38.1
440.5,240.2,171.4,228.8,213.4,36.9
441.0,247.7,164.3,224.3,212.1,43.0
441.5,245.5,161.3,226.4,211.1,44.1
442.0,245.7,154.0,227.0,208.9,48.5
442.5,245.5,152.5,225.2,207.7,48.9
443.0,244.0,146.4,222.5,204.3,51.3
443.5,249.2,143.2,223.4,205.2,55.3
444.0,248.9,140.3,228.6,205.9,57.7
444.5,242.2,135.2,222.1,199.8,56.9
445.0,241.8,130.6,223.9,198.8,59.7
445.5,245.8,127.4,225.4,199.5,63.3
446.0,246.3,120.4,229.8,198.9,68.4
446.5,242.6,117.3,224.9,194.9,67.8
447.0,244.3,110.5,225.1,193.3,72.4
447.5,247.3,107.2,224.6,193.0,75.2
448.0,248.8,104.3,225.8,193.0,77.6
448.5,245.4,99.9,226.2,190.5,79.0
449.0,247.2,96.1,224.5,189.3,81.5
449.5,246.0,93.7,228.3,189.3,83.3
450.0,245.7,92.1,219.2,185.7,82.1
450.5,249.6,88.7,224.7,187.7,86.6
451.0,252.7,87.1,225.9,188.6,88.9
451.5,245.3,82.8,225.3,184.5,88.6
452.0,246.5,83.2,221.8,183.8,88.0
452.5,245.7,79.5,222.0,182.4,89.9
453.0,245.7,76.4,224.3,182.1,92.2
453.5,250.6,75.1,224.8,183.5,94.8
454.0,243.3,74.1,221.7,179.7,92.1
454.5,245.5,70.3,221.2,179.0,94.9
455.0,242.5,68.7,221.4,177.5,94.8
455.5,240.6,66.9,225.4,177.6,96.2
456.0,240.5,66.0,220.0,175.5,95.3
456.5,247.9,64.4,223.2,178.5,99.6
457.0,243.0,63.4,223.9,176.8,98.6
457.5,236.4,62.5,222.6,173.8,96.7
458.0,240.2,60.2,222.3,174.2,99.1
458.5,246.0,60.4,221.8,176.1,100.9
459.0,239.7,59.1,218.7,172.5,98.8
459.5,239.5,58.3,221.1,173.0,99.7
460.0,241.9,58.8,220.5,173.7,100.1
460.5,243.2,57.5,220.7,173.8,101.3
461.0,240.4,57.8,217.3,171.8,99.4
461.5,242.4,56.6,220.8,173.3,101.6
462.0,240.3,57.0,216.8,171.4,99.7
462.5,241.8,56.7,221.7,173.4,101.5
463.0,239.1,56.0,219.2,171.4,100.5
463.5,237.5,55.1,217.6,170.0,100.1
464.0,239.6,54.8,221.4,172.0,101.9
464.5,238.5,54.5,221.2,171.4,101.6
465.0,237.4,53.5,217.6,169.5,101.0
465.5,233.5,52.9,217.5,168.0,100.0
466.0,235.2,53.9,215.4,168.2,99.5
466.5,231.7,53.3,212.9,166.0,98.0
467.0,232.5,53.3,219.7,168.5,100.0
467.5,231.1,52.0,217.0,166.7,99.6
468.0,226.3,51.4,211.8,163.1,97.1
468.5,224.7,52.3,214.2,163.7,96.6
469.0,222.5,52.0,213.1,162.5,95.9
469.5,224.1,50.9,212.5,162.5,96.8
470.0,221.9,51.1,210.0,161.0,95.4
470.5,220.6,51.4,211.8,161.3,95.3
471.0,217.3,50.7,211.9,160.0,94.7
471.5,218.2,51.1,209.9,159.7,94.1
472.0,218.2,50.5,211.8,160.1,95.0
472.5,216.1,50.9,207.3,158.1,93.0
473.0,212.3,51.2,207.0,156.8,91.5
473.5,211.2,51.0,208.9,157.0,91.8
474.0,206.1,50.7,204.6,153.8,89.3
474.5,203.5,50.6,207.6,153.9,89.5
475.0,202.7,50.4,205.8,152.9,88.8
475.5,197.6,51.3,206.8,151.9,87.3
476.0,198.8,50.0,205.5,151.4,87.9
476.5,194.2,51.0,207.5,150.9,86.8
477.0,190.6,51.1,207.6,149.8,85.9
477.5,188.7,50.6,206.6,148.7,85.4
478.0,186.9,50.3,208.6,148.6,85.8
478.5,182.8,50.7,203.0,145.5,82.7
479.0,182.5,50.4,202.8,145.2,82.8
479.5,178.8,50.5,204.3,144.5,82.4
480.0,175.3,50.0,203.1,142.8,81.5
480.5,174.0,50.3,204.4,142.9,81.6
481.0,164.7,49.4,206.1,140.0,81.2
481.5,161.6,48.9,199.8,136.8,78.5
482.0,163.0,48.7,204.0,138.6,80.5
482.5,154.6,49.1,200.0,134.6,77.4
483.0,151.7,48.5,202.3,134.2,78.4
483.5,149.1,,200.5,174.8,36.4
484.0,145.1,,201.3,173.2,39.7
484.5,141.4,,197.6,169.5,39.8
485.0,136.6,,197.6,167.1,43.2
485.5,132.2,,199.9,166.1,47.8
486.0,129.7,,197.1,163.4,47.7
486.5,124.6,,198.6,161.6,52.3
487.0,121.1,,200.9,161.0,56.5
487.5,115.4,,194.1,154.7,55.6
488.0,113.0,,195.9,154.4,58.6
488.5,109.9,,193.3,151.6,58.9
489.0,107.7,,192.2,150.0,59.7
489.5,103.4,,191.8,147.6,62.5
490.0,102.2,,191.6,146.9,63.3
490.5,97.3,,196.8,147.1,70.4
491.0,94.8,,186.9,140.8,65.1
491.5,91.4,,189.6,140.5,69.4
492.0,90.0,,189.7,139.8,70.5
492.5,86.8,,187.0,136.9,70.9
493.0,85.6,,185.9,135.7,70.9
493.5,81.9,,186.7,134.3,74.2
494.0,79.5,,184.4,132.0,74.2
494.5,78.3,,185.0,131.7,75.4
495.0,75.7,,182.2,129.0,75.3
495.5,73.7,,181.2,127.5,76.0
496.0,71.9,,183.6,127.7,79.0
496.5,70.1,,177.7,123.9,76.1
497.0,70.2,,179.6,124.9,77.4
497.5,67.5,,179.7,123.6,79.3
498.0,66.5,,177.5,122.0,78.5
498.5,65.9,,177.0,121.5,78.6
499.0,64.2,,175.4,119.8,78.6
499.5,63.5,,174.1,118.8,78.2
500.0,64.0,,174.4,119.2,78.1
500.5,62.2,,174.3,118.3,79.3
501.0,61.8,,171.6,116.7,77.6
501.5,60.3,,171.2,115.8,78.4
502.0,60.0,,166.3,113.1,75.2
502.5,59.3,,168.5,113.9,77.2
503.0,59.3,,164.8,112.1,74.6
503.5,58.5,,162.8,110.7,73.7
504.0,57.7,,162.0,109.8,73.7
504.5,57.8,,158.7,108.3,71.3
505.0,57.5,,158.5,108.0,71.5
505.5,57.0,,156.5,106.8,70.4
506.0,56.6,,154.9,105.7,69.5
506.5,56.8,,154.4,105.6,69.0
507.0,55.8,,152.4,104.1,68.3
507.5,55.8,,148.5,102.1,65.6
508.0,54.7,,148.0,101.4,65.9
508.5,55.6,,145.0,100.3,63.2
509.0,54.6,,143.5,99.1,62.8
509.5,54.8,,138.0,96.4,58.8
510.0,53.6,,135.1,94.3,57.7
510.5,53.8,,133.6,93.7,56.4
511.0,53.7,,130.7,92.2,54.4
511.5,53.3,,131.4,92.3,55.3
512.0,53.1,,129.1,91.1,53.7
512.5,52.4,,127.7,90.1,53.3
513.0,52.4,,121.4,86.9,48.8
513.5,52.5,,120.9,86.7,48.3
514.0,52.4,,118.0,85.2,46.3
514.5,51.4,,116.2,83.8,45.9
515.0,52.7,,111.8,82.3,41.8
515.5,51.5,,108.4,80.0,40.2
516.0,51.6,,104.9,78.2,37.7
516.5,51.8,,104.5,78.1,37.3
517.0,51.5,,99.2,75.4,33.8
517.5,51.2,,96.8,74.0,32.3
518.0,51.1,,95.2,73.1,31.2
518.5,50.1,,91.2,70.7,29.1
519.0,50.3,,90.1,70.2,28.1
519.5,50.3,,87.6,69.0,26.3
520.0,50.1,,84.8,67.4,24.6
520.5,49.2,,83.3,66.3,24.2
521.0,48.9,,81.8,65.4,23.2
521.5,49.2,,78.6,63.9,20.8
522.0,49.3,,76.7,63.0,19.4
522.5,49.1,,74.7,61.9,18.1
523.0,48.6,,72.6,60.6,17.0
523.5,48.3,,70.1,59.2,15.4
524.0,48.7,,68.4,58.5,13.9
524.5,48.6,,67.6,58.1,13.5
525.0,47.6,,66.4,57.0,13.3
525.5,48.1,,64.6,56.4,11.7
526.0,47.3,,65.0,56.1,12.5
526.5,47.5,,63.0,55.3,11.0
527.0,47.9,,62.6,55.3,10.4
527.5,48.4,,61.1,54.8,9.0
528.0,47.4,,60.8,54.1,9.5
528.5,47.1,,60.0,53.6,9.2
529.0,47.9,,58.5,53.2,7.6
529.5,47.8,,58.2,53.0,7.3
530.0,48.2,,57.8,53.0,6.8
530.5,48.3,,56.8,52.5,6.0
530.75,48.2,,54.7,51.4,4.6