File: 01_Data/Basswood_Panel/Cone/Basswood_Panel_HRRPUA_25.csv
Time after Ignition,Basswood_Panel_R1,Basswood_Panel_R2,Basswood_Panel_R3,Basswood_Panel_R4,Mean,Std. Dev.
0.0,16.7,6.1,4.0,2.6,7.3,6.4
0.75,30.6,11.6,14.6,2.6,14.8,11.7
1.5,50.9,25.6,30.7,2.6,27.4,19.8
2.25,65.2,44.4,50.4,2.5,40.6,26.9
3.0,84.5,64.9,70.7,2.4,55.6,36.4
3.75,102.9,88.1,92.5,2.4,71.5,46.5
4.5,121.1,104.6,109.2,2.4,84.3,55.1
5.25,139.1,120.1,124.0,2.3,96.4,63.3
6.0,156.8,136.0,137.1,2.4,108.0,71.1
6.75,170.3,145.2,154.3,2.8,118.1,77.6
7.5,181.4,156.2,168.0,3.3,127.2,83.2
8.25,195.1,171.3,178.7,5.7,137.7,88.6
9.0,208.6,175.5,182.3,10.6,144.3,90.2
9.75,211.1,185.0,193.6,23.8,153.4,87.1
10.5,219.7,191.3,200.5,40.1,162.9,82.7
11.25,221.6,198.4,209.4,55.7,171.2,77.6
12.0,224.2,200.4,211.6,74.2,177.6,69.6
12.75,229.3,204.0,216.3,93.6,185.8,62.3
13.5,235.4,207.3,223.5,106.4,193.1,59.0
14.25,229.9,209.5,224.6,124.1,197.0,49.4
15.0,232.8,212.0,230.0,140.2,203.8,43.3
15.75,236.2,219.0,232.3,155.0,210.7,37.8
16.5,234.3,221.1,235.8,164.0,213.8,33.9
17.25,235.8,220.4,238.0,173.1,216.8,30.2
18.0,238.3,223.9,237.9,181.9,220.5,26.6
18.75,236.5,220.7,239.6,187.8,221.2,23.7
19.5,237.7,223.9,242.8,203.2,226.9,17.7
20.25,238.7,225.3,237.8,204.1,226.5,16.1
21.0,236.1,224.3,244.4,209.0,228.5,15.4
21.75,234.3,225.6,244.3,212.1,229.1,13.7
22.5,232.4,225.9,244.3,217.9,230.1,11.2
23.25,230.8,226.6,245.7,219.4,230.6,11.1
24.0,226.7,224.1,247.8,224.1,230.7,11.4
24.75,222.5,226.7,242.7,226.1,229.5,9.0
25.5,224.8,227.0,244.0,228.0,230.9,8.8
26.25,221.9,228.4,243.4,235.2,232.2,9.2
27.0,217.5,222.2,241.7,232.1,228.4,10.8
27.75,218.0,223.8,240.6,235.7,229.5,10.5
28.5,215.9,223.3,237.5,239.8,229.1,11.5
29.25,217.6,221.2,233.1,238.7,227.7,9.9
30.0,210.7,223.2,231.8,240.2,226.5,12.6
30.75,213.0,220.7,232.0,245.5,227.8,14.2
31.5,206.0,219.7,227.8,240.7,223.5,14.6
32.25,202.1,219.8,219.6,238.2,220.0,14.7
33.0,202.2,219.4,219.2,239.9,220.2,15.4
33.75,200.4,219.3,220.3,236.0,219.0,14.6
34.5,197.0,212.4,215.8,236.2,215.4,16.1
35.25,197.3,214.6,212.9,230.8,213.9,13.7
36.0,193.3,217.9,210.6,234.2,214.0,17.0
36.75,191.4,215.0,210.2,231.6,212.1,16.5
37.5,191.9,209.8,202.2,229.2,208.3,15.8
38.25,188.7,211.6,197.6,228.5,206.6,17.4
39.0,187.1,205.4,197.4,227.9,204.5,17.3
39.75,185.2,208.4,196.0,229.5,204.8,19.0
40.5,185.2,207.0,190.9,224.1,201.8,17.5
41.25,181.9,199.2,191.8,223.6,199.1,17.8
42.0,180.2,200.9,191.8,221.4,198.6,17.4
42.75,181.7,198.0,186.8,215.6,195.5,15.0
43.5,177.4,197.6,187.6,215.4,194.5,16.2
44.25,178.9,195.2,181.1,214.5,192.4,16.4
45.0,173.1,194.2,178.9,209.0,188.8,16.1
45.75,172.3,191.0,174.8,205.4,185.9,15.4
46.5,168.6,185.3,174.9,202.4,182.8,14.8
47.25,166.8,185.7,172.1,204.0,182.2,16.6
48.0,168.2,182.8,171.3,199.2,180.4,14.0
48.75,166.7,179.5,170.1,196.8,178.3,13.5
49.5,164.6,181.6,170.8,195.4,178.1,13.5
50.25,160.2,179.2,167.7,193.5,175.1,14.5
51.0,161.3,174.7,168.4,188.5,173.2,11.5
51.75,159.3,176.4,166.2,188.6,172.6,12.8
52.5,158.7,170.5,164.8,187.4,170.4,12.4
53.25,160.2,172.9,168.4,182.6,171.0,9.4
54.0,156.9,170.5,164.6,179.7,167.9,9.6
54.75,155.5,169.1,163.9,178.1,166.6,9.5
55.5,154.9,170.8,163.9,176.9,166.6,9.5
56.25,152.0,164.7,164.4,174.7,164.0,9.3
57.0,154.2,165.5,165.8,172.6,164.5,7.6
57.75,152.9,165.3,161.6,169.9,162.4,7.2
58.5,153.1,163.1,159.3,172.1,161.9,8.0
59.25,152.1,162.3,159.5,167.4,160.3,6.4
60.0,147.8,163.2,157.5,165.2,158.4,7.8
60.75,150.0,161.1,155.8,164.3,157.8,6.3
61.5,146.8,158.8,156.6,160.5,155.7,6.1
62.25,148.7,161.3,156.7,160.8,156.9,5.8
63.0,145.8,158.9,156.2,160.0,155.2,6.5
63.75,144.2,157.7,153.7,156.5,153.0,6.1
64.5,145.8,156.9,154.6,156.6,153.5,5.2
65.25,143.2,158.6,149.6,154.7,151.5,6.7
66.0,143.1,154.7,150.0,154.6,150.6,5.4
66.75,145.4,151.9,147.3,151.2,148.9,3.1
67.5,144.8,152.5,147.4,151.2,149.0,3.6
68.25,141.7,153.8,145.1,148.3,147.2,5.1
69.0,140.4,149.9,146.9,148.6,146.4,4.2
69.75,139.8,151.5,144.2,147.2,145.7,4.9
70.5,138.9,148.7,146.3,145.7,144.9,4.2
71.25,136.5,147.5,146.4,148.2,144.6,5.5
72.0,136.1,148.1,144.4,145.6,143.5,5.2
72.75,137.0,147.7,142.4,147.2,143.6,5.0
73.5,135.1,146.9,143.4,145.0,142.6,5.2
74.25,135.0,147.1,142.8,146.5,142.8,5.6
75.0,135.7,144.3,143.1,143.6,141.7,4.0
75.75,134.3,145.0,140.8,145.0,141.2,5.1
76.5,132.7,145.6,142.2,144.5,141.3,5.9
77.25,132.0,141.0,141.3,144.0,139.6,5.2
78.0,132.4,143.4,141.9,143.3,140.2,5.3
78.75,133.4,142.7,141.3,143.5,140.2,4.6
79.5,128.9,142.4,140.4,144.2,139.0,6.9
80.25,129.1,138.9,137.9,142.5,137.1,5.7
81.0,130.4,142.2,138.3,141.4,138.1,5.4
81.75,129.9,138.9,138.9,142.0,137.4,5.2
82.5,128.8,138.0,139.9,142.9,137.4,6.1
83.25,125.9,138.4,137.1,141.7,135.8,6.8
84.0,127.5,138.3,137.0,140.9,135.9,5.9
84.75,126.9,136.5,139.2,139.0,135.4,5.8
85.5,126.2,135.1,138.0,140.8,135.1,6.3
86.25,127.9,136.8,136.3,140.9,135.5,5.5
87.0,125.6,136.4,134.6,139.0,133.9,5.8
87.75,124.6,135.6,133.2,138.8,133.1,6.1
88.5,126.1,135.2,134.9,137.4,133.4,5.0
89.25,126.2,134.3,133.9,138.5,133.2,5.1
90.0,126.0,133.1,133.9,137.7,132.7,4.9
90.75,123.8,133.4,132.7,137.5,131.9,5.8
91.5,125.3,132.4,131.3,136.4,131.3,4.6
92.25,125.5,131.8,132.4,137.2,131.7,4.8
93.0,124.5,130.0,132.9,136.7,131.0,5.2
93.75,124.0,129.2,131.5,135.7,130.1,4.9
94.5,123.5,129.9,131.3,134.3,129.8,4.6
95.25,122.5,128.1,131.3,133.1,128.8,4.6
96.0,123.6,129.0,133.4,132.4,129.6,4.4
96.75,123.0,129.4,133.7,132.4,129.6,4.8
97.5,121.0,126.6,132.4,129.2,127.3,4.8
98.25,121.4,127.5,132.2,129.0,127.5,4.5
99.0,122.4,126.6,131.2,130.1,127.6,4.0
99.75,121.1,126.1,129.2,127.0,125.9,3.4
100.5,121.5,124.0,130.8,126.5,125.7,4.0
101.25,121.1,124.8,128.7,127.9,125.6,3.5
102.0,120.4,124.9,129.5,127.7,125.6,4.0
102.75,122.4,123.1,128.0,126.3,124.9,2.6
103.5,122.9,123.9,128.8,126.8,125.6,2.7
104.25,121.0,121.1,128.4,126.6,124.3,3.8
105.0,121.8,123.1,126.3,127.7,124.7,2.7
105.75,120.7,122.2,125.7,127.1,123.9,3.0
106.5,119.2,120.4,127.3,126.7,123.4,4.2
107.25,119.5,121.4,125.5,126.2,123.2,3.2
108.0,120.4,120.6,126.3,125.0,123.1,3.0
108.75,119.5,122.1,126.5,126.4,123.6,3.4
109.5,118.6,121.6,123.6,125.6,122.3,3.0
110.25,120.4,122.4,123.9,123.7,122.6,1.6
111.0,117.7,120.4,126.3,124.5,122.2,3.9
111.75,118.7,121.6,124.9,122.6,122.0,2.6
112.5,117.1,121.9,124.5,122.6,121.5,3.2
113.25,118.8,120.9,122.2,123.0,121.2,1.8
114.0,117.3,120.5,122.8,124.3,121.2,3.1
114.75,117.1,122.1,122.4,123.0,121.1,2.7
115.5,118.4,120.8,121.2,123.8,121.0,2.2
116.25,120.1,120.3,121.9,124.8,121.8,2.2
117.0,116.9,119.2,122.4,123.1,120.4,2.9
117.75,117.1,120.2,122.5,123.1,120.7,2.7
118.5,117.4,118.8,121.3,121.9,119.9,2.1
119.25,115.8,118.6,121.9,122.9,119.8,3.2
120.0,117.5,118.9,121.8,121.3,119.9,2.1
120.75,115.0,118.6,121.4,121.8,119.2,3.2
121.5,116.4,116.9,122.7,120.3,119.1,3.0
122.25,116.4,119.0,121.1,118.8,118.8,1.9
123.0,116.2,119.0,121.0,122.3,119.6,2.6
123.75,116.3,119.6,122.1,120.6,119.6,2.5
124.5,116.7,117.8,122.2,119.8,119.1,2.4
125.25,117.1,118.6,121.0,120.6,119.3,1.8
126.0,116.7,119.6,121.0,119.3,119.2,1.8
126.75,116.1,117.8,121.5,120.9,119.1,2.6
127.5,116.1,116.9,120.9,118.9,118.2,2.2
128.25,116.1,117.0,121.0,119.4,118.4,2.3
129.0,117.8,119.3,121.6,118.6,119.3,1.6
129.75,118.3,117.9,120.6,120.0,119.2,1.3
130.5,117.6,117.2,118.6,117.9,117.8,0.6
131.25,116.3,116.9,118.4,119.6,117.8,1.5
132.0,114.2,116.8,120.0,117.1,117.0,2.3
132.75,117.4,115.5,119.1,117.2,117.3,1.5
133.5,117.1,115.9,118.9,118.6,117.6,1.4
134.25,117.1,115.3,119.1,117.7,117.3,1.5
135.0,116.8,117.1,117.9,117.1,117.2,0.5
135.75,116.3,116.3,117.9,117.0,116.9,0.8
136.5,116.5,116.6,117.2,117.4,116.9,0.4
137.25,116.3,114.4,116.4,117.7,116.2,1.4
138.0,116.9,117.4,118.6,116.6,117.4,0.9
138.75,117.6,115.0,118.8,116.5,116.9,1.6
139.5,116.8,114.5,117.6,116.4,116.3,1.3
140.25,116.6,115.6,114.6,116.9,115.9,1.1
141.0,115.5,114.4,115.7,115.9,115.4,0.6
141.75,115.7,113.8,114.2,117.0,115.2,1.5
142.5,115.1,113.6,114.3,117.1,115.0,1.5
143.25,114.0,112.3,116.4,116.4,114.8,2.0
144.0,113.2,112.8,112.9,116.3,113.8,1.7
144.75,113.1,113.2,115.0,115.8,114.3,1.3
145.5,113.5,113.4,113.6,116.6,114.3,1.6
146.25,114.3,112.8,113.0,116.7,114.2,1.8
147.0,114.8,112.4,112.0,115.7,113.7,1.8
147.75,115.5,111.4,112.3,115.3,113.6,2.1
148.5,115.2,110.9,112.2,113.3,112.9,1.8
149.25,115.6,111.0,110.4,113.4,112.6,2.4
150.0,114.8,111.2,111.0,113.2,112.6,1.8
150.75,116.0,108.7,111.1,114.0,112.4,3.2
151.5,116.4,109.6,111.6,115.3,113.2,3.1
152.25,114.6,110.1,109.5,113.7,112.0,2.6
153.0,115.8,109.4,110.2,113.5,112.2,3.0
153.75,113.8,110.2,109.9,114.5,112.1,2.4
154.5,113.1,110.5,111.2,112.7,111.9,1.2
155.25,114.9,109.0,110.2,114.0,112.0,2.9
156.0,114.1,109.9,111.0,112.5,111.9,1.8
156.75,113.9,108.8,109.8,113.3,111.4,2.5
157.5,115.0,110.0,109.3,114.1,112.1,2.9
158.25,113.0,110.7,109.4,111.9,111.3,1.6
159.0,114.5,109.0,109.2,110.7,110.8,2.6
159.75,115.3,110.1,108.4,110.7,111.1,2.9
160.5,113.7,109.2,109.0,110.4,110.6,2.2
161.25,113.7,109.7,107.7,113.0,111.0,2.8
162.0,113.6,111.5,107.2,111.9,111.0,2.7
162.75,113.0,108.3,107.3,110.8,109.9,2.6
163.5,112.9,109.5,108.3,110.7,110.3,2.0
164.25,113.5,108.1,109.0,112.0,110.6,2.5
165.0,113.7,109.5,107.2,110.2,110.2,2.7
165.75,113.0,108.0,108.6,109.7,109.8,2.2
166.5,113.4,109.2,108.0,110.2,110.2,2.3
167.25,113.1,110.1,107.1,110.6,110.2,2.5
168.0,116.0,107.7,107.6,108.0,109.8,4.1
168.75,112.2,106.9,106.9,108.1,108.5,2.5
169.5,113.0,108.6,107.9,109.6,109.8,2.3
170.25,110.9,108.3,109.3,107.4,109.0,1.5
171.0,113.7,108.7,106.8,108.8,109.5,3.0
171.75,112.3,108.0,106.6,107.6,108.6,2.5
172.5,111.7,109.3,105.0,108.5,108.7,2.8
173.25,112.9,109.2,106.5,109.9,109.6,2.6
174.0,112.9,108.7,107.0,107.0,108.9,2.8
174.75,111.2,107.2,107.6,110.7,109.2,2.1
175.5,112.3,108.8,105.6,107.8,108.6,2.8
176.25,110.7,109.8,106.2,108.0,108.7,2.0
177.0,110.1,106.7,105.7,105.6,107.0,2.1
177.75,112.2,108.5,105.9,108.3,108.7,2.6
178.5,109.7,107.7,105.2,107.7,107.5,1.8
179.25,109.7,109.3,105.9,106.7,107.9,1.9
180.0,108.9,108.4,103.7,109.7,107.7,2.7
180.75,110.0,108.9,105.4,107.8,108.0,2.0
181.5,109.9,108.5,105.1,107.2,107.7,2.0
182.25,109.6,106.8,105.0,107.4,107.2,1.9
183.0,108.4,107.4,105.7,107.2,107.2,1.1
183.75,107.8,108.8,104.3,109.3,107.5,2.3
184.5,107.6,107.8,104.9,107.2,106.9,1.3
185.25,107.5,106.9,105.1,108.1,106.9,1.3
186.0,108.3,107.1,104.6,106.9,106.7,1.6
186.75,107.2,107.6,104.9,106.4,106.5,1.2
187.5,108.4,107.5,107.2,105.6,107.2,1.2
188.25,107.1,108.9,105.5,107.2,107.2,1.4
189.0,107.1,106.9,104.9,106.3,106.3,1.0
189.75,107.4,106.6,104.1,106.0,106.0,1.4
190.5,107.4,107.6,105.9,105.8,106.7,1.0
191.25,107.7,108.4,104.3,107.3,106.9,1.8
192.0,105.6,105.8,105.9,105.7,105.7,0.1
192.75,106.8,109.2,103.4,105.7,106.3,2.4
193.5,106.5,108.1,104.1,106.9,106.4,1.7
194.25,105.0,107.4,102.8,106.0,105.3,1.9
195.0,105.5,105.5,104.0,107.5,105.6,1.4
195.75,104.1,106.9,104.3,105.8,105.3,1.3
196.5,105.4,108.3,103.4,107.1,106.0,2.1
197.25,105.5,108.6,102.3,107.6,106.0,2.8
198.0,103.6,106.6,102.3,108.3,105.2,2.7
198.75,102.8,107.6,104.5,107.6,105.6,2.4
199.5,104.4,107.7,103.0,110.0,106.3,3.2
200.25,103.3,106.8,104.0,110.1,106.0,3.1
201.0,104.0,105.7,102.6,109.4,105.5,2.9
201.75,103.7,106.6,102.5,109.9,105.7,3.3
202.5,102.8,107.4,103.6,108.1,105.5,2.7
203.25,103.0,107.9,102.1,108.2,105.3,3.2
204.0,103.9,106.8,101.3,107.8,105.0,2.9
204.75,101.4,105.2,102.4,108.1,104.3,3.0
205.5,102.7,107.5,101.8,108.9,105.2,3.5
206.25,101.8,108.5,101.6,106.3,104.6,3.4
207.0,102.9,105.1,101.0,107.3,104.1,2.8
207.75,101.3,105.3,101.9,106.8,103.8,2.7
208.5,102.1,106.4,100.7,105.8,103.7,2.8
209.25,101.1,105.5,101.2,107.1,103.7,3.0
210.0,98.7,106.3,102.3,105.6,103.2,3.5
210.75,100.7,106.8,101.3,104.7,103.4,2.9
211.5,100.3,107.0,102.2,104.9,103.6,3.0
212.25,101.6,106.9,102.6,105.3,104.1,2.4
213.0,102.4,106.9,102.5,106.4,104.6,2.4
213.75,100.2,108.5,102.7,103.9,103.8,3.4
214.5,100.1,106.9,102.9,105.9,103.9,3.1
215.25,100.9,106.4,102.5,104.5,103.6,2.4
216.0,101.2,105.9,103.0,105.0,103.8,2.1
216.75,100.4,104.4,103.4,106.3,103.6,2.5
217.5,100.8,106.6,102.5,105.9,103.9,2.8
218.25,99.5,106.9,102.5,105.5,103.6,3.3
219.0,99.5,104.3,101.7,106.6,103.0,3.1
219.75,99.1,107.3,101.2,104.5,103.0,3.6
220.5,102.1,106.7,102.1,105.7,104.1,2.4
221.25,101.1,106.3,101.0,104.1,103.1,2.6
222.0,99.4,104.5,101.8,105.6,102.8,2.8
222.75,99.5,107.1,102.0,107.3,104.0,3.9
223.5,98.9,105.2,102.0,104.4,102.6,2.8
224.25,99.5,106.3,101.7,104.9,103.1,3.1
225.0,99.8,104.9,101.2,104.5,102.6,2.5
225.75,100.0,104.6,100.9,103.6,102.3,2.2
226.5,100.1,105.0,101.2,105.8,103.0,2.8
227.25,97.8,104.4,100.9,105.1,102.1,3.4
228.0,97.5,104.1,100.3,105.6,101.9,3.7
228.75,100.7,105.0,101.7,105.0,103.1,2.2
229.5,99.3,105.5,101.1,103.7,102.4,2.7
230.25,98.5,104.4,101.1,107.6,102.9,3.9
231.0,99.3,104.3,99.5,103.9,101.8,2.7
231.75,99.9,103.8,100.8,103.3,101.9,1.9
232.5,97.9,104.3,99.7,104.9,101.7,3.4
233.25,98.5,102.9,99.9,105.8,101.8,3.2
234.0,98.0,104.6,101.9,105.2,102.4,3.3
234.75,96.9,102.7,100.8,106.7,101.8,4.1
235.5,96.0,102.2,101.8,106.2,101.5,4.2
236.25,97.5,102.3,100.7,104.8,101.3,3.1
237.0,97.0,101.4,99.5,105.8,100.9,3.7
237.75,96.3,101.2,101.6,104.5,100.9,3.4
238.5,96.7,104.4,99.5,104.2,101.2,3.7
239.25,96.1,101.8,99.6,105.7,100.8,4.0
240.0,97.2,102.8,99.9,104.9,101.2,3.4
240.75,97.1,102.4,99.9,104.5,101.0,3.2
241.5,95.2,101.9,100.5,106.1,100.9,4.5
242.25,97.4,102.3,100.1,106.0,101.5,3.6
243.0,97.0,102.2,98.8,104.9,100.7,3.5
243.75,95.4,103.1,99.4,106.3,101.0,4.7
244.5,95.8,101.9,98.6,106.7,100.8,4.7
245.25,96.7,102.2,99.6,104.9,100.8,3.5
246.0,95.4,102.3,97.7,105.4,100.2,4.5
246.75,96.0,103.1,100.0,106.1,101.3,4.3
247.5,94.8,101.4,99.7,106.9,100.7,5.0
248.25,94.8,102.1,100.4,105.5,100.7,4.5
249.0,95.5,101.2,100.4,106.1,100.8,4.3
249.75,95.4,101.7,100.5,106.0,100.9,4.3
250.5,95.8,101.5,99.7,107.1,101.0,4.7
251.25,96.4,101.2,100.3,106.2,101.0,4.1
252.0,94.8,99.5,99.5,105.7,99.9,4.5
252.75,95.4,99.9,100.3,106.0,100.4,4.4
253.5,94.8,99.6,99.1,105.4,99.7,4.3
254.25,95.9,99.4,99.2,106.2,100.2,4.3
255.0,95.0,99.9,99.9,104.2,99.8,3.8
255.75,94.4,99.4,99.3,105.7,99.7,4.6
256.5,95.5,100.0,98.3,104.9,99.7,4.0
257.25,94.6,100.5,98.8,103.9,99.5,3.9
258.0,94.4,99.4,100.7,104.3,99.7,4.1
258.75,95.6,98.8,98.9,103.5,99.2,3.2
259.5,95.0,99.3,98.0,104.5,99.2,3.9
260.25,94.3,100.6,98.5,103.5,99.2,3.9
261.0,95.4,100.2,99.7,103.9,99.8,3.5
261.75,94.0,99.9,99.9,103.4,99.3,3.9
262.5,95.4,100.8,96.4,102.7,98.8,3.5
263.25,95.4,101.7,99.0,102.5,99.7,3.2
264.0,96.6,99.2,98.8,101.4,99.0,2.0
264.75,96.3,99.3,100.1,101.5,99.3,2.2
265.5,95.2,98.4,99.0,102.3,98.7,2.9
266.25,95.2,99.1,98.7,103.3,99.1,3.3
267.0,95.7,98.2,98.6,103.3,98.9,3.2
267.75,95.4,99.3,98.2,103.4,99.1,3.3
268.5,95.2,98.5,99.1,103.4,99.0,3.3
269.25,96.2,98.2,98.7,103.6,99.1,3.1
270.0,95.8,97.3,97.3,103.8,98.5,3.6
270.75,96.8,97.2,99.1,101.6,98.7,2.2
271.5,95.6,97.7,99.8,101.5,98.7,2.6
272.25,96.7,98.1,97.7,102.1,98.6,2.4
273.0,96.0,96.0,96.8,102.8,97.9,3.3
273.75,95.6,95.5,98.7,101.6,97.9,2.9
274.5,94.8,97.9,99.1,102.2,98.5,3.1
275.25,96.0,99.2,98.1,101.3,98.6,2.2
276.0,97.6,97.1,99.2,100.8,98.7,1.7
276.75,96.0,97.5,98.7,101.3,98.4,2.2
277.5,94.6,97.8,100.1,101.3,98.4,3.0
278.25,96.5,97.1,99.0,100.7,98.3,1.9
279.0,96.4,97.6,98.8,101.7,98.6,2.3
279.75,96.2,97.9,98.3,100.3,98.2,1.7
280.5,94.9,95.8,98.3,99.7,97.2,2.2
281.25,94.4,97.2,99.9,100.3,98.0,2.7
282.0,95.9,97.6,99.1,101.5,98.5,2.4
282.75,95.5,97.2,99.5,100.7,98.2,2.3
283.5,95.4,98.3,98.5,101.6,98.4,2.6
284.25,95.5,97.0,99.1,100.5,98.0,2.2
285.0,95.2,98.3,99.8,100.2,98.4,2.3
285.75,95.7,97.5,99.7,98.8,97.9,1.7
286.5,95.8,96.9,100.7,98.8,98.0,2.2
287.25,96.4,97.6,99.0,98.6,97.9,1.2
288.0,95.9,97.5,100.8,99.7,98.5,2.2
288.75,95.8,97.4,101.1,99.6,98.5,2.3
289.5,96.1,97.8,99.2,100.1,98.3,1.8
290.25,96.2,96.7,99.3,99.5,97.9,1.7
291.0,96.1,98.1,98.4,99.9,98.1,1.6
291.75,97.4,95.9,98.8,98.5,97.7,1.3
292.5,96.5,95.8,98.6,99.5,97.6,1.8
293.25,96.0,97.5,98.8,100.3,98.2,1.8
294.0,96.1,98.2,98.7,98.2,97.8,1.2
294.75,96.5,96.2,98.1,98.6,97.3,1.2
295.5,98.8,96.8,98.3,97.8,97.9,0.9
296.25,95.9,97.1,99.2,97.8,97.5,1.4
297.0,97.1,96.9,98.4,97.6,97.5,0.7
297.75,96.2,98.5,99.7,98.6,98.2,1.4
298.5,97.1,95.8,97.6,97.6,97.0,0.9
299.25,98.0,95.5,98.7,97.9,97.5,1.4
300.0,95.9,95.5,99.8,97.4,97.2,1.9
300.75,97.5,96.6,99.2,97.2,97.6,1.1
301.5,96.9,95.9,99.7,97.1,97.4,1.6
302.25,97.0,94.5,97.6,98.3,96.9,1.7
303.0,95.7,95.1,97.3,98.3,96.6,1.5
303.75,96.9,95.3,98.8,99.2,97.6,1.8
304.5,96.1,95.4,96.9,98.7,96.8,1.4
305.25,96.0,94.7,97.4,98.3,96.6,1.6
306.0,95.5,94.4,97.9,97.6,96.3,1.7
306.75,96.9,94.2,97.8,98.8,96.9,2.0
307.5,94.5,94.1,98.3,97.5,96.1,2.1
308.25,96.6,95.1,98.5,98.4,97.1,1.6
309.0,95.0,93.9,98.4,100.3,96.9,3.0
309.75,95.1,94.8,97.8,99.4,96.8,2.2
310.5,94.9,95.1,98.1,98.5,96.7,1.9
311.25,95.0,92.8,99.6,98.9,96.6,3.2
312.0,96.2,94.2,100.0,98.5,97.2,2.6
312.75,95.3,95.6,98.6,98.2,96.9,1.7
313.5,97.0,95.4,99.3,100.2,97.9,2.2
314.25,97.4,95.4,98.5,97.2,97.2,1.3
315.0,95.9,93.9,98.3,100.0,97.0,2.7
315.75,95.3,95.2,100.6,99.5,97.6,2.8
316.5,96.1,95.7,98.5,99.0,97.3,1.7
317.25,95.2,97.1,99.2,99.4,97.7,2.0
318.0,95.8,95.4,99.4,96.7,96.8,1.8
318.75,95.4,94.6,99.5,97.6,96.8,2.2
319.5,97.1,95.7,99.2,98.2,97.6,1.5
320.25,93.8,96.5,97.5,98.0,96.5,1.8
321.0,95.1,94.6,98.6,96.8,96.3,1.8
321.75,94.2,95.1,99.6,97.8,96.7,2.5
322.5,94.9,94.7,98.4,98.6,96.6,2.2
323.25,94.1,92.9,99.8,98.5,96.3,3.3
324.0,94.3,94.8,99.4,97.9,96.6,2.5
324.75,95.2,93.7,97.7,97.1,95.9,1.8
325.5,94.3,92.7,98.2,95.4,95.2,2.3
326.25,96.1,94.1,98.5,98.6,96.8,2.2
327.0,96.6,92.2,99.5,96.5,96.2,3.0
327.75,96.6,94.9,97.6,95.8,96.2,1.2
328.5,96.7,95.6,98.3,97.4,97.0,1.2
329.25,96.7,93.4,97.8,95.9,95.9,1.9
330.0,95.9,95.2,99.2,96.0,96.6,1.8
330.75,95.3,93.7,98.4,97.1,96.1,2.1
331.5,96.5,95.1,99.4,97.3,97.1,1.8
332.25,96.1,93.8,98.5,97.1,96.4,2.0
333.0,96.3,93.7,99.3,95.5,96.2,2.3
333.75,96.8,93.9,99.5,93.9,96.1,2.7
334.5,94.6,94.5,100.3,95.5,96.2,2.7
335.25,96.6,94.4,98.6,96.9,96.7,1.7
336.0,96.1,95.5,98.6,95.5,96.4,1.5
336.75,94.9,95.6,100.8,95.3,96.7,2.8
337.5,96.5,95.5,98.1,95.5,96.4,1.2
338.25,96.2,96.5,98.2,95.5,96.6,1.1
339.0,95.4,95.4,98.9,96.7,96.6,1.7
339.75,96.2,95.9,100.6,96.3,97.3,2.2
340.5,95.2,95.4,98.7,96.6,96.5,1.6
341.25,95.7,97.2,98.2,96.3,96.8,1.1
342.0,95.5,95.6,98.4,97.0,96.6,1.4
342.75,96.6,95.9,97.6,97.5,96.9,0.8
343.5,96.3,97.9,99.9,93.9,97.0,2.5
344.25,94.5,97.4,97.8,95.8,96.4,1.5
345.0,94.8,96.8,98.2,95.3,96.3,1.5
345.75,95.5,96.8,99.1,96.1,96.9,1.6
346.5,95.0,95.7,98.0,96.8,96.4,1.3
347.25,96.1,95.2,96.7,97.1,96.3,0.8
348.0,95.6,96.0,99.2,95.9,96.7,1.7
348.75,96.0,96.7,99.6,97.1,97.4,1.5
349.5,96.3,97.8,98.6,97.9,97.7,1.0
350.25,97.0,96.6,98.4,97.4,97.4,0.8
351.0,97.1,94.9,98.7,95.8,96.6,1.6
351.75,96.8,95.8,99.6,97.2,97.4,1.6
352.5,96.6,95.0,97.1,97.1,96.4,1.0
353.25,97.5,96.0,98.1,95.2,96.7,1.3
354.0,97.7,96.0,98.1,96.4,97.0,1.0
354.75,96.0,96.7,101.5,96.5,97.7,2.6
355.5,97.3,95.7,97.6,96.4,96.8,0.9
356.25,97.8,96.4,98.8,96.0,97.3,1.3
357.0,99.1,95.9,98.3,94.9,97.1,2.0
357.75,98.2,96.1,97.7,96.2,97.1,1.1
358.5,96.6,96.1,98.6,96.5,96.9,1.1
359.25,98.3,96.0,99.5,96.1,97.5,1.7
360.0,100.0,97.6,99.3,95.3,98.1,2.1
360.75,99.2,94.4,98.2,95.5,96.8,2.2
361.5,100.5,95.0,99.6,97.5,98.2,2.4
362.25,97.8,94.9,99.7,95.1,96.9,2.3
363.0,97.8,97.3,99.3,97.1,97.9,1.0
363.75,98.8,95.4,98.3,96.2,97.2,1.6
364.5,97.0,96.3,99.5,95.3,97.0,1.8
365.25,97.6,96.2,99.4,94.9,97.0,1.9
366.0,98.0,95.6,97.6,95.7,96.7,1.3
366.75,96.2,96.4,99.1,96.9,97.2,1.3
367.5,97.4,96.3,97.5,96.5,96.9,0.6
368.25,97.2,96.7,99.5,96.6,97.5,1.3
369.0,97.6,95.4,99.7,98.3,97.8,1.8
369.75,95.6,97.2,97.8,96.8,96.9,0.9
370.5,98.2,96.7,101.4,96.6,98.2,2.2
371.25,97.5,97.6,98.1,97.1,97.6,0.4
372.0,97.4,98.4,100.6,96.2,98.1,1.8
372.75,98.7,99.9,98.8,97.9,98.8,0.8
373.5,97.5,97.4,98.6,96.0,97.4,1.1
374.25,97.2,98.5,100.3,97.5,98.4,1.4
375.0,98.0,98.2,99.2,95.8,97.8,1.4
375.75,96.4,98.2,98.5,96.1,97.3,1.2
376.5,96.5,98.3,97.9,97.2,97.5,0.8
377.25,98.3,98.4,98.2,97.7,98.2,0.3
378.0,97.4,98.3,99.0,98.7,98.4,0.7
378.75,97.9,97.5,100.6,99.3,98.8,1.4
379.5,97.6,97.8,100.0,97.2,98.2,1.3
380.25,98.8,98.4,99.1,98.6,98.7,0.3
381.0,99.1,98.5,97.1,98.0,98.2,0.9
381.75,98.5,99.0,97.6,98.5,98.4,0.6
382.5,98.6,98.1,97.9,99.0,98.4,0.5
383.25,99.3,99.6,97.3,97.6,98.5,1.2
384.0,99.1,98.2,99.6,98.9,98.9,0.6
384.75,99.6,98.7,97.8,98.5,98.6,0.7
385.5,99.3,98.8,98.9,100.0,99.2,0.5
386.25,99.7,98.1,98.0,98.4,98.5,0.8
387.0,99.3,101.1,99.6,98.2,99.5,1.2
387.75,100.5,99.4,98.7,99.2,99.5,0.8
388.5,101.0,100.2,98.9,99.9,100.0,0.9
389.25,101.4,99.1,99.3,98.5,99.6,1.2
390.0,100.1,101.1,100.5,98.6,100.1,1.1
390.75,99.9,100.9,100.4,100.7,100.5,0.4
391.5,100.8,99.7,100.4,99.2,100.0,0.7
392.25,98.1,99.7,100.9,99.2,99.5,1.2
393.0,100.2,98.5,100.5,100.4,99.9,0.9
393.75,99.2,99.7,100.2,99.2,99.6,0.5
394.5,101.0,100.2,102.1,99.1,100.6,1.3
395.25,97.7,101.5,101.7,101.5,100.6,1.9
396.0,99.7,100.3,101.5,99.9,100.4,0.8
396.75,99.3,99.6,100.7,99.6,99.8,0.6
397.5,99.3,100.4,100.0,100.7,100.1,0.6
398.25,97.8,100.5,101.8,101.5,100.4,1.8
399.0,98.3,100.7,102.4,99.8,100.3,1.7
399.75,97.9,100.8,102.4,98.5,99.9,2.1
400.5,98.9,100.1,101.7,100.7,100.4,1.1
401.25,98.8,100.2,101.1,100.2,100.1,0.9
402.0,98.8,101.1,100.9,99.3,100.1,1.1
402.75,99.9,99.3,99.2,100.5,99.7,0.6
403.5,98.8,100.6,101.6,99.7,100.2,1.2
404.25,99.7,99.2,99.8,99.9,99.6,0.3
405.0,98.1,100.3,101.3,100.2,100.0,1.3
405.75,99.0,99.5,101.2,100.6,100.1,1.0
406.5,99.2,99.4,100.5,101.2,100.1,0.9
407.25,98.9,101.6,101.0,101.9,100.9,1.3
408.0,100.3,99.8,101.0,101.3,100.6,0.7
408.75,99.3,100.9,101.2,101.4,100.7,0.9
409.5,99.1,99.3,102.6,103.7,101.2,2.3
410.25,98.8,100.8,101.1,103.7,101.1,2.0
411.0,101.0,100.4,98.9,101.9,100.5,1.2
411.75,98.4,101.0,102.6,102.3,101.1,1.9
412.5,100.1,100.9,100.7,102.9,101.2,1.2
413.25,100.5,99.9,101.1,100.7,100.5,0.5
414.0,99.8,102.0,102.2,103.4,101.9,1.5
414.75,100.4,100.8,102.2,101.0,101.1,0.8
415.5,101.0,102.6,101.3,102.0,101.7,0.7
416.25,99.0,102.8,101.2,103.8,101.7,2.1
417.0,99.6,102.0,101.4,102.6,101.4,1.3
417.75,100.5,102.0,100.5,102.7,101.4,1.1
418.5,100.5,102.8,100.6,104.3,102.1,1.9
419.25,100.0,103.3,102.3,103.7,102.3,1.7
420.0,101.1,102.4,102.5,104.5,102.6,1.4
420.75,101.0,103.2,101.6,105.6,102.9,2.1
421.5,102.9,103.5,102.3,103.2,103.0,0.5
422.25,101.8,103.6,101.7,104.4,102.9,1.3
423.0,102.0,104.4,101.0,104.5,103.0,1.7
423.75,101.7,105.4,102.2,104.6,103.5,1.8
424.5,102.5,103.0,100.3,104.8,102.6,1.8
425.25,101.9,102.8,101.6,106.3,103.1,2.1
426.0,101.7,104.6,101.2,105.8,103.3,2.2
426.75,102.2,105.4,100.4,107.6,103.9,3.2
427.5,101.2,104.3,101.7,105.4,103.2,2.1
428.25,101.4,104.1,101.9,106.2,103.4,2.2
429.0,101.5,104.9,101.9,108.0,104.1,3.0
429.75,101.2,104.0,103.0,106.8,103.8,2.3
430.5,102.2,104.8,101.6,107.8,104.1,2.8
431.25,102.6,104.9,102.3,108.5,104.6,2.9
432.0,101.0,104.8,102.3,107.9,104.0,3.0
432.75,102.3,104.2,101.4,106.2,103.5,2.1
433.5,103.2,103.6,103.4,108.8,104.8,2.7
434.25,102.7,105.0,101.0,106.4,103.8,2.4
435.0,101.8,103.4,101.6,108.8,103.9,3.4
435.75,103.7,103.6,102.0,106.4,103.9,1.8
436.5,103.8,103.1,102.4,106.2,103.9,1.7
437.25,103.1,104.9,102.5,109.5,105.0,3.2
438.0,102.5,104.8,101.3,107.2,104.0,2.6
438.75,104.5,103.8,102.3,109.3,105.0,3.0
439.5,103.8,105.7,101.2,107.3,104.5,2.6
440.25,104.0,105.3,102.9,108.7,105.2,2.5
441.0,104.7,105.9,103.3,108.4,105.6,2.2
441.75,104.1,104.7,104.1,109.3,105.5,2.5
442.5,105.2,103.6,104.3,108.4,105.4,2.1
443.25,105.6,104.5,102.8,108.4,105.3,2.3
444.0,105.0,104.3,103.9,109.8,105.8,2.8
444.75,105.7,104.7,103.7,109.6,105.9,2.6
445.5,105.3,105.6,104.3,109.8,106.2,2.4
446.25,106.6,107.1,105.2,111.4,107.6,2.7
447.0,105.4,105.5,103.6,109.0,105.9,2.3
447.75,104.8,106.5,103.7,108.4,105.9,2.0
448.5,104.5,106.5,104.4,112.0,106.9,3.6
449.25,104.7,106.6,103.3,108.6,105.8,2.3
450.0,104.4,106.2,104.7,110.3,106.4,2.7
450.75,104.8,108.9,103.7,110.0,106.8,3.1
451.5,105.8,106.4,103.6,109.6,106.3,2.5
452.25,106.1,107.4,105.3,110.8,107.4,2.4
453.0,106.4,106.9,104.3,111.0,107.1,2.8
453.75,109.6,108.2,102.6,110.2,107.7,3.5
454.5,107.5,109.6,103.6,109.9,107.7,2.9
455.25,108.1,108.1,104.8,110.5,107.9,2.3
456.0,108.0,109.1,103.4,112.5,108.2,3.8
456.75,107.9,107.6,104.8,111.5,107.9,2.7
457.5,107.5,109.5,103.4,111.9,108.1,3.6
458.25,110.5,109.1,103.8,110.2,108.4,3.1
459.0,110.5,108.4,103.5,110.6,108.2,3.3
459.75,111.9,109.0,102.2,109.9,108.3,4.2
460.5,109.8,107.7,102.9,111.2,107.9,3.6
461.25,108.8,109.0,102.9,110.7,107.8,3.4
462.0,110.3,109.4,103.8,110.2,108.4,3.1
462.75,108.8,109.7,105.8,109.2,108.4,1.7
463.5,108.7,108.4,103.2,110.3,107.7,3.1
464.25,110.6,109.2,103.4,111.3,108.6,3.6
465.0,108.6,109.3,104.3,111.8,108.5,3.1
465.75,107.3,109.6,104.5,110.4,107.9,2.6
466.5,109.6,109.3,104.2,110.3,108.3,2.8
467.25,110.4,110.1,105.5,111.0,109.3,2.5
468.0,109.9,108.7,104.6,113.5,109.2,3.7
468.75,109.1,109.0,105.0,111.7,108.7,2.8
469.5,109.9,110.6,105.4,111.0,109.2,2.6
470.25,110.4,109.5,106.5,112.2,109.7,2.4
471.0,111.0,109.7,107.1,114.0,110.5,2.9
471.75,111.7,112.0,106.1,112.5,110.6,3.0
472.5,110.9,110.8,104.5,111.7,109.5,3.3
473.25,113.8,110.4,105.4,112.7,110.6,3.7
474.0,115.0,110.9,105.8,113.8,111.4,4.1
474.75,114.3,111.9,107.3,114.3,111.9,3.3
475.5,114.5,114.4,106.6,114.3,112.5,3.9
476.25,115.3,112.7,105.6,113.9,111.9,4.3
477.0,113.2,113.3,106.8,114.4,111.9,3.5
477.75,113.7,112.4,107.0,114.3,111.8,3.4
478.5,113.6,110.4,105.3,115.5,111.2,4.4
479.25,113.7,112.0,105.4,114.5,111.4,4.1
480.0,114.0,114.5,106.2,116.2,112.7,4.5
480.75,113.5,113.4,106.4,114.2,111.8,3.7
481.5,114.1,112.9,105.8,115.4,112.1,4.3
482.25,115.0,113.5,104.8,116.0,112.3,5.1
483.0,113.8,114.3,106.7,115.6,112.6,4.0
483.75,113.9,115.9,109.3,114.8,113.5,2.9
484.5,115.7,114.7,107.1,115.9,113.4,4.2
485.25,113.5,114.8,107.5,115.9,112.9,3.8
486.0,113.7,112.9,107.8,117.4,113.0,3.9
486.75,114.3,115.4,106.8,115.2,112.9,4.1
487.5,114.5,113.3,107.2,115.6,112.6,3.7
488.25,115.4,115.9,107.3,115.7,113.6,4.2
489.0,116.2,113.8,107.5,115.4,113.2,4.0
489.75,117.5,114.8,106.8,117.5,114.2,5.1
490.5,117.4,113.6,108.1,115.1,113.6,4.0
491.25,118.2,115.0,107.0,115.7,114.0,4.8
492.0,119.7,114.2,107.2,115.7,114.2,5.2
492.75,118.3,116.8,105.6,116.5,114.3,5.9
493.5,119.3,117.1,108.9,117.3,115.6,4.6
494.25,119.4,117.5,109.9,117.1,116.0,4.2
495.0,121.8,115.4,108.5,118.0,115.9,5.6
495.75,119.7,117.7,109.3,118.2,116.2,4.7
496.5,119.0,117.0,110.5,118.4,116.3,3.9
497.25,119.2,116.9,106.8,117.2,115.0,5.6
498.0,120.3,118.9,109.7,117.6,116.6,4.8
498.75,121.0,115.9,108.1,116.9,115.5,5.4
499.5,119.4,119.6,109.3,118.8,116.8,5.0
500.25,121.4,118.6,109.4,118.3,116.9,5.2
501.0,121.6,121.2,110.0,117.8,117.7,5.4
501.75,125.3,119.1,110.0,118.6,118.3,6.3
502.5,124.1,120.7,111.4,119.3,118.9,5.4
503.25,122.0,119.2,111.5,120.8,118.4,4.7
504.0,123.2,118.4,110.4,122.5,118.6,5.9
504.75,125.0,120.1,111.0,120.2,119.1,5.9
505.5,125.7,120.4,111.8,121.2,119.8,5.8
506.25,125.6,119.6,111.7,123.1,120.0,6.0
507.0,124.5,120.8,111.3,122.4,119.7,5.8
507.75,123.8,120.4,111.5,121.8,119.4,5.4
508.5,124.9,120.6,111.8,120.5,119.4,5.5
509.25,125.5,119.7,111.7,121.2,119.5,5.8
510.0,128.3,120.7,112.4,122.9,121.1,6.6
510.75,126.5,121.6,113.4,120.2,120.4,5.4
511.5,125.0,122.0,113.9,122.8,120.9,4.8
512.25,126.9,122.4,114.0,124.1,121.8,5.6
513.0,129.1,122.9,113.4,122.7,122.0,6.5
513.75,129.1,121.7,113.9,123.7,122.1,6.3
514.5,128.6,122.6,113.0,122.5,121.7,6.5
515.25,131.3,122.6,113.4,123.1,122.6,7.3
516.0,130.1,124.0,114.2,124.0,123.1,6.6
516.75,131.1,123.2,113.7,124.0,123.0,7.1
517.5,132.1,122.7,115.5,124.6,123.7,6.8
518.25,133.2,121.6,113.0,126.1,123.5,8.4
519.0,131.4,123.0,113.3,123.3,122.8,7.4
519.75,134.0,123.7,115.0,126.4,124.8,7.8
520.5,132.7,121.8,113.5,124.5,123.1,7.9
521.25,134.3,125.2,113.9,127.7,125.3,8.5
522.0,133.1,124.2,115.1,129.6,125.5,7.8
522.75,134.9,124.3,113.7,128.4,125.3,8.9
523.5,137.1,127.3,115.4,128.9,127.2,8.9
524.25,135.0,125.6,114.4,129.5,126.1,8.7
525.0,135.6,125.8,113.6,128.3,125.8,9.2
525.75,135.7,126.3,113.3,127.5,125.7,9.3
526.5,135.7,127.8,117.3,127.9,127.2,7.5
527.25,137.1,124.9,116.1,127.3,126.4,8.6
528.0,137.9,127.3,115.2,128.7,127.3,9.3
528.75,138.8,125.1,116.0,128.3,127.1,9.4
529.5,138.7,127.5,114.8,132.3,128.3,10.1
530.25,139.7,126.5,116.3,129.6,128.0,9.6
531.0,137.0,126.2,115.3,128.0,126.6,8.9
531.75,139.7,126.6,116.7,128.7,127.9,9.4
532.5,138.5,129.0,116.6,131.0,128.8,9.1
533.25,141.4,126.6,117.8,129.6,128.8,9.7
534.0,140.9,128.1,117.3,132.4,129.7,9.8
534.75,140.2,128.5,118.3,133.5,130.1,9.2
535.5,140.6,126.3,118.1,131.0,129.0,9.4
536.25,139.7,129.9,118.8,131.0,129.8,8.6
537.0,141.2,129.2,118.9,131.7,130.3,9.1
537.75,140.8,129.0,118.2,132.1,130.0,9.3
538.5,143.6,129.8,119.2,132.1,131.2,10.0
539.25,143.2,129.5,119.0,131.6,130.8,9.9
540.0,143.4,128.6,119.9,132.0,131.0,9.7
540.75,146.5,128.2,119.8,130.9,131.3,11.1
541.5,145.7,133.2,119.9,131.7,132.6,10.5
542.25,147.3,131.4,121.1,134.6,133.6,10.8
543.0,148.4,130.8,121.2,136.2,134.2,11.3
543.75,147.9,131.1,122.5,134.6,134.0,10.6
544.5,149.5,131.2,123.4,134.9,134.8,11.0
545.25,149.7,134.2,122.8,137.7,136.1,11.1
546.0,150.3,134.4,122.0,139.4,136.5,11.8
546.75,151.5,132.7,122.6,137.1,136.0,12.0
547.5,148.5,135.4,123.0,137.2,136.0,10.4
548.25,148.6,135.2,122.0,137.9,135.9,11.0
549.0,149.3,133.6,124.5,136.7,136.0,10.3
549.75,149.0,134.5,125.1,139.8,137.1,10.0
550.5,149.6,135.3,126.6,138.3,137.5,9.5
551.25,151.7,134.7,125.0,139.2,137.6,11.1
552.0,151.3,137.1,126.0,141.2,138.9,10.5
552.75,154.7,137.7,125.9,141.2,139.9,11.8
553.5,152.9,139.5,127.4,141.6,140.3,10.4
554.25,152.9,139.2,124.9,140.6,139.4,11.5
555.0,153.4,137.7,126.5,143.6,140.3,11.2
555.75,156.6,137.2,127.5,142.2,140.9,12.1
556.5,157.0,138.1,128.6,142.6,141.6,11.8
557.25,156.0,136.5,127.6,142.7,140.7,11.9
558.0,157.0,136.6,127.1,142.0,140.7,12.5
558.75,159.2,138.8,130.0,142.1,142.5,12.2
559.5,157.8,141.2,129.3,143.1,142.9,11.7
560.25,158.4,139.4,128.6,144.6,142.7,12.4
561.0,158.5,142.6,129.6,141.5,143.1,11.9
561.75,159.3,140.1,131.8,144.7,144.0,11.5
562.5,160.2,140.4,131.6,147.7,145.0,12.1
563.25,162.9,144.0,130.5,144.7,145.5,13.3
564.0,162.7,142.2,131.7,143.9,145.1,12.9
564.75,163.0,142.1,130.4,143.8,144.8,13.5
565.5,162.6,146.1,131.9,143.7,146.1,12.7
566.25,164.8,144.4,132.7,142.1,146.0,13.5
567.0,164.2,144.1,132.1,147.5,147.0,13.2
567.75,164.6,144.8,132.4,146.1,147.0,13.3
568.5,164.6,144.3,133.0,145.9,146.9,13.1
569.25,165.0,145.1,134.5,146.7,147.8,12.7
570.0,165.2,145.2,134.1,149.7,148.6,12.9
570.75,166.5,146.8,134.8,146.6,148.7,13.2
571.5,170.6,145.5,132.9,145.5,148.6,15.8
572.25,167.1,146.7,134.6,149.4,149.5,13.4
573.0,165.5,150.7,135.8,149.5,150.4,12.1
573.75,168.6,148.3,135.6,148.4,150.2,13.7
574.5,167.7,149.3,136.2,147.0,150.1,13.1
575.25,168.2,148.1,135.8,150.2,150.6,13.3
576.0,168.9,151.0,135.7,150.9,151.6,13.6
576.75,169.7,149.5,137.9,149.1,151.5,13.2
577.5,171.0,151.1,138.1,150.8,152.8,13.6
578.25,172.3,149.1,139.3,149.4,152.5,14.0
579.0,174.5,151.7,136.8,148.4,152.9,15.8
579.75,173.2,149.7,136.9,151.9,153.0,15.0
580.5,173.1,152.5,138.0,149.2,153.2,14.7
581.25,173.6,151.1,137.0,151.4,153.3,15.1
582.0,174.2,150.1,140.6,152.4,154.3,14.2
582.75,177.1,151.8,139.6,150.5,154.8,15.9
583.5,176.3,153.6,139.7,152.7,155.6,15.2
584.25,178.1,153.3,139.9,154.8,156.5,15.9
585.0,177.3,154.6,142.0,153.6,156.9,14.8
585.75,177.3,153.2,138.8,153.3,155.7,16.0
586.5,179.5,156.4,141.5,158.4,158.9,15.6
587.25,178.7,157.9,142.7,155.7,158.7,14.9
588.0,179.2,156.8,142.2,153.6,158.0,15.5
588.75,176.5,157.4,142.5,155.5,158.0,14.0
589.5,177.8,157.6,142.0,155.3,158.2,14.8
590.25,181.4,158.8,141.2,156.3,159.4,16.6
591.0,176.6,157.3,142.7,157.6,158.5,13.9
591.75,182.7,156.8,143.6,158.2,160.3,16.3
592.5,182.9,155.3,143.6,159.1,160.2,16.5
593.25,180.0,158.9,144.7,160.0,160.9,14.5
594.0,184.7,156.4,145.7,158.4,161.3,16.6
594.75,181.2,159.8,146.3,158.1,161.4,14.5
595.5,181.0,158.5,148.3,158.1,161.5,13.8
596.25,182.7,156.8,147.7,161.9,162.3,14.8
597.0,183.5,158.0,146.3,159.7,161.9,15.6
597.75,184.0,159.1,150.7,161.6,163.9,14.2
598.5,185.4,160.1,149.0,161.5,164.0,15.3
599.25,183.7,160.6,148.5,163.5,164.1,14.6
600.0,184.6,160.2,149.6,162.4,164.2,14.7
600.75,187.2,162.6,149.5,167.8,166.8,15.7
601.5,189.2,159.8,151.0,165.4,166.3,16.3
602.25,184.6,162.1,150.4,163.8,165.2,14.2
603.0,184.0,161.8,150.6,166.1,165.6,13.9
603.75,186.4,162.6,150.7,162.8,165.6,15.0
604.5,184.6,162.2,152.4,167.0,166.6,13.5
605.25,185.1,161.9,148.7,168.5,166.1,15.2
606.0,188.4,166.4,152.0,165.2,168.0,15.1
606.75,187.5,162.9,153.4,165.5,167.3,14.4
607.5,188.0,164.6,150.2,167.8,167.7,15.6
608.25,187.6,164.8,154.2,168.2,168.7,13.9
609.0,185.9,167.4,153.4,170.2,169.2,13.3
609.75,187.3,165.0,152.2,169.2,168.4,14.5
610.5,185.5,167.6,152.8,167.1,168.2,13.4
611.25,188.7,164.8,156.2,172.3,170.5,13.8
612.0,182.9,167.9,157.0,168.3,169.0,10.6
612.75,189.6,169.1,158.2,171.5,172.1,13.0
613.5,186.4,165.6,159.3,171.2,170.6,11.6
614.25,189.0,168.3,157.6,173.4,172.1,13.1
615.0,188.6,167.0,158.5,172.5,171.6,12.7
615.75,190.3,168.8,156.3,172.6,172.0,14.0
616.5,192.5,169.5,159.6,172.2,173.4,13.8
617.25,188.5,167.4,157.8,171.5,171.3,12.9
618.0,191.4,169.8,161.7,170.6,173.4,12.7
618.75,188.8,171.3,159.8,173.5,173.3,11.9
619.5,188.2,170.3,160.2,171.2,172.5,11.6
620.25,191.3,174.9,160.1,171.8,174.5,12.9
621.0,192.4,170.2,161.3,173.8,174.4,13.1
621.75,188.9,169.9,163.4,173.6,174.0,10.8
622.5,191.0,173.2,160.9,174.0,174.8,12.4
623.25,190.2,171.9,163.4,176.2,175.4,11.2
624.0,193.0,174.0,166.4,175.4,177.2,11.3
624.75,189.8,174.9,162.7,174.1,175.4,11.1
625.5,190.3,173.8,164.7,178.9,176.9,10.7
626.25,187.6,174.3,164.9,177.4,176.1,9.4
627.0,188.0,174.9,162.7,174.7,175.1,10.3
627.75,188.3,174.5,164.6,176.6,176.0,9.7
628.5,189.8,177.2,162.7,180.9,177.7,11.3
629.25,188.4,175.4,163.8,180.1,176.9,10.2
630.0,189.7,174.6,167.4,180.3,178.0,9.4
630.75,188.5,175.7,165.5,182.3,178.0,9.8
631.5,186.7,175.4,165.3,181.6,177.2,9.2
632.25,186.8,175.7,165.9,184.8,178.3,9.6
633.0,187.5,178.0,165.0,187.4,179.5,10.6
633.75,185.8,176.6,169.7,183.9,179.0,7.4
634.5,184.7,177.2,167.2,184.9,178.5,8.3
635.25,185.9,176.9,167.1,184.1,178.5,8.5
636.0,186.3,179.1,166.6,185.9,179.5,9.2
636.75,186.5,176.7,167.8,186.8,179.5,9.1
637.5,184.9,181.7,168.7,187.4,180.7,8.3
638.25,188.8,179.6,168.6,184.7,180.4,8.7
639.0,186.5,181.1,171.1,186.7,181.3,7.3
639.75,186.8,175.2,169.4,187.2,179.6,8.8
640.5,186.9,176.3,168.5,186.5,179.6,8.8
641.25,188.6,177.5,171.4,184.0,180.4,7.5
642.0,189.9,175.9,173.9,186.0,181.4,7.7
642.75,183.5,175.5,170.2,187.4,179.1,7.7
643.5,187.8,177.2,168.5,189.3,180.7,9.8
644.25,188.8,175.2,171.5,185.8,180.3,8.3
645.0,188.8,175.3,172.8,188.3,181.3,8.4
645.75,189.0,175.1,169.0,183.4,179.1,8.8
646.5,185.6,176.3,170.1,182.8,178.7,6.9
647.25,189.3,175.0,175.4,188.8,182.1,8.0
648.0,186.6,179.7,174.5,193.5,183.6,8.3
648.75,186.6,180.1,173.2,190.8,182.7,7.7
649.5,191.1,176.0,175.3,189.6,183.0,8.5
650.25,187.9,177.3,171.9,189.6,181.6,8.5
651.0,187.8,178.8,171.7,192.3,182.6,9.2
651.75,188.9,179.4,174.0,188.8,182.8,7.4
652.5,192.8,176.0,174.2,190.8,183.4,9.7
653.25,192.9,180.5,172.5,192.6,184.6,10.0
654.0,192.5,178.8,174.5,190.4,184.1,8.8
654.75,195.2,180.6,175.5,192.1,185.8,9.3
655.5,193.2,178.3,176.5,191.4,184.8,8.6
656.25,192.3,177.9,176.2,189.4,183.9,8.1
657.0,190.4,176.6,174.5,192.3,183.5,9.2
657.75,193.8,177.7,174.3,192.3,184.5,10.0
658.5,195.1,178.3,180.2,191.3,186.2,8.3
659.25,192.6,181.9,175.2,191.3,185.2,8.2
660.0,195.3,175.3,176.5,190.4,184.4,10.0
660.75,197.1,179.1,176.2,191.7,186.0,10.0
661.5,198.7,179.5,173.3,192.2,185.9,11.6
662.25,198.4,180.3,176.5,192.9,187.0,10.3
663.0,201.7,179.3,181.9,191.0,188.5,10.1
663.75,197.4,175.8,177.8,192.9,186.0,10.8
664.5,200.6,175.9,179.7,193.6,187.5,11.6
665.25,201.2,180.0,177.5,191.0,187.4,10.9
666.0,202.6,179.9,178.6,190.8,188.0,11.2
666.75,205.1,179.4,179.3,194.9,189.7,12.6
667.5,202.1,177.5,181.6,192.3,188.4,11.1
668.25,203.1,178.2,179.0,193.9,188.6,12.1
669.0,209.5,178.2,178.8,191.5,189.5,14.7
669.75,203.4,178.8,179.0,191.0,188.1,11.7
670.5,206.9,179.3,185.4,192.1,190.9,11.9
671.25,208.9,181.1,176.6,189.6,189.0,14.3
672.0,211.9,181.2,179.8,189.4,190.6,14.9
672.75,211.5,179.1,180.2,190.7,190.4,15.0
673.5,207.6,180.7,182.3,191.6,190.5,12.3
674.25,210.9,183.2,179.2,189.7,190.7,14.1
675.0,211.2,180.2,177.7,186.3,188.9,15.3
675.75,210.9,182.2,179.5,194.3,191.7,14.3
676.5,208.9,183.2,181.7,194.4,192.1,12.6
677.25,205.9,181.4,188.3,189.7,191.4,10.4
678.0,204.9,180.1,184.2,185.1,188.6,11.1
678.75,201.6,182.4,183.1,188.4,188.9,8.9
679.5,203.8,181.0,186.8,185.3,189.2,10.0
680.25,198.5,182.0,189.1,185.6,188.8,7.1
681.0,192.9,182.2,188.2,186.2,187.4,4.4
681.75,196.6,178.9,187.2,187.7,187.6,7.2
682.5,186.8,179.4,189.0,187.9,185.8,4.3
683.25,184.5,179.4,193.8,185.8,185.9,6.0
684.0,184.3,177.6,188.2,189.1,184.8,5.2
684.75,181.5,178.2,195.9,190.7,186.6,8.2
685.5,178.8,174.0,189.8,188.7,182.8,7.7
686.25,171.6,173.6,190.2,190.9,181.6,10.4
687.0,169.4,172.8,194.2,190.3,181.7,12.4
687.75,167.0,173.1,195.8,191.2,181.8,13.9
688.5,163.1,169.1,194.0,188.6,178.7,14.9
689.25,157.4,171.8,193.0,188.3,177.6,16.2
690.0,154.0,168.2,193.4,186.5,175.5,17.8
690.75,149.6,171.2,192.0,189.5,175.6,19.7
691.5,147.2,167.7,195.9,188.1,174.7,21.8
692.25,143.2,167.1,196.4,189.6,174.0,24.1
693.0,141.3,167.4,195.2,188.4,173.1,24.3
693.75,137.6,164.4,191.3,187.9,170.3,24.9
694.5,136.0,166.4,193.6,187.2,170.8,25.9
695.25,133.5,162.8,193.2,188.3,169.4,27.4
696.0,132.5,162.6,194.9,186.8,169.2,28.1
696.75,131.6,162.4,194.1,186.3,168.6,28.1
697.5,132.1,159.0,194.9,186.1,168.0,28.4
698.25,129.4,158.9,192.9,185.3,166.6,28.8
699.0,129.6,157.4,194.2,185.7,166.7,29.3
699.75,128.7,155.9,195.7,183.7,166.0,29.9
700.5,127.0,156.9,188.6,186.1,164.7,29.0
701.25,125.6,154.3,192.1,188.0,165.0,31.2
702.0,122.4,150.0,194.8,180.9,162.0,32.4
702.75,120.9,151.6,192.9,181.4,161.7,32.3
703.5,119.0,150.8,191.7,177.7,159.8,32.1
704.25,115.4,146.5,195.1,179.2,159.1,35.5
705.0,114.2,147.8,191.5,179.5,158.2,34.7
705.75,111.6,145.1,188.0,174.0,154.7,33.8
706.5,108.8,144.1,188.9,175.2,154.3,35.7
707.25,107.6,143.0,184.9,174.2,152.4,34.8
708.0,104.2,140.9,185.5,171.9,150.6,36.1
708.75,102.1,140.6,183.3,167.4,148.4,35.5
709.5,97.8,140.0,184.0,165.8,146.9,37.4
710.25,96.9,136.6,180.7,164.5,144.7,36.7
711.0,96.0,132.2,183.6,160.9,143.2,37.9
711.75,93.3,132.4,177.9,159.1,140.6,36.7
712.5,92.7,131.3,178.3,159.3,140.4,37.2
713.25,89.3,131.2,178.0,155.7,138.5,38.0
714.0,88.5,127.0,175.7,152.1,135.8,37.3
714.75,87.5,127.2,172.6,153.0,135.1,36.7
715.5,84.2,124.8,173.4,153.6,134.0,38.7
716.25,82.5,124.9,172.2,149.0,132.1,38.3
717.0,80.7,121.7,172.3,149.7,131.1,39.5
717.75,79.3,122.1,165.2,145.6,128.1,37.0
718.5,78.2,119.5,166.0,141.4,126.3,37.3
719.25,75.7,119.4,163.0,140.6,124.7,37.2
720.0,74.6,114.6,162.1,136.9,122.1,37.1
720.75,73.2,115.1,158.9,135.4,120.6,36.3
721.5,72.1,111.4,156.6,133.5,118.4,35.9
722.25,71.5,110.0,154.8,130.5,116.7,35.3
723.0,70.5,106.6,152.1,128.2,114.4,34.6
723.75,69.5,106.8,148.4,125.8,112.6,33.4
724.5,67.9,105.8,151.8,122.5,112.0,35.0
725.25,67.1,103.0,149.4,120.9,110.1,34.4
726.0,67.2,100.3,147.4,120.0,108.7,33.8
726.75,66.6,98.1,143.3,118.1,106.5,32.4
727.5,66.9,96.7,141.7,115.3,105.2,31.5
728.25,66.0,96.9,138.9,113.8,103.9,30.6
729.0,66.0,92.5,136.8,110.7,101.5,29.8
729.75,66.0,91.9,135.6,109.4,100.7,29.3
730.5,65.7,89.1,132.3,106.9,98.5,28.1
731.25,65.0,88.1,132.2,104.6,97.4,28.3
732.0,65.3,87.4,128.9,102.0,95.9,26.7
732.75,66.1,83.8,127.5,100.5,94.5,26.1
733.5,66.8,83.2,124.8,98.1,93.2,24.6
734.25,66.1,79.8,122.9,96.3,91.3,24.4
735.0,66.8,81.1,120.5,95.3,90.9,22.9
735.75,65.5,78.7,116.9,91.0,88.0,21.9
736.5,66.2,76.4,115.3,90.2,87.0,21.3
737.25,65.9,75.5,113.4,87.8,85.6,20.5
738.0,65.3,74.8,113.1,84.7,84.5,20.7
738.75,66.0,71.7,109.8,82.8,82.6,19.5
739.5,65.0,69.9,109.8,81.1,81.5,20.1
740.25,65.0,68.2,105.3,79.5,79.5,18.3
741.0,64.6,65.4,104.7,76.8,77.9,18.7
741.75,64.0,65.3,101.4,76.3,76.7,17.3
742.5,65.0,62.1,99.6,74.0,75.2,17.0
743.25,63.3,62.1,97.9,71.6,73.7,16.7
744.0,64.2,59.8,95.4,70.0,72.3,15.9
744.25,64.1,60.4,95.6,68.6,72.2,16.0