File: 01_Data/Eucalyptus_Flooring/FTIR/IS/Eucalyptus_Flooring_IS_S_220908_R5.dpt
7497.03,0.78669
7491.25,0.78648
7485.46,0.76873
7479.67,0.77662
7473.89,0.77028
7468.1,0.76232
7462.32,0.76400
7456.53,0.76146
7450.74,0.76397
7444.96,0.75671
7439.17,0.75800
7433.38,0.73954
7427.6,0.73456
7421.81,0.74458
7416.03,0.72769
7410.24,0.72386
7404.45,0.72858
7398.67,0.71802
7392.88,0.70751
7387.09,0.69986
7381.31,0.70159
7375.52,0.70036
7369.74,0.70438
7363.95,0.69503
7358.16,0.69494
7352.38,0.69938
7346.59,0.68948
7340.8,0.68492
7335.02,0.68333
7329.23,0.68144
7323.45,0.67413
7317.66,0.67186
7311.87,0.66907
7306.09,0.66119
7300.3,0.66484
7294.51,0.67092
7288.73,0.66698
7282.94,0.66088
7277.16,0.65398
7271.37,0.64866
7265.58,0.64999
7259.8,0.65379
7254.01,0.65699
7248.22,0.64894
7242.44,0.65283
7236.65,0.65377
7230.87,0.64746
7225.08,0.65128
7219.29,0.64429
7213.51,0.63709
7207.72,0.64072
7201.93,0.62952
7196.15,0.63337
7190.36,0.61900
7184.58,0.60239
7178.79,0.61860
7173,0.61780
7167.22,0.61102
7161.43,0.61574
7155.65,0.61067
7149.86,0.59913
7144.07,0.59734
7138.29,0.59325
7132.5,0.58425
7126.71,0.58712
7120.93,0.57796
7115.14,0.56269
7109.36,0.56055
7103.57,0.55758
7097.78,0.54965
7092,0.54360
7086.21,0.53490
7080.42,0.52584
7074.64,0.52898
7068.85,0.52558
7063.07,0.51012
7057.28,0.51371
7051.49,0.50673
7045.71,0.49422
7039.92,0.48786
7034.13,0.47934
7028.35,0.48216
7022.56,0.47452
7016.78,0.47015
7010.99,0.46465
7005.2,0.46332
6999.42,0.45752
6993.63,0.45704
6987.84,0.45313
6982.06,0.45443
6976.27,0.44990
6970.49,0.44662
6964.7,0.45110
6958.91,0.44878
6953.13,0.45466
6947.34,0.44882
6941.55,0.44490
6935.77,0.45063
6929.98,0.44907
6924.2,0.44991
6918.41,0.45014
6912.62,0.44661
6906.84,0.44188
6901.05,0.44841
6895.26,0.45133
6889.48,0.45148
6883.69,0.44752
6877.91,0.45028
6872.12,0.45080
6866.33,0.45364
6860.55,0.45460
6854.76,0.45418
6848.97,0.45358
6843.19,0.45611
6837.4,0.46435
6831.62,0.46368
6825.83,0.46198
6820.04,0.45399
6814.26,0.46016
6808.47,0.46393
6802.68,0.45934
6796.9,0.46219
6791.11,0.46368
6785.33,0.46412
6779.54,0.46776
6773.75,0.46919
6767.97,0.46560
6762.18,0.47023
6756.39,0.47031
6750.61,0.47128
6744.82,0.47290
6739.04,0.47426
6733.25,0.47209
6727.46,0.47652
6721.68,0.47987
6715.89,0.47872
6710.1,0.48383
6704.32,0.48276
6698.53,0.48587
6692.75,0.49064
6686.96,0.48950
6681.17,0.49230
6675.39,0.49404
6669.6,0.49890
6663.82,0.49418
6658.03,0.49799
6652.24,0.49860
6646.46,0.50275
6640.67,0.49965
6634.88,0.50891
6629.1,0.50554
6623.31,0.50692
6617.53,0.51095
6611.74,0.51357
6605.95,0.51237
6600.17,0.51509
6594.38,0.51734
6588.59,0.52056
6582.81,0.52000
6577.02,0.51982
6571.24,0.51738
6565.45,0.52005
6559.66,0.52292
6553.88,0.52594
6548.09,0.52688
6542.3,0.52578
6536.52,0.52602
6530.73,0.53067
6524.95,0.52612
6519.16,0.52640
6513.37,0.52901
6507.59,0.52800
6501.8,0.52983
6496.01,0.52816
6490.23,0.52727
6484.44,0.52721
6478.66,0.52793
6472.87,0.52729
6467.08,0.53125
6461.3,0.52741
6455.51,0.53099
6449.72,0.52912
6443.94,0.53192
6438.15,0.53145
6432.37,0.53274
6426.58,0.53243
6420.79,0.53295
6415.01,0.53479
6409.22,0.53263
6403.43,0.53398
6397.65,0.53757
6391.86,0.53818
6386.08,0.53576
6380.29,0.53645
6374.5,0.54130
6368.72,0.53905
6362.93,0.54448
6357.14,0.54145
6351.36,0.54008
6345.57,0.54160
6339.79,0.53864
6334,0.54061
6328.21,0.54586
6322.43,0.54587
6316.64,0.54737
6310.85,0.54711
6305.07,0.54799
6299.28,0.54881
6293.5,0.55498
6287.71,0.55079
6281.92,0.54936
6276.14,0.55549
6270.35,0.55305
6264.56,0.55777
6258.78,0.55616
6252.99,0.56000
6247.21,0.55649
6241.42,0.56020
6235.63,0.56242
6229.85,0.56281
6224.06,0.56774
6218.27,0.56891
6212.49,0.56790
6206.7,0.57134
6200.92,0.57032
6195.13,0.56673
6189.34,0.56145
6183.56,0.55916
6177.77,0.55590
6171.98,0.55352
6166.2,0.55383
6160.41,0.55182
6154.63,0.55482
6148.84,0.55630
6143.05,0.55944
6137.27,0.56420
6131.48,0.56152
6125.7,0.56522
6119.91,0.56466
6114.12,0.56226
6108.34,0.56115
6102.55,0.56188
6096.76,0.55855
6090.98,0.55471
6085.19,0.55445
6079.41,0.54618
6073.62,0.53971
6067.83,0.53399
6062.05,0.52865
6056.26,0.51908
6050.47,0.51123
6044.69,0.50090
6038.9,0.48998
6033.12,0.47820
6027.33,0.46251
6021.54,0.45628
6015.76,0.44555
6009.97,0.43671
6004.18,0.42445
5998.4,0.42044
5992.61,0.41230
5986.83,0.40918
5981.04,0.40486
5975.25,0.40149
5969.47,0.40202
5963.68,0.40078
5957.89,0.40121
5952.11,0.39867
5946.32,0.39539
5940.54,0.39611
5934.75,0.39457
5928.96,0.39463
5923.18,0.39078
5917.39,0.39152
5911.6,0.39021
5905.82,0.38959
5900.03,0.38822
5894.25,0.38821
5888.46,0.38827
5882.67,0.38748
5876.89,0.38550
5871.1,0.38490
5865.31,0.38647
5859.53,0.38652
5853.74,0.38635
5847.96,0.38332
5842.17,0.37897
5836.38,0.37922
5830.6,0.37670
5824.81,0.37295
5819.02,0.37099
5813.24,0.36686
5807.45,0.36889
5801.67,0.36523
5795.88,0.36964
5790.09,0.37129
5784.31,0.37106
5778.52,0.37320
5772.73,0.37627
5766.95,0.37894
5761.16,0.38382
5755.38,0.38916
5749.59,0.39267
5743.8,0.39842
5738.02,0.40105
5732.23,0.40239
5726.44,0.40693
5720.66,0.40917
5714.87,0.41232
5709.09,0.41678
5703.3,0.41991
5697.51,0.42144
5691.73,0.42440
5685.94,0.42559
5680.15,0.42563
5674.37,0.42610
5668.58,0.42835
5662.8,0.42986
5657.01,0.43141
5651.22,0.43323
5645.44,0.43564
5639.65,0.43673
5633.87,0.43986
5628.08,0.44264
5622.29,0.44321
5616.51,0.44629
5610.72,0.44567
5604.93,0.44621
5599.15,0.44804
5593.36,0.44903
5587.58,0.44976
5581.79,0.44979
5576,0.45244
5570.22,0.45309
5564.43,0.45326
5558.64,0.45687
5552.86,0.45641
5547.07,0.45664
5541.29,0.45820
5535.5,0.46001
5529.71,0.46209
5523.93,0.46135
5518.14,0.46255
5512.35,0.46653
5506.57,0.46971
5500.78,0.47017
5495,0.47194
5489.21,0.47086
5483.42,0.47100
5477.64,0.47304
5471.85,0.47401
5466.06,0.47605
5460.28,0.47639
5454.49,0.48180
5448.71,0.48325
5442.92,0.48561
5437.13,0.48798
5431.35,0.48833
5425.56,0.49044
5419.77,0.49169
5413.99,0.49294
5408.2,0.49461
5402.42,0.49707
5396.63,0.49714
5390.84,0.49836
5385.06,0.49743
5379.27,0.49781
5373.48,0.49854
5367.7,0.49565
5361.91,0.49531
5356.13,0.49373
5350.34,0.49280
5344.55,0.48980
5338.77,0.48799
5332.98,0.48285
5327.19,0.47884
5321.41,0.47255
5315.62,0.46636
5309.84,0.45672
5304.05,0.44516
5298.26,0.43284
5292.48,0.41830
5286.69,0.40392
5280.9,0.38579
5275.12,0.36786
5269.33,0.34894
5263.55,0.33237
5257.76,0.31770
5251.97,0.30398
5246.19,0.29250
5240.4,0.28720
5234.61,0.27902
5228.83,0.27490
5223.04,0.27231
5217.26,0.26930
5211.47,0.26904
5205.68,0.26765
5199.9,0.26816
5194.11,0.26973
5188.32,0.27264
5182.54,0.27417
5176.75,0.27927
5170.97,0.28079
5165.18,0.28500
5159.39,0.28813
5153.61,0.29135
5147.82,0.29518
5142.03,0.30060
5136.25,0.30349
5130.46,0.30716
5124.68,0.31209
5118.89,0.31655
5113.1,0.32190
5107.32,0.32550
5101.53,0.33125
5095.75,0.33725
5089.96,0.34055
5084.17,0.34571
5078.39,0.34890
5072.6,0.35307
5066.81,0.35658
5061.03,0.36009
5055.24,0.36387
5049.46,0.36867
5043.67,0.37144
5037.88,0.37289
5032.1,0.37701
5026.31,0.37958
5020.52,0.37871
5014.74,0.38339
5008.95,0.38153
5003.17,0.38143
4997.38,0.38413
4991.59,0.38237
4985.81,0.38140
4980.02,0.37749
4974.23,0.37612
4968.45,0.37266
4962.66,0.36883
4956.88,0.36381
4951.09,0.35922
4945.3,0.35516
4939.52,0.34845
4933.73,0.34276
4927.94,0.33706
4922.16,0.33244
4916.37,0.32708
4910.59,0.32126
4904.8,0.31664
4899.01,0.31169
4893.23,0.30880
4887.44,0.30448
4881.65,0.30025
4875.87,0.29703
4870.08,0.29364
4864.3,0.29125
4858.51,0.28756
4852.72,0.28566
4846.94,0.28232
4841.15,0.27834
4835.36,0.27559
4829.58,0.27430
4823.79,0.27015
4818.01,0.26738
4812.22,0.26674
4806.43,0.26323
4800.65,0.26202
4794.86,0.26126
4789.07,0.25944
4783.29,0.25884
4777.5,0.25857
4771.72,0.25743
4765.93,0.25606
4760.14,0.25370
4754.36,0.25006
4748.57,0.24748
4742.78,0.24461
4737,0.24198
4731.21,0.24140
4725.43,0.24177
4719.64,0.23940
4713.85,0.23821
4708.07,0.23680
4702.28,0.23470
4696.49,0.23031
4690.71,0.22575
4684.92,0.22249
4679.14,0.21938
4673.35,0.21944
4667.56,0.22302
4661.78,0.22855
4655.99,0.23367
4650.2,0.23880
4644.42,0.24191
4638.63,0.24112
4632.85,0.23899
4627.06,0.23688
4621.27,0.23872
4615.49,0.24508
4609.7,0.25286
4603.92,0.26020
4598.13,0.26808
4592.34,0.27346
4586.56,0.27507
4580.77,0.27597
4574.98,0.27575
4569.2,0.27543
4563.41,0.27739
4557.63,0.28017
4551.84,0.28348
4546.05,0.28497
4540.27,0.28428
4534.48,0.28470
4528.69,0.28238
4522.91,0.27926
4517.12,0.27561
4511.34,0.27247
4505.55,0.26504
4499.76,0.25793
4493.98,0.25196
4488.19,0.24460
4482.4,0.23573
4476.62,0.22581
4470.83,0.21348
4465.05,0.19970
4459.26,0.18316
4453.47,0.16670
4447.69,0.15122
4441.9,0.13666
4436.11,0.12540
4430.33,0.11725
4424.54,0.11180
4418.76,0.10821
4412.97,0.10781
4407.18,0.10771
4401.4,0.10883
4395.61,0.10991
4389.82,0.10928
4384.04,0.10838
4378.25,0.10515
4372.47,0.10366
4366.68,0.10173
4360.89,0.10009
4355.11,0.09907
4349.32,0.10045
4343.53,0.09907
4337.75,0.10140
4331.96,0.10238
4326.18,0.10322
4320.39,0.10314
4314.6,0.10520
4308.82,0.10791
4303.03,0.10900
4297.24,0.10924
4291.46,0.10998
4285.67,0.10983
4279.89,0.10912
4274.1,0.11002
4268.31,0.11092
4262.53,0.11218
4256.74,0.11251
4250.95,0.11334
4245.17,0.11436
4239.38,0.11595
4233.6,0.11678
4227.81,0.11694
4222.02,0.11787
4216.24,0.11972
4210.45,0.12084
4204.66,0.12213
4198.88,0.12239
4193.09,0.12261
4187.31,0.12244
4181.52,0.12223
4175.73,0.12224
4169.95,0.12153
4164.16,0.12108
4158.37,0.12114
4152.59,0.12082
4146.8,0.12001
4141.02,0.11866
4135.23,0.11908
4129.44,0.11899
4123.66,0.11880
4117.87,0.11827
4112.09,0.11633
4106.3,0.11413
4100.51,0.11202
4094.73,0.10866
4088.94,0.10535
4083.15,0.10259
4077.37,0.09893
4071.58,0.09573
4065.8,0.09308
4060.01,0.09241
4054.22,0.09220
4048.44,0.09207
4042.65,0.09375
4036.86,0.09450
4031.08,0.09446
4025.29,0.09452
4019.51,0.09487
4013.72,0.09567
4007.93,0.09689
4002.15,0.09641
3996.36,0.09798
3990.57,0.09863
3984.79,0.09955
3979,0.10080
3973.22,0.10357
3967.43,0.10600
3961.64,0.10749
3955.86,0.11078
3950.07,0.11258
3944.28,0.11356
3938.5,0.11582
3932.71,0.11772
3926.93,0.11954
3921.14,0.12209
3915.35,0.12312
3909.57,0.12598
3903.78,0.12682
3897.99,0.12767
3892.21,0.12959
3886.42,0.13002
3880.64,0.13107
3874.85,0.13301
3869.06,0.13505
3863.28,0.13732
3857.49,0.14049
3851.7,0.14294
3845.92,0.14478
3840.13,0.14592
3834.35,0.14716
3828.56,0.14719
3822.77,0.14788
3816.99,0.14722
3811.2,0.14793
3805.41,0.14787
3799.63,0.14834
3793.84,0.14881
3788.06,0.14873
3782.27,0.14727
3776.48,0.14607
3770.7,0.14520
3764.91,0.14360
3759.12,0.14196
3753.34,0.14091
3747.55,0.14060
3741.77,0.13797
3735.98,0.13660
3730.19,0.13346
3724.41,0.12830
3718.62,0.12486
3712.83,0.12031
3707.05,0.11347
3701.26,0.10545
3695.48,0.09627
3689.69,0.08678
3683.9,0.07675
3678.12,0.06668
3672.33,0.06207
3666.54,0.05847
3660.76,0.05675
3654.97,0.05581
3649.19,0.05455
3643.4,0.05409
3637.61,0.05413
3631.83,0.05393
3626.04,0.05410
3620.25,0.05410
3614.47,0.05330
3608.68,0.05342
3602.9,0.05308
3597.11,0.05367
3591.32,0.05334
3585.54,0.05307
3579.75,0.05230
3573.97,0.05355
3568.18,0.05309
3562.39,0.05267
3556.61,0.05198
3550.82,0.05204
3545.03,0.05260
3539.25,0.05233
3533.46,0.05285
3527.68,0.05309
3521.89,0.05283
3516.1,0.05249
3510.32,0.05249
3504.53,0.05234
3498.74,0.05177
3492.96,0.05241
3487.17,0.05356
3481.39,0.05310
3475.6,0.05237
3469.81,0.05228
3464.03,0.05243
3458.24,0.05221
3452.45,0.05289
3446.67,0.05322
3440.88,0.05289
3435.1,0.05279
3429.31,0.05310
3423.52,0.05296
3417.74,0.05289
3411.95,0.05299
3406.16,0.05301
3400.38,0.05345
3394.59,0.05316
3388.81,0.05306
3383.02,0.05398
3377.23,0.05337
3371.45,0.05315
3365.66,0.05335
3359.87,0.05362
3354.09,0.05291
3348.3,0.05383
3342.52,0.05386
3336.73,0.05393
3330.94,0.05318
3325.16,0.05388
3319.37,0.05392
3313.58,0.05354
3307.8,0.05387
3302.01,0.05376
3296.23,0.05327
3290.44,0.05435
3284.65,0.05388
3278.87,0.05359
3273.08,0.05397
3267.29,0.05402
3261.51,0.05439
3255.72,0.05402
3249.94,0.05367
3244.15,0.05430
3238.36,0.05364
3232.58,0.05371
3226.79,0.05383
3221,0.05406
3215.22,0.05420
3209.43,0.05459
3203.65,0.05417
3197.86,0.05383
3192.07,0.05402
3186.29,0.05402
3180.5,0.05398
3174.71,0.05363
3168.93,0.05385
3163.14,0.05415
3157.36,0.05367
3151.57,0.05386
3145.78,0.05424
3140,0.05419
3134.21,0.05406
3128.42,0.05411
3122.64,0.05393
3116.85,0.05414
3111.07,0.05388
3105.28,0.05391
3099.49,0.05415
3093.71,0.05395
3087.92,0.05355
3082.14,0.05356
3076.35,0.05343
3070.56,0.05299
3064.78,0.05326
3058.99,0.05347
3053.2,0.05392
3047.42,0.05322
3041.63,0.05303
3035.85,0.05254
3030.06,0.05267
3024.27,0.05250
3018.49,0.05233
3012.7,0.05215
3006.91,0.05205
3001.13,0.05167
2995.34,0.05158
2989.56,0.05123
2983.77,0.05092
2977.98,0.04995
2972.2,0.05092
2966.41,0.05035
2960.62,0.05134
2954.84,0.05156
2949.05,0.05158
2943.27,0.05251
2937.48,0.05366
2931.69,0.05552
2925.91,0.05677
2920.12,0.05867
2914.33,0.05873
2908.55,0.05763
2902.76,0.05670
2896.98,0.05644
2891.19,0.05588
2885.4,0.05574
2879.62,0.05594
2873.83,0.05584
2868.04,0.05559
2862.26,0.05623
2856.47,0.05789
2850.69,0.05985
2844.9,0.05957
2839.11,0.05814
2833.33,0.05707
2827.54,0.05680
2821.75,0.05700
2815.97,0.05664
2810.18,0.05596
2804.4,0.05620
2798.61,0.05622
2792.82,0.05588
2787.04,0.05637
2781.25,0.05635
2775.46,0.05627
2769.68,0.05590
2763.89,0.05592
2758.11,0.05632
2752.32,0.05631
2746.53,0.05658
2740.75,0.05633
2734.96,0.05642
2729.17,0.05634
2723.39,0.05629
2717.6,0.05682
2711.82,0.05646
2706.03,0.05693
2700.24,0.05721
2694.46,0.05759
2688.67,0.05795
2682.88,0.05815
2677.1,0.05843
2671.31,0.05838
2665.53,0.05904
2659.74,0.05906
2653.95,0.05918
2648.17,0.05932
2642.38,0.05960
2636.59,0.05966
2630.81,0.05953
2625.02,0.06015
2619.24,0.06016
2613.45,0.06022
2607.66,0.05991
2601.88,0.05993
2596.09,0.06040
2590.3,0.06034
2584.52,0.06046
2578.73,0.06045
2572.95,0.06069
2567.16,0.06072
2561.37,0.06075
2555.59,0.06087
2549.8,0.06065
2544.02,0.06046
2538.23,0.06120
2532.44,0.06152
2526.66,0.06184
2520.87,0.06236
2515.08,0.06280
2509.3,0.06283
2503.51,0.06325
2497.73,0.06330
2491.94,0.06367
2486.15,0.06398
2480.37,0.06430
2474.58,0.06448
2468.79,0.06506
2463.01,0.06555
2457.22,0.06587
2451.44,0.06642
2445.65,0.06614
2439.86,0.06582
2434.08,0.06612
2428.29,0.06633
2422.5,0.06662
2416.72,0.06690
2410.93,0.06738
2405.15,0.06778
2399.36,0.06834
2393.57,0.06851
2387.79,0.06836
2382,0.06878
2376.21,0.06833
2370.43,0.06834
2364.64,0.06858
2358.86,0.06881
2353.07,0.06865
2347.28,0.06876
2341.5,0.06848
2335.71,0.06831
2329.92,0.06890
2324.14,0.06934
2318.35,0.06994
2312.57,0.07013
2306.78,0.07107
2300.99,0.07126
2295.21,0.07178
2289.42,0.07231
2283.63,0.07304
2277.85,0.07324
2272.06,0.07360
2266.28,0.07400
2260.49,0.07424
2254.7,0.07470
2248.92,0.07445
2243.13,0.07443
2237.34,0.07454
2231.56,0.07465
2225.77,0.07484
2219.99,0.07488
2214.2,0.07518
2208.41,0.07533
2202.63,0.07480
2196.84,0.07419
2191.05,0.07390
2185.27,0.07315
2179.48,0.07257
2173.7,0.07165
2167.91,0.07066
2162.12,0.06970
2156.34,0.06878
2150.55,0.06789
2144.76,0.06666
2138.98,0.06578
2133.19,0.06534
2127.41,0.06418
2121.62,0.06400
2115.83,0.06344
2110.05,0.06274
2104.26,0.06248
2098.47,0.06190
2092.69,0.06164
2086.9,0.06137
2081.12,0.06092
2075.33,0.06075
2069.54,0.06121
2063.76,0.06141
2057.97,0.06127
2052.19,0.06178
2046.4,0.06150
2040.61,0.06197
2034.83,0.06165
2029.04,0.06131
2023.25,0.06098
2017.47,0.06058
2011.68,0.06047
2005.9,0.06009
2000.11,0.06013
1994.32,0.06001
1988.54,0.05957
1982.75,0.05979
1976.96,0.05975
1971.18,0.05926
1965.39,0.05911
1959.61,0.05881
1953.82,0.05874
1948.03,0.05891
1942.25,0.05966
1936.46,0.06069
1930.67,0.06055
1924.89,0.06082
1919.1,0.06041
1913.32,0.05988
1907.53,0.05957
1901.74,0.05861
1895.96,0.05768
1890.17,0.05675
1884.38,0.05632
1878.6,0.05613
1872.81,0.05596
1867.03,0.05581
1861.24,0.05523
1855.45,0.05449
1849.67,0.05424
1843.88,0.05335
1838.09,0.05248
1832.31,0.05184
1826.52,0.05067
1820.74,0.04936
1814.95,0.04852
1809.16,0.04714
1803.38,0.04650
1797.59,0.04573
1791.8,0.04525
1786.02,0.04437
1780.23,0.04348
1774.45,0.04251
1768.66,0.04117
1762.87,0.03926
1757.09,0.03682
1751.3,0.03407
1745.51,0.03284
1739.73,0.03814
1733.94,0.04955
1728.16,0.06033
1722.37,0.06756
1716.58,0.06922
1710.8,0.06785
1705.01,0.06548
1699.22,0.06337
1693.44,0.06096
1687.65,0.05979
1681.87,0.05887
1676.08,0.05886
1670.29,0.05814
1664.51,0.05746
1658.72,0.05766
1652.93,0.05762
1647.15,0.05728
1641.36,0.05632
1635.58,0.05582
1629.79,0.05596
1624,0.05564
1618.22,0.05529
1612.43,0.05512
1606.64,0.05524
1600.86,0.05515
1595.07,0.05543
1589.29,0.05473
1583.5,0.05437
1577.71,0.05452
1571.93,0.05410
1566.14,0.05369
1560.35,0.05367
1554.57,0.05286
1548.78,0.05294
1543,0.05313
1537.21,0.05213
1531.42,0.05178
1525.64,0.05118
1519.85,0.04985
1514.07,0.04912
1508.28,0.05146
1502.49,0.05206
1496.71,0.05153
1490.92,0.04995
1485.13,0.04876
1479.35,0.04763
1473.56,0.04689
1467.78,0.04710
1461.99,0.04866
1456.2,0.04907
1450.42,0.04910
1444.63,0.05019
1438.84,0.05077
1433.06,0.05041
1427.27,0.05011
1421.49,0.04943
1415.7,0.04793
1409.91,0.04868
1404.13,0.04926
1398.34,0.04864
1392.55,0.04869
1386.77,0.04897
1380.98,0.04879
1375.2,0.04921
1369.41,0.04884
1363.62,0.04848
1357.84,0.04817
1352.05,0.04758
1346.26,0.04734
1340.48,0.04690
1334.69,0.04596
1328.91,0.04540
1323.12,0.04485
1317.33,0.04410
1311.55,0.04345
1305.76,0.04293
1299.97,0.04292
1294.19,0.04285
1288.4,0.04251
1282.62,0.04184
1276.83,0.04164
1271.04,0.04229
1265.26,0.04276
1259.47,0.04333
1253.68,0.04434
1247.9,0.04586
1242.11,0.04669
1236.33,0.04722
1230.54,0.04773
1224.75,0.04775
1218.97,0.04830
1213.18,0.04715
1207.39,0.04742
1201.61,0.04824
1195.82,0.04893
1190.04,0.05030
1184.25,0.05244
1178.46,0.05448
1172.68,0.05632
1166.89,0.05909
1161.1,0.06237
1155.32,0.06580
1149.53,0.06728
1143.75,0.06640
1137.96,0.06537
1132.17,0.06547
1126.39,0.06590
1120.6,0.06668
1114.81,0.06860
1109.03,0.07129
1103.24,0.07292
1097.46,0.07508
1091.67,0.07583
1085.88,0.07702
1080.1,0.07846
1074.31,0.07960
1068.52,0.08070
1062.74,0.08144
1056.95,0.08192
1051.17,0.08178
1045.38,0.08151
1039.59,0.08164
1033.81,0.08066
1028.02,0.08072
1022.24,0.08047
1016.45,0.07927
1010.66,0.07835
1004.88,0.07711
999.09,0.07585
993.304,0.07402
987.518,0.07460
981.731,0.07472
975.945,0.07463
970.159,0.07511
964.373,0.07473
958.586,0.07463
952.8,0.07413
947.014,0.07356
941.228,0.07308
935.441,0.07245
929.655,0.07235
923.869,0.07194
918.083,0.07118
912.297,0.07094
906.51,0.07078
900.724,0.07124
894.938,0.07114
889.152,0.07040
883.365,0.06995
877.579,0.07020
871.793,0.06951
866.007,0.06877
860.22,0.06809
854.434,0.06731
848.648,0.06631
842.862,0.06575
837.075,0.06552
831.289,0.06591
825.503,0.06639
819.717,0.06659
813.931,0.06668
808.144,0.06849
802.358,0.06895
796.572,0.06913
790.786,0.06847
784.999,0.06808
779.213,0.06917
773.427,0.06915
767.641,0.06897
761.854,0.06826
756.068,0.06849
750.282,0.06805
744.496,0.06762
738.709,0.06803
732.923,0.06773
727.137,0.06951
721.351,0.07015
715.565,0.06987
709.778,0.06811
703.992,0.06783
698.206,0.06775
692.42,0.07001
686.633,0.07114
680.847,0.07306
675.061,0.07436
669.275,0.07308
663.488,0.07254
657.702,0.07099
651.916,0.06887
646.13,0.06739
640.343,0.06692
634.557,0.06594
628.771,0.06445
622.985,0.06518
617.198,0.06550
611.412,0.06453
605.626,0.06417
599.84,0.06625