File: 01_Data/Eucalyptus_Flooring/FTIR/IS/Eucalyptus_Flooring_IS_S_220908_R6.dpt
7497.03,0.78858
7491.25,0.78699
7485.46,0.78358
7479.67,0.76840
7473.89,0.77273
7468.1,0.77643
7462.32,0.76371
7456.53,0.76187
7450.74,0.75427
7444.96,0.75945
7439.17,0.74950
7433.38,0.75063
7427.6,0.73498
7421.81,0.73800
7416.03,0.72746
7410.24,0.71850
7404.45,0.71690
7398.67,0.71887
7392.88,0.71279
7387.09,0.71300
7381.31,0.70380
7375.52,0.69936
7369.74,0.69950
7363.95,0.69294
7358.16,0.68931
7352.38,0.69599
7346.59,0.69233
7340.8,0.68162
7335.02,0.68168
7329.23,0.67706
7323.45,0.67890
7317.66,0.67117
7311.87,0.66411
7306.09,0.66410
7300.3,0.66105
7294.51,0.66355
7288.73,0.65776
7282.94,0.65137
7277.16,0.65909
7271.37,0.65765
7265.58,0.65899
7259.8,0.65654
7254.01,0.65452
7248.22,0.64490
7242.44,0.64574
7236.65,0.65465
7230.87,0.63738
7225.08,0.64842
7219.29,0.63958
7213.51,0.64162
7207.72,0.63995
7201.93,0.62791
7196.15,0.63089
7190.36,0.62110
7184.58,0.59494
7178.79,0.61170
7173,0.61219
7167.22,0.60949
7161.43,0.60838
7155.65,0.60189
7149.86,0.59392
7144.07,0.58767
7138.29,0.58836
7132.5,0.58957
7126.71,0.58134
7120.93,0.57230
7115.14,0.56891
7109.36,0.56412
7103.57,0.55610
7097.78,0.54469
7092,0.53581
7086.21,0.53789
7080.42,0.52559
7074.64,0.51922
7068.85,0.51447
7063.07,0.50567
7057.28,0.51195
7051.49,0.50449
7045.71,0.49149
7039.92,0.48263
7034.13,0.48379
7028.35,0.47483
7022.56,0.47576
7016.78,0.46954
7010.99,0.46910
7005.2,0.46335
6999.42,0.46297
6993.63,0.45655
6987.84,0.45439
6982.06,0.45369
6976.27,0.44783
6970.49,0.45206
6964.7,0.44968
6958.91,0.45001
6953.13,0.44804
6947.34,0.44483
6941.55,0.44562
6935.77,0.44111
6929.98,0.44652
6924.2,0.44727
6918.41,0.44342
6912.62,0.44280
6906.84,0.45068
6901.05,0.44910
6895.26,0.44682
6889.48,0.44558
6883.69,0.44970
6877.91,0.45434
6872.12,0.44979
6866.33,0.45096
6860.55,0.45557
6854.76,0.45031
6848.97,0.45281
6843.19,0.45283
6837.4,0.45683
6831.62,0.45467
6825.83,0.45912
6820.04,0.46015
6814.26,0.46088
6808.47,0.46177
6802.68,0.45852
6796.9,0.46200
6791.11,0.46151
6785.33,0.46725
6779.54,0.46502
6773.75,0.46550
6767.97,0.46861
6762.18,0.46493
6756.39,0.46863
6750.61,0.46653
6744.82,0.47040
6739.04,0.47248
6733.25,0.47571
6727.46,0.47155
6721.68,0.47161
6715.89,0.47888
6710.1,0.48288
6704.32,0.48065
6698.53,0.48302
6692.75,0.49103
6686.96,0.48802
6681.17,0.48854
6675.39,0.48641
6669.6,0.49525
6663.82,0.49556
6658.03,0.49601
6652.24,0.50052
6646.46,0.50104
6640.67,0.50344
6634.88,0.50171
6629.1,0.50590
6623.31,0.50331
6617.53,0.50937
6611.74,0.50795
6605.95,0.51315
6600.17,0.51113
6594.38,0.51398
6588.59,0.51092
6582.81,0.51379
6577.02,0.52103
6571.24,0.51796
6565.45,0.52127
6559.66,0.52051
6553.88,0.52365
6548.09,0.52179
6542.3,0.52239
6536.52,0.52648
6530.73,0.51926
6524.95,0.52511
6519.16,0.52272
6513.37,0.52590
6507.59,0.52692
6501.8,0.52802
6496.01,0.52844
6490.23,0.52840
6484.44,0.52515
6478.66,0.52760
6472.87,0.52676
6467.08,0.52401
6461.3,0.52765
6455.51,0.52538
6449.72,0.52748
6443.94,0.52879
6438.15,0.52662
6432.37,0.53061
6426.58,0.52948
6420.79,0.53213
6415.01,0.53091
6409.22,0.53372
6403.43,0.53357
6397.65,0.53369
6391.86,0.53364
6386.08,0.53772
6380.29,0.53616
6374.5,0.53923
6368.72,0.53752
6362.93,0.54075
6357.14,0.54061
6351.36,0.54170
6345.57,0.53807
6339.79,0.53839
6334,0.54026
6328.21,0.54456
6322.43,0.54135
6316.64,0.54454
6310.85,0.54246
6305.07,0.54568
6299.28,0.54548
6293.5,0.54833
6287.71,0.55038
6281.92,0.55220
6276.14,0.55321
6270.35,0.55204
6264.56,0.55024
6258.78,0.55469
6252.99,0.55869
6247.21,0.55834
6241.42,0.55729
6235.63,0.56035
6229.85,0.56192
6224.06,0.56617
6218.27,0.56439
6212.49,0.56603
6206.7,0.56320
6200.92,0.56550
6195.13,0.56243
6189.34,0.56128
6183.56,0.55476
6177.77,0.55357
6171.98,0.55142
6166.2,0.55144
6160.41,0.54661
6154.63,0.55047
6148.84,0.55447
6143.05,0.55830
6137.27,0.55917
6131.48,0.56023
6125.7,0.55914
6119.91,0.56401
6114.12,0.56150
6108.34,0.55878
6102.55,0.55628
6096.76,0.55414
6090.98,0.55376
6085.19,0.54739
6079.41,0.54113
6073.62,0.53857
6067.83,0.53131
6062.05,0.52179
6056.26,0.51526
6050.47,0.50820
6044.69,0.49917
6038.9,0.48800
6033.12,0.47672
6027.33,0.46224
6021.54,0.45276
6015.76,0.44465
6009.97,0.43476
6004.18,0.42548
5998.4,0.41749
5992.61,0.41086
5986.83,0.40484
5981.04,0.40359
5975.25,0.39885
5969.47,0.39985
5963.68,0.40008
5957.89,0.39742
5952.11,0.39654
5946.32,0.39653
5940.54,0.39186
5934.75,0.39326
5928.96,0.39325
5923.18,0.39378
5917.39,0.38912
5911.6,0.38878
5905.82,0.38918
5900.03,0.38761
5894.25,0.38729
5888.46,0.38631
5882.67,0.38550
5876.89,0.38323
5871.1,0.38615
5865.31,0.38352
5859.53,0.38347
5853.74,0.38508
5847.96,0.38227
5842.17,0.38112
5836.38,0.37890
5830.6,0.37348
5824.81,0.37311
5819.02,0.36923
5813.24,0.36683
5807.45,0.36565
5801.67,0.36531
5795.88,0.36367
5790.09,0.36768
5784.31,0.36945
5778.52,0.37259
5772.73,0.37529
5766.95,0.38039
5761.16,0.38461
5755.38,0.38935
5749.59,0.39321
5743.8,0.39579
5738.02,0.39792
5732.23,0.40185
5726.44,0.40391
5720.66,0.40814
5714.87,0.41313
5709.09,0.41549
5703.3,0.41736
5697.51,0.41996
5691.73,0.42157
5685.94,0.42245
5680.15,0.42233
5674.37,0.42565
5668.58,0.42696
5662.8,0.42768
5657.01,0.42927
5651.22,0.43053
5645.44,0.43425
5639.65,0.43671
5633.87,0.44007
5628.08,0.43983
5622.29,0.44165
5616.51,0.44285
5610.72,0.44245
5604.93,0.44228
5599.15,0.44644
5593.36,0.44789
5587.58,0.44882
5581.79,0.44982
5576,0.44738
5570.22,0.45030
5564.43,0.45064
5558.64,0.45346
5552.86,0.45441
5547.07,0.45509
5541.29,0.45657
5535.5,0.45788
5529.71,0.45947
5523.93,0.45976
5518.14,0.46177
5512.35,0.46405
5506.57,0.46658
5500.78,0.46733
5495,0.46707
5489.21,0.46925
5483.42,0.47064
5477.64,0.47151
5471.85,0.47490
5466.06,0.47408
5460.28,0.47762
5454.49,0.47971
5448.71,0.48028
5442.92,0.48242
5437.13,0.48492
5431.35,0.48724
5425.56,0.48985
5419.77,0.49162
5413.99,0.49161
5408.2,0.49306
5402.42,0.49558
5396.63,0.49641
5390.84,0.49627
5385.06,0.49529
5379.27,0.49532
5373.48,0.49439
5367.7,0.49310
5361.91,0.49280
5356.13,0.49063
5350.34,0.48973
5344.55,0.48744
5338.77,0.48486
5332.98,0.48104
5327.19,0.47521
5321.41,0.46943
5315.62,0.46189
5309.84,0.45404
5304.05,0.44454
5298.26,0.43305
5292.48,0.41860
5286.69,0.40099
5280.9,0.38472
5275.12,0.36610
5269.33,0.34702
5263.55,0.33100
5257.76,0.31622
5251.97,0.30289
5246.19,0.29308
5240.4,0.28468
5234.61,0.27839
5228.83,0.27310
5223.04,0.27031
5217.26,0.26997
5211.47,0.26706
5205.68,0.26766
5199.9,0.26743
5194.11,0.26964
5188.32,0.27226
5182.54,0.27497
5176.75,0.27674
5170.97,0.28116
5165.18,0.28419
5159.39,0.28776
5153.61,0.29043
5147.82,0.29468
5142.03,0.29887
5136.25,0.30232
5130.46,0.30713
5124.68,0.31211
5118.89,0.31571
5113.1,0.31976
5107.32,0.32530
5101.53,0.33024
5095.75,0.33513
5089.96,0.33897
5084.17,0.34379
5078.39,0.34811
5072.6,0.35255
5066.81,0.35563
5061.03,0.35945
5055.24,0.36301
5049.46,0.36495
5043.67,0.36866
5037.88,0.37135
5032.1,0.37510
5026.31,0.37629
5020.52,0.37844
5014.74,0.37992
5008.95,0.38098
5003.17,0.38126
4997.38,0.38153
4991.59,0.37966
4985.81,0.37858
4980.02,0.37677
4974.23,0.37402
4968.45,0.37118
4962.66,0.36747
4956.88,0.36301
4951.09,0.35809
4945.3,0.35178
4939.52,0.34724
4933.73,0.34149
4927.94,0.33445
4922.16,0.33045
4916.37,0.32448
4910.59,0.32023
4904.8,0.31504
4899.01,0.31041
4893.23,0.30678
4887.44,0.30224
4881.65,0.29821
4875.87,0.29464
4870.08,0.29189
4864.3,0.28880
4858.51,0.28636
4852.72,0.28329
4846.94,0.28002
4841.15,0.27756
4835.36,0.27508
4829.58,0.27113
4823.79,0.26774
4818.01,0.26738
4812.22,0.26434
4806.43,0.26242
4800.65,0.26188
4794.86,0.26026
4789.07,0.25880
4783.29,0.25806
4777.5,0.25743
4771.72,0.25614
4765.93,0.25453
4760.14,0.25261
4754.36,0.24969
4748.57,0.24717
4742.78,0.24306
4737,0.24151
4731.21,0.24030
4725.43,0.23976
4719.64,0.23914
4713.85,0.23830
4708.07,0.23527
4702.28,0.23324
4696.49,0.22975
4690.71,0.22557
4684.92,0.22080
4679.14,0.21959
4673.35,0.21934
4667.56,0.22234
4661.78,0.22719
4655.99,0.23309
4650.2,0.23841
4644.42,0.24052
4638.63,0.24031
4632.85,0.23808
4627.06,0.23551
4621.27,0.23710
4615.49,0.24327
4609.7,0.25183
4603.92,0.25914
4598.13,0.26721
4592.34,0.27140
4586.56,0.27442
4580.77,0.27448
4574.98,0.27391
4569.2,0.27385
4563.41,0.27669
4557.63,0.27795
4551.84,0.28143
4546.05,0.28400
4540.27,0.28378
4534.48,0.28267
4528.69,0.28022
4522.91,0.27820
4517.12,0.27561
4511.34,0.27026
4505.55,0.26440
4499.76,0.25704
4493.98,0.25117
4488.19,0.24298
4482.4,0.23541
4476.62,0.22489
4470.83,0.21319
4465.05,0.19825
4459.26,0.18226
4453.47,0.16536
4447.69,0.15034
4441.9,0.13594
4436.11,0.12426
4430.33,0.11675
4424.54,0.11223
4418.76,0.10823
4412.97,0.10722
4407.18,0.10745
4401.4,0.10895
4395.61,0.10921
4389.82,0.10936
4384.04,0.10815
4378.25,0.10578
4372.47,0.10264
4366.68,0.10149
4360.89,0.09954
4355.11,0.09897
4349.32,0.09911
4343.53,0.10060
4337.75,0.10074
4331.96,0.10146
4326.18,0.10225
4320.39,0.10309
4314.6,0.10570
4308.82,0.10690
4303.03,0.10846
4297.24,0.10842
4291.46,0.10872
4285.67,0.10953
4279.89,0.10972
4274.1,0.10945
4268.31,0.11048
4262.53,0.11152
4256.74,0.11254
4250.95,0.11313
4245.17,0.11429
4239.38,0.11502
4233.6,0.11537
4227.81,0.11718
4222.02,0.11777
4216.24,0.11909
4210.45,0.12030
4204.66,0.12106
4198.88,0.12186
4193.09,0.12248
4187.31,0.12210
4181.52,0.12180
4175.73,0.12131
4169.95,0.12055
4164.16,0.12071
4158.37,0.12121
4152.59,0.12032
4146.8,0.12013
4141.02,0.11913
4135.23,0.11831
4129.44,0.11926
4123.66,0.11827
4117.87,0.11750
4112.09,0.11577
4106.3,0.11363
4100.51,0.11143
4094.73,0.10924
4088.94,0.10537
4083.15,0.10196
4077.37,0.09861
4071.58,0.09543
4065.8,0.09300
4060.01,0.09195
4054.22,0.09224
4048.44,0.09335
4042.65,0.09409
4036.86,0.09433
4031.08,0.09427
4025.29,0.09330
4019.51,0.09461
4013.72,0.09522
4007.93,0.09519
4002.15,0.09634
3996.36,0.09726
3990.57,0.09868
3984.79,0.09860
3979,0.10085
3973.22,0.10262
3967.43,0.10541
3961.64,0.10745
3955.86,0.11023
3950.07,0.11204
3944.28,0.11388
3938.5,0.11577
3932.71,0.11691
3926.93,0.11825
3921.14,0.12026
3915.35,0.12262
3909.57,0.12419
3903.78,0.12659
3897.99,0.12830
3892.21,0.12918
3886.42,0.12996
3880.64,0.13055
3874.85,0.13262
3869.06,0.13470
3863.28,0.13704
3857.49,0.13987
3851.7,0.14241
3845.92,0.14363
3840.13,0.14516
3834.35,0.14609
3828.56,0.14631
3822.77,0.14721
3816.99,0.14764
3811.2,0.14724
3805.41,0.14751
3799.63,0.14824
3793.84,0.14775
3788.06,0.14751
3782.27,0.14649
3776.48,0.14489
3770.7,0.14448
3764.91,0.14298
3759.12,0.14071
3753.34,0.14091
3747.55,0.13977
3741.77,0.13770
3735.98,0.13648
3730.19,0.13259
3724.41,0.12954
3718.62,0.12477
3712.83,0.12011
3707.05,0.11359
3701.26,0.10523
3695.48,0.09635
3689.69,0.08626
3683.9,0.07584
3678.12,0.06638
3672.33,0.06258
3666.54,0.05881
3660.76,0.05653
3654.97,0.05523
3649.19,0.05493
3643.4,0.05462
3637.61,0.05461
3631.83,0.05382
3626.04,0.05348
3620.25,0.05383
3614.47,0.05325
3608.68,0.05382
3602.9,0.05346
3597.11,0.05287
3591.32,0.05306
3585.54,0.05333
3579.75,0.05293
3573.97,0.05278
3568.18,0.05301
3562.39,0.05230
3556.61,0.05231
3550.82,0.05257
3545.03,0.05247
3539.25,0.05282
3533.46,0.05236
3527.68,0.05252
3521.89,0.05255
3516.1,0.05165
3510.32,0.05161
3504.53,0.05170
3498.74,0.05235
3492.96,0.05246
3487.17,0.05257
3481.39,0.05217
3475.6,0.05240
3469.81,0.05284
3464.03,0.05272
3458.24,0.05249
3452.45,0.05202
3446.67,0.05283
3440.88,0.05324
3435.1,0.05249
3429.31,0.05254
3423.52,0.05271
3417.74,0.05251
3411.95,0.05310
3406.16,0.05256
3400.38,0.05323
3394.59,0.05285
3388.81,0.05274
3383.02,0.05336
3377.23,0.05313
3371.45,0.05271
3365.66,0.05286
3359.87,0.05347
3354.09,0.05328
3348.3,0.05361
3342.52,0.05323
3336.73,0.05300
3330.94,0.05303
3325.16,0.05328
3319.37,0.05323
3313.58,0.05297
3307.8,0.05370
3302.01,0.05342
3296.23,0.05393
3290.44,0.05371
3284.65,0.05379
3278.87,0.05370
3273.08,0.05415
3267.29,0.05411
3261.51,0.05401
3255.72,0.05373
3249.94,0.05355
3244.15,0.05365
3238.36,0.05399
3232.58,0.05429
3226.79,0.05433
3221,0.05377
3215.22,0.05324
3209.43,0.05366
3203.65,0.05369
3197.86,0.05394
3192.07,0.05395
3186.29,0.05369
3180.5,0.05381
3174.71,0.05383
3168.93,0.05352
3163.14,0.05346
3157.36,0.05400
3151.57,0.05337
3145.78,0.05362
3140,0.05361
3134.21,0.05338
3128.42,0.05438
3122.64,0.05399
3116.85,0.05361
3111.07,0.05364
3105.28,0.05349
3099.49,0.05324
3093.71,0.05345
3087.92,0.05335
3082.14,0.05358
3076.35,0.05341
3070.56,0.05338
3064.78,0.05309
3058.99,0.05329
3053.2,0.05271
3047.42,0.05287
3041.63,0.05310
3035.85,0.05294
3030.06,0.05249
3024.27,0.05248
3018.49,0.05239
3012.7,0.05212
3006.91,0.05149
3001.13,0.05109
2995.34,0.05078
2989.56,0.05047
2983.77,0.05053
2977.98,0.05046
2972.2,0.05023
2966.41,0.05082
2960.62,0.05107
2954.84,0.05124
2949.05,0.05205
2943.27,0.05237
2937.48,0.05314
2931.69,0.05496
2925.91,0.05635
2920.12,0.05820
2914.33,0.05852
2908.55,0.05717
2902.76,0.05614
2896.98,0.05649
2891.19,0.05558
2885.4,0.05564
2879.62,0.05533
2873.83,0.05583
2868.04,0.05567
2862.26,0.05621
2856.47,0.05727
2850.69,0.05903
2844.9,0.05935
2839.11,0.05737
2833.33,0.05741
2827.54,0.05690
2821.75,0.05691
2815.97,0.05611
2810.18,0.05651
2804.4,0.05568
2798.61,0.05556
2792.82,0.05566
2787.04,0.05612
2781.25,0.05614
2775.46,0.05616
2769.68,0.05566
2763.89,0.05563
2758.11,0.05649
2752.32,0.05621
2746.53,0.05608
2740.75,0.05611
2734.96,0.05583
2729.17,0.05579
2723.39,0.05606
2717.6,0.05659
2711.82,0.05682
2706.03,0.05733
2700.24,0.05725
2694.46,0.05749
2688.67,0.05738
2682.88,0.05750
2677.1,0.05787
2671.31,0.05841
2665.53,0.05804
2659.74,0.05840
2653.95,0.05908
2648.17,0.05902
2642.38,0.05957
2636.59,0.05970
2630.81,0.05971
2625.02,0.06013
2619.24,0.06009
2613.45,0.06014
2607.66,0.05987
2601.88,0.06032
2596.09,0.05971
2590.3,0.06026
2584.52,0.06037
2578.73,0.06076
2572.95,0.06114
2567.16,0.06095
2561.37,0.06061
2555.59,0.06069
2549.8,0.06086
2544.02,0.06052
2538.23,0.06095
2532.44,0.06109
2526.66,0.06129
2520.87,0.06212
2515.08,0.06251
2509.3,0.06262
2503.51,0.06310
2497.73,0.06325
2491.94,0.06337
2486.15,0.06378
2480.37,0.06366
2474.58,0.06462
2468.79,0.06531
2463.01,0.06536
2457.22,0.06597
2451.44,0.06604
2445.65,0.06615
2439.86,0.06612
2434.08,0.06599
2428.29,0.06580
2422.5,0.06613
2416.72,0.06644
2410.93,0.06730
2405.15,0.06770
2399.36,0.06771
2393.57,0.06802
2387.79,0.06833
2382,0.06833
2376.21,0.06828
2370.43,0.06823
2364.64,0.06840
2358.86,0.06858
2353.07,0.06841
2347.28,0.06873
2341.5,0.06828
2335.71,0.06786
2329.92,0.06845
2324.14,0.06884
2318.35,0.06964
2312.57,0.07047
2306.78,0.07090
2300.99,0.07128
2295.21,0.07165
2289.42,0.07230
2283.63,0.07250
2277.85,0.07279
2272.06,0.07323
2266.28,0.07395
2260.49,0.07444
2254.7,0.07438
2248.92,0.07453
2243.13,0.07453
2237.34,0.07434
2231.56,0.07431
2225.77,0.07388
2219.99,0.07479
2214.2,0.07509
2208.41,0.07468
2202.63,0.07444
2196.84,0.07428
2191.05,0.07380
2185.27,0.07292
2179.48,0.07217
2173.7,0.07129
2167.91,0.07058
2162.12,0.06966
2156.34,0.06839
2150.55,0.06774
2144.76,0.06670
2138.98,0.06531
2133.19,0.06486
2127.41,0.06408
2121.62,0.06392
2115.83,0.06326
2110.05,0.06274
2104.26,0.06218
2098.47,0.06198
2092.69,0.06169
2086.9,0.06142
2081.12,0.06085
2075.33,0.06075
2069.54,0.06099
2063.76,0.06126
2057.97,0.06116
2052.19,0.06135
2046.4,0.06130
2040.61,0.06117
2034.83,0.06116
2029.04,0.06077
2023.25,0.06043
2017.47,0.06027
2011.68,0.06018
2005.9,0.06007
2000.11,0.05981
1994.32,0.05968
1988.54,0.05932
1982.75,0.05969
1976.96,0.05958
1971.18,0.05912
1965.39,0.05862
1959.61,0.05848
1953.82,0.05853
1948.03,0.05884
1942.25,0.05965
1936.46,0.06002
1930.67,0.06052
1924.89,0.06066
1919.1,0.06036
1913.32,0.05988
1907.53,0.05937
1901.74,0.05830
1895.96,0.05744
1890.17,0.05651
1884.38,0.05628
1878.6,0.05597
1872.81,0.05582
1867.03,0.05532
1861.24,0.05492
1855.45,0.05442
1849.67,0.05396
1843.88,0.05347
1838.09,0.05252
1832.31,0.05161
1826.52,0.05027
1820.74,0.04952
1814.95,0.04844
1809.16,0.04736
1803.38,0.04606
1797.59,0.04561
1791.8,0.04469
1786.02,0.04396
1780.23,0.04303
1774.45,0.04208
1768.66,0.04028
1762.87,0.03877
1757.09,0.03628
1751.3,0.03376
1745.51,0.03282
1739.73,0.03787
1733.94,0.04843
1728.16,0.06005
1722.37,0.06740
1716.58,0.06962
1710.8,0.06767
1705.01,0.06546
1699.22,0.06286
1693.44,0.06104
1687.65,0.05986
1681.87,0.05887
1676.08,0.05825
1670.29,0.05800
1664.51,0.05721
1658.72,0.05705
1652.93,0.05781
1647.15,0.05685
1641.36,0.05590
1635.58,0.05590
1629.79,0.05584
1624,0.05492
1618.22,0.05469
1612.43,0.05462
1606.64,0.05520
1600.86,0.05529
1595.07,0.05545
1589.29,0.05455
1583.5,0.05427
1577.71,0.05433
1571.93,0.05352
1566.14,0.05323
1560.35,0.05289
1554.57,0.05256
1548.78,0.05265
1543,0.05265
1537.21,0.05222
1531.42,0.05196
1525.64,0.05137
1519.85,0.04990
1514.07,0.04926
1508.28,0.05132
1502.49,0.05189
1496.71,0.05131
1490.92,0.05009
1485.13,0.04862
1479.35,0.04771
1473.56,0.04708
1467.78,0.04718
1461.99,0.04814
1456.2,0.04887
1450.42,0.04945
1444.63,0.05006
1438.84,0.05060
1433.06,0.05009
1427.27,0.04988
1421.49,0.04896
1415.7,0.04800
1409.91,0.04822
1404.13,0.04873
1398.34,0.04823
1392.55,0.04806
1386.77,0.04803
1380.98,0.04863
1375.2,0.04887
1369.41,0.04888
1363.62,0.04830
1357.84,0.04817
1352.05,0.04781
1346.26,0.04737
1340.48,0.04639
1334.69,0.04575
1328.91,0.04524
1323.12,0.04493
1317.33,0.04406
1311.55,0.04320
1305.76,0.04259
1299.97,0.04242
1294.19,0.04293
1288.4,0.04270
1282.62,0.04202
1276.83,0.04172
1271.04,0.04241
1265.26,0.04265
1259.47,0.04344
1253.68,0.04428
1247.9,0.04561
1242.11,0.04664
1236.33,0.04718
1230.54,0.04829
1224.75,0.04764
1218.97,0.04772
1213.18,0.04758
1207.39,0.04785
1201.61,0.04757
1195.82,0.04952
1190.04,0.05112
1184.25,0.05250
1178.46,0.05501
1172.68,0.05588
1166.89,0.05895
1161.1,0.06250
1155.32,0.06532
1149.53,0.06654
1143.75,0.06618
1137.96,0.06576
1132.17,0.06521
1126.39,0.06497
1120.6,0.06611
1114.81,0.06860
1109.03,0.07108
1103.24,0.07343
1097.46,0.07509
1091.67,0.07628
1085.88,0.07648
1080.1,0.07816
1074.31,0.08004
1068.52,0.08080
1062.74,0.08170
1056.95,0.08168
1051.17,0.08147
1045.38,0.08190
1039.59,0.08221
1033.81,0.08094
1028.02,0.08095
1022.24,0.08032
1016.45,0.07868
1010.66,0.07853
1004.88,0.07685
999.09,0.07512
993.304,0.07434
987.518,0.07433
981.731,0.07429
975.945,0.07435
970.159,0.07489
964.373,0.07414
958.586,0.07328
952.8,0.07338
947.014,0.07297
941.228,0.07223
935.441,0.07197
929.655,0.07194
923.869,0.07210
918.083,0.07100
912.297,0.07108
906.51,0.07077
900.724,0.07004
894.938,0.06955
889.152,0.06976
883.365,0.07060
877.579,0.06979
871.793,0.06893
866.007,0.06946
860.22,0.06845
854.434,0.06786
848.648,0.06719
842.862,0.06628
837.075,0.06571
831.289,0.06631
825.503,0.06717
819.717,0.06700
813.931,0.06573
808.144,0.06799
802.358,0.06808
796.572,0.06892
790.786,0.06885
784.999,0.06817
779.213,0.06935
773.427,0.06940
767.641,0.06886
761.854,0.06924
756.068,0.06843
750.282,0.06683
744.496,0.06702
738.709,0.06771
732.923,0.06832
727.137,0.06950
721.351,0.07045
715.565,0.06894
709.778,0.06785
703.992,0.06758
698.206,0.06859
692.42,0.07052
686.633,0.07229
680.847,0.07387
675.061,0.07426
669.275,0.07314
663.488,0.07230
657.702,0.06987
651.916,0.06873
646.13,0.06989
640.343,0.06828
634.557,0.06570
628.771,0.06505
622.985,0.06319
617.198,0.06600
611.412,0.06718
605.626,0.06657
599.84,0.06430