File: 01_Data/Eucalyptus_Flooring/FTIR/IS/Eucalyptus_Flooring_IS_S_220908_R3.dpt
7497.03,0.77893
7491.25,0.78953
7485.46,0.77387
7479.67,0.76634
7473.89,0.76832
7468.1,0.77168
7462.32,0.76563
7456.53,0.75628
7450.74,0.75125
7444.96,0.75578
7439.17,0.74121
7433.38,0.74326
7427.6,0.74273
7421.81,0.73583
7416.03,0.73136
7410.24,0.71973
7404.45,0.71627
7398.67,0.71006
7392.88,0.71845
7387.09,0.71105
7381.31,0.71297
7375.52,0.71030
7369.74,0.70384
7363.95,0.70373
7358.16,0.70004
7352.38,0.69409
7346.59,0.70099
7340.8,0.69694
7335.02,0.68735
7329.23,0.67423
7323.45,0.67131
7317.66,0.67977
7311.87,0.67881
7306.09,0.67941
7300.3,0.66691
7294.51,0.66422
7288.73,0.65600
7282.94,0.65770
7277.16,0.65699
7271.37,0.66208
7265.58,0.65239
7259.8,0.66157
7254.01,0.64760
7248.22,0.65555
7242.44,0.64725
7236.65,0.64304
7230.87,0.65702
7225.08,0.64675
7219.29,0.63969
7213.51,0.64022
7207.72,0.63625
7201.93,0.63406
7196.15,0.63899
7190.36,0.62400
7184.58,0.59639
7178.79,0.62576
7173,0.62352
7167.22,0.62130
7161.43,0.61615
7155.65,0.61583
7149.86,0.60272
7144.07,0.59828
7138.29,0.59138
7132.5,0.59159
7126.71,0.58349
7120.93,0.57932
7115.14,0.56996
7109.36,0.56799
7103.57,0.56170
7097.78,0.55832
7092,0.54538
7086.21,0.53566
7080.42,0.53061
7074.64,0.53096
7068.85,0.52235
7063.07,0.50959
7057.28,0.50361
7051.49,0.50245
7045.71,0.49899
7039.92,0.49056
7034.13,0.48520
7028.35,0.47796
7022.56,0.47294
7016.78,0.46804
7010.99,0.46500
7005.2,0.46338
6999.42,0.46218
6993.63,0.46265
6987.84,0.45789
6982.06,0.45380
6976.27,0.45088
6970.49,0.45020
6964.7,0.45447
6958.91,0.44822
6953.13,0.44642
6947.34,0.44850
6941.55,0.44497
6935.77,0.44943
6929.98,0.44769
6924.2,0.44490
6918.41,0.45019
6912.62,0.44953
6906.84,0.44811
6901.05,0.44562
6895.26,0.45136
6889.48,0.44632
6883.69,0.45291
6877.91,0.44952
6872.12,0.45784
6866.33,0.45295
6860.55,0.45860
6854.76,0.45530
6848.97,0.45790
6843.19,0.46040
6837.4,0.45728
6831.62,0.45846
6825.83,0.46016
6820.04,0.46219
6814.26,0.46204
6808.47,0.46024
6802.68,0.46389
6796.9,0.46106
6791.11,0.46454
6785.33,0.46090
6779.54,0.46532
6773.75,0.46740
6767.97,0.46798
6762.18,0.46958
6756.39,0.47078
6750.61,0.47273
6744.82,0.47059
6739.04,0.47579
6733.25,0.47999
6727.46,0.48489
6721.68,0.47892
6715.89,0.48124
6710.1,0.47661
6704.32,0.48499
6698.53,0.48237
6692.75,0.48739
6686.96,0.49085
6681.17,0.49019
6675.39,0.49264
6669.6,0.49607
6663.82,0.49520
6658.03,0.49990
6652.24,0.50034
6646.46,0.50089
6640.67,0.50401
6634.88,0.50580
6629.1,0.50781
6623.31,0.50980
6617.53,0.51113
6611.74,0.50567
6605.95,0.51444
6600.17,0.51220
6594.38,0.51802
6588.59,0.51855
6582.81,0.51281
6577.02,0.52298
6571.24,0.52319
6565.45,0.51793
6559.66,0.52155
6553.88,0.52550
6548.09,0.52752
6542.3,0.52434
6536.52,0.52563
6530.73,0.53021
6524.95,0.53091
6519.16,0.52872
6513.37,0.53136
6507.59,0.53058
6501.8,0.52968
6496.01,0.53091
6490.23,0.52673
6484.44,0.53428
6478.66,0.53226
6472.87,0.53238
6467.08,0.52924
6461.3,0.53177
6455.51,0.52795
6449.72,0.53239
6443.94,0.53147
6438.15,0.53113
6432.37,0.53367
6426.58,0.53297
6420.79,0.53121
6415.01,0.53429
6409.22,0.53742
6403.43,0.53679
6397.65,0.53791
6391.86,0.53653
6386.08,0.54099
6380.29,0.54080
6374.5,0.54190
6368.72,0.54088
6362.93,0.54309
6357.14,0.54304
6351.36,0.54613
6345.57,0.54505
6339.79,0.54474
6334,0.54560
6328.21,0.54624
6322.43,0.54975
6316.64,0.54641
6310.85,0.54670
6305.07,0.54669
6299.28,0.55202
6293.5,0.54855
6287.71,0.55259
6281.92,0.55066
6276.14,0.55419
6270.35,0.55535
6264.56,0.55376
6258.78,0.55844
6252.99,0.55785
6247.21,0.55957
6241.42,0.56332
6235.63,0.56593
6229.85,0.56446
6224.06,0.56468
6218.27,0.56821
6212.49,0.56613
6206.7,0.56497
6200.92,0.56676
6195.13,0.56674
6189.34,0.56229
6183.56,0.55910
6177.77,0.55518
6171.98,0.55149
6166.2,0.55445
6160.41,0.54881
6154.63,0.55429
6148.84,0.55618
6143.05,0.56090
6137.27,0.56292
6131.48,0.56375
6125.7,0.56524
6119.91,0.56501
6114.12,0.56430
6108.34,0.56187
6102.55,0.56176
6096.76,0.55936
6090.98,0.55453
6085.19,0.55323
6079.41,0.54614
6073.62,0.54067
6067.83,0.53299
6062.05,0.52758
6056.26,0.52006
6050.47,0.51104
6044.69,0.50085
6038.9,0.48797
6033.12,0.47745
6027.33,0.46829
6021.54,0.45538
6015.76,0.44546
6009.97,0.43746
6004.18,0.42887
5998.4,0.41914
5992.61,0.41348
5986.83,0.40945
5981.04,0.40559
5975.25,0.40244
5969.47,0.40204
5963.68,0.40215
5957.89,0.40041
5952.11,0.39979
5946.32,0.39684
5940.54,0.39690
5934.75,0.39518
5928.96,0.39664
5923.18,0.39394
5917.39,0.39124
5911.6,0.38997
5905.82,0.39186
5900.03,0.38983
5894.25,0.38925
5888.46,0.38858
5882.67,0.38988
5876.89,0.38813
5871.1,0.38542
5865.31,0.38506
5859.53,0.38598
5853.74,0.38453
5847.96,0.38411
5842.17,0.38402
5836.38,0.37946
5830.6,0.37718
5824.81,0.37301
5819.02,0.36870
5813.24,0.36653
5807.45,0.36562
5801.67,0.36602
5795.88,0.37009
5790.09,0.37009
5784.31,0.37106
5778.52,0.37298
5772.73,0.37675
5766.95,0.38291
5761.16,0.38671
5755.38,0.39132
5749.59,0.39171
5743.8,0.39828
5738.02,0.40341
5732.23,0.40519
5726.44,0.40919
5720.66,0.41134
5714.87,0.41419
5709.09,0.41762
5703.3,0.42271
5697.51,0.42539
5691.73,0.42490
5685.94,0.42669
5680.15,0.42823
5674.37,0.42672
5668.58,0.42812
5662.8,0.43110
5657.01,0.43202
5651.22,0.43618
5645.44,0.43835
5639.65,0.44110
5633.87,0.44119
5628.08,0.44307
5622.29,0.44370
5616.51,0.44667
5610.72,0.44833
5604.93,0.44734
5599.15,0.44790
5593.36,0.44817
5587.58,0.44961
5581.79,0.45061
5576,0.45169
5570.22,0.45370
5564.43,0.45470
5558.64,0.45470
5552.86,0.45644
5547.07,0.45783
5541.29,0.46071
5535.5,0.46098
5529.71,0.46046
5523.93,0.46293
5518.14,0.46518
5512.35,0.46634
5506.57,0.46683
5500.78,0.46895
5495,0.47141
5489.21,0.47196
5483.42,0.47260
5477.64,0.47372
5471.85,0.47512
5466.06,0.47850
5460.28,0.47902
5454.49,0.47977
5448.71,0.48250
5442.92,0.48368
5437.13,0.48672
5431.35,0.49004
5425.56,0.48859
5419.77,0.49391
5413.99,0.49645
5408.2,0.49658
5402.42,0.49580
5396.63,0.49918
5390.84,0.49805
5385.06,0.49917
5379.27,0.49939
5373.48,0.49712
5367.7,0.49629
5361.91,0.49591
5356.13,0.49371
5350.34,0.49291
5344.55,0.49135
5338.77,0.48739
5332.98,0.48455
5327.19,0.47869
5321.41,0.47138
5315.62,0.46468
5309.84,0.45604
5304.05,0.44441
5298.26,0.43350
5292.48,0.41879
5286.69,0.40262
5280.9,0.38577
5275.12,0.36704
5269.33,0.34852
5263.55,0.33111
5257.76,0.31554
5251.97,0.30252
5246.19,0.29290
5240.4,0.28465
5234.61,0.27683
5228.83,0.27397
5223.04,0.27063
5217.26,0.26901
5211.47,0.26691
5205.68,0.26672
5199.9,0.26804
5194.11,0.26772
5188.32,0.27164
5182.54,0.27392
5176.75,0.27734
5170.97,0.28052
5165.18,0.28312
5159.39,0.28691
5153.61,0.29133
5147.82,0.29577
5142.03,0.30015
5136.25,0.30523
5130.46,0.30820
5124.68,0.31243
5118.89,0.31660
5113.1,0.32190
5107.32,0.32666
5101.53,0.33054
5095.75,0.33591
5089.96,0.33916
5084.17,0.34404
5078.39,0.34809
5072.6,0.35230
5066.81,0.35585
5061.03,0.35944
5055.24,0.36367
5049.46,0.36691
5043.67,0.37090
5037.88,0.37206
5032.1,0.37606
5026.31,0.37763
5020.52,0.37956
5014.74,0.38064
5008.95,0.38350
5003.17,0.38361
4997.38,0.38351
4991.59,0.38199
4985.81,0.38014
4980.02,0.37876
4974.23,0.37587
4968.45,0.37292
4962.66,0.36873
4956.88,0.36503
4951.09,0.36063
4945.3,0.35419
4939.52,0.34905
4933.73,0.34374
4927.94,0.33797
4922.16,0.33083
4916.37,0.32656
4910.59,0.32152
4904.8,0.31618
4899.01,0.31340
4893.23,0.30824
4887.44,0.30360
4881.65,0.30108
4875.87,0.29774
4870.08,0.29415
4864.3,0.29160
4858.51,0.28796
4852.72,0.28501
4846.94,0.28110
4841.15,0.27880
4835.36,0.27622
4829.58,0.27318
4823.79,0.27040
4818.01,0.26790
4812.22,0.26570
4806.43,0.26393
4800.65,0.26235
4794.86,0.26165
4789.07,0.25962
4783.29,0.25923
4777.5,0.25874
4771.72,0.25732
4765.93,0.25567
4760.14,0.25271
4754.36,0.25146
4748.57,0.24874
4742.78,0.24525
4737,0.24278
4731.21,0.24191
4725.43,0.24117
4719.64,0.23955
4713.85,0.23825
4708.07,0.23680
4702.28,0.23463
4696.49,0.23023
4690.71,0.22612
4684.92,0.22220
4679.14,0.21938
4673.35,0.21986
4667.56,0.22277
4661.78,0.22731
4655.99,0.23358
4650.2,0.23881
4644.42,0.24188
4638.63,0.24129
4632.85,0.23881
4627.06,0.23676
4621.27,0.23807
4615.49,0.24365
4609.7,0.25194
4603.92,0.26161
4598.13,0.26804
4592.34,0.27231
4586.56,0.27541
4580.77,0.27594
4574.98,0.27579
4569.2,0.27540
4563.41,0.27823
4557.63,0.27993
4551.84,0.28275
4546.05,0.28566
4540.27,0.28573
4534.48,0.28505
4528.69,0.28232
4522.91,0.27989
4517.12,0.27610
4511.34,0.27129
4505.55,0.26482
4499.76,0.25829
4493.98,0.25124
4488.19,0.24435
4482.4,0.23496
4476.62,0.22592
4470.83,0.21479
4465.05,0.19992
4459.26,0.18328
4453.47,0.16638
4447.69,0.15078
4441.9,0.13685
4436.11,0.12467
4430.33,0.11718
4424.54,0.11104
4418.76,0.10907
4412.97,0.10749
4407.18,0.10826
4401.4,0.10839
4395.61,0.11033
4389.82,0.11008
4384.04,0.10800
4378.25,0.10601
4372.47,0.10349
4366.68,0.10205
4360.89,0.09980
4355.11,0.09960
4349.32,0.10015
4343.53,0.10008
4337.75,0.10081
4331.96,0.10171
4326.18,0.10336
4320.39,0.10375
4314.6,0.10565
4308.82,0.10810
4303.03,0.10961
4297.24,0.10995
4291.46,0.11013
4285.67,0.10948
4279.89,0.11033
4274.1,0.11015
4268.31,0.11099
4262.53,0.11125
4256.74,0.11200
4250.95,0.11355
4245.17,0.11455
4239.38,0.11592
4233.6,0.11632
4227.81,0.11745
4222.02,0.11943
4216.24,0.11956
4210.45,0.12141
4204.66,0.12206
4198.88,0.12205
4193.09,0.12238
4187.31,0.12261
4181.52,0.12262
4175.73,0.12159
4169.95,0.12122
4164.16,0.12106
4158.37,0.12090
4152.59,0.12075
4146.8,0.11935
4141.02,0.11979
4135.23,0.11914
4129.44,0.11927
4123.66,0.11893
4117.87,0.11749
4112.09,0.11627
4106.3,0.11411
4100.51,0.11223
4094.73,0.10980
4088.94,0.10550
4083.15,0.10239
4077.37,0.09860
4071.58,0.09581
4065.8,0.09350
4060.01,0.09303
4054.22,0.09290
4048.44,0.09314
4042.65,0.09378
4036.86,0.09434
4031.08,0.09438
4025.29,0.09500
4019.51,0.09543
4013.72,0.09531
4007.93,0.09601
4002.15,0.09659
3996.36,0.09751
3990.57,0.09887
3984.79,0.09940
3979,0.10134
3973.22,0.10281
3967.43,0.10566
3961.64,0.10814
3955.86,0.11001
3950.07,0.11206
3944.28,0.11397
3938.5,0.11610
3932.71,0.11739
3926.93,0.11934
3921.14,0.12104
3915.35,0.12367
3909.57,0.12523
3903.78,0.12710
3897.99,0.12806
3892.21,0.12942
3886.42,0.13050
3880.64,0.13089
3874.85,0.13324
3869.06,0.13567
3863.28,0.13765
3857.49,0.14003
3851.7,0.14277
3845.92,0.14383
3840.13,0.14597
3834.35,0.14590
3828.56,0.14657
3822.77,0.14811
3816.99,0.14730
3811.2,0.14763
3805.41,0.14828
3799.63,0.14880
3793.84,0.14821
3788.06,0.14764
3782.27,0.14760
3776.48,0.14649
3770.7,0.14476
3764.91,0.14304
3759.12,0.14195
3753.34,0.14156
3747.55,0.14028
3741.77,0.13801
3735.98,0.13547
3730.19,0.13299
3724.41,0.12855
3718.62,0.12437
3712.83,0.11968
3707.05,0.11331
3701.26,0.10592
3695.48,0.09622
3689.69,0.08635
3683.9,0.07550
3678.12,0.06663
3672.33,0.06181
3666.54,0.05827
3660.76,0.05636
3654.97,0.05565
3649.19,0.05505
3643.4,0.05442
3637.61,0.05436
3631.83,0.05479
3626.04,0.05350
3620.25,0.05437
3614.47,0.05394
3608.68,0.05417
3602.9,0.05336
3597.11,0.05302
3591.32,0.05353
3585.54,0.05280
3579.75,0.05316
3573.97,0.05267
3568.18,0.05263
3562.39,0.05204
3556.61,0.05233
3550.82,0.05275
3545.03,0.05263
3539.25,0.05251
3533.46,0.05271
3527.68,0.05273
3521.89,0.05245
3516.1,0.05279
3510.32,0.05238
3504.53,0.05287
3498.74,0.05257
3492.96,0.05214
3487.17,0.05258
3481.39,0.05294
3475.6,0.05218
3469.81,0.05261
3464.03,0.05264
3458.24,0.05316
3452.45,0.05297
3446.67,0.05236
3440.88,0.05249
3435.1,0.05299
3429.31,0.05234
3423.52,0.05269
3417.74,0.05287
3411.95,0.05247
3406.16,0.05357
3400.38,0.05333
3394.59,0.05301
3388.81,0.05239
3383.02,0.05325
3377.23,0.05331
3371.45,0.05362
3365.66,0.05333
3359.87,0.05376
3354.09,0.05310
3348.3,0.05305
3342.52,0.05353
3336.73,0.05305
3330.94,0.05320
3325.16,0.05331
3319.37,0.05387
3313.58,0.05300
3307.8,0.05408
3302.01,0.05340
3296.23,0.05374
3290.44,0.05335
3284.65,0.05351
3278.87,0.05368
3273.08,0.05346
3267.29,0.05444
3261.51,0.05427
3255.72,0.05345
3249.94,0.05441
3244.15,0.05354
3238.36,0.05314
3232.58,0.05399
3226.79,0.05397
3221,0.05398
3215.22,0.05461
3209.43,0.05411
3203.65,0.05395
3197.86,0.05384
3192.07,0.05371
3186.29,0.05376
3180.5,0.05408
3174.71,0.05399
3168.93,0.05432
3163.14,0.05462
3157.36,0.05464
3151.57,0.05401
3145.78,0.05370
3140,0.05428
3134.21,0.05399
3128.42,0.05415
3122.64,0.05419
3116.85,0.05359
3111.07,0.05417
3105.28,0.05371
3099.49,0.05305
3093.71,0.05338
3087.92,0.05339
3082.14,0.05340
3076.35,0.05347
3070.56,0.05320
3064.78,0.05325
3058.99,0.05269
3053.2,0.05308
3047.42,0.05296
3041.63,0.05286
3035.85,0.05287
3030.06,0.05275
3024.27,0.05288
3018.49,0.05317
3012.7,0.05266
3006.91,0.05181
3001.13,0.05169
2995.34,0.05128
2989.56,0.05075
2983.77,0.05023
2977.98,0.05069
2972.2,0.05017
2966.41,0.05100
2960.62,0.05107
2954.84,0.05194
2949.05,0.05171
2943.27,0.05246
2937.48,0.05397
2931.69,0.05534
2925.91,0.05736
2920.12,0.05838
2914.33,0.05881
2908.55,0.05760
2902.76,0.05681
2896.98,0.05603
2891.19,0.05591
2885.4,0.05597
2879.62,0.05575
2873.83,0.05590
2868.04,0.05629
2862.26,0.05689
2856.47,0.05730
2850.69,0.05898
2844.9,0.05959
2839.11,0.05808
2833.33,0.05707
2827.54,0.05667
2821.75,0.05697
2815.97,0.05699
2810.18,0.05671
2804.4,0.05642
2798.61,0.05629
2792.82,0.05636
2787.04,0.05645
2781.25,0.05641
2775.46,0.05663
2769.68,0.05637
2763.89,0.05606
2758.11,0.05603
2752.32,0.05578
2746.53,0.05655
2740.75,0.05645
2734.96,0.05629
2729.17,0.05636
2723.39,0.05622
2717.6,0.05675
2711.82,0.05648
2706.03,0.05729
2700.24,0.05716
2694.46,0.05743
2688.67,0.05795
2682.88,0.05808
2677.1,0.05772
2671.31,0.05863
2665.53,0.05892
2659.74,0.05898
2653.95,0.05902
2648.17,0.05921
2642.38,0.05960
2636.59,0.06017
2630.81,0.05991
2625.02,0.06017
2619.24,0.06028
2613.45,0.06046
2607.66,0.06020
2601.88,0.06041
2596.09,0.06071
2590.3,0.06029
2584.52,0.06037
2578.73,0.06034
2572.95,0.06094
2567.16,0.06111
2561.37,0.06087
2555.59,0.06076
2549.8,0.06103
2544.02,0.06111
2538.23,0.06120
2532.44,0.06121
2526.66,0.06175
2520.87,0.06208
2515.08,0.06281
2509.3,0.06324
2503.51,0.06328
2497.73,0.06343
2491.94,0.06339
2486.15,0.06369
2480.37,0.06433
2474.58,0.06459
2468.79,0.06510
2463.01,0.06560
2457.22,0.06620
2451.44,0.06617
2445.65,0.06593
2439.86,0.06628
2434.08,0.06618
2428.29,0.06619
2422.5,0.06637
2416.72,0.06657
2410.93,0.06749
2405.15,0.06805
2399.36,0.06778
2393.57,0.06820
2387.79,0.06872
2382,0.06862
2376.21,0.06855
2370.43,0.06860
2364.64,0.06876
2358.86,0.06872
2353.07,0.06877
2347.28,0.06852
2341.5,0.06876
2335.71,0.06859
2329.92,0.06864
2324.14,0.06905
2318.35,0.06984
2312.57,0.07073
2306.78,0.07103
2300.99,0.07136
2295.21,0.07180
2289.42,0.07256
2283.63,0.07300
2277.85,0.07311
2272.06,0.07358
2266.28,0.07375
2260.49,0.07437
2254.7,0.07445
2248.92,0.07478
2243.13,0.07474
2237.34,0.07473
2231.56,0.07486
2225.77,0.07486
2219.99,0.07496
2214.2,0.07526
2208.41,0.07508
2202.63,0.07500
2196.84,0.07435
2191.05,0.07395
2185.27,0.07336
2179.48,0.07296
2173.7,0.07187
2167.91,0.07101
2162.12,0.06991
2156.34,0.06852
2150.55,0.06783
2144.76,0.06664
2138.98,0.06555
2133.19,0.06507
2127.41,0.06483
2121.62,0.06400
2115.83,0.06351
2110.05,0.06287
2104.26,0.06254
2098.47,0.06208
2092.69,0.06162
2086.9,0.06150
2081.12,0.06117
2075.33,0.06112
2069.54,0.06069
2063.76,0.06108
2057.97,0.06143
2052.19,0.06156
2046.4,0.06220
2040.61,0.06151
2034.83,0.06149
2029.04,0.06079
2023.25,0.06045
2017.47,0.06041
2011.68,0.06074
2005.9,0.06022
2000.11,0.05998
1994.32,0.05959
1988.54,0.05954
1982.75,0.05969
1976.96,0.05982
1971.18,0.05965
1965.39,0.05907
1959.61,0.05885
1953.82,0.05856
1948.03,0.05915
1942.25,0.06006
1936.46,0.06060
1930.67,0.06061
1924.89,0.06096
1919.1,0.06046
1913.32,0.06049
1907.53,0.05945
1901.74,0.05849
1895.96,0.05740
1890.17,0.05702
1884.38,0.05645
1878.6,0.05654
1872.81,0.05617
1867.03,0.05572
1861.24,0.05506
1855.45,0.05485
1849.67,0.05408
1843.88,0.05328
1838.09,0.05267
1832.31,0.05145
1826.52,0.05021
1820.74,0.04923
1814.95,0.04816
1809.16,0.04728
1803.38,0.04610
1797.59,0.04560
1791.8,0.04478
1786.02,0.04444
1780.23,0.04355
1774.45,0.04243
1768.66,0.04075
1762.87,0.03912
1757.09,0.03662
1751.3,0.03388
1745.51,0.03285
1739.73,0.03789
1733.94,0.04909
1728.16,0.05989
1722.37,0.06759
1716.58,0.07004
1710.8,0.06792
1705.01,0.06564
1699.22,0.06274
1693.44,0.06091
1687.65,0.06010
1681.87,0.05900
1676.08,0.05884
1670.29,0.05824
1664.51,0.05758
1658.72,0.05743
1652.93,0.05750
1647.15,0.05721
1641.36,0.05636
1635.58,0.05585
1629.79,0.05608
1624,0.05555
1618.22,0.05540
1612.43,0.05515
1606.64,0.05555
1600.86,0.05547
1595.07,0.05499
1589.29,0.05463
1583.5,0.05455
1577.71,0.05440
1571.93,0.05350
1566.14,0.05327
1560.35,0.05338
1554.57,0.05304
1548.78,0.05263
1543,0.05244
1537.21,0.05238
1531.42,0.05149
1525.64,0.05117
1519.85,0.05002
1514.07,0.04952
1508.28,0.05071
1502.49,0.05187
1496.71,0.05138
1490.92,0.05036
1485.13,0.04899
1479.35,0.04745
1473.56,0.04720
1467.78,0.04765
1461.99,0.04826
1456.2,0.04878
1450.42,0.04943
1444.63,0.05027
1438.84,0.05047
1433.06,0.05062
1427.27,0.05004
1421.49,0.04902
1415.7,0.04795
1409.91,0.04848
1404.13,0.04897
1398.34,0.04872
1392.55,0.04864
1386.77,0.04871
1380.98,0.04878
1375.2,0.04878
1369.41,0.04863
1363.62,0.04861
1357.84,0.04840
1352.05,0.04787
1346.26,0.04717
1340.48,0.04681
1334.69,0.04588
1328.91,0.04540
1323.12,0.04488
1317.33,0.04407
1311.55,0.04334
1305.76,0.04281
1299.97,0.04239
1294.19,0.04307
1288.4,0.04267
1282.62,0.04204
1276.83,0.04193
1271.04,0.04218
1265.26,0.04276
1259.47,0.04349
1253.68,0.04421
1247.9,0.04571
1242.11,0.04672
1236.33,0.04724
1230.54,0.04781
1224.75,0.04813
1218.97,0.04827
1213.18,0.04744
1207.39,0.04756
1201.61,0.04801
1195.82,0.04937
1190.04,0.05060
1184.25,0.05268
1178.46,0.05493
1172.68,0.05635
1166.89,0.05971
1161.1,0.06299
1155.32,0.06526
1149.53,0.06691
1143.75,0.06685
1137.96,0.06555
1132.17,0.06505
1126.39,0.06539
1120.6,0.06731
1114.81,0.06913
1109.03,0.07108
1103.24,0.07342
1097.46,0.07467
1091.67,0.07638
1085.88,0.07714
1080.1,0.07839
1074.31,0.07978
1068.52,0.08088
1062.74,0.08184
1056.95,0.08234
1051.17,0.08140
1045.38,0.08188
1039.59,0.08190
1033.81,0.08159
1028.02,0.08086
1022.24,0.08071
1016.45,0.07890
1010.66,0.07846
1004.88,0.07750
999.09,0.07541
993.304,0.07498
987.518,0.07476
981.731,0.07509
975.945,0.07493
970.159,0.07473
964.373,0.07427
958.586,0.07447
952.8,0.07403
947.014,0.07329
941.228,0.07318
935.441,0.07256
929.655,0.07228
923.869,0.07184
918.083,0.07127
912.297,0.07059
906.51,0.07089
900.724,0.07063
894.938,0.07033
889.152,0.07039
883.365,0.07041
877.579,0.06952
871.793,0.06963
866.007,0.06879
860.22,0.06829
854.434,0.06825
848.648,0.06726
842.862,0.06597
837.075,0.06554
831.289,0.06665
825.503,0.06659
819.717,0.06583
813.931,0.06623
808.144,0.06763
802.358,0.06921
796.572,0.06868
790.786,0.06836
784.999,0.06817
779.213,0.06870
773.427,0.06891
767.641,0.06790
761.854,0.06826
756.068,0.06806
750.282,0.06728
744.496,0.06780
738.709,0.06697
732.923,0.06814
727.137,0.06949
721.351,0.07048
715.565,0.06926
709.778,0.06824
703.992,0.06657
698.206,0.06792
692.42,0.06859
686.633,0.07238
680.847,0.07370
675.061,0.07368
669.275,0.07288
663.488,0.07149
657.702,0.07008
651.916,0.06743
646.13,0.06846
640.343,0.06785
634.557,0.06484
628.771,0.06501
622.985,0.06521
617.198,0.06393
611.412,0.06382
605.626,0.06612
599.84,0.06513