File: 01_Data/Eucalyptus_Flooring/FTIR/IS/Eucalyptus_Flooring_IS_S_220908_R2.dpt
7497.03,0.78369
7491.25,0.78258
7485.46,0.78212
7479.67,0.77242
7473.89,0.77248
7468.1,0.76925
7462.32,0.76598
7456.53,0.76108
7450.74,0.75191
7444.96,0.74772
7439.17,0.74838
7433.38,0.74209
7427.6,0.75330
7421.81,0.73507
7416.03,0.73961
7410.24,0.71944
7404.45,0.71779
7398.67,0.71195
7392.88,0.71408
7387.09,0.70816
7381.31,0.70817
7375.52,0.70033
7369.74,0.69657
7363.95,0.69914
7358.16,0.68910
7352.38,0.69687
7346.59,0.69566
7340.8,0.68000
7335.02,0.67948
7329.23,0.68115
7323.45,0.67653
7317.66,0.67076
7311.87,0.67185
7306.09,0.66531
7300.3,0.66689
7294.51,0.65338
7288.73,0.65363
7282.94,0.65619
7277.16,0.65553
7271.37,0.65871
7265.58,0.65348
7259.8,0.66028
7254.01,0.64882
7248.22,0.64741
7242.44,0.64247
7236.65,0.64507
7230.87,0.64195
7225.08,0.64471
7219.29,0.64091
7213.51,0.63152
7207.72,0.62965
7201.93,0.63110
7196.15,0.63062
7190.36,0.62398
7184.58,0.59244
7178.79,0.61872
7173,0.61719
7167.22,0.61412
7161.43,0.61230
7155.65,0.60628
7149.86,0.60364
7144.07,0.59367
7138.29,0.58931
7132.5,0.59172
7126.71,0.58219
7120.93,0.57370
7115.14,0.56293
7109.36,0.56106
7103.57,0.55823
7097.78,0.55895
7092,0.54130
7086.21,0.53422
7080.42,0.52835
7074.64,0.52554
7068.85,0.51608
7063.07,0.50623
7057.28,0.50889
7051.49,0.49751
7045.71,0.49149
7039.92,0.49105
7034.13,0.48224
7028.35,0.47506
7022.56,0.47032
7016.78,0.47265
7010.99,0.46293
7005.2,0.46263
6999.42,0.45729
6993.63,0.45840
6987.84,0.46098
6982.06,0.44962
6976.27,0.44538
6970.49,0.45107
6964.7,0.45062
6958.91,0.45009
6953.13,0.44336
6947.34,0.44597
6941.55,0.44985
6935.77,0.44989
6929.98,0.44582
6924.2,0.45238
6918.41,0.44621
6912.62,0.44686
6906.84,0.44773
6901.05,0.44652
6895.26,0.44359
6889.48,0.45208
6883.69,0.45074
6877.91,0.44696
6872.12,0.45535
6866.33,0.45040
6860.55,0.45467
6854.76,0.45531
6848.97,0.45379
6843.19,0.45757
6837.4,0.45463
6831.62,0.45392
6825.83,0.45442
6820.04,0.45479
6814.26,0.45969
6808.47,0.45787
6802.68,0.45811
6796.9,0.45571
6791.11,0.46288
6785.33,0.46118
6779.54,0.46385
6773.75,0.47041
6767.97,0.46658
6762.18,0.46850
6756.39,0.46890
6750.61,0.47257
6744.82,0.47300
6739.04,0.47258
6733.25,0.47666
6727.46,0.47558
6721.68,0.47646
6715.89,0.47578
6710.1,0.48029
6704.32,0.48145
6698.53,0.48563
6692.75,0.48556
6686.96,0.48876
6681.17,0.48759
6675.39,0.49164
6669.6,0.49034
6663.82,0.49067
6658.03,0.49845
6652.24,0.49779
6646.46,0.50389
6640.67,0.50430
6634.88,0.50836
6629.1,0.50028
6623.31,0.50267
6617.53,0.50444
6611.74,0.51212
6605.95,0.51137
6600.17,0.51135
6594.38,0.51506
6588.59,0.51793
6582.81,0.51760
6577.02,0.51560
6571.24,0.51844
6565.45,0.51883
6559.66,0.52356
6553.88,0.52122
6548.09,0.52273
6542.3,0.52176
6536.52,0.52165
6530.73,0.52401
6524.95,0.52263
6519.16,0.52348
6513.37,0.52750
6507.59,0.52831
6501.8,0.52485
6496.01,0.52768
6490.23,0.52752
6484.44,0.52504
6478.66,0.52977
6472.87,0.52814
6467.08,0.52933
6461.3,0.53280
6455.51,0.53061
6449.72,0.53219
6443.94,0.53000
6438.15,0.52662
6432.37,0.53159
6426.58,0.53392
6420.79,0.53132
6415.01,0.53238
6409.22,0.53454
6403.43,0.53190
6397.65,0.53441
6391.86,0.53572
6386.08,0.53524
6380.29,0.53760
6374.5,0.53756
6368.72,0.53829
6362.93,0.53896
6357.14,0.54248
6351.36,0.53956
6345.57,0.54141
6339.79,0.54671
6334,0.53810
6328.21,0.54241
6322.43,0.54400
6316.64,0.54809
6310.85,0.54800
6305.07,0.54422
6299.28,0.54377
6293.5,0.54744
6287.71,0.55236
6281.92,0.55136
6276.14,0.55463
6270.35,0.55522
6264.56,0.55392
6258.78,0.55444
6252.99,0.55534
6247.21,0.55759
6241.42,0.55911
6235.63,0.56081
6229.85,0.56341
6224.06,0.56538
6218.27,0.56725
6212.49,0.56628
6206.7,0.56316
6200.92,0.56392
6195.13,0.56307
6189.34,0.56137
6183.56,0.55489
6177.77,0.55628
6171.98,0.55172
6166.2,0.54731
6160.41,0.54979
6154.63,0.55813
6148.84,0.55716
6143.05,0.55918
6137.27,0.55971
6131.48,0.56334
6125.7,0.56149
6119.91,0.56258
6114.12,0.56122
6108.34,0.56104
6102.55,0.56081
6096.76,0.55903
6090.98,0.55246
6085.19,0.54867
6079.41,0.54373
6073.62,0.53892
6067.83,0.53253
6062.05,0.52442
6056.26,0.51759
6050.47,0.50808
6044.69,0.49699
6038.9,0.48588
6033.12,0.47438
6027.33,0.46316
6021.54,0.45250
6015.76,0.44365
6009.97,0.43352
6004.18,0.42563
5998.4,0.41907
5992.61,0.41205
5986.83,0.40669
5981.04,0.40526
5975.25,0.40275
5969.47,0.40072
5963.68,0.39809
5957.89,0.39741
5952.11,0.39537
5946.32,0.39637
5940.54,0.39398
5934.75,0.39592
5928.96,0.39191
5923.18,0.39282
5917.39,0.39093
5911.6,0.39002
5905.82,0.38910
5900.03,0.38647
5894.25,0.38539
5888.46,0.38849
5882.67,0.38546
5876.89,0.38679
5871.1,0.38377
5865.31,0.38335
5859.53,0.38494
5853.74,0.38304
5847.96,0.38126
5842.17,0.37977
5836.38,0.37803
5830.6,0.37499
5824.81,0.37106
5819.02,0.36998
5813.24,0.36676
5807.45,0.36535
5801.67,0.36614
5795.88,0.36623
5790.09,0.36570
5784.31,0.37007
5778.52,0.37223
5772.73,0.37624
5766.95,0.38140
5761.16,0.38612
5755.38,0.38923
5749.59,0.39066
5743.8,0.39676
5738.02,0.39855
5732.23,0.40168
5726.44,0.40582
5720.66,0.41134
5714.87,0.41455
5709.09,0.41805
5703.3,0.41889
5697.51,0.42184
5691.73,0.42392
5685.94,0.42401
5680.15,0.42368
5674.37,0.42628
5668.58,0.42788
5662.8,0.42895
5657.01,0.42943
5651.22,0.43149
5645.44,0.43657
5639.65,0.43826
5633.87,0.43856
5628.08,0.44061
5622.29,0.44333
5616.51,0.44476
5610.72,0.44615
5604.93,0.44775
5599.15,0.44728
5593.36,0.44642
5587.58,0.44747
5581.79,0.44753
5576,0.45021
5570.22,0.45361
5564.43,0.45411
5558.64,0.45439
5552.86,0.45504
5547.07,0.45459
5541.29,0.45653
5535.5,0.45875
5529.71,0.45941
5523.93,0.46249
5518.14,0.46293
5512.35,0.46393
5506.57,0.46679
5500.78,0.46743
5495,0.47031
5489.21,0.46927
5483.42,0.47275
5477.64,0.47178
5471.85,0.47335
5466.06,0.47489
5460.28,0.47476
5454.49,0.47806
5448.71,0.48191
5442.92,0.48419
5437.13,0.48421
5431.35,0.48734
5425.56,0.48840
5419.77,0.49032
5413.99,0.49102
5408.2,0.49242
5402.42,0.49574
5396.63,0.49719
5390.84,0.49749
5385.06,0.49419
5379.27,0.49431
5373.48,0.49537
5367.7,0.49426
5361.91,0.49429
5356.13,0.49320
5350.34,0.48961
5344.55,0.48746
5338.77,0.48693
5332.98,0.48308
5327.19,0.47625
5321.41,0.46888
5315.62,0.46266
5309.84,0.45542
5304.05,0.44490
5298.26,0.43161
5292.48,0.41680
5286.69,0.39982
5280.9,0.38288
5275.12,0.36354
5269.33,0.34582
5263.55,0.32814
5257.76,0.31320
5251.97,0.30147
5246.19,0.29032
5240.4,0.28202
5234.61,0.27519
5228.83,0.27279
5223.04,0.26787
5217.26,0.26570
5211.47,0.26548
5205.68,0.26576
5199.9,0.26628
5194.11,0.26847
5188.32,0.26981
5182.54,0.27224
5176.75,0.27676
5170.97,0.28018
5165.18,0.28338
5159.39,0.28552
5153.61,0.28986
5147.82,0.29450
5142.03,0.29762
5136.25,0.30150
5130.46,0.30529
5124.68,0.30999
5118.89,0.31407
5113.1,0.31912
5107.32,0.32456
5101.53,0.33013
5095.75,0.33498
5089.96,0.33914
5084.17,0.34215
5078.39,0.34665
5072.6,0.35122
5066.81,0.35567
5061.03,0.35892
5055.24,0.36217
5049.46,0.36489
5043.67,0.36913
5037.88,0.37141
5032.1,0.37416
5026.31,0.37552
5020.52,0.37884
5014.74,0.38052
5008.95,0.38071
5003.17,0.38106
4997.38,0.38186
4991.59,0.38054
4985.81,0.37897
4980.02,0.37656
4974.23,0.37392
4968.45,0.37115
4962.66,0.36761
4956.88,0.36293
4951.09,0.35817
4945.3,0.35372
4939.52,0.34730
4933.73,0.34274
4927.94,0.33764
4922.16,0.33107
4916.37,0.32547
4910.59,0.32020
4904.8,0.31500
4899.01,0.31136
4893.23,0.30687
4887.44,0.30365
4881.65,0.29914
4875.87,0.29621
4870.08,0.29309
4864.3,0.28977
4858.51,0.28705
4852.72,0.28501
4846.94,0.28071
4841.15,0.27769
4835.36,0.27572
4829.58,0.27152
4823.79,0.27033
4818.01,0.26682
4812.22,0.26428
4806.43,0.26342
4800.65,0.26156
4794.86,0.25996
4789.07,0.25911
4783.29,0.25827
4777.5,0.25773
4771.72,0.25712
4765.93,0.25569
4760.14,0.25357
4754.36,0.25142
4748.57,0.24700
4742.78,0.24454
4737,0.24207
4731.21,0.24047
4725.43,0.23945
4719.64,0.24014
4713.85,0.23787
4708.07,0.23549
4702.28,0.23311
4696.49,0.22920
4690.71,0.22522
4684.92,0.22073
4679.14,0.21901
4673.35,0.21946
4667.56,0.22224
4661.78,0.22774
4655.99,0.23412
4650.2,0.23819
4644.42,0.24096
4638.63,0.24058
4632.85,0.23842
4627.06,0.23696
4621.27,0.23818
4615.49,0.24361
4609.7,0.25133
4603.92,0.26049
4598.13,0.26751
4592.34,0.27233
4586.56,0.27392
4580.77,0.27517
4574.98,0.27446
4569.2,0.27462
4563.41,0.27568
4557.63,0.27947
4551.84,0.28195
4546.05,0.28441
4540.27,0.28494
4534.48,0.28347
4528.69,0.28137
4522.91,0.27953
4517.12,0.27472
4511.34,0.27033
4505.55,0.26430
4499.76,0.25786
4493.98,0.25120
4488.19,0.24374
4482.4,0.23545
4476.62,0.22565
4470.83,0.21372
4465.05,0.19866
4459.26,0.18316
4453.47,0.16638
4447.69,0.15020
4441.9,0.13613
4436.11,0.12466
4430.33,0.11651
4424.54,0.11164
4418.76,0.10866
4412.97,0.10771
4407.18,0.10845
4401.4,0.10947
4395.61,0.10937
4389.82,0.10896
4384.04,0.10802
4378.25,0.10702
4372.47,0.10321
4366.68,0.10139
4360.89,0.09972
4355.11,0.09882
4349.32,0.09932
4343.53,0.09936
4337.75,0.10069
4331.96,0.10167
4326.18,0.10267
4320.39,0.10299
4314.6,0.10597
4308.82,0.10687
4303.03,0.10879
4297.24,0.10902
4291.46,0.10904
4285.67,0.10892
4279.89,0.10915
4274.1,0.11006
4268.31,0.11124
4262.53,0.11144
4256.74,0.11243
4250.95,0.11335
4245.17,0.11489
4239.38,0.11522
4233.6,0.11567
4227.81,0.11692
4222.02,0.11790
4216.24,0.11919
4210.45,0.12077
4204.66,0.12223
4198.88,0.12267
4193.09,0.12263
4187.31,0.12227
4181.52,0.12258
4175.73,0.12228
4169.95,0.12103
4164.16,0.12066
4158.37,0.12050
4152.59,0.12117
4146.8,0.12041
4141.02,0.11859
4135.23,0.11870
4129.44,0.11858
4123.66,0.11859
4117.87,0.11701
4112.09,0.11583
4106.3,0.11331
4100.51,0.11183
4094.73,0.10900
4088.94,0.10561
4083.15,0.10183
4077.37,0.09892
4071.58,0.09538
4065.8,0.09267
4060.01,0.09245
4054.22,0.09220
4048.44,0.09320
4042.65,0.09390
4036.86,0.09418
4031.08,0.09461
4025.29,0.09455
4019.51,0.09385
4013.72,0.09540
4007.93,0.09613
4002.15,0.09675
3996.36,0.09789
3990.57,0.09801
3984.79,0.09903
3979,0.10136
3973.22,0.10255
3967.43,0.10504
3961.64,0.10812
3955.86,0.10913
3950.07,0.11168
3944.28,0.11385
3938.5,0.11550
3932.71,0.11707
3926.93,0.11907
3921.14,0.12059
3915.35,0.12246
3909.57,0.12437
3903.78,0.12621
3897.99,0.12797
3892.21,0.12807
3886.42,0.13054
3880.64,0.13062
3874.85,0.13236
3869.06,0.13398
3863.28,0.13748
3857.49,0.13972
3851.7,0.14177
3845.92,0.14302
3840.13,0.14510
3834.35,0.14643
3828.56,0.14635
3822.77,0.14722
3816.99,0.14691
3811.2,0.14727
3805.41,0.14773
3799.63,0.14729
3793.84,0.14747
3788.06,0.14742
3782.27,0.14663
3776.48,0.14547
3770.7,0.14353
3764.91,0.14202
3759.12,0.14076
3753.34,0.14062
3747.55,0.13905
3741.77,0.13757
3735.98,0.13483
3730.19,0.13159
3724.41,0.12840
3718.62,0.12402
3712.83,0.11897
3707.05,0.11260
3701.26,0.10502
3695.48,0.09545
3689.69,0.08581
3683.9,0.07480
3678.12,0.06563
3672.33,0.06104
3666.54,0.05817
3660.76,0.05662
3654.97,0.05521
3649.19,0.05552
3643.4,0.05435
3637.61,0.05430
3631.83,0.05419
3626.04,0.05430
3620.25,0.05420
3614.47,0.05391
3608.68,0.05327
3602.9,0.05365
3597.11,0.05343
3591.32,0.05316
3585.54,0.05361
3579.75,0.05300
3573.97,0.05283
3568.18,0.05272
3562.39,0.05253
3556.61,0.05239
3550.82,0.05278
3545.03,0.05252
3539.25,0.05213
3533.46,0.05235
3527.68,0.05246
3521.89,0.05236
3516.1,0.05209
3510.32,0.05223
3504.53,0.05208
3498.74,0.05164
3492.96,0.05255
3487.17,0.05276
3481.39,0.05267
3475.6,0.05230
3469.81,0.05263
3464.03,0.05257
3458.24,0.05208
3452.45,0.05262
3446.67,0.05338
3440.88,0.05264
3435.1,0.05325
3429.31,0.05292
3423.52,0.05314
3417.74,0.05264
3411.95,0.05272
3406.16,0.05301
3400.38,0.05331
3394.59,0.05284
3388.81,0.05330
3383.02,0.05311
3377.23,0.05288
3371.45,0.05288
3365.66,0.05325
3359.87,0.05349
3354.09,0.05310
3348.3,0.05323
3342.52,0.05349
3336.73,0.05345
3330.94,0.05300
3325.16,0.05340
3319.37,0.05375
3313.58,0.05308
3307.8,0.05356
3302.01,0.05329
3296.23,0.05333
3290.44,0.05336
3284.65,0.05419
3278.87,0.05345
3273.08,0.05429
3267.29,0.05372
3261.51,0.05372
3255.72,0.05363
3249.94,0.05374
3244.15,0.05351
3238.36,0.05437
3232.58,0.05396
3226.79,0.05473
3221,0.05407
3215.22,0.05352
3209.43,0.05368
3203.65,0.05425
3197.86,0.05345
3192.07,0.05403
3186.29,0.05387
3180.5,0.05390
3174.71,0.05394
3168.93,0.05416
3163.14,0.05417
3157.36,0.05355
3151.57,0.05423
3145.78,0.05416
3140,0.05370
3134.21,0.05355
3128.42,0.05366
3122.64,0.05335
3116.85,0.05383
3111.07,0.05387
3105.28,0.05368
3099.49,0.05344
3093.71,0.05354
3087.92,0.05346
3082.14,0.05369
3076.35,0.05333
3070.56,0.05318
3064.78,0.05315
3058.99,0.05313
3053.2,0.05283
3047.42,0.05293
3041.63,0.05288
3035.85,0.05289
3030.06,0.05253
3024.27,0.05244
3018.49,0.05193
3012.7,0.05204
3006.91,0.05169
3001.13,0.05141
2995.34,0.05095
2989.56,0.05097
2983.77,0.05075
2977.98,0.05037
2972.2,0.05075
2966.41,0.05112
2960.62,0.05178
2954.84,0.05191
2949.05,0.05233
2943.27,0.05230
2937.48,0.05337
2931.69,0.05459
2925.91,0.05670
2920.12,0.05847
2914.33,0.05843
2908.55,0.05741
2902.76,0.05694
2896.98,0.05641
2891.19,0.05632
2885.4,0.05550
2879.62,0.05577
2873.83,0.05597
2868.04,0.05561
2862.26,0.05630
2856.47,0.05781
2850.69,0.05925
2844.9,0.05898
2839.11,0.05775
2833.33,0.05764
2827.54,0.05685
2821.75,0.05672
2815.97,0.05636
2810.18,0.05582
2804.4,0.05647
2798.61,0.05644
2792.82,0.05644
2787.04,0.05628
2781.25,0.05627
2775.46,0.05591
2769.68,0.05574
2763.89,0.05625
2758.11,0.05592
2752.32,0.05628
2746.53,0.05587
2740.75,0.05595
2734.96,0.05652
2729.17,0.05598
2723.39,0.05629
2717.6,0.05654
2711.82,0.05650
2706.03,0.05658
2700.24,0.05735
2694.46,0.05740
2688.67,0.05773
2682.88,0.05778
2677.1,0.05843
2671.31,0.05847
2665.53,0.05859
2659.74,0.05877
2653.95,0.05918
2648.17,0.05888
2642.38,0.05945
2636.59,0.05982
2630.81,0.05967
2625.02,0.06009
2619.24,0.06042
2613.45,0.05996
2607.66,0.06056
2601.88,0.06008
2596.09,0.06023
2590.3,0.06051
2584.52,0.06072
2578.73,0.06064
2572.95,0.06083
2567.16,0.06078
2561.37,0.06087
2555.59,0.06083
2549.8,0.06088
2544.02,0.06054
2538.23,0.06086
2532.44,0.06147
2526.66,0.06160
2520.87,0.06228
2515.08,0.06274
2509.3,0.06277
2503.51,0.06320
2497.73,0.06302
2491.94,0.06306
2486.15,0.06372
2480.37,0.06421
2474.58,0.06427
2468.79,0.06493
2463.01,0.06553
2457.22,0.06588
2451.44,0.06610
2445.65,0.06633
2439.86,0.06614
2434.08,0.06627
2428.29,0.06597
2422.5,0.06631
2416.72,0.06693
2410.93,0.06711
2405.15,0.06758
2399.36,0.06784
2393.57,0.06768
2387.79,0.06811
2382,0.06839
2376.21,0.06818
2370.43,0.06874
2364.64,0.06870
2358.86,0.06870
2353.07,0.06865
2347.28,0.06894
2341.5,0.06849
2335.71,0.06858
2329.92,0.06881
2324.14,0.06930
2318.35,0.06973
2312.57,0.07058
2306.78,0.07077
2300.99,0.07123
2295.21,0.07190
2289.42,0.07232
2283.63,0.07275
2277.85,0.07319
2272.06,0.07354
2266.28,0.07410
2260.49,0.07412
2254.7,0.07437
2248.92,0.07452
2243.13,0.07447
2237.34,0.07432
2231.56,0.07437
2225.77,0.07435
2219.99,0.07468
2214.2,0.07481
2208.41,0.07496
2202.63,0.07480
2196.84,0.07404
2191.05,0.07397
2185.27,0.07310
2179.48,0.07272
2173.7,0.07169
2167.91,0.07044
2162.12,0.06950
2156.34,0.06886
2150.55,0.06768
2144.76,0.06660
2138.98,0.06547
2133.19,0.06499
2127.41,0.06447
2121.62,0.06373
2115.83,0.06310
2110.05,0.06274
2104.26,0.06239
2098.47,0.06209
2092.69,0.06171
2086.9,0.06144
2081.12,0.06099
2075.33,0.06062
2069.54,0.06053
2063.76,0.06142
2057.97,0.06129
2052.19,0.06138
2046.4,0.06190
2040.61,0.06188
2034.83,0.06153
2029.04,0.06109
2023.25,0.06072
2017.47,0.06032
2011.68,0.06013
2005.9,0.05997
2000.11,0.06019
1994.32,0.05967
1988.54,0.05998
1982.75,0.05976
1976.96,0.05940
1971.18,0.05927
1965.39,0.05894
1959.61,0.05896
1953.82,0.05863
1948.03,0.05899
1942.25,0.05921
1936.46,0.05986
1930.67,0.06031
1924.89,0.06065
1919.1,0.06028
1913.32,0.05981
1907.53,0.05923
1901.74,0.05860
1895.96,0.05751
1890.17,0.05657
1884.38,0.05651
1878.6,0.05615
1872.81,0.05586
1867.03,0.05554
1861.24,0.05531
1855.45,0.05448
1849.67,0.05428
1843.88,0.05343
1838.09,0.05251
1832.31,0.05163
1826.52,0.05026
1820.74,0.04920
1814.95,0.04827
1809.16,0.04732
1803.38,0.04660
1797.59,0.04579
1791.8,0.04471
1786.02,0.04392
1780.23,0.04336
1774.45,0.04234
1768.66,0.04098
1762.87,0.03921
1757.09,0.03656
1751.3,0.03361
1745.51,0.03255
1739.73,0.03764
1733.94,0.04868
1728.16,0.05986
1722.37,0.06721
1716.58,0.06991
1710.8,0.06823
1705.01,0.06549
1699.22,0.06301
1693.44,0.06112
1687.65,0.06009
1681.87,0.05928
1676.08,0.05821
1670.29,0.05804
1664.51,0.05761
1658.72,0.05741
1652.93,0.05745
1647.15,0.05701
1641.36,0.05626
1635.58,0.05641
1629.79,0.05598
1624,0.05536
1618.22,0.05499
1612.43,0.05502
1606.64,0.05518
1600.86,0.05555
1595.07,0.05517
1589.29,0.05498
1583.5,0.05427
1577.71,0.05378
1571.93,0.05342
1566.14,0.05327
1560.35,0.05337
1554.57,0.05282
1548.78,0.05250
1543,0.05250
1537.21,0.05196
1531.42,0.05174
1525.64,0.05088
1519.85,0.04970
1514.07,0.04932
1508.28,0.05125
1502.49,0.05171
1496.71,0.05115
1490.92,0.05049
1485.13,0.04877
1479.35,0.04743
1473.56,0.04724
1467.78,0.04765
1461.99,0.04828
1456.2,0.04894
1450.42,0.04954
1444.63,0.05026
1438.84,0.05076
1433.06,0.05065
1427.27,0.04973
1421.49,0.04895
1415.7,0.04801
1409.91,0.04842
1404.13,0.04920
1398.34,0.04805
1392.55,0.04836
1386.77,0.04896
1380.98,0.04895
1375.2,0.04907
1369.41,0.04884
1363.62,0.04880
1357.84,0.04846
1352.05,0.04787
1346.26,0.04712
1340.48,0.04646
1334.69,0.04612
1328.91,0.04548
1323.12,0.04494
1317.33,0.04387
1311.55,0.04342
1305.76,0.04284
1299.97,0.04246
1294.19,0.04304
1288.4,0.04249
1282.62,0.04151
1276.83,0.04159
1271.04,0.04204
1265.26,0.04309
1259.47,0.04347
1253.68,0.04402
1247.9,0.04580
1242.11,0.04646
1236.33,0.04730
1230.54,0.04769
1224.75,0.04810
1218.97,0.04766
1213.18,0.04735
1207.39,0.04755
1201.61,0.04823
1195.82,0.04907
1190.04,0.05006
1184.25,0.05261
1178.46,0.05441
1172.68,0.05611
1166.89,0.05897
1161.1,0.06214
1155.32,0.06526
1149.53,0.06693
1143.75,0.06655
1137.96,0.06578
1132.17,0.06546
1126.39,0.06540
1120.6,0.06665
1114.81,0.06893
1109.03,0.07161
1103.24,0.07384
1097.46,0.07533
1091.67,0.07636
1085.88,0.07750
1080.1,0.07766
1074.31,0.07944
1068.52,0.08066
1062.74,0.08161
1056.95,0.08267
1051.17,0.08077
1045.38,0.08164
1039.59,0.08161
1033.81,0.08231
1028.02,0.08120
1022.24,0.08016
1016.45,0.07932
1010.66,0.07807
1004.88,0.07648
999.09,0.07525
993.304,0.07416
987.518,0.07386
981.731,0.07456
975.945,0.07438
970.159,0.07437
964.373,0.07480
958.586,0.07434
952.8,0.07401
947.014,0.07296
941.228,0.07259
935.441,0.07246
929.655,0.07151
923.869,0.07119
918.083,0.07135
912.297,0.07079
906.51,0.07089
900.724,0.07067
894.938,0.07070
889.152,0.07022
883.365,0.06975
877.579,0.06970
871.793,0.06959
866.007,0.06881
860.22,0.06806
854.434,0.06729
848.648,0.06683
842.862,0.06542
837.075,0.06456
831.289,0.06561
825.503,0.06666
819.717,0.06585
813.931,0.06628
808.144,0.06693
802.358,0.06795
796.572,0.06872
790.786,0.06843
784.999,0.06857
779.213,0.06930
773.427,0.06870
767.641,0.06842
761.854,0.06841
756.068,0.06831
750.282,0.06784
744.496,0.06783
738.709,0.06766
732.923,0.06823
727.137,0.06959
721.351,0.06943
715.565,0.06818
709.778,0.06827
703.992,0.06801
698.206,0.06848
692.42,0.07043
686.633,0.07216
680.847,0.07322
675.061,0.07358
669.275,0.07287
663.488,0.07226
657.702,0.06968
651.916,0.06812
646.13,0.06871
640.343,0.06696
634.557,0.06489
628.771,0.06293
622.985,0.06330
617.198,0.06729
611.412,0.06885
605.626,0.06682
599.84,0.06425