File: 01_Data/Eucalyptus_Flooring/FTIR/IS/Eucalyptus_Flooring_IS_S_220908_R8.dpt
7497.03,0.79324
7491.25,0.79435
7485.46,0.78906
7479.67,0.79009
7473.89,0.78434
7468.1,0.76346
7462.32,0.76911
7456.53,0.75479
7450.74,0.76336
7444.96,0.75627
7439.17,0.74882
7433.38,0.74532
7427.6,0.74998
7421.81,0.74852
7416.03,0.73644
7410.24,0.72370
7404.45,0.71763
7398.67,0.71368
7392.88,0.70710
7387.09,0.70827
7381.31,0.70521
7375.52,0.70779
7369.74,0.70344
7363.95,0.69776
7358.16,0.69090
7352.38,0.70254
7346.59,0.68477
7340.8,0.69464
7335.02,0.68491
7329.23,0.67674
7323.45,0.67704
7317.66,0.67102
7311.87,0.66646
7306.09,0.66623
7300.3,0.66884
7294.51,0.66045
7288.73,0.65816
7282.94,0.65247
7277.16,0.65529
7271.37,0.66891
7265.58,0.65874
7259.8,0.66301
7254.01,0.65711
7248.22,0.65422
7242.44,0.64741
7236.65,0.65482
7230.87,0.65388
7225.08,0.63832
7219.29,0.65106
7213.51,0.63900
7207.72,0.64292
7201.93,0.63607
7196.15,0.63072
7190.36,0.62718
7184.58,0.60937
7178.79,0.61649
7173,0.61718
7167.22,0.61393
7161.43,0.60708
7155.65,0.61239
7149.86,0.60589
7144.07,0.60083
7138.29,0.60080
7132.5,0.59141
7126.71,0.58145
7120.93,0.57042
7115.14,0.56782
7109.36,0.56621
7103.57,0.55539
7097.78,0.54942
7092,0.55411
7086.21,0.53615
7080.42,0.52948
7074.64,0.52078
7068.85,0.52270
7063.07,0.51324
7057.28,0.51203
7051.49,0.50443
7045.71,0.49711
7039.92,0.49071
7034.13,0.48663
7028.35,0.48009
7022.56,0.47260
7016.78,0.47216
7010.99,0.46824
7005.2,0.46226
6999.42,0.45869
6993.63,0.45799
6987.84,0.45102
6982.06,0.45009
6976.27,0.44947
6970.49,0.45222
6964.7,0.45293
6958.91,0.45028
6953.13,0.45144
6947.34,0.45364
6941.55,0.44863
6935.77,0.44824
6929.98,0.45145
6924.2,0.44538
6918.41,0.44496
6912.62,0.45019
6906.84,0.45073
6901.05,0.45518
6895.26,0.45430
6889.48,0.45083
6883.69,0.45679
6877.91,0.45076
6872.12,0.44834
6866.33,0.45151
6860.55,0.45969
6854.76,0.45025
6848.97,0.45193
6843.19,0.45412
6837.4,0.46218
6831.62,0.45586
6825.83,0.45672
6820.04,0.46139
6814.26,0.46343
6808.47,0.46357
6802.68,0.46631
6796.9,0.46813
6791.11,0.46483
6785.33,0.46665
6779.54,0.46547
6773.75,0.46238
6767.97,0.46778
6762.18,0.46941
6756.39,0.46703
6750.61,0.47598
6744.82,0.47588
6739.04,0.47619
6733.25,0.47724
6727.46,0.47837
6721.68,0.47577
6715.89,0.48271
6710.1,0.48343
6704.32,0.48219
6698.53,0.48763
6692.75,0.48620
6686.96,0.49093
6681.17,0.49191
6675.39,0.49385
6669.6,0.49441
6663.82,0.49459
6658.03,0.49915
6652.24,0.50030
6646.46,0.50306
6640.67,0.50504
6634.88,0.50803
6629.1,0.51030
6623.31,0.50670
6617.53,0.51014
6611.74,0.51555
6605.95,0.51517
6600.17,0.51459
6594.38,0.51497
6588.59,0.51592
6582.81,0.51855
6577.02,0.51898
6571.24,0.51890
6565.45,0.52638
6559.66,0.52520
6553.88,0.52483
6548.09,0.52580
6542.3,0.52506
6536.52,0.52686
6530.73,0.52958
6524.95,0.52935
6519.16,0.52353
6513.37,0.52714
6507.59,0.52930
6501.8,0.52716
6496.01,0.52750
6490.23,0.53222
6484.44,0.53153
6478.66,0.52932
6472.87,0.53283
6467.08,0.53367
6461.3,0.53329
6455.51,0.53249
6449.72,0.52982
6443.94,0.53272
6438.15,0.53451
6432.37,0.53155
6426.58,0.53279
6420.79,0.53070
6415.01,0.53419
6409.22,0.53742
6403.43,0.53938
6397.65,0.53912
6391.86,0.53658
6386.08,0.53831
6380.29,0.54292
6374.5,0.53804
6368.72,0.54203
6362.93,0.54212
6357.14,0.54715
6351.36,0.54449
6345.57,0.54194
6339.79,0.54658
6334,0.54309
6328.21,0.54303
6322.43,0.55097
6316.64,0.54958
6310.85,0.54635
6305.07,0.55242
6299.28,0.55067
6293.5,0.55155
6287.71,0.55395
6281.92,0.55579
6276.14,0.55567
6270.35,0.55713
6264.56,0.55471
6258.78,0.55897
6252.99,0.55935
6247.21,0.56023
6241.42,0.56010
6235.63,0.56520
6229.85,0.56453
6224.06,0.56725
6218.27,0.56834
6212.49,0.56619
6206.7,0.56548
6200.92,0.56666
6195.13,0.56418
6189.34,0.56803
6183.56,0.55980
6177.77,0.55580
6171.98,0.55601
6166.2,0.55192
6160.41,0.55320
6154.63,0.55707
6148.84,0.56126
6143.05,0.56389
6137.27,0.56574
6131.48,0.56194
6125.7,0.56478
6119.91,0.56635
6114.12,0.56030
6108.34,0.56631
6102.55,0.56362
6096.76,0.56235
6090.98,0.55668
6085.19,0.55122
6079.41,0.54802
6073.62,0.54477
6067.83,0.53361
6062.05,0.52723
6056.26,0.51874
6050.47,0.50979
6044.69,0.50101
6038.9,0.49060
6033.12,0.47880
6027.33,0.46555
6021.54,0.45645
6015.76,0.44514
6009.97,0.43842
6004.18,0.42670
5998.4,0.41603
5992.61,0.41388
5986.83,0.40752
5981.04,0.40807
5975.25,0.40577
5969.47,0.40365
5963.68,0.40196
5957.89,0.40314
5952.11,0.39719
5946.32,0.39678
5940.54,0.39401
5934.75,0.39719
5928.96,0.39545
5923.18,0.39590
5917.39,0.39416
5911.6,0.39203
5905.82,0.38813
5900.03,0.38964
5894.25,0.38928
5888.46,0.38796
5882.67,0.38400
5876.89,0.38718
5871.1,0.38791
5865.31,0.38600
5859.53,0.38589
5853.74,0.38556
5847.96,0.38632
5842.17,0.38135
5836.38,0.38053
5830.6,0.37609
5824.81,0.37185
5819.02,0.37011
5813.24,0.36661
5807.45,0.36741
5801.67,0.36572
5795.88,0.36640
5790.09,0.36995
5784.31,0.37223
5778.52,0.37667
5772.73,0.37728
5766.95,0.38335
5761.16,0.38777
5755.38,0.39048
5749.59,0.39519
5743.8,0.39932
5738.02,0.40165
5732.23,0.40470
5726.44,0.40829
5720.66,0.41078
5714.87,0.41577
5709.09,0.41749
5703.3,0.42088
5697.51,0.42218
5691.73,0.42527
5685.94,0.42653
5680.15,0.42639
5674.37,0.42710
5668.58,0.43029
5662.8,0.43037
5657.01,0.43213
5651.22,0.43268
5645.44,0.43638
5639.65,0.43887
5633.87,0.44106
5628.08,0.44189
5622.29,0.44419
5616.51,0.44547
5610.72,0.44754
5604.93,0.44796
5599.15,0.44809
5593.36,0.44923
5587.58,0.45046
5581.79,0.45061
5576,0.45441
5570.22,0.45294
5564.43,0.45376
5558.64,0.45683
5552.86,0.45714
5547.07,0.45710
5541.29,0.45978
5535.5,0.45942
5529.71,0.46141
5523.93,0.46271
5518.14,0.46455
5512.35,0.46638
5506.57,0.46767
5500.78,0.46964
5495,0.47052
5489.21,0.47286
5483.42,0.47466
5477.64,0.47445
5471.85,0.47594
5466.06,0.47766
5460.28,0.47972
5454.49,0.48111
5448.71,0.48367
5442.92,0.48458
5437.13,0.48659
5431.35,0.49009
5425.56,0.49143
5419.77,0.49427
5413.99,0.49544
5408.2,0.49728
5402.42,0.49891
5396.63,0.49760
5390.84,0.50037
5385.06,0.49906
5379.27,0.49748
5373.48,0.49854
5367.7,0.49665
5361.91,0.49815
5356.13,0.49411
5350.34,0.49296
5344.55,0.49006
5338.77,0.48820
5332.98,0.48391
5327.19,0.47972
5321.41,0.47268
5315.62,0.46675
5309.84,0.45688
5304.05,0.44508
5298.26,0.43283
5292.48,0.41942
5286.69,0.40379
5280.9,0.38675
5275.12,0.36863
5269.33,0.35117
5263.55,0.33447
5257.76,0.31996
5251.97,0.30704
5246.19,0.29500
5240.4,0.28761
5234.61,0.28017
5228.83,0.27727
5223.04,0.27281
5217.26,0.27180
5211.47,0.27014
5205.68,0.26986
5199.9,0.27056
5194.11,0.27167
5188.32,0.27337
5182.54,0.27565
5176.75,0.27820
5170.97,0.28253
5165.18,0.28568
5159.39,0.28758
5153.61,0.29358
5147.82,0.29834
5142.03,0.30093
5136.25,0.30611
5130.46,0.30988
5124.68,0.31437
5118.89,0.31891
5113.1,0.32346
5107.32,0.32653
5101.53,0.33210
5095.75,0.33691
5089.96,0.34016
5084.17,0.34476
5078.39,0.35038
5072.6,0.35414
5066.81,0.35761
5061.03,0.36223
5055.24,0.36460
5049.46,0.36758
5043.67,0.37079
5037.88,0.37512
5032.1,0.37641
5026.31,0.37871
5020.52,0.38016
5014.74,0.38325
5008.95,0.38317
5003.17,0.38320
4997.38,0.38421
4991.59,0.38247
4985.81,0.38177
4980.02,0.37967
4974.23,0.37729
4968.45,0.37309
4962.66,0.37022
4956.88,0.36469
4951.09,0.36127
4945.3,0.35473
4939.52,0.34844
4933.73,0.34435
4927.94,0.33731
4922.16,0.33238
4916.37,0.32671
4910.59,0.32161
4904.8,0.31741
4899.01,0.31273
4893.23,0.30886
4887.44,0.30339
4881.65,0.29977
4875.87,0.29683
4870.08,0.29378
4864.3,0.29148
4858.51,0.28862
4852.72,0.28489
4846.94,0.28196
4841.15,0.28018
4835.36,0.27636
4829.58,0.27355
4823.79,0.27003
4818.01,0.26857
4812.22,0.26585
4806.43,0.26397
4800.65,0.26275
4794.86,0.26151
4789.07,0.26117
4783.29,0.25905
4777.5,0.25861
4771.72,0.25869
4765.93,0.25572
4760.14,0.25460
4754.36,0.25156
4748.57,0.24926
4742.78,0.24498
4737,0.24370
4731.21,0.24135
4725.43,0.24111
4719.64,0.23955
4713.85,0.23825
4708.07,0.23661
4702.28,0.23479
4696.49,0.23149
4690.71,0.22621
4684.92,0.22162
4679.14,0.21977
4673.35,0.22002
4667.56,0.22281
4661.78,0.22866
4655.99,0.23483
4650.2,0.23996
4644.42,0.24165
4638.63,0.24107
4632.85,0.23828
4627.06,0.23746
4621.27,0.23924
4615.49,0.24484
4609.7,0.25222
4603.92,0.26058
4598.13,0.26804
4592.34,0.27348
4586.56,0.27487
4580.77,0.27612
4574.98,0.27632
4569.2,0.27541
4563.41,0.27752
4557.63,0.28061
4551.84,0.28367
4546.05,0.28517
4540.27,0.28601
4534.48,0.28475
4528.69,0.28325
4522.91,0.28012
4517.12,0.27603
4511.34,0.27172
4505.55,0.26587
4499.76,0.25837
4493.98,0.25116
4488.19,0.24560
4482.4,0.23711
4476.62,0.22644
4470.83,0.21362
4465.05,0.20047
4459.26,0.18491
4453.47,0.16763
4447.69,0.15087
4441.9,0.13650
4436.11,0.12517
4430.33,0.11693
4424.54,0.11165
4418.76,0.10827
4412.97,0.10794
4407.18,0.10858
4401.4,0.10889
4395.61,0.11042
4389.82,0.10992
4384.04,0.10906
4378.25,0.10577
4372.47,0.10350
4366.68,0.10161
4360.89,0.09992
4355.11,0.09980
4349.32,0.09948
4343.53,0.10034
4337.75,0.10120
4331.96,0.10233
4326.18,0.10266
4320.39,0.10341
4314.6,0.10566
4308.82,0.10792
4303.03,0.10947
4297.24,0.10941
4291.46,0.10863
4285.67,0.10889
4279.89,0.11025
4274.1,0.11029
4268.31,0.11094
4262.53,0.11264
4256.74,0.11260
4250.95,0.11329
4245.17,0.11532
4239.38,0.11609
4233.6,0.11602
4227.81,0.11766
4222.02,0.11816
4216.24,0.11905
4210.45,0.12113
4204.66,0.12095
4198.88,0.12201
4193.09,0.12194
4187.31,0.12319
4181.52,0.12282
4175.73,0.12217
4169.95,0.12188
4164.16,0.12126
4158.37,0.12153
4152.59,0.12030
4146.8,0.12042
4141.02,0.11936
4135.23,0.11905
4129.44,0.11945
4123.66,0.11946
4117.87,0.11824
4112.09,0.11605
4106.3,0.11422
4100.51,0.11258
4094.73,0.10938
4088.94,0.10589
4083.15,0.10232
4077.37,0.09937
4071.58,0.09622
4065.8,0.09389
4060.01,0.09240
4054.22,0.09278
4048.44,0.09428
4042.65,0.09407
4036.86,0.09468
4031.08,0.09476
4025.29,0.09466
4019.51,0.09506
4013.72,0.09625
4007.93,0.09669
4002.15,0.09639
3996.36,0.09731
3990.57,0.09893
3984.79,0.09960
3979,0.10113
3973.22,0.10289
3967.43,0.10553
3961.64,0.10800
3955.86,0.11066
3950.07,0.11265
3944.28,0.11462
3938.5,0.11579
3932.71,0.11784
3926.93,0.12027
3921.14,0.12218
3915.35,0.12368
3909.57,0.12517
3903.78,0.12738
3897.99,0.12817
3892.21,0.12953
3886.42,0.13013
3880.64,0.13135
3874.85,0.13296
3869.06,0.13540
3863.28,0.13779
3857.49,0.14035
3851.7,0.14352
3845.92,0.14464
3840.13,0.14598
3834.35,0.14686
3828.56,0.14726
3822.77,0.14796
3816.99,0.14829
3811.2,0.14825
3805.41,0.14917
3799.63,0.14889
3793.84,0.14872
3788.06,0.14837
3782.27,0.14745
3776.48,0.14645
3770.7,0.14586
3764.91,0.14428
3759.12,0.14265
3753.34,0.14155
3747.55,0.14086
3741.77,0.13918
3735.98,0.13691
3730.19,0.13370
3724.41,0.12935
3718.62,0.12516
3712.83,0.12096
3707.05,0.11367
3701.26,0.10604
3695.48,0.09693
3689.69,0.08648
3683.9,0.07630
3678.12,0.06667
3672.33,0.06207
3666.54,0.05906
3660.76,0.05696
3654.97,0.05593
3649.19,0.05533
3643.4,0.05452
3637.61,0.05463
3631.83,0.05365
3626.04,0.05367
3620.25,0.05390
3614.47,0.05385
3608.68,0.05360
3602.9,0.05365
3597.11,0.05340
3591.32,0.05370
3585.54,0.05281
3579.75,0.05278
3573.97,0.05318
3568.18,0.05295
3562.39,0.05253
3556.61,0.05253
3550.82,0.05240
3545.03,0.05262
3539.25,0.05276
3533.46,0.05237
3527.68,0.05217
3521.89,0.05282
3516.1,0.05170
3510.32,0.05255
3504.53,0.05203
3498.74,0.05190
3492.96,0.05242
3487.17,0.05234
3481.39,0.05217
3475.6,0.05249
3469.81,0.05290
3464.03,0.05288
3458.24,0.05280
3452.45,0.05335
3446.67,0.05297
3440.88,0.05342
3435.1,0.05304
3429.31,0.05309
3423.52,0.05239
3417.74,0.05297
3411.95,0.05272
3406.16,0.05272
3400.38,0.05400
3394.59,0.05296
3388.81,0.05290
3383.02,0.05310
3377.23,0.05312
3371.45,0.05291
3365.66,0.05308
3359.87,0.05349
3354.09,0.05320
3348.3,0.05368
3342.52,0.05387
3336.73,0.05396
3330.94,0.05350
3325.16,0.05398
3319.37,0.05424
3313.58,0.05380
3307.8,0.05347
3302.01,0.05333
3296.23,0.05324
3290.44,0.05339
3284.65,0.05359
3278.87,0.05372
3273.08,0.05370
3267.29,0.05400
3261.51,0.05396
3255.72,0.05412
3249.94,0.05425
3244.15,0.05429
3238.36,0.05412
3232.58,0.05407
3226.79,0.05407
3221,0.05378
3215.22,0.05437
3209.43,0.05371
3203.65,0.05413
3197.86,0.05396
3192.07,0.05400
3186.29,0.05412
3180.5,0.05432
3174.71,0.05403
3168.93,0.05379
3163.14,0.05443
3157.36,0.05424
3151.57,0.05402
3145.78,0.05382
3140,0.05373
3134.21,0.05400
3128.42,0.05430
3122.64,0.05324
3116.85,0.05363
3111.07,0.05329
3105.28,0.05366
3099.49,0.05346
3093.71,0.05352
3087.92,0.05336
3082.14,0.05346
3076.35,0.05308
3070.56,0.05345
3064.78,0.05319
3058.99,0.05291
3053.2,0.05277
3047.42,0.05288
3041.63,0.05264
3035.85,0.05262
3030.06,0.05271
3024.27,0.05239
3018.49,0.05264
3012.7,0.05232
3006.91,0.05203
3001.13,0.05164
2995.34,0.05129
2989.56,0.05060
2983.77,0.05070
2977.98,0.05086
2972.2,0.05020
2966.41,0.05110
2960.62,0.05095
2954.84,0.05152
2949.05,0.05206
2943.27,0.05219
2937.48,0.05364
2931.69,0.05479
2925.91,0.05696
2920.12,0.05831
2914.33,0.05860
2908.55,0.05747
2902.76,0.05704
2896.98,0.05585
2891.19,0.05580
2885.4,0.05629
2879.62,0.05569
2873.83,0.05519
2868.04,0.05596
2862.26,0.05641
2856.47,0.05774
2850.69,0.05887
2844.9,0.05910
2839.11,0.05818
2833.33,0.05787
2827.54,0.05724
2821.75,0.05688
2815.97,0.05666
2810.18,0.05582
2804.4,0.05623
2798.61,0.05621
2792.82,0.05627
2787.04,0.05609
2781.25,0.05621
2775.46,0.05612
2769.68,0.05604
2763.89,0.05599
2758.11,0.05624
2752.32,0.05612
2746.53,0.05618
2740.75,0.05645
2734.96,0.05612
2729.17,0.05635
2723.39,0.05624
2717.6,0.05616
2711.82,0.05662
2706.03,0.05690
2700.24,0.05751
2694.46,0.05753
2688.67,0.05793
2682.88,0.05795
2677.1,0.05844
2671.31,0.05826
2665.53,0.05851
2659.74,0.05917
2653.95,0.05892
2648.17,0.05949
2642.38,0.05947
2636.59,0.05970
2630.81,0.05975
2625.02,0.05989
2619.24,0.06054
2613.45,0.06043
2607.66,0.06074
2601.88,0.06032
2596.09,0.06065
2590.3,0.06049
2584.52,0.06029
2578.73,0.06068
2572.95,0.06089
2567.16,0.06094
2561.37,0.06080
2555.59,0.06104
2549.8,0.06059
2544.02,0.06051
2538.23,0.06086
2532.44,0.06089
2526.66,0.06159
2520.87,0.06240
2515.08,0.06280
2509.3,0.06318
2503.51,0.06305
2497.73,0.06259
2491.94,0.06334
2486.15,0.06354
2480.37,0.06421
2474.58,0.06488
2468.79,0.06563
2463.01,0.06519
2457.22,0.06614
2451.44,0.06646
2445.65,0.06616
2439.86,0.06622
2434.08,0.06654
2428.29,0.06577
2422.5,0.06618
2416.72,0.06680
2410.93,0.06710
2405.15,0.06769
2399.36,0.06831
2393.57,0.06848
2387.79,0.06874
2382,0.06852
2376.21,0.06876
2370.43,0.06836
2364.64,0.06840
2358.86,0.06859
2353.07,0.06900
2347.28,0.06892
2341.5,0.06885
2335.71,0.06893
2329.92,0.06878
2324.14,0.06940
2318.35,0.07010
2312.57,0.07067
2306.78,0.07113
2300.99,0.07145
2295.21,0.07189
2289.42,0.07279
2283.63,0.07337
2277.85,0.07320
2272.06,0.07378
2266.28,0.07387
2260.49,0.07462
2254.7,0.07468
2248.92,0.07472
2243.13,0.07515
2237.34,0.07448
2231.56,0.07468
2225.77,0.07491
2219.99,0.07504
2214.2,0.07529
2208.41,0.07520
2202.63,0.07480
2196.84,0.07433
2191.05,0.07405
2185.27,0.07350
2179.48,0.07290
2173.7,0.07167
2167.91,0.07103
2162.12,0.06994
2156.34,0.06906
2150.55,0.06798
2144.76,0.06677
2138.98,0.06561
2133.19,0.06517
2127.41,0.06455
2121.62,0.06419
2115.83,0.06359
2110.05,0.06293
2104.26,0.06279
2098.47,0.06237
2092.69,0.06226
2086.9,0.06167
2081.12,0.06081
2075.33,0.06048
2069.54,0.06111
2063.76,0.06105
2057.97,0.06154
2052.19,0.06187
2046.4,0.06224
2040.61,0.06203
2034.83,0.06160
2029.04,0.06147
2023.25,0.06106
2017.47,0.06056
2011.68,0.06097
2005.9,0.06033
2000.11,0.06007
1994.32,0.06028
1988.54,0.05959
1982.75,0.05953
1976.96,0.05943
1971.18,0.05953
1965.39,0.05935
1959.61,0.05876
1953.82,0.05854
1948.03,0.05916
1942.25,0.05992
1936.46,0.06039
1930.67,0.06077
1924.89,0.06058
1919.1,0.06060
1913.32,0.06004
1907.53,0.05934
1901.74,0.05880
1895.96,0.05762
1890.17,0.05659
1884.38,0.05655
1878.6,0.05637
1872.81,0.05590
1867.03,0.05568
1861.24,0.05519
1855.45,0.05469
1849.67,0.05385
1843.88,0.05311
1838.09,0.05254
1832.31,0.05139
1826.52,0.05071
1820.74,0.04951
1814.95,0.04837
1809.16,0.04765
1803.38,0.04636
1797.59,0.04595
1791.8,0.04498
1786.02,0.04408
1780.23,0.04368
1774.45,0.04235
1768.66,0.04088
1762.87,0.03915
1757.09,0.03615
1751.3,0.03355
1745.51,0.03278
1739.73,0.03790
1733.94,0.04900
1728.16,0.06019
1722.37,0.06789
1716.58,0.06985
1710.8,0.06776
1705.01,0.06542
1699.22,0.06305
1693.44,0.06073
1687.65,0.05976
1681.87,0.05922
1676.08,0.05880
1670.29,0.05799
1664.51,0.05741
1658.72,0.05741
1652.93,0.05718
1647.15,0.05691
1641.36,0.05643
1635.58,0.05631
1629.79,0.05601
1624,0.05566
1618.22,0.05516
1612.43,0.05525
1606.64,0.05550
1600.86,0.05548
1595.07,0.05524
1589.29,0.05503
1583.5,0.05419
1577.71,0.05426
1571.93,0.05418
1566.14,0.05308
1560.35,0.05326
1554.57,0.05238
1548.78,0.05299
1543,0.05252
1537.21,0.05228
1531.42,0.05186
1525.64,0.05119
1519.85,0.04999
1514.07,0.04922
1508.28,0.05113
1502.49,0.05231
1496.71,0.05158
1490.92,0.05033
1485.13,0.04858
1479.35,0.04752
1473.56,0.04700
1467.78,0.04735
1461.99,0.04845
1456.2,0.04867
1450.42,0.04929
1444.63,0.05034
1438.84,0.05031
1433.06,0.05043
1427.27,0.04979
1421.49,0.04918
1415.7,0.04801
1409.91,0.04820
1404.13,0.04909
1398.34,0.04855
1392.55,0.04812
1386.77,0.04841
1380.98,0.04895
1375.2,0.04907
1369.41,0.04878
1363.62,0.04851
1357.84,0.04850
1352.05,0.04765
1346.26,0.04697
1340.48,0.04674
1334.69,0.04604
1328.91,0.04545
1323.12,0.04476
1317.33,0.04402
1311.55,0.04336
1305.76,0.04276
1299.97,0.04232
1294.19,0.04312
1288.4,0.04273
1282.62,0.04202
1276.83,0.04229
1271.04,0.04207
1265.26,0.04291
1259.47,0.04351
1253.68,0.04478
1247.9,0.04591
1242.11,0.04673
1236.33,0.04778
1230.54,0.04744
1224.75,0.04798
1218.97,0.04834
1213.18,0.04793
1207.39,0.04810
1201.61,0.04800
1195.82,0.04950
1190.04,0.05067
1184.25,0.05245
1178.46,0.05487
1172.68,0.05631
1166.89,0.05908
1161.1,0.06275
1155.32,0.06561
1149.53,0.06700
1143.75,0.06687
1137.96,0.06553
1132.17,0.06450
1126.39,0.06545
1120.6,0.06681
1114.81,0.06894
1109.03,0.07081
1103.24,0.07307
1097.46,0.07522
1091.67,0.07636
1085.88,0.07732
1080.1,0.07858
1074.31,0.07899
1068.52,0.08087
1062.74,0.08180
1056.95,0.08207
1051.17,0.08156
1045.38,0.08278
1039.59,0.08194
1033.81,0.08205
1028.02,0.08052
1022.24,0.08057
1016.45,0.07944
1010.66,0.07891
1004.88,0.07670
999.09,0.07559
993.304,0.07454
987.518,0.07452
981.731,0.07445
975.945,0.07426
970.159,0.07457
964.373,0.07450
958.586,0.07440
952.8,0.07418
947.014,0.07374
941.228,0.07269
935.441,0.07283
929.655,0.07220
923.869,0.07177
918.083,0.07084
912.297,0.07120
906.51,0.07104
900.724,0.07108
894.938,0.07009
889.152,0.07068
883.365,0.06996
877.579,0.07054
871.793,0.07027
866.007,0.06917
860.22,0.06796
854.434,0.06694
848.648,0.06640
842.862,0.06636
837.075,0.06515
831.289,0.06613
825.503,0.06630
819.717,0.06565
813.931,0.06591
808.144,0.06756
802.358,0.06876
796.572,0.06949
790.786,0.06844
784.999,0.06886
779.213,0.06959
773.427,0.06930
767.641,0.06917
761.854,0.06830
756.068,0.06772
750.282,0.06729
744.496,0.06638
738.709,0.06694
732.923,0.06779
727.137,0.07065
721.351,0.07015
715.565,0.06905
709.778,0.06846
703.992,0.06800
698.206,0.06877
692.42,0.06896
686.633,0.07191
680.847,0.07364
675.061,0.07567
669.275,0.07471
663.488,0.07169
657.702,0.07034
651.916,0.06806
646.13,0.06910
640.343,0.06800
634.557,0.06524
628.771,0.06394
622.985,0.06425
617.198,0.06731
611.412,0.06500
605.626,0.06618
599.84,0.06100