File: 01_Data/Eucalyptus_Flooring/FTIR/IS/Eucalyptus_Flooring_IS_S_220908_R1.dpt
7497.03,0.78371
7491.25,0.78800
7485.46,0.76962
7479.67,0.77299
7473.89,0.78887
7468.1,0.76961
7462.32,0.77005
7456.53,0.76052
7450.74,0.75805
7444.96,0.75472
7439.17,0.75379
7433.38,0.73997
7427.6,0.73796
7421.81,0.73205
7416.03,0.72504
7410.24,0.73021
7404.45,0.72801
7398.67,0.72889
7392.88,0.70749
7387.09,0.71001
7381.31,0.70311
7375.52,0.70213
7369.74,0.70804
7363.95,0.70166
7358.16,0.69128
7352.38,0.69620
7346.59,0.69429
7340.8,0.69069
7335.02,0.68434
7329.23,0.68097
7323.45,0.67183
7317.66,0.67521
7311.87,0.67598
7306.09,0.66506
7300.3,0.66950
7294.51,0.66109
7288.73,0.66680
7282.94,0.65404
7277.16,0.65300
7271.37,0.64731
7265.58,0.66283
7259.8,0.64981
7254.01,0.66211
7248.22,0.65593
7242.44,0.64946
7236.65,0.65110
7230.87,0.64662
7225.08,0.64680
7219.29,0.64874
7213.51,0.64019
7207.72,0.64091
7201.93,0.63903
7196.15,0.62753
7190.36,0.62366
7184.58,0.59558
7178.79,0.61989
7173,0.61038
7167.22,0.61569
7161.43,0.60590
7155.65,0.60555
7149.86,0.59868
7144.07,0.60026
7138.29,0.59477
7132.5,0.59282
7126.71,0.57863
7120.93,0.57717
7115.14,0.56963
7109.36,0.56074
7103.57,0.55949
7097.78,0.54791
7092,0.54463
7086.21,0.53319
7080.42,0.53016
7074.64,0.52971
7068.85,0.51977
7063.07,0.50543
7057.28,0.50409
7051.49,0.49879
7045.71,0.49691
7039.92,0.48396
7034.13,0.48262
7028.35,0.48605
7022.56,0.47333
7016.78,0.47018
7010.99,0.46784
7005.2,0.45944
6999.42,0.46291
6993.63,0.45463
6987.84,0.45561
6982.06,0.46008
6976.27,0.44794
6970.49,0.44751
6964.7,0.45262
6958.91,0.45042
6953.13,0.44926
6947.34,0.44458
6941.55,0.44863
6935.77,0.44549
6929.98,0.45256
6924.2,0.45070
6918.41,0.45202
6912.62,0.44651
6906.84,0.44281
6901.05,0.44609
6895.26,0.44978
6889.48,0.44939
6883.69,0.45268
6877.91,0.45109
6872.12,0.45054
6866.33,0.45168
6860.55,0.45392
6854.76,0.45083
6848.97,0.45677
6843.19,0.45614
6837.4,0.45065
6831.62,0.45611
6825.83,0.45675
6820.04,0.45836
6814.26,0.45921
6808.47,0.45754
6802.68,0.46231
6796.9,0.46832
6791.11,0.46172
6785.33,0.46722
6779.54,0.46826
6773.75,0.46420
6767.97,0.46870
6762.18,0.47272
6756.39,0.47084
6750.61,0.47331
6744.82,0.47653
6739.04,0.47753
6733.25,0.47401
6727.46,0.47680
6721.68,0.48217
6715.89,0.47948
6710.1,0.48452
6704.32,0.48608
6698.53,0.48280
6692.75,0.48886
6686.96,0.49387
6681.17,0.49614
6675.39,0.49443
6669.6,0.49699
6663.82,0.49701
6658.03,0.49630
6652.24,0.49898
6646.46,0.49839
6640.67,0.50529
6634.88,0.50607
6629.1,0.50479
6623.31,0.50817
6617.53,0.51090
6611.74,0.51600
6605.95,0.51200
6600.17,0.51452
6594.38,0.51605
6588.59,0.51973
6582.81,0.51895
6577.02,0.51960
6571.24,0.51958
6565.45,0.52082
6559.66,0.52475
6553.88,0.52299
6548.09,0.52430
6542.3,0.52198
6536.52,0.52627
6530.73,0.52934
6524.95,0.52555
6519.16,0.53042
6513.37,0.53155
6507.59,0.52421
6501.8,0.52668
6496.01,0.52405
6490.23,0.53193
6484.44,0.52847
6478.66,0.53148
6472.87,0.53444
6467.08,0.53027
6461.3,0.52992
6455.51,0.53128
6449.72,0.53240
6443.94,0.52948
6438.15,0.52798
6432.37,0.53257
6426.58,0.53203
6420.79,0.53488
6415.01,0.53434
6409.22,0.53651
6403.43,0.53915
6397.65,0.53671
6391.86,0.53387
6386.08,0.53890
6380.29,0.53848
6374.5,0.53858
6368.72,0.54152
6362.93,0.54379
6357.14,0.54235
6351.36,0.54512
6345.57,0.54485
6339.79,0.54659
6334,0.54562
6328.21,0.54587
6322.43,0.54106
6316.64,0.54754
6310.85,0.55096
6305.07,0.54883
6299.28,0.54575
6293.5,0.55046
6287.71,0.55175
6281.92,0.55073
6276.14,0.55235
6270.35,0.55506
6264.56,0.55794
6258.78,0.55624
6252.99,0.56251
6247.21,0.56090
6241.42,0.56173
6235.63,0.56240
6229.85,0.56475
6224.06,0.56399
6218.27,0.56687
6212.49,0.56711
6206.7,0.57053
6200.92,0.56736
6195.13,0.56380
6189.34,0.56430
6183.56,0.56291
6177.77,0.55561
6171.98,0.55313
6166.2,0.55152
6160.41,0.55105
6154.63,0.55847
6148.84,0.55813
6143.05,0.56272
6137.27,0.56516
6131.48,0.56584
6125.7,0.56271
6119.91,0.56218
6114.12,0.56478
6108.34,0.56620
6102.55,0.56361
6096.76,0.55981
6090.98,0.55564
6085.19,0.54949
6079.41,0.54831
6073.62,0.54252
6067.83,0.53549
6062.05,0.52598
6056.26,0.52062
6050.47,0.51100
6044.69,0.50026
6038.9,0.49021
6033.12,0.47759
6027.33,0.46851
6021.54,0.45504
6015.76,0.44339
6009.97,0.44031
6004.18,0.42882
5998.4,0.41993
5992.61,0.41062
5986.83,0.40885
5981.04,0.40621
5975.25,0.40285
5969.47,0.40278
5963.68,0.40017
5957.89,0.40067
5952.11,0.39933
5946.32,0.39540
5940.54,0.39448
5934.75,0.39558
5928.96,0.39698
5923.18,0.39351
5917.39,0.39242
5911.6,0.39173
5905.82,0.39076
5900.03,0.38849
5894.25,0.38738
5888.46,0.38687
5882.67,0.38800
5876.89,0.38605
5871.1,0.38822
5865.31,0.38520
5859.53,0.38523
5853.74,0.38680
5847.96,0.38483
5842.17,0.38265
5836.38,0.38030
5830.6,0.37490
5824.81,0.37586
5819.02,0.37011
5813.24,0.36690
5807.45,0.36568
5801.67,0.36516
5795.88,0.36752
5790.09,0.36702
5784.31,0.37215
5778.52,0.37494
5772.73,0.37669
5766.95,0.38171
5761.16,0.38901
5755.38,0.38862
5749.59,0.39384
5743.8,0.39734
5738.02,0.40140
5732.23,0.40398
5726.44,0.40920
5720.66,0.41127
5714.87,0.41628
5709.09,0.41782
5703.3,0.41915
5697.51,0.42244
5691.73,0.42291
5685.94,0.42515
5680.15,0.42832
5674.37,0.42864
5668.58,0.42860
5662.8,0.43024
5657.01,0.43116
5651.22,0.43296
5645.44,0.43661
5639.65,0.43738
5633.87,0.44002
5628.08,0.44266
5622.29,0.44348
5616.51,0.44489
5610.72,0.44590
5604.93,0.44776
5599.15,0.44897
5593.36,0.44748
5587.58,0.44968
5581.79,0.45154
5576,0.44960
5570.22,0.45222
5564.43,0.45295
5558.64,0.45677
5552.86,0.45584
5547.07,0.45731
5541.29,0.46022
5535.5,0.46078
5529.71,0.46112
5523.93,0.46346
5518.14,0.46451
5512.35,0.46520
5506.57,0.46645
5500.78,0.46957
5495,0.47163
5489.21,0.47163
5483.42,0.47476
5477.64,0.47414
5471.85,0.47490
5466.06,0.47752
5460.28,0.47973
5454.49,0.48057
5448.71,0.48284
5442.92,0.48620
5437.13,0.48666
5431.35,0.48784
5425.56,0.48971
5419.77,0.49212
5413.99,0.49337
5408.2,0.49284
5402.42,0.49596
5396.63,0.49843
5390.84,0.50007
5385.06,0.49891
5379.27,0.49862
5373.48,0.49715
5367.7,0.49668
5361.91,0.49623
5356.13,0.49471
5350.34,0.49224
5344.55,0.49053
5338.77,0.48754
5332.98,0.48331
5327.19,0.47863
5321.41,0.47126
5315.62,0.46346
5309.84,0.45586
5304.05,0.44528
5298.26,0.43152
5292.48,0.41722
5286.69,0.39919
5280.9,0.38262
5275.12,0.36460
5269.33,0.34628
5263.55,0.32948
5257.76,0.31505
5251.97,0.30081
5246.19,0.28971
5240.4,0.28324
5234.61,0.27754
5228.83,0.27295
5223.04,0.26703
5217.26,0.26484
5211.47,0.26481
5205.68,0.26538
5199.9,0.26683
5194.11,0.26697
5188.32,0.26987
5182.54,0.27202
5176.75,0.27466
5170.97,0.27850
5165.18,0.28243
5159.39,0.28630
5153.61,0.28964
5147.82,0.29379
5142.03,0.29919
5136.25,0.30330
5130.46,0.30731
5124.68,0.31028
5118.89,0.31579
5113.1,0.32074
5107.32,0.32503
5101.53,0.32991
5095.75,0.33466
5089.96,0.34087
5084.17,0.34320
5078.39,0.34725
5072.6,0.35184
5066.81,0.35521
5061.03,0.35949
5055.24,0.36307
5049.46,0.36692
5043.67,0.36828
5037.88,0.37219
5032.1,0.37475
5026.31,0.37800
5020.52,0.37913
5014.74,0.38203
5008.95,0.38166
5003.17,0.38335
4997.38,0.38265
4991.59,0.38093
4985.81,0.38006
4980.02,0.37937
4974.23,0.37515
4968.45,0.37213
4962.66,0.36919
4956.88,0.36488
4951.09,0.36040
4945.3,0.35409
4939.52,0.34990
4933.73,0.34385
4927.94,0.33850
4922.16,0.33223
4916.37,0.32556
4910.59,0.32200
4904.8,0.31610
4899.01,0.31186
4893.23,0.30753
4887.44,0.30481
4881.65,0.30157
4875.87,0.29637
4870.08,0.29386
4864.3,0.29096
4858.51,0.28733
4852.72,0.28488
4846.94,0.28227
4841.15,0.27921
4835.36,0.27624
4829.58,0.27368
4823.79,0.27063
4818.01,0.26761
4812.22,0.26560
4806.43,0.26537
4800.65,0.26267
4794.86,0.26085
4789.07,0.25990
4783.29,0.25904
4777.5,0.25799
4771.72,0.25582
4765.93,0.25583
4760.14,0.25359
4754.36,0.25168
4748.57,0.24822
4742.78,0.24562
4737,0.24286
4731.21,0.24116
4725.43,0.24106
4719.64,0.24059
4713.85,0.23902
4708.07,0.23681
4702.28,0.23444
4696.49,0.23009
4690.71,0.22716
4684.92,0.22358
4679.14,0.22099
4673.35,0.22011
4667.56,0.22333
4661.78,0.22864
4655.99,0.23516
4650.2,0.23922
4644.42,0.24160
4638.63,0.24057
4632.85,0.23900
4627.06,0.23688
4621.27,0.23827
4615.49,0.24430
4609.7,0.25284
4603.92,0.26226
4598.13,0.26789
4592.34,0.27230
4586.56,0.27512
4580.77,0.27637
4574.98,0.27541
4569.2,0.27661
4563.41,0.27718
4557.63,0.27981
4551.84,0.28355
4546.05,0.28608
4540.27,0.28531
4534.48,0.28510
4528.69,0.28207
4522.91,0.27952
4517.12,0.27666
4511.34,0.27091
4505.55,0.26562
4499.76,0.25866
4493.98,0.25175
4488.19,0.24447
4482.4,0.23678
4476.62,0.22647
4470.83,0.21399
4465.05,0.19919
4459.26,0.18334
4453.47,0.16736
4447.69,0.15105
4441.9,0.13703
4436.11,0.12631
4430.33,0.11713
4424.54,0.11184
4418.76,0.10900
4412.97,0.10747
4407.18,0.10781
4401.4,0.10956
4395.61,0.10935
4389.82,0.10943
4384.04,0.10889
4378.25,0.10661
4372.47,0.10399
4366.68,0.10167
4360.89,0.10045
4355.11,0.09999
4349.32,0.09951
4343.53,0.10070
4337.75,0.10164
4331.96,0.10166
4326.18,0.10263
4320.39,0.10365
4314.6,0.10585
4308.82,0.10764
4303.03,0.10868
4297.24,0.10989
4291.46,0.10994
4285.67,0.10940
4279.89,0.10992
4274.1,0.10985
4268.31,0.11133
4262.53,0.11192
4256.74,0.11253
4250.95,0.11377
4245.17,0.11527
4239.38,0.11538
4233.6,0.11649
4227.81,0.11710
4222.02,0.11848
4216.24,0.11952
4210.45,0.12094
4204.66,0.12228
4198.88,0.12232
4193.09,0.12254
4187.31,0.12278
4181.52,0.12236
4175.73,0.12257
4169.95,0.12158
4164.16,0.12149
4158.37,0.12124
4152.59,0.12084
4146.8,0.11988
4141.02,0.11920
4135.23,0.11931
4129.44,0.11878
4123.66,0.11840
4117.87,0.11725
4112.09,0.11612
4106.3,0.11418
4100.51,0.11197
4094.73,0.10960
4088.94,0.10617
4083.15,0.10242
4077.37,0.09887
4071.58,0.09588
4065.8,0.09410
4060.01,0.09261
4054.22,0.09254
4048.44,0.09323
4042.65,0.09404
4036.86,0.09432
4031.08,0.09412
4025.29,0.09477
4019.51,0.09507
4013.72,0.09643
4007.93,0.09690
4002.15,0.09694
3996.36,0.09719
3990.57,0.09875
3984.79,0.09979
3979,0.10156
3973.22,0.10308
3967.43,0.10560
3961.64,0.10816
3955.86,0.11031
3950.07,0.11266
3944.28,0.11363
3938.5,0.11552
3932.71,0.11767
3926.93,0.11951
3921.14,0.12083
3915.35,0.12327
3909.57,0.12516
3903.78,0.12659
3897.99,0.12807
3892.21,0.12896
3886.42,0.13065
3880.64,0.13126
3874.85,0.13298
3869.06,0.13529
3863.28,0.13759
3857.49,0.14015
3851.7,0.14222
3845.92,0.14356
3840.13,0.14587
3834.35,0.14651
3828.56,0.14689
3822.77,0.14793
3816.99,0.14784
3811.2,0.14795
3805.41,0.14852
3799.63,0.14828
3793.84,0.14781
3788.06,0.14784
3782.27,0.14652
3776.48,0.14580
3770.7,0.14459
3764.91,0.14236
3759.12,0.14111
3753.34,0.14026
3747.55,0.13967
3741.77,0.13720
3735.98,0.13593
3730.19,0.13239
3724.41,0.12825
3718.62,0.12343
3712.83,0.11904
3707.05,0.11211
3701.26,0.10494
3695.48,0.09593
3689.69,0.08630
3683.9,0.07555
3678.12,0.06644
3672.33,0.06058
3666.54,0.05842
3660.76,0.05592
3654.97,0.05470
3649.19,0.05420
3643.4,0.05449
3637.61,0.05426
3631.83,0.05404
3626.04,0.05340
3620.25,0.05388
3614.47,0.05365
3608.68,0.05405
3602.9,0.05357
3597.11,0.05367
3591.32,0.05338
3585.54,0.05349
3579.75,0.05378
3573.97,0.05327
3568.18,0.05254
3562.39,0.05229
3556.61,0.05262
3550.82,0.05305
3545.03,0.05250
3539.25,0.05224
3533.46,0.05254
3527.68,0.05243
3521.89,0.05175
3516.1,0.05188
3510.32,0.05262
3504.53,0.05267
3498.74,0.05253
3492.96,0.05230
3487.17,0.05300
3481.39,0.05271
3475.6,0.05287
3469.81,0.05270
3464.03,0.05263
3458.24,0.05221
3452.45,0.05273
3446.67,0.05326
3440.88,0.05227
3435.1,0.05308
3429.31,0.05280
3423.52,0.05343
3417.74,0.05232
3411.95,0.05338
3406.16,0.05349
3400.38,0.05294
3394.59,0.05265
3388.81,0.05313
3383.02,0.05341
3377.23,0.05303
3371.45,0.05312
3365.66,0.05306
3359.87,0.05320
3354.09,0.05335
3348.3,0.05334
3342.52,0.05263
3336.73,0.05294
3330.94,0.05373
3325.16,0.05372
3319.37,0.05339
3313.58,0.05360
3307.8,0.05379
3302.01,0.05317
3296.23,0.05432
3290.44,0.05348
3284.65,0.05438
3278.87,0.05331
3273.08,0.05369
3267.29,0.05380
3261.51,0.05378
3255.72,0.05440
3249.94,0.05390
3244.15,0.05395
3238.36,0.05413
3232.58,0.05459
3226.79,0.05430
3221,0.05408
3215.22,0.05397
3209.43,0.05427
3203.65,0.05446
3197.86,0.05439
3192.07,0.05441
3186.29,0.05486
3180.5,0.05461
3174.71,0.05428
3168.93,0.05503
3163.14,0.05420
3157.36,0.05348
3151.57,0.05405
3145.78,0.05365
3140,0.05408
3134.21,0.05412
3128.42,0.05380
3122.64,0.05379
3116.85,0.05414
3111.07,0.05405
3105.28,0.05436
3099.49,0.05369
3093.71,0.05336
3087.92,0.05420
3082.14,0.05398
3076.35,0.05364
3070.56,0.05326
3064.78,0.05326
3058.99,0.05376
3053.2,0.05287
3047.42,0.05307
3041.63,0.05308
3035.85,0.05315
3030.06,0.05290
3024.27,0.05246
3018.49,0.05289
3012.7,0.05282
3006.91,0.05235
3001.13,0.05171
2995.34,0.05078
2989.56,0.05101
2983.77,0.05085
2977.98,0.05039
2972.2,0.05072
2966.41,0.05128
2960.62,0.05157
2954.84,0.05183
2949.05,0.05207
2943.27,0.05243
2937.48,0.05340
2931.69,0.05490
2925.91,0.05682
2920.12,0.05900
2914.33,0.05883
2908.55,0.05762
2902.76,0.05676
2896.98,0.05686
2891.19,0.05598
2885.4,0.05606
2879.62,0.05590
2873.83,0.05589
2868.04,0.05638
2862.26,0.05646
2856.47,0.05773
2850.69,0.05928
2844.9,0.05923
2839.11,0.05800
2833.33,0.05752
2827.54,0.05756
2821.75,0.05702
2815.97,0.05615
2810.18,0.05690
2804.4,0.05626
2798.61,0.05639
2792.82,0.05641
2787.04,0.05649
2781.25,0.05686
2775.46,0.05613
2769.68,0.05651
2763.89,0.05692
2758.11,0.05603
2752.32,0.05638
2746.53,0.05638
2740.75,0.05672
2734.96,0.05643
2729.17,0.05703
2723.39,0.05664
2717.6,0.05678
2711.82,0.05674
2706.03,0.05722
2700.24,0.05729
2694.46,0.05758
2688.67,0.05767
2682.88,0.05850
2677.1,0.05811
2671.31,0.05857
2665.53,0.05887
2659.74,0.05936
2653.95,0.05919
2648.17,0.05911
2642.38,0.05980
2636.59,0.05971
2630.81,0.06016
2625.02,0.06034
2619.24,0.06058
2613.45,0.06020
2607.66,0.06031
2601.88,0.06039
2596.09,0.06037
2590.3,0.06067
2584.52,0.06048
2578.73,0.06074
2572.95,0.06056
2567.16,0.06079
2561.37,0.06113
2555.59,0.06114
2549.8,0.06105
2544.02,0.06101
2538.23,0.06128
2532.44,0.06180
2526.66,0.06191
2520.87,0.06254
2515.08,0.06283
2509.3,0.06351
2503.51,0.06323
2497.73,0.06376
2491.94,0.06387
2486.15,0.06406
2480.37,0.06412
2474.58,0.06497
2468.79,0.06497
2463.01,0.06528
2457.22,0.06623
2451.44,0.06601
2445.65,0.06640
2439.86,0.06625
2434.08,0.06631
2428.29,0.06618
2422.5,0.06661
2416.72,0.06627
2410.93,0.06745
2405.15,0.06815
2399.36,0.06818
2393.57,0.06850
2387.79,0.06871
2382,0.06873
2376.21,0.06878
2370.43,0.06853
2364.64,0.06856
2358.86,0.06881
2353.07,0.06896
2347.28,0.06862
2341.5,0.06924
2335.71,0.06897
2329.92,0.06903
2324.14,0.06884
2318.35,0.06978
2312.57,0.07058
2306.78,0.07122
2300.99,0.07144
2295.21,0.07191
2289.42,0.07232
2283.63,0.07292
2277.85,0.07327
2272.06,0.07351
2266.28,0.07412
2260.49,0.07467
2254.7,0.07475
2248.92,0.07477
2243.13,0.07426
2237.34,0.07479
2231.56,0.07477
2225.77,0.07463
2219.99,0.07504
2214.2,0.07483
2208.41,0.07469
2202.63,0.07473
2196.84,0.07452
2191.05,0.07380
2185.27,0.07359
2179.48,0.07259
2173.7,0.07190
2167.91,0.07059
2162.12,0.07000
2156.34,0.06856
2150.55,0.06750
2144.76,0.06629
2138.98,0.06583
2133.19,0.06538
2127.41,0.06474
2121.62,0.06412
2115.83,0.06342
2110.05,0.06250
2104.26,0.06239
2098.47,0.06194
2092.69,0.06149
2086.9,0.06126
2081.12,0.06110
2075.33,0.06080
2069.54,0.06094
2063.76,0.06125
2057.97,0.06147
2052.19,0.06167
2046.4,0.06160
2040.61,0.06171
2034.83,0.06148
2029.04,0.06121
2023.25,0.06100
2017.47,0.06052
2011.68,0.06061
2005.9,0.06013
2000.11,0.05984
1994.32,0.06010
1988.54,0.05960
1982.75,0.05979
1976.96,0.05988
1971.18,0.05927
1965.39,0.05897
1959.61,0.05854
1953.82,0.05882
1948.03,0.05922
1942.25,0.05984
1936.46,0.06050
1930.67,0.06093
1924.89,0.06077
1919.1,0.06078
1913.32,0.06019
1907.53,0.05924
1901.74,0.05848
1895.96,0.05773
1890.17,0.05666
1884.38,0.05654
1878.6,0.05616
1872.81,0.05621
1867.03,0.05539
1861.24,0.05507
1855.45,0.05510
1849.67,0.05417
1843.88,0.05367
1838.09,0.05243
1832.31,0.05191
1826.52,0.05071
1820.74,0.04961
1814.95,0.04866
1809.16,0.04733
1803.38,0.04650
1797.59,0.04549
1791.8,0.04478
1786.02,0.04417
1780.23,0.04346
1774.45,0.04224
1768.66,0.04098
1762.87,0.03901
1757.09,0.03636
1751.3,0.03375
1745.51,0.03300
1739.73,0.03786
1733.94,0.04904
1728.16,0.06020
1722.37,0.06716
1716.58,0.06937
1710.8,0.06797
1705.01,0.06552
1699.22,0.06337
1693.44,0.06127
1687.65,0.06007
1681.87,0.05916
1676.08,0.05874
1670.29,0.05838
1664.51,0.05786
1658.72,0.05742
1652.93,0.05761
1647.15,0.05725
1641.36,0.05655
1635.58,0.05659
1629.79,0.05608
1624,0.05546
1618.22,0.05544
1612.43,0.05520
1606.64,0.05497
1600.86,0.05513
1595.07,0.05557
1589.29,0.05507
1583.5,0.05424
1577.71,0.05446
1571.93,0.05391
1566.14,0.05324
1560.35,0.05323
1554.57,0.05303
1548.78,0.05297
1543,0.05246
1537.21,0.05218
1531.42,0.05199
1525.64,0.05135
1519.85,0.05003
1514.07,0.04967
1508.28,0.05126
1502.49,0.05182
1496.71,0.05155
1490.92,0.05043
1485.13,0.04882
1479.35,0.04757
1473.56,0.04725
1467.78,0.04759
1461.99,0.04840
1456.2,0.04933
1450.42,0.04960
1444.63,0.05019
1438.84,0.05069
1433.06,0.05063
1427.27,0.05036
1421.49,0.04933
1415.7,0.04801
1409.91,0.04832
1404.13,0.04907
1398.34,0.04874
1392.55,0.04844
1386.77,0.04817
1380.98,0.04873
1375.2,0.04916
1369.41,0.04899
1363.62,0.04885
1357.84,0.04841
1352.05,0.04811
1346.26,0.04726
1340.48,0.04702
1334.69,0.04599
1328.91,0.04560
1323.12,0.04466
1317.33,0.04382
1311.55,0.04343
1305.76,0.04265
1299.97,0.04244
1294.19,0.04279
1288.4,0.04251
1282.62,0.04213
1276.83,0.04197
1271.04,0.04222
1265.26,0.04281
1259.47,0.04324
1253.68,0.04439
1247.9,0.04564
1242.11,0.04707
1236.33,0.04724
1230.54,0.04800
1224.75,0.04821
1218.97,0.04753
1213.18,0.04774
1207.39,0.04756
1201.61,0.04788
1195.82,0.04925
1190.04,0.05086
1184.25,0.05276
1178.46,0.05434
1172.68,0.05566
1166.89,0.05892
1161.1,0.06255
1155.32,0.06539
1149.53,0.06709
1143.75,0.06651
1137.96,0.06589
1132.17,0.06556
1126.39,0.06535
1120.6,0.06660
1114.81,0.06880
1109.03,0.07122
1103.24,0.07373
1097.46,0.07512
1091.67,0.07685
1085.88,0.07711
1080.1,0.07793
1074.31,0.07978
1068.52,0.08067
1062.74,0.08144
1056.95,0.08225
1051.17,0.08242
1045.38,0.08245
1039.59,0.08220
1033.81,0.08197
1028.02,0.08065
1022.24,0.08056
1016.45,0.07940
1010.66,0.07817
1004.88,0.07693
999.09,0.07579
993.304,0.07461
987.518,0.07488
981.731,0.07434
975.945,0.07431
970.159,0.07465
964.373,0.07454
958.586,0.07437
952.8,0.07394
947.014,0.07403
941.228,0.07291
935.441,0.07235
929.655,0.07179
923.869,0.07176
918.083,0.07173
912.297,0.07123
906.51,0.07110
900.724,0.07114
894.938,0.07089
889.152,0.07023
883.365,0.07015
877.579,0.06996
871.793,0.06981
866.007,0.06848
860.22,0.06747
854.434,0.06775
848.648,0.06715
842.862,0.06616
837.075,0.06467
831.289,0.06570
825.503,0.06657
819.717,0.06654
813.931,0.06594
808.144,0.06722
802.358,0.06803
796.572,0.06798
790.786,0.06907
784.999,0.06828
779.213,0.06894
773.427,0.06841
767.641,0.06827
761.854,0.06854
756.068,0.06756
750.282,0.06757
744.496,0.06776
738.709,0.06718
732.923,0.06824
727.137,0.06969
721.351,0.07012
715.565,0.06881
709.778,0.06762
703.992,0.06795
698.206,0.06826
692.42,0.06990
686.633,0.07222
680.847,0.07261
675.061,0.07382
669.275,0.07389
663.488,0.07109
657.702,0.06951
651.916,0.06769
646.13,0.06842
640.343,0.06804
634.557,0.06540
628.771,0.06423
622.985,0.06553
617.198,0.06636
611.412,0.06629
605.626,0.06246
599.84,0.06351