File: 01_Data/Eucalyptus_Flooring/FTIR/IS/Eucalyptus_Flooring_IS_S_220908_R4.dpt
7497.03,0.78262
7491.25,0.77820
7485.46,0.78984
7479.67,0.76989
7473.89,0.76430
7468.1,0.77163
7462.32,0.76194
7456.53,0.75752
7450.74,0.75445
7444.96,0.74511
7439.17,0.74544
7433.38,0.74558
7427.6,0.73637
7421.81,0.72917
7416.03,0.72685
7410.24,0.72748
7404.45,0.72403
7398.67,0.71413
7392.88,0.70818
7387.09,0.70909
7381.31,0.71203
7375.52,0.70793
7369.74,0.70333
7363.95,0.69967
7358.16,0.69947
7352.38,0.69694
7346.59,0.69580
7340.8,0.68825
7335.02,0.68132
7329.23,0.67233
7323.45,0.67467
7317.66,0.67249
7311.87,0.67709
7306.09,0.66561
7300.3,0.66908
7294.51,0.65890
7288.73,0.65612
7282.94,0.65997
7277.16,0.65396
7271.37,0.65837
7265.58,0.65491
7259.8,0.65025
7254.01,0.64819
7248.22,0.64989
7242.44,0.64877
7236.65,0.64998
7230.87,0.65087
7225.08,0.64991
7219.29,0.64071
7213.51,0.63707
7207.72,0.63383
7201.93,0.63009
7196.15,0.63355
7190.36,0.62040
7184.58,0.60645
7178.79,0.61689
7173,0.61585
7167.22,0.61749
7161.43,0.61823
7155.65,0.60769
7149.86,0.59768
7144.07,0.59417
7138.29,0.59306
7132.5,0.58259
7126.71,0.58383
7120.93,0.57795
7115.14,0.57220
7109.36,0.55994
7103.57,0.55902
7097.78,0.55408
7092,0.54247
7086.21,0.54205
7080.42,0.52835
7074.64,0.52943
7068.85,0.51964
7063.07,0.51915
7057.28,0.50761
7051.49,0.50535
7045.71,0.49820
7039.92,0.49394
7034.13,0.48182
7028.35,0.47351
7022.56,0.47372
7016.78,0.46784
7010.99,0.46657
7005.2,0.46493
6999.42,0.46338
6993.63,0.45567
6987.84,0.45521
6982.06,0.44972
6976.27,0.45638
6970.49,0.44805
6964.7,0.44682
6958.91,0.44845
6953.13,0.44510
6947.34,0.44904
6941.55,0.44546
6935.77,0.44624
6929.98,0.44901
6924.2,0.44471
6918.41,0.45404
6912.62,0.45057
6906.84,0.44842
6901.05,0.45246
6895.26,0.44852
6889.48,0.45056
6883.69,0.45119
6877.91,0.44827
6872.12,0.45407
6866.33,0.45072
6860.55,0.45083
6854.76,0.45623
6848.97,0.45714
6843.19,0.45297
6837.4,0.45721
6831.62,0.45791
6825.83,0.45506
6820.04,0.45820
6814.26,0.46164
6808.47,0.45832
6802.68,0.46357
6796.9,0.46086
6791.11,0.46233
6785.33,0.46272
6779.54,0.46967
6773.75,0.47183
6767.97,0.46933
6762.18,0.46500
6756.39,0.46503
6750.61,0.47061
6744.82,0.47829
6739.04,0.47362
6733.25,0.47554
6727.46,0.48092
6721.68,0.47548
6715.89,0.48223
6710.1,0.48200
6704.32,0.47921
6698.53,0.48639
6692.75,0.48977
6686.96,0.48876
6681.17,0.49443
6675.39,0.49068
6669.6,0.48714
6663.82,0.50085
6658.03,0.49017
6652.24,0.49914
6646.46,0.49657
6640.67,0.50010
6634.88,0.50128
6629.1,0.50464
6623.31,0.50524
6617.53,0.50973
6611.74,0.51100
6605.95,0.50606
6600.17,0.50872
6594.38,0.51337
6588.59,0.51932
6582.81,0.51828
6577.02,0.51565
6571.24,0.52031
6565.45,0.52073
6559.66,0.52023
6553.88,0.52424
6548.09,0.52549
6542.3,0.52283
6536.52,0.52497
6530.73,0.52568
6524.95,0.52557
6519.16,0.52447
6513.37,0.52766
6507.59,0.53068
6501.8,0.52834
6496.01,0.52651
6490.23,0.52598
6484.44,0.52586
6478.66,0.53270
6472.87,0.52801
6467.08,0.52545
6461.3,0.52778
6455.51,0.53124
6449.72,0.53090
6443.94,0.53074
6438.15,0.52789
6432.37,0.52593
6426.58,0.53064
6420.79,0.53102
6415.01,0.53176
6409.22,0.53444
6403.43,0.53345
6397.65,0.53602
6391.86,0.53970
6386.08,0.53299
6380.29,0.53721
6374.5,0.53549
6368.72,0.53825
6362.93,0.54180
6357.14,0.54280
6351.36,0.54178
6345.57,0.54399
6339.79,0.54302
6334,0.54275
6328.21,0.54572
6322.43,0.54436
6316.64,0.54644
6310.85,0.54674
6305.07,0.54752
6299.28,0.54588
6293.5,0.54853
6287.71,0.54868
6281.92,0.55146
6276.14,0.55534
6270.35,0.55353
6264.56,0.55427
6258.78,0.55788
6252.99,0.55733
6247.21,0.56057
6241.42,0.56118
6235.63,0.56258
6229.85,0.56168
6224.06,0.56579
6218.27,0.56819
6212.49,0.56315
6206.7,0.56494
6200.92,0.56107
6195.13,0.56343
6189.34,0.56029
6183.56,0.55854
6177.77,0.55377
6171.98,0.55457
6166.2,0.54735
6160.41,0.55308
6154.63,0.55383
6148.84,0.55752
6143.05,0.56063
6137.27,0.56051
6131.48,0.56033
6125.7,0.56042
6119.91,0.56008
6114.12,0.55958
6108.34,0.55997
6102.55,0.56330
6096.76,0.56026
6090.98,0.55475
6085.19,0.54985
6079.41,0.54575
6073.62,0.54195
6067.83,0.53439
6062.05,0.52441
6056.26,0.52113
6050.47,0.51182
6044.69,0.50138
6038.9,0.49102
6033.12,0.47600
6027.33,0.46447
6021.54,0.45660
6015.76,0.44615
6009.97,0.43551
6004.18,0.42570
5998.4,0.41839
5992.61,0.41119
5986.83,0.40673
5981.04,0.40583
5975.25,0.40154
5969.47,0.40067
5963.68,0.40144
5957.89,0.39849
5952.11,0.39657
5946.32,0.39655
5940.54,0.39850
5934.75,0.39496
5928.96,0.39520
5923.18,0.39164
5917.39,0.39139
5911.6,0.39130
5905.82,0.39144
5900.03,0.38851
5894.25,0.38554
5888.46,0.38608
5882.67,0.38684
5876.89,0.38719
5871.1,0.38572
5865.31,0.38543
5859.53,0.38514
5853.74,0.38663
5847.96,0.38458
5842.17,0.38397
5836.38,0.37921
5830.6,0.37432
5824.81,0.37273
5819.02,0.36812
5813.24,0.36674
5807.45,0.36711
5801.67,0.36709
5795.88,0.36539
5790.09,0.36817
5784.31,0.36970
5778.52,0.37345
5772.73,0.37632
5766.95,0.38034
5761.16,0.38439
5755.38,0.39007
5749.59,0.39329
5743.8,0.39762
5738.02,0.40054
5732.23,0.40320
5726.44,0.40579
5720.66,0.40883
5714.87,0.41348
5709.09,0.41509
5703.3,0.41990
5697.51,0.42270
5691.73,0.42385
5685.94,0.42523
5680.15,0.42583
5674.37,0.42693
5668.58,0.42846
5662.8,0.42720
5657.01,0.43016
5651.22,0.43407
5645.44,0.43548
5639.65,0.43727
5633.87,0.44080
5628.08,0.44086
5622.29,0.43958
5616.51,0.44186
5610.72,0.44341
5604.93,0.44523
5599.15,0.44662
5593.36,0.44692
5587.58,0.44854
5581.79,0.44785
5576,0.45199
5570.22,0.45185
5564.43,0.45478
5558.64,0.45562
5552.86,0.45639
5547.07,0.45657
5541.29,0.45790
5535.5,0.46049
5529.71,0.46138
5523.93,0.46022
5518.14,0.46443
5512.35,0.46528
5506.57,0.46697
5500.78,0.46931
5495,0.46998
5489.21,0.47030
5483.42,0.47096
5477.64,0.47062
5471.85,0.47416
5466.06,0.47665
5460.28,0.47828
5454.49,0.47884
5448.71,0.48180
5442.92,0.48448
5437.13,0.48585
5431.35,0.48727
5425.56,0.48912
5419.77,0.49090
5413.99,0.49458
5408.2,0.49397
5402.42,0.49556
5396.63,0.49620
5390.84,0.49596
5385.06,0.49712
5379.27,0.49628
5373.48,0.49576
5367.7,0.49549
5361.91,0.49379
5356.13,0.49228
5350.34,0.49083
5344.55,0.48907
5338.77,0.48658
5332.98,0.48174
5327.19,0.47740
5321.41,0.47128
5315.62,0.46410
5309.84,0.45344
5304.05,0.44346
5298.26,0.43178
5292.48,0.41786
5286.69,0.40115
5280.9,0.38312
5275.12,0.36510
5269.33,0.34628
5263.55,0.33007
5257.76,0.31708
5251.97,0.30424
5246.19,0.29206
5240.4,0.28454
5234.61,0.27791
5228.83,0.27288
5223.04,0.27080
5217.26,0.26695
5211.47,0.26704
5205.68,0.26728
5199.9,0.26830
5194.11,0.26905
5188.32,0.27139
5182.54,0.27352
5176.75,0.27556
5170.97,0.27988
5165.18,0.28268
5159.39,0.28692
5153.61,0.29059
5147.82,0.29574
5142.03,0.29916
5136.25,0.30434
5130.46,0.30721
5124.68,0.31170
5118.89,0.31678
5113.1,0.32163
5107.32,0.32623
5101.53,0.33116
5095.75,0.33460
5089.96,0.33879
5084.17,0.34396
5078.39,0.34872
5072.6,0.35289
5066.81,0.35621
5061.03,0.35971
5055.24,0.36422
5049.46,0.36574
5043.67,0.36947
5037.88,0.37300
5032.1,0.37487
5026.31,0.37747
5020.52,0.37904
5014.74,0.38133
5008.95,0.38180
5003.17,0.38062
4997.38,0.38172
4991.59,0.38027
4985.81,0.37962
4980.02,0.37801
4974.23,0.37518
4968.45,0.37128
4962.66,0.36817
4956.88,0.36274
4951.09,0.35768
4945.3,0.35381
4939.52,0.34730
4933.73,0.34114
4927.94,0.33610
4922.16,0.33051
4916.37,0.32553
4910.59,0.32071
4904.8,0.31494
4899.01,0.31117
4893.23,0.30590
4887.44,0.30263
4881.65,0.29876
4875.87,0.29654
4870.08,0.29359
4864.3,0.28884
4858.51,0.28618
4852.72,0.28351
4846.94,0.28088
4841.15,0.27865
4835.36,0.27461
4829.58,0.27236
4823.79,0.26914
4818.01,0.26662
4812.22,0.26528
4806.43,0.26407
4800.65,0.26162
4794.86,0.26054
4789.07,0.25977
4783.29,0.25873
4777.5,0.25685
4771.72,0.25768
4765.93,0.25599
4760.14,0.25384
4754.36,0.25019
4748.57,0.24660
4742.78,0.24472
4737,0.24171
4731.21,0.24055
4725.43,0.23945
4719.64,0.23771
4713.85,0.23860
4708.07,0.23635
4702.28,0.23385
4696.49,0.23002
4690.71,0.22487
4684.92,0.22190
4679.14,0.21939
4673.35,0.21833
4667.56,0.22211
4661.78,0.22665
4655.99,0.23424
4650.2,0.23935
4644.42,0.24101
4638.63,0.24045
4632.85,0.23843
4627.06,0.23541
4621.27,0.23681
4615.49,0.24355
4609.7,0.25140
4603.92,0.26099
4598.13,0.26753
4592.34,0.27188
4586.56,0.27368
4580.77,0.27498
4574.98,0.27486
4569.2,0.27489
4563.41,0.27658
4557.63,0.28018
4551.84,0.28175
4546.05,0.28471
4540.27,0.28443
4534.48,0.28354
4528.69,0.28105
4522.91,0.27917
4517.12,0.27546
4511.34,0.27023
4505.55,0.26498
4499.76,0.25740
4493.98,0.25072
4488.19,0.24390
4482.4,0.23612
4476.62,0.22573
4470.83,0.21363
4465.05,0.19864
4459.26,0.18384
4453.47,0.16652
4447.69,0.14991
4441.9,0.13619
4436.11,0.12414
4430.33,0.11697
4424.54,0.11118
4418.76,0.10869
4412.97,0.10793
4407.18,0.10876
4401.4,0.10941
4395.61,0.10995
4389.82,0.10967
4384.04,0.10821
4378.25,0.10642
4372.47,0.10381
4366.68,0.10175
4360.89,0.09982
4355.11,0.09981
4349.32,0.09983
4343.53,0.09879
4337.75,0.10056
4331.96,0.10177
4326.18,0.10224
4320.39,0.10376
4314.6,0.10607
4308.82,0.10644
4303.03,0.10813
4297.24,0.10851
4291.46,0.10949
4285.67,0.11036
4279.89,0.10872
4274.1,0.10958
4268.31,0.11158
4262.53,0.11113
4256.74,0.11182
4250.95,0.11370
4245.17,0.11415
4239.38,0.11473
4233.6,0.11580
4227.81,0.11717
4222.02,0.11812
4216.24,0.11968
4210.45,0.12072
4204.66,0.12166
4198.88,0.12211
4193.09,0.12332
4187.31,0.12216
4181.52,0.12214
4175.73,0.12182
4169.95,0.12147
4164.16,0.12109
4158.37,0.12101
4152.59,0.12112
4146.8,0.12046
4141.02,0.11937
4135.23,0.11916
4129.44,0.11881
4123.66,0.11835
4117.87,0.11684
4112.09,0.11593
4106.3,0.11429
4100.51,0.11215
4094.73,0.10915
4088.94,0.10649
4083.15,0.10164
4077.37,0.09852
4071.58,0.09589
4065.8,0.09366
4060.01,0.09237
4054.22,0.09207
4048.44,0.09281
4042.65,0.09403
4036.86,0.09399
4031.08,0.09470
4025.29,0.09478
4019.51,0.09413
4013.72,0.09539
4007.93,0.09576
4002.15,0.09598
3996.36,0.09652
3990.57,0.09792
3984.79,0.09944
3979,0.10046
3973.22,0.10332
3967.43,0.10476
3961.64,0.10715
3955.86,0.10984
3950.07,0.11214
3944.28,0.11366
3938.5,0.11566
3932.71,0.11714
3926.93,0.11916
3921.14,0.12123
3915.35,0.12353
3909.57,0.12518
3903.78,0.12588
3897.99,0.12801
3892.21,0.13011
3886.42,0.13066
3880.64,0.13127
3874.85,0.13327
3869.06,0.13552
3863.28,0.13739
3857.49,0.13979
3851.7,0.14206
3845.92,0.14420
3840.13,0.14545
3834.35,0.14634
3828.56,0.14764
3822.77,0.14722
3816.99,0.14784
3811.2,0.14749
3805.41,0.14896
3799.63,0.14820
3793.84,0.14773
3788.06,0.14755
3782.27,0.14733
3776.48,0.14608
3770.7,0.14450
3764.91,0.14297
3759.12,0.14126
3753.34,0.14002
3747.55,0.13940
3741.77,0.13802
3735.98,0.13527
3730.19,0.13212
3724.41,0.12834
3718.62,0.12452
3712.83,0.11928
3707.05,0.11333
3701.26,0.10504
3695.48,0.09651
3689.69,0.08607
3683.9,0.07645
3678.12,0.06597
3672.33,0.06194
3666.54,0.05846
3660.76,0.05647
3654.97,0.05572
3649.19,0.05406
3643.4,0.05459
3637.61,0.05448
3631.83,0.05344
3626.04,0.05391
3620.25,0.05356
3614.47,0.05328
3608.68,0.05336
3602.9,0.05357
3597.11,0.05376
3591.32,0.05306
3585.54,0.05285
3579.75,0.05293
3573.97,0.05265
3568.18,0.05247
3562.39,0.05223
3556.61,0.05275
3550.82,0.05239
3545.03,0.05275
3539.25,0.05252
3533.46,0.05247
3527.68,0.05280
3521.89,0.05213
3516.1,0.05241
3510.32,0.05259
3504.53,0.05199
3498.74,0.05240
3492.96,0.05229
3487.17,0.05292
3481.39,0.05227
3475.6,0.05248
3469.81,0.05206
3464.03,0.05185
3458.24,0.05195
3452.45,0.05170
3446.67,0.05219
3440.88,0.05207
3435.1,0.05195
3429.31,0.05300
3423.52,0.05299
3417.74,0.05319
3411.95,0.05291
3406.16,0.05315
3400.38,0.05326
3394.59,0.05354
3388.81,0.05238
3383.02,0.05287
3377.23,0.05338
3371.45,0.05321
3365.66,0.05345
3359.87,0.05358
3354.09,0.05280
3348.3,0.05308
3342.52,0.05265
3336.73,0.05262
3330.94,0.05283
3325.16,0.05307
3319.37,0.05350
3313.58,0.05328
3307.8,0.05370
3302.01,0.05330
3296.23,0.05405
3290.44,0.05391
3284.65,0.05362
3278.87,0.05372
3273.08,0.05374
3267.29,0.05420
3261.51,0.05404
3255.72,0.05406
3249.94,0.05381
3244.15,0.05364
3238.36,0.05404
3232.58,0.05425
3226.79,0.05419
3221,0.05474
3215.22,0.05426
3209.43,0.05384
3203.65,0.05485
3197.86,0.05382
3192.07,0.05390
3186.29,0.05417
3180.5,0.05401
3174.71,0.05423
3168.93,0.05349
3163.14,0.05465
3157.36,0.05409
3151.57,0.05399
3145.78,0.05402
3140,0.05398
3134.21,0.05427
3128.42,0.05342
3122.64,0.05328
3116.85,0.05339
3111.07,0.05399
3105.28,0.05329
3099.49,0.05384
3093.71,0.05405
3087.92,0.05314
3082.14,0.05339
3076.35,0.05296
3070.56,0.05353
3064.78,0.05336
3058.99,0.05333
3053.2,0.05317
3047.42,0.05322
3041.63,0.05293
3035.85,0.05284
3030.06,0.05249
3024.27,0.05248
3018.49,0.05212
3012.7,0.05199
3006.91,0.05173
3001.13,0.05148
2995.34,0.05141
2989.56,0.05068
2983.77,0.05116
2977.98,0.05062
2972.2,0.05038
2966.41,0.05069
2960.62,0.05128
2954.84,0.05209
2949.05,0.05199
2943.27,0.05244
2937.48,0.05272
2931.69,0.05473
2925.91,0.05632
2920.12,0.05842
2914.33,0.05858
2908.55,0.05762
2902.76,0.05696
2896.98,0.05572
2891.19,0.05620
2885.4,0.05583
2879.62,0.05568
2873.83,0.05538
2868.04,0.05614
2862.26,0.05597
2856.47,0.05783
2850.69,0.05957
2844.9,0.05909
2839.11,0.05816
2833.33,0.05721
2827.54,0.05704
2821.75,0.05655
2815.97,0.05629
2810.18,0.05656
2804.4,0.05640
2798.61,0.05672
2792.82,0.05601
2787.04,0.05618
2781.25,0.05628
2775.46,0.05600
2769.68,0.05588
2763.89,0.05614
2758.11,0.05623
2752.32,0.05610
2746.53,0.05609
2740.75,0.05619
2734.96,0.05620
2729.17,0.05643
2723.39,0.05646
2717.6,0.05659
2711.82,0.05640
2706.03,0.05688
2700.24,0.05686
2694.46,0.05736
2688.67,0.05730
2682.88,0.05779
2677.1,0.05802
2671.31,0.05769
2665.53,0.05843
2659.74,0.05890
2653.95,0.05919
2648.17,0.05953
2642.38,0.05928
2636.59,0.05969
2630.81,0.05997
2625.02,0.05995
2619.24,0.06008
2613.45,0.05989
2607.66,0.06045
2601.88,0.06040
2596.09,0.05999
2590.3,0.06029
2584.52,0.06035
2578.73,0.06073
2572.95,0.06043
2567.16,0.06078
2561.37,0.06067
2555.59,0.06038
2549.8,0.06066
2544.02,0.06096
2538.23,0.06125
2532.44,0.06146
2526.66,0.06157
2520.87,0.06201
2515.08,0.06236
2509.3,0.06258
2503.51,0.06302
2497.73,0.06289
2491.94,0.06351
2486.15,0.06385
2480.37,0.06443
2474.58,0.06461
2468.79,0.06513
2463.01,0.06586
2457.22,0.06581
2451.44,0.06620
2445.65,0.06612
2439.86,0.06609
2434.08,0.06589
2428.29,0.06592
2422.5,0.06617
2416.72,0.06696
2410.93,0.06704
2405.15,0.06776
2399.36,0.06813
2393.57,0.06788
2387.79,0.06809
2382,0.06860
2376.21,0.06847
2370.43,0.06811
2364.64,0.06835
2358.86,0.06869
2353.07,0.06885
2347.28,0.06803
2341.5,0.06845
2335.71,0.06849
2329.92,0.06848
2324.14,0.06896
2318.35,0.06970
2312.57,0.07044
2306.78,0.07105
2300.99,0.07142
2295.21,0.07154
2289.42,0.07212
2283.63,0.07274
2277.85,0.07292
2272.06,0.07326
2266.28,0.07432
2260.49,0.07450
2254.7,0.07432
2248.92,0.07431
2243.13,0.07439
2237.34,0.07477
2231.56,0.07439
2225.77,0.07437
2219.99,0.07445
2214.2,0.07491
2208.41,0.07506
2202.63,0.07498
2196.84,0.07454
2191.05,0.07360
2185.27,0.07272
2179.48,0.07253
2173.7,0.07184
2167.91,0.07077
2162.12,0.06953
2156.34,0.06829
2150.55,0.06768
2144.76,0.06670
2138.98,0.06557
2133.19,0.06501
2127.41,0.06432
2121.62,0.06379
2115.83,0.06347
2110.05,0.06266
2104.26,0.06249
2098.47,0.06186
2092.69,0.06142
2086.9,0.06112
2081.12,0.06096
2075.33,0.06123
2069.54,0.06100
2063.76,0.06110
2057.97,0.06122
2052.19,0.06133
2046.4,0.06163
2040.61,0.06164
2034.83,0.06150
2029.04,0.06098
2023.25,0.06055
2017.47,0.06046
2011.68,0.06019
2005.9,0.06059
2000.11,0.06001
1994.32,0.05986
1988.54,0.05997
1982.75,0.05968
1976.96,0.05938
1971.18,0.05914
1965.39,0.05915
1959.61,0.05848
1953.82,0.05876
1948.03,0.05886
1942.25,0.05954
1936.46,0.06007
1930.67,0.06027
1924.89,0.06092
1919.1,0.06069
1913.32,0.05991
1907.53,0.05928
1901.74,0.05869
1895.96,0.05751
1890.17,0.05670
1884.38,0.05655
1878.6,0.05600
1872.81,0.05604
1867.03,0.05573
1861.24,0.05502
1855.45,0.05465
1849.67,0.05397
1843.88,0.05351
1838.09,0.05257
1832.31,0.05160
1826.52,0.05059
1820.74,0.04927
1814.95,0.04841
1809.16,0.04727
1803.38,0.04644
1797.59,0.04580
1791.8,0.04456
1786.02,0.04411
1780.23,0.04329
1774.45,0.04249
1768.66,0.04084
1762.87,0.03925
1757.09,0.03680
1751.3,0.03372
1745.51,0.03268
1739.73,0.03782
1733.94,0.04875
1728.16,0.06006
1722.37,0.06739
1716.58,0.07017
1710.8,0.06801
1705.01,0.06541
1699.22,0.06303
1693.44,0.06083
1687.65,0.06033
1681.87,0.05889
1676.08,0.05846
1670.29,0.05803
1664.51,0.05742
1658.72,0.05756
1652.93,0.05711
1647.15,0.05737
1641.36,0.05582
1635.58,0.05596
1629.79,0.05567
1624,0.05554
1618.22,0.05529
1612.43,0.05520
1606.64,0.05530
1600.86,0.05512
1595.07,0.05514
1589.29,0.05486
1583.5,0.05427
1577.71,0.05385
1571.93,0.05392
1566.14,0.05367
1560.35,0.05339
1554.57,0.05308
1548.78,0.05266
1543,0.05234
1537.21,0.05238
1531.42,0.05179
1525.64,0.05099
1519.85,0.04973
1514.07,0.04897
1508.28,0.05095
1502.49,0.05188
1496.71,0.05141
1490.92,0.05024
1485.13,0.04858
1479.35,0.04748
1473.56,0.04705
1467.78,0.04774
1461.99,0.04865
1456.2,0.04885
1450.42,0.04922
1444.63,0.05035
1438.84,0.05094
1433.06,0.05061
1427.27,0.04985
1421.49,0.04856
1415.7,0.04777
1409.91,0.04824
1404.13,0.04887
1398.34,0.04856
1392.55,0.04817
1386.77,0.04864
1380.98,0.04880
1375.2,0.04902
1369.41,0.04893
1363.62,0.04883
1357.84,0.04802
1352.05,0.04728
1346.26,0.04718
1340.48,0.04654
1334.69,0.04576
1328.91,0.04541
1323.12,0.04467
1317.33,0.04460
1311.55,0.04363
1305.76,0.04267
1299.97,0.04256
1294.19,0.04280
1288.4,0.04270
1282.62,0.04195
1276.83,0.04153
1271.04,0.04235
1265.26,0.04296
1259.47,0.04328
1253.68,0.04435
1247.9,0.04584
1242.11,0.04688
1236.33,0.04727
1230.54,0.04777
1224.75,0.04773
1218.97,0.04773
1213.18,0.04765
1207.39,0.04749
1201.61,0.04830
1195.82,0.04928
1190.04,0.05057
1184.25,0.05229
1178.46,0.05467
1172.68,0.05634
1166.89,0.05909
1161.1,0.06243
1155.32,0.06527
1149.53,0.06713
1143.75,0.06657
1137.96,0.06541
1132.17,0.06431
1126.39,0.06525
1120.6,0.06656
1114.81,0.06901
1109.03,0.07111
1103.24,0.07374
1097.46,0.07500
1091.67,0.07573
1085.88,0.07676
1080.1,0.07776
1074.31,0.07948
1068.52,0.08039
1062.74,0.08131
1056.95,0.08147
1051.17,0.08163
1045.38,0.08125
1039.59,0.08127
1033.81,0.08134
1028.02,0.08118
1022.24,0.08057
1016.45,0.07935
1010.66,0.07794
1004.88,0.07736
999.09,0.07574
993.304,0.07452
987.518,0.07446
981.731,0.07433
975.945,0.07460
970.159,0.07419
964.373,0.07474
958.586,0.07451
952.8,0.07437
947.014,0.07314
941.228,0.07233
935.441,0.07289
929.655,0.07220
923.869,0.07206
918.083,0.07102
912.297,0.07137
906.51,0.07065
900.724,0.07041
894.938,0.07036
889.152,0.07072
883.365,0.06998
877.579,0.06960
871.793,0.06999
866.007,0.06867
860.22,0.06807
854.434,0.06824
848.648,0.06627
842.862,0.06590
837.075,0.06586
831.289,0.06591
825.503,0.06610
819.717,0.06600
813.931,0.06588
808.144,0.06778
802.358,0.06866
796.572,0.06916
790.786,0.06932
784.999,0.06847
779.213,0.06880
773.427,0.06841
767.641,0.06840
761.854,0.06790
756.068,0.06818
750.282,0.06734
744.496,0.06784
738.709,0.06791
732.923,0.06865
727.137,0.06952
721.351,0.06999
715.565,0.06966
709.778,0.06754
703.992,0.06758
698.206,0.06935
692.42,0.07028
686.633,0.07158
680.847,0.07317
675.061,0.07403
669.275,0.07293
663.488,0.07174
657.702,0.07064
651.916,0.06802
646.13,0.06900
640.343,0.06722
634.557,0.06407
628.771,0.06487
622.985,0.06465
617.198,0.06616
611.412,0.06551
605.626,0.06701
599.84,0.06408