File: 01_Data/Latex_Pillow_Foam/Cone/Latex_Pillow_Foam_Cone_HF75Scan_230628_R2.csv
Names,Time,Stack TC,Smoke TC,Exh Press,Smoke Comp,Smoke Meas,CO Meter,CO2 Meter,O2 Meter,Sample Mass,Ext Coeff,Start Test,Flame Verif
Chan Gain,,500,500,1,1,1,1,1,1,1,1,1.0,1.0
Offset,,0,0,0.13804,0,0,0,0,0,0,0,0.0,0.0
Gain,,1,1,25.011,12.9677,71.848,1,1,1,1.00091,0.969894,1.0,1.0
Units,sec,C,C,Pa,%,%,%,%,%,g,/m,,
Baseline,,63.722,66.4564,153.489,99.5642,99.6315,0.00069286,0.0405223,20.9369,-445.418,-0.00561367,,
2,0.25,62.0099,63.7163,149.084,99.9106,99.4992,0.000692147,0.04332,20.9372,67.7619,0.0351055,1.0,0.0
4,0.75,61.8888,63.3484,151.284,99.9348,99.2471,0.00067292,0.0433184,20.9372,67.7319,0.0587489,1.0,0.0
6,1.25,61.9415,64.1182,161.484,99.9716,95.8748,0.000647775,0.0433172,20.9371,67.7119,0.35599,1.0,0.0
8,1.75,61.8199,63.6308,145.786,99.9909,89.7135,0.000627409,0.0433015,20.9371,67.6818,0.922745,0.0,1.0
10,2.25,61.8641,63.9214,138.194,100.011,72.565,0.000610911,0.0432757,20.9371,67.5517,2.72927,0.0,1.0
12,2.75,61.8073,64.8548,126.273,100.041,56.8066,0.000592765,0.043306,20.9371,67.3916,4.81481,0.0,1.0
14,3.25,62.1968,65.7906,133.192,100.047,50.2879,0.000575577,0.0434068,20.9371,67.2314,5.85235,0.0,1.0
16,3.75,63.2983,67.5066,129.057,100.097,48.9855,0.000573337,0.043434,20.9371,67.3916,6.07987,0.0,1.0
18,4.25,64.3121,69.0463,110.192,100.091,48.0865,0.000569506,0.0436334,20.9371,67.2715,6.23689,0.0,1.0
20,4.75,65.0122,71.1251,117.063,100.119,49.0381,0.000587942,0.043795,20.9371,66.9011,6.07255,0.0,1.0
22,5.25,66.1494,73.2188,123.85,100.131,43.4052,0.000602874,0.0441905,20.9369,66.8911,7.1117,0.0,1.0
24,5.75,67.7344,75.4462,117.727,100.153,42.3133,0.000638085,0.04475,20.9363,66.721,7.33035,0.0,1.0
26,6.25,68.2679,77.4402,112.804,100.163,41.4516,0.000650382,0.0449653,20.9361,66.5008,7.50624,0.0,1.0
28,6.75,69.4644,80.1775,105.048,100.187,35.8078,0.000674561,0.0453334,20.9359,66.3606,8.75351,0.0,1.0
30,7.25,71.2679,83.2156,102.243,100.201,34.5076,0.000696983,0.0458128,20.9357,66.2605,9.0694,0.0,0.0
32,7.75,72.8665,85.8236,107.693,100.209,35.4942,0.000722081,0.046201,20.935,66.0604,8.83022,0.0,0.0
34,8.25,74.6422,88.8192,101.613,100.228,34.3935,0.000748652,0.0465155,20.9345,65.9603,9.09984,0.0,0.0
36,8.75,76.2212,91.7706,97.5929,100.225,34.4878,0.000770174,0.050211,20.9334,65.8602,9.07625,0.0,0.0
38,9.25,77.8125,94.7006,97.1181,100.264,35.0755,0.000867235,0.0532043,20.9319,65.6199,8.93587,0.0,0.0
40,9.75,79.4213,97.7061,105.986,100.285,34.661,0.00101752,0.0556288,20.9302,65.4698,9.03876,0.0,0.0
42,10.25,81.4461,100.951,106.781,100.28,33.6963,0.00134299,0.0816228,20.9289,65.4198,9.27849,0.0,0.0
44,10.75,83.2802,103.948,100.619,100.319,32.3127,0.00179,0.102678,20.9278,65.2096,9.63851,0.0,0.0
46,11.25,84.3332,106.216,100.769,100.315,32.4158,0.00215207,0.119733,20.9256,65.0594,9.61109,0.0,0.0
48,11.75,86.2733,109.31,104.549,100.325,29.9118,0.00310869,0.183191,20.9238,64.8893,10.2958,0.0,0.0
50,12.25,88.1801,112.202,105.275,100.334,35.6828,0.00448055,0.234593,20.9197,64.7592,8.79568,0.0,0.0
52,12.75,89.9865,115.156,95.7801,100.342,30.4073,0.00621665,0.313418,20.9141,64.589,10.1575,0.0,0.0
54,13.25,91.6182,117.662,97.5181,100.34,32.3171,0.0081853,0.377266,20.8937,64.4489,9.63914,0.0,0.0
56,13.75,93.468,120.534,100.986,100.359,30.62,0.0105506,0.467689,20.8629,64.2687,10.0997,0.0,0.0
58,14.25,94.9666,122.927,98.8912,100.355,32.5408,0.0131602,0.540932,20.775,64.1586,9.58167,0.0,0.0
60,14.75,96.5601,125.93,102.355,100.372,31.7909,0.0161841,0.639485,20.7038,63.9985,9.78153,0.0,0.0
62,15.25,97.798,128.56,98.3218,100.383,30.3964,0.0194527,0.719313,20.6008,63.8183,10.164,0.0,0.0
64,15.75,99.5247,130.615,109.61,100.393,32.1242,0.0221003,0.807642,20.4767,63.6982,9.69452,0.0,0.0
66,16.25,101.032,132.592,93.5521,100.382,32.3303,0.0242448,0.900491,20.3761,63.5481,9.63923,0.0,0.0
68,16.75,102.37,135.114,102.628,100.394,29.3242,0.0288772,0.975699,20.2601,63.3979,10.4705,0.0,0.0
70,17.25,103.649,137.554,94.8718,100.389,30.0105,0.0326294,1.05285,20.1351,63.1777,10.2732,0.0,0.0
72,17.75,105.812,139.949,96.0946,100.409,32.8434,0.0373456,1.12994,20.0338,62.9775,9.50755,0.0,0.0
74,18.25,107.555,141.356,95.8809,100.392,31.8896,0.0411657,1.20442,19.8853,62.8674,9.75681,0.0,0.0
76,18.75,108.676,143.986,98.3035,100.392,28.3046,0.0451387,1.27557,19.765,62.7673,10.7714,0.0,0.0
78,19.25,109.835,146.056,101.472,100.374,29.5193,0.0491476,1.34045,19.5975,62.5872,10.4124,0.0,0.0
80,19.75,111.05,148.577,83.1189,100.397,28.3594,0.0529302,1.39953,19.4618,62.377,10.7554,0.0,0.0
82,20.25,113.256,150.509,109.574,100.368,30.1004,0.0564759,1.45282,19.2867,62.2669,10.246,0.0,0.0
84,20.75,113.842,152.47,99.7308,100.39,28.3704,0.0598106,1.5009,19.122,62.1468,10.7515,0.0,0.0
86,21.25,115.815,154.37,92.0164,100.38,28.7804,0.062928,1.5439,18.968,61.9466,10.6286,0.0,0.0
88,21.75,117.005,156.124,109.837,100.37,30.3503,0.0658107,1.58238,18.8433,61.8365,10.1758,0.0,0.0
90,22.25,118.148,157.798,110.024,100.372,32.3281,0.0684678,1.61356,18.7166,61.6463,9.6389,0.0,0.0
92,22.75,119.128,159.633,91.9515,100.365,30.0193,0.0706199,1.64511,18.6139,61.4862,10.2687,0.0,0.0
94,23.25,120.483,161.355,104.325,100.348,29.3571,0.0731059,1.67067,18.5207,61.3761,10.457,0.0,0.0
96,23.75,122.326,162.89,91.4974,100.37,27.1096,0.0751195,1.69355,18.4362,61.1959,11.1365,0.0,0.0
98,24.25,123.158,164.861,96.0816,100.334,30.9402,0.0772485,1.71405,18.3598,61.0057,10.0091,0.0,0.0
100,24.75,124.259,166.177,103.732,100.331,29.7386,0.078973,1.73195,18.2908,60.8756,10.3458,0.0,0.0
102,25.25,126.092,167.679,96.709,100.341,27.7806,0.0807818,1.74761,18.2288,60.7455,10.9261,0.0,0.0
104,25.75,126.608,168.826,92.4866,100.325,27.5591,0.0822469,1.76157,18.1732,60.5553,10.9929,0.0,0.0
106,26.25,127.806,170.781,93.1544,100.31,31.9948,0.0836615,1.77401,18.1281,60.5153,9.72187,0.0,0.0
108,26.75,129.129,172.126,91.205,100.289,28.8594,0.0850125,1.78532,18.0818,60.3051,10.5975,0.0,0.0
110,27.25,129.718,173.62,101.335,100.313,31.2405,0.0864742,1.79559,18.0408,60.155,9.92507,0.0,0.0
112,27.75,131.066,175.009,93.3903,100.272,27.0855,0.0876582,1.80447,18.0045,59.9648,11.1358,0.0,0.0
114,28.25,132.044,176.216,94.7695,100.277,25.9848,0.0888205,1.81217,17.9751,59.8046,11.4892,0.0,0.0
116,28.75,133.121,177.151,102.169,100.249,27.8814,0.0899449,1.81841,17.9472,59.6245,10.8874,0.0,0.0
118,29.25,134.133,178.832,93.3926,100.248,25.941,0.0908557,1.8235,17.9247,59.5144,11.5011,0.0,0.0
120,29.75,134.91,180.076,103.368,100.226,27.5679,0.0918002,1.82762,17.9034,59.3242,10.9817,0.0,0.0
122,30.25,135.644,181.316,94.694,100.223,27.1403,0.0927514,1.83165,17.8834,59.1941,11.1144,0.0,0.0
124,30.75,136.915,182.537,98.4111,100.191,26.8378,0.0936048,1.83554,17.8672,58.9639,11.2071,0.0,0.0
126,31.25,138.205,183.635,96.7136,100.182,27.0263,0.0943708,1.83982,17.8497,58.8237,11.1468,0.0,0.0
128,31.75,139.247,184.633,98.3981,100.165,24.6999,0.0950093,1.84431,17.8355,58.6236,11.9111,0.0,0.0
130,32.25,139.777,186.004,98.505,100.152,28.309,0.0955429,1.84925,17.8235,58.4834,10.7497,0.0,0.0
132,32.75,140.876,187.386,108.472,100.116,28.1402,0.0959512,1.85443,17.8138,58.3633,10.7976,0.0,0.0
134,33.25,141.885,188.604,95.7725,100.113,25.7261,0.0962605,1.85862,17.806,58.1531,11.5604,0.0,0.0
136,33.75,142.553,189.528,101.454,100.082,27.9253,0.096511,1.86253,17.7983,58.0831,10.8599,0.0,0.0
138,34.25,143.271,190.841,102.823,100.078,27.9209,0.0966338,1.86616,17.7921,57.9329,10.8609,0.0,0.0
140,34.75,144.048,191.156,101.347,100.042,26.8312,0.0966611,1.86838,17.7856,57.7428,11.1966,0.0,0.0
142,35.25,145.083,192.133,97.9471,100.048,27.3048,0.0966139,1.86953,17.7804,57.5626,11.0481,0.0,0.0
144,35.75,145.666,192.248,101.254,99.9993,25.2963,0.0965131,1.87047,17.773,57.4425,11.6941,0.0,0.0
146,36.25,146.527,193.239,98.8386,99.9779,28.3792,0.0964315,1.87137,17.767,57.2923,10.7139,0.0,0.0
148,36.75,147.076,194.254,94.42,99.9498,25.6581,0.0963654,1.87224,17.7622,57.1422,11.569,0.0,0.0
150,37.25,148.083,195.457,100.083,99.9288,27.1162,0.0961569,1.87294,17.7583,56.962,11.097,0.0,0.0
152,37.75,148.727,196.531,99.1912,99.9055,24.8359,0.0959881,1.8761,17.7549,56.8319,11.8424,0.0,0.0
154,38.25,149.484,196.862,97.9142,99.9276,27.1206,0.0958551,1.87866,17.7519,56.6918,11.0955,0.0,0.0
156,38.75,150.465,197.288,96.3205,99.9407,27.7696,0.0957508,1.88275,17.7495,56.6217,10.8954,0.0,0.0
158,39.25,150.847,198.398,99.6881,99.9411,26.1361,0.0957317,1.88788,17.7454,56.3615,11.4113,0.0,0.0
160,39.75,151.212,198.577,102.443,99.9415,24.4105,0.0957751,1.89328,17.742,56.2714,11.9924,0.0,0.0
162,40.25,152.227,199.673,98.9118,99.9605,25.805,0.0958958,1.89878,17.7393,56.1213,11.5214,0.0,0.0
164,40.75,152.808,200.162,105.832,99.9751,24.1737,0.0960706,1.90269,17.7371,56.0312,12.0782,0.0,0.0
166,41.25,153.467,200.866,105.778,99.9747,26.2326,0.0962122,1.90538,17.7299,55.9111,11.3828,0.0,0.0
168,41.75,153.656,201.41,98.028,99.9902,27.9582,0.0964519,1.90505,17.7242,55.7509,10.8421,0.0,0.0
170,42.25,154.49,202.061,92.4515,100.006,28.3178,0.0966528,1.90252,17.7133,55.5608,10.7347,0.0,0.0
172,42.75,155.176,202.818,91.0165,100.027,29.4557,0.0968215,1.90048,17.7045,55.3806,10.4013,0.0,0.0
174,43.25,155.813,203.43,97.8944,100.029,31.8742,0.0969581,1.89425,17.6973,55.2104,9.7301,0.0,0.0
176,43.75,156.358,203.974,100.097,100.051,28.5633,0.0969915,1.8892,17.6916,55.0803,10.665,0.0,0.0
178,44.25,157.206,204.707,98.6867,100.054,27.1776,0.0969491,1.88485,17.6869,54.9502,11.0884,0.0,0.0
180,44.75,157.95,205.602,98.4523,100.078,26.3291,0.0969148,1.8811,17.6831,54.8301,11.3603,0.0,0.0
182,45.25,158.01,205.154,108.281,100.082,28.5984,0.0967316,1.87692,17.68,54.7,10.6573,0.0,0.0
184,45.75,158.378,206.025,100.755,100.116,30.4139,0.0965832,1.87252,17.6886,54.4898,10.1365,0.0,0.0
186,46.25,159.244,205.767,100.726,100.12,27.1776,0.0962794,1.86896,17.6956,54.3396,11.094,0.0,0.0
188,46.75,159.335,206.488,94.5574,100.146,28.1424,0.0960333,1.86247,17.7022,54.2496,10.7995,0.0,0.0
190,47.25,159.332,206.355,98.4272,100.15,26.6075,0.0956242,1.85722,17.7083,54.1495,11.2769,0.0,0.0
192,47.75,160.254,206.965,106.849,100.174,28.0634,0.0952928,1.84984,17.7145,53.9993,10.8257,0.0,0.0
194,48.25,160.536,207.188,100.408,100.197,30.3525,0.094953,1.84386,17.7205,53.8492,10.1606,0.0,0.0
196,48.75,160.662,207.681,98.9095,100.229,25.4871,0.0946133,1.8358,17.7254,53.7091,11.6497,0.0,0.0
198,49.25,161.634,208.464,92.1668,100.236,25.4345,0.0942979,1.82927,17.7334,53.4989,11.6678,0.0,0.0
200,49.75,161.87,209.02,98.4668,100.271,23.5751,0.094006,1.82398,17.7398,53.3888,12.3166,0.0,0.0
202,50.25,162.739,209.03,102.753,100.258,26.9693,0.0937696,1.81654,17.7481,53.2286,11.1712,0.0,0.0
204,50.75,163.007,210.059,92.4362,100.291,23.426,0.0935444,1.8105,17.7575,53.0284,12.3724,0.0,0.0
206,51.25,162.901,210.908,97.27,100.306,22.3692,0.0933316,1.80302,17.7652,52.8683,12.7663,0.0,0.0
208,51.75,164.191,211.335,102.778,100.346,26.818,0.0930957,1.79463,17.7753,52.6781,11.2265,0.0,0.0
210,52.25,165.065,212.136,97.6685,100.342,23.2177,0.0928473,1.78557,17.7836,52.528,12.4527,0.0,0.0
212,52.75,165.244,212.81,102.895,100.374,21.2641,0.0925445,1.7762,17.796,52.3979,13.2032,0.0,0.0
214,53.25,165.672,213.362,91.4356,100.383,21.8079,0.0922077,1.76642,17.8061,52.2177,12.9891,0.0,0.0
216,53.75,166.935,214.114,96.3991,100.403,22.6498,0.0918207,1.75653,17.8178,52.0676,12.6685,0.0,0.0
218,54.25,166.602,214.666,90.9852,100.424,22.4108,0.0914045,1.74709,17.8273,51.8574,12.7606,0.0,0.0
220,54.75,167.8,216.269,104.485,100.443,22.2442,0.0909739,1.73816,17.8461,51.8173,12.8257,0.0,0.0
222,55.25,168.327,216.909,92.6866,100.459,20.705,0.0905411,1.73119,17.8613,51.5571,13.4371,0.0,0.0
224,55.75,169.415,218.092,103.076,100.491,20.6524,0.0901905,1.72578,17.8736,51.477,13.4615,0.0,0.0
226,56.25,169.934,218.574,95.4595,100.499,21.9723,0.0898576,1.7214,17.8898,51.2668,12.9351,0.0,0.0
228,56.75,170.215,218.613,106.858,100.534,24.7833,0.089544,1.71784,17.9029,51.2368,11.9137,0.0,0.0
230,57.25,171.407,218.994,102.7,100.533,25.1231,0.08929,1.72543,17.9165,51.0266,11.7978,0.0,0.0
232,57.75,170.592,219.321,106.832,100.556,23.38,0.0890842,1.73157,17.9303,50.9465,12.4115,0.0,0.0
234,58.25,171.296,218.952,109.183,100.563,28.0152,0.0892164,1.74141,17.9414,50.8965,10.8734,0.0,0.0
236,58.75,171.494,218.712,100.206,100.594,27.7367,0.0895237,1.75375,17.9506,50.7664,10.9609,0.0,0.0
238,59.25,171.265,218.32,104.868,100.604,26.0901,0.0899526,1.76375,17.958,50.6763,11.4825,0.0,0.0
240,59.75,171.536,217.029,118.923,100.628,28.2958,0.0903,1.77993,17.9641,50.5762,10.794,0.0,0.0
242,60.25,171.405,215.626,119.926,100.634,29.083,0.0911258,1.79303,17.9689,50.5162,10.5611,0.0,0.0
244,60.75,170.221,214.241,121.176,100.645,35.3429,0.0917946,1.81462,17.9621,50.4261,8.90347,0.0,0.0
246,61.25,169.976,213.142,127.745,100.656,42.0853,0.0926481,1.83211,17.947,50.336,7.41895,0.0,0.0
248,61.75,169.432,211.271,126.632,100.664,40.8026,0.0936198,1.85184,17.927,50.346,7.68295,0.0,0.0
250,62.25,167.789,208.822,130.74,100.675,54.1381,0.0946943,1.87282,17.9038,50.356,5.27789,0.0,0.0
252,62.75,167.453,207.416,130.018,100.687,68.0197,0.0958232,1.89608,17.8783,50.336,3.33695,0.0,0.0
254,63.25,166.532,205.037,131.925,100.69,82.3353,0.097219,1.91493,17.8515,50.356,1.71216,0.0,0.0
256,63.75,166.066,203.244,137.485,100.715,91.4128,0.0983495,1.92746,17.8298,50.366,0.824467,0.0,0.0
258,64.25,164.597,200.706,137.635,100.725,94.1295,0.0992653,1.93515,17.7923,50.396,0.576147,0.0,0.0
260,64.75,163.511,198.421,142.136,100.737,97.2013,0.100282,1.94138,17.7619,50.346,0.303934,0.0,0.0
262,65.25,162.369,196.22,143.186,100.731,97.9622,0.101106,1.92492,17.7335,50.296,0.237131,0.0,0.0
264,65.75,161.164,193.702,143.794,100.742,99.4356,0.101598,1.91158,17.7072,50.2659,0.111087,0.0,0.0
266,66.25,160.367,191.304,142.406,100.752,100.115,0.101839,1.87257,17.6858,50.2759,0.0539632,0.0,0.0
268,66.75,158.443,189.135,143.47,100.753,101.117,0.101137,1.84097,17.6685,50.2859,-0.0307003,0.0,0.0
270,67.25,156.642,186.366,147.221,100.781,100.396,0.100569,1.79338,17.6545,50.296,0.0325517,0.0,0.0
272,67.75,155.585,184.556,146.722,100.767,101.025,0.0991603,1.73504,17.6432,50.306,-0.0217787,0.0,0.0
274,68.25,154.498,182.454,146.141,100.78,100.977,0.0971664,1.66291,17.634,50.346,-0.0166458,0.0,0.0
276,68.75,153.717,180.557,144.309,100.781,101.38,0.0955514,1.58208,17.6689,50.346,-0.0504706,0.0,0.0
278,69.25,152.499,178.014,146.055,100.792,101.117,0.0921155,1.51661,17.6971,50.296,-0.0273918,0.0,0.0
280,69.75,151.517,176.447,143.161,100.782,101.047,0.0893324,1.41657,17.7471,50.326,-0.0223893,0.0,0.0
282,70.25,149.739,174.064,148.094,100.793,102.119,0.085682,1.33554,17.812,50.326,-0.111254,0.0,0.0
284,70.75,149.358,173.008,142.483,100.802,101.052,0.0814687,1.24658,17.8645,50.2859,-0.0210217,0.0,0.0
286,71.25,148.85,170.636,144.077,100.805,100.429,0.0780559,1.15352,17.9866,50.296,0.0317697,0.0,0.0
288,71.75,147.474,169.27,140.91,100.784,100.523,0.0723388,1.07814,18.0854,50.306,0.0220488,0.0,0.0
290,72.25,146.318,167.657,143.29,100.809,100.762,0.0677079,0.979443,18.2073,50.2759,0.0039829,0.0,0.0
292,72.75,145.595,165.893,144.124,100.814,100.922,0.0620169,0.899499,18.3437,50.2859,-0.00912064,0.0,0.0
294,73.25,144.467,164.63,146.019,100.807,101.302,0.0574072,0.811829,18.4955,50.2759,-0.0416052,0.0,0.0
296,73.75,143.894,162.516,141.609,100.794,102.352,0.0521621,0.740816,18.6557,50.296,-0.130461,0.0,0.0
298,74.25,142.457,161.206,150.404,100.805,101.227,0.0479136,0.666451,18.8266,50.306,-0.0355096,0.0,0.0
300,74.75,141.679,160.218,150.028,100.796,101.801,0.0433396,0.606216,19.002,50.316,-0.0844238,0.0,0.0
302,75.25,140.749,158.082,145.87,100.795,102.317,0.0396346,0.544598,19.1777,50.296,-0.127444,0.0,0.0
304,75.75,139.604,156.964,145.25,100.803,101.63,0.0362588,0.494687,19.3503,50.326,-0.0695508,0.0,0.0
306,76.25,139.212,155.672,146.13,100.81,101.725,0.033187,0.445882,19.5105,50.316,-0.0768717,0.0,0.0
308,76.75,138.115,154.29,143.076,100.791,101.058,0.0304823,0.406351,19.6585,50.2559,-0.0225103,0.0,0.0
310,77.25,137.337,152.718,143.626,100.803,101.444,0.0280965,0.370916,19.7784,50.2359,-0.0539346,0.0,0.0
312,77.75,136.666,151.611,146.025,100.78,101.181,0.026164,0.33914,19.8902,50.1758,-0.03381,0.0,0.0
314,78.25,136.027,150.614,145.297,100.785,100.352,0.0244326,0.313402,19.9941,50.1558,0.0366355,0.0,0.0
316,78.75,134.702,149.346,149.039,100.797,101.166,0.0228807,0.289734,20.0782,50.2059,-0.031083,0.0,0.0
318,79.25,133.906,148.08,145.414,100.782,100.837,0.0210877,0.25877,20.1866,50.296,-0.00461389,0.0,0.0
320,79.75,133.265,146.867,146.98,100.763,101.466,0.0206054,0.250441,20.2228,50.1658,-0.0591809,0.0,0.0
322,80.25,132.494,145.119,145.357,100.757,100.981,0.0191216,0.230126,20.3112,50.2459,-0.0189204,0.0,0.0
324,80.75,131.825,144.592,148.105,100.756,101.339,0.0187224,0.22224,20.342,50.2359,-0.0490455,0.0,0.0
326,81.25,130.878,143.4,147.14,100.745,101.262,0.0179406,0.208756,20.3946,50.2459,-0.0435689,0.0,0.0
328,81.75,130.034,142.025,145.931,100.724,100.065,0.0172178,0.195587,20.4373,50.2059,0.0558768,0.0,0.0
330,82.25,129.806,141.622,149.802,100.727,101.065,0.0165544,0.18492,20.4847,50.1858,-0.0284435,0.0,0.0
332,82.75,129.219,140.054,145.811,100.721,101.223,0.0159467,0.174322,20.5282,50.2359,-0.0422912,0.0,0.0
334,83.25,128.232,139.086,149.466,100.706,101.558,0.0153754,0.165738,20.5681,50.2359,-0.0716447,0.0,0.0
336,83.75,127.626,138.319,144.348,100.687,102.227,0.0148414,0.157805,20.6004,50.2559,-0.129123,0.0,0.0
338,84.25,127.229,137.671,148.015,100.691,101.905,0.0143208,0.150498,20.635,50.2459,-0.101955,0.0,0.0
340,84.75,126.113,136.418,141.69,100.671,101.06,0.0138197,0.144579,20.663,50.2359,-0.0328223,0.0,0.0
342,85.25,125.795,135.76,144.754,100.643,101.959,0.0134139,0.137747,20.6876,50.2659,-0.110544,0.0,0.0
344,85.75,124.762,134.85,144.262,100.64,102.402,0.012951,0.132213,20.7092,50.2759,-0.147689,0.0,0.0
346,86.25,124.218,133.456,147.049,100.632,101.894,0.0124554,0.126739,20.7267,50.2759,-0.10599,0.0,0.0
348,86.75,123.9,132.68,146.51,100.606,101.089,0.0119594,0.121412,20.744,50.316,-0.0407084,0.0,0.0
350,87.25,123.415,132.057,152.166,100.583,101.538,0.0114727,0.116379,20.7579,50.326,-0.0803956,0.0,0.0
352,87.75,122.538,131.389,149.867,100.58,101.03,0.0109832,0.111655,20.7724,50.336,-0.0379339,0.0,0.0
354,88.25,121.795,130.225,148.267,100.555,101.328,0.0105009,0.107829,20.7841,50.2759,-0.0651172,0.0,0.0
356,88.75,121.492,129.532,150.582,100.565,101.481,0.0101103,0.103513,20.7952,50.2259,-0.0771905,0.0,0.0
358,89.25,121.108,128.72,149.238,100.535,102.573,0.00959255,0.100016,20.8057,50.2559,-0.170757,0.0,0.0
360,89.75,120.789,127.487,146.036,100.52,101.087,0.0091732,0.0960111,20.8156,50.2459,-0.0477893,0.0,0.0
362,90.25,119.951,127.177,146.998,100.509,101.323,0.00875281,0.0927669,20.825,50.2259,-0.0687011,0.0,0.0
364,90.75,118.988,126.675,145.219,100.495,101.828,0.00833965,0.0896049,20.8327,50.2159,-0.112113,0.0,0.0
366,91.25,118.962,125.138,144.831,100.475,101.753,0.00800498,0.0865628,20.8406,50.1959,-0.107525,0.0,0.0
368,91.75,117.666,124.975,148.148,100.451,101.117,0.00755659,0.0840987,20.847,50.2059,-0.0562355,0.0,0.0
370,92.25,117.574,124.158,151.953,100.452,101.363,0.00719338,0.081104,20.8532,50.1858,-0.0767719,0.0,0.0
372,92.75,117.012,123.601,146.044,100.422,101.238,0.00689919,0.0786784,20.859,50.1658,-0.0688907,0.0,0.0
374,93.25,116.989,122.825,146.965,100.41,101.045,0.0064563,0.0767136,20.8647,50.1558,-0.0536651,0.0,0.0
376,93.75,116.051,122.125,146.384,100.398,100.892,0.00609756,0.0740134,20.8701,50.1658,-0.0417392,0.0,0.0
378,94.25,115.833,121.316,146.954,100.391,102.26,0.00567041,0.0718263,20.8749,50.1558,-0.156909,0.0,0.0
380,94.75,114.929,120.672,146.662,100.367,101.26,0.00532441,0.0694104,20.8793,50.1959,-0.0753945,0.0,0.0
382,95.25,114.905,120.137,145.459,100.356,100.071,0.00493234,0.0674535,20.8835,50.1959,0.0241729,0.0,0.0
384,95.75,113.893,119.805,151.202,100.343,101.652,0.00461477,0.0656033,20.8876,50.2259,-0.11032,0.0,0.0
386,96.25,113.829,118.314,147.224,100.323,100.723,0.00427753,0.0638661,20.8913,50.2459,-0.0337973,0.0,0.0
388,96.75,113.268,118.483,148.37,100.289,101.223,0.00400437,0.0620396,20.8948,50.1858,-0.0788062,0.0,0.0
390,97.25,112.473,117.824,150.757,100.264,100.166,0.00373108,0.0605601,20.8978,50.1858,0.00834086,0.0,0.0
392,97.75,111.92,116.998,146.336,100.237,101.418,0.00350971,0.059178,20.9005,50.1858,-0.0996589,0.0,0.0
394,98.25,111.357,116.604,147.361,100.234,101.352,0.00328812,0.057893,20.9036,50.1658,-0.0943738,0.0,0.0
396,98.75,111.587,115.731,146.165,100.223,101.556,0.00310862,0.0568522,20.9069,50.1758,-0.112381,0.0,0.0
398,99.25,110.947,115.189,145.869,100.192,101.332,0.00296323,0.0556311,20.9096,50.2259,-0.0962451,0.0,0.0
400,99.75,110.628,114.773,147.444,100.175,100.949,0.00279599,0.0546419,20.9118,50.2359,-0.065413,0.0,0.0
402,100.25,109.769,114.116,142.76,100.15,100.845,0.00266052,0.0536939,20.9136,50.2159,-0.058875,0.0,0.0
404,100.75,109.34,114.104,144.466,100.106,101.021,0.00251222,0.0527939,20.9151,50.2259,-0.0774259,0.0,0.0
406,101.25,109.41,113.302,149.707,100.108,101.258,0.00239209,0.0520648,20.917,50.2559,-0.0971103,0.0,0.0
408,101.75,109.239,112.779,144.006,100.074,102.06,0.00226882,0.0512513,20.9185,50.2359,-0.167165,0.0,0.0
410,102.25,108.111,112.15,148.361,100.045,100.043,0.00214558,0.0505923,20.9197,50.2259,0.000152131,0.0,0.0
412,102.75,107.996,111.906,145.694,100.042,100.295,0.00204576,0.0500585,20.921,50.2259,-0.0214996,0.0,0.0
414,103.25,107.92,111.188,146.704,100.007,100.736,0.00196491,0.0493614,20.9222,50.2359,-0.0617656,0.0,0.0
416,103.75,107.414,110.899,151.953,100.001,100.49,0.00185493,0.0487968,20.9229,50.1959,-0.0415385,0.0,0.0
418,104.25,107.146,110.365,147.304,99.9696,100.905,0.00176585,0.048214,20.9232,50.2259,-0.0792116,0.0,0.0
420,104.75,106.647,110.635,147.746,99.9415,100.648,0.00167567,0.047742,20.9234,50.2259,-0.0599448,0.0,0.0
422,105.25,106.289,109.526,149.15,99.9185,100.615,0.00160263,0.0472483,20.9236,50.2259,-0.0591191,0.0,0.0
424,105.75,105.757,109.472,144.561,99.9102,101.269,0.00153146,0.0468484,20.9246,50.2559,-0.114898,0.0,0.0
426,106.25,105.443,108.841,147.216,99.8746,100.205,0.00147381,0.0464951,20.9255,50.2359,-0.0281188,0.0,0.0
428,106.75,105.517,107.909,148.388,99.8639,101.65,0.00142143,0.0461826,20.9262,50.2059,-0.150834,0.0,0.0
430,107.25,104.76,107.524,144.153,99.8461,100.142,0.00137389,0.0458708,20.9267,50.2259,-0.0251455,0.0,0.0
432,107.75,104.803,107.798,147.352,99.8374,100.229,0.00132906,0.0455655,20.9272,50.2259,-0.0333355,0.0,0.0
434,108.25,104.117,107.201,141.646,99.8042,100.624,0.00128706,0.0453183,20.9275,50.2459,-0.0696044,0.0,0.0
436,108.75,103.947,107.092,151.531,99.7943,100.701,0.00125305,0.0450762,20.9278,50.2659,-0.0769336,0.0,0.0
438,109.25,103.793,106.611,141.934,99.7954,99.725,0.0012039,0.0448802,20.9283,50.2459,0.00600405,0.0,0.0
440,109.75,103.116,105.69,150.428,99.7749,100.677,0.0011641,0.0446774,20.9289,50.2259,-0.0765499,0.0,0.0
442,110.25,103.106,105.977,148.729,99.7464,101.148,0.00111388,0.0444736,20.9294,50.2359,-0.118724,0.0,0.0
444,110.75,102.639,105.175,147.287,99.727,100.753,0.0010732,0.0442807,20.9298,50.2259,-0.0871156,0.0,0.0
446,111.25,102.563,104.929,144.253,99.7167,100.626,0.00102467,0.0441245,20.9301,50.2659,-0.0772488,0.0,0.0
448,111.75,102.065,104.569,147.252,99.6985,101.161,0.000985361,0.0439759,20.9303,50.2359,-0.123916,0.0,0.0
450,112.25,101.997,104.171,147.584,99.6969,101.069,0.000946588,0.0438359,20.9305,50.2159,-0.116303,0.0,0.0
452,112.75,101.37,104.03,145.583,99.6878,100.585,0.000908942,0.0437224,20.9307,50.2259,-0.0761912,0.0,0.0
454,113.25,100.559,103.606,146.437,99.6478,101.135,0.000878448,0.0436026,20.9308,50.2259,-0.126026,0.0,0.0
456,113.75,101.181,103.327,150.259,99.6379,100.593,0.000855009,0.0435056,20.9312,50.2259,-0.0811891,0.0,0.0
458,114.25,100.601,102.598,145.552,99.6281,100.642,0.000837158,0.0433978,20.9317,50.2359,-0.0861126,0.0,0.0
460,114.75,100.357,103.165,147.063,99.6003,100.589,0.000829884,0.0432841,20.9321,50.2659,-0.0840289,0.0,0.0
462,115.25,99.9897,101.774,151.656,99.5536,100.392,0.000823992,0.0431846,20.9324,50.2459,-0.0713123,0.0,0.0
464,115.75,99.7174,102.336,149.4,99.5438,100.455,0.000819219,0.0430975,20.9326,50.2559,-0.0775441,0.0,0.0
466,116.25,99.0303,101.909,149.132,99.5252,100.223,0.000815353,0.0430196,20.9329,50.2059,-0.0594265,0.0,0.0
468,116.75,99.0091,100.889,150.189,99.5101,99.9772,0.000809827,0.0429499,20.933,50.2159,-0.0398407,0.0,0.0
470,117.25,99.2194,101.481,144.811,99.4919,99.5496,0.00080535,0.0428788,20.9332,50.2359,-0.00493457,0.0,0.0
472,117.75,98.5574,100.66,146.647,99.4531,100.657,0.000805318,0.0428081,20.9333,50.2159,-0.102361,0.0,0.0
474,118.25,98.2665,100.515,147.698,99.4551,100.201,0.000805291,0.0427434,20.9334,50.2059,-0.0635562,0.0,0.0
476,118.75,98.4144,100.152,147.478,99.4183,100.3,0.000807665,0.0426845,20.9334,50.2059,-0.0750778,0.0,0.0
478,119.25,97.9053,99.882,146.42,99.4231,99.9794,0.000809589,0.0426367,20.9335,50.2159,-0.0474742,0.0,0.0
480,119.75,97.1389,99.8607,145.172,99.3863,100.519,0.000811146,0.0425854,20.9335,50.2159,-0.0964,0.0,0.0
482,120.25,97.1599,99.4828,145.614,99.3958,100.286,0.000812408,0.0425438,20.9336,50.1858,-0.0758929,0.0,0.0
484,120.75,97.2988,99.3049,147.505,99.3574,100.788,0.000818217,0.0425101,20.9336,50.1658,-0.12167,0.0,0.0
486,121.25,96.2636,98.9679,147.513,99.3589,99.4422,0.000826189,0.0423918,20.9338,50.1758,-0.00712581,0.0,0.0
488,121.75,96.3882,98.5426,149.722,99.3194,100.243,0.00082913,0.04236,20.934,50.1959,-0.0787115,0.0,0.0
490,122.25,96.4887,98.5286,151.511,99.3071,100.471,0.000834158,0.0422778,20.9341,50.1959,-0.0990946,0.0,0.0
492,122.75,95.8191,98.3138,147.029,99.2818,100.501,0.000842363,0.0422047,20.9342,50.1858,-0.103864,0.0,0.0
494,123.25,95.9333,97.834,148.286,99.2881,99.9026,0.000847274,0.0421937,20.9343,50.1758,-0.0524966,0.0,0.0
496,123.75,96.0592,97.5038,145.627,99.2541,100.637,0.000844062,0.0421921,20.9344,50.1658,-0.117739,0.0,0.0
498,124.25,95.0084,97.581,150.621,99.262,100.35,0.000842693,0.0421949,20.9344,50.1558,-0.0927418,0.0,0.0
500,124.75,95.2589,97.3738,146.836,99.2244,100.045,0.000840352,0.0421997,20.9344,50.1758,-0.0700871,0.0,0.0
502,125.25,95.0959,96.9308,149.624,99.2003,100.304,0.000830891,0.0422036,20.9345,50.2059,-0.0941307,0.0,0.0
504,125.75,95.0738,96.6638,147.855,99.186,99.6856,0.000816419,0.0421928,20.9344,50.2359,-0.0427442,0.0,0.0
506,126.25,94.3461,96.6637,150.718,99.1654,100.495,0.000799655,0.042184,20.9343,50.2359,-0.113283,0.0,0.0
508,126.75,94.7699,96.5125,150.831,99.1824,100.725,0.000781539,0.0421843,20.9342,50.2359,-0.131291,0.0,0.0
510,127.25,94.4155,96.1963,153.157,99.1421,100.179,0.000766865,0.0421911,20.9345,50.2159,-0.0885144,0.0,0.0
512,127.75,94.246,95.8068,145.212,99.1266,98.5169,0.000744205,0.0421966,20.9348,50.1959,0.0524937,0.0,0.0
514,128.25,93.7387,95.4448,146.343,99.1223,99.8215,0.000725851,0.0421454,20.9351,50.1959,-0.0598059,0.0,0.0
516,128.75,93.5922,95.6636,144.395,99.1092,99.3238,0.000708591,0.042104,20.9353,50.2159,-0.0183995,0.0,0.0
518,129.25,93.4554,95.1777,144.969,99.0871,99.2602,0.00069461,0.0420843,20.9354,50.2059,-0.0148529,0.0,0.0
520,129.75,93.5409,94.9567,147.191,99.0827,100.028,0.000683919,0.0420684,20.9355,50.1758,-0.0807519,0.0,0.0
522,130.25,93.4183,94.8165,147.16,99.0728,99.7996,0.000675828,0.0420681,20.9356,50.1558,-0.062184,0.0,0.0
524,130.75,92.4176,95.0322,144.661,99.055,100.085,0.000671794,0.0420679,20.9357,50.1858,-0.0879779,0.0,0.0
526,131.25,92.7247,94.3226,144.563,99.0526,99.0563,0.000670795,0.042026,20.9357,50.2059,-0.000313905,0.0,0.0
528,131.75,92.3947,94.4827,151.518,99.0404,100.1,0.000674396,0.0419921,20.9356,50.2259,-0.0905402,0.0,0.0
530,132.25,92.6217,94.0274,145.691,99.0384,99.679,0.000681282,0.0419573,20.9355,50.2859,-0.0548532,0.0,0.0
532,132.75,92.1293,94.0075,147.366,99.0265,100.142,0.00068686,0.0419226,20.9355,50.2559,-0.0952696,0.0,0.0
534,133.25,92.1733,93.7845,147.431,99.0162,99.8215,0.000698562,0.0418944,20.9354,50.2559,-0.0689137,0.0,0.0
536,133.75,91.5233,93.9066,146.63,99.0032,99.3874,0.00070804,0.0418569,20.9354,50.2859,-0.0329532,0.0,0.0
538,134.25,91.8297,93.5218,148.964,98.998,100.091,0.000715718,0.0418134,20.9354,50.296,-0.0934329,0.0,0.0
540,134.75,91.5036,93.2472,149.248,98.9957,99.6264,0.000705176,0.0417782,20.9353,50.306,-0.0540331,0.0,0.0
542,135.25,91.3395,93.0361,148.16,98.9925,99.3633,0.000696637,0.0418053,20.9353,50.2659,-0.0318063,0.0,0.0
544,135.75,90.9496,92.6361,144.682,98.9881,99.9882,0.00066938,0.0418272,20.9353,50.2259,-0.0855194,0.0,0.0
546,136.25,91.2231,92.4164,154.076,98.9695,99.2997,0.000647301,0.0418032,20.9353,50.2359,-0.028333,0.0,0.0
548,136.75,91.0452,92.5043,147.029,98.9699,99.269,0.000621044,0.0417838,20.9353,50.2359,-0.0256689,0.0,0.0
550,137.25,90.8714,92.4479,147.359,98.9438,99.5343,0.000599776,0.0417681,20.9353,50.2259,-0.0506216,0.0,0.0
552,137.75,90.3144,91.9556,144.849,98.9699,99.3501,0.000587333,0.0417554,20.9353,50.2659,-0.0326187,0.0,0.0
554,138.25,90.1107,92.3642,150.853,98.9323,99.85,0.000577254,0.0416894,20.9352,50.296,-0.0785549,0.0,0.0
556,138.75,90.1135,92.044,145.627,98.9656,99.6746,0.000576268,0.041636,20.9352,50.2759,-0.060737,0.0,0.0
558,139.25,90.1325,91.6828,146.154,98.9458,100.587,0.000575468,0.0415928,20.9352,50.2159,-0.139941,0.0,0.0
560,139.75,90.1579,91.8976,147.384,98.9454,99.929,0.000579607,0.0415577,20.9352,50.2559,-0.0841544,0.0,0.0
562,140.25,90.4303,91.6165,147.24,98.941,99.3545,0.000582959,0.0415659,20.9352,50.2459,-0.035478,0.0,0.0
564,140.75,89.8237,91.3727,145.112,98.9577,99.2098,0.000585675,0.0416055,20.9352,50.2459,-0.021648,0.0,0.0
566,141.25,89.8929,91.6798,145.717,98.9387,99.8544,0.000598644,0.0416376,20.9352,50.2059,-0.0783839,0.0,0.0
568,141.75,89.8391,91.2236,149.506,98.9288,99.2712,0.000609149,0.0416219,20.9352,50.2159,-0.0293955,0.0,0.0
570,142.25,89.1987,90.9638,151.089,98.9173,99.9925,0.000623643,0.0416091,20.9352,50.2459,-0.0919826,0.0,0.0
572,142.75,89.3361,90.8515,147.001,98.9355,99.4203,0.000635383,0.0415914,20.9352,50.2459,-0.0415853,0.0,0.0
574,143.25,89.0452,91.2009,148.003,98.945,100.008,0.000645522,0.0415706,20.9352,50.2359,-0.0909062,0.0,0.0
576,143.75,88.7793,90.1775,147.391,98.9232,99.6001,0.000654303,0.0415463,20.9352,50.2059,-0.0580126,0.0,0.0
578,144.25,89.1358,90.5485,153.243,98.9078,99.1659,0.000661415,0.0415201,20.9352,50.1858,-0.0221752,0.0,0.0
580,144.75,88.9649,90.1134,148.962,98.9264,99.9092,0.000667175,0.0414915,20.9352,50.2059,-0.0841078,0.0,0.0
582,145.25,88.3023,90.1795,144.94,98.9074,100.653,0.000671842,0.0414618,20.9352,50.2059,-0.148804,0.0,0.0
584,145.75,88.8077,90.1853,143.231,98.9161,99.372,0.000681607,0.0414451,20.9352,50.2159,-0.0391239,0.0,0.0
586,146.25,88.4667,90.2865,147.213,98.9383,99.2361,0.000689517,0.0414381,20.9352,50.2059,-0.0255717,0.0,0.0
588,146.75,87.9017,89.5823,149.735,98.9173,100.313,0.000700715,0.0414324,20.9352,50.1858,-0.119177,0.0,0.0
590,147.25,88.2191,89.2048,146.949,98.9193,100.021,0.000709784,0.041414,20.9352,50.1758,-0.0942369,0.0,0.0
592,147.75,87.5582,89.6972,145.636,98.9232,100.848,0.000717131,0.041399,20.9352,50.1658,-0.163921,0.0,0.0
594,148.25,87.7461,89.3651,150.189,98.9501,100.33,0.000720577,0.0413817,20.9352,50.1858,-0.11784,0.0,0.0
596,148.75,87.6105,89.6467,146.582,98.9327,99.4049,0.000718323,0.041399,20.9352,50.2059,-0.0405102,0.0,0.0
598,149.25,87.3593,89.1504,146.953,98.9596,99.8106,0.000714468,0.0414286,20.935,50.2059,-0.0728435,0.0,0.0
600,149.75,87.6376,89.0628,151.059,98.9466,99.4312,0.000712543,0.0414525,20.9348,50.2159,-0.0415706,0.0,0.0
602,150.25,87.1267,89.0089,145.821,98.9466,99.8829,0.000710984,0.041472,20.9347,50.1458,-0.0801314,0.0,0.0
604,150.75,87.4128,89.029,150.149,98.9347,98.2165,0.000713312,0.0414877,20.9346,50.1358,0.0619855,0.0,0.0
606,151.25,87.4341,88.8227,145.712,98.9379,99.6461,0.000715198,0.0414309,20.9345,50.1558,-0.0606854,0.0,0.0
608,151.75,86.6609,88.9798,149.564,98.9486,99.7338,0.000722501,0.0413945,20.9344,50.1558,-0.0672519,0.0,0.0
610,152.25,86.8938,88.7469,153.03,98.9509,99.3106,0.000724466,0.0414032,20.9344,50.1758,-0.0308713,0.0,0.0
612,152.75,86.701,88.4176,150.317,98.9407,99.4071,0.00073022,0.0414181,20.9343,50.1658,-0.040017,0.0,0.0
614,153.25,86.7749,88.3562,146.875,98.9604,99.4707,0.000734881,0.0414375,20.9343,50.1658,-0.043756,0.0,0.0
616,153.75,86.4509,88.0926,149.486,98.9541,99.2668,0.00074559,0.0414598,20.9342,50.1558,-0.0268419,0.0,0.0
618,154.25,86.6678,88.3785,147.158,98.9537,99.3962,0.000760506,0.0414778,20.9342,50.1658,-0.0379563,0.0,0.0
620,154.75,86.2246,87.8871,146.504,98.9648,99.7886,0.000772587,0.0414229,20.9342,50.2059,-0.0705314,0.0,0.0
622,155.25,86.1092,87.6938,149.788,98.9941,99.9969,0.000793726,0.0413784,20.9342,50.1959,-0.085755,0.0,0.0
624,155.75,86.3443,88.0743,147.207,98.9755,99.7053,0.000821066,0.0413351,20.9342,50.1959,-0.0625063,0.0,0.0
626,156.25,85.7309,87.7331,145.969,98.9834,99.747,0.000843211,0.0412934,20.9342,50.2059,-0.0653793,0.0,0.0
628,156.75,85.8679,87.5306,144.514,98.9834,99.725,0.000861148,0.0412742,20.9341,50.1758,-0.0635092,0.0,0.0
630,157.25,85.5021,87.7088,150.991,98.9818,99.7031,0.000871892,0.0412719,20.9341,50.1959,-0.0617753,0.0,0.0
632,157.75,85.9653,87.5838,151.419,98.9869,99.7996,0.000877189,0.0412846,20.9341,50.2059,-0.0695615,0.0,0.0
634,158.25,85.7224,87.3455,146.614,98.9949,99.3523,0.000877064,0.0413081,20.9341,50.1959,-0.0306637,0.0,0.0
636,158.75,85.3376,87.3078,148.929,98.9834,99.1769,0.00087299,0.0413418,20.9341,50.2059,-0.0166153,0.0,0.0
638,159.25,85.7131,87.0584,148.741,99.0146,100.175,0.000864646,0.0413823,20.9341,50.2159,-0.0990843,0.0,0.0
640,159.75,84.9887,86.7564,147.084,98.996,99.4839,0.000853347,0.0413931,20.9341,50.2159,-0.0418198,0.0,0.0
642,160.25,85.1641,87.1316,152.266,99.036,100.096,0.000842934,0.0413821,20.9341,50.2459,-0.0905417,0.0,0.0
644,160.75,85.3799,87.1664,147.11,99.0162,99.5299,0.000833365,0.0413731,20.9341,50.2259,-0.0440226,0.0,0.0
646,161.25,84.6027,86.8954,149.987,99.0408,99.1265,0.000825614,0.0413103,20.9341,50.2159,-0.00735724,0.0,0.0
648,161.75,85.0705,86.719,149.611,99.036,100.227,0.000819336,0.0412594,20.9341,50.2159,-0.101716,0.0,0.0
650,162.25,84.8763,86.7748,144.995,99.0483,99.3589,0.00082623,0.0412401,20.9341,50.2259,-0.0266369,0.0,0.0
652,162.75,84.7474,86.5534,149.918,99.0364,99.668,0.000831815,0.0412443,20.9341,50.2259,-0.0540882,0.0,0.0
654,163.25,84.8393,86.1689,149.005,99.059,99.429,0.00084952,0.0412476,20.9341,50.2359,-0.0317249,0.0,0.0
656,163.75,84.4402,86.0788,149.852,99.0491,99.0234,0.000863862,0.0412504,20.9341,50.2259,0.00220563,0.0,0.0
658,164.25,84.6119,86.1504,143.636,99.0685,99.2164,0.000888665,0.0412526,20.9341,50.2159,-0.0126907,0.0,0.0
660,164.75,84.3528,85.8547,152.181,99.0673,98.4117,0.00091732,0.0411956,20.9341,50.1959,0.0564914,0.0,0.0
662,165.25,83.8523,85.784,148.178,99.0554,100.025,0.000930709,0.0411803,20.9341,50.1558,-0.08291,0.0,0.0
664,165.75,84.2003,85.9024,144.161,99.0788,99.3172,0.000953605,0.0411819,20.9341,50.1558,-0.0204523,0.0,0.0
666,166.25,84.0382,85.9933,149.025,99.0811,99.3962,0.000977832,0.0411832,20.9341,50.1658,-0.0270067,0.0,0.0
668,166.75,84.159,85.6463,145.919,99.0689,99.5058,0.00100257,0.0411843,20.9341,50.1758,-0.0374388,0.0,0.0
670,167.25,83.938,85.6506,150.677,99.1053,98.9028,0.00102703,0.0411851,20.9341,50.1959,0.0173993,0.0,0.0
672,167.75,83.5567,86.0726,148.23,99.1009,99.3589,0.00105082,0.0411785,20.9341,50.2459,-0.0221168,0.0,0.0
674,168.25,84.0001,85.5934,145.708,99.1152,99.907,0.0010783,0.0411614,20.9341,50.2459,-0.0677017,0.0,0.0
676,168.75,83.3784,85.7047,145.718,99.1077,99.1637,0.0010857,0.0411569,20.9341,50.2559,-0.0048133,0.0,0.0
678,169.25,83.5008,84.996,150.805,99.1227,99.964,0.00109834,0.0411629,20.9341,50.2259,-0.0719101,0.0,0.0
680,169.75,83.6446,85.3397,148.171,99.1318,100.006,0.00110498,0.0411678,20.9341,50.2159,-0.0746742,0.0,0.0
682,170.25,83.5171,85.4432,149.01,99.1274,99.986,0.00111036,0.0411718,20.9341,50.1658,-0.0733677,0.0,0.0
684,170.75,83.3277,85.1304,153.747,99.1401,99.4115,0.00111472,0.041175,20.9341,50.1258,-0.0232588,0.0,0.0
686,171.25,82.8253,84.9286,148.182,99.1421,100.591,0.00111585,0.0411776,20.9341,50.1558,-0.12345,0.0,0.0
688,171.75,83.2653,85.0342,147.194,99.1472,99.5058,0.00111676,0.0411651,20.9341,50.1158,-0.0307125,0.0,0.0
690,172.25,83.3351,85.1423,151.923,99.1544,99.7579,0.00111182,0.0411418,20.9341,50.1158,-0.0516328,0.0,0.0
692,172.75,83.1484,84.76,144.621,99.169,100.076,0.00110271,0.0411376,20.9341,50.1558,-0.0774484,0.0,0.0
694,173.25,82.696,84.8582,148.243,99.1678,100.712,0.00108207,0.0411473,20.9341,50.1458,-0.131437,0.0,0.0
696,173.75,82.5189,84.7063,145.343,99.188,99.9443,0.00105342,0.0411478,20.9341,50.1458,-0.0646276,0.0,0.0
698,174.25,82.8112,84.7762,146.206,99.1927,99.9575,0.00103022,0.0411417,20.9341,50.1258,-0.06534,0.0,0.0
700,174.75,83.0284,84.6033,146.859,99.1892,99.5518,0.000977882,0.0411367,20.9341,50.2259,-0.0310505,0.0,0.0
702,175.25,82.6423,84.01,148.938,99.2113,100.144,0.000935487,0.0411327,20.9344,50.2459,-0.0795929,0.0,0.0
704,175.75,82.6034,84.6804,150.692,99.2232,100.096,0.000901147,0.0411295,20.9347,50.2759,-0.0744762,0.0,0.0
706,176.25,82.6094,84.6363,149.7,99.2062,100.098,0.000827855,0.0411268,20.9351,50.2359,-0.0761216,0.0,0.0
708,176.75,82.2503,84.3658,147.019,99.245,100.427,0.000768489,0.0411247,20.9353,50.2359,-0.100705,0.0,0.0
710,177.25,82.4355,83.7003,149.615,99.2414,99.7119,0.000701272,0.041123,20.9355,50.1858,-0.0402386,0.0,0.0
712,177.75,82.4307,83.9633,151.92,99.2596,100.104,0.000646826,0.0411077,20.9357,50.1558,-0.0721003,0.0,0.0
714,178.25,82.1836,84.2566,145.949,99.2592,100.188,0.000606311,0.0410953,20.9359,50.1358,-0.0792126,0.0,0.0
716,178.75,82.3143,83.7455,144.811,99.2703,99.2361,0.000573494,0.0410991,20.936,50.1258,0.0029326,0.0,0.0
718,179.25,82.2397,83.955,147.555,99.2877,100.039,0.000556353,0.0411022,20.9361,50.1558,-0.0641003,0.0,0.0
720,179.75,81.9049,83.7588,146.41,99.2952,100.44,0.000550964,0.0411187,20.9361,50.1358,-0.0975114,0.0,0.0
722,180.25,82.018,83.6599,145.021,99.2929,99.2558,0.000562151,0.041132,20.9362,50.1258,0.00317288,0.0,0.0
724,180.75,81.769,83.8644,153.13,99.3115,100.615,0.000571213,0.0411428,20.9362,50.1858,-0.110968,0.0,0.0
726,181.25,82.0173,83.9477,150.643,99.3107,99.2492,0.000589324,0.0411515,20.9363,50.1558,0.00526417,0.0,0.0
728,181.75,81.8498,83.7847,148.936,99.3154,99.9048,0.000603995,0.0411366,20.9363,50.1558,-0.0503441,0.0,0.0
730,182.25,81.9664,83.3904,148.74,99.3407,99.3808,0.000615877,0.0411048,20.9363,50.1658,-0.00343025,0.0,0.0
732,182.75,82.016,83.5829,145.57,99.336,99.5167,0.000631803,0.0410791,20.9364,50.1558,-0.0154671,0.0,0.0
734,183.25,81.7635,83.4203,146.888,99.3312,100.725,0.000650374,0.0410802,20.9364,50.1658,-0.118537,0.0,0.0
736,183.75,82.012,83.3566,142.283,99.3609,100.817,0.000665416,0.0411008,20.9364,50.1658,-0.123771,0.0,0.0
738,184.25,81.575,83.4366,149.57,99.3779,100.271,0.0006776,0.0411175,20.9364,50.1858,-0.0761149,0.0,0.0
740,184.75,81.5327,83.0396,149.903,99.3732,100.477,0.000687469,0.041131,20.9364,50.2159,-0.0939918,0.0,0.0
742,185.25,81.3163,83.6434,148.44,99.3791,99.0738,0.000677507,0.041142,20.9364,50.1858,0.0261761,0.0,0.0
744,185.75,81.0963,83.3323,149.804,99.3961,99.6834,0.000669439,0.0411509,20.9364,50.1458,-0.024551,0.0,0.0
745,186,81.2688,83.2293,151.096,99.4041,99.6987,0.000665999,0.0411547,20.9364,50.1458,-0.0251836,0.0,0.0