File: 01_Data/Latex_Pillow_Foam/Cone/Latex_Pillow_Foam_Cone_HF25Scan_230628_R3.csv
Names,Time,Stack TC,Smoke TC,Exh Press,Smoke Comp,Smoke Meas,CO Meter,CO2 Meter,O2 Meter,Sample Mass,Ext Coeff,Start Test,Flame Verif
Chan Gain,,500,500,1,1,1,1,1,1,1,1,1.0,1.0
Offset,,0,0,0.13804,0,0,0,0,0,0,0,0.0,0.0
Gain,,1,1,25.011,12.9078,45.9244,1,1,1,1.00091,0.969894,1.0,1.0
Units,sec,C,C,Pa,%,%,%,%,%,g,/m,,
Baseline,,45.3962,46.2293,158.983,99.6681,99.7548,0.00121721,0.0482931,20.9331,-443.247,-0.0073724,,
3,0.5,44.7655,44.5314,155.287,100.041,100.268,0.00129009,0.0509597,20.9348,72.7064,-0.0192548,1.0,0.0
6,1.25,44.0641,44.3591,160.81,100.031,100.029,0.00132126,0.0515514,20.9343,72.6264,0.00014706,0.0,0.0
9,2,43.8721,44.1671,157.81,100.028,100.202,0.0013566,0.0520989,20.9333,72.6163,-0.0147371,0.0,0.0
12,2.75,44.2435,44.0306,158.944,100.033,99.819,0.00136941,0.0527038,20.9328,72.6163,0.018214,0.0,0.0
15,3.5,43.9741,44.6841,157.589,100.065,98.7763,0.00138421,0.0534027,20.9314,72.6664,0.110269,0.0,0.0
18,4.25,43.9369,43.9901,159.637,100.046,98.0644,0.0013912,0.0541115,20.9301,72.6764,0.170172,0.0,0.0
21,5,44.219,44.409,162.144,100.039,97.3019,0.00138981,0.0545768,20.9288,72.6364,0.236006,0.0,0.0
24,5.75,44.1974,44.5227,160.916,100.066,97.6972,0.00139394,0.0548279,20.9278,72.6063,0.203831,0.0,0.0
27,6.5,44.2591,44.3123,157.636,100.071,97.5206,0.00139815,0.0548116,20.927,72.5963,0.219658,0.0,0.0
30,7.25,44.1568,44.9092,158.782,100.067,97.6747,0.00140299,0.0545008,20.9265,72.5663,0.205851,0.0,0.0
33,8,44.5706,44.946,157.318,100.0625,96.3896,0.00140869,0.0540787,20.9261,72.5963,0.318168,0.0,0.0
36,8.75,44.8119,45.1994,155.819,100.067,97.365,0.00140598,0.0536215,20.9263,72.5863,0.232871,0.0,0.0
39,9.5,44.3851,45.1814,156.666,100.082,97.1786,0.0013944,0.0531751,20.9266,72.5663,0.250448,0.0,0.0
42,10.25,44.521,45.3841,161.351,100.089,97.1366,0.00138186,0.052738,20.9268,72.5663,0.254733,0.0,0.0
45,11,44.4229,45.2754,155.042,100.087,97.2501,0.0013499,0.0523718,20.927,72.5663,0.244627,0.0,0.0
48,11.75,44.071,45.2474,161.339,100.09,97.0483,0.00130079,0.0519067,20.9271,72.5663,0.262604,0.0,0.0
51,12.5,44.4673,44.8944,156.757,100.091,97.0931,0.00127976,0.051664,20.9278,72.5463,0.258706,0.0,0.0
54,13.25,44.3171,45.3551,158.034,100.094,97.166,0.00126052,0.0512884,20.9283,72.5463,0.252557,0.0,0.0
57,14,44.6025,45.4306,157.192,100.096,97.6075,0.00125515,0.0509589,20.9285,72.5263,0.214156,0.0,0.0
60,14.75,44.8809,45.7574,160.641,100.084,96.9207,0.00127178,0.0506728,20.9286,72.5062,0.273222,0.0,0.0
63,15.5,44.5067,45.347,156.771,100.12,96.7708,0.00129953,0.0504266,20.9284,72.5163,0.289443,0.0,0.0
66,16.25,44.384,45.9579,163.905,100.096,96.7105,0.00134083,0.0501874,20.9279,72.4962,0.292768,0.0,0.0
69,17,44.4812,46.0732,160.933,100.095,97.187,0.00137709,0.0499911,20.9276,72.4762,0.250851,0.0,0.0
72,17.75,44.9575,45.4862,160.738,100.085,97.358,0.00141796,0.0498103,20.9273,72.4662,0.235025,0.0,0.0
75,18.5,44.9613,46.029,156.744,100.074,97.0371,0.00146212,0.049579,20.9271,72.4662,0.262147,0.0,0.0
78,19.25,44.449,45.7952,158.628,100.084,96.9109,0.00149457,0.0494461,20.927,72.4562,0.274116,0.0,0.0
81,20,44.7928,46.1051,156.58,100.109,96.3587,0.00156466,0.0492738,20.9269,72.4562,0.324842,0.0,0.0
84,20.75,44.8395,46.1579,155.719,100.094,97.6243,0.00163864,0.049168,20.9268,72.3461,0.212523,0.0,0.0
87,21.5,45.1455,45.9429,148.114,100.096,93.3385,0.00171438,0.049063,20.9267,72.276,0.594673,0.0,1.0
90,22.25,44.8373,46.4896,141.116,100.1,73.3839,0.0017902,0.0489679,20.9267,72.186,2.64138,0.0,1.0
93,23,45.4795,48.1664,139.599,100.084,67.8396,0.00185391,0.0488872,20.9264,72.0458,3.30837,0.0,1.0
96,23.75,46.5039,49.5018,144.439,100.09,68.0022,0.00190395,0.0488284,20.9258,71.9557,3.28854,0.0,1.0
99,24.5,47.2855,51.2881,137.179,100.081,69.2005,0.00194043,0.0487855,20.9255,71.8456,3.13913,0.0,1.0
102,25.25,48.1701,53.8698,125.675,100.081,68.5123,0.00196944,0.0487542,20.9254,71.7255,3.22419,0.0,1.0
105,26,49.0022,55.7023,131.408,100.077,63.6309,0.00199098,0.0486717,20.9262,71.6254,3.85274,0.0,1.0
108,26.75,49.7358,57.3818,129.52,100.072,66.6609,0.00200559,0.0487309,20.9268,71.5454,3.45645,0.0,1.0
111,27.5,50.4485,59.1737,130.764,100.068,61.2848,0.00201625,0.0499048,20.9273,71.4453,4.17159,0.0,0.0
114,28.25,51.797,61.4032,126.687,100.0625,56.9317,0.00203434,0.0540089,20.9276,71.4453,4.79793,0.0,0.0
117,29,53.1227,63.4105,127.682,100.07,53.976,0.00211391,0.0702476,20.9279,71.175,5.25215,0.0,0.0
120,29.75,54.3087,65.5244,142.699,100.062,56.7047,0.00230097,0.0848104,20.9272,71.0749,4.83189,0.0,0.0
123,30.5,54.9955,66.9986,129.647,100.046,50.3124,0.00260959,0.121894,20.9242,70.9248,5.8481,0.0,0.0
126,31.25,56.1015,68.5408,130.537,100.035,51.3972,0.00313414,0.157564,20.9185,70.8047,5.66567,0.0,0.0
129,32,57.073,70.5769,125.013,100.041,54.2156,0.00402878,0.216872,20.8971,70.6746,5.21202,0.0,0.0
132,32.75,58.2353,72.2906,130.35,100.034,55.2583,0.00594781,0.287883,20.8511,70.5845,5.0493,0.0,0.0
135,33.5,59.3341,74.0104,135.538,100.029,54.2927,0.00759333,0.334902,20.7947,70.4744,5.19889,0.0,0.0
138,34.25,60.3466,75.266,129.206,100.009,57.6731,0.00862964,0.371317,20.7448,70.3343,4.68326,0.0,0.0
141,35,61.4804,76.6402,124.801,100.007,54.1175,0.01056,0.413388,20.6601,70.2642,5.22454,0.0,0.0
144,35.75,62.4596,78.0256,140.82,99.9904,61.9463,0.0125977,0.456872,20.5656,70.094,4.07361,0.0,0.0
147,36.5,63.1621,79.1874,121.95,99.9833,53.5219,0.0146269,0.498047,20.4718,69.9739,5.31666,0.0,0.0
150,37.25,64.1282,80.3044,132.45,99.9676,55.6536,0.0167769,0.531543,20.3843,69.8438,4.98304,0.0,0.0
153,38,64.8319,81.6767,128.25,99.9597,54.4609,0.0186771,0.561913,20.2973,69.7237,5.16668,0.0,0.0
156,38.75,65.7992,82.5342,128.199,99.9565,58.0754,0.0206314,0.590232,20.226,69.6536,4.61971,0.0,0.0
159,39.5,66.0539,83.2552,124.998,99.9396,58.2674,0.0227118,0.615813,20.1605,69.5235,4.59018,0.0,0.0
162,40.25,67.1306,84.5608,124.101,99.9144,55.2163,0.0244177,0.638396,20.0957,69.3634,5.04562,0.0,0.0
165,41,67.5582,85.1436,130.735,99.9089,50.1317,0.0259851,0.65822,20.0362,69.2533,5.86706,0.0,0.0
168,41.75,68.4666,86.0095,139.542,99.8982,53.8877,0.027548,0.673052,19.9822,69.1432,5.25147,0.0,0.0
171,42.5,69.2835,86.8352,127.152,99.8813,57.341,0.028846,0.683549,19.9338,68.983,4.72157,0.0,0.0
174,43.25,69.5476,87.5835,138.975,99.8683,64.242,0.0299053,0.690384,19.8949,68.8929,3.75362,0.0,0.0
177,44,70.6248,88.7153,130.718,99.8533,56.5659,0.0307554,0.694924,19.865,68.7528,4.83497,0.0,0.0
180,44.75,70.9878,89.4538,131.121,99.8344,55.4602,0.0313751,0.697475,19.8433,68.7528,5.00132,0.0,0.0
183,45.5,71.9023,90.3402,126.353,99.8242,53.1393,0.032085,0.699919,19.8232,68.5727,5.36414,0.0,0.0
186,46.25,72.8941,91.509,128.388,99.8076,57.9562,0.03249,0.701259,19.8128,68.4025,4.62449,0.0,0.0
189,47,73.2153,92.6433,128.046,99.8065,56.7495,0.0326969,0.70197,19.8074,68.3224,4.8034,0.0,0.0
192,47.75,74.4018,93.8161,140.929,99.7939,58.1272,0.0329545,0.702792,19.8019,68.1823,4.59826,0.0,0.0
195,48.5,75.2677,94.9651,132.903,99.7675,59.5511,0.0331907,0.704297,19.7995,68.0622,4.3901,0.0,0.0
198,49.25,75.5948,95.0215,127.318,99.7363,52.9459,0.0333919,0.706076,19.7985,67.9221,5.38768,0.0,0.0
201,50,76.2429,95.8253,136.031,99.7336,57.1868,0.0335848,0.707932,19.7977,67.7619,4.73188,0.0,0.0
204,50.75,76.7389,96.1519,121.652,99.706,57.6087,0.0337681,0.710028,19.7965,67.6718,4.667,0.0,0.0
207,51.5,77.5459,97.113,122.102,99.7005,49.9733,0.0339409,0.713681,19.7945,67.5217,5.87621,0.0,0.0
210,52.25,78.3797,98.0347,120.653,99.6761,55.833,0.0341231,0.717249,19.791,67.4416,4.93082,0.0,0.0
213,53,78.7445,98.9809,120.001,99.6524,55.2401,0.0342947,0.725264,19.788,67.3215,5.01962,0.0,0.0
216,53.75,79.6659,100.14,119.325,99.6284,50.2928,0.0344451,0.733079,19.7857,67.1313,5.81583,0.0,0.0
219,54.5,80.5523,101.045,122.992,99.615,55.3915,0.0345673,0.742149,19.7815,67.0212,4.99314,0.0,0.0
222,55.25,81.2663,101.957,125.03,99.6056,56.6066,0.0346617,0.750071,19.7734,66.9412,4.80772,0.0,0.0
225,56,81.9876,102.763,127.856,99.5902,53.1645,0.0347185,0.755211,19.7609,66.8411,5.34014,0.0,0.0
228,56.75,82.1702,102.795,119.974,99.5595,49.2249,0.0347557,0.758585,19.7443,66.6909,5.99255,0.0,0.0
231,57.5,83.3881,103.612,127.677,99.5303,50.1022,0.0348077,0.760868,19.7322,66.5008,5.83976,0.0,0.0
234,58.25,83.8796,105.119,119.722,99.528,50.2662,0.0348571,0.764766,19.7232,66.3806,5.81176,0.0,0.0
237,59,84.2252,105.656,130.39,99.4901,50.7371,0.035003,0.76856,19.7162,66.2705,5.72919,0.0,0.0
240,59.75,85.0358,106.193,127.722,99.4622,51.6495,0.0352054,0.777246,19.7092,66.1705,5.57517,0.0,0.0
243,60.5,85.536,106.606,129.406,99.4661,48.9446,0.0354369,0.787484,19.7041,65.9903,6.03315,0.0,0.0
246,61.25,86.4023,107.645,125.527,99.4295,52.5366,0.0356722,0.797312,19.6959,65.8902,5.42748,0.0,0.0
249,62,86.9066,108.146,125.546,99.4133,53.1435,0.0359041,0.805475,19.6825,65.73,5.32838,0.0,0.0
252,62.75,87.452,108.803,123.658,99.3885,54.4623,0.0361281,0.811087,19.6613,65.65,5.1177,0.0,0.0
255,63.5,88.173,109.837,127.33,99.3834,55.6115,0.0363704,0.81551,19.6455,65.4998,4.93961,0.0,0.0
258,64.25,88.7485,109.81,136.839,99.3692,53.1981,0.0366195,0.819547,19.6326,65.3997,5.31586,0.0,0.0
261,65,89.4708,111.039,126.986,99.3432,56.4636,0.036832,0.824243,19.6212,65.2096,4.80679,0.0,0.0
264,65.75,89.4604,110.893,130.865,99.3342,57.0929,0.0370968,0.828414,19.613,65.1195,4.71172,0.0,0.0
267,66.5,90.0578,111.489,121.222,99.3011,52.4595,0.037375,0.830818,19.6071,64.9694,5.42897,0.0,0.0
270,67.25,90.8003,111.725,126.519,99.2912,54.4567,0.0376433,0.832466,19.6024,64.8392,5.11025,0.0,0.0
273,68,91.2129,112.104,120.936,99.266,51.6425,0.0379047,0.833954,19.5979,64.7091,5.55952,0.0,0.0
276,68.75,91.0915,112.621,122.53,99.2605,58.1721,0.0381547,0.835948,19.593,64.629,4.5461,0.0,0.0
279,69.5,92.1121,113.3,122.435,99.2432,54.9907,0.0383505,0.837401,19.5882,64.4989,5.02311,0.0,0.0
282,70.25,92.2764,113.475,115.66,99.2278,51.906,0.0384503,0.836709,19.5828,64.3188,5.51295,0.0,0.0
285,71,93.2514,114.075,128.76,99.2065,56.5239,0.0384496,0.835096,19.5795,64.2487,4.786,0.0,0.0
288,71.75,93.39,114.243,123.222,99.186,59.7123,0.0383005,0.833447,19.578,64.1486,4.31738,0.0,0.0
291,72.5,94.0785,115.009,118.211,99.1695,54.8519,0.0381408,0.831664,19.5773,64.0285,5.03829,0.0,0.0
294,73.25,93.9857,115.464,124.139,99.1486,58.2239,0.0379371,0.830662,19.5767,63.8884,4.52893,0.0,0.0
297,74,94.5988,115.814,124.615,99.1238,56.8392,0.0377845,0.83044,19.5775,63.8083,4.73157,0.0,0.0
300,74.75,95.2158,116.118,131.194,99.1203,58.8027,0.0376983,0.830795,19.58,63.6982,4.44233,0.0,0.0
303,75.5,95.729,116.526,132.845,99.1021,54.1666,0.0376816,0.830791,19.5819,63.5981,5.13948,0.0,0.0
306,76.25,96.1206,116.867,123.36,99.0828,51.62,0.0377293,0.830341,19.5835,63.458,5.54751,0.0,0.0
309,77,96.3664,116.49,133.458,99.0777,55.6508,0.0378001,0.829447,19.585,63.3579,4.9074,0.0,0.0
312,77.75,96.4522,116.291,124.936,99.071,56.4146,0.0378697,0.82852,19.5862,63.2378,4.79085,0.0,0.0
315,78.5,96.0876,116.183,130.299,99.0529,53.4476,0.037892,0.827783,19.587,63.1277,5.24893,0.0,0.0
318,79.25,96.7965,116.241,131.196,99.0411,56.1637,0.0379082,0.82673,19.5876,63.0076,4.82619,0.0,0.0
321,80,96.6324,115.712,122.533,99.0261,49.2978,0.0377696,0.825999,19.5893,62.8674,5.93426,0.0,0.0
324,80.75,96.9182,116.538,129.693,99.0119,53.9479,0.0375691,0.825526,19.5912,62.7073,5.16614,0.0,0.0
327,81.5,97.1834,116.948,132.264,98.9989,57.4293,0.0373884,0.824677,19.593,62.6172,4.63299,0.0,0.0
330,82.25,97.1628,117.009,136.322,99.0048,56.3431,0.0371173,0.822549,19.5958,62.5071,4.79595,0.0,0.0
333,83,98.0362,117.396,132.74,98.9781,52.4245,0.0368588,0.81904,19.5978,62.367,5.40694,0.0,0.0
336,83.75,98.349,117.708,128.612,98.9733,49.7701,0.0366147,0.812162,19.5995,62.2068,5.8486,0.0,0.0
339,84.5,98.2357,117.584,124.116,98.9773,56.0432,0.0364241,0.804148,19.6011,62.1268,4.83899,0.0,0.0
342,85.25,98.6249,117.692,127.718,98.9651,51.3594,0.0362222,0.795111,19.6101,61.9766,5.58046,0.0,0.0
345,86,98.3985,117.8,130.639,98.9434,47.9635,0.036149,0.788404,19.6164,61.9166,6.16059,0.0,0.0
348,86.75,99.2421,117.871,126.984,98.9221,48.7778,0.0360065,0.780657,19.6222,61.7064,6.01553,0.0,0.0
351,87.5,99.1083,118.59,129.183,98.9339,50.1863,0.0358441,0.774792,19.6321,61.5763,5.77436,0.0,0.0
354,88.25,99.5632,117.893,128.632,98.9221,49.1016,0.0357113,0.771604,19.6444,61.5162,5.95925,0.0,0.0
357,89,99.369,118.397,124.926,98.9044,50.1597,0.0356104,0.770272,19.6551,61.3861,5.77633,0.0,0.0
360,89.75,99.7354,118.222,120.861,98.9115,43.8459,0.0355637,0.770206,19.6637,61.286,6.9215,0.0,0.0
363,90.5,99.7125,118.774,120.497,98.9107,46.9769,0.0355634,0.771813,19.6699,61.1158,6.33461,0.0,0.0
366,91.25,100.256,119.084,127.154,98.891,49.5907,0.0356012,0.773423,19.6745,61.0057,5.87224,0.0,0.0
369,92,100.526,118.924,126.289,98.8969,49.8149,0.0357034,0.774785,19.6773,60.8956,5.83437,0.0,0.0
372,92.75,100.624,119.961,127.623,98.88,48.1429,0.0357779,0.774768,19.6786,60.6854,6.12337,0.0,0.0
375,93.5,100.576,120.042,115.273,98.8705,45.2306,0.0359512,0.774326,19.6789,60.6154,6.65345,0.0,0.0
378,94.25,101.809,120.921,125.072,98.8812,46.6966,0.0361731,0.774135,19.6779,60.4552,6.38299,0.0,0.0
381,95,102.009,121.727,137.302,98.8697,49.8906,0.0364114,0.77419,19.6759,60.3752,5.81911,0.0,0.0
384,95.75,102.685,122.004,124.081,98.8678,47.6272,0.0367218,0.774467,19.6745,60.195,6.21395,0.0,0.0
387,96.5,103.242,122.381,113.732,98.8701,47.0203,0.0370063,0.775358,19.6734,60.0649,6.32326,0.0,0.0
390,97.25,103.026,123.263,119.516,98.8461,45.937,0.0374582,0.77726,19.6713,59.8947,6.51951,0.0,0.0
393,98,103.887,124.126,120.753,98.8485,45.0316,0.0379783,0.780789,19.6688,59.7746,6.68906,0.0,0.0
396,98.75,104.063,124.374,115.127,98.8481,47.4856,0.0385373,0.788564,19.6661,59.6445,6.23758,0.0,0.0
399,99.5,104.615,125.548,118.426,98.8414,46.5999,0.0391132,0.797045,19.6636,59.5244,6.3972,0.0,0.0
402,100.25,104.765,125.131,124.99,98.8437,43.9987,0.0396481,0.808035,19.6589,59.4043,6.88608,0.0,0.0
405,101,105.469,125.252,131.065,98.8236,47.9747,0.0403034,0.820183,19.6507,59.2141,6.14829,0.0,0.0
408,101.75,105.936,126.287,130.532,98.8284,47.0343,0.0408988,0.832018,19.6391,59.134,6.31713,0.0,0.0
411,102.5,106.07,126.518,114.758,98.8335,46.5438,0.0414522,0.842721,19.6232,59.0039,6.40676,0.0,0.0
414,103.25,106.496,126.52,123.324,98.813,49.0497,0.0419358,0.853106,19.6034,58.8638,5.95885,0.0,0.0
417,104,106.323,126.296,121.795,98.8232,42.6448,0.0423489,0.862871,19.5769,58.7136,7.15022,0.0,0.0
420,104.75,107.1,127.41,121.178,98.8181,42.4486,0.0426686,0.872012,19.5539,58.5435,7.18901,0.0,0.0
423,105.5,106.943,126.952,121.89,98.8402,44.436,0.0429245,0.880535,19.5361,58.4334,6.80164,0.0,0.0
426,106.25,107.569,128.121,120.548,98.8169,47.8542,0.0431111,0.887851,19.5216,58.2332,6.16912,0.0,0.0
429,107,107.737,128.711,119.093,98.8177,46.1626,0.0433574,0.893654,19.5071,58.1031,6.47538,0.0,0.0
432,107.75,108.519,129.542,115.375,98.841,45.8487,0.0435941,0.897009,19.4948,58.033,6.53543,0.0,0.0
435,108.5,109.256,130.023,114.338,98.8118,45.0666,0.0438642,0.898325,19.4793,57.9229,6.67929,0.0,0.0
438,109.25,109.511,130.919,120.618,98.8114,45.6707,0.044212,0.898259,19.468,57.7428,6.56598,0.0,0.0
441,110,110.06,131.481,117.007,98.8256,42.4038,0.044548,0.897282,19.4598,57.5826,7.19865,0.0,0.0
444,110.75,110.413,131.534,118.858,98.8079,43.6932,0.044849,0.896803,19.4538,57.4625,6.94228,0.0,0.0
447,111.5,111.098,132.031,124.434,98.8209,46.2761,0.0451043,0.897781,19.4519,57.2923,6.45475,0.0,0.0
450,112.25,110.692,132.644,127.696,98.8055,46.8858,0.0453125,0.90059,19.4506,57.1522,6.34208,0.0,0.0
453,113,111.108,133.065,118.1,98.8296,44.0351,0.0454738,0.906793,19.4496,57.0121,6.87781,0.0,0.0
456,113.75,111.906,132.823,117.54,98.8288,42.8298,0.0456814,0.913086,19.4489,56.8619,7.11386,0.0,0.0
459,114.5,111.873,133.677,118.056,98.8197,46.2747,0.0459359,0.92391,19.4483,56.8219,6.45491,0.0,0.0
462,115.25,111.887,133.425,117.984,98.8319,45.1717,0.046232,0.9318,19.4459,56.6217,6.6612,0.0,0.0
465,116,112.406,133.855,122.148,98.8209,45.4254,0.0464479,0.93988,19.4405,56.4716,6.61261,0.0,0.0
468,116.75,112.448,134.845,113.7,98.8339,43.3274,0.0469105,0.946762,19.4311,56.3815,7.01604,0.0,0.0
471,117.5,113.227,134.794,112.803,98.8426,43.0232,0.0472806,0.951779,19.422,56.2914,7.07672,0.0,0.0
474,118.25,113.007,135.178,112.91,98.8504,45.937,0.0476891,0.955035,19.396,56.1113,6.51988,0.0,0.0
477,119,113.549,135.276,120.493,98.8426,39.4648,0.0478298,0.955537,19.3865,56.0012,7.8112,0.0,0.0
480,119.75,114.002,135.579,124.183,98.8666,43.1326,0.0479491,0.955512,19.3756,55.8811,7.05719,0.0,0.0
483,120.5,114.087,135.658,128.751,98.8689,45.0919,0.0480176,0.955712,19.3677,55.7509,6.67945,0.0,0.0
486,121.25,114.39,135.888,123.795,98.8662,45.9033,0.0479338,0.956001,19.3623,55.6008,6.52747,0.0,0.0
489,122,114.634,136.071,120.821,98.8902,41.1789,0.0478237,0.956299,19.3586,55.4407,7.45359,0.0,0.0
492,122.75,114.618,135.64,126.581,98.9005,46.6433,0.0477186,0.956171,19.3559,55.3506,6.39436,0.0,0.0
495,123.5,114.346,135.266,129.563,98.9028,48.953,0.0476353,0.956294,19.3552,55.2805,5.98337,0.0,0.0
498,124.25,114.882,135.53,123.14,98.9005,46.9334,0.0476593,0.956755,19.3547,55.1804,6.34161,0.0,0.0
501,125,114.531,135.32,124.868,98.9146,48.5844,0.0477335,0.958885,19.3544,55.0803,6.04869,0.0,0.0
504,125.75,114.105,134.74,128.964,98.9379,49.8149,0.0478987,0.961718,19.3541,54.9402,5.83789,0.0,0.0
507,126.5,114.387,134.321,128.127,98.9371,46.2901,0.0481703,0.964419,19.3534,54.76,6.46217,0.0,0.0
510,127.25,114.699,134.621,126.507,98.9528,50.7105,0.0483683,0.96323,19.3521,54.6699,5.68759,0.0,0.0
513,128,113.862,133.361,137.982,98.9639,48.8437,0.0486278,0.961016,19.3514,54.5598,6.00764,0.0,0.0
516,128.75,114.254,133.374,136.724,98.9686,48.0813,0.0487808,0.951934,19.3513,54.5098,6.1419,0.0,0.0
519,129.5,113.797,132.438,135.021,98.9883,55.3438,0.0488304,0.940999,19.3512,54.3897,4.94677,0.0,0.0
522,130.25,113.128,131.373,133.253,98.9934,48.0869,0.0486601,0.929176,19.3511,54.3096,6.14304,0.0,0.0
525,131,112.878,130.212,137.563,99.0041,46.9909,0.048353,0.91712,19.3569,54.2095,6.3401,0.0,0.0
528,131.75,112.195,129.299,129.964,99.0151,49.6383,0.0479367,0.903335,19.371,54.0894,5.87474,0.0,0.0
531,132.5,112.218,128.028,137.808,99.0348,57.1658,0.0471843,0.885375,19.3961,53.9793,4.67519,0.0,0.0
534,133.25,112.029,127.777,132.004,99.0364,48.241,0.0467518,0.878091,19.4126,53.8992,6.11949,0.0,0.0
537,134,110.904,126.784,129.627,99.0572,56.6276,0.0461117,0.861728,19.4318,53.8892,4.7576,0.0,0.0
540,134.75,111,125.906,132.933,99.075,48.5045,0.0454051,0.8424,19.4539,53.7891,6.07647,0.0,0.0
543,135.5,110.668,124.854,143.737,99.0742,54.2324,0.044626,0.825155,19.4762,53.7291,5.12674,0.0,0.0
546,136.25,110.382,124.789,128.909,99.0931,55.9269,0.0439389,0.80067,19.4951,53.619,4.86661,0.0,0.0
549,137,109.895,123.647,123.337,99.1084,48.1794,0.0432343,0.777715,19.5202,53.5089,6.13657,0.0,0.0
552,137.75,109.786,123.432,136.621,99.1289,52.5562,0.0423442,0.752249,19.5385,53.4388,5.39854,0.0,0.0
555,138.5,109.126,122.629,136.931,99.1435,55.5793,0.0416953,0.7262,19.5739,53.4188,4.92398,0.0,0.0
558,139.25,108.672,121.955,133.861,99.1526,43.4437,0.040874,0.70402,19.6076,53.2587,7.02062,0.0,0.0
561,140,108.441,121.105,138.577,99.1719,49.934,0.0400294,0.681908,19.6456,53.2086,5.83767,0.0,0.0
564,140.75,107.901,120.318,137.897,99.1916,54.1007,0.0392471,0.663408,19.6948,53.0985,5.1575,0.0,0.0
567,141.5,107.633,120.087,134.994,99.2026,52.9333,0.0385491,0.64585,19.7364,53.0685,5.34405,0.0,0.0
570,142.25,106.877,118.912,140.606,99.2179,62.5658,0.0378222,0.630425,19.7766,53.0084,3.92297,0.0,0.0
573,143,106.766,118.61,135.769,99.2294,59.5511,0.0370709,0.618101,19.8122,52.9584,4.34409,0.0,0.0
576,143.75,106.249,117.042,143.528,99.2562,68.6637,0.0364008,0.609187,19.8456,52.9183,3.135,0.0,0.0
579,144.5,105.677,116.581,150.249,99.2707,84.7893,0.0358136,0.603831,19.8783,52.9083,1.34152,0.0,0.0
582,145.25,105.114,115.045,142.257,99.2995,84.6254,0.0352728,0.599439,19.904,52.8683,1.36046,0.0,0.0
585,146,104.353,113.712,147.518,99.3058,90.2047,0.0348219,0.595504,19.9259,52.8483,0.81779,0.0,0.0
588,146.75,103.513,113.052,146.076,99.3145,89.9623,0.0344372,0.591741,19.9423,52.8383,0.841432,0.0,0.0
591,147.5,103.026,111.582,147.817,99.3219,91.0569,0.0341568,0.587223,19.9544,52.8383,0.739182,0.0,0.0
594,148.25,102.044,109.967,145.221,99.3334,90.0394,0.0339132,0.58393,19.9633,52.8383,0.835764,0.0,0.0
597,149,101.126,108.772,148.273,99.3542,93.4716,0.033663,0.57532,19.9697,52.8583,0.519264,0.0,0.0
600,149.75,100.182,107.011,150.506,99.3751,95.1422,0.0333851,0.565929,19.9774,52.8683,0.370337,0.0,0.0
603,150.5,99.4291,105.88,155.745,99.3806,96.3013,0.0330004,0.553757,19.9834,52.8683,0.267792,0.0,0.0
606,151.25,98.0298,104.503,153.423,99.3802,97.9074,0.0322403,0.529324,19.9944,52.8583,0.127034,0.0,0.0
609,152,98.1044,103.564,151.75,99.4015,98.4904,0.0313704,0.50299,20.0085,52.8383,0.0783412,0.0,0.0
612,152.75,97.2705,102.375,153.465,99.4098,98.7301,0.0305879,0.484294,20.0286,52.8283,0.0583732,0.0,0.0
615,153.5,96.1649,100.579,155.452,99.4417,99.2921,0.0290263,0.455974,20.0594,52.8183,0.012811,0.0,0.0
618,154.25,95.5582,100.329,152.266,99.4389,99.201,0.0276075,0.429276,20.0949,52.8082,0.0203836,0.0,0.0
621,155,94.3316,98.7112,146.705,99.4638,99.2949,0.025668,0.399466,20.1315,52.8082,0.0144585,0.0,0.0
624,155.75,93.6969,97.2996,154.701,99.4866,99.5583,0.0235961,0.366118,20.1765,52.8283,-0.00613364,0.0,0.0
627,156.5,93.1693,96.2443,152.772,99.4996,99.428,0.0216203,0.336413,20.2363,52.8283,0.00612263,0.0,0.0
630,157.25,92.0689,94.9831,151.527,99.5142,100.005,0.0195813,0.312459,20.2984,52.8283,-0.0418962,0.0,0.0
633,158,91.7381,94.2153,153.138,99.5197,99.3565,0.0179424,0.28705,20.3516,52.7982,0.0139593,0.0,0.0
636,158.75,90.7946,93.3339,150.463,99.5366,99.8947,0.016487,0.266043,20.4111,52.7782,-0.0305522,0.0,0.0
639,159.5,89.2004,91.4145,155.105,99.5622,99.7167,0.0152431,0.246482,20.4594,52.7782,-0.0131909,0.0,0.0
642,160.25,88.7264,90.5327,153.27,99.5705,100.028,0.0143003,0.228017,20.503,52.7782,-0.0389894,0.0,0.0
645,161,87.5159,89.831,151.103,99.5815,99.6551,0.0135515,0.212763,20.5347,52.8082,-0.00627929,0.0,0.0
648,161.75,87.5281,88.8811,154.579,99.6028,100.392,0.0130056,0.196791,20.5717,52.7882,-0.067166,0.0,0.0
651,162.5,86.6969,87.7933,156.485,99.6268,100.029,0.0125622,0.183079,20.6026,52.7882,-0.0342967,0.0,0.0
654,163.25,85.6248,87.0155,149.982,99.6327,100.061,0.0122029,0.170277,20.6318,52.7882,-0.0365332,0.0,0.0
657,164,85.0915,86.2002,156.302,99.654,99.7798,0.0119125,0.158813,20.6593,52.7882,-0.0107316,0.0,0.0
660,164.75,84.9314,85.5212,156.438,99.6903,100.396,0.0116617,0.148857,20.6877,52.7682,-0.0600562,0.0,0.0
663,165.5,84.0708,84.8079,157.083,99.7119,100.446,0.0114397,0.139404,20.7146,52.7882,-0.0623633,0.0,0.0
666,166.25,82.592,83.7357,154.104,99.7072,100.45,0.0112147,0.131167,20.7406,52.7582,-0.063123,0.0,0.0
669,167,82.7327,83.0007,153.788,99.7076,100.296,0.0110088,0.123964,20.7626,52.7882,-0.0500212,0.0,0.0
672,167.75,82.1425,82.6094,154.157,99.7363,100.552,0.0107815,0.117647,20.7812,52.7682,-0.0692967,0.0,0.0
675,168.5,81.6825,82.1185,153.327,99.7592,100.424,0.0106159,0.11176,20.7954,52.7682,-0.0565499,0.0,0.0
678,169.25,81.2576,80.618,153.655,99.7639,100.04,0.0103972,0.106923,20.8071,52.7582,-0.0235517,0.0,0.0
681,170,80.5333,80.1721,150.023,99.771,100.153,0.0101961,0.101416,20.8181,52.7582,-0.0324772,0.0,0.0
684,170.75,79.2676,79.5965,150.479,99.7844,100.343,0.00989957,0.0969318,20.828,52.7882,-0.0475109,0.0,0.0
687,171.5,79.6009,79.2174,153.577,99.8053,100.181,0.00957228,0.0928608,20.8369,52.7982,-0.0319361,0.0,0.0
690,172.25,79.1076,78.811,155.347,99.8045,100.216,0.00922933,0.0889665,20.8451,52.7982,-0.0349775,0.0,0.0
693,173,79.0481,78.1082,155.593,99.8336,100.36,0.0088257,0.0855634,20.8541,52.7782,-0.0447393,0.0,0.0
696,173.75,77.9942,77.4376,149.402,99.8525,100.035,0.00843539,0.0825678,20.8625,52.7082,-0.01552,0.0,0.0
699,174.5,77.7338,77.2436,151.418,99.873,100.514,0.00800258,0.0799149,20.8698,52.6981,-0.0544424,0.0,0.0
702,175.25,77.6982,76.5418,152.561,99.8884,100.235,0.00768705,0.0774605,20.876,52.7182,-0.0294942,0.0,0.0
705,176,76.7403,75.9454,151.239,99.8872,99.8471,0.00726875,0.0754492,20.8809,52.7382,0.00342026,0.0,0.0
708,176.75,76.451,75.4253,152.768,99.9053,99.9942,0.00688015,0.0732815,20.8851,52.7482,-0.00756636,0.0,0.0
711,177.5,75.9283,74.3342,153.531,99.951,100.15,0.00651597,0.0711959,20.889,52.7582,-0.0169019,0.0,0.0
714,178.25,74.959,74.6573,152.349,99.9459,100.412,0.00617316,0.0692385,20.8931,52.7582,-0.0395727,0.0,0.0
717,179,75.2279,73.6301,151.644,99.968,100.315,0.00580448,0.067433,20.8965,52.7882,-0.0294973,0.0,0.0
720,179.75,74.715,73.5297,156.47,99.955,100.144,0.00548427,0.0655971,20.8996,52.7882,-0.0160905,0.0,0.0
723,180.5,73.9404,72.673,159.166,99.9695,100.185,0.00516288,0.0640598,20.9027,52.7882,-0.0183019,0.0,0.0
726,181.25,73.9126,72.8273,153.453,99.9944,100.499,0.00482381,0.0625989,20.9058,52.7482,-0.0428085,0.0,0.0
729,182,73.5787,71.9775,154.732,100.014,100.164,0.00453197,0.061226,20.9085,52.7682,-0.0126963,0.0,0.0
732,182.75,73.3087,71.5323,157.474,100.022,100.464,0.00417366,0.060094,20.9109,52.7682,-0.0375295,0.0,0.0
735,183.5,72.4219,71.2658,150.563,100.036,100.318,0.00375747,0.0585406,20.9133,52.6981,-0.0239712,0.0,0.0
738,184.25,72.5881,70.8358,154.221,100.053,100.579,0.00359402,0.0579775,20.9146,52.7682,-0.0445761,0.0,0.0
741,185,71.6111,70.3103,154.819,100.057,100.642,0.00337906,0.0571076,20.9162,52.7682,-0.0495749,0.0,0.0
744,185.75,71.3904,70.0805,152.456,100.071,100.228,0.0031777,0.0563338,20.9177,52.7782,-0.0133794,0.0,0.0
747,186.5,71.4365,69.7571,154.61,100.072,100.462,0.00301365,0.0556292,20.9192,52.8082,-0.0331232,0.0,0.0
750,187.25,71.268,69.5319,152.483,100.1,101.103,0.00289165,0.0549773,20.9206,52.8082,-0.0848146,0.0,0.0
753,188,70.4496,69.3213,150.118,100.092,99.6817,0.00279595,0.0544622,20.9215,52.8082,0.034953,0.0,0.0
756,188.75,70.5296,68.4448,157.577,100.117,100.349,0.00271639,0.054072,20.9228,52.7882,-0.0196538,0.0,0.0
759,189.5,70.0022,68.6448,158.748,100.115,100.091,0.00263424,0.0537624,20.9238,52.7982,0.00207077,0.0,0.0
762,190.25,69.7484,67.9358,155.177,100.127,100.845,0.00253304,0.0534632,20.9245,52.7882,-0.0607763,0.0,0.0
765,191,69.5459,68.078,158.96,100.152,100.67,0.00241704,0.0531195,20.925,52.7982,-0.0439084,0.0,0.0
768,191.75,69.3979,67.1579,155.036,100.153,100.211,0.00230749,0.052827,20.9254,52.8082,-0.00492137,0.0,0.0
771,192.5,68.6943,67.2105,153.349,100.146,100.979,0.0022157,0.0525885,20.9257,52.8082,-0.0705135,0.0,0.0
774,193.25,68.3027,66.7962,153.006,100.143,100.684,0.00214999,0.0524022,20.9259,52.7982,-0.0457956,0.0,0.0
777,194,68.2074,66.5577,159.201,100.159,100.172,0.0021026,0.0522066,20.926,52.7982,-0.00115476,0.0,0.0
780,194.75,68.4574,67.0566,157.094,100.155,100.815,0.00206805,0.0520361,20.9268,52.7782,-0.0558838,0.0,0.0
783,195.5,67.3096,66.4524,157.385,100.155,100.446,0.00204115,0.0518999,20.9273,52.7882,-0.0246354,0.0,0.0
786,196.25,67.3699,66.218,158.66,100.146,100.284,0.00202153,0.051701,20.9277,52.8082,-0.011709,0.0,0.0
789,197,67.3446,65.8397,153.626,100.172,100.378,0.00201067,0.0515414,20.928,52.8082,-0.01753,0.0,0.0
792,197.75,66.971,65.4806,154.263,100.186,100.604,0.00200637,0.0513999,20.9282,52.7882,-0.0353966,0.0,0.0
795,198.5,66.467,65.2457,155.406,100.176,100.335,0.00200351,0.0512172,20.9283,52.7882,-0.013513,0.0,0.0
798,199.25,66.3212,65.1609,157.364,100.19,100.856,0.00199925,0.05107,20.9284,52.7682,-0.0564019,0.0,0.0
801,200,66.3419,64.6793,152.817,100.194,100.621,0.00198771,0.0509567,20.9285,52.7682,-0.0361492,0.0,0.0
804,200.75,65.3404,64.5892,150.363,100.2,100.646,0.00197507,0.0508923,20.9286,52.7682,-0.0377801,0.0,0.0
807,201.5,66.0734,64.6101,158.223,100.191,100.474,0.00196477,0.0508159,20.9284,52.7682,-0.023931,0.0,0.0
810,202.25,66.1654,64.3936,154.206,100.188,100.741,0.00196088,0.05071,20.9282,52.7782,-0.0468358,0.0,0.0
813,203,65.5355,64.34,155.214,100.194,100.838,0.00195958,0.0506746,20.9281,52.7782,-0.0544633,0.0,0.0
816,203.75,65.2524,63.8777,152.724,100.208,100.831,0.00195322,0.0506425,20.928,52.7582,-0.0527354,0.0,0.0
819,204.5,65.1787,63.4815,156.938,100.208,100.56,0.00193449,0.0506012,20.928,52.7782,-0.0298815,0.0,0.0
822,205.25,64.925,63.3424,148.751,100.212,100.453,0.00191285,0.0505674,20.928,52.7782,-0.0203781,0.0,0.0
825,206,64.782,63.023,159.602,100.213,100.506,0.00185757,0.0505047,20.9279,52.7882,-0.0248541,0.0,0.0
828,206.75,64.0599,63.0555,153.033,100.216,100.893,0.00177952,0.0503836,20.9279,52.7882,-0.0572345,0.0,0.0
831,207.5,64.2655,62.8507,157.389,100.23,100.371,0.00172262,0.0502367,20.9279,52.7982,-0.0120198,0.0,0.0
834,208.25,63.9543,62.914,153.261,100.233,100.549,0.0016619,0.0500291,20.928,52.7982,-0.0268256,0.0,0.0
837,209,64.081,62.5914,154.61,100.235,100.544,0.00160881,0.0498917,20.9282,52.8283,-0.0261847,0.0,0.0
840,209.75,63.6192,62.5488,154.917,100.254,100.258,0.00156902,0.0498049,20.929,52.8082,-0.000318469,0.0,0.0
843,210.5,63.4546,62.0687,150.96,100.262,100.783,0.00154127,0.0497541,20.9295,52.7982,-0.0441327,0.0,0.0
846,211.25,63.4102,62.1334,153.767,100.252,100.668,0.00152321,0.0497323,20.9299,52.7882,-0.0352952,0.0,0.0
849,212,63.2228,61.8261,154.531,100.25,100.488,0.00151365,0.0497229,20.9303,52.7882,-0.0201021,0.0,0.0
852,212.75,62.8513,61.9564,153.862,100.258,100.375,0.00150822,0.0496961,20.9308,52.7982,-0.00993546,0.0,0.0
855,213.5,63.05,61.6456,154.618,100.272,100.619,0.00150426,0.0496906,20.9311,52.7982,-0.0294438,0.0,0.0
858,214.25,62.9151,61.168,154.803,100.284,100.368,0.00149451,0.0496998,20.9313,52.8082,-0.00713545,0.0,0.0
861,215,62.3452,61.6203,158.02,100.297,100.605,0.00147779,0.0497191,20.9315,52.8082,-0.0260865,0.0,0.0
864,215.75,62.0781,61.2858,155.272,100.289,100.806,0.00144949,0.0496934,20.9316,52.7882,-0.0437524,0.0,0.0
867,216.5,62.207,60.9227,156.102,100.303,100.83,0.00142373,0.0496746,20.9317,52.7882,-0.0445272,0.0,0.0
870,217.25,62.4322,60.9581,154.374,100.317,100.782,0.00139294,0.049661,20.9317,52.7682,-0.0393694,0.0,0.0
873,218,61.4449,60.4008,158.979,100.33,100.632,0.00136475,0.0496092,20.9318,52.7782,-0.0255987,0.0,0.0
876,218.75,61.9459,60.392,153.317,100.333,100.794,0.00134311,0.0495536,20.9318,52.8082,-0.0390653,0.0,0.0
879,219.5,61.3306,60.3072,154.505,100.322,100.342,0.00132391,0.049513,20.9318,52.8082,-0.00170354,0.0,0.0
882,220.25,61.664,60.4195,155.778,100.339,101.023,0.00130675,0.0495232,20.9319,52.8082,-0.0577573,0.0,0.0
885,221,60.9603,60.3917,157.172,100.345,100.702,0.00128885,0.0495013,20.9319,52.8183,-0.0302514,0.0,0.0
888,221.75,61.2843,60.0319,153.178,100.339,100.454,0.00125524,0.0494352,20.9317,52.7882,-0.00976843,0.0,0.0
891,222.5,60.8212,59.6192,154.655,100.332,100.659,0.00122001,0.049373,20.9311,52.7982,-0.0276828,0.0,0.0
894,223.25,60.3346,59.496,155.184,100.374,100.639,0.00117597,0.0493217,20.9307,52.7882,-0.0224168,0.0,0.0
897,224,60.5917,59.6425,157.72,100.367,100.793,0.00113566,0.0492247,20.9304,52.7882,-0.0360077,0.0,0.0
900,224.75,60.4935,59.9665,151.647,100.361,100.858,0.00109224,0.0491679,20.9308,52.7882,-0.0419487,0.0,0.0
903,225.5,60.3717,59.4748,155.382,100.374,100.755,0.00106059,0.0491324,20.9311,52.7682,-0.0322787,0.0,0.0
906,226.25,60.335,58.7908,156.24,100.364,100.929,0.00104951,0.0491463,20.9311,52.7482,-0.0477414,0.0,0.0
909,227,59.9676,58.9249,155.015,100.362,100.772,0.00104654,0.0491286,20.9307,52.7282,-0.0346664,0.0,0.0
912,227.75,60.1765,59.1311,155.686,100.368,100.268,0.00107518,0.0490891,20.9304,52.7682,0.00853742,0.0,0.0
915,228.5,60.1132,58.7799,155.463,100.376,100.52,0.00112859,0.0490352,20.9306,52.7782,-0.0122067,0.0,0.0
918,229.25,59.8863,58.6682,152.079,100.378,100.328,0.00118915,0.0489959,20.931,52.8082,0.00426066,0.0,0.0
921,230,59.8475,58.8077,155.172,100.379,100.455,0.00124251,0.0489672,20.9312,52.7982,-0.00648127,0.0,0.0
924,230.75,59.7852,58.5625,152.32,100.408,100.645,0.00128142,0.0489185,20.9314,52.7782,-0.0200533,0.0,0.0
927,231.5,59.7523,57.9942,155.944,100.382,100.673,0.00135667,0.048871,20.9315,52.7682,-0.0245591,0.0,0.0
930,232.25,59.5332,58.5876,154.133,100.39,101.034,0.00143152,0.0488365,20.9314,52.7882,-0.0544276,0.0,0.0
933,233,59.1504,58.3604,158.265,100.389,100.848,0.00151698,0.0488259,20.9314,52.7782,-0.0387504,0.0,0.0
936,233.75,59.3096,58.2138,161.166,100.421,101.406,0.00158959,0.0488433,20.9318,52.8082,-0.0830416,0.0,0.0
939,234.5,59.0966,58.3216,159.83,100.416,101.078,0.00163871,0.0488362,20.9323,52.8082,-0.0558822,0.0,0.0
942,235.25,58.9208,57.8697,156.751,100.421,100.87,0.00166042,0.048803,20.9327,52.8082,-0.037938,0.0,0.0
945,236,58.9846,57.9966,153.285,100.439,100.68,0.00166325,0.0487596,20.933,52.7982,-0.0203115,0.0,0.0
948,236.75,59.0822,57.7161,153.707,100.448,100.509,0.00165328,0.0487155,20.9332,52.7982,-0.00511622,0.0,0.0
951,237.5,59.2472,57.4251,154.821,100.466,100.961,0.00164088,0.0487251,20.9333,52.7882,-0.0418478,0.0,0.0
954,238.25,58.8861,58.2294,159.392,100.459,100.429,0.00161298,0.04875,20.9334,52.7882,0.00254834,0.0,0.0
957,239,58.4626,57.4064,156.75,100.49,100.998,0.00159263,0.0486885,20.9335,52.7882,-0.0429175,0.0,0.0
960,239.75,58.602,57.5656,156.189,100.466,100.242,0.00158223,0.0486298,20.9335,52.7882,0.0189558,0.0,0.0
963,240.5,58.2319,57.4803,159.855,100.487,100.848,0.00158222,0.0485811,20.9336,52.7782,-0.0305084,0.0,0.0
966,241.25,58.7857,57.8664,154.784,100.48,100.569,0.00159595,0.0485455,20.9336,52.7782,-0.00754707,0.0,0.0
969,242,58.539,57.834,155.941,100.488,100.616,0.00160595,0.048478,20.9336,52.7882,-0.0108773,0.0,0.0
972,242.75,58.2146,57.625,155.642,100.5,101.324,0.00161325,0.0484362,20.9336,52.7682,-0.0695129,0.0,0.0
975,243.5,57.9074,57.3987,152.818,100.511,101.27,0.00161375,0.0484182,20.9336,52.7282,-0.0639884,0.0,0.0
978,244.25,58.5146,57.4796,154.758,100.495,101.013,0.00161207,0.0484469,20.9334,52.7282,-0.0437147,0.0,0.0
981,245,57.694,57.1793,157.443,100.491,100.119,0.00160741,0.0485004,20.9332,52.7682,0.0315302,0.0,0.0
984,245.75,57.5921,57.3759,157.306,100.5,100.106,0.0015956,0.0485645,20.9331,52.7382,0.0334024,0.0,0.0
987,246.5,57.641,57.0075,155.835,100.511,100.957,0.00157454,0.0485913,20.933,52.7682,-0.0376583,0.0,0.0
990,247.25,57.7085,56.7343,156.541,100.504,100.855,0.00154403,0.0486108,20.933,52.7282,-0.0296662,0.0,0.0
993,248,57.7503,56.8812,155.032,100.5,100.859,0.00149437,0.0486251,20.9329,52.7782,-0.0303537,0.0,0.0
996,248.75,57.324,56.7775,157.941,100.495,100.52,0.00145248,0.0486215,20.9329,52.8183,-0.0021291,0.0,0.0
999,249.5,57.3251,56.7501,156.338,100.522,100.886,0.00141221,0.0485851,20.9329,52.8683,-0.0307329,0.0,0.0
1002,250.25,57.0801,56.8023,150.383,100.535,101.321,0.00135717,0.0485466,20.9329,52.8082,-0.0662772,0.0,0.0
1005,251,57.5182,56.0299,158.302,100.543,101.155,0.00131704,0.0484789,20.9328,52.7582,-0.0515614,0.0,0.0
1008,251.75,57.2975,56.2477,154.336,100.527,101.006,0.00124158,0.0484301,20.9328,52.7882,-0.0404577,0.0,0.0
1011,252.5,57.064,56.5173,160.279,100.537,100.866,0.00116858,0.0483957,20.9328,52.7782,-0.027811,0.0,0.0
1014,253.25,57.0727,55.8544,156.473,100.555,100.851,0.00110769,0.0483706,20.9328,52.7782,-0.0249772,0.0,0.0
1017,254,56.6786,55.9799,155.307,100.552,101.002,0.00107214,0.0483722,20.9328,52.8183,-0.0379701,0.0,0.0
1020,254.75,56.9159,56.1903,155.758,100.538,101.128,0.00106133,0.0484013,20.9329,52.7582,-0.0497886,0.0,0.0
1023,255.5,56.6926,55.8436,154.72,100.562,101.466,0.00107227,0.0484197,20.9329,52.7782,-0.0760904,0.0,0.0
1026,256.25,56.2889,55.8651,154.447,100.573,101.295,0.00108384,0.048408,20.9329,52.7782,-0.0608411,0.0,0.0
1029,257,56.8959,55.8368,153.666,100.569,100.75,0.00109066,0.0484193,20.933,52.7582,-0.0152268,0.0,0.0
1032,257.75,57.0322,55.844,153.955,100.59,100.993,0.00109023,0.0484423,20.933,52.7682,-0.0340961,0.0,0.0
1035,258.5,56.4781,55.865,156.338,100.588,100.734,0.00109054,0.0484841,20.933,52.7682,-0.0123596,0.0,0.0
1038,259.25,56.553,55.949,153.39,100.597,100.841,0.00109186,0.0484728,20.933,52.7682,-0.020584,0.0,0.0
1041,260,56.4026,55.8601,156.838,100.601,101.107,0.00111849,0.0484394,20.933,52.7682,-0.0427213,0.0,0.0
1044,260.75,56.684,55.6367,158.081,100.598,101.292,0.00116912,0.0484024,20.933,52.7582,-0.0584731,0.0,0.0
1047,261.5,55.8886,55.6661,157.437,100.594,100.87,0.00123706,0.0483954,20.933,52.7682,-0.023333,0.0,0.0
1050,262.25,56.1322,55.2798,154.655,100.626,101.059,0.00131687,0.0483756,20.933,52.7982,-0.0365449,0.0,0.0
1053,263,56.4381,55.4881,153.479,100.616,101.418,0.00138708,0.0483361,20.933,52.7882,-0.0675627,0.0,0.0
1056,263.75,56.1804,55.6874,158.347,100.626,100.865,0.00144086,0.0483471,20.933,52.7882,-0.0201291,0.0,0.0
1059,264.5,56.1298,55.6187,155.534,100.618,100.645,0.00147573,0.0483844,20.933,52.7782,-0.00228127,0.0,0.0
1062,265.25,55.6419,55.3111,154.052,100.611,100.884,0.00148996,0.0484826,20.933,52.7882,-0.0230498,0.0,0.0
1065,266,55.7236,55.5402,157.248,100.62,100.956,0.00147885,0.0484764,20.9328,52.7882,-0.0283427,0.0,0.0
1068,266.75,55.8341,55.7649,159.869,100.623,101.183,0.00146482,0.0484692,20.9322,52.7682,-0.047155,0.0,0.0
1071,267.5,55.2496,54.9187,158.972,100.616,100.796,0.00142459,0.048464,20.9318,52.7682,-0.0152339,0.0,0.0
1074,268.25,55.7442,55.3939,151.601,100.619,100.996,0.00137302,0.0484801,20.9315,52.7782,-0.0318674,0.0,0.0
1077,269,55.7844,55.2852,155.39,100.631,100.576,0.0013149,0.0484639,20.9313,52.7982,0.00462457,0.0,0.0
1080,269.75,55.5557,54.6577,157.547,100.629,100.87,0.00125692,0.0484182,20.9311,52.8183,-0.0203349,0.0,0.0
1083,270.5,55.18,55.1363,154.593,100.628,100.909,0.00119981,0.0483473,20.931,52.7982,-0.0237444,0.0,0.0
1086,271.25,55.382,55.0646,155.861,100.614,100.562,0.00114414,0.0483374,20.9312,52.8082,0.00444515,0.0,0.0
1089,272,55.2199,55.0484,160.415,100.644,100.642,0.00108318,0.048348,20.9317,52.7982,0.000153145,0.0,0.0
1092,272.75,55.4531,54.8063,154.816,100.645,100.758,0.00103005,0.0483963,20.932,52.7982,-0.00954098,0.0,0.0
1095,273.5,55.3935,55.1454,155.372,100.642,100.563,0.000981068,0.0484708,20.9323,52.7982,0.00665774,0.0,0.0
1098,274.25,55.5042,54.9478,155.377,100.64,100.237,0.000941768,0.0485627,20.9323,52.7882,0.0341954,0.0,0.0
1101,275,55.0641,54.9709,154.987,100.642,101.073,0.000911587,0.0486099,20.9322,52.7882,-0.0364258,0.0,0.0
1104,275.75,55.022,54.9257,153.868,100.653,100.502,0.000893002,0.048659,20.9322,52.8082,0.0127756,0.0,0.0
1107,276.5,54.8179,54.7186,154.208,100.637,100.104,0.000879454,0.0487198,20.9322,52.8082,0.0452039,0.0,0.0
1110,277.25,54.9815,54.831,153.758,100.635,100.467,0.000890088,0.0487568,20.9322,52.7882,0.0142773,0.0,0.0
1113,278,54.9685,54.5893,156.925,100.643,100.412,0.00090478,0.0487713,20.9328,52.7782,0.0195397,0.0,0.0
1114,278.25,54.7523,54.2782,157.637,100.65,100.532,0.000913112,0.0487752,20.9329,52.7782,0.00996591,0.0,0.0