File: 01_Data/Latex_Pillow_Foam/Cone/Latex_Pillow_Foam_Cone_HF50Scan_230628_R3.csv
Names,Time,Stack TC,Smoke TC,Exh Press,Smoke Comp,Smoke Meas,CO Meter,CO2 Meter,O2 Meter,Sample Mass,Ext Coeff,Start Test,Flame Verif
Chan Gain,,500,500,1,1,1,1,1,1,1,1,1.0,1.0
Offset,,0,0,0.13804,0,0,0,0,0,0,0,0.0,0.0
Gain,,1,1,25.011,12.9235,68.7969,1,1,1,1.00091,0.969894,1.0,1.0
Units,sec,C,C,Pa,%,%,%,%,%,g,/m,,
Baseline,,55.5055,58.0201,156.427,100.014,100.114,0.000767438,0.0447108,20.9336,-445.434,-0.00844003,,
2,0.25,53.037,54.4577,153.678,99.4162,99.0258,0.000903594,0.0479493,20.9351,71.3352,0.0334741,1.0,0.0
4,0.75,52.6188,54.008,157.937,99.4469,98.8095,0.000975583,0.0488989,20.9343,71.4453,0.0547069,1.0,0.0
6,1.25,52.6996,54.3481,154.764,99.4521,98.9754,0.000998934,0.0491543,20.9338,71.4653,0.0408759,1.0,0.0
8,1.75,52.4222,54.2929,156.328,99.4339,97.3357,0.00103886,0.0496425,20.9331,71.5854,0.181453,0.0,0.0
10,2.25,52.9122,54.6252,160.532,99.4663,94.5685,0.00107121,0.0500843,20.9325,71.2851,0.429594,0.0,0.0
12,2.75,52.9641,54.5127,150.025,99.4659,94.8309,0.00109501,0.0504421,20.9315,71.2051,0.405984,0.0,1.0
14,3.25,52.9947,54.7227,145.882,99.4954,77.9046,0.00111428,0.050718,20.9308,71.155,2.08124,0.0,1.0
16,3.75,52.9445,55.2018,132.674,99.4801,67.7892,0.00110949,0.0509414,20.9299,71.155,3.26322,0.0,1.0
18,4.25,53.42,56.1341,135.757,99.4678,65.1564,0.00110562,0.051035,20.929,71.0749,3.59919,0.0,1.0
20,4.75,53.9347,57.3306,122.844,99.4816,60.2183,0.00107609,0.051032,20.9284,71.0149,4.27091,0.0,1.0
22,5.25,55.0048,59.0598,132.498,99.5108,57.8501,0.00105217,0.0508482,20.9279,70.9048,4.61475,0.0,1.0
24,5.75,55.7861,60.4097,132.088,99.527,54.1549,0.00101842,0.0506993,20.9276,70.7747,5.1777,0.0,1.0
26,6.25,56.5301,62.0733,120.384,99.5179,51.8161,0.000991076,0.0505347,20.9273,70.6145,5.55254,0.0,1.0
28,6.75,57.2934,63.8675,127.232,99.5132,48.5996,0.000967731,0.0503617,20.9271,70.5845,6.09736,0.0,1.0
30,7.25,58.1786,65.6708,127.105,99.5518,50.9616,0.000948821,0.0502289,20.9269,70.5044,5.69691,0.0,1.0
32,7.75,59.3437,67.4738,122.587,99.557,48.1461,0.000941893,0.050128,20.9267,70.3643,6.18086,0.0,1.0
34,8.25,60.3341,69.8196,117.537,99.5534,47.6086,0.000936281,0.0502665,20.9266,70.2342,6.27607,0.0,0.0
36,8.75,61.4234,72.0188,118.714,99.568,41.709,0.000931736,0.050577,20.9265,70.1341,7.40288,0.0,0.0
38,9.25,62.6769,73.376,126.191,99.5578,48.5072,0.000953233,0.0508285,20.9264,69.9739,6.11735,0.0,0.0
40,9.75,63.7285,75.3394,125.107,99.5692,46.3363,0.000970645,0.0562255,20.9263,69.8939,6.50787,0.0,0.0
42,10.25,65.2998,77.5294,110.394,99.5984,43.0653,0.00105438,0.060597,20.9261,69.8238,7.13322,0.0,0.0
44,10.75,66.0165,79.7415,109.242,99.6185,47.09,0.00112221,0.0773294,20.9256,69.6336,6.37481,0.0,0.0
46,11.25,67.1448,81.8572,111.761,99.5929,49.305,0.00139653,0.0908827,20.925,69.5535,5.98156,0.0,0.0
48,11.75,68.5353,84.071,114.46,99.6102,48.461,0.00161873,0.12352,20.9243,69.4434,6.12994,0.0,0.0
50,12.25,69.3195,86.1591,119.717,99.6161,44.8856,0.00225128,0.149956,20.9203,69.3634,6.78252,0.0,0.0
52,12.75,71.4622,88.104,117.856,99.6201,42.4102,0.00276365,0.184902,20.9139,69.1932,7.26548,0.0,0.0
54,13.25,72.3926,90.1848,112.806,99.6264,40.0084,0.00392542,0.225388,20.8948,69.0831,7.76203,0.0,0.0
56,13.75,73.6316,92.6667,106.746,99.6497,45.8618,0.00486645,0.2851,20.8667,68.953,6.60232,0.0,0.0
58,14.25,75.1754,94.4355,120.04,99.6398,40.4388,0.00622683,0.333467,20.844,68.8029,7.67214,0.0,0.0
60,14.75,75.7843,96.4279,111.305,99.6544,41.4172,0.00786706,0.372645,20.7854,68.7328,7.47,0.0,0.0
62,15.25,77.2848,97.8867,107.192,99.6638,42.6097,0.00919565,0.434952,20.738,68.5827,7.2293,0.0,0.0
64,15.75,78.1618,99.4418,114.58,99.6946,42.5551,0.011775,0.485421,20.6754,68.5126,7.24283,0.0,0.0
66,16.25,79.6059,101.785,103.787,99.665,46.4182,0.0138643,0.53705,20.6029,68.3625,6.50104,0.0,0.0
68,16.75,80.938,103.372,109.058,99.6922,43.4012,0.0162004,0.588544,20.5442,68.1923,7.07513,0.0,0.0
70,17.25,82.2006,105.418,113.401,99.7017,45.824,0.0186721,0.630254,20.4482,68.0822,6.61377,0.0,0.0
72,17.75,82.9864,107.577,104.578,99.7356,41.3962,0.0212404,0.68247,20.3703,67.9821,7.48124,0.0,0.0
74,18.25,84.0712,109.967,115.927,99.7112,44.0395,0.0238304,0.724765,20.2587,67.852,6.95254,0.0,0.0
76,18.75,85.8101,110.883,102.874,99.723,42.0806,0.0263605,0.775389,20.1683,67.7319,7.34065,0.0,0.0
78,19.25,86.7378,113.239,113.797,99.7325,43.0674,0.0287988,0.816395,20.0567,67.6618,7.14425,0.0,0.0
80,19.75,88.1158,114.395,99.6377,99.7522,40.2309,0.0307739,0.861904,19.9662,67.4917,7.72557,0.0,0.0
82,20.25,88.9196,116.295,114.004,99.7494,37.7199,0.0331374,0.898767,19.893,67.4216,8.27365,0.0,0.0
84,20.75,90.4442,118.014,108.657,99.7656,40.5857,0.0350518,0.928625,19.8019,67.2615,7.65201,0.0,0.0
86,21.25,91.5986,119.508,105.861,99.7751,43.6888,0.0370451,0.966738,19.7281,67.1313,7.026,0.0,0.0
88,21.75,92.4821,121.028,113.348,99.7845,41.1148,0.039916,0.997609,19.6438,66.9812,7.54343,0.0,0.0
90,22.25,93.6432,122.521,115.431,99.7968,43.229,0.0406883,1.02753,19.5755,66.8911,7.11786,0.0,0.0
92,22.75,95.164,124.24,114.632,99.7865,40.1239,0.042362,1.0562,19.5202,66.771,7.75117,0.0,0.0
94,23.25,95.5922,125.075,107.674,99.8015,40.8503,0.0440355,1.07942,19.4529,66.6109,7.59979,0.0,0.0
96,23.75,97.1989,126.397,123.634,99.7841,43.0128,0.0456016,1.10931,19.3983,66.5908,7.15945,0.0,0.0
98,24.25,97.8493,128.15,113.588,99.7964,41.0434,0.0470596,1.13352,19.3448,66.3506,7.55922,0.0,0.0
100,24.75,98.9171,129.639,114.427,99.8216,41.329,0.0482406,1.16251,19.2931,66.2405,7.50239,0.0,0.0
102,25.25,100.144,130.233,119.763,99.8019,39.9748,0.0495946,1.18599,19.2422,66.1204,7.78415,0.0,0.0
104,25.75,100.483,132.031,103.433,99.811,42.6244,0.0506914,1.20782,19.1928,66.0804,7.23891,0.0,0.0
106,26.25,101.933,133.28,104.076,99.839,40.9847,0.0517273,1.22803,19.1527,65.9603,7.57505,0.0,0.0
108,26.75,102.89,135.209,103.237,99.8409,41.7678,0.0526991,1.24622,19.0987,65.7901,7.41419,0.0,0.0
110,27.25,103.53,136.441,101.594,99.8433,42.4984,0.0536568,1.2626,19.0549,65.72,7.26685,0.0,0.0
112,27.75,104.809,138.513,108.27,99.8559,37.5603,0.0545859,1.27587,19.0035,65.5699,8.31879,0.0,0.0
114,28.25,105.783,139.121,104.894,99.8571,39.6683,0.0554707,1.28982,18.9618,65.4298,7.85434,0.0,0.0
116,28.75,106.449,139.994,106.261,99.8536,40.6718,0.0566626,1.30594,18.9018,65.2997,7.64148,0.0,0.0
118,29.25,107.576,141.123,118.206,99.8618,43.2332,0.0569832,1.31142,18.8856,65.1896,7.12258,0.0,0.0
120,29.75,108.173,142.405,107.307,99.8603,41.1064,0.0577058,1.3208,18.858,65.0294,7.55162,0.0,0.0
122,30.25,109.789,143.858,103.934,99.8685,39.7459,0.0584479,1.32963,18.8303,64.8493,7.83867,0.0,0.0
124,30.75,110.299,144.602,112.281,99.8689,41.3101,0.0591313,1.33791,18.8079,64.7392,7.51032,0.0,0.0
126,31.25,110.839,145.339,105.557,99.9025,40.0042,0.0597588,1.34462,18.7813,64.6791,7.78646,0.0,0.0
128,31.75,111.964,146.904,108.215,99.9036,39.156,0.0603203,1.35183,18.7598,64.559,7.96889,0.0,0.0
130,32.25,112.496,147.435,98.5523,99.91,39.0405,0.0608232,1.35894,18.7402,64.3988,7.99456,0.0,0.0
132,32.75,113.584,148.575,106.202,99.9088,39.3323,0.0612622,1.36582,18.7243,64.2187,7.9311,0.0,0.0
134,33.25,114.191,149.734,118.34,99.9364,39.769,0.0616463,1.37306,18.7074,64.1686,7.83951,0.0,0.0
136,33.75,115.383,150.441,107.642,99.9269,41.5998,0.061995,1.38042,18.6938,64.0485,7.45579,0.0,0.0
138,34.25,115.884,151.994,113.264,99.9391,42.5908,0.0623113,1.38752,18.6796,63.8884,7.25654,0.0,0.0
140,34.75,117.153,152.661,98.0829,99.9127,39.5717,0.0625675,1.39428,18.6681,63.7883,7.87982,0.0,0.0
142,35.25,117.786,154.017,111.323,99.938,39.7333,0.0629054,1.39975,18.6572,63.6582,7.84728,0.0,0.0
144,35.75,118.069,155.266,112.305,99.9545,36.4098,0.0632959,1.40783,18.6425,63.478,8.59187,0.0,0.0
146,36.25,119.153,155.303,96.9869,99.979,38.7256,0.0634009,1.41028,18.6386,63.3479,8.06934,0.0,0.0
148,36.75,120.176,156.559,104.214,99.9573,41.0518,0.0639915,1.4163,18.6217,63.1677,7.57119,0.0,0.0
150,37.25,120.508,157.782,111.731,99.9707,37.0733,0.0641503,1.41795,18.616,63.1077,8.43962,0.0,0.0
152,37.75,121.572,158.474,95.7893,99.9561,38.0537,0.0645631,1.42077,18.6063,62.9575,8.21629,0.0,0.0
154,38.25,122.199,159.256,110.927,99.9892,39.8971,0.0648974,1.42251,18.5958,62.8574,7.81665,0.0,0.0
156,38.75,122.357,160.077,94.723,99.9908,38.3855,0.0652037,1.42342,18.5871,62.6673,8.1454,0.0,0.0
158,39.25,123.794,161.282,118.682,99.9936,39.8089,0.0654838,1.42433,18.5798,62.5772,7.83585,0.0,0.0
160,39.75,124.225,162.142,105.777,99.9829,35.2845,0.0657157,1.42522,18.5739,62.4971,8.8614,0.0,0.0
162,40.25,125.327,162.889,104.601,100.014,34.8352,0.0659082,1.42706,18.5691,62.377,8.97305,0.0,0.0
164,40.75,126.034,163.757,99.5026,100.014,40.8062,0.0660455,1.42956,18.5652,62.1768,7.62712,0.0,0.0
166,41.25,126.603,164.765,98.6691,100.019,37.8816,0.0661399,1.43272,18.5607,62.0067,8.26021,0.0,0.0
168,41.75,127.339,165.973,106.977,100.015,38.2322,0.0661767,1.43631,18.5564,61.9366,8.18152,0.0,0.0
170,42.25,128.405,167.009,107.694,100.05,35.9668,0.0661707,1.43922,18.5523,61.8265,8.70414,0.0,0.0
172,42.75,128.953,168.198,107.962,100.028,41.5977,0.0661659,1.44451,18.549,61.6563,7.46481,0.0,0.0
174,43.25,129.97,168.841,95.3252,100.062,37.9823,0.0660706,1.4488,18.5463,61.5062,8.24126,0.0,0.0
176,43.75,130.177,170.097,101.238,100.052,39.9622,0.0659934,1.45227,18.5429,61.3761,7.80809,0.0,0.0
178,44.25,131.467,170.794,110.034,100.056,38.398,0.0659309,1.4584,18.5391,61.246,8.14815,0.0,0.0
180,44.75,132.289,171.523,109.828,100.062,35.4587,0.0659444,1.46637,18.5361,61.0658,8.82623,0.0,0.0
182,45.25,133.025,172.465,102.211,100.086,37.6653,0.0659553,1.47451,18.5317,61.0157,8.31465,0.0,0.0
184,45.75,133.941,172.647,103.945,100.089,43.9135,0.0660708,1.48263,18.5281,60.8556,7.00905,0.0,0.0
186,46.25,134.122,174.078,111.351,100.093,36.71,0.0662604,1.49002,18.5226,60.7355,8.53375,0.0,0.0
188,46.75,134.721,174.772,100.132,100.095,35.5616,0.0665458,1.49674,18.5181,60.6254,8.80439,0.0,0.0
190,47.25,135.441,175.276,112.738,100.089,37.2118,0.0668954,1.50295,18.5031,60.4953,8.41794,0.0,0.0
192,47.75,136.029,176.17,107.951,100.113,35.6645,0.0671787,1.50868,18.4909,60.3251,8.78136,0.0,0.0
194,48.25,136.874,176.573,112.525,100.101,33.8841,0.0677607,1.51331,18.4769,60.2651,9.21597,0.0,0.0
196,48.75,137.644,176.904,105.712,100.115,32.0008,0.0682322,1.51871,18.4618,60.1249,9.70369,0.0,0.0
198,49.25,137.902,177.721,100.533,100.128,33.3151,0.0689595,1.52456,18.4482,59.9648,9.36232,0.0,0.0
200,49.75,138.447,177.86,105.998,100.136,36.7142,0.0695486,1.53105,18.4359,59.8647,8.5365,0.0,0.0
202,50.25,138.787,177.996,109.166,100.127,37.1089,0.0700258,1.53788,18.4259,59.7946,8.44475,0.0,0.0
204,50.75,139.057,178.456,95.732,100.146,34.1528,0.0708199,1.54341,18.4169,59.5944,9.15261,0.0,0.0
206,51.25,139.726,178.934,109.783,100.145,34.3397,0.0714632,1.54931,18.4087,59.4843,9.10613,0.0,0.0
208,51.75,139.9,178.858,106.58,100.158,36.7142,0.0721884,1.55409,18.3991,59.3642,8.53834,0.0,0.0
210,52.25,140.377,179.527,103.875,100.14,36.2712,0.0727759,1.55736,18.3886,59.2441,8.64011,0.0,0.0
212,52.75,140.917,180.011,104.879,100.16,35.444,0.0733301,1.56001,18.3769,59.124,8.83807,0.0,0.0
214,53.25,141.51,180.587,103.078,100.152,38.4694,0.0737789,1.56178,18.3644,58.9639,8.14052,0.0,0.0
216,53.75,141.891,180.761,114.03,100.182,39.326,0.0741358,1.56286,18.3543,58.8338,7.95567,0.0,0.0
218,54.25,142.899,180.813,115.603,100.184,39.3743,0.0744249,1.56328,18.3461,58.7537,7.94547,0.0,0.0
220,54.75,142.458,181.816,94.7772,100.202,35.866,0.0746125,1.5632,18.3395,58.5635,8.74095,0.0,0.0
222,55.25,143.297,181.703,107.838,100.171,34.9863,0.0747644,1.56163,18.3341,58.4034,8.94961,0.0,0.0
224,55.75,143.148,182.108,107.348,100.216,40.0168,0.0748664,1.56036,18.3298,58.2933,7.81045,0.0,0.0
226,56.25,144.011,182.599,101.383,100.208,36.9725,0.0749301,1.55933,18.3267,58.1231,8.48296,0.0,0.0
228,56.75,144.445,182.96,112.149,100.223,37.785,0.0749817,1.55471,18.3242,58.013,8.29932,0.0,0.0
230,57.25,144.904,183.589,96.5022,100.217,35.7863,0.0750138,1.55097,18.3227,57.9029,8.76114,0.0,0.0
232,57.75,145.085,183.748,99.2378,100.244,37.6401,0.0750312,1.54602,18.3218,57.8128,8.33374,0.0,0.0
234,58.25,145.587,183.703,112.308,100.234,36.1684,0.0750217,1.54028,18.3211,57.7127,8.67221,0.0,0.0
236,58.75,145.869,183.688,108.173,100.245,38.6668,0.0749927,1.53489,18.3219,57.6026,8.10486,0.0,0.0
238,59.25,145.264,184.213,107.064,100.237,35.6561,0.074929,1.52987,18.3225,57.5025,8.79385,0.0,0.0
240,59.75,146.426,183.905,100.012,100.248,38.9145,0.0748413,1.52581,18.3266,57.2923,8.05076,0.0,0.0
242,60.25,146.62,184.208,104.952,100.245,40.5228,0.0747013,1.5219,18.3299,57.1322,7.70599,0.0,0.0
244,60.75,147.064,184.774,98.921,100.277,41.4025,0.0745259,1.51873,18.3409,57.0721,7.52601,0.0,0.0
246,61.25,147.257,185.192,115.653,100.25,44.684,0.0742909,1.51441,18.3499,57.0121,6.87473,0.0,0.0
248,61.75,147.784,185.212,122.663,100.268,40.9742,0.0740168,1.50995,18.3584,56.882,7.61368,0.0,0.0
250,62.25,147.194,185.332,109.449,100.263,40.2435,0.0736944,1.50547,18.3654,56.7318,7.76639,0.0,0.0
252,62.75,147.575,185.959,114.004,100.279,38.5135,0.0733428,1.50183,18.371,56.5517,8.14159,0.0,0.0
254,63.25,148.01,186.06,111.635,100.253,36.9368,0.0730581,1.49734,18.3756,56.4215,8.49503,0.0,0.0
256,63.75,148.561,185.957,99.9148,100.269,35.6309,0.0726904,1.49369,18.3816,56.3515,8.80261,0.0,0.0
258,64.25,148.697,185.842,103.601,100.276,36.7499,0.0722693,1.48956,18.3886,56.2614,8.54008,0.0,0.0
260,64.75,149.182,186.16,105.952,100.282,35.2803,0.0718544,1.48514,18.3942,56.1013,8.88781,0.0,0.0
262,65.25,149.012,186.241,104.683,100.27,37.7346,0.0714519,1.4797,18.4037,56.0512,8.31466,0.0,0.0
264,65.75,149.086,186.317,103.569,100.282,34.2494,0.0710917,1.47362,18.4113,55.841,9.14014,0.0,0.0
266,66.25,149.616,186.362,103.633,100.297,38.0327,0.0707691,1.4687,18.4175,55.7309,8.24998,0.0,0.0
268,66.75,150.036,186.951,96.3587,100.284,36.3888,0.0703963,1.4605,18.4265,55.6208,8.62477,0.0,0.0
270,67.25,150.317,187.804,101.133,100.282,36.2985,0.0701605,1.45331,18.4312,55.5107,8.64573,0.0,0.0
272,67.75,151.114,188.675,102.039,100.286,33.6972,0.0700385,1.45024,18.4354,55.4006,9.27876,0.0,0.0
274,68.25,151.008,188.795,105.746,100.279,35.402,0.0698299,1.44356,18.4427,55.2104,8.85829,0.0,0.0
276,68.75,151.398,189.184,99.6545,100.278,36.3657,0.0696208,1.43816,18.4517,55.0703,8.62963,0.0,0.0
278,69.25,152.051,190.208,105.964,100.285,32.9141,0.0694154,1.43261,18.4616,54.9702,9.47868,0.0,0.0
280,69.75,152.457,190.657,102.438,100.272,33.0989,0.0692106,1.42706,18.4697,54.8701,9.43002,0.0,0.0
282,70.25,153.296,191.476,101.877,100.295,35.0493,0.0690103,1.42256,18.4847,54.71,8.94482,0.0,0.0
284,70.75,153.405,191.598,108.5,100.284,32.6475,0.068848,1.41679,18.4968,54.5999,9.54781,0.0,0.0
286,71.25,153.686,192.045,101.967,100.287,33.5146,0.0686632,1.41212,18.5075,54.4598,9.32507,0.0,0.0
288,71.75,154.192,192.359,97.1097,100.262,30,0.0685135,1.40786,18.517,54.3396,10.2655,0.0,0.0
290,72.25,154.747,193.255,90.0723,100.284,30.7705,0.068389,1.40397,18.5273,54.1495,10.0516,0.0,0.0
292,72.75,155.856,193.925,104.306,100.265,33.8316,0.0682882,1.40226,18.5379,53.9893,9.24312,0.0,0.0
294,73.25,156.208,195.032,109.121,100.273,28.7508,0.0682292,1.40088,18.5475,53.8192,10.6282,0.0,0.0
296,73.75,156.713,195.933,95.1596,100.281,27.7283,0.0681813,1.40217,18.5561,53.669,10.937,0.0,0.0
298,74.25,157.146,197.025,96.8502,100.279,28.6584,0.0681733,1.40537,18.563,53.5289,10.6562,0.0,0.0
300,74.75,157.72,197.354,91.4088,100.255,25.8744,0.0681668,1.41179,18.5686,53.3988,11.5235,0.0,0.0
302,75.25,158.264,199.147,99.2545,100.285,28.4065,0.0682312,1.42042,18.5732,53.3087,10.7318,0.0,0.0
304,75.75,159.327,200.132,102.426,100.26,27.7724,0.0682833,1.43139,18.5769,53.0485,10.9217,0.0,0.0
306,76.25,160.001,201.435,91.1371,100.267,26.8948,0.068452,1.44385,18.5798,52.8983,11.1955,0.0,0.0
308,76.75,160.395,202.429,89.1251,100.25,27.216,0.0685887,1.45395,18.573,52.7582,11.093,0.0,0.0
310,77.25,161.054,203.485,106.281,100.246,27.7136,0.0686994,1.4659,18.5674,52.6481,10.9386,0.0,0.0
312,77.75,161.505,204.381,106.065,100.242,25.3181,0.0689752,1.47897,18.5629,52.548,11.7074,0.0,0.0
314,78.25,162.628,204.781,96.4381,100.249,29.6284,0.0693662,1.49276,18.5473,52.3879,10.3704,0.0,0.0
316,78.75,162.536,206.086,96.4159,100.222,30.084,0.069683,1.5068,18.5347,52.2678,10.2383,0.0,0.0
318,79.25,163.684,206.284,103.02,100.238,28.3141,0.0702943,1.51818,18.5173,52.0876,10.7555,0.0,0.0
320,79.75,163.947,206.477,100.129,100.216,30.548,0.0707894,1.53782,18.4966,51.9975,10.1076,0.0,0.0
322,80.25,164.27,206.831,105.787,100.235,29.5444,0.0716427,1.55373,18.4743,51.8974,10.3934,0.0,0.0
324,80.75,164.733,207.302,104.73,100.216,33.0968,0.0723339,1.57724,18.4414,51.7973,9.42577,0.0,0.0
326,81.25,164.816,207.024,113.728,100.21,33.2647,0.0734529,1.59629,18.4277,51.7072,9.38217,0.0,0.0
328,81.75,165.038,206.386,109.676,100.207,35.5049,0.0743593,1.6234,18.4042,51.6072,8.82745,0.0,0.0
330,82.25,165.121,205.998,104.777,100.214,37.4449,0.0757597,1.64536,18.3749,51.5271,8.37545,0.0,0.0
332,82.75,164.558,206.111,110.512,100.203,35.465,0.0768941,1.66939,18.342,51.437,8.83668,0.0,0.0
334,83.25,164.593,205.047,118.332,100.192,35.2005,0.0785128,1.6945,18.305,51.3569,8.89944,0.0,0.0
336,83.75,164.521,204.174,121.394,100.188,39.0552,0.079824,1.71962,18.2659,51.2969,8.01497,0.0,0.0
338,84.25,164.518,203.118,118.712,100.185,34.2935,0.080886,1.74429,18.2342,51.2168,9.12096,0.0,0.0
340,84.75,163.62,201.903,123.45,100.174,43.5419,0.0827276,1.76427,18.1981,51.0466,7.0886,0.0,0.0
342,85.25,163.144,200.255,120.86,100.152,44.1024,0.0842193,1.7817,18.1594,51.0466,6.97792,0.0,0.0
344,85.75,162.612,199.291,125.203,100.162,43.0632,0.0859016,1.79582,18.1162,51.0166,7.18161,0.0,0.0
346,86.25,162.075,197.352,129.092,100.154,42.9225,0.0872643,1.80201,18.0705,50.9465,7.20884,0.0,0.0
348,86.75,161.213,195.604,130.21,100.147,51.1694,0.0885146,1.80702,18.0335,50.8865,5.71302,0.0,0.0
350,87.25,160.906,194.76,131.104,100.132,47.6065,0.0895273,1.81108,17.9969,50.8064,6.32578,0.0,0.0
352,87.75,159.503,192.096,130.234,100.127,47.4827,0.0901719,1.79806,17.9672,50.7163,6.34748,0.0,0.0
354,88.25,159.172,190.685,131.729,100.111,54.6693,0.0905358,1.7776,17.9432,50.7564,5.14706,0.0,0.0
356,88.75,158.439,188.929,130.325,100.116,61.7489,0.0904767,1.7521,17.9237,50.7764,4.11147,0.0,0.0
358,89.25,157.452,187.421,139.346,100.098,72.0176,0.0901103,1.73144,17.908,50.6963,2.80109,0.0,0.0
360,89.75,156.323,185.528,139.153,100.096,79.1287,0.0898135,1.7147,17.8951,50.6963,1.99982,0.0,0.0
362,90.25,155.428,183.776,144.668,100.089,87.4008,0.0895731,1.67782,17.8846,50.7063,1.15326,0.0,0.0
364,90.75,154.024,181.543,138.877,100.091,88.4988,0.0875968,1.62694,17.8897,50.6963,1.04727,0.0,0.0
366,91.25,152.901,179.557,143.834,100.055,91.8664,0.085996,1.58573,17.9059,50.6963,0.726411,0.0,0.0
368,91.75,152.577,177.53,139.511,100.074,94.9842,0.0846994,1.51974,17.9191,50.7364,0.444105,0.0,0.0
370,92.25,151.502,175.977,144.198,100.058,95.0955,0.0818805,1.46629,17.9493,50.6963,0.432802,0.0,0.0
372,92.75,150.325,173.824,143.806,100.039,97.9928,0.0795972,1.40474,17.9913,50.6763,0.175815,0.0,0.0
374,93.25,149.329,172.125,145.92,100.018,99.895,0.0764625,1.33846,18.0552,50.6863,0.0104724,0.0,0.0
376,93.75,148.332,170.241,147.296,100.032,100.002,0.0739234,1.27004,18.1338,50.6863,0.00253211,0.0,0.0
378,94.25,147.351,167.761,145.164,100.015,99.7522,0.0704421,1.20138,18.2328,50.6963,0.0224049,0.0,0.0
380,94.75,145.986,165.704,143.429,100.036,99.7879,0.0676221,1.13489,18.3448,50.6963,0.0211393,0.0,0.0
382,95.25,144.383,164.07,146.054,99.9798,100.884,0.0642298,1.07125,18.47,50.6963,-0.0765882,0.0,0.0
384,95.75,143.706,162.641,151.002,99.9833,100.39,0.061482,1.01075,18.6024,50.6963,-0.0345757,0.0,0.0
386,96.25,142.598,160.696,146.237,99.9502,100.181,0.0582272,0.953683,18.7358,50.6463,-0.0195837,0.0,0.0
388,96.75,141.51,159.038,147.04,99.9632,100.26,0.0555908,0.897884,18.8672,50.6663,-0.0252482,0.0,0.0
390,97.25,140.545,157.508,142.895,99.9372,100.63,0.0524079,0.844067,18.9737,50.6663,-0.0587627,0.0,0.0
392,97.75,139.754,156.027,153.012,99.9289,100.817,0.0498297,0.800476,19.0936,50.6563,-0.0752513,0.0,0.0
394,98.25,139.054,154.09,148.177,99.8946,101.041,0.0477414,0.740798,19.1907,50.6363,-0.0971098,0.0,0.0
396,98.75,138.106,152.826,147.401,99.9005,100.531,0.0444557,0.692458,19.2842,50.6363,-0.0535391,0.0,0.0
398,99.25,136.894,150.919,150.607,99.8547,101.033,0.0417943,0.643247,19.3734,50.6263,-0.0997954,0.0,0.0
400,99.75,136.355,149.811,151.479,99.8693,101.394,0.0390131,0.594334,19.4456,50.6263,-0.128907,0.0,0.0
402,100.25,135.09,148.671,144.254,99.8319,100.552,0.0361974,0.554714,19.5361,50.6062,-0.0611614,0.0,0.0
404,100.75,134.373,147.189,149.471,99.8421,100.785,0.0325232,0.488642,19.6633,50.6062,-0.0799835,0.0,0.0
406,101.25,133.217,145.647,147.908,99.8141,100.229,0.031269,0.470868,19.7117,50.6062,-0.0352733,0.0,0.0
408,101.75,132.37,144.69,150.67,99.7995,101.102,0.0288298,0.431072,19.7946,50.6062,-0.110334,0.0,0.0
410,102.25,131.444,142.96,149.706,99.7731,101.577,0.0265889,0.398838,19.9024,50.6062,-0.152422,0.0,0.0
412,102.75,129.707,141.05,147.168,99.7881,101.465,0.0246077,0.365867,19.9897,50.6162,-0.141819,0.0,0.0
414,103.25,129.446,139.9,145.869,99.7822,100.561,0.0221055,0.324987,20.1297,50.5962,-0.0661086,0.0,0.0
416,103.75,128.217,138.815,151.369,99.7968,100.432,0.0213417,0.312231,20.1674,50.6162,-0.0540218,0.0,0.0
418,104.25,127.193,137.38,149.074,99.7715,100.08,0.0200356,0.290419,20.2477,50.6263,-0.0262426,0.0,0.0
420,104.75,126.792,136.497,150.357,99.8102,100.821,0.0189777,0.268181,20.3127,50.6062,-0.0857181,0.0,0.0
422,105.25,126.267,135.171,148.877,99.7975,100.802,0.0180803,0.250169,20.3654,50.5962,-0.0851998,0.0,0.0
424,105.75,125.136,134.258,149.305,99.8236,100.359,0.017317,0.233723,20.4201,50.6263,-0.0455091,0.0,0.0
426,106.25,124.189,132.885,146.621,99.8102,100.43,0.0166845,0.218733,20.4643,50.5962,-0.0527007,0.0,0.0
428,106.75,123.921,131.924,149.05,99.822,100.435,0.0161595,0.20536,20.5094,50.5962,-0.0520486,0.0,0.0
430,107.25,122.964,131.107,146.225,99.8256,100.586,0.0157047,0.19342,20.546,50.6162,-0.0645408,0.0,0.0
432,107.75,122.311,130.454,146.7,99.8378,101.18,0.0153096,0.183749,20.5827,50.6263,-0.113608,0.0,0.0
434,108.25,121.999,128.782,148.528,99.8472,100.414,0.0149411,0.17375,20.6124,50.6162,-0.0481188,0.0,0.0
436,108.75,120.958,127.84,148.288,99.848,101.079,0.0145992,0.16565,20.6436,50.5962,-0.104256,0.0,0.0
438,109.25,120.767,126.811,147.732,99.8492,100.98,0.0142713,0.1575,20.6688,50.6263,-0.095845,0.0,0.0
440,109.75,119.731,126.159,149.269,99.8733,101.831,0.0139598,0.150899,20.6926,50.6162,-0.165135,0.0,0.0
442,110.25,119.276,125.103,143.116,99.8638,101.344,0.0137075,0.143712,20.7119,50.6162,-0.125149,0.0,0.0
444,110.75,118.504,124.56,153.613,99.8863,101.081,0.0133673,0.13789,20.7294,50.6263,-0.101173,0.0,0.0
446,111.25,117.705,123.577,148.268,99.8847,101.22,0.0130918,0.132368,20.7452,50.6162,-0.112963,0.0,0.0
448,111.75,116.973,122.896,150.467,99.8954,100.875,0.0128686,0.12717,20.758,50.6162,-0.0830657,0.0,0.0
450,112.25,116.487,122.053,148.14,99.9013,101.526,0.0125057,0.122959,20.7684,50.6263,-0.137278,0.0,0.0
452,112.75,116.214,121.227,149.664,99.9092,100.749,0.0122118,0.119549,20.778,50.6263,-0.0712586,0.0,0.0
454,113.25,115.458,120.374,149.722,99.9257,101.543,0.0119737,0.114805,20.7868,50.6263,-0.136603,0.0,0.0
456,113.75,114.733,119.238,148.276,99.9151,101.184,0.011552,0.110963,20.7949,50.6463,-0.107376,0.0,0.0
458,114.25,114.266,118.827,146.626,99.9297,100.951,0.0112104,0.107298,20.8023,50.6463,-0.0865157,0.0,0.0
460,114.75,113.583,118.059,149.199,99.9356,100.741,0.010776,0.103832,20.8094,50.6363,-0.0682998,0.0,0.0
462,115.25,113.041,117.41,147.021,99.9506,100.907,0.0104241,0.100562,20.8162,50.6162,-0.0810196,0.0,0.0
464,115.75,112.651,116.731,151.892,99.962,100.47,0.00999949,0.0974975,20.8234,50.6363,-0.0431464,0.0,0.0
466,116.25,111.527,116.066,150.602,99.9813,101.006,0.00965555,0.0946358,20.8307,50.6263,-0.0867171,0.0,0.0
468,116.75,111.523,115.263,150.347,99.9715,100.987,0.00923784,0.0919762,20.8377,50.6363,-0.085965,0.0,0.0
470,117.25,110.904,114.711,151.142,99.9888,100.537,0.00889951,0.0891445,20.8445,50.6563,-0.0465517,0.0,0.0
472,117.75,110.601,114.159,150.36,99.9924,101.041,0.00849674,0.0868509,20.8504,50.6563,-0.0887834,0.0,0.0
474,118.25,110.334,112.992,153.381,100.005,101.15,0.00817049,0.0845703,20.8557,50.6463,-0.096898,0.0,0.0
476,118.75,109.084,112.29,146.233,100.006,100.672,0.00790623,0.0823426,20.8599,50.6363,-0.0564386,0.0,0.0
478,119.25,108.641,111.766,150.107,100.023,100.38,0.00751101,0.0805382,20.864,50.6463,-0.0302972,0.0,0.0
480,119.75,108.428,111.011,151.703,100.032,100.342,0.00719088,0.0782903,20.868,50.6263,-0.0263546,0.0,0.0
482,120.25,107.792,110.191,150.616,100.043,101.069,0.00699818,0.077332,20.8697,50.6263,-0.0867529,0.0,0.0
484,120.75,107.478,109.989,151.379,100.059,101.18,0.00666867,0.0756933,20.8736,50.6363,-0.0947404,0.0,0.0
486,121.25,106.3,109.602,149.54,100.071,100.873,0.00636051,0.0736919,20.8768,50.6162,-0.0679205,0.0,0.0
488,121.75,106.832,108.818,149.883,100.067,100.256,0.00607376,0.0720708,20.8803,50.5962,-0.0160351,0.0,0.0
490,122.25,106.206,108.187,149.735,100.098,101.961,0.00580483,0.0702948,20.8831,50.5962,-0.156909,0.0,0.0
492,122.75,105.584,107.781,149.929,100.093,101.692,0.00555399,0.0688563,20.8867,50.6062,-0.134858,0.0,0.0
494,123.25,104.552,107.177,152.678,100.101,100.936,0.00531165,0.0673127,20.8896,50.6162,-0.0706828,0.0,0.0
496,123.75,104.521,106.367,150.325,100.104,100.941,0.0050801,0.0658708,20.8933,50.6162,-0.0707692,0.0,0.0
498,124.25,103.919,105.604,153.165,100.141,100.854,0.00485153,0.0645304,20.8963,50.5962,-0.0604269,0.0,0.0
500,124.75,103.587,105.689,147.58,100.14,100.743,0.00462949,0.0634447,20.8992,50.6062,-0.051069,0.0,0.0
502,125.25,103.21,104.557,151.375,100.157,100.873,0.00444963,0.0622575,20.9015,50.5962,-0.0606139,0.0,0.0
504,125.75,102.711,103.906,146.907,100.128,100.153,0.00424962,0.0612958,20.9034,50.5862,-0.00210425,0.0,0.0
506,126.25,102.163,103.676,145.022,100.152,100.661,0.00403871,0.0603697,20.9053,50.5762,-0.043179,0.0,0.0
508,126.75,102.112,103.346,150.585,100.149,100.991,0.00383217,0.059487,20.9069,50.5962,-0.0711946,0.0,0.0
510,127.25,101.284,102.781,148.901,100.167,100.449,0.00363273,0.0586176,20.9087,50.5962,-0.023931,0.0,0.0
512,127.75,100.68,102.288,153.503,100.164,101.335,0.00347118,0.0577743,20.9101,50.5862,-0.0989458,0.0,0.0
514,128.25,100.748,101.877,146.535,100.182,101.377,0.00328953,0.0570913,20.9117,50.6162,-0.10093,0.0,0.0
516,128.75,100.567,101.437,150.77,100.178,101.551,0.00304661,0.0559435,20.9135,50.6263,-0.115843,0.0,0.0
518,129.25,99.8975,101.286,148.042,100.183,101.22,0.0029604,0.0556348,20.9142,50.6162,-0.0875706,0.0,0.0
520,129.75,99.2353,100.535,152.042,100.207,101.041,0.002813,0.0550187,20.9154,50.5962,-0.0705815,0.0,0.0
522,130.25,99.3026,100.099,151.786,100.214,101.262,0.00264657,0.0544402,20.9164,50.5762,-0.0884878,0.0,0.0
524,130.75,99.211,100.037,152.042,100.22,101.144,0.00251176,0.0538542,20.9177,50.5862,-0.0780677,0.0,0.0
526,131.25,98.6009,99.5629,152.427,100.238,101.69,0.00238038,0.0532737,20.9187,50.5862,-0.122388,0.0,0.0
528,131.75,97.8475,98.635,151.562,100.233,101.461,0.002254,0.0528035,20.92,50.6062,-0.103655,0.0,0.0
530,132.25,97.4146,98.9236,147.745,100.24,100.781,0.00215163,0.0522831,20.921,50.6062,-0.0457528,0.0,0.0
532,132.75,97.1674,98.3231,148.65,100.259,101.99,0.0020242,0.0518616,20.9218,50.5962,-0.145662,0.0,0.0
534,133.25,96.6763,97.7029,147.989,100.27,101.871,0.00192098,0.0514615,20.9225,50.5962,-0.13477,0.0,0.0
536,133.75,96.9413,97.1965,148.56,100.274,101.134,0.0017606,0.0509238,20.9237,50.5962,-0.0726655,0.0,0.0
538,134.25,96.8266,96.9572,150.226,100.27,101.409,0.00171745,0.0507204,20.9241,50.5962,-0.0960399,0.0,0.0
540,134.75,96.1007,96.617,151.901,100.273,100.987,0.00157455,0.0502244,20.9251,50.5862,-0.0603268,0.0,0.0
542,135.25,95.9011,96.6096,148.551,100.279,101.862,0.0015015,0.0499709,20.9256,50.5862,-0.133265,0.0,0.0
544,135.75,95.8481,96.1855,147.781,100.301,101.44,0.00144234,0.049668,20.926,50.6062,-0.0960712,0.0,0.0
546,136.25,95.1514,95.8321,147.858,100.304,100.987,0.00140196,0.0495388,20.9261,50.5962,-0.0577502,0.0,0.0
548,136.75,94.9525,94.7808,150.905,100.307,101.27,0.00130348,0.0491402,20.9264,50.6062,-0.0813278,0.0,0.0
550,137.25,94.813,94.9611,149.222,100.298,101.785,0.0012732,0.0490198,20.9265,50.5962,-0.125202,0.0,0.0
552,137.75,94.1765,94.5067,154.375,100.3,101.369,0.00119935,0.0486565,20.9267,50.5862,-0.0902158,0.0,0.0
554,138.25,93.3974,94.2221,152.868,100.32,101.064,0.00118012,0.0485478,20.9267,50.5962,-0.0629212,0.0,0.0
556,138.75,93.4616,93.9576,150.772,100.311,100.453,0.00114723,0.0483619,20.9268,50.5762,-0.0120686,0.0,0.0
558,139.25,93.1528,93.8161,152.175,100.316,101.938,0.00112058,0.0481278,20.9269,50.5862,-0.136464,0.0,0.0
560,139.75,92.6562,93.2902,151.676,100.36,101.524,0.00110469,0.0479381,20.9269,50.5662,-0.0980952,0.0,0.0
562,140.25,92.8494,93.2574,149.305,100.356,100.913,0.00109692,0.0477331,20.9274,50.5762,-0.0471091,0.0,0.0
564,140.75,92.2166,92.839,152.001,100.37,100.957,0.00109063,0.0475209,20.9278,50.5762,-0.0496218,0.0,0.0
566,141.25,92.3797,92.346,148.208,100.369,100.85,0.00109273,0.047349,20.9281,50.5862,-0.040661,0.0,0.0
568,141.75,92.236,92.4077,149.043,100.389,101.237,0.00109002,0.0471819,20.9284,50.5862,-0.0715168,0.0,0.0
570,142.25,91.6236,91.9833,148.586,100.383,100.863,0.00108384,0.0470465,20.9286,50.5862,-0.0405535,0.0,0.0
572,142.75,92.0423,91.7119,148.545,100.397,100.533,0.00107,0.046909,20.9288,50.5862,-0.0115338,0.0,0.0
574,143.25,91.2934,91.2082,151.327,100.396,100.153,0.00105084,0.0467976,20.9294,50.5762,0.0205859,0.0,0.0
576,143.75,91.0871,91.0827,147.493,100.41,101.071,0.00100592,0.0466656,20.9298,50.5662,-0.0557949,0.0,0.0
578,144.25,90.6999,90.4899,148.053,100.405,100.67,0.000990261,0.0465587,20.9302,50.5962,-0.0224071,0.0,0.0
580,144.75,90.7386,90.5815,151.097,100.433,101.134,0.000949608,0.0464721,20.9305,50.5862,-0.0591242,0.0,0.0
582,145.25,90.2239,90.1181,151.389,100.427,101.6,0.000904198,0.046402,20.9308,50.5962,-0.0987452,0.0,0.0
584,145.75,90.034,89.7167,151.372,100.454,100.966,0.000867416,0.0463231,20.931,50.6062,-0.0432458,0.0,0.0
586,146.25,89.6103,89.747,148.672,100.416,100.804,0.000822506,0.0462395,20.9311,50.5862,-0.0327862,0.0,0.0
588,146.75,89.8407,89.3251,151.853,100.459,101.402,0.000772523,0.0461791,20.9313,50.5862,-0.0794967,0.0,0.0
590,147.25,89.6208,89.2697,153.262,100.454,101.025,0.000725741,0.0461368,20.9314,50.5862,-0.0481978,0.0,0.0
592,147.75,88.9457,88.9443,147.119,100.465,101.302,0.000682183,0.0461025,20.9315,50.5962,-0.0705365,0.0,0.0
594,148.25,88.8116,88.6881,153.249,100.457,101.081,0.000645013,0.046019,20.9315,50.5762,-0.0527027,0.0,0.0
596,148.75,88.0817,88.5711,148.393,100.474,100.995,0.000613205,0.0459513,20.9316,50.5862,-0.0440521,0.0,0.0
598,149.25,87.8719,88.4333,148.439,100.487,100.884,0.00058933,0.0458966,20.9316,50.5662,-0.0335376,0.0,0.0
600,149.75,88.4963,87.876,150.691,100.493,101.123,0.00057169,0.0458522,20.9317,50.5662,-0.053164,0.0,0.0
602,150.25,88.059,88.2574,152.167,100.494,101.138,0.000557401,0.045858,20.9317,50.5662,-0.0543337,0.0,0.0
604,150.75,87.817,87.5582,151.568,100.504,100.804,0.000560181,0.0458628,20.9317,50.5762,-0.0253378,0.0,0.0
606,151.25,87.4097,87.5964,148.751,100.505,101.178,0.000562433,0.0458739,20.9317,50.5862,-0.0567541,0.0,0.0
608,151.75,87.4363,87.2702,154.349,100.523,101.396,0.000569042,0.0458896,20.9318,50.5462,-0.0735928,0.0,0.0
610,152.25,86.8714,86.9272,154.776,100.519,101.006,0.000574396,0.0458876,20.9318,50.5562,-0.0410635,0.0,0.0
612,152.75,86.8731,86.8996,150.689,100.528,101.369,0.000575584,0.0458728,20.9318,50.5462,-0.0708352,0.0,0.0
614,153.25,86.8468,86.7365,150.857,100.54,101.05,0.000573712,0.0458608,20.9322,50.5362,-0.0430077,0.0,0.0
616,153.75,86.3253,86.3827,151.165,100.541,100.512,0.000572197,0.0458371,20.9326,50.5462,0.00246621,0.0,0.0
618,154.25,86.2348,85.7273,151.345,100.535,101.077,0.000572165,0.045818,20.9329,50.5362,-0.0457054,0.0,0.0
620,154.75,86.1503,85.7972,151.981,100.534,100.983,0.000580327,0.0457885,20.9331,50.5362,-0.0378493,0.0,0.0
622,155.25,85.9268,85.9327,151.497,100.55,101.088,0.000594307,0.0457647,20.9333,50.5262,-0.045321,0.0,0.0
624,155.75,85.6865,85.6144,151.953,100.568,100.993,0.000616343,0.0457036,20.9335,50.5462,-0.0358646,0.0,0.0
626,156.25,85.0598,85.0819,149.581,100.547,100.46,0.000643833,0.0456541,20.9336,50.5562,0.00734379,0.0,0.0
628,156.75,84.804,85.0556,154.191,100.562,100.495,0.000655552,0.0456184,20.9337,50.5762,0.00562297,0.0,0.0
630,157.25,85.1189,85.2322,148.295,100.56,100.817,0.000686372,0.0455572,20.9338,50.5862,-0.0216612,0.0,0.0
632,157.75,85.1548,84.6971,156.464,100.563,101.623,0.000711336,0.0455077,20.9338,50.5862,-0.0892262,0.0,0.0
634,158.25,84.5445,84.5033,149.142,100.563,101.375,0.000731557,0.0454676,20.9339,50.5762,-0.0684271,0.0,0.0
636,158.75,84.147,84.7343,151.166,100.564,100.563,0.000738354,0.0454351,20.9338,50.5962,0.000137932,0.0,0.0
638,159.25,84.3046,84.1898,146.043,100.572,101.318,0.00074386,0.0453941,20.9335,50.6162,-0.0629339,0.0,0.0
640,159.75,84.1169,84.46875,148.623,100.556,100.81,0.000743918,0.045328,20.9331,50.6162,-0.0215301,0.0,0.0
642,160.25,84.371,83.9057,149.596,100.589,101.144,0.000739957,0.0453102,20.933,50.5862,-0.0467873,0.0,0.0
644,160.75,83.8357,84.2509,151.203,100.578,101.774,0.000733183,0.0452577,20.9329,50.6062,-0.100605,0.0,0.0
646,161.25,83.6721,83.9254,152.837,100.576,101.463,0.000736078,0.0451955,20.9327,50.6062,-0.0746895,0.0,0.0
648,161.75,83.6747,83.5628,153.014,100.595,100.756,0.000738424,0.0451451,20.9326,50.6062,-0.0135856,0.0,0.0
650,162.25,83.7308,83.3671,150.409,100.586,100.819,0.000749779,0.0451042,20.9325,50.5962,-0.0196696,0.0,0.0
652,162.75,83.5234,83.0742,152.955,100.593,100.726,0.000767488,0.0450785,20.9325,50.5962,-0.0112708,0.0,0.0
654,163.25,82.9131,83.1444,152.017,100.609,100.777,0.000781832,0.0450642,20.9324,50.5662,-0.0141575,0.0,0.0
656,163.75,82.7723,82.4776,152.466,100.597,101.419,0.00079345,0.0450673,20.9324,50.6062,-0.069291,0.0,0.0
658,164.25,82.5109,82.5566,146.738,100.621,100.865,0.000794035,0.045083,20.9323,50.6062,-0.0205987,0.0,0.0
660,164.75,82.5915,82.6548,153.609,100.609,100.485,0.000786566,0.0451177,20.9323,50.6263,0.010516,0.0,0.0
662,165.25,81.9931,82.6282,148.926,100.63,100.865,0.000771694,0.0451656,20.9323,50.6162,-0.0198317,0.0,0.0
664,165.75,82.6279,81.9382,148.203,100.619,101.136,0.000751707,0.0452044,20.9323,50.6162,-0.0435791,0.0,0.0
666,166.25,82.2297,81.5503,151.919,100.64,101.178,0.000735519,0.0451662,20.9323,50.6062,-0.0453097,0.0,0.0
668,166.75,82.0343,81.9194,149.627,100.618,100.613,0.000723036,0.0451353,20.9322,50.6062,0.000411761,0.0,0.0
670,167.25,81.9358,81.5216,147.818,100.631,100.71,0.000713492,0.0451176,20.9322,50.5962,-0.00664975,0.0,0.0
672,167.75,81.5686,81.5893,148.894,100.623,101.255,0.000713323,0.0451098,20.9322,50.6062,-0.0533406,0.0,0.0
674,168.25,81.6072,81.7457,155.506,100.629,100.882,0.000719992,0.0450962,20.9322,50.6263,-0.021315,0.0,0.0
676,168.75,81.399,81.8693,150.87,100.643,100.668,0.000729175,0.0450786,20.9322,50.6062,-0.00206823,0.0,0.0
678,169.25,81.4092,81.4225,151.46,100.63,100.758,0.000740017,0.0450643,20.9322,50.6263,-0.0108275,0.0,0.0
680,169.75,81.1096,81.2555,152.669,100.616,101.453,0.000748799,0.0450527,20.9322,50.5862,-0.0704404,0.0,0.0
682,170.25,80.7584,81.1816,149.368,100.634,101.253,0.000755912,0.045036,20.9322,50.6062,-0.0522302,0.0,0.0
684,170.75,80.6974,80.926,152.872,100.632,101.283,0.000764196,0.0450159,20.9322,50.5962,-0.0548665,0.0,0.0
686,171.25,80.5824,80.9378,151.321,100.649,101.289,0.000773175,0.0449996,20.9322,50.6162,-0.0539284,0.0,0.0
688,171.75,80.5011,80.4583,148.638,100.636,100.831,0.000780449,0.0449434,20.9322,50.6162,-0.0164634,0.0,0.0
690,172.25,80.6921,80.4163,153.618,100.639,100.258,0.000794731,0.0448979,20.9321,50.6363,0.0322688,0.0,0.0
692,172.75,80.2814,80.2843,150.432,100.641,101.654,0.0008063,0.0448683,20.932,50.6263,-0.0852254,0.0,0.0
694,173.25,79.9947,80.1821,148.673,100.664,101.249,0.000815671,0.0448509,20.9318,50.6062,-0.0493102,0.0,0.0
696,173.75,80.0167,79.9784,150.359,100.646,102.356,0.000837642,0.0448369,20.9317,50.5862,-0.143279,0.0,0.0
698,174.25,79.8061,79.8961,150.262,100.649,101.581,0.000864287,0.0448534,20.9317,50.5162,-0.078406,0.0,0.0
700,174.75,79.5667,79.7334,153.566,100.655,101.369,0.000879419,0.0448724,20.9316,50.5362,-0.0601609,0.0,0.0
702,175.25,79.8895,79.6607,152.565,100.649,101.268,0.000887259,0.0448821,20.9315,50.5262,-0.0521644,0.0,0.0
704,175.75,79.2654,79.5031,154.9,100.664,101.142,0.00088851,0.0448863,20.9315,50.5262,-0.0402748,0.0,0.0
706,176.25,79.7441,79.4858,151.252,100.651,101.127,0.000890649,0.0449351,20.9315,50.4961,-0.0401724,0.0,0.0
708,176.75,79.605,79.3748,149.905,100.67,101.371,0.000870816,0.0449747,20.9314,50.5162,-0.0590032,0.0,0.0
710,177.25,78.9665,79.0832,150.476,100.655,101.264,0.000854752,0.0450067,20.9314,50.5362,-0.0513461,0.0,0.0
712,177.75,79.1262,79.2206,155.74,100.657,101.346,0.000822581,0.0450327,20.9314,50.5862,-0.0579886,0.0,0.0
714,178.25,78.9251,78.4895,149.509,100.639,101.339,0.000796523,0.045012,20.9314,50.5962,-0.058994,0.0,0.0
716,178.75,78.7133,78.8181,150.399,100.674,101.148,0.00077781,0.0449952,20.9314,50.5362,-0.0399711,0.0,0.0
718,179.25,78.8121,78.4001,150.519,100.647,101.062,0.000762653,0.0449449,20.9314,50.5662,-0.0350615,0.0,0.0
720,179.75,78.6588,78.3752,149.058,100.631,101.253,0.000750376,0.0448713,20.9314,50.5962,-0.0524639,0.0,0.0
722,180.25,78.5071,78.482,153.662,100.654,101.102,0.00077548,0.0447861,20.9314,50.6062,-0.0377852,0.0,0.0
724,180.75,78.2984,78.424,153.223,100.66,101.451,0.000782233,0.0447632,20.9313,50.5762,-0.0665629,0.0,0.0
726,181.25,78.2276,78.1686,152.159,100.638,101.392,0.000793781,0.0447519,20.9313,50.5862,-0.0634653,0.0,0.0
728,181.75,78.3489,78.4478,149.277,100.66,102.12,0.000810072,0.0447428,20.9313,50.5962,-0.122544,0.0,0.0
730,182.25,78.0387,78.4124,151.285,100.645,101.363,0.000829511,0.0447354,20.9314,50.5962,-0.0604321,0.0,0.0
732,182.75,77.9854,78.142,149.922,100.661,101.394,0.0008421,0.0447445,20.9314,50.5662,-0.0617079,0.0,0.0
734,183.25,77.9509,78.0927,148.017,100.635,101.207,0.000849457,0.0447519,20.9316,50.5462,-0.0482157,0.0,0.0
736,183.75,77.789,78.3061,151.073,100.68,101.638,0.000852263,0.0447719,20.9317,50.5462,-0.0805522,0.0,0.0
738,184.25,77.5139,78.0709,149.846,100.641,101.671,0.000851698,0.044788,20.9319,50.5562,-0.0866305,0.0,0.0
740,184.75,77.7547,77.9261,152.52,100.66,101.318,0.000848087,0.0448289,20.932,50.5462,-0.0554305,0.0,0.0
742,185.25,77.6573,77.8449,147.72,100.641,100.812,0.000842326,0.0448621,20.932,50.5662,-0.0145024,0.0,0.0
744,185.75,77.5487,77.8102,146.76,100.649,100.852,0.000833876,0.0448611,20.9321,50.5962,-0.0171682,0.0,0.0
746,186.25,77.4836,77.5147,152.348,100.652,100.754,0.000823628,0.0448603,20.9322,50.5662,-0.00857341,0.0,0.0
748,186.75,77.673,77.7321,153.949,100.652,100.586,0.000815326,0.0448743,20.9322,50.5762,0.00562094,0.0,0.0
750,187.25,77.5681,77.8666,153.116,100.615,100.794,0.000792563,0.0449093,20.9323,50.5562,-0.0150754,0.0,0.0
752,187.75,77.0601,77.6364,153.594,100.649,101.006,0.000784368,0.0449407,20.9323,50.5562,-0.0300881,0.0,0.0
754,188.25,76.7841,77.4019,151.399,100.628,101.44,0.000755999,0.0450173,20.9323,50.5462,-0.0684174,0.0,0.0
756,188.75,76.873,77.2958,151.156,100.639,101.014,0.00074705,0.0450379,20.9323,50.5562,-0.0316617,0.0,0.0
758,189.25,76.8047,76.9081,150.367,100.634,101.493,0.000723558,0.0450592,20.9323,50.5862,-0.0722844,0.0,0.0
760,189.75,76.7102,76.9305,146.71,100.639,100.642,0.000697161,0.0450764,20.9323,50.5662,-0.000305284,0.0,0.0
762,190.25,76.8231,77.2015,150.089,100.64,101.171,0.000669483,0.0451322,20.9324,50.5862,-0.0448137,0.0,0.0
764,190.75,76.7535,76.8629,154.987,100.64,100.703,0.000641397,0.0451773,20.9324,50.5562,-0.00535115,0.0,0.0
766,191.25,76.2624,77.1392,151.78,100.628,100.516,0.000618648,0.0452139,20.9324,50.5562,0.00945026,0.0,0.0
768,191.75,76.0396,76.9933,149.748,100.627,101.539,0.000596633,0.0452435,20.9324,50.5562,-0.0767218,0.0,0.0
770,192.25,76.3634,76.736,157.235,100.623,100.98,0.000578801,0.0452449,20.9324,50.5662,-0.0301659,0.0,0.0
772,192.75,75.9544,76.7944,148.591,100.621,101.079,0.000563101,0.0452256,20.9324,50.5662,-0.0386093,0.0,0.0
774,193.25,76.1661,76.6556,149.246,100.611,101.331,0.000549255,0.04521,20.9324,50.5662,-0.0606563,0.0,0.0
776,193.75,76.1005,76.3622,152.992,100.62,101.23,0.00053804,0.04519,20.9324,50.5862,-0.0514573,0.0,0.0
778,194.25,76.534,76.4734,154.794,100.625,100.626,0.000534621,0.0451672,20.9324,50.5962,-8.57015e-05,0.0,0.0
780,194.75,75.9811,76.6037,154.014,100.613,101.325,0.000536949,0.0451488,20.9322,50.5862,-0.0599933,0.0,0.0
782,195.25,75.2186,76.3355,150.055,100.614,100.833,0.000548282,0.0451339,20.9321,50.5762,-0.0185082,0.0,0.0
784,195.75,76.0756,76.154,150.953,100.599,100.174,0.000565962,0.0451144,20.932,50.5662,0.0359983,0.0,0.0
786,196.25,75.7872,75.6334,151.806,100.605,101.006,0.000589734,0.0450921,20.9319,50.5462,-0.0337891,0.0,0.0
788,196.75,75.6292,76.4117,155.974,100.585,101.57,0.000617495,0.045074,20.9318,50.5662,-0.0829294,0.0,0.0
790,197.25,75.7177,75.6496,149.977,100.607,101.174,0.000643762,0.0449897,20.9318,50.5962,-0.0477914,0.0,0.0
792,197.75,75.0028,75.7574,149.881,100.586,101.171,0.000668443,0.0449215,20.9317,50.5762,-0.0493495,0.0,0.0
794,198.25,75.3969,75.6026,153.496,100.61,101.289,0.000692217,0.0448801,20.9317,50.5462,-0.0572299,0.0,0.0
796,198.75,75.1045,75.2126,152.038,100.594,100.728,0.000714878,0.0448466,20.9317,50.4961,-0.011348,0.0,0.0
798,199.25,74.9948,75.677,149.109,100.599,100.479,0.000733233,0.0448751,20.9316,50.4561,0.0101817,0.0,0.0
800,199.75,74.8456,75.6551,149.759,100.591,100.888,0.000757685,0.0448983,20.9316,50.4661,-0.0250804,0.0,0.0
802,200.25,75.2471,75.6244,152.902,100.6,101.033,0.000777491,0.0449097,20.9316,50.4361,-0.036521,0.0,0.0
804,200.75,75.1939,75.4366,154.053,100.592,100.502,0.000804258,0.0449123,20.9316,50.4661,0.0076255,0.0,0.0
806,201.25,74.4973,75.1265,149.015,100.6,101.119,0.000848948,0.044908,20.9316,50.4861,-0.0437672,0.0,0.0
808,201.75,74.8534,75.0843,154.229,100.577,100.403,0.000860969,0.0449023,20.9316,50.5362,0.0147157,0.0,0.0
810,202.25,75.2286,75.1501,150.734,100.583,100.01,0.000894717,0.0448924,20.9318,50.5462,0.0485496,0.0,0.0
812,202.75,74.9086,75.1883,157.919,100.567,100.382,0.000922052,0.0448704,20.9322,50.5662,0.0156937,0.0,0.0
814,203.25,74.4746,74.9943,154.033,100.582,100.376,0.000951136,0.04484,20.9325,50.5762,0.0174297,0.0,0.0
816,203.75,74.3639,74.8554,155.496,100.577,100.466,0.000980943,0.0448153,20.9328,50.5962,0.00941379,0.0,0.0
818,204.25,74.8491,75.1644,150.072,100.58,99.9769,0.00100509,0.0448174,20.933,50.6162,0.0511409,0.0,0.0
820,204.75,74.2584,74.9336,150.447,100.554,100.699,0.00102969,0.0448388,20.9331,50.6062,-0.0122341,0.0,0.0
822,205.25,74.6301,75.4768,151.964,100.574,101.318,0.00105417,0.0448708,20.9332,50.6062,-0.0627337,0.0,0.0
824,205.75,74.6606,75.161,152.256,100.56,100.995,0.001074,0.0449099,20.9332,50.5962,-0.0367079,0.0,0.0
826,206.25,74.3968,75.1074,148.652,100.575,100.361,0.00109006,0.0449196,20.9332,50.5962,0.0181078,0.0,0.0
828,206.75,74.3419,74.7002,153.328,100.541,100.823,0.00109802,0.0449077,20.9332,50.5862,-0.0237947,0.0,0.0
830,207.25,74.1257,74.6543,151.242,100.561,100.493,0.00109992,0.044898,20.9332,50.5962,0.00576791,0.0,0.0
832,207.75,74.2624,74.9716,154.821,100.541,100.166,0.00110146,0.0448763,20.9332,50.6062,0.0318061,0.0,0.0
834,208.25,74.0887,74.5848,152.898,100.548,100.002,0.00106553,0.0448587,20.9332,50.5662,0.046361,0.0,0.0
836,208.75,74.123,74.9715,152.24,100.545,100.561,0.00103643,0.0448517,20.9332,50.5662,-0.00128663,0.0,0.0
838,209.25,74.1074,74.1889,152.424,100.547,100.739,0.000991286,0.0448527,20.9332,50.5562,-0.0162378,0.0,0.0
840,209.75,73.6277,74.4558,152.684,100.533,99.5255,0.000954723,0.0448462,20.9332,50.5862,0.085704,0.0,0.0
842,210.25,73.4581,74.5646,154.951,100.542,100.214,0.000905946,0.0448343,20.9332,50.5762,0.0278058,0.0,0.0
844,210.75,73.744,74.2076,148.429,100.517,101.262,0.000866437,0.04481,20.9332,50.5662,-0.0628118,0.0,0.0
846,211.25,73.594,74.314,149.852,100.52,100.252,0.000818876,0.0447771,20.9332,50.5862,0.0227296,0.0,0.0
848,211.75,73.6541,74.491,150.5,100.5,100.693,0.00078035,0.0447505,20.9332,50.5662,-0.0163085,0.0,0.0
850,212.25,73.7482,74.0267,153.11,100.53,99.9748,0.000738377,0.0447289,20.9332,50.5762,0.0471154,0.0,0.0
852,212.75,73.6716,73.996,147.412,100.513,99.874,0.000704378,0.0447041,20.9332,50.5862,0.0542937,0.0,0.0
854,213.25,73.567,73.8189,150.144,100.509,100.166,0.00067684,0.0446775,20.9332,50.5862,0.0291361,0.0,0.0
856,213.75,73.0187,73.927,148.852,100.498,100.64,0.000653337,0.0446559,20.9332,50.5762,-0.0120391,0.0,0.0
858,214.25,73.5356,74.0556,149.206,100.505,100.25,0.0006343,0.0446237,20.9332,50.5662,0.0216381,0.0,0.0
860,214.75,73.2585,74.1045,155.575,100.496,100.863,0.000631476,0.0445845,20.9332,50.5762,-0.0309655,0.0,0.0
862,215.25,73.1676,74.0388,158.676,100.492,100.399,0.000640525,0.0445527,20.9332,50.5362,0.00792948,0.0,0.0
864,215.75,72.9576,73.8941,152.043,100.504,101.174,0.000662982,0.0445826,20.9332,50.5362,-0.0565346,0.0,0.0
866,216.25,73.1103,73.2111,151.706,100.482,101.165,0.000694786,0.0446069,20.9327,50.5562,-0.0576649,0.0,0.0
868,216.75,73.2327,73.6565,151.475,100.483,100.172,0.000736317,0.0446265,20.9324,50.5662,0.0263975,0.0,0.0
870,217.25,72.6754,73.5129,150.562,100.486,100.909,0.00078415,0.0446278,20.9325,50.5762,-0.0357627,0.0,0.0
872,217.75,73.0803,73.7576,154.557,100.48,100.059,0.000831732,0.0446156,20.9327,50.5862,0.0357317,0.0,0.0
874,218.25,72.574,73.9316,153.478,100.474,100.202,0.000878227,0.0446058,20.9328,50.5962,0.0231332,0.0,0.0
876,218.75,73.0405,73.5118,153.431,100.485,100.596,0.000915888,0.0446117,20.9328,50.5862,-0.00937955,0.0,0.0
878,219.25,72.7101,73.3609,148.535,100.457,100.712,0.000947593,0.0446165,20.9329,50.5562,-0.0215113,0.0,0.0
880,219.75,72.693,73.6045,152.794,100.461,99.5276,0.000968223,0.0446204,20.933,50.5562,0.0794144,0.0,0.0
882,220.25,72.6837,73.4574,153.013,100.452,100.372,0.000980388,0.0446236,20.933,50.5562,0.00680265,0.0,0.0
884,220.75,72.2759,73.4649,149.602,100.474,100.558,0.000990242,0.0446188,20.933,50.5662,-0.00715118,0.0,0.0
886,221.25,72.6681,72.9987,149.859,100.449,100.579,0.000998223,0.0446083,20.9331,50.5762,-0.0110317,0.0,0.0
888,221.75,72.0647,73.5399,150.028,100.451,100.344,0.000985504,0.0445999,20.9331,50.5762,0.00904907,0.0,0.0