File: 01_Data/Latex_Pillow_Foam/Cone/Latex_Pillow_Foam_Cone_HF25Scan_230613_R1.csv
Names,Time,Stack TC,Smoke TC,Exh Press,Smoke Comp,Smoke Meas,CO Meter,CO2 Meter,O2 Meter,Sample Mass,Ext Coeff,Start Test,Flame Verif
Chan Gain,,500,500,1,1,1,1,1,1,1,1,1.0,1.0
Offset,,0,0,0.142142,0,0,0,0,0,0,0,0.0,0.0
Gain,,1,1,25.011,13.2542,15.984,1,1,1,1.00097,1.04429,1.0,1.0
Units,sec,C,C,Pa,%,%,%,%,%,g,/m,,
Baseline,,27.7336,28.9258,157.47,98.6674,98.4259,0.000222229,0.0454855,20.9564,-445.152,0.0224519,,
3,0.5,24.6722,25.4252,159.429,99.589,99.2869,0.000250453,0.046827,20.9594,65.4431,0.0278257,0.0,0.0
6,1.25,24.2163,25.0501,158.806,99.5692,99.2391,0.000325495,0.0472022,20.9592,65.333,0.0304131,0.0,0.0
9,2,23.8445,24.8246,158.228,99.5449,99.2703,0.000393729,0.0475921,20.959,65.313,0.0252996,0.0,0.0
12,2.75,24.4687,24.8278,159.457,99.5109,98.8494,0.000427391,0.0479259,20.9585,65.293,0.061101,0.0,0.0
15,3.5,24.0842,24.9028,156.235,99.4741,97.9211,0.000440726,0.0483144,20.9579,65.283,0.144141,0.0,0.0
18,4.25,24.372,25.0384,158.094,99.4668,96.7411,0.000431289,0.0486995,20.9575,65.2329,0.254526,0.0,0.0
21,5,24.0964,25.0473,153.989,99.43,96.0016,0.000404774,0.0490772,20.957,65.2729,0.321427,0.0,0.0
24,5.75,24.0229,25.6173,159.81,99.4013,96.4889,0.000380686,0.0493345,20.9562,65.283,0.272401,0.0,0.0
27,6.5,24.5008,25.4423,156.59,99.3851,95.6412,0.000339335,0.0496318,20.9556,65.2329,0.351751,0.0,0.0
30,7.25,24.9889,25.2672,157.849,99.3556,95.7402,0.00029866,0.049863,20.9552,65.283,0.339551,0.0,0.0
33,8,24.3151,25.1594,159.63,99.3564,95.6851,0.000251004,0.0499765,20.9546,65.283,0.344901,0.0,0.0
36,8.75,24.6307,25.5645,153.192,99.3131,95.7475,0.000213631,0.0499546,20.9542,65.2629,0.334933,0.0,0.0
39,9.5,24.3321,25.6858,158.323,99.2856,95.549,0.000181886,0.0497931,20.9539,65.283,0.351411,0.0,0.0
42,10.25,24.6017,25.5052,161.371,99.2719,95.7563,0.000149833,0.0496134,20.9537,65.283,0.330288,0.0,0.0
45,11,24.629,25.9079,154.705,99.2488,95.4265,0.00012053,0.0492957,20.9535,65.2029,0.359759,0.0,1.0
48,11.75,25.1237,25.8991,153.466,99.2245,98.8382,8.90172e-05,0.0489793,20.9534,65.1929,0.0357403,0.0,1.0
51,12.5,25.2186,25.4665,149.865,99.2124,93.4807,5.85497e-05,0.0486036,20.9532,65.1528,0.545116,0.0,1.0
54,13.25,25.2175,26.9773,142.021,99.1942,82.6239,2.8147e-05,0.048226,20.9529,65.0527,1.67434,0.0,1.0
57,14,26.4373,27.5686,142.533,99.174,78.003,3.85315e-06,0.0479072,20.9527,64.9626,2.19967,0.0,1.0
60,14.75,26.9477,29.1827,141.864,99.1465,69.2023,-1.742e-05,0.0476562,20.9526,64.8625,3.29376,0.0,1.0
63,15.5,26.2492,29.0641,136.988,99.1238,68.0164,-3.29282e-05,0.0474939,20.9525,64.7725,3.44999,0.0,0.0
66,16.25,26.7467,29.6147,140.392,99.1242,60.8966,-2.28537e-05,0.0473756,20.9524,64.6824,4.46292,0.0,0.0
69,17,28.085,31.1702,134.086,99.106,64.6414,9.48363e-06,0.0473309,20.9524,64.5823,3.91456,0.0,0.0
72,17.75,29.1834,32.7002,140.816,99.0878,60.4908,5.68752e-05,0.047589,20.9523,64.5022,4.52081,0.0,0.0
75,18.5,29.4859,33.8488,138.274,99.0943,62.1132,0.000113932,0.0488439,20.9523,64.4021,4.27895,0.0,0.0
78,19.25,30.8054,35.5425,131.694,99.1238,56.8972,0.000210865,0.0540882,20.9514,64.322,5.08516,0.0,0.0
81,20,31.0422,36.2023,137.157,99.1659,59.4625,0.000352973,0.0625577,20.9504,64.1419,4.68507,0.0,0.0
84,20.75,32.6114,37.9512,136.827,99.1809,63.4922,0.00055251,0.0788985,20.9496,64.1118,4.0858,0.0,0.0
87,21.5,33.1229,38.9844,134.739,99.208,57.2899,0.000809947,0.095145,20.9468,63.8416,5.02993,0.0,0.0
90,22.25,33.8157,40.6504,133.041,99.2225,56.5796,0.000997619,0.133856,20.9438,63.9617,5.14555,0.0,0.0
93,23,34.6883,41.2045,132.809,99.2634,56.7728,0.00174658,0.170651,20.934,63.8115,5.1181,0.0,0.0
96,23.75,35.8061,42.5932,131.836,99.2767,58.544,0.00278204,0.212136,20.9143,63.7114,4.83791,0.0,0.0
99,24.5,36.3312,43.2976,128.962,99.3014,53.1602,0.00403259,0.253771,20.8838,63.6113,5.72388,0.0,0.0
102,25.25,37.7269,44.4571,137.05,99.3054,57.5108,0.00543504,0.293469,20.8188,63.5813,5.00366,0.0,0.0
105,26,38.1458,46.3469,131.275,99.3329,53.8007,0.00722146,0.330084,20.7406,63.4312,5.61708,0.0,0.0
108,26.75,38.4826,47.2293,134.662,99.3653,54.0451,0.00885329,0.365997,20.6705,63.3111,5.57855,0.0,0.0
111,27.5,39.7335,48.4036,130.06,99.3576,55.3328,0.0106064,0.397598,20.59,63.1909,5.36213,0.0,0.0
114,28.25,40.8865,49.3039,141.536,99.3746,57.6362,0.0124454,0.422947,20.5166,63.1209,4.99009,0.0,0.0
117,29,41.4353,50.3335,133.731,99.3879,55.7782,0.013786,0.446066,20.4568,62.9807,5.29149,0.0,0.0
120,29.75,41.957,51.6003,141.416,99.4118,53.1387,0.0154,0.464898,20.4132,62.9007,5.73776,0.0,0.0
123,30.5,42.7138,51.908,131.516,99.4057,51.4963,0.0165766,0.48191,20.3661,62.7805,6.02479,0.0,0.0
126,31.25,43.7653,52.9239,131.072,99.4102,54.9446,0.0180165,0.499926,20.3278,62.6704,5.43148,0.0,0.0
129,32,44.1508,53.8651,128.804,99.4244,57.3908,0.0190662,0.517946,20.2931,62.5403,5.03376,0.0,0.0
132,32.75,44.7458,54.5467,131.789,99.4361,56.9313,0.0202856,0.533012,20.2606,62.4502,5.10848,0.0,0.0
135,33.5,45.4503,55.1127,133.823,99.4401,53.7553,0.0214878,0.547294,20.229,62.3701,5.63469,0.0,0.0
138,34.25,45.7483,56.5836,131.341,99.4486,58.9059,0.022473,0.56115,20.1974,62.27,4.7973,0.0,0.0
141,35,46.402,56.8865,131.907,99.4599,53.8602,0.0233773,0.572669,20.1617,62.1499,5.61866,0.0,0.0
144,35.75,47.1896,57.5837,133.763,99.4721,53.5739,0.024256,0.581671,20.1294,62.0398,5.6686,0.0,0.0
147,36.5,48.1705,58.1457,135.991,99.4612,51.1983,0.0248965,0.589393,20.1032,61.9598,6.08307,0.0,0.0
150,37.25,48.7377,59.4257,131,99.4632,52.8202,0.0255696,0.595022,20.0796,61.8396,5.79756,0.0,0.0
153,38,49.1129,59.4336,127.474,99.4587,53.428,0.0261044,0.60023,20.0605,61.7596,5.69235,0.0,0.0
156,38.75,49.5672,59.8652,134.124,99.4688,52.8505,0.0265696,0.604967,20.0434,61.6494,5.79284,0.0,0.0
159,39.5,50.359,60.9024,127.053,99.4713,59.0493,0.026992,0.608821,20.0304,61.5494,4.77711,0.0,0.0
162,40.25,50.4395,61.7236,136.085,99.4725,56.3621,0.0273398,0.61321,20.0204,61.4793,5.20388,0.0,0.0
165,41,51.1375,62.1219,132.167,99.4777,54.3343,0.0276103,0.617458,20.0122,61.2891,5.54001,0.0,0.0
168,41.75,51.748,62.6959,132.621,99.4733,58.2947,0.0278502,0.621405,20.0037,61.209,4.89512,0.0,0.0
171,42.5,52.5318,63.3784,139.812,99.4713,53.768,0.028076,0.624969,19.9963,61.0889,5.6354,0.0,0.0
174,43.25,52.7155,64.1427,128.253,99.4765,55.1343,0.0282406,0.628151,19.9889,61.0088,5.40601,0.0,0.0
177,44,53.6034,64.7637,129.779,99.4757,50.3778,0.0284335,0.630719,19.9824,60.8787,6.2324,0.0,0.0
180,44.75,53.3638,65.4792,134.685,99.4753,54.9294,0.0286316,0.633951,19.9756,60.7886,5.44,0.0,0.0
183,45.5,54.7065,65.9895,129.118,99.4794,52.3524,0.0288211,0.636931,19.9696,60.6585,5.88054,0.0,0.0
186,46.25,54.7352,66.4092,125.622,99.4818,50.9647,0.0290348,0.639468,19.9648,60.5484,6.12687,0.0,0.0
189,47,54.953,66.8562,136.636,99.4745,53.7382,0.0292408,0.641486,19.9597,60.4383,5.64076,0.0,0.0
192,47.75,55.7061,67.6104,131.407,99.4838,51.0003,0.0294123,0.643017,19.9535,60.3382,6.12066,0.0,0.0
195,48.5,56.3559,68.202,126.863,99.483,52.3061,0.0295987,0.644132,19.9481,60.2481,5.88899,0.0,0.0
198,49.25,57.0822,69.0572,129.805,99.4846,54.7421,0.029772,0.644946,19.9438,60.118,5.47215,0.0,0.0
201,50,57.4144,69.2086,121.561,99.4875,56.4499,0.0299142,0.645955,19.9407,60.0279,5.191,0.0,0.0
204,50.75,57.3361,70.1697,127.279,99.4875,53.1675,0.0300855,0.646869,19.9382,59.9078,5.73976,0.0,0.0
207,51.5,58.7206,70.3612,132.358,99.4927,56.7367,0.0302702,0.648696,19.9359,59.8277,5.14506,0.0,0.0
210,52.25,58.7849,71.2122,121.616,99.498,51.731,0.030458,0.651579,19.9343,59.6775,5.99164,0.0,0.0
213,53,59.2678,71.6998,126.406,99.4927,51.3559,0.0306607,0.654341,19.9331,59.5875,6.05783,0.0,0.0
216,53.75,59.855,71.82,129.987,99.4996,55.7616,0.0308085,0.656355,19.9318,59.4874,5.3045,0.0,0.0
219,54.5,60.3402,72.1897,131.242,99.4895,56.5396,0.0310014,0.661977,19.9301,59.3472,5.17664,0.0,0.0
222,55.25,60.3861,72.8624,122.65,99.5016,55.7402,0.0312179,0.66735,19.9279,59.2471,5.30821,0.0,0.0
225,56,60.9238,73.1686,128.504,99.4911,57.8903,0.0314435,0.672338,19.9225,59.117,4.96052,0.0,0.0
228,56.75,61.496,73.4623,123.387,99.4842,58.4752,0.0316934,0.676875,19.9159,58.9969,4.86781,0.0,0.0
231,57.5,61.5869,74.307,131.747,99.5061,53.3305,0.031912,0.680675,19.9067,58.8968,5.71345,0.0,0.0
234,58.25,61.598,74.1388,132.339,99.5016,57.0752,0.0321459,0.683654,19.8978,58.8367,5.09139,0.0,0.0
237,59,62.1237,75.0703,131.358,99.4984,50.3622,0.0323049,0.686253,19.8903,58.7466,6.23732,0.0,0.0
240,59.75,63.018,75.5722,133.721,99.5012,49.0218,0.0324013,0.6879,19.8823,58.5765,6.4847,0.0,0.0
243,60.5,62.9335,76.0452,130.545,99.5036,54.3158,0.0324381,0.688678,19.8765,58.4464,5.54552,0.0,0.0
246,61.25,63.4663,76.1164,132.155,99.4907,53.1207,0.0324276,0.687601,19.8723,58.3863,5.74813,0.0,0.0
249,62,64.221,76.3907,133.546,99.4968,55.2753,0.0324153,0.686737,19.8701,58.2862,5.38448,0.0,0.0
252,62.75,64.7834,76.5111,130.268,99.4911,53.17,0.0323981,0.685337,19.8676,58.1661,5.73968,0.0,0.0
255,63.5,65.043,77.3209,128.977,99.4915,56.2353,0.0323844,0.684801,19.8658,58.116,5.22627,0.0,0.0
258,64.25,65.0392,77.9465,123.011,99.4923,49.492,0.0324116,0.684411,19.8676,57.9659,6.39643,0.0,0.0
261,65,66.1465,78.4667,127.436,99.4976,52.1422,0.0324483,0.684885,19.869,57.8958,5.91908,0.0,0.0
264,65.75,66.5829,79.0091,126.596,99.4992,51.3403,0.0325037,0.685168,19.8699,57.7557,6.06121,0.0,0.0
267,66.5,66.6465,78.7512,133.817,99.4984,54.5963,0.0325627,0.685346,19.8707,57.6556,5.49785,0.0,0.0
270,67.25,67.1715,80.7383,132.619,99.4895,51.8232,0.0326188,0.685689,19.8707,57.5155,5.97455,0.0,0.0
273,68,67.7322,79.6052,130.021,99.4866,56.2031,0.0327032,0.686494,19.87,57.4054,5.23107,0.0,0.0
276,68.75,67.6319,80.4628,128.106,99.5012,54.5748,0.0328014,0.687553,19.8694,57.2552,5.50172,0.0,0.0
279,69.5,67.6421,80.4026,128.84,99.498,56.4972,0.0329196,0.68873,19.869,57.1051,5.1843,0.0,0.0
282,70.25,68.0365,80.9912,125.425,99.5012,58.962,0.0330255,0.690594,19.8687,57.055,4.79342,0.0,0.0
285,71,68.5452,81.7158,120.986,99.4935,53.2822,0.0331568,0.692382,19.8671,56.9349,5.72059,0.0,0.0
288,71.75,68.2296,81.1674,129.356,99.4903,55.8431,0.0332762,0.696171,19.8654,56.8748,5.29027,0.0,0.0
291,72.5,69.3663,82.2814,130.712,99.4879,52.371,0.033404,0.699992,19.8623,56.7247,5.87808,0.0,0.0
294,73.25,69.6199,82.4615,127.309,99.4814,52.1168,0.033572,0.703229,19.8591,56.6246,5.92205,0.0,0.0
297,74,70.0734,83.1517,120.556,99.4984,52.65,0.0337445,0.705836,19.8564,56.5245,5.83037,0.0,0.0
300,74.75,70.2501,83.1347,131.558,99.4875,53.61,0.0339557,0.707315,19.8506,56.3343,5.66385,0.0,0.0
303,75.5,70.6054,83.8444,126.879,99.4955,58.7786,0.0341973,0.707673,19.8451,56.2743,4.82144,0.0,0.0
306,76.25,70.5835,83.7579,138.175,99.4943,53.3007,0.034392,0.706704,19.8392,56.1541,5.71748,0.0,0.0
309,77,70.936,84.5999,136.617,99.5012,50.9144,0.0345656,0.705997,19.8349,56.0641,6.13769,0.0,0.0
312,77.75,71.6962,85.019,129.324,99.4951,51.3593,0.0346998,0.705115,19.8317,55.9339,6.05744,0.0,0.0
315,78.5,71.8439,84.4112,123.993,99.4846,49.7622,0.0348109,0.704317,19.8297,55.8539,6.34584,0.0,0.0
318,79.25,72.2144,85.8711,126.659,99.4887,54.7158,0.0348865,0.705426,19.8285,55.6937,5.47693,0.0,0.0
321,80,72.5906,85.6559,127.146,99.4988,51.8749,0.0349323,0.706849,19.8295,55.5836,5.96627,0.0,0.0
324,80.75,72.7228,85.8585,129.609,99.4955,51.3715,0.0349657,0.708939,19.8302,55.4835,6.0553,0.0,0.0
327,81.5,72.9419,86.3253,125.254,99.4838,53.8792,0.0349986,0.710988,19.8307,55.3734,5.61762,0.0,0.0
330,82.25,73.0374,85.9778,129.523,99.5182,53.0422,0.0350371,0.712847,19.8311,55.2333,5.76422,0.0,0.0
333,83,73.3383,86.6643,129.281,99.4927,53.528,0.0350944,0.714828,19.8287,55.1232,5.67835,0.0,0.0
336,83.75,73.3661,87.034,129.742,99.4959,55.0948,0.0351655,0.717422,19.8256,55.0131,5.41436,0.0,0.0
339,84.5,73.8299,87.3833,128.974,99.5065,53.6982,0.0352299,0.719814,19.8229,54.9029,5.65053,0.0,0.0
342,85.25,74.2578,87.7524,129.259,99.4984,57.8479,0.0353544,0.721772,19.82,54.7828,4.96791,0.0,0.0
345,86,75.2835,88.1619,131.753,99.4988,54.1719,0.0354885,0.724634,19.8176,54.7028,5.56937,0.0,0.0
348,86.75,74.9429,88.2952,120.319,99.5052,55.4831,0.0356604,0.727171,19.8126,54.5226,5.35089,0.0,0.0
351,87.5,75.539,88.0038,121.17,99.4964,53.5422,0.035855,0.72979,19.8082,54.4625,5.67626,0.0,0.0
354,88.25,75.9528,88.7478,122.06,99.4927,52.97,0.0360481,0.730854,19.8039,54.3524,5.77435,0.0,0.0
357,89,75.4336,89.0824,123.926,99.4911,50.3471,0.036226,0.730623,19.7988,54.2924,6.2394,0.0,0.0
360,89.75,75.6824,89.3446,124.596,99.4887,51.231,0.0363747,0.729854,19.7951,54.1022,6.07975,0.0,0.0
363,90.5,75.717,89.2398,125.107,99.4826,54.6807,0.0364792,0.728997,19.7923,54.0421,5.48225,0.0,0.0
366,91.25,76.3253,89.7398,127.64,99.4806,49.872,0.0365488,0.728439,19.7904,53.902,6.32529,0.0,0.0
369,92,76.8279,89.6542,136.214,99.4943,49.932,0.0365826,0.72806,19.7903,53.8019,6.31554,0.0,0.0
372,92.75,76.6932,90.4279,123.598,99.5,55.6143,0.0365918,0.727347,19.7908,53.6317,5.32877,0.0,0.0
375,93.5,76.8011,90.2864,128.454,99.4777,55.0953,0.0365719,0.72723,19.7911,53.5216,5.41261,0.0,0.0
378,94.25,77.135,90.4606,120.585,99.4781,55.045,0.0365294,0.727833,19.7916,53.5016,5.421,0.0,0.0
381,95,77.5258,90.9149,124.434,99.4899,52.5017,0.0364864,0.729345,19.7924,53.3214,5.85543,0.0,0.0
384,95.75,77.466,90.9124,125.474,99.4814,55.6787,0.0364129,0.730811,19.793,53.1613,5.31645,0.0,0.0
387,96.5,78.5477,91.3579,124.396,99.4806,52.3944,0.036359,0.731446,19.7933,53.0912,5.87332,0.0,0.0
390,97.25,78.2057,91.1287,131.525,99.4757,59.1225,0.0362758,0.731763,19.7927,52.9411,4.76618,0.0,0.0
393,98,78.7249,91.8643,134.201,99.4871,53.5061,0.0361711,0.731506,19.791,52.921,5.68158,0.0,0.0
396,98.75,79.0015,92.313,128.209,99.4806,53.4846,0.036078,0.730787,19.7892,52.7509,5.68466,0.0,0.0
399,99.5,79.0413,92.6996,126.834,99.4753,55.1997,0.0360101,0.729935,19.7878,52.6608,5.39504,0.0,0.0
402,100.25,79.2354,93.2348,131.009,99.4644,56.2675,0.0360278,0.729174,19.7868,52.5707,5.21853,0.0,0.0
405,101,79.8688,93.5916,128.414,99.4705,59.3679,0.0360407,0.729126,19.7861,52.4806,4.72776,0.0,0.0
408,101.75,80.3906,93.3036,125.428,99.466,55.746,0.0361769,0.729957,19.7858,52.3305,5.30397,0.0,0.0
411,102.5,80.152,93.7389,125.53,99.4591,53.8168,0.0363621,0.732495,19.786,52.2204,5.62597,0.0,0.0
414,103.25,80.6201,93.77,131.017,99.447,48.6481,0.0365516,0.735751,19.7861,52.1403,6.5498,0.0,0.0
417,104,80.946,93.9056,125.535,99.4656,49.9564,0.0367088,0.739117,19.7861,51.9701,6.30842,0.0,0.0
420,104.75,80.6932,94.1077,120.692,99.4502,52.1744,0.0367984,0.742043,19.7862,51.9201,5.90907,0.0,0.0
423,105.5,80.3784,94.2683,124.179,99.4446,49.992,0.0368212,0.744305,19.7798,51.7199,6.29996,0.0,0.0
426,106.25,80.4658,94.6071,140.918,99.4353,50.3242,0.03677,0.746173,19.7745,51.6698,6.23843,0.0,0.0
429,107,80.4578,94.004,130.985,99.4288,49.552,0.0367036,0.74825,19.7694,51.5297,6.37948,0.0,0.0
432,107.75,81.0683,94.3969,123.174,99.4163,49.8613,0.036598,0.750068,19.7659,51.4096,6.32133,0.0,0.0
435,108.5,81.2892,94.2406,127.68,99.4122,49.2691,0.0364903,0.750729,19.7633,51.3195,6.43041,0.0,0.0
438,109.25,81.3114,94.4274,129.294,99.4009,54.3626,0.0364278,0.750125,19.7616,51.1794,5.52816,0.0,0.0
441,110,81.1891,94.5621,120.206,99.3811,54.4568,0.0363599,0.748218,19.7598,51.0692,5.51049,0.0,0.0
444,110.75,81.8084,94.2275,121.948,99.392,51.2588,0.0363206,0.743663,19.759,50.9591,6.06588,0.0,0.0
447,111.5,81.5225,94.9388,121.157,99.3714,53.0378,0.0363073,0.738596,19.7583,50.859,5.75145,0.0,0.0
450,112.25,81.9414,94.4887,118.245,99.3698,53.5914,0.0363161,0.734021,19.7605,50.7389,5.65617,0.0,0.0
453,113,81.9722,95.2631,123.589,99.3524,53.4909,0.0363639,0.73045,19.7652,50.5988,5.67176,0.0,0.0
456,113.75,81.8546,95.304,123.526,99.354,55.3709,0.0364163,0.729024,19.7718,50.4487,5.35549,0.0,0.0
459,114.5,82.2111,95.8142,132.034,99.3402,52.4597,0.036515,0.728486,19.7766,50.3786,5.84896,0.0,0.0
462,115.25,83.0129,95.9962,126.723,99.3309,51.0544,0.0366377,0.728967,19.7801,50.2885,6.09685,0.0,0.0
465,116,82.6807,96.0703,120.894,99.3155,56.4201,0.0367696,0.729294,19.7826,50.1484,5.17999,0.0,0.0
468,116.75,83.402,96.0584,126.447,99.32,54.2724,0.0369295,0.729493,19.7845,49.9782,5.53592,0.0,0.0
471,117.5,83.115,95.856,131.829,99.3079,53.088,0.037088,0.729233,19.7859,49.9281,5.73692,0.0,0.0
474,118.25,82.8963,96.416,137.209,99.2986,56.4035,0.0372288,0.728782,19.7843,49.778,5.18112,0.0,0.0
477,119,83.0868,96.2878,128.647,99.2828,52.3324,0.0373315,0.728341,19.7832,49.6779,5.86592,0.0,0.0
480,119.75,83.0295,96.3142,126.376,99.2795,46.6306,0.0373826,0.729173,19.7823,49.5378,6.92236,0.0,0.0
483,120.5,83.4719,96.2799,129.417,99.2541,51.2246,0.0374017,0.730661,19.7819,49.5077,6.05926,0.0,0.0
486,121.25,83.3654,95.9777,130.258,99.2355,55.046,0.0373867,0.733746,19.7814,49.3476,5.39847,0.0,0.0
489,122,83.5178,95.8231,121.951,99.2262,56.4796,0.0373514,0.736811,19.7811,49.2775,5.16209,0.0,0.0
492,122.75,83.5319,96.5269,127.336,99.2128,51.6954,0.0373111,0.738789,19.7808,49.1574,5.97166,0.0,0.0
495,123.5,83.572,96.2523,122.075,99.2035,48.5471,0.0372624,0.7392,19.7806,49.0773,6.54637,0.0,0.0
498,124.25,83.3755,96.1847,129.12,99.1683,52.7378,0.0372188,0.7395,19.7782,48.9672,5.78467,0.0,0.0
501,125,83.7403,96.3917,134.179,99.1598,53.6056,0.0371456,0.735718,19.7758,48.8471,5.63438,0.0,0.0
504,125.75,82.9406,96.1885,130.629,99.1299,49.5627,0.0370621,0.730881,19.7744,48.727,6.34992,0.0,0.0
507,126.5,83.4907,96.265,125.235,99.1194,51.1788,0.03698,0.726762,19.7734,48.6369,6.05503,0.0,0.0
510,127.25,83.5524,96.5238,123.919,99.1198,53.4958,0.0369287,0.723945,19.7747,48.5368,5.64946,0.0,0.0
513,128,84.0675,96.3095,130.568,99.1072,54.8446,0.0368575,0.719762,19.7787,48.4367,5.42021,0.0,0.0
516,128.75,83.9752,96.6537,127.526,99.1246,52.1554,0.0367881,0.715124,19.7836,48.3666,5.88237,0.0,0.0
519,129.5,83.8612,97.026,123.51,99.1347,53.4295,0.0367176,0.710111,19.7905,48.2365,5.66221,0.0,0.0
522,130.25,83.338,96.6911,129.959,99.138,51.2042,0.0366449,0.705322,19.7975,48.1064,6.05221,0.0,0.0
525,131,84.158,96.193,125.785,99.1509,56.6865,0.0365595,0.70108,19.803,47.9763,5.12165,0.0,0.0
528,131.75,84.0143,96.2752,132.69,99.1485,51.4134,0.0364625,0.697135,19.8079,47.8862,6.01582,0.0,0.0
531,132.5,83.3827,96.2125,124.16,99.1562,49.9183,0.036356,0.694686,19.8178,47.8161,6.28686,0.0,0.0
534,133.25,83.8562,96.0801,129.16,99.161,51.5578,0.0362343,0.693668,19.8259,47.6459,5.99129,0.0,0.0
537,134,83.6347,96.4387,125.013,99.1736,52.5924,0.0361235,0.693927,19.8322,47.5959,5.81044,0.0,0.0
540,134.75,84.1331,96.1932,135.408,99.1881,46.9999,0.0360603,0.694228,19.8354,47.4157,6.84167,0.0,0.0
543,135.5,83.7321,96.3188,123.045,99.1938,51.911,0.0359799,0.694794,19.8392,47.3557,5.93178,0.0,0.0
546,136.25,83.83,96.5421,125.477,99.2096,48.7203,0.035915,0.69467,19.8419,47.2055,6.51432,0.0,0.0
549,137,84.5583,96.5883,127.963,99.2201,50.0681,0.0358625,0.693947,19.8413,47.1254,6.26532,0.0,0.0
552,137.75,83.8159,96.2589,123.091,99.212,46.6652,0.0358076,0.692727,19.8409,46.9553,6.90932,0.0,0.0
555,138.5,83.2226,96.6198,119.831,99.2403,51.4066,0.0357467,0.689333,19.8406,46.8652,6.02551,0.0,0.0
558,139.25,83.9169,96.8292,124.006,99.2379,48.611,0.0356785,0.685227,19.8399,46.7451,6.5375,0.0,0.0
561,140,84.5586,97.0683,123.079,99.2444,53.1719,0.0355701,0.681539,19.8407,46.635,5.7166,0.0,0.0
564,140.75,84.546,97.6793,125.754,99.2516,49.812,0.0354383,0.678398,19.8433,46.5048,6.31521,0.0,0.0
567,141.5,84.8684,96.7392,124.494,99.2731,49.7457,0.0353197,0.676855,19.8476,46.4248,6.3294,0.0,0.0
570,142.25,84.7539,97.7228,125.444,99.2707,49.7905,0.0351864,0.677005,19.8513,46.2946,6.32091,0.0,0.0
573,143,84.8803,97.5277,136.505,99.2816,50.9988,0.0351042,0.678166,19.8537,46.2146,6.10228,0.0,0.0
576,143.75,85.4666,98.1362,128.314,99.2888,50.6764,0.0350219,0.679506,19.8565,46.0844,6.16105,0.0,0.0
579,144.5,84.8588,98.1357,123.755,99.3038,52.2563,0.0349942,0.681425,19.8585,45.9443,5.88119,0.0,0.0
582,145.25,84.852,97.6892,131.013,99.3119,51.292,0.0350294,0.684213,19.86,45.8442,6.05257,0.0,0.0
585,146,85.2171,97.6286,142.369,99.3131,54.3138,0.035164,0.687832,19.8575,45.7541,5.52829,0.0,0.0
588,146.75,85.1727,97.6737,131.355,99.3192,53.1129,0.0353635,0.692171,19.8541,45.654,5.73367,0.0,0.0
591,147.5,85.3691,98.3313,131.658,99.341,47.8155,0.035603,0.697174,19.8504,45.5539,6.69818,0.0,0.0
594,148.25,85.551,98.2768,126.85,99.3532,49.4662,0.0357682,0.70032,19.8489,45.3437,6.3884,0.0,0.0
597,149,86.1149,98.6483,128.122,99.3706,47.672,0.0360596,0.704312,19.8455,45.3137,6.72842,0.0,0.0
600,149.75,85.9096,98.8941,119.702,99.3827,51.0895,0.036322,0.707831,19.843,45.1636,6.09532,0.0,0.0
603,150.5,86.5223,99.0997,121.234,99.3932,50.9744,0.0365986,0.71018,19.8357,45.1135,6.11695,0.0,0.0
606,151.25,86.4976,99.4312,128.303,99.4078,49.5954,0.0368404,0.71156,19.8272,44.9834,6.36952,0.0,0.0
609,152,86.6463,99.4949,126.656,99.428,50.47,0.0370181,0.712156,19.8197,44.8432,6.21125,0.0,0.0
612,152.75,86.4501,99.3997,128.719,99.4337,50.0881,0.0371436,0.712418,19.8142,44.7431,6.28136,0.0,0.0
615,153.5,86.7711,99.1952,121.23,99.4595,47.9779,0.0372272,0.712865,19.8102,44.633,6.67803,0.0,0.0
618,154.25,86.9013,99.8425,117.616,99.462,52.7797,0.0372777,0.713757,19.8075,44.5329,5.80448,0.0,0.0
621,155,86.8796,99.993,119.57,99.4858,51.1198,0.0373101,0.715277,19.8059,44.3928,6.0994,0.0,0.0
624,155.75,87.1722,100.187,124.539,99.4907,44.7628,0.0373464,0.716755,19.8048,44.2827,7.31629,0.0,0.0
627,156.5,87.3954,100.219,114.722,99.4951,48.3974,0.0374079,0.719697,19.804,44.1526,6.60157,0.0,0.0
630,157.25,87.8412,100.248,129.543,99.5117,45.6784,0.0375128,0.722569,19.8034,44.0124,7.13274,0.0,0.0
633,158,87.3208,100.913,123.051,99.534,49.3003,0.0376803,0.725903,19.8012,43.8923,6.43582,0.0,0.0
636,158.75,87.7062,100.948,123.991,99.5388,48.1828,0.037843,0.728709,19.7988,43.7722,6.6463,0.0,0.0
639,159.5,87.7982,101.124,129.272,99.5477,46.8457,0.0380312,0.730454,19.7945,43.7021,6.90491,0.0,0.0
642,160.25,87.7268,101.201,123.855,99.5663,45.0272,0.0382342,0.731306,19.7882,43.542,7.2693,0.0,0.0
645,161,88.2076,101.202,120.837,99.5732,50.83,0.0384195,0.732084,19.7823,43.4519,6.15951,0.0,0.0
648,161.75,87.6204,101.454,116.829,99.6031,51.689,0.0385876,0.733748,19.778,43.3518,6.00875,0.0,0.0
651,162.5,88.3265,101.557,132.158,99.6165,46.1838,0.0387397,0.73496,19.7736,43.3018,7.04159,0.0,0.0
654,163.25,88.63,101.463,124.339,99.6238,47.9881,0.0388828,0.737288,19.7704,43.1516,6.69119,0.0,0.0
657,164,88.5636,101.441,128.582,99.6545,51.0227,0.0390422,0.739846,19.7668,43.0015,6.13233,0.0,0.0
660,164.75,88.745,101.687,131.858,99.6739,53.0324,0.0392286,0.743183,19.7639,42.8713,5.78023,0.0,0.0
663,165.5,88.2873,101.792,118.967,99.68,47.073,0.0394291,0.747546,19.7614,42.7712,6.87273,0.0,0.0
666,166.25,88.711,101.398,126.779,99.6954,51.7573,0.0396345,0.750772,19.7583,42.7512,6.00514,0.0,0.0
669,167,88.1698,101.185,127.54,99.7115,45.3087,0.0398634,0.75299,19.7529,42.6411,7.22557,0.0,0.0
672,167.75,88.4789,101.289,121.833,99.7342,47.6042,0.0400902,0.754347,19.7462,42.4609,6.77492,0.0,0.0
675,168.5,88.1879,101.001,128.118,99.7378,48.731,0.0403033,0.754291,19.739,42.3709,6.56095,0.0,0.0
678,169.25,88.0474,101.634,129.265,99.7508,46.354,0.0404965,0.754251,19.7337,42.2708,7.02023,0.0,0.0
681,170,88.0579,101.142,126.315,99.7734,46.7028,0.0406476,0.752043,19.7298,42.1907,6.95365,0.0,0.0
684,170.75,87.8525,100.375,126.665,99.7977,47.2096,0.0407372,0.750915,19.7278,42.0806,6.857,0.0,0.0
687,171.5,87.7672,101.085,121.244,99.8139,48.7071,0.0408407,0.748431,19.7255,41.9805,6.57242,0.0,0.0
690,172.25,88.3515,100.668,129.83,99.8248,49.5261,0.0408665,0.7446,19.7247,41.9004,6.42067,0.0,0.0
693,173,87.8185,100.563,126.764,99.8385,51.8095,0.040805,0.73897,19.7245,41.8003,6.00905,0.0,0.0
696,173.75,87.7292,100.094,129.011,99.8814,49.0935,0.0406589,0.732455,19.7295,41.6702,6.50625,0.0,0.0
699,174.5,87.6433,99.9145,121.838,99.8705,51.109,0.0403817,0.725691,19.7349,41.6001,6.13668,0.0,0.0
702,175.25,88.1644,99.7632,130,99.8859,51.2246,0.0401082,0.719071,19.7424,41.5,6.11739,0.0,0.0
705,176,87.5894,99.8412,133.926,99.8923,50.5403,0.0397866,0.713171,19.7528,41.3899,6.24119,0.0,0.0
708,176.75,87.2358,99.3924,127.326,99.9089,48.0462,0.0394438,0.708413,19.7648,41.3399,6.7063,0.0,0.0
711,177.5,87.6292,98.9597,136.241,99.9227,52.3675,0.039194,0.701867,19.7754,41.2398,5.91863,0.0,0.0
714,178.25,87.0116,99.4147,131.704,99.938,52.089,0.038927,0.6953,19.7872,41.0696,5.96889,0.0,0.0
717,179,87.4531,98.8155,132.663,99.9595,52.3344,0.038673,0.687444,19.7975,41.0095,5.92781,0.0,0.0
720,179.75,86.9479,98.4,131.96,99.9809,47.8579,0.0384626,0.677858,19.805,40.9595,6.74887,0.0,0.0
723,180.5,86.3245,98.1763,132.231,99.9749,48.1252,0.0381507,0.67087,19.8123,40.8294,6.69729,0.0,0.0
726,181.25,86.3313,98.2198,132.458,99.9749,54.089,0.0378525,0.662571,19.8184,40.7493,5.62713,0.0,0.0
729,182,86.5621,97.8659,128.977,99.9906,50.2895,0.0375141,0.656251,19.8336,40.6292,6.29576,0.0,0.0
732,182.75,85.8876,97.1556,133.281,100.008,53.0973,0.0370552,0.651452,19.8506,40.5491,5.79964,0.0,0.0
735,183.5,85.8374,97.1892,129.642,100.017,45.1697,0.0366046,0.647824,19.8671,40.479,7.28177,0.0,0.0
738,184.25,86.2029,97.3747,133.612,100.024,52.209,0.0362267,0.64365,19.8819,40.3889,5.95567,0.0,0.0
741,185,85.9595,96.5629,138.687,100.01,52.6592,0.035759,0.639956,19.8936,40.3189,5.87579,0.0,0.0
744,185.75,85.6387,95.771,131.503,100.026,49.6193,0.0353711,0.634147,19.9025,40.2188,6.42192,0.0,0.0
747,186.5,84.8217,96.2634,140.889,100.035,51.6349,0.0351166,0.62891,19.9075,40.1287,6.058,0.0,0.0
750,187.25,84.5824,95.6661,132.736,100.037,54.7758,0.0347365,0.621145,19.914,40.0186,5.51722,0.0,0.0
753,188,84.6911,95.3062,132.034,100.044,56.2236,0.0344228,0.613749,19.92,39.9785,5.27887,0.0,0.0
756,188.75,84.4414,95.0705,128.991,100.022,50.1252,0.0340488,0.60709,19.9297,39.9185,6.32864,0.0,0.0
759,189.5,83.6725,94.9555,130.941,100.017,55.0275,0.0336456,0.601331,19.9453,39.8084,5.47337,0.0,0.0
762,190.25,84.0013,94.2107,137.403,100.001,62.6468,0.0333029,0.596391,19.9594,39.7183,4.284,0.0,0.0
765,191,83.2175,93.922,131.239,99.9927,56.5357,0.0329696,0.592127,19.9722,39.6382,5.22348,0.0,0.0
768,191.75,83.8762,93.8342,133.21,99.9838,56.2884,0.0326825,0.587886,19.9824,39.6382,5.26283,0.0,0.0
771,192.5,83.2458,93.3364,134.824,99.9704,54.1212,0.0323977,0.582096,19.9915,39.5481,5.62127,0.0,0.0
774,193.25,83.1733,92.1987,131.398,99.9571,56.0445,0.032048,0.575638,19.9991,39.428,5.30016,0.0,0.0
777,194,82.8411,92.715,129.346,99.9255,53.9509,0.0316635,0.569069,20.0049,39.378,5.64602,0.0,0.0
780,194.75,82.5442,92.5939,132.633,99.915,55.5226,0.031328,0.564281,20.0094,39.2779,5.38201,0.0,0.0
783,195.5,81.4894,92.0485,137.618,99.9016,64.6736,0.0309634,0.557474,20.0131,39.2579,3.98325,0.0,0.0
786,196.25,82.4862,91.7178,134.487,99.8855,64.0287,0.0304924,0.55147,20.024,39.1478,4.07356,0.0,0.0
789,197,82.3151,91.4876,136.996,99.8454,67.4443,0.0299735,0.545313,20.0343,39.1077,3.59383,0.0,0.0
792,197.75,81.4194,90.7598,137.64,99.8244,61.4225,0.0294507,0.537391,20.0458,39.0577,4.44863,0.0,0.0
795,198.5,80.542,90.5683,131.689,99.7908,58.1123,0.0289505,0.53046,20.058,39.0276,4.95302,0.0,0.0
798,199.25,80.8195,90.1679,143.117,99.7738,61.9995,0.0285061,0.52343,20.0669,38.9175,4.35833,0.0,0.0
801,200,80.5003,89.6841,137.326,99.7403,62.0468,0.0280455,0.518134,20.0798,38.8475,4.34826,0.0,0.0
804,200.75,80.4332,89.3541,138.851,99.6978,58.9323,0.0275847,0.5142,20.0941,38.8074,4.81613,0.0,0.0
807,201.5,79.791,89.1531,135.207,99.6687,56.4201,0.0271909,0.512119,20.1083,38.7374,5.2125,0.0,0.0
810,202.25,79.507,88.9907,134.15,99.6302,59.8522,0.0268791,0.509595,20.1215,38.6773,4.66802,0.0,0.0
813,203,79.1625,88.5257,138.764,99.576,74.7495,0.0265815,0.505486,20.1323,38.5572,2.62702,0.0,0.0
816,203.75,78.8345,87.9113,139.37,99.5485,69.6832,0.0263671,0.499347,20.1407,38.4971,3.26738,0.0,0.0
819,204.5,79.2709,87.2578,134.153,99.504,59.5937,0.0260396,0.491944,20.1451,38.4671,4.69606,0.0,0.0
822,205.25,78.6457,86.7908,135.487,99.4519,67.7989,0.0255109,0.48339,20.1521,38.4371,3.50961,0.0,0.0
825,206,78.4641,86.728,136.626,99.4033,66.4116,0.024945,0.473034,20.1572,38.4571,3.69452,0.0,0.0
828,206.75,78.0453,86.378,135.931,99.3515,69.411,0.024224,0.464946,20.1693,38.417,3.28509,0.0,0.0
831,207.5,77.5246,85.0769,139.406,99.3188,73.5783,0.0234121,0.458129,20.183,38.2369,2.74799,0.0,0.0
834,208.25,76.6253,84.6791,138.942,99.265,76.2148,0.022765,0.453211,20.2014,38.2869,2.42052,0.0,0.0
837,209,76.5039,84.1984,142.61,99.214,81.0976,0.0221988,0.449699,20.2225,38.1868,1.84698,0.0,0.0
840,209.75,76.1528,83.2241,146.074,99.1675,78.8674,0.0217547,0.44625,20.2379,38.2369,2.09812,0.0,0.0
843,210.5,75.3866,83.1385,139.276,99.1254,74.9738,0.0214103,0.442164,20.2491,38.1768,2.55801,0.0,0.0
846,211.25,75.0131,82.6038,138.641,99.0911,72.9846,0.0211504,0.434938,20.2573,38.1168,2.80117,0.0,0.0
849,212,74.9596,82.656,142.334,99.0296,77.6079,0.0208569,0.42967,20.2637,38.0967,2.23284,0.0,0.0
852,212.75,74.2549,81.5175,146.857,98.9705,88.9984,0.020643,0.422134,20.2686,38.1067,0.972869,0.0,0.0
855,213.5,73.7841,81.7113,142.994,98.9333,90.4301,0.0202445,0.415585,20.2726,38.0867,0.823239,0.0,0.0
858,214.25,73.7381,80.8119,143.234,98.8916,89.3106,0.0198105,0.409008,20.2802,38.0667,0.93349,0.0,0.0
861,215,73.5844,80.1377,142.745,98.8451,92.092,0.0193226,0.400325,20.2933,38.0867,0.648251,0.0,0.0
864,215.75,73.022,79.8104,145.287,98.7938,93.9729,0.0187784,0.391982,20.31,37.9766,0.458277,0.0,0.0
867,216.5,72.1699,78.6364,141.185,98.7408,93.152,0.018063,0.380587,20.3252,37.9566,0.53374,0.0,0.0
870,217.25,71.8567,78.3513,144.686,98.7153,96.1558,0.017409,0.369083,20.3377,37.9566,0.240645,0.0,0.0
873,218,71.0835,77.4983,143.114,98.6777,96.6538,0.0167057,0.360696,20.3496,37.9566,0.189831,0.0,0.0
876,218.75,70.775,77.0552,148.343,98.6344,97.4504,0.0161929,0.352847,20.3631,37.9466,0.110627,0.0,0.0
879,219.5,70.3456,76.0616,144.627,98.6,97.4348,0.0153938,0.346385,20.3809,37.9666,0.108901,0.0,0.0
882,220.25,70.0123,76.27,143.314,98.5798,97.4992,0.0148113,0.339479,20.3974,37.9166,0.10097,0.0,0.0
885,221,69.4982,75.1273,147.675,98.5349,97.9523,0.0141174,0.332486,20.4202,37.9066,0.0543199,0.0,0.0
888,221.75,69.0792,74.9552,142.167,98.513,97.4865,0.0134226,0.324039,20.4383,37.9166,0.095958,0.0,0.0
891,222.5,68.5868,74.2288,140.961,98.4775,97.6109,0.012801,0.312312,20.4538,37.8765,0.0809671,0.0,0.0
894,223.25,67.3927,73.2947,145.652,98.4508,98.7211,0.0121508,0.301225,20.4658,37.9366,-0.0251189,0.0,0.0
897,224,67.2416,72.9297,148.342,98.4232,98.8816,0.0113944,0.292062,20.4835,37.9066,-0.0425575,0.0,0.0
900,224.75,67.4125,72.1742,145.812,98.3961,98.6401,0.0106224,0.281632,20.5049,37.9066,-0.0226845,0.0,0.0
903,225.5,66.9772,71.603,147.191,98.399,98.8518,0.00996565,0.271486,20.5286,37.8765,-0.04206,0.0,0.0
906,226.25,66.3513,71.4288,146.747,98.3783,98.8825,0.00922396,0.261679,20.5516,37.8865,-0.0468278,0.0,0.0
909,227,65.6531,70.3397,150.45,98.3711,98.9767,0.00857924,0.25226,20.5684,37.8565,-0.0562232,0.0,0.0
912,227.75,65.929,69.6591,148.574,98.3537,98.9045,0.00793135,0.243869,20.5863,37.8465,-0.0511589,0.0,0.0
915,228.5,65.5973,69.9756,148.745,98.3508,98.9074,0.00732784,0.235147,20.602,37.8665,-0.0516937,0.0,0.0
918,229.25,64.5464,68.7295,147.134,98.3488,98.7694,0.00679277,0.226301,20.6179,37.8365,-0.0390881,0.0,0.0
921,230,63.8004,67.854,148.941,98.3533,99.1445,0.00633573,0.218181,20.6352,37.8465,-0.0733976,0.0,0.0
924,230.75,63.7763,67.2052,148.18,98.3391,99.2289,0.00594408,0.210632,20.6532,37.8465,-0.0825095,0.0,0.0
927,231.5,63.3796,66.6827,146.244,98.3436,99.2035,0.00565345,0.203562,20.6707,37.8365,-0.0797536,0.0,0.0
930,232.25,62.672,67.0934,151.447,98.3589,99.345,0.0054394,0.19643,20.6871,37.7964,-0.0913752,0.0,0.0
933,233,62.4494,65.8995,147.639,98.3715,99.3708,0.0053473,0.190386,20.7013,37.8065,-0.0925907,0.0,0.0
936,233.75,61.8473,65.1437,150.423,98.3808,99.4523,0.00528016,0.182651,20.7126,37.8165,-0.099231,0.0,0.0
939,234.5,61.5508,64.527,145.592,98.384,99.4762,0.00536299,0.175983,20.7253,37.8265,-0.10113,0.0,0.0
942,235.25,61.3107,64.4109,152.06,98.4156,99.7537,0.00553895,0.169363,20.736,37.7864,-0.123717,0.0,0.0
945,236,61.0202,63.691,149.382,98.4382,99.5947,0.00570859,0.162544,20.7462,37.8165,-0.106995,0.0,0.0
948,236.75,60.1,63.6097,146.529,98.452,99.6513,0.00590302,0.156149,20.7581,37.7664,-0.110918,0.0,0.0
951,237.5,59.8248,63.1541,147.509,98.4758,99.7333,0.0061442,0.150072,20.7699,37.8065,-0.116227,0.0,0.0
954,238.25,59.2609,62.7708,147.752,98.5037,99.6903,0.00635611,0.144257,20.7798,37.8165,-0.109688,0.0,0.0
957,239,58.5419,62.1577,151.82,98.5357,99.8181,0.00657229,0.138412,20.7903,37.8065,-0.118453,0.0,0.0
960,239.75,58.6999,61.8279,150.645,98.5555,99.9025,0.00677976,0.133465,20.7997,37.8065,-0.124352,0.0,0.0
963,240.5,58.2984,61.0394,152.115,98.5676,100.241,0.0069426,0.127684,20.8073,37.8265,-0.154168,0.0,0.0
966,241.25,57.8354,60.6582,149.43,98.617,100.073,0.00708115,0.123469,20.814,37.8365,-0.134281,0.0,0.0
969,242,56.7932,59.0676,154.011,98.6506,100.066,0.0071801,0.118728,20.8209,37.8265,-0.130492,0.0,0.0
972,242.75,55.9666,57.9256,145.773,98.6971,99.9596,0.00724873,0.114561,20.8282,37.8565,-0.116434,0.0,0.0
975,243.5,55.6758,58.0482,148.905,98.6995,100.123,0.00727899,0.110146,20.8354,37.8165,-0.131127,0.0,0.0
978,244.25,54.7455,58.0817,151.194,98.7529,100.011,0.00724339,0.106113,20.8423,37.7664,-0.115947,0.0,0.0
981,245,54.6157,57.2318,147.357,98.7747,100.076,0.00717666,0.10213,20.8498,37.7964,-0.119862,0.0,0.0
984,245.75,53.8871,56.472,153.276,98.8111,99.8957,0.00704689,0.0985722,20.8576,37.8365,-0.099996,0.0,0.0
987,246.5,54.0285,56.2927,149.848,98.8387,99.9176,0.0068942,0.0953674,20.8646,37.8265,-0.099459,0.0,0.0
990,247.25,53.8812,56.026,150.448,98.8811,99.8294,0.00675812,0.0922201,20.8706,37.8365,-0.0874258,0.0,0.0
993,248,53.4997,56.0056,148.894,98.9139,100.091,0.00658032,0.0895801,20.8754,37.8165,-0.108351,0.0,0.0
996,248.75,53.5567,55.4167,150.102,98.9515,100.362,0.0064172,0.0865849,20.8797,37.8365,-0.129612,0.0,0.0
999,249.5,53.3911,54.9056,147.847,98.9725,100.083,0.00620473,0.084146,20.8842,37.7864,-0.102252,0.0,0.0
1002,250.25,52.8167,54.5416,153.938,99.0094,100.173,0.00599718,0.0819316,20.8888,37.7864,-0.107012,0.0,0.0
1005,251,51.961,54.1056,147.533,99.047,100.483,0.00580521,0.0799648,20.8933,37.7964,-0.131903,0.0,0.0
1008,251.75,52.1821,53.9907,150.285,99.0805,100.489,0.00563409,0.0779552,20.8972,37.8365,-0.129288,0.0,0.0
1011,252.5,51.8794,53.0373,149.614,99.0959,100.002,0.00545085,0.0763088,20.901,37.8265,-0.0833371,0.0,0.0
1014,253.25,51.8664,52.823,150.712,99.1093,100.152,0.0052809,0.0744186,20.9041,37.8265,-0.0958995,0.0,0.0
1017,254,51.3148,52.7426,155.031,99.1449,100.299,0.00509481,0.0730406,20.907,37.8065,-0.10603,0.0,0.0
1020,254.75,51.1161,52.889,153.076,99.1558,100.504,0.00489933,0.0711778,20.9092,37.8165,-0.123757,0.0,0.0
1023,255.5,50.5932,52.3283,150.536,99.1582,100.412,0.00465453,0.0694688,20.9118,37.8165,-0.115127,0.0,0.0
1026,256.25,50.4227,51.7789,153.297,99.155,100.234,0.00437434,0.0679193,20.9141,37.8065,-0.0991681,0.0,0.0
1029,257,50.3735,51.4541,155.269,99.1869,100.392,0.00411796,0.0665267,20.9162,37.7564,-0.110604,0.0,0.0
1032,257.75,49.7594,51.4556,151.075,99.1999,100.288,0.00389546,0.0652776,20.9182,37.7664,-0.0999679,0.0,0.0
1035,258.5,49.9286,51.2038,151.976,99.2439,100.434,0.00376571,0.0644387,20.9201,37.7764,-0.109211,0.0,0.0
1038,259.25,49.29,50.972,149.648,99.2516,100.403,0.00359931,0.0633017,20.9225,37.7664,-0.105653,0.0,0.0
1041,260,49.0719,50.3152,151.274,99.2893,100.636,0.00347096,0.0621663,20.9247,37.7764,-0.12343,0.0,0.0
1044,260.75,48.9312,50.547,151.852,99.3159,100.603,0.00335206,0.0612079,20.9269,37.7564,-0.117949,0.0,0.0
1047,261.5,48.4424,50.7974,153.212,99.3398,100.578,0.00324736,0.0601763,20.9285,37.7764,-0.113482,0.0,0.0
1050,262.25,48.7694,49.6229,152.016,99.3677,100.699,0.00314023,0.0592862,20.9303,37.7964,-0.121875,0.0,0.0
1053,263,48.2092,49.7132,146.249,99.3936,100.697,0.0030025,0.058401,20.9317,37.7964,-0.119355,0.0,0.0
1056,263.75,47.7616,49.2868,151.845,99.4199,100.708,0.00286418,0.0574855,20.9326,37.8165,-0.117909,0.0,0.0
1059,264.5,48.0067,49.1309,154.01,99.445,100.551,0.00269849,0.0568181,20.9336,37.8165,-0.101301,0.0,0.0
1062,265.25,47.7912,49.1234,152.503,99.4531,100.653,0.00253054,0.0560706,20.9346,37.8565,-0.109883,0.0,0.0
1065,266,47.3788,48.9282,151.697,99.4798,100.831,0.00232745,0.0553224,20.9371,37.8365,-0.123614,0.0,0.0
1068,266.75,46.7862,48.5563,151.166,99.4931,100.813,0.00213656,0.0546198,20.9389,37.8265,-0.120745,0.0,0.0
1071,267.5,46.685,47.7777,148.938,99.5061,100.896,0.00196788,0.0539206,20.9403,37.8565,-0.127041,0.0,0.0
1074,268.25,46.7078,47.9653,150.159,99.5243,100.531,0.00182565,0.0533114,20.9419,37.8365,-0.0922228,0.0,0.0
1077,269,45.0639,47.9853,151.984,99.5303,100.64,0.00171567,0.0526969,20.9433,37.8365,-0.101572,0.0,0.0
1080,269.75,46.7024,47.2733,151.672,99.5481,100.753,0.00165758,0.0523446,20.9443,37.8465,-0.110184,0.0,0.0
1083,270.5,46.8045,46.6691,151.907,99.5554,100.764,0.00158166,0.0518884,20.9457,37.8465,-0.110534,0.0,0.0
1086,271.25,46.3947,47.0447,148.418,99.5526,100.445,0.00151263,0.0514394,20.9471,37.8265,-0.0817465,0.0,0.0
1089,272,45.7064,46.8834,152.329,99.5554,100.194,0.00144533,0.0508589,20.9487,37.8065,-0.0585473,0.0,0.0
1092,272.75,45.9394,46.8603,149.562,99.5526,100.808,0.00137834,0.0502953,20.95,37.8165,-0.114785,0.0,0.0
1095,273.5,46.2755,46.3023,149.918,99.5663,100.606,0.00131819,0.0497928,20.9508,37.8265,-0.0951938,0.0,0.0
1098,274.25,45.3802,46.434,151.368,99.5684,100.831,0.00126952,0.0493883,20.9515,37.8265,-0.115416,0.0,0.0
1101,275,45.7449,46.239,152.756,99.5493,100.643,0.0012,0.0490279,20.9524,37.8365,-0.100132,0.0,0.0
1104,275.75,45.3463,45.9104,152.406,99.5578,100.537,0.00114932,0.0487031,20.9533,37.8565,-0.0896216,0.0,0.0
1107,276.5,45.0399,45.7814,149.258,99.5708,100.363,0.00105152,0.0484662,20.9539,37.8265,-0.0725951,0.0,0.0
1110,277.25,44.8818,45.5043,148.463,99.5514,100.781,0.000960151,0.0482107,20.9544,37.8265,-0.112458,0.0,0.0
1113,278,44.4224,45.4353,149.582,99.54,100.592,0.000907458,0.0480571,20.9546,37.8465,-0.0963249,0.0,0.0
1116,278.75,44.9632,45.4085,151.418,99.54,100.496,0.000851945,0.0478502,20.9549,37.8465,-0.0875256,0.0,0.0
1119,279.5,44.3013,44.9941,149.512,99.5307,100.241,0.000825269,0.0476994,20.9553,37.8365,-0.0651426,0.0,0.0
1122,280.25,44.1799,44.7864,150.662,99.5146,100.652,0.000820286,0.0475065,20.956,37.8565,-0.104133,0.0,0.0
1125,281,44.0369,45.2645,155.911,99.5283,100.608,0.000831331,0.0473506,20.9561,37.8365,-0.0988706,0.0,0.0
1128,281.75,44.1128,44.5315,151.981,99.4972,100.662,0.00083311,0.0472108,20.9562,37.8665,-0.106578,0.0,0.0
1131,282.5,43.9507,44.3337,158.497,99.4871,100.428,0.000831731,0.0470798,20.9567,37.8565,-0.0862209,0.0,0.0
1134,283.25,44.0065,44.3493,152.49,99.4838,100.323,0.000777074,0.046972,20.957,37.8465,-0.0769037,0.0,0.0
1137,284,43.7482,44.1954,149.48,99.4575,100.61,0.000720086,0.0468519,20.9573,37.8465,-0.105522,0.0,0.0
1140,284.75,43.1661,44.1444,152.961,99.4373,100.365,0.000649229,0.0467261,20.9574,37.8265,-0.0850613,0.0,0.0
1143,285.5,43.5998,44.457,149.106,99.4341,100.436,0.000560131,0.046569,20.9576,37.7964,-0.0918583,0.0,0.0
1146,286.25,43.35,43.6006,157.247,99.4151,100.516,0.000488595,0.0464149,20.9577,37.8165,-0.100858,0.0,0.0
1149,287,43.0772,43.811,154.773,99.3932,100.233,0.000425843,0.0462735,20.958,37.7764,-0.0770502,0.0,0.0
1152,287.75,42.847,43.675,154.926,99.3746,100.217,0.000381223,0.0461581,20.9582,37.7564,-0.0773387,0.0,0.0
1155,288.5,42.8781,44.1443,158.155,99.3815,100.24,0.000348695,0.0460158,20.9584,37.7264,-0.0788008,0.0,0.0
1158,289.25,42.8584,43.2717,149.756,99.3689,100.465,0.000358893,0.0458873,20.958,37.7664,-0.100483,0.0,0.0
1161,290,42.5232,43.0157,157.141,99.3479,100.213,0.000374893,0.0457522,20.9575,37.7964,-0.0794435,0.0,0.0
1164,290.75,42.404,42.6056,150.444,99.3249,100.324,0.000401205,0.0456537,20.9578,37.8865,-0.0917298,0.0,0.0
1167,291.5,41.8241,42.9319,155.131,99.3297,100.054,0.00042164,0.0455819,20.958,37.8565,-0.0665747,0.0,0.0
1170,292.25,41.9517,42.9102,154.194,99.3091,99.985,0.00043707,0.0455296,20.9582,37.8165,-0.0621335,0.0,0.0
1173,293,41.9748,42.3287,153.161,99.3058,100.125,0.000437602,0.0454761,20.9583,37.9066,-0.0752488,0.0,0.0
1176,293.75,41.7872,42.3218,151.929,99.2876,99.8016,0.000430479,0.045411,20.9584,37.8765,-0.0472921,0.0,0.0
1179,294.5,41.2239,42.3263,150.366,99.265,100.021,0.00042406,0.045291,20.9584,37.8865,-0.0694631,0.0,0.0
1182,295.25,41.5049,42.3428,152.553,99.2634,100.103,0.00042276,0.0451641,20.9589,37.8865,-0.0771146,0.0,0.0
1185,296,41.281,42.1026,149.578,99.2617,100.247,0.000419274,0.0450575,20.9595,37.8465,-0.0904669,0.0,0.0
1188,296.75,41.1364,41.9582,151.325,99.2302,100.3,0.000415651,0.0449644,20.9599,37.8465,-0.0981923,0.0,0.0
1191,297.5,41.2138,41.7741,147.287,99.2136,99.8425,0.000413009,0.0448705,20.96,37.8765,-0.0578835,0.0,0.0
1194,298.25,41.289,41.3608,153.107,99.2059,99.8928,0.000412402,0.0448227,20.96,37.8165,-0.0632022,0.0,0.0
1197,299,40.7686,41.7221,154.959,99.2055,99.8869,0.000414212,0.0447879,20.96,37.8065,-0.062703,0.0,0.0
1200,299.75,41.1537,40.7321,153.5,99.1768,99.9664,0.000401249,0.0447472,20.9601,37.8465,-0.072643,0.0,0.0
1203,300.5,40.9284,40.722,153.803,99.1796,99.6928,0.000379286,0.0446914,20.9601,37.8265,-0.0472713,0.0,0.0
1206,301.25,41.0758,41.1774,153.103,99.1643,99.7962,0.000357941,0.0445927,20.9601,37.7964,-0.058189,0.0,0.0
1209,302,40.6228,40.8306,148.102,99.1513,99.8118,0.000340595,0.0444959,20.9601,37.7164,-0.0608165,0.0,0.0
1212,302.75,40.5482,40.9698,150.415,99.1412,99.7786,0.000331703,0.044384,20.9601,37.7764,-0.0587067,0.0,0.0
1215,303.5,39.8653,40.4771,151.107,99.1331,99.8498,0.000326821,0.0443459,20.9601,37.6363,-0.0659895,0.0,0.0
1218,304.25,40.1591,40.7887,150.459,99.1343,99.5996,0.000317007,0.0443368,20.9601,37.7164,-0.0428916,0.0,0.0
1221,305,40.2059,40.3091,151.609,99.1206,99.8845,0.00030126,0.0443508,20.9601,37.7564,-0.0703258,0.0,0.0
1224,305.75,40.2992,40.4472,154.015,99.1064,99.5708,0.000279649,0.0443527,20.9601,37.6663,-0.0428236,0.0,0.0
1227,306.5,39.9367,40.5814,154.919,99.0862,99.8011,0.000258858,0.0443399,20.9599,37.7464,-0.0658509,0.0,0.0
1230,307.25,39.6871,40.0821,150.636,99.085,99.663,0.000242213,0.0443305,20.9593,37.6663,-0.0532835,0.0,0.0
1233,308,39.901,40.0462,155.159,99.0793,99.5869,0.000231205,0.0443673,20.9586,37.5862,-0.0468097,0.0,0.0
1236,308.75,39.6857,39.8248,153.194,99.0676,99.6645,0.000219612,0.0444279,20.9581,37.7264,-0.0550262,0.0,0.0
1239,309.5,39.6249,39.8179,152.429,99.0401,99.5777,0.00020741,0.0444983,20.9578,37.7264,-0.0495854,0.0,0.0
1242,310.25,39.5551,38.9787,156.901,99.0466,99.8396,0.000196916,0.0445641,20.9576,37.6964,-0.0730525,0.0,0.0
1245,311,38.5796,39.9076,153.058,99.049,99.5547,0.000188016,0.0446182,20.9574,37.8365,-0.0466533,0.0,0.0
1248,311.75,39.1129,38.725,152.506,99.0502,99.3708,0.000180995,0.0446577,20.9572,37.8265,-0.0296046,0.0,0.0
1251,312.5,38.7054,39.4811,153.776,99.0316,99.965,0.000169955,0.0446243,20.9571,37.8265,-0.085931,0.0,0.0
1254,313.25,38.7095,38.8713,154.715,99.053,100.002,0.000133741,0.0446142,20.9584,37.8765,-0.0873453,0.0,0.0
1257,314,39.239,39.1761,151.847,99.0401,99.784,0.000102892,0.0446442,20.9592,37.8165,-0.0685471,0.0,0.0
1260,314.75,38.682,39.0414,149.633,99.0344,99.6157,3.97692e-05,0.044718,20.9599,37.7864,-0.0536086,0.0,0.0
1263,315.5,38.4126,38.8725,151.052,99.0235,99.5933,-2.58525e-05,0.0447719,20.9604,37.7864,-0.0525558,0.0,0.0
1266,316.25,38.3035,38.6361,156.963,99.0381,99.944,-8.71814e-05,0.0448111,20.9607,37.7364,-0.0834103,0.0,0.0
1269,317,38.1251,38.6331,154.114,99.0377,99.7011,-0.000115651,0.0448397,20.9607,37.7664,-0.0611562,0.0,0.0
1272,317.75,38.5148,38.6795,151.303,99.0417,99.7679,-0.000129483,0.0449187,20.9603,37.7764,-0.0669195,0.0,0.0
1275,318.5,38.9265,38.8187,151.346,99.015,99.6616,-0.000110835,0.045001,20.96,37.7264,-0.05962,0.0,0.0
1278,319.25,38.1998,38.471,147.504,99.0162,99.5367,-7.90754e-05,0.0451439,20.9598,37.6863,-0.0480232,0.0,0.0
1281,320,38.0598,38.5947,151.045,99.0292,99.5508,-4.58036e-05,0.0452022,20.9597,37.7364,-0.0481275,0.0,0.0
1284,320.75,38.4561,38.6059,159.599,99.0381,99.7084,-3.22399e-05,0.0451663,20.9596,37.6763,-0.0617905,0.0,0.0
1287,321.5,38.6112,38.3086,152.97,99.0316,99.5255,-2.85973e-05,0.0450158,20.9595,37.5762,-0.0455684,0.0,0.0
1290,322.25,37.8843,37.7689,149.73,99.0235,99.8703,-2.9262e-05,0.0449352,20.9594,37.7664,-0.0780044,0.0,0.0
1293,323,38.1991,37.8394,149.722,99.0304,99.8845,-3.0871e-05,0.0448964,20.9594,37.6863,-0.0786653,0.0,0.0
1296,323.75,37.9536,38.3298,152.078,99.049,99.6352,-2.45491e-05,0.0448812,20.9594,37.7264,-0.0540568,0.0,0.0
1299,324.5,37.7574,37.7034,149.682,99.0227,99.5664,-1.67453e-05,0.0448266,20.9593,37.8065,-0.050163,0.0,0.0
1302,325.25,37.8454,37.9264,152.22,99.0191,99.662,5.1873e-06,0.0447682,20.9596,37.7464,-0.0592908,0.0,0.0
1305,326,38.0482,38.4618,155.105,99.0288,99.7162,4.19191e-05,0.044682,20.9601,37.8265,-0.0633683,0.0,0.0
1308,326.75,37.7845,37.5221,156.522,99.034,99.643,9.23253e-05,0.0446236,20.9605,37.8165,-0.0561578,0.0,0.0
1311,327.5,37.6432,37.7571,154.433,99.0284,99.4781,0.000155379,0.0446202,20.9611,37.9066,-0.0415115,0.0,0.0
1314,328.25,37.6396,37.6411,152.138,99.0199,99.5074,0.000219807,0.044661,20.9619,37.8465,-0.0449923,0.0,0.0
1317,329,37.4747,37.8945,155.211,99.0344,99.7094,0.000279167,0.0446677,20.9627,37.7864,-0.0622171,0.0,0.0
1320,329.75,37.6709,37.0949,151.248,99.0449,99.5913,0.000317085,0.0446335,20.9633,37.7664,-0.050393,0.0,0.0
1323,330.5,37.9226,37.6693,153.517,99.0316,99.4259,0.00033748,0.0446914,20.9637,37.8565,-0.0364049,0.0,0.0
1326,331.25,37.5407,37.8916,148.805,99.0219,99.3152,0.000339957,0.0447182,20.9634,37.8265,-0.0270961,0.0,0.0
1329,332,37.2808,36.9297,151.362,99.034,99.6118,0.000321745,0.0447117,20.9631,37.8165,-0.0532873,0.0,0.0
1332,332.75,37.7899,37.016,154.745,99.0352,99.4572,0.000299934,0.0446924,20.963,37.7864,-0.0389439,0.0,0.0
1335,333.5,37.4075,36.8494,152.433,99.0316,99.7396,0.000266198,0.0446722,20.9628,37.7864,-0.065257,0.0,0.0
1338,334.25,36.9145,37.2881,154.944,99.0215,99.5006,0.000231602,0.0445953,20.9627,37.8365,-0.0442137,0.0,0.0
1341,335,37.3111,37.1206,150.117,99.0377,99.642,0.000202118,0.0445164,20.9627,37.8465,-0.0557315,0.0,0.0
1344,335.75,36.8424,37.564,157.175,99.0579,99.2625,0.000165628,0.0444196,20.9625,37.8865,-0.0189052,0.0,0.0
1347,336.5,36.9,37.2091,152.813,99.0688,99.3206,0.000132633,0.0443636,20.9623,37.8865,-0.023251,0.0,0.0
1350,337.25,36.9733,36.7677,152.751,99.0704,99.5338,9.78884e-05,0.0443289,20.9621,37.8565,-0.0427407,0.0,0.0
1353,338,36.5303,37.078,155.735,99.089,99.5484,6.59847e-05,0.0442829,20.962,37.8665,-0.0423672,0.0,0.0
1356,338.75,37.0898,36.6682,151.431,99.0765,99.4757,3.14838e-05,0.0442494,20.9619,37.8665,-0.0368358,0.0,0.0
1359,339.5,36.9663,36.5401,154.85,99.0898,99.522,-2.3648e-05,0.044225,20.9618,37.8665,-0.0398679,0.0,0.0
1362,340.25,36.8165,36.893,152.735,99.087,99.3064,-9.10846e-05,0.0443314,20.9618,37.8765,-0.0202633,0.0,0.0
1365,341,36.8232,36.529,151.897,99.0862,99.5191,-0.00016498,0.0443945,20.9617,37.9166,-0.0399353,0.0,0.0
1368,341.75,36.5825,36.1546,152.322,99.1052,99.3611,-0.000242012,0.0444343,20.9617,37.9066,-0.0236188,0.0,0.0
1371,342.5,36.7093,36.5892,155.949,99.102,99.622,-0.000296854,0.0443805,20.9617,37.9366,-0.0479453,0.0,0.0
1374,343.25,36.4946,36.5547,152.663,99.1178,99.5859,-0.000323307,0.0443683,20.9617,37.9366,-0.0431681,0.0,0.0
1377,344,36.1322,36.2494,153.754,99.1056,99.642,-0.000341396,0.0443737,20.9617,37.9266,-0.0494482,0.0,0.0
1380,344.75,36.523,36.2167,155.63,99.1307,99.6767,-0.0003296,0.0444192,20.9617,37.8965,-0.0503134,0.0,0.0
1383,345.5,36.8114,35.9451,152.085,99.1271,99.5138,-0.000310349,0.0444813,20.9616,37.8965,-0.0356654,0.0,0.0
1386,346.25,36.0246,36.6732,156.935,99.1513,99.6674,-0.0002426,0.044539,20.9616,37.8865,-0.0475556,0.0,0.0
1389,347,36.3292,36.4508,155.272,99.1635,99.6479,-0.000152549,0.044581,20.9616,37.8765,-0.0446417,0.0,0.0
1392,347.75,36.1748,35.7768,153.667,99.1724,99.6864,-5.6529e-05,0.0445682,20.9616,37.8865,-0.0473613,0.0,0.0
1395,348.5,36.167,36.0934,151.552,99.1869,99.6659,2.34414e-05,0.0445402,20.9616,37.9066,-0.0441342,0.0,0.0
1398,349.25,36.4455,36.4335,155.327,99.1902,99.5513,8.40157e-05,0.0445801,20.9616,37.8765,-0.0332934,0.0,0.0
1401,350,35.7916,36.6205,155.456,99.1942,99.4635,0.00012019,0.0446382,20.9614,37.8565,-0.0248364,0.0,0.0
1404,350.75,36.3325,35.9001,156.168,99.2043,99.4011,0.000138682,0.0446701,20.9612,37.7564,-0.0181502,0.0,0.0
1407,351.5,35.8972,36.3957,155.377,99.246,99.5981,0.000136115,0.0446541,20.9611,37.8465,-0.0324468,0.0,0.0
1410,352.25,36.0694,35.7976,153.453,99.2484,99.6762,0.000134243,0.044657,20.961,37.8065,-0.0393984,0.0,0.0
1413,353,35.6798,35.8586,153.75,99.2496,99.6669,9.36694e-05,0.0446652,20.9609,37.8665,-0.0384345,0.0,0.0
1416,353.75,35.8439,35.4142,148.631,99.269,99.6484,5.15994e-05,0.044692,20.9609,37.8565,-0.0349392,0.0,0.0
1419,354.5,35.665,36.1516,151.884,99.2913,99.7503,1.5605e-05,0.0446824,20.9609,37.8865,-0.0422542,0.0,0.0
1422,355.25,35.9776,36.0151,157.826,99.3022,99.6279,-1.59799e-05,0.0446707,20.9608,37.8465,-0.0299957,0.0,0.0
1425,356,35.8048,36.1743,153.191,99.3111,99.5825,-2.40157e-05,0.0446753,20.9608,37.8665,-0.0250033,0.0,0.0
1428,356.75,35.81,36.19,155.481,99.3131,99.4479,-1.36199e-05,0.0446786,20.9608,37.8965,-0.0124234,0.0,0.0
1431,357.5,35.3242,35.5751,152.07,99.3431,99.9474,1.08251e-05,0.044681,20.9608,37.9166,-0.0555579,0.0,0.0
1434,358.25,35.9776,35.8199,154.533,99.3758,99.6142,2.86456e-05,0.0447554,20.9608,37.9366,-0.021951,0.0,0.0
1437,359,35.5461,35.8586,155.39,99.3665,99.5142,3.6639e-05,0.0448405,20.9608,37.9166,-0.0136078,0.0,0.0
1440,359.75,35.716,35.6589,152.335,99.3835,99.6738,4.03355e-05,0.0449765,20.9607,37.9166,-0.0267144,0.0,0.0
1443,360.5,35.4407,35.4707,153.555,99.3977,99.5464,3.13587e-07,0.0451071,20.9609,37.9266,-0.0137007,0.0,0.0
1446,361.25,35.3789,35.451,155.157,99.4195,99.5645,-4.01046e-05,0.045223,20.9608,37.9066,-0.0133486,0.0,0.0
1448,361.75,35.4409,35.7098,149.837,99.4138,99.7586,-6.41229e-05,0.045267,20.9605,37.9066,-0.0317143,0.0,0.0