File: 01_Data/Latex_Pillow_Foam/Cone/Latex_Pillow_Foam_Cone_HF75Scan_230628_R1.csv
Names,Time,Stack TC,Smoke TC,Exh Press,Smoke Comp,Smoke Meas,CO Meter,CO2 Meter,O2 Meter,Sample Mass,Ext Coeff,Start Test,Flame Verif
Chan Gain,,500,500,1,1,1,1,1,1,1,1,1.0,1.0
Offset,,0,0,0.13804,0,0,0,0,0,0,0,0.0,0.0
Gain,,1,1,25.011,12.8632,68.4336,1,1,1,1.00091,0.969894,1.0,1.0
Units,sec,C,C,Pa,%,%,%,%,%,g,/m,,
Baseline,,54.0894,57.3302,157.586,98.3729,94.8581,0.00080351,0.0407504,20.9382,-445.176,0.309656,,
2,0.25,55.359,57.4774,156.15,99.4089,96.1805,0.000988927,0.0415937,20.9426,67.0413,0.280887,1.0,0.0
4,0.75,55.2113,57.3176,160.382,99.4026,94.6476,0.00100155,0.0417021,20.9424,67.0813,0.417038,0.0,0.0
6,1.25,55.4604,57.8109,155.486,99.3814,95.7983,0.000995791,0.0417313,20.9423,67.0613,0.312409,0.0,1.0
8,1.75,54.986,57.4952,147.291,99.3449,81.4299,0.000972062,0.041809,20.9422,66.9111,1.69183,0.0,1.0
10,2.25,55.0518,57.9721,140.194,99.3355,65.2049,0.000940354,0.041872,20.9421,66.8311,3.58153,0.0,1.0
12,2.75,55.8275,58.8838,126.007,99.3323,57.4213,0.000906477,0.041923,20.9421,66.6709,4.66277,0.0,1.0
14,3.25,56.4075,60.5079,126.917,99.277,51.2521,0.000871662,0.0419643,20.9416,66.6409,5.62502,0.0,1.0
16,3.75,57.3087,61.8124,121.351,99.2636,48.7711,0.000843462,0.0420255,20.9412,66.5408,6.04603,0.0,1.0
18,4.25,57.7131,63.8898,133.531,99.2424,46.2649,0.00081999,0.0420752,20.9409,66.2405,6.49302,0.0,1.0
20,4.75,58.9321,65.2868,127.303,99.2118,41.4114,0.00080041,0.0422545,20.9406,66.2505,7.4333,0.0,0.0
22,5.25,59.8659,67.457,110.726,99.1753,40.1375,0.000789592,0.042525,20.9404,66.0303,7.69601,0.0,1.0
24,5.75,60.7697,69.7459,110.129,99.1498,38.7779,0.000785367,0.0427441,20.9402,65.8702,7.98699,0.0,1.0
26,6.25,62.1066,72.5792,118.804,99.1302,41.2214,0.000791402,0.0432417,20.9401,65.7401,7.46543,0.0,1.0
28,6.75,63.8544,75.4721,115.87,99.1412,32.8447,0.000804802,0.0438795,20.94,65.64,9.39907,0.0,1.0
30,7.25,65.4942,78.1605,102.005,99.1467,34.2816,0.000810515,0.0442625,20.9399,65.4998,9.03527,0.0,1.0
32,7.75,66.3662,80.7413,100.364,99.1914,32.7674,0.000847853,0.0449174,20.9396,65.2796,9.42342,0.0,1.0
34,8.25,68.6256,83.8868,109.375,99.1545,33.158,0.000878096,0.0481311,20.9391,65.0895,9.31946,0.0,1.0
36,8.75,70.0573,86.6298,104.262,99.1761,33.1997,0.000938601,0.0507342,20.9388,64.9594,9.3106,0.0,1.0
38,9.25,71.8452,89.8798,97.683,99.1667,30.3929,0.00102002,0.0607878,20.9371,64.8493,10.0613,0.0,1.0
40,9.75,72.4791,92.1356,112.78,99.1847,31.316,0.00121285,0.0760819,20.9358,64.6891,9.80831,0.0,1.0
42,10.25,73.9228,94.8502,111.467,99.193,31.1406,0.00148325,0.0884701,20.9338,64.5089,9.85681,0.0,0.0
44,10.75,75.7384,97.6392,98.3394,99.2228,31.5311,0.00170228,0.116106,20.9323,64.5189,9.75334,0.0,0.0
46,11.25,77.7355,100.714,106.339,99.2146,30.7521,0.00238073,0.154334,20.931,64.3188,9.96546,0.0,0.0
48,11.75,79.4372,103.583,111.679,99.2507,31.1698,0.00338121,0.206043,20.9273,64.1686,9.85378,0.0,0.0
50,12.25,81.4158,106.762,98.8218,99.2291,28.0392,0.00476728,0.2666,20.9243,63.9584,10.7524,0.0,0.0
52,12.75,83.2121,109.523,105.714,99.2762,29.852,0.0064081,0.315651,20.9002,63.8283,10.2235,0.0,0.0
54,13.25,84.7491,112.256,98.1402,99.2723,30.8753,0.00860594,0.394008,20.8807,63.6482,9.93639,0.0,0.0
56,13.75,86.2896,114.749,100.351,99.297,30.9254,0.0111681,0.457477,20.8118,63.3979,9.9247,0.0,0.0
58,14.25,87.5714,117.163,101.666,99.3033,30.0065,0.0141439,0.546639,20.7561,63.2878,10.1819,0.0,0.0
60,14.75,89.3914,120.207,98.3165,99.3119,28.6929,0.0173646,0.61886,20.6247,63.1177,10.5635,0.0,0.0
62,15.25,90.6003,122.558,113.99,99.3123,27.9306,0.0199734,0.713876,20.5182,63.0676,10.7926,0.0,0.0
64,15.75,92.6231,125.451,101.52,99.3249,28.1875,0.0242112,0.790839,20.3959,62.8274,10.7158,0.0,0.0
66,16.25,93.9261,128.34,87.913,99.3355,26.6692,0.0276438,0.870454,20.2644,62.6372,11.1877,0.0,0.0
68,16.75,95.946,130.569,110.303,99.3571,29.0667,0.0314001,0.950491,20.1225,62.5071,10.4572,0.0,0.0
70,17.25,97.4737,133.222,105.08,99.359,26.9512,0.0353209,1.01532,19.9758,62.3169,11.1003,0.0,0.0
72,17.75,98.862,135.644,88.5351,99.3783,28.5906,0.0384967,1.09434,19.8569,62.1968,10.5995,0.0,0.0
74,18.25,101.154,138.193,100.264,99.3802,30.0358,0.0429672,1.15835,19.728,62.0167,10.1802,0.0,0.0
76,18.75,102.373,140.831,94.9756,99.3975,28.2815,0.0465882,1.22273,19.5943,61.8465,10.6937,0.0,0.0
78,19.25,103.881,143.407,103.578,99.4214,28.3045,0.0502862,1.28615,19.486,61.7464,10.6888,0.0,0.0
80,19.75,105.607,145.907,103.415,99.4458,28.6198,0.05397,1.33752,19.3465,61.4562,10.5966,0.0,0.0
82,20.25,106.912,147.844,93.0209,99.447,28.6156,0.0574924,1.39469,19.2336,61.4261,10.598,0.0,0.0
84,20.75,108.785,149.706,98.0738,99.4662,27.1245,0.0608303,1.441,19.1009,61.2059,11.0549,0.0,0.0
86,21.25,109.908,151.592,91.1776,99.4705,27.8659,0.0640101,1.4896,18.9935,61.0157,10.8259,0.0,0.0
88,21.75,111.357,153.619,88.8488,99.4843,28.6491,0.0670143,1.52897,18.9065,60.8256,10.5912,0.0,0.0
90,22.25,112.682,156.3,95.3092,99.5027,27.8513,0.0694477,1.56086,18.7874,60.7355,10.8331,0.0,0.0
92,22.75,113.967,158.442,105.777,99.5188,33.0327,0.0720846,1.60514,18.6909,60.5653,9.38287,0.0,0.0
94,23.25,115.78,160.187,97.025,99.529,26.3413,0.0748198,1.64101,18.5881,60.3551,11.3096,0.0,0.0
96,23.75,116.825,161.198,98.5913,99.5467,29.8938,0.077431,1.67925,18.5049,60.225,10.2347,0.0,0.0
98,24.25,118.077,163.327,87.3322,99.5686,29.119,0.0799022,1.71022,18.4228,60.0148,10.46,0.0,0.0
100,24.75,119.512,165.605,103.475,99.5844,28.789,0.0819039,1.74346,18.3564,59.9448,10.5583,0.0,0.0
102,25.25,120.459,166.655,98.8767,99.5934,27.9891,0.0840178,1.77038,18.3025,59.6545,10.7988,0.0,0.0
104,25.75,122.038,168.418,107.177,99.6319,26.427,0.0861733,1.79218,18.2315,59.5544,11.2907,0.0,0.0
106,26.25,122.605,170.02,87.7337,99.6417,29.4907,0.0879193,1.81863,18.1739,59.3542,10.3583,0.0,0.0
108,26.75,124.08,171.126,91.2798,99.6684,29.7288,0.0900221,1.84005,18.1143,59.2441,10.2922,0.0,0.0
110,27.25,125.377,172.91,104.572,99.679,28.5405,0.0917253,1.86018,18.0542,59.0439,10.6402,0.0,0.0
112,27.75,126.628,174.896,113.143,99.6786,27.2561,0.0935337,1.87648,18.0002,58.8638,11.0319,0.0,0.0
114,28.25,127.667,176.142,99.0225,99.7076,26.4249,0.0949984,1.89087,17.9516,58.7637,11.2979,0.0,0.0
116,28.75,128.817,177.214,93.2438,99.7139,25.9466,0.0964634,1.90252,17.9041,58.5935,11.4538,0.0,0.0
118,29.25,129.95,178.91,105.01,99.7382,26.8697,0.0976501,1.91414,17.8583,58.4134,11.1585,0.0,0.0
120,29.75,131.087,180.007,82.8281,99.7535,28.9916,0.0988078,1.92356,17.8177,58.1431,10.5131,0.0,0.0
122,30.25,132.321,182.247,94.3184,99.7818,27.3187,0.0997455,1.93221,17.7816,58.033,11.0212,0.0,0.0
124,30.75,133.573,183.837,95.5061,99.7853,24.0211,0.100568,1.94013,17.7524,57.8428,12.1159,0.0,0.0
126,31.25,134.843,185.326,95.8213,99.812,26.3079,0.101235,1.94655,17.7279,57.6827,11.3445,0.0,0.0
128,31.75,135.61,186.816,108.765,99.8112,27.1537,0.101774,1.95348,17.708,57.6226,11.0752,0.0,0.0
130,32.25,137.19,188.345,94.194,99.8321,28.4715,0.102132,1.95909,17.6891,57.3424,10.6738,0.0,0.0
132,32.75,138.363,190.006,86.1216,99.8218,26.3413,0.102421,1.96389,17.6713,57.1322,11.3345,0.0,0.0
134,33.25,139.253,191.778,97.9219,99.8564,24.7479,0.102546,1.96778,17.6557,57.0721,11.8684,0.0,0.0
136,33.75,140.032,193.047,89.9991,99.8509,27.3605,0.102648,1.97125,17.642,56.8319,11.0141,0.0,0.0
138,34.25,141.704,194.548,92.8949,99.876,27.7281,0.102626,1.97406,17.63,56.7218,10.9027,0.0,0.0
140,34.75,142.716,196.133,96.2541,99.8756,26.6463,0.102608,1.97804,17.6195,56.5016,11.2412,0.0,0.0
142,35.25,143.807,197.095,95.3939,99.8854,24.2425,0.102533,1.98127,17.6107,56.3515,12.0464,0.0,0.0
144,35.75,144.824,198.739,102.01,99.909,25.6543,0.102472,1.98686,17.6033,56.1813,11.5668,0.0,0.0
146,36.25,145.194,199.68,91.7836,99.9011,27.3062,0.102434,1.99138,17.5974,56.0312,11.0352,0.0,0.0
148,36.75,147.151,200.5,97.5082,99.9141,25.9717,0.102412,1.99857,17.5921,55.8911,11.4626,0.0,0.0
150,37.25,147.609,201.981,97.0907,99.9341,29.6097,0.102459,2.00757,17.5879,55.7409,10.349,0.0,0.0
152,37.75,148.366,202.858,89.4923,99.9157,24.9901,0.102555,2.01485,17.5818,55.5908,11.7906,0.0,0.0
154,38.25,149.242,204.209,95.7664,99.9596,26.0448,0.102632,2.02815,17.5768,55.4006,11.4426,0.0,0.0
156,38.75,150.769,205.484,89.2526,99.9482,25.6396,0.102834,2.03892,17.5728,55.2405,11.575,0.0,0.0
158,39.25,151.52,206.312,93.7384,99.98,25.5394,0.103124,2.05079,17.5651,55.0703,11.6111,0.0,0.0
160,39.75,152.402,207.448,90.6135,99.9506,24.7959,0.103359,2.06324,17.5589,54.8801,11.8599,0.0,0.0
162,40.25,153.228,208.971,92.182,99.9667,22.4381,0.103857,2.07332,17.5483,54.7,12.7114,0.0,0.0
164,40.75,153.905,209.806,93.2896,99.9683,24.6372,0.104261,2.08745,17.5347,54.5198,11.916,0.0,0.0
166,41.25,154.597,210.334,87.9855,99.9702,26.0406,0.104911,2.09888,17.5103,54.3296,11.4449,0.0,0.0
168,41.75,155.537,211.962,102.745,99.9643,25.3347,0.105589,2.11088,17.4906,54.1795,11.6782,0.0,0.0
170,42.25,156.833,212.661,107.08,99.9867,28.1332,0.106276,2.1206,17.4695,54.0194,10.7887,0.0,0.0
172,42.75,157.634,213.999,92.6988,99.9902,23.5136,0.106832,2.12661,17.4478,53.8692,12.315,0.0,0.0
174,43.25,158.504,214.682,98.0738,99.9879,25.9571,0.107505,2.13148,17.4244,53.7191,11.4737,0.0,0.0
176,43.75,159.505,215.746,90.1334,100.004,23.2233,0.10805,2.1313,17.4002,53.5389,12.4219,0.0,0.0
178,44.25,159.988,216.562,88.2191,99.9899,22.9017,0.108586,2.13116,17.3806,53.3287,12.5393,0.0,0.0
180,44.75,160.967,217.912,92.3797,99.9867,27.3208,0.109021,2.13105,17.3648,53.1185,11.038,0.0,0.0
182,45.25,162.052,219.366,98.5104,99.9852,23.522,0.109373,2.12957,17.3519,52.9384,12.3116,0.0,0.0
184,45.75,162.668,219.918,96.1503,99.9926,22.388,0.109658,2.12712,17.3415,52.7882,12.7326,0.0,0.0
186,46.25,163.425,220.092,93.0942,99.9726,22.7472,0.109954,2.12514,17.3344,52.6481,12.5955,0.0,0.0
188,46.75,164.48,221.585,104.161,99.9797,22.0413,0.110194,2.12445,17.3297,52.518,12.8643,0.0,0.0
190,47.25,165.391,222.899,91.5607,99.9753,23.2546,0.110454,2.1247,17.326,52.2177,12.408,0.0,0.0
192,47.75,165.585,223.962,96.3938,99.9938,23.5241,0.110725,2.12557,17.3269,52.0476,12.3116,0.0,0.0
194,48.25,166.81,224.868,92.824,99.9506,20.0886,0.111009,2.12685,17.3277,51.9174,13.651,0.0,0.0
196,48.75,167.988,225.282,90.8356,99.9667,22.461,0.111297,2.12859,17.3283,51.6872,12.7027,0.0,0.0
198,49.25,168.308,226.75,82.7128,99.9561,21.8575,0.111599,2.13062,17.3288,51.487,12.9335,0.0,0.0
200,49.75,169.359,228.293,86.6193,99.9439,20.2912,0.111905,2.13335,17.3293,51.3269,13.5651,0.0,0.0
202,50.25,169.524,228.986,94.0528,99.929,21.9974,0.112279,2.13652,17.3296,51.1167,12.8769,0.0,0.0
204,50.75,170.704,230.39,93.7788,99.9314,18.9817,0.112696,2.13909,17.3268,50.9065,14.1316,0.0,0.0
206,51.25,171.48,230.637,91.3722,99.9106,20.4374,0.1132,2.14501,17.3245,50.7564,13.5012,0.0,0.0
208,51.75,173.07,232.724,94.1566,99.9251,20.7005,0.113759,2.1498,17.3214,50.6062,13.3936,0.0,0.0
210,52.25,173.147,233.256,87.5604,99.8976,21.256,0.114212,2.15477,17.3179,50.4661,13.1659,0.0,0.0
212,52.75,174.036,233.155,97.3181,99.8941,21.114,0.114876,2.15977,17.3151,50.2859,13.2227,0.0,0.0
214,53.25,174.641,233.837,101,99.8584,21.2143,0.115681,2.16382,17.3097,50.0858,13.1793,0.0,0.0
216,53.75,175.287,234.325,95.8633,99.8509,19.0298,0.116537,2.16932,17.3053,49.9957,14.1032,0.0,0.0
218,54.25,175.492,234.13,89.6312,99.8128,21.0242,0.117786,2.17796,17.2923,49.8656,13.252,0.0,0.0
220,54.75,176.138,234.411,95.5221,99.8109,20.2849,0.118123,2.18173,17.2875,49.7154,13.5564,0.0,0.0
222,55.25,176.258,234.589,102.54,99.7779,19.65,0.119027,2.18818,17.2732,49.6053,13.8241,0.0,0.0
224,55.75,176.489,234.07,108.53,99.7665,21.916,0.119945,2.19905,17.2616,49.4452,12.8946,0.0,0.0
226,56.25,176.678,233.737,108.627,99.7308,22.4047,0.120857,2.20786,17.2508,49.3151,12.704,0.0,0.0
228,56.75,176.706,232.341,118.366,99.7308,19.6876,0.121595,2.22211,17.2422,49.1649,13.8038,0.0,0.0
230,57.25,176.588,231.495,116.257,99.6797,24.1736,0.122654,2.23366,17.2297,49.1749,12.0531,0.0,0.0
232,57.75,176.307,230.849,114.322,99.6731,28.9185,0.123512,2.24671,17.2149,49.0048,10.5277,0.0,0.0
234,58.25,175.991,228.837,114.957,99.6511,27.703,0.124606,2.26061,17.2028,48.9247,10.8912,0.0,0.0
236,58.75,175.822,227.763,122.668,99.6201,29.3362,0.125493,2.27187,17.1837,48.9347,10.4012,0.0,0.0
238,59.25,174.986,226.185,116.745,99.6067,24.9066,0.126211,2.28039,17.1683,48.8646,11.7927,0.0,0.0
240,59.75,174.455,224.104,125.981,99.5608,31.4622,0.127127,2.2873,17.1493,48.7646,9.80089,0.0,0.0
242,60.25,173.845,222.119,120.058,99.5368,32.191,0.12787,2.28769,17.128,48.6845,9.60399,0.0,0.0
244,60.75,172.822,219.898,130.637,99.5031,42.6081,0.128388,2.28332,17.1107,48.7445,7.21587,0.0,0.0
246,61.25,171.746,218.354,130.135,99.4666,52.2483,0.128733,2.2708,17.0967,48.7045,5.47747,0.0,0.0
248,61.75,171.185,215.156,137.088,99.4678,68.561,0.128722,2.25257,17.0854,48.6845,3.16585,0.0,0.0
250,62.25,169.829,212.842,143.733,99.3908,76.8061,0.128451,2.22715,17.0762,48.6745,2.19311,0.0,0.0
252,62.75,168.781,210.594,140.087,99.3724,81.9102,0.12787,2.19695,17.0688,48.6545,1.64414,0.0,0.0
254,63.25,167.593,208.225,142.481,99.341,88.0774,0.127074,2.15952,17.0659,48.6745,1.02385,0.0,0.0
256,63.75,166.023,205.405,142.361,99.3088,89.6019,0.125943,2.11753,17.0635,48.6645,0.875092,0.0,0.0
258,64.25,164.689,202.996,145.479,99.2868,93.1836,0.124591,2.06689,17.0878,48.6645,0.539747,0.0,0.0
260,64.75,163.559,199.98,145.066,99.2381,94.8397,0.122339,2.01092,17.1074,48.6645,0.385695,0.0,0.0
262,65.25,162.057,197.83,144.83,99.2048,94.9253,0.120514,1.96559,17.1561,48.6845,0.375156,0.0,0.0
264,65.75,161.45,195.356,148.283,99.1847,95.5059,0.117195,1.85531,17.2123,48.6745,0.321562,0.0,0.0
266,66.25,159.721,192.237,148.158,99.1478,96.5167,0.115538,1.82565,17.2478,48.6545,0.228825,0.0,0.0
268,66.75,157.859,189.663,149.836,99.0933,96.4687,0.112704,1.74967,17.3083,48.6444,0.228377,0.0,0.0
270,67.25,156.529,186.807,147.149,99.0768,95.5268,0.109126,1.66541,17.3574,48.6244,0.310437,0.0,0.0
272,67.75,155.15,184.603,146.443,99.0517,96.1721,0.105073,1.59716,17.3971,48.6444,0.250999,0.0,0.0
274,68.25,153.531,182.449,145.035,99.0085,96.429,0.10039,1.48706,17.4958,48.6344,0.224594,0.0,0.0
276,68.75,153.012,180.765,150.825,98.9798,95.5665,0.0991301,1.43773,17.5306,48.6044,0.298574,0.0,0.0
278,69.25,151.458,178.273,150.839,98.9492,95.343,0.0935433,1.35338,17.6216,48.6244,0.315857,0.0,0.0
280,69.75,150.612,175.984,145.163,98.8966,95.8442,0.089018,1.24814,17.7236,48.6244,0.266725,0.0,0.0
282,70.25,148.991,173.917,147.798,98.8609,95.7273,0.0829538,1.16289,17.8939,48.6144,0.274039,0.0,0.0
284,70.75,148.485,172.38,148.966,98.8511,95.9132,0.0759478,1.02054,18.0907,48.5944,0.256691,0.0,0.0
286,71.25,146.895,170.528,147.077,98.7949,95.9988,0.0727936,0.982253,18.1901,48.6144,0.244267,0.0,0.0
288,71.75,145.677,167.925,146.876,98.7604,96.335,0.0673998,0.887139,18.36,48.6244,0.211545,0.0,0.0
290,72.25,144.995,166.862,146.728,98.716,95.485,0.0612377,0.810097,18.5454,48.6044,0.283122,0.0,0.0
292,72.75,144.166,165.038,144.241,98.6854,95.579,0.0562464,0.736251,18.7386,48.6044,0.272113,0.0,0.0
294,73.25,142.509,163.922,145.375,98.6607,95.5957,0.0522034,0.666138,18.8951,48.6044,0.268494,0.0,0.0
296,73.75,142.244,161.722,145.046,98.6312,96.0677,0.0471873,0.609347,19.0546,48.6044,0.224052,0.0,0.0
298,74.25,140.934,159.948,145.382,98.5873,95.8985,0.0431242,0.546787,19.2131,48.5944,0.235253,0.0,0.0
300,74.75,139.594,159.09,152.369,98.5511,95.5268,0.0389144,0.496113,19.3709,48.6044,0.26518,0.0,0.0
302,75.25,138.926,157.556,150.776,98.5421,95.8192,0.0355045,0.450065,19.5251,48.5944,0.238401,0.0,0.0
304,75.75,137.55,155.653,150.602,98.4887,95.5184,0.0322389,0.408263,19.6676,48.6044,0.260535,0.0,0.0
306,76.25,137.125,154.48,154.111,98.4514,95.7127,0.0295939,0.371306,19.7987,48.5944,0.24003,0.0,0.0
308,76.75,136.444,152.491,152.198,98.4373,96.0197,0.0271987,0.338584,19.9224,48.6044,0.211563,0.0,0.0
310,77.25,135.838,151.746,150.813,98.4008,96.4687,0.0252586,0.30989,20.0383,48.6144,0.168716,0.0,0.0
312,77.75,134.52,150.543,151.975,98.3506,96.0092,0.0235685,0.284678,20.1322,48.5944,0.204987,0.0,0.0
314,78.25,133.804,148.76,150.411,98.3407,96.0092,0.0220928,0.264257,20.2273,48.6044,0.204138,0.0,0.0
316,78.75,133.125,147.756,147.367,98.2968,95.8777,0.0208047,0.244065,20.3044,48.6044,0.212001,0.0,0.0
318,79.25,132.261,146.77,147.196,98.2764,95.5602,0.0196776,0.227711,20.3774,48.5944,0.238449,0.0,0.0
320,79.75,131.602,144.979,150.566,98.2481,95.5936,0.0187647,0.211333,20.4366,48.5944,0.233027,0.0,0.0
322,80.25,130.413,143.967,148.672,98.2163,95.1864,0.0178931,0.198067,20.4845,48.5944,0.266595,0.0,0.0
324,80.75,129.652,143.169,153.343,98.2053,96.1805,0.0170681,0.185986,20.5309,48.6044,0.177252,0.0,0.0
326,81.25,129.361,141.472,147.972,98.1688,96.0552,0.0163999,0.174997,20.5684,48.5744,0.18518,0.0,0.0
328,81.75,128.133,140.421,148.777,98.1433,95.7106,0.0156446,0.166096,20.6023,48.5644,0.213544,0.0,0.0
330,82.25,127.447,139.48,149.109,98.1272,96.0155,0.0150328,0.156854,20.6329,48.5744,0.185088,0.0,0.0
332,82.75,126.296,138.796,145.992,98.117,95.6082,0.0143635,0.149368,20.6603,48.5644,0.220365,0.0,0.0
334,83.25,125.701,137.095,149.055,98.1017,95.0256,0.0138215,0.141741,20.6848,48.5644,0.271046,0.0,0.0
336,83.75,125.411,136.913,152.978,98.084,95.2511,0.0131931,0.135563,20.7074,48.5544,0.249344,0.0,0.0
338,84.25,124.6875,135.42,148.774,98.0679,94.942,0.0126842,0.129821,20.7282,48.5544,0.2756,0.0,0.0
340,84.75,123.888,134.444,150.473,98.0542,95.3806,0.0121049,0.124507,20.747,48.5544,0.235198,0.0,0.0
342,85.25,123.142,133.195,147.761,98.0412,96.7276,0.0116356,0.119551,20.7638,48.5544,0.114761,0.0,0.0
344,85.75,122.107,132.284,146.927,98.0243,95.5205,0.0111105,0.114949,20.7784,48.5544,0.220137,0.0,0.0
346,86.25,122.216,131.15,149.013,98.0192,95.0757,0.0106851,0.110602,20.7911,48.5443,0.259407,0.0,0.0
348,86.75,121.439,130.397,145.553,98.0079,95.249,0.0103405,0.106522,20.8013,48.5343,0.242921,0.0,0.0
350,87.25,120.733,129.873,150.022,98.0031,95.1049,0.0098609,0.103217,20.8108,48.5443,0.255395,0.0,0.0
352,87.75,119.69,128.326,145.142,97.9957,94.9337,0.00947243,0.0993372,20.8195,48.5343,0.27008,0.0,0.0
354,88.25,119.568,127.634,151.289,97.9984,94.564,0.00900902,0.0961942,20.8275,48.5143,0.303512,0.0,0.0
356,88.75,119.072,127.055,146.449,97.9988,95.1739,0.00863366,0.0930835,20.8349,48.5443,0.248857,0.0,0.0
358,89.25,118.541,126.087,148.888,97.9894,94.9504,0.00820981,0.0900556,20.8415,48.5243,0.268037,0.0,0.0
360,89.75,118.212,125.244,150.784,97.9961,95.0799,0.00786648,0.0871802,20.8475,48.5043,0.257023,0.0,0.0
362,90.25,117.602,124.313,148.471,97.9925,95.3535,0.00746282,0.0844707,20.8523,48.5243,0.232271,0.0,0.0
364,90.75,116.157,123.743,148.197,97.991,93.7997,0.00713585,0.082276,20.8563,48.5544,0.371912,0.0,0.0
366,91.25,115.809,123.081,150.818,98.0082,94.9608,0.00687101,0.0799063,20.8617,48.5243,0.268738,0.0,0.0
368,91.75,115.527,122.217,147.797,98.0059,94.6559,0.00654875,0.077454,20.8661,48.5343,0.295895,0.0,0.0
370,92.25,114.682,121.518,148.803,97.998,95.0861,0.00619077,0.0754677,20.8699,48.5143,0.256633,0.0,0.0
372,92.75,114.31,120.752,152.301,98.0161,94.9859,0.00567953,0.0721321,20.875,48.5143,0.267174,0.0,0.0
374,93.25,113.568,119.943,150.78,98.0236,94.3447,0.00552665,0.0712349,20.8768,48.5443,0.325444,0.0,0.0
376,93.75,113.212,119.273,149.233,98.031,95.2657,0.00526521,0.069112,20.8799,48.5544,0.243441,0.0,0.0
378,94.25,112.952,118.532,151.859,98.0506,94.1401,0.00499387,0.0673925,20.8824,48.5443,0.346271,0.0,0.0
380,94.75,112.106,118.047,148.932,98.0699,94.5557,0.00472046,0.0656756,20.8853,48.5443,0.310463,0.0,0.0
382,95.25,111.578,117.458,149.19,98.0546,94.0691,0.00446002,0.0639933,20.8877,48.5343,0.353031,0.0,0.0
384,95.75,111.498,116.744,153.118,98.0977,94.775,0.00421399,0.0624098,20.8909,48.5043,0.293173,0.0,0.0
386,96.25,110.577,116.048,148.602,98.095,94.6183,0.00397898,0.0609286,20.8935,48.5343,0.307007,0.0,0.0
388,96.75,110.059,115.619,149.094,98.137,95.1363,0.00375649,0.0595376,20.8965,48.5544,0.264205,0.0,0.0
390,97.25,109.63,114.364,146.398,98.1425,95.1133,0.00354571,0.0582389,20.899,48.5544,0.266736,0.0,0.0
392,97.75,108.893,114.196,149.731,98.1672,95.9675,0.00334748,0.0570327,20.9023,48.5544,0.192817,0.0,0.0
394,98.25,108.917,113.821,151.298,98.1778,96.0552,0.00318691,0.0559168,20.905,48.5744,0.185963,0.0,0.0
396,98.75,108.237,113.043,147.298,98.2073,96.0218,0.00298078,0.0550129,20.9071,48.5744,0.191474,0.0,0.0
398,99.25,107.963,112.621,148.759,98.2316,95.2073,0.00289291,0.054466,20.9081,48.5744,0.266056,0.0,0.0
400,99.75,107.552,112.07,151.204,98.2548,96.6754,0.00267878,0.0535309,20.9101,48.5544,0.137865,0.0,0.0
402,100.25,106.995,111.408,149.873,98.2677,95.1384,0.00250533,0.0527734,20.9122,48.5343,0.275343,0.0,0.0
404,100.75,106.537,110.826,146.904,98.2775,95.8421,0.00227076,0.0515999,20.9146,48.5143,0.213487,0.0,0.0
406,101.25,106.813,110.227,148.336,98.3172,96.1596,0.00218608,0.0512842,20.9155,48.5243,0.188785,0.0,0.0
408,101.75,105.89,110.164,151.453,98.3486,95.932,0.00204129,0.0505214,20.917,48.5544,0.211668,0.0,0.0
410,102.25,105.333,108.742,149.693,98.3678,95.744,0.00191263,0.0499036,20.9182,48.5644,0.230017,0.0,0.0
412,102.75,105.349,108.727,148.233,98.4028,96.076,0.00179817,0.0493224,20.9192,48.5744,0.203582,0.0,0.0
414,103.25,104.448,108.634,149.976,98.4326,95.5414,0.00169914,0.0487791,20.9202,48.5443,0.253638,0.0,0.0
416,103.75,104.046,108.297,151.127,98.4671,95.4349,0.00161323,0.0482731,20.9213,48.5544,0.266113,0.0,0.0
418,104.25,103.758,107.455,151.766,98.4895,95.9173,0.00154365,0.0478038,20.9223,48.5243,0.225146,0.0,0.0
420,104.75,103.663,107.384,154.413,98.5197,95.4913,0.00148729,0.0473796,20.9234,48.5243,0.265631,0.0,0.0
422,105.25,102.843,106.6,148.653,98.5594,95.8693,0.00144884,0.0469965,20.9243,48.5243,0.235442,0.0,0.0
424,105.75,102.852,105.685,149.169,98.5908,95.8129,0.00141769,0.0466422,20.925,48.5243,0.243158,0.0,0.0
426,106.25,102.179,105.486,151.695,98.6014,95.4767,0.00140328,0.0463157,20.9258,48.5544,0.273982,0.0,0.0
428,106.75,101.679,105.206,148.146,98.6406,95.0653,0.0013916,0.0460072,20.9267,48.5544,0.314109,0.0,0.0
430,107.25,101.679,104.548,148.467,98.6654,95.5226,0.00138214,0.0457178,20.9274,48.5644,0.275408,0.0,0.0
432,107.75,101.961,104.427,154.534,98.6878,95.698,0.00136127,0.0454834,20.928,48.5744,0.261728,0.0,0.0
434,108.25,100.425,104.037,149.389,98.698,96.4917,0.00134436,0.0452656,20.9284,48.5644,0.192344,0.0,0.0
436,108.75,100.816,103.651,151.644,98.7616,95.5539,0.00129946,0.0450892,20.9288,48.5343,0.280908,0.0,0.0
438,109.25,100.626,103.639,146.68,98.7773,95.0089,0.00126309,0.0449024,20.9291,48.5544,0.330931,0.0,0.0
440,109.75,99.9189,102.765,150.325,98.7902,95.153,0.00120965,0.0447116,20.9293,48.5544,0.319153,0.0,0.0
442,110.25,99.6431,102.632,145.932,98.82,95.3702,0.00114478,0.0445423,20.9295,48.5343,0.302323,0.0,0.0
444,110.75,99.3876,102.297,149.699,98.8491,95.4662,0.00107522,0.044392,20.9297,48.5343,0.296259,0.0,0.0
446,111.25,98.8282,102.087,151.24,98.8805,96.1638,0.00100355,0.0442703,20.9303,48.5443,0.237024,0.0,0.0
448,111.75,98.3549,101.584,149.98,98.9209,95.5122,0.000939204,0.0441717,20.9307,48.5243,0.298346,0.0,0.0
450,112.25,98.2656,100.584,147.952,98.9406,95.9132,0.000881413,0.0440918,20.9311,48.5243,0.26439,0.0,0.0
452,112.75,98.2782,100.648,149.393,98.9547,95.792,0.000838381,0.0439854,20.9314,48.5143,0.276357,0.0,0.0
454,113.25,97.7899,99.9323,150.031,99.0014,95.1885,0.000806927,0.0438991,20.9317,48.5544,0.334148,0.0,0.0
456,113.75,97.5347,99.8545,151.405,99.0085,95.7356,0.000781449,0.0438293,20.9319,48.5343,0.285989,0.0,0.0
458,114.25,97.3042,99.6445,151.998,99.0415,95.8066,0.000760812,0.0437508,20.932,48.5343,0.282515,0.0,0.0
460,114.75,96.7538,98.8728,147.308,99.0513,96.1157,0.0007567,0.0436674,20.9322,48.5343,0.255955,0.0,0.0
462,115.25,96.6005,99.1858,151.934,99.0736,95.4579,0.000764713,0.0435852,20.9322,48.5243,0.316307,0.0,0.0
464,115.75,95.9693,98.7761,148.523,99.0917,96.0364,0.000774986,0.0435054,20.9322,48.5544,0.266455,0.0,0.0
466,116.25,95.732,97.8085,149.391,99.1368,96.6733,0.000786713,0.0434115,20.9327,48.5744,0.214087,0.0,0.0
468,116.75,95.6596,97.6189,151.319,99.1302,95.9194,0.00079558,0.0433091,20.9331,48.5544,0.280124,0.0,0.0
470,117.25,95.4053,97.6828,149.147,99.1584,96.4603,0.000802195,0.0432115,20.9334,48.5644,0.234707,0.0,0.0
472,117.75,95.1794,97.1944,151.307,99.1733,95.8839,0.000806293,0.0431193,20.9337,48.5343,0.286979,0.0,0.0
474,118.25,94.887,97.3098,156.877,99.1875,95.6542,0.000808477,0.0430226,20.9339,48.5143,0.308599,0.0,0.0
476,118.75,94.5321,96.8978,150.018,99.2189,96.0134,0.000810876,0.0429245,20.934,48.5243,0.279403,0.0,0.0
478,119.25,94.288,96.5056,150.492,99.2232,95.7941,0.000813387,0.0428451,20.9342,48.5243,0.299227,0.0,0.0
480,119.75,94.2012,96.1813,149.343,99.2409,96.1157,0.000815422,0.0427656,20.9343,48.5143,0.272225,0.0,0.0
482,120.25,94.0536,96.0586,152.031,99.2523,96.5982,0.000826659,0.0427012,20.9344,48.5343,0.230604,0.0,0.0
484,120.75,93.8197,95.5139,150.919,99.2593,96.5042,0.000835761,0.042649,20.9344,48.5443,0.239491,0.0,0.0
486,121.25,93.166,95.2388,145.782,99.2809,96.5397,0.00085512,0.0426068,20.9345,48.5243,0.238212,0.0,0.0
488,121.75,93.1706,95.0218,149.614,99.286,96.7193,0.000881589,0.0425359,20.9344,48.5243,0.222835,0.0,0.0
490,122.25,92.5409,94.828,149.715,99.2809,96.5564,0.000903029,0.0424456,20.9343,48.5443,0.23674,0.0,0.0
492,122.75,92.5205,94.3587,152.141,99.2915,96.3893,0.000929989,0.0423725,20.9342,48.5443,0.252381,0.0,0.0
494,123.25,92.1375,94.0184,147.961,99.3056,96.1408,0.000951826,0.0423132,20.9342,48.5243,0.275558,0.0,0.0
496,123.75,91.733,94.1773,147.888,99.2935,96.8885,0.000971913,0.0422652,20.9341,48.5043,0.208608,0.0,0.0
498,124.25,91.7548,93.8485,149.909,99.3041,95.9361,0.000988184,0.0422681,20.9341,48.4743,0.293554,0.0,0.0
500,124.75,91.572,93.6555,152.003,99.3037,96.264,0.00100496,0.0422704,20.934,48.4843,0.264492,0.0,0.0
502,125.25,91.8069,93.1525,153.74,99.3037,95.7336,0.00101855,0.0423001,20.934,48.4643,0.311504,0.0,0.0
504,125.75,91.5148,93.1201,148.248,99.3025,96.6044,0.00103316,0.0423241,20.934,48.4743,0.234358,0.0,0.0
506,126.25,90.7807,93.2768,146.373,99.2864,96.0593,0.00104499,0.0423158,20.934,48.4843,0.28112,0.0,0.0
508,126.75,90.6029,92.1131,148.726,99.2837,96.0343,0.00105577,0.042309,20.9339,48.5043,0.283104,0.0,0.0
510,127.25,90.6084,92.7305,149.464,99.308,95.6834,0.00106451,0.0422889,20.9339,48.4943,0.316329,0.0,0.0
512,127.75,90.2673,91.8495,147.338,99.2778,96.9741,0.00107284,0.0422594,20.9339,48.5043,0.199747,0.0,0.0
514,128.25,90.2969,92.4587,150.476,99.2695,96.3371,0.00108073,0.0422356,20.9344,48.5143,0.255108,0.0,0.0
516,128.75,89.4571,91.8776,149.984,99.2562,95.6124,0.0010841,0.0421961,20.9345,48.5343,0.318205,0.0,0.0
518,129.25,89.8905,91.7884,147.921,99.2491,95.9111,0.00109105,0.0421286,20.9349,48.5443,0.291067,0.0,0.0
520,129.75,89.7707,91.1726,154.661,99.2322,95.8881,0.00109668,0.0420593,20.9351,48.5343,0.291658,0.0,0.0
522,130.25,89.0939,91.2799,147.606,99.2114,95.391,0.00108924,0.04199,20.9353,48.5343,0.33409,0.0,0.0
524,130.75,89.2579,90.7877,152.243,99.1875,95.9737,0.00107242,0.0419272,20.9355,48.4943,0.280227,0.0,0.0
526,131.25,89.6041,90.4497,146.694,99.1839,96.2703,0.00104366,0.0418704,20.9356,48.5043,0.253674,0.0,0.0
528,131.75,89.2473,90.1855,146.872,99.1741,96.3496,0.00100673,0.0418389,20.9359,48.5143,0.245822,0.0,0.0
530,132.25,88.9254,90.3922,147.976,99.1592,96.6399,0.000965477,0.0418267,20.9361,48.5143,0.218948,0.0,0.0
532,132.75,88.2733,90.2263,154.158,99.1231,96.4749,0.000921846,0.0418167,20.9363,48.5243,0.230385,0.0,0.0
534,133.25,88.0876,89.9277,149.37,99.107,95.4349,0.000878945,0.0418226,20.9365,48.5243,0.32122,0.0,0.0
536,133.75,87.8757,90.0463,150.769,99.1101,95.7691,0.00083739,0.0418273,20.9366,48.5143,0.291753,0.0,0.0
538,134.25,87.883,89.6336,149.428,99.1043,96.1387,0.00080373,0.0417616,20.9367,48.5243,0.258472,0.0,0.0
540,134.75,87.9682,89.9316,151.005,99.0854,95.8609,0.000777096,0.0417084,20.9367,48.5043,0.28147,0.0,0.0
542,135.25,87.7347,89.3988,149.18,99.0713,95.2824,0.00075609,0.0416653,20.9368,48.5143,0.331755,0.0,0.0
544,135.75,87.8752,89.3938,148.865,99.0638,96.2369,0.000744745,0.0416582,20.9369,48.5243,0.246318,0.0,0.0
546,136.25,87.6151,89.3085,149.992,99.0615,95.6897,0.000740659,0.0416524,20.9369,48.5143,0.294626,0.0,0.0
548,136.75,87.175,89.2299,149.209,99.0513,96.1638,0.000737349,0.0416478,20.9369,48.5043,0.251704,0.0,0.0
550,137.25,86.7385,88.475,148.912,99.0195,96.4165,0.000736559,0.0416718,20.937,48.5143,0.226645,0.0,0.0
552,137.75,86.9825,88.4105,152.292,99.0026,95.6772,0.000737621,0.0416913,20.9369,48.5143,0.290681,0.0,0.0
554,138.25,86.9062,88.5105,148.479,98.9896,96.287,0.00072714,0.0417488,20.9368,48.5043,0.235514,0.0,0.0
556,138.75,86.5853,89.0048,150.17,98.9818,96.074,0.000708444,0.0417954,20.9367,48.4943,0.253682,0.0,0.0
558,139.25,86.5407,88.1246,153.741,98.968,96.0969,0.0006933,0.0418192,20.9366,48.5143,0.250467,0.0,0.0
560,139.75,85.9944,87.677,145.557,98.9508,95.7962,0.000660696,0.0418385,20.9366,48.5443,0.275648,0.0,0.0
562,140.25,86.492,87.6573,149.657,98.9225,95.8129,0.000634286,0.0418541,20.9366,48.5243,0.271735,0.0,0.0
564,140.75,85.8677,88.0499,147.921,98.9162,96.0343,0.000602132,0.0418668,20.9365,48.5043,0.251559,0.0,0.0
566,141.25,86.0606,87.6624,153.207,98.8664,96.3058,0.000576087,0.0418843,20.9365,48.5343,0.223253,0.0,0.0
568,141.75,85.5539,87.3969,147.6,98.8746,95.6625,0.00055499,0.0419052,20.9365,48.5143,0.280977,0.0,0.0
570,142.25,85.7457,86.9568,149.074,98.8515,96.2619,0.000535511,0.041922,20.9365,48.5343,0.225844,0.0,0.0
572,142.75,85.2003,86.7923,152.146,98.853,95.1968,0.000519733,0.0419635,20.9365,48.5544,0.32064,0.0,0.0
574,143.25,85.6469,86.9286,149.136,98.8114,95.602,0.000514505,0.0419971,20.9365,48.5544,0.280925,0.0,0.0
576,143.75,85.5327,87.1627,150.67,98.8149,96.2786,0.000517067,0.0420097,20.9365,48.4943,0.221225,0.0,0.0
578,144.25,84.9282,86.1029,151.18,98.8122,95.4662,0.000527328,0.0420067,20.9364,48.5143,0.293081,0.0,0.0
580,144.75,84.867,86.2152,149.287,98.7961,95.6688,0.000543006,0.0419823,20.9364,48.4943,0.273662,0.0,0.0
582,145.25,84.3113,86.4476,148.387,98.8059,96.2577,0.000571891,0.0419259,20.9364,48.5043,0.222293,0.0,0.0
584,145.75,84.8155,85.808,153.89,98.8043,95.2699,0.000589873,0.0418752,20.9364,48.5243,0.309919,0.0,0.0
586,146.25,84.2821,85.9569,149.595,98.782,95.318,0.00060803,0.0418143,20.9364,48.5544,0.303704,0.0,0.0
588,146.75,84.3489,85.6195,152.032,98.7883,96.1199,0.00061577,0.0417883,20.9364,48.5243,0.232963,0.0,0.0
590,147.25,83.8653,85.7404,148.774,98.7553,95.4516,0.000623967,0.0417439,20.9364,48.5243,0.289483,0.0,0.0
592,147.75,83.9922,85.7143,148.833,98.7773,95.6103,0.00062607,0.041708,20.9364,48.5243,0.277241,0.0,0.0
594,148.25,83.9147,85.2796,150.589,98.8361,96.1679,0.000627775,0.0416928,20.9364,48.5143,0.232836,0.0,0.0
596,148.75,83.4739,85.3846,149.406,98.8978,95.9549,0.000615932,0.0416804,20.9364,48.5544,0.257007,0.0,0.0
598,149.25,83.2618,84.6624,150.212,98.9586,95.7085,0.00059444,0.0416778,20.9364,48.5644,0.284118,0.0,0.0
600,149.75,83.4622,85.2184,150.93,98.9798,96.2348,0.000573884,0.0416822,20.9364,48.5343,0.239285,0.0,0.0
602,150.25,83.1362,84.8927,151.908,99.0497,96.312,0.000554402,0.0416858,20.9364,48.5143,0.23846,0.0,0.0
604,150.75,83.1889,84.6278,151.234,99.1101,96.0176,0.000538622,0.0416621,20.9364,48.5143,0.269703,0.0,0.0
606,151.25,82.8916,84.7733,148.712,99.1572,96.5668,0.00054497,0.041643,20.9364,48.5143,0.225216,0.0,0.0
608,151.75,83.3319,84.5457,151.195,99.1788,96.0426,0.000550112,0.0416274,20.9364,48.5043,0.273378,0.0,0.0
610,152.25,82.7786,84.6972,151.038,99.2236,96.3998,0.000573423,0.0416149,20.9365,48.4843,0.245639,0.0,0.0
612,152.75,82.9427,84.3935,153.338,99.2754,96.1366,0.000592306,0.0416047,20.9367,48.5043,0.273337,0.0,0.0
614,153.25,82.8577,84.363,149.624,99.3052,96.5063,0.000614783,0.0415964,20.9368,48.4943,0.243243,0.0,0.0
616,153.75,82.1546,83.9516,151.118,99.3394,95.8985,0.00063299,0.0415605,20.9369,48.5043,0.299914,0.0,0.0
618,154.25,82.2951,84.1097,148.758,99.3653,95.8839,0.000650132,0.041505,20.9372,48.5343,0.30343,0.0,0.0
620,154.75,81.7696,83.6199,148.95,99.3955,96.7339,0.000664017,0.0414527,20.9376,48.5343,0.230929,0.0,0.0
622,155.25,81.863,83.9472,149.696,99.4419,95.5686,0.000675264,0.0414038,20.938,48.5043,0.338009,0.0,0.0
624,155.75,82.1672,83.5229,147.033,99.4638,96.7256,0.000692757,0.0413642,20.9383,48.5143,0.237509,0.0,0.0
626,156.25,81.4522,84.0327,150.502,99.4854,95.5038,0.000706926,0.041346,20.9386,48.5443,0.347502,0.0,0.0
628,156.75,81.7221,83.2237,148.256,99.509,96.0176,0.000721995,0.0413313,20.9388,48.5243,0.303871,0.0,0.0
630,157.25,81.8588,83.0395,150.931,99.5455,96.2285,0.000734201,0.0413047,20.9389,48.5143,0.288323,0.0,0.0
632,157.75,81.9554,83.3303,150.863,99.5427,96.4812,0.000746484,0.04127,20.9391,48.4843,0.265775,0.0,0.0
634,158.25,81.797,83.322,146.842,99.5781,96.6733,0.000756433,0.04122,20.9392,48.4443,0.251868,0.0,0.0
636,158.75,81.2996,83.1164,151.213,99.5879,95.98,0.000760899,0.0411597,20.9392,48.4242,0.313946,0.0,0.0
638,159.25,80.9504,83.1782,146.833,99.593,96.1345,0.000764516,0.0411108,20.9393,48.4242,0.300695,0.0,0.0
640,159.75,81.3979,83.3236,148.583,99.5989,96.335,0.000767446,0.0410859,20.9394,48.4242,0.283473,0.0,0.0
642,160.25,81.0032,82.6584,152.519,99.6244,96.4018,0.000767928,0.0410789,20.9394,48.4242,0.279752,0.0,0.0
644,160.75,80.8741,82.1613,149.796,99.6173,96.8404,0.000766617,0.0410732,20.9386,48.4443,0.240531,0.0,0.0
646,161.25,80.5405,82.679,152.32,99.6421,96.4311,0.000765554,0.0410522,20.9379,48.4443,0.278681,0.0,0.0
648,161.75,80.6818,82.2843,150.895,99.6432,96.1053,0.0007671,0.0410352,20.9374,48.4643,0.307573,0.0,0.0
650,162.25,80.5926,82.6795,151.829,99.6373,96.7673,0.000768352,0.0410141,20.937,48.4443,0.248664,0.0,0.0
652,162.75,81.0699,82.3762,152.212,99.6185,96.4311,0.000777561,0.0409905,20.9366,48.4242,0.276669,0.0,0.0
654,163.25,80.5355,82.5253,150.112,99.6444,95.698,0.000792397,0.0409713,20.936,48.4242,0.343803,0.0,0.0
656,163.75,80.5553,82.4141,152.51,99.6126,96.7047,0.000804415,0.0409836,20.9355,48.4543,0.252063,0.0,0.0
658,164.25,80.3752,81.8675,153.205,99.6161,95.6479,0.000823735,0.0409935,20.9351,48.4443,0.345846,0.0,0.0
660,164.75,80.1621,81.9785,151.19,99.6016,95.9737,0.000839385,0.0410294,20.9348,48.4643,0.315676,0.0,0.0
662,165.25,80.2362,82.0275,151.109,99.5875,96.5272,0.000854458,0.0410585,20.9345,48.4643,0.265549,0.0,0.0
664,165.75,80.2058,81.8764,153.691,99.5522,95.8589,0.000866667,0.0410681,20.9343,48.4643,0.321638,0.0,0.0
666,166.25,80.0525,81.9928,150.932,99.5596,96.9448,0.000868168,0.0410759,20.9341,48.4743,0.226432,0.0,0.0
668,166.75,80.2382,81.8705,149.421,99.5286,96.9657,0.000869383,0.0410456,20.934,48.4843,0.221949,0.0,0.0
670,167.25,80.0401,81.4074,149.902,99.4905,96.0468,0.000855992,0.0409882,20.9339,48.4843,0.299704,0.0,0.0
672,167.75,79.5839,81.8412,150.99,99.4878,96.9407,0.000845145,0.0409694,20.9338,48.4643,0.220658,0.0,0.0
674,168.25,79.8962,81.816,150.996,99.4493,96.4917,0.000829173,0.0409543,20.9337,48.4743,0.256865,0.0,0.0
676,168.75,78.9896,81.3655,147.142,99.4277,96.4206,0.000816236,0.0409639,20.9336,48.4943,0.261281,0.0,0.0
678,169.25,79.8135,81.7186,152.199,99.3873,97.1934,0.000805757,0.0409915,20.9336,48.5043,0.189911,0.0,0.0
680,169.75,79.4741,81.599,154.774,99.3437,97.2435,0.000800861,0.0410139,20.9335,48.5143,0.181794,0.0,0.0
682,170.25,79.4789,80.6375,148.366,99.2954,97.302,0.000801309,0.0410042,20.9335,48.5243,0.172542,0.0,0.0
684,170.75,79.473,81.3004,149.114,99.2703,96.1721,0.000805643,0.0409963,20.9335,48.4843,0.269758,0.0,0.0
686,171.25,79.2606,81.0793,149.803,99.2495,95.5999,0.000809154,0.0409621,20.9335,48.4843,0.318749,0.0,0.0
688,171.75,79.3879,81.0754,149.992,99.1871,96.1805,0.000825173,0.0409344,20.9334,48.5143,0.261884,0.0,0.0
690,172.25,79.1804,81.2128,155.065,99.1423,96.3246,0.000838148,0.0408993,20.9334,48.5343,0.245307,0.0,0.0
692,172.75,79.0405,81.0215,148.311,99.1251,95.9403,0.000858245,0.0408709,20.9335,48.5343,0.277833,0.0,0.0
694,173.25,79.1492,80.8678,153.078,99.1031,95.6542,0.000874525,0.0408201,20.9336,48.5544,0.301356,0.0,0.0
696,173.75,79.3861,80.7686,152.651,99.14,95.295,0.00088891,0.0407789,20.9338,48.5443,0.336533,0.0,0.0
698,174.25,78.7114,80.9152,153.47,99.1541,96.0886,0.000900562,0.0407602,20.9338,48.5143,0.267187,0.0,0.0
700,174.75,78.7969,80.5438,151.069,99.173,96.028,0.000907476,0.0407582,20.9339,48.5143,0.274168,0.0,0.0
702,175.25,78.4779,80.377,149.52,99.1989,95.8254,0.000910806,0.0407566,20.934,48.5043,0.294357,0.0,0.0
704,175.75,78.8719,80.4671,152.732,99.2067,96.4687,0.000913503,0.040797,20.934,48.4943,0.238113,0.0,0.0
706,176.25,78.2721,80.2686,145.114,99.2256,95.8254,0.000910011,0.0408297,20.9341,48.4943,0.296646,0.0,0.0
708,176.75,78.2119,79.6853,148.076,99.255,96.3162,0.000902073,0.0408489,20.9341,48.5143,0.255708,0.0,0.0
710,177.25,78.2193,80.3146,150.531,99.2738,96.3434,0.000890851,0.0408579,20.9344,48.5043,0.254925,0.0,0.0
712,177.75,78.0567,80.3099,151.844,99.2888,96.0886,0.000881761,0.0408651,20.9348,48.5143,0.278733,0.0,0.0
714,178.25,78.7153,79.8787,152.733,99.3174,95.9194,0.000873768,0.040871,20.9351,48.5143,0.296179,0.0,0.0
716,178.75,78.4105,80.1534,153.955,99.3622,96.5084,0.000866726,0.0408611,20.9354,48.5143,0.247934,0.0,0.0
718,179.25,78.1455,79.902,148.676,99.3575,96.2181,0.000861652,0.04084,20.9356,48.5043,0.27316,0.0,0.0
720,179.75,77.9821,79.895,151.788,99.3826,95.5915,0.00085811,0.0408082,20.9358,48.5243,0.330891,0.0,0.0
722,180.25,78.0146,79.9186,143.478,99.4018,95.815,0.000857133,0.0407693,20.9357,48.5143,0.312673,0.0,0.0
724,180.75,77.9934,79.7382,149.428,99.4623,96.0176,0.000858044,0.0407451,20.9354,48.5243,0.299876,0.0,0.0
726,181.25,77.994,79.9865,151.507,99.4654,95.8046,0.000857521,0.040732,20.9352,48.4943,0.319042,0.0,0.0
728,181.75,78.0163,79.2657,154.35,99.4909,96.3893,0.000855961,0.0407215,20.935,48.4643,0.269451,0.0,0.0
730,182.25,77.64,79.7287,150.407,99.5027,96.6525,0.000854698,0.040713,20.9349,48.4543,0.247265,0.0,0.0
732,182.75,77.9519,79.4579,146.568,99.5321,96.1345,0.000853675,0.0407207,20.9347,48.4743,0.295495,0.0,0.0
734,183.25,77.7644,79.3709,151.844,99.5616,96.6357,0.000840239,0.0407401,20.9347,48.4643,0.253768,0.0,0.0
736,183.75,77.8742,79.364,147.617,99.5981,96.312,0.000818009,0.0407558,20.9352,48.4643,0.285435,0.0,0.0
738,184.25,77.3493,79.6108,150.463,99.6287,97.5192,0.000800003,0.0407825,20.9356,48.4743,0.182081,0.0,0.0
740,184.75,77.5515,79.7155,153.234,99.6401,96.3705,0.00076554,0.0408133,20.9361,48.4643,0.283859,0.0,0.0
742,185.25,77.5807,79.2197,148.741,99.679,96.2306,0.000756269,0.0408142,20.9362,48.4743,0.299537,0.0,0.0
744,185.75,77.0267,79.2916,153.773,99.6923,95.7711,0.000737267,0.0408159,20.9365,48.4643,0.341395,0.0,0.0
746,186.25,77.5341,79.4828,149.225,99.7159,96.0197,0.00071904,0.0408099,20.9366,48.5143,0.321356,0.0,0.0