File: 01_Data/Latex_Pillow_Foam/Cone/Latex_Pillow_Foam_Cone_HF25Scan_230628_R2.csv
Names,Time,Stack TC,Smoke TC,Exh Press,Smoke Comp,Smoke Meas,CO Meter,CO2 Meter,O2 Meter,Sample Mass,Ext Coeff,Start Test,Flame Verif
Chan Gain,,500,500,1,1,1,1,1,1,1,1,1.0,1.0
Offset,,0,0,0.13804,0,0,0,0,0,0,0,0.0,0.0
Gain,,1,1,25.011,12.9079,45.9809,1,1,1,1.00091,0.969894,1.0,1.0
Units,sec,C,C,Pa,%,%,%,%,%,g,/m,,
Baseline,,42.6428,43.904,160.639,99.5328,99.5745,0.000813367,0.0484519,20.9381,-443.106,-0.00352703,,
3,0.5,41.6073,41.9973,161.794,99.7884,99.8213,0.000392034,0.0481674,20.9383,72.186,-0.00280781,1.0,0.0
6,1.25,41.2556,42.002,159.675,99.838,99.8788,0.000371595,0.0482024,20.9383,72.226,-0.00347946,1.0,0.0
9,2,41.077,42.332,155.442,99.8927,100.008,0.000369035,0.0483394,20.9383,72.226,-0.00980447,0.0,0.0
12,2.75,41.4553,42.264,159.017,99.9605,99.9743,0.000386529,0.0485676,20.9383,72.206,-0.00116998,0.0,0.0
15,3.5,40.9241,41.8702,161.557,99.9853,99.1169,0.000432771,0.048872,20.9383,72.186,0.074219,0.0,0.0
18,4.25,41.6008,42.0745,161.055,100.033,98.745,0.0004984,0.0493526,20.9383,72.196,0.110286,0.0,0.0
21,5,41.474,42.2233,161.831,100.1,97.6491,0.000576412,0.0498146,20.9377,72.186,0.210932,0.0,0.0
24,5.75,41.4963,42.6566,156.609,100.133,97.8161,0.000665751,0.0501769,20.9368,72.186,0.19914,0.0,0.0
27,6.5,41.3675,42.2387,159.172,100.167,97.7824,0.000733276,0.0504034,20.9359,72.186,0.205015,0.0,0.0
30,7.25,41.3513,42.559,169.617,100.206,97.7122,0.000783524,0.0505464,20.9353,72.186,0.214367,0.0,0.0
33,8,41.2105,42.4868,162.18,100.262,97.7445,0.000816554,0.0506131,20.9349,72.1659,0.216371,0.0,0.0
36,8.75,41.6675,42.5111,160.245,100.298,97.6351,0.000839098,0.0506634,20.9345,72.1559,0.228945,0.0,0.0
39,9.5,41.8304,42.6845,161.923,100.33,97.6856,0.00086408,0.0506928,20.9345,72.1359,0.22725,0.0,0.0
42,10.25,41.7081,42.5517,159.363,100.367,97.3067,0.000887088,0.0507017,20.9342,72.1359,0.263451,0.0,0.0
45,11,41.7453,43.1124,160.689,100.417,97.9059,0.000905273,0.0506286,20.9339,72.1259,0.215463,0.0,0.0
48,11.75,41.7879,43.0879,159.238,100.453,97.7066,0.000914297,0.0505545,20.9341,72.0558,0.235832,0.0,0.0
51,12.5,42.0895,42.601,158.503,100.482,99.0986,0.000915127,0.050407,20.9342,72.0058,0.117914,0.0,1.0
54,13.25,41.9548,42.786,150.276,100.512,94.6658,0.000906499,0.0502745,20.934,71.9658,0.509788,0.0,1.0
57,14,41.951,43.5216,147.782,100.526,80.8314,0.000896122,0.0501639,20.9335,71.9557,1.85515,0.0,1.0
60,14.75,42.3302,44.8185,144.321,100.565,75.5904,0.000898813,0.0500773,20.9332,71.7556,2.42879,0.0,1.0
63,15.5,42.6845,46.1561,146.139,100.601,66.2996,0.000911501,0.0499147,20.9329,71.6955,3.54755,0.0,1.0
66,16.25,43.4855,47.3612,138.488,100.609,64.2509,0.000939093,0.0497265,20.9327,71.6154,3.8153,0.0,1.0
69,17,44.5303,49.5987,140.642,100.633,61.5862,0.00100199,0.0495669,20.9321,71.5053,4.17767,0.0,1.0
72,17.75,44.9739,50.7368,134.151,100.661,63.2266,0.00108722,0.049463,20.9315,71.4152,3.95643,0.0,1.0
75,18.5,45.5855,53.4236,132.559,100.698,56.7254,0.00116517,0.0495256,20.9311,71.2951,4.88267,0.0,1.0
78,19.25,47.2133,54.7194,137.445,100.686,56.6286,0.00124904,0.0496301,20.9308,71.175,4.89621,0.0,0.0
81,20,48.1162,57.0035,134.006,100.716,58.0809,0.00135107,0.0531965,20.9305,71.0849,4.68332,0.0,0.0
84,20.75,49.2329,58.6241,134.728,100.725,57.2208,0.00144288,0.0557965,20.9297,70.9748,4.81097,0.0,0.0
87,21.5,49.6482,60.5622,141.535,100.731,57.9631,0.00150982,0.0735384,20.9289,70.8747,4.70181,0.0,0.0
90,22.25,51.0175,62.908,130.547,100.738,56.5528,0.00190826,0.102197,20.9291,70.7346,4.91203,0.0,0.0
93,23,52.1218,63.7714,133.136,100.742,57.9827,0.0025029,0.138426,20.9275,70.6345,4.69992,0.0,0.0
96,23.75,53.1117,65.4052,144.101,100.739,60.2054,0.0033009,0.1806,20.9228,70.5545,4.37961,0.0,0.0
99,24.5,53.6618,67.0511,129.773,100.756,62.9193,0.00428419,0.232273,20.8936,70.4344,4.0059,0.0,0.0
102,25.25,54.5693,68.4588,142.009,100.741,58.6815,0.00575578,0.282142,20.8273,70.3743,4.59786,0.0,0.0
105,26,55.8248,69.906,129.357,100.756,59.936,0.00743763,0.328998,20.7444,70.2342,4.41916,0.0,0.0
108,26.75,56.5102,71.4661,135.844,100.738,57.0047,0.00925848,0.377395,20.6573,70.1341,4.84429,0.0,0.0
111,27.5,57.6286,72.6895,131.201,100.738,58.196,0.0111589,0.417295,20.5599,70.064,4.66835,0.0,0.0
114,28.25,58.7464,74.3261,135.641,100.762,55.1945,0.0128904,0.454279,20.4889,69.9139,5.12083,0.0,0.0
117,29,59.3772,75.379,127.637,100.747,51.4507,0.0147444,0.484177,20.4107,69.7437,5.71715,0.0,0.0
120,29.75,60.3626,76.5629,137.536,100.743,54.9026,0.016446,0.510994,20.3456,69.5836,5.16434,0.0,0.0
123,30.5,61.231,77.6049,134.766,100.742,58.5875,0.0178356,0.533876,20.2843,69.4835,4.61157,0.0,0.0
126,31.25,61.4388,78.5963,132.637,100.733,61.6086,0.0192244,0.553301,20.2207,69.3634,4.18309,0.0,0.0
129,32,62.0996,79.7047,128.046,100.715,56.6861,0.0204389,0.569725,20.1695,69.2032,4.89,0.0,0.0
132,32.75,62.5328,80.3776,131.212,100.706,62.0156,0.0214932,0.584314,20.1213,69.1432,4.12479,0.0,0.0
135,33.5,63.7085,81.8553,133.901,100.697,56.6412,0.0224032,0.597078,20.0818,69.1031,4.89524,0.0,0.0
138,34.25,64.5928,81.5928,133.21,100.693,60.3022,0.0232512,0.60729,20.0467,68.983,4.36201,0.0,0.0
141,35,64.9202,82.7331,134.317,100.688,56.6061,0.0239628,0.617878,20.0211,68.9029,4.89978,0.0,0.0
144,35.75,65.6779,83.2316,133.792,100.685,56.2553,0.024641,0.626582,19.9987,68.7528,4.95237,0.0,0.0
147,36.5,66.1708,83.9368,139.887,100.659,57.0889,0.0253428,0.634613,19.9801,68.6627,4.82504,0.0,0.0
150,37.25,66.5296,84.4043,132.281,100.645,51.2991,0.0259838,0.641575,19.9606,68.5126,5.73363,0.0,0.0
153,38,67.1961,84.9881,132.608,100.636,52.44,0.026556,0.646876,19.9433,68.4325,5.54577,0.0,0.0
156,38.75,68.0028,85.9947,135.402,100.62,54.302,0.0270579,0.650901,19.9267,68.3124,5.24757,0.0,0.0
159,39.5,68.292,86.7761,133.861,100.607,56.5809,0.02748,0.653946,19.9129,68.2223,4.89669,0.0,0.0
162,40.25,68.9152,86.6463,132.951,100.613,58.6478,0.0278115,0.655347,19.9022,68.0422,4.59193,0.0,0.0
165,41,69.1547,87.0808,133.946,100.6,58.7489,0.0280474,0.656019,19.8944,68.0021,4.57619,0.0,0.0
168,41.75,69.9627,87.0571,131.781,100.576,52.4301,0.0282064,0.654648,19.8888,67.872,5.54226,0.0,0.0
171,42.5,70.1142,88.1243,133.382,100.567,54.4789,0.0283001,0.653099,19.8846,67.7519,5.21542,0.0,0.0
174,43.25,70.4943,88.4661,131.25,100.546,53.3479,0.0283762,0.651736,19.8816,67.6118,5.39214,0.0,0.0
177,44,71.2112,88.8706,132.224,100.532,53.6874,0.0284317,0.651031,19.8832,67.5117,5.33695,0.0,0.0
180,44.75,71.5975,89.5636,126.692,100.513,51.918,0.0285695,0.651011,19.8852,67.4416,5.62048,0.0,0.0
183,45.5,72.0215,90.3882,126.391,100.51,53.1528,0.028843,0.651583,19.889,67.3115,5.4202,0.0,0.0
186,46.25,72.8316,91.232,136.076,100.5,57.0005,0.0290802,0.65092,19.891,67.2014,4.8248,0.0,0.0
189,47,73.6292,91.6867,130.856,100.485,55.6225,0.0293151,0.649079,19.8924,67.0312,5.0317,0.0,0.0
192,47.75,73.6609,91.534,126.391,100.475,51.0648,0.0295335,0.647157,19.8934,66.9111,5.75818,0.0,0.0
195,48.5,74.3036,92.9761,128.22,100.471,49.83,0.0296927,0.644775,19.8942,66.8311,5.96611,0.0,0.0
198,49.25,74.5873,93.5672,126.784,100.453,49.9366,0.0298501,0.643039,19.8947,66.6709,5.94639,0.0,0.0
201,50,75.072,94.3599,126.361,100.462,51.048,0.0300048,0.644084,19.8951,66.5508,5.75996,0.0,0.0
204,50.75,75.9311,94.9323,129.73,100.443,53.07,0.0301859,0.646445,19.8942,66.4707,5.42779,0.0,0.0
207,51.5,76.3977,95.5832,129.786,100.431,48.807,0.0304836,0.650902,19.8935,66.3606,6.13922,0.0,0.0
210,52.25,77.0615,96.2035,123.956,100.437,51.1153,0.0308465,0.659388,19.8927,66.2505,5.74657,0.0,0.0
213,53,77.4108,97.1075,125.115,100.433,50.7322,0.0312566,0.669856,19.8918,66.1104,5.81024,0.0,0.0
216,53.75,77.9219,97.8735,132.849,100.412,54.302,0.0316985,0.678999,19.8829,65.9703,5.2299,0.0,0.0
219,54.5,78.7087,98.5615,130.438,100.424,50.735,0.032218,0.686309,19.8677,65.8401,5.809,0.0,0.0
222,55.25,79.306,99.3118,134.377,100.416,54.7469,0.0325967,0.693865,19.8528,65.71,5.16089,0.0,0.0
225,56,79.9768,99.5475,121.514,100.409,52.7136,0.0331068,0.700626,19.8357,65.6099,5.48225,0.0,0.0
228,56.75,80.1567,100.455,137.79,100.398,56.8812,0.0335983,0.707694,19.8229,65.3597,4.83398,0.0,0.0
231,57.5,80.7951,100.684,118.429,100.394,49.858,0.0340692,0.714614,19.8126,65.3397,5.95485,0.0,0.0
234,58.25,81.1467,101.076,130.727,100.402,51.4381,0.0343837,0.718783,19.8064,65.1695,5.69012,0.0,0.0
237,59,81.4984,102.271,129.562,100.389,48.8519,0.0348904,0.725498,19.7919,65.0995,6.12789,0.0,0.0
240,59.75,82.0175,102.181,126.549,100.395,50.0503,0.0353306,0.732255,19.778,64.9594,5.92214,0.0,0.0
243,60.5,82.4949,102.774,126.9,100.402,47.3827,0.0357728,0.73844,19.7667,64.8092,6.38878,0.0,0.0
246,61.25,83.4411,103.927,134.225,100.388,49.8959,0.0362404,0.745102,19.7573,64.6691,5.94789,0.0,0.0
249,62,83.8483,104.482,125.314,100.378,51.1546,0.0366432,0.750175,19.7499,64.4889,5.73506,0.0,0.0
252,62.75,84.045,104.684,120.114,100.38,45.5796,0.0370833,0.753967,19.7397,64.4088,6.717,0.0,0.0
255,63.5,84.9486,105.662,123.134,100.386,52.2028,0.0374185,0.756825,19.7286,64.2187,5.56315,0.0,0.0
258,64.25,85.6396,106.612,123.242,100.378,50.9315,0.0376689,0.75954,19.7177,64.1686,5.77221,0.0,0.0
261,65,86.1782,107.401,124.708,100.377,52.9928,0.037825,0.762423,19.7097,63.9785,5.43463,0.0,0.0
264,65.75,86.7401,108.176,119.253,100.391,49.2041,0.0379259,0.765608,19.7039,63.8183,6.0669,0.0,0.0
267,66.5,87.1237,108.969,124.498,100.388,52.5957,0.037994,0.769226,19.6979,63.6882,5.49956,0.0,0.0
270,67.25,87.8733,109.518,122.72,100.391,50.5961,0.0380793,0.774081,19.6932,63.5881,5.82959,0.0,0.0
273,68,88.57,110.222,133.907,100.396,51.9544,0.0381989,0.781129,19.6905,63.508,5.60457,0.0,0.0
276,68.75,88.9843,110.282,129.022,100.393,50.1443,0.0383582,0.787761,19.6854,63.3479,5.90601,0.0,0.0
279,69.5,89.1901,111.122,125.713,100.402,48.4281,0.0386292,0.795148,19.6795,63.2378,6.20308,0.0,0.0
282,70.25,89.9548,111.624,138.452,100.412,51.2276,0.0388927,0.804392,19.6717,63.0376,5.72584,0.0,0.0
285,71,90.0353,111.98,132.228,100.398,54.1856,0.0392848,0.812776,19.6603,62.9675,5.247,0.0,0.0
288,71.75,90.4197,112.453,129.097,100.402,52.0737,0.0397107,0.823235,19.6495,62.8374,5.58559,0.0,0.0
291,72.5,90.9179,112.38,133.048,100.43,54.469,0.0401148,0.831694,19.6364,62.6773,5.20538,0.0,0.0
294,73.25,91.4265,112.432,125.233,100.417,54.8521,0.0404485,0.839575,19.6202,62.6072,5.14465,0.0,0.0
297,74,92.0356,113.089,132.434,100.424,49.6518,0.0406543,0.845818,19.6029,62.4671,5.99263,0.0,0.0
300,74.75,91.9447,113.36,129.847,100.436,51.2388,0.0407502,0.850238,19.5854,62.367,5.72601,0.0,0.0
303,75.5,92.3096,113.303,132.847,100.436,57.2811,0.0407564,0.853935,19.5677,62.2068,4.77761,0.0,0.0
306,76.25,92.8377,113.872,131.375,100.439,53.1921,0.0406543,0.855597,19.5585,62.0967,5.40794,0.0,0.0
309,77,92.7318,114.337,125.41,100.457,54.7314,0.0405047,0.855596,19.5518,61.9966,5.16673,0.0,0.0
312,77.75,93.144,114.125,128.258,100.462,53.4994,0.0403439,0.854039,19.547,61.8765,5.3609,0.0,0.0
315,78.5,93.5062,114.952,118.298,100.463,53.8292,0.0401384,0.852239,19.5443,61.7364,5.30869,0.0,0.0
318,79.25,93.9814,115.091,127.262,100.46,53.8502,0.0399471,0.848102,19.543,61.6363,5.30509,0.0,0.0
321,80,94.295,114.837,127.75,100.477,52.3319,0.0397898,0.843454,19.5424,61.5562,5.54988,0.0,0.0
324,80.75,94.7265,115.312,127.507,100.487,54.8605,0.0396076,0.83937,19.5455,61.4562,5.14925,0.0,0.0
327,81.5,94.7616,115.36,129.115,100.482,57.0159,0.0394575,0.834109,19.5493,61.336,4.82096,0.0,0.0
330,82.25,94.9378,115.64,128.783,100.492,54.8633,0.0393183,0.82979,19.557,61.2159,5.14918,0.0,0.0
333,83,95.2708,115.562,127.993,100.511,51.25,0.0391936,0.825812,19.5643,61.0458,5.73045,0.0,0.0
336,83.75,95.5414,115.53,131.244,100.506,53.1065,0.0390627,0.823024,19.5724,60.9557,5.42731,0.0,0.0
339,84.5,95.6122,115.314,134.478,100.505,53.0363,0.038902,0.821548,19.5805,60.8656,5.43846,0.0,0.0
342,85.25,95.2077,115.071,134.707,100.517,54.9686,0.0387376,0.821342,19.5874,60.7655,5.13505,0.0,0.0
345,86,95.7016,115.201,128.022,100.533,54.9461,0.0385707,0.820903,19.5924,60.6454,5.13986,0.0,0.0
348,86.75,95.9701,114.853,132.343,100.541,57.5996,0.0383668,0.818385,19.596,60.5453,4.73927,0.0,0.0
351,87.5,95.7444,114.929,130.473,100.546,56.783,0.0381566,0.814138,19.5993,60.4352,4.86119,0.0,0.0
354,88.25,95.6465,114.793,128.263,100.564,55.948,0.0379222,0.808518,19.6017,60.3051,4.98872,0.0,0.0
357,89,96.3758,114.896,132.079,100.571,56.7254,0.0377168,0.804421,19.6047,60.2551,4.87198,0.0,0.0
360,89.75,95.9912,114.82,133.725,100.573,57.5589,0.0374834,0.794625,19.6075,60.145,4.74801,0.0,0.0
363,90.5,95.8195,114.54,127.51,100.584,55.8302,0.0371702,0.787483,19.6152,60.0248,5.00836,0.0,0.0
366,91.25,96.1178,114.003,137.32,100.601,56.4476,0.0368853,0.777535,19.6207,59.8947,4.91629,0.0,0.0
369,92,96.122,114.006,124.887,100.615,57.4425,0.0365809,0.768889,19.6329,59.7946,4.76881,0.0,0.0
372,92.75,96.2314,113.607,130.584,100.612,56.108,0.0362562,0.760203,19.6472,59.6945,4.96852,0.0,0.0
375,93.5,96.0491,113.752,140.346,100.615,56.8952,0.0359167,0.751065,19.6623,59.5344,4.85022,0.0,0.0
378,94.25,96.4002,113.586,132.232,100.635,53.5527,0.0356254,0.742576,19.6777,59.4243,5.36702,0.0,0.0
381,95,96.3663,113.391,131.482,100.655,53.9162,0.0352566,0.734808,19.6947,59.3442,5.31114,0.0,0.0
384,95.75,96.1862,113.682,121.158,100.647,53.6145,0.0348358,0.727775,19.713,59.2441,5.35825,0.0,0.0
387,96.5,96.7074,113.47,128.866,100.666,54.9096,0.0345291,0.71974,19.7279,59.104,5.15677,0.0,0.0
390,97.25,96.5885,114.206,126.674,100.664,53.6706,0.0341538,0.713883,19.7418,59.0439,5.35081,0.0,0.0
393,98,97.0063,113.944,129.714,100.679,55.572,0.0338342,0.70616,19.7547,58.9138,5.05582,0.0,0.0
396,98.75,96.6956,113.609,128.706,100.694,56.1768,0.0335676,0.698872,19.7665,58.8638,4.96506,0.0,0.0
399,99.5,96.8982,114.235,126.465,100.709,52.5733,0.0333494,0.69332,19.7788,58.7337,5.53029,0.0,0.0
402,100.25,97.059,113.867,129.31,100.711,56.731,0.0331546,0.688863,19.7926,58.6035,4.88296,0.0,0.0
405,101,97.0183,114.053,124.249,100.715,54.6262,0.0330037,0.685201,19.8048,58.4434,5.20493,0.0,0.0
408,101.75,97.3078,114.014,130.642,100.722,51.236,0.0328787,0.683316,19.8141,58.3633,5.75063,0.0,0.0
411,102.5,97.0511,114.38,127.264,100.735,52.9002,0.0328071,0.683284,19.8211,58.2632,5.47977,0.0,0.0
414,103.25,97.2523,114.775,128.651,100.716,53.3591,0.0327632,0.685699,19.8262,58.1331,5.40467,0.0,0.0
417,104,97.5609,114.801,129.982,100.725,48.9936,0.0327981,0.688499,19.8299,58.023,6.13161,0.0,0.0
420,104.75,97.7496,114.445,129.824,100.75,52.1116,0.032883,0.692155,19.8326,57.9429,5.60886,0.0,0.0
423,105.5,98.3496,114.515,122.926,100.754,52.1972,0.0329977,0.694443,19.8308,57.8028,5.59523,0.0,0.0
426,106.25,97.7183,115.035,127.187,100.751,52.2477,0.0331751,0.695949,19.8255,57.6627,5.58676,0.0,0.0
429,107,98.0582,114.97,129.838,100.764,50.9118,0.0333408,0.696091,19.8199,57.5526,5.80822,0.0,0.0
432,107.75,98.096,115.362,131.614,100.77,50.9497,0.0334772,0.696592,19.8159,57.4425,5.80236,0.0,0.0
435,108.5,98.3316,115.278,125.133,100.765,50.0545,0.0335966,0.697857,19.813,57.2923,5.95275,0.0,0.0
438,109.25,98.482,115.695,126.623,100.773,50.9722,0.0337216,0.700026,19.8108,57.2123,5.79888,0.0,0.0
441,110,98.9386,116.126,129.476,100.764,49.5114,0.0338127,0.703043,19.8092,57.0521,6.04552,0.0,0.0
444,110.75,99.0892,116.864,125.707,100.764,50.3113,0.0339753,0.705853,19.8081,56.9921,5.90915,0.0,0.0
447,111.5,99.7869,117.233,134.532,100.77,47.9945,0.0341381,0.708777,19.8073,56.882,6.31069,0.0,0.0
450,112.25,99.7687,116.993,123.437,100.768,44.2564,0.0343328,0.710909,19.8043,56.7018,7.00047,0.0,0.0
453,113,99.965,117.384,124.768,100.77,49.2322,0.0344747,0.712569,19.7982,56.6117,6.09414,0.0,0.0
456,113.75,100.402,117.836,117.285,100.759,45.501,0.0348014,0.713869,19.7921,56.4316,6.76371,0.0,0.0
459,114.5,100.375,119.257,127.991,100.783,45.7368,0.0351187,0.714893,19.7864,56.2914,6.72177,0.0,0.0
462,115.25,101.23,120.213,125.613,100.774,42.1964,0.0354225,0.717233,19.7814,56.1713,7.40649,0.0,0.0
465,116,101.684,120.92,115.162,100.774,43.6474,0.0357103,0.723606,19.7772,55.9511,7.11879,0.0,0.0
468,116.75,102.361,121.788,115.892,100.78,42.0322,0.0360192,0.729952,19.7732,55.831,7.44015,0.0,0.0
471,117.5,102.917,122.721,118.308,100.777,40.2894,0.0362444,0.738813,19.7699,55.6809,7.80021,0.0,0.0
474,118.25,103.69,124.088,113.941,100.772,44.5216,0.0365626,0.745663,19.7644,55.5508,6.94994,0.0,0.0
477,119,104.648,125.859,122.689,100.78,40.9953,0.0369531,0.751323,19.7502,55.3606,7.65269,0.0,0.0
480,119.75,105.259,127.235,116.905,100.754,42.6118,0.0373221,0.758572,19.7342,55.2505,7.32142,0.0,0.0
483,120.5,105.743,127.942,111.278,100.751,40.3764,0.0378348,0.769215,19.7201,55.0703,7.77959,0.0,0.0
486,121.25,106.752,129.116,109.084,100.758,39.338,0.038379,0.783107,19.7067,54.9302,8.00186,0.0,0.0
489,122,107.19,130.446,120.612,100.755,40.6192,0.0390831,0.799814,19.6955,54.77,7.72893,0.0,0.0
492,122.75,108.047,131.303,119.429,100.726,41.339,0.0397274,0.820841,19.685,54.6599,7.57708,0.0,0.0
495,123.5,108.242,131.918,114.108,100.725,43.9069,0.040726,0.839942,19.665,54.4998,7.06425,0.0,0.0
498,124.25,108.941,132.998,126.12,100.733,45.7746,0.041454,0.870175,19.6451,54.3897,6.71047,0.0,0.0
501,125,109.677,133.352,123.73,100.71,45.2316,0.0427556,0.897704,19.6157,54.2496,6.81007,0.0,0.0
504,125.75,110.142,133.721,128.106,100.711,46.639,0.0440577,0.927162,19.5802,54.1395,6.54948,0.0,0.0
507,126.5,110.49,133.699,122.866,100.684,48.1054,0.045321,0.957023,19.5412,53.9993,6.28384,0.0,0.0
510,127.25,110.214,132.964,135.625,100.681,47.6592,0.0465218,0.982618,19.4895,53.9593,6.36286,0.0,0.0
513,128,110.279,132.663,123.143,100.672,46.7695,0.0476973,1.00474,19.4289,53.8092,6.52238,0.0,0.0
516,128.75,110.084,131.828,130.109,100.642,44.7784,0.0487846,1.02399,19.3714,53.6891,6.89006,0.0,0.0
519,129.5,109.831,131.168,124.954,100.64,47.1807,0.0496338,1.04045,19.3236,53.589,6.44528,0.0,0.0
522,130.25,109.826,130.968,130.963,100.616,50.3379,0.0503496,1.05133,19.2831,53.4588,5.89209,0.0,0.0
525,131,109.728,130.209,130.251,100.601,51.2613,0.0508873,1.05733,19.2505,53.3788,5.73618,0.0,0.0
528,131.75,109.202,129.383,135.364,100.581,50.8641,0.0512485,1.05439,19.2217,53.2887,5.80065,0.0,0.0
531,132.5,108.76,128.649,136.459,100.565,51.6275,0.0514122,1.04374,19.2006,53.1886,5.67262,0.0,0.0
534,133.25,108.818,127.698,139.807,100.528,51.6724,0.0512556,1.02676,19.1852,53.1385,5.66205,0.0,0.0
537,134,108.407,126.919,136.63,100.518,50.025,0.050769,0.992162,19.171,53.0785,5.93685,0.0,0.0
540,134.75,108.128,125.849,134.255,100.498,53.9386,0.0501477,0.97027,19.172,52.9684,5.29437,0.0,0.0
543,135.5,107.335,124.799,138.262,100.472,50.5498,0.0493984,0.933563,19.1871,52.8783,5.84422,0.0,0.0
546,136.25,107.246,123.548,137.574,100.45,56.6061,0.0483451,0.899555,19.229,52.7582,4.87959,0.0,0.0
549,137,106.619,122.91,128.743,100.434,51.678,0.0474765,0.880006,19.2623,52.7482,5.65319,0.0,0.0
552,137.75,106.258,121.455,136.618,100.4,55.5579,0.046473,0.849741,19.3159,52.578,5.03437,0.0,0.0
555,138.5,105.617,120.634,136.37,100.394,49.3318,0.0451581,0.8207,19.3744,52.548,6.04509,0.0,0.0
558,139.25,105.016,119.697,134.206,100.358,60.0918,0.043902,0.793196,19.4253,52.4579,4.36339,0.0,0.0
561,140,104.499,119.022,132.886,100.328,54.0845,0.0426949,0.766865,19.4825,52.4079,5.25693,0.0,0.0
564,140.75,104.395,117.71,141.664,100.306,54.0312,0.0415335,0.741429,19.5406,52.3278,5.26345,0.0,0.0
567,141.5,104.131,116.832,137.913,100.291,56.6426,0.0402299,0.716796,19.5974,52.2577,4.86065,0.0,0.0
570,142.25,103.374,116.496,142.111,100.27,55.6674,0.0385964,0.681411,19.6637,52.2077,5.0066,0.0,0.0
573,143,103.46,115.41,135.224,100.245,57.2502,0.0379407,0.665301,19.6956,52.1577,4.76596,0.0,0.0
576,143.75,102.325,115.004,136.414,100.215,49.3557,0.0366328,0.642472,19.7393,52.0676,6.02577,0.0,0.0
579,144.5,101.922,114.441,134.674,100.21,51.2037,0.0351983,0.612263,19.7949,52.0075,5.71266,0.0,0.0
582,145.25,102.027,113.511,135.595,100.171,49.3487,0.034025,0.591066,19.8404,51.8274,6.0233,0.0,0.0
585,146,102.005,112.99,133.834,100.154,58.095,0.0328372,0.574057,19.8837,51.8474,4.63362,0.0,0.0
588,146.75,101.446,112.929,143.547,100.115,72.8008,0.0318573,0.557946,19.9196,51.8173,2.71056,0.0,0.0
591,147.5,101.038,111.537,138.601,100.109,69.941,0.0309478,0.544252,19.9589,51.6972,3.05101,0.0,0.0
594,148.25,100.586,110.967,139.032,100.067,75.5988,0.0300432,0.532826,19.9943,51.6772,2.38558,0.0,0.0
597,149,99.5641,109.666,144.52,100.031,77.9001,0.0292545,0.523449,20.0251,51.6672,2.12741,0.0,0.0
600,149.75,99.318,108.284,145.753,99.994,87.0126,0.0285659,0.515328,20.0516,51.6672,1.18307,0.0,0.0
603,150.5,98.7299,107.717,145.826,99.9896,90.1797,0.0279637,0.509533,20.0766,51.6072,0.878536,0.0,0.0
606,151.25,97.9008,106.206,147.152,99.9613,92.8473,0.0274726,0.505523,20.0952,51.6372,0.62811,0.0,0.0
609,152,97.4166,104.778,146.768,99.9369,94.4947,0.0270201,0.504593,20.1096,51.6472,0.4764,0.0,0.0
612,152.75,96.5197,103.842,145.53,99.8927,94.5353,0.0266804,0.504842,20.1201,51.5971,0.46898,0.0,0.0
615,153.5,95.754,101.894,147.34,99.8825,95.5232,0.026418,0.505157,20.1278,51.5971,0.379665,0.0,0.0
618,154.25,94.9736,101.41,144.469,99.8506,96.3287,0.026087,0.496778,20.1349,51.5871,0.305509,0.0,0.0
621,155,94.0606,100.546,151.825,99.8222,96.7258,0.025859,0.489053,20.1398,51.6072,0.26809,0.0,0.0
624,155.75,93.787,99.0217,147.94,99.8029,98.1978,0.0252936,0.474109,20.1457,51.5771,0.137947,0.0,0.0
627,156.5,93.2565,97.7407,149.733,99.7939,98.8236,0.024503,0.452055,20.1504,51.5871,0.0831233,0.0,0.0
630,157.25,92.0853,96.3312,152.106,99.7738,99.093,0.0234996,0.435977,20.1571,51.5771,0.0582483,0.0,0.0
633,158,91.2568,95.5943,149.198,99.7435,99.0579,0.0227681,0.411541,20.1676,51.5771,0.0586743,0.0,0.0
636,158.75,90.4176,93.7654,153.023,99.7281,99.1169,0.0212774,0.388307,20.1848,51.5371,0.0523032,0.0,0.0
639,159.5,90.038,93.1265,153.127,99.7096,99.5743,0.0195339,0.362635,20.2138,51.5971,0.0115471,0.0,0.0
642,160.25,89.196,92.4158,152.626,99.6954,99.4382,0.0178379,0.33482,20.2582,51.5771,0.021976,0.0,0.0
645,161,88.2647,91.0199,152.635,99.6725,99.7974,0.0160889,0.309658,20.3069,51.5671,-0.0106544,0.0,0.0
648,161.75,87.7294,89.8111,158.701,99.6473,99.5519,0.0145406,0.286883,20.3607,51.5771,0.00815341,0.0,0.0
651,162.5,87.0685,88.7436,152.659,99.6304,99.4494,0.0131774,0.264207,20.4194,51.5571,0.0154659,0.0,0.0
654,163.25,86.7508,87.7914,157.5,99.6131,100.018,0.011982,0.243851,20.476,51.5771,-0.0344938,0.0,0.0
657,164,85.9832,86.9242,157.097,99.6001,100.028,0.0109624,0.22738,20.5214,51.5771,-0.0364395,0.0,0.0
660,164.75,85.2775,86.1173,148.139,99.578,99.6178,0.0101559,0.210917,20.5617,51.5671,-0.00340185,0.0,0.0
663,165.5,84.7564,85.4125,153.101,99.5461,100.155,0.00950093,0.197016,20.5944,51.5471,-0.0519047,0.0,0.0
666,166.25,84.0561,84.3122,151.021,99.5323,100.168,0.00899681,0.183793,20.6239,51.5771,-0.0541566,0.0,0.0
669,167,83.1819,83.865,152.279,99.5252,99.9223,0.00863265,0.171818,20.6542,51.5771,-0.0338792,0.0,0.0
672,167.75,82.767,82.7052,153.617,99.4921,99.9785,0.00838135,0.16135,20.6825,51.5771,-0.041486,0.0,0.0
675,168.5,82.1141,82.5117,155.613,99.4819,99.9799,0.00820435,0.151366,20.7088,51.5871,-0.0424818,0.0,0.0
678,169.25,81.6679,81.5854,153.222,99.4665,100.068,0.00807536,0.142649,20.7331,51.5671,-0.0513144,0.0,0.0
681,170,81.1225,80.6081,151.238,99.4551,99.8395,0.00797685,0.135075,20.7546,51.5771,-0.0328234,0.0,0.0
684,170.75,80.9032,79.7487,151.657,99.4456,100.346,0.00787848,0.128521,20.7724,51.5671,-0.0766901,0.0,0.0
687,171.5,80.206,78.8681,152.814,99.4216,99.8676,0.00780678,0.122294,20.7864,51.5471,-0.0380796,0.0,0.0
690,172.25,79.4073,78.0663,154.833,99.4027,100.035,0.00770144,0.117326,20.8004,51.5471,-0.0539116,0.0,0.0
693,173,78.4589,77.1851,152.518,99.4149,99.9714,0.0075787,0.112973,20.8115,51.5471,-0.0474936,0.0,0.0
696,173.75,78.1747,76.6925,154.847,99.3897,99.8971,0.00746837,0.108844,20.8211,51.5471,-0.0433202,0.0,0.0
699,174.5,77.0565,76.3328,152.144,99.368,99.9434,0.00735229,0.105458,20.8294,51.5571,-0.0491174,0.0,0.0
702,175.25,76.8006,75.6305,155.534,99.3617,99.4677,0.0071883,0.102349,20.8364,51.5571,-0.00906683,0.0,0.0
705,176,76.3998,75.0047,152.018,99.3523,100.291,0.00702329,0.0990498,20.8431,51.5471,-0.0800398,0.0,0.0
708,176.75,76.045,74.3863,153.583,99.3361,100.072,0.00682526,0.0960208,20.8484,51.5471,-0.0628328,0.0,0.0
711,177.5,75.2955,74.0015,151.913,99.3243,99.8171,0.00655447,0.0935468,20.8544,51.5571,-0.0421051,0.0,0.0
714,178.25,75.4328,73.1428,153.775,99.3023,99.8662,0.00630666,0.0907743,20.8598,51.5471,-0.04818,0.0,0.0
717,179,74.9602,72.5941,152.676,99.3027,99.5042,0.00596801,0.0873617,20.8655,51.5471,-0.0172474,0.0,0.0
720,179.75,74.2946,72.5375,159.472,99.2798,100.383,0.00579868,0.0857454,20.8676,51.5471,-0.0939826,0.0,0.0
723,180.5,73.8135,72.481,156.951,99.2629,100.077,0.00560304,0.0833216,20.8719,51.5371,-0.0694684,0.0,0.0
726,181.25,73.7737,71.367,155.833,99.2258,99.4831,0.00541269,0.0806031,20.8752,51.5471,-0.0220309,0.0,0.0
729,182,73.3793,71.3855,151.95,99.2172,99.7203,0.00523233,0.0777784,20.8788,51.5471,-0.0430307,0.0,0.0
732,182.75,72.9046,70.7588,153.828,99.21875,99.6136,0.00506454,0.0752694,20.883,51.5371,-0.0337927,0.0,0.0
735,183.5,72.5999,70.3111,153.589,99.1912,99.4901,0.00487603,0.0730196,20.8874,51.5471,-0.0256038,0.0,0.0
738,184.25,71.6426,69.9133,156.309,99.1632,99.4116,0.00467076,0.0709877,20.8912,51.5571,-0.021281,0.0,0.0
741,185,71.4907,69.5283,154.733,99.1506,100.105,0.00452112,0.0690997,20.8952,51.5571,-0.0814814,0.0,0.0
744,185.75,70.9509,69.5726,155.773,99.1463,99.4649,0.00434506,0.0675498,20.8984,51.5371,-0.0272967,0.0,0.0
747,186.5,70.9964,68.987,157.792,99.1345,99.4565,0.00415361,0.0660416,20.9011,51.5471,-0.0275902,0.0,0.0
750,187.25,70.1262,68.8331,153.971,99.1159,100.133,0.00395496,0.064648,20.9036,51.5371,-0.086841,0.0,0.0
753,188,70.1324,68.1366,152.704,99.1006,99.6459,0.00373978,0.0634052,20.906,51.5471,-0.0466874,0.0,0.0
756,188.75,69.7189,68.2545,153.546,99.0955,99.4593,0.00352359,0.0621597,20.9079,51.5471,-0.0311782,0.0,0.0
759,189.5,69.5639,67.5227,154.957,99.0923,99.4242,0.00329802,0.0610698,20.9099,51.5471,-0.0284475,0.0,0.0
762,190.25,69.3288,67.4567,158.045,99.0714,99.6136,0.00310309,0.0601389,20.912,51.5571,-0.046435,0.0,0.0
765,191,68.9331,67.0336,151.785,99.0478,99.6333,0.00291272,0.0593595,20.9139,51.5471,-0.0501426,0.0,0.0
768,191.75,68.6573,66.4166,152.512,99.0324,99.535,0.00277394,0.0586117,20.9155,51.5571,-0.0430704,0.0,0.0
771,192.5,68.4126,66.2845,150.408,99.0328,99.615,0.0025953,0.0579783,20.9172,51.5571,-0.0498707,0.0,0.0
774,193.25,68.3206,66.1461,156.876,99.0175,99.601,0.00243372,0.0573656,20.9188,51.5471,-0.0499916,0.0,0.0
777,194,67.8323,65.9146,154.36,99.0119,99.5322,0.00229305,0.0567791,20.9203,51.5471,-0.0445904,0.0,0.0
780,194.75,67.4863,66.006,152.972,98.9922,99.7147,0.00217424,0.056292,20.9215,51.5671,-0.0618612,0.0,0.0
783,195.5,67.5409,65.2088,152.092,98.9832,99.3554,0.0020816,0.0556977,20.9223,51.5471,-0.0319356,0.0,0.0
786,196.25,67.0896,65.2303,153.239,98.9836,99.695,0.0020115,0.055154,20.9229,51.5571,-0.06093,0.0,0.0
789,197,66.7597,64.6063,158.643,98.9513,99.601,0.00196383,0.0547106,20.924,51.5571,-0.0556796,0.0,0.0
792,197.75,66.5562,64.2549,154.449,98.9292,99.5098,0.00192306,0.0542678,20.925,51.5671,-0.0497815,0.0,0.0
795,198.5,66.5891,64.3906,157.014,98.9406,99.2572,0.00189077,0.0538472,20.9257,51.4971,-0.0271771,0.0,0.0
798,199.25,65.9042,63.9937,152.932,98.9288,99.6501,0.00185038,0.0534989,20.9265,51.5471,-0.061805,0.0,0.0
801,200,65.361,64.1523,154.423,98.9273,99.3035,0.00180678,0.0531057,20.9275,51.5271,-0.0322975,0.0,0.0
804,200.75,65.3517,63.8909,160.178,98.9001,99.246,0.00176308,0.0527822,20.9282,51.5471,-0.0297049,0.0,0.0
807,201.5,65.1923,63.3838,153.612,98.8898,98.9808,0.00171235,0.0524836,20.9287,51.5471,-0.00781963,0.0,0.0
810,202.25,65.6015,63.0923,155.828,98.9052,99.8592,0.00165853,0.0522261,20.929,51.5471,-0.0816693,0.0,0.0
813,203,64.6977,63.0719,155.79,98.8906,99.0018,0.00161212,0.0520384,20.9298,51.5771,-0.00956129,0.0,0.0
816,203.75,64.2634,62.7998,154.671,98.8859,99.1941,0.00155425,0.0517423,20.9305,51.5771,-0.0264731,0.0,0.0
819,204.5,64.2464,62.5513,155.671,98.8607,99.427,0.00149107,0.0514846,20.9306,51.5671,-0.0485972,0.0,0.0
822,205.25,64.2274,62.1649,151.772,98.8457,99.5715,0.00142664,0.0512789,20.9306,51.5771,-0.0622443,0.0,0.0
825,206,64.2579,61.5606,154.45,98.8607,99.2362,0.00137335,0.0510493,20.9307,51.5571,-0.0322517,0.0,0.0
828,206.75,64.0879,61.9892,152.697,98.8512,99.1562,0.00132369,0.050882,20.9307,51.5571,-0.0262055,0.0,0.0
831,207.5,63.6749,62.0386,155.533,98.839,99.2895,0.00128389,0.0507799,20.9308,51.5371,-0.0386868,0.0,0.0
834,208.25,63.4198,61.6621,152.626,98.8516,99.5126,0.00125335,0.0506636,20.9308,51.5371,-0.0566985,0.0,0.0
837,209,63.3633,61.2439,154.676,98.85,99.5687,0.00123279,0.0505463,20.9314,51.5271,-0.0616313,0.0,0.0
840,209.75,62.8355,61.3281,157.681,98.8489,99.1,0.00122465,0.0504357,20.9319,51.5271,-0.0215916,0.0,0.0
843,210.5,62.8063,60.6409,157.337,98.8453,99.1323,0.00121872,0.0503749,20.9322,51.5571,-0.0246669,0.0,0.0
846,211.25,62.902,61.0014,161.095,98.8331,98.9513,0.00121123,0.0503167,20.9325,51.5671,-0.0101685,0.0,0.0
849,212,62.1895,61.0133,153.736,98.8347,99.4607,0.00120038,0.0502536,20.9327,51.5471,-0.0537162,0.0,0.0
852,212.75,62.4459,60.7975,155.148,98.8233,99.2011,0.00118678,0.0501825,20.9328,51.5671,-0.0324645,0.0,0.0
855,213.5,62.1039,60.8602,155.766,98.8481,99.3877,0.00116714,0.0501028,20.9329,51.5671,-0.0463192,0.0,0.0
858,214.25,62.0779,60.5546,153.403,98.8473,99.1562,0.0011477,0.0500254,20.933,51.5771,-0.0265448,0.0,0.0
861,215,61.9346,60.3063,157.215,98.8646,99.5364,0.00113352,0.0499565,20.933,51.5571,-0.0576189,0.0,0.0
864,215.75,61.347,60.4212,155.265,98.8721,99.4873,0.00112318,0.0499341,20.9331,51.5571,-0.0527762,0.0,0.0
867,216.5,61.3523,60.3592,157.589,98.8898,99.2446,0.00111737,0.0499143,20.9337,51.5771,-0.0304652,0.0,0.0
870,217.25,61.3035,59.8269,153.536,98.8721,98.8194,0.00112993,0.0498737,20.9341,51.5871,0.00453638,0.0,0.0
873,218,61.42,59.9555,154.823,98.8788,98.8503,0.0011513,0.0498998,20.9343,51.5471,0.00245506,0.0,0.0
876,218.75,61.1499,59.6447,156.025,98.9107,99.2726,0.00117552,0.0499427,20.9344,51.5671,-0.0310749,0.0,0.0
879,219.5,60.892,59.4838,154.172,98.9135,99.4901,0.00119065,0.0499739,20.9344,51.5371,-0.0494571,0.0,0.0
882,220.25,61.3192,59.594,151.55,98.9213,99.3147,0.00119736,0.049982,20.9345,51.5371,-0.0337672,0.0,0.0
885,221,61.1384,59.7305,153.93,98.9379,99.0593,0.00120054,0.0499628,20.9345,51.5471,-0.0104381,0.0,0.0
888,221.75,60.7821,59.2554,156.464,98.9592,99.0608,0.00120766,0.0499289,20.9343,51.5571,-0.00872976,0.0,0.0
891,222.5,60.3243,59.2224,154.425,98.9808,99.2137,0.00122059,0.0499321,20.9338,51.5571,-0.0199928,0.0,0.0
894,223.25,60.3645,58.8747,157.77,99.0005,99.5799,0.00123401,0.0499274,20.9335,51.5571,-0.0496494,0.0,0.0
897,224,60.1111,59.2412,157.646,99.032,99.434,0.00126514,0.0499031,20.9332,51.5571,-0.0344632,0.0,0.0
900,224.75,60.1073,58.8209,155.742,99.0513,99.3316,0.00129449,0.0498993,20.9329,51.5471,-0.0240363,0.0,0.0
903,225.5,59.9854,58.6195,156.442,99.084,99.8381,0.00133645,0.0499025,20.9328,51.5371,-0.0645065,0.0,0.0
906,226.25,60.2427,58.336,153.727,99.0777,99.5112,0.00136704,0.0498975,20.9326,51.5671,-0.0371398,0.0,0.0
909,227,59.2526,58.2606,152.679,99.1155,99.5393,0.00138934,0.0498813,20.9326,51.5471,-0.0362923,0.0,0.0
912,227.75,59.2026,58.6618,154.529,99.1467,99.3526,0.00137988,0.0498555,20.9331,51.5671,-0.017655,0.0,0.0
915,228.5,59.0589,58.1222,152.06,99.1845,99.6599,0.00133337,0.0498127,20.9335,51.5471,-0.0406855,0.0,0.0
918,229.25,59.4315,57.8265,159.711,99.2038,99.528,0.00126426,0.0497257,20.934,51.5371,-0.0277622,0.0,0.0
921,230,59.6166,57.6578,156.295,99.21875,99.8452,0.00118257,0.0496459,20.9338,51.5271,-0.0535442,0.0,0.0
924,230.75,58.8865,58.3994,155.106,99.2459,99.361,0.00109396,0.0496075,20.9336,51.5471,-0.00986184,0.0,0.0
927,231.5,58.9104,57.6616,159.244,99.2834,99.4621,0.00102816,0.0495922,20.9336,51.5471,-0.015301,0.0,0.0
930,232.25,59.1676,58.2969,156.266,99.32,99.6627,0.000984734,0.0495809,20.9341,51.5571,-0.02931,0.0,0.0
933,233,58.5852,57.8881,154.901,99.361,99.3765,0.000961702,0.0495581,20.9344,51.5571,-0.00132923,0.0,0.0
936,233.75,58.887,58.0235,150.225,99.383,99.6108,0.000949958,0.0495163,20.9347,51.5571,-0.019479,0.0,0.0
939,234.5,58.65,57.6904,154.817,99.45,99.9167,0.000950026,0.049444,20.9349,51.5471,-0.0398356,0.0,0.0
942,235.25,58.4723,57.3911,153.534,99.4701,99.6684,0.000932981,0.0493735,20.935,51.5571,-0.0169426,0.0,0.0
945,236,58.5234,57.6146,155.156,99.4969,99.8269,0.000897793,0.0493221,20.9351,51.5571,-0.0281758,0.0,0.0
948,236.75,58.2768,57.3048,152.896,99.539,99.7539,0.000843281,0.0493045,20.9351,51.5471,-0.0183512,0.0,0.0
951,237.5,58.4541,57.1537,150.094,99.5717,100.275,0.000795374,0.0492904,20.9352,51.5571,-0.0598432,0.0,0.0
954,238.25,57.9744,57.4434,158.16,99.6213,100.485,0.000755337,0.0492796,20.9352,51.5471,-0.0734424,0.0,0.0
957,239,57.4457,57.2416,156.239,99.6528,100.246,0.000741713,0.0492916,20.9352,51.5471,-0.0505303,0.0,0.0
960,239.75,57.8102,56.8829,154.969,99.6863,100.813,0.000738414,0.0493561,20.935,51.5471,-0.0956491,0.0,0.0
963,240.5,56.9815,57.103,154.02,99.7092,99.8227,0.000781538,0.049427,20.9348,51.5571,-0.0096806,0.0,0.0
966,241.25,57.8893,56.4259,157.901,99.7561,100.151,0.000846272,0.0494388,20.9347,51.5471,-0.0336211,0.0,0.0
969,242,57.5537,56.1831,153.926,99.7939,99.9476,0.000917209,0.0495033,20.9353,51.5471,-0.0130955,0.0,0.0
972,242.75,57.1732,56.8835,155.972,99.8175,100.182,0.000980903,0.0496034,20.9353,51.5271,-0.0310046,0.0,0.0
975,243.5,57.5396,56.5926,155.061,99.8411,100.078,0.00102374,0.0497266,20.9351,51.5471,-0.0201672,0.0,0.0
978,244.25,57.4105,56.3672,154.123,99.8979,100.826,0.00105216,0.0498562,20.9349,51.5271,-0.0786808,0.0,0.0
981,245,56.9697,55.9396,156.603,99.9219,101.051,0.00107073,0.0499786,20.9348,51.5371,-0.0955584,0.0,0.0
984,245.75,57.119,56.1415,151.007,99.9377,100.693,0.00109111,0.0500797,20.9347,51.5371,-0.064037,0.0,0.0
987,246.5,57.3968,56.0921,155.668,99.9522,100.481,0.00110596,0.0501932,20.9346,51.5471,-0.0448749,0.0,0.0
990,247.25,57.0234,56.2321,156.074,99.9826,100.482,0.00112706,0.0502759,20.9346,51.5571,-0.0424114,0.0,0.0
993,248,57.2802,56.5852,152.626,100.014,100.465,0.00113739,0.0503561,20.9346,51.5471,-0.0383378,0.0,0.0
996,248.75,56.4624,56.0643,152.865,100.037,100.401,0.00113628,0.0504146,20.9345,51.5371,-0.0308937,0.0,0.0
999,249.5,56.7334,56.1732,155.954,100.05,100.366,0.00112348,0.0504293,20.9345,51.5371,-0.026848,0.0,0.0
1002,250.25,56.4219,55.6857,159.933,100.057,100.206,0.00109363,0.0504135,20.9342,51.5471,-0.0126744,0.0,0.0
1005,251,56.7383,55.795,152.441,100.09,100.321,0.00105648,0.0503768,20.934,51.5471,-0.0195577,0.0,0.0
1008,251.75,56.4142,55.9936,155.549,100.099,100.422,0.0010234,0.0503501,20.9339,51.5471,-0.0274193,0.0,0.0
1011,252.5,56.4218,55.6196,154.742,100.124,100.586,0.000993583,0.0503306,20.9338,51.5471,-0.0392079,0.0,0.0
1014,253.25,56.1311,55.9133,156.09,100.125,100.239,0.00096645,0.0502871,20.9337,51.5571,-0.00974101,0.0,0.0
1017,254,56.65,55.8134,154.61,100.122,100.467,0.000948563,0.0502051,20.9336,51.5571,-0.0292464,0.0,0.0
1020,254.75,56.254,55.4065,156.216,100.152,100.531,0.000938758,0.0501035,20.9336,51.5571,-0.0322013,0.0,0.0
1023,255.5,55.9523,55.7945,152.561,100.148,101.042,0.000940158,0.0499969,20.9336,51.5571,-0.0755859,0.0,0.0
1026,256.25,55.9147,55.8396,155.509,100.143,100.458,0.000942378,0.0498941,20.9335,51.5571,-0.0267605,0.0,0.0
1029,257,56.0042,55.0498,151.58,100.147,100.735,0.000943876,0.0497992,20.9335,51.5471,-0.0497713,0.0,0.0
1032,257.75,55.9135,55.4055,155.945,100.17,100.317,0.000943889,0.0497162,20.9335,51.5571,-0.0124733,0.0,0.0
1035,258.5,55.689,55.3944,160.465,100.138,100.592,0.000933642,0.049657,20.9335,51.5471,-0.0384443,0.0,0.0
1038,259.25,56.1553,55.6234,155.509,100.132,100.531,0.00092737,0.0496264,20.9335,51.5571,-0.0338746,0.0,0.0
1041,260,55.443,55.2536,159.451,100.119,100.478,0.000923308,0.0496041,20.9335,51.5571,-0.0304652,0.0,0.0
1044,260.75,56.0494,55.2077,153.759,100.116,100.277,0.000939281,0.0495878,20.9335,51.5571,-0.0136922,0.0,0.0
1047,261.5,55.3977,55.1947,153.968,100.107,100.808,0.000983302,0.0495202,20.9335,51.5371,-0.0593795,0.0,0.0
1050,262.25,54.85,55.1958,153.363,100.079,100.513,0.00105648,0.0494324,20.9335,51.5571,-0.0367833,0.0,0.0
1053,263,55.9475,55.0381,155.422,100.067,100.284,0.00112063,0.0493433,20.9335,51.5571,-0.0184726,0.0,0.0
1056,263.75,55.4402,54.6026,153.51,100.077,100.253,0.0011636,0.0493182,20.9335,51.5371,-0.0149825,0.0,0.0
1059,264.5,55.5546,55.0735,164.105,100.044,100.38,0.0011806,0.0492859,20.9335,51.5371,-0.0284735,0.0,0.0
1062,265.25,54.8821,55.3828,158.496,100.03,100.251,0.00117463,0.0492564,20.9335,51.5771,-0.0187639,0.0,0.0
1065,266,55.3009,54.9671,151.435,99.994,100.433,0.00114628,0.0492349,20.9335,51.487,-0.0372804,0.0,0.0
1068,266.75,54.9169,54.9996,157.759,99.966,100.522,0.00111538,0.0491774,20.9335,51.487,-0.0471453,0.0,0.0
1071,267.5,55.2535,54.6294,158.223,99.9471,100.491,0.00108327,0.0491177,20.9335,51.5471,-0.0461423,0.0,0.0
1074,268.25,55.2817,54.3777,154.742,99.9231,100.409,0.00106523,0.049094,20.9335,51.5371,-0.0412939,0.0,0.0
1077,269,55.1526,54.8789,155.08,99.8782,100.197,0.00106827,0.0490774,20.9339,51.5371,-0.0271461,0.0,0.0
1080,269.75,55.1814,54.488,156.035,99.8557,100.061,0.00109273,0.0490664,20.9345,51.5171,-0.0174934,0.0,0.0
1083,270.5,54.6299,54.5546,154.613,99.8502,99.9251,0.00111309,0.0490187,20.9351,51.5371,-0.00638281,0.0,0.0
1086,271.25,55.1858,54.342,154.473,99.8199,100.098,0.00113225,0.0489839,20.9355,51.5371,-0.0236498,0.0,0.0
1089,272,54.8637,54.4621,159.627,99.7919,99.7161,0.00113864,0.0489386,20.9358,51.5471,0.00646822,0.0,0.0
1092,272.75,54.8226,54.6421,154.835,99.7761,100.478,0.00113034,0.0489203,20.9354,51.5471,-0.0596379,0.0,0.0
1095,273.5,54.6982,54.3431,157.476,99.7635,100.507,0.00112087,0.048932,20.9346,51.5571,-0.0632072,0.0,0.0
1098,274.25,54.8108,54.1021,154.875,99.734,99.8297,0.00111716,0.0489934,20.9336,51.5671,-0.00816225,0.0,0.0
1101,275,54.8113,55.0083,152.856,99.7056,99.8858,0.00112495,0.0490544,20.9331,51.5271,-0.0153635,0.0,0.0
1104,275.75,54.7453,54.2096,154.545,99.6714,100.21,0.00113209,0.0491208,20.9329,51.5371,-0.0458527,0.0,0.0
1107,276.5,54.5169,54.1332,153.884,99.6635,99.8858,0.00114439,0.0492673,20.9326,51.5471,-0.0189616,0.0,0.0
1110,277.25,54.759,54.0473,153.462,99.6465,99.9279,0.00115336,0.0494405,20.9324,51.5371,-0.0239926,0.0,0.0
1113,278,54.0816,54.2035,155.284,99.632,99.5378,0.00116161,0.0496296,20.9322,51.5271,0.00804094,0.0,0.0
1116,278.75,54.2685,54.0398,155.151,99.5961,99.8185,0.00116699,0.0498669,20.9321,51.5271,-0.0189748,0.0,0.0
1119,279.5,53.993,53.6226,152.811,99.604,100.527,0.00116984,0.0501096,20.932,51.5471,-0.0784868,0.0,0.0
1122,280.25,54.1891,53.8865,156.832,99.5784,99.9378,0.00115993,0.0503163,20.932,51.5571,-0.0306484,0.0,0.0
1125,281,54.1519,54.1684,157.187,99.5477,99.7062,0.0011527,0.0505508,20.9319,51.5471,-0.0135409,0.0,0.0
1128,281.75,54.1204,54.0737,154.7,99.5315,99.761,0.00112704,0.0507574,20.9319,51.5371,-0.0195898,0.0,0.0
1131,282.5,54.6448,53.9089,154.232,99.5276,99.9532,0.00109586,0.0509917,20.9319,51.5371,-0.0363056,0.0,0.0
1134,283.25,54.2547,54.1448,154.339,99.5268,99.9532,0.00106665,0.0511983,20.9312,51.5271,-0.0363728,0.0,0.0
1137,284,54.0551,54.0069,162.887,99.5977,100.108,0.00105048,0.0513268,20.9307,51.5271,-0.043442,0.0,0.0
1140,284.75,53.9988,54.0184,155.762,99.6619,99.8171,0.0010387,0.0513828,20.9304,51.5371,-0.0132372,0.0,0.0
1143,285.5,54.0703,53.6398,157.118,99.7505,100.742,0.00102822,0.0513538,20.9302,51.5371,-0.0841293,0.0,0.0
1146,286.25,53.9256,53.7616,157.257,99.8352,100.131,0.00101734,0.0512883,20.93,51.5171,-0.025203,0.0,0.0
1149,287,53.9209,53.9345,153.879,99.8794,100.582,0.00100941,0.0512154,20.9298,51.5371,-0.0596297,0.0,0.0
1152,287.75,54.0175,53.4786,153.469,99.9644,100.294,0.00100362,0.051222,20.9297,51.5271,-0.0280186,0.0,0.0
1155,288.5,53.741,53.6808,160.563,100.027,100.293,0.00101309,0.0512341,20.9297,51.5171,-0.0225708,0.0,0.0
1158,289.25,54.2292,53.5322,153.731,100.078,100.287,0.00103439,0.0512555,20.9296,51.5171,-0.0177393,0.0,0.0
1161,290,53.3693,53.824,158,100.127,100.282,0.00106301,0.0512838,20.9296,51.5271,-0.0131452,0.0,0.0
1164,290.75,53.577,53.4836,154.444,100.17,100.627,0.00109575,0.0513319,20.9294,51.5271,-0.0386669,0.0,0.0
1165,291,53.4679,53.5251,152.811,100.179,100.391,0.00110456,0.0513587,20.9293,51.5271,-0.0179756,0.0,0.0