File: 01_Data/Latex_Pillow_Foam/Cone/Latex_Pillow_Foam_Cone_HF50Scan_230630_R4.csv
Names,Time,Stack TC,Smoke TC,Exh Press,Smoke Comp,Smoke Meas,CO Meter,CO2 Meter,O2 Meter,Sample Mass,Ext Coeff,Start Test,Flame Verif
Chan Gain,,500,500,1,1,1,1,1,1,1,1,1.0,1.0
Offset,,0,0,0.13804,0,0,0,0,0,0,0,0.0,0.0
Gain,,1,1,25.011,12.8632,68.4336,1,1,1,1.00091,0.969894,1.0,1.0
Units,sec,C,C,Pa,%,%,%,%,%,g,/m,,
Baseline,,61.391,62.6495,155.793,100.147,100.107,0.000747823,0.0435669,20.9339,-445.507,0.00341574,,
2,0.25,57.7103,58.9385,158.325,99.4262,98.4673,0.000292038,0.0472403,20.9272,67.3415,0.0824473,1.0,0.0
4,0.75,57.7933,58.6981,163.051,99.4089,98.839,0.0003088,0.0470938,20.9271,67.3015,0.0489096,1.0,0.0
6,1.25,57.752,58.8146,160.994,99.4105,96.5,0.000333699,0.0469312,20.9271,67.2214,0.252805,0.0,0.0
8,1.75,57.9431,58.8853,156.077,99.3991,97.0472,0.000363937,0.0467599,20.9271,67.1714,0.203725,0.0,1.0
10,2.25,57.187,58.5958,140.386,99.4089,88.4366,0.000397494,0.0465845,20.9275,67.0813,0.995041,0.0,1.0
12,2.75,57.5224,59.1275,139.435,99.392,82.1441,0.000430341,0.0464094,20.9278,67.0713,1.62156,0.0,1.0
14,3.25,57.9462,59.9724,130.909,99.3759,73.3456,0.000462048,0.0462676,20.9281,66.9712,2.58406,0.0,1.0
16,3.75,58.4948,61.2996,129.522,99.3802,69.5447,0.00048773,0.0461249,20.9283,66.8411,3.03716,0.0,1.0
18,4.25,59.5348,62.1302,132.359,99.3822,65.2696,0.000514202,0.0460093,20.9285,66.8411,3.57709,0.0,1.0
20,4.75,60.2937,63.4244,128.106,99.3732,63.6616,0.000540746,0.0459376,20.9286,66.741,3.78855,0.0,1.0
22,5.25,60.9791,65.3464,127.031,99.3681,64.8708,0.000562246,0.0458994,20.9288,66.7009,3.62803,0.0,1.0
24,5.75,61.8068,67.0179,127.293,99.37,59.5975,0.000582055,0.0458684,20.9288,66.5508,4.34952,0.0,1.0
26,6.25,62.0314,68.1829,125.746,99.3849,58.3298,0.0005981,0.0459408,20.9289,66.3706,4.53372,0.0,1.0
28,6.75,63.126,70.12,124.614,99.3575,56.3771,0.000611097,0.0459995,20.929,66.4107,4.82106,0.0,1.0
30,7.25,64.5397,72.0164,128.866,99.363,53.848,0.000621624,0.0461423,20.929,66.3106,5.21202,0.0,1.0
32,7.75,65.2494,73.3461,124.291,99.3606,48.6207,0.000632545,0.0463438,20.9291,66.1805,6.08061,0.0,0.0
34,8.25,66.3049,74.9813,120.67,99.3571,52.524,0.000641391,0.0473224,20.9291,66.0303,5.42333,0.0,0.0
36,8.75,67.2584,76.9491,122.561,99.348,45.5256,0.000667714,0.0488488,20.9289,65.9503,6.63912,0.0,0.0
38,9.25,68.8184,78.9097,113.217,99.3386,45.7763,0.000689037,0.0537844,20.9285,65.8101,6.59161,0.0,0.0
40,9.75,69.7755,81.173,114.896,99.3696,47.5034,0.000790245,0.0611115,20.9278,65.7401,6.27917,0.0,0.0
42,10.25,70.6577,83.612,115.455,99.3535,48.0234,0.000872223,0.0670465,20.9267,65.6199,6.18517,0.0,0.0
44,10.75,71.9281,84.9131,111.966,99.352,46.5782,0.000938626,0.09203,20.9259,65.4998,6.44499,0.0,0.0
46,11.25,72.9215,86.3696,113.722,99.3469,49.0572,0.00137136,0.112267,20.9245,65.4098,6.00339,0.0,0.0
48,11.75,74.5217,88.8596,121.302,99.3696,50.1515,0.00172188,0.144575,20.9227,65.2696,5.81764,0.0,0.0
50,12.25,75.2691,90.2491,121.457,99.3425,47.3676,0.00252629,0.18507,20.9213,65.1595,6.3012,0.0,0.0
52,12.75,76.2795,91.9112,116.441,99.3539,48.5163,0.00317785,0.217871,20.9202,64.9994,6.09833,0.0,0.0
54,13.25,77.2806,93.6858,113.609,99.3335,47.9482,0.00370562,0.264209,20.9104,64.9694,6.19678,0.0,0.0
56,13.75,78.3053,95.5279,108.828,99.3418,44.4814,0.00475932,0.319535,20.9025,64.8392,6.836,0.0,0.0
58,14.25,79.6399,97.1364,113.496,99.3229,46.7119,0.0061764,0.364349,20.871,64.619,6.41813,0.0,0.0
60,14.75,80.5041,98.9619,113.7,99.3476,50.4355,0.00778554,0.420688,20.8456,64.5089,5.76771,0.0,0.0
62,15.25,82.0426,100.535,110.656,99.3284,45.9559,0.00950414,0.476125,20.7617,64.4389,6.55742,0.0,0.0
64,15.75,83.2474,102.539,105.961,99.3366,45.2186,0.0108962,0.529852,20.6937,64.3288,6.69571,0.0,0.0
66,16.25,83.4016,104.237,115.058,99.2939,44.1932,0.0131577,0.573371,20.6133,64.1886,6.8872,0.0,0.0
68,16.75,85.5061,105.822,108.774,99.3284,43.809,0.0149895,0.628626,20.5254,64.1086,6.96446,0.0,0.0
70,17.25,86.181,107.184,108.141,99.3139,45.6948,0.0174393,0.673383,20.4541,63.9584,6.60464,0.0,0.0
72,17.75,87.021,109.256,116.766,99.3312,46.9165,0.0194237,0.709636,20.3485,63.8283,6.38164,0.0,0.0
74,18.25,87.8622,110.409,110.701,99.3045,43.2221,0.021031,0.758646,20.2629,63.7382,7.07715,0.0,0.0
76,18.75,89.4514,111.87,107.618,99.3209,42.7522,0.0236663,0.798343,20.1766,63.6381,7.17156,0.0,0.0
78,19.25,90.1444,113.629,100.164,99.308,43.2054,0.0258009,0.836008,20.0914,63.538,7.08074,0.0,0.0
80,19.75,90.985,114.776,111.228,99.3182,44.613,0.0282322,0.871475,20.0019,63.4279,6.80885,0.0,0.0
82,20.25,92.273,116.377,125.967,99.3155,43.3808,0.0302016,0.903858,19.911,63.3379,7.0469,0.0,0.0
84,20.75,93.7425,118.215,119.023,99.3135,46.5552,0.0323669,0.933378,19.8201,63.2278,6.4459,0.0,0.0
86,21.25,94.5813,119.41,113.312,99.3072,42.6165,0.0341208,0.960752,19.731,63.1177,7.19744,0.0,0.0
88,21.75,95.3071,120.519,107.767,99.3221,44.8803,0.0357698,0.98604,19.6486,62.9675,6.75836,0.0,0.0
90,22.25,96.3123,121.983,106.047,99.308,44.0262,0.037311,1.01366,19.5726,62.8274,6.92064,0.0,0.0
92,22.75,97.393,122.98,107.91,99.3115,41.5242,0.0389075,1.03603,19.5053,62.7273,7.41871,0.0,0.0
94,23.25,98.0882,125.193,114.306,99.2998,46.0248,0.0402006,1.05739,19.4455,62.5772,6.54222,0.0,0.0
96,23.75,99.1567,126.468,116.83,99.3115,40.1062,0.0415587,1.07761,19.3905,62.4471,7.71433,0.0,0.0
98,24.25,100.321,128.183,114.83,99.2892,43.715,0.0426588,1.09671,19.3401,62.3269,6.97937,0.0,0.0
100,24.75,100.858,129.401,110.192,99.3147,42.3784,0.0435499,1.11463,19.2993,62.1868,7.24574,0.0,0.0
102,25.25,102.293,130.394,117.863,99.3166,41.3843,0.0445875,1.12915,19.2591,62.0967,7.44786,0.0,0.0
104,25.75,103.134,132.503,99.9819,99.3147,38.7508,0.045428,1.14529,19.22,61.9766,8.00709,0.0,0.0
106,26.25,104.139,133.018,100.563,99.3182,41.0334,0.046308,1.15836,19.1883,61.8065,7.52043,0.0,0.0
108,26.75,105.099,134.897,98.9843,99.3076,41.6934,0.0470209,1.17081,19.1529,61.6864,7.38378,0.0,0.0
110,27.25,106.018,136.07,109.629,99.326,39.3251,0.0476909,1.18258,19.1242,61.5162,7.8829,0.0,0.0
112,27.75,106.616,136.946,119.342,99.328,40.0018,0.0483171,1.19211,19.093,61.4361,7.73792,0.0,0.0
114,28.25,107.815,138.567,115.943,99.3433,38.4146,0.0489308,1.2018,19.0678,61.326,8.08369,0.0,0.0
116,28.75,108.715,139.83,104.704,99.3288,39.4128,0.0495238,1.20964,19.0394,61.2359,7.86418,0.0,0.0
118,29.25,109.637,141.447,108.097,99.3657,39.9767,0.0501175,1.21922,19.0163,61.1258,7.74648,0.0,0.0
120,29.75,110.854,142.795,97.7295,99.361,38.2913,0.0507006,1.22698,18.9893,60.9957,8.11253,0.0,0.0
122,30.25,111.622,144.476,110.078,99.3747,43.5208,0.0513085,1.23806,18.9674,60.8556,7.02458,0.0,0.0
124,30.75,112.585,145.539,99.5713,99.3586,41.827,0.0519231,1.24704,18.9474,60.7255,7.36092,0.0,0.0
126,31.25,113.842,146.819,103.965,99.3684,38.2976,0.0524209,1.26036,18.9313,60.5653,8.11178,0.0,0.0
128,31.75,114.723,148.267,114.25,99.3677,41.0752,0.0530353,1.27115,18.9182,60.3952,7.51601,0.0,0.0
130,32.25,115.026,149.101,110.009,99.3657,42.2009,0.0537228,1.28307,18.9018,60.4052,7.28583,0.0,0.0
132,32.75,116.422,149.967,104.785,99.3681,39.5841,0.0544542,1.29558,18.8886,60.2651,7.83065,0.0,0.0
134,33.25,117.104,151.361,107.084,99.3841,39.5903,0.0552037,1.30572,18.8677,60.0449,7.83068,0.0,0.0
136,33.75,118.037,152.481,113.682,99.3657,37.5938,0.0560045,1.31769,18.8507,59.8747,8.26935,0.0,0.0
138,34.25,118.696,153.455,105.17,99.3747,39.2896,0.0568277,1.32738,18.8286,59.8146,7.89475,0.0,0.0
140,34.75,119.513,154.703,111.732,99.3469,38.7967,0.0577057,1.33851,18.8107,59.6445,7.99976,0.0,0.0
142,35.25,121,155.521,113.781,99.3476,42.865,0.058607,1.34752,18.7962,59.5644,7.15143,0.0,0.0
144,35.75,121.39,156.61,102.868,99.3543,40.7599,0.059337,1.35482,18.7784,59.2942,7.58044,0.0,0.0
146,36.25,122.067,157.601,117.659,99.3802,40.2398,0.0599283,1.36674,18.7585,59.2641,7.6919,0.0,0.0
148,36.75,123.131,158.85,108.471,99.3767,36.4201,0.0608412,1.3764,18.7424,59.2141,8.54014,0.0,0.0
150,37.25,123.874,159.498,100.631,99.3857,38.7466,0.061971,1.38663,18.7236,58.9939,8.01409,0.0,0.0
152,37.75,124.757,160.723,111.752,99.3751,39.2269,0.0631031,1.39708,18.7083,58.8438,7.90836,0.0,0.0
154,38.25,125.266,160.936,115.477,99.3998,41.0293,0.0642152,1.40555,18.6932,58.7236,7.52829,0.0,0.0
156,38.75,125.893,161.812,108.779,99.3736,40.9812,0.065116,1.41356,18.6784,58.5335,7.53601,0.0,0.0
158,39.25,126.944,162.529,113.824,99.381,40.2419,0.065999,1.42109,18.6664,58.4334,7.69153,0.0,0.0
160,39.75,126.878,163.296,112.399,99.3645,38.0888,0.0668522,1.42719,18.6483,58.4134,8.15797,0.0,0.0
162,40.25,128.058,163.747,106.164,99.3736,37.3641,0.067539,1.43465,18.6336,58.2032,8.32217,0.0,0.0
164,40.75,128.365,164.154,96.1847,99.3618,39.1267,0.0680915,1.44069,18.6155,58.0831,7.92899,0.0,0.0
166,41.25,129.472,164.978,103.537,99.3924,40.0686,0.068539,1.44969,18.5951,57.963,7.72923,0.0,0.0
168,41.75,129.512,165.745,106.713,99.361,38.7278,0.068859,1.45698,18.5774,57.8128,8.0161,0.0,0.0
170,42.25,130.554,166.132,100.983,99.3873,38.0846,0.0691183,1.46451,18.5621,57.7027,8.16085,0.0,0.0
172,42.75,130.817,166.647,105.666,99.3763,41.0919,0.0693332,1.47209,18.5487,57.6427,7.51329,0.0,0.0
174,43.25,131.482,167.038,112.645,99.3783,42.5329,0.0695072,1.47872,18.537,57.4825,7.22022,0.0,0.0
176,43.75,132.22,167.882,107.125,99.3732,35.1086,0.0696826,1.48455,18.5276,57.4125,8.85187,0.0,0.0
178,44.25,132.231,168.186,110.69,99.3885,36.8754,0.0698555,1.48891,18.511,57.2523,8.43546,0.0,0.0
180,44.75,132.875,169.152,105.929,99.3684,39.4337,0.0700692,1.49213,18.4942,57.0821,7.86307,0.0,0.0
182,45.25,133.279,169.213,103.411,99.3853,35.3905,0.0702422,1.49282,18.4774,57.0221,8.78487,0.0,0.0
184,45.75,134.049,169.444,99.8598,99.3669,38.6109,0.0703824,1.49167,18.4638,56.872,8.04234,0.0,0.0
186,46.25,134.466,170.507,110.592,99.3665,39.3084,0.070568,1.49074,18.4527,56.8019,7.88997,0.0,0.0
188,46.75,135.178,171.093,112.213,99.3771,37.8256,0.0707183,1.48609,18.4438,56.7018,8.21802,0.0,0.0
190,47.25,135.549,171.341,112.305,99.3739,40.3338,0.0708139,1.48232,18.4366,56.5517,7.67152,0.0,0.0
192,47.75,135.793,171.859,93.2499,99.3606,35.9523,0.0708913,1.47883,18.4307,56.4215,8.64876,0.0,0.0
194,48.25,136.524,172.322,119.434,99.3787,37.4748,0.0709179,1.47561,18.426,56.2914,8.29744,0.0,0.0
196,48.75,137.002,172.795,111.456,99.3661,40.1292,0.0709071,1.47299,18.4245,56.1613,7.71413,0.0,0.0
198,49.25,137.214,173.846,108.947,99.3692,40.409,0.0708984,1.47012,18.4255,56.0212,7.65527,0.0,0.0
200,49.75,137.97,174.176,104.694,99.3641,37.2262,0.0707671,1.46779,18.4308,55.851,8.35281,0.0,0.0
202,50.25,137.761,173.918,105.889,99.3704,33.3835,0.0705538,1.46325,18.439,55.771,9.28028,0.0,0.0
204,50.75,138.782,174.69,130.777,99.3779,38.4313,0.0704575,1.45958,18.4459,55.7109,8.08295,0.0,0.0
206,51.25,139.569,175.258,113.555,99.3834,36.5705,0.0702928,1.45417,18.4517,55.5107,8.50566,0.0,0.0
208,51.75,139.84,175.868,105.281,99.3775,37.5479,0.0700586,1.44979,18.4569,55.3606,8.28076,0.0,0.0
210,52.25,139.983,176.275,106.916,99.3779,41.9795,0.0698689,1.44549,18.4615,55.2705,7.33162,0.0,0.0
212,52.75,140.742,176.956,107.577,99.3818,36.3386,0.0696982,1.43955,18.4691,55.1804,8.55963,0.0,0.0
214,53.25,141.232,177.804,101.428,99.3834,38.2161,0.0695445,1.43795,18.4726,55.0803,8.13117,0.0,0.0
216,53.75,141.836,177.366,110.553,99.3747,36.3386,0.0694157,1.43214,18.4838,54.9702,8.55902,0.0,0.0
218,54.25,141.594,178.754,105.567,99.359,33.5318,0.0693887,1.42994,18.4884,54.7901,9.2416,0.0,0.0
220,54.75,142.253,178.971,114.361,99.3779,35.7476,0.0693801,1.42617,18.4963,54.73,8.6988,0.0,0.0
222,55.25,142.767,179.233,105.122,99.3559,37.4225,0.0694071,1.42312,18.5032,54.5699,8.30735,0.0,0.0
224,55.75,143.68,180.77,113.601,99.3618,39.4462,0.069464,1.42029,18.5087,54.3897,7.85979,0.0,0.0
226,56.25,143.821,180.665,103.23,99.3622,34.6282,0.0695418,1.418,18.5145,54.2796,8.96814,0.0,0.0
228,56.75,144.603,181.347,109.816,99.3637,34.7953,0.0696048,1.41694,18.5192,54.1695,8.92732,0.0,0.0
230,57.25,145.311,181.536,106.197,99.3355,34.8496,0.0696835,1.41609,18.524,54.0294,8.91163,0.0,0.0
232,57.75,145.591,182.207,104.017,99.3575,33.607,0.0697472,1.41626,18.5287,53.8192,9.22241,0.0,0.0
234,58.25,145.588,182.263,103.627,99.3359,32.9282,0.0697923,1.41717,18.5324,53.7291,9.39415,0.0,0.0
236,58.75,146.505,182.997,102.352,99.3586,32.7946,0.0698289,1.41791,18.5355,53.5789,9.43071,0.0,0.0
238,59.25,147.112,183.59,103.475,99.3284,30.7124,0.0698585,1.41851,18.538,53.4488,9.9862,0.0,0.0
240,59.75,147.115,183.921,102.069,99.3496,33.6341,0.0698825,1.42276,18.54,53.3187,9.21487,0.0,0.0
242,60.25,147.703,184.59,110.81,99.3433,31.27,0.0699251,1.42621,18.5417,53.2386,9.8344,0.0,0.0
244,60.75,148.325,185.164,101.945,99.3461,32.0114,0.0699804,1.429,18.5442,53.1185,9.63527,0.0,0.0
246,61.25,148.419,185.777,102.926,99.3343,32.8739,0.0700734,1.43418,18.5462,52.9484,9.40806,0.0,0.0
248,61.75,148.878,186.335,112.229,99.3174,30.6602,0.070192,1.43988,18.5447,52.8283,9.99973,0.0,0.0
250,62.25,149.148,186.51,110.405,99.337,29.4113,0.0703526,1.44585,18.5435,52.7182,10.3552,0.0,0.0
252,62.75,149.773,187.043,101.415,99.3327,31.7441,0.0705409,1.45196,18.5382,52.528,9.70547,0.0,0.0
254,63.25,150.356,187.084,93.7368,99.3217,35.0919,0.070765,1.45807,18.5338,52.3278,8.85152,0.0,0.0
256,63.75,150.828,187.993,106.13,99.3296,29.1941,0.0710111,1.46319,18.5245,52.2177,10.4176,0.0,0.0
258,64.25,150.774,188.306,98.2539,99.317,29.8123,0.0712893,1.4675,18.517,52.0576,10.2383,0.0,0.0
260,64.75,151.24,189.227,100.663,99.3304,30.6352,0.0715855,1.47076,18.5047,52.0175,10.0078,0.0,0.0
262,65.25,151.884,189.763,108.625,99.3194,26.1805,0.0719132,1.4732,18.4947,51.8574,11.3437,0.0,0.0
264,65.75,152.33,189.873,113.984,99.3229,27.2185,0.0722577,1.47518,18.4818,51.7172,11.0132,0.0,0.0
266,66.25,152.193,190.308,95.8877,99.3158,25.5728,0.0725367,1.47712,18.4713,51.5471,11.5432,0.0,0.0
268,66.75,152.922,190.506,106.013,99.3343,31.0382,0.0730663,1.47869,18.4621,51.487,9.89693,0.0,0.0
270,67.25,153.358,191.167,96.864,99.3237,26.0719,0.0734953,1.48109,18.4541,51.1467,11.3794,0.0,0.0
272,67.75,153.759,191.713,102.576,99.3374,28.7326,0.074135,1.48405,18.4475,51.1667,10.5539,0.0,0.0
274,68.25,154.329,192.548,101.298,99.3433,30.3052,0.0746532,1.48644,18.4422,51.0166,10.101,0.0,0.0
276,68.75,155.144,192.253,101.617,99.3437,29.9439,0.0752471,1.49088,18.438,50.8565,10.2031,0.0,0.0
278,69.25,155.195,193.285,97.1235,99.3437,31.0111,0.075885,1.49447,18.4336,50.7063,9.90518,0.0,0.0
280,69.75,155.71,194.106,114.566,99.3504,31.4831,0.076512,1.49886,18.4301,50.6663,9.77724,0.0,0.0
282,70.25,156.178,193.806,111.452,99.3547,31.623,0.0771192,1.50241,18.4246,50.5662,9.73988,0.0,0.0
284,70.75,156.402,194.34,117.097,99.3461,33.2081,0.077611,1.507,18.4179,50.4861,9.32303,0.0,0.0
286,71.25,157.116,194.47,96.825,99.3543,32.8343,0.0782096,1.51071,18.409,50.366,9.42005,0.0,0.0
288,71.75,157.309,194.714,114.501,99.3469,33.4629,0.0786945,1.51586,18.3987,50.2359,9.25807,0.0,0.0
290,72.25,157.389,194.736,104.343,99.3606,33.5778,0.0792525,1.52003,18.3896,50.1358,9.23009,0.0,0.0
292,72.75,157.423,194.438,111.077,99.3465,31.0925,0.0797045,1.52386,18.3816,50.0257,9.8831,0.0,0.0
294,73.25,157.504,194.413,117.038,99.3822,33.7532,0.0800706,1.52735,18.3751,49.9857,9.1876,0.0,0.0
296,73.75,157.329,193.778,114.454,99.3798,39.2228,0.0806375,1.53018,18.3689,49.8756,7.90967,0.0,0.0
298,74.25,156.886,193.027,116.985,99.3865,31.9843,0.0810968,1.53476,18.3631,49.7755,9.64595,0.0,0.0
300,74.75,156.993,192.414,106.563,99.3763,31.151,0.0816889,1.53847,18.3553,49.6654,9.86967,0.0,0.0
302,75.25,156.803,191.59,123.04,99.3975,31.7128,0.0821685,1.54591,18.3463,49.5553,9.71942,0.0,0.0
304,75.75,156.701,190.496,123.749,99.3916,35.0981,0.0828059,1.55193,18.3376,49.4652,8.85598,0.0,0.0
306,76.25,156.446,189.824,126.771,99.4046,38.9638,0.0833221,1.5603,18.3293,49.4452,7.96814,0.0,0.0
308,76.75,155.206,188.181,119.146,99.3955,37.5646,0.0839626,1.56708,18.3214,49.3151,8.27852,0.0,0.0
310,77.25,155.085,187.075,133.013,99.4238,41.4114,0.0844814,1.57206,18.3139,49.285,7.45146,0.0,0.0
312,77.75,154.498,185.744,128.923,99.4061,37.9447,0.0850358,1.5761,18.3026,49.305,8.19378,0.0,0.0
314,78.25,153.906,183.666,123.104,99.4132,38.3686,0.0854849,1.57604,18.2885,49.245,8.09985,0.0,0.0
316,78.75,153.55,183.244,136.665,99.3998,48.0297,0.085811,1.573,18.2771,49.1349,6.18802,0.0,0.0
318,79.25,152.645,182.237,136.685,99.4548,57.6845,0.0860413,1.57054,18.2679,49.1049,4.63435,0.0,0.0
320,79.75,152.08,180.708,131.611,99.4336,58.5574,0.0862278,1.55019,18.2605,49.0248,4.50475,0.0,0.0
322,80.25,151.284,179.33,135.744,99.4611,67.4688,0.0860317,1.53371,18.2544,49.0949,3.30191,0.0,0.0
324,80.75,150.877,177.478,133.177,99.4489,63.5425,0.0855605,1.50553,18.2495,49.0548,3.81096,0.0,0.0
326,81.25,150.186,176.195,138.653,99.4678,70.9209,0.0847064,1.46934,18.2455,49.0248,2.87793,0.0,0.0
328,81.75,149.329,174.746,141.641,99.4725,77.535,0.0835892,1.44003,18.2423,48.9247,2.11974,0.0,0.0
330,82.25,148.35,172.732,144.392,99.4909,79.4355,0.0826843,1.41629,18.2455,48.9848,1.9153,0.0,0.0
332,82.75,147.115,171.549,140.816,99.4807,84.834,0.0811686,1.36444,18.248,48.9848,1.35502,0.0,0.0
334,83.25,146.497,170.079,141.444,99.5074,89.0443,0.0792363,1.32245,18.2757,48.9747,0.945204,0.0,0.0
336,83.75,145.988,168.417,145.868,99.5137,92.3942,0.0771286,1.26728,18.298,48.9547,0.63155,0.0,0.0
338,84.25,144.587,166.385,143.143,99.5239,93.405,0.0749331,1.22259,18.364,48.9747,0.539851,0.0,0.0
340,84.75,144.012,164.403,142.996,99.5263,94.7207,0.0726229,1.16816,18.4174,48.9647,0.421047,0.0,0.0
342,85.25,143.032,163.053,148.338,99.5573,97.2727,0.0702732,1.11625,18.5089,49.0048,0.197505,0.0,0.0
344,85.75,142.342,161.702,147.643,99.5608,99.6869,0.0678101,1.06717,18.583,48.9747,-0.0107727,0.0,0.0
346,86.25,141.114,159.747,145.876,99.5702,99.7935,0.065311,1.02741,18.6905,48.9647,-0.019053,0.0,0.0
348,86.75,140.368,157.914,149.687,99.5824,100.299,0.0632868,0.97772,18.7775,48.9547,-0.0609918,0.0,0.0
350,87.25,139.244,156.094,148.897,99.5875,100.833,0.0609054,0.937472,18.8654,48.9547,-0.105787,0.0,0.0
352,87.75,137.503,154.642,148.631,99.5918,99.8603,0.058309,0.894057,18.9524,48.9347,-0.0229039,0.0,0.0
354,88.25,136.662,153.04,151.492,99.615,99.8081,0.055603,0.849157,19.0228,48.9147,-0.0164761,0.0,0.0
356,88.75,136.06,150.637,149.338,99.6197,99.7976,0.0528683,0.803717,19.1034,48.9447,-0.0151836,0.0,0.0
358,89.25,134.949,149.936,146.34,99.6299,100.497,0.0500069,0.758747,19.1686,48.9547,-0.0737473,0.0,0.0
360,89.75,133.428,148.341,145.082,99.6248,99.7997,0.0458712,0.697749,19.2787,48.9547,-0.0149261,0.0,0.0
362,90.25,132.929,146.791,150.476,99.6585,100.451,0.0442296,0.675634,19.3083,48.9547,-0.0674103,0.0,0.0
364,90.75,132.324,145.371,150.33,99.6668,100.554,0.0414224,0.630946,19.4041,48.9747,-0.07537,0.0,0.0
366,91.25,131.195,144.19,147.906,99.706,100.992,0.0391486,0.588566,19.4817,48.9547,-0.109045,0.0,0.0
368,91.75,130.356,142.817,151.666,99.6966,100.155,0.0361317,0.554237,19.5627,48.9347,-0.0390062,0.0,0.0
370,92.25,129.351,142.084,146.674,99.7135,100.748,0.033688,0.511346,19.6447,48.9347,-0.0878001,0.0,0.0
372,92.75,129.021,140.713,147.761,99.7217,100.364,0.0308671,0.476604,19.7111,48.9247,-0.0545842,0.0,0.0
374,93.25,127.764,139.686,149.667,99.7135,100.627,0.0285821,0.448464,19.7985,48.9347,-0.0775656,0.0,0.0
376,93.75,127.468,138.067,147.733,99.7351,100.543,0.0267313,0.413647,19.8693,48.9247,-0.0686571,0.0,0.0
378,94.25,126.821,136.361,149.504,99.7351,100.963,0.0244012,0.385445,19.9398,48.9347,-0.104104,0.0,0.0
380,94.75,125.957,135.661,148.674,99.7496,100.71,0.0225138,0.353613,20.0085,48.9047,-0.0815444,0.0,0.0
382,95.25,125.565,134.834,147.601,99.7473,100.865,0.0206898,0.327829,20.0785,48.9147,-0.0947912,0.0,0.0
384,95.75,124.56,133.699,151.743,99.7838,100.159,0.0192123,0.303926,20.1479,48.8947,-0.0319274,0.0,0.0
386,96.25,123.293,132.631,150.753,99.7869,100.591,0.0178998,0.281846,20.2151,48.8947,-0.0683018,0.0,0.0
388,96.75,122.997,131.151,149.117,99.7901,100.859,0.0168367,0.261703,20.2794,48.9247,-0.090613,0.0,0.0
390,97.25,122.395,130.259,149.989,99.8042,101.318,0.0159869,0.243353,20.3314,48.8947,-0.128078,0.0,0.0
392,97.75,121.512,129.314,151.062,99.8124,101.255,0.0153089,0.226721,20.3922,48.9347,-0.122113,0.0,0.0
394,98.25,120.76,128.632,151.987,99.8423,100.71,0.0148058,0.211656,20.4414,48.9147,-0.073646,0.0,0.0
396,98.75,120.145,127.37,154.684,99.8591,101.159,0.0144399,0.198373,20.4919,48.9047,-0.110056,0.0,0.0
398,99.25,119.427,126.345,147.972,99.8591,100.714,0.0141757,0.18664,20.5328,48.8947,-0.0725611,0.0,0.0
400,99.75,118.979,125.636,146.346,99.8717,101.251,0.0139907,0.177137,20.5739,48.9047,-0.11671,0.0,0.0
402,100.25,118.26,125.04,148.688,99.8756,101.255,0.0138408,0.168297,20.6072,48.9147,-0.116727,0.0,0.0
404,100.75,117.866,124.225,149.469,99.8905,101.466,0.0137087,0.160107,20.6342,48.9147,-0.133161,0.0,0.0
406,101.25,116.909,123.338,151.238,99.8882,100.811,0.013592,0.152557,20.6618,48.9047,-0.0781971,0.0,0.0
408,101.75,116.701,122.322,150.209,99.9298,101.345,0.0134975,0.145616,20.6841,48.9047,-0.119655,0.0,0.0
410,102.25,116.148,121.834,149.954,99.9106,101.585,0.0133128,0.139994,20.7039,48.9047,-0.141431,0.0,0.0
412,102.75,115.333,120.848,149.519,99.9557,101.067,0.0130305,0.131351,20.7213,48.8847,-0.0941,0.0,0.0
414,103.25,114.685,119.757,149.191,99.9341,101.082,0.0129112,0.129026,20.7371,48.8947,-0.0971683,0.0,0.0
416,103.75,114.701,119.159,148.513,99.9443,101.725,0.012533,0.121766,20.7574,48.9247,-0.150268,0.0,0.0
418,104.25,113.439,117.9,149.721,99.9632,100.163,0.0123762,0.119813,20.7629,48.9247,-0.017,0.0,0.0
420,104.75,113.08,117.424,149.734,99.9828,100.771,0.0119939,0.11505,20.7802,48.9347,-0.0667939,0.0,0.0
422,105.25,112.559,116.804,147.594,99.98,101.61,0.0116642,0.111078,20.7902,48.9047,-0.137616,0.0,0.0
424,105.75,112.125,115.99,151.566,99.9918,100.591,0.01146,0.109384,20.7954,48.9047,-0.0508486,0.0,0.0
426,106.25,111.917,115.809,149,99.9981,101.216,0.0111108,0.105594,20.8044,48.8947,-0.102965,0.0,0.0
428,106.75,110.88,114.869,150.025,100.041,101.239,0.0106829,0.102524,20.8123,48.9047,-0.101256,0.0,0.0
430,107.25,110.689,113.904,152.221,100.031,101.464,0.0103363,0.0994332,20.8193,48.9147,-0.121058,0.0,0.0
432,107.75,109.887,113.373,148.668,100.066,101.5,0.0100555,0.0963865,20.8251,48.9047,-0.121064,0.0,0.0
434,108.25,109.519,112.935,149.255,100.045,100.664,0.0096313,0.0939187,20.8306,48.9147,-0.0524874,0.0,0.0
436,108.75,109.187,112.427,150.911,100.052,101.061,0.00928772,0.0908603,20.836,48.9147,-0.0853575,0.0,0.0
438,109.25,108.522,111.602,153.185,100.061,101.157,0.00886313,0.0883831,20.8412,48.9247,-0.0926731,0.0,0.0
440,109.75,107.8,111.291,149.751,100.08,100.021,0.00851922,0.0856295,20.8463,48.9147,0.00498847,0.0,0.0
442,110.25,107.914,110.313,153.118,100.076,100.608,0.00807644,0.083399,20.8511,48.9047,-0.045117,0.0,0.0
444,110.75,107.027,109.696,154.333,100.095,100.66,0.00771778,0.0811917,20.8557,48.9147,-0.0478964,0.0,0.0
446,111.25,106.445,109.479,152.065,100.086,101.523,0.00735738,0.0790432,20.8602,48.9247,-0.121287,0.0,0.0
448,111.75,106.414,108.453,148.244,100.093,101.531,0.00700254,0.0769702,20.8646,48.9147,-0.121353,0.0,0.0
450,112.25,105.809,107.648,152.197,100.108,100.689,0.00664419,0.0749915,20.8682,48.9147,-0.0492663,0.0,0.0
452,112.75,105.044,107.48,152.093,100.119,101.283,0.00629008,0.0730491,20.8724,48.9047,-0.0983004,0.0,0.0
454,113.25,105.037,106.989,150.746,100.13,101.101,0.00595889,0.0711701,20.8759,48.9147,-0.082124,0.0,0.0
456,113.75,103.75,106.757,155.706,100.126,100.14,0.0056507,0.069648,20.88,48.8947,-0.00122779,0.0,0.0
458,114.25,103.802,105.444,150.538,100.128,101.301,0.00540106,0.0679247,20.8833,48.8947,-0.0991454,0.0,0.0
460,114.75,103.273,105.503,151.679,100.14,100.992,0.00514242,0.0665288,20.886,48.8847,-0.0721126,0.0,0.0
462,115.25,103.139,104.932,151.869,100.135,100.817,0.00488213,0.0651476,20.889,48.8747,-0.0576884,0.0,0.0
464,115.75,103.305,104.708,149.854,100.162,101.257,0.00462972,0.0638034,20.8915,48.8947,-0.0925265,0.0,0.0
466,116.25,102.557,103.875,156.515,100.171,100.451,0.00438784,0.0627146,20.8944,48.9047,-0.0237886,0.0,0.0
468,116.75,102.021,103.423,152.007,100.162,101.182,0.00419193,0.0615529,20.8968,48.9147,-0.0862068,0.0,0.0
470,117.25,101.845,103.165,155.74,100.192,100.875,0.00394471,0.0606119,20.8989,48.9047,-0.0578201,0.0,0.0
472,117.75,101.244,102.447,148.936,100.175,101.358,0.00374447,0.0595561,20.9008,48.8847,-0.0998785,0.0,0.0
474,118.25,100.798,101.983,152.419,100.177,100.994,0.00350968,0.0587009,20.9029,48.8947,-0.069154,0.0,0.0
476,118.75,100.4,101.539,148.722,100.18,101.103,0.00328582,0.0577008,20.9049,48.8847,-0.0779975,0.0,0.0
478,119.25,99.841,100.853,150.553,100.189,101.14,0.00307417,0.0568908,20.9066,48.8847,-0.0804268,0.0,0.0
480,119.75,99.6884,100.944,150.266,100.187,101.441,0.00287545,0.0560112,20.908,48.8646,-0.10582,0.0,0.0
482,120.25,98.7885,100.444,150.075,100.194,101.143,0.00268992,0.0552988,20.9098,48.8747,-0.0802026,0.0,0.0
484,120.75,99.1326,99.5681,149.371,100.163,101.151,0.00253965,0.0547217,20.9119,48.8847,-0.0835055,0.0,0.0
486,121.25,98.6816,99.5453,149.06,100.2,100.712,0.00241793,0.0539332,20.9136,48.9047,-0.0433701,0.0,0.0
488,121.75,98.6734,99.282,155.775,100.197,101.289,0.00227478,0.0532946,20.9149,48.8747,-0.0921912,0.0,0.0
490,122.25,98.1434,98.6816,148.429,100.198,100.746,0.00215884,0.052568,20.916,48.8947,-0.046359,0.0,0.0
492,122.75,97.6563,98.2063,152.707,100.186,101.222,0.00205732,0.0519795,20.9169,48.8847,-0.0875091,0.0,0.0
494,123.25,97.3633,98.0951,154.498,100.205,101.113,0.00196826,0.0514295,20.9181,48.8947,-0.0767428,0.0,0.0
496,123.75,97.5424,97.5688,147.62,100.178,101.207,0.00188915,0.0509179,20.9193,48.9047,-0.0869804,0.0,0.0
498,124.25,97.1107,97.4744,146.634,100.194,101.138,0.00181881,0.0504448,20.9204,48.9047,-0.0797849,0.0,0.0
500,124.75,96.5181,97.3395,152.27,100.192,100.844,0.00175234,0.0500087,20.9214,48.8947,-0.0551778,0.0,0.0
502,125.25,96.1271,96.1036,152.301,100.207,101.189,0.00168996,0.0495968,20.9222,48.9047,-0.0829335,0.0,0.0
504,125.75,95.711,96.2611,155.187,100.196,101.211,0.00162742,0.0492104,20.923,48.8947,-0.0857648,0.0,0.0
506,126.25,95.3752,95.987,148.176,100.212,101.03,0.00156595,0.0488533,20.9239,48.8947,-0.0691116,0.0,0.0
508,126.75,95.0923,95.4752,155.242,100.176,100.808,0.00150478,0.0485246,20.9246,48.8847,-0.0535156,0.0,0.0
510,127.25,94.7426,94.7294,152.599,100.195,100.698,0.001445,0.0482582,20.9252,48.8947,-0.0425684,0.0,0.0
512,127.75,94.6298,94.6488,153.953,100.177,100.85,0.00139658,0.0480425,20.9261,48.8847,-0.0570058,0.0,0.0
514,128.25,93.947,94.3036,156.761,100.167,101.51,0.00135735,0.0477006,20.9269,48.8847,-0.113332,0.0,0.0
516,128.75,94.1382,94.1147,149.266,100.161,100.89,0.00131737,0.0474236,20.9271,48.9147,-0.0617202,0.0,0.0
518,129.25,93.4285,94.1182,150.794,100.176,101.051,0.0012776,0.0471553,20.927,48.9247,-0.0739365,0.0,0.0
520,129.75,93.2282,93.7507,153.968,100.176,101.036,0.00124664,0.0468984,20.9268,48.9147,-0.0727059,0.0,0.0
522,130.25,92.8028,93.1991,148.443,100.178,101.458,0.00122271,0.0466609,20.9267,48.9047,-0.107988,0.0,0.0
524,130.75,93.1078,92.9552,148.409,100.145,101.704,0.00120332,0.0464422,20.9267,48.9247,-0.131463,0.0,0.0
526,131.25,93.3283,92.9041,147.757,100.165,101.621,0.00118881,0.0462651,20.9266,48.9447,-0.12277,0.0,0.0
528,131.75,91.9509,92.1579,153.243,100.129,101.055,0.00117706,0.0460811,20.9265,48.9347,-0.0782893,0.0,0.0
530,132.25,92.3316,92.107,151.155,100.159,101.028,0.00115674,0.045932,20.9271,48.9247,-0.0734695,0.0,0.0
532,132.75,92.2628,91.9193,155.049,100.126,101.888,0.00114028,0.0458391,20.9276,48.8947,-0.148456,0.0,0.0
534,133.25,91.4011,91.4701,152.835,100.136,100.564,0.00110057,0.0457639,20.9279,48.8847,-0.0362699,0.0,0.0
536,133.75,91.0457,91.5215,148.441,100.107,101.226,0.00106841,0.0457169,20.9282,48.9047,-0.0945968,0.0,0.0
538,134.25,90.9011,91.2829,149.407,100.116,101.134,0.00102198,0.0456788,20.9285,48.9547,-0.086069,0.0,0.0
540,134.75,91.1271,90.7086,150.628,100.089,101.195,0.000984379,0.0456333,20.9287,48.9447,-0.0934986,0.0,0.0
542,135.25,90.4534,90.4564,154.297,100.092,101.084,0.000953919,0.0455832,20.9288,48.9547,-0.0838871,0.0,0.0
544,135.75,90.4125,90.2554,149.947,100.08,101.848,0.000906493,0.0455427,20.929,48.9547,-0.149046,0.0,0.0
546,136.25,90.4522,90.1409,149.97,100.083,100.89,0.000868078,0.0454542,20.9291,48.9347,-0.0683581,0.0,0.0
548,136.75,90.3064,89.8598,152.416,100.089,101.159,0.000834567,0.0453825,20.9292,48.9247,-0.0904792,0.0,0.0
550,137.25,89.8163,89.806,152.159,100.063,100.666,0.000807423,0.0452826,20.9292,48.9247,-0.0511287,0.0,0.0
552,137.75,89.3468,89.0984,151.392,100.056,100.499,0.000787831,0.0452017,20.9293,48.9147,-0.0375972,0.0,0.0
554,138.25,89.0633,88.8017,152.791,100.051,101.736,0.000771962,0.0451223,20.9293,48.9247,-0.142024,0.0,0.0
556,138.75,89.0361,88.7422,148.683,100.044,100.967,0.000761501,0.0450579,20.9294,48.9147,-0.0781096,0.0,0.0
558,139.25,88.4818,88.2275,154.287,100.01,100.291,0.000753029,0.0450615,20.9294,48.8947,-0.0238395,0.0,0.0
560,139.75,88.8747,88.2604,150.081,100.026,100.886,0.000744969,0.0450644,20.9294,48.9147,-0.0727795,0.0,0.0
562,140.25,87.6196,88.0694,154.297,100.001,101.053,0.000738441,0.0450389,20.9294,48.9047,-0.0890279,0.0,0.0
564,140.75,88.3902,87.9522,151.882,100.013,101.193,0.00072597,0.0450182,20.9294,48.9047,-0.0997652,0.0,0.0
566,141.25,87.8372,87.4285,149.78,99.9899,101.514,0.000715868,0.0450015,20.9295,48.9247,-0.128733,0.0,0.0
568,141.75,87.2225,87.1283,153.23,99.9934,101.055,0.000707686,0.0448905,20.9295,48.9047,-0.0898381,0.0,0.0
570,142.25,87.268,87.4224,146.277,99.9863,100.689,0.000683108,0.0448005,20.9295,48.8947,-0.0596144,0.0,0.0
572,142.75,87.2081,87.6962,148.876,99.9604,100.257,0.0006632,0.0447643,20.9295,48.9047,-0.0252126,0.0,0.0
574,143.25,86.8912,87.0926,148.771,99.9325,101.155,0.000643926,0.044768,20.9295,48.9147,-0.103452,0.0,0.0
576,143.75,87.0677,86.2529,150.602,99.9365,101.579,0.000625481,0.044771,20.9295,48.9047,-0.138701,0.0,0.0
578,144.25,86.4936,86.6436,150.469,99.9259,101.101,0.000613688,0.0447594,20.9295,48.8847,-0.0994527,0.0,0.0
580,144.75,86.6556,86.5821,156.798,99.9066,101.176,0.000604105,0.0447315,20.9295,48.8947,-0.107415,0.0,0.0
582,145.25,86.3387,86.096,149.421,99.8811,101.312,0.000601527,0.0447147,20.9295,48.8947,-0.120995,0.0,0.0
584,145.75,85.7532,86.2754,152.645,99.8682,100.9,0.000609086,0.044686,20.9295,48.8747,-0.0874784,0.0,0.0
586,146.25,85.9656,85.8523,152.577,99.8505,100.959,0.000621508,0.0446767,20.9295,48.8747,-0.0939133,0.0,0.0
588,146.75,85.7495,85.4641,151.601,99.8446,101.03,0.00063724,0.0446692,20.9295,48.8646,-0.100397,0.0,0.0
590,147.25,85.5645,85.3408,152.624,99.8281,100.522,0.000652503,0.0446352,20.9295,48.8546,-0.0589577,0.0,0.0
592,147.75,85.4228,84.765,150.957,99.8089,100.794,0.000667135,0.0446077,20.9295,48.8546,-0.0835445,0.0,0.0
594,148.25,85.5532,84.841,149.289,99.7834,99.9417,0.000678987,0.0445576,20.9295,48.8747,-0.0134911,0.0,0.0
596,148.75,84.7365,84.6555,148.809,99.8065,100.773,0.000681657,0.044517,20.9295,48.8947,-0.0819816,0.0,0.0
598,149.25,84.7385,84.7179,152.819,99.7771,100.514,0.000677581,0.0444695,20.9299,48.9047,-0.0626003,0.0,0.0
600,149.75,84.7945,84.057,150.76,99.7637,100.405,0.000663574,0.0444178,20.9303,48.9147,-0.0545419,0.0,0.0
602,150.25,84.4207,84.7033,152.16,99.7528,100.491,0.000642592,0.0443759,20.9306,48.9047,-0.0627316,0.0,0.0
604,150.75,84.611,84.1517,150.125,99.7492,100.877,0.000625597,0.044342,20.9308,48.8847,-0.0956804,0.0,0.0
606,151.25,84.2012,83.8891,155.054,99.7111,100.403,0.00061183,0.0442728,20.931,48.9147,-0.058852,0.0,0.0
608,151.75,84.4164,84.1337,149.913,99.7178,100.27,0.000550473,0.0442167,20.9311,48.8847,-0.046949,0.0,0.0
610,152.25,83.7069,83.5744,150.612,99.6994,100.378,0.000500774,0.044213,20.9311,48.8747,-0.0577323,0.0,0.0
612,152.75,83.4368,83.5752,151.039,99.6876,100.443,0.000448574,0.04421,20.9311,48.8947,-0.0642235,0.0,0.0
614,153.25,83.1382,83.2516,152.93,99.6739,100.982,0.000406292,0.0442076,20.931,48.9047,-0.110914,0.0,0.0
616,153.75,83.1627,83.6133,152.409,99.6448,100.341,0.000379587,0.0442057,20.931,48.9047,-0.0592033,0.0,0.0
618,154.25,83.4662,83.0464,148.904,99.6271,100.14,0.000364745,0.0441968,20.931,48.9147,-0.0436953,0.0,0.0
620,154.75,83.11,83.0467,154.416,99.6095,100.395,0.000362157,0.044183,20.931,48.9147,-0.0668236,0.0,0.0
622,155.25,82.5644,82.5865,153.582,99.5765,101.587,0.000368551,0.0441718,20.931,48.8847,-0.170101,0.0,0.0
624,155.75,82.8617,82.8764,152.354,99.5549,101.732,0.00037373,0.0441628,20.931,48.8947,-0.184006,0.0,0.0
626,156.25,82.9357,82.2609,151.009,99.5467,100.976,0.000387488,0.0441554,20.931,48.8747,-0.121249,0.0,0.0
628,156.75,82.7306,82.1662,151.276,99.5345,100.339,0.000398633,0.0441348,20.931,48.9047,-0.0684496,0.0,0.0
630,157.25,82.1621,82.109,148.543,99.5157,100.401,0.000405268,0.044105,20.931,48.9147,-0.075371,0.0,0.0
632,157.75,82.1477,81.7321,152.787,99.4878,99.9209,0.000410642,0.0440881,20.931,48.8947,-0.0369539,0.0,0.0
634,158.25,81.4482,81.8594,147.224,99.4882,100.23,0.000414996,0.044081,20.931,48.9047,-0.063197,0.0,0.0
636,158.75,82.0324,81.854,148.619,99.447,99.9459,0.000418522,0.0440826,20.931,48.9047,-0.0425791,0.0,0.0
638,159.25,82.0372,81.5581,154.215,99.434,100.032,0.000428301,0.0440905,20.931,48.9047,-0.0509731,0.0,0.0
640,159.75,81.8627,81.5399,150.13,99.4089,100.242,0.000442452,0.0440969,20.931,48.8947,-0.0710448,0.0,0.0
642,160.25,81.4341,81.1186,156.747,99.3979,100.063,0.000461469,0.0441021,20.931,48.8847,-0.0567276,0.0,0.0
644,160.75,81.632,81.5597,156.359,99.3563,99.6514,0.000483672,0.0440989,20.931,48.8847,-0.0252376,0.0,0.0
646,161.25,81.255,81.196,152.827,99.383,100.019,0.000503545,0.0440898,20.931,48.8747,-0.054275,0.0,0.0
648,161.75,81.0477,81.2483,152.626,99.3347,99.6473,0.000521343,0.0440824,20.931,48.8947,-0.0267295,0.0,0.0
650,162.25,80.966,80.7462,150.637,99.3319,99.6514,0.00053576,0.0440752,20.931,48.9047,-0.0273216,0.0,0.0
652,162.75,80.8701,80.9202,153.008,99.2903,100.038,0.000538626,0.0440693,20.931,48.9047,-0.0638086,0.0,0.0
654,163.25,80.3799,81.0377,150.757,99.2754,99.5554,0.000533017,0.0440353,20.931,48.8947,-0.0239585,0.0,0.0
656,163.75,80.9572,80.3009,154.946,99.2479,100.027,0.000528474,0.0439813,20.9308,48.8646,-0.0665537,0.0,0.0
658,164.25,80.6741,80.5251,152.235,99.2648,99.1105,0.000520011,0.0439449,20.9307,48.8747,0.0132333,0.0,0.0
660,164.75,80.4016,80.7055,151.149,99.2197,99.428,0.000513156,0.0439221,20.931,48.8847,-0.0178435,0.0,0.0
662,165.25,80.0777,80.3639,152.776,99.226,99.8603,0.000507604,0.0439035,20.9313,48.8847,-0.0542158,0.0,0.0
664,165.75,80.0824,80.2063,149.413,99.1863,99.8436,0.000503106,0.0439164,20.9315,48.8847,-0.0561926,0.0,0.0
666,166.25,79.9415,79.9386,149.956,99.1753,99.7371,0.000495876,0.0439268,20.9317,48.8847,-0.048055,0.0,0.0
668,166.75,79.7667,79.6029,156.796,99.1459,100.113,0.000490019,0.0439213,20.9318,48.8246,-0.0825874,0.0,0.0
670,167.25,79.9427,79.3613,156.09,99.1439,99.4697,0.000479298,0.0439168,20.932,48.8046,-0.0279158,0.0,0.0
672,167.75,79.0241,79.9421,153.746,99.1019,100,0.000470613,0.043941,20.932,48.8346,-0.0767709,0.0,0.0
674,168.25,79.8535,79.8447,148.199,99.0976,100.401,0.000461691,0.0439607,20.9321,48.8446,-0.111188,0.0,0.0
676,168.75,79.5159,79.4126,151.371,99.0642,99.6765,0.000452766,0.0439839,20.9322,48.8446,-0.0524231,0.0,0.0
678,169.25,79.6785,79.4748,151.048,99.056,99.5575,0.000443083,0.0440093,20.9318,48.8346,-0.0429639,0.0,0.0
680,169.75,79.428,79.4988,152.42,99.0242,100.458,0.000438889,0.0440167,20.9313,48.8246,-0.12227,0.0,0.0
682,170.25,79.2383,79.1616,148.082,99.0257,100.017,0.000435492,0.0439941,20.9311,48.8046,-0.0847332,0.0,0.0
684,170.75,79.0167,79.2175,151.164,98.9947,99.4092,0.000438717,0.0439758,20.9309,48.8246,-0.0355448,0.0,0.0
686,171.25,78.6525,79.1915,150.549,98.9747,99.735,0.00044133,0.0439471,20.9308,48.8246,-0.0651023,0.0,0.0
688,171.75,78.9477,79.4363,148.303,98.9543,100.242,0.000446219,0.0439348,20.9307,48.8346,-0.110039,0.0,0.0
690,172.25,79.0412,79.0958,149.519,98.9292,100.433,0.000454581,0.0439145,20.9306,48.8446,-0.128313,0.0,0.0
692,172.75,78.7075,79.0397,151.73,98.8699,99.8958,0.000464241,0.0438919,20.9305,48.8546,-0.0878237,0.0,0.0
694,173.25,78.68,78.6578,150.631,98.8711,99.4844,0.000466207,0.0438858,20.9304,48.8747,-0.0526104,0.0,0.0
696,173.75,78.5996,78.9304,150.877,98.8727,99.8561,0.000469569,0.0438828,20.9304,48.8947,-0.0842072,0.0,0.0
698,174.25,78.7745,79.0078,148.899,98.8448,99.5554,0.000471033,0.0438869,20.9302,48.9047,-0.0609438,0.0,0.0
700,174.75,78.6074,78.7211,149.458,98.8295,99.2609,0.000471086,0.0438902,20.93,48.9047,-0.0370598,0.0,0.0
702,175.25,78.4286,78.5527,151.124,98.7773,99.9417,0.000471128,0.0439068,20.9299,48.8947,-0.0997113,0.0,0.0
704,175.75,78.2768,78.8084,149.729,98.7824,99.5554,0.00047475,0.0439203,20.9298,48.8646,-0.0663181,0.0,0.0
706,176.25,78.3366,78.694,154.496,98.7682,99.4008,0.000477684,0.0439312,20.9297,48.8847,-0.0543178,0.0,0.0
708,176.75,78.483,78.1212,149.199,98.7529,99.2588,0.000480061,0.04394,20.9301,48.8747,-0.0434731,0.0,0.0
710,177.25,77.964,78.3835,149.178,98.7443,98.5801,0.000489162,0.0439471,20.9304,48.8747,0.0141598,0.0,0.0
712,177.75,77.6822,78.2716,155.281,98.7262,99.2338,0.000496533,0.0439529,20.9302,48.8546,-0.043625,0.0,0.0
714,178.25,77.7787,78.0949,151.045,98.7427,99.8352,0.000502504,0.043943,20.93,48.8246,-0.0936154,0.0,0.0
716,178.75,77.6082,77.9111,155.429,98.7145,99.5157,0.000507341,0.0439217,20.9303,48.8446,-0.0687772,0.0,0.0
718,179.25,77.7688,77.9491,151.479,98.6984,99.9835,0.000505278,0.0439192,20.9306,48.8646,-0.110065,0.0,0.0
720,179.75,77.5039,78.1451,152.82,98.6858,100.228,0.000503608,0.0439303,20.9308,48.8646,-0.131914,0.0,0.0
722,180.25,77.6699,77.7084,152.456,98.6834,100.896,0.000492689,0.0439612,20.9309,48.8747,-0.188658,0.0,0.0
724,180.75,77.6504,77.68,153.457,98.6721,98.7868,0.000477554,0.0440061,20.9311,48.9147,-0.00989078,0.0,0.0
726,181.25,77.129,77.6374,150.986,98.6567,99.286,0.000459632,0.0440424,20.9312,48.9047,-0.0540897,0.0,0.0
728,181.75,77.5343,77.2299,151.819,98.6285,100.052,0.000438197,0.0440858,20.9313,48.9047,-0.121953,0.0,0.0
730,182.25,76.7466,77.2137,153.001,98.6155,99.7705,0.000414608,0.0441209,20.9309,48.9047,-0.0990622,0.0,0.0
732,182.75,76.5353,77.3262,152.527,98.6128,99.7851,0.000395501,0.0441714,20.9306,48.8947,-0.100546,0.0,0.0
734,183.25,76.9766,77.2486,149.461,98.5928,100.485,0.000381912,0.044232,20.9303,48.8847,-0.161716,0.0,0.0
736,183.75,76.9408,77.2586,154.123,98.5818,99.6849,0.000372602,0.0442811,20.9306,48.8646,-0.0946707,0.0,0.0
738,184.25,76.9793,77.2409,149.956,98.559,99.3779,0.000369463,0.0443209,20.9308,48.8747,-0.0703939,0.0,0.0
740,184.75,77.1789,77.4774,148.933,98.5531,99.451,0.000370883,0.0443531,20.9305,48.8847,-0.0771578,0.0,0.0
742,185.25,76.5462,76.9439,154.141,98.5315,99.8227,0.000372034,0.0443514,20.9303,48.8947,-0.110764,0.0,0.0
744,185.75,76.7126,77.0955,151.653,98.5633,99.3862,0.000394484,0.04435,20.9303,48.8947,-0.0707365,0.0,0.0
746,186.25,76.8991,76.9833,152.299,98.5205,99.9209,0.000412668,0.0443767,20.9306,48.9147,-0.120075,0.0,0.0
748,186.75,76.7421,76.782,151.173,98.5182,99.0521,0.000453716,0.0443983,20.9308,48.8847,-0.0459812,0.0,0.0
750,187.25,75.9892,76.6,152.611,98.4809,99.3382,0.000486964,0.0444085,20.9309,48.8446,-0.0737422,0.0,0.0
752,187.75,76.2791,76.4403,155.682,98.4919,99.3194,0.000529457,0.0444101,20.9311,48.8847,-0.0711824,0.0,0.0
754,188.25,76.0971,76.3545,153.474,98.4683,99.7559,0.000563876,0.0443976,20.9312,48.9047,-0.110525,0.0,0.0
756,188.75,76.2809,76.7748,150.916,98.4738,99.2755,0.000602532,0.0443874,20.9313,48.8847,-0.0689853,0.0,0.0
758,189.25,76.0473,76.1716,150.138,98.4487,99.4175,0.000633844,0.0443645,20.9313,48.8947,-0.0833176,0.0,0.0
760,189.75,76.1404,76.4111,149.384,98.4518,98.7263,0.000660467,0.0443327,20.9314,48.8847,-0.0236824,0.0,0.0
762,190.25,75.424,75.9862,150.359,98.4306,98.6657,0.000692843,0.0443034,20.9315,48.8847,-0.0202938,0.0,0.0
764,190.75,75.7507,76.1132,154.174,98.4491,100.157,0.000701552,0.0443001,20.9315,48.8847,-0.146318,0.0,0.0
766,191.25,75.6166,76.2039,152.505,98.424,98.2042,0.000711655,0.0442945,20.9315,48.8747,0.0190216,0.0,0.0
768,191.75,75.272,75.9142,151.911,98.4208,100.057,0.000714796,0.0442761,20.9315,48.8747,-0.14024,0.0,0.0
770,192.25,75.4638,75.924,148.677,98.3843,99.004,0.000712803,0.0442611,20.9316,48.8546,-0.0534217,0.0,0.0
772,192.75,75.9491,76.1221,147.465,98.3981,99.1231,0.000711189,0.0442072,20.9316,48.8346,-0.0624573,0.0,0.0
774,193.25,75.5178,76.1185,155.596,98.3773,99.1523,0.000709881,0.0441636,20.9316,48.8246,-0.0667653,0.0,0.0
776,193.75,75.6072,75.7684,155.443,98.3631,99.1398,0.000708822,0.0440726,20.9316,48.8346,-0.066913,0.0,0.0
778,194.25,75.6764,75.484,152.174,98.3521,98.53,0.000706767,0.0439989,20.9316,48.8146,-0.0153686,0.0,0.0
780,194.75,75.1789,75.7531,148.257,98.3714,98.8349,0.000705102,0.0439531,20.9316,48.8046,-0.0399935,0.0,0.0
782,195.25,75.2458,75.8391,150.581,98.3486,98.6344,0.000686997,0.043916,20.9316,48.8346,-0.0246862,0.0,0.0
784,195.75,75.4925,75.4245,152.021,98.3627,98.9038,0.000672332,0.043886,20.9314,48.8446,-0.0466706,0.0,0.0
786,196.25,74.7209,75.563,150.224,98.336,99.6974,0.000655389,0.0438806,20.9308,48.8446,-0.116974,0.0,0.0
788,196.75,75.3661,75.3291,151.922,98.3156,98.5508,0.000650832,0.0438976,20.9307,48.8646,-0.0203309,0.0,0.0
790,197.25,74.9148,74.9385,150.581,98.329,99.0166,0.000604768,0.0439267,20.9305,48.8446,-0.0592871,0.0,0.0
792,197.75,74.9802,75.6284,150.543,98.316,99.0917,0.000567456,0.043965,20.9305,48.8346,-0.066865,0.0,0.0
794,198.25,75.1966,75.9202,153.102,98.3258,98.6949,0.000539624,0.0440091,20.9307,48.8446,-0.0318791,0.0,0.0
796,198.75,74.6759,75.3139,152.534,98.3242,98.601,0.00051708,0.0440449,20.9311,48.8446,-0.0239097,0.0,0.0
798,199.25,75.0437,75.1014,153.804,98.3192,98.7075,0.000514363,0.0440739,20.9314,48.8646,-0.0335366,0.0,0.0
800,199.75,74.8632,75.0393,153.588,98.2968,98.5738,0.000511224,0.0440377,20.9317,48.8646,-0.0239448,0.0,0.0
802,200.25,74.5371,75.381,154.797,98.3207,97.9723,0.000522343,0.0440171,20.9318,48.8646,0.0301983,0.0,0.0
804,200.75,74.5188,75.0473,150.837,98.2948,98.1833,0.000541356,0.0439744,20.932,48.8446,0.00965997,0.0,0.0
806,201.25,74.1352,75.0369,153.38,98.3034,98.7472,0.000578303,0.0439333,20.9321,48.8546,-0.0383154,0.0,0.0
808,201.75,74.4299,75.1983,152.283,98.2854,98.0204,0.00060823,0.0439146,20.9322,48.8546,0.0229713,0.0,0.0
810,202.25,74.4485,75.0437,148.883,98.2952,98.1164,0.000635623,0.0439127,20.9323,48.8747,0.0154861,0.0,0.0
812,202.75,74.3707,75.0207,147.44,98.2756,98.4318,0.000660647,0.0439111,20.9324,48.8646,-0.013514,0.0,0.0
814,203.25,73.9826,74.8193,154.032,98.2976,98.3817,0.000680917,0.0438959,20.9324,48.8646,-0.00727705,0.0,0.0
816,203.75,74.3382,74.473,156.209,98.263,98.7764,0.000695445,0.0438836,20.9325,48.8747,-0.0443335,0.0,0.0
818,204.25,74.5056,74.7736,149.361,98.2905,98.5112,0.00070551,0.0438736,20.9325,48.8646,-0.019079,0.0,0.0
820,204.75,73.9875,74.8894,150.942,98.2611,97.5943,0.000711773,0.0438099,20.9325,48.8546,0.0579239,0.0,0.0
822,205.25,74.3243,74.5627,151.346,98.2889,98.0705,0.000715144,0.0437582,20.9325,48.8747,0.0189275,0.0,0.0
824,205.75,73.9803,74.8348,152.663,98.2732,97.9306,0.000712833,0.0437303,20.9326,48.9147,0.0297152,0.0,0.0
826,206.25,73.7246,74.5452,149.611,98.2795,98.1039,0.000706424,0.0437077,20.9326,48.9147,0.0152138,0.0,0.0
828,206.75,74.2876,74.101,152.456,98.2819,98.3316,0.000701233,0.0436894,20.9326,48.8947,-0.00430085,0.0,0.0