File: 01_Data/Latex_Pillow_Foam/Cone/Latex_Pillow_Foam_Cone_HF25Scan_230628_R4.csv
Names,Time,Stack TC,Smoke TC,Exh Press,Smoke Comp,Smoke Meas,CO Meter,CO2 Meter,O2 Meter,Sample Mass,Ext Coeff,Start Test,Flame Verif
Chan Gain,,500,500,1,1,1,1,1,1,1,1,1.0,1.0
Offset,,0,0,0.13804,0,0,0,0,0,0,0,0.0,0.0
Gain,,1,1,25.011,12.9078,45.9244,1,1,1,1.00091,0.969894,1.0,1.0
Units,sec,C,C,Pa,%,%,%,%,%,g,/m,,
Baseline,,47.0717,47.7514,159.068,99.959,100.021,0.0012577,0.0479734,20.9332,-443.344,-0.00524259,,
3,0.5,43.4676,43.9256,161.381,99.7612,99.5738,0.00121793,0.049332,20.9327,70.6345,0.0159953,1.0,0.0
6,1.25,43.5085,43.7337,156.437,99.7647,99.6354,0.00122067,0.0494332,20.9326,70.6846,0.0110305,1.0,0.0
9,2,43.3111,43.7021,155.839,99.7789,99.9494,0.00121753,0.0495908,20.9325,70.6746,-0.0145243,1.0,0.0
12,2.75,43.6413,43.839,157.099,99.7994,99.2136,0.00119812,0.0498187,20.9325,70.6545,0.0500853,0.0,0.0
15,3.5,43.393,44.4425,160.744,99.7998,97.8121,0.00116837,0.0502038,20.9325,70.6646,0.171158,0.0,0.0
18,4.25,43.583,43.9313,157.223,99.8065,96.7483,0.00114004,0.0505653,20.9324,70.6545,0.264761,0.0,0.0
21,5,43.6741,44.1441,162.843,99.8222,96.4694,0.00112058,0.0509671,20.9324,70.6445,0.290666,0.0,0.0
24,5.75,43.7686,44.2781,158.966,99.8462,95.8542,0.00110691,0.0514216,20.9324,70.7046,0.347148,0.0,0.0
27,6.5,43.7209,44.5786,159.462,99.8655,96.1443,0.00113535,0.0520295,20.9324,70.6445,0.323081,0.0,0.0
30,7.25,43.6943,44.5292,155.535,99.86,95.4071,0.00117245,0.0527241,20.932,70.6245,0.388097,0.0,0.0
33,8,43.7872,44.7589,156.86,99.8604,95.3244,0.00123891,0.0534334,20.9313,70.6545,0.395508,0.0,0.0
36,8.75,43.7872,44.879,159.72,99.89,96.5199,0.00129697,0.054114,20.9297,70.6245,0.29199,0.0,0.0
39,9.5,43.9431,44.8812,160.043,99.8923,96.796,0.0013446,0.0546899,20.9282,70.5344,0.267889,0.0,0.0
42,10.25,44.0702,45.1632,153.843,99.899,98.7833,0.00137794,0.0551377,20.9271,70.5344,0.0955521,0.0,1.0
45,11,44.5316,45.0302,153.154,99.9105,95.0932,0.001399,0.0554761,20.9263,70.5144,0.420434,0.0,1.0
48,11.75,44.2583,45.4575,150.868,99.9238,80.7726,0.00141182,0.0555632,20.9257,70.5244,1.81021,0.0,1.0
51,12.5,44.7824,46.7082,138.685,99.9333,70.3987,0.00141684,0.0555752,20.9246,70.3142,2.98053,0.0,1.0
54,13.25,45.2693,47.5325,133.993,99.94,62.94,0.00142392,0.0554959,20.9238,70.1341,3.93393,0.0,1.0
57,14,46.0846,49.5731,140.291,99.9404,66.4675,0.00143732,0.0554381,20.9233,70.064,3.47001,0.0,1.0
60,14.75,46.9835,51.1958,134.608,99.9522,65.237,0.00146114,0.0554379,20.9229,69.9339,3.63,0.0,1.0
63,15.5,47.9529,53.1985,133.415,99.9597,67.2229,0.00151798,0.0554336,20.9219,69.8438,3.37551,0.0,1.0
66,16.25,49.3343,54.8578,135.705,99.9727,60.9386,0.00160405,0.0555472,20.9213,69.7537,4.21164,0.0,0.0
69,17,49.9276,57.0122,134.353,99.9605,62.0822,0.00169027,0.0558943,20.9208,69.6536,4.05241,0.0,0.0
72,17.75,50.9906,58.8904,139.455,99.9825,61.2091,0.00179326,0.0561473,20.9192,69.5535,4.17479,0.0,0.0
75,18.5,52.2016,60.3896,130.287,99.9979,62.598,0.00186834,0.0659962,20.9178,69.4835,3.98521,0.0,0.0
78,19.25,52.962,62.0081,131.724,99.9979,60.4397,0.00211434,0.0812249,20.9168,69.3734,4.28373,0.0,0.0
81,20,53.7064,63.5564,133.416,99.9853,60.5574,0.00241574,0.10609,20.916,69.2533,4.2661,0.0,0.0
84,20.75,55.2654,65.0639,137.212,100.003,59.0942,0.00284419,0.150018,20.9093,69.0831,4.47569,0.0,0.0
87,21.5,55.5411,66.7561,128.349,100.009,57.0382,0.00375936,0.201181,20.8922,69.0431,4.77744,0.0,0.0
90,22.25,57.1614,67.7767,130.21,100.009,60.4929,0.00497506,0.246639,20.8635,68.9029,4.27714,0.0,0.0
93,23,57.8272,68.8168,125.178,100.009,61.317,0.00642411,0.300141,20.8077,68.7728,4.16209,0.0,0.0
96,23.75,59.0486,70.2533,141.787,100.031,61.7865,0.00804299,0.349034,20.7161,68.7128,4.09903,0.0,0.0
99,24.5,59.599,71.4203,127.696,100.041,55.5653,0.0100444,0.388892,20.6338,68.6127,5.00282,0.0,0.0
102,25.25,60.9413,72.3622,134.69,100.04,54.8253,0.0115035,0.429449,20.5469,68.5026,5.11675,0.0,0.0
105,26,61.3617,73.3255,127.095,100.027,58.6948,0.0135592,0.461698,20.4722,68.4025,4.53547,0.0,0.0
108,26.75,62.2355,74.7946,131.801,100.031,54.3221,0.0154438,0.489798,20.3925,68.2724,5.19448,0.0,0.0
111,27.5,62.801,75.5079,129.934,100.049,54.2437,0.0169822,0.514654,20.3344,68.1823,5.20829,0.0,0.0
114,28.25,63.3525,76.9929,137.024,100.04,54.0797,0.0181037,0.534638,20.281,68.0922,5.23324,0.0,0.0
117,29,64.1445,77.6585,131.353,100.038,55.121,0.0201543,0.558314,20.2206,67.9821,5.07088,0.0,0.0
120,29.75,65.1386,78.614,137.45,100.04,53.784,0.0211952,0.569219,20.1918,67.872,5.27993,0.0,0.0
123,30.5,65.5542,79.722,128.177,100.036,57.9492,0.0225089,0.58498,20.1498,67.7319,4.64498,0.0,0.0
126,31.25,66.3378,80.797,129.051,100.032,52.168,0.0236568,0.596932,20.1107,67.6318,5.53879,0.0,0.0
129,32,67.2079,81.3824,130.914,100.037,52.2073,0.0247186,0.605841,20.0743,67.5017,5.53283,0.0,0.0
132,32.75,67.9814,82.3916,124.387,100.051,52.4007,0.0254927,0.610992,20.0358,67.3916,5.50258,0.0,0.0
135,33.5,68.6167,83.3975,131.543,100.022,56.1735,0.0263357,0.614799,20.0077,67.2414,4.90855,0.0,0.0
138,34.25,69.5867,84.1831,127.654,100.023,62.4859,0.0270791,0.617665,19.9872,67.2114,4.00257,0.0,0.0
141,35,69.8876,85.2816,127.829,100.027,57.9324,0.0277389,0.620984,19.9719,67.0212,4.64664,0.0,0.0
144,35.75,70.8679,85.9806,125.944,100.025,59.5063,0.0283276,0.624612,19.9598,66.8911,4.41849,0.0,0.0
147,36.5,71.4766,87.8101,131.1,100.022,57.8007,0.0289456,0.628601,19.9498,66.771,4.66561,0.0,0.0
150,37.25,72.5271,88.695,132.749,100.009,55.1042,0.029529,0.632928,19.9406,66.6609,5.07096,0.0,0.0
153,38,73.3645,89.7191,120.797,99.9983,58.3571,0.0300109,0.637928,19.9332,66.5508,4.58209,0.0,0.0
156,38.75,73.522,90.5481,120.941,99.9877,56.273,0.0306175,0.64236,19.9267,66.4307,4.89057,0.0,0.0
159,39.5,75.2169,91.8337,129.357,99.9951,55.2191,0.0310597,0.649154,19.9182,66.3406,5.05206,0.0,0.0
162,40.25,75.3982,92.6537,125.745,99.9758,59.02,0.0316263,0.654107,19.9093,66.1705,4.48408,0.0,0.0
165,41,76.8148,93.5267,132.352,99.9502,52.4371,0.0321935,0.659843,19.9008,66.0704,5.48805,0.0,0.0
168,41.75,77.2329,94.3175,125.79,99.9561,56.5225,0.0326928,0.666188,19.8889,65.9102,4.85026,0.0,0.0
171,42.5,77.5595,94.5097,129.612,99.9368,53.6648,0.0330567,0.672965,19.8754,65.8301,5.29001,0.0,0.0
174,43.25,78.1882,95.6169,126.243,99.94,52.2984,0.0332506,0.682721,19.8635,65.72,5.50972,0.0,0.0
177,44,79.4048,96.2564,127.86,99.9136,52.0938,0.0333143,0.692992,19.8548,65.5899,5.54082,0.0,0.0
180,44.75,79.5965,97.2565,127.91,99.9101,56.3445,0.0332802,0.70295,19.8435,65.4598,4.87317,0.0,0.0
183,45.5,80.5044,98.2706,124.942,99.8876,53.0916,0.0331877,0.712133,19.829,65.3097,5.37718,0.0,0.0
186,46.25,81.2473,99.558,124.047,99.8833,51.8247,0.0331202,0.720973,19.8159,65.1796,5.5823,0.0,0.0
189,47,81.5391,100.092,131.088,99.8588,55.7278,0.0331367,0.727497,19.8014,65.0394,4.96243,0.0,0.0
192,47.75,82.6211,100.972,123.927,99.8529,58.7158,0.0332537,0.732389,19.7888,64.8893,4.51757,0.0,0.0
195,48.5,83.0764,102.248,128.077,99.8289,61.1867,0.0333837,0.736133,19.7758,64.7692,4.16483,0.0,0.0
198,49.25,83.8827,103.081,124.509,99.8325,58.1202,0.0336927,0.738938,19.7637,64.6391,4.60257,0.0,0.0
201,50,84.5091,104.034,123.176,99.8183,60.0851,0.0341039,0.744703,19.7511,64.5189,4.31849,0.0,0.0
204,50.75,85.4183,104.827,126.532,99.799,57.1602,0.034309,0.746792,19.7465,64.3788,4.74142,0.0,0.0
207,51.5,86.034,105.919,126.632,99.8069,56.5407,0.0345459,0.75399,19.7415,64.3088,4.8348,0.0,0.0
210,52.25,86.9253,106.491,126.363,99.7777,52.9781,0.0349785,0.761277,19.7382,64.1386,5.38603,0.0,0.0
213,53,87.3915,107.173,124.478,99.7529,54.423,0.0354342,0.771573,19.7338,64.0385,5.15497,0.0,0.0
216,53.75,87.9692,107.597,124.481,99.7493,57.589,0.0358262,0.781265,19.7271,63.9084,4.6736,0.0,0.0
219,54.5,88.9158,107.898,122.135,99.721,55.7643,0.0362969,0.789263,19.7155,63.8083,4.94512,0.0,0.0
222,55.25,89.0813,108.338,118.726,99.7056,55.2331,0.0367671,0.798328,19.7043,63.6582,5.02524,0.0,0.0
225,56,89.6999,109.006,123.579,99.6895,54.8589,0.037192,0.806834,19.6823,63.538,5.08169,0.0,0.0
228,56.75,90.1283,109.316,122.15,99.6788,52.8828,0.0375262,0.814286,19.664,63.3279,5.39291,0.0,0.0
231,57.5,90.3023,109.91,130.212,99.6516,54.608,0.0377355,0.820474,19.6488,63.2478,5.11746,0.0,0.0
234,58.25,90.5486,110.017,130.829,99.6331,55.6017,0.0378735,0.825374,19.6362,63.1277,4.96246,0.0,0.0
237,59,91.3362,110.766,118.961,99.6103,56.2604,0.037907,0.828561,19.6207,62.9775,4.86031,0.0,0.0
240,59.75,91.5365,111.367,126.345,99.5894,53.5835,0.0379155,0.830225,19.6093,62.9075,5.27328,0.0,0.0
243,60.5,92.594,112.488,120.1,99.5599,56.7257,0.037915,0.829786,19.6008,62.8174,4.78593,0.0,0.0
246,61.25,93.0828,112.785,115.351,99.5634,56.9275,0.0379431,0.828762,19.5946,62.6172,4.75602,0.0,0.0
249,62,93.3718,113.711,124.406,99.5449,58.5575,0.037966,0.826662,19.5915,62.4871,4.51426,0.0,0.0
252,62.75,94.1614,114.045,122.122,99.5106,52.4694,0.038023,0.823787,19.5879,62.397,5.44532,0.0,0.0
255,63.5,94.5991,114.97,122.859,99.5449,57.3284,0.0380707,0.820936,19.5883,62.2268,4.69474,0.0,0.0
258,64.25,95.2418,115.058,120.293,99.4913,56.2156,0.0381083,0.818877,19.5906,62.1268,4.85693,0.0,0.0
261,65,95.7613,115.689,124.988,99.448,56.3739,0.0381437,0.819299,19.5935,61.9566,4.82929,0.0,0.0
264,65.75,95.5668,115.736,117.585,99.411,52.1694,0.0381811,0.820758,19.5956,61.9166,5.48556,0.0,0.0
267,66.5,96.0717,115.671,124.933,99.3968,54.9977,0.0382307,0.823793,19.5972,61.7864,5.03519,0.0,0.0
270,67.25,96.4234,116.499,125.897,99.3826,53.8877,0.0382669,0.827777,19.5983,61.6163,5.20744,0.0,0.0
273,68,96.7601,115.916,124.068,99.3724,54.6151,0.0382628,0.831436,19.5973,61.4762,5.09249,0.0,0.0
276,68.75,96.8834,116.594,127.938,99.3531,52.7034,0.0382222,0.837361,19.5959,61.326,5.39397,0.0,0.0
279,69.5,97.3766,116.69,123.276,99.3294,53.6116,0.0381286,0.843018,19.5892,61.316,5.24659,0.0,0.0
282,70.25,97.4868,117.066,127.557,99.3192,56.7201,0.0379283,0.847737,19.5835,61.1459,4.76618,0.0,0.0
285,71,98.3766,117.718,119.58,99.2995,50.7848,0.0377299,0.851218,19.5791,60.9757,5.70488,0.0,0.0
288,71.75,98.5936,118.323,117.821,99.279,52.6516,0.0374957,0.852035,19.5696,60.8956,5.396,0.0,0.0
291,72.5,99.1282,119.463,120.464,99.2506,54.6122,0.0372441,0.851896,19.5627,60.7555,5.0825,0.0,0.0
294,73.25,99.805,120.204,121.898,99.2333,54.2885,0.037045,0.84867,19.5576,60.6054,5.1316,0.0,0.0
297,74,100.567,121.36,122.927,99.2105,51.7364,0.0368933,0.846318,19.554,60.4853,5.53931,0.0,0.0
300,74.75,101.004,121.187,117.204,99.214,49.8598,0.0367827,0.840443,19.5513,60.3451,5.85395,0.0,0.0
303,75.5,101.341,121.653,126.558,99.179,55.7194,0.0368326,0.834387,19.5514,60.235,4.90559,0.0,0.0
306,76.25,101.677,122.07,124.175,99.1526,54.1554,0.0370614,0.831255,19.5525,60.0549,5.14557,0.0,0.0
309,77,102.078,122.592,127.563,99.1313,50.6894,0.0373834,0.832438,19.5582,59.8847,5.70644,0.0,0.0
312,77.75,102.752,122.763,120.647,99.101,47.9874,0.0377841,0.837189,19.5624,59.7646,6.1699,0.0,0.0
315,78.5,102.617,123.309,115.498,99.0777,46.6868,0.038332,0.844778,19.5655,59.6445,6.40167,0.0,0.0
318,79.25,103.656,123.825,119.508,99.0576,51.1618,0.0388354,0.855668,19.5677,59.5844,5.62121,0.0,0.0
321,80,104.393,124.674,111.675,99.0375,50.7091,0.03938,0.864947,19.5631,59.3642,5.6951,0.0,0.0
324,80.75,104.918,125.946,119.282,99.0332,49.1282,0.0398911,0.874001,19.5552,59.1841,5.96419,0.0,0.0
327,81.5,105.744,126.698,124,99.0033,49.3706,0.0403123,0.880765,19.5417,59.104,5.91973,0.0,0.0
330,82.25,105.972,126.974,113.188,98.9883,47.508,0.040702,0.885767,19.5289,58.9739,6.24563,0.0,0.0
333,83,106.687,127.887,113.905,98.9781,48.433,0.0410458,0.888075,19.5144,58.8137,6.08069,0.0,0.0
336,83.75,107.105,128.426,116.898,98.9729,49.1366,0.0413381,0.889522,19.5013,58.6636,5.95755,0.0,0.0
339,84.5,107.399,129.033,114.217,98.9481,52.3082,0.041628,0.891231,19.4918,58.5435,5.42326,0.0,0.0
342,85.25,108.098,129.757,112.805,98.9265,48.4569,0.0419266,0.893766,19.4846,58.3333,6.07207,0.0,0.0
345,86,108.575,129.748,120.835,98.9182,51.6018,0.0422544,0.898896,19.4789,58.2632,5.53636,0.0,0.0
348,86.75,109.439,130.871,120.983,98.9048,43.1788,0.0426182,0.906778,19.4748,58.1131,7.05136,0.0,0.0
351,87.5,109.329,131.844,119.886,98.8855,45.3413,0.0431068,0.917213,19.4696,57.9529,6.63393,0.0,0.0
354,88.25,110.284,132.56,119.751,98.8938,47.0666,0.0434629,0.931801,19.4649,57.8529,6.31693,0.0,0.0
357,89,110.821,132.675,114.659,98.8768,48.3994,0.0440371,0.943724,19.4548,57.6727,6.0779,0.0,0.0
360,89.75,111.418,133.608,110.111,98.8626,44.5481,0.0446254,0.954618,19.4391,57.5025,6.78213,0.0,0.0
363,90.5,111.796,134.416,110.998,98.8508,46.0589,0.0451267,0.963518,19.4181,57.3724,6.49736,0.0,0.0
366,91.25,112.444,135.385,109.43,98.8264,44.8844,0.0456759,0.970947,19.3953,57.2623,6.71501,0.0,0.0
369,92,113.469,136.224,114.87,98.8292,44.1346,0.0461773,0.977273,19.374,57.1222,6.85858,0.0,0.0
372,92.75,113.335,137.182,117.057,98.8197,46.9292,0.0466384,0.983665,19.3562,56.922,6.33542,0.0,0.0
375,93.5,114.24,138.059,105.917,98.8205,46.5536,0.0470642,0.990026,19.3413,56.7418,6.40385,0.0,0.0
378,94.25,114.759,139.178,125.695,98.8134,47.8248,0.0475257,0.996274,19.3282,56.6618,6.17405,0.0,0.0
381,95,115.957,139.99,110.978,98.7732,42.9055,0.0478622,1.00338,19.3177,56.4616,7.09406,0.0,0.0
384,95.75,116.689,140.814,110.251,98.7835,41.9805,0.0483785,1.00964,19.307,56.3114,7.28037,0.0,0.0
387,96.5,116.872,141.648,115.937,98.7937,43.2853,0.0489037,1.01856,19.2979,56.1513,7.02084,0.0,0.0
390,97.25,117.576,141.794,112.634,98.7768,41.462,0.0493499,1.02505,19.2886,55.9811,7.38554,0.0,0.0
393,98,118.234,142.779,116.716,98.7634,41.6666,0.0498864,1.03752,19.2781,55.871,7.3425,0.0,0.0
396,98.75,118.853,143.058,120.365,98.7685,42.7317,0.0504137,1.05045,19.266,55.6408,7.12818,0.0,0.0
399,99.5,118.868,144.26,122.999,98.7685,44.4177,0.0508771,1.06549,19.2516,55.5207,6.79895,0.0,0.0
402,100.25,119.909,144.405,105.352,98.759,40.6547,0.0512998,1.07814,19.2318,55.4407,7.55129,0.0,0.0
405,101,120.041,145.335,115.852,98.7567,45.2152,0.0516834,1.09119,19.2134,55.2705,6.64655,0.0,0.0
408,101.75,120.314,145.916,119.016,98.7488,40.4501,0.0520302,1.10286,19.1895,55.1104,7.59334,0.0,0.0
411,102.5,121.815,146.723,119.908,98.7563,41.1312,0.0523375,1.1123,19.1721,54.9602,7.45191,0.0,0.0
414,103.25,121.933,147.536,117.451,98.7551,42.23,0.0526547,1.11894,19.15,54.8601,7.22752,0.0,0.0
417,104,122.49,148.022,114.651,98.7216,43.5166,0.0530599,1.12338,19.1306,54.6099,6.9693,0.0,0.0
420,104.75,122.65,147.905,110.622,98.7527,42.6476,0.0534407,1.12651,19.1109,54.5699,7.14358,0.0,0.0
423,105.5,123.225,148.325,118.772,98.7661,47.4576,0.0538643,1.12913,19.0959,54.3597,6.23555,0.0,0.0
426,106.25,123.796,148.666,114.851,98.7492,42.3673,0.0544075,1.13189,19.0841,54.2195,7.19938,0.0,0.0
429,107,123.917,149.117,121.167,98.75,48.2256,0.0549467,1.13513,19.0751,54.1094,6.09758,0.0,0.0
432,107.75,124.326,148.958,117.488,98.7551,44.5186,0.0554586,1.13905,19.0685,53.9793,6.77849,0.0,0.0
435,108.5,123.924,148.603,115.469,98.7405,43.7801,0.0559306,1.14254,19.0625,53.8292,6.91957,0.0,0.0
438,109.25,124.422,148.999,122.966,98.7626,45.8108,0.0563292,1.14501,19.0581,53.679,6.53571,0.0,0.0
441,110,124.34,148.888,116.875,98.7527,45.3217,0.0567132,1.14582,19.0524,53.5389,6.62619,0.0,0.0
444,110.75,124.473,149.123,114.615,98.759,47.63,0.0570381,1.146,19.0468,53.4688,6.20409,0.0,0.0
447,111.5,124.869,148.636,113.623,98.7638,43.1956,0.057295,1.14307,19.0404,53.2887,7.03591,0.0,0.0
450,112.25,124.391,148.286,123.115,98.7705,46.4205,0.0574836,1.13898,19.0357,53.1986,6.42391,0.0,0.0
453,113,124.877,148.059,133.573,98.7909,46.2439,0.0575343,1.13517,19.0313,53.0985,6.4581,0.0,0.0
456,113.75,124.194,147.379,121.752,98.774,45.9314,0.0574496,1.12765,19.0297,52.9684,6.51434,0.0,0.0
459,114.5,124.476,147.009,121.995,98.7878,52.8309,0.0572431,1.11955,19.0349,52.8583,5.32486,0.0,0.0
462,115.25,124.118,146.341,126.08,98.7831,51.4393,0.0568048,1.10917,19.0417,52.7782,5.55158,0.0,0.0
465,116,124.251,145.904,120.28,98.7976,46.3588,0.0564853,1.09562,19.048,52.6081,6.43756,0.0,0.0
468,116.75,123.927,145.449,129.647,98.8079,50.1134,0.0560111,1.08691,19.0544,52.558,5.77587,0.0,0.0
471,117.5,123.931,144.945,123.339,98.8154,49.714,0.0552393,1.0672,19.0716,52.4179,5.8446,0.0,0.0
474,118.25,123.117,143.728,128.333,98.8264,47.3259,0.0545813,1.04701,19.0937,52.3879,6.26439,0.0,0.0
477,119,122.769,142.904,122.47,98.8453,45.6258,0.0537688,1.02632,19.1212,52.2477,6.57726,0.0,0.0
480,119.75,122.415,141.911,139.574,98.8422,52.1288,0.0529384,1.00526,19.1412,52.1677,5.44337,0.0,0.0
483,120.5,120.911,141.07,129.59,98.8445,49.672,0.0522314,0.984766,19.1668,52.0576,5.85431,0.0,0.0
486,121.25,121.401,139.745,124.271,98.8634,44.5144,0.0515261,0.961023,19.1901,51.9775,6.78862,0.0,0.0
489,122,120.646,138.719,134.145,98.8634,52.7146,0.050348,0.930199,19.2337,51.8974,5.35013,0.0,0.0
492,122.75,120.234,137.845,135.294,98.9068,51.25,0.0497679,0.917709,19.2587,51.8274,5.59357,0.0,0.0
495,123.5,119.591,136.553,136.127,98.8914,54.5422,0.0490977,0.894414,19.2877,51.7072,5.06257,0.0,0.0
498,124.25,119.07,135.68,135.612,98.9178,49.3146,0.048122,0.871836,19.3308,51.6072,5.92205,0.0,0.0
501,125,118.677,134.861,140.636,98.9387,54.6865,0.0471082,0.845807,19.3688,51.5371,5.04415,0.0,0.0
504,125.75,118.138,133.406,131.124,98.9607,55.4419,0.0460837,0.814787,19.4076,51.427,4.92933,0.0,0.0
507,126.5,117.464,133.241,142.373,98.9765,53.7027,0.045069,0.785385,19.4484,51.3769,5.20186,0.0,0.0
510,127.25,116.784,131.943,136.791,98.9749,47.0147,0.0439181,0.761058,19.4977,51.3069,6.33328,0.0,0.0
513,128,116.789,131.013,137.341,98.9974,50.3951,0.042853,0.736514,19.5418,51.1768,5.74448,0.0,0.0
516,128.75,115.88,130.174,143.105,99.008,53.7699,0.041876,0.714955,19.5992,51.0867,5.19392,0.0,0.0
519,129.5,114.463,129.154,138.678,99.0107,50.1106,0.0409857,0.697677,19.6507,51.0166,5.7938,0.0,0.0
522,130.25,114.54,127.285,147.39,99.0612,60.4579,0.0402128,0.679227,19.6925,50.9966,4.20109,0.0,0.0
525,131,114.359,127.259,139.783,99.0505,65.2454,0.0394375,0.664032,19.7317,50.9566,3.5518,0.0,0.0
528,131.75,113.205,125.775,138.656,99.0691,61.3465,0.0386821,0.649972,19.7628,50.8965,4.07764,0.0,0.0
531,132.5,112.536,124.367,143.133,99.0801,74.0749,0.0379566,0.633899,19.7899,50.8465,2.47452,0.0,0.0
534,133.25,111.79,123.567,142.607,99.1002,80.8567,0.0372674,0.619181,19.8204,50.8364,1.73094,0.0,0.0
537,134,111.264,122.285,142.685,99.1293,84.4698,0.0364839,0.607172,19.8483,50.8164,1.36152,0.0,0.0
540,134.75,110.309,121.074,146.47,99.1368,87.1957,0.0356816,0.594509,19.8755,50.8064,1.09194,0.0,0.0
543,135.5,109.499,119.341,147.656,99.1526,86.7178,0.0349211,0.583173,19.9029,50.7764,1.14005,0.0,0.0
546,136.25,108.628,118.229,155.551,99.177,91.9931,0.0342349,0.572922,19.9323,50.7864,0.639729,0.0,0.0
549,137,107.65,116.41,148.103,99.1856,90.8831,0.0336462,0.563585,19.9538,50.7764,0.743753,0.0,0.0
552,137.75,106.801,114.68,147.665,99.2243,94.1794,0.0330657,0.552868,19.9744,50.7464,0.443948,0.0,0.0
555,138.5,105.635,113.516,147.303,99.2353,94.74,0.0324253,0.543388,19.9939,50.6763,0.394401,0.0,0.0
558,139.25,104.784,111.827,147.931,99.2392,96.3882,0.031812,0.528382,20.0109,50.6863,0.248003,0.0,0.0
561,140,104.148,110.794,146.527,99.2845,96.1219,0.0311145,0.509878,20.0249,50.7464,0.275422,0.0,0.0
564,140.75,102.949,109.727,150.563,99.3137,97.5248,0.0300194,0.488514,20.0426,50.7464,0.154646,0.0,0.0
567,141.5,102.053,107.793,156.311,99.3294,97.4127,0.0286283,0.464988,20.0587,50.7364,0.165781,0.0,0.0
570,142.25,101.319,106.496,152.846,99.3605,98.6151,0.0273615,0.437411,20.0887,50.7464,0.0640664,0.0,0.0
573,143,100.151,104.989,152.114,99.3771,98.4694,0.0254592,0.412862,20.1106,50.7364,0.0780668,0.0,0.0
576,143.75,99.5651,104.171,157.256,99.4035,99.4238,0.0236994,0.37787,20.1556,50.7464,-0.00173955,0.0,0.0
579,144.5,99.0035,103.375,154.741,99.4275,98.7763,0.0217672,0.35194,20.1886,50.7464,0.055905,0.0,0.0
582,145.25,98.016,101.742,153.72,99.4523,99.1954,0.0204741,0.334798,20.2172,50.7464,0.0220114,0.0,0.0
585,146,97.329,100.744,151.899,99.4456,99.1267,0.0184924,0.307334,20.271,50.7263,0.0273297,0.0,0.0
588,146.75,96.1454,99.8045,158.324,99.5083,99.8863,0.0168025,0.282752,20.3269,50.7364,-0.0322609,0.0,0.0
591,147.5,95.2408,98.7595,149.198,99.5161,99.4827,0.0153913,0.258879,20.3812,50.7464,0.00286163,0.0,0.0
594,148.25,94.7929,97.885,154.232,99.5284,99.2696,0.0142352,0.238293,20.4472,50.7063,0.0221429,0.0,0.0
597,149,94.0505,96.3699,150.035,99.539,99.6382,0.0132484,0.22193,20.5037,50.7063,-0.00847849,0.0,0.0
600,149.75,93.3231,95.392,154.17,99.5867,99.6032,0.0124285,0.205968,20.5522,50.7063,-0.00141342,0.0,0.0
603,150.5,92.5918,94.6198,156.867,99.591,99.8975,0.0117879,0.19169,20.5939,50.7364,-0.0261455,0.0,0.0
606,151.25,91.5058,93.6356,150.372,99.6249,99.9872,0.0112042,0.180154,20.6271,50.7263,-0.0308881,0.0,0.0
609,152,91.0306,92.7526,149.151,99.645,99.8919,0.0106889,0.169341,20.6561,50.7364,-0.0210593,0.0,0.0
612,152.75,90.6397,91.6425,152.898,99.6887,100.181,0.0102445,0.159481,20.6829,50.7564,-0.0418814,0.0,0.0
615,153.5,89.7206,91.0674,152.653,99.695,99.6214,0.00986064,0.150663,20.7047,50.7364,0.00627972,0.0,0.0
618,154.25,89.4379,90.2737,156.95,99.7395,100.391,0.00953686,0.141891,20.7246,50.7464,-0.05538,0.0,0.0
621,155,88.2184,89.4056,155.299,99.7355,100.371,0.00926939,0.134696,20.7431,50.7263,-0.0540535,0.0,0.0
624,155.75,87.5998,88.0202,155.287,99.7852,100.311,0.0090445,0.128081,20.7601,50.7364,-0.0447102,0.0,0.0
627,156.5,87.1312,87.3223,152.923,99.8202,99.8681,0.00885864,0.121627,20.7757,50.7063,-0.00407659,0.0,0.0
630,157.25,86.6381,87.1248,153.35,99.8443,100.178,0.00870745,0.116284,20.7915,50.6763,-0.0283743,0.0,0.0
633,158,85.8096,86.2155,154.505,99.8384,100.148,0.00858937,0.111298,20.803,50.7063,-0.026378,0.0,0.0
636,158.75,84.9524,85.5365,159.978,99.8754,100.851,0.00848985,0.10664,20.8145,50.7364,-0.0826637,0.0,0.0
639,159.5,85.1303,84.8434,153.363,99.9006,100.297,0.00837648,0.102807,20.8247,50.7364,-0.0336868,0.0,0.0
642,160.25,84.0211,84.2787,155.183,99.9195,100.713,0.00825282,0.0990013,20.8333,50.7664,-0.0673122,0.0,0.0
645,161,83.7997,83.3492,154.151,99.9337,100.035,0.00814519,0.0956036,20.8404,50.7263,-0.00860894,0.0,0.0
648,161.75,83.1901,82.7821,158.167,99.9471,100.849,0.00796936,0.0925185,20.8487,50.7464,-0.0764414,0.0,0.0
651,162.5,82.6705,81.8911,151.842,99.9695,100.43,0.00778057,0.0896838,20.8555,50.7664,-0.0391045,0.0,0.0
654,163.25,82.1292,81.5839,152.926,99.9794,100.433,0.00753932,0.0869677,20.8616,50.7464,-0.0385044,0.0,0.0
657,164,81.471,81.4194,154.51,100.007,100.234,0.00721026,0.0847107,20.8673,50.7464,-0.0192492,0.0,0.0
660,164.75,81.4463,80.2253,153.46,100.027,100.422,0.00689202,0.0822003,20.8715,50.7564,-0.0334994,0.0,0.0
663,165.5,80.1982,79.4341,158.36,100.042,100.604,0.00652605,0.0800146,20.8758,50.7464,-0.0476812,0.0,0.0
666,166.25,79.1513,78.6732,149.306,100.07,100.607,0.00615014,0.0778127,20.8789,50.7464,-0.045507,0.0,0.0
669,167,79.3893,78.2204,154.569,100.101,100.417,0.00582958,0.0762076,20.8821,50.7564,-0.0268795,0.0,0.0
672,167.75,78.5407,77.8232,154.717,100.102,100.594,0.00552194,0.0740147,20.8848,50.7263,-0.041728,0.0,0.0
675,168.5,78.3558,76.2153,159.866,100.116,100.405,0.00514042,0.0718352,20.8866,50.7263,-0.0245388,0.0,0.0
678,169.25,77.733,77.1717,152.872,100.152,100.713,0.00480964,0.0700469,20.8893,50.7163,-0.0475129,0.0,0.0
681,170,77.1806,75.7366,154.731,100.156,100.349,0.00450429,0.0684023,20.8925,50.7263,-0.01634,0.0,0.0
684,170.75,76.9762,75.7006,153.475,100.164,100.884,0.00424765,0.0667834,20.8959,50.7263,-0.0609745,0.0,0.0
687,171.5,76.9305,75.2038,162.993,100.177,100.41,0.00404605,0.0652529,20.8992,50.7464,-0.0197931,0.0,0.0
690,172.25,76.031,75.1437,154.609,100.209,100.653,0.00384445,0.0639879,20.9018,50.7464,-0.0375692,0.0,0.0
693,173,75.7474,74.4826,158.361,100.213,100.759,0.00367419,0.0627156,20.9041,50.7364,-0.0462336,0.0,0.0
696,173.75,75.4192,74.0105,153.636,100.223,101.044,0.0034809,0.061499,20.9062,50.7364,-0.0693867,0.0,0.0
699,174.5,74.9567,73.6334,154.673,100.236,100.481,0.0033073,0.0603728,20.9082,50.7364,-0.0207457,0.0,0.0
702,175.25,74.5872,73.1673,157.019,100.27,100.629,0.00314502,0.0592326,20.91,50.7464,-0.0303731,0.0,0.0
705,176,74.4565,72.5919,157.122,100.284,100.642,0.00301743,0.0583132,20.912,50.7263,-0.0302703,0.0,0.0
708,176.75,74.165,72.5164,155.992,100.292,100.504,0.00291062,0.0574919,20.9139,50.7364,-0.0180158,0.0,0.0
711,177.5,73.7842,72.2553,152.543,100.3,100.769,0.00283212,0.0567337,20.9157,50.7263,-0.0397077,0.0,0.0
714,178.25,73.368,72.2271,154.469,100.333,100.44,0.0027738,0.0560854,20.9174,50.7263,-0.00908257,0.0,0.0
717,179,73.0099,71.4297,158.737,100.338,100.744,0.00272619,0.0554493,20.9186,50.7063,-0.0343705,0.0,0.0
720,179.75,72.5003,70.918,156.963,100.375,100.823,0.00268278,0.0549158,20.9195,50.7364,-0.0378565,0.0,0.0
723,180.5,72.045,70.5971,154.638,100.374,100.511,0.00263389,0.054497,20.9201,50.7263,-0.0116283,0.0,0.0
726,181.25,71.4259,70.2194,153.975,100.38,100.67,0.00258738,0.0541918,20.9206,50.7063,-0.0244884,0.0,0.0
729,182,71.2209,70.136,156.983,100.392,100.481,0.00254883,0.0538696,20.921,50.7163,-0.0074821,0.0,0.0
732,182.75,70.9653,69.8371,155.37,100.407,100.723,0.00252073,0.0535091,20.9219,50.7263,-0.0267518,0.0,0.0
735,183.5,71.1912,69.2834,156.003,100.415,100.046,0.00249783,0.0531927,20.9225,50.6963,0.0313534,0.0,0.0
738,184.25,70.9588,68.8857,155.738,100.409,100.378,0.00247629,0.0528923,20.923,50.7063,0.00258687,0.0,0.0
741,185,70.2137,68.6969,157.208,100.44,100.597,0.00245406,0.0526435,20.9233,50.7263,-0.0132539,0.0,0.0
744,185.75,69.8016,68.1311,151.771,100.459,100.842,0.00242578,0.0523029,20.9236,50.7464,-0.0324039,0.0,0.0
747,186.5,69.7128,68.5285,154.828,100.479,100.556,0.00238451,0.0520178,20.9242,50.7263,-0.00654724,0.0,0.0
750,187.25,69.3306,68.1815,156.55,100.478,100.41,0.00233512,0.0517472,20.9248,50.7163,0.00569493,0.0,0.0
753,188,69.2823,67.867,158.006,100.49,100.146,0.00226571,0.0514464,20.9254,50.6963,0.0291674,0.0,0.0
756,188.75,68.7724,67.6794,157.693,100.515,100.737,0.00223461,0.0513373,20.9256,50.7163,-0.0187949,0.0,0.0
759,189.5,68.9298,66.9307,151.461,100.535,100.792,0.00218148,0.0512113,20.9259,50.7163,-0.02171,0.0,0.0
762,190.25,68.4135,67.0061,159.105,100.527,100.619,0.00214275,0.0510358,20.9261,50.7263,-0.00777953,0.0,0.0
765,191,68.1589,67.0802,155.104,100.546,100.57,0.00208701,0.0508721,20.9261,50.7263,-0.00203121,0.0,0.0
768,191.75,68.0354,66.501,155.115,100.58,100.569,0.00203432,0.0507528,20.926,50.7263,0.000954322,0.0,0.0
771,192.5,68.0171,66.2622,160.32,100.551,100.268,0.00199078,0.0507216,20.926,50.7364,0.0240505,0.0,0.0
774,193.25,67.6235,65.8263,156.785,100.569,100.511,0.00194529,0.0507227,20.926,50.7464,0.0048496,0.0,0.0
777,194,67.1202,65.8812,151.388,100.579,100.831,0.00191276,0.0506676,20.926,50.7464,-0.0212891,0.0,0.0
780,194.75,66.5451,65.842,157.862,100.61,100.605,0.00189014,0.050567,20.9259,50.7263,0.00037018,0.0,0.0
783,195.5,67.2091,64.8835,158.456,100.607,100.562,0.00188223,0.0504309,20.9259,50.7464,0.00384503,0.0,0.0
786,196.25,66.818,64.9152,156.017,100.619,100.846,0.001879,0.0502918,20.9259,50.7564,-0.0192248,0.0,0.0
789,197,66.6615,65.0329,156.423,100.619,100.737,0.00188099,0.0502184,20.9259,50.7764,-0.0099644,0.0,0.0
792,197.75,65.9845,64.2847,154.087,100.631,100.553,0.00188759,0.0501767,20.9259,50.7664,0.00658781,0.0,0.0
795,198.5,65.0048,64.5693,157.304,100.645,100.46,0.00189722,0.0501464,20.9259,50.7564,0.0157352,0.0,0.0
798,199.25,65.879,64.0881,161.786,100.649,100.671,0.0019063,0.0500824,20.9259,50.7263,-0.00186788,0.0,0.0
801,200,65.4835,64.2308,157.038,100.634,100.643,0.00191171,0.0500179,20.9261,50.7464,-0.000797716,0.0,0.0
804,200.75,65.1836,63.5245,153.417,100.653,100.804,0.0019107,0.0499311,20.9267,50.7464,-0.012746,0.0,0.0
807,201.5,64.8998,63.2746,157.054,100.672,100.734,0.00190487,0.049872,20.9271,50.7464,-0.00523242,0.0,0.0
810,202.25,64.9869,63.5887,153.179,100.675,101.04,0.00188772,0.049785,20.9273,50.7263,-0.0307313,0.0,0.0
813,203,64.9999,63.8182,156.014,100.679,100.921,0.00188149,0.0497613,20.9276,50.7464,-0.0203609,0.0,0.0
816,203.75,64.3634,63.2722,157.934,100.67,100.674,0.00187593,0.0497161,20.9278,50.7364,-0.000307312,0.0,0.0
819,204.5,64.475,62.6475,159.965,100.683,100.366,0.0018839,0.0496713,20.9279,50.7263,0.0268879,0.0,0.0
822,205.25,64.4146,63.1293,155.509,100.676,100.46,0.00189935,0.0495989,20.928,50.7364,0.018299,0.0,0.0
825,206,63.88,63.2006,152.753,100.675,100.733,0.00191473,0.0495534,20.928,50.7464,-0.00488078,0.0,0.0
828,206.75,64.235,62.7552,153.841,100.67,100.839,0.00193678,0.0495328,20.9281,50.7063,-0.0142718,0.0,0.0
831,207.5,63.9454,62.8896,154.881,100.706,100.314,0.00195749,0.0495596,20.9281,50.7163,0.0332155,0.0,0.0
834,208.25,63.551,62.8251,157.474,100.681,100.881,0.00197258,0.0495823,20.9282,50.6963,-0.0169197,0.0,0.0
837,209,63.5296,62.2926,156.062,100.675,100.546,0.00197394,0.0495738,20.9282,50.6763,0.0108776,0.0,0.0
840,209.75,63.2769,62.1607,156.39,100.657,100.465,0.00196638,0.0495476,20.9282,50.6963,0.0162261,0.0,0.0
843,210.5,63.1652,62.2387,153.761,100.667,100.579,0.00195328,0.0495147,20.9282,50.6763,0.00748465,0.0,0.0
846,211.25,63.2207,61.756,157.524,100.673,100.261,0.00192311,0.04947,20.9282,50.7163,0.0349045,0.0,0.0
849,212,62.8085,61.5557,156.809,100.651,100.493,0.001866,0.0493968,20.9282,50.7163,0.0133204,0.0,0.0
852,212.75,63.1915,61.1523,155.017,100.673,100.434,0.00184096,0.0493703,20.9282,50.7063,0.0201701,0.0,0.0
855,213.5,62.7058,61.1177,157.75,100.644,100.963,0.00181203,0.0493396,20.9282,50.7163,-0.0269014,0.0,0.0
858,214.25,62.5805,61.679,157.466,100.657,100.908,0.00172916,0.0493173,20.9282,50.7464,-0.0211625,0.0,0.0
861,215,62.6303,60.7338,156.007,100.645,100.361,0.0016637,0.0492811,20.9285,50.7364,0.0240485,0.0,0.0
864,215.75,61.9023,61.2217,150.672,100.627,100.111,0.00160288,0.0492129,20.929,50.7464,0.0438096,0.0,0.0
867,216.5,62.0507,61.0544,157.797,100.605,99.8036,0.00155098,0.049138,20.9294,50.7364,0.0680024,0.0,0.0
870,217.25,62.1196,61.0785,157.918,100.62,100.859,0.00150458,0.0490708,20.9297,50.7564,-0.0201895,0.0,0.0
873,218,61.8893,60.884,153.726,100.603,100.535,0.00146695,0.0490617,20.93,50.7564,0.00569797,0.0,0.0
876,218.75,61.5835,60.7679,156.127,100.586,100.587,0.00143304,0.049041,20.9301,50.7263,-0.000121199,0.0,0.0
879,219.5,61.9241,60.519,153.371,100.574,100.717,0.00138775,0.04902,20.9302,50.7464,-0.0121376,0.0,0.0
882,220.25,61.7489,60.1879,158.263,100.569,99.5373,0.0013459,0.0490246,20.9303,50.7263,0.0877671,0.0,0.0
885,221,61.3479,60.4438,155.272,100.552,100.314,0.00130026,0.049028,20.9298,50.7364,0.0201934,0.0,0.0
888,221.75,61.3856,59.893,160.446,100.551,100.755,0.00127059,0.0490304,20.9293,50.7364,-0.0173003,0.0,0.0
891,222.5,61.0677,60.0555,153.293,100.534,100.545,0.0012606,0.0490123,20.929,50.7364,-0.000929578,0.0,0.0
894,223.25,60.7498,59.682,156.499,100.513,100.694,0.00127062,0.0489712,20.9288,50.7263,-0.0152913,0.0,0.0
897,224,60.8619,60.0848,159.214,100.525,100.339,0.00131904,0.0489147,20.9287,50.7163,0.0157534,0.0,0.0
900,224.75,60.8806,60.0196,155.715,100.492,100.441,0.001367,0.0488484,20.9285,50.7263,0.0043154,0.0,0.0
903,225.5,60.7668,59.594,159.277,100.479,100.148,0.00142361,0.0487994,20.9285,50.7364,0.0280626,0.0,0.0
906,226.25,60.2005,59.7481,154.789,100.463,100.27,0.00148204,0.0487625,20.9282,50.7263,0.0163425,0.0,0.0
909,227,60.3488,59.396,156.763,100.454,100.258,0.00152463,0.0488193,20.928,50.7163,0.0166128,0.0,0.0
912,227.75,60.0473,59.3145,154.558,100.426,100.569,0.00156083,0.0488964,20.9278,50.7163,-0.0120513,0.0,0.0
915,228.5,60.2245,58.9132,152.033,100.419,100.28,0.00158601,0.0488929,20.9277,50.7263,0.0117405,0.0,0.0
918,229.25,59.8713,58.6825,153.751,100.399,100.137,0.00160703,0.0489182,20.9276,50.7163,0.0222086,0.0,0.0
921,230,60.027,59.1609,154.275,100.376,100.04,0.00162776,0.048956,20.9276,50.7364,0.0284922,0.0,0.0
924,230.75,59.5147,58.8251,154.223,100.375,99.997,0.0016652,0.048996,20.9279,50.7364,0.0321203,0.0,0.0
927,231.5,59.8264,58.4607,155.547,100.354,99.4939,0.00170263,0.0489854,20.9284,50.7263,0.0732337,0.0,0.0
930,232.25,59.4485,58.3823,156.185,100.321,100.095,0.00174726,0.0489637,20.9288,50.7063,0.0191359,0.0,0.0
933,233,58.9449,58.8955,161.561,100.323,99.6649,0.00178495,0.048942,20.9286,50.6963,0.0559866,0.0,0.0
936,233.75,59.152,58.6137,153.059,100.3,100.217,0.00180608,0.0489063,20.9282,50.6763,0.00707526,0.0,0.0
939,234.5,59.7737,58.2413,154.558,100.276,100.308,0.00181065,0.0488876,20.928,50.6763,-0.00276114,0.0,0.0
942,235.25,59.5102,58.7171,155.571,100.255,99.6495,0.00179953,0.0488865,20.9278,50.7163,0.0515209,0.0,0.0
945,236,59.044,58.4291,156.2,100.24,99.5135,0.00178526,0.0489003,20.9277,50.7263,0.0618989,0.0,0.0
948,236.75,58.622,58.301,160.432,100.228,100.401,0.00176042,0.0489356,20.9278,50.7364,-0.0146147,0.0,0.0
951,237.5,58.9564,58.3924,152.4,100.203,99.6396,0.00173299,0.0489215,20.9281,50.7364,0.0479788,0.0,0.0
954,238.25,59.2518,58.0999,155.944,100.166,99.948,0.00170757,0.0489251,20.9283,50.7464,0.018548,0.0,0.0
957,239,58.6022,57.9585,154.49,100.138,99.4701,0.00168218,0.0489337,20.9285,50.7263,0.0569508,0.0,0.0
960,239.75,58.9109,58.0828,155.654,100.115,100.012,0.00166848,0.0489599,20.9286,50.7364,0.00867826,0.0,0.0
963,240.5,58.868,58.595,157.755,100.107,100.054,0.00166055,0.0489643,20.9287,50.7364,0.00446644,0.0,0.0
966,241.25,58.9206,57.5671,156.206,100.084,99.8947,0.00166921,0.0489424,20.9287,50.7163,0.0161198,0.0,0.0
969,242,58.7712,58.2146,154.631,100.055,99.5962,0.00168738,0.0489265,20.9288,50.7063,0.0391376,0.0,0.0
972,242.75,59.1549,57.5916,158.459,100.052,100.032,0.00171037,0.0489148,20.9288,50.6863,0.00168444,0.0,0.0
975,243.5,58.6278,57.786,151.909,100.038,99.4841,0.00173075,0.0489063,20.9288,50.6863,0.0472143,0.0,0.0
978,244.25,58.605,57.601,156.012,100.015,100.06,0.00174588,0.04892,20.9288,50.7063,-0.00384829,0.0,0.0
981,245,57.9531,57.749,157.189,99.9991,99.4827,0.00175474,0.0489021,20.9289,50.7063,0.0440497,0.0,0.0
984,245.75,58.064,57.6678,155.435,99.9959,99.7167,0.00174576,0.0488712,20.9289,50.7063,0.0237896,0.0,0.0
987,246.5,57.8582,57.3372,151.566,99.9794,99.7237,0.00173109,0.0488608,20.929,50.7163,0.0217828,0.0,0.0
990,247.25,57.9395,57.3074,159.004,99.9597,100.209,0.00170275,0.0488563,20.9292,50.7163,-0.021163,0.0,0.0
993,248,57.5773,57.283,156.157,99.9455,99.9003,0.00166165,0.0488654,20.9293,50.7163,0.00384807,0.0,0.0
996,248.75,57.7212,56.9117,155.106,99.9026,100.154,0.00162297,0.048914,20.9294,50.7263,-0.0213842,0.0,0.0
999,249.5,57.491,56.6633,155.38,99.8715,99.3691,0.00158962,0.0489452,20.9295,50.7364,0.0428984,0.0,0.0
1002,250.25,57.8415,56.9164,157.6,99.8793,99.7433,0.00156892,0.0489303,20.9296,50.7364,0.0115917,0.0,0.0
1005,251,57.0359,56.3792,155.525,99.8616,99.8162,0.00156043,0.0488995,20.9296,50.7364,0.00386632,0.0,0.0
1008,251.75,57.85,56.8078,156.125,99.8439,99.8415,0.0015629,0.048905,20.9297,50.7263,0.000206897,0.0,0.0
1011,252.5,57.3269,56.7275,155.529,99.836,99.8232,0.0015853,0.0489135,20.9297,50.7163,0.00108818,0.0,0.0
1014,253.25,57.4437,56.6475,157.725,99.8147,100.308,0.00160763,0.0489072,20.9297,50.6963,-0.0419548,0.0,0.0
1017,254,57.2212,56.3106,153.452,99.8206,99.6691,0.00162648,0.0488608,20.9297,50.6963,0.0129275,0.0,0.0
1020,254.75,57.242,56.5134,156.98,99.8187,99.5471,0.00162821,0.0488091,20.9297,50.6963,0.0231746,0.0,0.0
1023,255.5,56.6901,56.5068,157.727,99.7868,100.019,0.00161177,0.0488117,20.9297,50.7163,-0.0198154,0.0,0.0
1026,256.25,56.6395,56.6485,154.44,99.8033,99.5289,0.00159175,0.0488397,20.9297,50.7163,0.0234224,0.0,0.0
1029,257,57.0956,56.2015,160.405,99.8246,99.5836,0.00155144,0.0488568,20.9296,50.7063,0.0205647,0.0,0.0
1032,257.75,56.7702,56.4666,164.383,99.8466,100.186,0.00151725,0.0488442,20.9294,50.7364,-0.0288871,0.0,0.0
1035,258.5,56.8642,55.8451,159.598,99.8612,99.8513,0.00149027,0.0488276,20.9293,50.7163,0.000847841,0.0,0.0
1038,259.25,57.161,56.2203,151.276,99.89,100.332,0.00148262,0.048803,20.9293,50.7063,-0.0375636,0.0,0.0
1041,260,57.0104,56.5265,157.07,99.9317,99.756,0.00148913,0.0487432,20.9295,50.7364,0.0149769,0.0,0.0
1044,260.75,56.8161,55.6976,154.747,99.9439,100.025,0.00150578,0.0486818,20.9297,50.7464,-0.006903,0.0,0.0
1047,261.5,57.3184,56.0922,157.876,99.9758,99.9073,0.00153122,0.0487365,20.9299,50.7364,0.00583277,0.0,0.0
1050,262.25,56.5779,56.6005,160.201,99.979,100.734,0.0015725,0.0487837,20.93,50.7464,-0.0640252,0.0,0.0
1053,263,56.394,56.2091,158.218,100.005,100.011,0.00162147,0.0488086,20.93,50.7564,-0.000514729,0.0,0.0
1056,263.75,56.4449,55.9894,157.339,100.031,100.705,0.00165718,0.0487891,20.9301,50.7664,-0.0571487,0.0,0.0
1059,264.5,56.2813,55.9911,155.283,100.053,100.444,0.0016756,0.0487948,20.9301,50.7263,-0.0332209,0.0,0.0
1062,265.25,56.4652,55.8067,154.69,100.076,100.936,0.00167604,0.048799,20.9301,50.7364,-0.0728445,0.0,0.0
1065,266,56.1862,56.126,160.774,100.107,100.335,0.00163787,0.048802,20.9302,50.7063,-0.0193026,0.0,0.0
1068,266.75,56.3372,55.7914,158.094,100.101,100.202,0.00157592,0.0487861,20.9302,50.7163,-0.00854092,0.0,0.0
1071,267.5,56.5048,55.7244,155.529,100.131,100.558,0.00150048,0.0487746,20.9304,50.6963,-0.036135,0.0,0.0
1074,268.25,55.9913,55.3265,156.236,100.137,100.629,0.00143538,0.0487661,20.9306,50.7364,-0.0417448,0.0,0.0
1077,269,55.8316,55.6255,155.649,100.148,100.347,0.00137062,0.048746,20.9307,50.7263,-0.0169573,0.0,0.0
1080,269.75,56.2102,55.6838,155.763,100.176,100.314,0.00133541,0.0487254,20.9308,50.7364,-0.0117299,0.0,0.0
1083,270.5,56.2775,56.0265,157.992,100.189,100.874,0.00132775,0.0487104,20.9309,50.7263,-0.0580054,0.0,0.0
1086,271.25,56.4267,55.7019,156.488,100.192,100.231,0.00134059,0.0487591,20.9309,50.7163,-0.00334249,0.0,0.0
1089,272,56.1028,55.6607,157.869,100.181,100.228,0.00136834,0.0487668,20.931,50.7263,-0.00404057,0.0,0.0
1092,272.75,55.546,55.6919,157.623,100.2,100.719,0.001404,0.0487751,20.931,50.6963,-0.0439716,0.0,0.0
1095,273.5,55.6959,55.3348,154.868,100.219,100.252,0.0014312,0.0488063,20.931,50.6863,-0.00281897,0.0,0.0
1098,274.25,55.8615,55.3576,152.461,100.226,100.496,0.00144546,0.0488443,20.931,50.7063,-0.0228535,0.0,0.0
1101,275,55.3674,55.0153,158.174,100.234,100.319,0.00146074,0.0489164,20.931,50.7063,-0.00725523,0.0,0.0
1104,275.75,55.5932,55.2412,157.647,100.228,100.513,0.00147705,0.0489292,20.931,50.7063,-0.0241431,0.0,0.0
1107,276.5,55.8622,55.0348,158.108,100.247,100.004,0.00149869,0.0489085,20.931,50.7163,0.0206669,0.0,0.0
1110,277.25,55.468,55.2152,155.303,100.265,100.168,0.00152529,0.0488421,20.931,50.7464,0.00826487,0.0,0.0
1113,278,55.5518,54.8671,159.411,100.256,100.218,0.00154993,0.0487936,20.9308,50.7364,0.00317897,0.0,0.0
1116,278.75,55.7816,54.9104,158.064,100.258,100.019,0.00156898,0.0488002,20.9306,50.7364,0.0202571,0.0,0.0
1119,279.5,55.3078,54.8067,165.975,100.274,100.333,0.00156913,0.0488228,20.9305,50.7364,-0.00500053,0.0,0.0
1122,280.25,55.4438,55.0526,155.071,100.284,100.431,0.00156166,0.0488591,20.9304,50.7063,-0.0125134,0.0,0.0
1125,281,55.0337,54.8757,151.625,100.276,100.112,0.00154322,0.0488856,20.9304,50.7664,0.013931,0.0,0.0
1128,281.75,55.4839,55.1227,153.634,100.292,100.3,0.00152977,0.0488631,20.9303,50.7464,-0.00064405,0.0,0.0
1131,282.5,55.1257,54.8126,154.413,100.3,100.631,0.00149426,0.0488289,20.9303,50.6863,-0.0280191,0.0,0.0
1134,283.25,55.1994,54.9601,157.674,100.294,99.8499,0.00145876,0.0488039,20.9303,50.7464,0.0377695,0.0,0.0
1137,284,55.5905,54.8697,160.017,100.298,100.6,0.00142625,0.0488136,20.9303,50.7864,-0.0255789,0.0,0.0
1138,284.25,55.7014,54.8016,155.859,100.304,100.56,0.00141591,0.0488206,20.9302,50.7664,-0.0217578,0.0,0.0