File: 01_Data/Latex_Pillow_Foam/Cone/Latex_Pillow_Foam_Cone_HF50Scan_230628_R2.csv
Names,Time,Stack TC,Smoke TC,Exh Press,Smoke Comp,Smoke Meas,CO Meter,CO2 Meter,O2 Meter,Sample Mass,Ext Coeff,Start Test,Flame Verif
Chan Gain,,500,500,1,1,1,1,1,1,1,1,1.0,1.0
Offset,,0,0,0.13804,0,0,0,0,0,0,0,0.0,0.0
Gain,,1,1,25.011,12.9078,45.9244,1,1,1,1.00091,0.969894,1.0,1.0
Units,sec,C,C,Pa,%,%,%,%,%,g,/m,,
Baseline,,58.5101,60.0361,155.629,100.324,67.0257,0.000786396,0.0474711,20.932,-444.978,3.43152,,
2,0.25,55.3002,56.2313,159.04,99.3188,66.4059,0.000750712,0.0501568,20.9317,70.3543,3.42483,1.0,0.0
4,0.75,55.1468,56.1018,155.89,99.3444,65.8747,0.0008126,0.0505719,20.9313,70.3643,3.49535,1.0,0.0
6,1.25,55.1484,56.1622,157.088,99.3361,65.2847,0.00086273,0.0509501,20.9307,70.3743,3.57118,1.0,0.0
8,1.75,55.4936,56.1849,155.522,99.3535,64.3345,0.000896733,0.0512564,20.9298,70.4043,3.69741,1.0,0.0
10,2.25,54.9932,56.2239,155.806,99.3515,63.9154,0.000954877,0.0513796,20.9294,70.3443,3.75284,0.0,0.0
12,2.75,55.3138,56.7834,155.65,99.3818,63.2819,0.00102239,0.0515903,20.9288,70.3242,3.84018,0.0,0.0
14,3.25,55.2876,56.834,156.557,99.3775,62.2967,0.00110038,0.0518058,20.928,70.3042,3.97331,0.0,0.0
16,3.75,55.0269,56.8686,153.337,99.3838,61.8552,0.00117029,0.0519076,20.9277,70.3042,4.03436,0.0,0.0
18,4.25,55.5376,56.6639,153.478,99.4051,62.6737,0.00122691,0.0519342,20.9273,70.3042,3.92434,0.0,0.0
20,4.75,55.3555,56.9078,151.143,99.4165,61.5146,0.00127004,0.0519456,20.9272,70.2842,4.08413,0.0,0.0
22,5.25,55.2208,57.0171,153.896,99.437,61.5258,0.00134379,0.051965,20.927,70.2442,4.08433,0.0,0.0
24,5.75,55.506,56.9587,156.714,99.4385,60.4369,0.00140352,0.0519807,20.9268,70.3943,4.2364,0.0,0.0
26,6.25,55.4075,57.1719,147.265,99.4504,61.153,0.00145191,0.0518957,20.9266,70.104,4.13718,0.0,0.0
28,6.75,55.801,57.2835,140.28,99.4539,48.6096,0.00155614,0.0518269,20.9265,69.9939,6.09053,0.0,1.0
30,7.25,55.9036,57.6356,137.74,99.4618,38.3268,0.00164057,0.0517491,20.9264,69.8638,8.11328,0.0,1.0
32,7.75,55.9534,59.1185,129.541,99.4724,41.2588,0.00170895,0.0516663,20.9263,69.7737,7.48704,0.0,1.0
34,8.25,56.5862,60.435,126.679,99.4917,38.5847,0.00179329,0.0515992,20.9262,69.6436,8.05879,0.0,1.0
36,8.75,57.5178,62.0387,128.201,99.4862,38.8061,0.0018616,0.0514332,20.9261,69.6436,8.00963,0.0,1.0
38,9.25,58.7415,64.1243,126.655,99.5075,37.8629,0.00189522,0.0512987,20.9261,69.4535,8.22079,0.0,1.0
40,9.75,59.6555,65.8055,125.183,99.5043,36.5105,0.00192246,0.0511237,20.926,69.4635,8.52998,0.0,1.0
42,10.25,60.9413,68.0332,119.526,99.5256,34.0649,0.00192422,0.0509225,20.926,69.3033,9.12167,0.0,1.0
44,10.75,61.852,70.0119,115.472,99.5295,32.6942,0.00190739,0.0507155,20.9259,69.2333,9.47141,0.0,1.0
46,11.25,62.5905,71.9433,109.83,99.5563,31.9023,0.00187981,0.0505081,20.9259,67.7719,9.6823,0.0,1.0
48,11.75,63.5959,73.832,113.492,99.5414,32.8021,0.00184492,0.0503695,20.9259,69.0331,9.44439,0.0,1.0
50,12.25,65.0421,76.1553,114.097,99.5874,31.6809,0.00181856,0.0502837,20.9259,68.9029,9.74422,0.0,1.0
52,12.75,65.797,78.4642,119.047,99.5638,32.1168,0.00179892,0.0518196,20.9259,68.8429,9.62594,0.0,1.0
54,13.25,67.8412,80.2472,125.546,99.5914,31.3207,0.00182741,0.0545086,20.9259,68.6527,9.84184,0.0,1.0
56,13.75,68.8492,82.4699,118.716,99.5922,30.6242,0.00189045,0.0566867,20.925,68.4826,10.0332,0.0,1.0
58,14.25,70.198,84.5206,110.94,99.6067,32.0551,0.00194151,0.0770689,20.9242,68.3224,9.64596,0.0,1.0
60,14.75,71.3557,86.5991,117.502,99.5969,28.8232,0.00217945,0.0935786,20.9232,68.2323,10.5493,0.0,1.0
62,15.25,72.5663,88.2575,112.363,99.6217,28.8401,0.00254911,0.123828,20.9219,68.1623,10.5464,0.0,0.0
64,15.75,73.5446,89.8482,107.414,99.6099,29.9599,0.00320394,0.16352,20.9209,68.0822,10.2213,0.0,0.0
66,16.25,74.9065,91.5484,120.596,99.6355,30.0019,0.00405422,0.213204,20.9179,67.9221,10.2116,0.0,0.0
68,16.75,75.9136,94.3451,109.843,99.6457,29.8351,0.00522084,0.269229,20.9154,67.7919,10.2599,0.0,0.0
70,17.25,77.3641,95.9927,110.882,99.6536,31.1525,0.00659591,0.314609,20.8912,67.8019,9.89296,0.0,0.0
72,17.75,78.498,97.8881,116.476,99.6536,28.5191,0.00820302,0.381995,20.8715,67.5717,10.6444,0.0,0.0
74,18.25,79.8117,100.23,107.371,99.6725,27.6095,0.00994877,0.436577,20.7867,67.4716,10.9218,0.0,0.0
76,18.75,80.7334,101.624,116.577,99.6836,28.4925,0.0118797,0.501923,20.7181,67.4216,10.6549,0.0,0.0
78,19.25,82.2396,103.604,111.767,99.6765,30.5849,0.0139091,0.554853,20.6019,67.2514,10.0514,0.0,0.0
80,19.75,83.3023,105.426,114.436,99.6891,30.0145,0.0155528,0.615986,20.5079,67.0913,10.2126,0.0,0.0
82,20.25,84.4082,107.308,112.552,99.6946,28.1057,0.0179885,0.665504,20.3827,66.9712,10.7721,0.0,0.0
84,20.75,85.6436,108.424,114.238,99.7135,26.3342,0.0199614,0.723215,20.2813,66.9111,11.3276,0.0,0.0
86,21.25,86.7003,110.246,113.435,99.706,28.0594,0.0222427,0.769961,20.1991,66.811,10.7871,0.0,0.0
88,21.75,87.6534,111.557,121.764,99.7064,27.4526,0.0247055,0.814358,20.0942,66.6809,10.9732,0.0,0.0
90,22.25,88.9027,112.941,109.524,99.7166,28.8765,0.0271075,0.856197,20.0092,66.4507,10.5438,0.0,0.0
92,22.75,89.4655,114.109,115.579,99.7218,29.36,0.0294195,0.895239,19.9107,66.4307,10.403,0.0,0.0
94,23.25,90.8667,115.881,112.951,99.7206,26.4449,0.0316483,0.94696,19.7821,66.3306,11.2925,0.0,0.0
96,23.75,91.8337,117.672,103.113,99.7395,28.7728,0.0337741,0.966181,19.7381,66.2405,10.5764,0.0,0.0
98,24.25,92.9486,119.133,108.302,99.7407,26.8766,0.0358536,0.999051,19.6629,66.1204,11.1565,0.0,0.0
100,24.75,93.8836,120.495,108.953,99.76,27.6236,0.0378598,1.02978,19.5795,65.9603,10.9249,0.0,0.0
102,25.25,94.9419,122.421,114.494,99.7572,28.5149,0.0397542,1.05836,19.5119,65.7801,10.6545,0.0,0.0
104,25.75,95.6932,123.804,110.915,99.7679,28.7251,0.0415309,1.08334,19.439,65.68,10.5929,0.0,0.0
106,26.25,96.7536,124.884,113.596,99.747,29.695,0.0429701,1.10521,19.38,65.6099,10.3086,0.0,0.0
108,26.75,97.8035,125.3,116.093,99.7773,28.7994,0.0446111,1.12293,19.322,65.4798,10.5717,0.0,0.0
110,27.25,98.7875,126.978,107.672,99.7816,28.4799,0.0459403,1.13728,19.2658,65.3097,10.667,0.0,0.0
112,27.75,99.852,128.602,109.805,99.7998,28.0342,0.047476,1.15721,19.2009,65.2196,10.8028,0.0,0.0
114,28.25,100.808,129.266,109.336,99.7903,26.4659,0.0478891,1.16257,19.1761,65.0895,11.2917,0.0,0.0
116,28.75,101.269,130.884,106.974,99.8049,29.4721,0.0485955,1.17174,19.1336,64.9493,10.3776,0.0,0.0
118,29.25,102.503,132.099,111.011,99.7919,26.4239,0.0497304,1.18196,19.0992,64.8493,11.3054,0.0,0.0
120,29.75,103.059,132.978,104.561,99.8187,27.4778,0.0507553,1.19275,19.0698,64.7291,10.9749,0.0,0.0
122,30.25,104.199,133.955,103.938,99.7958,26.0104,0.0516807,1.20399,19.0459,64.559,11.4399,0.0,0.0
124,30.75,104.634,135.189,115.241,99.8147,26.8976,0.0524303,1.21535,19.0244,64.5089,11.1562,0.0,0.0
126,31.25,105.658,136.33,107.58,99.8061,28.4981,0.0532562,1.22455,19.007,64.3888,10.6637,0.0,0.0
128,31.75,106.675,137.649,115.447,99.8344,28.9214,0.0539252,1.23608,18.9871,64.3288,10.5406,0.0,0.0
130,32.25,107.906,138.2,117.543,99.8321,27.6628,0.0546496,1.24586,18.971,64.1386,10.919,0.0,0.0
132,32.75,108.268,138.968,110.452,99.8364,28.0342,0.0552364,1.25418,18.9474,64.0185,10.8059,0.0,0.0
134,33.25,109.38,140.734,107.49,99.823,25.9502,0.0558686,1.26054,18.9282,63.9284,11.4619,0.0,0.0
136,33.75,110.384,141.358,109.891,99.8525,27.7525,0.0564454,1.26534,18.903,63.7783,10.8932,0.0,0.0
138,34.25,111.026,142.552,112.29,99.8557,26.3426,0.0569709,1.26922,18.8825,63.6181,11.337,0.0,0.0
140,34.75,111.826,144.316,109.937,99.8502,29.4581,0.0573965,1.27226,18.866,63.5781,10.3855,0.0,0.0
142,35.25,112.329,145.444,107.711,99.8573,27.995,0.0578046,1.27472,18.8526,63.478,10.8196,0.0,0.0
144,35.75,113.408,145.968,107.252,99.8549,25.1009,0.0581921,1.27758,18.8417,63.3279,11.7478,0.0,0.0
146,36.25,114.085,147.677,113.44,99.864,27.9165,0.0585356,1.28066,18.8316,63.1677,10.844,0.0,0.0
148,36.75,114.687,148.433,108.064,99.8695,25.3251,0.0588406,1.28442,18.8234,63.1477,11.6733,0.0,0.0
150,37.25,115.816,148.695,98.8134,99.851,26.5416,0.0590876,1.28859,18.8163,62.9675,11.2726,0.0,0.0
152,37.75,116.644,149.717,104.065,99.8872,27.5002,0.0593673,1.29197,18.8106,62.8474,10.9738,0.0,0.0
154,38.25,117.399,150.831,113.194,99.8785,29.6459,0.0595939,1.29727,18.8058,62.7373,10.3339,0.0,0.0
156,38.75,118.25,151.713,115.318,99.8833,32.3452,0.0598121,1.30156,18.8019,62.6272,9.5929,0.0,0.0
158,39.25,118.564,152.664,99.6583,99.9014,26.2725,0.0600201,1.30632,18.7967,62.427,11.3636,0.0,0.0
160,39.75,119.636,153.517,114.809,99.8908,25.1401,0.0602192,1.31133,18.7905,62.337,11.7375,0.0,0.0
162,40.25,120.639,154.773,104.714,99.8801,25.3798,0.060408,1.31708,18.7856,62.2268,11.6559,0.0,0.0
164,40.75,121.202,155.438,102.259,99.9093,28.065,0.0605874,1.32325,18.7758,62.0667,10.8027,0.0,0.0
166,41.25,121.687,155.751,104.596,99.8951,25.1906,0.0607566,1.32825,18.7679,61.9766,11.7208,0.0,0.0
168,41.75,122.356,156.266,107.37,99.8967,23.6195,0.0608937,1.3357,18.7579,61.9166,12.2689,0.0,0.0
170,42.25,122.96,157.436,101.023,99.8927,26.6019,0.0610495,1.34173,18.7499,61.7064,11.2569,0.0,0.0
172,42.75,122.958,158.016,105.167,99.9022,26.6944,0.0612159,1.34731,18.7434,61.5462,11.2281,0.0,0.0
174,43.25,124.313,158.883,113.799,99.9081,26.1184,0.0613824,1.35245,18.7345,61.4562,11.4142,0.0,0.0
176,43.75,124.764,159.297,108.705,99.8912,23.1738,0.0614683,1.35475,18.7308,61.4261,12.4305,0.0,0.0
178,44.25,125.084,159.569,102.736,99.9022,24.0371,0.0616151,1.35869,18.7182,61.256,12.1202,0.0,0.0
180,44.75,125.771,161.031,115.845,99.8821,25.1289,0.0617468,1.36249,18.7079,61.1959,11.7406,0.0,0.0
182,45.25,125.885,161.135,100.426,99.8967,25.8773,0.0618534,1.36613,18.6961,61.0358,11.4921,0.0,0.0
184,45.75,127.171,161.876,108.811,99.8923,26.5332,0.0618908,1.36955,18.6866,60.8656,11.2788,0.0,0.0
186,46.25,127.67,162.912,113.274,99.903,24.878,0.0618817,1.37412,18.6779,60.7355,11.8277,0.0,0.0
188,46.75,128.458,163.914,107.683,99.8896,26.3916,0.0618144,1.3759,18.6679,60.5753,11.3241,0.0,0.0
190,47.25,129.103,164.252,104.831,99.9053,25.0098,0.0617858,1.37734,18.6624,60.4152,11.783,0.0,0.0
192,47.75,129.87,165.158,106.251,99.8829,26.2697,0.0616127,1.37796,18.66,60.3551,11.3629,0.0,0.0
194,48.25,130.108,166.285,102.483,99.8785,25.4204,0.0614726,1.37853,18.656,60.245,11.6422,0.0,0.0
196,48.75,131.272,166.772,109.962,99.8782,25.7596,0.061359,1.37857,18.6527,60.1049,11.5294,0.0,0.0
198,49.25,131.744,167.873,103.274,99.8876,26.7967,0.0612423,1.37861,18.6501,60.0549,11.1943,0.0,0.0
200,49.75,132.231,168.75,103.517,99.8644,27.503,0.0611254,1.37966,18.6476,59.8447,10.971,0.0,0.0
202,50.25,133.125,169.265,109.85,99.8648,26.5346,0.0610575,1.38051,18.6452,59.7246,11.276,0.0,0.0
204,50.75,133.646,169.899,104.684,99.8494,27.2858,0.0610024,1.38262,18.6432,59.5944,11.0372,0.0,0.0
206,51.25,133.965,170.634,96.7159,99.8675,28.2318,0.0609578,1.38432,18.6407,59.5244,10.7488,0.0,0.0
208,51.75,134.895,171.752,101.825,99.8443,24.3497,0.0609332,1.3857,18.6379,59.3843,12.0054,0.0,0.0
210,52.25,135.396,172.423,107.15,99.8455,27.8198,0.0609238,1.39054,18.6358,59.2842,10.872,0.0,0.0
212,52.75,136.17,172.872,103.253,99.8439,27.1106,0.0609285,1.39447,18.6343,59.134,11.0915,0.0,0.0
214,53.25,136.55,173.016,105.447,99.8585,23.9334,0.0609435,1.39871,18.6331,58.9939,12.1533,0.0,0.0
216,53.75,136.995,174.247,110.694,99.8258,25.241,0.0609879,1.40311,18.6308,58.9038,11.6979,0.0,0.0
218,54.25,137.768,174.584,98.837,99.8309,25.3966,0.0610529,1.40804,18.629,58.7337,11.6461,0.0,0.0
220,54.75,138.121,174.375,101.481,99.8155,24.1689,0.0611536,1.41326,18.623,58.6336,12.0663,0.0,0.0
222,55.25,138.387,175.187,116.355,99.8262,29.4735,0.0612785,1.41749,18.6182,58.5335,10.379,0.0,0.0
224,55.75,139.001,175.871,98.7203,99.8139,25.22,0.0613796,1.42378,18.6082,58.4134,11.704,0.0,0.0
226,56.25,139.53,175.924,112.304,99.8191,25.035,0.0615264,1.42886,18.6,58.2432,11.7671,0.0,0.0
228,56.75,139.706,176.527,111.417,99.8297,26.6902,0.0617035,1.43346,18.5922,58.1431,11.2233,0.0,0.0
230,57.25,140.305,177.09,104.482,99.7962,29.1176,0.0618853,1.43762,18.5849,58.043,10.4799,0.0,0.0
232,57.75,140.994,177.744,104.954,99.7836,27.8828,0.0620671,1.44136,18.5789,57.8629,10.8474,0.0,0.0
234,58.25,141.483,177.861,102.712,99.7848,27.7245,0.0622143,1.44473,18.5632,57.8428,10.896,0.0,0.0
236,58.75,141.954,178.498,96.1182,99.7647,28.8849,0.0623759,1.44746,18.559,57.7027,10.5454,0.0,0.0
238,59.25,142.416,178.905,107.448,99.7769,28.3818,0.062545,1.44949,18.5508,57.5626,10.696,0.0,0.0
240,59.75,142.379,179.542,109.52,99.771,28.8513,0.0627045,1.45098,18.5432,57.4925,10.5559,0.0,0.0
242,60.25,143.132,179.623,105.454,99.7706,28.3075,0.062854,1.44999,18.5371,57.4325,10.7177,0.0,0.0
244,60.75,143.299,180.294,114.283,99.7612,25.5185,0.0630001,1.44918,18.5321,57.2623,11.5994,0.0,0.0
246,61.25,143.598,180.205,101.898,99.7564,24.4155,0.0631411,1.44511,18.5281,57.1722,11.9749,0.0,0.0
248,61.75,144.136,180.524,102.552,99.7395,27.7875,0.0633172,1.44182,18.5248,57.0521,10.8728,0.0,0.0
250,62.25,144.463,180.749,111.547,99.7478,28.4168,0.0634599,1.4373,18.5222,56.882,10.683,0.0,0.0
252,62.75,144.76,180.959,99.7049,99.7273,27.7259,0.0635755,1.43197,18.5205,56.7619,10.8907,0.0,0.0
254,63.25,145.226,181.228,103.717,99.7135,26.728,0.063736,1.42766,18.5191,56.5917,11.2013,0.0,0.0
256,63.75,145.426,181.584,98.8035,99.7186,26.2179,0.063866,1.42378,18.5203,56.5417,11.3657,0.0,0.0
258,64.25,145.816,181.613,118.997,99.7044,28.421,0.0639809,1.42064,18.5234,56.3715,10.678,0.0,0.0
260,64.75,146.003,181.802,103.564,99.7178,27.5114,0.0640739,1.41892,18.5291,56.3215,10.9559,0.0,0.0
262,65.25,146.29,182.113,113.011,99.6954,25.3854,0.0641334,1.41753,18.5367,56.2114,11.6383,0.0,0.0
264,65.75,146.575,182.194,108.438,99.6867,27.8786,0.0641815,1.41694,18.5431,56.1413,10.8405,0.0,0.0
266,66.25,146.798,182.145,105.062,99.6773,25.1191,0.0641854,1.41647,18.5507,56.0012,11.7264,0.0,0.0
268,66.75,146.967,182.785,102.871,99.6871,24.6804,0.0641887,1.41516,18.5528,55.841,11.8772,0.0,0.0
270,67.25,147.443,183.106,94.8596,99.6773,27.845,0.0641387,1.41274,18.5563,55.7509,10.8499,0.0,0.0
272,67.75,147.95,183.608,108.189,99.6733,25.213,0.0640983,1.40957,18.5592,55.6408,11.6944,0.0,0.0
274,68.25,148.068,183.769,111.809,99.6568,27.3951,0.0640131,1.407,18.5615,55.4807,10.9867,0.0,0.0
276,68.75,148.391,184.216,109.756,99.667,26.3076,0.0639147,1.39992,18.5642,55.4006,11.3323,0.0,0.0
278,69.25,148.699,183.981,105.175,99.6532,27.2059,0.0638883,1.39737,18.5649,55.2605,11.0454,0.0,0.0
280,69.75,149.072,184.441,102.4,99.6343,23.8199,0.0638055,1.39301,18.5661,55.0703,12.1746,0.0,0.0
282,70.25,149.346,184.974,105.081,99.6383,22.6917,0.0637048,1.38711,18.5671,54.9902,12.5878,0.0,0.0
284,70.75,149.866,185.22,106.69,99.6402,24.8346,0.0636207,1.38018,18.5721,54.9102,11.8202,0.0,0.0
286,71.25,150.147,185.392,110.256,99.6182,24.3679,0.0635504,1.37286,18.5791,54.74,11.9797,0.0,0.0
288,71.75,150.637,186.121,114.774,99.6249,23.2929,0.0635009,1.36538,18.5875,54.5899,12.3641,0.0,0.0
290,72.25,150.835,186.545,106.445,99.6032,23.7624,0.0634676,1.35711,18.5976,54.5398,12.1925,0.0,0.0
292,72.75,151.49,186.771,112.049,99.6138,22.04,0.0634691,1.35041,18.6087,54.3497,12.8336,0.0,0.0
294,73.25,151.648,187.313,94.5986,99.5788,20.6609,0.0634704,1.34533,18.6176,54.1695,13.3803,0.0,0.0
296,73.75,152.349,188.41,112.919,99.6063,23.0252,0.0634715,1.34122,18.6279,54.0794,12.4609,0.0,0.0
298,74.25,152.628,189.389,101.128,99.5843,20.4731,0.0635149,1.33788,18.639,53.8392,13.4585,0.0,0.0
300,74.75,153.224,189.679,98.8286,99.589,22.41,0.0635885,1.33918,18.6488,53.8092,12.6898,0.0,0.0
302,75.25,153.695,190.798,99.3522,99.6004,20.6006,0.0636833,1.34024,18.6574,53.6891,13.407,0.0,0.0
304,75.75,154.138,191.768,99.0538,99.6083,21.0449,0.0637917,1.34192,18.6645,53.5589,13.2262,0.0,0.0
306,76.25,155.045,191.972,96.4495,99.5831,21.7597,0.0638795,1.34401,18.6701,53.2787,12.9399,0.0,0.0
308,76.75,155.548,193.242,97.5227,99.5894,21.9068,0.0640846,1.34571,18.6747,53.2486,12.8831,0.0,0.0
310,77.25,156.121,193.863,101.684,99.5804,21.5761,0.0642507,1.35015,18.6785,53.1285,13.0117,0.0,0.0
312,77.75,156.642,194.917,99.6843,99.5871,19.4458,0.0645228,1.35374,18.6815,53.0685,13.8967,0.0,0.0
314,78.25,157.202,195.882,104.999,99.5737,21.0463,0.0647432,1.3622,18.6811,52.9584,13.2226,0.0,0.0
316,78.75,157.639,196.417,102.28,99.5811,20.3442,0.0650347,1.36905,18.6783,52.7182,13.512,0.0,0.0
318,79.25,158.28,197.381,94.32,99.5646,22.061,0.0653727,1.37949,18.6761,52.488,12.8213,0.0,0.0
320,79.75,158.92,197.444,104.136,99.5677,22.9902,0.0656464,1.39235,18.6734,52.518,12.4705,0.0,0.0
322,80.25,159.27,197.792,106.377,99.5638,22.8136,0.066144,1.40755,18.6712,52.2978,12.5358,0.0,0.0
324,80.75,159.576,198.448,114.673,99.5674,21.8312,0.0667223,1.42416,18.6604,52.1476,12.9106,0.0,0.0
326,81.25,159.947,198.894,100.557,99.5666,23.4233,0.0673484,1.44228,18.6517,52.0876,12.3117,0.0,0.0
328,81.75,160.475,198.637,102.672,99.5551,22.403,0.0678555,1.46114,18.6331,51.9375,12.6896,0.0,0.0
330,82.25,160.588,198.908,105.274,99.5681,21.7695,0.0687199,1.47641,18.618,51.8874,12.9347,0.0,0.0
332,82.75,160.724,198.979,115.743,99.565,23.206,0.06942,1.49883,18.5963,51.8374,12.3908,0.0,0.0
334,83.25,160.869,199.012,112.133,99.5563,24.0259,0.0703078,1.51699,18.5701,51.6772,12.0947,0.0,0.0
336,83.75,161.197,198.876,111.882,99.5421,23.2789,0.0713156,1.53602,18.5489,51.5871,12.3622,0.0,0.0
338,84.25,161.231,198.771,112.143,99.5516,24.2922,0.0723406,1.55532,18.5145,51.4971,12.0005,0.0,0.0
340,84.75,161.287,198.378,127.583,99.552,25.241,0.0733588,1.57264,18.4866,51.3769,11.6745,0.0,0.0
342,85.25,160.894,197.799,112.753,99.5532,27.695,0.0743431,1.58818,18.4495,51.2568,10.8853,0.0,0.0
344,85.75,160.906,197.834,116.547,99.5319,26.4687,0.0752842,1.60072,18.4194,51.1367,11.2688,0.0,0.0
346,86.25,161.062,196.997,118.562,99.5579,28.2711,0.076141,1.61083,18.3799,51.0366,10.7105,0.0,0.0
348,86.75,160.479,196.821,108.831,99.537,26.1254,0.07692,1.61746,18.348,50.9966,11.3803,0.0,0.0
350,87.25,160.762,196.198,119.729,99.5571,25.8619,0.0775832,1.62141,18.312,50.9065,11.4682,0.0,0.0
352,87.75,160.465,195.598,115.856,99.5386,28.6817,0.0781494,1.62147,18.2828,50.8465,10.5862,0.0,0.0
354,88.25,160.035,194.678,113.336,99.5461,27.1905,0.0785803,1.61869,18.2591,50.7163,11.0411,0.0,0.0
356,88.75,160.027,193.832,118.501,99.5201,28.1183,0.0789043,1.6114,18.24,50.6463,10.7534,0.0,0.0
358,89.25,159.527,193.51,124.938,99.5287,29.9627,0.0791668,1.60097,18.2245,50.6263,10.2136,0.0,0.0
360,89.75,159.629,192.259,123.259,99.5213,33.308,0.0792209,1.59253,18.2119,50.4961,9.31245,0.0,0.0
362,90.25,158.739,191.149,125.351,99.5315,32.2415,0.0790799,1.57427,18.1974,50.4061,9.59021,0.0,0.0
364,90.75,158.35,189.676,122.767,99.4764,32.4952,0.079042,1.564,18.1972,50.346,9.51881,0.0,0.0
366,91.25,157.344,188.075,129.728,99.5284,31.3333,0.0782933,1.53212,18.1968,50.2759,9.83302,0.0,0.0
368,91.75,157.31,186.535,126.385,99.5122,34.6479,0.0776317,1.50765,18.2094,50.2859,8.97615,0.0,0.0
370,92.25,156.307,185.668,132.71,99.5236,39.2658,0.0768447,1.48083,18.2196,50.2259,7.91264,0.0,0.0
372,92.75,155.54,184.071,128.158,99.511,36.5175,0.0765092,1.46608,18.2351,50.1558,8.52892,0.0,0.0
374,93.25,155.135,182.673,135.472,99.5295,36.3115,0.0753279,1.44085,18.2616,50.0757,8.57863,0.0,0.0
376,93.75,154.392,180.69,128.05,99.5102,34.3732,0.0743711,1.40725,18.2964,50.0357,9.0437,0.0,0.0
378,94.25,153.537,179.14,131.961,99.5284,39.6891,0.0729448,1.38004,18.3365,49.9757,7.82182,0.0,0.0
380,94.75,152.829,178.06,133.173,99.5035,43.6133,0.0717895,1.34323,18.3811,50.0057,7.01754,0.0,0.0
382,95.25,152.185,176.796,134.406,99.513,43.8235,0.0701272,1.31342,18.4281,49.9757,6.97743,0.0,0.0
384,95.75,150.97,174.752,134.83,99.4929,47.2207,0.0687807,1.27921,18.4661,49.9757,6.3405,0.0,0.0
386,96.25,150.464,173.696,135.085,99.5252,50.3531,0.0676901,1.24244,18.4969,49.9556,5.79682,0.0,0.0
388,96.75,149.65,172.131,138.156,99.5094,52.8239,0.06643,1.19996,18.5654,49.9857,5.38792,0.0,0.0
390,97.25,148.818,170.415,139.742,99.5,55.6998,0.0644863,1.16213,18.6003,49.9056,4.93609,0.0,0.0
392,97.75,147.668,168.889,139.913,99.5008,57.2022,0.0625481,1.11698,18.6511,50.0157,4.70971,0.0,0.0
394,98.25,146.861,167.01,142.796,99.5142,58.9233,0.0615495,1.07119,18.6923,49.9556,4.45865,0.0,0.0
396,98.75,145.946,165.6,142.232,99.5185,60.7102,0.059842,1.0473,18.7236,49.8956,4.20485,0.0,0.0
398,99.25,145.054,164.086,145.253,99.5114,59.1867,0.0567534,0.989038,18.7998,49.9456,4.42046,0.0,0.0
400,99.75,144.379,162.353,140.628,99.4941,62.1916,0.0559226,0.962749,18.8204,49.9156,3.99765,0.0,0.0
402,100.25,143.118,160.557,141.702,99.5043,63.0325,0.053974,0.917795,18.8966,49.9356,3.88427,0.0,0.0
404,100.75,141.945,159.003,145.661,99.5031,63.9855,0.0519206,0.872721,18.9583,49.8956,3.75649,0.0,0.0
406,101.25,141.191,157.691,145.56,99.5008,65.2749,0.0502573,0.828416,19.033,49.8856,3.58655,0.0,0.0
408,101.75,140.263,156.187,143.452,99.5043,65.6673,0.0479276,0.79253,19.1156,49.8756,3.53586,0.0,0.0
410,102.25,139.019,154.344,147.915,99.4882,65.9798,0.0460407,0.751461,19.198,49.9456,3.49409,0.0,0.0
412,102.75,138.391,152.568,146.646,99.4953,66.6343,0.0437864,0.718195,19.2785,49.8656,3.41071,0.0,0.0
414,103.25,137.289,151.601,148.179,99.4807,67.1038,0.0419604,0.679089,19.3621,49.8856,3.34973,0.0,0.0
416,103.75,136.994,149.899,145.022,99.4862,67.5201,0.0399399,0.647413,19.4463,49.8856,3.29759,0.0,0.0
418,104.25,135.565,148.345,145.482,99.476,66.9707,0.037816,0.614374,19.5146,49.8656,3.36622,0.0,0.0
420,104.75,134.587,147.302,147.545,99.4957,66.6722,0.0360956,0.58097,19.5942,49.8856,3.40591,0.0,0.0
422,105.25,133.357,145.359,148.241,99.476,67.066,0.0339134,0.548321,19.6587,49.8956,3.35412,0.0,0.0
424,105.75,132.517,143.672,144.107,99.4858,67.4458,0.0321458,0.516845,19.7303,49.8656,3.30692,0.0,0.0
426,106.25,131.437,142.672,149.398,99.4614,67.1809,0.0300259,0.486545,19.7884,49.8856,3.33831,0.0,0.0
428,106.75,131.154,141.322,143.29,99.4744,67.3645,0.0283087,0.45768,19.848,49.8956,3.3162,0.0,0.0
430,107.25,130.188,140.505,145.769,99.4724,67.0618,0.0262982,0.43012,19.9076,49.8255,3.35435,0.0,0.0
432,107.75,129.164,138.772,146.452,99.5016,66.9146,0.0246696,0.404036,19.9832,49.7955,3.37554,0.0,0.0
434,108.25,128.353,138.103,153.716,99.4748,67.2243,0.02287,0.379493,20.0445,49.7955,3.33396,0.0,0.0
436,108.75,127.844,136.988,142.756,99.4815,66.9693,0.0211262,0.35654,20.1049,49.7655,3.36687,0.0,0.0
438,109.25,126.733,135.6,149.779,99.4748,67.1655,0.0197138,0.337948,20.1634,49.8155,3.34141,0.0,0.0
440,109.75,125.885,134.572,147.115,99.4791,66.3891,0.0185697,0.315871,20.2108,49.8255,3.4407,0.0,0.0
442,110.25,125.429,133.368,146.15,99.4582,67.2117,0.0174408,0.297988,20.2492,49.7755,3.33414,0.0,0.0
444,110.75,124.561,132.496,146.834,99.4925,67.1907,0.0163444,0.283503,20.2962,49.8155,3.33973,0.0,0.0
446,111.25,124.036,131.491,145.643,99.4673,67.2468,0.0154563,0.265437,20.3343,49.8055,3.33048,0.0,0.0
448,111.75,122.993,130.087,146.402,99.4705,66.6301,0.0146359,0.250804,20.3721,49.8055,3.40913,0.0,0.0
450,112.25,121.982,129.151,153.639,99.4661,67.3617,0.0139713,0.234302,20.4091,49.8455,3.31585,0.0,0.0
452,112.75,122.013,128.056,146.708,99.4728,66.724,0.0134481,0.220935,20.4471,49.5453,3.39735,0.0,0.0
454,113.25,121.288,127.23,148.867,99.4547,67.6854,0.0130244,0.207216,20.4853,49.8055,3.27408,0.0,0.0
456,113.75,120.12,126.2,150.862,99.4768,67.2187,0.0127469,0.196104,20.5229,49.9556,3.33483,0.0,0.0
458,114.25,120.105,125.144,149.573,99.4492,67.4626,0.0125221,0.185777,20.5595,49.8555,3.30167,0.0,0.0
460,114.75,118.916,124.638,149.678,99.4578,67.1697,0.0124008,0.176219,20.5933,49.8656,3.33943,0.0,0.0
462,115.25,118.311,123.682,150.718,99.4133,67.2636,0.0123026,0.167524,20.6245,49.9857,3.32373,0.0,0.0
464,115.75,118.023,122.916,149.296,99.4504,66.7324,0.0122394,0.159624,20.6523,49.7154,3.39435,0.0,0.0
466,116.25,117.259,121.944,152.726,99.437,67.0478,0.0121883,0.153225,20.6771,49.8255,3.3531,0.0,0.0
468,116.75,116.374,121.086,150.963,99.4551,67.2398,0.0120999,0.14349,20.7058,49.8455,3.33032,0.0,0.0
470,117.25,115.75,119.912,148.255,99.4322,67.4738,0.0120577,0.140871,20.7153,50.0357,3.2988,0.0,0.0
472,117.75,115.298,119.4,150.238,99.4326,67.3196,0.0119454,0.135088,20.7317,50.1058,3.3183,0.0,0.0
474,118.25,115.251,118.91,149.07,99.4192,67.1332,0.0118185,0.130403,20.7481,49.9556,3.34074,0.0,0.0
476,118.75,114.114,117.801,147.647,99.4326,66.497,0.0117158,0.125635,20.7613,49.9757,3.42291,0.0,0.0
478,119.25,113.724,117.656,149.873,99.4192,66.8081,0.011548,0.121773,20.7721,49.5353,3.38205,0.0,0.0
480,119.75,112.917,116.304,151.385,99.4232,67.0744,0.0114121,0.118645,20.7821,49.8355,3.34854,0.0,0.0
482,120.25,112.066,115.318,151.266,99.4129,67.0043,0.011302,0.114842,20.7916,49.9056,3.35656,0.0,0.0
484,120.75,111.908,114.862,146.517,99.4236,67.3281,0.0111347,0.111761,20.7992,50.2259,3.31646,0.0,0.0
486,121.25,111.237,114.452,149.072,99.4322,67.0842,0.0109288,0.108728,20.8064,49.7254,3.34807,0.0,0.0
488,121.75,110.565,113.947,149.954,99.4055,66.9202,0.0107621,0.105786,20.8122,49.7855,3.3666,0.0,0.0
490,122.25,110.31,113.041,148.561,99.4031,66.745,0.0104841,0.103403,20.8188,49.8555,3.3887,0.0,0.0
492,122.75,109.329,112.237,149.613,99.4094,66.9707,0.0101919,0.100636,20.8241,49.8455,3.36053,0.0,0.0
494,123.25,109.006,111.434,149.851,99.4019,67.3505,0.00989492,0.0983943,20.8294,49.8055,3.31177,0.0,0.0
496,123.75,108.406,110.678,150.895,99.3893,66.7913,0.00965433,0.0961612,20.8345,49.7454,3.38163,0.0,0.0
498,124.25,108.13,110.307,151.401,99.3928,67.3154,0.00935079,0.0939766,20.8414,49.8455,3.31542,0.0,0.0
500,124.75,107.842,109.613,148.271,99.3999,67.3729,0.00900713,0.0918351,20.8438,49.8355,3.30877,0.0,0.0
502,125.25,107.324,109.387,146.541,99.4039,67.6868,0.00848009,0.0888833,20.8504,49.7755,3.26956,0.0,0.0
504,125.75,106.531,108.611,146.579,99.3976,66.9511,0.00831786,0.0877698,20.8526,49.9957,3.36201,0.0,0.0
506,126.25,106.228,107.98,146.578,99.398,66.9356,0.00798328,0.0858657,20.8564,49.8956,3.364,0.0,0.0
508,126.75,105.949,107.13,149.115,99.3767,67.0786,0.00766082,0.0843233,20.8604,49.8455,3.34403,0.0,0.0
510,127.25,105.464,106.994,146.605,99.3885,67.0295,0.0073491,0.0824396,20.8636,49.8355,3.35127,0.0,0.0
512,127.75,104.842,106.289,146.697,99.3925,67.2047,0.00705113,0.0809138,20.8675,49.8255,3.3294,0.0,0.0
514,128.25,104.559,106.262,145.392,99.3988,67.1543,0.00676195,0.0791008,20.8707,49.8155,3.33632,0.0,0.0
516,128.75,104.048,105.441,148.716,99.3621,66.8698,0.00648468,0.0776322,20.8741,49.8255,3.36931,0.0,0.0
518,129.25,103.817,104.884,153.91,99.3932,66.937,0.00621753,0.0760208,20.877,49.8155,3.36342,0.0,0.0
520,129.75,103.392,104.461,145.375,99.3822,66.539,0.00596285,0.0747155,20.8801,49.8055,3.41322,0.0,0.0
522,130.25,102.77,103.774,147.197,99.3901,66.8207,0.00575656,0.0732228,20.8827,49.8355,3.37795,0.0,0.0
524,130.75,102.591,103.407,151.595,99.3566,66.944,0.00553929,0.0720136,20.8852,49.8455,3.35939,0.0,0.0
526,131.25,102.148,102.503,150.357,99.3822,67.314,0.00531815,0.0710342,20.8877,49.8455,3.31469,0.0,0.0
528,131.75,101.653,102.197,150.718,99.3712,66.5488,0.00513903,0.0697497,20.8897,49.8555,3.41102,0.0,0.0
530,132.25,101.354,101.653,153.603,99.3645,66.8487,0.00489399,0.0687092,20.8918,49.8656,3.37219,0.0,0.0
532,132.75,100.798,101.586,148.318,99.3519,67.5677,0.00469551,0.067586,20.8939,49.8756,3.28009,0.0,0.0
534,133.25,100.765,100.786,150.271,99.3763,66.6581,0.0044545,0.0666761,20.8958,49.8756,3.39749,0.0,0.0
536,133.75,99.8847,100.643,149.554,99.3613,66.7338,0.00425928,0.0657009,20.8976,49.8656,3.38656,0.0,0.0
538,134.25,99.6019,100.134,146.417,99.3598,66.5446,0.00402229,0.064911,20.8993,49.8555,3.41058,0.0,0.0
540,134.75,99.2273,99.6892,147.887,99.3542,66.5096,0.00383033,0.064033,20.9008,49.8555,3.41459,0.0,0.0
542,135.25,99.1323,99.2379,148.087,99.3743,67.2566,0.00360462,0.0633218,20.9026,49.8956,3.32128,0.0,0.0
544,135.75,98.9436,99.7209,150.371,99.3377,67.429,0.00342179,0.0625077,20.9044,49.8756,3.29637,0.0,0.0
546,136.25,98.6457,98.7542,152.13,99.3499,67.094,0.00321328,0.0618483,20.9059,49.8756,3.33978,0.0,0.0
548,136.75,97.7025,98.1044,146.51,99.3495,67.0183,0.00304438,0.0612111,20.9071,49.8756,3.34935,0.0,0.0
550,137.25,97.7626,97.7523,147.417,99.3495,66.4395,0.00290757,0.0606021,20.908,49.8455,3.42315,0.0,0.0
552,137.75,97.1891,97.305,153.485,99.3204,66.7198,0.00273885,0.0601089,20.9093,49.8455,3.38483,0.0,0.0
554,138.25,96.9785,97.4082,147.948,99.3428,67.4332,0.00258378,0.0595834,20.9102,49.8555,3.29627,0.0,0.0
556,138.75,97.1547,96.637,154.025,99.329,66.9889,0.00244163,0.0591578,20.9113,49.8555,3.35133,0.0,0.0
558,139.25,96.4454,96.3061,151.082,99.3338,67.2496,0.00232648,0.0586871,20.9123,49.8455,3.31869,0.0,0.0
560,139.75,96.3999,96.2899,146.074,99.3117,67.2874,0.0021947,0.0583059,20.9134,49.8555,3.31202,0.0,0.0
562,140.25,95.7735,95.9157,152.574,99.3373,67.3379,0.00208795,0.0579132,20.9145,49.8455,3.30784,0.0,0.0
564,140.75,95.2881,95.7062,150.892,99.3046,66.6722,0.00197142,0.0575952,20.9156,49.8455,3.38956,0.0,0.0
566,141.25,95.1174,95.0294,149.162,99.3184,67.3883,0.00187703,0.0571977,20.9167,49.8555,3.29984,0.0,0.0
568,141.75,94.8557,94.5696,151.203,99.3219,66.9679,0.00177053,0.0568758,20.9176,49.8455,3.3534,0.0,0.0
570,142.25,94.8834,94.2672,145.929,99.3109,66.2377,0.00168426,0.056615,20.9184,49.8255,3.44573,0.0,0.0
572,142.75,94.1885,93.5928,148.933,99.3133,66.6035,0.00161439,0.0563222,20.9189,49.8055,3.39907,0.0,0.0
574,143.25,93.9892,93.6737,146.509,99.3085,66.3708,0.00154219,0.0560116,20.9193,49.8255,3.42844,0.0,0.0
576,143.75,93.895,93.6749,149.03,99.2967,66.333,0.0014837,0.055657,20.9194,49.8155,3.43228,0.0,0.0
578,144.25,93.2561,92.9626,150.718,99.3003,66.7576,0.00143633,0.0552772,20.9195,49.8355,3.37829,0.0,0.0
580,144.75,92.7382,93.5645,151.269,99.2861,66.5194,0.00138955,0.0549695,20.9198,49.8555,3.40749,0.0,0.0
582,145.25,92.7951,92.6366,148.366,99.3042,66.7296,0.00135166,0.0545527,20.9203,49.8555,3.3822,0.0,0.0
584,145.75,92.3582,92.3729,148.479,99.2833,66.724,0.00131017,0.0542151,20.9207,49.8355,3.38113,0.0,0.0
586,146.25,92.1328,92.3956,147.164,99.2865,66.71,0.00127657,0.0537881,20.921,49.8155,3.38318,0.0,0.0
588,146.75,92.114,91.8923,151.509,99.2826,66.5082,0.00124095,0.0534422,20.9212,49.8155,3.40862,0.0,0.0
590,147.25,91.3719,91.786,145.878,99.2727,66.2419,0.00121209,0.0530885,20.9214,49.8255,3.44191,0.0,0.0
592,147.75,91.6171,90.9696,150.545,99.2786,66.6399,0.00118752,0.052736,20.9218,49.8355,3.39145,0.0,0.0
594,148.25,91.4862,91.4186,148.391,99.2774,66.6904,0.00116762,0.0523916,20.9223,49.8155,3.38491,0.0,0.0
596,148.75,91.0763,90.6196,149.715,99.2727,66.34,0.00114898,0.0520598,20.9228,49.8155,3.42932,0.0,0.0
598,149.25,91.3338,90.7582,146.771,99.2786,66.9847,0.0011316,0.0517324,20.9231,49.8255,3.34755,0.0,0.0
600,149.75,90.1478,91.0202,149.838,99.2684,66.6511,0.00111184,0.0514142,20.9234,49.8155,3.38914,0.0,0.0
602,150.25,89.7185,89.9594,147.516,99.2731,66.5194,0.00109073,0.0511565,20.9241,49.8055,3.40638,0.0,0.0
604,150.75,89.7831,90.1062,150.995,99.268,66.7044,0.00107363,0.0508362,20.9246,49.8155,3.38231,0.0,0.0
606,151.25,89.4165,89.1667,147.5,99.2617,66.5096,0.00104898,0.0505768,20.9251,49.8055,3.40665,0.0,0.0
608,151.75,89.3091,89.4957,153.593,99.2723,67.1347,0.00102902,0.0503233,20.9254,49.8155,3.32798,0.0,0.0
610,152.25,89.5545,89.1329,149.01,99.2534,66.902,0.00101222,0.0500789,20.9257,49.8155,3.3559,0.0,0.0
612,152.75,88.8048,89.0899,148.187,99.2585,66.511,0.000998042,0.0498515,20.9264,49.8055,3.40621,0.0,0.0
614,153.25,88.5803,88.1144,148.629,99.2558,66.8165,0.00098908,0.049641,20.9269,49.7955,3.36698,0.0,0.0
616,153.75,88.6922,88.3468,147.68,99.2601,66.86,0.000984092,0.0494705,20.9275,49.7955,3.36182,0.0,0.0
618,154.25,88.1181,88.5855,151.105,99.2317,66.9342,0.000983838,0.0492487,20.928,49.8255,3.34994,0.0,0.0
620,154.75,87.9604,88.3088,148.47,99.2534,66.9791,0.000987041,0.049069,20.9286,49.8355,3.3461,0.0,0.0
622,155.25,88.5348,87.7176,149.145,99.2475,67.2874,0.000989634,0.0488956,20.9294,49.8455,3.30652,0.0,0.0
624,155.75,87.9846,87.5731,152.697,99.2597,67.0618,0.000998931,0.0487552,20.93,49.8555,3.33614,0.0,0.0
626,156.25,87.7107,87.2211,152.73,99.2274,66.4241,0.00100646,0.0485996,20.9304,49.8555,3.41466,0.0,0.0
628,156.75,87.4169,87.3919,149.166,99.2558,66.4227,0.00101976,0.0484736,20.9308,49.8455,3.41727,0.0,0.0
630,157.25,87.461,86.8494,145.939,99.2443,66.738,0.00103053,0.0483788,20.9311,49.7855,3.376,0.0,0.0
632,157.75,87.2201,86.9216,149.825,99.2503,66.8936,0.00104241,0.0483087,20.9314,49.7755,3.35669,0.0,0.0
634,158.25,87.1647,86.7221,150.37,99.2235,66.4059,0.00105487,0.0482519,20.9316,49.7955,3.41666,0.0,0.0
636,158.75,86.6582,86.7508,145.209,99.2656,66.5656,0.00106497,0.0481222,20.9317,49.7955,3.39982,0.0,0.0
638,159.25,86.7617,86.3322,147.715,99.2286,66.8123,0.00107315,0.0480172,20.9319,49.8155,3.36518,0.0,0.0
640,159.75,86.4372,86.1754,150.22,99.2428,66.326,0.00107977,0.0479322,20.932,49.8155,3.42855,0.0,0.0
642,160.25,86.1667,86.427,147.861,99.2487,66.7408,0.00108274,0.0478559,20.9321,49.7955,3.37601,0.0,0.0
644,160.75,86.1779,85.9838,150.082,99.2581,66.8277,0.00108135,0.0478493,20.9321,49.7655,3.36575,0.0,0.0
646,161.25,86.1743,85.3887,148.859,99.2558,66.7787,0.00107682,0.0478379,20.9322,49.7454,3.3718,0.0,0.0
648,161.75,85.434,85.2103,152.771,99.2534,66.1494,0.00107315,0.0478009,20.9322,49.7454,3.45215,0.0,0.0
650,162.25,85.7389,85.374,151.096,99.2601,66.5656,0.00105945,0.0477709,20.9323,49.7354,3.39935,0.0,0.0
652,162.75,85.1325,84.9,148.766,99.2522,66.2769,0.00103869,0.0477172,20.9323,49.7855,3.43566,0.0,0.0
654,163.25,85.0478,84.7328,149.913,99.2538,66.9945,0.00101179,0.0476473,20.9323,49.8055,3.34417,0.0,0.0
656,163.75,85.2234,84.9615,149.462,99.2617,66.7338,0.000980914,0.0475907,20.9324,49.7955,3.37802,0.0,0.0
658,164.25,84.9758,84.5769,152.33,99.2699,66.8515,0.000955905,0.047531,20.9324,49.7655,3.36373,0.0,0.0
660,164.75,84.2031,83.9351,151.823,99.2786,66.4605,0.00092304,0.0474826,20.9324,49.7755,3.41438,0.0,0.0
662,165.25,84.6498,83.8961,149.057,99.2794,66.874,0.000885073,0.0474433,20.9324,49.7655,3.36169,0.0,0.0
664,165.75,84.4571,84.148,150.483,99.2885,67.0029,0.000854319,0.0474189,20.9324,49.7555,3.34608,0.0,0.0
666,166.25,83.9328,83.7252,152.789,99.3066,66.4395,0.000832559,0.0474057,20.9324,49.7755,3.41947,0.0,0.0
668,166.75,83.7854,83.6455,149.783,99.3058,66.6287,0.00081777,0.0473804,20.9323,49.7755,3.39521,0.0,0.0
670,167.25,83.4792,83.6706,146.406,99.3302,66.6133,0.000810204,0.0473466,20.9321,49.8055,3.39927,0.0,0.0
672,167.75,83.4804,83.367,153.908,99.3416,66.3064,0.000808046,0.0473193,20.932,49.8255,3.43954,0.0,0.0
674,168.25,83.513,82.8856,148.592,99.346,66.8361,0.000805038,0.0472693,20.9319,49.8355,3.37221,0.0,0.0
676,168.75,83.1207,83.243,148.639,99.3661,67.0127,0.000801466,0.0472288,20.9319,49.8155,3.35148,0.0,0.0
678,169.25,82.9854,82.5979,148.313,99.3661,66.1452,0.000797312,0.0471821,20.9318,49.8055,3.46234,0.0,0.0
680,169.75,82.9493,82.5398,147.774,99.3854,66.6035,0.000790894,0.0471281,20.9317,49.8055,3.40525,0.0,0.0
682,170.25,82.6382,82.6161,150.071,99.3968,66.8515,0.000793581,0.0471135,20.9317,49.8155,3.3746,0.0,0.0
684,170.75,82.6506,82.4634,149.806,99.381,66.4788,0.000798176,0.0470887,20.9317,49.8255,3.42082,0.0,0.0
686,171.25,81.9247,82.2754,151.767,99.3858,66.9314,0.000801897,0.0470612,20.9317,49.7855,3.36349,0.0,0.0
688,171.75,82.4539,81.975,144.915,99.3952,66.8501,0.000823836,0.0470324,20.9317,49.7955,3.37464,0.0,0.0
690,172.25,82.1519,82.2212,151.05,99.4102,66.9426,0.000858638,0.047009,20.9316,49.8155,3.36416,0.0,0.0
692,172.75,81.9505,81.8827,153.771,99.4232,66.5698,0.000886827,0.0469762,20.9316,49.8255,3.41278,0.0,0.0
694,173.25,81.9901,81.6865,153.481,99.4433,65.6266,0.000945653,0.0469496,20.9319,49.8155,3.53591,0.0,0.0
696,173.75,81.7188,81.3709,152.262,99.4421,66.7114,0.000993302,0.0468862,20.9322,49.7855,3.39633,0.0,0.0
698,174.25,81.402,81.402,148.741,99.4488,66.5012,0.00103822,0.0468349,20.9326,49.8055,3.42375,0.0,0.0
700,174.75,81.5986,81.547,150.858,99.4622,66.4956,0.00108028,0.0467933,20.9328,49.7955,3.42562,0.0,0.0
702,175.25,81.1165,81.4143,150.882,99.4909,66.525,0.00110551,0.0467597,20.933,49.7755,3.42431,0.0,0.0
704,175.75,81.0389,81.092,148.442,99.4996,66.9931,0.00111799,0.0467324,20.9332,49.7955,3.3654,0.0,0.0
706,176.25,80.9014,81.27,153.471,99.5142,67.3827,0.00111609,0.0467382,20.9333,49.8055,3.31731,0.0,0.0
708,176.75,80.6563,80.6593,155.039,99.5102,66.5979,0.00110376,0.0467428,20.9334,49.8155,3.41665,0.0,0.0
710,177.25,80.5495,80.9255,150.632,99.5733,66.5895,0.00108494,0.0467188,20.9335,49.8055,3.42311,0.0,0.0
712,177.75,80.8229,80.7285,150.029,99.5244,66.4759,0.00106174,0.0466993,20.9336,49.7955,3.43345,0.0,0.0
714,178.25,80.8051,80.6856,150.735,99.5492,66.4493,0.00104294,0.0466695,20.9337,49.7855,3.43898,0.0,0.0
716,178.75,80.3202,80.4987,150.264,99.5583,66.6693,0.00101763,0.0466454,20.9337,49.7655,3.41163,0.0,0.0
718,179.25,80.27,80.2596,149.351,99.5741,66.9987,0.000988041,0.0466333,20.9333,49.8055,3.37105,0.0,0.0
720,179.75,80.275,80.4962,149.402,99.5717,66.4087,0.000962182,0.04663,20.933,49.8055,3.4461,0.0,0.0
722,180.25,80.1456,80.0851,146.219,99.591,67.0912,0.000939534,0.0466274,20.9332,49.7855,3.36076,0.0,0.0
724,180.75,80.0415,80.13,146.175,99.6067,66.4872,0.000921189,0.0466252,20.9333,49.7755,3.43905,0.0,0.0
726,181.25,80.0109,80.126,147.255,99.6103,66.6077,0.00090633,0.0466162,20.9334,49.7655,3.42394,0.0,0.0
728,181.75,80.0397,79.8464,150.872,99.6418,66.7745,0.000896186,0.0466022,20.9335,49.7755,3.40536,0.0,0.0
730,182.25,79.6998,79.8651,153.483,99.6505,66.6946,0.000889671,0.0465763,20.9336,49.7755,3.41628,0.0,0.0
732,182.75,79.7054,79.5829,151.079,99.6564,66.1676,0.000884395,0.046542,20.9336,49.7454,3.48427,0.0,0.0
734,183.25,79.368,79.3503,153.879,99.6548,66.2517,0.000875329,0.0465143,20.9337,49.7555,3.47333,0.0,0.0
736,183.75,79.3581,79.3182,152.048,99.6847,66.4549,0.000867985,0.0465185,20.9337,49.7855,3.44983,0.0,0.0
738,184.25,79.2197,79.4986,147.67,99.682,66.5937,0.000859646,0.0465218,20.9338,49.7555,3.43185,0.0,0.0
740,184.75,79.2275,79.1109,149.908,99.6989,67.2538,0.000852891,0.0465246,20.9336,49.7354,3.34938,0.0,0.0
742,185.25,78.8411,79.2234,148.654,99.7021,66.7226,0.000847419,0.046485,20.9335,49.7454,3.41711,0.0,0.0
744,185.75,79.0083,79.1102,151.959,99.732,66.7633,0.000832207,0.0464529,20.9334,49.7454,3.41448,0.0,0.0
746,186.25,78.8285,78.9245,150.335,99.7332,66.5825,0.000819885,0.046449,20.9334,49.7154,3.43766,0.0,0.0
748,186.75,78.5927,78.6296,148.536,99.7509,66.8347,0.000796734,0.0464655,20.9333,49.7354,3.40699,0.0,0.0
750,187.25,78.5057,78.5544,154.511,99.7454,66.483,0.000777981,0.0464716,20.9332,49.7454,3.45142,0.0,0.0
752,187.75,78.6519,78.457,150.434,99.7698,66.4984,0.00075561,0.04647,20.9332,49.7555,3.45153,0.0,0.0
754,188.25,78.4795,78.7999,152.512,99.7549,67.2271,0.000737488,0.0464686,20.9329,49.7555,3.35752,0.0,0.0
756,188.75,77.8018,78.0071,152.446,99.7848,67.1753,0.00072281,0.0464382,20.9325,49.7555,3.36664,0.0,0.0
758,189.25,78.4517,78.5137,148.423,99.7864,67.5803,0.000705252,0.0463872,20.9322,49.7755,3.31563,0.0,0.0
760,189.75,78.2457,78.4746,149.268,99.8175,67.0253,0.000685929,0.0463825,20.9319,49.7655,3.38844,0.0,0.0
762,190.25,77.9867,78.2614,146.312,99.8006,67.5299,0.00066335,0.0464117,20.9317,49.7555,3.32319,0.0,0.0
764,190.75,78.3552,77.7038,153.395,99.8336,67.4808,0.000638829,0.0464354,20.932,49.7555,3.3322,0.0,0.0
766,191.25,77.9609,78.3287,150.344,99.8273,66.8137,0.000616448,0.0464545,20.9323,49.7955,3.41619,0.0,0.0
768,191.75,77.5378,78.2306,153.501,99.8388,66.8375,0.000596053,0.0464701,20.9325,49.8155,3.41413,0.0,0.0
770,192.25,77.7645,78.0407,146.47,99.8612,67.5425,0.000579533,0.0464966,20.9326,49.7855,3.32677,0.0,0.0
772,192.75,77.8224,77.9465,149.654,99.862,67.3505,0.000591276,0.046518,20.9327,49.7655,3.35106,0.0,0.0
774,193.25,77.8331,77.87,149.309,99.8624,66.6918,0.000600787,0.0465501,20.9328,49.7755,3.43471,0.0,0.0
776,193.75,77.7707,77.0436,152.198,99.8793,67.3042,0.000624245,0.0465892,20.9329,49.7655,3.35838,0.0,0.0
778,194.25,77.4539,77.4997,148.673,99.8695,66.9426,0.000657425,0.0466209,20.933,49.7555,3.40337,0.0,0.0
780,194.75,77.4758,77.2674,150.272,99.9002,67.1655,0.0006843,0.0466466,20.933,49.7655,3.37772,0.0,0.0
782,195.25,77.2639,77.3082,147.442,99.8935,67.0337,0.000724041,0.0466674,20.9331,49.7454,3.39385,0.0,0.0
784,195.75,77.2789,77.2818,151.549,99.9073,67.0842,0.000756231,0.0466704,20.9331,49.7454,3.38862,0.0,0.0
786,196.25,77.1023,77.3254,148.374,99.8998,67.3575,0.000782305,0.0466727,20.9331,49.7454,3.3534,0.0,0.0
788,196.75,77.2627,77.1947,145.814,99.9447,67.0323,0.000803425,0.0466886,20.9332,49.7254,3.39839,0.0,0.0
790,197.25,76.4548,77.4141,150.966,99.9242,67.0464,0.000814541,0.0467014,20.9329,49.7454,3.39487,0.0,0.0
792,197.75,76.6649,77.2029,151.214,99.9554,67.499,0.000823544,0.0467118,20.9326,49.7454,3.34027,0.0,0.0
794,198.25,76.6769,77.2608,153.201,99.9349,66.9384,0.000820055,0.0467203,20.9322,49.7555,3.40948,0.0,0.0
796,198.75,76.8987,76.9239,150.089,99.9459,67.3337,0.000816023,0.0466743,20.9319,49.7555,3.36033,0.0,0.0
798,199.25,76.611,77.1018,151.089,99.9518,66.9581,0.000814939,0.0466531,20.9318,49.7354,3.40843,0.0,0.0
800,199.75,76.3739,76.7524,152.798,99.9735,67.5313,0.000790333,0.046617,20.9316,49.7855,3.33775,0.0,0.0
802,200.25,76.2265,76.6864,152.52,99.9888,67.0814,0.000770402,0.0466016,20.9315,49.7555,3.39592,0.0,0.0
804,200.75,76.5665,76.8844,153.969,99.9924,66.9048,0.000743486,0.0465892,20.9314,49.7454,3.41865,0.0,0.0
806,201.25,75.992,76.6634,148.687,99.9967,67.0548,0.000721684,0.0465931,20.9313,49.7755,3.39997,0.0,0.0
808,201.75,76.3752,76.8039,152.001,100.019,67.2384,0.000714796,0.0465962,20.9312,49.7855,3.37862,0.0,0.0
810,202.25,76.0209,76.6849,150.513,100.042,67.0295,0.000709217,0.0465841,20.9312,49.7655,3.40699,0.0,0.0
812,202.75,76.0725,76.4378,152.18,100.012,66.7576,0.000732241,0.046561,20.9311,49.7955,3.43903,0.0,0.0
814,203.25,75.6835,76.5502,150.35,100.027,66.9609,0.000750891,0.0465703,20.9311,49.8055,3.4145,0.0,0.0
816,203.75,76.095,76.4617,156.252,100.035,67.4738,0.000782398,0.0465777,20.9311,49.8055,3.35025,0.0,0.0
818,204.25,75.6342,76.4033,155.565,100.038,67.1038,0.000822679,0.0465691,20.931,49.8055,3.39727,0.0,0.0
820,204.75,75.9359,75.9315,149.546,100.04,67.1403,0.000864775,0.0465489,20.931,49.8155,3.39278,0.0,0.0
822,205.25,75.8985,75.7698,154.822,100.041,67.2187,0.000907395,0.0465326,20.931,49.8055,3.38294,0.0,0.0
824,205.75,75.8596,76.1909,152.16,100.022,67.1136,0.000941917,0.0465193,20.931,49.8055,3.39468,0.0,0.0
826,206.25,75.4246,76.3772,153.053,100.038,66.5502,0.000974931,0.0465086,20.931,49.7955,3.46775,0.0,0.0
828,206.75,75.506,75.8388,150.632,100.054,67.1711,0.00100622,0.0464999,20.931,49.7955,3.39008,0.0,0.0
830,207.25,75.5235,75.6419,150.847,100.047,67.4402,0.00102904,0.0464929,20.931,49.8055,3.3555,0.0,0.0
832,207.75,75.3269,75.7486,149.993,100.04,67.0309,0.00104525,0.0464872,20.9309,49.7755,3.40671,0.0,0.0
834,208.25,75.1839,75.8497,150.844,100.042,66.9048,0.0010508,0.0464826,20.9309,49.7955,3.42284,0.0,0.0
836,208.75,75.2701,75.7435,148.248,100.057,67.1108,0.00104848,0.0464788,20.9309,49.7855,3.39799,0.0,0.0
838,209.25,75.0236,75.9587,149.688,100.067,66.9272,0.0010466,0.0464619,20.9309,49.7555,3.42216,0.0,0.0
840,209.75,75.1379,75.8629,150.48,100.058,67.6406,0.00102469,0.0464481,20.9309,49.7354,3.33119,0.0,0.0
842,210.25,74.9786,75.4404,153.072,100.063,66.867,0.00100695,0.046437,20.9309,49.7755,3.42946,0.0,0.0
844,210.75,74.979,75.4747,147.946,100.042,66.5867,0.000974604,0.046428,20.9309,49.7655,3.46346,0.0,0.0
846,211.25,74.8758,75.5373,150.408,100.079,66.9342,0.000948403,0.0464207,20.9312,49.7454,3.42228,0.0,0.0
848,211.75,74.6827,75.3975,148.388,100.061,66.9889,0.00092718,0.0464287,20.9316,49.7254,3.41379,0.0,0.0
850,212.25,74.8511,75.56,150.612,100.061,66.8572,0.000890826,0.0464352,20.9321,49.7054,3.43057,0.0,0.0
852,212.75,74.8505,75.0533,150.817,100.064,67.2972,0.000861379,0.0464405,20.9328,49.7254,3.37496,0.0,0.0
854,213.25,74.9408,75.2279,152.058,100.056,67.1164,0.000837527,0.0464447,20.9333,49.7354,3.39721,0.0,0.0
856,213.75,74.6801,75.0575,152.342,100.064,66.7366,0.000812221,0.0464482,20.9337,49.7755,3.44616,0.0,0.0
858,214.25,74.415,74.7733,153.052,100.077,66.8824,0.000791722,0.0464522,20.9341,49.7855,3.42874,0.0,0.0
860,214.75,74.3574,75.2545,148.049,100.048,66.9062,0.00076075,0.0464555,20.9341,49.7655,3.42323,0.0,0.0
862,215.25,74.6714,75.1214,150.112,100.074,66.3008,0.000735662,0.0464582,20.934,49.7454,3.50278,0.0,0.0
864,215.75,74.1792,74.955,152.181,100.06,66.8291,0.000699601,0.0464603,20.9338,49.7454,3.43404,0.0,0.0
866,216.25,74.1624,75.1928,152.277,100.069,67.2958,0.000656226,0.04644,20.9339,49.7555,3.37557,0.0,0.0
868,216.75,74.0882,75.3288,152.056,100.068,67.1739,0.0006148,0.0464038,20.9339,49.7555,3.39093,0.0,0.0
870,217.25,74.1675,74.856,152.465,100.077,67.1024,0.000575582,0.0463745,20.934,49.7454,3.40073,0.0,0.0
872,217.75,74.2406,75.0119,155.645,100.062,66.8656,0.000554514,0.0463508,20.934,49.7454,3.42954,0.0,0.0
874,218.25,74.4519,74.7495,149.296,100.07,66.752,0.000547077,0.0463462,20.934,49.7454,3.4447,0.0,0.0
876,218.75,74.2202,74.6614,152.495,100.069,67.0295,0.000559946,0.0463557,20.934,49.7555,3.4093,0.0,0.0
878,219.25,74.307,74.7467,147.306,100.055,67.2131,0.000587375,0.0463634,20.934,49.7655,3.38482,0.0,0.0
880,219.75,74.1733,74.5701,154.562,100.073,66.7212,0.000609592,0.0463696,20.9341,49.7555,3.4489,0.0,0.0
882,220.25,74.0123,74.5928,148.727,100.067,67.3533,0.000658729,0.0463746,20.9341,49.7354,3.36814,0.0,0.0
884,220.75,73.7737,74.7289,150.943,100.066,67.0155,0.00069853,0.0463787,20.9341,49.7454,3.41088,0.0,0.0
886,221.25,73.7599,74.6322,149.946,100.078,67.2496,0.000742753,0.046382,20.9341,49.7254,3.38219,0.0,0.0
888,221.75,73.7768,74.6032,149.809,100.067,66.9623,0.000778574,0.0463994,20.9341,49.7555,3.41768,0.0,0.0
890,222.25,74.0738,74.3803,146.433,100.081,67.2664,0.000809986,0.0464266,20.9341,49.7354,3.3803,0.0,0.0
892,222.75,73.8931,74.5165,151.885,100.078,67.0506,0.000835429,0.046434,20.9341,49.7254,3.40744,0.0,0.0
894,223.25,73.551,74.0043,152.724,100.085,67.3309,0.000850046,0.0464268,20.9341,49.7454,3.37248,0.0,0.0
896,223.75,73.4709,74.4885,154.462,100.087,67.1066,0.000861885,0.0464137,20.9341,49.7354,3.40103,0.0,0.0
898,224.25,73.7123,74.4425,151.498,100.081,67.4374,0.000866429,0.0463964,20.9341,49.7254,3.35873,0.0,0.0