File: 01_Data/Latex_Pillow_Foam/Cone/Latex_Pillow_Foam_Cone_HF75Scan_230630_R4.csv
Names,Time,Stack TC,Smoke TC,Exh Press,Smoke Comp,Smoke Meas,CO Meter,CO2 Meter,O2 Meter,Sample Mass,Ext Coeff,Start Test,Flame Verif
Chan Gain,,500,500,1,1,1,1,1,1,1,1,1.0,1.0
Offset,,0,0,0.13804,0,0,0,0,0,0,0,0.0,0.0
Gain,,1,1,25.011,13.0643,73.5858,1,1,1,1.00091,0.969894,1.0,1.0
Units,sec,C,C,Pa,%,%,%,%,%,g,/m,,
Baseline,,62.9857,66.1758,154.093,100.222,100.475,0.000912786,0.0417423,20.9315,-446.513,-0.0214514,,
2,0.25,61.8917,64.2016,152.059,100.65,101.053,0.000597097,0.041779,20.9341,67.1614,-0.0339291,0.0,0.0
4,0.75,62.0473,64.0439,155.022,100.693,100.707,0.000607185,0.0417666,20.9342,67.2815,-0.00119128,0.0,0.0
6,1.25,62.0476,64.318,158.351,100.653,97.4932,0.000624435,0.0417567,20.9341,67.1213,0.271384,0.0,1.0
8,1.75,62.0118,64.2762,143.674,100.689,89.3571,0.000638408,0.0418042,20.9339,67.0813,1.0158,0.0,1.0
10,2.25,61.9954,64.1851,148.6,100.681,75.5935,0.000656259,0.0418592,20.9335,66.9712,2.43828,0.0,1.0
12,2.75,62.017,65.382,130.702,100.695,66.1909,0.000665383,0.0418872,20.9334,66.8211,3.56949,0.0,1.0
14,3.25,62.6656,65.8882,123.04,100.671,56.3998,0.000675294,0.04191,20.9332,66.6809,4.92938,0.0,1.0
16,3.75,63.2477,67.6565,126.458,100.673,58.1649,0.00068559,0.0419284,20.9331,66.5208,4.66737,0.0,1.0
18,4.25,64.1509,68.6113,109.772,100.696,54.1182,0.00069393,0.0419851,20.9329,66.4307,5.28284,0.0,1.0
20,4.75,65.2085,71.7475,122.857,100.705,54.199,0.000699377,0.0420092,20.9329,66.4307,5.27088,0.0,1.0
22,5.25,66.4405,73.7014,120.468,100.69,48.3581,0.00070869,0.0420285,20.9328,66.2305,6.23978,0.0,1.0
24,5.75,67.1795,74.8947,114.502,100.717,47.0825,0.000714343,0.0420244,20.9327,66.1504,6.46943,0.0,1.0
26,6.25,67.828,76.8537,117.499,100.75,45.313,0.00071722,0.0420211,20.9327,66.0003,6.79815,0.0,0.0
28,6.75,69.2702,79.6972,111.404,100.725,41.9512,0.00071892,0.0420462,20.9326,65.9102,7.45193,0.0,0.0
30,7.25,70.7686,81.5855,116.527,100.746,41.9198,0.00071973,0.0420666,20.9326,65.73,7.46003,0.0,0.0
32,7.75,72.3199,83.3951,102.042,100.715,38.8949,0.000720386,0.0423196,20.9326,65.71,8.09467,0.0,0.0
34,8.25,73.2387,86.126,100.454,100.727,40.0222,0.000755663,0.0425246,20.9323,65.3897,7.85256,0.0,0.0
36,8.75,74.6108,89.0257,103.903,100.727,35.2951,0.000784237,0.0448002,20.9319,65.2596,8.92192,0.0,0.0
38,9.25,75.8198,91.377,111.863,100.732,35.4365,0.000913005,0.0485422,20.9308,65.2496,8.88828,0.0,0.0
40,9.75,77.7614,94.6437,99.7514,100.733,35.3714,0.00101731,0.0585876,20.9291,65.0594,8.90407,0.0,0.0
42,10.25,79.6973,96.7093,106.571,100.742,36.2472,0.0013648,0.0730371,20.9276,64.8392,8.69668,0.0,0.0
44,10.75,81.0632,99.5595,103.913,100.751,35.6364,0.00164627,0.101874,20.9261,64.6391,8.84205,0.0,0.0
46,11.25,82.6444,102.646,110.086,100.75,34.1453,0.00187425,0.140651,20.9249,64.5189,9.2056,0.0,0.0
48,11.75,84.044,105.229,95.384,100.739,33.1639,0.00285575,0.172061,20.9226,64.3488,9.4528,0.0,0.0
50,12.25,86.1927,107.819,105.694,100.751,32.9731,0.00365077,0.223052,20.9194,64.2487,9.50292,0.0,0.0
52,12.75,87.6696,110.87,96.3854,100.754,31.7829,0.00490555,0.287349,20.9168,64.0385,9.81593,0.0,0.0
54,13.25,89.4108,113.81,103.917,100.771,34.8414,0.00647166,0.355073,20.8975,63.8684,9.03567,0.0,0.0
56,13.75,91.3737,116.796,104.927,100.764,35.706,0.00835572,0.42401,20.8598,63.7983,8.82652,0.0,0.0
58,14.25,92.7205,119.214,100.491,100.791,30.3456,0.0104358,0.494566,20.8096,63.6181,10.2128,0.0,0.0
60,14.75,94.4009,122.047,102.669,100.77,33.6355,0.0128633,0.564961,20.7689,63.438,9.33526,0.0,0.0
62,15.25,95.624,124.854,90.3006,100.8,32.5913,0.015498,0.639028,20.6458,63.2278,9.60613,0.0,0.0
64,15.75,97.5302,126.861,110.726,100.782,32.8114,0.0185116,0.714364,20.5462,63.0476,9.54733,0.0,0.0
66,16.25,99.4766,129.875,91.2745,100.783,32.5868,0.0217441,0.790043,20.4105,62.9875,9.60586,0.0,0.0
68,16.75,100.83,132.995,96.0396,100.789,32.7395,0.0250822,0.864535,20.3005,62.8374,9.56659,0.0,0.0
70,17.25,102.683,135.248,95.1474,100.795,31.062,0.0284338,0.924874,20.1684,62.6572,10.0146,0.0,0.0
72,17.75,104.373,137.77,89.5724,100.778,30.1121,0.0311487,1.00231,20.0615,62.4871,10.2774,0.0,0.0
74,18.25,105.633,140.156,94.636,100.802,30.2064,0.0352889,1.06503,19.9748,62.3169,10.2529,0.0,0.0
76,18.75,107.506,142.591,96.7853,100.793,33.6243,0.0386424,1.11584,19.85,62.0767,9.34009,0.0,0.0
78,19.25,109.384,145.228,95.5198,100.815,32.223,0.0421863,1.18964,19.749,61.9066,9.70407,0.0,0.0
80,19.75,110.748,147.209,97.9654,100.809,30.4849,0.0458016,1.24942,19.6135,61.7965,10.1754,0.0,0.0
82,20.25,111.99,149.606,88.5756,100.824,31.428,0.04873,1.3191,19.5037,61.5562,9.9174,0.0,0.0
84,20.75,113.563,151.53,91.1447,100.808,32.9169,0.0522772,1.37554,19.3919,61.4762,9.52223,0.0,0.0
86,21.25,114.901,153.887,90.9761,100.827,30.038,0.0551505,1.4391,19.2807,61.306,10.3025,0.0,0.0
88,21.75,115.783,156.115,88.2298,100.817,32.0523,0.0584521,1.49058,19.1592,61.0858,9.74942,0.0,0.0
90,22.25,117.858,157.495,104.888,100.839,31.9378,0.0611265,1.54561,19.0323,60.9357,9.78176,0.0,0.0
92,22.75,119.118,159.929,91.7157,100.823,32.5801,0.0638215,1.59019,18.9067,60.7855,9.61098,0.0,0.0
94,23.25,120.309,162.113,100.009,100.833,30.6712,0.0664805,1.63311,18.7844,60.6454,10.1255,0.0,0.0
96,23.75,121.98,164.023,100.844,100.838,30.8374,0.0691553,1.67401,18.6853,60.4452,10.08,0.0,0.0
98,24.25,123.027,165.38,99.7224,100.857,30.6892,0.071791,1.70713,18.5744,60.3251,10.1226,0.0,0.0
100,24.75,124.291,166.736,87.1467,100.826,30.7611,0.0739259,1.7442,18.4846,60.0949,10.1001,0.0,0.0
102,25.25,125.706,169.099,87.0254,100.853,29.3643,0.0762592,1.77422,18.4118,59.9448,10.4977,0.0,0.0
104,25.75,127.525,170.7,90.409,100.847,28.3919,0.0786928,1.79854,18.3529,59.7546,10.7837,0.0,0.0
106,26.25,128.024,172.294,94.8863,100.864,28.0506,0.0806639,1.82383,18.279,59.6445,10.888,0.0,0.0
108,26.75,128.948,173.451,102.422,100.852,27.9226,0.0827157,1.84934,18.2192,59.4743,10.9259,0.0,0.0
110,27.25,130.981,175.737,87.6787,100.863,26.775,0.0847873,1.87001,18.1525,59.2441,11.2839,0.0,0.0
112,27.75,131.355,177.574,94.2459,100.867,26.2787,0.0866825,1.89099,18.0986,59.0439,11.4434,0.0,0.0
114,28.25,132.946,179.313,92.7965,100.88,27.9405,0.0884132,1.90939,18.0353,58.8338,10.9228,0.0,0.0
116,28.75,134.602,181.244,92.1927,100.871,25.5219,0.0898151,1.92556,17.9841,58.7737,11.6923,0.0,0.0
118,29.25,135.355,182.826,89.0427,100.876,23.5547,0.0912798,1.93866,17.9314,58.5335,12.3752,0.0,0.0
120,29.75,136.671,183.981,97.3265,100.882,26.0452,0.0924661,1.95174,17.8785,58.4334,11.5206,0.0,0.0
122,30.25,138.249,186.235,99.35,100.876,25.0054,0.0936544,1.96234,17.8299,58.2332,11.8667,0.0,0.0
124,30.75,139.631,188.412,93.6552,100.905,27.972,0.0946168,1.97347,17.7853,58.013,10.9153,0.0,0.0
126,31.25,141.014,189.577,102.25,100.901,25.2435,0.0956248,1.98248,17.7453,57.8829,11.7882,0.0,0.0
128,31.75,141.824,191.312,95.1428,100.893,26.7413,0.0964412,1.99069,17.7097,57.6727,11.2971,0.0,0.0
130,32.25,143.244,192.629,85.0836,100.882,27.7452,0.0971025,1.99815,17.6807,57.4925,10.9827,0.0,0.0
132,32.75,144.233,194.755,92.5286,100.898,27.6171,0.0979633,2.0042,17.6552,57.3224,11.0234,0.0,0.0
134,33.25,145.446,195.656,100.25,100.889,27.9293,0.0986605,2.01052,17.6327,57.1022,10.927,0.0,0.0
136,33.75,146.407,196.908,89.435,100.903,27.1433,0.0997042,2.01966,17.6033,56.942,11.1711,0.0,0.0
138,34.25,147.22,198.207,88.7458,100.894,26.7436,0.100022,2.02535,17.5933,56.8619,11.2965,0.0,0.0
140,34.75,148.707,200.01,92.9209,100.91,26.3394,0.100675,2.03507,17.5763,56.6418,11.4274,0.0,0.0
142,35.25,150.066,201.894,93.288,100.916,24.2554,0.101301,2.04711,17.5585,56.4316,12.1292,0.0,0.0
144,35.75,150.886,203.42,89.6938,100.931,29.6607,0.102039,2.06061,17.5432,56.3014,10.4188,0.0,0.0
146,36.25,151.697,204.955,97.9486,100.923,28.9062,0.102637,2.07526,17.5299,56.0112,10.6374,0.0,0.0
148,36.75,152.834,206.392,84.3356,100.936,24.7337,0.103412,2.09047,17.5138,55.9311,11.9648,0.0,0.0
150,37.25,153.463,207.406,96.8159,100.948,26.2136,0.104039,2.1064,17.4958,55.6709,11.4714,0.0,0.0
152,37.75,154.323,209.018,102.278,100.945,25.7914,0.104741,2.12256,17.4813,55.5708,11.6092,0.0,0.0
154,38.25,155.249,209.215,89.4831,100.957,25.3625,0.105483,2.13565,17.4567,55.3706,11.7529,0.0,0.0
156,38.75,156.902,210.399,94.5192,100.967,22.5105,0.106084,2.1533,17.4367,55.2004,12.7687,0.0,0.0
158,39.25,157.282,211.528,94.9917,100.971,24.9718,0.106816,2.1676,17.4206,55.0203,11.8862,0.0,0.0
160,39.75,158.596,213.212,90.2426,100.997,25.65,0.107976,2.18671,17.3842,54.8101,11.6604,0.0,0.0
162,40.25,159.098,214.398,85.7522,100.983,25.2098,0.108289,2.1935,17.3744,54.6199,11.8065,0.0,0.0
164,40.75,160.523,215.225,90.5265,100.995,21.5202,0.109136,2.20509,17.3518,54.4397,13.1538,0.0,0.0
166,41.25,161.216,216.207,97.8204,100.992,23.5256,0.109823,2.21718,17.3282,54.3396,12.3955,0.0,0.0
168,41.75,162.195,217.437,81.1031,101.011,25.0571,0.110667,2.22697,17.3035,54.0894,11.8605,0.0,0.0
170,42.25,162.8,218.873,80.5795,100.986,22.5262,0.111352,2.23895,17.2784,54.0194,12.7643,0.0,0.0
172,42.75,164.383,220.163,102.991,101.009,22.5015,0.112191,2.24865,17.252,53.8792,12.7756,0.0,0.0
174,43.25,164.711,221.075,91.6241,100.992,26.7032,0.113337,2.26385,17.2138,53.639,11.3177,0.0,0.0
176,43.75,165.648,222.631,89.3678,101.013,24.5159,0.113757,2.26794,17.2011,53.4789,12.0465,0.0,0.0
178,44.25,166.996,224.325,90.2517,101.014,22.5038,0.114476,2.27347,17.1795,53.3888,12.7752,0.0,0.0
180,44.75,167.847,224.701,86.2247,101.031,23.3234,0.115291,2.27795,17.1585,53.1486,12.4722,0.0,0.0
182,45.25,168.367,225.99,102.974,101.056,25.1267,0.115951,2.27926,17.1383,53.0184,11.8407,0.0,0.0
184,45.75,169.126,226.789,90.1006,101.055,23.2359,0.116486,2.27824,17.122,52.9083,12.5063,0.0,0.0
186,46.25,170.029,227.384,93.3323,101.043,25.0391,0.11709,2.27741,17.1078,52.7382,11.8693,0.0,0.0
188,46.75,170.753,228.101,98.3989,101.049,23.5143,0.117579,2.27666,17.0955,52.528,12.4044,0.0,0.0
190,47.25,171.8,228.925,94.6886,101.052,22.7396,0.118072,2.27605,17.0855,52.3378,12.6897,0.0,0.0
192,47.75,171.868,229.267,90.4685,101.082,23.9814,0.118472,2.27758,17.0774,52.2177,12.2398,0.0,0.0
194,48.25,172.337,229.145,102.325,101.067,27.6059,0.118903,2.28065,17.0709,52.0375,11.0411,0.0,0.0
196,48.75,172.712,229.834,96.1869,101.077,23.0607,0.11954,2.2842,17.0605,51.9174,12.5725,0.0,0.0
198,49.25,173.093,229.377,92.9987,101.077,24.8101,0.119712,2.28754,17.0559,51.7172,11.9504,0.0,0.0
200,49.75,173.946,229.912,88.1771,101.089,23.1348,0.120331,2.29326,17.0481,51.6472,12.5462,0.0,0.0
202,50.25,173.981,230.393,87.0856,101.095,24.462,0.121126,2.2979,17.0448,51.407,12.0721,0.0,0.0
204,50.75,175.082,231.23,93.8666,101.104,24.828,0.121769,2.30233,17.0421,51.2869,11.9465,0.0,0.0
206,51.25,175.585,231.558,89.451,101.114,24.5855,0.123378,2.30592,17.0392,51.1968,12.0309,0.0,0.0
208,51.75,175.769,231.862,94.8749,101.086,24.8729,0.12381,2.30776,17.0362,51.0566,11.9296,0.0,0.0
210,52.25,176.363,232.32,95.3565,101.098,24.6484,0.125046,2.30829,17.0293,50.8765,12.0078,0.0,0.0
212,52.75,176.997,233.355,100.02,101.098,23.8534,0.126048,2.30572,17.0198,50.7364,12.2867,0.0,0.0
214,53.25,177.448,233.183,93.8994,101.13,21.994,0.126959,2.30092,17.012,50.6263,12.9798,0.0,0.0
216,53.75,177.665,233.904,93.9322,101.115,25.605,0.127787,2.29704,17.0057,50.4861,11.6853,0.0,0.0
218,54.25,178.029,233.386,110.623,101.127,24.2195,0.128458,2.28849,17.0007,50.316,12.1596,0.0,0.0
220,54.75,178.25,233.861,93.0209,101.118,26.4269,0.128654,2.27672,16.9965,50.1758,11.4167,0.0,0.0
222,55.25,178.586,233.089,107.222,101.152,25.0144,0.128813,2.26228,16.9932,50.0357,11.8869,0.0,0.0
224,55.75,178.675,232.981,108.257,101.14,23.7524,0.128299,2.24618,16.991,49.9056,12.3264,0.0,0.0
226,56.25,179.295,232.552,91.3401,101.153,24.9111,0.127883,2.22419,16.9896,49.7354,11.9222,0.0,0.0
228,56.75,178.946,232.153,100.657,101.138,25.906,0.126735,2.20638,16.9959,49.6454,11.5878,0.0,0.0
230,57.25,179.535,230.951,92.3179,101.14,25.906,0.125805,2.18658,17.0078,49.5052,11.588,0.0,0.0
232,57.75,179.18,231.534,102.553,101.147,27.0512,0.124203,2.17055,17.0268,49.3851,11.2205,0.0,0.0
234,58.25,179.344,230.317,109.979,101.153,27.6553,0.122906,2.15611,17.0507,49.3251,11.0331,0.0,0.0
236,58.75,178.808,229.459,102.315,101.15,25.9419,0.121222,2.14441,17.0782,49.1549,11.577,0.0,0.0
238,59.25,178.859,228.435,111.295,101.15,27.579,0.119859,2.13389,17.1078,49.0648,11.0564,0.0,0.0
240,59.75,178.597,227.675,113.162,101.154,26.5976,0.118451,2.12444,17.1318,49.0148,11.365,0.0,0.0
242,60.25,177.377,225.943,110.773,101.167,25.9666,0.117039,2.11678,17.1628,48.9247,11.5704,0.0,0.0
244,60.75,177.367,225.059,120.067,101.157,28.0146,0.115895,2.10245,17.1879,48.8546,10.9236,0.0,0.0
246,61.25,177.223,223.388,118.537,101.173,33.3413,0.114628,2.09084,17.2099,48.7746,9.44403,0.0,0.0
248,61.75,176.512,221.809,120.721,101.189,33.2672,0.113601,2.0704,17.2292,48.7345,9.46427,0.0,0.0
250,62.25,175.955,220.361,121.135,101.185,36.638,0.112479,2.05385,17.2453,48.6344,8.64282,0.0,0.0
252,62.75,175.049,218.702,125.261,101.175,37.4284,0.11157,2.03236,17.2587,48.6144,8.46034,0.0,0.0
254,63.25,174.272,216.883,124.453,101.202,45.7419,0.110437,2.00766,17.2753,48.5243,6.75612,0.0,0.0
256,63.75,173.422,214.815,130.265,101.183,49.281,0.10952,1.98021,17.2937,48.5343,6.12043,0.0,0.0
258,64.25,172.711,213.159,132.521,101.197,51.7153,0.108278,1.95125,17.3086,48.4843,5.71143,0.0,0.0
260,64.75,171.909,211.363,132.269,101.18,57.1835,0.107272,1.91722,17.3385,48.4443,4.85489,0.0,0.0
262,65.25,170.593,209.51,136.244,101.205,61.3986,0.106102,1.88011,17.3627,48.4342,4.25188,0.0,0.0
264,65.75,169.947,207.431,132.235,101.177,63.3905,0.104835,1.85006,17.405,48.4042,3.97787,0.0,0.0
266,66.25,169.26,205.362,136.267,101.206,69.6335,0.103808,1.80344,17.4393,48.3742,3.1812,0.0,0.0
268,66.75,167.707,203.44,139.736,101.191,72.9526,0.102446,1.76568,17.467,48.3542,2.78377,0.0,0.0
270,67.25,167.098,201.613,138.314,101.194,76.9543,0.100865,1.71867,17.5131,48.3141,2.32966,0.0,0.0
272,67.75,165.58,199.272,140.02,101.201,80.2285,0.0990542,1.6658,17.5503,48.2641,1.9758,0.0,0.0
274,68.25,164.611,197.132,139.578,101.206,82.0542,0.0971093,1.60932,17.6081,48.2441,1.78473,0.0,0.0
276,68.75,163.973,195.124,142.179,101.187,83.4308,0.094917,1.55128,17.6549,48.2341,1.64161,0.0,0.0
278,69.25,163.186,193.379,137.248,101.211,86.7522,0.0925859,1.49051,17.7222,48.2341,1.31149,0.0,0.0
280,69.75,161.785,190.895,142.532,101.203,87.637,0.0900013,1.4289,17.7767,48.204,1.22446,0.0,0.0
282,70.25,160.993,189.505,141.654,101.207,90.1004,0.087281,1.36621,17.8751,48.214,0.989003,0.0,0.0
284,70.75,159.607,188.07,143.834,101.201,93.2893,0.0850775,1.30391,17.9548,48.204,0.692528,0.0,0.0
286,71.25,158.253,185.886,140.94,101.203,92.4674,0.0815995,1.25345,18.0194,48.204,0.767986,0.0,0.0
288,71.75,157.639,184.12,143.247,101.215,94.6165,0.0787824,1.21257,18.0958,48.204,0.573551,0.0,0.0
290,72.25,156.964,182.55,138.532,101.21,95.4653,0.0765005,1.13735,18.1794,48.194,0.497159,0.0,0.0
292,72.75,155.952,181.128,141.785,101.199,97.0103,0.0723946,1.07642,18.2692,48.174,0.359599,0.0,0.0
294,73.25,155.124,179.398,144.851,101.205,99.7253,0.0690689,1.01355,18.3619,48.184,0.1253,0.0,0.0
296,73.75,153.825,176.988,147.519,101.213,100.249,0.0663751,0.950456,18.4369,48.164,0.0814137,0.0,0.0
298,74.25,153.112,175.89,143.005,101.202,99.8713,0.0621424,0.89935,18.5204,48.154,0.112588,0.0,0.0
300,74.75,153.023,174.477,145.1,101.204,101.809,0.058714,0.835689,18.6085,48.154,-0.0507257,0.0,0.0
302,75.25,151.413,172.82,143.711,101.209,101.288,0.0543984,0.784123,18.6799,48.134,-0.00667361,0.0,0.0
304,75.75,150.28,171.6,142.516,101.203,101.976,0.0509029,0.733854,18.7973,48.134,-0.064735,0.0,0.0
306,76.25,149.787,170.023,142.001,101.205,101.124,0.0469806,0.685484,18.9247,48.144,0.00673881,0.0,0.0
308,76.75,148.707,168.527,144.049,101.202,101.086,0.0438036,0.639925,19.0569,48.144,0.0097167,0.0,0.0
310,77.25,147.534,166.467,143.657,101.212,102.766,0.0403173,0.59728,19.1903,48.104,-0.129626,0.0,0.0
312,77.75,146.293,165.354,147.181,101.206,102.29,0.0374934,0.55742,19.3219,48.0939,-0.0906227,0.0,0.0
314,78.25,145.96,163.989,146.047,101.193,102.043,0.0344608,0.520346,19.448,48.0939,-0.0711578,0.0,0.0
316,78.75,144.665,162.468,143.741,101.211,102.059,0.0320044,0.481574,19.5675,48.124,-0.0709267,0.0,0.0
318,79.25,144.008,160.957,147.925,101.209,101.158,0.0294484,0.45017,19.677,48.104,0.00427384,0.0,0.0
320,79.75,143.801,160.077,149.323,101.209,102.463,0.027378,0.420164,19.7771,48.114,-0.104725,0.0,0.0
322,80.25,142.159,158.114,145.606,101.185,102.878,0.025701,0.391747,19.8582,48.164,-0.141162,0.0,0.0
324,80.75,140.705,156.521,148.819,101.204,101.596,0.0237931,0.36873,19.9456,48.184,-0.0328788,0.0,0.0
326,81.25,140.111,155.03,146.324,101.196,102.705,0.0222477,0.345911,20.0165,48.164,-0.125945,0.0,0.0
328,81.75,139.594,154.747,146.478,101.211,101.102,0.0206772,0.32367,20.083,48.144,0.009198,0.0,0.0
330,82.25,138.719,152.98,142.802,101.202,101.791,0.0200077,0.311887,20.1157,48.124,-0.0494244,0.0,0.0
332,82.75,137.821,152.075,147.128,101.213,102.362,0.0181781,0.28315,20.2038,48.0939,-0.0960276,0.0,0.0
334,83.25,137.034,150.628,145.023,101.186,102.701,0.017655,0.273284,20.2328,48.0739,-0.126445,0.0,0.0
336,83.75,136.535,149.622,148.077,101.207,101.524,0.0166622,0.256415,20.2825,48.0739,-0.0265906,0.0,0.0
338,84.25,136.002,148.496,148.222,101.189,101.706,0.0157695,0.24275,20.3396,48.0939,-0.0433625,0.0,0.0
340,84.75,134.998,147.368,145.844,101.209,103.543,0.0149792,0.227869,20.3858,48.114,-0.193978,0.0,0.0
342,85.25,133.901,146.217,147.962,101.188,101.677,0.0142784,0.215815,20.4291,48.0739,-0.0409861,0.0,0.0
344,85.75,133.533,145.459,144.285,101.207,102.366,0.0137109,0.204352,20.4695,48.0839,-0.0969375,0.0,0.0
346,86.25,132.648,144.032,144.598,101.201,102.16,0.0131174,0.193537,20.5064,48.0739,-0.0802184,0.0,0.0
348,86.75,132.159,143.347,144.517,101.198,102.447,0.0126367,0.183437,20.5401,48.0939,-0.104391,0.0,0.0
350,87.25,131.107,142.445,142.18,101.189,102.427,0.0122474,0.174049,20.5674,48.0939,-0.10345,0.0,0.0
352,87.75,131.04,141.466,148.264,101.197,101.724,0.0118,0.166445,20.5937,48.0939,-0.0441607,0.0,0.0
354,88.25,130.195,140.309,144.456,101.191,101.973,0.0114376,0.157987,20.6188,48.0739,-0.0654861,0.0,0.0
356,88.75,129.778,139.777,148.099,101.191,102.914,0.0110539,0.151136,20.6426,48.0739,-0.14363,0.0,0.0
358,89.25,129.418,138.219,150.485,101.197,100.963,0.010743,0.144672,20.6651,48.0639,0.0196824,0.0,0.0
360,89.75,128.3,137.972,145.567,101.207,101.45,0.0104511,0.138612,20.6852,48.0439,-0.0204117,0.0,0.0
362,90.25,127.576,136.888,144.594,101.189,102.348,0.0101785,0.132912,20.7032,48.0939,-0.0968852,0.0,0.0
364,90.75,127.235,135.789,140.155,101.191,102.054,0.00991888,0.127583,20.7205,48.0839,-0.0722282,0.0,0.0
366,91.25,126.638,134.966,148.282,101.191,101.499,0.00967374,0.122577,20.7371,48.0839,-0.0258942,0.0,0.0
368,91.75,125.853,134.403,149.385,101.2,102.753,0.00941487,0.1179,20.7505,48.0839,-0.129515,0.0,0.0
370,92.25,125.178,133.708,146.915,101.179,102.788,0.00915091,0.113482,20.7645,48.0839,-0.134233,0.0,0.0
372,92.75,124.787,133.095,146.005,101.176,103.471,0.00888808,0.109337,20.7758,48.0939,-0.190854,0.0,0.0
374,93.25,124.489,132.298,145.918,101.185,102.056,0.00852151,0.104549,20.7925,48.0939,-0.0729514,0.0,0.0
376,93.75,123.811,131.088,145.017,101.173,101.78,0.00842291,0.102738,20.797,48.114,-0.0508997,0.0,0.0
378,94.25,123.137,130.329,145.153,101.176,101.34,0.00817091,0.0996426,20.8047,48.134,-0.0137933,0.0,0.0
380,94.75,122.486,129.866,144.508,101.174,102.602,0.00789175,0.0971349,20.8109,48.124,-0.119261,0.0,0.0
382,95.25,121.21,129.158,145.749,101.181,101.861,0.00766563,0.0943967,20.8177,48.114,-0.057018,0.0,0.0
384,95.75,120.927,128.78,148.213,101.185,101.879,0.00739426,0.0915426,20.8232,48.124,-0.0581826,0.0,0.0
386,96.25,120.66,127.939,144.589,101.195,101.481,0.00709507,0.0892307,20.8282,48.124,-0.0240195,0.0,0.0
388,96.75,120.292,127.167,150.146,101.181,99.9072,0.00680684,0.0864837,20.8327,48.114,0.10775,0.0,0.0
390,97.25,120.232,126.371,144.311,101.172,101.724,0.00653206,0.0842586,20.8377,48.104,-0.0462728,0.0,0.0
392,97.75,119.353,125.996,145.058,101.161,101.827,0.00626822,0.0817946,20.8418,48.124,-0.0558128,0.0,0.0
394,98.25,118.552,125.253,147.995,101.179,101.796,0.00601736,0.0797988,20.8473,48.114,-0.0517113,0.0,0.0
396,98.75,118.59,124.777,147.781,101.159,103.226,0.00577233,0.0777041,20.8517,48.104,-0.172145,0.0,0.0
398,99.25,117.877,124.066,146.156,101.139,102.068,0.00553621,0.0760074,20.8567,48.0839,-0.0777437,0.0,0.0
400,99.75,117.424,123.24,147.231,101.16,101.998,0.0053077,0.0741274,20.8607,48.104,-0.0701612,0.0,0.0
402,100.25,117.334,122.666,145.547,101.153,102.054,0.00508908,0.0726047,20.8648,48.0739,-0.075413,0.0,0.0
404,100.75,116.564,121.874,147.407,101.157,101.654,0.004912,0.0711275,20.8682,48.0639,-0.0417555,0.0,0.0
406,101.25,116.126,121.411,146.602,101.162,102.845,0.00473459,0.0697118,20.8709,48.0439,-0.140354,0.0,0.0
408,101.75,115.551,120.771,144.959,101.156,102.254,0.0045603,0.0682994,20.8744,48.0839,-0.091858,0.0,0.0
410,102.25,115.398,120.006,144.466,101.173,101.697,0.00441914,0.0669163,20.8773,48.104,-0.0439181,0.0,0.0
412,102.75,114.374,119.805,146.336,101.146,102.784,0.00426952,0.0657961,20.8798,48.0739,-0.136712,0.0,0.0
414,103.25,114.341,118.954,153.033,101.175,101.677,0.00414834,0.0645132,20.8821,48.0939,-0.042126,0.0,0.0
416,103.75,113.114,118.787,147.487,101.151,103.166,0.00401129,0.0634741,20.8846,48.0539,-0.167817,0.0,0.0
418,104.25,113.851,117.982,147.697,101.14,102.847,0.00390028,0.0623525,20.8872,48.0639,-0.14235,0.0,0.0
420,104.75,112.356,117.805,148.777,101.128,102.465,0.00376546,0.061444,20.8897,48.124,-0.111717,0.0,0.0
422,105.25,112.605,116.902,148.532,101.12,101.706,0.00358226,0.0600154,20.8933,48.104,-0.0491964,0.0,0.0
424,105.75,112.133,116.254,149.567,101.148,101.086,0.00351566,0.0596311,20.8947,48.104,0.00515774,0.0,0.0
426,106.25,111.941,116.066,150.139,101.136,102.056,0.00340179,0.0587974,20.8972,48.104,-0.0770759,0.0,0.0
428,106.75,111.197,115.569,147.566,101.141,102.483,0.00327261,0.0579632,20.8992,48.104,-0.112169,0.0,0.0
430,107.25,111.235,114.696,146.784,101.133,101.587,0.00313473,0.0572875,20.9008,48.0739,-0.038128,0.0,0.0
432,107.75,110.71,114.407,150.085,101.123,101.591,0.00302305,0.0564747,20.9021,48.0739,-0.0393088,0.0,0.0
434,108.25,109.873,114.06,147.659,101.129,102.202,0.00285529,0.0558164,20.9036,48.0339,-0.0898396,0.0,0.0
436,108.75,109.565,113.339,143.088,101.11,102.968,0.00271941,0.0550318,20.9052,47.9838,-0.154925,0.0,0.0
438,109.25,109.568,113.054,146.497,101.13,102.144,0.00257799,0.0543963,20.9068,47.9438,-0.0848438,0.0,0.0
440,109.75,109.207,112.879,146.929,101.097,102.128,0.00246345,0.0537641,20.9083,48.0039,-0.0863185,0.0,0.0
442,110.25,109.002,112.732,147.546,101.114,102.328,0.00234656,0.0531462,20.9097,47.9738,-0.10151,0.0,0.0
444,110.75,108.24,111.894,143.367,101.113,102.858,0.00225189,0.0525502,20.9111,47.9538,-0.14556,0.0,0.0
446,111.25,108.486,111.878,151.261,101.101,101.973,0.00214992,0.0519816,20.9124,47.9838,-0.0730649,0.0,0.0
448,111.75,107.196,110.774,149.967,101.1,102.144,0.00206732,0.0514476,20.9137,48.0539,-0.0874266,0.0,0.0
450,112.25,107.353,110.561,147.354,101.091,102.77,0.00197755,0.050949,20.9148,48.0739,-0.140159,0.0,0.0
452,112.75,106.947,109.944,147.52,101.088,102.104,0.00190484,0.0504491,20.9156,48.0139,-0.0850661,0.0,0.0
454,113.25,106.205,109.378,144.84,101.094,103.503,0.00183645,0.0499577,20.9166,47.9638,-0.200314,0.0,0.0
456,113.75,106.073,109.293,148.672,101.063,103.505,0.00177251,0.0495597,20.9175,48.0639,-0.20315,0.0,0.0
458,114.25,106.079,108.889,150.566,101.079,101.897,0.00172072,0.049084,20.9183,48.0139,-0.0685717,0.0,0.0
460,114.75,105.808,108.54,147.625,101.072,102.142,0.00166314,0.0486987,20.9191,48.0139,-0.0895547,0.0,0.0
462,115.25,104.783,108.368,146.574,101.069,102.083,0.00161651,0.0482473,20.9198,48.0339,-0.084959,0.0,0.0
464,115.75,104.785,107.712,146.67,101.079,101.398,0.00156071,0.0478817,20.9205,48.0539,-0.026878,0.0,0.0
466,116.25,104.937,107.404,149.649,101.055,102.598,0.00151551,0.0475298,20.921,48.0439,-0.128852,0.0,0.0
468,116.75,104.586,107.063,145.767,101.075,103.289,0.00146374,0.0472447,20.9214,48.0239,-0.18437,0.0,0.0
470,117.25,104.147,106.513,146.568,101.071,101.728,0.00140815,0.0470139,20.9217,48.0339,-0.0551344,0.0,0.0
472,117.75,103.718,106.195,145.154,101.067,102.409,0.00136312,0.0467682,20.922,48.0139,-0.112221,0.0,0.0
474,118.25,103.729,105.76,144.486,101.063,102.49,0.00131907,0.0465164,20.9222,47.9939,-0.119304,0.0,0.0
476,118.75,103.405,106.125,144.324,101.054,102.162,0.00127657,0.0462759,20.9219,47.9438,-0.0927828,0.0,0.0
478,119.25,103.079,105.592,149.784,101.038,102.384,0.00124151,0.046048,20.9216,48.0039,-0.112586,0.0,0.0
480,119.75,102.287,105.682,145.524,101.051,102.171,0.00121255,0.0458195,20.9219,47.9838,-0.093799,0.0,0.0
482,120.25,102.693,105.002,147.971,101.049,102.389,0.00118972,0.0455948,20.9221,48.0139,-0.112086,0.0,0.0
484,120.75,102.479,105.067,145.943,101.052,102.726,0.0011718,0.0454128,20.9222,48.0339,-0.139762,0.0,0.0
486,121.25,101.502,104.427,147.418,101.04,102.112,0.00115728,0.0452361,20.9224,48.0139,-0.0898078,0.0,0.0
488,121.75,101.701,104.204,145.314,101.042,102.389,0.00113605,0.0450666,20.9225,48.0139,-0.112623,0.0,0.0
490,122.25,101.325,103.608,148.999,101.019,100.386,0.00111033,0.0449513,20.9226,48.0139,0.0535268,0.0,0.0
492,122.75,101.162,104.127,144.881,101.041,101.623,0.0010895,0.0448777,20.9226,48.0539,-0.0488205,0.0,0.0
494,123.25,100.615,103.621,145.186,101.029,103.026,0.00104985,0.044818,20.9227,48.0339,-0.166595,0.0,0.0
496,123.75,100.677,102.757,145.008,101.041,102.306,0.00101773,0.044714,20.9227,48.0439,-0.105817,0.0,0.0
498,124.25,100.67,102.555,147.342,101.016,102.681,0.000976146,0.0446298,20.923,48.0539,-0.139062,0.0,0.0
500,124.75,99.9747,102.667,147.224,101.004,102.654,0.00094246,0.0445337,20.9234,48.0639,-0.137804,0.0,0.0
502,125.25,99.5372,102.491,149.744,101.003,102.66,0.000909185,0.0444559,20.9238,48.0439,-0.138462,0.0,0.0
504,125.75,100.066,102.353,150.017,100.998,102.227,0.000882233,0.044365,20.9241,48.0839,-0.102905,0.0,0.0
506,126.25,99.7468,101.772,147.728,100.991,102.618,0.000861598,0.0442914,20.9243,48.0339,-0.135967,0.0,0.0
508,126.75,99.244,101.444,146.553,100.995,101.282,0.000844885,0.0441622,20.9245,47.9838,-0.0240902,0.0,0.0
510,127.25,98.8416,100.964,148.688,100.981,101.791,0.000826935,0.0440576,20.9249,48.0039,-0.0679798,0.0,0.0
512,127.75,99.009,101.086,149.638,100.985,102.928,0.000808425,0.0439728,20.9254,48.0539,-0.162125,0.0,0.0
514,128.25,98.7839,100.441,146.007,100.983,101.587,0.000793432,0.0438763,20.9258,48.0539,-0.0507145,0.0,0.0
516,128.75,98.3388,100.432,150.419,100.976,102.488,0.00078009,0.0437981,20.9262,48.0239,-0.126404,0.0,0.0
518,129.25,97.7113,100.02,143.979,100.968,102.234,0.000769283,0.0437641,20.9264,48.0239,-0.105985,0.0,0.0
520,129.75,98.363,99.9601,146.911,100.971,102.647,0.000764311,0.0437629,20.9267,48.0439,-0.140033,0.0,0.0
522,130.25,97.2266,99.7904,144.802,100.953,102.283,0.000763687,0.0437693,20.9268,48.0639,-0.111405,0.0,0.0
524,130.75,97.3401,99.6897,148.173,100.967,101.877,0.00076066,0.043781,20.927,48.0439,-0.0763191,0.0,0.0
526,131.25,97.3524,98.8969,147.204,100.974,101.654,0.000755939,0.0437613,20.9271,48.0339,-0.057161,0.0,0.0
528,131.75,96.9955,99.2352,149.963,100.941,101.843,0.000743925,0.0437189,20.9272,48.0339,-0.0756555,0.0,0.0
530,132.25,96.4821,98.7953,148.956,100.939,103.078,0.000726821,0.0436845,20.9273,48.0439,-0.178382,0.0,0.0
532,132.75,96.6159,98.621,149.407,100.945,101.702,0.000699114,0.043615,20.9274,48.0039,-0.0634928,0.0,0.0
534,133.25,96.5302,98.1306,148.479,100.929,101.614,0.000664202,0.0435586,20.9274,48.0239,-0.0575071,0.0,0.0
536,133.75,96.2522,98.6535,149.778,100.925,102.054,0.000635924,0.0434851,20.9274,48.0439,-0.094683,0.0,0.0
538,134.25,96.0442,98.0349,147.265,100.913,101.668,0.000579547,0.0434256,20.9275,48.0539,-0.0633626,0.0,0.0
540,134.75,95.7144,98.1129,147.013,100.908,103.256,0.000533881,0.0433774,20.9275,48.0339,-0.195635,0.0,0.0
542,135.25,96.0648,97.5905,144.698,100.909,102.007,0.000496892,0.0433384,20.9275,48.0439,-0.0920615,0.0,0.0
544,135.75,95.7519,97.4904,144.181,100.913,102.577,0.00044543,0.0433068,20.9275,48.0439,-0.139201,0.0,0.0
546,136.25,95.5004,97.5719,149.662,100.908,102.47,0.000403745,0.0432811,20.9276,48.0439,-0.130659,0.0,0.0
548,136.75,95.2963,97.1185,147.329,100.907,103.134,0.000374758,0.0432604,20.9276,48.0639,-0.185771,0.0,0.0
550,137.25,95.1924,97.0308,145.43,100.9,102.171,0.000351278,0.0432289,20.9276,48.0839,-0.106496,0.0,0.0
552,137.75,94.9178,96.5186,150.26,100.915,103.256,0.000349238,0.0431903,20.9276,48.0839,-0.195096,0.0,0.0
554,138.25,94.5717,96.7008,153.848,100.897,102.64,0.000362868,0.043159,20.9276,48.0739,-0.145725,0.0,0.0
556,138.75,94.4823,96.7522,150.653,100.894,102.077,0.000392162,0.0431336,20.9276,48.0839,-0.0991772,0.0,0.0
558,139.25,94.1254,96.328,152.438,100.902,103.044,0.00043232,0.043113,20.9276,48.0539,-0.178795,0.0,0.0
560,139.75,93.9569,96.4706,144.069,100.892,102.887,0.000481229,0.0430964,20.9276,48.0839,-0.166646,0.0,0.0
562,140.25,94.2658,95.6042,143.086,100.889,103.204,0.000535588,0.0430829,20.9276,48.0739,-0.192992,0.0,0.0
564,140.75,93.9542,95.4966,147.023,100.889,103.085,0.000579619,0.0430647,20.9276,48.0639,-0.183174,0.0,0.0
566,141.25,94.2485,95.6074,151.127,100.899,102.564,0.000629156,0.0430433,20.9276,48.0839,-0.139259,0.0,0.0
568,141.75,93.5444,95.5007,145.127,100.866,103.372,0.000681766,0.043026,20.9279,48.0639,-0.208782,0.0,0.0
570,142.25,93.6626,95.1244,150.997,100.871,102.074,0.000724381,0.0429563,20.9282,48.0839,-0.100906,0.0,0.0
572,142.75,93.1489,95.0746,146.985,100.838,102.939,0.000763945,0.0428999,20.9284,48.0839,-0.175457,0.0,0.0
574,143.25,93.1623,94.9368,145.221,100.851,100.963,0.000800535,0.0428542,20.9286,48.0839,-0.00939427,0.0,0.0
576,143.75,92.9916,94.7252,146.91,100.83,102.708,0.000830172,0.0428172,20.9287,48.0839,-0.156957,0.0,0.0
578,144.25,92.6775,94.4082,146.254,100.833,101.531,0.000846986,0.0427872,20.9288,48.0839,-0.0586508,0.0,0.0
580,144.75,92.7356,94.663,145.246,100.811,102.258,0.000860606,0.0427629,20.9289,48.0939,-0.121286,0.0,0.0
582,145.25,92.4622,94.3427,147.835,100.825,101.962,0.000853663,0.0427432,20.929,48.0939,-0.0953768,0.0,0.0
584,145.75,92.3669,94.4442,143.795,100.811,101.971,0.000848039,0.0427412,20.929,48.114,-0.0973704,0.0,0.0
586,146.25,92.3009,93.9379,147.412,100.822,101.958,0.000823124,0.0427396,20.9291,48.104,-0.0952712,0.0,0.0
588,146.75,91.7971,93.8937,148.403,100.828,102.809,0.000802943,0.0427382,20.9291,48.0939,-0.165525,0.0,0.0
590,147.25,91.9444,93.7591,147.269,100.825,102.205,0.000773429,0.0427372,20.9292,48.104,-0.115657,0.0,0.0
592,147.75,91.79,93.5461,144.38,100.787,102.151,0.000749522,0.0427085,20.9292,48.124,-0.114333,0.0,0.0
594,148.25,91.6986,93.6104,148.821,100.779,102.178,0.000727009,0.0426852,20.9292,48.114,-0.11725,0.0,0.0
596,148.75,91.6308,93.2005,145.273,100.771,102.223,0.000705938,0.0426664,20.9292,48.0939,-0.121662,0.0,0.0
598,149.25,90.9685,92.9761,148.222,100.784,101.899,0.000688871,0.0426651,20.9292,48.104,-0.0935939,0.0,0.0
600,149.75,91.2133,93.0387,145.188,100.766,102.494,0.000667868,0.042664,20.9293,48.0739,-0.144651,0.0,0.0
602,150.25,90.8857,93.4306,150.873,100.766,101.805,0.000650855,0.0426492,20.9293,48.0639,-0.087298,0.0,0.0
604,150.75,90.8859,92.4883,148.206,100.747,101.547,0.000620329,0.0426372,20.9293,48.0539,-0.0672703,0.0,0.0
606,151.25,90.5312,92.5391,151.643,100.736,101.964,0.000595603,0.0426055,20.9293,48.0539,-0.103137,0.0,0.0
608,151.75,90.6029,92.6621,147.021,100.721,102.411,0.000562423,0.0425601,20.9293,48.0539,-0.14159,0.0,0.0
610,152.25,90.5551,92.4352,149.581,100.731,101.675,0.000535548,0.042538,20.9293,48.0639,-0.0793016,0.0,0.0
612,152.75,90.3659,92.6176,148.67,100.709,102.452,0.000506607,0.0425332,20.9293,48.0339,-0.145991,0.0,0.0
614,153.25,89.4396,91.7639,149.152,100.708,102.324,0.000483164,0.0425154,20.9293,47.9038,-0.135388,0.0,0.0
616,153.75,90.1275,92.2986,150.953,100.708,102.211,0.000457006,0.042501,20.9295,47.9538,-0.126048,0.0,0.0
618,154.25,90.3102,91.3048,147.945,100.693,101.463,0.000435817,0.0424894,20.9299,47.9738,-0.0648867,0.0,0.0
620,154.75,89.8819,91.614,148.919,100.701,100.987,0.000411113,0.0424799,20.9303,48.0739,-0.0241985,0.0,0.0
622,155.25,89.8156,91.3685,148.879,100.687,99.622,0.000384316,0.0424723,20.9305,48.0739,0.090501,0.0,0.0
624,155.75,89.9003,91.3181,148.946,100.686,100.832,0.00035147,0.042422,20.9308,48.0539,-0.0123809,0.0,0.0
626,156.25,89.6425,90.8944,151.35,100.665,101.481,0.000341445,0.0424085,20.9308,48.0439,-0.0687174,0.0,0.0
628,156.75,89.5625,90.8439,146.692,100.667,101.951,0.000324301,0.0423853,20.9308,48.0539,-0.107806,0.0,0.0
630,157.25,88.8805,91.0583,146.424,100.664,101.439,0.000312929,0.0423666,20.9308,48.0639,-0.0652408,0.0,0.0
632,157.75,89.025,90.574,147.197,100.65,101.796,0.000305981,0.0423514,20.9308,48.0839,-0.0963487,0.0,0.0
634,158.25,88.9935,90.4558,148.891,100.646,101.232,0.000305384,0.0423391,20.9308,48.0139,-0.0494448,0.0,0.0
636,158.75,88.7491,90.6963,148.664,100.641,101.942,0.000309426,0.0423292,20.9308,48.0039,-0.109247,0.0,0.0
638,159.25,88.7722,90.4125,145.474,100.632,101.816,0.000316474,0.0423072,20.9308,48.0139,-0.0995543,0.0,0.0
640,159.75,88.5159,90.0329,151.785,100.642,101.612,0.000325578,0.042304,20.9308,48.0039,-0.0815505,0.0,0.0
642,160.25,88.6081,90.0162,148.907,100.61,101.726,0.00033484,0.0423147,20.9308,48.0339,-0.093899,0.0,0.0
644,160.75,88.3476,90.0145,151.559,100.609,102.124,0.00034404,0.0423086,20.9308,48.0339,-0.127145,0.0,0.0
646,161.25,87.8858,89.9292,146.652,100.612,101.378,0.000355267,0.0422906,20.9308,48.0339,-0.0645694,0.0,0.0
648,161.75,88.5743,89.6253,146.765,100.595,101.711,0.000367758,0.0422759,20.9308,48.0339,-0.0938657,0.0,0.0
650,162.25,88.3711,89.9748,150.428,100.591,102.16,0.000377875,0.0422084,20.9308,48.0039,-0.131621,0.0,0.0
652,162.75,87.8611,89.7223,147.882,100.582,102.265,0.000408789,0.0421538,20.9308,48.0139,-0.141216,0.0,0.0
654,163.25,87.7049,90.0498,145.337,100.558,101.47,0.00043383,0.0421095,20.9308,48.0239,-0.0768113,0.0,0.0
656,163.75,87.8122,89.7176,147.841,100.565,101.697,0.000454112,0.0421029,20.9308,48.0439,-0.0952337,0.0,0.0
658,164.25,87.5152,89.894,146.338,100.559,101.398,0.000470541,0.0421239,20.9308,48.0339,-0.0707503,0.0,0.0
660,164.75,87.4086,88.7467,145.593,100.548,100.92,0.000512568,0.0421409,20.9304,48.0039,-0.0314322,0.0,0.0
662,165.25,87.3814,89.2576,147.228,100.533,100.332,0.00054661,0.0421421,20.9298,47.9939,0.0170319,0.0,0.0
664,165.75,87.2291,89.2422,148.943,100.553,102.321,0.000586151,0.042143,20.9295,48.0139,-0.148314,0.0,0.0
666,166.25,87.0933,88.7713,151.837,100.542,100.419,0.000618179,0.0421437,20.9292,48.0139,0.0103843,0.0,0.0
668,166.75,87.7493,89.0667,149.48,100.54,100.974,0.00065011,0.0421443,20.929,48.0339,-0.0366157,0.0,0.0
670,167.25,87.5355,89.1471,148.655,100.525,101.273,0.000675975,0.0421301,20.9289,48.0439,-0.0630601,0.0,0.0
672,167.75,87.3863,88.9171,147.321,100.521,102.321,0.000700518,0.0421055,20.9287,48.0439,-0.151013,0.0,0.0
674,168.25,86.3445,89.0067,148.24,100.521,102.038,0.000720398,0.0420782,20.9286,48.0539,-0.127487,0.0,0.0
676,168.75,87.0584,88.7702,146.577,100.518,102.117,0.000740915,0.0420495,20.9285,48.0639,-0.134308,0.0,0.0
678,169.25,86.5931,88.9816,149.645,100.516,101.21,0.000761506,0.0420263,20.9285,48.0639,-0.0585176,0.0,0.0
680,169.75,87.1068,88.6774,145.05,100.52,101.219,0.000778185,0.042077,20.9284,48.0639,-0.0589021,0.0,0.0
682,170.25,86.56,88.6177,146.887,100.492,100.174,0.000806075,0.0421181,20.9284,48.0739,0.026896,0.0,0.0
684,170.75,86.4211,88.4186,146.604,100.496,102.227,0.000828666,0.0421367,20.9283,48.0839,-0.145259,0.0,0.0
686,171.25,86.4177,88.4005,146.975,100.485,101.544,0.000855799,0.0421387,20.9283,48.0539,-0.0891975,0.0,0.0
688,171.75,86.3387,88.5187,149.318,100.49,100.814,0.000885728,0.0421182,20.9283,48.0339,-0.0273893,0.0,0.0
690,172.25,86.716,88.1458,150.671,100.477,101.881,0.000916282,0.042082,20.9283,48.0139,-0.118083,0.0,0.0
692,172.75,85.9539,88.1298,149.916,100.492,100.866,0.000946712,0.0420526,20.9282,48.0239,-0.0316449,0.0,0.0
694,173.25,86.0173,88.1504,147.774,100.469,101.717,0.000970161,0.0420287,20.9282,48.0239,-0.105091,0.0,0.0
696,173.75,86.0481,87.993,143.27,100.472,102.355,0.000989154,0.0420241,20.9282,48.0339,-0.157998,0.0,0.0
698,174.25,85.8049,87.2764,148.638,100.461,101.627,0.000991347,0.0420335,20.9282,48.0239,-0.0982496,0.0,0.0
700,174.75,85.3678,87.6472,152.859,100.473,102.537,0.000993122,0.0420192,20.9282,48.0039,-0.173003,0.0,0.0
702,175.25,85.4237,87.9795,150.597,100.459,101.122,0.000981943,0.0419878,20.9282,48.0039,-0.0559797,0.0,0.0
704,175.75,85.6592,87.1234,149.505,100.45,101.704,0.000961531,0.0419624,20.9286,47.9638,-0.105551,0.0,0.0
706,176.25,85.7095,87.2046,145.088,100.471,101.225,0.000944997,0.0419279,20.929,48.0539,-0.0636528,0.0,0.0
708,176.75,85.6806,87.1478,149.468,100.468,100.889,0.000927191,0.0418999,20.9293,48.104,-0.0355651,0.0,0.0
710,177.25,84.8972,87.0329,148.68,100.448,100.909,0.000908795,0.0419066,20.9295,48.0939,-0.0389568,0.0,0.0
712,177.75,84.9782,87.5875,149.645,100.449,100.594,0.000892634,0.0419383,20.9297,48.124,-0.0123413,0.0,0.0
714,178.25,85.4759,87.0462,145.696,100.47,101.881,0.000878408,0.041964,20.9299,48.124,-0.118657,0.0,0.0
716,178.75,84.7642,86.6323,143.688,100.495,100.873,0.000866886,0.0419849,20.93,48.0939,-0.0319432,0.0,0.0
718,179.25,84.2705,86.835,149.615,100.512,101.356,0.000851563,0.0420017,20.9299,48.0839,-0.0711164,0.0,0.0
720,179.75,84.7347,87.2222,145.951,100.489,101.425,0.000839151,0.0419861,20.9295,48.0839,-0.0788824,0.0,0.0
722,180.25,84.5987,87.0452,143.656,100.53,101.082,0.000807545,0.0419471,20.9293,48.0439,-0.0465696,0.0,0.0
724,180.75,85.1641,86.6272,149.341,100.549,101.679,0.000781944,0.0419082,20.9291,48.0539,-0.0951137,0.0,0.0
726,181.25,84.5298,87.044,148.66,100.573,101.704,0.000738472,0.0418701,20.9289,48.0039,-0.0951568,0.0,0.0
728,181.75,84.7629,86.9017,146.446,100.568,100.725,0.00070326,0.0418392,20.9288,47.9738,-0.013259,0.0,0.0
730,182.25,84.6243,86.8544,151.103,100.591,101.423,0.000662779,0.0418142,20.9286,47.9638,-0.0700574,0.0,0.0
732,182.75,84.8601,86.7325,148.381,100.584,100.967,0.000619226,0.0417939,20.9286,48.0239,-0.0323713,0.0,0.0
734,183.25,84.7622,86.7244,150.26,100.611,101.062,0.000583949,0.0417775,20.9285,48.0239,-0.0379879,0.0,0.0
736,183.75,84.4193,86.2126,145.449,100.61,101.569,0.000548454,0.0417642,20.9284,48.0239,-0.0807416,0.0,0.0
738,184.25,84.3777,86.405,147.263,100.639,101.371,0.000513475,0.0417535,20.9284,48.0339,-0.0617115,0.0,0.0
740,184.75,84.453,86.3258,146.582,100.637,101.78,0.000485143,0.0417308,20.9283,47.9738,-0.0961133,0.0,0.0
742,185.25,83.9871,86.4592,151.211,100.66,101.428,0.000471755,0.0417125,20.9283,47.9538,-0.0646695,0.0,0.0
744,185.75,84.501,86.1456,146.41,100.676,100.471,0.00046091,0.0416838,20.9283,47.9738,0.0173375,0.0,0.0
746,186.25,84.2318,85.9914,148.131,100.681,101.47,0.000468866,0.0416605,20.9283,47.9838,-0.0664617,0.0,0.0
748,186.75,83.8658,85.8834,145.867,100.669,100.278,0.000475309,0.0416416,20.9282,48.0039,0.0331347,0.0,0.0
750,187.25,84.074,86.0737,148.274,100.702,100.889,0.000487454,0.0416542,20.9282,47.9939,-0.0157354,0.0,0.0
752,187.75,84.2535,86.2192,148.631,100.7,102.029,0.000503524,0.0416643,20.9281,48.0439,-0.111567,0.0,0.0
754,188.25,84.038,85.8964,145.843,100.723,101.973,0.00051654,0.0417004,20.928,48.0539,-0.104998,0.0,0.0
756,188.75,83.7195,85.6842,149.725,100.725,101.567,0.000519906,0.0417296,20.9279,48.0439,-0.070782,0.0,0.0
758,189.25,83.8597,86.1466,149.866,100.738,101.192,0.000522633,0.0417115,20.9278,48.0339,-0.038266,0.0,0.0
760,189.75,83.762,85.8915,149.039,100.766,101.728,0.000511686,0.0416968,20.9277,47.9939,-0.0808804,0.0,0.0
762,190.25,83.6468,85.772,148.7,100.768,101.14,0.00050282,0.0416777,20.9276,48.0239,-0.0313966,0.0,0.0
764,190.75,83.8951,85.4842,151.142,100.784,101.52,0.000495638,0.0416555,20.9275,48.0339,-0.0618821,0.0,0.0
766,191.25,83.49,85.9083,149.046,100.786,101.744,0.000482647,0.0416376,20.9275,48.0139,-0.0805128,0.0,0.0
768,191.75,83.5973,85.5563,152.299,100.792,102.13,0.000472125,0.041637,20.9275,48.0439,-0.112212,0.0,0.0
770,192.25,83.0566,86.0863,146.265,100.812,101.313,0.000465992,0.0416365,20.9277,48.0139,-0.0421607,0.0,0.0
772,192.75,83.6567,85.4153,147.748,100.828,101.751,0.000461025,0.0416361,20.928,48.0239,-0.0775093,0.0,0.0
774,193.25,83.3885,85.8893,146.411,100.833,100.969,0.000466566,0.0416358,20.9284,48.0439,-0.011476,0.0,0.0
776,193.75,83.2952,85.4148,151.856,100.839,101.246,0.000471055,0.0416216,20.9286,48.0339,-0.0342137,0.0,0.0
778,194.25,82.9921,85.1268,147.603,100.866,101.935,0.000487848,0.0416102,20.9288,48.0239,-0.0896638,0.0,0.0
780,194.75,82.9741,85.8302,151.291,100.878,101.104,0.00050145,0.0416009,20.929,48.0039,-0.0190215,0.0,0.0
782,195.25,83.4042,85.4855,149.937,100.858,101.814,0.000518135,0.0415933,20.9291,48.0239,-0.0802758,0.0,0.0
784,195.75,83.4173,85.2983,149.805,100.877,100.877,0.000536751,0.0416092,20.9292,48.0139,-1.47061e-05,0.0,0.0
786,196.25,82.3968,84.9092,151.13,100.885,101.697,0.000544903,0.0416418,20.9293,48.0039,-0.0682257,0.0,0.0
788,196.75,82.8471,85.3486,146.627,100.887,100.909,0.000545429,0.0416648,20.9294,48.0239,-0.00182527,0.0,0.0
790,197.25,82.7474,85.2254,150.305,100.903,101.21,0.000545571,0.0416618,20.9294,48.0439,-0.0258474,0.0,0.0
792,197.75,83.1147,85.3156,147.015,100.914,101.614,0.000528823,0.0416566,20.9295,48.0539,-0.0587846,0.0,0.0
794,198.25,82.8801,85.0414,142.477,100.927,101.434,0.000499965,0.0416597,20.9295,48.0539,-0.0426194,0.0,0.0
796,198.75,82.9435,84.9987,147.21,100.953,102.029,0.000472187,0.0416688,20.9295,48.0339,-0.0902711,0.0,0.0
798,199.25,82.5532,84.7576,147.337,100.947,102.775,0.000445725,0.0416762,20.9296,48.0239,-0.152685,0.0,0.0
800,199.75,82.7766,84.6966,146.529,100.968,102.05,0.00043058,0.0416821,20.9296,48.0139,-0.0906125,0.0,0.0