File: 01_Data/Latex_Pillow_Foam/Cone/Latex_Pillow_Foam_Cone_HF75Scan_230628_R3.csv
Names,Time,Stack TC,Smoke TC,Exh Press,Smoke Comp,Smoke Meas,CO Meter,CO2 Meter,O2 Meter,Sample Mass,Ext Coeff,Start Test,Flame Verif
Chan Gain,,500,500,1,1,1,1,1,1,1,1,1.0,1.0
Offset,,0,0,0.13804,0,0,0,0,0,0,0,0.0,0.0
Gain,,1,1,25.011,12.9677,71.848,1,1,1,1.00091,0.969894,1.0,1.0
Units,sec,C,C,Pa,%,%,%,%,%,g,/m,,
Baseline,,65.9753,68.9884,153.294,99.8209,100.264,0.000830119,0.0416797,20.9356,-445.736,-0.0376074,,
2,0.25,63.3932,65.3884,155.337,100.338,98.9774,0.000639136,0.0424429,20.9349,67.812,0.116195,1.0,0.0
4,0.75,63.196,65.1539,159.014,100.312,97.7363,0.000653919,0.0424038,20.9349,67.9721,0.221297,0.0,1.0
6,1.25,62.7909,64.633,158.295,100.329,93.68,0.000665262,0.0423259,20.9349,67.6518,0.583412,0.0,1.0
8,1.75,62.6672,65.0383,145.759,100.283,83.5084,0.000673884,0.0422482,20.9349,67.5517,1.55735,0.0,1.0
10,2.25,62.7825,64.974,133.42,100.301,63.6322,0.000680237,0.0421721,20.9349,67.3816,3.87156,0.0,1.0
12,2.75,63.3366,66.1792,123.514,100.265,54.1798,0.000684816,0.0421104,20.9349,67.3115,5.23666,0.0,1.0
14,3.25,63.5627,67.6078,117.204,100.283,47.5383,0.000688524,0.0421022,20.9349,67.1814,6.35076,0.0,1.0
16,3.75,64.5902,69.5262,121.983,100.256,46.0693,0.000697515,0.0420955,20.9349,67.1113,6.61554,0.0,1.0
18,4.25,66.1773,71.9471,118.109,100.23,40.8552,0.000704797,0.0421179,20.9349,66.9812,7.63525,0.0,1.0
20,4.75,67.1217,74.1178,114.236,100.22,43.7955,0.000711893,0.0421361,20.9349,66.8411,7.04311,0.0,1.0
22,5.25,68.0972,76.4423,116.942,100.218,40.4123,0.000717641,0.0421508,20.9349,66.721,7.72691,0.0,1.0
24,5.75,69.2199,78.9568,108.51,100.191,38.8205,0.000722297,0.0422652,20.9349,66.5908,8.06656,0.0,1.0
26,6.25,71.3028,81.8364,107.967,100.179,39.4629,0.000707801,0.0424502,20.9349,66.4507,7.92588,0.0,1.0
28,6.75,72.3481,84.8803,107.157,100.148,40.1207,0.000679618,0.0426,20.936,66.2906,7.78258,0.0,1.0
30,7.25,73.8447,87.8187,108.182,100.13,37.1979,0.00065679,0.0429579,20.9369,66.1204,8.42459,0.0,1.0
32,7.75,75.3159,90.689,100.38,100.101,37.0159,0.000627598,0.0432479,20.9377,65.9002,8.4639,0.0,0.0
34,8.25,77.0945,92.9944,114.495,100.09,38.4017,0.000594324,0.0450258,20.9378,65.8602,8.15024,0.0,0.0
36,8.75,78.8403,95.6249,103.092,100.068,37.7044,0.000587518,0.0478547,20.938,65.7501,8.30425,0.0,0.0
38,9.25,80.334,98.2355,100.059,100.049,35.7661,0.000600137,0.050146,20.9376,65.5699,8.75168,0.0,0.0
40,9.75,82.1933,101.269,100.918,100.033,32.1132,0.000753899,0.0699312,20.9374,65.2896,9.66688,0.0,0.0
42,10.25,83.4945,104.472,107.082,99.9937,37.8776,0.00100763,0.0859573,20.9358,65.1595,8.25896,0.0,0.0
44,10.75,85.4999,106.499,93.5086,99.9652,32.1571,0.00151448,0.132891,20.9345,65.0394,9.64951,0.0,0.0
46,11.25,87.0008,109.805,110.369,99.9925,31.0498,0.00219622,0.170907,20.9318,64.8192,9.94995,0.0,0.0
48,11.75,88.8782,112.533,97.6173,99.9858,30.6398,0.00328498,0.246823,20.9295,64.7191,10.0625,0.0,0.0
50,12.25,90.1204,115.744,95.4252,99.9925,34.1633,0.00464976,0.308315,20.9068,64.4689,9.13694,0.0,0.0
52,12.75,92.1957,118.614,104.12,100.01,29.368,0.00641676,0.400947,20.8884,64.3488,10.4252,0.0,0.0
54,13.25,94.0045,121.249,100.583,100.009,29.493,0.0084434,0.475979,20.8212,64.1586,10.389,0.0,0.0
56,13.75,95.2269,123.572,92.2981,100.025,30.631,0.010085,0.582236,20.7668,63.9384,10.0682,0.0,0.0
58,14.25,96.7965,126.508,101.266,100.027,31.6703,0.0125608,0.668305,20.7227,63.8583,9.78453,0.0,0.0
60,14.75,98.5888,128.926,97.2494,100.046,32.7798,0.0155978,0.756989,20.6076,63.6782,9.4932,0.0,0.0
62,15.25,99.9675,131.929,101.833,100.04,32.2185,0.0188547,0.845896,20.5144,63.5581,9.63961,0.0,0.0
64,15.75,102.458,134.027,94.7054,100.061,29.6202,0.02221,0.929294,20.3688,63.3178,10.3568,0.0,0.0
66,16.25,103.193,136.731,103.47,100.058,27.774,0.0249278,1.00709,20.2509,63.2278,10.9041,0.0,0.0
68,16.75,105.34,138.848,89.5419,100.077,25.8445,0.0288756,1.07011,20.1187,62.9875,11.5183,0.0,0.0
70,17.25,106.706,141.773,99.0782,100.088,26.2984,0.0320733,1.14507,19.9787,62.8374,11.3711,0.0,0.0
72,17.75,107.97,144.22,93.3231,100.103,27.0088,0.0359405,1.2058,19.8268,62.6572,11.1456,0.0,0.0
74,18.25,109.432,146.447,104.32,100.114,23.9632,0.0390728,1.26551,19.669,62.4671,12.1644,0.0,0.0
76,18.75,111.389,148.846,97.0937,100.121,29.5084,0.0428771,1.32335,19.5191,62.347,10.3941,0.0,0.0
78,19.25,112.43,150.28,99.6492,100.116,29.9403,0.0459585,1.41581,19.3174,62.2068,10.27,0.0,0.0
80,19.75,114.501,152.522,87.1498,100.137,26.6229,0.0491426,1.44069,19.2632,62.0167,11.2709,0.0,0.0
82,20.25,115.427,154.674,82.4488,100.15,30.2341,0.052341,1.48322,19.1322,61.8065,10.1898,0.0,0.0
84,20.75,116.92,156.991,86.2613,100.172,28.7015,0.0549317,1.53384,19.0262,61.6463,10.6343,0.0,0.0
86,21.25,118.488,159.342,90.2922,100.138,27.8858,0.0585073,1.57484,18.9191,61.5262,10.8767,0.0,0.0
88,21.75,120.279,162.643,86.1842,100.19,30.0653,0.0614035,1.61913,18.8132,61.346,10.2409,0.0,0.0
90,22.25,121.154,164.273,88.4122,100.185,25.7963,0.06469,1.65499,18.709,61.1359,11.5433,0.0,0.0
92,22.75,122.939,166.842,101.441,100.201,29.3373,0.067352,1.69058,18.608,60.9757,10.4503,0.0,0.0
94,23.25,124.522,168.705,84.3722,100.196,29.1817,0.0700067,1.72527,18.5122,60.7755,10.4951,0.0,0.0
96,23.75,125.902,170.629,84.7187,100.222,30.4534,0.0726057,1.75906,18.4219,60.5653,10.1344,0.0,0.0
98,24.25,127.979,172.564,91.2921,100.22,25.5726,0.0751529,1.79155,18.3489,60.4652,11.6204,0.0,0.0
100,24.75,128.785,175.104,95.9229,100.249,29.1225,0.0776139,1.82184,18.2653,60.2951,10.5169,0.0,0.0
102,25.25,130.264,177.125,90.1868,100.231,27.2587,0.0800617,1.84994,18.1976,60.1349,11.0781,0.0,0.0
104,25.75,131.629,179.024,99.0294,100.248,29.6947,0.0824534,1.87546,18.121,60.0148,10.3513,0.0,0.0
106,26.25,132.608,181.549,87.668,100.257,28.7673,0.0848054,1.89861,18.059,59.8146,10.622,0.0,0.0
108,26.75,134.332,182.772,89.6731,100.282,27.8376,0.0870837,1.91736,17.998,59.6545,10.9037,0.0,0.0
110,27.25,136.121,184.678,100.003,100.266,31.2055,0.0889292,1.93662,17.939,59.3642,9.93067,0.0,0.0
112,27.75,137.409,186.897,92.479,100.284,27.7104,0.0909123,1.95588,17.8911,59.1941,10.9428,0.0,0.0
114,28.25,138.638,187.871,94.0147,100.282,29.8175,0.092958,1.97148,17.8524,59.084,10.3191,0.0,0.0
116,28.75,139.918,190.133,85.4553,100.322,28.8308,0.0946149,1.99102,17.8028,58.8237,10.6087,0.0,0.0
118,29.25,140.894,191.871,99.8476,100.314,30.0456,0.0964495,2.01306,17.7627,58.6936,10.257,0.0,0.0
120,29.75,142.501,193.335,100.767,100.336,25.1385,0.0983785,2.03092,17.7275,58.5435,11.7759,0.0,0.0
122,30.25,143.562,194.907,100.206,100.324,24.7197,0.0999411,2.04876,17.6967,58.3533,11.9178,0.0,0.0
124,30.75,144.582,195.703,106.552,100.341,27.3552,0.102037,2.06627,17.6661,58.1731,11.0573,0.0,0.0
126,31.25,145.371,196.848,92.9659,100.347,26.7435,0.103735,2.08344,17.6362,58.023,11.2503,0.0,0.0
128,31.75,146.29,198.374,84.9027,100.373,27.3136,0.105719,2.09734,17.6011,57.7728,11.073,0.0,0.0
130,32.25,148.063,200.059,87.9405,100.372,23.4063,0.107326,2.1115,17.5627,57.6627,12.3864,0.0,0.0
132,32.75,149.046,201.95,83.2075,100.393,26.1712,0.109125,2.12296,17.523,57.4825,11.4382,0.0,0.0
134,33.25,150.326,203.429,88.0268,100.416,26.636,0.110583,2.13542,17.483,57.3124,11.2904,0.0,0.0
136,33.75,150.886,204.982,81.1619,100.408,22.9064,0.112186,2.14551,17.4471,57.1622,12.5731,0.0,0.0
138,34.25,151.862,206.011,83.6196,100.425,24.928,0.113485,2.155,17.4149,56.9921,11.855,0.0,0.0
140,34.75,153.494,207.294,82.2488,100.439,24.0356,0.114702,2.16387,17.3888,56.7819,12.1663,0.0,0.0
142,35.25,154.476,208.951,94.3604,100.457,27.9955,0.115835,2.17105,17.3628,56.6217,10.8703,0.0,0.0
144,35.75,155.756,210.587,87.4062,100.44,25.919,0.116754,2.1784,17.3417,56.4616,11.5246,0.0,0.0
146,36.25,156.695,211.884,88.5076,100.473,25.7085,0.117549,2.18436,17.3212,56.3615,11.5967,0.0,0.0
148,36.75,157.488,213.347,83.9303,100.48,25.7612,0.118193,2.18977,17.3013,56.1713,11.5799,0.0,0.0
150,37.25,158.213,214.378,98.531,100.494,23.1498,0.118605,2.19414,17.2829,56.0012,12.4905,0.0,0.0
152,37.75,159.45,215.807,102.93,100.483,23.7615,0.118938,2.19779,17.2659,55.811,12.2676,0.0,0.0
154,38.25,160.458,217.06,86.6651,100.518,24.6232,0.119129,2.20084,17.2522,55.5808,11.9675,0.0,0.0
156,38.75,161.483,218.247,100.551,100.51,26.3532,0.119212,2.20505,17.2392,55.4607,11.3892,0.0,0.0
158,39.25,162.848,220.1,94.4971,100.528,25.8664,0.11925,2.21004,17.2288,55.2705,11.5493,0.0,0.0
160,39.75,163.459,220.987,80.6192,100.53,25.9804,0.119254,2.21638,17.2194,55.0303,11.5121,0.0,0.0
162,40.25,164.695,222.152,101.311,100.56,25.7656,0.119305,2.22357,17.2118,54.9402,11.5853,0.0,0.0
164,40.75,165.537,223.251,95.8771,100.561,23.0116,0.119391,2.2294,17.2034,54.76,12.5471,0.0,0.0
166,41.25,166.615,224.807,80.0979,100.581,23.3581,0.11946,2.23748,17.1967,54.5198,12.4217,0.0,0.0
168,41.75,167.479,226.16,86.1926,100.586,22.6849,0.119654,2.24402,17.1912,54.3396,12.6708,0.0,0.0
170,42.25,168.336,226.848,90.8295,100.59,20.0472,0.119934,2.24922,17.184,54.1795,13.7229,0.0,0.0
172,42.75,169.369,227.351,101.021,100.593,21.593,0.120278,2.25334,17.1783,53.9893,13.0911,0.0,0.0
174,43.25,170.026,229.166,95.758,100.626,19.0188,0.120664,2.25668,17.1643,53.8192,14.1739,0.0,0.0
176,43.75,170.765,229.913,72.143,100.604,23.7834,0.121077,2.25812,17.153,53.589,12.27,0.0,0.0
178,44.25,171.718,232.233,88.89,100.634,20.3498,0.121504,2.2593,17.1376,53.4488,13.5991,0.0,0.0
180,44.75,173.03,232.876,105.865,100.628,19.6087,0.121937,2.26174,17.1251,53.2987,13.9143,0.0,0.0
182,45.25,174.264,234.745,88.787,100.647,20.7422,0.122366,2.26613,17.115,53.0385,13.4377,0.0,0.0
184,45.75,175.101,235.769,84.3768,100.649,22.948,0.122824,2.27187,17.1068,52.8783,12.578,0.0,0.0
186,46.25,176.179,236.885,92.8049,100.672,19.2271,0.123295,2.27852,17.0997,52.7582,14.0851,0.0,0.0
188,46.75,176.74,238.048,92.1652,100.662,19.9376,0.123814,2.2857,17.094,52.548,13.7756,0.0,0.0
190,47.25,178.058,239.051,89.7548,100.688,21.3277,0.124358,2.29152,17.0884,52.3478,13.2044,0.0,0.0
192,47.75,178.785,241.286,84.1699,100.684,18.7798,0.124799,2.29694,17.0831,52.1877,14.2864,0.0,0.0
194,48.25,179.791,242.2,94.6024,100.689,19.0079,0.125755,2.30412,17.0738,52.0075,14.1841,0.0,0.0
196,48.75,180.373,243.321,93.9879,100.708,21.2948,0.126082,2.30605,17.0694,51.7573,13.2192,0.0,0.0
198,49.25,181.441,244.475,83.0563,100.727,21.9175,0.126764,2.31054,17.0619,51.5671,12.9755,0.0,0.0
200,49.75,182.401,245.016,87.352,100.71,22.3341,0.127428,2.31418,17.0465,51.3869,12.8139,0.0,0.0
202,50.25,182.751,245.469,87.8062,100.742,19.6569,0.127966,2.32148,17.034,51.2668,13.903,0.0,0.0
204,50.75,183.735,246.123,99.1568,100.731,20.6502,0.128658,2.32739,17.0239,51.0366,13.4827,0.0,0.0
206,51.25,184.435,246.876,85.2996,100.756,22.2595,0.129218,2.33218,17.0145,50.8965,12.8462,0.0,0.0
208,51.75,184.419,247.348,95.371,100.738,26.5242,0.129672,2.34661,17.0059,50.7564,11.3534,0.0,0.0
210,52.25,185.529,247.63,92.6057,100.787,25.2547,0.13032,2.36779,16.9989,50.5962,11.7748,0.0,0.0
212,52.75,185.75,247.906,91.1928,100.767,24.3623,0.131096,2.39046,16.9935,50.4061,12.0793,0.0,0.0
214,53.25,186.231,247.694,94.2612,100.807,23.9566,0.131923,2.41379,16.9891,50.2559,12.2255,0.0,0.0
216,53.75,186.122,247.515,99.8644,100.799,25.3314,0.132772,2.4371,16.9793,50.2159,11.75,0.0,0.0
218,54.25,186.499,247.122,99.0187,100.792,25.7721,0.133844,2.45996,16.9604,50.0457,11.6027,0.0,0.0
220,54.75,186.842,245.941,102.677,100.817,25.1889,0.134713,2.47847,16.9352,49.9456,11.7996,0.0,0.0
222,55.25,186.2,245.727,98.7233,100.82,26.0659,0.135416,2.49892,16.9148,49.8055,11.5086,0.0,0.0
224,55.75,186.949,245.102,97.9035,100.838,24.0707,0.136467,2.51549,16.8838,49.6353,12.1877,0.0,0.0
226,56.25,186.879,244.556,101.764,100.824,26.1076,0.137318,2.52677,16.8456,49.5753,11.4953,0.0,0.0
228,56.75,186.187,243.541,117.856,100.848,24.4609,0.138131,2.53398,16.8083,49.4252,12.0517,0.0,0.0
230,57.25,186.607,243.101,104.735,100.831,23.6475,0.138789,2.53507,16.7725,49.3851,12.338,0.0,0.0
232,57.75,186.381,241.94,111.163,100.86,28.9229,0.139198,2.53167,16.7434,49.275,10.6272,0.0,0.0
234,58.25,185.222,240.077,112.166,100.854,29.3593,0.139419,2.52234,16.7199,49.235,10.4992,0.0,0.0
236,58.75,185.232,238.238,113.314,100.865,32.7228,0.139331,2.50886,16.7009,49.1449,9.57736,0.0,0.0
238,59.25,184.38,237.041,113.577,100.869,33.0253,0.139021,2.49794,16.6854,49.0848,9.49938,0.0,0.0
240,59.75,184.408,234.853,120.184,100.876,37.5378,0.138347,2.47357,16.6729,49.0248,8.41037,0.0,0.0
242,60.25,183.37,232.682,122.814,100.867,42.4865,0.13742,2.44404,16.6646,48.9948,7.35602,0.0,0.0
244,60.75,182.284,230.702,127.997,100.891,50.2857,0.13667,2.4113,16.6578,48.9447,5.9242,0.0,0.0
246,61.25,181.136,228.837,133.258,100.869,61.7137,0.134864,2.38478,16.6697,48.9447,4.18006,0.0,0.0
248,61.75,180.579,225.996,130.321,100.908,68.5898,0.133402,2.3477,16.6793,48.9347,3.28458,0.0,0.0
250,62.25,179.322,223.783,137.985,100.907,74.7313,0.131359,2.30362,16.687,48.9848,2.55492,0.0,0.0
252,62.75,177.947,221.574,133.672,100.907,80.3115,0.12893,2.26792,16.7133,48.9447,1.94223,0.0,0.0
254,63.25,176.963,219.08,135.389,100.898,86.5518,0.126335,2.21123,16.7346,48.9347,1.30486,0.0,0.0
256,63.75,175.566,216.606,139.051,100.915,90.7967,0.123667,2.16531,16.7821,48.9347,0.898872,0.0,0.0
258,64.25,174.632,214.488,141.396,100.893,94.9473,0.121506,2.10087,16.8206,48.9147,0.51674,0.0,0.0
260,64.75,172.675,211.662,140.284,100.913,96.7716,0.118567,2.04867,16.8728,48.9347,0.35656,0.0,0.0
262,65.25,171.457,209.34,145.965,100.905,97.7736,0.116187,1.97331,16.934,48.9247,0.268217,0.0,0.0
264,65.75,170.417,206.277,144.377,100.896,99.0124,0.113014,1.91228,17.0086,48.8947,0.160295,0.0,0.0
266,66.25,169.13,204.487,142.085,100.895,100.315,0.110444,1.82939,17.0915,48.8646,0.049079,0.0,0.0
268,66.75,168.252,202.154,142.381,100.909,100.424,0.107145,1.76225,17.1807,48.8847,0.0409203,0.0,0.0
270,67.25,166.663,199.382,143.065,100.898,98.7274,0.104473,1.67296,17.2728,48.8847,0.185024,0.0,0.0
272,67.75,165.686,197.478,143.613,100.919,99.133,0.100692,1.60063,17.3473,48.8847,0.151874,0.0,0.0
274,68.25,164.66,195.195,143.544,100.905,98.8984,0.0976296,1.54205,17.4574,48.8747,0.170899,0.0,0.0
276,68.75,162.903,192.522,143.757,100.902,99.2953,0.0951491,1.44262,17.5467,48.8847,0.136559,0.0,0.0
278,69.25,161.193,190.279,150.043,100.898,98.7077,0.0900493,1.36208,17.6507,48.8747,0.186757,0.0,0.0
280,69.75,160.476,188.602,141.182,100.89,98.6485,0.0859185,1.27489,17.7637,48.8947,0.191162,0.0,0.0
282,70.25,159.606,186.734,145.013,100.89,99.0936,0.0804308,1.18452,17.8848,48.8947,0.152893,0.0,0.0
284,70.75,158.374,184.659,145.485,100.887,99.1528,0.0759858,1.08261,18.0097,48.8847,0.147479,0.0,0.0
286,71.25,157.347,182.796,145.447,100.889,100.05,0.0711478,1.00007,18.152,48.9047,0.0710755,0.0,0.0
288,71.75,156.258,180.591,147.676,100.889,99.4992,0.0661152,0.91753,18.3044,48.8646,0.118038,0.0,0.0
290,72.25,155.251,179.005,147.162,100.879,99.8193,0.0610999,0.83656,18.4278,48.8646,0.0898417,0.0,0.0
292,72.75,154.15,176.935,147.735,100.89,100.131,0.0561925,0.761282,18.6184,48.8747,0.0642466,0.0,0.0
294,73.25,152.643,175.345,143.952,100.849,101.038,0.0514694,0.691582,18.7727,48.8446,-0.0160062,0.0,0.0
296,73.75,152.27,173.859,143.373,100.863,99.3918,0.0469703,0.635126,18.8978,48.8146,0.124994,0.0,0.0
298,74.25,151.082,171.922,142.754,100.865,99.5825,0.043326,0.579125,19.0568,48.8146,0.108881,0.0,0.0
300,74.75,150.165,170.242,144.648,100.851,99.5584,0.0397581,0.524522,19.1857,48.7946,0.109739,0.0,0.0
302,75.25,149.135,169.008,141.359,100.847,100.212,0.0363137,0.480294,19.3444,48.8246,0.0537848,0.0,0.0
304,75.75,148.124,167.581,144.487,100.86,100.861,0.0335237,0.434504,19.4729,48.7846,-0.00010345,0.0,0.0
306,76.25,147.132,165.909,144.54,100.853,99.3983,0.0307746,0.397414,19.5974,48.7545,0.12363,0.0,0.0
308,76.75,146.129,164.855,147.262,100.824,100.346,0.0285478,0.363803,19.7165,48.6945,0.0405004,0.0,0.0
310,77.25,145.489,163.224,149.016,100.822,100.036,0.0265622,0.333366,19.8312,48.6945,0.0665524,0.0,0.0
312,77.75,144.55,162.088,145.939,100.819,99.4071,0.0249539,0.306572,19.9406,48.7145,0.119973,0.0,0.0
314,78.25,143.771,160.276,145.408,100.808,99.3589,0.0235717,0.282943,20.0292,48.7245,0.123168,0.0,0.0
316,78.75,143.095,159.231,145.41,100.794,99.7886,0.0223805,0.263804,20.1267,48.6945,0.0853125,0.0,0.0
318,79.25,142.444,158.228,142.954,100.781,100.534,0.0214156,0.244508,20.2056,48.7045,0.020853,0.0,0.0
320,79.75,141.561,156.658,144.433,100.777,101.058,0.0204939,0.228878,20.2878,48.7145,-0.0236798,0.0,0.0
322,80.25,140.491,155.557,145.915,100.761,98.302,0.019652,0.213679,20.3544,48.7245,0.210239,0.0,0.0
324,80.75,139.873,154.275,143.695,100.752,99.3348,0.0188843,0.201368,20.4172,48.7445,0.120522,0.0,0.0
326,81.25,138.936,152.875,147.293,100.74,100.995,0.0182625,0.189167,20.4681,48.7045,-0.021465,0.0,0.0
328,81.75,138.37,151.468,147.764,100.727,99.6834,0.0175299,0.179284,20.5137,48.7145,0.0886103,0.0,0.0
330,82.25,137.222,150.868,148.496,100.718,99.1506,0.0169365,0.171278,20.5547,48.7045,0.133404,0.0,0.0
332,82.75,136.635,149.696,145.856,100.699,99.6768,0.0164558,0.162319,20.5879,48.7545,0.0867974,0.0,0.0
334,83.25,136.324,148.318,145.943,100.686,100.99,0.0157891,0.155062,20.618,48.7445,-0.0256765,0.0,0.0
336,83.75,134.819,147.663,146.23,100.654,100.111,0.0152491,0.147298,20.6454,48.7345,0.0460442,0.0,0.0
338,84.25,134.281,146.613,144.669,100.651,99.6571,0.0146122,0.14101,20.6697,48.7445,0.0844358,0.0,0.0
340,84.75,133.81,145.971,147.443,100.65,100.383,0.0140963,0.135238,20.6913,48.7646,0.0226345,0.0,0.0
342,85.25,133.194,144.417,146.154,100.618,99.4992,0.0134586,0.129952,20.7087,48.7345,0.0951469,0.0,0.0
344,85.75,132.538,143.812,150.054,100.611,99.7557,0.012942,0.124911,20.7273,48.7045,0.0726042,0.0,0.0
346,86.25,131.949,142.742,146.624,100.594,98.8809,0.0124283,0.120146,20.7424,48.7145,0.146174,0.0,0.0
348,86.75,131.403,142.019,144.227,100.577,101.111,0.0119264,0.115783,20.7586,48.6945,-0.0449967,0.0,0.0
350,87.25,130.328,140.664,147.482,100.548,101.113,0.0113685,0.111798,20.7728,48.6845,-0.0476593,0.0,0.0
352,87.75,130.136,139.922,147.626,100.542,99.2931,0.0109165,0.108107,20.7855,48.6645,0.106328,0.0,0.0
354,88.25,129.498,139.104,147.107,100.523,99.7075,0.010422,0.104699,20.7957,48.6545,0.0693203,0.0,0.0
356,88.75,128.326,138.485,148.313,100.526,100.282,0.0100214,0.10194,20.8062,48.6745,0.020677,0.0,0.0
358,89.25,128,137.226,143.499,100.497,99.5562,0.00969698,0.098585,20.8147,48.6845,0.0799951,0.0,0.0
360,89.75,127.773,136.206,143.149,100.484,100.172,0.00925901,0.0958678,20.8225,48.7045,0.0263985,0.0,0.0
362,90.25,127.12,135.518,142.708,100.462,100.688,0.00890425,0.0931537,20.8297,48.7045,-0.0190622,0.0,0.0
364,90.75,126.603,135.293,149.915,100.428,100.742,0.00855113,0.0904933,20.8355,48.7345,-0.0265743,0.0,0.0
366,91.25,125.824,134.245,140.091,100.431,99.4685,0.0082059,0.0879228,20.8416,48.7245,0.0819631,0.0,0.0
368,91.75,124.81,133.229,143.857,100.397,100.26,0.00792627,0.0854665,20.8465,48.7045,0.0115785,0.0,0.0
370,92.25,124.576,132.33,142.931,100.381,100.898,0.00755552,0.083477,20.8511,48.6945,-0.0437356,0.0,0.0
372,92.75,124.017,131.583,148.087,100.364,99.201,0.00725521,0.0808943,20.8555,48.7045,0.0991727,0.0,0.0
374,93.25,123.155,130.937,146.502,100.358,99.2054,0.00688175,0.0788023,20.8604,48.7045,0.0982935,0.0,0.0
376,93.75,122.945,130.618,144.897,100.34,98.5498,0.00651482,0.0764475,20.8644,48.7445,0.153195,0.0,0.0
378,94.25,122.597,129.574,144.054,100.338,99.8281,0.00615962,0.07454,20.869,48.7545,0.0433464,0.0,0.0
380,94.75,121.521,128.937,144.747,100.317,99.4904,0.00581987,0.0724058,20.8727,48.7646,0.0703936,0.0,0.0
382,95.25,121.278,127.846,145.562,100.298,100.707,0.00549784,0.070677,20.877,48.7445,-0.0346822,0.0,0.0
384,95.75,120.976,127.736,145.562,100.294,100.449,0.005237,0.0689743,20.8805,48.7646,-0.013065,0.0,0.0
386,96.25,120.699,127.22,148.455,100.258,99.1528,0.00496871,0.067323,20.8833,48.7946,0.0942823,0.0,0.0
388,96.75,119.808,126.019,147.479,100.247,100.262,0.00470008,0.0659854,20.8856,48.7846,-0.00132771,0.0,0.0
390,97.25,119.448,125.642,143.331,100.248,99.4225,0.00448249,0.064902,20.8884,48.7946,0.0703332,0.0,0.0
392,97.75,119.294,125.011,149.032,100.22,99.69,0.00425897,0.0632967,20.8906,48.7946,0.0451555,0.0,0.0
394,98.25,118.519,124.103,145.675,100.241,99.2909,0.00403537,0.0618125,20.8927,48.7746,0.0810279,0.0,0.0
396,98.75,117.923,124.064,146.209,100.192,100.098,0.00385426,0.0604447,20.8944,48.7746,0.00796799,0.0,0.0
398,99.25,117.508,123.344,149.533,100.174,99.2251,0.00363005,0.0593368,20.8963,48.7646,0.0809536,0.0,0.0
400,99.75,116.83,122.758,144.911,100.165,100.078,0.00344844,0.0580217,20.8982,48.7445,0.00742689,0.0,0.0
402,100.25,116.565,121.791,147.568,100.149,99.6242,0.00324815,0.0569565,20.9004,48.7245,0.0446884,0.0,0.0
404,100.75,115.975,121.526,146.068,100.12,100.433,0.00308591,0.0558703,20.9026,48.6945,-0.0265824,0.0,0.0
406,101.25,115.938,121.058,148.639,100.107,99.6878,0.00290862,0.0549905,20.9048,48.7045,0.0356953,0.0,0.0
408,101.75,114.685,120.492,150.483,100.071,99.6242,0.00276502,0.054175,20.9071,48.7445,0.0380624,0.0,0.0
410,102.25,114.942,120.047,146.22,100.062,99.8171,0.0026303,0.0534219,20.9089,48.7545,0.0208267,0.0,0.0
412,102.75,114.322,118.979,147.605,100.043,99.0124,0.00250461,0.052812,20.9106,48.6745,0.0881104,0.0,0.0
414,103.25,113.964,118.208,148.197,100.035,100.008,0.0024028,0.0521857,20.9122,48.7445,0.00232832,0.0,0.0
416,103.75,113.719,118.419,144.184,99.9981,99.6286,0.00230131,0.0515596,20.9135,48.7445,0.0314948,0.0,0.0
418,104.25,113.686,118.121,146.918,99.9684,99.6878,0.00220199,0.0510524,20.915,48.7746,0.023916,0.0,0.0
420,104.75,112.213,116.947,146.01,99.9549,100.269,0.00212154,0.0504882,20.9162,48.7345,-0.0266755,0.0,0.0
422,105.25,112.268,116.141,146.38,99.9312,98.8655,0.00203711,0.0500312,20.9174,48.7345,0.0912135,0.0,0.0
424,105.75,111.867,115.988,151.307,99.9102,99.3655,0.00196873,0.0495217,20.9186,48.7345,0.0465163,0.0,0.0
426,106.25,111.194,115.669,148.683,99.8904,99.2712,0.00189048,0.049109,20.9198,48.7345,0.0529069,0.0,0.0
428,106.75,111.214,115.461,146.251,99.8778,98.1288,0.0018271,0.0487233,20.921,48.7445,0.1503,0.0,0.0
430,107.25,110.788,115.091,145.43,99.8512,98.3437,0.00175532,0.0483648,20.922,48.7245,0.129431,0.0,0.0
432,107.75,110.348,114.517,144.84,99.8326,99.0695,0.00169718,0.0480604,20.9227,48.7646,0.0652904,0.0,0.0
434,108.25,109.952,113.643,144.695,99.7986,99.3633,0.00162125,0.0478138,20.9236,48.7545,0.037195,0.0,0.0
436,108.75,109.845,113.173,143.472,99.7765,99.2536,0.00155975,0.0475701,20.9245,48.7345,0.0446974,0.0,0.0
438,109.25,109.324,113.156,145.68,99.7515,98.5038,0.00148656,0.0473332,20.9252,48.7245,0.107094,0.0,0.0
440,109.75,109.315,112.348,148.307,99.7408,99.4203,0.00140624,0.0471412,20.9263,48.7245,0.0273883,0.0,0.0
442,110.25,108.521,112.458,148.032,99.6748,98.1179,0.00134118,0.046873,20.9271,48.7445,0.13394,0.0,0.0
444,110.75,107.647,111.869,145.221,99.6748,98.5783,0.00126325,0.0466558,20.9277,48.7345,0.0941068,0.0,0.0
446,111.25,107.574,111.453,146.59,99.6546,99.1769,0.00117742,0.0464505,20.9281,48.7245,0.0408789,0.0,0.0
448,111.75,107.214,110.665,143.529,99.6463,98.2341,0.00109112,0.0462579,20.9284,48.7145,0.121436,0.0,0.0
450,112.25,107.486,110.46,143.993,99.6114,99.4839,0.00102123,0.0460872,20.9287,48.7145,0.0109029,0.0,0.0
452,112.75,107.223,110.388,145.154,99.577,99.2931,0.000965238,0.0459357,20.9289,48.6845,0.0242912,0.0,0.0
454,113.25,106.789,109.858,144.165,99.5548,99.1879,0.000901365,0.0457387,20.9298,48.7245,0.0314201,0.0,0.0
456,113.75,106.177,109.449,144.566,99.5461,99.0278,0.000872311,0.0456117,20.9303,48.7245,0.044416,0.0,0.0
458,114.25,105.905,109.056,148.465,99.518,99.3128,0.000859925,0.0455575,20.9305,48.7646,0.0175612,0.0,0.0
460,114.75,105.336,108.666,148.346,99.4986,98.3678,0.000843157,0.0453953,20.9308,48.7646,0.0972478,0.0,0.0
462,115.25,105.588,108.415,144.569,99.4895,97.9359,0.000833545,0.0452639,20.9311,48.7345,0.13391,0.0,0.0
464,115.75,104.654,108.386,145.231,99.4753,99.0344,0.000830804,0.0451157,20.9313,48.7746,0.0377948,0.0,0.0
466,116.25,105.012,107.805,151.466,99.4618,98.8633,0.000833123,0.0449957,20.9314,48.8046,0.0513495,0.0,0.0
468,116.75,104.177,107.736,146.835,99.4258,99.4027,0.000835002,0.0448845,20.9316,48.7746,0.00197647,0.0,0.0
470,117.25,104.379,107.069,147.2,99.4183,99.2821,0.000837785,0.0447945,20.9317,48.7846,0.0116615,0.0,0.0
472,117.75,103.823,106.504,146.936,99.4183,99.133,0.000841173,0.0447142,20.9318,48.7445,0.024448,0.0,0.0
474,118.25,103.641,106.497,147.548,99.391,99.5409,0.000843288,0.0446426,20.9319,48.7545,-0.0128192,0.0,0.0
476,118.75,103.714,106.048,147.244,99.3692,98.5366,0.000844433,0.0445846,20.9319,48.7646,0.0715855,0.0,0.0
478,119.25,103.237,105.299,149.235,99.3653,99.2076,0.00084536,0.0444959,20.932,48.7646,0.0135128,0.0,0.0
480,119.75,102.666,105.498,148.048,99.3783,98.2143,0.000859293,0.044424,20.932,48.7746,0.10024,0.0,0.0
482,120.25,102.337,105.061,145.747,99.3301,98.427,0.000870579,0.0443658,20.9323,48.7746,0.077702,0.0,0.0
484,120.75,102.632,105.423,147.732,99.3277,99.497,0.00087972,0.044304,20.9327,48.8146,-0.0144918,0.0,0.0
486,121.25,102.092,104.099,144.252,99.3067,98.8721,0.000896715,0.0442407,20.9325,48.7646,0.0373141,0.0,0.0
488,121.75,101.662,104.231,145.104,99.3099,99.3786,0.00091048,0.0441895,20.9318,48.6545,-0.00588701,0.0,0.0
490,122.25,101.83,103.918,149.091,99.3083,99.0388,0.000916583,0.044148,20.9312,48.6945,0.023122,0.0,0.0
492,122.75,101.694,103.251,147.018,99.277,98.4884,0.000916984,0.0441144,20.9308,48.6945,0.0678534,0.0,0.0
494,123.25,100.742,103.449,151.057,99.2509,99.2953,0.000917308,0.0440872,20.9304,48.6845,-0.00380415,0.0,0.0
496,123.75,100.775,102.818,149.986,99.2307,98.8063,0.000903192,0.0440651,20.9301,48.7145,0.0364649,0.0,0.0
498,124.25,100.534,102.69,151.072,99.2347,98.7559,0.000891757,0.0440179,20.9299,48.7245,0.0411474,0.0,0.0
500,124.75,99.9604,102.746,146.999,99.2228,98.4182,0.00087556,0.0439534,20.9297,48.7345,0.069269,0.0,0.0
502,125.25,99.6636,102.429,149.251,99.2224,99.0695,0.000847945,0.0438934,20.9295,48.7846,0.013127,0.0,0.0
504,125.75,99.7311,102.066,148.343,99.2078,98.7713,0.000833831,0.0438803,20.9294,48.7946,0.0375171,0.0,0.0
506,126.25,99.286,101.483,148.317,99.1908,98.9642,0.000822398,0.0438624,20.9293,48.7545,0.0194547,0.0,0.0
508,126.75,98.9775,101.586,143.938,99.165,98.2867,0.000819442,0.0438413,20.9292,48.7345,0.0756938,0.0,0.0
510,127.25,98.9283,101.1,145.868,99.1733,98.359,0.000822722,0.0438169,20.9291,48.7045,0.0701462,0.0,0.0
512,127.75,98.7654,100.978,153.907,99.1591,98.2012,0.000837363,0.0437905,20.9291,48.7445,0.0825889,0.0,0.0
514,128.25,98.2161,100.642,146.661,99.1627,99.0431,0.000860008,0.0437692,20.9291,48.7245,0.0102597,0.0,0.0
516,128.75,98.4028,100.607,147.223,99.1547,98.0455,0.000887816,0.0437936,20.929,48.6845,0.0957145,0.0,0.0
518,129.25,97.8492,100.225,145.466,99.1524,99.0124,0.000918862,0.0438134,20.929,48.7045,0.012015,0.0,0.0
520,129.75,97.7476,99.9312,146.929,99.129,98.4687,0.000944008,0.0438155,20.929,48.7145,0.0568641,0.0,0.0
522,130.25,97.6579,99.7477,147.611,99.1393,98.5323,0.000964377,0.0438172,20.929,48.7045,0.0522558,0.0,0.0
524,130.75,97.4534,99.6312,147.856,99.129,98.3897,0.000980875,0.043782,20.9289,48.6845,0.0636869,0.0,0.0
526,131.25,97.1807,99.6328,146.03,99.1168,98.0038,0.000994239,0.0437205,20.9289,48.6945,0.0960695,0.0,0.0
528,131.75,97.1342,98.6829,144.175,99.1116,98.6814,0.000990674,0.0436707,20.9289,48.7245,0.0370132,0.0,0.0
530,132.25,96.8775,98.7342,149.763,99.112,98.0104,0.000987787,0.0436443,20.9289,48.7245,0.0950907,0.0,0.0
532,132.75,96.5213,98.7917,145.903,99.1152,98.6704,0.000972262,0.0436229,20.9291,48.6945,0.0382643,0.0,0.0
534,133.25,96.4604,98.5944,147.714,99.1219,97.7999,0.000959687,0.0435982,20.9295,48.7145,0.114231,0.0,0.0
536,133.75,96.142,98.1792,145.679,99.0958,98.8239,0.000946347,0.0435716,20.9299,48.7045,0.0233759,0.0,0.0
538,134.25,96.4067,98.1712,147.288,99.1077,98.5191,0.000932704,0.0435574,20.9301,48.7045,0.0506741,0.0,0.0
540,134.75,96.2801,97.7952,147.135,99.1033,97.4601,0.000924049,0.0435525,20.9303,48.6945,0.14225,0.0,0.0
542,135.25,96.0028,97.6807,147.556,99.1053,98.2034,0.000917039,0.0435119,20.9305,48.7045,0.0777804,0.0,0.0
544,135.75,95.341,97.9431,143.8,99.0867,98.3985,0.00091256,0.0434461,20.9306,48.7145,0.0592948,0.0,0.0
546,136.25,95.3793,97.5781,146.021,99.1009,97.8131,0.000908931,0.0433854,20.9307,48.7145,0.111286,0.0,0.0
548,136.75,95.365,97.2089,146.275,99.1191,98.916,0.00091558,0.0433297,20.9308,48.7345,0.017456,0.0,0.0
550,137.25,94.7794,97.2159,149.468,99.1164,98.4511,0.000920966,0.0432846,20.9309,48.7145,0.0572933,0.0,0.0
552,137.75,94.4887,96.7567,145.583,99.1061,98.7055,0.000925328,0.0432758,20.931,48.7545,0.034459,0.0,0.0
554,138.25,94.6734,96.381,150.696,99.1183,98.9291,0.000940221,0.0432688,20.931,48.7345,0.0162565,0.0,0.0
556,138.75,94.3235,96.6121,148.021,99.1164,98.2713,0.000962508,0.0432557,20.9311,48.7345,0.0728445,0.0,0.0
558,139.25,94.6143,96.0329,145.74,99.1318,97.949,0.000986875,0.0432386,20.9311,48.7445,0.102119,0.0,0.0
560,139.75,94.2983,96.2656,148.775,99.1136,98.267,0.0010123,0.0432247,20.9311,48.7445,0.0729863,0.0,0.0
562,140.25,93.8112,95.9709,152.499,99.127,98.7976,0.00103977,0.0432086,20.9311,48.7646,0.0283254,0.0,0.0
564,140.75,93.756,95.8101,153.973,99.1417,98.1924,0.00104596,0.0432043,20.9312,48.7746,0.0818557,0.0,0.0
566,141.25,93.5814,95.0619,143.359,99.129,97.9819,0.00105656,0.0432116,20.9312,48.7245,0.0990254,0.0,0.0
568,141.75,93.4602,95.0215,145.188,99.1322,97.3132,0.00104955,0.0432306,20.9312,48.7345,0.157565,0.0,0.0
570,142.25,93.3617,95.3103,146.523,99.1571,98.1507,0.00104387,0.0432387,20.9312,48.6745,0.0867904,0.0,0.0
572,142.75,93.4747,95.1591,145.213,99.1555,98.6814,0.00102488,0.0432387,20.9312,48.6444,0.040783,0.0,0.0
574,143.25,93.1604,94.5589,146.508,99.1702,98.552,0.0010095,0.0432387,20.9312,48.6745,0.0532002,0.0,0.0
576,143.75,93.0229,94.9658,146.308,99.19,98.3305,0.000991726,0.0432665,20.9306,48.6945,0.074037,0.0,0.0
578,144.25,92.492,94.821,145.643,99.2007,98.4533,0.000986946,0.0432784,20.9304,48.7245,0.0643362,0.0,0.0
580,144.75,92.2674,94.7211,146.955,99.2066,98.3437,0.000957202,0.0432987,20.9309,48.7345,0.0743246,0.0,0.0
582,145.25,92.4927,94.5811,148.743,99.2315,98.1683,0.000933109,0.0433151,20.9313,48.6945,0.091651,0.0,0.0
584,145.75,91.7455,94.0719,145.524,99.2375,98.6901,0.000901618,0.0433284,20.9316,48.7445,0.0470539,0.0,0.0
586,146.25,92.0475,93.8279,150.95,99.2295,98.8173,0.000865331,0.0433465,20.9318,48.7445,0.0354186,0.0,0.0
588,146.75,92.0453,93.6789,150.692,99.2628,98.4972,0.000818934,0.0433677,20.932,48.7345,0.0658741,0.0,0.0
590,147.25,91.9553,93.6652,146.606,99.2644,99.1067,0.000766047,0.043385,20.9322,48.7145,0.0135219,0.0,0.0
592,147.75,91.7561,93.249,147.81,99.2956,98.381,0.000706218,0.0433711,20.9323,48.6545,0.0787331,0.0,0.0
594,148.25,91.8514,93.3941,148.728,99.2901,98.0872,0.000642467,0.0433598,20.9324,48.6444,0.103705,0.0,0.0
596,148.75,91.2958,93.0985,145.561,99.3083,98.7121,0.000576996,0.0432951,20.9325,48.6444,0.0512346,0.0,0.0
598,149.25,91.3461,92.6674,147.599,99.3083,98.677,0.000511515,0.0432426,20.9326,48.6044,0.0542585,0.0,0.0
600,149.75,91.1862,92.917,148.252,99.3265,98.2121,0.000449679,0.0431862,20.9327,48.6244,0.0959903,0.0,0.0
602,150.25,90.9776,92.7834,147.98,99.3451,97.8197,0.000391674,0.0431405,20.9327,48.6344,0.131651,0.0,0.0
604,150.75,90.5025,92.63,145.054,99.3657,98.5498,0.00034469,0.0431174,20.9327,48.6244,0.0701452,0.0,0.0
606,151.25,91.0781,92.7195,147.742,99.3665,98.5454,0.000294699,0.0430987,20.9328,48.6545,0.0705907,0.0,0.0
608,151.75,90.4339,92.4998,149.662,99.3882,98.2406,0.000254207,0.0430835,20.9328,48.6845,0.0988078,0.0,0.0
610,152.25,90.1221,92.4245,146.869,99.4108,98.2363,0.000221408,0.0430573,20.9328,48.6244,0.101118,0.0,0.0
612,152.75,90.6732,92.1885,145.285,99.4191,98.62,0.000191261,0.0430361,20.9328,48.5644,0.0686623,0.0,0.0
614,153.25,90.1581,92.1816,151.415,99.4385,98.4402,0.000166842,0.0430328,20.9328,48.6545,0.0858466,0.0,0.0
616,153.75,90.1234,91.6198,148.542,99.4488,98.9489,0.000164963,0.0430302,20.9329,48.6144,0.0428762,0.0,0.0
618,154.25,90.0587,91.7343,145.068,99.4456,98.3152,0.000163442,0.043028,20.9329,48.6344,0.0972658,0.0,0.0
620,154.75,89.7115,91.8761,144.662,99.4796,98.0411,0.000180437,0.0430263,20.9329,48.5944,0.123927,0.0,0.0
622,155.25,89.6667,91.363,145.626,99.5062,98.3547,0.000210609,0.0429956,20.9329,48.6645,0.0990294,0.0,0.0
624,155.75,90.0247,90.8942,147.266,99.4986,98.6704,0.000248888,0.0429444,20.9329,48.5944,0.0711178,0.0,0.0
626,156.25,89.2011,91.3338,145.595,99.4994,98.734,0.000292351,0.0428956,20.9329,48.6144,0.065705,0.0,0.0
628,156.75,89.6094,91.1369,145.336,99.5335,99.0015,0.000336998,0.0428495,20.9329,48.6344,0.0455953,0.0,0.0
630,157.25,89.1974,90.6223,147.471,99.5263,98.7318,0.00038166,0.0428121,20.9329,48.6545,0.0681935,0.0,0.0
632,157.75,89.4321,91.4046,146.79,99.539,98.5432,0.000424134,0.0428236,20.9329,48.6444,0.0855414,0.0,0.0
634,158.25,88.8505,90.6691,145.365,99.5667,99.0256,0.000464206,0.0428329,20.9329,48.6444,0.046364,0.0,0.0
636,158.75,88.8706,91.1048,148.017,99.5552,98.2406,0.000496664,0.0428126,20.9329,48.6945,0.113092,0.0,0.0
638,159.25,88.7066,90.9027,150.678,99.5774,99.3019,0.000529885,0.0427961,20.9329,48.6044,0.0235731,0.0,0.0
640,159.75,89.1679,90.3519,148.213,99.5968,97.9863,0.000563031,0.0427608,20.9329,48.6144,0.138697,0.0,0.0
642,160.25,88.6463,90.6281,146.307,99.6007,97.368,0.00059555,0.0427125,20.9329,48.6244,0.192893,0.0,0.0
644,160.75,88.3745,90.33,145.813,99.6217,97.482,0.000626996,0.0426733,20.9329,48.6244,0.184727,0.0,0.0
646,161.25,88.1552,90.4722,149.615,99.6292,99.315,0.000652467,0.0426833,20.9329,48.6444,0.0268747,0.0,0.0
648,161.75,87.9877,90.3768,147.643,99.6261,99.6812,0.000694656,0.0426915,20.9329,48.6344,-0.00470624,0.0,0.0
650,162.25,88.1539,90.0964,147.173,99.651,99.0212,0.000728829,0.0426993,20.9329,48.6044,0.053939,0.0,0.0
652,162.75,88.2594,90.3017,153.063,99.6827,98.3656,0.000767295,0.0427056,20.933,48.6545,0.113159,0.0,0.0
654,163.25,87.7618,90.2289,146.274,99.6716,97.8284,0.000798453,0.0426968,20.9331,48.6244,0.158803,0.0,0.0
656,163.75,88.1866,89.872,145.746,99.7056,99.1374,0.000816499,0.0426897,20.9332,48.6344,0.0486232,0.0,0.0
658,164.25,88.0417,90.0753,147.529,99.7084,98.5805,0.000831117,0.0426839,20.9333,48.6444,0.0967885,0.0,0.0
660,164.75,87.7698,89.9373,143.357,99.7179,99.8391,0.000838164,0.0426793,20.9334,48.6244,-0.0103325,0.0,0.0
662,165.25,87.9785,89.7139,151.017,99.7444,98.6901,0.000846306,0.0426592,20.9335,48.6044,0.0904047,0.0,0.0
664,165.75,88.1344,89.8418,145.16,99.7468,98.7515,0.000848496,0.0426446,20.9335,48.6444,0.0853165,0.0,0.0
666,166.25,87.2367,89.5015,144.899,99.7745,98.8524,0.000862384,0.0426089,20.9336,48.6645,0.0789934,0.0,0.0
668,166.75,87.3775,89.247,147.681,99.7745,99.5233,0.00086612,0.0425993,20.9336,48.7245,0.0214428,0.0,0.0
670,167.25,87.472,89.7631,144.638,99.8053,98.9532,0.000872508,0.0425609,20.9336,48.7245,0.0729481,0.0,0.0
672,167.75,87.0487,89.3122,147.513,99.8089,99.7579,0.000893266,0.04251,20.9332,48.7145,0.00434581,0.0,0.0
674,168.25,87.3192,89.2975,145.451,99.8505,98.6529,0.00091008,0.0424762,20.9325,48.7045,0.10266,0.0,0.0
676,168.75,87.4241,89.1452,149.042,99.8453,99.315,0.000926223,0.0424553,20.9318,48.7045,0.0453068,0.0,0.0
678,169.25,86.8456,89.2137,143.823,99.8797,99.907,0.000941572,0.0424458,20.9313,48.7045,-0.00232439,0.0,0.0
680,169.75,86.0027,88.949,147.059,99.892,98.3415,0.000954004,0.0424446,20.9309,48.7045,0.133093,0.0,0.0
682,170.25,87.2745,88.9545,142.68,99.9221,99.0146,0.000964074,0.042451,20.9306,48.7445,0.0776176,0.0,0.0
684,170.75,86.7744,88.8133,149.793,99.9197,99.076,0.000969076,0.0424627,20.9306,48.7345,0.0721426,0.0,0.0
686,171.25,86.8291,88.6946,145.461,99.9431,98.9423,0.000970287,0.0424649,20.9308,48.7245,0.0856227,0.0,0.0
688,171.75,86.563,88.8313,146.446,99.9526,98.951,0.000962438,0.0424601,20.9309,48.7045,0.0856769,0.0,0.0
690,172.25,86.9857,88.5249,145.76,99.9783,99.0958,0.000948134,0.0424563,20.9311,48.6645,0.0754335,0.0,0.0
692,172.75,86.4775,88.4976,146.067,99.985,98.8962,0.000936548,0.0424598,20.9312,48.6545,0.0931528,0.0,0.0
694,173.25,86.1142,88.1727,147.552,99.9882,99.1155,0.000917074,0.0424686,20.9312,48.6745,0.07458,0.0,0.0
696,173.75,86.0878,88.4168,146.146,100.017,99.0651,0.000892221,0.0424758,20.9311,48.6344,0.0813695,0.0,0.0
698,174.25,86.1602,88.2805,144.85,100.043,99.7009,0.000861112,0.0425039,20.931,48.6144,0.0291563,0.0,0.0
700,174.75,86.2351,88.3391,148.032,100.044,99.1857,0.000852367,0.0425115,20.931,48.6344,0.0733403,0.0,0.0
702,175.25,86.4724,88.1382,150.781,100.051,98.6682,0.000837412,0.0425105,20.9309,48.6545,0.118448,0.0,0.0
704,175.75,86.1739,88.0045,150.619,100.069,99.4225,0.000826497,0.0425097,20.9309,48.6344,0.0551392,0.0,0.0
706,176.25,86.1368,88.0719,146.472,100.099,99.1221,0.000817656,0.0424256,20.9309,48.6645,0.0834396,0.0,0.0
708,176.75,86.0372,88.0899,146.107,100.084,99.2602,0.000802111,0.0423575,20.9308,48.7045,0.0702799,0.0,0.0
710,177.25,85.8246,87.929,144.23,100.116,99.5058,0.00078952,0.0423162,20.9308,48.7045,0.0520149,0.0,0.0
712,177.75,85.505,88.2505,149.335,100.124,99.4751,0.000764956,0.0422828,20.9308,48.6845,0.0553125,0.0,0.0
714,178.25,86.0535,88.5075,146.651,100.137,98.9006,0.000745059,0.0422411,20.9308,48.6545,0.105697,0.0,0.0
716,178.75,85.8408,87.807,148.983,100.141,99.918,0.000712189,0.0421941,20.9308,48.6645,0.0189943,0.0,0.0
718,179.25,85.6329,88.0211,148.918,100.143,98.8063,0.000685565,0.0421561,20.9307,48.6545,0.114316,0.0,0.0
720,179.75,85.905,87.111,145.582,100.159,99.6001,0.000663999,0.0421809,20.9307,48.6645,0.0475885,0.0,0.0
722,180.25,85.3708,87.7225,145.812,100.155,99.5036,0.000644138,0.042201,20.9307,48.6444,0.0554969,0.0,0.0
724,180.75,85.6028,87.453,149.88,100.163,99.9794,0.000628051,0.0422451,20.9307,48.6244,0.0155843,0.0,0.0
726,181.25,85.6191,87.4237,152.495,100.182,100.15,0.000641348,0.0422809,20.9307,48.6144,0.00272374,0.0,0.0
728,181.75,85.5473,87.1564,147.607,100.209,99.8128,0.000652119,0.0422952,20.9307,48.6444,0.0337418,0.0,0.0
730,182.25,85.675,86.8811,150.645,100.196,100.137,0.000676599,0.0422936,20.9307,48.6745,0.0049834,0.0,0.0
732,182.75,85.0324,87.158,148.793,100.198,99.8698,0.000710608,0.0422856,20.9307,48.7045,0.02791,0.0,0.0
734,183.25,84.8968,87.0328,145.935,100.211,99.7579,0.000762127,0.0422731,20.9306,48.6945,0.0385167,0.0,0.0
736,183.75,85.2411,86.8975,145.227,100.207,98.8809,0.000803857,0.0423048,20.9303,48.6645,0.113311,0.0,0.0
738,184.25,85.015,87.1965,148.176,100.225,100.909,0.000853249,0.0423304,20.9301,48.6645,-0.0578518,0.0,0.0
740,184.75,84.5412,87.6069,147.355,100.207,100.703,0.000893257,0.0423651,20.9299,48.6945,-0.0420358,0.0,0.0
742,185.25,85.0194,87.0553,148.587,100.23,99.5233,0.00094246,0.0423932,20.9298,48.6545,0.0602284,0.0,0.0
744,185.75,84.6451,87.177,147.756,100.235,98.9489,0.000982314,0.0424159,20.9297,48.6545,0.109883,0.0,0.0
746,186.25,84.547,86.6099,148.364,100.237,100.552,0.0010146,0.0423787,20.9296,48.6344,-0.0266913,0.0,0.0
748,186.75,84.8025,86.9475,146.11,100.258,99.6308,0.0010439,0.0423485,20.9295,48.6545,0.0533998,0.0,0.0
750,187.25,84.9869,86.8405,151.037,100.219,99.975,0.00107048,0.0423168,20.9295,48.7145,0.0207296,0.0,0.0
752,187.75,84.673,86.8034,146.023,100.268,100.199,0.00108507,0.0422845,20.9294,48.7045,0.00588345,0.0,0.0
754,188.25,84.4498,86.8584,145.137,100.239,100.764,0.00109063,0.0422364,20.9294,48.6845,-0.0444329,0.0,0.0