File: 01_Data/Latex_Pillow_Foam/Cone/Latex_Pillow_Foam_Cone_HF50Scan_230628_R1.csv
Names,Time,Stack TC,Smoke TC,Exh Press,Smoke Comp,Smoke Meas,CO Meter,CO2 Meter,O2 Meter,Sample Mass,Ext Coeff,Start Test,Flame Verif
Chan Gain,,500,500,1,1,1,1,1,1,1,1,1.0,1.0
Offset,,0,0,0.13804,0,0,0,0,0,0,0,0.0,0.0
Gain,,1,1,25.011,12.9078,45.9244,1,1,1,1.00091,0.969894,1.0,1.0
Units,sec,C,C,Pa,%,%,%,%,%,g,/m,,
Baseline,,56.4168,58.9555,154.319,100.597,100.855,0.000958392,0.0473291,20.9313,-444.682,3.43593,,
2,0.25,52.8466,53.6483,153.591,99.9294,66.6736,0.000961362,0.0493254,20.9329,67.4716,3.44274,1.0,0.0
4,0.75,52.329,53.4087,154.416,99.9278,66.7254,0.000946059,0.0497348,20.9328,67.4216,3.43599,0.0,0.0
6,1.25,52.6067,53.7887,155.893,99.9045,65.5313,0.000931772,0.0501463,20.9328,67.3415,3.58764,0.0,0.0
8,1.75,52.5046,53.7109,152.753,99.9002,63.6183,0.000918496,0.0504944,20.9328,67.2915,3.83934,0.0,0.0
10,2.25,52.5476,53.8624,155.69,99.8904,63.1278,0.000908374,0.0507895,20.9328,67.2715,3.90436,0.0,0.0
12,2.75,52.5506,54.3466,154.959,99.9022,63.1166,0.000900742,0.0509772,20.9328,67.3015,3.90687,0.0,0.0
14,3.25,52.6661,54.0156,154.674,99.8884,63.0381,0.000896453,0.0510828,20.9324,67.2815,3.91628,0.0,0.0
16,3.75,52.6721,54.4197,156.525,99.899,63.2105,0.000894681,0.0511171,20.932,67.1914,3.89396,0.0,0.0
18,4.25,52.8327,54.6162,150.03,99.8738,58.828,0.000893246,0.0510985,20.9318,67.1313,4.50312,0.0,1.0
20,4.75,52.7192,54.7622,135.14,99.8864,45.8655,0.000887039,0.0510834,20.9315,67.2314,6.62183,0.0,1.0
22,5.25,52.7381,55.4683,139.023,99.8856,43.354,0.00087747,0.0509736,20.9313,67.1513,7.10087,0.0,1.0
24,5.75,53.4913,56.5476,126.914,99.8912,39.7816,0.000856483,0.0508846,20.9312,66.761,7.83297,0.0,1.0
26,6.25,54.6361,57.889,123.616,99.8758,38.2638,0.000827569,0.0507831,20.9311,66.6609,8.16263,0.0,1.0
28,6.75,54.4405,60.4878,122.127,99.8758,37.0753,0.000792181,0.0506745,20.931,66.9512,8.43107,0.0,1.0
30,7.25,55.9234,61.167,118.847,99.8758,36.9646,0.000752746,0.0505498,20.9309,66.5508,8.45652,0.0,1.0
32,7.75,56.893,63.6024,124.085,99.8837,33.8729,0.000711359,0.0504158,20.9308,66.4507,9.20031,0.0,1.0
34,8.25,57.8864,65.048,124.677,99.8746,36.3073,0.000669338,0.0503293,20.9308,66.3506,8.60907,0.0,1.0
36,8.75,58.7014,67.3227,119.964,99.8817,33.5379,0.000632783,0.050279,20.9307,66.1805,9.2847,0.0,1.0
38,9.25,59.9578,69.2271,114.311,99.8868,33.856,0.000600908,0.0502603,20.9307,66.0904,9.20481,0.0,1.0
40,9.75,60.8541,71.7154,119.422,99.8742,33.8238,0.000575089,0.050265,20.9307,66.0003,9.21184,0.0,1.0
42,10.25,61.8422,73.3613,114.46,99.8833,32.9815,0.000566141,0.0502688,20.9306,65.8502,9.42716,0.0,0.0
44,10.75,62.9012,75.4955,116.57,99.888,33.8546,0.000558892,0.0528582,20.9306,65.8001,9.20526,0.0,0.0
46,11.25,63.9831,77.1773,115.573,99.8845,33.842,0.000553021,0.0549557,20.9302,65.66,9.20813,0.0,0.0
48,11.75,65.8859,79.4386,111.846,99.8801,34.0368,0.000637236,0.0566546,20.9298,65.6199,9.15893,0.0,0.0
50,12.25,66.8473,81.8091,124.056,99.9022,31.8715,0.000785525,0.0702075,20.9293,65.4598,9.72003,0.0,0.0
52,12.75,67.7156,84.1587,114.153,99.8845,33.1441,0.00112064,0.0921444,20.929,65.3597,9.38543,0.0,0.0
54,13.25,69.5003,86.0807,108.741,99.8955,30.5835,0.00158557,0.124014,20.9273,65.2396,10.0704,0.0,0.0
56,13.75,70.7661,87.8249,112.394,99.8667,32.1532,0.00231005,0.162518,20.926,65.1595,9.64214,0.0,0.0
58,14.25,71.8267,89.8785,105.726,99.888,32.0986,0.00320997,0.208669,20.9113,65.0394,9.65843,0.0,0.0
60,14.75,72.7159,92.0072,115.452,99.8829,33.1637,0.00443463,0.259518,20.8993,64.8993,9.38026,0.0,0.0
62,15.25,74.4774,93.3892,125.811,99.8923,32.1546,0.00587277,0.300706,20.8725,64.7291,9.64395,0.0,0.0
64,15.75,75.152,95.3962,115.213,99.8797,28.0118,0.00703766,0.364216,20.8353,64.6391,10.8164,0.0,0.0
66,16.25,76.2918,96.915,116.394,99.9065,31.353,0.00921873,0.41566,20.7782,64.4789,9.85996,0.0,0.0
68,16.75,77.5213,98.1634,110.321,99.8742,31.2464,0.0109854,0.469468,20.7077,64.4689,9.88616,0.0,0.0
70,17.25,78.2889,99.7292,113.351,99.8975,28.6845,0.0135285,0.523977,20.6223,64.3888,10.616,0.0,0.0
72,17.75,79.4872,101.459,116.015,99.8837,30.1042,0.0155883,0.56813,20.5277,64.2487,10.2038,0.0,0.0
74,18.25,79.887,102.981,112.404,99.9207,30.648,0.0172568,0.624289,20.451,64.1486,10.0546,0.0,0.0
76,18.75,81.7432,104.477,105.047,99.8762,30.9185,0.0199485,0.669777,20.364,64.0285,9.9761,0.0,0.0
78,19.25,82.679,106.595,119.89,99.8908,31.2268,0.0221287,0.713909,20.2712,63.8383,9.89291,0.0,0.0
80,19.75,84.1182,108.547,104.822,99.8758,33.2282,0.0257427,0.774248,20.1431,63.7583,9.36313,0.0,0.0
82,20.25,85.582,110.398,117.443,99.8959,31.3235,0.0275899,0.815594,20.0526,63.6181,9.86705,0.0,0.0
84,20.75,86.2589,111.743,105.77,99.8888,32.0705,0.0295195,0.849084,19.9793,63.528,9.66593,0.0,0.0
86,21.25,87.4529,113.117,111.272,99.9034,30.9311,0.0314725,0.876211,19.9199,63.438,9.97494,0.0,0.0
88,21.75,87.8319,114.155,114.631,99.8986,31.1259,0.0330544,0.898183,19.8436,63.2978,9.92112,0.0,0.0
90,22.25,88.9854,115.742,116.418,99.914,31.3053,0.0343358,0.928,19.7817,63.2478,9.87354,0.0,0.0
92,22.75,90.1214,117.477,105.464,99.9038,29.7552,0.0362404,0.952152,19.7047,63.0876,10.3047,0.0,0.0
94,23.25,91.3224,119.384,121.676,99.9231,31.0026,0.0379776,0.976473,19.6424,62.9575,9.95698,0.0,0.0
96,23.75,92.849,120.654,105.273,99.9215,31.3642,0.0388103,0.986842,19.6065,62.8474,9.85819,0.0,0.0
98,24.25,93.2953,122.259,108.321,99.9223,29.7384,0.0402343,1.00698,19.5451,62.7874,10.3111,0.0,0.0
100,24.75,94.96,123.852,109.33,99.9227,29.3096,0.0416709,1.02547,19.4877,62.6172,10.4347,0.0,0.0
102,25.25,95.6893,125.266,114.048,99.9329,27.6278,0.0428346,1.04415,19.4344,62.5071,10.9383,0.0,0.0
104,25.75,96.7458,126.652,103.922,99.938,28.6397,0.0437771,1.06261,19.3911,62.427,10.6327,0.0,0.0
106,26.25,97.5377,127.88,105.497,99.9494,28.2879,0.044896,1.07756,19.3487,62.2469,10.7389,0.0,0.0
108,26.75,98.8137,129.312,105.544,99.9376,27.852,0.0458023,1.09364,19.3076,62.1468,10.87,0.0,0.0
110,27.25,99.4366,130.344,106.096,99.9518,30.3873,0.046644,1.11023,19.2713,62.0567,10.13,0.0,0.0
112,27.75,100.598,131.917,99.556,99.9384,28.044,0.0474225,1.12614,19.2392,61.9566,10.8116,0.0,0.0
114,28.25,101.449,133.409,112.762,99.9471,27.9571,0.0481444,1.14125,19.2132,61.8065,10.8387,0.0,0.0
116,28.75,102.66,134.67,104.717,99.9443,28.7125,0.0488114,1.15579,19.1798,61.6463,10.6117,0.0,0.0
118,29.25,103.546,135.512,101.289,99.9573,30.4644,0.0494369,1.16965,19.1527,61.5763,10.1089,0.0,0.0
120,29.75,104.261,137.26,118.624,99.9506,30.6943,0.0500204,1.18315,19.1162,61.4061,10.0444,0.0,0.0
122,30.25,105.426,137.494,104.474,99.9628,30.0369,0.0504929,1.19613,19.0866,61.326,10.2296,0.0,0.0
124,30.75,105.951,138.838,115.858,99.966,28.7644,0.051093,1.20664,19.0595,61.256,10.5982,0.0,0.0
126,31.25,107.006,139.967,102.316,99.968,28.1505,0.051579,1.21701,19.0345,61.0458,10.7818,0.0,0.0
128,31.75,107.827,140.805,97.2052,99.9691,26.0343,0.0521973,1.22709,19.0105,60.9257,11.4469,0.0,0.0
130,32.25,108.954,142.211,106.738,99.9707,28.0791,0.0526981,1.23526,18.9876,60.7855,10.8037,0.0,0.0
132,32.75,109.674,143.597,111.317,99.9672,29.2871,0.0531038,1.24454,18.9651,60.6854,10.445,0.0,0.0
134,33.25,110.506,144.969,100.549,99.9774,29.6179,0.0534324,1.25206,18.9434,60.5553,10.3503,0.0,0.0
136,33.75,111.862,145.621,98.2043,99.964,29.4904,0.054114,1.25942,18.9258,60.4953,10.3859,0.0,0.0
138,34.25,112.622,146.922,101.6,99.9786,27.6138,0.0546661,1.26651,18.9062,60.3652,10.9465,0.0,0.0
140,34.75,112.972,147.793,102.817,99.981,28.8639,0.0553567,1.27346,18.8903,60.205,10.57,0.0,0.0
142,35.25,114.208,149.037,101.824,99.9656,29.4203,0.055916,1.28016,18.874,60.0248,10.4063,0.0,0.0
144,35.75,114.952,150.305,102.098,100.008,27.2508,0.0566168,1.2867,18.8607,59.9348,11.0616,0.0,0.0
146,36.25,116.072,151.173,99.5217,99.979,27.3264,0.0571844,1.293,18.846,59.7746,11.0356,0.0,0.0
148,36.75,116.614,152.348,103.837,99.9967,28.3636,0.0578493,1.2988,18.8341,59.6845,10.7202,0.0,0.0
150,37.25,117.6,153.676,102.937,99.992,29.2661,0.0584764,1.30412,18.82,59.5944,10.4532,0.0,0.0
152,37.75,118.774,154.751,98.0822,99.9999,28.3187,0.059064,1.30968,18.8086,59.4443,10.7339,0.0,0.0
154,38.25,119.48,155.252,101.544,99.9754,27.1891,0.0596121,1.31532,18.795,59.3642,11.0781,0.0,0.0
156,38.75,120.275,156.222,107.274,99.9944,26.8457,0.0601212,1.31989,18.7839,59.1841,11.1879,0.0,0.0
158,39.25,121.146,157.489,104.682,99.9798,27.4834,0.0605335,1.32954,18.7736,59.094,10.9869,0.0,0.0
160,39.75,121.477,158.316,100.744,99.9991,27.44,0.0609582,1.33736,18.7639,58.9539,11.002,0.0,0.0
162,40.25,122.206,159.01,113.365,99.9861,26.4113,0.061384,1.3464,18.7561,58.8638,11.326,0.0,0.0
164,40.75,123.391,159.746,107.457,99.9959,26.529,0.0617288,1.35615,18.7489,58.7737,11.289,0.0,0.0
166,41.25,123.423,160.676,108.756,99.9955,26.2038,0.0621177,1.36405,18.7431,58.6736,11.3939,0.0,0.0
168,41.75,124.554,161.349,106.307,99.992,26.4841,0.0624327,1.37378,18.7344,58.4934,11.303,0.0,0.0
170,42.25,124.922,162.278,102.252,99.9959,26.5248,0.062734,1.38166,18.7238,58.3233,11.2903,0.0,0.0
172,42.75,125.902,163.068,102.028,99.9845,25.6138,0.0630196,1.3894,18.7153,58.1932,11.5867,0.0,0.0
174,43.25,126.375,163.481,107.49,99.9853,24.9621,0.0633012,1.39688,18.6961,58.023,11.806,0.0,0.0
176,43.75,127.346,164.608,103.891,99.9837,27.049,0.0635747,1.4041,18.6806,57.8629,11.1228,0.0,0.0
178,44.25,127.597,165.227,106.708,99.9786,25.8577,0.0637962,1.411,18.668,57.8629,11.5056,0.0,0.0
180,44.75,128.238,165.458,118.473,99.994,27.3643,0.0640698,1.41659,18.6535,57.6927,11.0251,0.0,0.0
182,45.25,129.004,166.254,94.2551,99.9664,24.6538,0.0643763,1.42283,18.6416,57.5826,11.9102,0.0,0.0
184,45.75,129.666,167.179,110.859,99.9794,25.384,0.0646245,1.42943,18.6286,57.4225,11.6629,0.0,0.0
186,46.25,130.104,167.202,101.347,99.9644,25.0322,0.0649779,1.43477,18.6181,57.3124,11.7804,0.0,0.0
188,46.75,130.343,167.662,110.851,99.9833,28.1926,0.0652642,1.44052,18.6073,57.2023,10.7705,0.0,0.0
190,47.25,130.988,168.13,96.983,99.9715,30.4013,0.0654961,1.44518,18.5964,57.1122,10.1277,0.0,0.0
192,47.75,131.3,168.932,106.161,99.9798,28.4434,0.0658529,1.44916,18.5876,56.882,10.6948,0.0,0.0
194,48.25,132.257,169.671,107.87,99.9613,26.7855,0.0661861,1.45257,18.5752,56.7719,11.2042,0.0,0.0
196,48.75,132.668,170.212,108.634,99.9699,26.7701,0.0664958,1.45492,18.5651,56.6317,11.2098,0.0,0.0
198,49.25,133.136,170.658,110.452,99.9609,26.8611,0.0667466,1.45645,18.5534,56.5216,11.1801,0.0,0.0
200,49.75,133.982,171.103,116.572,99.9632,26.1702,0.0670015,1.45712,18.5439,56.4416,11.402,0.0,0.0
202,50.25,134.422,171.23,110.23,99.968,28.6859,0.0672079,1.45714,18.5363,56.3715,10.6216,0.0,0.0
204,50.75,134.877,171.521,102.696,99.9577,27.3222,0.0673768,1.45662,18.53,56.2214,11.0351,0.0,0.0
206,51.25,135.036,171.816,111.424,99.9325,27.7231,0.0675718,1.45571,18.525,56.1113,10.909,0.0,0.0
208,51.75,135.579,172.443,113.533,99.9443,26.1758,0.0676405,1.45466,18.5192,56.0612,11.3986,0.0,0.0
210,52.25,135.93,172.404,109.282,99.9404,25.8647,0.0676962,1.45173,18.5162,55.9711,11.5,0.0,0.0
212,52.75,136.627,173.068,112.891,99.9231,27.7119,0.0677316,1.44937,18.5138,55.821,10.9116,0.0,0.0
214,53.25,136.745,174.184,111.703,99.9144,26.4309,0.0677602,1.44653,18.5119,55.6609,11.3136,0.0,0.0
216,53.75,137.279,173.78,124.525,99.9081,26.564,0.0677835,1.44341,18.5123,55.5908,11.2703,0.0,0.0
218,54.25,137.701,174.108,117.525,99.901,25.0378,0.0678378,1.44089,18.5127,55.4607,11.7731,0.0,0.0
220,54.75,137.835,174.408,108.983,99.9022,26.6467,0.0678819,1.43816,18.5144,55.2605,11.2433,0.0,0.0
222,55.25,138.373,174.789,106.638,99.8856,26.9677,0.0679167,1.43594,18.5171,55.1504,11.1401,0.0,0.0
224,55.75,139.039,175.284,108.1,99.8896,26.9719,0.0679441,1.43224,18.5211,55.0203,11.1391,0.0,0.0
226,56.25,139.026,175.492,110.451,99.8801,25.077,0.0679259,1.42924,18.526,54.9102,11.758,0.0,0.0
228,56.75,139.367,175.912,99.9766,99.8801,24.9663,0.0679112,1.42343,18.5302,54.8301,11.7956,0.0,0.0
230,57.25,139.43,176.41,103.991,99.8817,27.29,0.067817,1.41873,18.5338,54.6699,11.0386,0.0,0.0
232,57.75,140.709,175.796,106.286,99.864,27.1471,0.0677406,1.41189,18.5377,54.5598,11.0818,0.0,0.0
234,58.25,140.734,176.401,100.943,99.8608,25.9964,0.067622,1.40634,18.5416,54.4397,11.45,0.0,0.0
236,58.75,140.895,177.263,108.886,99.8573,26.152,0.0674748,1.40039,18.5474,54.3697,11.3989,0.0,0.0
238,59.25,141.891,177.084,107.758,99.8557,24.8864,0.0672526,1.39556,18.5544,54.2195,11.8208,0.0,0.0
240,59.75,141.942,177.998,101.894,99.836,23.925,0.0670727,1.39084,18.56,54.0894,12.1543,0.0,0.0
242,60.25,142.108,178.121,98.7096,99.8482,24.4043,0.066927,1.38628,18.5716,53.9193,11.9866,0.0,0.0
244,60.75,142.087,178.67,106.702,99.8293,22.9496,0.0666983,1.38259,18.5811,53.8492,12.5079,0.0,0.0
246,61.25,143.319,178.871,100.358,99.8309,27.8198,0.0665131,1.37794,18.5901,53.6891,10.8707,0.0,0.0
248,61.75,143.288,180.003,95.671,99.8155,26.7518,0.0663437,1.37417,18.5987,53.629,11.2025,0.0,0.0
250,62.25,143.689,180.547,94.549,99.8069,27.81,0.066189,1.3707,18.6056,53.4789,10.8717,0.0,0.0
252,62.75,144.94,180.887,105.369,99.7994,25.8857,0.0660495,1.3675,18.6117,53.3688,11.4811,0.0,0.0
254,63.25,144.793,181.797,93.3804,99.7757,24.508,0.0659238,1.36491,18.6166,53.2086,11.9444,0.0,0.0
256,63.75,145.585,182.537,95.184,99.7619,24.9635,0.065822,1.3629,18.6247,53.0885,11.7865,0.0,0.0
258,64.25,145.954,182.56,105.832,99.7604,28.8779,0.0657267,1.36201,18.6313,53.0084,10.5471,0.0,0.0
260,64.75,146.184,183.812,110.569,99.732,24.899,0.0656495,1.36195,18.637,52.8783,11.806,0.0,0.0
262,65.25,147.018,183.974,115.99,99.7379,24.0329,0.0655902,1.3619,18.6417,52.7682,12.1077,0.0,0.0
264,65.75,147.374,184.659,98.6653,99.7253,21.8045,0.0655422,1.36469,18.6455,52.6381,12.9345,0.0,0.0
266,66.25,147.74,184.807,105.547,99.7135,21.1444,0.0655416,1.36695,18.6485,52.4579,13.195,0.0,0.0
268,66.75,148.28,185.55,94.0933,99.7017,22.2138,0.0655412,1.37088,18.651,52.2577,12.7743,0.0,0.0
270,67.25,148.61,186.18,103.034,99.6989,21.6784,0.0655409,1.37597,18.653,52.1677,12.9816,0.0,0.0
272,67.75,149.064,186.268,106.358,99.6694,21.9349,0.0655406,1.38009,18.6546,51.9975,12.879,0.0,0.0
274,68.25,149.701,187.083,101.797,99.6883,21.4387,0.0658052,1.38342,18.656,51.8474,13.0753,0.0,0.0
276,68.75,149.512,187.818,91.1951,99.6544,23.0743,0.0660195,1.3935,18.6554,51.6972,12.4469,0.0,0.0
278,69.25,151.105,189.517,98.7691,99.6662,20.1438,0.0664061,1.40167,18.6535,51.5571,13.6035,0.0,0.0
280,69.75,151.438,190.322,90.0441,99.6528,17.3898,0.0667192,1.41316,18.6487,51.3869,14.8531,0.0,0.0
282,70.25,152.446,191.805,108.607,99.6473,18.1522,0.0671429,1.42247,18.6419,51.2668,14.4875,0.0,0.0
284,70.75,152.969,192.804,102.613,99.6375,17.8705,0.0674861,1.43336,18.6322,51.1067,14.6198,0.0,0.0
286,71.25,154.151,194.126,92.9468,99.6284,19.9644,0.0678664,1.44218,18.6205,50.9766,13.6763,0.0,0.0
288,71.75,154.634,194.909,96.7823,99.6154,18.6848,0.0681745,1.45115,18.6034,50.8364,14.2388,0.0,0.0
290,72.25,155.288,195.983,96.3816,99.604,17.743,0.0684497,1.45842,18.5827,50.6062,14.6778,0.0,0.0
292,72.75,155.802,196.492,104.826,99.591,20.6441,0.0686957,1.46673,18.5629,50.5262,13.3883,0.0,0.0
294,73.25,155.943,197.715,104.14,99.5764,20.7366,0.0689328,1.47346,18.5441,50.386,13.349,0.0,0.0
296,73.75,157.331,198.226,99.321,99.6004,20.7997,0.0691587,1.47891,18.5289,50.2659,13.3252,0.0,0.0
298,74.25,157.804,198.925,104.492,99.5752,23.0154,0.0693417,1.49067,18.5147,50.1458,12.4618,0.0,0.0
300,74.75,158.015,199.293,107.131,99.5788,22.5095,0.0696881,1.50019,18.5016,50.0958,12.6513,0.0,0.0
302,75.25,158.34,199.486,109.473,99.55,23.6139,0.070147,1.51567,18.4909,49.9656,12.2413,0.0,0.0
304,75.75,158.816,199.232,112.425,99.539,23.583,0.0707874,1.53521,18.4818,49.8656,12.2515,0.0,0.0
306,76.25,158.576,199.149,115.168,99.5272,24.5164,0.071548,1.55865,18.4745,49.7955,11.9202,0.0,0.0
308,76.75,158.32,198.344,108.431,99.5315,24.1969,0.0725393,1.58448,18.461,49.6754,12.0322,0.0,0.0
310,77.25,158.612,197.846,116.85,99.5157,25.0336,0.0736799,1.61228,18.4501,49.6053,11.7416,0.0,0.0
312,77.75,158.817,197.17,112.747,99.502,25.1149,0.0750288,1.64098,18.4218,49.5052,11.7129,0.0,0.0
314,78.25,158.376,196.038,117.331,99.4854,26.2557,0.0765039,1.67332,18.3817,49.4752,11.3335,0.0,0.0
316,78.75,158.099,194.931,116.572,99.4937,26.1394,0.0781026,1.69952,18.3338,49.3451,11.372,0.0,0.0
318,79.25,157.245,193.838,130.394,99.4768,24.7575,0.0797609,1.72476,18.2815,49.285,11.8327,0.0,0.0
320,79.75,156.79,192.189,126.954,99.4756,29.2003,0.0813926,1.74521,18.2269,49.225,10.4284,0.0,0.0
322,80.25,156.537,190.676,122.579,99.4586,31.4342,0.0829739,1.75962,18.1828,49.1849,9.79971,0.0,0.0
324,80.75,154.938,188.639,126.527,99.4638,30.1266,0.0842548,1.76935,18.1285,49.1949,10.1616,0.0,0.0
326,81.25,154.9,187.387,130.069,99.433,32.4461,0.0856174,1.77724,18.0845,49.0748,9.52796,0.0,0.0
328,81.75,154.381,185.883,128.276,99.4437,31.5898,0.0867211,1.77363,18.0488,49.0148,9.75642,0.0,0.0
330,82.25,153.175,184.008,130.269,99.4413,33.0334,0.0874505,1.76172,18.02,49.0248,9.37606,0.0,0.0
332,82.75,152.083,181.745,131.653,99.4374,34.5722,0.0878931,1.73766,17.9966,48.9347,8.98835,0.0,0.0
334,83.25,151.223,180.521,130.015,99.4153,38.6352,0.0879191,1.70521,17.9777,48.9747,8.04113,0.0,0.0
336,83.75,150.268,178.615,136.112,99.4141,41.5054,0.0876409,1.67892,17.9703,48.9547,7.43135,0.0,0.0
338,84.25,149.745,177.338,141.785,99.4043,50.2115,0.0874156,1.63034,17.9643,48.8947,5.81043,0.0,0.0
340,84.75,148.626,175.215,136.971,99.398,54.0545,0.0861479,1.59099,17.9727,48.8546,5.18246,0.0,0.0
342,85.25,148.179,173.771,139.613,99.3728,58.877,0.0851211,1.52626,17.9914,48.8546,4.45324,0.0,0.0
344,85.75,147.263,171.912,142.671,99.3881,60.2505,0.0832647,1.47382,18.0308,48.8646,4.25836,0.0,0.0
346,86.25,145.537,169.922,141.397,99.3665,63.331,0.0811594,1.40389,18.0844,48.8446,3.83227,0.0,0.0
348,86.75,145.195,167.979,141.666,99.3653,64.9063,0.0789125,1.34725,18.155,48.8246,3.62314,0.0,0.0
350,87.25,143.548,166.277,141.475,99.3416,65.5187,0.0770925,1.28433,18.2367,48.8847,3.54121,0.0,0.0
352,87.75,142.958,164.298,145.229,99.344,65.8257,0.0746916,1.21802,18.3028,48.8847,3.50165,0.0,0.0
354,88.25,142.062,162.698,143.584,99.3168,66.4311,0.0719128,1.15059,18.4103,48.9047,3.42143,0.0,0.0
356,88.75,140.875,160.996,144.853,99.3117,66.6273,0.069003,1.08361,18.4974,48.9047,3.39589,0.0,0.0
358,89.25,139.5,158.737,148.003,99.2802,66.9244,0.0660528,1.02937,18.5679,48.8847,3.35534,0.0,0.0
360,89.75,138.829,157.346,145.188,99.2873,66.9609,0.0636631,0.985426,18.6705,48.9147,3.35132,0.0,0.0
362,90.25,137.686,155.257,147.62,99.2648,67.0057,0.0607882,0.923023,18.7536,48.8947,3.3437,0.0,0.0
364,90.75,136.566,153.444,147.848,99.2719,66.9623,0.0576141,0.865535,18.8648,48.9047,3.34982,0.0,0.0
366,91.25,135.465,152.173,149.925,99.264,66.9454,0.0544729,0.812722,18.955,48.9147,3.35128,0.0,0.0
368,91.75,134.727,150.494,147.163,99.2648,66.867,0.0514153,0.769944,19.0836,48.8947,3.36133,0.0,0.0
370,92.25,133.841,148.966,147.955,99.2428,67.258,0.0489386,0.719525,19.1878,48.8646,3.30983,0.0,0.0
372,92.75,132.062,147.163,147.587,99.2227,66.5474,0.0456344,0.678685,19.2911,48.8546,3.39847,0.0,0.0
374,93.25,130.872,144.827,147.368,99.2282,66.8025,0.042958,0.62737,19.3916,48.8747,3.3664,0.0,0.0
376,93.75,130.167,143.478,149.77,99.2128,67.1865,0.0397702,0.585805,19.4888,48.8646,3.31631,0.0,0.0
378,94.25,129.526,141.9,147.269,99.1927,66.9735,0.0371881,0.552136,19.5817,48.8646,3.34161,0.0,0.0
380,94.75,128.658,141.131,144.278,99.1916,67.0155,0.0350966,0.509543,19.6569,48.8446,3.33617,0.0,0.0
382,95.25,127.608,139.74,150.21,99.1955,67.0085,0.0326678,0.475043,19.7178,48.8546,3.3374,0.0,0.0
384,95.75,127.105,137.801,144.745,99.1746,67.1697,0.0300394,0.439505,19.7976,48.8646,3.31517,0.0,0.0
386,96.25,125.552,136.554,148.758,99.1829,67.3981,0.0275861,0.403885,19.8623,48.8346,3.28699,0.0,0.0
388,96.75,124.467,136.198,147.065,99.1549,67.3869,0.0253071,0.371451,19.9518,48.8346,3.286,0.0,0.0
390,97.25,124.164,134.084,150.228,99.1608,67.7135,0.0232705,0.341956,20.0242,48.8546,3.24538,0.0,0.0
392,97.75,123.716,133.182,143.453,99.1715,67.7906,0.0214493,0.315223,20.109,48.8346,3.23662,0.0,0.0
394,98.25,122.86,132.079,146.314,99.1699,67.4906,0.019893,0.29101,20.1777,48.8747,3.27421,0.0,0.0
396,98.75,121.674,130.737,148.219,99.1329,66.8207,0.0185592,0.271398,20.2606,48.8646,3.3559,0.0,0.0
398,99.25,120.91,129.876,146.987,99.1498,66.7422,0.0174688,0.251692,20.3279,48.8446,3.36735,0.0,0.0
400,99.75,120.667,128.907,147.723,99.1313,67.4654,0.0165765,0.234097,20.3947,48.8346,3.27407,0.0,0.0
402,100.25,119.716,127.767,149.954,99.1313,67.2314,0.0158712,0.218374,20.4488,48.8146,3.30364,0.0,0.0
404,100.75,119.235,127.159,148.277,99.1096,67.1248,0.0153156,0.205639,20.5006,48.8546,3.31527,0.0,0.0
406,101.25,118.158,126.005,146.43,99.1348,67.3771,0.0148655,0.192554,20.5425,48.8246,3.28552,0.0,0.0
408,101.75,117.869,124.94,147.068,99.1096,67.2818,0.0145231,0.181955,20.5765,48.8346,3.2954,0.0,0.0
410,102.25,117.261,123.836,149.632,99.1246,66.5895,0.0142656,0.172203,20.6102,48.8146,3.38468,0.0,0.0
412,102.75,116.352,122.96,149.177,99.0903,67.2426,0.0140484,0.163256,20.6375,48.8346,3.29871,0.0,0.0
414,103.25,115.873,122.214,147.598,99.1065,67.0996,0.0138646,0.156008,20.6649,48.8346,3.3182,0.0,0.0
416,103.75,114.773,120.99,147.867,99.086,67.3883,0.0136788,0.148582,20.6871,48.8446,3.27991,0.0,0.0
418,104.25,114.545,120.024,147.257,99.0746,66.9511,0.0134952,0.142567,20.7091,48.8146,3.33432,0.0,0.0
420,104.75,113.942,119.841,150.944,99.0655,67.2229,0.0132876,0.136475,20.7269,48.7846,3.29906,0.0,0.0
422,105.25,113.081,118.498,152.622,99.0876,67.3813,0.0129723,0.12879,20.751,48.7946,3.28093,0.0,0.0
424,105.75,112.429,117.823,147.986,99.0486,67.4458,0.0128874,0.126314,20.758,48.7846,3.26945,0.0,0.0
426,106.25,111.779,117.234,146.758,99.0671,67.4318,0.0125614,0.122081,20.7714,48.8046,3.2728,0.0,0.0
428,106.75,111.504,116.166,150.222,99.0482,66.9777,0.0122973,0.117568,20.7836,48.8046,3.32867,0.0,0.0
430,107.25,110.585,115.793,147.784,99.0553,67.4528,0.0119032,0.113912,20.7943,48.7946,3.26914,0.0,0.0
432,107.75,109.998,114.414,146.995,99.0411,67.691,0.011584,0.110315,20.8039,48.7746,3.23792,0.0,0.0
434,108.25,109.118,113.816,148.87,99.058,67.0674,0.0113254,0.106829,20.8116,48.7746,3.31813,0.0,0.0
436,108.75,109.174,113.115,145.524,99.0356,67.1809,0.0108617,0.104005,20.8201,48.7846,3.30181,0.0,0.0
438,109.25,108.664,112.368,147.866,99.0316,67.293,0.0103903,0.10064,20.8269,48.7946,3.28728,0.0,0.0
440,109.75,108.241,111.664,151.328,99.0214,67.1178,0.00992238,0.0979147,20.8332,48.7946,3.30858,0.0,0.0
442,110.25,107.578,111.14,147.129,99.0332,66.7464,0.00954335,0.0949147,20.8389,48.8046,3.3568,0.0,0.0
444,110.75,106.871,110.232,143.83,99.0281,67.5004,0.00906275,0.0924848,20.8444,48.8146,3.26079,0.0,0.0
446,111.25,106.978,109.777,151.946,99.0269,66.9398,0.00867347,0.089881,20.8497,48.7946,3.33165,0.0,0.0
448,111.75,105.58,108.948,150.898,99.0096,67.1319,0.00822973,0.0877718,20.8541,48.7946,3.30579,0.0,0.0
450,112.25,105.538,108.34,147.743,99.0104,67.2552,0.00787029,0.0860635,20.8585,48.8146,3.29024,0.0,0.0
452,112.75,105.014,108.078,147.15,99.0056,66.8515,0.00757915,0.0837774,20.8629,48.8046,3.34105,0.0,0.0
454,113.25,104.121,106.906,152.453,99.0037,66.7156,0.00724108,0.0819256,20.8665,48.8146,3.3582,0.0,0.0
456,113.75,104.218,106.668,147.25,98.9985,66.8291,0.00687522,0.0800339,20.87,48.8346,3.34329,0.0,0.0
458,114.25,103.53,105.737,149.112,98.9993,66.7731,0.00652989,0.0781489,20.8728,48.8446,3.3505,0.0,0.0
460,114.75,102.583,105.489,144.711,98.9761,67.0337,0.00620607,0.0766221,20.8755,48.8146,3.31535,0.0,0.0
462,115.25,102.509,105.393,148.388,98.9836,67.0281,0.00594377,0.0750895,20.8779,48.8346,3.31671,0.0,0.0
464,115.75,102.274,104.553,153.982,98.9871,66.9469,0.00573132,0.0735818,20.8798,48.8046,3.32734,0.0,0.0
466,116.25,101.669,104.045,151.549,98.9658,67.6322,0.00544929,0.0723606,20.8819,48.7946,3.23886,0.0,0.0
468,116.75,101.255,103.005,148.362,98.9757,67.2412,0.00522085,0.070796,20.884,48.8046,3.28904,0.0,0.0
470,117.25,100.872,102.866,147.2,98.9647,67.1248,0.00496757,0.0695287,20.8863,48.7746,3.30282,0.0,0.0
472,117.75,100.465,102.272,150.905,98.9808,67.6098,0.00476242,0.0683029,20.8889,48.8046,3.24297,0.0,0.0
474,118.25,100.069,101.87,149.245,98.9635,67.2075,0.00452448,0.0671307,20.8914,48.8146,3.29224,0.0,0.0
476,118.75,99.5945,101.668,146.843,98.9662,66.9062,0.00433176,0.0659969,20.8939,48.7946,3.33071,0.0,0.0
478,119.25,99.43,101.259,148.342,98.9418,66.8095,0.00410403,0.0649126,20.8964,48.8146,3.34092,0.0,0.0
480,119.75,98.8262,100.282,151.392,98.9599,67.1613,0.00391957,0.0637543,20.8988,48.8446,3.29779,0.0,0.0
482,120.25,98.581,100.198,150.88,98.9505,66.6553,0.00370232,0.062816,20.901,48.8146,3.36132,0.0,0.0
484,120.75,98.2413,99.4614,150.489,98.9808,66.9861,0.00352634,0.0618462,20.903,48.8046,3.32181,0.0,0.0
486,121.25,97.8936,99.187,147.265,98.9513,66.7731,0.00331608,0.0610606,20.905,48.8146,3.34637,0.0,0.0
488,121.75,97.8968,98.6066,148.788,98.9686,67.108,0.00314577,0.0602402,20.9071,48.8146,3.30529,0.0,0.0
490,122.25,97.6033,98.1914,149.726,98.9477,66.5348,0.00300781,0.0594101,20.9088,48.8146,3.37648,0.0,0.0
492,122.75,96.6705,98.2603,153.007,98.9686,66.8193,0.00281401,0.0587377,20.9104,48.7946,3.34197,0.0,0.0
494,123.25,96.14,97.6287,147.001,98.945,66.881,0.00265703,0.0579275,20.9119,48.8146,3.33209,0.0,0.0
496,123.75,96.0509,97.0263,149.713,98.9528,66.7997,0.00249945,0.0572713,20.9132,48.8046,3.34311,0.0,0.0
498,124.25,95.675,96.9996,147.875,98.9497,66.5152,0.00227834,0.0563581,20.9152,48.8246,3.37915,0.0,0.0
500,124.75,94.9664,96.6182,152.794,98.9414,66.8179,0.00220683,0.0560881,20.9158,48.7946,3.33981,0.0,0.0
502,125.25,95.1582,95.6145,149.186,98.9127,66.9525,0.00208455,0.0555528,20.9165,48.8346,3.32022,0.0,0.0
504,125.75,94.3592,94.8991,153.392,98.9418,66.7282,0.00199151,0.0550531,20.9172,48.8046,3.35127,0.0,0.0
506,126.25,93.93,94.7839,151.709,98.9253,67.3883,0.00191615,0.0545749,20.9181,48.8146,3.2661,0.0,0.0
508,126.75,93.8365,94.7887,148.434,98.9335,67.4388,0.00186588,0.0541214,20.9189,48.8046,3.26044,0.0,0.0
510,127.25,93.4664,94.3131,150.157,98.915,66.696,0.00183484,0.053754,20.92,48.8046,3.35308,0.0,0.0
512,127.75,93.2914,94.056,148.047,98.9068,66.7745,0.00181414,0.0533308,20.9208,48.8146,3.34236,0.0,0.0
514,128.25,93.1717,93.6076,147.834,98.9083,66.7661,0.00180136,0.0529881,20.922,48.8146,3.34357,0.0,0.0
516,128.75,92.3537,93.6423,146.82,98.9182,66.6007,0.00179101,0.0526127,20.9229,48.8146,3.36552,0.0,0.0
518,129.25,92.7639,92.328,146.807,98.9194,66.8305,0.00178073,0.0523087,20.9236,48.8446,3.33631,0.0,0.0
520,129.75,91.8963,92.6127,149.277,98.9205,66.9258,0.00177069,0.0520037,20.9242,48.8246,3.32429,0.0,0.0
522,130.25,91.7561,92.4901,153.926,98.9182,67.3112,0.00174925,0.0517037,20.9247,48.8246,3.27523,0.0,0.0
524,130.75,91.4371,92.0743,146.587,98.9075,67.2159,0.00171992,0.0514241,20.9251,48.8146,3.28637,0.0,0.0
526,131.25,91.345,91.5007,148.996,98.8945,67.1627,0.00167402,0.0511645,20.9254,48.7946,3.29199,0.0,0.0
528,131.75,91.1718,91.251,153.716,98.8839,67.1375,0.00161691,0.0509029,20.9257,48.7946,3.29427,0.0,0.0
530,132.25,90.6059,91.1346,148.803,98.9005,67.1725,0.00154474,0.0506447,20.9259,48.7646,3.29126,0.0,0.0
532,132.75,90.3496,90.727,147.897,98.8977,66.2671,0.00146297,0.0504063,20.9265,48.8046,3.40647,0.0,0.0
534,133.25,90.2339,90.8449,147.33,98.8902,66.4942,0.00137527,0.0501867,20.927,48.8246,3.37673,0.0,0.0
536,133.75,89.7016,90.3333,149.512,98.8835,66.8908,0.00128492,0.0500088,20.9274,48.8246,3.32556,0.0,0.0
538,134.25,89.758,89.8594,148.583,98.8981,66.483,0.00120102,0.0498647,20.9278,48.7946,3.37884,0.0,0.0
540,134.75,89.5555,89.745,150.199,98.8843,66.6764,0.00112341,0.049748,20.928,48.8046,3.35294,0.0,0.0
542,135.25,88.9545,89.3821,149.411,98.8792,66.8011,0.00106055,0.0496535,20.9282,48.8046,3.3366,0.0,0.0
544,135.75,88.7224,89.197,148.14,98.8878,66.7787,0.00100963,0.0495556,20.9284,48.8046,3.3402,0.0,0.0
546,136.25,88.7102,89.2861,148.177,98.8949,66.2195,0.000980361,0.049457,20.9285,48.8046,3.41235,0.0,0.0
548,136.75,88.1288,89.2045,151.189,98.8544,67.1431,0.000967441,0.0493772,20.9285,48.7746,3.29102,0.0,0.0
550,137.25,87.9726,88.75,148.201,98.8697,66.8754,0.000956975,0.0493126,20.9284,48.8146,3.32633,0.0,0.0
552,137.75,87.7185,88.1477,152.93,98.8678,66.7338,0.000988072,0.0492602,20.9283,48.8246,3.34419,0.0,0.0
554,138.25,87.2791,87.9171,148.437,98.8705,66.4577,0.00101326,0.0491738,20.9282,48.8246,3.3797,0.0,0.0
556,138.75,87.3509,87.4391,152.828,98.863,67.1248,0.00106007,0.0490641,20.9281,48.8346,3.29408,0.0,0.0
558,139.25,87.2519,87.5842,150.224,98.8666,66.6371,0.00109799,0.0489614,20.9281,48.8246,3.35642,0.0,0.0
560,139.75,87.2753,87.6443,150.634,98.85,66.7464,0.0011263,0.0488781,20.9283,48.7846,3.34105,0.0,0.0
562,140.25,86.7236,86.9898,149.499,98.863,66.3989,0.00114923,0.0488034,20.9286,48.8146,3.38659,0.0,0.0
564,140.75,86.4878,87.0231,151.574,98.8591,66.0345,0.001145,0.0487362,20.9289,48.8046,3.43307,0.0,0.0
566,141.25,86.4575,86.6545,147.581,98.8705,66.7016,0.00114157,0.0486598,20.9291,48.8046,3.34854,0.0,0.0
568,141.75,86.1732,85.9628,151.198,98.8359,66.3554,0.001122,0.0485781,20.9293,48.8146,3.38982,0.0,0.0
570,142.25,85.7396,86.1882,150.074,98.8575,66.7871,0.00110614,0.0485119,20.9295,48.8146,3.33652,0.0,0.0
572,142.75,85.7537,85.9626,150.555,98.8457,66.3498,0.0010933,0.0484583,20.9296,48.8046,3.39139,0.0,0.0
574,143.25,85.4852,85.5912,151.891,98.8536,66.3078,0.00106372,0.0484149,20.9297,48.8146,3.39746,0.0,0.0
576,143.75,85.1395,85.2881,151.801,98.839,65.8789,0.00103975,0.0483797,20.9298,48.7946,3.45141,0.0,0.0
578,144.25,85.4089,85.2927,147.997,98.8402,66.6343,0.00100836,0.0483512,20.9299,48.8046,3.35451,0.0,0.0
580,144.75,84.361,85.1086,153.727,98.8016,67.0309,0.000982928,0.0483208,20.9299,48.8046,3.3007,0.0,0.0
582,145.25,85.0651,84.684,147.329,98.8256,66.6273,0.000959807,0.0482896,20.93,48.8046,3.35415,0.0,0.0
584,145.75,84.7836,84.6953,150.595,98.7988,67.2384,0.000938808,0.0482643,20.93,48.7946,3.27417,0.0,0.0
586,146.25,84.2699,84.8012,146.891,98.8248,66.6413,0.000919277,0.0482438,20.93,48.7846,3.35229,0.0,0.0
588,146.75,84.2178,84.1192,146.012,98.8071,66.9511,0.000901187,0.0482125,20.9301,48.7946,3.31132,0.0,0.0
590,147.25,84.0576,84.2299,150.664,98.798,66.9497,0.00088149,0.048174,20.9301,48.8046,3.31071,0.0,0.0
592,147.75,83.9725,83.8239,147.184,98.8087,66.6273,0.000860997,0.0481428,20.9301,48.8046,3.35269,0.0,0.0
594,148.25,83.2751,83.9393,149.502,98.8012,67.3813,0.000841877,0.0480757,20.9301,48.7646,3.25631,0.0,0.0
596,148.75,83.2991,83.5436,147.423,98.7988,67.0057,0.00082412,0.0480213,20.9301,48.7946,3.30366,0.0,0.0
598,149.25,83.7291,83.4287,148.359,98.7894,66.8109,0.000809737,0.0479634,20.9301,48.8146,3.32762,0.0,0.0
600,149.75,82.9275,83.446,151.939,98.8142,66.4493,0.000798087,0.0479164,20.9301,48.8146,3.37593,0.0,0.0
602,150.25,82.4734,83.0612,149.757,98.8,66.56,0.000788651,0.0479004,20.9301,48.8146,3.36054,0.0,0.0
604,150.75,82.5473,83.1381,154.514,98.8071,66.7576,0.000779117,0.0479072,20.9301,48.8046,3.33593,0.0,0.0
606,151.25,82.4559,82.8993,149.462,98.7988,66.4101,0.000769692,0.0479054,20.9301,48.8046,3.37963,0.0,0.0
608,151.75,82.0726,82.5691,148.951,98.8016,66.3666,0.000759538,0.0478973,20.9301,48.8146,3.38543,0.0,0.0
610,152.25,81.8297,82.621,154.56,98.7878,66.4788,0.000749044,0.0478908,20.9301,48.8446,3.36988,0.0,0.0
612,152.75,82.0244,82.2012,148.729,98.8055,66.5418,0.000744325,0.0478576,20.9301,48.8446,3.36334,0.0,0.0
614,153.25,81.7988,82.4266,151.051,98.7902,66.5306,0.000743905,0.0478308,20.9306,48.8947,3.36346,0.0,0.0
616,153.75,81.5128,81.7633,150.921,98.7965,66.4241,0.000743566,0.0477951,20.931,48.9247,3.37763,0.0,0.0
618,154.25,81.3506,81.7855,148.451,98.7898,66.2643,0.000758861,0.0477662,20.9312,48.8747,3.39754,0.0,0.0
620,154.75,81.7085,81.8795,148.196,98.8095,66.1368,0.000771249,0.0477846,20.9315,48.8646,3.41563,0.0,0.0
622,155.25,81.4619,81.5784,151.027,98.7898,66.1116,0.000805252,0.0477995,20.9317,48.8046,3.41718,0.0,0.0
624,155.75,81.0906,81.1024,148.538,98.7965,66.8375,0.000844536,0.0478167,20.9319,48.8046,3.32484,0.0,0.0
626,156.25,80.6365,81.0701,148.551,98.7886,66.0485,0.000855103,0.0478213,20.9319,48.7746,3.4252,0.0,0.0
628,156.75,80.4604,81.0061,153.571,98.7815,66.0569,0.000899557,0.0478292,20.932,48.7946,3.4235,0.0,0.0
630,157.25,80.6189,80.5245,154.962,98.7689,66.1298,0.000935564,0.047843,20.9321,48.8146,3.41304,0.0,0.0
632,157.75,80.1421,80.9901,152.12,98.8,66.4213,0.000980329,0.0478607,20.9322,48.8246,3.37829,0.0,0.0
634,158.25,80.1333,80.4313,151.591,98.774,66.3442,0.00101659,0.0478751,20.9322,48.8246,3.38593,0.0,0.0
636,158.75,80.0954,79.7398,151.127,98.7661,66.3274,0.00104596,0.047894,20.9323,48.8046,3.38741,0.0,0.0
638,159.25,79.6621,79.851,149.157,98.7649,66.4759,0.00107228,0.047916,20.9323,48.8046,3.36828,0.0,0.0
640,159.75,80.1038,79.6154,149.463,98.7839,66.0835,0.00109587,0.0479191,20.9323,48.8046,3.42028,0.0,0.0
642,160.25,79.8733,80.0843,152.575,98.7579,65.6645,0.00111308,0.0479085,20.9323,48.7946,3.47216,0.0,0.0
644,160.75,79.3735,80.1763,151.117,98.7693,66.4549,0.00112532,0.0478998,20.9323,48.7846,3.37134,0.0,0.0
646,161.25,79.3017,79.9304,151.992,98.733,66.3526,0.0011327,0.0478649,20.9322,48.7646,3.38133,0.0,0.0
648,161.75,79.4592,79.7572,151.895,98.7819,66.4437,0.00113641,0.047822,20.9322,48.7445,3.37386,0.0,0.0
650,162.25,79.0576,79.4119,151.429,98.7409,66.0036,0.00113878,0.047774,20.9322,48.7245,3.42687,0.0,0.0
652,162.75,78.7493,79.4829,150.728,98.7555,65.6883,0.00114014,0.0477352,20.9322,48.7445,3.46887,0.0,0.0
654,163.25,79.0218,79.1134,149.697,98.7334,66.3666,0.00114123,0.0476898,20.9322,48.6845,3.37956,0.0,0.0
656,163.75,78.6329,79.095,151.029,98.7575,66.7254,0.00114907,0.047653,20.9322,48.7045,3.33576,0.0,0.0
658,164.25,78.5479,78.415,149.687,98.7342,66.4381,0.00116167,0.0476305,20.9322,48.7245,3.37047,0.0,0.0
660,164.75,78.6646,78.8492,152.423,98.7181,66.2167,0.00118749,0.0476189,20.9322,48.7746,3.39749,0.0,0.0
662,165.25,78.0689,78.4337,148.158,98.7204,66.6988,0.0012084,0.0476095,20.9322,48.7646,3.33597,0.0,0.0
664,165.75,78.11,78.3994,149.233,98.7149,66.127,0.00123039,0.0476019,20.9322,48.7445,3.40875,0.0,0.0
666,166.25,78.3281,78.5363,148.591,98.7161,66.8123,0.00125276,0.0475811,20.9322,48.7545,3.32113,0.0,0.0
668,166.75,77.8516,78.7023,148.339,98.7126,66.1746,0.00126519,0.047551,20.9322,48.7545,3.40241,0.0,0.0
670,167.25,77.7153,78.3623,151.919,98.7074,65.9238,0.00127014,0.0475267,20.9322,48.7445,3.43429,0.0,0.0
672,167.75,77.7205,77.9642,147.794,98.7208,65.991,0.00127415,0.0474373,20.9322,48.7345,3.42676,0.0,0.0
674,168.25,77.1863,78.476,152.674,98.7035,65.9546,0.00125578,0.0473649,20.9322,48.7646,3.42997,0.0,0.0
676,168.75,77.3532,78.1569,149.223,98.6921,66.3989,0.0012409,0.047348,20.9322,48.7746,3.37187,0.0,0.0
678,169.25,77.4478,78.0476,152.536,98.6893,66.4745,0.00121086,0.0473344,20.9322,48.7345,3.36194,0.0,0.0
680,169.75,77.7324,77.7722,152.106,98.6917,66.2853,0.00118652,0.0473233,20.9322,48.7445,3.38639,0.0,0.0
682,170.25,77.0308,77.5998,152.095,98.6826,66.6273,0.0011668,0.0473701,20.9322,48.7545,3.34183,0.0,0.0
684,170.75,77.4389,77.5452,147.82,98.6613,66.2349,0.00112685,0.047408,20.9322,48.7746,3.39025,0.0,0.0
686,171.25,76.9277,77.4509,152.217,98.7043,66.567,0.00109449,0.0474108,20.9322,48.7746,3.3514,0.0,0.0
688,171.75,76.9748,77.4403,152.611,98.6858,66.2881,0.00106468,0.0474131,20.9319,48.7545,3.38552,0.0,0.0
690,172.25,76.5718,77.3596,151.822,98.6657,65.8495,0.00104053,0.0474149,20.9316,48.7846,3.44028,0.0,0.0
692,172.75,76.598,76.7813,156.277,98.6428,65.977,0.00102287,0.0474164,20.9312,48.7946,3.42185,0.0,0.0
694,173.25,76.7467,77.1074,151.831,98.6629,66.2895,0.00101026,0.047403,20.931,48.8046,3.38337,0.0,0.0
696,173.75,76.6441,76.7875,151.355,98.6499,66.4241,0.000998157,0.0473789,20.9308,48.7946,3.365,0.0,0.0
698,174.25,76.5141,76.8571,148.281,98.6527,66.1634,0.00098665,0.0473447,20.9306,48.8046,3.39869,0.0,0.0
700,174.75,76.592,76.9306,148.775,98.6314,65.8397,0.000976698,0.0473038,20.9304,48.8046,3.43859,0.0,0.0
702,175.25,76.5517,76.6685,152.462,98.6625,65.8299,0.000968069,0.0473,20.9303,48.7946,3.44254,0.0,0.0
704,175.75,76.29,77.0898,151.846,98.6294,65.223,0.000962973,0.0473233,20.9302,48.7746,3.51848,0.0,0.0
706,176.25,76.0762,76.508,147.33,98.6393,65.7878,0.000960548,0.0473422,20.9302,48.7946,3.44597,0.0,0.0
708,176.75,75.9564,76.6884,155.612,98.6298,66.2657,0.000958584,0.0473576,20.9301,48.8046,3.38358,0.0,0.0
710,177.25,76.3506,76.7513,147.609,98.6322,65.8649,0.000956993,0.04737,20.9301,48.8046,3.4354,0.0,0.0
712,177.75,75.9227,76.5127,152.598,98.6227,66.2209,0.000955704,0.04738,20.93,48.8146,3.38873,0.0,0.0
714,178.25,75.308,76.586,151.435,98.6086,66.0709,0.00095466,0.0473742,20.93,48.8046,3.40679,0.0,0.0
716,178.75,75.5541,76.2567,149.525,98.605,66.5684,0.000943027,0.0473695,20.93,48.8246,3.34266,0.0,0.0
718,179.25,75.6145,75.8128,146.879,98.618,65.8032,0.000933605,0.0473796,20.9299,48.8046,3.44215,0.0,0.0
720,179.75,75.9382,75.8657,148.629,98.6011,66.2223,0.000911595,0.0473878,20.9302,48.7846,3.38668,0.0,0.0
722,180.25,75.4695,75.7714,154.011,98.6164,65.8775,0.000893766,0.0473666,20.9305,48.7946,3.43241,0.0,0.0
724,180.75,75.9063,76.0705,155.144,98.592,66.1522,0.000874534,0.0473494,20.9308,48.8146,3.3949,0.0,0.0
726,181.25,75.1515,75.7566,151.748,98.5999,66.0092,0.000858956,0.0473355,20.9311,48.8146,3.41399,0.0,0.0
728,181.75,74.8953,75.6648,148.046,98.5924,66.4731,0.000846337,0.0473382,20.9313,48.7946,3.35376,0.0,0.0
730,182.25,75.5095,75.4518,150.918,98.6086,66.4521,0.000840908,0.0473403,20.9316,48.8046,3.35784,0.0,0.0
732,182.75,74.8063,75.0535,151.946,98.594,65.998,0.00083651,0.0473274,20.932,48.8046,3.41492,0.0,0.0
734,183.25,74.7178,75.3543,152.507,98.5948,66.1578,0.000832948,0.0473037,20.9324,48.7946,3.39442,0.0,0.0
736,183.75,74.7754,75.3067,153.828,98.5877,65.7318,0.000830063,0.0472772,20.9326,48.8046,3.44877,0.0,0.0
738,184.25,74.5594,75.2122,151.369,98.5956,65.9462,0.000827726,0.0472491,20.9329,48.7946,3.42175,0.0,0.0
740,184.75,74.727,75.2732,156.981,98.5688,66.0317,0.000823436,0.0472264,20.9326,48.8246,3.40841,0.0,0.0
742,185.25,74.5623,75.5214,154.459,98.5853,66.5348,0.000819962,0.047194,20.9324,48.8146,3.34526,0.0,0.0
744,185.75,74.7655,74.8987,149.974,98.5696,65.7107,0.000823138,0.0471678,20.9322,48.8046,3.44993,0.0,0.0
746,186.25,74.6065,75.3214,147.295,98.57,66.2475,0.000825711,0.0471048,20.9321,48.7946,3.38075,0.0,0.0
748,186.75,74.4641,75.3389,152.935,98.5774,65.4795,0.000835363,0.0470538,20.932,48.8146,3.48061,0.0,0.0
750,187.25,74.086,74.8145,149.006,98.5692,66.1144,0.000856228,0.0470226,20.9318,48.8046,3.3978,0.0,0.0
752,187.75,74.1349,74.8604,148.58,98.5743,66.0863,0.000864995,0.0470187,20.9318,48.8246,3.40185,0.0,0.0
754,188.25,74.2696,74.6442,153.383,98.5763,66.1508,0.000879987,0.0470338,20.9317,48.8046,3.39372,0.0,0.0
756,188.75,74.1563,74.9085,151.398,98.5743,66.2994,0.0008915,0.0470659,20.9317,48.8146,3.37447,0.0,0.0
758,189.25,73.7471,74.9126,148.944,98.5747,66.0849,0.000900258,0.0470919,20.9321,48.8246,3.40206,0.0,0.0
760,189.75,73.4652,75.0542,148.245,98.5692,65.991,0.00090672,0.0470851,20.9324,48.8046,3.41368,0.0,0.0
762,190.25,73.7665,75.2339,147.988,98.5692,65.9308,0.000911387,0.0470796,20.9327,48.8046,3.42146,0.0,0.0
764,190.75,73.6991,74.607,151.198,98.5672,66.3036,0.000915168,0.0470752,20.9329,48.7946,3.37332,0.0,0.0
766,191.25,73.943,74.7101,150.677,98.5648,65.9742,0.000915706,0.0470715,20.9331,48.7946,3.41548,0.0,0.0
768,191.75,73.8347,74.0851,152.075,98.5743,66.1844,0.000913872,0.0470686,20.9332,48.7846,3.38923,0.0,0.0
770,192.25,73.6971,74.2896,152.431,98.5455,66.0359,0.000910494,0.0470662,20.9333,48.7846,3.40586,0.0,0.0
772,192.75,73.5403,74.5149,151.967,98.5751,66.0583,0.000906055,0.047079,20.9334,48.7746,3.40553,0.0,0.0
774,193.25,73.7213,73.9257,150.474,98.5684,65.9195,0.00090126,0.0471025,20.9335,48.7846,3.42284,0.0,0.0
776,193.75,73.2598,74.4745,146.553,98.5814,65.6785,0.000897377,0.0471289,20.9335,48.8146,3.45513,0.0,0.0
778,194.25,73.5705,74.1038,150.052,98.5707,65.6505,0.000892339,0.0471569,20.9336,48.8046,3.45784,0.0,0.0
780,194.75,73.3797,74.2167,153.09,98.5637,66.4059,0.000886556,0.0471942,20.9336,48.7946,3.35989,0.0,0.0
782,195.25,73.1444,74.2778,154.517,98.5629,65.9266,0.000878087,0.0472376,20.9337,48.8046,3.42146,0.0,0.0
784,195.75,72.8098,74.0649,152.195,98.5668,65.7219,0.000867823,0.0472728,20.9337,48.7846,3.44824,0.0,0.0
786,196.25,73.16,73.5053,151.196,98.5558,65.9546,0.000853836,0.0473013,20.9337,48.8046,3.41723,0.0,0.0
788,196.75,73.0319,73.8469,151.115,98.5794,66.382,0.000830393,0.0473343,20.9337,48.7846,3.36431,0.0,0.0
790,197.25,72.8696,73.9084,152.94,98.5652,66.0541,0.000824087,0.0473278,20.9337,48.7946,3.40522,0.0,0.0
792,197.75,73.1699,73.7152,150.016,98.5845,65.8425,0.000813303,0.0473167,20.9337,48.7746,3.43418,0.0,0.0
794,198.25,73.0175,73.8666,149.257,98.5605,65.5243,0.000792599,0.0473077,20.9338,48.7646,3.47332,0.0,0.0
796,198.75,72.8326,73.7722,145.385,98.5735,66.2573,0.000775829,0.0473005,20.9336,48.7545,3.3798,0.0,0.0
798,199.25,72.8887,73.4445,153.63,98.5692,65.736,0.000761048,0.0472946,20.9335,48.7746,3.44663,0.0,0.0
800,199.75,72.6664,73.5142,152.327,98.583,65.8999,0.000749076,0.047248,20.9334,48.7646,3.42663,0.0,0.0
802,200.25,72.562,73.4632,149.035,98.579,66.0261,0.00073459,0.0472103,20.9333,48.7345,3.41002,0.0,0.0
804,200.75,72.5118,73.4783,154.969,98.5885,65.757,0.000722856,0.0471937,20.933,48.7345,3.44558,0.0,0.0
806,201.25,72.8279,72.9821,149.634,98.5727,66.0639,0.000712155,0.0471802,20.9325,48.7646,3.4046,0.0,0.0
808,201.75,72.4213,73.3863,151.066,98.5841,65.6939,0.000703487,0.0471832,20.9322,48.7646,3.45337,0.0,0.0
810,202.25,72.1948,73.0711,150.912,98.5696,66.5166,0.00070724,0.0471857,20.9319,48.7646,3.34623,0.0,0.0
812,202.75,71.7607,72.9842,152.375,98.5798,66.5236,0.00071028,0.0471598,20.9316,48.7646,3.34622,0.0,0.0
814,203.25,72.2744,73.0558,150.505,98.5849,65.9658,0.000712743,0.0471389,20.9314,48.7646,3.4183,0.0,0.0
816,203.75,72.2004,72.9121,151.525,98.592,65.8004,0.000737493,0.0471219,20.9313,48.7746,3.44027,0.0,0.0
818,204.25,71.9646,73.0322,149.515,98.596,65.436,0.000757542,0.0471081,20.9312,48.8146,3.48785,0.0,0.0
820,204.75,72.3047,72.6814,148.112,98.6046,65.8257,0.000773781,0.047097,20.9315,48.8146,3.43809,0.0,0.0
822,205.25,71.5594,72.5844,153.874,98.5873,65.8257,0.000774956,0.0470953,20.9318,48.7646,3.4366,0.0,0.0
824,205.75,71.9886,72.5774,151.243,98.6161,65.5355,0.000775907,0.0471005,20.9316,48.7545,3.47666,0.0,0.0
826,206.25,72.3469,72.4447,152.766,98.6034,65.8285,0.000750339,0.0470828,20.9315,48.7545,3.43763,0.0,0.0
828,206.75,71.7498,72.266,152.062,98.6101,66.0751,0.000729628,0.0470486,20.9314,48.7445,3.40638,0.0,0.0
830,207.25,71.9329,72.4698,149.46,98.6109,66.2895,0.000688925,0.0470209,20.9313,48.7345,3.37889,0.0,0.0
832,207.75,71.7454,72.6338,151.064,98.6381,66.1102,0.000631828,0.0469858,20.9314,48.7345,3.40429,0.0,0.0
834,208.25,71.7885,72.2038,150.557,98.6168,65.8495,0.000610114,0.0469573,20.9317,48.7345,3.43607,0.0,0.0
836,208.75,71.2597,71.9987,154.025,98.6279,66.3806,0.000572981,0.0469482,20.9321,48.7345,3.36867,0.0,0.0
838,209.25,71.134,72.6442,151.808,98.6354,66.0177,0.000535985,0.0469409,20.9324,48.7345,3.41596,0.0,0.0
840,209.75,71.4562,72.0022,144.637,98.6302,66.2839,0.00049979,0.0469496,20.9327,48.7646,3.38127,0.0,0.0
842,210.25,71.6314,72.1491,154.427,98.6444,66.2083,0.000465442,0.0469698,20.9325,48.7545,3.39222,0.0,0.0
844,210.75,71.3151,72.3863,149.045,98.6543,66.3372,0.000433093,0.0469862,20.9324,48.7545,3.37651,0.0,0.0
846,211.25,71.0549,72.4273,150.676,98.6401,66.1396,0.00040689,0.0469716,20.9325,48.7545,3.40067,0.0,0.0
848,211.75,71.0073,72.2596,146.893,98.6487,66.3372,0.000385666,0.0469598,20.9328,48.7445,3.37604,0.0,0.0
849,212,70.9894,71.8161,145.925,98.655,66.0443,0.000376618,0.0469548,20.9329,48.7545,3.41423,0.0,0.0