File: 01_Data/Latex_Pillow_Foam/Cone/Latex_Pillow_Foam_HRRPUA_25.csv
Time after Ignition,Latex_Pillow_Foam_R1,Latex_Pillow_Foam_R2,Latex_Pillow_Foam_R3,Latex_Pillow_Foam_R4,Mean,Std. Dev.
0.0,1.5,2.0,3.2,3.1,2.5,0.9
0.25,1.5,2.0,3.2,3.3,2.5,0.9
0.5,1.5,2.1,3.1,3.5,2.6,0.9
0.75,1.5,2.2,3.2,3.5,2.6,0.9
1.0,1.5,2.3,3.1,3.6,2.6,0.9
1.25,1.6,2.3,3.2,3.7,2.7,0.9
1.5,1.6,2.4,3.3,3.8,2.8,1.0
1.75,1.7,2.5,3.4,4.0,2.9,1.0
2.0,1.7,2.5,3.5,4.1,2.9,1.1
2.25,1.7,2.5,3.6,4.2,3.0,1.1
2.5,1.8,2.5,3.6,4.3,3.1,1.1
2.75,1.8,2.6,3.7,4.4,3.1,1.2
3.0,1.8,2.6,3.7,4.5,3.1,1.2
3.25,1.8,2.6,3.8,4.5,3.2,1.2
3.5,1.9,2.6,3.8,4.7,3.3,1.3
3.75,1.9,2.6,3.6,4.8,3.2,1.3
4.0,1.9,2.8,3.6,4.8,3.3,1.3
4.25,1.9,2.9,3.4,4.8,3.3,1.2
4.5,1.9,3.0,3.2,4.9,3.3,1.3
4.75,1.9,3.1,3.1,5.1,3.3,1.3
5.0,1.9,3.2,3.1,5.3,3.3,1.4
5.25,2.0,3.3,2.9,5.3,3.4,1.4
5.5,1.9,3.5,3.0,5.4,3.4,1.5
5.75,1.9,3.3,2.8,5.5,3.4,1.5
6.0,1.9,3.4,2.7,5.7,3.4,1.6
6.25,1.9,3.5,2.8,5.7,3.5,1.6
6.5,1.9,3.6,2.6,6.0,3.5,1.8
6.75,2.0,3.6,2.5,5.9,3.5,1.7
7.0,2.0,3.7,2.5,6.3,3.6,1.9
7.25,1.9,3.6,2.5,6.5,3.6,2.0
7.5,2.0,3.6,2.4,6.8,3.7,2.2
7.75,2.0,3.8,2.5,6.8,3.8,2.2
8.0,2.2,4.0,2.6,7.1,4.0,2.2
8.25,2.4,4.3,2.9,7.2,4.2,2.1
8.5,2.6,4.3,3.0,7.3,4.3,2.1
8.75,2.7,4.5,3.0,7.4,4.4,2.1
9.0,2.9,4.5,4.1,7.7,4.8,2.0
9.25,3.1,4.3,5.2,8.1,5.2,2.1
9.5,3.1,4.2,6.0,8.0,5.3,2.2
9.75,3.3,4.1,6.8,8.1,5.6,2.3
10.0,3.4,4.0,7.4,8.1,5.7,2.3
10.25,4.0,5.0,12.5,9.6,7.8,4.0
10.5,4.6,5.9,16.3,11.4,9.5,5.4
10.75,5.1,6.7,21.1,12.5,11.4,7.3
11.0,5.6,7.5,26.8,13.6,13.4,9.6
11.25,6.0,12.3,37.8,18.8,18.7,13.7
11.5,6.5,16.8,46.2,23.9,23.4,16.8
11.75,8.8,20.6,54.2,28.3,28.0,19.3
12.0,10.6,24.5,64.8,32.1,33.0,23.0
12.25,12.2,39.1,70.4,35.6,39.3,23.9
12.5,14.2,53.5,70.4,48.2,46.6,23.6
12.75,20.0,63.8,85.9,56.6,56.6,27.4
13.0,25.2,74.9,102.4,68.2,67.7,32.0
13.25,30.7,89.0,113.0,86.1,79.7,34.8
13.5,34.0,103.5,122.0,103.9,90.8,38.9
13.75,45.5,115.4,138.6,115.3,103.7,40.3
14.0,57.0,131.9,149.8,129.3,117.0,41.0
14.25,66.1,144.9,173.8,135.6,130.1,45.7
14.5,74.8,165.8,180.1,149.1,142.4,46.8
14.75,86.9,173.9,195.7,167.5,156.0,47.6
15.0,101.3,190.0,202.5,179.0,168.2,45.6
15.25,115.0,191.5,225.0,185.6,179.3,46.2
15.5,125.6,209.4,239.1,199.7,193.5,48.3
15.75,135.7,216.9,250.3,207.2,202.5,48.2
16.0,147.7,231.9,259.2,222.6,215.3,47.7
16.25,160.8,237.9,278.9,238.3,229.0,49.3
16.5,170.3,253.1,284.6,246.7,238.7,48.5
16.75,183.5,260.2,293.5,252.0,247.3,46.2
17.0,196.5,276.7,310.1,269.3,263.2,47.8
17.25,212.5,283.2,315.5,270.8,270.5,43.0
17.5,220.7,292.8,319.6,277.0,277.6,41.8
17.75,218.6,301.5,345.4,289.2,288.7,52.6
18.0,234.2,305.4,339.9,302.3,295.4,44.2
18.25,239.0,323.8,365.5,300.2,307.1,52.8
18.5,249.6,327.7,358.1,308.8,311.0,45.7
18.75,261.4,337.4,366.0,322.6,321.9,44.1
19.0,258.8,345.3,383.3,332.5,330.0,52.1
19.25,268.8,344.3,392.0,335.9,335.2,50.8
19.5,273.4,360.5,401.7,342.7,344.5,53.5
19.75,276.4,355.2,405.1,346.9,345.9,53.0
20.0,292.1,369.8,407.8,347.7,354.4,48.3
20.25,290.0,388.5,438.9,349.2,366.6,63.0
20.5,294.0,392.6,432.3,352.6,367.9,59.0
20.75,297.7,390.7,437.4,360.4,371.5,58.5
21.0,302.9,387.5,439.4,367.1,374.2,56.5
21.25,315.9,400.7,455.4,369.0,385.2,58.4
21.5,317.2,404.8,442.4,377.8,385.5,52.7
21.75,320.9,405.6,476.7,385.4,397.2,64.2
22.0,332.2,410.5,464.0,383.0,397.4,55.0
22.25,331.8,417.8,457.3,407.2,403.5,52.5
22.5,337.5,420.0,474.6,391.8,406.0,57.1
22.75,345.2,414.7,476.5,406.6,410.8,53.7
23.0,332.9,426.5,471.8,410.8,410.5,57.8
23.25,348.5,425.8,484.6,414.9,418.5,55.8
23.5,357.9,422.4,476.9,429.0,421.6,48.9
23.75,362.4,444.3,478.3,425.2,427.5,48.7
24.0,365.1,426.7,483.7,417.0,423.1,48.6
24.25,367.0,444.6,481.4,410.8,425.9,48.7
24.5,377.4,440.4,472.1,416.6,426.6,39.9
24.75,381.9,436.8,491.3,423.8,433.5,45.1
25.0,382.4,449.9,478.1,423.8,433.6,40.7
25.25,395.9,448.2,484.5,423.1,437.9,37.7
25.5,396.5,452.7,492.7,425.2,441.8,41.0
25.75,388.4,453.7,494.5,432.8,442.4,44.2
26.0,395.7,459.7,506.7,423.4,446.4,48.0
26.25,399.4,458.6,518.5,437.8,453.6,49.8
26.5,404.3,479.3,492.5,433.1,452.3,40.9
26.75,392.7,463.0,484.1,425.7,441.4,40.5
27.0,402.2,469.6,503.9,443.9,454.9,42.9
27.25,416.2,467.2,501.0,438.0,455.6,36.8
27.5,411.4,465.7,474.5,431.4,445.8,29.5
27.75,420.0,475.0,493.5,426.0,453.6,36.2
28.0,428.4,480.7,492.7,450.0,463.0,29.2
28.25,421.8,470.8,501.4,443.1,459.3,34.5
28.5,413.9,472.0,509.9,428.9,456.2,43.5
28.75,419.9,463.3,494.5,445.0,455.7,31.4
29.0,424.7,468.9,499.9,452.1,461.4,31.5
29.25,432.9,477.7,482.4,446.2,459.8,24.1
29.5,420.6,479.6,507.3,438.0,461.4,39.4
29.75,419.9,473.4,493.4,443.5,457.6,32.4
30.0,429.8,473.5,483.6,443.6,457.6,25.1
30.25,431.7,477.0,494.3,455.3,464.6,27.1
30.5,429.3,470.7,501.6,455.4,464.3,30.2
30.75,434.0,475.1,481.5,457.9,462.1,21.3
31.0,429.5,474.7,494.8,452.1,462.8,28.2
31.25,427.4,471.3,488.5,458.9,461.5,25.8
31.5,448.4,450.9,481.2,451.1,457.9,15.6
31.75,420.5,471.5,491.0,453.7,459.2,29.9
32.0,438.3,460.2,470.7,451.6,455.2,13.7
32.25,432.6,476.5,480.2,463.5,463.2,21.6
32.5,442.8,467.0,503.6,468.5,470.5,25.0
32.75,436.3,457.7,488.6,463.4,461.5,21.5
33.0,437.5,477.5,488.7,462.1,466.4,22.2
33.25,437.0,463.0,501.9,467.2,467.3,26.6
33.5,433.4,473.5,495.7,464.5,466.8,25.8
33.75,448.9,464.1,495.6,467.9,469.1,19.5
34.0,437.0,468.2,513.4,468.5,471.8,31.4
34.25,440.1,463.2,492.1,468.1,465.9,21.3
34.5,441.2,460.3,505.9,472.7,470.0,27.2
34.75,435.0,465.2,497.7,480.5,469.6,26.6
35.0,444.4,454.7,504.3,464.7,467.0,26.2
35.25,437.3,454.4,496.7,472.7,465.3,25.5
35.5,453.1,465.7,488.2,484.0,472.8,16.4
35.75,439.8,457.3,517.8,480.5,473.8,33.7
36.0,458.2,471.8,516.6,476.0,480.6,25.2
36.25,445.5,454.5,509.1,481.1,472.5,28.7
36.5,448.0,454.3,510.0,496.4,477.2,30.7
36.75,451.6,460.9,503.6,495.3,477.8,25.5
37.0,465.1,471.0,512.1,500.3,487.1,22.7
37.25,441.6,453.0,513.2,465.7,468.4,31.5
37.5,445.6,464.1,528.3,486.1,481.0,35.6
37.75,461.3,460.4,511.8,477.2,477.7,24.0
38.0,446.7,458.9,520.3,474.6,475.1,32.2
38.25,452.1,467.4,525.2,499.3,486.0,32.7
38.5,458.7,447.3,516.1,485.2,476.8,30.6
38.75,448.0,459.0,512.8,487.7,476.9,29.2
39.0,438.6,455.4,530.4,496.8,480.3,41.4
39.25,459.9,461.0,519.4,497.7,484.5,29.2
39.5,446.3,448.4,522.2,490.1,476.7,36.4
39.75,450.0,456.2,525.2,498.9,482.6,35.8
40.0,458.2,454.3,509.1,510.1,482.9,30.8
40.25,448.7,450.7,523.1,501.4,480.9,37.2
40.5,458.9,455.6,530.4,506.9,488.0,36.8
40.75,447.7,463.1,535.2,497.2,485.8,38.9
41.0,454.0,467.9,547.7,501.4,492.8,41.7
41.25,440.5,464.4,534.7,508.8,487.1,42.5
41.5,451.0,467.7,554.1,513.1,496.5,46.5
41.75,458.0,469.7,542.2,489.7,489.9,37.2
42.0,449.3,471.1,548.6,509.0,494.5,43.7
42.25,462.8,482.4,539.5,517.6,500.6,34.4
42.5,467.4,482.8,531.5,511.4,498.3,28.7
42.75,455.8,468.4,573.8,506.6,501.2,53.0
43.0,457.1,477.8,546.5,514.6,499.0,39.6
43.25,463.5,465.8,549.9,491.3,492.6,40.2
43.5,458.4,489.0,557.0,509.0,503.3,41.4
43.75,453.0,470.3,549.8,504.6,494.4,42.7
44.0,459.1,501.5,553.2,518.4,508.0,39.1
44.25,444.0,487.1,568.9,508.3,502.1,51.9
44.5,463.9,486.5,544.6,521.0,504.0,35.8
44.75,471.3,468.8,562.5,532.4,508.7,46.4
45.0,456.5,497.9,549.4,505.5,502.3,38.1
45.25,456.5,481.1,546.8,513.2,499.4,39.3
45.5,456.5,494.9,551.8,550.3,513.4,46.3
45.75,449.7,481.9,562.7,524.3,504.7,49.3
46.0,456.9,497.2,569.0,519.1,510.5,46.7
46.25,455.0,498.6,580.4,531.6,516.4,53.0
46.5,468.6,495.0,551.6,528.4,510.9,36.5
46.75,467.3,485.1,564.7,527.7,511.2,43.7
47.0,466.4,498.2,555.0,559.6,519.8,45.3
47.25,473.6,512.8,557.3,551.8,523.9,38.9
47.5,468.1,491.2,570.8,536.5,516.6,46.0
47.75,465.4,503.4,560.4,532.3,515.4,40.6
48.0,474.7,503.0,558.3,558.2,523.6,41.7
48.25,476.6,501.7,583.7,550.8,528.2,48.2
48.5,468.5,521.1,585.3,534.3,527.3,48.0
48.75,481.9,502.2,544.6,538.0,516.7,29.7
49.0,482.1,514.8,552.4,544.4,523.4,32.0
49.25,485.2,506.3,579.7,553.5,531.1,43.1
49.5,478.7,497.9,575.2,558.9,527.7,46.6
49.75,457.3,516.4,561.5,556.0,522.8,48.1
50.0,483.3,499.7,560.2,544.4,521.9,36.3
50.25,483.1,507.8,563.2,547.6,525.4,36.6
50.5,475.4,503.1,587.0,552.2,529.4,49.8
50.75,486.7,509.9,567.7,555.5,529.9,38.1
51.0,486.1,518.9,551.4,538.7,523.8,28.5
51.25,483.7,506.5,563.8,566.3,530.1,41.4
51.5,471.9,514.1,575.1,555.0,529.0,45.8
51.75,480.7,510.1,565.4,560.5,529.2,40.8
52.0,468.3,524.3,567.4,562.8,530.7,45.9
52.25,464.4,520.0,562.7,553.4,525.1,44.5
52.5,479.0,519.9,565.7,556.2,530.2,39.4
52.75,474.5,527.6,576.8,572.4,537.8,47.7
53.0,468.7,510.5,577.0,549.8,526.5,47.2
53.25,467.0,512.1,578.9,557.4,528.8,49.7
53.5,484.8,537.7,578.7,549.3,537.6,39.2
53.75,482.5,523.8,575.8,567.0,537.3,43.0
54.0,474.0,522.5,581.3,550.1,532.0,45.5
54.25,473.4,521.2,585.5,554.9,533.8,48.0
54.5,476.7,521.4,571.8,566.8,534.2,44.5
54.75,471.7,524.7,559.2,559.2,528.7,41.3
55.0,480.8,533.8,579.4,560.0,538.5,42.8
55.25,481.2,545.3,555.1,582.7,541.1,42.9
55.5,484.6,524.6,580.8,541.7,532.9,39.9
55.75,463.7,521.9,563.9,560.4,527.5,46.6
56.0,468.1,537.1,557.7,562.4,531.3,43.6
56.25,482.0,521.6,561.5,557.3,530.6,37.0
56.5,473.3,528.4,580.6,572.1,538.6,49.2
56.75,483.8,532.4,572.2,563.4,538.0,39.9
57.0,477.2,531.3,573.3,558.7,535.1,42.4
57.25,479.4,528.3,565.0,571.6,536.1,42.3
57.5,469.2,561.5,566.3,563.3,540.1,47.3
57.75,474.0,533.1,574.5,554.8,534.1,43.5
58.0,472.9,549.1,551.2,545.2,529.6,37.9
58.25,492.6,553.6,581.2,560.2,546.9,38.1
58.5,475.5,548.5,554.6,563.9,535.6,40.6
58.75,473.8,540.2,571.2,550.1,533.8,42.1
59.0,474.5,551.2,567.3,574.6,541.9,46.0
59.25,469.0,530.9,569.6,555.9,531.3,44.5
59.5,487.7,566.2,538.9,555.6,537.1,34.8
59.75,460.4,564.7,557.5,533.6,529.1,47.7
60.0,460.9,560.3,574.2,567.6,540.8,53.5
60.25,477.6,556.8,548.5,564.7,536.9,40.1
60.5,469.7,554.1,549.4,535.7,527.2,39.1
60.75,477.6,570.2,581.8,550.7,545.1,46.8
61.0,476.2,567.8,564.6,557.8,541.6,43.8
61.25,470.6,576.7,562.6,550.8,540.2,47.6
61.5,480.6,589.6,572.6,550.2,548.3,47.9
61.75,476.8,566.2,566.1,577.6,546.7,46.9
62.0,473.1,578.4,579.2,541.5,543.0,49.8
62.25,475.5,575.0,562.7,558.7,543.0,45.5
62.5,475.8,572.5,565.7,555.9,542.5,45.0
62.75,484.4,592.2,558.9,571.8,551.8,47.0
63.0,463.5,592.5,552.2,563.5,543.0,55.6
63.25,492.1,576.9,566.4,560.2,548.9,38.5
63.5,470.8,592.3,574.9,545.2,545.8,53.7
63.75,486.6,587.4,556.2,566.8,549.2,43.7
64.0,471.6,578.4,541.8,549.8,535.4,45.3
64.25,473.8,581.5,568.0,583.2,551.6,52.4
64.5,479.9,595.9,560.1,554.2,547.5,48.7
64.75,468.2,575.5,538.0,562.0,535.9,47.7
65.0,475.3,589.8,550.5,566.4,545.5,49.5
65.25,503.5,578.5,549.2,575.5,551.7,34.7
65.5,468.7,575.9,557.9,579.4,545.5,52.0
65.75,474.1,567.2,537.0,565.3,535.9,43.4
66.0,502.3,598.8,549.9,569.4,555.1,40.5
66.25,483.9,583.9,544.1,554.9,541.7,42.0
66.5,480.8,588.4,541.6,562.4,543.3,45.9
66.75,489.5,586.3,543.4,574.5,548.4,43.2
67.0,474.5,585.0,554.4,554.8,542.2,47.3
67.25,500.8,589.6,541.2,555.8,546.9,36.8
67.5,480.0,598.9,531.3,556.5,541.7,49.7
67.75,491.9,589.0,533.9,558.8,543.4,41.0
68.0,470.1,587.4,525.7,563.2,536.6,51.1
68.25,485.4,587.0,518.9,543.4,533.7,42.8
68.5,487.8,584.1,522.0,564.3,539.5,43.1
68.75,486.8,589.5,546.9,550.8,543.5,42.4
69.0,485.7,601.2,515.6,551.1,538.4,49.7
69.25,483.9,591.1,510.1,553.5,534.7,47.3
69.5,488.4,585.4,525.9,538.9,534.6,40.0
69.75,489.9,593.4,527.5,534.0,536.2,42.8
70.0,485.4,570.5,514.6,553.6,531.0,38.4
70.25,486.8,580.3,508.3,541.6,529.2,40.8
70.5,481.3,582.3,524.3,554.6,535.6,43.3
70.75,492.4,577.0,520.5,552.6,535.6,37.0
71.0,497.9,584.0,515.3,566.4,540.9,40.9
71.25,489.2,572.7,526.5,570.2,539.7,39.8
71.5,472.1,579.7,533.2,560.3,536.3,46.9
71.75,471.1,587.7,515.4,548.2,530.6,49.5
72.0,489.5,571.9,500.3,549.5,527.8,39.3
72.25,493.1,555.4,515.6,554.1,529.6,30.5
72.5,498.6,585.7,518.5,556.2,539.7,38.8
72.75,491.7,566.2,520.6,556.3,533.7,34.1
73.0,486.3,567.5,525.6,576.4,539.0,41.5
73.25,488.1,568.5,512.5,586.7,538.9,46.3
73.5,491.1,562.0,546.2,568.3,541.9,35.1
73.75,471.6,580.9,516.8,577.3,536.7,52.4
74.0,486.8,576.3,504.1,569.3,534.1,45.3
74.25,492.5,573.1,519.4,565.2,537.5,38.2
74.5,476.5,551.8,510.2,564.4,525.7,40.2
74.75,503.6,571.0,533.8,569.2,544.4,32.2
75.0,497.6,572.2,497.3,563.9,532.7,40.9
75.25,501.1,568.0,512.1,583.9,541.3,40.8
75.5,475.2,565.2,513.7,555.9,527.5,41.5
75.75,477.7,572.8,510.7,585.5,536.7,51.1
76.0,477.0,567.8,526.6,605.8,544.3,55.3
76.25,500.2,571.7,513.1,579.6,541.1,40.3
76.5,480.8,564.3,513.8,586.8,536.4,48.0
76.75,488.5,577.2,511.8,572.3,537.4,44.2
77.0,493.5,574.4,548.7,566.8,545.9,36.5
77.25,484.1,560.0,502.6,586.2,533.2,47.9
77.5,486.8,564.0,513.0,572.4,534.0,41.0
77.75,495.7,557.9,525.4,570.4,537.3,33.6
78.0,490.2,570.5,510.4,587.0,539.5,46.5
78.25,502.6,572.2,507.7,576.9,539.9,40.2
78.5,484.6,576.3,519.4,567.4,536.9,42.9
78.75,492.9,565.4,526.1,577.8,540.5,38.6
79.0,499.8,566.3,521.8,588.5,544.1,40.5
79.25,517.8,544.7,515.1,564.7,535.6,23.6
79.5,495.0,560.8,541.6,571.6,542.3,33.9
79.75,496.0,558.2,514.4,568.2,534.2,34.6
80.0,502.2,550.9,537.2,574.9,541.3,30.4
80.25,500.4,555.2,544.9,581.5,545.5,33.8
80.5,505.5,553.3,527.6,590.0,544.1,36.3
80.75,497.5,564.8,535.1,609.0,551.6,47.2
81.0,516.6,548.2,517.0,585.3,541.8,32.6
81.25,503.3,543.9,540.7,589.5,544.4,35.3
81.5,486.5,541.5,548.9,608.1,546.2,49.7
81.75,492.0,515.9,543.5,606.9,539.6,49.6
82.0,493.9,541.8,553.2,614.5,550.9,49.6
82.25,493.0,532.8,552.6,595.6,543.5,42.7
82.5,501.3,519.0,550.8,619.6,547.7,52.1
82.75,495.4,542.2,541.4,585.8,541.2,36.9
83.0,495.4,504.2,553.1,633.5,546.6,63.3
83.25,485.3,502.7,557.9,594.1,535.0,50.1
83.5,487.2,526.5,564.4,631.8,552.5,61.5
83.75,489.4,513.5,550.2,610.2,540.8,52.6
84.0,492.4,507.0,566.7,651.9,554.5,72.5
84.25,510.7,515.3,570.8,616.6,553.4,50.2
84.5,501.9,503.5,575.7,627.4,552.1,60.8
84.75,494.3,489.6,568.8,615.5,542.0,60.9
85.0,479.3,522.2,547.1,621.2,542.4,59.5
85.25,488.6,503.8,575.4,641.0,552.2,70.3
85.5,491.3,503.3,570.9,616.8,545.6,59.0
85.75,481.7,516.3,554.5,638.3,547.7,67.3
86.0,488.8,497.2,574.9,648.7,552.4,75.0
86.25,505.6,503.5,566.0,635.8,552.8,62.5
86.5,500.6,507.6,580.1,651.3,559.9,70.8
86.75,492.6,487.6,592.3,641.2,553.4,75.8
87.0,511.1,493.8,568.8,629.6,550.8,61.5
87.25,485.4,486.2,583.9,654.2,552.4,82.1
87.5,501.3,487.2,584.5,654.3,556.8,77.9
87.75,500.1,482.4,588.5,644.3,553.8,76.1
88.0,499.3,474.2,576.7,617.2,541.8,66.5
88.25,501.0,472.7,611.1,661.5,561.6,89.5
88.5,498.0,485.0,582.3,658.4,555.9,80.8
88.75,486.7,483.1,593.8,617.1,545.2,70.3
89.0,499.7,480.6,597.2,629.0,551.6,72.6
89.25,506.4,469.8,589.0,671.2,559.1,89.8
89.5,499.9,476.8,575.8,645.8,549.6,76.8
89.75,488.3,471.6,586.4,631.5,544.5,77.0
90.0,501.2,465.9,602.8,627.4,549.3,78.0
90.25,500.6,481.0,599.9,661.5,560.7,85.0
90.5,505.2,471.9,600.1,648.1,556.3,81.8
90.75,495.1,472.5,611.5,664.7,561.0,92.2
91.0,491.1,466.6,601.6,679.3,559.6,99.1
91.25,488.9,472.6,603.8,681.9,561.8,99.1
91.5,495.4,462.7,588.2,682.6,557.2,99.0
91.75,498.7,468.6,563.7,671.9,550.7,90.0
92.0,505.7,471.1,596.5,668.4,560.4,89.3
92.25,505.7,480.7,586.4,690.4,565.8,94.5
92.5,495.2,461.9,587.5,693.5,559.5,103.9
92.75,488.8,458.8,601.5,665.8,553.7,96.7
93.0,494.8,475.1,588.0,691.5,562.3,99.2
93.25,505.1,471.1,614.9,714.9,576.5,110.8
93.5,508.0,469.2,615.1,685.1,569.4,98.8
93.75,485.3,470.5,588.7,689.9,558.6,102.1
94.0,493.7,479.4,590.3,703.4,566.7,103.6
94.25,491.9,476.2,600.6,762.3,582.8,131.9
94.5,495.1,486.1,600.7,684.7,566.7,94.4
94.75,486.8,477.8,619.7,732.6,579.2,121.1
95.0,511.1,481.1,595.1,700.9,572.0,98.5
95.25,529.7,469.7,583.1,714.6,574.3,104.4
95.5,501.8,463.4,592.7,696.4,563.6,103.8
95.75,504.5,470.2,585.5,713.2,568.3,108.0
96.0,512.8,474.7,583.6,706.6,569.4,101.9
96.25,498.5,464.8,628.7,736.4,582.1,124.8
96.5,518.6,473.7,595.3,741.1,582.2,117.2
96.75,498.3,459.8,593.8,729.0,570.2,119.9
97.0,496.6,474.5,627.1,736.4,583.6,122.1
97.25,511.5,479.4,615.9,708.0,578.7,104.0
97.5,508.2,472.9,616.7,719.9,579.4,111.9
97.75,505.1,471.2,616.2,727.1,579.9,116.1
98.0,498.4,472.8,627.7,729.0,582.0,119.2
98.25,512.2,481.1,630.0,716.3,584.9,108.6
98.5,510.2,485.3,630.9,736.4,590.7,116.1
98.75,499.3,489.0,608.0,721.5,579.4,108.9
99.0,494.6,489.4,644.6,740.4,592.2,122.2
99.25,510.4,472.5,609.7,726.0,579.7,113.4
99.5,514.2,469.6,643.9,745.3,593.2,125.5
99.75,498.1,475.3,633.9,724.1,582.9,117.3
100.0,505.5,463.0,619.9,734.9,580.9,122.2
100.25,505.4,474.4,630.1,750.4,590.1,126.3
100.5,497.0,478.2,627.5,718.9,580.4,113.8
100.75,506.5,469.5,642.9,745.2,591.0,127.0
101.0,503.0,462.2,653.1,737.4,588.9,128.6
101.25,489.8,455.3,643.3,717.8,576.6,124.7
101.5,513.5,472.8,638.4,747.1,592.9,124.6
101.75,521.5,485.2,644.8,754.9,601.6,122.9
102.0,498.8,472.1,651.4,749.5,592.9,130.9
102.25,505.6,478.4,626.7,729.3,585.0,115.8
102.5,490.6,482.1,627.8,758.6,589.8,130.9
102.75,496.1,463.0,634.8,781.9,593.9,145.7
103.0,494.1,463.4,616.4,763.6,584.4,136.5
103.25,488.3,463.0,620.0,744.2,578.9,129.9
103.5,510.6,471.3,639.6,747.7,592.3,126.1
103.75,492.1,471.2,631.9,728.4,580.9,121.5
104.0,502.8,465.6,640.5,761.6,592.7,135.5
104.25,498.2,451.6,650.5,746.3,586.6,136.2
104.5,493.8,464.9,654.0,747.7,590.1,134.0
104.75,495.7,471.4,642.9,768.2,594.6,138.4
105.0,485.8,453.1,648.4,756.4,585.9,142.2
105.25,499.5,464.3,637.0,739.9,585.2,127.2
105.5,497.5,464.3,653.3,744.0,589.8,131.8
105.75,495.5,478.8,644.6,736.3,588.8,123.4
106.0,500.6,476.1,645.4,784.3,601.6,142.9
106.25,511.6,486.8,659.2,746.7,601.1,123.3
106.5,505.6,471.5,674.2,762.2,603.4,138.1
106.75,504.5,494.1,654.5,775.5,607.2,134.0
107.0,498.0,481.1,649.0,752.8,595.2,129.4
107.25,516.6,478.6,670.8,736.8,600.7,123.0
107.5,500.4,498.3,655.6,773.1,606.9,133.1
107.75,503.0,474.4,659.1,782.1,604.7,143.4
108.0,500.6,481.5,667.1,743.7,598.2,127.9
108.25,490.2,492.9,662.7,751.9,599.4,129.8
108.5,497.5,474.1,666.2,735.6,593.3,127.7
108.75,496.6,503.9,663.3,716.4,595.0,111.6
109.0,501.3,486.3,651.0,746.8,596.3,124.9
109.25,501.6,502.7,652.6,726.4,595.8,112.3
109.5,502.4,506.8,671.8,757.0,609.5,126.0
109.75,492.6,503.3,655.2,718.1,592.3,112.0
110.0,502.6,503.8,650.4,721.8,594.7,109.5
110.25,504.3,501.5,647.8,720.7,593.6,108.9
110.5,492.3,505.6,646.2,725.6,592.4,112.8
110.75,514.2,500.0,635.6,702.3,588.0,97.5
111.0,488.0,514.7,656.7,696.3,588.9,103.0
111.25,511.4,507.9,638.5,713.2,592.8,100.7
111.5,487.5,533.2,645.3,705.8,593.0,100.3
111.75,498.7,504.4,636.1,706.6,586.4,102.2
112.0,513.4,535.4,640.6,694.1,595.9,85.9
112.25,492.0,539.3,632.6,702.1,591.5,94.1
112.5,488.4,540.0,623.6,699.8,587.9,93.1
112.75,516.2,550.5,630.9,685.6,595.8,76.7
113.0,491.3,562.8,626.6,690.6,592.8,85.5
113.25,503.4,560.3,622.3,690.7,594.2,80.6
113.5,495.4,562.8,607.0,669.4,583.7,73.3
113.75,505.4,566.3,630.5,668.5,592.7,71.9
114.0,513.9,580.4,637.9,672.3,601.1,69.4
114.25,502.2,602.4,601.3,672.9,594.7,70.2
114.5,499.1,616.7,591.0,649.1,589.0,64.5
114.75,508.2,599.4,596.7,669.3,593.4,66.0
115.0,501.3,603.4,609.3,652.5,591.6,64.1
115.25,504.5,611.4,591.0,657.9,591.2,64.2
115.5,497.7,631.2,574.1,631.1,583.5,63.2
115.75,500.1,638.2,595.6,616.8,587.7,60.9
116.0,500.5,651.9,605.8,647.1,601.3,70.3
116.25,494.5,654.3,596.7,641.0,596.6,72.4
116.5,502.1,649.8,584.5,617.2,588.4,63.4
116.75,498.9,658.0,593.3,613.9,591.0,67.1
117.0,505.5,676.9,583.1,608.6,593.5,70.8
117.25,477.8,685.2,578.5,615.4,589.2,86.5
117.5,498.2,690.0,595.6,613.1,599.2,78.9
117.75,497.6,694.4,562.9,591.5,586.6,81.9
118.0,501.5,697.1,543.2,572.3,578.5,84.2
118.25,482.6,701.3,541.1,564.9,572.5,92.6
118.5,487.0,709.2,556.9,580.2,583.3,92.8
118.75,487.7,718.2,553.6,554.1,578.4,98.3
119.0,494.8,727.3,524.3,553.6,575.0,104.3
119.25,497.0,747.6,535.2,550.6,582.6,112.3
119.5,494.6,706.8,525.3,541.3,567.0,95.2
119.75,480.3,739.4,532.3,532.4,571.1,114.8
120.0,486.1,732.9,512.3,549.6,570.2,111.5
120.25,487.1,721.3,516.5,529.0,563.5,106.6
120.5,486.3,754.7,495.6,521.6,564.5,127.7
120.75,497.3,748.0,506.1,518.8,567.5,120.6
121.0,485.6,739.9,498.9,522.5,561.7,119.8
121.25,506.1,752.3,490.5,521.4,567.6,123.8
121.5,477.4,761.0,482.5,504.3,556.3,137.0
121.75,492.7,762.7,483.8,498.5,559.4,135.7
122.0,487.2,745.6,474.2,501.1,552.0,129.5
122.25,483.2,743.2,481.9,501.2,552.4,127.5
122.5,480.0,748.7,467.3,494.9,547.7,134.4
122.75,469.0,751.2,471.4,493.1,546.2,137.1
123.0,472.9,730.9,478.9,487.7,542.6,125.7
123.25,476.4,759.4,463.0,491.7,547.6,141.6
123.5,481.0,732.1,457.6,488.0,539.7,128.9
123.75,490.5,718.5,455.2,476.2,535.1,123.1
124.0,464.8,711.7,456.0,487.9,530.1,121.8
124.25,481.2,695.4,455.1,469.8,525.4,113.9
124.5,466.3,692.3,454.3,471.2,521.0,114.4
124.75,471.4,700.4,461.8,466.1,524.9,117.0
125.0,477.5,694.5,447.3,463.6,520.7,116.5
125.25,469.7,693.0,445.3,461.6,517.4,117.5
125.5,469.9,689.2,453.3,453.5,516.5,115.4
125.75,486.5,670.1,443.9,452.1,513.1,106.3
126.0,474.1,648.4,442.9,461.0,506.6,95.4
126.25,477.1,648.8,437.2,446.7,502.5,99.1
126.5,467.3,644.2,437.8,448.6,499.5,97.3
126.75,465.6,643.1,435.6,440.9,496.3,98.7
127.0,455.4,651.2,433.1,437.7,494.3,105.0
127.25,481.7,617.9,444.9,438.1,495.7,83.7
127.5,459.9,613.3,437.8,431.6,485.7,86.0
127.75,465.7,610.4,434.3,426.7,484.3,85.7
128.0,462.6,613.3,441.2,428.3,486.3,85.8
128.25,467.7,583.0,438.3,423.1,478.0,72.4
128.5,462.4,580.1,435.6,425.3,475.9,71.2
128.75,466.5,581.3,435.9,423.6,476.8,71.9
129.0,465.2,567.8,443.5,417.0,473.4,66.0
129.25,479.8,560.6,430.0,414.2,471.2,65.9
129.5,472.8,562.1,438.6,411.8,471.3,65.5
129.75,469.1,554.2,436.0,409.1,467.1,63.0
130.0,479.5,549.6,433.6,417.3,470.0,59.3
130.25,458.9,534.9,423.9,410.0,456.9,55.9
130.5,464.8,524.6,427.1,407.4,456.0,51.6
130.75,465.6,525.5,415.2,404.0,452.6,55.5
131.0,458.6,519.5,418.2,404.3,450.2,51.7
131.25,465.1,509.8,420.9,408.2,451.0,46.2
131.5,453.2,500.4,416.7,398.0,442.1,45.2
131.75,464.5,493.0,410.9,392.6,440.3,46.6
132.0,484.1,491.9,410.0,390.4,444.1,51.4
132.25,463.6,470.0,400.1,391.1,431.2,41.3
132.5,465.9,475.4,388.6,379.8,427.4,50.2
132.75,467.8,465.7,389.9,380.2,425.9,47.4
133.0,472.0,454.0,391.3,373.3,422.7,47.7
133.25,456.2,454.0,381.9,368.3,415.1,46.5
133.5,459.0,457.8,366.8,366.0,412.4,53.1
133.75,460.7,455.2,365.6,361.9,410.9,54.5
134.0,465.2,454.9,358.0,354.3,408.1,60.1
134.25,471.6,449.3,356.2,348.1,406.3,63.3
134.5,459.1,444.9,345.5,344.6,398.5,62.0
134.75,471.1,430.2,333.2,338.6,393.3,68.3
135.0,492.5,435.1,326.6,334.3,397.1,80.5
135.25,469.5,427.1,314.7,326.4,384.4,75.9
135.5,451.4,415.9,303.7,316.8,372.0,72.9
135.75,474.5,417.2,297.0,307.9,374.2,86.1
136.0,469.1,412.8,291.4,301.5,368.7,86.6
136.25,464.2,410.9,278.6,295.4,362.3,89.8
136.5,476.5,408.3,274.0,288.6,361.8,97.3
136.75,466.4,402.3,263.1,275.6,351.9,98.9
137.0,451.0,401.0,253.5,268.4,343.5,97.6
137.25,468.2,398.2,,255.6,374.0,108.3
137.5,456.0,386.8,,247.9,363.6,105.9
137.75,465.1,390.3,,236.0,363.8,116.8
138.0,471.6,388.0,,229.2,362.9,123.1
138.25,477.2,389.1,,218.5,361.6,131.5
138.5,452.1,384.2,,210.8,349.0,124.4
138.75,457.0,382.4,,200.2,346.5,132.1
139.0,460.1,376.0,,194.9,343.7,135.5
139.25,475.8,377.5,,189.1,347.5,145.7
139.5,462.5,384.1,,180.4,342.3,145.6
139.75,469.4,375.7,,171.3,338.8,152.5
140.0,473.3,371.6,,165.0,336.6,157.1
140.25,479.3,370.4,,162.3,337.3,161.0
140.5,473.9,377.2,,154.9,335.4,163.6
140.75,469.1,370.9,,151.5,330.5,162.6
141.0,479.2,373.4,,143.7,332.1,171.5
141.25,478.3,371.6,,140.7,330.2,172.5
141.5,477.4,364.5,,135.6,325.8,174.1
141.75,485.5,366.0,,129.7,327.1,181.1
142.0,466.7,371.3,,126.7,321.6,175.4
142.25,481.5,371.8,,123.4,325.6,183.5
142.5,472.6,369.2,,118.8,320.2,181.9
142.75,476.6,366.1,,116.0,319.6,184.8
143.0,464.9,364.5,,111.7,313.7,182.0
143.25,466.5,370.3,,108.5,315.1,185.3
143.5,486.3,364.2,,104.2,318.2,195.1
143.75,473.6,364.8,,102.4,313.6,190.8
144.0,471.0,365.9,,100.5,312.5,190.9
144.25,485.3,369.8,,97.2,317.4,199.3
144.5,479.4,365.2,,93.5,312.7,198.2
144.75,480.9,363.1,,91.3,311.8,199.8
145.0,487.3,358.5,,88.4,311.4,203.6
145.25,485.5,357.3,,85.5,309.4,204.3
145.5,461.7,353.1,,83.2,299.4,194.9
145.75,492.1,359.3,,80.0,310.4,210.4
146.0,480.4,354.3,,77.5,304.1,206.1
146.25,490.6,345.6,,75.2,303.8,210.8
146.5,464.1,348.6,,73.3,295.3,200.7
146.75,470.5,341.2,,71.3,294.3,203.6
147.0,479.4,325.1,,67.8,290.8,207.9
147.25,497.1,327.1,,66.0,296.7,217.1
147.5,483.6,320.4,,63.9,289.3,211.5
147.75,481.9,310.4,,62.7,285.0,210.8
148.0,485.2,304.5,,60.7,283.5,213.0
148.25,488.2,298.1,,58.2,281.5,215.5
148.5,493.8,286.9,,58.2,279.6,217.9
148.75,485.4,283.2,,55.4,274.6,215.1
149.0,475.4,278.5,,54.4,269.4,210.7
149.25,486.0,262.7,,52.1,266.9,217.0
149.5,478.0,258.9,,50.8,262.6,213.6
149.75,491.8,245.9,,49.6,262.4,221.6
150.0,482.1,235.2,,48.3,255.2,217.6
150.25,487.3,227.4,,47.0,253.9,221.3
150.5,496.4,222.9,,45.6,255.0,227.1
150.75,476.1,213.2,,44.8,244.7,217.4
151.0,485.1,205.6,,43.1,244.6,223.6
151.25,505.7,201.1,,41.6,249.5,235.8
151.5,507.7,190.4,,41.3,246.5,238.2
151.75,504.3,183.7,,39.0,242.3,238.2
152.0,491.4,176.7,,38.9,235.6,231.9
152.25,493.6,174.5,,37.3,235.1,234.1
152.5,487.1,168.9,,36.0,230.6,231.8
152.75,494.3,164.3,,35.9,231.5,236.5
153.0,503.5,157.8,,34.5,231.9,243.1
153.25,496.3,155.8,,33.7,228.6,239.8
153.5,493.6,149.4,,32.6,225.2,239.7
153.75,510.9,145.8,,31.9,229.5,250.2
154.0,496.5,140.9,,31.5,223.0,243.1
154.25,500.1,135.8,,30.4,222.1,246.5
154.5,486.6,131.2,,,308.9,251.3
154.75,507.0,127.5,,,317.3,268.3
155.0,502.9,122.9,,,312.9,268.7
155.25,503.3,118.9,,,311.1,271.8
155.5,503.1,116.0,,,309.5,273.8
155.75,503.6,111.1,,,307.4,277.5
156.0,507.4,107.6,,,307.5,282.7
156.25,511.2,102.3,,,306.7,289.2
156.5,513.7,98.7,,,306.2,293.5
156.75,498.4,95.1,,,296.8,285.2
157.0,511.4,92.0,,,301.7,296.5
157.25,502.9,87.9,,,295.4,293.4
157.5,514.3,85.4,,,299.9,303.3
157.75,506.7,82.4,,,294.5,300.0
158.0,513.2,79.5,,,296.3,306.7
158.25,518.9,77.9,,,298.4,311.9
158.5,515.4,75.1,,,295.3,311.3
158.75,519.1,,,,519.1,
159.0,514.5,,,,514.5,
159.25,522.5,,,,522.5,
159.5,532.0,,,,532.0,
159.75,516.2,,,,516.2,
160.0,527.5,,,,527.5,
160.25,520.4,,,,520.4,
160.5,506.0,,,,506.0,
160.75,522.9,,,,522.9,
161.0,518.3,,,,518.3,
161.25,523.5,,,,523.5,
161.5,524.7,,,,524.7,
161.75,524.8,,,,524.8,
162.0,517.8,,,,517.8,
162.25,514.1,,,,514.1,
162.5,518.6,,,,518.6,
162.75,520.3,,,,520.3,
163.0,539.5,,,,539.5,
163.25,516.4,,,,516.4,
163.5,503.6,,,,503.6,
163.75,506.5,,,,506.5,
164.0,515.9,,,,515.9,
164.25,516.6,,,,516.6,
164.5,510.0,,,,510.0,
164.75,511.0,,,,511.0,
165.0,520.4,,,,520.4,
165.25,514.8,,,,514.8,
165.5,514.3,,,,514.3,
165.75,502.8,,,,502.8,
166.0,504.5,,,,504.5,
166.25,497.0,,,,497.0,
166.5,515.2,,,,515.2,
166.75,501.4,,,,501.4,
167.0,492.7,,,,492.7,
167.25,502.1,,,,502.1,
167.5,499.6,,,,499.6,
167.75,499.7,,,,499.7,
168.0,499.2,,,,499.2,
168.25,501.5,,,,501.5,
168.5,486.2,,,,486.2,
168.75,495.1,,,,495.1,
169.0,490.6,,,,490.6,
169.25,477.6,,,,477.6,
169.5,493.0,,,,493.0,
169.75,489.5,,,,489.5,
170.0,493.7,,,,493.7,
170.25,490.8,,,,490.8,
170.5,487.4,,,,487.4,
170.75,475.6,,,,475.6,
171.0,477.8,,,,477.8,
171.25,474.2,,,,474.2,
171.5,478.5,,,,478.5,
171.75,479.0,,,,479.0,
172.0,471.0,,,,471.0,
172.25,470.2,,,,470.2,
172.5,465.5,,,,465.5,
172.75,455.1,,,,455.1,
173.0,464.1,,,,464.1,
173.25,466.1,,,,466.1,
173.5,467.2,,,,467.2,
173.75,462.2,,,,462.2,
174.0,469.9,,,,469.9,
174.25,451.8,,,,451.8,
174.5,467.2,,,,467.2,
174.75,454.0,,,,454.0,
175.0,453.2,,,,453.2,
175.25,451.8,,,,451.8,
175.5,468.3,,,,468.3,
175.75,440.1,,,,440.1,
176.0,450.4,,,,450.4,
176.25,451.9,,,,451.9,
176.5,461.9,,,,461.9,
176.75,447.3,,,,447.3,
177.0,448.1,,,,448.1,
177.25,453.1,,,,453.1,
177.5,454.6,,,,454.6,
177.75,439.0,,,,439.0,
178.0,436.1,,,,436.1,
178.25,448.4,,,,448.4,
178.5,436.2,,,,436.2,
178.75,434.3,,,,434.3,
179.0,441.3,,,,441.3,
179.25,440.5,,,,440.5,
179.5,436.0,,,,436.0,
179.75,428.1,,,,428.1,
180.0,425.6,,,,425.6,
180.25,429.4,,,,429.4,
180.5,425.4,,,,425.4,
180.75,424.0,,,,424.0,
181.0,422.6,,,,422.6,
181.25,423.6,,,,423.6,
181.5,423.0,,,,423.0,
181.75,405.4,,,,405.4,
182.0,412.7,,,,412.7,
182.25,414.4,,,,414.4,
182.5,416.2,,,,416.2,
182.75,420.1,,,,420.1,
183.0,408.9,,,,408.9,
183.25,415.9,,,,415.9,
183.5,412.8,,,,412.8,
183.75,412.3,,,,412.3,
184.0,411.0,,,,411.0,
184.25,409.8,,,,409.8,
184.5,419.0,,,,419.0,
184.75,414.6,,,,414.6,
185.0,410.9,,,,410.9,
185.25,408.9,,,,408.9,
185.5,411.1,,,,411.1,
185.75,409.0,,,,409.0,
186.0,408.4,,,,408.4,
186.25,410.0,,,,410.0,
186.5,406.7,,,,406.7,
186.75,404.8,,,,404.8,
187.0,406.7,,,,406.7,
187.25,390.7,,,,390.7,
187.5,391.2,,,,391.2,
187.75,397.9,,,,397.9,
188.0,392.9,,,,392.9,
188.25,403.7,,,,403.7,
188.5,395.5,,,,395.5,
188.75,381.6,,,,381.6,
189.0,390.0,,,,390.0,
189.25,391.5,,,,391.5,
189.5,375.1,,,,375.1,
189.75,385.9,,,,385.9,
190.0,375.2,,,,375.2,
190.25,381.9,,,,381.9,
190.5,375.0,,,,375.0,
190.75,367.2,,,,367.2,
191.0,367.9,,,,367.9,
191.25,367.9,,,,367.9,
191.5,363.5,,,,363.5,
191.75,366.7,,,,366.7,
192.0,369.6,,,,369.6,
192.25,369.7,,,,369.7,
192.5,373.7,,,,373.7,
192.75,366.9,,,,366.9,
193.0,363.2,,,,363.2,
193.25,367.6,,,,367.6,
193.5,357.8,,,,357.8,
193.75,363.0,,,,363.0,
194.0,363.1,,,,363.1,
194.25,356.8,,,,356.8,
194.5,358.3,,,,358.3,
194.75,362.3,,,,362.3,
195.0,356.2,,,,356.2,
195.25,359.2,,,,359.2,
195.5,360.1,,,,360.1,
195.75,350.2,,,,350.2,
196.0,357.4,,,,357.4,
196.25,348.2,,,,348.2,
196.5,348.8,,,,348.8,
196.75,344.2,,,,344.2,
197.0,346.7,,,,346.7,
197.25,340.5,,,,340.5,
197.5,332.9,,,,332.9,
197.75,342.2,,,,342.2,
198.0,335.5,,,,335.5,
198.25,333.6,,,,333.6,
198.5,327.3,,,,327.3,
198.75,332.7,,,,332.7,
199.0,328.3,,,,328.3,
199.25,321.0,,,,321.0,
199.5,320.2,,,,320.2,
199.75,321.7,,,,321.7,
200.0,311.0,,,,311.0,
200.25,316.0,,,,316.0,
200.5,317.0,,,,317.0,
200.75,321.9,,,,321.9,
201.0,317.3,,,,317.3,
201.25,309.5,,,,309.5,
201.5,309.4,,,,309.4,
201.75,320.4,,,,320.4,
202.0,319.0,,,,319.0,
202.25,310.3,,,,310.3,
202.5,314.6,,,,314.6,
202.75,315.0,,,,315.0,
203.0,312.9,,,,312.9,
203.25,311.4,,,,311.4,
203.5,304.9,,,,304.9,
203.75,304.3,,,,304.3,
204.0,305.0,,,,305.0,
204.25,299.4,,,,299.4,
204.5,301.8,,,,301.8,
204.75,300.3,,,,300.3,
205.0,295.8,,,,295.8,
205.25,298.9,,,,298.9,
205.5,289.5,,,,289.5,
205.75,289.5,,,,289.5,
206.0,286.0,,,,286.0,
206.25,287.4,,,,287.4,
206.5,285.4,,,,285.4,
206.75,284.3,,,,284.3,
207.0,280.8,,,,280.8,
207.25,278.8,,,,278.8,
207.5,274.4,,,,274.4,
207.75,279.7,,,,279.7,
208.0,275.9,,,,275.9,
208.25,267.8,,,,267.8,
208.5,268.1,,,,268.1,
208.75,266.9,,,,266.9,
209.0,264.6,,,,264.6,
209.25,259.5,,,,259.5,
209.5,253.7,,,,253.7,
209.75,255.0,,,,255.0,
210.0,252.9,,,,252.9,
210.25,248.8,,,,248.8,
210.5,244.3,,,,244.3,
210.75,240.0,,,,240.0,
211.0,237.2,,,,237.2,
211.25,238.7,,,,238.7,
211.5,232.1,,,,232.1,
211.75,233.6,,,,233.6,
212.0,232.3,,,,232.3,
212.25,230.7,,,,230.7,
212.5,226.8,,,,226.8,
212.75,227.3,,,,227.3,
213.0,224.6,,,,224.6,
213.25,220.9,,,,220.9,
213.5,217.5,,,,217.5,
213.75,212.6,,,,212.6,
214.0,209.7,,,,209.7,
214.25,204.4,,,,204.4,
214.5,202.6,,,,202.6,
214.75,197.6,,,,197.6,
215.0,192.8,,,,192.8,
215.25,191.7,,,,191.7,
215.5,188.6,,,,188.6,
215.75,187.6,,,,187.6,
216.0,186.3,,,,186.3,
216.25,180.9,,,,180.9,
216.5,177.0,,,,177.0,
216.75,176.5,,,,176.5,
217.0,175.2,,,,175.2,
217.25,172.4,,,,172.4,
217.5,169.3,,,,169.3,
217.75,166.7,,,,166.7,
218.0,164.2,,,,164.2,
218.25,161.1,,,,161.1,
218.5,158.1,,,,158.1,
218.75,153.3,,,,153.3,
219.0,154.1,,,,154.1,
219.25,151.0,,,,151.0,
219.5,148.7,,,,148.7,
219.75,145.1,,,,145.1,
220.0,141.4,,,,141.4,
220.25,141.0,,,,141.0,
220.5,135.9,,,,135.9,
220.75,135.3,,,,135.3,
221.0,132.2,,,,132.2,
221.25,130.6,,,,130.6,
221.5,128.0,,,,128.0,
221.75,123.7,,,,123.7,
222.0,122.2,,,,122.2,
222.25,120.9,,,,120.9,
222.5,120.2,,,,120.2,
222.75,118.0,,,,118.0,
223.0,115.4,,,,115.4,
223.25,113.8,,,,113.8,
223.5,110.1,,,,110.1,
223.75,111.0,,,,111.0,
224.0,108.2,,,,108.2,
224.25,107.4,,,,107.4,
224.5,105.0,,,,105.0,
224.75,102.4,,,,102.4,
225.0,101.6,,,,101.6,
225.25,98.9,,,,98.9,
225.5,97.6,,,,97.6,
225.75,95.1,,,,95.1,
226.0,94.8,,,,94.8,
226.25,92.7,,,,92.7,
226.5,89.8,,,,89.8,
226.75,87.8,,,,87.8,
227.0,86.1,,,,86.1,
227.25,85.2,,,,85.2,
227.5,83.2,,,,83.2,
227.75,82.0,,,,82.0,
228.0,81.3,,,,81.3,
228.25,79.1,,,,79.1,
228.5,77.1,,,,77.1,
228.75,76.4,,,,76.4,
229.0,74.8,,,,74.8,
229.25,73.6,,,,73.6,
229.5,73.1,,,,73.1,
229.75,71.1,,,,71.1,
230.0,70.9,,,,70.9,
230.25,69.2,,,,69.2,
230.5,68.2,,,,68.2,
230.75,67.7,,,,67.7,
231.0,67.0,,,,67.0,