File: 01_Data/Fiber_Cement_Board/FTIR/IS/Fiber_Cement_Board_IS_T_221012_R2.dpt
7497.03,0.03526
7491.25,0.01959
7485.46,0.02198
7479.67,0.02162
7473.89,0.02075
7468.1,0.02928
7462.32,0.02265
7456.53,0.02725
7450.74,0.01738
7444.96,0.01333
7439.17,0.01895
7433.38,0.03410
7427.6,0.01994
7421.81,0.02650
7416.03,0.03005
7410.24,0.01909
7404.45,0.02349
7398.67,0.01922
7392.88,0.02997
7387.09,0.01804
7381.31,0.02026
7375.52,0.02818
7369.74,0.02977
7363.95,0.02562
7358.16,0.02948
7352.38,0.02892
7346.59,0.01822
7340.8,0.02667
7335.02,0.01635
7329.23,0.01921
7323.45,0.01290
7317.66,0.02471
7311.87,0.02909
7306.09,0.03045
7300.3,0.02366
7294.51,0.02286
7288.73,0.02591
7282.94,0.02615
7277.16,0.01785
7271.37,0.01566
7265.58,0.01917
7259.8,0.02364
7254.01,0.02617
7248.22,0.02807
7242.44,0.02366
7236.65,0.01755
7230.87,0.01964
7225.08,0.02733
7219.29,0.02423
7213.51,0.02379
7207.72,0.02040
7201.93,0.02697
7196.15,0.02264
7190.36,0.02946
7184.58,0.02666
7178.79,0.01961
7173,0.02400
7167.22,0.02507
7161.43,0.02726
7155.65,0.02683
7149.86,0.02269
7144.07,0.02912
7138.29,0.02896
7132.5,0.01917
7126.71,0.02448
7120.93,0.01807
7115.14,0.02132
7109.36,0.02936
7103.57,0.02765
7097.78,0.02689
7092,0.01956
7086.21,0.02447
7080.42,0.02441
7074.64,0.02395
7068.85,0.02555
7063.07,0.02867
7057.28,0.01971
7051.49,0.02460
7045.71,0.03164
7039.92,0.02268
7034.13,0.02781
7028.35,0.02931
7022.56,0.02451
7016.78,0.02527
7010.99,0.02284
7005.2,0.01599
6999.42,0.02348
6993.63,0.02704
6987.84,0.02810
6982.06,0.02862
6976.27,0.02308
6970.49,0.02533
6964.7,0.01961
6958.91,0.02378
6953.13,0.02562
6947.34,0.03228
6941.55,0.02609
6935.77,0.01544
6929.98,0.01615
6924.2,0.01754
6918.41,0.02723
6912.62,0.02723
6906.84,0.02595
6901.05,0.02774
6895.26,0.02014
6889.48,0.02285
6883.69,0.02188
6877.91,0.02341
6872.12,0.02194
6866.33,0.02665
6860.55,0.02498
6854.76,0.03000
6848.97,0.02326
6843.19,0.02331
6837.4,0.02423
6831.62,0.02654
6825.83,0.02158
6820.04,0.02152
6814.26,0.02248
6808.47,0.02809
6802.68,0.02273
6796.9,0.02023
6791.11,0.02155
6785.33,0.02185
6779.54,0.02233
6773.75,0.02335
6767.97,0.02181
6762.18,0.02133
6756.39,0.02181
6750.61,0.02571
6744.82,0.02414
6739.04,0.02424
6733.25,0.02270
6727.46,0.02205
6721.68,0.02129
6715.89,0.02504
6710.1,0.01877
6704.32,0.02392
6698.53,0.02402
6692.75,0.02572
6686.96,0.02470
6681.17,0.01935
6675.39,0.02009
6669.6,0.01902
6663.82,0.02202
6658.03,0.03295
6652.24,0.02463
6646.46,0.02569
6640.67,0.02186
6634.88,0.02314
6629.1,0.02189
6623.31,0.02462
6617.53,0.02739
6611.74,0.01864
6605.95,0.02484
6600.17,0.01802
6594.38,0.02203
6588.59,0.02432
6582.81,0.02125
6577.02,0.02194
6571.24,0.02582
6565.45,0.02164
6559.66,0.02094
6553.88,0.02643
6548.09,0.01869
6542.3,0.02783
6536.52,0.02013
6530.73,0.02720
6524.95,0.01967
6519.16,0.02131
6513.37,0.02104
6507.59,0.02440
6501.8,0.02293
6496.01,0.02079
6490.23,0.02128
6484.44,0.01862
6478.66,0.01966
6472.87,0.02160
6467.08,0.02109
6461.3,0.02264
6455.51,0.02238
6449.72,0.02324
6443.94,0.02167
6438.15,0.02158
6432.37,0.02103
6426.58,0.02263
6420.79,0.01955
6415.01,0.02204
6409.22,0.02316
6403.43,0.02088
6397.65,0.02180
6391.86,0.02313
6386.08,0.02330
6380.29,0.01928
6374.5,0.01840
6368.72,0.02184
6362.93,0.02222
6357.14,0.02315
6351.36,0.02128
6345.57,0.02029
6339.79,0.01903
6334,0.01996
6328.21,0.02213
6322.43,0.02389
6316.64,0.02396
6310.85,0.02556
6305.07,0.02464
6299.28,0.02107
6293.5,0.02213
6287.71,0.01862
6281.92,0.02180
6276.14,0.02053
6270.35,0.01957
6264.56,0.02312
6258.78,0.01994
6252.99,0.02272
6247.21,0.02015
6241.42,0.02379
6235.63,0.01980
6229.85,0.02138
6224.06,0.02029
6218.27,0.02467
6212.49,0.02271
6206.7,0.02158
6200.92,0.01840
6195.13,0.01979
6189.34,0.02158
6183.56,0.02182
6177.77,0.02190
6171.98,0.02190
6166.2,0.02161
6160.41,0.02517
6154.63,0.02302
6148.84,0.02081
6143.05,0.02030
6137.27,0.02028
6131.48,0.02024
6125.7,0.02082
6119.91,0.02162
6114.12,0.01969
6108.34,0.02135
6102.55,0.02157
6096.76,0.01768
6090.98,0.02579
6085.19,0.02316
6079.41,0.01828
6073.62,0.02175
6067.83,0.02157
6062.05,0.01979
6056.26,0.02096
6050.47,0.02336
6044.69,0.02275
6038.9,0.02132
6033.12,0.01946
6027.33,0.01928
6021.54,0.02150
6015.76,0.02040
6009.97,0.02306
6004.18,0.02096
5998.4,0.01798
5992.61,0.02068
5986.83,0.02191
5981.04,0.02171
5975.25,0.02196
5969.47,0.02144
5963.68,0.02086
5957.89,0.02114
5952.11,0.02192
5946.32,0.02061
5940.54,0.01799
5934.75,0.01936
5928.96,0.02085
5923.18,0.02273
5917.39,0.02079
5911.6,0.02014
5905.82,0.02113
5900.03,0.02275
5894.25,0.02182
5888.46,0.02197
5882.67,0.01953
5876.89,0.01960
5871.1,0.01999
5865.31,0.02176
5859.53,0.02110
5853.74,0.02146
5847.96,0.01965
5842.17,0.02119
5836.38,0.02163
5830.6,0.01943
5824.81,0.01792
5819.02,0.02129
5813.24,0.02082
5807.45,0.02122
5801.67,0.02174
5795.88,0.01952
5790.09,0.02159
5784.31,0.02026
5778.52,0.02293
5772.73,0.02153
5766.95,0.01945
5761.16,0.01995
5755.38,0.02109
5749.59,0.02067
5743.8,0.02118
5738.02,0.01939
5732.23,0.02146
5726.44,0.01717
5720.66,0.02084
5714.87,0.02172
5709.09,0.02086
5703.3,0.02180
5697.51,0.02282
5691.73,0.02284
5685.94,0.01950
5680.15,0.02161
5674.37,0.02175
5668.58,0.01973
5662.8,0.02273
5657.01,0.02166
5651.22,0.02216
5645.44,0.02026
5639.65,0.01793
5633.87,0.02033
5628.08,0.02227
5622.29,0.02201
5616.51,0.02288
5610.72,0.02104
5604.93,0.02033
5599.15,0.02062
5593.36,0.01916
5587.58,0.02158
5581.79,0.02087
5576,0.02160
5570.22,0.02155
5564.43,0.02011
5558.64,0.02157
5552.86,0.02159
5547.07,0.02013
5541.29,0.02037
5535.5,0.02114
5529.71,0.02100
5523.93,0.02227
5518.14,0.02417
5512.35,0.02268
5506.57,0.02062
5500.78,0.02396
5495,0.02068
5489.21,0.02116
5483.42,0.01956
5477.64,0.02211
5471.85,0.02158
5466.06,0.02215
5460.28,0.02137
5454.49,0.02162
5448.71,0.02304
5442.92,0.02249
5437.13,0.02062
5431.35,0.02207
5425.56,0.02098
5419.77,0.02017
5413.99,0.02041
5408.2,0.02000
5402.42,0.02032
5396.63,0.02125
5390.84,0.02026
5385.06,0.02120
5379.27,0.02247
5373.48,0.02145
5367.7,0.02097
5361.91,0.02126
5356.13,0.02200
5350.34,0.02040
5344.55,0.02158
5338.77,0.02221
5332.98,0.02164
5327.19,0.02241
5321.41,0.02139
5315.62,0.02150
5309.84,0.02163
5304.05,0.02157
5298.26,0.02108
5292.48,0.02169
5286.69,0.02105
5280.9,0.02156
5275.12,0.01955
5269.33,0.02089
5263.55,0.02030
5257.76,0.02040
5251.97,0.02153
5246.19,0.02204
5240.4,0.02222
5234.61,0.02131
5228.83,0.02153
5223.04,0.01993
5217.26,0.02072
5211.47,0.02257
5205.68,0.02004
5199.9,0.02021
5194.11,0.02050
5188.32,0.02063
5182.54,0.02212
5176.75,0.02157
5170.97,0.02146
5165.18,0.02128
5159.39,0.02161
5153.61,0.02098
5147.82,0.02294
5142.03,0.02128
5136.25,0.02128
5130.46,0.02115
5124.68,0.02035
5118.89,0.02126
5113.1,0.02096
5107.32,0.02125
5101.53,0.02075
5095.75,0.02097
5089.96,0.02103
5084.17,0.02086
5078.39,0.02112
5072.6,0.02210
5066.81,0.02119
5061.03,0.02140
5055.24,0.02157
5049.46,0.02131
5043.67,0.02172
5037.88,0.02103
5032.1,0.02189
5026.31,0.02197
5020.52,0.02139
5014.74,0.02056
5008.95,0.02061
5003.17,0.02107
4997.38,0.02108
4991.59,0.02141
4985.81,0.02103
4980.02,0.02269
4974.23,0.02180
4968.45,0.02055
4962.66,0.02120
4956.88,0.01981
4951.09,0.02089
4945.3,0.02104
4939.52,0.02261
4933.73,0.02117
4927.94,0.02032
4922.16,0.02035
4916.37,0.02133
4910.59,0.02099
4904.8,0.02126
4899.01,0.02162
4893.23,0.02144
4887.44,0.01971
4881.65,0.02161
4875.87,0.02107
4870.08,0.02104
4864.3,0.02137
4858.51,0.02131
4852.72,0.02115
4846.94,0.02143
4841.15,0.02203
4835.36,0.02132
4829.58,0.02155
4823.79,0.02088
4818.01,0.02061
4812.22,0.02118
4806.43,0.02148
4800.65,0.02123
4794.86,0.02156
4789.07,0.02114
4783.29,0.02023
4777.5,0.02053
4771.72,0.02149
4765.93,0.02055
4760.14,0.02171
4754.36,0.02037
4748.57,0.02043
4742.78,0.02147
4737,0.02241
4731.21,0.02198
4725.43,0.02186
4719.64,0.02117
4713.85,0.02092
4708.07,0.02198
4702.28,0.02143
4696.49,0.02185
4690.71,0.02167
4684.92,0.02122
4679.14,0.02056
4673.35,0.02059
4667.56,0.02012
4661.78,0.02039
4655.99,0.02221
4650.2,0.02107
4644.42,0.02089
4638.63,0.02202
4632.85,0.02188
4627.06,0.02134
4621.27,0.02214
4615.49,0.02077
4609.7,0.02085
4603.92,0.02207
4598.13,0.02181
4592.34,0.02208
4586.56,0.02166
4580.77,0.02177
4574.98,0.02016
4569.2,0.02167
4563.41,0.02118
4557.63,0.02132
4551.84,0.02259
4546.05,0.02200
4540.27,0.02098
4534.48,0.02135
4528.69,0.02145
4522.91,0.02154
4517.12,0.02147
4511.34,0.02186
4505.55,0.02112
4499.76,0.02154
4493.98,0.02110
4488.19,0.02009
4482.4,0.02115
4476.62,0.02238
4470.83,0.02075
4465.05,0.02047
4459.26,0.02110
4453.47,0.02153
4447.69,0.02105
4441.9,0.02138
4436.11,0.02174
4430.33,0.02078
4424.54,0.02124
4418.76,0.02092
4412.97,0.02114
4407.18,0.02055
4401.4,0.02151
4395.61,0.02257
4389.82,0.02114
4384.04,0.02078
4378.25,0.02212
4372.47,0.02208
4366.68,0.02145
4360.89,0.02052
4355.11,0.02100
4349.32,0.02097
4343.53,0.02181
4337.75,0.02110
4331.96,0.02155
4326.18,0.02083
4320.39,0.02106
4314.6,0.02123
4308.82,0.02182
4303.03,0.02102
4297.24,0.02243
4291.46,0.02149
4285.67,0.02177
4279.89,0.02201
4274.1,0.02117
4268.31,0.02131
4262.53,0.02141
4256.74,0.02116
4250.95,0.02179
4245.17,0.02220
4239.38,0.02191
4233.6,0.02167
4227.81,0.02181
4222.02,0.02118
4216.24,0.02131
4210.45,0.02141
4204.66,0.02171
4198.88,0.02142
4193.09,0.02203
4187.31,0.02107
4181.52,0.02168
4175.73,0.02170
4169.95,0.02129
4164.16,0.02148
4158.37,0.02226
4152.59,0.02204
4146.8,0.02103
4141.02,0.02169
4135.23,0.02229
4129.44,0.02232
4123.66,0.02230
4117.87,0.02128
4112.09,0.02176
4106.3,0.02143
4100.51,0.02104
4094.73,0.02200
4088.94,0.02133
4083.15,0.02203
4077.37,0.02108
4071.58,0.02147
4065.8,0.02117
4060.01,0.02125
4054.22,0.02071
4048.44,0.02141
4042.65,0.02165
4036.86,0.02177
4031.08,0.02072
4025.29,0.02048
4019.51,0.02175
4013.72,0.02158
4007.93,0.02176
4002.15,0.02161
3996.36,0.02180
3990.57,0.02169
3984.79,0.02139
3979,0.02160
3973.22,0.02203
3967.43,0.02136
3961.64,0.02198
3955.86,0.02166
3950.07,0.02137
3944.28,0.02139
3938.5,0.02202
3932.71,0.02212
3926.93,0.02181
3921.14,0.02217
3915.35,0.02131
3909.57,0.02169
3903.78,0.02192
3897.99,0.02175
3892.21,0.02196
3886.42,0.02240
3880.64,0.02192
3874.85,0.02191
3869.06,0.02225
3863.28,0.02180
3857.49,0.02123
3851.7,0.02216
3845.92,0.02220
3840.13,0.02255
3834.35,0.02154
3828.56,0.02140
3822.77,0.02228
3816.99,0.02189
3811.2,0.02163
3805.41,0.02170
3799.63,0.02202
3793.84,0.02145
3788.06,0.02185
3782.27,0.02200
3776.48,0.02096
3770.7,0.02176
3764.91,0.02208
3759.12,0.02182
3753.34,0.02108
3747.55,0.02208
3741.77,0.02187
3735.98,0.02190
3730.19,0.02250
3724.41,0.02158
3718.62,0.02155
3712.83,0.02240
3707.05,0.02216
3701.26,0.02139
3695.48,0.02103
3689.69,0.02187
3683.9,0.02137
3678.12,0.02101
3672.33,0.02173
3666.54,0.02121
3660.76,0.02113
3654.97,0.02172
3649.19,0.02097
3643.4,0.02173
3637.61,0.02134
3631.83,0.02075
3626.04,0.02034
3620.25,0.02142
3614.47,0.02140
3608.68,0.02104
3602.9,0.02043
3597.11,0.02052
3591.32,0.02089
3585.54,0.02047
3579.75,0.02083
3573.97,0.02031
3568.18,0.02080
3562.39,0.02011
3556.61,0.02000
3550.82,0.01967
3545.03,0.02053
3539.25,0.02054
3533.46,0.02079
3527.68,0.02093
3521.89,0.02020
3516.1,0.02060
3510.32,0.01999
3504.53,0.01950
3498.74,0.01975
3492.96,0.01921
3487.17,0.01992
3481.39,0.01967
3475.6,0.02047
3469.81,0.02005
3464.03,0.02023
3458.24,0.01930
3452.45,0.01976
3446.67,0.02011
3440.88,0.02013
3435.1,0.01994
3429.31,0.01971
3423.52,0.02007
3417.74,0.02011
3411.95,0.01985
3406.16,0.02036
3400.38,0.02037
3394.59,0.01994
3388.81,0.01953
3383.02,0.02059
3377.23,0.01949
3371.45,0.01953
3365.66,0.02018
3359.87,0.02001
3354.09,0.01980
3348.3,0.01987
3342.52,0.02051
3336.73,0.01979
3330.94,0.01882
3325.16,0.01970
3319.37,0.01956
3313.58,0.02003
3307.8,0.02075
3302.01,0.01968
3296.23,0.01974
3290.44,0.01957
3284.65,0.01999
3278.87,0.01995
3273.08,0.01946
3267.29,0.01924
3261.51,0.01898
3255.72,0.01952
3249.94,0.02024
3244.15,0.02039
3238.36,0.02006
3232.58,0.01993
3226.79,0.02026
3221,0.01987
3215.22,0.01946
3209.43,0.01983
3203.65,0.01966
3197.86,0.01935
3192.07,0.02028
3186.29,0.02022
3180.5,0.02094
3174.71,0.01999
3168.93,0.02036
3163.14,0.02029
3157.36,0.02038
3151.57,0.02003
3145.78,0.01979
3140,0.02029
3134.21,0.02010
3128.42,0.02007
3122.64,0.01993
3116.85,0.02036
3111.07,0.02020
3105.28,0.02057
3099.49,0.02023
3093.71,0.02030
3087.92,0.01973
3082.14,0.01985
3076.35,0.01988
3070.56,0.02004
3064.78,0.02005
3058.99,0.02030
3053.2,0.02012
3047.42,0.01975
3041.63,0.01977
3035.85,0.01991
3030.06,0.01984
3024.27,0.01984
3018.49,0.02017
3012.7,0.01987
3006.91,0.02028
3001.13,0.01931
2995.34,0.01977
2989.56,0.01949
2983.77,0.01948
2977.98,0.01914
2972.2,0.01920
2966.41,0.01880
2960.62,0.01904
2954.84,0.01893
2949.05,0.01862
2943.27,0.01918
2937.48,0.01949
2931.69,0.01906
2925.91,0.01932
2920.12,0.01935
2914.33,0.01949
2908.55,0.01965
2902.76,0.02001
2896.98,0.01980
2891.19,0.01968
2885.4,0.01982
2879.62,0.01942
2873.83,0.01933
2868.04,0.02022
2862.26,0.01943
2856.47,0.01972
2850.69,0.01976
2844.9,0.01991
2839.11,0.02065
2833.33,0.02067
2827.54,0.02036
2821.75,0.02053
2815.97,0.02009
2810.18,0.02020
2804.4,0.02071
2798.61,0.02023
2792.82,0.02073
2787.04,0.02025
2781.25,0.02055
2775.46,0.02054
2769.68,0.02081
2763.89,0.02066
2758.11,0.02065
2752.32,0.02013
2746.53,0.02095
2740.75,0.02061
2734.96,0.02049
2729.17,0.02075
2723.39,0.02089
2717.6,0.02026
2711.82,0.02024
2706.03,0.02090
2700.24,0.02053
2694.46,0.02025
2688.67,0.02020
2682.88,0.02053
2677.1,0.02070
2671.31,0.02033
2665.53,0.02060
2659.74,0.02100
2653.95,0.02069
2648.17,0.02056
2642.38,0.02037
2636.59,0.02013
2630.81,0.02012
2625.02,0.02030
2619.24,0.02039
2613.45,0.02086
2607.66,0.02048
2601.88,0.02054
2596.09,0.02013
2590.3,0.02061
2584.52,0.02053
2578.73,0.02071
2572.95,0.02054
2567.16,0.02063
2561.37,0.02075
2555.59,0.02035
2549.8,0.02066
2544.02,0.02042
2538.23,0.02037
2532.44,0.02075
2526.66,0.02042
2520.87,0.02036
2515.08,0.02042
2509.3,0.02042
2503.51,0.02067
2497.73,0.02081
2491.94,0.02083
2486.15,0.02046
2480.37,0.02085
2474.58,0.02049
2468.79,0.02079
2463.01,0.02072
2457.22,0.02040
2451.44,0.02041
2445.65,0.02040
2439.86,0.02036
2434.08,0.02059
2428.29,0.02006
2422.5,0.02041
2416.72,0.02055
2410.93,0.02055
2405.15,0.02054
2399.36,0.02012
2393.57,0.02054
2387.79,0.02072
2382,0.02040
2376.21,0.02040
2370.43,0.02067
2364.64,0.02046
2358.86,0.02068
2353.07,0.02053
2347.28,0.02026
2341.5,0.02059
2335.71,0.02068
2329.92,0.02040
2324.14,0.02082
2318.35,0.02079
2312.57,0.02046
2306.78,0.02008
2300.99,0.02033
2295.21,0.02028
2289.42,0.02014
2283.63,0.02037
2277.85,0.02027
2272.06,0.02049
2266.28,0.02035
2260.49,0.02047
2254.7,0.02052
2248.92,0.02036
2243.13,0.02061
2237.34,0.02039
2231.56,0.02039
2225.77,0.02031
2219.99,0.02082
2214.2,0.02064
2208.41,0.02077
2202.63,0.02020
2196.84,0.02050
2191.05,0.02009
2185.27,0.02004
2179.48,0.02000
2173.7,0.02009
2167.91,0.02043
2162.12,0.02044
2156.34,0.02034
2150.55,0.02043
2144.76,0.02035
2138.98,0.02027
2133.19,0.02025
2127.41,0.02026
2121.62,0.02043
2115.83,0.02070
2110.05,0.02046
2104.26,0.02021
2098.47,0.02001
2092.69,0.01993
2086.9,0.02039
2081.12,0.02042
2075.33,0.02033
2069.54,0.02009
2063.76,0.02017
2057.97,0.02030
2052.19,0.02035
2046.4,0.01997
2040.61,0.02028
2034.83,0.02024
2029.04,0.02045
2023.25,0.02041
2017.47,0.02049
2011.68,0.02036
2005.9,0.02032
2000.11,0.02005
1994.32,0.01990
1988.54,0.02027
1982.75,0.02025
1976.96,0.02034
1971.18,0.02004
1965.39,0.02045
1959.61,0.02015
1953.82,0.02019
1948.03,0.02035
1942.25,0.02014
1936.46,0.01998
1930.67,0.01980
1924.89,0.02002
1919.1,0.02008
1913.32,0.02014
1907.53,0.02013
1901.74,0.02022
1895.96,0.02062
1890.17,0.01990
1884.38,0.01965
1878.6,0.01955
1872.81,0.01999
1867.03,0.01985
1861.24,0.02014
1855.45,0.01967
1849.67,0.01978
1843.88,0.01957
1838.09,0.01955
1832.31,0.01975
1826.52,0.01978
1820.74,0.01954
1814.95,0.01919
1809.16,0.01958
1803.38,0.01943
1797.59,0.01892
1791.8,0.01948
1786.02,0.01878
1780.23,0.01845
1774.45,0.01831
1768.66,0.01830
1762.87,0.01791
1757.09,0.01778
1751.3,0.01693
1745.51,0.01735
1739.73,0.01851
1733.94,0.01950
1728.16,0.01985
1722.37,0.02031
1716.58,0.02011
1710.8,0.02032
1705.01,0.02002
1699.22,0.02028
1693.44,0.01871
1687.65,0.01886
1681.87,0.01814
1676.08,0.01839
1670.29,0.01832
1664.51,0.01804
1658.72,0.01817
1652.93,0.01779
1647.15,0.01772
1641.36,0.01797
1635.58,0.01826
1629.79,0.01829
1624,0.01859
1618.22,0.01859
1612.43,0.01851
1606.64,0.01830
1600.86,0.01828
1595.07,0.01837
1589.29,0.01812
1583.5,0.01812
1577.71,0.01823
1571.93,0.01774
1566.14,0.01769
1560.35,0.01792
1554.57,0.01782
1548.78,0.01749
1543,0.01800
1537.21,0.01771
1531.42,0.01783
1525.64,0.01798
1519.85,0.01827
1514.07,0.01826
1508.28,0.01849
1502.49,0.01837
1496.71,0.01822
1490.92,0.01820
1485.13,0.01877
1479.35,0.01821
1473.56,0.01768
1467.78,0.01740
1461.99,0.01810
1456.2,0.01850
1450.42,0.01829
1444.63,0.01809
1438.84,0.01798
1433.06,0.01828
1427.27,0.01822
1421.49,0.01851
1415.7,0.01783
1409.91,0.01807
1404.13,0.01766
1398.34,0.01766
1392.55,0.01763
1386.77,0.01758
1380.98,0.01766
1375.2,0.01753
1369.41,0.01780
1363.62,0.01794
1357.84,0.01774
1352.05,0.01767
1346.26,0.01767
1340.48,0.01742
1334.69,0.01702
1328.91,0.01708
1323.12,0.01657
1317.33,0.01665
1311.55,0.01679
1305.76,0.01666
1299.97,0.01701
1294.19,0.01735
1288.4,0.01774
1282.62,0.01779
1276.83,0.01863
1271.04,0.01903
1265.26,0.01938
1259.47,0.01979
1253.68,0.01979
1247.9,0.01939
1242.11,0.01931
1236.33,0.01947
1230.54,0.01950
1224.75,0.01900
1218.97,0.01890
1213.18,0.01856
1207.39,0.01884
1201.61,0.01811
1195.82,0.01847
1190.04,0.01827
1184.25,0.01780
1178.46,0.01767
1172.68,0.01784
1166.89,0.01746
1161.1,0.01708
1155.32,0.01710
1149.53,0.01658
1143.75,0.01698
1137.96,0.01740
1132.17,0.01805
1126.39,0.01766
1120.6,0.01795
1114.81,0.01884
1109.03,0.01854
1103.24,0.01789
1097.46,0.01758
1091.67,0.01761
1085.88,0.01650
1080.1,0.01785
1074.31,0.01930
1068.52,0.01982
1062.74,0.01967
1056.95,0.01908
1051.17,0.01847
1045.38,0.01928
1039.59,0.01896
1033.81,0.01908
1028.02,0.01865
1022.24,0.01884
1016.45,0.01947
1010.66,0.01972
1004.88,0.02019
999.09,0.02071
993.304,0.02060
987.518,0.02058
981.731,0.02058
975.945,0.02055
970.159,0.01964
964.373,0.01958
958.586,0.01932
952.8,0.01923
947.014,0.01915
941.228,0.01948
935.441,0.01902
929.655,0.01876
923.869,0.01889
918.083,0.01877
912.297,0.01854
906.51,0.01819
900.724,0.01799
894.938,0.01880
889.152,0.01810
883.365,0.01898
877.579,0.01845
871.793,0.01836
866.007,0.01857
860.22,0.01804
854.434,0.01798
848.648,0.01888
842.862,0.01736
837.075,0.01765
831.289,0.01821
825.503,0.01753
819.717,0.01833
813.931,0.01834
808.144,0.01869
802.358,0.01822
796.572,0.01787
790.786,0.01752
784.999,0.01795
779.213,0.01783
773.427,0.01770
767.641,0.01705
761.854,0.01808
756.068,0.01645
750.282,0.01767
744.496,0.01836
738.709,0.01752
732.923,0.01723
727.137,0.01819
721.351,0.01815
715.565,0.01738
709.778,0.01687
703.992,0.01691
698.206,0.01641
692.42,0.01802
686.633,0.01733
680.847,0.01664
675.061,0.01697
669.275,0.01583
663.488,0.01643
657.702,0.01700
651.916,0.01738
646.13,0.01682
640.343,0.01720
634.557,0.01645
628.771,0.01464
622.985,0.01562
617.198,0.01496
611.412,0.01610
605.626,0.01532
599.84,0.01306