File: 01_Data/Fiber_Cement_Board/FTIR/IS/Fiber_Cement_Board_IS_S_221012_R6.dpt
7497.03,0.51839
7491.25,0.52173
7485.46,0.51395
7479.67,0.52389
7473.89,0.52418
7468.1,0.51635
7462.32,0.50669
7456.53,0.49846
7450.74,0.51364
7444.96,0.51221
7439.17,0.50823
7433.38,0.51017
7427.6,0.51194
7421.81,0.50957
7416.03,0.50965
7410.24,0.50406
7404.45,0.51138
7398.67,0.51427
7392.88,0.50287
7387.09,0.51284
7381.31,0.51509
7375.52,0.50344
7369.74,0.50555
7363.95,0.50533
7358.16,0.50874
7352.38,0.51529
7346.59,0.50363
7340.8,0.50595
7335.02,0.49919
7329.23,0.50345
7323.45,0.49882
7317.66,0.50340
7311.87,0.50361
7306.09,0.50895
7300.3,0.50989
7294.51,0.51799
7288.73,0.50255
7282.94,0.50205
7277.16,0.49497
7271.37,0.49685
7265.58,0.49867
7259.8,0.50877
7254.01,0.50259
7248.22,0.50041
7242.44,0.50192
7236.65,0.50026
7230.87,0.49681
7225.08,0.50139
7219.29,0.49903
7213.51,0.50250
7207.72,0.49943
7201.93,0.50167
7196.15,0.50021
7190.36,0.49717
7184.58,0.49632
7178.79,0.49859
7173,0.49039
7167.22,0.48658
7161.43,0.48364
7155.65,0.49270
7149.86,0.49096
7144.07,0.48889
7138.29,0.49235
7132.5,0.49572
7126.71,0.49553
7120.93,0.48807
7115.14,0.48877
7109.36,0.49107
7103.57,0.48981
7097.78,0.48887
7092,0.48781
7086.21,0.49025
7080.42,0.48560
7074.64,0.48440
7068.85,0.48158
7063.07,0.49410
7057.28,0.48758
7051.49,0.48273
7045.71,0.47493
7039.92,0.48307
7034.13,0.48872
7028.35,0.48796
7022.56,0.47793
7016.78,0.48116
7010.99,0.47406
7005.2,0.48106
6999.42,0.48107
6993.63,0.47901
6987.84,0.47828
6982.06,0.48075
6976.27,0.47413
6970.49,0.48863
6964.7,0.49047
6958.91,0.48473
6953.13,0.48549
6947.34,0.48482
6941.55,0.48309
6935.77,0.48299
6929.98,0.47837
6924.2,0.48098
6918.41,0.48937
6912.62,0.48465
6906.84,0.48270
6901.05,0.47956
6895.26,0.48042
6889.48,0.48086
6883.69,0.48577
6877.91,0.48531
6872.12,0.48088
6866.33,0.47576
6860.55,0.47884
6854.76,0.48045
6848.97,0.47973
6843.19,0.47907
6837.4,0.48088
6831.62,0.48675
6825.83,0.48398
6820.04,0.48391
6814.26,0.48745
6808.47,0.48004
6802.68,0.48746
6796.9,0.48460
6791.11,0.48502
6785.33,0.48683
6779.54,0.48602
6773.75,0.47956
6767.97,0.48430
6762.18,0.48630
6756.39,0.48146
6750.61,0.48118
6744.82,0.48451
6739.04,0.48166
6733.25,0.47909
6727.46,0.48329
6721.68,0.48775
6715.89,0.48391
6710.1,0.48649
6704.32,0.48322
6698.53,0.47932
6692.75,0.48273
6686.96,0.48174
6681.17,0.48436
6675.39,0.48086
6669.6,0.48982
6663.82,0.48947
6658.03,0.48288
6652.24,0.48380
6646.46,0.48394
6640.67,0.48437
6634.88,0.48687
6629.1,0.48407
6623.31,0.48753
6617.53,0.49029
6611.74,0.49688
6605.95,0.48219
6600.17,0.48445
6594.38,0.47923
6588.59,0.48848
6582.81,0.48796
6577.02,0.48742
6571.24,0.48602
6565.45,0.48696
6559.66,0.48737
6553.88,0.48548
6548.09,0.48466
6542.3,0.48895
6536.52,0.49061
6530.73,0.48459
6524.95,0.49106
6519.16,0.48639
6513.37,0.48891
6507.59,0.48989
6501.8,0.48718
6496.01,0.48651
6490.23,0.48666
6484.44,0.48906
6478.66,0.48870
6472.87,0.49183
6467.08,0.48831
6461.3,0.48595
6455.51,0.49108
6449.72,0.48667
6443.94,0.49103
6438.15,0.48950
6432.37,0.48505
6426.58,0.48570
6420.79,0.48367
6415.01,0.48540
6409.22,0.49233
6403.43,0.48809
6397.65,0.48519
6391.86,0.48847
6386.08,0.49383
6380.29,0.48824
6374.5,0.49119
6368.72,0.49308
6362.93,0.49041
6357.14,0.48854
6351.36,0.48424
6345.57,0.48725
6339.79,0.48845
6334,0.48972
6328.21,0.48928
6322.43,0.48671
6316.64,0.48827
6310.85,0.48869
6305.07,0.48556
6299.28,0.48485
6293.5,0.49071
6287.71,0.49198
6281.92,0.48827
6276.14,0.49197
6270.35,0.49251
6264.56,0.48999
6258.78,0.49044
6252.99,0.48847
6247.21,0.49385
6241.42,0.49097
6235.63,0.49020
6229.85,0.48853
6224.06,0.49143
6218.27,0.48872
6212.49,0.48912
6206.7,0.48957
6200.92,0.48816
6195.13,0.49304
6189.34,0.49398
6183.56,0.49156
6177.77,0.49184
6171.98,0.49054
6166.2,0.49021
6160.41,0.49189
6154.63,0.49323
6148.84,0.49230
6143.05,0.49020
6137.27,0.49230
6131.48,0.48966
6125.7,0.49216
6119.91,0.49174
6114.12,0.49263
6108.34,0.48899
6102.55,0.49031
6096.76,0.49041
6090.98,0.49425
6085.19,0.49144
6079.41,0.49398
6073.62,0.49254
6067.83,0.49367
6062.05,0.49083
6056.26,0.49426
6050.47,0.49206
6044.69,0.49054
6038.9,0.49038
6033.12,0.49358
6027.33,0.49380
6021.54,0.49083
6015.76,0.49194
6009.97,0.49054
6004.18,0.49398
5998.4,0.49153
5992.61,0.49112
5986.83,0.48856
5981.04,0.49344
5975.25,0.49079
5969.47,0.49125
5963.68,0.49154
5957.89,0.49140
5952.11,0.48935
5946.32,0.49192
5940.54,0.49036
5934.75,0.49190
5928.96,0.49107
5923.18,0.48977
5917.39,0.48920
5911.6,0.49098
5905.82,0.48974
5900.03,0.48998
5894.25,0.49035
5888.46,0.49031
5882.67,0.48925
5876.89,0.48971
5871.1,0.48988
5865.31,0.48862
5859.53,0.49130
5853.74,0.49069
5847.96,0.49133
5842.17,0.48951
5836.38,0.48693
5830.6,0.49112
5824.81,0.48734
5819.02,0.48814
5813.24,0.48793
5807.45,0.48724
5801.67,0.48814
5795.88,0.48593
5790.09,0.48607
5784.31,0.48669
5778.52,0.49010
5772.73,0.48706
5766.95,0.49031
5761.16,0.48866
5755.38,0.48732
5749.59,0.48531
5743.8,0.48750
5738.02,0.48751
5732.23,0.48671
5726.44,0.48545
5720.66,0.48687
5714.87,0.48397
5709.09,0.48629
5703.3,0.48640
5697.51,0.48577
5691.73,0.48366
5685.94,0.48743
5680.15,0.48501
5674.37,0.48665
5668.58,0.48547
5662.8,0.48460
5657.01,0.48452
5651.22,0.48400
5645.44,0.48450
5639.65,0.48606
5633.87,0.48409
5628.08,0.48491
5622.29,0.48400
5616.51,0.48458
5610.72,0.48339
5604.93,0.48580
5599.15,0.48500
5593.36,0.48434
5587.58,0.48463
5581.79,0.48267
5576,0.48374
5570.22,0.48413
5564.43,0.48355
5558.64,0.48265
5552.86,0.48298
5547.07,0.48270
5541.29,0.48565
5535.5,0.48264
5529.71,0.48389
5523.93,0.48327
5518.14,0.48101
5512.35,0.48252
5506.57,0.48305
5500.78,0.48298
5495,0.48236
5489.21,0.48182
5483.42,0.48356
5477.64,0.48353
5471.85,0.48361
5466.06,0.48084
5460.28,0.48213
5454.49,0.48250
5448.71,0.48226
5442.92,0.48017
5437.13,0.48199
5431.35,0.48123
5425.56,0.48142
5419.77,0.48066
5413.99,0.48285
5408.2,0.48207
5402.42,0.48247
5396.63,0.48226
5390.84,0.47953
5385.06,0.48161
5379.27,0.48020
5373.48,0.48104
5367.7,0.47994
5361.91,0.47794
5356.13,0.47821
5350.34,0.47907
5344.55,0.47778
5338.77,0.47719
5332.98,0.47582
5327.19,0.47504
5321.41,0.47308
5315.62,0.47159
5309.84,0.46983
5304.05,0.46733
5298.26,0.46511
5292.48,0.46352
5286.69,0.46091
5280.9,0.45883
5275.12,0.45511
5269.33,0.45206
5263.55,0.44821
5257.76,0.44347
5251.97,0.43933
5246.19,0.43457
5240.4,0.42959
5234.61,0.42612
5228.83,0.42084
5223.04,0.41604
5217.26,0.41454
5211.47,0.40983
5205.68,0.40690
5199.9,0.40571
5194.11,0.40610
5188.32,0.40602
5182.54,0.40522
5176.75,0.40658
5170.97,0.40894
5165.18,0.40816
5159.39,0.41131
5153.61,0.41284
5147.82,0.41454
5142.03,0.41519
5136.25,0.41704
5130.46,0.42017
5124.68,0.42181
5118.89,0.42340
5113.1,0.42448
5107.32,0.42688
5101.53,0.42675
5095.75,0.42784
5089.96,0.43024
5084.17,0.43114
5078.39,0.43292
5072.6,0.43308
5066.81,0.43381
5061.03,0.43564
5055.24,0.43692
5049.46,0.43705
5043.67,0.43749
5037.88,0.43857
5032.1,0.43925
5026.31,0.44125
5020.52,0.44224
5014.74,0.44238
5008.95,0.44339
5003.17,0.44412
4997.38,0.44384
4991.59,0.44489
4985.81,0.44626
4980.02,0.44581
4974.23,0.44734
4968.45,0.44702
4962.66,0.44724
4956.88,0.44751
4951.09,0.44681
4945.3,0.44715
4939.52,0.44667
4933.73,0.44632
4927.94,0.44653
4922.16,0.44545
4916.37,0.44640
4910.59,0.44527
4904.8,0.44600
4899.01,0.44441
4893.23,0.44350
4887.44,0.44283
4881.65,0.44251
4875.87,0.44328
4870.08,0.44177
4864.3,0.44092
4858.51,0.43934
4852.72,0.43917
4846.94,0.43787
4841.15,0.43710
4835.36,0.43635
4829.58,0.43517
4823.79,0.43462
4818.01,0.43450
4812.22,0.43375
4806.43,0.43337
4800.65,0.43279
4794.86,0.43372
4789.07,0.43277
4783.29,0.43212
4777.5,0.43088
4771.72,0.43206
4765.93,0.43137
4760.14,0.43189
4754.36,0.43105
4748.57,0.43073
4742.78,0.43121
4737,0.43125
4731.21,0.43197
4725.43,0.43315
4719.64,0.43269
4713.85,0.43300
4708.07,0.43300
4702.28,0.43497
4696.49,0.43443
4690.71,0.43540
4684.92,0.43536
4679.14,0.43636
4673.35,0.43540
4667.56,0.43600
4661.78,0.43680
4655.99,0.43727
4650.2,0.43729
4644.42,0.43711
4638.63,0.43736
4632.85,0.43764
4627.06,0.43693
4621.27,0.43734
4615.49,0.43650
4609.7,0.43702
4603.92,0.43736
4598.13,0.43712
4592.34,0.43691
4586.56,0.43666
4580.77,0.43547
4574.98,0.43522
4569.2,0.43552
4563.41,0.43523
4557.63,0.43549
4551.84,0.43512
4546.05,0.43467
4540.27,0.43306
4534.48,0.43202
4528.69,0.43228
4522.91,0.43252
4517.12,0.43188
4511.34,0.43233
4505.55,0.43029
4499.76,0.42997
4493.98,0.42942
4488.19,0.42837
4482.4,0.42750
4476.62,0.42700
4470.83,0.42595
4465.05,0.42452
4459.26,0.42261
4453.47,0.42031
4447.69,0.41922
4441.9,0.41761
4436.11,0.41559
4430.33,0.41500
4424.54,0.41395
4418.76,0.41159
4412.97,0.41019
4407.18,0.40918
4401.4,0.40781
4395.61,0.40819
4389.82,0.40834
4384.04,0.40931
4378.25,0.40980
4372.47,0.40995
4366.68,0.41116
4360.89,0.41048
4355.11,0.40989
4349.32,0.40967
4343.53,0.40934
4337.75,0.40818
4331.96,0.40684
4326.18,0.40656
4320.39,0.40539
4314.6,0.40405
4308.82,0.40484
4303.03,0.40321
4297.24,0.40177
4291.46,0.40007
4285.67,0.39884
4279.89,0.39830
4274.1,0.39721
4268.31,0.39604
4262.53,0.39489
4256.74,0.39540
4250.95,0.39449
4245.17,0.39362
4239.38,0.39312
4233.6,0.39203
4227.81,0.39210
4222.02,0.39145
4216.24,0.38999
4210.45,0.38963
4204.66,0.38880
4198.88,0.38879
4193.09,0.38826
4187.31,0.38592
4181.52,0.38474
4175.73,0.38489
4169.95,0.38508
4164.16,0.38329
4158.37,0.38195
4152.59,0.38104
4146.8,0.37832
4141.02,0.37715
4135.23,0.37584
4129.44,0.37404
4123.66,0.37235
4117.87,0.37018
4112.09,0.36781
4106.3,0.36537
4100.51,0.36272
4094.73,0.36065
4088.94,0.35757
4083.15,0.35530
4077.37,0.35221
4071.58,0.34933
4065.8,0.34622
4060.01,0.34333
4054.22,0.34084
4048.44,0.33778
4042.65,0.33510
4036.86,0.33321
4031.08,0.33150
4025.29,0.33024
4019.51,0.33025
4013.72,0.33009
4007.93,0.32953
4002.15,0.32903
3996.36,0.32939
3990.57,0.33097
3984.79,0.33058
3979,0.33059
3973.22,0.33040
3967.43,0.33024
3961.64,0.33070
3955.86,0.33113
3950.07,0.33128
3944.28,0.33102
3938.5,0.33122
3932.71,0.33171
3926.93,0.33158
3921.14,0.33232
3915.35,0.33224
3909.57,0.33250
3903.78,0.33281
3897.99,0.33198
3892.21,0.33217
3886.42,0.33181
3880.64,0.33197
3874.85,0.33176
3869.06,0.33154
3863.28,0.33139
3857.49,0.33082
3851.7,0.33068
3845.92,0.33111
3840.13,0.32950
3834.35,0.32960
3828.56,0.32813
3822.77,0.32619
3816.99,0.32470
3811.2,0.32308
3805.41,0.32180
3799.63,0.32002
3793.84,0.31795
3788.06,0.31556
3782.27,0.31366
3776.48,0.31047
3770.7,0.30749
3764.91,0.30490
3759.12,0.30181
3753.34,0.29867
3747.55,0.29462
3741.77,0.28872
3735.98,0.28263
3730.19,0.27613
3724.41,0.26877
3718.62,0.25911
3712.83,0.24839
3707.05,0.23430
3701.26,0.21713
3695.48,0.20109
3689.69,0.19097
3683.9,0.17995
3678.12,0.16672
3672.33,0.15115
3666.54,0.13788
3660.76,0.12759
3654.97,0.11940
3649.19,0.11265
3643.4,0.10523
3637.61,0.09995
3631.83,0.09446
3626.04,0.08837
3620.25,0.08477
3614.47,0.08036
3608.68,0.07698
3602.9,0.07410
3597.11,0.07185
3591.32,0.06962
3585.54,0.06665
3579.75,0.06459
3573.97,0.06249
3568.18,0.06107
3562.39,0.05929
3556.61,0.05743
3550.82,0.05628
3545.03,0.05507
3539.25,0.05400
3533.46,0.05313
3527.68,0.05170
3521.89,0.05050
3516.1,0.04927
3510.32,0.04863
3504.53,0.04775
3498.74,0.04692
3492.96,0.04583
3487.17,0.04475
3481.39,0.04412
3475.6,0.04389
3469.81,0.04395
3464.03,0.04354
3458.24,0.04277
3452.45,0.04237
3446.67,0.04245
3440.88,0.04225
3435.1,0.04194
3429.31,0.04180
3423.52,0.04140
3417.74,0.04086
3411.95,0.04115
3406.16,0.04067
3400.38,0.04076
3394.59,0.04135
3388.81,0.04117
3383.02,0.04196
3377.23,0.04137
3371.45,0.04089
3365.66,0.04115
3359.87,0.04187
3354.09,0.04211
3348.3,0.04155
3342.52,0.04232
3336.73,0.04301
3330.94,0.04372
3325.16,0.04389
3319.37,0.04482
3313.58,0.04519
3307.8,0.04619
3302.01,0.04616
3296.23,0.04658
3290.44,0.04690
3284.65,0.04693
3278.87,0.04849
3273.08,0.04921
3267.29,0.05019
3261.51,0.05129
3255.72,0.05246
3249.94,0.05321
3244.15,0.05407
3238.36,0.05534
3232.58,0.05598
3226.79,0.05646
3221,0.05818
3215.22,0.05924
3209.43,0.06013
3203.65,0.06092
3197.86,0.06241
3192.07,0.06435
3186.29,0.06458
3180.5,0.06642
3174.71,0.06695
3168.93,0.06827
3163.14,0.06930
3157.36,0.07062
3151.57,0.07274
3145.78,0.07335
3140,0.07464
3134.21,0.07599
3128.42,0.07704
3122.64,0.07813
3116.85,0.08054
3111.07,0.08097
3105.28,0.08273
3099.49,0.08459
3093.71,0.08594
3087.92,0.08654
3082.14,0.08725
3076.35,0.08888
3070.56,0.09007
3064.78,0.09087
3058.99,0.09216
3053.2,0.09358
3047.42,0.09531
3041.63,0.09621
3035.85,0.09629
3030.06,0.09626
3024.27,0.09675
3018.49,0.09937
3012.7,0.10041
3006.91,0.10043
3001.13,0.10008
2995.34,0.09908
2989.56,0.09853
2983.77,0.09657
2977.98,0.09421
2972.2,0.08968
2966.41,0.08558
2960.62,0.08362
2954.84,0.08196
2949.05,0.08010
2943.27,0.07857
2937.48,0.07809
2931.69,0.07848
2925.91,0.07761
2920.12,0.07653
2914.33,0.07603
2908.55,0.07586
2902.76,0.07647
2896.98,0.07782
2891.19,0.08010
2885.4,0.08194
2879.62,0.08381
2873.83,0.08433
2868.04,0.08627
2862.26,0.08871
2856.47,0.09100
2850.69,0.09449
2844.9,0.10008
2839.11,0.10463
2833.33,0.10918
2827.54,0.11316
2821.75,0.11647
2815.97,0.11987
2810.18,0.12332
2804.4,0.12619
2798.61,0.12873
2792.82,0.13051
2787.04,0.13222
2781.25,0.13370
2775.46,0.13496
2769.68,0.13601
2763.89,0.13721
2758.11,0.13857
2752.32,0.13930
2746.53,0.14009
2740.75,0.14084
2734.96,0.14204
2729.17,0.14304
2723.39,0.14452
2717.6,0.14619
2711.82,0.14793
2706.03,0.14984
2700.24,0.15177
2694.46,0.15385
2688.67,0.15609
2682.88,0.15829
2677.1,0.15960
2671.31,0.16141
2665.53,0.16281
2659.74,0.16435
2653.95,0.16575
2648.17,0.16752
2642.38,0.16901
2636.59,0.17033
2630.81,0.17178
2625.02,0.17357
2619.24,0.17489
2613.45,0.17656
2607.66,0.17738
2601.88,0.17846
2596.09,0.17963
2590.3,0.18097
2584.52,0.18190
2578.73,0.18213
2572.95,0.18261
2567.16,0.18284
2561.37,0.18323
2555.59,0.18357
2549.8,0.18353
2544.02,0.18420
2538.23,0.18401
2532.44,0.18439
2526.66,0.18520
2520.87,0.18539
2515.08,0.18615
2509.3,0.18729
2503.51,0.18902
2497.73,0.19058
2491.94,0.19230
2486.15,0.19348
2480.37,0.19428
2474.58,0.19571
2468.79,0.19640
2463.01,0.19705
2457.22,0.19764
2451.44,0.19831
2445.65,0.19921
2439.86,0.20007
2434.08,0.20099
2428.29,0.20158
2422.5,0.20230
2416.72,0.20299
2410.93,0.20297
2405.15,0.20298
2399.36,0.20324
2393.57,0.20307
2387.79,0.20352
2382,0.20350
2376.21,0.20357
2370.43,0.20344
2364.64,0.20355
2358.86,0.20358
2353.07,0.20271
2347.28,0.20277
2341.5,0.20243
2335.71,0.20266
2329.92,0.20236
2324.14,0.20212
2318.35,0.20218
2312.57,0.20126
2306.78,0.20049
2300.99,0.20014
2295.21,0.19904
2289.42,0.19787
2283.63,0.19682
2277.85,0.19559
2272.06,0.19431
2266.28,0.19273
2260.49,0.19132
2254.7,0.19010
2248.92,0.18879
2243.13,0.18790
2237.34,0.18695
2231.56,0.18637
2225.77,0.18686
2219.99,0.18773
2214.2,0.18883
2208.41,0.18943
2202.63,0.18985
2196.84,0.18987
2191.05,0.18895
2185.27,0.18835
2179.48,0.18734
2173.7,0.18593
2167.91,0.18434
2162.12,0.18281
2156.34,0.18150
2150.55,0.18048
2144.76,0.17938
2138.98,0.17756
2133.19,0.17741
2127.41,0.17813
2121.62,0.17918
2115.83,0.17971
2110.05,0.18007
2104.26,0.18026
2098.47,0.18021
2092.69,0.18015
2086.9,0.17982
2081.12,0.17955
2075.33,0.17860
2069.54,0.17764
2063.76,0.17645
2057.97,0.17491
2052.19,0.17215
2046.4,0.16905
2040.61,0.16398
2034.83,0.15889
2029.04,0.15523
2023.25,0.15379
2017.47,0.15167
2011.68,0.14745
2005.9,0.14334
2000.11,0.14131
1994.32,0.14067
1988.54,0.14114
1982.75,0.14130
1976.96,0.14144
1971.18,0.14257
1965.39,0.14445
1959.61,0.14639
1953.82,0.14672
1948.03,0.14700
1942.25,0.14805
1936.46,0.14881
1930.67,0.14969
1924.89,0.14978
1919.1,0.14843
1913.32,0.14350
1907.53,0.13672
1901.74,0.13067
1895.96,0.12530
1890.17,0.12124
1884.38,0.11885
1878.6,0.11708
1872.81,0.11610
1867.03,0.11662
1861.24,0.11970
1855.45,0.12644
1849.67,0.13458
1843.88,0.14043
1838.09,0.14384
1832.31,0.14413
1826.52,0.14165
1820.74,0.13742
1814.95,0.13351
1809.16,0.12939
1803.38,0.12558
1797.59,0.12262
1791.8,0.12146
1786.02,0.12122
1780.23,0.12217
1774.45,0.12362
1768.66,0.12677
1762.87,0.12812
1757.09,0.12638
1751.3,0.12048
1745.51,0.10635
1739.73,0.09012
1733.94,0.08013
1728.16,0.07840
1722.37,0.08440
1716.58,0.09109
1710.8,0.09191
1705.01,0.09064
1699.22,0.08705
1693.44,0.08290
1687.65,0.07890
1681.87,0.07460
1676.08,0.07172
1670.29,0.06923
1664.51,0.06590
1658.72,0.06293
1652.93,0.06161
1647.15,0.05970
1641.36,0.05807
1635.58,0.05724
1629.79,0.05682
1624,0.05634
1618.22,0.05592
1612.43,0.05592
1606.64,0.05621
1600.86,0.05643
1595.07,0.05751
1589.29,0.05812
1583.5,0.05886
1577.71,0.05998
1571.93,0.06072
1566.14,0.06148
1560.35,0.06276
1554.57,0.06228
1548.78,0.06237
1543,0.06209
1537.21,0.06021
1531.42,0.05902
1525.64,0.05748
1519.85,0.05688
1514.07,0.05502
1508.28,0.05434
1502.49,0.05218
1496.71,0.05001
1490.92,0.04843
1485.13,0.04651
1479.35,0.04509
1473.56,0.04348
1467.78,0.04154
1461.99,0.03985
1456.2,0.03877
1450.42,0.03830
1444.63,0.03796
1438.84,0.03728
1433.06,0.03628
1427.27,0.03674
1421.49,0.03827
1415.7,0.04005
1409.91,0.04066
1404.13,0.04076
1398.34,0.04091
1392.55,0.04026
1386.77,0.03932
1380.98,0.03791
1375.2,0.03760
1369.41,0.03906
1363.62,0.04073
1357.84,0.04240
1352.05,0.04413
1346.26,0.04512
1340.48,0.04448
1334.69,0.04494
1328.91,0.04612
1323.12,0.04587
1317.33,0.04616
1311.55,0.04944
1305.76,0.05324
1299.97,0.05624
1294.19,0.05713
1288.4,0.05667
1282.62,0.05508
1276.83,0.05725
1271.04,0.05997
1265.26,0.06335
1259.47,0.06763
1253.68,0.07197
1247.9,0.07619
1242.11,0.08148
1236.33,0.08819
1230.54,0.09723
1224.75,0.10532
1218.97,0.10599
1213.18,0.10114
1207.39,0.09330
1201.61,0.08888
1195.82,0.08673
1190.04,0.08604
1184.25,0.08430
1178.46,0.08144
1172.68,0.08025
1166.89,0.07888
1161.1,0.07023
1155.32,0.07144
1149.53,0.07943
1143.75,0.08357
1137.96,0.08525
1132.17,0.08584
1126.39,0.08814
1120.6,0.09097
1114.81,0.09408
1109.03,0.09743
1103.24,0.09962
1097.46,0.10034
1091.67,0.10161
1085.88,0.10246
1080.1,0.10398
1074.31,0.10419
1068.52,0.09821
1062.74,0.08912
1056.95,0.08088
1051.17,0.07471
1045.38,0.06938
1039.59,0.06705
1033.81,0.06775
1028.02,0.06766
1022.24,0.06672
1016.45,0.06582
1010.66,0.06621
1004.88,0.06546
999.09,0.06521
993.304,0.06644
987.518,0.06801
981.731,0.07074
975.945,0.07192
970.159,0.07332
964.373,0.07292
958.586,0.07359
952.8,0.07475
947.014,0.07402
941.228,0.07407
935.441,0.07404
929.655,0.07394
923.869,0.07359
918.083,0.07235
912.297,0.07024
906.51,0.06828
900.724,0.06675
894.938,0.06636
889.152,0.06846
883.365,0.06906
877.579,0.06895
871.793,0.06849
866.007,0.06931
860.22,0.06944
854.434,0.06931
848.648,0.06905
842.862,0.06731
837.075,0.06530
831.289,0.06295
825.503,0.06035
819.717,0.05715
813.931,0.05461
808.144,0.05770
802.358,0.06473
796.572,0.06589
790.786,0.06432
784.999,0.06871
779.213,0.07016
773.427,0.06711
767.641,0.06462
761.854,0.06364
756.068,0.06264
750.282,0.06201
744.496,0.06098
738.709,0.05803
732.923,0.05586
727.137,0.05292
721.351,0.05177
715.565,0.04843
709.778,0.04606
703.992,0.04347
698.206,0.04263
692.42,0.04360
686.633,0.04656
680.847,0.04682
675.061,0.04498
669.275,0.04507
663.488,0.04417
657.702,0.04576
651.916,0.04503
646.13,0.04401
640.343,0.04303
634.557,0.04211
628.771,0.04213
622.985,0.03855
617.198,0.04065
611.412,0.04223
605.626,0.04440
599.84,0.04065