File: 01_Data/Fiber_Cement_Board/FTIR/IS/Fiber_Cement_Board_IS_S_221012_R5.dpt
7497.03,0.51072
7491.25,0.50993
7485.46,0.51641
7479.67,0.51629
7473.89,0.51494
7468.1,0.50679
7462.32,0.50087
7456.53,0.50783
7450.74,0.51341
7444.96,0.50218
7439.17,0.50610
7433.38,0.50545
7427.6,0.50716
7421.81,0.50281
7416.03,0.51277
7410.24,0.50902
7404.45,0.51855
7398.67,0.50695
7392.88,0.51244
7387.09,0.51359
7381.31,0.50079
7375.52,0.51050
7369.74,0.50478
7363.95,0.51096
7358.16,0.50480
7352.38,0.50647
7346.59,0.50214
7340.8,0.51061
7335.02,0.51337
7329.23,0.50851
7323.45,0.50138
7317.66,0.50756
7311.87,0.51229
7306.09,0.51624
7300.3,0.51569
7294.51,0.50405
7288.73,0.50079
7282.94,0.50221
7277.16,0.50635
7271.37,0.49808
7265.58,0.50544
7259.8,0.51229
7254.01,0.49924
7248.22,0.50127
7242.44,0.50278
7236.65,0.51252
7230.87,0.49967
7225.08,0.49544
7219.29,0.50540
7213.51,0.50116
7207.72,0.49818
7201.93,0.50157
7196.15,0.49877
7190.36,0.49857
7184.58,0.50410
7178.79,0.50024
7173,0.50327
7167.22,0.48736
7161.43,0.48706
7155.65,0.49391
7149.86,0.49336
7144.07,0.49745
7138.29,0.49773
7132.5,0.49042
7126.71,0.48597
7120.93,0.49417
7115.14,0.49169
7109.36,0.49038
7103.57,0.49652
7097.78,0.49139
7092,0.49424
7086.21,0.49173
7080.42,0.49074
7074.64,0.48581
7068.85,0.48947
7063.07,0.48886
7057.28,0.48388
7051.49,0.48093
7045.71,0.48590
7039.92,0.48349
7034.13,0.48063
7028.35,0.48745
7022.56,0.48618
7016.78,0.48916
7010.99,0.48421
7005.2,0.47997
6999.42,0.47701
6993.63,0.48402
6987.84,0.48255
6982.06,0.47889
6976.27,0.48228
6970.49,0.47438
6964.7,0.48262
6958.91,0.48394
6953.13,0.48536
6947.34,0.48143
6941.55,0.48371
6935.77,0.47534
6929.98,0.47826
6924.2,0.48215
6918.41,0.48990
6912.62,0.48493
6906.84,0.48217
6901.05,0.48589
6895.26,0.48182
6889.48,0.48308
6883.69,0.48278
6877.91,0.48750
6872.12,0.47952
6866.33,0.48182
6860.55,0.48168
6854.76,0.48257
6848.97,0.48422
6843.19,0.48250
6837.4,0.47943
6831.62,0.48374
6825.83,0.48037
6820.04,0.48008
6814.26,0.48226
6808.47,0.48114
6802.68,0.47905
6796.9,0.48323
6791.11,0.48899
6785.33,0.48345
6779.54,0.48337
6773.75,0.48640
6767.97,0.48895
6762.18,0.48605
6756.39,0.48355
6750.61,0.48721
6744.82,0.48555
6739.04,0.48479
6733.25,0.47858
6727.46,0.47916
6721.68,0.48409
6715.89,0.48296
6710.1,0.47798
6704.32,0.48281
6698.53,0.48474
6692.75,0.48537
6686.96,0.48629
6681.17,0.48113
6675.39,0.48769
6669.6,0.48619
6663.82,0.48443
6658.03,0.48599
6652.24,0.48344
6646.46,0.48649
6640.67,0.48367
6634.88,0.48926
6629.1,0.48086
6623.31,0.47942
6617.53,0.48252
6611.74,0.48114
6605.95,0.48661
6600.17,0.48595
6594.38,0.48657
6588.59,0.49097
6582.81,0.48171
6577.02,0.48337
6571.24,0.49162
6565.45,0.48641
6559.66,0.48397
6553.88,0.48205
6548.09,0.48529
6542.3,0.48634
6536.52,0.48486
6530.73,0.49096
6524.95,0.49068
6519.16,0.48971
6513.37,0.48277
6507.59,0.48610
6501.8,0.48737
6496.01,0.48539
6490.23,0.48694
6484.44,0.48472
6478.66,0.48561
6472.87,0.48515
6467.08,0.49126
6461.3,0.48329
6455.51,0.48924
6449.72,0.48724
6443.94,0.49046
6438.15,0.48627
6432.37,0.48869
6426.58,0.48997
6420.79,0.49138
6415.01,0.49086
6409.22,0.49270
6403.43,0.49453
6397.65,0.48927
6391.86,0.48750
6386.08,0.48958
6380.29,0.49018
6374.5,0.48659
6368.72,0.49247
6362.93,0.49065
6357.14,0.48737
6351.36,0.48671
6345.57,0.48918
6339.79,0.48510
6334,0.48550
6328.21,0.49109
6322.43,0.49233
6316.64,0.49132
6310.85,0.49092
6305.07,0.48877
6299.28,0.48900
6293.5,0.48839
6287.71,0.48688
6281.92,0.48593
6276.14,0.48944
6270.35,0.49023
6264.56,0.49021
6258.78,0.48896
6252.99,0.49201
6247.21,0.49272
6241.42,0.48858
6235.63,0.48933
6229.85,0.48600
6224.06,0.48996
6218.27,0.49030
6212.49,0.48790
6206.7,0.49125
6200.92,0.49471
6195.13,0.48673
6189.34,0.48797
6183.56,0.49145
6177.77,0.49033
6171.98,0.49430
6166.2,0.49440
6160.41,0.49207
6154.63,0.49165
6148.84,0.49090
6143.05,0.49273
6137.27,0.48898
6131.48,0.49142
6125.7,0.49083
6119.91,0.49194
6114.12,0.49190
6108.34,0.49139
6102.55,0.49313
6096.76,0.49174
6090.98,0.49335
6085.19,0.49335
6079.41,0.49074
6073.62,0.49263
6067.83,0.49133
6062.05,0.49225
6056.26,0.49323
6050.47,0.49304
6044.69,0.49477
6038.9,0.49337
6033.12,0.49221
6027.33,0.49226
6021.54,0.49026
6015.76,0.49171
6009.97,0.48980
6004.18,0.49205
5998.4,0.49346
5992.61,0.49069
5986.83,0.48842
5981.04,0.49000
5975.25,0.49056
5969.47,0.48826
5963.68,0.48859
5957.89,0.48876
5952.11,0.48965
5946.32,0.48955
5940.54,0.48963
5934.75,0.48951
5928.96,0.48801
5923.18,0.48752
5917.39,0.49099
5911.6,0.48955
5905.82,0.48900
5900.03,0.49177
5894.25,0.49115
5888.46,0.48948
5882.67,0.48988
5876.89,0.48949
5871.1,0.49023
5865.31,0.48795
5859.53,0.49175
5853.74,0.49026
5847.96,0.49089
5842.17,0.48993
5836.38,0.48859
5830.6,0.48726
5824.81,0.48817
5819.02,0.48751
5813.24,0.48660
5807.45,0.48763
5801.67,0.48807
5795.88,0.48863
5790.09,0.48763
5784.31,0.48656
5778.52,0.48796
5772.73,0.48586
5766.95,0.48601
5761.16,0.48617
5755.38,0.48940
5749.59,0.48798
5743.8,0.48667
5738.02,0.48621
5732.23,0.48534
5726.44,0.48513
5720.66,0.48520
5714.87,0.48488
5709.09,0.48670
5703.3,0.48592
5697.51,0.48335
5691.73,0.48404
5685.94,0.48462
5680.15,0.48644
5674.37,0.48398
5668.58,0.48513
5662.8,0.48319
5657.01,0.48523
5651.22,0.48393
5645.44,0.48414
5639.65,0.48477
5633.87,0.48240
5628.08,0.48515
5622.29,0.48534
5616.51,0.48372
5610.72,0.48247
5604.93,0.48255
5599.15,0.48294
5593.36,0.48244
5587.58,0.48248
5581.79,0.48182
5576,0.48344
5570.22,0.48338
5564.43,0.48241
5558.64,0.48289
5552.86,0.48179
5547.07,0.48123
5541.29,0.48325
5535.5,0.48343
5529.71,0.48408
5523.93,0.48194
5518.14,0.48282
5512.35,0.48105
5506.57,0.48201
5500.78,0.48135
5495,0.48069
5489.21,0.48199
5483.42,0.48217
5477.64,0.48129
5471.85,0.48013
5466.06,0.48086
5460.28,0.48118
5454.49,0.48326
5448.71,0.48159
5442.92,0.48025
5437.13,0.47992
5431.35,0.48049
5425.56,0.47960
5419.77,0.48135
5413.99,0.48247
5408.2,0.48212
5402.42,0.48021
5396.63,0.48037
5390.84,0.48001
5385.06,0.48013
5379.27,0.48092
5373.48,0.47924
5367.7,0.47730
5361.91,0.47878
5356.13,0.47845
5350.34,0.47737
5344.55,0.47662
5338.77,0.47539
5332.98,0.47385
5327.19,0.47337
5321.41,0.47191
5315.62,0.47095
5309.84,0.46993
5304.05,0.46862
5298.26,0.46643
5292.48,0.46190
5286.69,0.46022
5280.9,0.45681
5275.12,0.45396
5269.33,0.45067
5263.55,0.44688
5257.76,0.44353
5251.97,0.43813
5246.19,0.43315
5240.4,0.42895
5234.61,0.42427
5228.83,0.41920
5223.04,0.41526
5217.26,0.41375
5211.47,0.40996
5205.68,0.40759
5199.9,0.40632
5194.11,0.40525
5188.32,0.40635
5182.54,0.40493
5176.75,0.40584
5170.97,0.40716
5165.18,0.40854
5159.39,0.41055
5153.61,0.41236
5147.82,0.41402
5142.03,0.41520
5136.25,0.41800
5130.46,0.41868
5124.68,0.42001
5118.89,0.42203
5113.1,0.42518
5107.32,0.42628
5101.53,0.42686
5095.75,0.42689
5089.96,0.42907
5084.17,0.43056
5078.39,0.43127
5072.6,0.43200
5066.81,0.43338
5061.03,0.43364
5055.24,0.43573
5049.46,0.43684
5043.67,0.43787
5037.88,0.43892
5032.1,0.43982
5026.31,0.44022
5020.52,0.44051
5014.74,0.44190
5008.95,0.44324
5003.17,0.44321
4997.38,0.44429
4991.59,0.44413
4985.81,0.44528
4980.02,0.44499
4974.23,0.44590
4968.45,0.44687
4962.66,0.44680
4956.88,0.44663
4951.09,0.44632
4945.3,0.44661
4939.52,0.44607
4933.73,0.44650
4927.94,0.44589
4922.16,0.44658
4916.37,0.44474
4910.59,0.44492
4904.8,0.44460
4899.01,0.44426
4893.23,0.44352
4887.44,0.44293
4881.65,0.44206
4875.87,0.44048
4870.08,0.43974
4864.3,0.43955
4858.51,0.43914
4852.72,0.43774
4846.94,0.43775
4841.15,0.43779
4835.36,0.43658
4829.58,0.43430
4823.79,0.43399
4818.01,0.43379
4812.22,0.43314
4806.43,0.43288
4800.65,0.43268
4794.86,0.43247
4789.07,0.43130
4783.29,0.43064
4777.5,0.43009
4771.72,0.43129
4765.93,0.43030
4760.14,0.43030
4754.36,0.43054
4748.57,0.43058
4742.78,0.43081
4737,0.43231
4731.21,0.43086
4725.43,0.43220
4719.64,0.43281
4713.85,0.43326
4708.07,0.43258
4702.28,0.43387
4696.49,0.43389
4690.71,0.43479
4684.92,0.43469
4679.14,0.43413
4673.35,0.43451
4667.56,0.43599
4661.78,0.43563
4655.99,0.43622
4650.2,0.43614
4644.42,0.43685
4638.63,0.43664
4632.85,0.43676
4627.06,0.43648
4621.27,0.43648
4615.49,0.43607
4609.7,0.43718
4603.92,0.43680
4598.13,0.43541
4592.34,0.43611
4586.56,0.43585
4580.77,0.43669
4574.98,0.43508
4569.2,0.43589
4563.41,0.43491
4557.63,0.43449
4551.84,0.43415
4546.05,0.43332
4540.27,0.43317
4534.48,0.43319
4528.69,0.43155
4522.91,0.43148
4517.12,0.43149
4511.34,0.43033
4505.55,0.42994
4499.76,0.43034
4493.98,0.42853
4488.19,0.42746
4482.4,0.42729
4476.62,0.42581
4470.83,0.42421
4465.05,0.42373
4459.26,0.42264
4453.47,0.42150
4447.69,0.41889
4441.9,0.41742
4436.11,0.41562
4430.33,0.41405
4424.54,0.41258
4418.76,0.41156
4412.97,0.40944
4407.18,0.40817
4401.4,0.40781
4395.61,0.40728
4389.82,0.40808
4384.04,0.40825
4378.25,0.40903
4372.47,0.41060
4366.68,0.41017
4360.89,0.40937
4355.11,0.40969
4349.32,0.40880
4343.53,0.40788
4337.75,0.40711
4331.96,0.40717
4326.18,0.40585
4320.39,0.40443
4314.6,0.40333
4308.82,0.40219
4303.03,0.40219
4297.24,0.40088
4291.46,0.40018
4285.67,0.39889
4279.89,0.39816
4274.1,0.39712
4268.31,0.39622
4262.53,0.39503
4256.74,0.39466
4250.95,0.39346
4245.17,0.39316
4239.38,0.39216
4233.6,0.39245
4227.81,0.39160
4222.02,0.39050
4216.24,0.38958
4210.45,0.38930
4204.66,0.38805
4198.88,0.38735
4193.09,0.38719
4187.31,0.38650
4181.52,0.38552
4175.73,0.38399
4169.95,0.38271
4164.16,0.38178
4158.37,0.38071
4152.59,0.37929
4146.8,0.37815
4141.02,0.37631
4135.23,0.37489
4129.44,0.37310
4123.66,0.37081
4117.87,0.36957
4112.09,0.36747
4106.3,0.36515
4100.51,0.36268
4094.73,0.35950
4088.94,0.35665
4083.15,0.35457
4077.37,0.35148
4071.58,0.34876
4065.8,0.34601
4060.01,0.34286
4054.22,0.33970
4048.44,0.33749
4042.65,0.33470
4036.86,0.33211
4031.08,0.33036
4025.29,0.32976
4019.51,0.32875
4013.72,0.32884
4007.93,0.32859
4002.15,0.32874
3996.36,0.32910
3990.57,0.32959
3984.79,0.32976
3979,0.32948
3973.22,0.33007
3967.43,0.33025
3961.64,0.33004
3955.86,0.33025
3950.07,0.33034
3944.28,0.33009
3938.5,0.33076
3932.71,0.33159
3926.93,0.33122
3921.14,0.33183
3915.35,0.33187
3909.57,0.33193
3903.78,0.33202
3897.99,0.33084
3892.21,0.33104
3886.42,0.33198
3880.64,0.33110
3874.85,0.33078
3869.06,0.33093
3863.28,0.33073
3857.49,0.33015
3851.7,0.32967
3845.92,0.32967
3840.13,0.32964
3834.35,0.32870
3828.56,0.32677
3822.77,0.32602
3816.99,0.32424
3811.2,0.32247
3805.41,0.32112
3799.63,0.31891
3793.84,0.31696
3788.06,0.31537
3782.27,0.31302
3776.48,0.31016
3770.7,0.30744
3764.91,0.30463
3759.12,0.30128
3753.34,0.29765
3747.55,0.29431
3741.77,0.28851
3735.98,0.28212
3730.19,0.27549
3724.41,0.26812
3718.62,0.25934
3712.83,0.24874
3707.05,0.23432
3701.26,0.21620
3695.48,0.20069
3689.69,0.19055
3683.9,0.17983
3678.12,0.16598
3672.33,0.15038
3666.54,0.13760
3660.76,0.12761
3654.97,0.11925
3649.19,0.11163
3643.4,0.10477
3637.61,0.09929
3631.83,0.09330
3626.04,0.08811
3620.25,0.08377
3614.47,0.08032
3608.68,0.07724
3602.9,0.07389
3597.11,0.07156
3591.32,0.06951
3585.54,0.06657
3579.75,0.06458
3573.97,0.06285
3568.18,0.06145
3562.39,0.05988
3556.61,0.05764
3550.82,0.05627
3545.03,0.05495
3539.25,0.05371
3533.46,0.05216
3527.68,0.05152
3521.89,0.05081
3516.1,0.04910
3510.32,0.04851
3504.53,0.04742
3498.74,0.04627
3492.96,0.04572
3487.17,0.04541
3481.39,0.04478
3475.6,0.04436
3469.81,0.04365
3464.03,0.04266
3458.24,0.04220
3452.45,0.04235
3446.67,0.04243
3440.88,0.04173
3435.1,0.04114
3429.31,0.04176
3423.52,0.04093
3417.74,0.04139
3411.95,0.04167
3406.16,0.04082
3400.38,0.04088
3394.59,0.04094
3388.81,0.04111
3383.02,0.04133
3377.23,0.04098
3371.45,0.04117
3365.66,0.04112
3359.87,0.04148
3354.09,0.04241
3348.3,0.04131
3342.52,0.04268
3336.73,0.04301
3330.94,0.04386
3325.16,0.04491
3319.37,0.04488
3313.58,0.04492
3307.8,0.04583
3302.01,0.04566
3296.23,0.04639
3290.44,0.04661
3284.65,0.04762
3278.87,0.04776
3273.08,0.04862
3267.29,0.04968
3261.51,0.05188
3255.72,0.05277
3249.94,0.05333
3244.15,0.05412
3238.36,0.05511
3232.58,0.05607
3226.79,0.05690
3221,0.05785
3215.22,0.05899
3209.43,0.05971
3203.65,0.06098
3197.86,0.06249
3192.07,0.06306
3186.29,0.06438
3180.5,0.06565
3174.71,0.06677
3168.93,0.06792
3163.14,0.06988
3157.36,0.07066
3151.57,0.07183
3145.78,0.07279
3140,0.07433
3134.21,0.07616
3128.42,0.07737
3122.64,0.07861
3116.85,0.07992
3111.07,0.08112
3105.28,0.08198
3099.49,0.08366
3093.71,0.08496
3087.92,0.08608
3082.14,0.08724
3076.35,0.08864
3070.56,0.09022
3064.78,0.09073
3058.99,0.09159
3053.2,0.09382
3047.42,0.09509
3041.63,0.09662
3035.85,0.09667
3030.06,0.09583
3024.27,0.09605
3018.49,0.09876
3012.7,0.10082
3006.91,0.09959
3001.13,0.10006
2995.34,0.09915
2989.56,0.09834
2983.77,0.09683
2977.98,0.09400
2972.2,0.08911
2966.41,0.08539
2960.62,0.08344
2954.84,0.08182
2949.05,0.07963
2943.27,0.07900
2937.48,0.07848
2931.69,0.07799
2925.91,0.07682
2920.12,0.07629
2914.33,0.07623
2908.55,0.07576
2902.76,0.07612
2896.98,0.07808
2891.19,0.07994
2885.4,0.08205
2879.62,0.08341
2873.83,0.08420
2868.04,0.08590
2862.26,0.08799
2856.47,0.09039
2850.69,0.09454
2844.9,0.09968
2839.11,0.10435
2833.33,0.10922
2827.54,0.11320
2821.75,0.11626
2815.97,0.11979
2810.18,0.12349
2804.4,0.12639
2798.61,0.12807
2792.82,0.13059
2787.04,0.13188
2781.25,0.13304
2775.46,0.13462
2769.68,0.13583
2763.89,0.13710
2758.11,0.13790
2752.32,0.13925
2746.53,0.13999
2740.75,0.14050
2734.96,0.14130
2729.17,0.14322
2723.39,0.14394
2717.6,0.14535
2711.82,0.14732
2706.03,0.14956
2700.24,0.15182
2694.46,0.15363
2688.67,0.15600
2682.88,0.15734
2677.1,0.15917
2671.31,0.16132
2665.53,0.16283
2659.74,0.16419
2653.95,0.16540
2648.17,0.16735
2642.38,0.16905
2636.59,0.17033
2630.81,0.17204
2625.02,0.17329
2619.24,0.17490
2613.45,0.17607
2607.66,0.17685
2601.88,0.17804
2596.09,0.17954
2590.3,0.18009
2584.52,0.18133
2578.73,0.18265
2572.95,0.18216
2567.16,0.18293
2561.37,0.18333
2555.59,0.18356
2549.8,0.18311
2544.02,0.18346
2538.23,0.18350
2532.44,0.18391
2526.66,0.18481
2520.87,0.18567
2515.08,0.18596
2509.3,0.18689
2503.51,0.18880
2497.73,0.19028
2491.94,0.19199
2486.15,0.19294
2480.37,0.19406
2474.58,0.19496
2468.79,0.19598
2463.01,0.19676
2457.22,0.19748
2451.44,0.19820
2445.65,0.19893
2439.86,0.19960
2434.08,0.20063
2428.29,0.20124
2422.5,0.20220
2416.72,0.20207
2410.93,0.20298
2405.15,0.20287
2399.36,0.20297
2393.57,0.20308
2387.79,0.20285
2382,0.20301
2376.21,0.20343
2370.43,0.20385
2364.64,0.20357
2358.86,0.20373
2353.07,0.20293
2347.28,0.20280
2341.5,0.20280
2335.71,0.20246
2329.92,0.20240
2324.14,0.20185
2318.35,0.20133
2312.57,0.20072
2306.78,0.20027
2300.99,0.19948
2295.21,0.19871
2289.42,0.19741
2283.63,0.19625
2277.85,0.19538
2272.06,0.19384
2266.28,0.19256
2260.49,0.19090
2254.7,0.18956
2248.92,0.18830
2243.13,0.18725
2237.34,0.18637
2231.56,0.18627
2225.77,0.18652
2219.99,0.18723
2214.2,0.18845
2208.41,0.18912
2202.63,0.18946
2196.84,0.18957
2191.05,0.18870
2185.27,0.18801
2179.48,0.18681
2173.7,0.18553
2167.91,0.18401
2162.12,0.18278
2156.34,0.18117
2150.55,0.17985
2144.76,0.17819
2138.98,0.17725
2133.19,0.17692
2127.41,0.17780
2121.62,0.17853
2115.83,0.17909
2110.05,0.17937
2104.26,0.17961
2098.47,0.17976
2092.69,0.17950
2086.9,0.17980
2081.12,0.17947
2075.33,0.17815
2069.54,0.17677
2063.76,0.17552
2057.97,0.17407
2052.19,0.17194
2046.4,0.16872
2040.61,0.16358
2034.83,0.15827
2029.04,0.15510
2023.25,0.15364
2017.47,0.15130
2011.68,0.14704
2005.9,0.14275
2000.11,0.14085
1994.32,0.14030
1988.54,0.14102
1982.75,0.14123
1976.96,0.14147
1971.18,0.14243
1965.39,0.14413
1959.61,0.14595
1953.82,0.14664
1948.03,0.14685
1942.25,0.14774
1936.46,0.14846
1930.67,0.14956
1924.89,0.14954
1919.1,0.14784
1913.32,0.14328
1907.53,0.13647
1901.74,0.12994
1895.96,0.12523
1890.17,0.12112
1884.38,0.11838
1878.6,0.11663
1872.81,0.11584
1867.03,0.11616
1861.24,0.11963
1855.45,0.12612
1849.67,0.13413
1843.88,0.14065
1838.09,0.14359
1832.31,0.14394
1826.52,0.14123
1820.74,0.13742
1814.95,0.13311
1809.16,0.12898
1803.38,0.12515
1797.59,0.12206
1791.8,0.12092
1786.02,0.12124
1780.23,0.12176
1774.45,0.12390
1768.66,0.12654
1762.87,0.12772
1757.09,0.12647
1751.3,0.12033
1745.51,0.10628
1739.73,0.08960
1733.94,0.07954
1728.16,0.07851
1722.37,0.08457
1716.58,0.09122
1710.8,0.09199
1705.01,0.09005
1699.22,0.08620
1693.44,0.08208
1687.65,0.07825
1681.87,0.07432
1676.08,0.07134
1670.29,0.06830
1664.51,0.06572
1658.72,0.06292
1652.93,0.06110
1647.15,0.05942
1641.36,0.05795
1635.58,0.05713
1629.79,0.05642
1624,0.05614
1618.22,0.05580
1612.43,0.05593
1606.64,0.05620
1600.86,0.05609
1595.07,0.05789
1589.29,0.05833
1583.5,0.05883
1577.71,0.05989
1571.93,0.06059
1566.14,0.06162
1560.35,0.06273
1554.57,0.06224
1548.78,0.06216
1543,0.06201
1537.21,0.06056
1531.42,0.05875
1525.64,0.05767
1519.85,0.05672
1514.07,0.05487
1508.28,0.05441
1502.49,0.05242
1496.71,0.04994
1490.92,0.04851
1485.13,0.04676
1479.35,0.04512
1473.56,0.04348
1467.78,0.04174
1461.99,0.04029
1456.2,0.03867
1450.42,0.03827
1444.63,0.03782
1438.84,0.03700
1433.06,0.03627
1427.27,0.03686
1421.49,0.03845
1415.7,0.03996
1409.91,0.04051
1404.13,0.04043
1398.34,0.04034
1392.55,0.04002
1386.77,0.03894
1380.98,0.03783
1375.2,0.03799
1369.41,0.03904
1363.62,0.04068
1357.84,0.04232
1352.05,0.04399
1346.26,0.04486
1340.48,0.04457
1334.69,0.04475
1328.91,0.04624
1323.12,0.04584
1317.33,0.04654
1311.55,0.04935
1305.76,0.05322
1299.97,0.05668
1294.19,0.05718
1288.4,0.05632
1282.62,0.05508
1276.83,0.05718
1271.04,0.06038
1265.26,0.06362
1259.47,0.06716
1253.68,0.07211
1247.9,0.07608
1242.11,0.08147
1236.33,0.08848
1230.54,0.09742
1224.75,0.10511
1218.97,0.10608
1213.18,0.10136
1207.39,0.09324
1201.61,0.08907
1195.82,0.08678
1190.04,0.08570
1184.25,0.08385
1178.46,0.08143
1172.68,0.08031
1166.89,0.07905
1161.1,0.06963
1155.32,0.07192
1149.53,0.07966
1143.75,0.08382
1137.96,0.08552
1132.17,0.08631
1126.39,0.08759
1120.6,0.09077
1114.81,0.09376
1109.03,0.09729
1103.24,0.09843
1097.46,0.10027
1091.67,0.10105
1085.88,0.10298
1080.1,0.10369
1074.31,0.10384
1068.52,0.09765
1062.74,0.08954
1056.95,0.08092
1051.17,0.07365
1045.38,0.06860
1039.59,0.06749
1033.81,0.06911
1028.02,0.06781
1022.24,0.06660
1016.45,0.06606
1010.66,0.06595
1004.88,0.06546
999.09,0.06585
993.304,0.06700
987.518,0.06863
981.731,0.07092
975.945,0.07262
970.159,0.07253
964.373,0.07371
958.586,0.07412
952.8,0.07470
947.014,0.07445
941.228,0.07416
935.441,0.07429
929.655,0.07412
923.869,0.07368
918.083,0.07256
912.297,0.06967
906.51,0.06775
900.724,0.06668
894.938,0.06552
889.152,0.06767
883.365,0.06896
877.579,0.06949
871.793,0.06920
866.007,0.06893
860.22,0.06921
854.434,0.06961
848.648,0.06876
842.862,0.06765
837.075,0.06602
831.289,0.06284
825.503,0.06020
819.717,0.05586
813.931,0.05371
808.144,0.05733
802.358,0.06498
796.572,0.06546
790.786,0.06408
784.999,0.06844
779.213,0.07027
773.427,0.06596
767.641,0.06421
761.854,0.06306
756.068,0.06218
750.282,0.06151
744.496,0.06084
738.709,0.05840
732.923,0.05561
727.137,0.05287
721.351,0.05141
715.565,0.04970
709.778,0.04630
703.992,0.04297
698.206,0.04172
692.42,0.04423
686.633,0.04612
680.847,0.04543
675.061,0.04630
669.275,0.04639
663.488,0.04586
657.702,0.04461
651.916,0.04487
646.13,0.04433
640.343,0.04250
634.557,0.04260
628.771,0.04209
622.985,0.03988
617.198,0.03965
611.412,0.03957
605.626,0.04546
599.84,0.04222