File: 01_Data/Fiber_Cement_Board/FTIR/IS/Fiber_Cement_Board_IS_S_221012_R8.dpt
7497.03,0.51009
7491.25,0.51619
7485.46,0.51277
7479.67,0.51153
7473.89,0.51057
7468.1,0.51137
7462.32,0.51058
7456.53,0.51396
7450.74,0.51016
7444.96,0.51106
7439.17,0.49724
7433.38,0.51049
7427.6,0.49896
7421.81,0.50552
7416.03,0.50378
7410.24,0.50076
7404.45,0.50551
7398.67,0.50424
7392.88,0.50735
7387.09,0.50106
7381.31,0.50546
7375.52,0.50933
7369.74,0.50982
7363.95,0.50382
7358.16,0.49979
7352.38,0.50932
7346.59,0.49707
7340.8,0.50476
7335.02,0.50675
7329.23,0.49888
7323.45,0.49380
7317.66,0.50113
7311.87,0.51364
7306.09,0.50520
7300.3,0.50666
7294.51,0.50587
7288.73,0.49767
7282.94,0.49174
7277.16,0.49941
7271.37,0.49862
7265.58,0.50421
7259.8,0.50681
7254.01,0.50033
7248.22,0.50399
7242.44,0.49744
7236.65,0.50077
7230.87,0.50464
7225.08,0.49752
7219.29,0.50819
7213.51,0.50339
7207.72,0.49752
7201.93,0.49497
7196.15,0.50192
7190.36,0.50258
7184.58,0.48821
7178.79,0.50783
7173,0.50408
7167.22,0.49541
7161.43,0.49015
7155.65,0.49488
7149.86,0.49510
7144.07,0.50145
7138.29,0.49006
7132.5,0.48876
7126.71,0.49150
7120.93,0.48613
7115.14,0.49564
7109.36,0.49573
7103.57,0.49066
7097.78,0.48399
7092,0.48561
7086.21,0.49680
7080.42,0.49420
7074.64,0.48595
7068.85,0.49102
7063.07,0.49181
7057.28,0.48664
7051.49,0.48739
7045.71,0.47877
7039.92,0.48192
7034.13,0.47994
7028.35,0.48197
7022.56,0.48538
7016.78,0.48482
7010.99,0.48645
7005.2,0.48452
6999.42,0.48381
6993.63,0.48033
6987.84,0.47995
6982.06,0.48467
6976.27,0.48299
6970.49,0.47890
6964.7,0.48341
6958.91,0.48609
6953.13,0.47133
6947.34,0.47533
6941.55,0.48377
6935.77,0.48522
6929.98,0.48089
6924.2,0.48496
6918.41,0.48307
6912.62,0.48448
6906.84,0.48216
6901.05,0.48117
6895.26,0.48501
6889.48,0.48051
6883.69,0.47667
6877.91,0.48443
6872.12,0.48327
6866.33,0.47804
6860.55,0.48368
6854.76,0.48281
6848.97,0.48199
6843.19,0.48808
6837.4,0.48408
6831.62,0.48101
6825.83,0.48007
6820.04,0.48552
6814.26,0.48065
6808.47,0.48278
6802.68,0.48322
6796.9,0.48502
6791.11,0.48700
6785.33,0.48299
6779.54,0.48658
6773.75,0.48545
6767.97,0.48479
6762.18,0.48147
6756.39,0.48184
6750.61,0.48827
6744.82,0.48254
6739.04,0.48444
6733.25,0.48820
6727.46,0.48387
6721.68,0.48389
6715.89,0.48289
6710.1,0.48861
6704.32,0.48414
6698.53,0.48302
6692.75,0.48466
6686.96,0.48268
6681.17,0.48547
6675.39,0.48404
6669.6,0.48957
6663.82,0.48696
6658.03,0.49172
6652.24,0.48079
6646.46,0.48849
6640.67,0.48791
6634.88,0.48185
6629.1,0.48579
6623.31,0.48893
6617.53,0.48866
6611.74,0.48735
6605.95,0.48731
6600.17,0.48803
6594.38,0.48762
6588.59,0.48453
6582.81,0.48750
6577.02,0.48913
6571.24,0.48931
6565.45,0.48911
6559.66,0.48607
6553.88,0.48760
6548.09,0.49035
6542.3,0.49184
6536.52,0.49341
6530.73,0.48993
6524.95,0.48427
6519.16,0.48691
6513.37,0.48907
6507.59,0.49057
6501.8,0.48466
6496.01,0.48656
6490.23,0.48875
6484.44,0.48847
6478.66,0.48732
6472.87,0.48603
6467.08,0.48666
6461.3,0.48778
6455.51,0.48846
6449.72,0.48839
6443.94,0.49219
6438.15,0.49152
6432.37,0.49118
6426.58,0.48821
6420.79,0.48488
6415.01,0.48920
6409.22,0.48694
6403.43,0.48771
6397.65,0.48686
6391.86,0.48810
6386.08,0.48784
6380.29,0.48964
6374.5,0.48961
6368.72,0.48785
6362.93,0.49024
6357.14,0.48878
6351.36,0.48750
6345.57,0.48990
6339.79,0.48842
6334,0.48745
6328.21,0.49075
6322.43,0.48969
6316.64,0.49035
6310.85,0.48961
6305.07,0.49160
6299.28,0.49159
6293.5,0.48706
6287.71,0.48666
6281.92,0.48964
6276.14,0.48788
6270.35,0.48734
6264.56,0.48840
6258.78,0.48820
6252.99,0.48705
6247.21,0.49035
6241.42,0.49427
6235.63,0.49342
6229.85,0.49253
6224.06,0.48970
6218.27,0.49149
6212.49,0.49046
6206.7,0.48912
6200.92,0.48972
6195.13,0.49463
6189.34,0.49353
6183.56,0.49190
6177.77,0.49168
6171.98,0.48955
6166.2,0.49188
6160.41,0.49266
6154.63,0.49089
6148.84,0.48973
6143.05,0.49008
6137.27,0.49349
6131.48,0.49194
6125.7,0.49371
6119.91,0.49169
6114.12,0.48930
6108.34,0.49291
6102.55,0.49297
6096.76,0.49066
6090.98,0.49259
6085.19,0.48972
6079.41,0.49180
6073.62,0.49253
6067.83,0.49105
6062.05,0.49267
6056.26,0.49003
6050.47,0.49438
6044.69,0.48850
6038.9,0.49231
6033.12,0.49353
6027.33,0.49296
6021.54,0.49292
6015.76,0.49101
6009.97,0.49210
6004.18,0.49446
5998.4,0.49137
5992.61,0.49024
5986.83,0.49104
5981.04,0.48859
5975.25,0.49103
5969.47,0.48778
5963.68,0.49038
5957.89,0.48956
5952.11,0.49123
5946.32,0.48890
5940.54,0.49027
5934.75,0.49078
5928.96,0.49143
5923.18,0.48847
5917.39,0.48851
5911.6,0.49312
5905.82,0.49160
5900.03,0.48985
5894.25,0.48839
5888.46,0.48926
5882.67,0.49257
5876.89,0.48996
5871.1,0.49004
5865.31,0.48673
5859.53,0.48966
5853.74,0.49075
5847.96,0.48730
5842.17,0.49015
5836.38,0.49100
5830.6,0.48882
5824.81,0.48644
5819.02,0.48602
5813.24,0.48800
5807.45,0.48817
5801.67,0.48897
5795.88,0.48661
5790.09,0.48660
5784.31,0.48955
5778.52,0.48808
5772.73,0.48594
5766.95,0.48697
5761.16,0.48637
5755.38,0.48778
5749.59,0.48681
5743.8,0.48798
5738.02,0.48652
5732.23,0.48762
5726.44,0.48676
5720.66,0.48671
5714.87,0.48642
5709.09,0.48626
5703.3,0.48538
5697.51,0.48742
5691.73,0.48663
5685.94,0.48725
5680.15,0.48463
5674.37,0.48423
5668.58,0.48417
5662.8,0.48442
5657.01,0.48265
5651.22,0.48299
5645.44,0.48404
5639.65,0.48797
5633.87,0.48390
5628.08,0.48347
5622.29,0.48417
5616.51,0.48344
5610.72,0.48603
5604.93,0.48668
5599.15,0.48493
5593.36,0.48233
5587.58,0.48321
5581.79,0.48232
5576,0.48418
5570.22,0.48261
5564.43,0.48591
5558.64,0.48457
5552.86,0.48169
5547.07,0.48339
5541.29,0.48258
5535.5,0.48172
5529.71,0.48314
5523.93,0.48347
5518.14,0.48306
5512.35,0.48465
5506.57,0.47988
5500.78,0.48183
5495,0.48184
5489.21,0.48241
5483.42,0.48350
5477.64,0.47955
5471.85,0.48054
5466.06,0.48198
5460.28,0.48009
5454.49,0.48127
5448.71,0.48135
5442.92,0.47969
5437.13,0.48055
5431.35,0.48178
5425.56,0.48156
5419.77,0.48119
5413.99,0.48081
5408.2,0.48179
5402.42,0.48032
5396.63,0.47912
5390.84,0.48115
5385.06,0.48099
5379.27,0.48022
5373.48,0.47971
5367.7,0.47923
5361.91,0.47969
5356.13,0.47824
5350.34,0.47842
5344.55,0.47636
5338.77,0.47610
5332.98,0.47544
5327.19,0.47471
5321.41,0.47412
5315.62,0.47180
5309.84,0.46960
5304.05,0.46876
5298.26,0.46677
5292.48,0.46530
5286.69,0.46233
5280.9,0.45904
5275.12,0.45703
5269.33,0.45262
5263.55,0.44855
5257.76,0.44426
5251.97,0.43879
5246.19,0.43429
5240.4,0.42945
5234.61,0.42497
5228.83,0.42191
5223.04,0.41840
5217.26,0.41388
5211.47,0.41059
5205.68,0.40754
5199.9,0.40692
5194.11,0.40639
5188.32,0.40628
5182.54,0.40603
5176.75,0.40707
5170.97,0.40903
5165.18,0.41016
5159.39,0.41214
5153.61,0.41285
5147.82,0.41533
5142.03,0.41771
5136.25,0.41810
5130.46,0.41930
5124.68,0.42226
5118.89,0.42288
5113.1,0.42438
5107.32,0.42633
5101.53,0.42724
5095.75,0.42926
5089.96,0.43061
5084.17,0.43118
5078.39,0.43290
5072.6,0.43407
5066.81,0.43519
5061.03,0.43596
5055.24,0.43664
5049.46,0.43774
5043.67,0.43878
5037.88,0.44012
5032.1,0.44088
5026.31,0.44173
5020.52,0.44196
5014.74,0.44426
5008.95,0.44251
5003.17,0.44555
4997.38,0.44458
4991.59,0.44486
4985.81,0.44564
4980.02,0.44605
4974.23,0.44616
4968.45,0.44752
4962.66,0.44826
4956.88,0.44800
4951.09,0.44713
4945.3,0.44705
4939.52,0.44648
4933.73,0.44726
4927.94,0.44708
4922.16,0.44611
4916.37,0.44588
4910.59,0.44587
4904.8,0.44531
4899.01,0.44484
4893.23,0.44495
4887.44,0.44295
4881.65,0.44205
4875.87,0.44198
4870.08,0.44086
4864.3,0.44010
4858.51,0.44081
4852.72,0.43939
4846.94,0.43893
4841.15,0.43913
4835.36,0.43644
4829.58,0.43650
4823.79,0.43495
4818.01,0.43477
4812.22,0.43490
4806.43,0.43359
4800.65,0.43121
4794.86,0.43280
4789.07,0.43242
4783.29,0.43283
4777.5,0.43262
4771.72,0.43112
4765.93,0.43111
4760.14,0.43061
4754.36,0.43057
4748.57,0.43059
4742.78,0.43049
4737,0.43211
4731.21,0.43269
4725.43,0.43349
4719.64,0.43265
4713.85,0.43278
4708.07,0.43408
4702.28,0.43563
4696.49,0.43498
4690.71,0.43567
4684.92,0.43544
4679.14,0.43627
4673.35,0.43567
4667.56,0.43487
4661.78,0.43624
4655.99,0.43653
4650.2,0.43685
4644.42,0.43768
4638.63,0.43719
4632.85,0.43758
4627.06,0.43747
4621.27,0.43807
4615.49,0.43756
4609.7,0.43707
4603.92,0.43709
4598.13,0.43675
4592.34,0.43721
4586.56,0.43686
4580.77,0.43671
4574.98,0.43653
4569.2,0.43584
4563.41,0.43496
4557.63,0.43514
4551.84,0.43490
4546.05,0.43568
4540.27,0.43380
4534.48,0.43297
4528.69,0.43323
4522.91,0.43226
4517.12,0.43259
4511.34,0.43113
4505.55,0.43104
4499.76,0.42997
4493.98,0.43006
4488.19,0.42949
4482.4,0.42892
4476.62,0.42661
4470.83,0.42551
4465.05,0.42492
4459.26,0.42292
4453.47,0.42141
4447.69,0.41954
4441.9,0.41823
4436.11,0.41663
4430.33,0.41496
4424.54,0.41402
4418.76,0.41252
4412.97,0.41052
4407.18,0.40969
4401.4,0.40863
4395.61,0.40851
4389.82,0.40852
4384.04,0.40952
4378.25,0.40996
4372.47,0.41024
4366.68,0.41080
4360.89,0.41060
4355.11,0.41011
4349.32,0.40899
4343.53,0.40847
4337.75,0.40761
4331.96,0.40753
4326.18,0.40612
4320.39,0.40606
4314.6,0.40553
4308.82,0.40389
4303.03,0.40312
4297.24,0.40249
4291.46,0.40136
4285.67,0.39957
4279.89,0.39801
4274.1,0.39695
4268.31,0.39660
4262.53,0.39618
4256.74,0.39533
4250.95,0.39478
4245.17,0.39392
4239.38,0.39259
4233.6,0.39234
4227.81,0.39155
4222.02,0.39140
4216.24,0.39098
4210.45,0.38962
4204.66,0.38963
4198.88,0.38851
4193.09,0.38847
4187.31,0.38746
4181.52,0.38632
4175.73,0.38530
4169.95,0.38389
4164.16,0.38315
4158.37,0.38197
4152.59,0.38056
4146.8,0.37885
4141.02,0.37809
4135.23,0.37645
4129.44,0.37461
4123.66,0.37220
4117.87,0.37031
4112.09,0.36795
4106.3,0.36618
4100.51,0.36388
4094.73,0.36036
4088.94,0.35728
4083.15,0.35509
4077.37,0.35241
4071.58,0.34995
4065.8,0.34713
4060.01,0.34370
4054.22,0.34041
4048.44,0.33793
4042.65,0.33538
4036.86,0.33317
4031.08,0.33131
4025.29,0.33013
4019.51,0.33011
4013.72,0.32975
4007.93,0.32958
4002.15,0.33011
3996.36,0.33026
3990.57,0.33100
3984.79,0.33012
3979,0.33008
3973.22,0.33068
3967.43,0.33069
3961.64,0.33145
3955.86,0.33157
3950.07,0.33164
3944.28,0.33116
3938.5,0.33210
3932.71,0.33250
3926.93,0.33230
3921.14,0.33283
3915.35,0.33309
3909.57,0.33293
3903.78,0.33228
3897.99,0.33246
3892.21,0.33259
3886.42,0.33273
3880.64,0.33183
3874.85,0.33105
3869.06,0.33109
3863.28,0.33133
3857.49,0.33177
3851.7,0.33101
3845.92,0.33064
3840.13,0.33012
3834.35,0.32867
3828.56,0.32845
3822.77,0.32684
3816.99,0.32584
3811.2,0.32321
3805.41,0.32164
3799.63,0.31991
3793.84,0.31800
3788.06,0.31685
3782.27,0.31428
3776.48,0.31101
3770.7,0.30890
3764.91,0.30593
3759.12,0.30254
3753.34,0.29834
3747.55,0.29337
3741.77,0.28858
3735.98,0.28376
3730.19,0.27633
3724.41,0.26954
3718.62,0.26043
3712.83,0.24887
3707.05,0.23525
3701.26,0.21685
3695.48,0.20097
3689.69,0.19106
3683.9,0.17981
3678.12,0.16634
3672.33,0.15076
3666.54,0.13756
3660.76,0.12818
3654.97,0.11945
3649.19,0.11245
3643.4,0.10576
3637.61,0.09943
3631.83,0.09429
3626.04,0.08917
3620.25,0.08452
3614.47,0.08125
3608.68,0.07777
3602.9,0.07452
3597.11,0.07171
3591.32,0.06954
3585.54,0.06705
3579.75,0.06505
3573.97,0.06283
3568.18,0.06121
3562.39,0.05977
3556.61,0.05868
3550.82,0.05658
3545.03,0.05494
3539.25,0.05412
3533.46,0.05284
3527.68,0.05267
3521.89,0.05077
3516.1,0.04966
3510.32,0.04950
3504.53,0.04764
3498.74,0.04663
3492.96,0.04619
3487.17,0.04545
3481.39,0.04477
3475.6,0.04376
3469.81,0.04315
3464.03,0.04331
3458.24,0.04290
3452.45,0.04275
3446.67,0.04234
3440.88,0.04161
3435.1,0.04211
3429.31,0.04161
3423.52,0.04098
3417.74,0.04176
3411.95,0.04104
3406.16,0.04141
3400.38,0.04093
3394.59,0.04110
3388.81,0.04114
3383.02,0.04165
3377.23,0.04148
3371.45,0.04126
3365.66,0.04193
3359.87,0.04251
3354.09,0.04190
3348.3,0.04224
3342.52,0.04282
3336.73,0.04406
3330.94,0.04456
3325.16,0.04478
3319.37,0.04513
3313.58,0.04530
3307.8,0.04579
3302.01,0.04595
3296.23,0.04730
3290.44,0.04677
3284.65,0.04714
3278.87,0.04789
3273.08,0.04855
3267.29,0.05013
3261.51,0.05133
3255.72,0.05165
3249.94,0.05359
3244.15,0.05455
3238.36,0.05539
3232.58,0.05654
3226.79,0.05759
3221,0.05764
3215.22,0.05920
3209.43,0.06054
3203.65,0.06117
3197.86,0.06223
3192.07,0.06380
3186.29,0.06477
3180.5,0.06580
3174.71,0.06721
3168.93,0.06849
3163.14,0.07038
3157.36,0.07145
3151.57,0.07191
3145.78,0.07365
3140,0.07431
3134.21,0.07721
3128.42,0.07830
3122.64,0.07959
3116.85,0.08045
3111.07,0.08146
3105.28,0.08338
3099.49,0.08418
3093.71,0.08562
3087.92,0.08638
3082.14,0.08801
3076.35,0.08949
3070.56,0.09123
3064.78,0.09158
3058.99,0.09239
3053.2,0.09462
3047.42,0.09600
3041.63,0.09728
3035.85,0.09745
3030.06,0.09695
3024.27,0.09724
3018.49,0.09969
3012.7,0.10071
3006.91,0.10082
3001.13,0.10003
2995.34,0.09945
2989.56,0.09851
2983.77,0.09754
2977.98,0.09426
2972.2,0.09005
2966.41,0.08589
2960.62,0.08427
2954.84,0.08200
2949.05,0.08009
2943.27,0.07942
2937.48,0.07863
2931.69,0.07762
2925.91,0.07712
2920.12,0.07649
2914.33,0.07605
2908.55,0.07575
2902.76,0.07622
2896.98,0.07806
2891.19,0.07990
2885.4,0.08250
2879.62,0.08435
2873.83,0.08423
2868.04,0.08632
2862.26,0.08855
2856.47,0.09055
2850.69,0.09505
2844.9,0.09990
2839.11,0.10465
2833.33,0.10967
2827.54,0.11355
2821.75,0.11738
2815.97,0.12049
2810.18,0.12369
2804.4,0.12628
2798.61,0.12866
2792.82,0.13084
2787.04,0.13263
2781.25,0.13369
2775.46,0.13469
2769.68,0.13668
2763.89,0.13712
2758.11,0.13809
2752.32,0.13960
2746.53,0.14034
2740.75,0.14104
2734.96,0.14205
2729.17,0.14328
2723.39,0.14467
2717.6,0.14601
2711.82,0.14773
2706.03,0.15018
2700.24,0.15229
2694.46,0.15393
2688.67,0.15616
2682.88,0.15783
2677.1,0.15984
2671.31,0.16166
2665.53,0.16313
2659.74,0.16478
2653.95,0.16625
2648.17,0.16765
2642.38,0.16987
2636.59,0.17101
2630.81,0.17252
2625.02,0.17450
2619.24,0.17536
2613.45,0.17682
2607.66,0.17742
2601.88,0.17861
2596.09,0.17986
2590.3,0.18093
2584.52,0.18192
2578.73,0.18252
2572.95,0.18329
2567.16,0.18303
2561.37,0.18368
2555.59,0.18379
2549.8,0.18381
2544.02,0.18417
2538.23,0.18420
2532.44,0.18470
2526.66,0.18521
2520.87,0.18578
2515.08,0.18634
2509.3,0.18760
2503.51,0.18919
2497.73,0.19112
2491.94,0.19190
2486.15,0.19309
2480.37,0.19461
2474.58,0.19599
2468.79,0.19673
2463.01,0.19764
2457.22,0.19778
2451.44,0.19878
2445.65,0.19967
2439.86,0.20052
2434.08,0.20102
2428.29,0.20205
2422.5,0.20261
2416.72,0.20301
2410.93,0.20320
2405.15,0.20371
2399.36,0.20411
2393.57,0.20363
2387.79,0.20339
2382,0.20350
2376.21,0.20361
2370.43,0.20380
2364.64,0.20369
2358.86,0.20336
2353.07,0.20328
2347.28,0.20302
2341.5,0.20246
2335.71,0.20219
2329.92,0.20234
2324.14,0.20177
2318.35,0.20174
2312.57,0.20123
2306.78,0.20094
2300.99,0.20019
2295.21,0.19895
2289.42,0.19829
2283.63,0.19718
2277.85,0.19565
2272.06,0.19440
2266.28,0.19303
2260.49,0.19142
2254.7,0.19009
2248.92,0.18937
2243.13,0.18783
2237.34,0.18677
2231.56,0.18680
2225.77,0.18713
2219.99,0.18803
2214.2,0.18900
2208.41,0.19000
2202.63,0.19032
2196.84,0.19043
2191.05,0.18966
2185.27,0.18850
2179.48,0.18792
2173.7,0.18605
2167.91,0.18475
2162.12,0.18325
2156.34,0.18140
2150.55,0.18033
2144.76,0.17946
2138.98,0.17793
2133.19,0.17778
2127.41,0.17845
2121.62,0.17933
2115.83,0.17991
2110.05,0.18038
2104.26,0.18058
2098.47,0.18093
2092.69,0.18062
2086.9,0.18011
2081.12,0.17996
2075.33,0.17864
2069.54,0.17774
2063.76,0.17677
2057.97,0.17521
2052.19,0.17323
2046.4,0.16936
2040.61,0.16441
2034.83,0.15905
2029.04,0.15562
2023.25,0.15423
2017.47,0.15204
2011.68,0.14745
2005.9,0.14340
2000.11,0.14147
1994.32,0.14084
1988.54,0.14142
1982.75,0.14184
1976.96,0.14209
1971.18,0.14276
1965.39,0.14440
1959.61,0.14649
1953.82,0.14686
1948.03,0.14723
1942.25,0.14805
1936.46,0.14915
1930.67,0.14984
1924.89,0.15009
1919.1,0.14842
1913.32,0.14342
1907.53,0.13728
1901.74,0.13063
1895.96,0.12572
1890.17,0.12169
1884.38,0.11911
1878.6,0.11737
1872.81,0.11622
1867.03,0.11702
1861.24,0.12021
1855.45,0.12681
1849.67,0.13457
1843.88,0.14106
1838.09,0.14402
1832.31,0.14418
1826.52,0.14150
1820.74,0.13814
1814.95,0.13392
1809.16,0.12947
1803.38,0.12561
1797.59,0.12289
1791.8,0.12155
1786.02,0.12138
1780.23,0.12227
1774.45,0.12387
1768.66,0.12707
1762.87,0.12825
1757.09,0.12690
1751.3,0.12044
1745.51,0.10641
1739.73,0.08988
1733.94,0.08007
1728.16,0.07821
1722.37,0.08451
1716.58,0.09123
1710.8,0.09195
1705.01,0.09081
1699.22,0.08749
1693.44,0.08296
1687.65,0.07897
1681.87,0.07475
1676.08,0.07232
1670.29,0.06912
1664.51,0.06644
1658.72,0.06361
1652.93,0.06174
1647.15,0.05971
1641.36,0.05817
1635.58,0.05771
1629.79,0.05700
1624,0.05685
1618.22,0.05634
1612.43,0.05588
1606.64,0.05634
1600.86,0.05688
1595.07,0.05780
1589.29,0.05836
1583.5,0.05905
1577.71,0.06044
1571.93,0.06114
1566.14,0.06163
1560.35,0.06251
1554.57,0.06241
1548.78,0.06188
1543,0.06179
1537.21,0.06023
1531.42,0.05928
1525.64,0.05746
1519.85,0.05667
1514.07,0.05519
1508.28,0.05433
1502.49,0.05241
1496.71,0.05014
1490.92,0.04896
1485.13,0.04640
1479.35,0.04498
1473.56,0.04361
1467.78,0.04144
1461.99,0.04038
1456.2,0.03879
1450.42,0.03842
1444.63,0.03781
1438.84,0.03705
1433.06,0.03620
1427.27,0.03678
1421.49,0.03871
1415.7,0.04028
1409.91,0.04034
1404.13,0.04046
1398.34,0.04097
1392.55,0.04023
1386.77,0.03941
1380.98,0.03809
1375.2,0.03768
1369.41,0.03897
1363.62,0.04080
1357.84,0.04231
1352.05,0.04394
1346.26,0.04480
1340.48,0.04451
1334.69,0.04487
1328.91,0.04604
1323.12,0.04610
1317.33,0.04648
1311.55,0.04976
1305.76,0.05336
1299.97,0.05629
1294.19,0.05749
1288.4,0.05668
1282.62,0.05538
1276.83,0.05774
1271.04,0.06019
1265.26,0.06350
1259.47,0.06756
1253.68,0.07198
1247.9,0.07649
1242.11,0.08162
1236.33,0.08845
1230.54,0.09760
1224.75,0.10536
1218.97,0.10615
1213.18,0.10099
1207.39,0.09377
1201.61,0.08903
1195.82,0.08723
1190.04,0.08545
1184.25,0.08380
1178.46,0.08169
1172.68,0.08048
1166.89,0.07894
1161.1,0.07077
1155.32,0.07226
1149.53,0.08011
1143.75,0.08325
1137.96,0.08568
1132.17,0.08668
1126.39,0.08813
1120.6,0.09087
1114.81,0.09415
1109.03,0.09726
1103.24,0.09990
1097.46,0.10075
1091.67,0.10113
1085.88,0.10249
1080.1,0.10372
1074.31,0.10480
1068.52,0.09826
1062.74,0.08926
1056.95,0.08055
1051.17,0.07362
1045.38,0.06972
1039.59,0.06712
1033.81,0.06870
1028.02,0.06792
1022.24,0.06665
1016.45,0.06605
1010.66,0.06625
1004.88,0.06558
999.09,0.06562
993.304,0.06687
987.518,0.06800
981.731,0.07084
975.945,0.07258
970.159,0.07291
964.373,0.07338
958.586,0.07348
952.8,0.07426
947.014,0.07392
941.228,0.07412
935.441,0.07380
929.655,0.07369
923.869,0.07367
918.083,0.07271
912.297,0.07063
906.51,0.06842
900.724,0.06627
894.938,0.06608
889.152,0.06776
883.365,0.06894
877.579,0.06934
871.793,0.06943
866.007,0.06957
860.22,0.06985
854.434,0.07044
848.648,0.06957
842.862,0.06768
837.075,0.06518
831.289,0.06364
825.503,0.05976
819.717,0.05656
813.931,0.05428
808.144,0.05697
802.358,0.06548
796.572,0.06582
790.786,0.06407
784.999,0.06914
779.213,0.07089
773.427,0.06583
767.641,0.06497
761.854,0.06351
756.068,0.06310
750.282,0.06285
744.496,0.06034
738.709,0.05840
732.923,0.05673
727.137,0.05343
721.351,0.05250
715.565,0.04916
709.778,0.04650
703.992,0.04366
698.206,0.04202
692.42,0.04433
686.633,0.04648
680.847,0.04588
675.061,0.04506
669.275,0.04506
663.488,0.04598
657.702,0.04627
651.916,0.04583
646.13,0.04492
640.343,0.04317
634.557,0.04211
628.771,0.04403
622.985,0.04281
617.198,0.04185
611.412,0.04216
605.626,0.04209
599.84,0.04246