File: 01_Data/Fiber_Cement_Board/FTIR/IS/Fiber_Cement_Board_IS_S_221012_R2.dpt
7497.03,0.51052
7491.25,0.50841
7485.46,0.51114
7479.67,0.50812
7473.89,0.51504
7468.1,0.50961
7462.32,0.51544
7456.53,0.50500
7450.74,0.50280
7444.96,0.50403
7439.17,0.51106
7433.38,0.50475
7427.6,0.50084
7421.81,0.49901
7416.03,0.49763
7410.24,0.50100
7404.45,0.50225
7398.67,0.49901
7392.88,0.49955
7387.09,0.50535
7381.31,0.50975
7375.52,0.51916
7369.74,0.50484
7363.95,0.50625
7358.16,0.50652
7352.38,0.51865
7346.59,0.50060
7340.8,0.49803
7335.02,0.49707
7329.23,0.50396
7323.45,0.49682
7317.66,0.50420
7311.87,0.50773
7306.09,0.50464
7300.3,0.50891
7294.51,0.50776
7288.73,0.50650
7282.94,0.49529
7277.16,0.49835
7271.37,0.50043
7265.58,0.50252
7259.8,0.50424
7254.01,0.50923
7248.22,0.49557
7242.44,0.49868
7236.65,0.50723
7230.87,0.50601
7225.08,0.49938
7219.29,0.50195
7213.51,0.49823
7207.72,0.50640
7201.93,0.49918
7196.15,0.49408
7190.36,0.50116
7184.58,0.49852
7178.79,0.49846
7173,0.49758
7167.22,0.49414
7161.43,0.49272
7155.65,0.49569
7149.86,0.49540
7144.07,0.50180
7138.29,0.50199
7132.5,0.49450
7126.71,0.49042
7120.93,0.48955
7115.14,0.49560
7109.36,0.49257
7103.57,0.48616
7097.78,0.48766
7092,0.48880
7086.21,0.48590
7080.42,0.48927
7074.64,0.48274
7068.85,0.48399
7063.07,0.47498
7057.28,0.48815
7051.49,0.48731
7045.71,0.48382
7039.92,0.48861
7034.13,0.49212
7028.35,0.48202
7022.56,0.48123
7016.78,0.48012
7010.99,0.48776
7005.2,0.48464
6999.42,0.48182
6993.63,0.48287
6987.84,0.48585
6982.06,0.47996
6976.27,0.47775
6970.49,0.47911
6964.7,0.48334
6958.91,0.47864
6953.13,0.47833
6947.34,0.47920
6941.55,0.48255
6935.77,0.48415
6929.98,0.47781
6924.2,0.48117
6918.41,0.48495
6912.62,0.47412
6906.84,0.48810
6901.05,0.47633
6895.26,0.47928
6889.48,0.47898
6883.69,0.48336
6877.91,0.47913
6872.12,0.48083
6866.33,0.48562
6860.55,0.48327
6854.76,0.49026
6848.97,0.48220
6843.19,0.48620
6837.4,0.48002
6831.62,0.48187
6825.83,0.47705
6820.04,0.48345
6814.26,0.48382
6808.47,0.48512
6802.68,0.48295
6796.9,0.47972
6791.11,0.48107
6785.33,0.48159
6779.54,0.48009
6773.75,0.48727
6767.97,0.48834
6762.18,0.48419
6756.39,0.48405
6750.61,0.48170
6744.82,0.48274
6739.04,0.48276
6733.25,0.48065
6727.46,0.48554
6721.68,0.48475
6715.89,0.48316
6710.1,0.48477
6704.32,0.48190
6698.53,0.48346
6692.75,0.48704
6686.96,0.48838
6681.17,0.48748
6675.39,0.48525
6669.6,0.48591
6663.82,0.48305
6658.03,0.48018
6652.24,0.48678
6646.46,0.48017
6640.67,0.48072
6634.88,0.48543
6629.1,0.48386
6623.31,0.48735
6617.53,0.48596
6611.74,0.48353
6605.95,0.48135
6600.17,0.48741
6594.38,0.48898
6588.59,0.48751
6582.81,0.48464
6577.02,0.48878
6571.24,0.48830
6565.45,0.48996
6559.66,0.48317
6553.88,0.48572
6548.09,0.48875
6542.3,0.49365
6536.52,0.48924
6530.73,0.48803
6524.95,0.48765
6519.16,0.48507
6513.37,0.49002
6507.59,0.48841
6501.8,0.48903
6496.01,0.48929
6490.23,0.48874
6484.44,0.48672
6478.66,0.49100
6472.87,0.48464
6467.08,0.48396
6461.3,0.48665
6455.51,0.48799
6449.72,0.48526
6443.94,0.48861
6438.15,0.48873
6432.37,0.49048
6426.58,0.49120
6420.79,0.48565
6415.01,0.48736
6409.22,0.48993
6403.43,0.48518
6397.65,0.48480
6391.86,0.48959
6386.08,0.48939
6380.29,0.48805
6374.5,0.48647
6368.72,0.48839
6362.93,0.48538
6357.14,0.48974
6351.36,0.48684
6345.57,0.48815
6339.79,0.48984
6334,0.48500
6328.21,0.48775
6322.43,0.48854
6316.64,0.48654
6310.85,0.48976
6305.07,0.49147
6299.28,0.49161
6293.5,0.49054
6287.71,0.49246
6281.92,0.48698
6276.14,0.48936
6270.35,0.49033
6264.56,0.48854
6258.78,0.48854
6252.99,0.48944
6247.21,0.49095
6241.42,0.49017
6235.63,0.49213
6229.85,0.49048
6224.06,0.49073
6218.27,0.48993
6212.49,0.49387
6206.7,0.49210
6200.92,0.49226
6195.13,0.48995
6189.34,0.49215
6183.56,0.48939
6177.77,0.49165
6171.98,0.49085
6166.2,0.48937
6160.41,0.49402
6154.63,0.49064
6148.84,0.48889
6143.05,0.49137
6137.27,0.49315
6131.48,0.49143
6125.7,0.49095
6119.91,0.48914
6114.12,0.48936
6108.34,0.49182
6102.55,0.49152
6096.76,0.49255
6090.98,0.49180
6085.19,0.49022
6079.41,0.48818
6073.62,0.49213
6067.83,0.48984
6062.05,0.49112
6056.26,0.48915
6050.47,0.49140
6044.69,0.49312
6038.9,0.49333
6033.12,0.49135
6027.33,0.49237
6021.54,0.49219
6015.76,0.48879
6009.97,0.49074
6004.18,0.49114
5998.4,0.49061
5992.61,0.49353
5986.83,0.49226
5981.04,0.48962
5975.25,0.48937
5969.47,0.49165
5963.68,0.49070
5957.89,0.49237
5952.11,0.49193
5946.32,0.49041
5940.54,0.48982
5934.75,0.48520
5928.96,0.49017
5923.18,0.49112
5917.39,0.49114
5911.6,0.48920
5905.82,0.48784
5900.03,0.48720
5894.25,0.48912
5888.46,0.48917
5882.67,0.49119
5876.89,0.48791
5871.1,0.48686
5865.31,0.48765
5859.53,0.48856
5853.74,0.48709
5847.96,0.48627
5842.17,0.48712
5836.38,0.48724
5830.6,0.48813
5824.81,0.48741
5819.02,0.48869
5813.24,0.48695
5807.45,0.48913
5801.67,0.48696
5795.88,0.48527
5790.09,0.48686
5784.31,0.48652
5778.52,0.48763
5772.73,0.48681
5766.95,0.48420
5761.16,0.48574
5755.38,0.48662
5749.59,0.48745
5743.8,0.48668
5738.02,0.48646
5732.23,0.48571
5726.44,0.48777
5720.66,0.48543
5714.87,0.48580
5709.09,0.48719
5703.3,0.48376
5697.51,0.48462
5691.73,0.48473
5685.94,0.48463
5680.15,0.48488
5674.37,0.48335
5668.58,0.48809
5662.8,0.48519
5657.01,0.48386
5651.22,0.48523
5645.44,0.48354
5639.65,0.48634
5633.87,0.48383
5628.08,0.48268
5622.29,0.48324
5616.51,0.48546
5610.72,0.48348
5604.93,0.48264
5599.15,0.48402
5593.36,0.48308
5587.58,0.48389
5581.79,0.48347
5576,0.48183
5570.22,0.48271
5564.43,0.48526
5558.64,0.48378
5552.86,0.48207
5547.07,0.48146
5541.29,0.48377
5535.5,0.48344
5529.71,0.48396
5523.93,0.48010
5518.14,0.48038
5512.35,0.48134
5506.57,0.48240
5500.78,0.48216
5495,0.48336
5489.21,0.48221
5483.42,0.48323
5477.64,0.48334
5471.85,0.48072
5466.06,0.48014
5460.28,0.47959
5454.49,0.48262
5448.71,0.48297
5442.92,0.48258
5437.13,0.48123
5431.35,0.48110
5425.56,0.48100
5419.77,0.48000
5413.99,0.48045
5408.2,0.48196
5402.42,0.48133
5396.63,0.47925
5390.84,0.47892
5385.06,0.48022
5379.27,0.47983
5373.48,0.47809
5367.7,0.47986
5361.91,0.47870
5356.13,0.47822
5350.34,0.47834
5344.55,0.47672
5338.77,0.47510
5332.98,0.47317
5327.19,0.47216
5321.41,0.47129
5315.62,0.47052
5309.84,0.46935
5304.05,0.46670
5298.26,0.46710
5292.48,0.46314
5286.69,0.45909
5280.9,0.45862
5275.12,0.45531
5269.33,0.45022
5263.55,0.44700
5257.76,0.44127
5251.97,0.43814
5246.19,0.43231
5240.4,0.42930
5234.61,0.42215
5228.83,0.41894
5223.04,0.41422
5217.26,0.41046
5211.47,0.40891
5205.68,0.40705
5199.9,0.40396
5194.11,0.40309
5188.32,0.40375
5182.54,0.40373
5176.75,0.40356
5170.97,0.40477
5165.18,0.40707
5159.39,0.40940
5153.61,0.41081
5147.82,0.41260
5142.03,0.41475
5136.25,0.41622
5130.46,0.41724
5124.68,0.41859
5118.89,0.42144
5113.1,0.42218
5107.32,0.42412
5101.53,0.42636
5095.75,0.42745
5089.96,0.42980
5084.17,0.42974
5078.39,0.43039
5072.6,0.43123
5066.81,0.43377
5061.03,0.43416
5055.24,0.43491
5049.46,0.43489
5043.67,0.43817
5037.88,0.43913
5032.1,0.43955
5026.31,0.44159
5020.52,0.44040
5014.74,0.44148
5008.95,0.44156
5003.17,0.44204
4997.38,0.44312
4991.59,0.44299
4985.81,0.44499
4980.02,0.44493
4974.23,0.44599
4968.45,0.44510
4962.66,0.44583
4956.88,0.44512
4951.09,0.44693
4945.3,0.44645
4939.52,0.44619
4933.73,0.44759
4927.94,0.44743
4922.16,0.44589
4916.37,0.44522
4910.59,0.44465
4904.8,0.44409
4899.01,0.44339
4893.23,0.44273
4887.44,0.44185
4881.65,0.44225
4875.87,0.44092
4870.08,0.44130
4864.3,0.43970
4858.51,0.43895
4852.72,0.43848
4846.94,0.43665
4841.15,0.43674
4835.36,0.43655
4829.58,0.43618
4823.79,0.43524
4818.01,0.43507
4812.22,0.43486
4806.43,0.43233
4800.65,0.43229
4794.86,0.43140
4789.07,0.43075
4783.29,0.43164
4777.5,0.43123
4771.72,0.43048
4765.93,0.43040
4760.14,0.43030
4754.36,0.43106
4748.57,0.42987
4742.78,0.43151
4737,0.43244
4731.21,0.43104
4725.43,0.43082
4719.64,0.43205
4713.85,0.43266
4708.07,0.43351
4702.28,0.43309
4696.49,0.43424
4690.71,0.43407
4684.92,0.43453
4679.14,0.43458
4673.35,0.43466
4667.56,0.43511
4661.78,0.43586
4655.99,0.43659
4650.2,0.43618
4644.42,0.43725
4638.63,0.43667
4632.85,0.43657
4627.06,0.43687
4621.27,0.43718
4615.49,0.43722
4609.7,0.43655
4603.92,0.43572
4598.13,0.43668
4592.34,0.43662
4586.56,0.43608
4580.77,0.43639
4574.98,0.43540
4569.2,0.43619
4563.41,0.43569
4557.63,0.43459
4551.84,0.43487
4546.05,0.43422
4540.27,0.43314
4534.48,0.43259
4528.69,0.43291
4522.91,0.43112
4517.12,0.43101
4511.34,0.43125
4505.55,0.42983
4499.76,0.43029
4493.98,0.42943
4488.19,0.42826
4482.4,0.42728
4476.62,0.42681
4470.83,0.42549
4465.05,0.42458
4459.26,0.42231
4453.47,0.42151
4447.69,0.41830
4441.9,0.41773
4436.11,0.41606
4430.33,0.41418
4424.54,0.41371
4418.76,0.41193
4412.97,0.41037
4407.18,0.40850
4401.4,0.40762
4395.61,0.40708
4389.82,0.40755
4384.04,0.40854
4378.25,0.40969
4372.47,0.40953
4366.68,0.40991
4360.89,0.41047
4355.11,0.40907
4349.32,0.40876
4343.53,0.40836
4337.75,0.40715
4331.96,0.40686
4326.18,0.40577
4320.39,0.40527
4314.6,0.40440
4308.82,0.40262
4303.03,0.40206
4297.24,0.40156
4291.46,0.40055
4285.67,0.39920
4279.89,0.39728
4274.1,0.39799
4268.31,0.39649
4262.53,0.39530
4256.74,0.39442
4250.95,0.39386
4245.17,0.39348
4239.38,0.39211
4233.6,0.39203
4227.81,0.39114
4222.02,0.38993
4216.24,0.38861
4210.45,0.38832
4204.66,0.38831
4198.88,0.38788
4193.09,0.38722
4187.31,0.38545
4181.52,0.38448
4175.73,0.38384
4169.95,0.38363
4164.16,0.38304
4158.37,0.38098
4152.59,0.37933
4146.8,0.37839
4141.02,0.37715
4135.23,0.37535
4129.44,0.37353
4123.66,0.37169
4117.87,0.36946
4112.09,0.36730
4106.3,0.36472
4100.51,0.36183
4094.73,0.35975
4088.94,0.35657
4083.15,0.35418
4077.37,0.35059
4071.58,0.34874
4065.8,0.34635
4060.01,0.34256
4054.22,0.34000
4048.44,0.33667
4042.65,0.33441
4036.86,0.33191
4031.08,0.33010
4025.29,0.32850
4019.51,0.32908
4013.72,0.32848
4007.93,0.32877
4002.15,0.32796
3996.36,0.32811
3990.57,0.32920
3984.79,0.32972
3979,0.32943
3973.22,0.32990
3967.43,0.32973
3961.64,0.32985
3955.86,0.32993
3950.07,0.32997
3944.28,0.33067
3938.5,0.33073
3932.71,0.33053
3926.93,0.33103
3921.14,0.33162
3915.35,0.33182
3909.57,0.33118
3903.78,0.33137
3897.99,0.33120
3892.21,0.33114
3886.42,0.33141
3880.64,0.33075
3874.85,0.33079
3869.06,0.33026
3863.28,0.33013
3857.49,0.32986
3851.7,0.33072
3845.92,0.32963
3840.13,0.32905
3834.35,0.32824
3828.56,0.32726
3822.77,0.32523
3816.99,0.32372
3811.2,0.32199
3805.41,0.32108
3799.63,0.31860
3793.84,0.31658
3788.06,0.31398
3782.27,0.31235
3776.48,0.30954
3770.7,0.30712
3764.91,0.30401
3759.12,0.30137
3753.34,0.29724
3747.55,0.29320
3741.77,0.28761
3735.98,0.28276
3730.19,0.27512
3724.41,0.26859
3718.62,0.25907
3712.83,0.24700
3707.05,0.23341
3701.26,0.21530
3695.48,0.19932
3689.69,0.18934
3683.9,0.17853
3678.12,0.16450
3672.33,0.14946
3666.54,0.13637
3660.76,0.12718
3654.97,0.11805
3649.19,0.11053
3643.4,0.10385
3637.61,0.09840
3631.83,0.09312
3626.04,0.08759
3620.25,0.08295
3614.47,0.07985
3608.68,0.07587
3602.9,0.07276
3597.11,0.07097
3591.32,0.06731
3585.54,0.06543
3579.75,0.06336
3573.97,0.06210
3568.18,0.05998
3562.39,0.05832
3556.61,0.05683
3550.82,0.05545
3545.03,0.05485
3539.25,0.05327
3533.46,0.05236
3527.68,0.05088
3521.89,0.04990
3516.1,0.04886
3510.32,0.04834
3504.53,0.04711
3498.74,0.04606
3492.96,0.04577
3487.17,0.04479
3481.39,0.04402
3475.6,0.04361
3469.81,0.04295
3464.03,0.04227
3458.24,0.04248
3452.45,0.04212
3446.67,0.04215
3440.88,0.04129
3435.1,0.04132
3429.31,0.04119
3423.52,0.04056
3417.74,0.04104
3411.95,0.04090
3406.16,0.04101
3400.38,0.04084
3394.59,0.04071
3388.81,0.04073
3383.02,0.04063
3377.23,0.04085
3371.45,0.04054
3365.66,0.04073
3359.87,0.04111
3354.09,0.04156
3348.3,0.04163
3342.52,0.04202
3336.73,0.04333
3330.94,0.04384
3325.16,0.04453
3319.37,0.04474
3313.58,0.04503
3307.8,0.04559
3302.01,0.04565
3296.23,0.04591
3290.44,0.04649
3284.65,0.04670
3278.87,0.04792
3273.08,0.04911
3267.29,0.04964
3261.51,0.05112
3255.72,0.05189
3249.94,0.05334
3244.15,0.05323
3238.36,0.05441
3232.58,0.05566
3226.79,0.05592
3221,0.05763
3215.22,0.05915
3209.43,0.05893
3203.65,0.06017
3197.86,0.06122
3192.07,0.06258
3186.29,0.06393
3180.5,0.06508
3174.71,0.06598
3168.93,0.06665
3163.14,0.06851
3157.36,0.06929
3151.57,0.07118
3145.78,0.07164
3140,0.07317
3134.21,0.07440
3128.42,0.07595
3122.64,0.07747
3116.85,0.07955
3111.07,0.08056
3105.28,0.08170
3099.49,0.08274
3093.71,0.08419
3087.92,0.08490
3082.14,0.08620
3076.35,0.08824
3070.56,0.08856
3064.78,0.09015
3058.99,0.09078
3053.2,0.09280
3047.42,0.09401
3041.63,0.09465
3035.85,0.09508
3030.06,0.09544
3024.27,0.09609
3018.49,0.09865
3012.7,0.09899
3006.91,0.09903
3001.13,0.09885
2995.34,0.09929
2989.56,0.09786
2983.77,0.09627
2977.98,0.09337
2972.2,0.08883
2966.41,0.08522
2960.62,0.08367
2954.84,0.08192
2949.05,0.08000
2943.27,0.07882
2937.48,0.07857
2931.69,0.07752
2925.91,0.07656
2920.12,0.07617
2914.33,0.07556
2908.55,0.07520
2902.76,0.07571
2896.98,0.07743
2891.19,0.07971
2885.4,0.08204
2879.62,0.08278
2873.83,0.08470
2868.04,0.08625
2862.26,0.08789
2856.47,0.09064
2850.69,0.09457
2844.9,0.09956
2839.11,0.10456
2833.33,0.10903
2827.54,0.11325
2821.75,0.11619
2815.97,0.11920
2810.18,0.12317
2804.4,0.12551
2798.61,0.12807
2792.82,0.12996
2787.04,0.13146
2781.25,0.13310
2775.46,0.13404
2769.68,0.13529
2763.89,0.13641
2758.11,0.13738
2752.32,0.13862
2746.53,0.13939
2740.75,0.14018
2734.96,0.14133
2729.17,0.14225
2723.39,0.14414
2717.6,0.14515
2711.82,0.14692
2706.03,0.14860
2700.24,0.15112
2694.46,0.15303
2688.67,0.15553
2682.88,0.15741
2677.1,0.15898
2671.31,0.16068
2665.53,0.16251
2659.74,0.16390
2653.95,0.16521
2648.17,0.16678
2642.38,0.16841
2636.59,0.16987
2630.81,0.17147
2625.02,0.17310
2619.24,0.17442
2613.45,0.17572
2607.66,0.17678
2601.88,0.17797
2596.09,0.17904
2590.3,0.17988
2584.52,0.18102
2578.73,0.18188
2572.95,0.18190
2567.16,0.18210
2561.37,0.18232
2555.59,0.18314
2549.8,0.18322
2544.02,0.18315
2538.23,0.18376
2532.44,0.18405
2526.66,0.18469
2520.87,0.18499
2515.08,0.18551
2509.3,0.18679
2503.51,0.18787
2497.73,0.18964
2491.94,0.19145
2486.15,0.19280
2480.37,0.19402
2474.58,0.19483
2468.79,0.19585
2463.01,0.19676
2457.22,0.19711
2451.44,0.19794
2445.65,0.19848
2439.86,0.19958
2434.08,0.20043
2428.29,0.20087
2422.5,0.20163
2416.72,0.20211
2410.93,0.20248
2405.15,0.20274
2399.36,0.20256
2393.57,0.20265
2387.79,0.20260
2382,0.20223
2376.21,0.20251
2370.43,0.20267
2364.64,0.20214
2358.86,0.20218
2353.07,0.20183
2347.28,0.20150
2341.5,0.20065
2335.71,0.20080
2329.92,0.20055
2324.14,0.20041
2318.35,0.20020
2312.57,0.20027
2306.78,0.19958
2300.99,0.19928
2295.21,0.19842
2289.42,0.19708
2283.63,0.19580
2277.85,0.19462
2272.06,0.19311
2266.28,0.19158
2260.49,0.19043
2254.7,0.18876
2248.92,0.18805
2243.13,0.18656
2237.34,0.18589
2231.56,0.18563
2225.77,0.18585
2219.99,0.18643
2214.2,0.18756
2208.41,0.18825
2202.63,0.18872
2196.84,0.18867
2191.05,0.18806
2185.27,0.18712
2179.48,0.18612
2173.7,0.18440
2167.91,0.18288
2162.12,0.18139
2156.34,0.18019
2150.55,0.17886
2144.76,0.17780
2138.98,0.17633
2133.19,0.17591
2127.41,0.17642
2121.62,0.17766
2115.83,0.17843
2110.05,0.17877
2104.26,0.17868
2098.47,0.17861
2092.69,0.17893
2086.9,0.17894
2081.12,0.17849
2075.33,0.17765
2069.54,0.17636
2063.76,0.17500
2057.97,0.17343
2052.19,0.17110
2046.4,0.16797
2040.61,0.16324
2034.83,0.15818
2029.04,0.15472
2023.25,0.15297
2017.47,0.15099
2011.68,0.14688
2005.9,0.14259
2000.11,0.14084
1994.32,0.14022
1988.54,0.14078
1982.75,0.14090
1976.96,0.14120
1971.18,0.14194
1965.39,0.14388
1959.61,0.14571
1953.82,0.14649
1948.03,0.14680
1942.25,0.14698
1936.46,0.14817
1930.67,0.14936
1924.89,0.14943
1919.1,0.14808
1913.32,0.14289
1907.53,0.13643
1901.74,0.13035
1895.96,0.12501
1890.17,0.12120
1884.38,0.11847
1878.6,0.11697
1872.81,0.11572
1867.03,0.11631
1861.24,0.11949
1855.45,0.12607
1849.67,0.13402
1843.88,0.14041
1838.09,0.14337
1832.31,0.14341
1826.52,0.14089
1820.74,0.13685
1814.95,0.13265
1809.16,0.12924
1803.38,0.12512
1797.59,0.12221
1791.8,0.12143
1786.02,0.12098
1780.23,0.12175
1774.45,0.12347
1768.66,0.12602
1762.87,0.12727
1757.09,0.12585
1751.3,0.11984
1745.51,0.10610
1739.73,0.08977
1733.94,0.08037
1728.16,0.07828
1722.37,0.08382
1716.58,0.09001
1710.8,0.09102
1705.01,0.08931
1699.22,0.08637
1693.44,0.08169
1687.65,0.07750
1681.87,0.07333
1676.08,0.07057
1670.29,0.06786
1664.51,0.06467
1658.72,0.06251
1652.93,0.06037
1647.15,0.05871
1641.36,0.05693
1635.58,0.05679
1629.79,0.05603
1624,0.05544
1618.22,0.05569
1612.43,0.05591
1606.64,0.05603
1600.86,0.05615
1595.07,0.05701
1589.29,0.05817
1583.5,0.05874
1577.71,0.05983
1571.93,0.05996
1566.14,0.06129
1560.35,0.06258
1554.57,0.06206
1548.78,0.06156
1543,0.06206
1537.21,0.06001
1531.42,0.05869
1525.64,0.05781
1519.85,0.05666
1514.07,0.05539
1508.28,0.05428
1502.49,0.05231
1496.71,0.05006
1490.92,0.04830
1485.13,0.04654
1479.35,0.04476
1473.56,0.04377
1467.78,0.04177
1461.99,0.04031
1456.2,0.03891
1450.42,0.03827
1444.63,0.03790
1438.84,0.03684
1433.06,0.03576
1427.27,0.03718
1421.49,0.03871
1415.7,0.04014
1409.91,0.04061
1404.13,0.04058
1398.34,0.04061
1392.55,0.04021
1386.77,0.03942
1380.98,0.03774
1375.2,0.03774
1369.41,0.03888
1363.62,0.04045
1357.84,0.04228
1352.05,0.04411
1346.26,0.04480
1340.48,0.04457
1334.69,0.04491
1328.91,0.04619
1323.12,0.04597
1317.33,0.04659
1311.55,0.04911
1305.76,0.05334
1299.97,0.05644
1294.19,0.05733
1288.4,0.05667
1282.62,0.05538
1276.83,0.05748
1271.04,0.06010
1265.26,0.06352
1259.47,0.06800
1253.68,0.07194
1247.9,0.07561
1242.11,0.08140
1236.33,0.08833
1230.54,0.09765
1224.75,0.10590
1218.97,0.10691
1213.18,0.10104
1207.39,0.09334
1201.61,0.08862
1195.82,0.08677
1190.04,0.08525
1184.25,0.08360
1178.46,0.08128
1172.68,0.08005
1166.89,0.07895
1161.1,0.07015
1155.32,0.07149
1149.53,0.08016
1143.75,0.08415
1137.96,0.08564
1132.17,0.08666
1126.39,0.08816
1120.6,0.09044
1114.81,0.09386
1109.03,0.09747
1103.24,0.09982
1097.46,0.10071
1091.67,0.10107
1085.88,0.10263
1080.1,0.10469
1074.31,0.10478
1068.52,0.09899
1062.74,0.08910
1056.95,0.08119
1051.17,0.07425
1045.38,0.06916
1039.59,0.06757
1033.81,0.06860
1028.02,0.06843
1022.24,0.06676
1016.45,0.06612
1010.66,0.06595
1004.88,0.06550
999.09,0.06580
993.304,0.06688
987.518,0.06794
981.731,0.07014
975.945,0.07171
970.159,0.07300
964.373,0.07293
958.586,0.07327
952.8,0.07434
947.014,0.07449
941.228,0.07407
935.441,0.07379
929.655,0.07368
923.869,0.07373
918.083,0.07230
912.297,0.07024
906.51,0.06818
900.724,0.06633
894.938,0.06625
889.152,0.06748
883.365,0.06889
877.579,0.06951
871.793,0.06806
866.007,0.06919
860.22,0.06970
854.434,0.06932
848.648,0.06816
842.862,0.06628
837.075,0.06478
831.289,0.06203
825.503,0.05886
819.717,0.05558
813.931,0.05299
808.144,0.05719
802.358,0.06403
796.572,0.06512
790.786,0.06345
784.999,0.06813
779.213,0.06928
773.427,0.06644
767.641,0.06399
761.854,0.06266
756.068,0.06180
750.282,0.06121
744.496,0.06016
738.709,0.05726
732.923,0.05473
727.137,0.05275
721.351,0.05015
715.565,0.04807
709.778,0.04542
703.992,0.04318
698.206,0.04141
692.42,0.04458
686.633,0.04567
680.847,0.04577
675.061,0.04490
669.275,0.04516
663.488,0.04521
657.702,0.04440
651.916,0.04516
646.13,0.04336
640.343,0.04314
634.557,0.04200
628.771,0.04083
622.985,0.04136
617.198,0.04089
611.412,0.04106
605.626,0.04272
599.84,0.04296