File: 01_Data/Fiber_Cement_Board/FTIR/IS/Fiber_Cement_Board_IS_S_221012_R7.dpt
7497.03,0.51880
7491.25,0.51918
7485.46,0.50326
7479.67,0.51521
7473.89,0.50391
7468.1,0.51176
7462.32,0.50216
7456.53,0.50882
7450.74,0.51198
7444.96,0.51103
7439.17,0.50699
7433.38,0.50499
7427.6,0.51189
7421.81,0.51652
7416.03,0.49880
7410.24,0.50740
7404.45,0.51144
7398.67,0.50152
7392.88,0.50475
7387.09,0.50292
7381.31,0.51212
7375.52,0.51009
7369.74,0.50731
7363.95,0.50511
7358.16,0.50763
7352.38,0.50567
7346.59,0.50630
7340.8,0.50143
7335.02,0.50614
7329.23,0.51038
7323.45,0.50701
7317.66,0.50133
7311.87,0.50766
7306.09,0.50280
7300.3,0.50510
7294.51,0.50585
7288.73,0.50131
7282.94,0.49860
7277.16,0.50958
7271.37,0.50602
7265.58,0.50578
7259.8,0.50025
7254.01,0.50238
7248.22,0.49497
7242.44,0.50125
7236.65,0.49960
7230.87,0.50849
7225.08,0.50789
7219.29,0.49997
7213.51,0.49630
7207.72,0.49755
7201.93,0.50711
7196.15,0.50132
7190.36,0.50449
7184.58,0.49456
7178.79,0.49887
7173,0.49228
7167.22,0.49314
7161.43,0.49322
7155.65,0.50140
7149.86,0.50040
7144.07,0.49266
7138.29,0.49157
7132.5,0.49383
7126.71,0.49314
7120.93,0.48720
7115.14,0.49609
7109.36,0.49256
7103.57,0.49009
7097.78,0.48717
7092,0.48402
7086.21,0.48994
7080.42,0.49493
7074.64,0.48571
7068.85,0.48566
7063.07,0.48350
7057.28,0.48935
7051.49,0.48780
7045.71,0.48818
7039.92,0.48641
7034.13,0.48583
7028.35,0.48712
7022.56,0.48129
7016.78,0.48967
7010.99,0.48686
7005.2,0.48091
6999.42,0.48235
6993.63,0.48164
6987.84,0.48748
6982.06,0.48223
6976.27,0.48369
6970.49,0.48238
6964.7,0.48442
6958.91,0.47911
6953.13,0.47718
6947.34,0.48887
6941.55,0.48928
6935.77,0.47938
6929.98,0.48306
6924.2,0.49124
6918.41,0.47952
6912.62,0.47869
6906.84,0.48098
6901.05,0.47717
6895.26,0.48484
6889.48,0.48428
6883.69,0.48565
6877.91,0.48484
6872.12,0.48600
6866.33,0.49019
6860.55,0.48916
6854.76,0.48229
6848.97,0.48134
6843.19,0.47930
6837.4,0.48843
6831.62,0.48711
6825.83,0.48561
6820.04,0.48134
6814.26,0.48533
6808.47,0.48392
6802.68,0.48253
6796.9,0.47781
6791.11,0.48872
6785.33,0.48590
6779.54,0.48690
6773.75,0.48290
6767.97,0.48868
6762.18,0.48752
6756.39,0.48336
6750.61,0.48108
6744.82,0.47797
6739.04,0.48253
6733.25,0.48088
6727.46,0.48114
6721.68,0.48820
6715.89,0.48591
6710.1,0.48467
6704.32,0.48398
6698.53,0.49041
6692.75,0.48228
6686.96,0.48590
6681.17,0.48812
6675.39,0.48365
6669.6,0.48796
6663.82,0.48760
6658.03,0.49121
6652.24,0.48883
6646.46,0.49248
6640.67,0.49144
6634.88,0.49114
6629.1,0.48818
6623.31,0.48256
6617.53,0.48566
6611.74,0.48948
6605.95,0.48239
6600.17,0.48851
6594.38,0.48845
6588.59,0.49064
6582.81,0.48828
6577.02,0.49296
6571.24,0.49044
6565.45,0.49041
6559.66,0.48542
6553.88,0.48737
6548.09,0.48917
6542.3,0.48743
6536.52,0.49273
6530.73,0.48775
6524.95,0.49093
6519.16,0.48824
6513.37,0.49255
6507.59,0.49174
6501.8,0.48913
6496.01,0.49068
6490.23,0.48673
6484.44,0.48810
6478.66,0.48488
6472.87,0.48800
6467.08,0.48822
6461.3,0.48650
6455.51,0.48703
6449.72,0.48960
6443.94,0.49063
6438.15,0.48911
6432.37,0.49321
6426.58,0.48766
6420.79,0.49213
6415.01,0.48621
6409.22,0.48876
6403.43,0.48725
6397.65,0.48441
6391.86,0.48762
6386.08,0.48956
6380.29,0.49349
6374.5,0.48621
6368.72,0.48575
6362.93,0.49273
6357.14,0.48981
6351.36,0.48937
6345.57,0.49460
6339.79,0.48735
6334,0.49092
6328.21,0.48959
6322.43,0.48945
6316.64,0.48958
6310.85,0.48993
6305.07,0.49466
6299.28,0.49121
6293.5,0.49091
6287.71,0.49025
6281.92,0.48846
6276.14,0.48958
6270.35,0.48865
6264.56,0.49018
6258.78,0.48998
6252.99,0.49517
6247.21,0.49281
6241.42,0.49430
6235.63,0.49228
6229.85,0.48829
6224.06,0.49157
6218.27,0.48949
6212.49,0.49148
6206.7,0.49282
6200.92,0.49189
6195.13,0.49095
6189.34,0.49367
6183.56,0.49197
6177.77,0.48985
6171.98,0.49496
6166.2,0.49405
6160.41,0.49278
6154.63,0.48884
6148.84,0.49157
6143.05,0.49228
6137.27,0.49475
6131.48,0.49329
6125.7,0.49251
6119.91,0.49411
6114.12,0.49096
6108.34,0.49092
6102.55,0.49231
6096.76,0.49546
6090.98,0.49600
6085.19,0.49539
6079.41,0.49265
6073.62,0.49251
6067.83,0.49364
6062.05,0.49324
6056.26,0.49258
6050.47,0.49608
6044.69,0.49449
6038.9,0.49220
6033.12,0.49483
6027.33,0.49164
6021.54,0.49179
6015.76,0.49431
6009.97,0.49526
6004.18,0.49290
5998.4,0.49355
5992.61,0.49210
5986.83,0.49174
5981.04,0.49258
5975.25,0.49312
5969.47,0.49342
5963.68,0.49224
5957.89,0.49203
5952.11,0.49224
5946.32,0.49119
5940.54,0.49067
5934.75,0.48995
5928.96,0.49225
5923.18,0.49048
5917.39,0.49068
5911.6,0.49049
5905.82,0.48934
5900.03,0.49153
5894.25,0.49084
5888.46,0.49089
5882.67,0.48912
5876.89,0.49157
5871.1,0.48950
5865.31,0.49267
5859.53,0.49227
5853.74,0.49019
5847.96,0.48803
5842.17,0.49078
5836.38,0.48868
5830.6,0.48980
5824.81,0.49211
5819.02,0.48982
5813.24,0.48825
5807.45,0.48905
5801.67,0.48930
5795.88,0.49089
5790.09,0.48907
5784.31,0.48688
5778.52,0.48832
5772.73,0.49050
5766.95,0.48741
5761.16,0.48800
5755.38,0.48881
5749.59,0.48970
5743.8,0.48935
5738.02,0.48814
5732.23,0.48964
5726.44,0.48770
5720.66,0.49001
5714.87,0.48984
5709.09,0.48742
5703.3,0.48724
5697.51,0.48832
5691.73,0.48893
5685.94,0.48613
5680.15,0.48760
5674.37,0.48696
5668.58,0.48768
5662.8,0.48536
5657.01,0.48752
5651.22,0.48754
5645.44,0.48746
5639.65,0.48583
5633.87,0.48444
5628.08,0.48662
5622.29,0.48634
5616.51,0.48628
5610.72,0.48585
5604.93,0.48643
5599.15,0.48523
5593.36,0.48480
5587.58,0.48692
5581.79,0.48856
5576,0.48652
5570.22,0.48626
5564.43,0.48570
5558.64,0.48675
5552.86,0.48447
5547.07,0.48554
5541.29,0.48547
5535.5,0.48550
5529.71,0.48351
5523.93,0.48544
5518.14,0.48363
5512.35,0.48362
5506.57,0.48567
5500.78,0.48469
5495,0.48368
5489.21,0.48571
5483.42,0.48627
5477.64,0.48357
5471.85,0.48312
5466.06,0.48492
5460.28,0.48439
5454.49,0.48538
5448.71,0.48332
5442.92,0.48280
5437.13,0.48142
5431.35,0.48353
5425.56,0.48296
5419.77,0.48300
5413.99,0.48326
5408.2,0.48249
5402.42,0.48274
5396.63,0.48336
5390.84,0.48212
5385.06,0.48316
5379.27,0.48095
5373.48,0.48223
5367.7,0.48152
5361.91,0.48045
5356.13,0.48071
5350.34,0.48016
5344.55,0.47972
5338.77,0.47932
5332.98,0.47923
5327.19,0.47700
5321.41,0.47480
5315.62,0.47233
5309.84,0.47336
5304.05,0.47262
5298.26,0.46890
5292.48,0.46733
5286.69,0.46315
5280.9,0.45946
5275.12,0.45679
5269.33,0.45186
5263.55,0.45005
5257.76,0.44526
5251.97,0.44083
5246.19,0.43638
5240.4,0.43240
5234.61,0.42807
5228.83,0.42287
5223.04,0.41802
5217.26,0.41508
5211.47,0.41152
5205.68,0.41000
5199.9,0.40951
5194.11,0.40771
5188.32,0.40710
5182.54,0.40672
5176.75,0.40916
5170.97,0.41104
5165.18,0.40931
5159.39,0.41296
5153.61,0.41613
5147.82,0.41610
5142.03,0.41846
5136.25,0.42006
5130.46,0.42079
5124.68,0.42326
5118.89,0.42520
5113.1,0.42688
5107.32,0.42634
5101.53,0.42867
5095.75,0.43039
5089.96,0.43061
5084.17,0.43406
5078.39,0.43472
5072.6,0.43509
5066.81,0.43559
5061.03,0.43831
5055.24,0.43874
5049.46,0.43979
5043.67,0.43981
5037.88,0.44190
5032.1,0.44358
5026.31,0.44323
5020.52,0.44350
5014.74,0.44449
5008.95,0.44393
5003.17,0.44518
4997.38,0.44689
4991.59,0.44727
4985.81,0.44741
4980.02,0.44776
4974.23,0.44920
4968.45,0.44790
4962.66,0.44945
4956.88,0.44885
4951.09,0.44818
4945.3,0.44902
4939.52,0.44912
4933.73,0.44923
4927.94,0.44905
4922.16,0.44906
4916.37,0.44846
4910.59,0.44732
4904.8,0.44753
4899.01,0.44680
4893.23,0.44509
4887.44,0.44492
4881.65,0.44532
4875.87,0.44499
4870.08,0.44308
4864.3,0.44248
4858.51,0.44237
4852.72,0.44113
4846.94,0.43940
4841.15,0.43947
4835.36,0.43904
4829.58,0.43793
4823.79,0.43796
4818.01,0.43740
4812.22,0.43607
4806.43,0.43462
4800.65,0.43487
4794.86,0.43401
4789.07,0.43497
4783.29,0.43314
4777.5,0.43500
4771.72,0.43429
4765.93,0.43430
4760.14,0.43286
4754.36,0.43292
4748.57,0.43217
4742.78,0.43342
4737,0.43302
4731.21,0.43417
4725.43,0.43399
4719.64,0.43495
4713.85,0.43440
4708.07,0.43491
4702.28,0.43574
4696.49,0.43675
4690.71,0.43683
4684.92,0.43705
4679.14,0.43717
4673.35,0.43829
4667.56,0.43872
4661.78,0.43770
4655.99,0.43860
4650.2,0.43888
4644.42,0.43883
4638.63,0.43851
4632.85,0.43974
4627.06,0.43913
4621.27,0.43909
4615.49,0.43991
4609.7,0.43865
4603.92,0.43849
4598.13,0.43873
4592.34,0.43887
4586.56,0.43836
4580.77,0.43866
4574.98,0.43858
4569.2,0.43874
4563.41,0.43809
4557.63,0.43678
4551.84,0.43651
4546.05,0.43600
4540.27,0.43532
4534.48,0.43476
4528.69,0.43390
4522.91,0.43407
4517.12,0.43326
4511.34,0.43395
4505.55,0.43225
4499.76,0.43134
4493.98,0.43179
4488.19,0.43039
4482.4,0.43008
4476.62,0.42856
4470.83,0.42767
4465.05,0.42630
4459.26,0.42495
4453.47,0.42329
4447.69,0.42161
4441.9,0.42025
4436.11,0.41805
4430.33,0.41629
4424.54,0.41550
4418.76,0.41421
4412.97,0.41286
4407.18,0.41040
4401.4,0.40987
4395.61,0.40979
4389.82,0.41006
4384.04,0.41053
4378.25,0.41211
4372.47,0.41245
4366.68,0.41294
4360.89,0.41236
4355.11,0.41200
4349.32,0.41151
4343.53,0.41084
4337.75,0.41029
4331.96,0.40937
4326.18,0.40861
4320.39,0.40771
4314.6,0.40623
4308.82,0.40580
4303.03,0.40433
4297.24,0.40417
4291.46,0.40258
4285.67,0.40052
4279.89,0.39983
4274.1,0.39842
4268.31,0.39832
4262.53,0.39725
4256.74,0.39670
4250.95,0.39584
4245.17,0.39620
4239.38,0.39484
4233.6,0.39435
4227.81,0.39347
4222.02,0.39237
4216.24,0.39185
4210.45,0.39159
4204.66,0.39101
4198.88,0.39073
4193.09,0.38988
4187.31,0.38849
4181.52,0.38749
4175.73,0.38640
4169.95,0.38598
4164.16,0.38489
4158.37,0.38323
4152.59,0.38215
4146.8,0.38022
4141.02,0.37895
4135.23,0.37766
4129.44,0.37554
4123.66,0.37416
4117.87,0.37208
4112.09,0.36988
4106.3,0.36778
4100.51,0.36480
4094.73,0.36154
4088.94,0.35866
4083.15,0.35618
4077.37,0.35394
4071.58,0.35028
4065.8,0.34789
4060.01,0.34560
4054.22,0.34218
4048.44,0.33895
4042.65,0.33609
4036.86,0.33482
4031.08,0.33286
4025.29,0.33141
4019.51,0.33085
4013.72,0.33115
4007.93,0.33082
4002.15,0.33134
3996.36,0.33107
3990.57,0.33200
3984.79,0.33198
3979,0.33154
3973.22,0.33204
3967.43,0.33265
3961.64,0.33238
3955.86,0.33251
3950.07,0.33241
3944.28,0.33304
3938.5,0.33257
3932.71,0.33283
3926.93,0.33331
3921.14,0.33338
3915.35,0.33405
3909.57,0.33343
3903.78,0.33327
3897.99,0.33359
3892.21,0.33293
3886.42,0.33289
3880.64,0.33379
3874.85,0.33286
3869.06,0.33328
3863.28,0.33226
3857.49,0.33299
3851.7,0.33258
3845.92,0.33155
3840.13,0.33136
3834.35,0.33027
3828.56,0.32912
3822.77,0.32775
3816.99,0.32656
3811.2,0.32481
3805.41,0.32330
3799.63,0.32071
3793.84,0.31871
3788.06,0.31733
3782.27,0.31498
3776.48,0.31233
3770.7,0.30943
3764.91,0.30641
3759.12,0.30325
3753.34,0.29968
3747.55,0.29485
3741.77,0.28951
3735.98,0.28365
3730.19,0.27778
3724.41,0.27096
3718.62,0.26040
3712.83,0.24941
3707.05,0.23564
3701.26,0.21762
3695.48,0.20205
3689.69,0.19170
3683.9,0.18090
3678.12,0.16622
3672.33,0.15141
3666.54,0.13798
3660.76,0.12812
3654.97,0.12010
3649.19,0.11304
3643.4,0.10592
3637.61,0.09933
3631.83,0.09391
3626.04,0.08875
3620.25,0.08509
3614.47,0.08126
3608.68,0.07709
3602.9,0.07466
3597.11,0.07120
3591.32,0.06927
3585.54,0.06698
3579.75,0.06412
3573.97,0.06235
3568.18,0.06162
3562.39,0.05938
3556.61,0.05808
3550.82,0.05604
3545.03,0.05515
3539.25,0.05387
3533.46,0.05320
3527.68,0.05250
3521.89,0.05035
3516.1,0.04987
3510.32,0.04814
3504.53,0.04735
3498.74,0.04729
3492.96,0.04603
3487.17,0.04535
3481.39,0.04486
3475.6,0.04469
3469.81,0.04321
3464.03,0.04250
3458.24,0.04282
3452.45,0.04225
3446.67,0.04259
3440.88,0.04193
3435.1,0.04132
3429.31,0.04167
3423.52,0.04160
3417.74,0.04143
3411.95,0.04146
3406.16,0.04082
3400.38,0.04072
3394.59,0.04092
3388.81,0.04157
3383.02,0.04121
3377.23,0.04101
3371.45,0.04120
3365.66,0.04163
3359.87,0.04202
3354.09,0.04191
3348.3,0.04210
3342.52,0.04277
3336.73,0.04358
3330.94,0.04381
3325.16,0.04519
3319.37,0.04510
3313.58,0.04562
3307.8,0.04579
3302.01,0.04579
3296.23,0.04633
3290.44,0.04709
3284.65,0.04834
3278.87,0.04832
3273.08,0.04880
3267.29,0.05050
3261.51,0.05140
3255.72,0.05223
3249.94,0.05314
3244.15,0.05422
3238.36,0.05541
3232.58,0.05613
3226.79,0.05743
3221,0.05809
3215.22,0.05922
3209.43,0.06025
3203.65,0.06171
3197.86,0.06263
3192.07,0.06390
3186.29,0.06537
3180.5,0.06621
3174.71,0.06721
3168.93,0.06826
3163.14,0.07029
3157.36,0.07076
3151.57,0.07208
3145.78,0.07417
3140,0.07467
3134.21,0.07641
3128.42,0.07726
3122.64,0.07884
3116.85,0.08056
3111.07,0.08167
3105.28,0.08356
3099.49,0.08460
3093.71,0.08594
3087.92,0.08669
3082.14,0.08824
3076.35,0.08967
3070.56,0.09097
3064.78,0.09153
3058.99,0.09328
3053.2,0.09471
3047.42,0.09589
3041.63,0.09709
3035.85,0.09735
3030.06,0.09640
3024.27,0.09748
3018.49,0.09964
3012.7,0.10073
3006.91,0.10117
3001.13,0.10020
2995.34,0.10032
2989.56,0.09946
2983.77,0.09736
2977.98,0.09462
2972.2,0.08982
2966.41,0.08553
2960.62,0.08372
2954.84,0.08269
2949.05,0.08016
2943.27,0.07901
2937.48,0.07887
2931.69,0.07798
2925.91,0.07708
2920.12,0.07736
2914.33,0.07615
2908.55,0.07611
2902.76,0.07613
2896.98,0.07809
2891.19,0.08064
2885.4,0.08297
2879.62,0.08374
2873.83,0.08527
2868.04,0.08638
2862.26,0.08861
2856.47,0.09122
2850.69,0.09499
2844.9,0.10017
2839.11,0.10573
2833.33,0.10997
2827.54,0.11427
2821.75,0.11746
2815.97,0.12041
2810.18,0.12405
2804.4,0.12717
2798.61,0.12920
2792.82,0.13158
2787.04,0.13260
2781.25,0.13432
2775.46,0.13533
2769.68,0.13669
2763.89,0.13777
2758.11,0.13864
2752.32,0.14002
2746.53,0.14061
2740.75,0.14147
2734.96,0.14249
2729.17,0.14392
2723.39,0.14550
2717.6,0.14677
2711.82,0.14763
2706.03,0.15098
2700.24,0.15290
2694.46,0.15476
2688.67,0.15647
2682.88,0.15853
2677.1,0.16064
2671.31,0.16279
2665.53,0.16392
2659.74,0.16490
2653.95,0.16612
2648.17,0.16810
2642.38,0.16985
2636.59,0.17144
2630.81,0.17295
2625.02,0.17468
2619.24,0.17568
2613.45,0.17709
2607.66,0.17827
2601.88,0.17915
2596.09,0.18052
2590.3,0.18134
2584.52,0.18227
2578.73,0.18296
2572.95,0.18352
2567.16,0.18404
2561.37,0.18432
2555.59,0.18466
2549.8,0.18425
2544.02,0.18475
2538.23,0.18500
2532.44,0.18556
2526.66,0.18632
2520.87,0.18660
2515.08,0.18670
2509.3,0.18821
2503.51,0.18994
2497.73,0.19164
2491.94,0.19302
2486.15,0.19475
2480.37,0.19549
2474.58,0.19664
2468.79,0.19752
2463.01,0.19819
2457.22,0.19855
2451.44,0.19929
2445.65,0.20019
2439.86,0.20108
2434.08,0.20171
2428.29,0.20217
2422.5,0.20342
2416.72,0.20392
2410.93,0.20392
2405.15,0.20402
2399.36,0.20467
2393.57,0.20452
2387.79,0.20430
2382,0.20426
2376.21,0.20444
2370.43,0.20461
2364.64,0.20426
2358.86,0.20429
2353.07,0.20385
2347.28,0.20395
2341.5,0.20298
2335.71,0.20334
2329.92,0.20291
2324.14,0.20255
2318.35,0.20264
2312.57,0.20198
2306.78,0.20176
2300.99,0.20130
2295.21,0.19987
2289.42,0.19878
2283.63,0.19778
2277.85,0.19679
2272.06,0.19512
2266.28,0.19374
2260.49,0.19228
2254.7,0.19084
2248.92,0.18960
2243.13,0.18841
2237.34,0.18805
2231.56,0.18775
2225.77,0.18761
2219.99,0.18853
2214.2,0.19007
2208.41,0.19068
2202.63,0.19111
2196.84,0.19121
2191.05,0.19001
2185.27,0.18968
2179.48,0.18848
2173.7,0.18680
2167.91,0.18520
2162.12,0.18379
2156.34,0.18274
2150.55,0.18104
2144.76,0.17983
2138.98,0.17820
2133.19,0.17815
2127.41,0.17911
2121.62,0.18024
2115.83,0.18053
2110.05,0.18097
2104.26,0.18117
2098.47,0.18100
2092.69,0.18113
2086.9,0.18097
2081.12,0.18025
2075.33,0.17944
2069.54,0.17811
2063.76,0.17709
2057.97,0.17555
2052.19,0.17334
2046.4,0.16964
2040.61,0.16510
2034.83,0.15930
2029.04,0.15587
2023.25,0.15475
2017.47,0.15267
2011.68,0.14820
2005.9,0.14414
2000.11,0.14192
1994.32,0.14137
1988.54,0.14184
1982.75,0.14226
1976.96,0.14235
1971.18,0.14320
1965.39,0.14523
1959.61,0.14703
1953.82,0.14769
1948.03,0.14788
1942.25,0.14842
1936.46,0.14976
1930.67,0.15047
1924.89,0.15066
1919.1,0.14907
1913.32,0.14409
1907.53,0.13729
1901.74,0.13101
1895.96,0.12574
1890.17,0.12214
1884.38,0.11909
1878.6,0.11761
1872.81,0.11668
1867.03,0.11717
1861.24,0.12004
1855.45,0.12708
1849.67,0.13533
1843.88,0.14171
1838.09,0.14451
1832.31,0.14431
1826.52,0.14183
1820.74,0.13818
1814.95,0.13416
1809.16,0.12982
1803.38,0.12618
1797.59,0.12348
1791.8,0.12197
1786.02,0.12189
1780.23,0.12285
1774.45,0.12431
1768.66,0.12690
1762.87,0.12851
1757.09,0.12732
1751.3,0.12098
1745.51,0.10672
1739.73,0.09013
1733.94,0.08002
1728.16,0.07851
1722.37,0.08444
1716.58,0.09130
1710.8,0.09219
1705.01,0.09068
1699.22,0.08762
1693.44,0.08294
1687.65,0.07920
1681.87,0.07503
1676.08,0.07194
1670.29,0.06932
1664.51,0.06612
1658.72,0.06364
1652.93,0.06156
1647.15,0.05938
1641.36,0.05819
1635.58,0.05790
1629.79,0.05702
1624,0.05689
1618.22,0.05648
1612.43,0.05643
1606.64,0.05632
1600.86,0.05662
1595.07,0.05749
1589.29,0.05847
1583.5,0.05937
1577.71,0.06027
1571.93,0.06061
1566.14,0.06192
1560.35,0.06292
1554.57,0.06284
1548.78,0.06264
1543,0.06194
1537.21,0.06036
1531.42,0.05920
1525.64,0.05826
1519.85,0.05676
1514.07,0.05509
1508.28,0.05406
1502.49,0.05281
1496.71,0.04995
1490.92,0.04878
1485.13,0.04677
1479.35,0.04510
1473.56,0.04357
1467.78,0.04129
1461.99,0.04010
1456.2,0.03889
1450.42,0.03856
1444.63,0.03770
1438.84,0.03724
1433.06,0.03593
1427.27,0.03642
1421.49,0.03863
1415.7,0.03988
1409.91,0.04057
1404.13,0.04075
1398.34,0.04075
1392.55,0.04021
1386.77,0.03905
1380.98,0.03771
1375.2,0.03786
1369.41,0.03894
1363.62,0.04095
1357.84,0.04241
1352.05,0.04406
1346.26,0.04512
1340.48,0.04436
1334.69,0.04468
1328.91,0.04622
1323.12,0.04586
1317.33,0.04613
1311.55,0.04959
1305.76,0.05338
1299.97,0.05619
1294.19,0.05727
1288.4,0.05667
1282.62,0.05571
1276.83,0.05781
1271.04,0.06073
1265.26,0.06343
1259.47,0.06721
1253.68,0.07236
1247.9,0.07635
1242.11,0.08157
1236.33,0.08782
1230.54,0.09780
1224.75,0.10540
1218.97,0.10618
1213.18,0.10147
1207.39,0.09330
1201.61,0.08928
1195.82,0.08730
1190.04,0.08622
1184.25,0.08398
1178.46,0.08193
1172.68,0.08038
1166.89,0.07884
1161.1,0.07003
1155.32,0.07179
1149.53,0.07978
1143.75,0.08326
1137.96,0.08554
1132.17,0.08639
1126.39,0.08809
1120.6,0.09098
1114.81,0.09393
1109.03,0.09722
1103.24,0.10015
1097.46,0.10080
1091.67,0.10248
1085.88,0.10337
1080.1,0.10384
1074.31,0.10480
1068.52,0.09772
1062.74,0.08925
1056.95,0.08085
1051.17,0.07458
1045.38,0.06889
1039.59,0.06797
1033.81,0.06870
1028.02,0.06814
1022.24,0.06647
1016.45,0.06579
1010.66,0.06633
1004.88,0.06581
999.09,0.06531
993.304,0.06690
987.518,0.06838
981.731,0.07001
975.945,0.07292
970.159,0.07290
964.373,0.07310
958.586,0.07368
952.8,0.07468
947.014,0.07417
941.228,0.07399
935.441,0.07377
929.655,0.07415
923.869,0.07365
918.083,0.07334
912.297,0.07063
906.51,0.06822
900.724,0.06596
894.938,0.06646
889.152,0.06757
883.365,0.06889
877.579,0.06953
871.793,0.06898
866.007,0.06933
860.22,0.06969
854.434,0.06909
848.648,0.06883
842.862,0.06729
837.075,0.06571
831.289,0.06262
825.503,0.06000
819.717,0.05641
813.931,0.05384
808.144,0.05746
802.358,0.06494
796.572,0.06619
790.786,0.06462
784.999,0.06839
779.213,0.07107
773.427,0.06754
767.641,0.06482
761.854,0.06286
756.068,0.06225
750.282,0.06247
744.496,0.06049
738.709,0.05842
732.923,0.05583
727.137,0.05322
721.351,0.05036
715.565,0.04819
709.778,0.04502
703.992,0.04205
698.206,0.04143
692.42,0.04464
686.633,0.04657
680.847,0.04577
675.061,0.04441
669.275,0.04462
663.488,0.04432
657.702,0.04552
651.916,0.04425
646.13,0.04290
640.343,0.04257
634.557,0.04075
628.771,0.04071
622.985,0.04122
617.198,0.03971
611.412,0.03966
605.626,0.04202
599.84,0.04425