File: 01_Data/Fiber_Cement_Board/FTIR/IS/Fiber_Cement_Board_IS_S_221012_R3.dpt
7497.03,0.51089
7491.25,0.50611
7485.46,0.50929
7479.67,0.49851
7473.89,0.49707
7468.1,0.51664
7462.32,0.50979
7456.53,0.50471
7450.74,0.50691
7444.96,0.51219
7439.17,0.50953
7433.38,0.50575
7427.6,0.51105
7421.81,0.51384
7416.03,0.50970
7410.24,0.50911
7404.45,0.51407
7398.67,0.51616
7392.88,0.50336
7387.09,0.50840
7381.31,0.51450
7375.52,0.51997
7369.74,0.50951
7363.95,0.51276
7358.16,0.50265
7352.38,0.51478
7346.59,0.50081
7340.8,0.50528
7335.02,0.49833
7329.23,0.50243
7323.45,0.50598
7317.66,0.50417
7311.87,0.51094
7306.09,0.49636
7300.3,0.50592
7294.51,0.51244
7288.73,0.50594
7282.94,0.49383
7277.16,0.50514
7271.37,0.50533
7265.58,0.50340
7259.8,0.50720
7254.01,0.50042
7248.22,0.50815
7242.44,0.50710
7236.65,0.50582
7230.87,0.50153
7225.08,0.50271
7219.29,0.50103
7213.51,0.50761
7207.72,0.49816
7201.93,0.49792
7196.15,0.50663
7190.36,0.50085
7184.58,0.49585
7178.79,0.49979
7173,0.49237
7167.22,0.49750
7161.43,0.49467
7155.65,0.49833
7149.86,0.48518
7144.07,0.49670
7138.29,0.49540
7132.5,0.48689
7126.71,0.49176
7120.93,0.49164
7115.14,0.49049
7109.36,0.48870
7103.57,0.49985
7097.78,0.49297
7092,0.48851
7086.21,0.48799
7080.42,0.48632
7074.64,0.49250
7068.85,0.47781
7063.07,0.48222
7057.28,0.48537
7051.49,0.47944
7045.71,0.48106
7039.92,0.49037
7034.13,0.48737
7028.35,0.48379
7022.56,0.48229
7016.78,0.48465
7010.99,0.48301
7005.2,0.48259
6999.42,0.48801
6993.63,0.48623
6987.84,0.48674
6982.06,0.48736
6976.27,0.48176
6970.49,0.48833
6964.7,0.48700
6958.91,0.48421
6953.13,0.48385
6947.34,0.47790
6941.55,0.48435
6935.77,0.48803
6929.98,0.48518
6924.2,0.48535
6918.41,0.48607
6912.62,0.48435
6906.84,0.47997
6901.05,0.48475
6895.26,0.48500
6889.48,0.48087
6883.69,0.48605
6877.91,0.47919
6872.12,0.48290
6866.33,0.47981
6860.55,0.48434
6854.76,0.48538
6848.97,0.48008
6843.19,0.48081
6837.4,0.47686
6831.62,0.48455
6825.83,0.48308
6820.04,0.48915
6814.26,0.48715
6808.47,0.48517
6802.68,0.48421
6796.9,0.48972
6791.11,0.48261
6785.33,0.48594
6779.54,0.49036
6773.75,0.49188
6767.97,0.48016
6762.18,0.48080
6756.39,0.48760
6750.61,0.48243
6744.82,0.48737
6739.04,0.48447
6733.25,0.48776
6727.46,0.48658
6721.68,0.48493
6715.89,0.48357
6710.1,0.48235
6704.32,0.48557
6698.53,0.48214
6692.75,0.48530
6686.96,0.48447
6681.17,0.48570
6675.39,0.48702
6669.6,0.48205
6663.82,0.48474
6658.03,0.48463
6652.24,0.48533
6646.46,0.48309
6640.67,0.48584
6634.88,0.48942
6629.1,0.48714
6623.31,0.48613
6617.53,0.49087
6611.74,0.49186
6605.95,0.48883
6600.17,0.48494
6594.38,0.48371
6588.59,0.49046
6582.81,0.48931
6577.02,0.48775
6571.24,0.48518
6565.45,0.49220
6559.66,0.48774
6553.88,0.49052
6548.09,0.49079
6542.3,0.48099
6536.52,0.49305
6530.73,0.49167
6524.95,0.48300
6519.16,0.48827
6513.37,0.48645
6507.59,0.49497
6501.8,0.48859
6496.01,0.49090
6490.23,0.48524
6484.44,0.49084
6478.66,0.48779
6472.87,0.48650
6467.08,0.48757
6461.3,0.49261
6455.51,0.48834
6449.72,0.48809
6443.94,0.48951
6438.15,0.48744
6432.37,0.48625
6426.58,0.48908
6420.79,0.49016
6415.01,0.49090
6409.22,0.48775
6403.43,0.49019
6397.65,0.48958
6391.86,0.48953
6386.08,0.48920
6380.29,0.49028
6374.5,0.49067
6368.72,0.48833
6362.93,0.48882
6357.14,0.49195
6351.36,0.48936
6345.57,0.48936
6339.79,0.49061
6334,0.49069
6328.21,0.48832
6322.43,0.48840
6316.64,0.49005
6310.85,0.48839
6305.07,0.49015
6299.28,0.49322
6293.5,0.49209
6287.71,0.49013
6281.92,0.48734
6276.14,0.48757
6270.35,0.48546
6264.56,0.48914
6258.78,0.48948
6252.99,0.49199
6247.21,0.48797
6241.42,0.48917
6235.63,0.49437
6229.85,0.49214
6224.06,0.48790
6218.27,0.49273
6212.49,0.49067
6206.7,0.49360
6200.92,0.49635
6195.13,0.49090
6189.34,0.48939
6183.56,0.49210
6177.77,0.49658
6171.98,0.49201
6166.2,0.49271
6160.41,0.48954
6154.63,0.49064
6148.84,0.49344
6143.05,0.49216
6137.27,0.49206
6131.48,0.49231
6125.7,0.49132
6119.91,0.49434
6114.12,0.49446
6108.34,0.49137
6102.55,0.49364
6096.76,0.48774
6090.98,0.49386
6085.19,0.49146
6079.41,0.49487
6073.62,0.49514
6067.83,0.49466
6062.05,0.49358
6056.26,0.49394
6050.47,0.49155
6044.69,0.49172
6038.9,0.49267
6033.12,0.49376
6027.33,0.49198
6021.54,0.49275
6015.76,0.49374
6009.97,0.49035
6004.18,0.49222
5998.4,0.49069
5992.61,0.49191
5986.83,0.49047
5981.04,0.49107
5975.25,0.49011
5969.47,0.49199
5963.68,0.49127
5957.89,0.49001
5952.11,0.49063
5946.32,0.48891
5940.54,0.49123
5934.75,0.48929
5928.96,0.49129
5923.18,0.48846
5917.39,0.48898
5911.6,0.49012
5905.82,0.48906
5900.03,0.48983
5894.25,0.49116
5888.46,0.48890
5882.67,0.48941
5876.89,0.48963
5871.1,0.49131
5865.31,0.48982
5859.53,0.48893
5853.74,0.48769
5847.96,0.48761
5842.17,0.48938
5836.38,0.48845
5830.6,0.48788
5824.81,0.48717
5819.02,0.48940
5813.24,0.49064
5807.45,0.48909
5801.67,0.48740
5795.88,0.48909
5790.09,0.49001
5784.31,0.48638
5778.52,0.48742
5772.73,0.48831
5766.95,0.48636
5761.16,0.48764
5755.38,0.48683
5749.59,0.48551
5743.8,0.48710
5738.02,0.48629
5732.23,0.48645
5726.44,0.48643
5720.66,0.48366
5714.87,0.48740
5709.09,0.48782
5703.3,0.48672
5697.51,0.48504
5691.73,0.48528
5685.94,0.48719
5680.15,0.48512
5674.37,0.48521
5668.58,0.48562
5662.8,0.48513
5657.01,0.48790
5651.22,0.48563
5645.44,0.48549
5639.65,0.48421
5633.87,0.48444
5628.08,0.48436
5622.29,0.48525
5616.51,0.48296
5610.72,0.48305
5604.93,0.48408
5599.15,0.48561
5593.36,0.48426
5587.58,0.48539
5581.79,0.48314
5576,0.48357
5570.22,0.48417
5564.43,0.48424
5558.64,0.48368
5552.86,0.48540
5547.07,0.48237
5541.29,0.48137
5535.5,0.48459
5529.71,0.48406
5523.93,0.48608
5518.14,0.48334
5512.35,0.48270
5506.57,0.48382
5500.78,0.48204
5495,0.48468
5489.21,0.48470
5483.42,0.48307
5477.64,0.48350
5471.85,0.48300
5466.06,0.48204
5460.28,0.48081
5454.49,0.48330
5448.71,0.48414
5442.92,0.48449
5437.13,0.48207
5431.35,0.48283
5425.56,0.48342
5419.77,0.48287
5413.99,0.48196
5408.2,0.48194
5402.42,0.48058
5396.63,0.48151
5390.84,0.48269
5385.06,0.48373
5379.27,0.48197
5373.48,0.48147
5367.7,0.48078
5361.91,0.47971
5356.13,0.47865
5350.34,0.47961
5344.55,0.47820
5338.77,0.47755
5332.98,0.47601
5327.19,0.47408
5321.41,0.47312
5315.62,0.47206
5309.84,0.47080
5304.05,0.46932
5298.26,0.46786
5292.48,0.46339
5286.69,0.46152
5280.9,0.45876
5275.12,0.45435
5269.33,0.45123
5263.55,0.44742
5257.76,0.44337
5251.97,0.43882
5246.19,0.43344
5240.4,0.43119
5234.61,0.42477
5228.83,0.42062
5223.04,0.41510
5217.26,0.41199
5211.47,0.40903
5205.68,0.40771
5199.9,0.40506
5194.11,0.40328
5188.32,0.40551
5182.54,0.40418
5176.75,0.40626
5170.97,0.40602
5165.18,0.40752
5159.39,0.40953
5153.61,0.41262
5147.82,0.41496
5142.03,0.41542
5136.25,0.41831
5130.46,0.41983
5124.68,0.42233
5118.89,0.42377
5113.1,0.42396
5107.32,0.42559
5101.53,0.42669
5095.75,0.42836
5089.96,0.42903
5084.17,0.43000
5078.39,0.43084
5072.6,0.43310
5066.81,0.43477
5061.03,0.43453
5055.24,0.43650
5049.46,0.43773
5043.67,0.43716
5037.88,0.43824
5032.1,0.43964
5026.31,0.44075
5020.52,0.44052
5014.74,0.44316
5008.95,0.44225
5003.17,0.44355
4997.38,0.44529
4991.59,0.44502
4985.81,0.44552
4980.02,0.44640
4974.23,0.44568
4968.45,0.44535
4962.66,0.44651
4956.88,0.44777
4951.09,0.44732
4945.3,0.44706
4939.52,0.44750
4933.73,0.44660
4927.94,0.44677
4922.16,0.44612
4916.37,0.44627
4910.59,0.44563
4904.8,0.44360
4899.01,0.44540
4893.23,0.44474
4887.44,0.44457
4881.65,0.44288
4875.87,0.44173
4870.08,0.44265
4864.3,0.44142
4858.51,0.43921
4852.72,0.43921
4846.94,0.43851
4841.15,0.43918
4835.36,0.43775
4829.58,0.43613
4823.79,0.43557
4818.01,0.43423
4812.22,0.43427
4806.43,0.43363
4800.65,0.43303
4794.86,0.43344
4789.07,0.43205
4783.29,0.43291
4777.5,0.43218
4771.72,0.43205
4765.93,0.43242
4760.14,0.43187
4754.36,0.43103
4748.57,0.43130
4742.78,0.43200
4737,0.43169
4731.21,0.43152
4725.43,0.43357
4719.64,0.43384
4713.85,0.43345
4708.07,0.43355
4702.28,0.43417
4696.49,0.43500
4690.71,0.43598
4684.92,0.43599
4679.14,0.43638
4673.35,0.43590
4667.56,0.43669
4661.78,0.43695
4655.99,0.43785
4650.2,0.43668
4644.42,0.43770
4638.63,0.43806
4632.85,0.43790
4627.06,0.43752
4621.27,0.43667
4615.49,0.43773
4609.7,0.43721
4603.92,0.43685
4598.13,0.43747
4592.34,0.43838
4586.56,0.43826
4580.77,0.43723
4574.98,0.43624
4569.2,0.43618
4563.41,0.43676
4557.63,0.43614
4551.84,0.43479
4546.05,0.43439
4540.27,0.43423
4534.48,0.43338
4528.69,0.43283
4522.91,0.43219
4517.12,0.43187
4511.34,0.43200
4505.55,0.43175
4499.76,0.43077
4493.98,0.42989
4488.19,0.42937
4482.4,0.42669
4476.62,0.42721
4470.83,0.42574
4465.05,0.42425
4459.26,0.42331
4453.47,0.42161
4447.69,0.42012
4441.9,0.41945
4436.11,0.41654
4430.33,0.41588
4424.54,0.41377
4418.76,0.41300
4412.97,0.40999
4407.18,0.40983
4401.4,0.40869
4395.61,0.40789
4389.82,0.40923
4384.04,0.41028
4378.25,0.41062
4372.47,0.41094
4366.68,0.41068
4360.89,0.41066
4355.11,0.41003
4349.32,0.40913
4343.53,0.40970
4337.75,0.40862
4331.96,0.40749
4326.18,0.40660
4320.39,0.40610
4314.6,0.40477
4308.82,0.40424
4303.03,0.40303
4297.24,0.40228
4291.46,0.40062
4285.67,0.39865
4279.89,0.39843
4274.1,0.39781
4268.31,0.39734
4262.53,0.39584
4256.74,0.39524
4250.95,0.39485
4245.17,0.39299
4239.38,0.39288
4233.6,0.39342
4227.81,0.39215
4222.02,0.39178
4216.24,0.39073
4210.45,0.38998
4204.66,0.38893
4198.88,0.38876
4193.09,0.38756
4187.31,0.38772
4181.52,0.38606
4175.73,0.38505
4169.95,0.38383
4164.16,0.38310
4158.37,0.38179
4152.59,0.38019
4146.8,0.37923
4141.02,0.37713
4135.23,0.37657
4129.44,0.37457
4123.66,0.37272
4117.87,0.37002
4112.09,0.36683
4106.3,0.36581
4100.51,0.36304
4094.73,0.36040
4088.94,0.35746
4083.15,0.35508
4077.37,0.35172
4071.58,0.34959
4065.8,0.34603
4060.01,0.34366
4054.22,0.34106
4048.44,0.33807
4042.65,0.33466
4036.86,0.33259
4031.08,0.33094
4025.29,0.32998
4019.51,0.32952
4013.72,0.32966
4007.93,0.32940
4002.15,0.32885
3996.36,0.32975
3990.57,0.32986
3984.79,0.33060
3979,0.33100
3973.22,0.33099
3967.43,0.33033
3961.64,0.33051
3955.86,0.33068
3950.07,0.33166
3944.28,0.33159
3938.5,0.33142
3932.71,0.33196
3926.93,0.33193
3921.14,0.33198
3915.35,0.33258
3909.57,0.33299
3903.78,0.33204
3897.99,0.33211
3892.21,0.33252
3886.42,0.33235
3880.64,0.33195
3874.85,0.33129
3869.06,0.33190
3863.28,0.33180
3857.49,0.33051
3851.7,0.33065
3845.92,0.33010
3840.13,0.33000
3834.35,0.32846
3828.56,0.32713
3822.77,0.32603
3816.99,0.32499
3811.2,0.32340
3805.41,0.32103
3799.63,0.31949
3793.84,0.31763
3788.06,0.31543
3782.27,0.31333
3776.48,0.31065
3770.7,0.30812
3764.91,0.30525
3759.12,0.30177
3753.34,0.29759
3747.55,0.29405
3741.77,0.28815
3735.98,0.28294
3730.19,0.27608
3724.41,0.26849
3718.62,0.25987
3712.83,0.24860
3707.05,0.23419
3701.26,0.21583
3695.48,0.20087
3689.69,0.19086
3683.9,0.17944
3678.12,0.16607
3672.33,0.15138
3666.54,0.13754
3660.76,0.12729
3654.97,0.11856
3649.19,0.11164
3643.4,0.10499
3637.61,0.09924
3631.83,0.09317
3626.04,0.08661
3620.25,0.08313
3614.47,0.07990
3608.68,0.07638
3602.9,0.07320
3597.11,0.07069
3591.32,0.06843
3585.54,0.06611
3579.75,0.06414
3573.97,0.06207
3568.18,0.06060
3562.39,0.05910
3556.61,0.05757
3550.82,0.05603
3545.03,0.05485
3539.25,0.05340
3533.46,0.05189
3527.68,0.05062
3521.89,0.04990
3516.1,0.04917
3510.32,0.04758
3504.53,0.04741
3498.74,0.04573
3492.96,0.04632
3487.17,0.04549
3481.39,0.04448
3475.6,0.04389
3469.81,0.04331
3464.03,0.04271
3458.24,0.04207
3452.45,0.04281
3446.67,0.04158
3440.88,0.04160
3435.1,0.04174
3429.31,0.04155
3423.52,0.04093
3417.74,0.04111
3411.95,0.04099
3406.16,0.04101
3400.38,0.04110
3394.59,0.04128
3388.81,0.04102
3383.02,0.04087
3377.23,0.04153
3371.45,0.04132
3365.66,0.04147
3359.87,0.04128
3354.09,0.04136
3348.3,0.04182
3342.52,0.04263
3336.73,0.04344
3330.94,0.04377
3325.16,0.04480
3319.37,0.04503
3313.58,0.04498
3307.8,0.04507
3302.01,0.04559
3296.23,0.04593
3290.44,0.04626
3284.65,0.04673
3278.87,0.04779
3273.08,0.04852
3267.29,0.04994
3261.51,0.05058
3255.72,0.05141
3249.94,0.05244
3244.15,0.05345
3238.36,0.05504
3232.58,0.05573
3226.79,0.05685
3221,0.05774
3215.22,0.05916
3209.43,0.05963
3203.65,0.06068
3197.86,0.06184
3192.07,0.06268
3186.29,0.06381
3180.5,0.06547
3174.71,0.06620
3168.93,0.06718
3163.14,0.06906
3157.36,0.07011
3151.57,0.07185
3145.78,0.07273
3140,0.07404
3134.21,0.07536
3128.42,0.07680
3122.64,0.07828
3116.85,0.07964
3111.07,0.08094
3105.28,0.08228
3099.49,0.08269
3093.71,0.08458
3087.92,0.08562
3082.14,0.08740
3076.35,0.08929
3070.56,0.08943
3064.78,0.09056
3058.99,0.09160
3053.2,0.09331
3047.42,0.09456
3041.63,0.09608
3035.85,0.09620
3030.06,0.09585
3024.27,0.09640
3018.49,0.09871
3012.7,0.10006
3006.91,0.09981
3001.13,0.09909
2995.34,0.09889
2989.56,0.09822
2983.77,0.09661
2977.98,0.09386
2972.2,0.08880
2966.41,0.08531
2960.62,0.08341
2954.84,0.08185
2949.05,0.07982
2943.27,0.07855
2937.48,0.07897
2931.69,0.07795
2925.91,0.07709
2920.12,0.07653
2914.33,0.07615
2908.55,0.07580
2902.76,0.07647
2896.98,0.07745
2891.19,0.08003
2885.4,0.08149
2879.62,0.08352
2873.83,0.08429
2868.04,0.08626
2862.26,0.08843
2856.47,0.09043
2850.69,0.09440
2844.9,0.09959
2839.11,0.10482
2833.33,0.10907
2827.54,0.11284
2821.75,0.11652
2815.97,0.12010
2810.18,0.12299
2804.4,0.12591
2798.61,0.12859
2792.82,0.13101
2787.04,0.13203
2781.25,0.13325
2775.46,0.13469
2769.68,0.13596
2763.89,0.13709
2758.11,0.13808
2752.32,0.13919
2746.53,0.14005
2740.75,0.14062
2734.96,0.14194
2729.17,0.14278
2723.39,0.14406
2717.6,0.14574
2711.82,0.14752
2706.03,0.14967
2700.24,0.15183
2694.46,0.15387
2688.67,0.15570
2682.88,0.15721
2677.1,0.15987
2671.31,0.16147
2665.53,0.16242
2659.74,0.16428
2653.95,0.16590
2648.17,0.16740
2642.38,0.16894
2636.59,0.17089
2630.81,0.17251
2625.02,0.17358
2619.24,0.17469
2613.45,0.17645
2607.66,0.17727
2601.88,0.17842
2596.09,0.17974
2590.3,0.18034
2584.52,0.18118
2578.73,0.18199
2572.95,0.18232
2567.16,0.18256
2561.37,0.18285
2555.59,0.18321
2549.8,0.18393
2544.02,0.18383
2538.23,0.18370
2532.44,0.18462
2526.66,0.18511
2520.87,0.18551
2515.08,0.18585
2509.3,0.18716
2503.51,0.18882
2497.73,0.19050
2491.94,0.19162
2486.15,0.19316
2480.37,0.19464
2474.58,0.19562
2468.79,0.19637
2463.01,0.19686
2457.22,0.19766
2451.44,0.19816
2445.65,0.19885
2439.86,0.19993
2434.08,0.20044
2428.29,0.20155
2422.5,0.20223
2416.72,0.20238
2410.93,0.20316
2405.15,0.20293
2399.36,0.20357
2393.57,0.20345
2387.79,0.20313
2382,0.20318
2376.21,0.20306
2370.43,0.20320
2364.64,0.20313
2358.86,0.20252
2353.07,0.20274
2347.28,0.20230
2341.5,0.20174
2335.71,0.20138
2329.92,0.20139
2324.14,0.20126
2318.35,0.20115
2312.57,0.20108
2306.78,0.20059
2300.99,0.19944
2295.21,0.19870
2289.42,0.19772
2283.63,0.19674
2277.85,0.19522
2272.06,0.19410
2266.28,0.19220
2260.49,0.19124
2254.7,0.18979
2248.92,0.18883
2243.13,0.18700
2237.34,0.18621
2231.56,0.18605
2225.77,0.18646
2219.99,0.18734
2214.2,0.18843
2208.41,0.18925
2202.63,0.18949
2196.84,0.18956
2191.05,0.18926
2185.27,0.18823
2179.48,0.18679
2173.7,0.18505
2167.91,0.18384
2162.12,0.18223
2156.34,0.18103
2150.55,0.18010
2144.76,0.17828
2138.98,0.17708
2133.19,0.17682
2127.41,0.17765
2121.62,0.17842
2115.83,0.17934
2110.05,0.17928
2104.26,0.17980
2098.47,0.17987
2092.69,0.17952
2086.9,0.17930
2081.12,0.17894
2075.33,0.17808
2069.54,0.17708
2063.76,0.17578
2057.97,0.17420
2052.19,0.17198
2046.4,0.16869
2040.61,0.16405
2034.83,0.15816
2029.04,0.15490
2023.25,0.15365
2017.47,0.15150
2011.68,0.14711
2005.9,0.14294
2000.11,0.14134
1994.32,0.14067
1988.54,0.14086
1982.75,0.14158
1976.96,0.14187
1971.18,0.14242
1965.39,0.14441
1959.61,0.14639
1953.82,0.14684
1948.03,0.14699
1942.25,0.14772
1936.46,0.14872
1930.67,0.14952
1924.89,0.14998
1919.1,0.14800
1913.32,0.14334
1907.53,0.13653
1901.74,0.13045
1895.96,0.12507
1890.17,0.12118
1884.38,0.11890
1878.6,0.11726
1872.81,0.11578
1867.03,0.11610
1861.24,0.11996
1855.45,0.12651
1849.67,0.13434
1843.88,0.14075
1838.09,0.14384
1832.31,0.14382
1826.52,0.14097
1820.74,0.13754
1814.95,0.13325
1809.16,0.12892
1803.38,0.12491
1797.59,0.12228
1791.8,0.12131
1786.02,0.12105
1780.23,0.12150
1774.45,0.12338
1768.66,0.12620
1762.87,0.12757
1757.09,0.12645
1751.3,0.12019
1745.51,0.10618
1739.73,0.08994
1733.94,0.07952
1728.16,0.07819
1722.37,0.08379
1716.58,0.09054
1710.8,0.09172
1705.01,0.09020
1699.22,0.08663
1693.44,0.08153
1687.65,0.07774
1681.87,0.07389
1676.08,0.07111
1670.29,0.06829
1664.51,0.06507
1658.72,0.06246
1652.93,0.06083
1647.15,0.05876
1641.36,0.05771
1635.58,0.05687
1629.79,0.05633
1624,0.05597
1618.22,0.05582
1612.43,0.05579
1606.64,0.05593
1600.86,0.05642
1595.07,0.05741
1589.29,0.05847
1583.5,0.05885
1577.71,0.05910
1571.93,0.06041
1566.14,0.06155
1560.35,0.06266
1554.57,0.06259
1548.78,0.06196
1543,0.06133
1537.21,0.06027
1531.42,0.05862
1525.64,0.05755
1519.85,0.05639
1514.07,0.05524
1508.28,0.05381
1502.49,0.05220
1496.71,0.05039
1490.92,0.04887
1485.13,0.04631
1479.35,0.04473
1473.56,0.04351
1467.78,0.04143
1461.99,0.03993
1456.2,0.03872
1450.42,0.03827
1444.63,0.03774
1438.84,0.03719
1433.06,0.03628
1427.27,0.03685
1421.49,0.03850
1415.7,0.03965
1409.91,0.04037
1404.13,0.04063
1398.34,0.04033
1392.55,0.04081
1386.77,0.03927
1380.98,0.03838
1375.2,0.03788
1369.41,0.03904
1363.62,0.04086
1357.84,0.04251
1352.05,0.04400
1346.26,0.04524
1340.48,0.04456
1334.69,0.04474
1328.91,0.04600
1323.12,0.04609
1317.33,0.04651
1311.55,0.04936
1305.76,0.05369
1299.97,0.05623
1294.19,0.05702
1288.4,0.05627
1282.62,0.05495
1276.83,0.05727
1271.04,0.06031
1265.26,0.06363
1259.47,0.06763
1253.68,0.07227
1247.9,0.07632
1242.11,0.08128
1236.33,0.08819
1230.54,0.09728
1224.75,0.10545
1218.97,0.10616
1213.18,0.10123
1207.39,0.09408
1201.61,0.08912
1195.82,0.08697
1190.04,0.08579
1184.25,0.08381
1178.46,0.08176
1172.68,0.07991
1166.89,0.07896
1161.1,0.06995
1155.32,0.07145
1149.53,0.07985
1143.75,0.08370
1137.96,0.08491
1132.17,0.08647
1126.39,0.08814
1120.6,0.09077
1114.81,0.09363
1109.03,0.09726
1103.24,0.10007
1097.46,0.10092
1091.67,0.10160
1085.88,0.10216
1080.1,0.10442
1074.31,0.10440
1068.52,0.09867
1062.74,0.08904
1056.95,0.08093
1051.17,0.07443
1045.38,0.06887
1039.59,0.06765
1033.81,0.06849
1028.02,0.06797
1022.24,0.06709
1016.45,0.06656
1010.66,0.06578
1004.88,0.06556
999.09,0.06552
993.304,0.06713
987.518,0.06802
981.731,0.07057
975.945,0.07256
970.159,0.07286
964.373,0.07323
958.586,0.07384
952.8,0.07390
947.014,0.07423
941.228,0.07412
935.441,0.07392
929.655,0.07366
923.869,0.07367
918.083,0.07220
912.297,0.06998
906.51,0.06870
900.724,0.06654
894.938,0.06571
889.152,0.06725
883.365,0.06825
877.579,0.06901
871.793,0.06931
866.007,0.06980
860.22,0.06892
854.434,0.06939
848.648,0.06783
842.862,0.06717
837.075,0.06601
831.289,0.06232
825.503,0.06025
819.717,0.05599
813.931,0.05317
808.144,0.05729
802.358,0.06478
796.572,0.06527
790.786,0.06323
784.999,0.06816
779.213,0.06992
773.427,0.06644
767.641,0.06393
761.854,0.06391
756.068,0.06223
750.282,0.06100
744.496,0.05993
738.709,0.05793
732.923,0.05574
727.137,0.05292
721.351,0.05112
715.565,0.04881
709.778,0.04598
703.992,0.04273
698.206,0.04133
692.42,0.04407
686.633,0.04482
680.847,0.04553
675.061,0.04362
669.275,0.04636
663.488,0.04596
657.702,0.04498
651.916,0.04471
646.13,0.04359
640.343,0.04316
634.557,0.04145
628.771,0.04062
622.985,0.03953
617.198,0.03985
611.412,0.04205
605.626,0.04153
599.84,0.04240