File: 01_Data/Fiber_Cement_Board/FTIR/IS/Fiber_Cement_Board_IS_S_221012_R4.dpt
7497.03,0.51073
7491.25,0.51632
7485.46,0.51669
7479.67,0.50230
7473.89,0.51716
7468.1,0.50650
7462.32,0.50472
7456.53,0.51160
7450.74,0.50879
7444.96,0.50863
7439.17,0.50884
7433.38,0.50407
7427.6,0.50650
7421.81,0.50541
7416.03,0.50667
7410.24,0.50795
7404.45,0.50860
7398.67,0.50393
7392.88,0.50305
7387.09,0.50496
7381.31,0.51022
7375.52,0.51142
7369.74,0.50343
7363.95,0.50282
7358.16,0.51243
7352.38,0.50815
7346.59,0.50739
7340.8,0.50671
7335.02,0.50789
7329.23,0.50781
7323.45,0.50583
7317.66,0.50123
7311.87,0.50570
7306.09,0.49751
7300.3,0.50988
7294.51,0.51988
7288.73,0.50216
7282.94,0.49811
7277.16,0.49763
7271.37,0.50186
7265.58,0.50200
7259.8,0.50197
7254.01,0.50101
7248.22,0.49867
7242.44,0.50312
7236.65,0.50871
7230.87,0.50889
7225.08,0.50144
7219.29,0.50152
7213.51,0.49955
7207.72,0.50132
7201.93,0.50249
7196.15,0.49915
7190.36,0.49304
7184.58,0.49995
7178.79,0.49806
7173,0.50066
7167.22,0.48873
7161.43,0.49782
7155.65,0.49987
7149.86,0.49530
7144.07,0.48994
7138.29,0.49176
7132.5,0.49614
7126.71,0.48664
7120.93,0.48532
7115.14,0.48467
7109.36,0.48591
7103.57,0.48689
7097.78,0.49145
7092,0.49349
7086.21,0.48851
7080.42,0.49094
7074.64,0.48283
7068.85,0.48597
7063.07,0.49244
7057.28,0.48638
7051.49,0.48866
7045.71,0.49172
7039.92,0.48396
7034.13,0.48289
7028.35,0.48802
7022.56,0.48075
7016.78,0.48924
7010.99,0.48371
7005.2,0.49688
6999.42,0.48483
6993.63,0.48356
6987.84,0.48400
6982.06,0.48177
6976.27,0.47727
6970.49,0.48538
6964.7,0.47817
6958.91,0.47844
6953.13,0.48226
6947.34,0.48873
6941.55,0.48256
6935.77,0.47822
6929.98,0.48686
6924.2,0.47866
6918.41,0.48141
6912.62,0.48317
6906.84,0.48313
6901.05,0.47755
6895.26,0.47880
6889.48,0.48135
6883.69,0.48783
6877.91,0.48257
6872.12,0.48506
6866.33,0.48405
6860.55,0.48947
6854.76,0.48600
6848.97,0.48374
6843.19,0.48310
6837.4,0.48180
6831.62,0.47758
6825.83,0.48452
6820.04,0.48083
6814.26,0.48160
6808.47,0.48040
6802.68,0.48453
6796.9,0.48476
6791.11,0.48464
6785.33,0.48119
6779.54,0.48059
6773.75,0.48421
6767.97,0.48217
6762.18,0.48382
6756.39,0.48546
6750.61,0.48312
6744.82,0.48076
6739.04,0.48769
6733.25,0.48143
6727.46,0.48192
6721.68,0.48392
6715.89,0.48259
6710.1,0.48103
6704.32,0.48421
6698.53,0.48371
6692.75,0.48270
6686.96,0.48305
6681.17,0.49065
6675.39,0.48494
6669.6,0.48620
6663.82,0.48470
6658.03,0.48237
6652.24,0.48319
6646.46,0.48676
6640.67,0.48670
6634.88,0.48639
6629.1,0.48823
6623.31,0.48735
6617.53,0.49050
6611.74,0.48939
6605.95,0.48432
6600.17,0.48737
6594.38,0.48917
6588.59,0.48882
6582.81,0.49054
6577.02,0.48610
6571.24,0.48483
6565.45,0.48604
6559.66,0.49080
6553.88,0.48487
6548.09,0.48472
6542.3,0.48971
6536.52,0.48650
6530.73,0.48973
6524.95,0.48862
6519.16,0.48964
6513.37,0.48653
6507.59,0.48587
6501.8,0.48751
6496.01,0.49155
6490.23,0.49007
6484.44,0.48791
6478.66,0.48450
6472.87,0.48667
6467.08,0.48959
6461.3,0.49033
6455.51,0.48784
6449.72,0.48864
6443.94,0.48693
6438.15,0.49010
6432.37,0.48935
6426.58,0.48713
6420.79,0.48737
6415.01,0.48582
6409.22,0.48850
6403.43,0.48961
6397.65,0.48998
6391.86,0.49061
6386.08,0.48581
6380.29,0.49170
6374.5,0.49097
6368.72,0.49135
6362.93,0.49047
6357.14,0.48954
6351.36,0.48767
6345.57,0.48642
6339.79,0.48928
6334,0.48716
6328.21,0.49019
6322.43,0.48825
6316.64,0.48779
6310.85,0.48757
6305.07,0.49111
6299.28,0.48825
6293.5,0.49022
6287.71,0.48740
6281.92,0.49094
6276.14,0.49368
6270.35,0.48827
6264.56,0.48980
6258.78,0.49051
6252.99,0.48953
6247.21,0.49106
6241.42,0.48976
6235.63,0.49267
6229.85,0.49102
6224.06,0.48882
6218.27,0.48929
6212.49,0.49086
6206.7,0.49029
6200.92,0.49020
6195.13,0.49132
6189.34,0.48974
6183.56,0.48997
6177.77,0.49069
6171.98,0.49580
6166.2,0.49371
6160.41,0.49236
6154.63,0.49028
6148.84,0.49221
6143.05,0.49255
6137.27,0.49024
6131.48,0.49201
6125.7,0.49412
6119.91,0.49090
6114.12,0.49000
6108.34,0.49138
6102.55,0.49369
6096.76,0.49527
6090.98,0.49059
6085.19,0.49234
6079.41,0.48994
6073.62,0.48911
6067.83,0.48941
6062.05,0.49309
6056.26,0.49049
6050.47,0.49031
6044.69,0.49602
6038.9,0.49356
6033.12,0.49266
6027.33,0.49255
6021.54,0.49306
6015.76,0.49321
6009.97,0.49278
6004.18,0.49462
5998.4,0.49188
5992.61,0.49273
5986.83,0.48796
5981.04,0.49158
5975.25,0.49171
5969.47,0.49112
5963.68,0.49008
5957.89,0.48981
5952.11,0.49058
5946.32,0.48961
5940.54,0.49109
5934.75,0.48944
5928.96,0.49187
5923.18,0.48735
5917.39,0.49259
5911.6,0.49076
5905.82,0.48971
5900.03,0.48866
5894.25,0.48816
5888.46,0.48815
5882.67,0.49216
5876.89,0.48752
5871.1,0.48719
5865.31,0.48965
5859.53,0.48681
5853.74,0.48977
5847.96,0.48665
5842.17,0.48925
5836.38,0.48834
5830.6,0.48736
5824.81,0.48504
5819.02,0.48860
5813.24,0.48900
5807.45,0.48899
5801.67,0.48853
5795.88,0.48649
5790.09,0.48625
5784.31,0.48870
5778.52,0.48852
5772.73,0.48779
5766.95,0.48858
5761.16,0.48279
5755.38,0.48545
5749.59,0.48654
5743.8,0.48571
5738.02,0.48564
5732.23,0.48720
5726.44,0.48418
5720.66,0.48639
5714.87,0.48549
5709.09,0.48552
5703.3,0.48672
5697.51,0.48671
5691.73,0.48669
5685.94,0.48613
5680.15,0.48629
5674.37,0.48582
5668.58,0.48499
5662.8,0.48487
5657.01,0.48518
5651.22,0.48389
5645.44,0.48392
5639.65,0.48436
5633.87,0.48579
5628.08,0.48428
5622.29,0.48517
5616.51,0.48225
5610.72,0.48539
5604.93,0.48484
5599.15,0.48604
5593.36,0.48440
5587.58,0.48449
5581.79,0.48356
5576,0.48394
5570.22,0.48332
5564.43,0.48340
5558.64,0.48322
5552.86,0.48322
5547.07,0.48308
5541.29,0.48490
5535.5,0.48271
5529.71,0.48266
5523.93,0.48321
5518.14,0.48433
5512.35,0.48287
5506.57,0.48319
5500.78,0.48349
5495,0.48226
5489.21,0.48268
5483.42,0.48389
5477.64,0.48203
5471.85,0.48298
5466.06,0.48110
5460.28,0.48163
5454.49,0.48299
5448.71,0.48201
5442.92,0.47999
5437.13,0.48179
5431.35,0.48242
5425.56,0.48306
5419.77,0.48196
5413.99,0.48052
5408.2,0.48256
5402.42,0.48135
5396.63,0.48027
5390.84,0.48159
5385.06,0.48093
5379.27,0.48213
5373.48,0.48083
5367.7,0.47948
5361.91,0.47845
5356.13,0.47936
5350.34,0.47738
5344.55,0.47687
5338.77,0.47736
5332.98,0.47632
5327.19,0.47428
5321.41,0.47249
5315.62,0.47093
5309.84,0.47041
5304.05,0.46936
5298.26,0.46683
5292.48,0.46435
5286.69,0.46023
5280.9,0.45978
5275.12,0.45513
5269.33,0.45178
5263.55,0.44669
5257.76,0.44382
5251.97,0.43842
5246.19,0.43445
5240.4,0.42971
5234.61,0.42397
5228.83,0.41987
5223.04,0.41569
5217.26,0.41418
5211.47,0.40872
5205.68,0.40699
5199.9,0.40543
5194.11,0.40595
5188.32,0.40565
5182.54,0.40507
5176.75,0.40786
5170.97,0.40782
5165.18,0.40828
5159.39,0.41046
5153.61,0.41192
5147.82,0.41475
5142.03,0.41576
5136.25,0.41758
5130.46,0.41987
5124.68,0.42148
5118.89,0.42230
5113.1,0.42432
5107.32,0.42463
5101.53,0.42726
5095.75,0.42889
5089.96,0.42947
5084.17,0.43082
5078.39,0.43184
5072.6,0.43253
5066.81,0.43435
5061.03,0.43474
5055.24,0.43589
5049.46,0.43655
5043.67,0.43846
5037.88,0.43940
5032.1,0.43914
5026.31,0.44060
5020.52,0.44163
5014.74,0.44289
5008.95,0.44286
5003.17,0.44354
4997.38,0.44447
4991.59,0.44547
4985.81,0.44432
4980.02,0.44534
4974.23,0.44561
4968.45,0.44587
4962.66,0.44635
4956.88,0.44663
4951.09,0.44635
4945.3,0.44736
4939.52,0.44715
4933.73,0.44798
4927.94,0.44733
4922.16,0.44705
4916.37,0.44578
4910.59,0.44502
4904.8,0.44487
4899.01,0.44461
4893.23,0.44347
4887.44,0.44372
4881.65,0.44220
4875.87,0.44153
4870.08,0.44120
4864.3,0.44128
4858.51,0.43983
4852.72,0.43892
4846.94,0.43807
4841.15,0.43721
4835.36,0.43695
4829.58,0.43670
4823.79,0.43508
4818.01,0.43456
4812.22,0.43380
4806.43,0.43299
4800.65,0.43298
4794.86,0.43293
4789.07,0.43234
4783.29,0.43190
4777.5,0.43182
4771.72,0.43198
4765.93,0.43104
4760.14,0.43032
4754.36,0.43115
4748.57,0.43058
4742.78,0.43041
4737,0.43227
4731.21,0.43278
4725.43,0.43162
4719.64,0.43248
4713.85,0.43305
4708.07,0.43266
4702.28,0.43419
4696.49,0.43531
4690.71,0.43498
4684.92,0.43582
4679.14,0.43503
4673.35,0.43569
4667.56,0.43581
4661.78,0.43615
4655.99,0.43576
4650.2,0.43677
4644.42,0.43725
4638.63,0.43878
4632.85,0.43850
4627.06,0.43719
4621.27,0.43734
4615.49,0.43753
4609.7,0.43716
4603.92,0.43743
4598.13,0.43730
4592.34,0.43723
4586.56,0.43714
4580.77,0.43638
4574.98,0.43580
4569.2,0.43621
4563.41,0.43478
4557.63,0.43571
4551.84,0.43468
4546.05,0.43352
4540.27,0.43383
4534.48,0.43360
4528.69,0.43282
4522.91,0.43241
4517.12,0.43178
4511.34,0.43147
4505.55,0.43114
4499.76,0.43012
4493.98,0.42917
4488.19,0.42832
4482.4,0.42810
4476.62,0.42631
4470.83,0.42531
4465.05,0.42416
4459.26,0.42315
4453.47,0.42165
4447.69,0.41928
4441.9,0.41788
4436.11,0.41612
4430.33,0.41492
4424.54,0.41392
4418.76,0.41253
4412.97,0.41057
4407.18,0.40900
4401.4,0.40816
4395.61,0.40799
4389.82,0.40877
4384.04,0.40999
4378.25,0.40966
4372.47,0.41001
4366.68,0.41149
4360.89,0.41083
4355.11,0.41088
4349.32,0.40928
4343.53,0.40872
4337.75,0.40764
4331.96,0.40746
4326.18,0.40669
4320.39,0.40585
4314.6,0.40452
4308.82,0.40381
4303.03,0.40249
4297.24,0.40177
4291.46,0.40059
4285.67,0.39943
4279.89,0.39817
4274.1,0.39717
4268.31,0.39682
4262.53,0.39571
4256.74,0.39424
4250.95,0.39425
4245.17,0.39363
4239.38,0.39275
4233.6,0.39235
4227.81,0.39160
4222.02,0.39100
4216.24,0.39035
4210.45,0.39015
4204.66,0.38872
4198.88,0.38779
4193.09,0.38810
4187.31,0.38700
4181.52,0.38560
4175.73,0.38531
4169.95,0.38426
4164.16,0.38273
4158.37,0.38197
4152.59,0.38012
4146.8,0.37923
4141.02,0.37694
4135.23,0.37540
4129.44,0.37427
4123.66,0.37204
4117.87,0.36959
4112.09,0.36758
4106.3,0.36527
4100.51,0.36223
4094.73,0.35921
4088.94,0.35736
4083.15,0.35514
4077.37,0.35222
4071.58,0.34886
4065.8,0.34645
4060.01,0.34352
4054.22,0.34080
4048.44,0.33838
4042.65,0.33455
4036.86,0.33279
4031.08,0.33069
4025.29,0.32984
4019.51,0.32998
4013.72,0.32999
4007.93,0.33028
4002.15,0.32969
3996.36,0.33005
3990.57,0.32928
3984.79,0.33002
3979,0.32999
3973.22,0.33015
3967.43,0.33062
3961.64,0.32983
3955.86,0.33011
3950.07,0.33060
3944.28,0.33042
3938.5,0.33072
3932.71,0.33063
3926.93,0.33167
3921.14,0.33247
3915.35,0.33262
3909.57,0.33210
3903.78,0.33118
3897.99,0.33219
3892.21,0.33230
3886.42,0.33185
3880.64,0.33207
3874.85,0.33115
3869.06,0.33089
3863.28,0.33116
3857.49,0.33024
3851.7,0.33055
3845.92,0.33075
3840.13,0.32958
3834.35,0.32848
3828.56,0.32768
3822.77,0.32571
3816.99,0.32514
3811.2,0.32322
3805.41,0.32151
3799.63,0.31999
3793.84,0.31740
3788.06,0.31520
3782.27,0.31290
3776.48,0.31082
3770.7,0.30802
3764.91,0.30441
3759.12,0.30121
3753.34,0.29893
3747.55,0.29416
3741.77,0.28827
3735.98,0.28273
3730.19,0.27605
3724.41,0.26806
3718.62,0.25865
3712.83,0.24796
3707.05,0.23391
3701.26,0.21605
3695.48,0.20071
3689.69,0.19060
3683.9,0.17863
3678.12,0.16603
3672.33,0.15069
3666.54,0.13746
3660.76,0.12786
3654.97,0.11899
3649.19,0.11099
3643.4,0.10451
3637.61,0.09856
3631.83,0.09390
3626.04,0.08816
3620.25,0.08380
3614.47,0.08055
3608.68,0.07690
3602.9,0.07382
3597.11,0.07128
3591.32,0.06907
3585.54,0.06630
3579.75,0.06492
3573.97,0.06339
3568.18,0.06172
3562.39,0.05891
3556.61,0.05779
3550.82,0.05656
3545.03,0.05434
3539.25,0.05365
3533.46,0.05230
3527.68,0.05153
3521.89,0.05017
3516.1,0.05003
3510.32,0.04770
3504.53,0.04689
3498.74,0.04712
3492.96,0.04620
3487.17,0.04501
3481.39,0.04472
3475.6,0.04383
3469.81,0.04346
3464.03,0.04246
3458.24,0.04270
3452.45,0.04218
3446.67,0.04235
3440.88,0.04210
3435.1,0.04191
3429.31,0.04153
3423.52,0.04109
3417.74,0.04140
3411.95,0.04136
3406.16,0.04090
3400.38,0.04037
3394.59,0.04131
3388.81,0.04055
3383.02,0.04118
3377.23,0.04156
3371.45,0.04193
3365.66,0.04103
3359.87,0.04169
3354.09,0.04130
3348.3,0.04170
3342.52,0.04214
3336.73,0.04354
3330.94,0.04432
3325.16,0.04398
3319.37,0.04518
3313.58,0.04565
3307.8,0.04588
3302.01,0.04583
3296.23,0.04606
3290.44,0.04654
3284.65,0.04687
3278.87,0.04877
3273.08,0.04964
3267.29,0.05005
3261.51,0.05071
3255.72,0.05235
3249.94,0.05250
3244.15,0.05349
3238.36,0.05492
3232.58,0.05528
3226.79,0.05645
3221,0.05745
3215.22,0.05885
3209.43,0.05992
3203.65,0.06134
3197.86,0.06178
3192.07,0.06339
3186.29,0.06416
3180.5,0.06528
3174.71,0.06705
3168.93,0.06796
3163.14,0.06874
3157.36,0.07017
3151.57,0.07172
3145.78,0.07382
3140,0.07419
3134.21,0.07604
3128.42,0.07695
3122.64,0.07787
3116.85,0.07948
3111.07,0.08121
3105.28,0.08196
3099.49,0.08384
3093.71,0.08477
3087.92,0.08602
3082.14,0.08739
3076.35,0.08873
3070.56,0.09010
3064.78,0.09080
3058.99,0.09170
3053.2,0.09313
3047.42,0.09488
3041.63,0.09607
3035.85,0.09659
3030.06,0.09573
3024.27,0.09594
3018.49,0.09918
3012.7,0.10002
3006.91,0.10046
3001.13,0.09923
2995.34,0.09925
2989.56,0.09797
2983.77,0.09658
2977.98,0.09329
2972.2,0.08904
2966.41,0.08528
2960.62,0.08356
2954.84,0.08164
2949.05,0.07998
2943.27,0.07913
2937.48,0.07857
2931.69,0.07765
2925.91,0.07762
2920.12,0.07660
2914.33,0.07562
2908.55,0.07620
2902.76,0.07606
2896.98,0.07763
2891.19,0.07972
2885.4,0.08153
2879.62,0.08332
2873.83,0.08460
2868.04,0.08610
2862.26,0.08812
2856.47,0.09092
2850.69,0.09450
2844.9,0.09957
2839.11,0.10477
2833.33,0.10922
2827.54,0.11302
2821.75,0.11621
2815.97,0.11970
2810.18,0.12311
2804.4,0.12632
2798.61,0.12871
2792.82,0.13044
2787.04,0.13203
2781.25,0.13363
2775.46,0.13511
2769.68,0.13582
2763.89,0.13698
2758.11,0.13815
2752.32,0.13925
2746.53,0.14015
2740.75,0.14110
2734.96,0.14165
2729.17,0.14320
2723.39,0.14446
2717.6,0.14580
2711.82,0.14770
2706.03,0.14944
2700.24,0.15171
2694.46,0.15407
2688.67,0.15570
2682.88,0.15790
2677.1,0.15955
2671.31,0.16136
2665.53,0.16260
2659.74,0.16437
2653.95,0.16555
2648.17,0.16763
2642.38,0.16909
2636.59,0.17061
2630.81,0.17231
2625.02,0.17363
2619.24,0.17481
2613.45,0.17603
2607.66,0.17727
2601.88,0.17852
2596.09,0.17977
2590.3,0.18075
2584.52,0.18147
2578.73,0.18242
2572.95,0.18278
2567.16,0.18306
2561.37,0.18339
2555.59,0.18357
2549.8,0.18347
2544.02,0.18345
2538.23,0.18377
2532.44,0.18486
2526.66,0.18502
2520.87,0.18531
2515.08,0.18602
2509.3,0.18727
2503.51,0.18863
2497.73,0.19029
2491.94,0.19197
2486.15,0.19352
2480.37,0.19412
2474.58,0.19550
2468.79,0.19612
2463.01,0.19692
2457.22,0.19770
2451.44,0.19869
2445.65,0.19892
2439.86,0.20046
2434.08,0.20079
2428.29,0.20133
2422.5,0.20188
2416.72,0.20222
2410.93,0.20287
2405.15,0.20330
2399.36,0.20300
2393.57,0.20310
2387.79,0.20291
2382,0.20281
2376.21,0.20197
2370.43,0.20080
2364.64,0.19963
2358.86,0.19902
2353.07,0.20077
2347.28,0.20092
2341.5,0.19948
2335.71,0.19941
2329.92,0.19928
2324.14,0.19940
2318.35,0.19974
2312.57,0.20040
2306.78,0.20037
2300.99,0.19931
2295.21,0.19841
2289.42,0.19777
2283.63,0.19664
2277.85,0.19540
2272.06,0.19402
2266.28,0.19278
2260.49,0.19070
2254.7,0.18936
2248.92,0.18852
2243.13,0.18724
2237.34,0.18630
2231.56,0.18636
2225.77,0.18640
2219.99,0.18722
2214.2,0.18822
2208.41,0.18956
2202.63,0.18994
2196.84,0.18947
2191.05,0.18880
2185.27,0.18836
2179.48,0.18699
2173.7,0.18567
2167.91,0.18401
2162.12,0.18241
2156.34,0.18137
2150.55,0.17987
2144.76,0.17870
2138.98,0.17747
2133.19,0.17697
2127.41,0.17774
2121.62,0.17877
2115.83,0.17959
2110.05,0.17991
2104.26,0.17976
2098.47,0.17968
2092.69,0.17978
2086.9,0.17944
2081.12,0.17908
2075.33,0.17846
2069.54,0.17725
2063.76,0.17586
2057.97,0.17435
2052.19,0.17223
2046.4,0.16888
2040.61,0.16360
2034.83,0.15825
2029.04,0.15493
2023.25,0.15377
2017.47,0.15153
2011.68,0.14730
2005.9,0.14364
2000.11,0.14118
1994.32,0.14088
1988.54,0.14103
1982.75,0.14153
1976.96,0.14150
1971.18,0.14234
1965.39,0.14428
1959.61,0.14596
1953.82,0.14660
1948.03,0.14711
1942.25,0.14772
1936.46,0.14849
1930.67,0.14969
1924.89,0.14954
1919.1,0.14816
1913.32,0.14355
1907.53,0.13656
1901.74,0.13043
1895.96,0.12508
1890.17,0.12157
1884.38,0.11855
1878.6,0.11690
1872.81,0.11611
1867.03,0.11683
1861.24,0.11944
1855.45,0.12632
1849.67,0.13442
1843.88,0.14072
1838.09,0.14380
1832.31,0.14356
1826.52,0.14067
1820.74,0.13751
1814.95,0.13328
1809.16,0.12884
1803.38,0.12538
1797.59,0.12219
1791.8,0.12115
1786.02,0.12133
1780.23,0.12197
1774.45,0.12373
1768.66,0.12619
1762.87,0.12796
1757.09,0.12629
1751.3,0.12022
1745.51,0.10606
1739.73,0.09004
1733.94,0.08033
1728.16,0.07851
1722.37,0.08415
1716.58,0.09114
1710.8,0.09170
1705.01,0.08978
1699.22,0.08722
1693.44,0.08207
1687.65,0.07805
1681.87,0.07384
1676.08,0.07191
1670.29,0.06876
1664.51,0.06565
1658.72,0.06283
1652.93,0.06038
1647.15,0.05902
1641.36,0.05780
1635.58,0.05692
1629.79,0.05668
1624,0.05623
1618.22,0.05570
1612.43,0.05563
1606.64,0.05577
1600.86,0.05659
1595.07,0.05763
1589.29,0.05797
1583.5,0.05903
1577.71,0.06016
1571.93,0.06048
1566.14,0.06191
1560.35,0.06281
1554.57,0.06228
1548.78,0.06208
1543,0.06167
1537.21,0.06035
1531.42,0.05837
1525.64,0.05813
1519.85,0.05695
1514.07,0.05513
1508.28,0.05390
1502.49,0.05247
1496.71,0.05004
1490.92,0.04829
1485.13,0.04661
1479.35,0.04509
1473.56,0.04365
1467.78,0.04173
1461.99,0.04001
1456.2,0.03863
1450.42,0.03819
1444.63,0.03808
1438.84,0.03689
1433.06,0.03609
1427.27,0.03684
1421.49,0.03846
1415.7,0.04011
1409.91,0.04063
1404.13,0.04081
1398.34,0.04067
1392.55,0.04040
1386.77,0.03920
1380.98,0.03799
1375.2,0.03779
1369.41,0.03854
1363.62,0.04059
1357.84,0.04207
1352.05,0.04371
1346.26,0.04487
1340.48,0.04442
1334.69,0.04473
1328.91,0.04616
1323.12,0.04620
1317.33,0.04648
1311.55,0.04927
1305.76,0.05322
1299.97,0.05638
1294.19,0.05699
1288.4,0.05671
1282.62,0.05535
1276.83,0.05801
1271.04,0.06037
1265.26,0.06289
1259.47,0.06756
1253.68,0.07233
1247.9,0.07617
1242.11,0.08166
1236.33,0.08832
1230.54,0.09743
1224.75,0.10542
1218.97,0.10663
1213.18,0.10076
1207.39,0.09378
1201.61,0.08934
1195.82,0.08700
1190.04,0.08593
1184.25,0.08370
1178.46,0.08151
1172.68,0.08030
1166.89,0.07901
1161.1,0.06953
1155.32,0.07128
1149.53,0.07993
1143.75,0.08351
1137.96,0.08557
1132.17,0.08654
1126.39,0.08814
1120.6,0.09110
1114.81,0.09430
1109.03,0.09709
1103.24,0.09848
1097.46,0.10085
1091.67,0.10208
1085.88,0.10229
1080.1,0.10411
1074.31,0.10450
1068.52,0.09844
1062.74,0.08887
1056.95,0.08055
1051.17,0.07450
1045.38,0.06922
1039.59,0.06730
1033.81,0.06883
1028.02,0.06837
1022.24,0.06700
1016.45,0.06626
1010.66,0.06606
1004.88,0.06445
999.09,0.06500
993.304,0.06654
987.518,0.06792
981.731,0.07062
975.945,0.07241
970.159,0.07267
964.373,0.07323
958.586,0.07385
952.8,0.07440
947.014,0.07484
941.228,0.07419
935.441,0.07414
929.655,0.07367
923.869,0.07366
918.083,0.07283
912.297,0.07077
906.51,0.06795
900.724,0.06602
894.938,0.06628
889.152,0.06743
883.365,0.06835
877.579,0.06927
871.793,0.06916
866.007,0.06875
860.22,0.07007
854.434,0.06934
848.648,0.06773
842.862,0.06737
837.075,0.06583
831.289,0.06291
825.503,0.05985
819.717,0.05659
813.931,0.05393
808.144,0.05815
802.358,0.06486
796.572,0.06552
790.786,0.06464
784.999,0.06797
779.213,0.06960
773.427,0.06647
767.641,0.06410
761.854,0.06332
756.068,0.06170
750.282,0.06211
744.496,0.06011
738.709,0.05811
732.923,0.05493
727.137,0.05288
721.351,0.05023
715.565,0.04953
709.778,0.04665
703.992,0.04180
698.206,0.04171
692.42,0.04447
686.633,0.04536
680.847,0.04545
675.061,0.04416
669.275,0.04502
663.488,0.04539
657.702,0.04528
651.916,0.04535
646.13,0.04494
640.343,0.04246
634.557,0.04155
628.771,0.03980
622.985,0.04109
617.198,0.03884
611.412,0.03971
605.626,0.04118
599.84,0.04102