File: 01_Data/Fiber_Cement_Board/FTIR/IS/Fiber_Cement_Board_IS_S_221012_R1.dpt
7497.03,0.51155
7491.25,0.50375
7485.46,0.50441
7479.67,0.51793
7473.89,0.51022
7468.1,0.51097
7462.32,0.50858
7456.53,0.51152
7450.74,0.50479
7444.96,0.50768
7439.17,0.51507
7433.38,0.50697
7427.6,0.50575
7421.81,0.51001
7416.03,0.50773
7410.24,0.50953
7404.45,0.50263
7398.67,0.49272
7392.88,0.50245
7387.09,0.49732
7381.31,0.50129
7375.52,0.50544
7369.74,0.50866
7363.95,0.50748
7358.16,0.49763
7352.38,0.51337
7346.59,0.50991
7340.8,0.49586
7335.02,0.50109
7329.23,0.51128
7323.45,0.49295
7317.66,0.49662
7311.87,0.49822
7306.09,0.49391
7300.3,0.50534
7294.51,0.50200
7288.73,0.49183
7282.94,0.49694
7277.16,0.50422
7271.37,0.50943
7265.58,0.50471
7259.8,0.50245
7254.01,0.50818
7248.22,0.49651
7242.44,0.50303
7236.65,0.50891
7230.87,0.50432
7225.08,0.49725
7219.29,0.50526
7213.51,0.50906
7207.72,0.49734
7201.93,0.49878
7196.15,0.49752
7190.36,0.49262
7184.58,0.49324
7178.79,0.49863
7173,0.49961
7167.22,0.49144
7161.43,0.48585
7155.65,0.48966
7149.86,0.49594
7144.07,0.49721
7138.29,0.49173
7132.5,0.48815
7126.71,0.48534
7120.93,0.48474
7115.14,0.49148
7109.36,0.49035
7103.57,0.48239
7097.78,0.49129
7092,0.48484
7086.21,0.48269
7080.42,0.48924
7074.64,0.48574
7068.85,0.49061
7063.07,0.48906
7057.28,0.48554
7051.49,0.48329
7045.71,0.48324
7039.92,0.48500
7034.13,0.48348
7028.35,0.48338
7022.56,0.47920
7016.78,0.47761
7010.99,0.48374
7005.2,0.48096
6999.42,0.48264
6993.63,0.47843
6987.84,0.48524
6982.06,0.47496
6976.27,0.48040
6970.49,0.48647
6964.7,0.48003
6958.91,0.48027
6953.13,0.47564
6947.34,0.48371
6941.55,0.48502
6935.77,0.48350
6929.98,0.48681
6924.2,0.47907
6918.41,0.47773
6912.62,0.48075
6906.84,0.47993
6901.05,0.48193
6895.26,0.48061
6889.48,0.47969
6883.69,0.48475
6877.91,0.48357
6872.12,0.48479
6866.33,0.47669
6860.55,0.48276
6854.76,0.47763
6848.97,0.48738
6843.19,0.47513
6837.4,0.47798
6831.62,0.47720
6825.83,0.47799
6820.04,0.48166
6814.26,0.48215
6808.47,0.48038
6802.68,0.48470
6796.9,0.48308
6791.11,0.47812
6785.33,0.47735
6779.54,0.48142
6773.75,0.47282
6767.97,0.47860
6762.18,0.48166
6756.39,0.48233
6750.61,0.48119
6744.82,0.48250
6739.04,0.48548
6733.25,0.48472
6727.46,0.48076
6721.68,0.48151
6715.89,0.48660
6710.1,0.48839
6704.32,0.48250
6698.53,0.48798
6692.75,0.48575
6686.96,0.48675
6681.17,0.48856
6675.39,0.48136
6669.6,0.48212
6663.82,0.48253
6658.03,0.48635
6652.24,0.48240
6646.46,0.48113
6640.67,0.48275
6634.88,0.48415
6629.1,0.48161
6623.31,0.48127
6617.53,0.48377
6611.74,0.48279
6605.95,0.48385
6600.17,0.48624
6594.38,0.48666
6588.59,0.48625
6582.81,0.48402
6577.02,0.48522
6571.24,0.48757
6565.45,0.48588
6559.66,0.48521
6553.88,0.48180
6548.09,0.48883
6542.3,0.48386
6536.52,0.48804
6530.73,0.48749
6524.95,0.48634
6519.16,0.48503
6513.37,0.48908
6507.59,0.48782
6501.8,0.49131
6496.01,0.48508
6490.23,0.48582
6484.44,0.48247
6478.66,0.48657
6472.87,0.48931
6467.08,0.48804
6461.3,0.48426
6455.51,0.48584
6449.72,0.48909
6443.94,0.48471
6438.15,0.48898
6432.37,0.48606
6426.58,0.48594
6420.79,0.49175
6415.01,0.49040
6409.22,0.48977
6403.43,0.49129
6397.65,0.48927
6391.86,0.48668
6386.08,0.48872
6380.29,0.48714
6374.5,0.48821
6368.72,0.48814
6362.93,0.48560
6357.14,0.48684
6351.36,0.48742
6345.57,0.48691
6339.79,0.48647
6334,0.48836
6328.21,0.48504
6322.43,0.49047
6316.64,0.48900
6310.85,0.48705
6305.07,0.48982
6299.28,0.48802
6293.5,0.48840
6287.71,0.49070
6281.92,0.48527
6276.14,0.48365
6270.35,0.48908
6264.56,0.49066
6258.78,0.49060
6252.99,0.48769
6247.21,0.48840
6241.42,0.48893
6235.63,0.49021
6229.85,0.48985
6224.06,0.48698
6218.27,0.48873
6212.49,0.48958
6206.7,0.48869
6200.92,0.49059
6195.13,0.48994
6189.34,0.49007
6183.56,0.49032
6177.77,0.48871
6171.98,0.48983
6166.2,0.48882
6160.41,0.49049
6154.63,0.49013
6148.84,0.49138
6143.05,0.48825
6137.27,0.48809
6131.48,0.49097
6125.7,0.49101
6119.91,0.49188
6114.12,0.49033
6108.34,0.49101
6102.55,0.48960
6096.76,0.49147
6090.98,0.49016
6085.19,0.49155
6079.41,0.49101
6073.62,0.49203
6067.83,0.49102
6062.05,0.49057
6056.26,0.48905
6050.47,0.49143
6044.69,0.49192
6038.9,0.49248
6033.12,0.49111
6027.33,0.49148
6021.54,0.48941
6015.76,0.49056
6009.97,0.49681
6004.18,0.49074
5998.4,0.48959
5992.61,0.49072
5986.83,0.49198
5981.04,0.49067
5975.25,0.48820
5969.47,0.48704
5963.68,0.49182
5957.89,0.48917
5952.11,0.48936
5946.32,0.48604
5940.54,0.49026
5934.75,0.48890
5928.96,0.48869
5923.18,0.48929
5917.39,0.48553
5911.6,0.48993
5905.82,0.48833
5900.03,0.48945
5894.25,0.48861
5888.46,0.48889
5882.67,0.48841
5876.89,0.48833
5871.1,0.48828
5865.31,0.48772
5859.53,0.48590
5853.74,0.48583
5847.96,0.48684
5842.17,0.48612
5836.38,0.48694
5830.6,0.48675
5824.81,0.48809
5819.02,0.48528
5813.24,0.48497
5807.45,0.48685
5801.67,0.48543
5795.88,0.48451
5790.09,0.48804
5784.31,0.48426
5778.52,0.48491
5772.73,0.48587
5766.95,0.48806
5761.16,0.48620
5755.38,0.48866
5749.59,0.48561
5743.8,0.48551
5738.02,0.48454
5732.23,0.48577
5726.44,0.48460
5720.66,0.48404
5714.87,0.48615
5709.09,0.48735
5703.3,0.48534
5697.51,0.48474
5691.73,0.48408
5685.94,0.48239
5680.15,0.48291
5674.37,0.48303
5668.58,0.48404
5662.8,0.48461
5657.01,0.48358
5651.22,0.48511
5645.44,0.48246
5639.65,0.48361
5633.87,0.48499
5628.08,0.48474
5622.29,0.48596
5616.51,0.48194
5610.72,0.48301
5604.93,0.48075
5599.15,0.48120
5593.36,0.48234
5587.58,0.48217
5581.79,0.48122
5576,0.48142
5570.22,0.48207
5564.43,0.48315
5558.64,0.48063
5552.86,0.48217
5547.07,0.48253
5541.29,0.48261
5535.5,0.48227
5529.71,0.48171
5523.93,0.48170
5518.14,0.48173
5512.35,0.48025
5506.57,0.48058
5500.78,0.48023
5495,0.48135
5489.21,0.48107
5483.42,0.48128
5477.64,0.48189
5471.85,0.48062
5466.06,0.48167
5460.28,0.48083
5454.49,0.48076
5448.71,0.48143
5442.92,0.48000
5437.13,0.48179
5431.35,0.48260
5425.56,0.47901
5419.77,0.48169
5413.99,0.47881
5408.2,0.47986
5402.42,0.47914
5396.63,0.47923
5390.84,0.47903
5385.06,0.47741
5379.27,0.47940
5373.48,0.47717
5367.7,0.47826
5361.91,0.47823
5356.13,0.47815
5350.34,0.47650
5344.55,0.47530
5338.77,0.47383
5332.98,0.47247
5327.19,0.47207
5321.41,0.47165
5315.62,0.46971
5309.84,0.46877
5304.05,0.46540
5298.26,0.46371
5292.48,0.46304
5286.69,0.46007
5280.9,0.45786
5275.12,0.45340
5269.33,0.44987
5263.55,0.44372
5257.76,0.44159
5251.97,0.43539
5246.19,0.42932
5240.4,0.42588
5234.61,0.42132
5228.83,0.41677
5223.04,0.41231
5217.26,0.40930
5211.47,0.40699
5205.68,0.40350
5199.9,0.40231
5194.11,0.40042
5188.32,0.40072
5182.54,0.40088
5176.75,0.40241
5170.97,0.40286
5165.18,0.40410
5159.39,0.40757
5153.61,0.41069
5147.82,0.41070
5142.03,0.41140
5136.25,0.41293
5130.46,0.41592
5124.68,0.41755
5118.89,0.41935
5113.1,0.42116
5107.32,0.42276
5101.53,0.42328
5095.75,0.42537
5089.96,0.42499
5084.17,0.42779
5078.39,0.43019
5072.6,0.42914
5066.81,0.43058
5061.03,0.43232
5055.24,0.43448
5049.46,0.43418
5043.67,0.43447
5037.88,0.43633
5032.1,0.43776
5026.31,0.43880
5020.52,0.43970
5014.74,0.43997
5008.95,0.44192
5003.17,0.44142
4997.38,0.44230
4991.59,0.44152
4985.81,0.44275
4980.02,0.44275
4974.23,0.44402
4968.45,0.44570
4962.66,0.44547
4956.88,0.44484
4951.09,0.44343
4945.3,0.44562
4939.52,0.44502
4933.73,0.44517
4927.94,0.44646
4922.16,0.44468
4916.37,0.44359
4910.59,0.44423
4904.8,0.44396
4899.01,0.44227
4893.23,0.44265
4887.44,0.44199
4881.65,0.44199
4875.87,0.44169
4870.08,0.43943
4864.3,0.43860
4858.51,0.43786
4852.72,0.43673
4846.94,0.43606
4841.15,0.43616
4835.36,0.43557
4829.58,0.43566
4823.79,0.43399
4818.01,0.43441
4812.22,0.43395
4806.43,0.43200
4800.65,0.43172
4794.86,0.43108
4789.07,0.43150
4783.29,0.43060
4777.5,0.42938
4771.72,0.42963
4765.93,0.42961
4760.14,0.43002
4754.36,0.43017
4748.57,0.42942
4742.78,0.42880
4737,0.42992
4731.21,0.43082
4725.43,0.42972
4719.64,0.43210
4713.85,0.43165
4708.07,0.43244
4702.28,0.43268
4696.49,0.43273
4690.71,0.43442
4684.92,0.43364
4679.14,0.43473
4673.35,0.43408
4667.56,0.43404
4661.78,0.43438
4655.99,0.43569
4650.2,0.43580
4644.42,0.43618
4638.63,0.43601
4632.85,0.43530
4627.06,0.43607
4621.27,0.43598
4615.49,0.43553
4609.7,0.43589
4603.92,0.43508
4598.13,0.43505
4592.34,0.43598
4586.56,0.43561
4580.77,0.43567
4574.98,0.43510
4569.2,0.43442
4563.41,0.43440
4557.63,0.43476
4551.84,0.43537
4546.05,0.43360
4540.27,0.43319
4534.48,0.43195
4528.69,0.43130
4522.91,0.43096
4517.12,0.43074
4511.34,0.43040
4505.55,0.42994
4499.76,0.42958
4493.98,0.42832
4488.19,0.42760
4482.4,0.42719
4476.62,0.42578
4470.83,0.42487
4465.05,0.42292
4459.26,0.42252
4453.47,0.42084
4447.69,0.41919
4441.9,0.41645
4436.11,0.41588
4430.33,0.41378
4424.54,0.41198
4418.76,0.41043
4412.97,0.41026
4407.18,0.40788
4401.4,0.40757
4395.61,0.40700
4389.82,0.40788
4384.04,0.40841
4378.25,0.40766
4372.47,0.40937
4366.68,0.41065
4360.89,0.40886
4355.11,0.40898
4349.32,0.40743
4343.53,0.40696
4337.75,0.40651
4331.96,0.40562
4326.18,0.40562
4320.39,0.40402
4314.6,0.40332
4308.82,0.40195
4303.03,0.40102
4297.24,0.40027
4291.46,0.39907
4285.67,0.39738
4279.89,0.39582
4274.1,0.39587
4268.31,0.39472
4262.53,0.39425
4256.74,0.39341
4250.95,0.39243
4245.17,0.39204
4239.38,0.39192
4233.6,0.39049
4227.81,0.39111
4222.02,0.38960
4216.24,0.38880
4210.45,0.38797
4204.66,0.38779
4198.88,0.38728
4193.09,0.38656
4187.31,0.38522
4181.52,0.38443
4175.73,0.38308
4169.95,0.38291
4164.16,0.38115
4158.37,0.37956
4152.59,0.37816
4146.8,0.37697
4141.02,0.37629
4135.23,0.37423
4129.44,0.37333
4123.66,0.37029
4117.87,0.36857
4112.09,0.36609
4106.3,0.36275
4100.51,0.36114
4094.73,0.35862
4088.94,0.35577
4083.15,0.35311
4077.37,0.35044
4071.58,0.34714
4065.8,0.34477
4060.01,0.34122
4054.22,0.33880
4048.44,0.33596
4042.65,0.33386
4036.86,0.33140
4031.08,0.32959
4025.29,0.32762
4019.51,0.32762
4013.72,0.32760
4007.93,0.32778
4002.15,0.32721
3996.36,0.32735
3990.57,0.32783
3984.79,0.32817
3979,0.32848
3973.22,0.32823
3967.43,0.32801
3961.64,0.32838
3955.86,0.32885
3950.07,0.32869
3944.28,0.32887
3938.5,0.32925
3932.71,0.32826
3926.93,0.32883
3921.14,0.32921
3915.35,0.32991
3909.57,0.32970
3903.78,0.32858
3897.99,0.32900
3892.21,0.32865
3886.42,0.32917
3880.64,0.32871
3874.85,0.32796
3869.06,0.32680
3863.28,0.32740
3857.49,0.32718
3851.7,0.32582
3845.92,0.32722
3840.13,0.32492
3834.35,0.32525
3828.56,0.32460
3822.77,0.32170
3816.99,0.32123
3811.2,0.32061
3805.41,0.31762
3799.63,0.31649
3793.84,0.31480
3788.06,0.31279
3782.27,0.31050
3776.48,0.30781
3770.7,0.30540
3764.91,0.30220
3759.12,0.29851
3753.34,0.29370
3747.55,0.28841
3741.77,0.28435
3735.98,0.27835
3730.19,0.27295
3724.41,0.26596
3718.62,0.25686
3712.83,0.24492
3707.05,0.23132
3701.26,0.21403
3695.48,0.19801
3689.69,0.18768
3683.9,0.17721
3678.12,0.16258
3672.33,0.14700
3666.54,0.13481
3660.76,0.12548
3654.97,0.11628
3649.19,0.10852
3643.4,0.10240
3637.61,0.09643
3631.83,0.09064
3626.04,0.08556
3620.25,0.08121
3614.47,0.07722
3608.68,0.07434
3602.9,0.07166
3597.11,0.06877
3591.32,0.06685
3585.54,0.06391
3579.75,0.06219
3573.97,0.06031
3568.18,0.05877
3562.39,0.05734
3556.61,0.05673
3550.82,0.05480
3545.03,0.05376
3539.25,0.05255
3533.46,0.05105
3527.68,0.05042
3521.89,0.04908
3516.1,0.04896
3510.32,0.04787
3504.53,0.04622
3498.74,0.04604
3492.96,0.04489
3487.17,0.04495
3481.39,0.04426
3475.6,0.04370
3469.81,0.04288
3464.03,0.04255
3458.24,0.04210
3452.45,0.04172
3446.67,0.04153
3440.88,0.04149
3435.1,0.04042
3429.31,0.04046
3423.52,0.04049
3417.74,0.04069
3411.95,0.04071
3406.16,0.04060
3400.38,0.04062
3394.59,0.04061
3388.81,0.04054
3383.02,0.04042
3377.23,0.04030
3371.45,0.04090
3365.66,0.04051
3359.87,0.04103
3354.09,0.04140
3348.3,0.04228
3342.52,0.04246
3336.73,0.04286
3330.94,0.04324
3325.16,0.04433
3319.37,0.04452
3313.58,0.04549
3307.8,0.04459
3302.01,0.04520
3296.23,0.04523
3290.44,0.04670
3284.65,0.04670
3278.87,0.04742
3273.08,0.04798
3267.29,0.04946
3261.51,0.05009
3255.72,0.05069
3249.94,0.05157
3244.15,0.05206
3238.36,0.05433
3232.58,0.05409
3226.79,0.05546
3221,0.05693
3215.22,0.05825
3209.43,0.05814
3203.65,0.05924
3197.86,0.06052
3192.07,0.06188
3186.29,0.06303
3180.5,0.06376
3174.71,0.06486
3168.93,0.06686
3163.14,0.06808
3157.36,0.06874
3151.57,0.07057
3145.78,0.07164
3140,0.07192
3134.21,0.07325
3128.42,0.07519
3122.64,0.07607
3116.85,0.07757
3111.07,0.07834
3105.28,0.08035
3099.49,0.08184
3093.71,0.08294
3087.92,0.08379
3082.14,0.08458
3076.35,0.08650
3070.56,0.08824
3064.78,0.08918
3058.99,0.08956
3053.2,0.09163
3047.42,0.09287
3041.63,0.09397
3035.85,0.09420
3030.06,0.09350
3024.27,0.09427
3018.49,0.09701
3012.7,0.09847
3006.91,0.09855
3001.13,0.09783
2995.34,0.09775
2989.56,0.09666
2983.77,0.09544
2977.98,0.09270
2972.2,0.08837
2966.41,0.08429
2960.62,0.08254
2954.84,0.08148
2949.05,0.07908
2943.27,0.07790
2937.48,0.07814
2931.69,0.07739
2925.91,0.07648
2920.12,0.07605
2914.33,0.07525
2908.55,0.07466
2902.76,0.07547
2896.98,0.07760
2891.19,0.07966
2885.4,0.08129
2879.62,0.08308
2873.83,0.08417
2868.04,0.08604
2862.26,0.08728
2856.47,0.09000
2850.69,0.09398
2844.9,0.09877
2839.11,0.10386
2833.33,0.10828
2827.54,0.11162
2821.75,0.11540
2815.97,0.11855
2810.18,0.12242
2804.4,0.12441
2798.61,0.12716
2792.82,0.12953
2787.04,0.13093
2781.25,0.13177
2775.46,0.13339
2769.68,0.13480
2763.89,0.13598
2758.11,0.13705
2752.32,0.13776
2746.53,0.13840
2740.75,0.13982
2734.96,0.14065
2729.17,0.14165
2723.39,0.14309
2717.6,0.14442
2711.82,0.14588
2706.03,0.14771
2700.24,0.15063
2694.46,0.15212
2688.67,0.15418
2682.88,0.15665
2677.1,0.15859
2671.31,0.15982
2665.53,0.16162
2659.74,0.16309
2653.95,0.16418
2648.17,0.16612
2642.38,0.16794
2636.59,0.16946
2630.81,0.17102
2625.02,0.17238
2619.24,0.17378
2613.45,0.17515
2607.66,0.17602
2601.88,0.17724
2596.09,0.17857
2590.3,0.17982
2584.52,0.18022
2578.73,0.18076
2572.95,0.18165
2567.16,0.18164
2561.37,0.18161
2555.59,0.18171
2549.8,0.18215
2544.02,0.18206
2538.23,0.18228
2532.44,0.18299
2526.66,0.18383
2520.87,0.18397
2515.08,0.18470
2509.3,0.18580
2503.51,0.18729
2497.73,0.18896
2491.94,0.19087
2486.15,0.19202
2480.37,0.19293
2474.58,0.19399
2468.79,0.19533
2463.01,0.19606
2457.22,0.19652
2451.44,0.19716
2445.65,0.19733
2439.86,0.19902
2434.08,0.19931
2428.29,0.20027
2422.5,0.20063
2416.72,0.20113
2410.93,0.20142
2405.15,0.20174
2399.36,0.20191
2393.57,0.20223
2387.79,0.20153
2382,0.20133
2376.21,0.20108
2370.43,0.20067
2364.64,0.20017
2358.86,0.20016
2353.07,0.20013
2347.28,0.20014
2341.5,0.19919
2335.71,0.19849
2329.92,0.19880
2324.14,0.19893
2318.35,0.19862
2312.57,0.19853
2306.78,0.19805
2300.99,0.19778
2295.21,0.19695
2289.42,0.19584
2283.63,0.19460
2277.85,0.19349
2272.06,0.19265
2266.28,0.19051
2260.49,0.18927
2254.7,0.18756
2248.92,0.18636
2243.13,0.18556
2237.34,0.18444
2231.56,0.18455
2225.77,0.18454
2219.99,0.18528
2214.2,0.18636
2208.41,0.18710
2202.63,0.18764
2196.84,0.18732
2191.05,0.18678
2185.27,0.18586
2179.48,0.18478
2173.7,0.18315
2167.91,0.18164
2162.12,0.18037
2156.34,0.17888
2150.55,0.17777
2144.76,0.17618
2138.98,0.17525
2133.19,0.17449
2127.41,0.17571
2121.62,0.17678
2115.83,0.17704
2110.05,0.17710
2104.26,0.17744
2098.47,0.17754
2092.69,0.17745
2086.9,0.17729
2081.12,0.17701
2075.33,0.17586
2069.54,0.17507
2063.76,0.17372
2057.97,0.17252
2052.19,0.17028
2046.4,0.16698
2040.61,0.16236
2034.83,0.15673
2029.04,0.15369
2023.25,0.15223
2017.47,0.15024
2011.68,0.14590
2005.9,0.14204
2000.11,0.13992
1994.32,0.13924
1988.54,0.14006
1982.75,0.14014
1976.96,0.14079
1971.18,0.14116
1965.39,0.14332
1959.61,0.14539
1953.82,0.14585
1948.03,0.14592
1942.25,0.14663
1936.46,0.14772
1930.67,0.14846
1924.89,0.14894
1919.1,0.14678
1913.32,0.14213
1907.53,0.13579
1901.74,0.12973
1895.96,0.12445
1890.17,0.12084
1884.38,0.11792
1878.6,0.11618
1872.81,0.11550
1867.03,0.11565
1861.24,0.11900
1855.45,0.12580
1849.67,0.13376
1843.88,0.13948
1838.09,0.14257
1832.31,0.14249
1826.52,0.13975
1820.74,0.13680
1814.95,0.13257
1809.16,0.12798
1803.38,0.12453
1797.59,0.12129
1791.8,0.11991
1786.02,0.11995
1780.23,0.12051
1774.45,0.12203
1768.66,0.12487
1762.87,0.12672
1757.09,0.12488
1751.3,0.11819
1745.51,0.10500
1739.73,0.08939
1733.94,0.07945
1728.16,0.07744
1722.37,0.08269
1716.58,0.08850
1710.8,0.08963
1705.01,0.08782
1699.22,0.08444
1693.44,0.08001
1687.65,0.07637
1681.87,0.07185
1676.08,0.06884
1670.29,0.06642
1664.51,0.06334
1658.72,0.06074
1652.93,0.05838
1647.15,0.05762
1641.36,0.05605
1635.58,0.05509
1629.79,0.05514
1624,0.05525
1618.22,0.05511
1612.43,0.05523
1606.64,0.05551
1600.86,0.05561
1595.07,0.05688
1589.29,0.05774
1583.5,0.05833
1577.71,0.05947
1571.93,0.06003
1566.14,0.06065
1560.35,0.06126
1554.57,0.06158
1548.78,0.06189
1543,0.06078
1537.21,0.05989
1531.42,0.05853
1525.64,0.05700
1519.85,0.05573
1514.07,0.05467
1508.28,0.05343
1502.49,0.05194
1496.71,0.04969
1490.92,0.04783
1485.13,0.04634
1479.35,0.04483
1473.56,0.04316
1467.78,0.04152
1461.99,0.04054
1456.2,0.03893
1450.42,0.03822
1444.63,0.03793
1438.84,0.03714
1433.06,0.03606
1427.27,0.03682
1421.49,0.03831
1415.7,0.03964
1409.91,0.04068
1404.13,0.04059
1398.34,0.04096
1392.55,0.04062
1386.77,0.03902
1380.98,0.03719
1375.2,0.03769
1369.41,0.03864
1363.62,0.04028
1357.84,0.04221
1352.05,0.04402
1346.26,0.04483
1340.48,0.04473
1334.69,0.04501
1328.91,0.04597
1323.12,0.04601
1317.33,0.04633
1311.55,0.04931
1305.76,0.05347
1299.97,0.05627
1294.19,0.05751
1288.4,0.05665
1282.62,0.05528
1276.83,0.05767
1271.04,0.06047
1265.26,0.06370
1259.47,0.06743
1253.68,0.07206
1247.9,0.07585
1242.11,0.08156
1236.33,0.08820
1230.54,0.09711
1224.75,0.10513
1218.97,0.10653
1213.18,0.10084
1207.39,0.09351
1201.61,0.08869
1195.82,0.08669
1190.04,0.08556
1184.25,0.08375
1178.46,0.08165
1172.68,0.08061
1166.89,0.07943
1161.1,0.07002
1155.32,0.07193
1149.53,0.08081
1143.75,0.08517
1137.96,0.08871
1132.17,0.08854
1126.39,0.08944
1120.6,0.09187
1114.81,0.09452
1109.03,0.09747
1103.24,0.09917
1097.46,0.10041
1091.67,0.10105
1085.88,0.10297
1080.1,0.10413
1074.31,0.10406
1068.52,0.09820
1062.74,0.08889
1056.95,0.08092
1051.17,0.07416
1045.38,0.06915
1039.59,0.06734
1033.81,0.06895
1028.02,0.06788
1022.24,0.06706
1016.45,0.06549
1010.66,0.06571
1004.88,0.06485
999.09,0.06490
993.304,0.06584
987.518,0.06814
981.731,0.07090
975.945,0.07286
970.159,0.07280
964.373,0.07321
958.586,0.07362
952.8,0.07399
947.014,0.07441
941.228,0.07411
935.441,0.07369
929.655,0.07389
923.869,0.07333
918.083,0.07224
912.297,0.06997
906.51,0.06781
900.724,0.06594
894.938,0.06595
889.152,0.06806
883.365,0.06840
877.579,0.06790
871.793,0.06829
866.007,0.06888
860.22,0.06914
854.434,0.06876
848.648,0.06753
842.862,0.06641
837.075,0.06438
831.289,0.06180
825.503,0.05910
819.717,0.05539
813.931,0.05286
808.144,0.05630
802.358,0.06431
796.572,0.06485
790.786,0.06283
784.999,0.06759
779.213,0.06967
773.427,0.06596
767.641,0.06426
761.854,0.06215
756.068,0.06134
750.282,0.06082
744.496,0.05868
738.709,0.05719
732.923,0.05462
727.137,0.05188
721.351,0.05051
715.565,0.04883
709.778,0.04536
703.992,0.04272
698.206,0.04162
692.42,0.04428
686.633,0.04560
680.847,0.04472
675.061,0.04409
669.275,0.04555
663.488,0.04535
657.702,0.04479
651.916,0.04538
646.13,0.04474
640.343,0.04236
634.557,0.04152
628.771,0.04079
622.985,0.04140
617.198,0.04104
611.412,0.04152
605.626,0.04171
599.84,0.04232