File: 01_Data/Oak_Flooring/Cone/Oak_Flooring_HRRPUA_50.csv
Time after Ignition,Oak_Flooring_R1,Oak_Flooring_R2,Oak_Flooring_R3,Mean,Std. Dev.
0.0,8.8,29.8,2.6,13.8,14.3
1.0,19.4,50.0,17.6,29.0,18.2
2.0,36.0,75.7,41.5,51.1,21.5
3.0,58.2,105.2,73.0,78.8,24.1
4.0,84.9,128.9,102.7,105.5,22.1
5.0,113.9,163.5,134.2,137.2,25.0
6.0,138.3,201.1,169.1,169.5,31.4
7.0,161.9,229.3,195.8,195.7,33.7
8.0,180.8,254.0,220.2,218.3,36.6
9.0,194.3,275.7,239.9,236.6,40.8
10.0,211.8,287.0,256.0,251.6,37.8
11.0,228.4,296.1,270.8,265.1,34.2
12.0,237.4,306.7,277.1,273.7,34.8
13.0,251.6,306.3,285.5,281.1,27.6
14.0,259.8,317.2,291.9,289.6,28.8
15.0,262.3,312.4,306.3,293.7,27.3
16.0,267.0,320.9,306.2,298.0,27.8
17.0,263.5,322.0,308.0,297.8,30.5
18.0,276.4,322.6,314.9,304.6,24.8
19.0,279.0,321.2,313.2,304.5,22.4
20.0,285.2,316.8,315.9,306.0,18.0
21.0,285.1,316.6,316.0,305.9,18.0
22.0,288.0,316.3,316.3,306.9,16.4
23.0,294.8,315.3,306.6,305.6,10.3
24.0,288.4,312.2,309.6,303.4,13.1
25.0,296.0,302.6,302.8,300.5,3.9
26.0,292.2,304.3,303.8,300.1,6.9
27.0,289.9,303.5,299.3,297.6,6.9
28.0,282.7,296.9,300.9,293.5,9.6
29.0,278.4,291.1,288.4,286.0,6.7
30.0,274.2,287.2,287.7,283.0,7.6
31.0,275.8,282.2,287.2,281.7,5.7
32.0,266.9,283.4,286.1,278.8,10.4
33.0,264.1,274.4,278.0,272.1,7.2
34.0,263.9,273.1,277.5,271.5,7.0
35.0,258.3,270.2,269.5,266.0,6.7
36.0,254.7,260.6,261.1,258.8,3.6
37.0,254.5,261.1,264.5,260.0,5.1
38.0,257.6,254.4,260.2,257.4,2.9
39.0,250.9,255.6,260.9,255.8,5.0
40.0,248.4,249.7,257.8,252.0,5.1
41.0,250.4,242.6,252.0,248.3,5.0
42.0,240.3,244.8,246.3,243.8,3.1
43.0,241.7,240.8,247.8,243.4,3.8
44.0,241.2,237.8,244.5,241.1,3.3
45.0,238.4,233.8,241.7,238.0,4.0
46.0,235.5,233.6,240.4,236.5,3.5
47.0,231.8,228.0,238.8,232.9,5.5
48.0,228.3,227.7,237.9,231.3,5.7
49.0,232.1,228.3,232.8,231.0,2.4
50.0,223.5,225.9,226.9,225.4,1.7
51.0,221.7,224.4,226.3,224.1,2.3
52.0,221.8,221.9,224.1,222.6,1.3
53.0,221.1,218.1,220.6,219.9,1.6
54.0,216.2,216.4,216.9,216.5,0.3
55.0,214.9,214.7,216.4,215.3,0.9
56.0,215.0,211.8,218.5,215.1,3.3
57.0,211.5,213.0,215.3,213.3,1.9
58.0,209.2,210.3,213.3,210.9,2.1
59.0,211.7,208.2,216.3,212.0,4.0
60.0,206.9,206.1,212.1,208.4,3.3
61.0,205.1,206.7,210.9,207.6,3.0
62.0,203.2,205.0,203.1,203.8,1.1
63.0,210.0,203.9,203.0,205.6,3.8
64.0,199.3,201.2,205.1,201.9,2.9
65.0,201.5,200.6,201.1,201.1,0.5
66.0,198.0,201.9,198.7,199.6,2.1
67.0,197.4,195.9,200.2,197.8,2.2
68.0,197.0,195.9,197.2,196.7,0.7
69.0,192.9,197.3,197.7,196.0,2.6
70.0,195.2,193.0,194.5,194.2,1.1
71.0,192.0,194.8,191.3,192.7,1.8
72.0,195.2,196.2,191.3,194.2,2.6
73.0,188.1,193.2,187.3,189.5,3.2
74.0,188.6,193.6,191.5,191.2,2.5
75.0,185.0,190.3,185.2,186.8,3.0
76.0,184.1,189.1,182.1,185.1,3.6
77.0,187.6,186.3,183.2,185.7,2.3
78.0,185.0,190.6,181.9,185.8,4.4
79.0,184.8,184.4,180.0,183.1,2.7
80.0,182.2,186.2,180.9,183.1,2.8
81.0,180.6,182.3,178.1,180.3,2.1
82.0,181.0,182.4,179.1,180.8,1.7
83.0,181.6,182.4,178.5,180.9,2.1
84.0,180.5,180.8,176.0,179.1,2.7
85.0,177.7,180.8,175.4,178.0,2.7
86.0,177.2,180.3,173.8,177.1,3.3
87.0,175.0,179.2,170.9,175.0,4.1
88.0,173.9,177.0,173.4,174.8,2.0
89.0,177.5,180.7,170.3,176.2,5.3
90.0,174.1,175.5,175.0,174.9,0.7
91.0,176.1,176.9,169.9,174.3,3.9
92.0,174.3,178.3,168.9,173.8,4.7
93.0,169.9,175.7,170.1,171.9,3.3
94.0,171.4,175.3,171.0,172.5,2.4
95.0,172.7,173.7,167.8,171.4,3.1
96.0,173.3,174.8,163.3,170.5,6.2
97.0,170.9,173.1,165.5,169.9,3.9
98.0,168.1,173.1,163.7,168.3,4.7
99.0,167.3,174.9,163.0,168.4,6.0
100.0,164.1,171.9,163.9,166.6,4.5
101.0,163.6,176.3,161.0,167.0,8.2
102.0,163.2,173.2,162.7,166.4,5.9
103.0,165.5,172.0,167.8,168.4,3.3
104.0,165.0,171.9,161.9,166.3,5.1
105.0,165.6,172.4,162.2,166.8,5.2
106.0,165.7,172.6,160.9,166.4,5.9
107.0,164.1,173.7,159.5,165.7,7.3
108.0,163.7,170.8,161.5,165.3,4.9
109.0,162.5,169.1,161.3,164.3,4.2
110.0,165.3,170.6,161.3,165.7,4.7
111.0,162.0,170.1,160.4,164.2,5.2
112.0,159.3,170.5,164.3,164.7,5.6
113.0,159.4,170.9,159.8,163.4,6.5
114.0,157.7,167.8,157.1,160.8,6.0
115.0,157.5,170.0,159.4,162.3,6.7
116.0,158.1,165.6,156.7,160.1,4.8
117.0,156.0,164.9,160.9,160.6,4.5
118.0,155.3,169.0,157.7,160.7,7.3
119.0,155.9,166.5,157.6,160.0,5.7
120.0,155.7,165.9,156.0,159.2,5.8
121.0,153.8,167.8,156.4,159.3,7.4
122.0,155.0,165.3,156.9,159.1,5.4
123.0,153.8,167.3,156.4,159.2,7.2
124.0,154.3,165.0,157.9,159.0,5.4
125.0,150.0,167.4,159.2,158.9,8.7
126.0,154.2,167.3,154.3,158.6,7.6
127.0,150.8,166.4,156.3,157.8,7.9
128.0,150.3,163.2,155.4,156.3,6.5
129.0,149.7,164.3,152.4,155.5,7.8
130.0,152.4,164.5,153.9,156.9,6.6
131.0,150.4,163.5,155.5,156.5,6.6
132.0,148.6,164.6,153.8,155.7,8.2
133.0,147.5,163.0,152.6,154.4,7.9
134.0,148.0,161.7,154.5,154.7,6.9
135.0,147.8,160.5,154.5,154.3,6.4
136.0,146.5,160.9,152.1,153.2,7.2
137.0,145.0,159.7,150.6,151.8,7.4
138.0,146.6,159.8,151.9,152.8,6.6
139.0,145.2,160.7,153.1,153.0,7.8
140.0,148.9,160.0,150.2,153.0,6.0
141.0,144.7,156.6,151.2,150.9,6.0
142.0,146.6,159.5,151.0,152.3,6.6
143.0,147.9,156.1,149.4,151.1,4.4
144.0,146.5,155.7,149.4,150.6,4.7
145.0,146.2,155.4,148.5,150.0,4.8
146.0,145.3,156.6,151.1,151.0,5.6
147.0,145.8,157.5,150.7,151.4,5.9
148.0,143.1,155.0,147.6,148.6,6.0
149.0,142.4,153.8,148.0,148.1,5.7
150.0,144.6,153.7,146.2,148.2,4.9
151.0,144.2,152.5,148.0,148.2,4.2
152.0,141.3,155.5,148.2,148.3,7.1
153.0,141.4,153.4,147.2,147.3,6.0
154.0,140.1,152.0,147.7,146.6,6.0
155.0,141.5,150.8,148.3,146.9,4.8
156.0,139.0,150.3,149.3,146.2,6.3
157.0,140.0,151.4,149.6,147.0,6.1
158.0,140.2,151.4,147.4,146.3,5.7
159.0,137.2,150.0,145.3,144.2,6.5
160.0,139.3,149.9,146.2,145.2,5.4
161.0,139.2,149.5,148.0,145.6,5.6
162.0,138.3,148.4,147.3,144.7,5.6
163.0,139.0,149.8,146.5,145.1,5.5
164.0,138.1,150.1,146.8,145.0,6.2
165.0,138.9,148.1,148.5,145.1,5.4
166.0,139.0,147.1,145.9,144.0,4.4
167.0,137.9,147.6,144.5,143.3,5.0
168.0,136.3,145.2,142.9,141.5,4.7
169.0,137.3,143.1,145.8,142.1,4.3
170.0,137.3,147.5,142.2,142.3,5.1
171.0,135.8,148.3,142.1,142.0,6.3
172.0,136.8,146.3,143.7,142.3,4.9
173.0,134.4,146.4,141.1,140.6,6.0
174.0,134.7,148.6,143.3,142.2,7.0
175.0,134.6,147.7,143.9,142.1,6.7
176.0,134.8,144.0,142.2,140.3,4.9
177.0,134.1,145.9,142.8,140.9,6.1
178.0,134.4,146.2,140.5,140.4,5.9
179.0,132.8,141.4,142.3,138.9,5.2
180.0,134.5,140.7,142.6,139.3,4.3
181.0,132.5,144.7,143.1,140.1,6.6
182.0,136.2,143.8,139.6,139.8,3.8
183.0,133.9,140.6,142.0,138.8,4.3
184.0,131.6,141.8,139.6,137.7,5.4
185.0,132.9,138.6,143.3,138.2,5.2
186.0,130.3,139.2,141.0,136.8,5.7
187.0,130.5,141.0,142.2,137.9,6.4
188.0,129.3,143.3,140.4,137.7,7.4
189.0,127.8,142.3,139.9,136.7,7.8
190.0,129.8,141.7,139.2,136.9,6.3
191.0,129.9,142.3,139.8,137.3,6.6
192.0,128.9,140.3,139.8,136.4,6.4
193.0,128.3,137.0,141.9,135.8,6.9
194.0,130.1,139.1,139.2,136.1,5.2
195.0,127.9,139.2,139.9,135.7,6.7
196.0,128.3,139.5,139.7,135.8,6.5
197.0,128.3,136.7,138.4,134.4,5.4
198.0,128.5,138.0,140.0,135.5,6.2
199.0,128.4,137.8,138.9,135.0,5.8
200.0,127.8,136.7,139.9,134.8,6.3
201.0,127.4,139.9,140.3,135.9,7.3
202.0,128.0,135.1,138.3,133.8,5.2
203.0,127.9,136.1,135.6,133.2,4.6
204.0,126.2,134.1,137.9,132.7,6.0
205.0,126.9,134.4,135.9,132.4,4.8
206.0,127.9,135.9,138.3,134.0,5.4
207.0,125.6,134.0,138.1,132.6,6.4
208.0,126.6,133.7,140.2,133.5,6.8
209.0,128.4,134.3,138.3,133.7,4.9
210.0,126.7,134.4,138.3,133.1,5.9
211.0,127.0,132.8,137.3,132.4,5.2
212.0,127.4,132.9,138.1,132.8,5.3
213.0,126.6,132.6,138.7,132.6,6.1
214.0,125.5,133.4,136.4,131.8,5.6
215.0,125.8,131.6,136.5,131.3,5.4
216.0,126.9,132.4,136.3,131.9,4.7
217.0,122.9,129.3,136.1,129.5,6.6
218.0,125.2,132.3,136.2,131.2,5.6
219.0,125.3,130.5,135.6,130.5,5.1
220.0,121.3,131.2,136.2,129.6,7.5
221.0,125.3,132.5,136.4,131.4,5.6
222.0,123.7,128.9,135.9,129.5,6.2
223.0,124.8,129.0,135.8,129.9,5.5
224.0,122.1,128.9,134.7,128.6,6.3
225.0,124.1,128.2,136.3,129.5,6.2
226.0,122.9,128.4,135.7,129.0,6.4
227.0,121.7,130.4,133.6,128.6,6.2
228.0,125.1,129.6,135.2,130.0,5.1
229.0,123.2,128.3,135.4,129.0,6.1
230.0,121.2,129.0,134.9,128.4,6.9
231.0,121.5,128.7,138.2,129.5,8.4
232.0,121.3,128.7,135.3,128.4,7.0
233.0,120.6,129.4,136.4,128.8,7.9
234.0,123.2,129.9,130.9,128.0,4.2
235.0,121.5,129.3,134.0,128.3,6.3
236.0,120.1,127.3,133.9,127.1,6.9
237.0,121.3,128.3,134.6,128.1,6.7
238.0,120.2,126.1,133.9,126.7,6.9
239.0,118.9,128.7,134.3,127.3,7.8
240.0,118.7,124.6,132.5,125.3,6.9
241.0,120.1,125.5,133.9,126.5,7.0
242.0,120.7,125.6,131.5,125.9,5.4
243.0,121.3,125.6,132.4,126.4,5.6
244.0,119.0,126.7,133.6,126.4,7.3
245.0,121.7,127.4,132.9,127.3,5.6
246.0,119.8,125.5,129.8,125.1,5.0
247.0,120.4,126.8,129.4,125.6,4.6
248.0,118.9,127.5,128.2,124.8,5.2
249.0,120.4,128.0,128.6,125.7,4.6
250.0,119.1,125.7,127.4,124.1,4.4
251.0,119.2,126.7,130.4,125.5,5.7
252.0,119.6,124.6,132.2,125.5,6.3
253.0,117.9,125.9,129.1,124.3,5.8
254.0,117.2,123.5,130.8,123.8,6.8
255.0,116.5,122.5,128.6,122.5,6.0
256.0,115.1,122.5,130.4,122.7,7.7
257.0,117.1,124.0,128.8,123.3,5.9
258.0,114.3,122.7,131.4,122.8,8.6
259.0,117.4,124.5,130.5,124.1,6.6
260.0,115.9,122.9,127.3,122.0,5.7
261.0,117.1,123.7,128.8,123.2,5.9
262.0,117.6,122.4,126.6,122.2,4.5
263.0,117.8,121.9,126.0,121.9,4.1
264.0,116.2,123.1,127.9,122.4,5.9
265.0,117.8,125.7,125.1,122.9,4.4
266.0,117.0,124.3,126.0,122.4,4.8
267.0,117.2,123.8,126.1,122.4,4.6
268.0,117.1,123.8,125.4,122.1,4.4
269.0,118.1,125.4,125.2,122.9,4.2
270.0,117.6,124.9,125.4,122.6,4.3
271.0,117.9,123.9,124.3,122.0,3.6
272.0,115.5,125.0,124.2,121.6,5.3
273.0,115.8,124.6,124.0,121.5,4.9
274.0,115.1,124.2,125.1,121.5,5.5
275.0,115.2,123.9,124.4,121.2,5.2
276.0,115.3,124.3,124.9,121.5,5.4
277.0,115.4,125.3,123.8,121.5,5.3
278.0,116.2,123.6,123.5,121.1,4.2
279.0,113.4,125.6,122.7,120.6,6.4
280.0,114.0,124.8,124.3,121.0,6.1
281.0,113.3,125.3,123.9,120.8,6.6
282.0,112.8,126.8,124.6,121.4,7.5
283.0,112.8,124.9,124.7,120.8,6.9
284.0,113.9,124.2,121.6,119.9,5.3
285.0,112.0,123.6,121.6,119.1,6.2
286.0,114.4,124.2,123.3,120.6,5.4
287.0,113.5,125.3,120.7,119.8,6.0
288.0,112.4,124.9,120.9,119.4,6.4
289.0,112.3,125.1,121.1,119.5,6.5
290.0,112.8,125.1,121.2,119.7,6.3
291.0,113.9,124.0,122.0,120.0,5.4
292.0,113.2,123.2,121.9,119.5,5.4
293.0,111.6,124.1,121.0,118.9,6.5
294.0,113.2,124.3,120.3,119.3,5.7
295.0,112.2,123.7,121.0,118.9,6.0
296.0,113.1,122.8,120.3,118.7,5.0
297.0,112.1,122.4,120.2,118.2,5.4
298.0,111.7,123.2,120.3,118.4,6.0
299.0,111.1,123.9,119.0,118.0,6.4
300.0,110.5,120.6,122.8,118.0,6.6
301.0,111.6,124.1,120.7,118.8,6.4
302.0,111.4,123.4,119.6,118.1,6.2
303.0,109.3,121.9,120.4,117.2,6.9
304.0,110.9,121.8,118.7,117.2,5.6
305.0,110.3,123.4,120.0,117.9,6.8
306.0,110.0,122.0,119.2,117.1,6.3
307.0,111.6,123.4,120.4,118.5,6.2
308.0,111.0,123.6,118.7,117.8,6.3
309.0,110.8,122.2,119.6,117.5,6.0
310.0,109.6,123.2,118.9,117.2,6.9
311.0,109.4,125.0,117.2,117.2,7.8
312.0,109.9,120.6,118.7,116.4,5.7
313.0,111.2,122.8,118.0,117.4,5.8
314.0,111.6,123.0,118.3,117.7,5.7
315.0,111.3,120.5,119.0,116.9,4.9
316.0,111.2,122.2,116.0,116.5,5.5
317.0,111.5,121.1,116.2,116.3,4.8
318.0,109.4,120.5,115.4,115.1,5.5
319.0,110.5,120.9,115.4,115.6,5.2
320.0,111.7,120.7,116.5,116.3,4.5
321.0,111.1,118.6,113.9,114.6,3.8
322.0,110.2,121.7,115.4,115.8,5.8
323.0,109.7,121.0,113.6,114.8,5.7
324.0,110.6,121.9,115.2,115.9,5.7
325.0,110.1,120.4,116.3,115.6,5.2
326.0,109.5,121.9,113.9,115.1,6.3
327.0,107.2,122.9,113.5,114.5,7.9
328.0,109.7,120.5,116.0,115.4,5.4
329.0,109.7,123.0,114.4,115.7,6.8
330.0,108.7,124.0,114.5,115.7,7.7
331.0,109.1,125.9,116.6,117.2,8.4
332.0,111.8,123.1,113.5,116.1,6.1
333.0,110.5,123.8,114.7,116.3,6.8
334.0,111.0,121.2,113.4,115.2,5.3
335.0,109.8,121.5,115.3,115.5,5.9
336.0,111.5,124.5,116.1,117.4,6.6
337.0,108.5,124.2,113.2,115.3,8.1
338.0,109.2,125.3,113.5,116.0,8.3
339.0,110.3,121.6,113.5,115.2,5.8
340.0,111.0,122.5,113.9,115.8,6.0
341.0,108.0,122.7,113.8,114.8,7.4
342.0,109.4,124.2,114.3,116.0,7.6
343.0,111.2,123.8,114.0,116.3,6.6
344.0,109.2,123.7,115.3,116.1,7.3
345.0,111.2,125.4,114.3,116.9,7.4
346.0,112.6,123.8,115.6,117.3,5.8
347.0,110.9,124.7,112.5,116.0,7.6
348.0,109.4,125.1,112.4,115.7,8.3
349.0,109.8,123.9,112.0,115.2,7.6
350.0,111.5,123.7,113.9,116.4,6.5
351.0,109.0,122.5,113.1,114.8,6.9
352.0,108.7,123.4,111.7,114.6,7.8
353.0,107.3,121.4,113.4,114.0,7.1
354.0,109.6,122.8,110.9,114.4,7.3
355.0,109.1,123.4,113.3,115.3,7.3
356.0,109.2,125.1,114.8,116.4,8.1
357.0,112.0,123.0,112.4,115.8,6.2
358.0,110.9,123.6,113.3,115.9,6.8
359.0,108.2,122.1,111.2,113.8,7.3
360.0,109.7,122.3,110.7,114.2,7.0
361.0,108.3,124.4,110.8,114.5,8.7
362.0,108.1,121.6,112.3,114.0,6.9
363.0,110.8,122.6,111.1,114.9,6.7
364.0,110.0,123.3,111.4,114.9,7.3
365.0,109.7,122.3,111.1,114.4,6.9
366.0,108.8,124.5,111.0,114.8,8.5
367.0,108.8,123.1,110.5,114.1,7.8
368.0,107.5,122.5,110.9,113.6,7.9
369.0,107.3,120.5,110.8,112.9,6.9
370.0,108.3,122.1,113.9,114.8,6.9
371.0,106.9,122.8,110.9,113.6,8.3
372.0,106.6,126.0,112.2,114.9,10.0
373.0,109.0,122.0,110.9,114.0,7.0
374.0,106.9,123.9,111.5,114.1,8.8
375.0,106.9,124.9,109.8,113.9,9.7
376.0,106.4,126.5,111.9,114.9,10.4
377.0,107.2,125.6,112.4,115.0,9.5
378.0,108.4,124.9,110.9,114.8,8.9
379.0,108.3,125.3,110.3,114.6,9.3
380.0,107.9,121.0,110.5,113.2,6.9
381.0,108.2,126.7,111.8,115.6,9.8
382.0,107.9,125.1,110.6,114.5,9.3
383.0,106.8,125.4,111.2,114.5,9.7
384.0,108.2,126.4,111.1,115.2,9.8
385.0,107.5,126.9,111.9,115.4,10.2
386.0,109.4,126.8,109.9,115.4,9.9
387.0,107.4,126.8,111.7,115.3,10.2
388.0,106.6,131.6,110.2,116.1,13.5
389.0,107.1,129.1,111.0,115.7,11.7
390.0,106.8,128.6,111.4,115.6,11.5
391.0,107.1,130.6,111.1,116.3,12.6
392.0,107.0,130.8,111.1,116.3,12.7
393.0,107.3,129.7,109.9,115.6,12.3
394.0,105.7,130.7,109.3,115.3,13.5
395.0,105.6,131.3,109.5,115.5,13.9
396.0,107.8,129.6,107.9,115.1,12.6
397.0,106.2,129.7,109.6,115.2,12.7
398.0,107.6,129.3,107.0,114.6,12.7
399.0,107.4,129.1,109.4,115.3,12.0
400.0,106.8,129.5,109.4,115.2,12.5
401.0,107.1,129.1,108.2,114.8,12.4
402.0,107.5,129.6,109.0,115.4,12.4
403.0,108.5,129.6,108.8,115.6,12.1
404.0,107.1,131.2,109.6,116.0,13.3
405.0,106.0,133.5,109.2,116.2,15.0
406.0,107.1,130.5,110.9,116.2,12.6
407.0,106.3,130.9,106.9,114.7,14.0
408.0,106.2,131.6,109.0,115.6,14.0
409.0,107.0,130.8,107.6,115.2,13.6
410.0,108.7,130.9,106.1,115.3,13.6
411.0,107.8,131.0,107.9,115.6,13.4
412.0,107.0,131.2,108.4,115.6,13.6
413.0,106.7,131.8,106.4,115.0,14.6
414.0,106.9,131.8,107.0,115.3,14.3
415.0,106.4,130.1,106.6,114.4,13.6
416.0,106.4,131.6,104.7,114.3,15.0
417.0,106.5,131.3,106.0,114.6,14.5
418.0,107.9,134.4,106.0,116.1,15.8
419.0,106.7,133.3,106.3,115.4,15.4
420.0,107.0,132.8,104.1,114.6,15.8
421.0,108.4,134.8,105.0,116.1,16.3
422.0,107.7,132.8,106.2,115.6,14.9
423.0,106.8,133.9,108.3,116.3,15.2
424.0,107.7,132.2,106.0,115.3,14.7
425.0,109.3,131.4,106.5,115.7,13.7
426.0,108.0,131.9,106.7,115.6,14.2
427.0,106.7,133.9,106.3,115.7,15.8
428.0,108.2,132.3,104.2,114.9,15.2
429.0,107.3,131.8,107.2,115.4,14.1
430.0,109.1,133.2,105.4,115.9,15.1
431.0,107.7,134.1,104.8,115.5,16.1
432.0,108.2,136.6,106.4,117.1,16.9
433.0,107.6,134.7,107.7,116.6,15.6
434.0,109.3,135.2,106.0,116.8,16.0
435.0,108.8,133.3,107.0,116.3,14.7
436.0,106.6,133.1,105.9,115.2,15.5
437.0,107.6,134.3,107.4,116.4,15.4
438.0,106.4,134.2,107.8,116.1,15.6
439.0,107.0,134.9,106.1,116.0,16.3
440.0,106.4,134.3,108.0,116.2,15.7
441.0,106.3,137.2,107.7,117.1,17.5
442.0,107.7,138.2,106.5,117.5,18.0
443.0,108.5,137.5,107.9,118.0,17.0
444.0,107.3,136.4,106.6,116.8,17.0
445.0,108.1,138.5,107.4,118.0,17.8
446.0,106.1,138.0,107.4,117.2,18.0
447.0,108.7,138.3,105.4,117.5,18.1
448.0,107.1,139.1,106.6,117.6,18.6
449.0,107.5,137.5,107.7,117.6,17.3
450.0,108.0,138.4,107.0,117.8,17.8
451.0,107.3,137.8,107.4,117.5,17.6
452.0,108.1,136.7,105.8,116.9,17.2
453.0,108.4,137.8,105.9,117.4,17.7
454.0,108.0,136.2,107.4,117.2,16.5
455.0,108.5,139.9,107.9,118.8,18.3
456.0,108.9,140.2,107.5,118.9,18.5
457.0,108.3,140.3,108.3,119.0,18.5
458.0,107.7,138.9,107.0,117.8,18.2
459.0,108.7,141.1,108.4,119.4,18.8
460.0,107.8,140.4,110.0,119.4,18.2
461.0,107.9,140.6,109.6,119.4,18.4
462.0,108.4,141.2,108.7,119.4,18.9
463.0,112.1,143.3,108.5,121.3,19.1
464.0,108.5,141.2,106.5,118.7,19.5
465.0,110.3,143.7,106.6,120.2,20.4
466.0,108.2,143.8,106.4,119.5,21.1
467.0,110.9,142.6,108.4,120.7,19.1
468.0,107.1,144.4,109.7,120.4,20.8
469.0,111.0,144.3,108.9,121.4,19.9
470.0,109.2,143.0,107.1,119.8,20.1
471.0,108.3,143.6,108.7,120.2,20.2
472.0,108.7,146.0,108.3,121.0,21.7
473.0,108.8,143.7,108.7,120.4,20.2
474.0,109.3,145.2,107.7,120.7,21.2
475.0,110.8,143.5,108.1,120.8,19.7
476.0,108.3,146.9,108.1,121.1,22.4
477.0,110.2,143.4,109.0,120.9,19.6
478.0,108.9,148.7,108.3,122.0,23.2
479.0,110.8,146.1,109.1,122.0,20.9
480.0,109.6,149.4,107.2,122.1,23.7
481.0,107.3,147.2,108.9,121.1,22.6
482.0,108.4,145.7,106.6,120.2,22.0
483.0,108.7,149.5,109.1,122.4,23.4
484.0,107.7,147.5,107.3,120.8,23.1
485.0,106.9,148.3,109.2,121.4,23.3
486.0,109.7,150.1,109.8,123.2,23.3
487.0,107.4,148.7,110.0,122.0,23.1
488.0,110.2,152.2,109.6,124.0,24.4
489.0,112.7,152.1,108.7,124.5,24.0
490.0,109.9,152.0,110.0,124.0,24.2
491.0,108.9,149.6,109.5,122.7,23.3
492.0,109.4,152.4,109.9,123.9,24.7
493.0,108.9,153.1,110.6,124.2,25.1
494.0,109.4,151.9,110.2,123.8,24.3
495.0,108.8,150.5,111.6,123.6,23.3
496.0,108.7,151.9,112.4,124.3,23.9
497.0,107.5,153.1,110.9,123.8,25.4
498.0,109.2,153.3,111.0,124.5,25.0
499.0,108.1,152.2,111.4,123.9,24.5
500.0,109.2,151.7,112.1,124.3,23.7
501.0,108.9,153.5,113.0,125.1,24.6
502.0,108.1,153.7,113.3,125.0,24.9
503.0,108.0,152.3,112.3,124.2,24.4
504.0,110.3,154.2,111.9,125.5,24.9
505.0,109.2,154.2,111.0,124.8,25.5
506.0,107.2,153.9,113.2,124.8,25.4
507.0,108.9,157.3,111.4,125.9,27.2
508.0,108.6,158.7,112.4,126.6,27.9
509.0,108.9,156.6,112.1,125.9,26.7
510.0,109.0,159.5,113.0,127.2,28.1
511.0,109.5,156.3,114.0,126.6,25.8
512.0,108.0,156.3,112.9,125.7,26.6
513.0,108.6,156.6,115.8,127.0,25.9
514.0,107.9,159.2,116.1,127.7,27.6
515.0,107.3,155.3,117.6,126.7,25.3
516.0,108.6,158.6,115.3,127.5,27.1
517.0,108.6,157.0,115.1,126.9,26.3
518.0,109.1,159.6,115.0,127.9,27.6
519.0,109.3,161.9,115.4,128.9,28.8
520.0,108.3,161.9,118.2,129.5,28.6
521.0,107.5,161.7,118.6,129.3,28.6
522.0,111.1,164.6,116.6,130.8,29.4
523.0,108.1,162.9,117.3,129.4,29.3
524.0,109.0,164.0,114.5,129.2,30.3
525.0,109.2,163.1,115.1,129.2,29.6
526.0,107.5,164.6,115.2,129.1,31.0
527.0,109.2,166.0,116.9,130.7,30.8
528.0,109.3,164.7,117.9,130.7,29.8
529.0,109.3,166.6,116.7,130.9,31.2
530.0,108.9,167.3,117.3,131.2,31.6
531.0,108.7,165.6,117.8,130.7,30.5
532.0,110.6,164.4,117.9,131.0,29.2
533.0,109.8,167.0,117.2,131.3,31.1
534.0,111.4,167.0,118.5,132.3,30.3
535.0,108.4,167.2,118.0,131.2,31.6
536.0,109.5,169.2,117.9,132.2,32.3
537.0,112.1,167.3,118.5,132.6,30.2
538.0,112.0,166.0,118.7,132.2,29.4
539.0,109.6,169.5,117.0,132.0,32.7
540.0,109.8,167.6,118.5,132.0,31.2
541.0,112.2,171.6,118.8,134.2,32.6
542.0,110.1,168.4,119.8,132.8,31.3
543.0,111.2,170.2,117.9,133.1,32.3
544.0,109.9,173.3,119.8,134.3,34.1
545.0,110.7,172.7,122.2,135.2,33.0
546.0,110.1,172.5,120.3,134.3,33.4
547.0,111.5,172.3,119.1,134.3,33.1
548.0,112.3,174.6,119.9,135.6,34.0
549.0,114.1,172.3,120.5,135.6,31.9
550.0,112.9,173.1,119.7,135.2,33.0
551.0,114.0,174.5,122.4,137.0,32.8
552.0,113.0,173.2,121.3,135.8,32.6
553.0,112.5,174.0,121.4,136.0,33.3
554.0,110.9,175.5,120.3,135.6,34.9
555.0,111.2,176.5,122.1,136.6,35.0
556.0,111.3,179.6,123.5,138.1,36.4
557.0,110.0,176.1,122.5,136.2,35.1
558.0,112.4,180.6,123.7,138.9,36.5
559.0,111.5,175.6,124.9,137.3,33.8
560.0,111.5,175.7,124.9,137.3,33.9
561.0,112.5,180.7,123.4,138.8,36.6
562.0,111.4,178.4,124.1,137.9,35.6
563.0,110.2,180.8,123.4,138.1,37.6
564.0,111.9,178.6,122.8,137.8,35.8
565.0,112.4,177.8,123.1,137.8,35.1
566.0,111.4,181.9,125.0,139.4,37.4
567.0,111.2,181.5,124.3,139.0,37.4
568.0,110.8,180.0,124.4,138.4,36.7
569.0,112.4,178.3,123.4,138.0,35.3
570.0,111.4,183.6,123.8,139.6,38.6
571.0,112.2,181.8,123.4,139.2,37.4
572.0,112.7,180.3,122.9,138.6,36.4
573.0,111.7,181.0,123.4,138.7,37.1
574.0,114.2,184.1,124.1,140.8,37.8
575.0,112.8,183.5,123.0,139.8,38.2
576.0,113.5,185.0,123.8,140.8,38.7
577.0,111.4,184.5,123.9,139.9,39.1
578.0,112.3,186.7,126.0,141.7,39.6
579.0,113.3,188.5,126.5,142.8,40.1
580.0,112.3,188.6,125.2,142.0,40.8
581.0,113.1,192.5,127.5,144.4,42.3
582.0,113.6,187.9,126.8,142.8,39.6
583.0,114.1,190.0,127.2,143.7,40.6
584.0,116.3,194.2,128.0,146.2,42.0
585.0,113.4,189.4,129.1,144.0,40.1
586.0,113.7,192.5,128.4,144.9,41.9
587.0,114.3,191.1,127.5,144.3,41.0
588.0,114.2,190.9,127.6,144.2,41.0
589.0,114.7,194.8,129.0,146.1,42.7
590.0,115.4,194.5,126.7,145.5,42.8
591.0,115.4,193.0,127.5,145.3,41.7
592.0,115.9,197.2,127.3,146.8,44.0
593.0,113.3,197.4,127.5,146.1,45.1
594.0,114.8,200.3,127.6,147.5,46.1
595.0,115.3,194.3,131.2,147.0,41.8
596.0,113.7,199.0,130.2,147.7,45.3
597.0,115.2,201.9,129.2,148.8,46.6
598.0,113.8,197.4,131.5,147.6,44.1
599.0,113.9,201.6,129.7,148.4,46.8
600.0,114.4,192.8,130.5,145.9,41.4
601.0,115.4,200.5,133.1,149.6,44.9
602.0,114.9,197.0,133.2,148.4,43.1
603.0,115.8,197.1,131.4,148.1,43.1
604.0,116.3,198.2,131.1,148.5,43.6
605.0,116.3,200.0,130.2,148.8,44.8
606.0,115.8,201.8,129.7,149.1,46.2
607.0,116.3,199.8,132.0,149.4,44.4
608.0,116.1,198.3,134.5,149.6,43.2
609.0,114.6,203.8,133.5,150.6,47.0
610.0,115.5,201.1,132.7,149.7,45.3
611.0,116.4,205.1,131.6,151.0,47.4
612.0,115.9,205.1,133.6,151.6,47.2
613.0,117.6,205.2,133.4,152.1,46.7
614.0,118.0,202.7,133.9,151.5,45.0
615.0,117.9,202.6,133.5,151.3,45.1
616.0,118.5,203.7,132.6,151.6,45.7
617.0,117.6,208.6,135.4,153.9,48.3
618.0,118.2,211.6,132.5,154.1,50.3
619.0,118.3,210.3,132.7,153.8,49.5
620.0,118.6,214.0,133.9,155.5,51.2
621.0,118.1,215.9,135.2,156.4,52.3
622.0,116.6,218.2,138.0,157.6,53.6
623.0,118.8,213.8,136.6,156.4,50.5
624.0,120.8,214.6,139.4,158.3,49.7
625.0,117.3,215.6,139.1,157.3,51.6
626.0,117.1,213.7,137.8,156.2,50.8
627.0,120.9,218.5,137.6,159.0,52.2
628.0,121.0,213.9,138.5,157.8,49.4
629.0,120.5,217.4,139.2,159.0,51.4
630.0,120.8,221.3,137.8,160.0,53.8
631.0,120.3,219.0,139.3,159.5,52.4
632.0,118.2,217.4,136.9,157.5,52.7
633.0,121.2,214.9,139.0,158.4,49.8
634.0,121.2,216.8,140.0,159.3,50.6
635.0,121.7,221.5,141.3,161.5,52.8
636.0,122.9,218.3,141.3,160.9,50.6
637.0,121.7,223.1,140.6,161.8,53.9
638.0,123.7,222.2,142.4,162.8,52.3
639.0,123.0,219.6,142.6,161.7,51.1
640.0,121.9,223.7,143.7,163.1,53.6
641.0,121.8,227.7,145.2,164.9,55.6
642.0,124.4,218.9,143.3,162.2,50.0
643.0,123.5,222.5,142.9,163.0,52.5
644.0,121.5,219.9,144.7,162.1,51.4
645.0,120.9,220.1,143.3,161.5,52.0
646.0,122.9,224.4,145.4,164.2,53.3
647.0,124.0,220.9,145.9,163.6,50.8
648.0,123.7,222.6,145.2,163.8,52.0
649.0,123.4,226.1,145.2,164.9,54.1
650.0,122.7,229.3,147.7,166.6,55.8
651.0,123.4,227.7,148.6,166.6,54.5
652.0,125.9,231.8,148.5,168.7,55.8
653.0,126.2,229.2,148.0,167.8,54.3
654.0,124.2,231.6,151.1,169.0,55.9
655.0,126.2,229.9,148.9,168.3,54.5
656.0,126.9,231.0,148.8,168.9,54.9
657.0,128.6,229.8,152.5,170.3,52.9
658.0,128.6,228.2,149.3,168.7,52.6
659.0,130.0,229.6,150.4,170.0,52.6
660.0,127.9,233.4,151.0,170.8,55.5
661.0,129.3,233.3,149.3,170.6,55.2
662.0,129.9,234.4,151.6,172.0,55.2
663.0,130.4,233.8,152.9,172.4,54.4
664.0,130.6,231.7,155.8,172.7,52.6
665.0,128.2,232.6,157.1,172.6,53.9
666.0,132.1,234.3,154.4,173.6,53.7
667.0,132.1,231.8,154.0,172.6,52.4
668.0,131.8,234.3,153.9,173.3,53.9
669.0,131.5,235.4,156.4,174.4,54.3
670.0,130.7,233.7,155.6,173.4,53.8
671.0,131.4,236.2,156.5,174.7,54.7
672.0,131.4,238.6,156.5,175.5,56.1
673.0,132.1,236.9,158.1,175.7,54.6
674.0,133.7,232.4,156.3,174.1,51.7
675.0,133.5,236.7,158.5,176.2,53.8
676.0,134.3,235.8,157.5,175.9,53.2
677.0,134.8,240.2,158.1,177.7,55.4
678.0,135.9,242.0,158.0,178.6,56.0
679.0,135.7,244.1,157.0,178.9,57.5
680.0,136.0,244.6,160.1,180.3,57.0
681.0,138.3,245.2,162.3,181.9,56.1
682.0,134.3,243.9,161.4,179.9,57.1
683.0,137.3,242.0,165.1,181.5,54.2
684.0,135.2,244.3,160.5,180.0,57.1
685.0,137.7,242.6,163.7,181.3,54.6
686.0,138.1,248.2,162.5,182.9,57.8
687.0,137.8,244.1,163.2,181.7,55.5
688.0,138.2,245.6,163.7,182.5,56.1
689.0,139.5,248.2,165.9,184.5,56.7
690.0,140.3,246.2,164.1,183.6,55.5
691.0,138.9,240.7,166.2,182.0,52.7
692.0,141.8,239.2,167.2,182.7,50.5
693.0,141.3,247.3,164.8,184.5,55.6
694.0,142.3,249.7,167.6,186.5,56.2
695.0,142.8,244.0,168.0,185.0,52.7
696.0,141.9,248.6,167.7,186.0,55.7
697.0,144.4,246.8,166.3,185.8,53.9
698.0,145.9,249.6,166.2,187.2,55.0
699.0,143.2,249.7,170.9,187.9,55.3
700.0,144.6,248.6,167.9,187.1,54.6
701.0,147.7,247.9,170.9,188.8,52.5
702.0,143.8,249.9,169.3,187.7,55.4
703.0,145.2,255.4,170.1,190.2,57.8
704.0,146.2,252.7,173.4,190.8,55.3
705.0,147.0,246.3,170.5,187.9,51.9
706.0,150.1,249.2,171.5,190.3,52.2
707.0,148.3,252.3,173.1,191.2,54.3
708.0,149.4,248.6,174.5,190.8,51.6
709.0,149.5,246.2,174.9,190.2,50.1
710.0,149.1,251.1,174.4,191.5,53.1
711.0,149.7,254.2,179.7,194.5,53.8
712.0,151.1,251.2,176.6,193.0,52.0
713.0,151.4,255.1,176.3,194.3,54.1
714.0,152.3,254.1,175.9,194.1,53.3
715.0,151.7,251.3,177.9,193.6,51.6
716.0,154.2,249.9,179.3,194.4,49.6
717.0,154.3,251.2,178.2,194.6,50.5
718.0,152.8,250.8,180.9,194.8,50.5
719.0,154.1,249.5,178.2,193.9,49.6
720.0,154.2,253.9,177.6,195.2,52.1
721.0,155.8,246.6,180.6,194.3,46.9
722.0,157.2,250.0,182.2,196.4,48.0
723.0,156.8,250.7,179.6,195.7,49.0
724.0,157.1,255.9,182.0,198.3,51.4
725.0,158.9,252.9,180.5,197.4,49.3
726.0,159.6,249.6,180.9,196.7,47.1
727.0,160.2,252.2,182.8,198.4,47.9
728.0,160.1,250.5,187.1,199.2,46.4
729.0,161.0,257.0,183.6,200.5,50.2
730.0,160.3,250.5,184.6,198.5,46.7
731.0,162.9,253.6,188.1,201.5,46.8
732.0,163.7,252.1,188.3,201.4,45.6
733.0,163.6,250.3,188.0,200.7,44.7
734.0,166.4,251.8,185.0,201.0,44.9
735.0,165.9,253.8,189.2,203.0,45.5
736.0,163.2,254.2,188.3,201.9,47.0
737.0,163.4,251.8,188.4,201.2,45.6
738.0,167.8,252.2,190.8,203.6,43.6
739.0,167.2,250.2,193.4,203.6,42.4
740.0,167.4,249.2,193.3,203.3,41.8
741.0,168.2,249.7,190.4,202.7,42.1
742.0,170.6,253.3,192.4,205.5,42.8
743.0,169.0,251.3,192.4,204.2,42.4
744.0,171.3,255.6,194.5,207.1,43.5
745.0,171.1,248.5,194.5,204.7,39.7
746.0,171.3,252.0,193.5,205.6,41.7
747.0,174.0,251.4,194.7,206.7,40.1
748.0,172.8,248.7,195.6,205.7,39.0
749.0,173.6,249.0,195.7,206.1,38.8
750.0,176.8,246.2,196.8,206.6,35.7
751.0,175.3,241.8,194.3,203.8,34.3
752.0,176.0,240.4,194.7,203.7,33.1
753.0,174.9,243.9,196.7,205.1,35.3
754.0,178.8,242.4,198.4,206.5,32.6
755.0,174.8,237.8,198.3,203.7,31.8
756.0,177.1,239.0,198.0,204.7,31.5
757.0,177.9,238.2,196.7,204.3,30.9
758.0,176.5,239.3,201.8,205.9,31.6
759.0,179.6,243.6,199.8,207.6,32.7
760.0,182.1,239.0,196.9,206.0,29.5
761.0,180.9,244.3,199.2,208.1,32.7
762.0,182.0,240.7,202.1,208.3,29.8
763.0,178.0,241.8,199.7,206.5,32.4
764.0,179.5,239.7,199.4,206.2,30.6
765.0,183.8,243.6,199.6,209.0,31.0
766.0,181.6,238.3,200.7,206.9,28.8
767.0,184.2,239.1,201.7,208.3,28.0
768.0,183.3,238.6,199.9,207.3,28.3
769.0,185.7,232.6,197.7,205.3,24.4
770.0,182.5,230.2,199.2,203.9,24.2
771.0,184.5,232.6,198.8,205.3,24.7
772.0,184.2,233.1,195.9,204.4,25.5
773.0,189.0,230.5,196.7,205.4,22.1
774.0,188.8,232.0,202.6,207.8,22.1
775.0,188.0,228.8,198.1,204.9,21.3
776.0,189.0,229.8,203.0,207.3,20.7
777.0,190.7,227.1,201.2,206.3,18.7
778.0,187.7,225.4,198.6,203.9,19.4
779.0,189.3,221.3,197.0,202.5,16.7
780.0,187.6,221.7,195.3,201.5,17.9
781.0,193.5,217.8,200.7,204.0,12.5
782.0,190.8,217.0,199.8,202.5,13.3
783.0,194.3,220.6,198.4,204.4,14.2
784.0,190.2,216.3,198.4,201.6,13.3
785.0,195.4,220.1,198.0,204.5,13.6
786.0,194.5,219.7,200.0,204.7,13.2
787.0,195.3,220.7,200.2,205.4,13.5
788.0,195.4,211.7,198.2,201.8,8.7
789.0,194.1,215.3,199.7,203.0,11.0
790.0,199.1,213.6,200.9,204.5,7.9
791.0,196.4,210.6,199.1,202.0,7.5
792.0,198.5,209.6,201.9,203.3,5.7
793.0,200.6,207.0,198.7,202.1,4.3
794.0,198.6,209.6,197.1,201.8,6.8
795.0,201.2,199.5,201.9,200.9,1.2
796.0,202.7,200.7,199.9,201.1,1.4
797.0,196.8,200.5,202.1,199.8,2.7
798.0,200.5,200.7,202.8,201.3,1.3
799.0,203.9,191.8,200.6,198.8,6.3
800.0,196.5,191.7,202.5,196.9,5.4
801.0,204.1,191.4,202.2,199.2,6.8
802.0,204.5,191.0,200.5,198.7,6.9
803.0,203.9,187.5,202.0,197.8,9.0
804.0,203.3,190.3,201.3,198.3,7.0
805.0,204.6,182.4,202.9,196.6,12.4
806.0,203.4,184.2,201.4,196.3,10.6
807.0,201.2,181.4,198.8,193.8,10.8
808.0,208.7,181.4,198.6,196.2,13.8
809.0,208.7,177.3,200.4,195.5,16.2
810.0,205.9,176.4,199.0,193.8,15.4
811.0,208.7,176.1,200.6,195.2,17.0
812.0,209.9,173.7,203.5,195.7,19.3
813.0,209.5,170.3,199.3,193.0,20.4
814.0,211.8,172.6,198.2,194.2,19.9
815.0,211.8,169.1,199.8,193.6,22.0
816.0,209.1,167.6,198.2,191.6,21.5
817.0,209.9,166.0,200.3,192.1,23.1
818.0,208.8,164.0,200.1,191.0,23.7
819.0,214.9,162.4,199.2,192.2,27.0
820.0,215.0,161.5,199.6,192.0,27.5
821.0,214.3,160.1,204.6,193.0,28.9
822.0,211.9,159.3,203.4,191.5,28.3
823.0,213.4,153.2,201.1,189.2,31.8
824.0,215.1,154.1,199.4,189.5,31.7
825.0,212.7,148.2,201.5,187.5,34.5
826.0,211.7,149.6,199.9,187.0,33.0
827.0,218.9,148.8,202.7,190.1,36.7
828.0,213.9,145.2,201.5,186.9,36.6
829.0,217.8,146.2,201.6,188.5,37.6
830.0,218.4,139.4,200.1,186.0,41.3
831.0,218.2,139.6,201.6,186.4,41.4
832.0,217.3,136.0,202.2,185.2,43.2
833.0,217.5,137.1,201.4,185.3,42.5
834.0,216.6,134.0,200.7,183.7,43.8
835.0,218.6,135.0,203.6,185.7,44.6
836.0,220.1,133.8,198.3,184.1,44.9
837.0,218.1,132.6,199.1,183.3,44.9
838.0,220.1,132.5,201.7,184.8,46.2
839.0,222.7,129.5,200.1,184.1,48.6
840.0,224.0,129.9,201.6,185.2,49.1
841.0,218.9,130.0,203.3,184.1,47.5
842.0,217.4,126.8,198.9,181.0,47.9
843.0,222.7,126.0,196.9,181.9,50.1
844.0,219.4,125.1,202.9,182.5,50.4
845.0,225.6,123.8,200.0,183.1,52.9
846.0,222.9,121.5,201.6,182.0,53.5
847.0,224.1,122.5,200.5,182.4,53.2
848.0,218.8,120.0,199.5,179.4,52.4
849.0,219.9,117.8,203.9,180.5,54.9
850.0,225.9,117.6,197.5,180.4,56.2
851.0,223.6,117.7,202.3,181.2,56.0
852.0,225.6,116.6,201.0,181.1,57.2
853.0,225.3,115.7,201.0,180.7,57.5
854.0,226.8,116.2,201.2,181.4,57.9
855.0,224.7,112.7,199.5,179.0,58.8
856.0,225.8,113.1,198.3,179.1,58.8
857.0,226.1,111.3,200.4,179.3,60.3
858.0,226.4,111.5,199.1,179.0,60.0
859.0,221.8,110.5,197.3,176.5,58.5
860.0,223.9,110.7,201.3,178.6,59.9
861.0,221.3,109.0,197.3,175.8,59.1
862.0,222.1,109.3,194.5,175.3,58.8
863.0,224.7,107.5,196.9,176.4,61.2
864.0,220.7,105.5,196.6,174.2,60.7
865.0,225.5,103.8,195.0,174.8,63.4
866.0,225.3,104.3,198.4,176.0,63.5
867.0,223.3,102.6,192.0,172.7,62.6
868.0,224.6,104.0,194.2,174.3,62.7
869.0,224.6,102.7,196.3,174.5,63.8
870.0,227.3,101.5,192.4,173.7,65.0
871.0,228.5,100.8,194.8,174.7,66.2
872.0,225.6,99.9,193.6,173.0,65.3
873.0,224.0,98.0,193.2,171.7,65.7
874.0,225.4,99.7,191.2,172.1,65.0
875.0,224.3,98.2,190.8,171.1,65.3
876.0,220.3,96.5,190.6,169.1,64.6
877.0,224.8,93.8,190.7,169.7,68.0
878.0,222.6,92.5,189.6,168.2,67.6
879.0,221.9,92.9,188.1,167.6,66.9
880.0,216.7,91.3,187.5,165.2,65.6
881.0,220.1,90.5,188.1,166.2,67.5
882.0,222.0,91.2,186.8,166.7,67.7
883.0,226.1,89.9,186.8,167.6,70.1
884.0,221.0,88.4,186.0,165.2,68.7
885.0,223.4,87.4,186.4,165.7,70.3
886.0,222.1,87.3,187.0,165.5,69.9
887.0,222.3,85.7,183.8,163.9,70.4
888.0,222.1,84.9,181.8,162.9,70.5
889.0,222.9,84.4,181.5,162.9,71.1
890.0,220.8,84.8,180.9,162.2,69.9
891.0,219.2,83.5,182.4,161.7,70.2
892.0,218.6,81.4,179.6,159.9,70.7
893.0,218.1,81.1,179.5,159.6,70.7
894.0,214.8,80.2,178.9,158.0,69.7
895.0,217.9,78.7,174.5,157.1,71.3
896.0,216.0,80.8,174.5,157.1,69.2
897.0,218.2,79.7,173.2,157.0,70.6
898.0,213.8,78.7,171.0,154.5,69.0
899.0,215.2,78.6,173.4,155.7,70.0
900.0,216.0,77.0,170.0,154.3,70.8
901.0,214.4,77.6,170.6,154.2,69.9
902.0,215.4,77.0,168.2,153.6,70.3
903.0,210.0,75.9,170.0,151.9,68.9
904.0,209.2,73.4,166.6,149.7,69.5
905.0,212.0,73.9,164.6,150.2,70.1
906.0,211.4,73.7,165.5,150.2,70.1
907.0,206.2,73.1,164.1,147.8,68.0
908.0,206.8,72.8,165.4,148.4,68.6
909.0,207.8,72.0,164.2,148.0,69.3
910.0,208.6,71.5,159.2,146.4,69.5
911.0,207.7,70.8,158.3,145.6,69.3
912.0,202.8,69.7,159.4,144.0,67.9
913.0,204.8,69.3,157.7,143.9,68.8
914.0,202.6,68.1,157.9,142.9,68.5
915.0,202.1,67.1,156.6,141.9,68.7
916.0,200.7,65.6,156.5,140.9,68.9
917.0,199.1,66.0,156.9,140.7,68.0
918.0,201.6,64.9,154.3,140.3,69.4
919.0,192.7,64.0,153.2,136.7,65.9
920.0,198.3,64.0,153.7,138.7,68.4
921.0,197.7,62.6,151.3,137.2,68.6
922.0,196.5,61.8,150.9,136.4,68.5
923.0,194.0,60.2,150.6,134.9,68.3
924.0,193.4,59.2,147.9,133.5,68.3
925.0,191.1,59.0,146.3,132.2,67.2
926.0,189.0,60.0,147.1,132.0,65.8
927.0,189.3,58.5,145.7,131.2,66.6
928.0,189.8,57.6,144.5,130.6,67.2
929.0,187.9,58.1,141.1,129.0,65.7
930.0,186.7,57.6,142.4,128.9,65.6
931.0,183.8,57.0,139.6,126.8,64.4
932.0,182.1,56.1,139.1,125.8,64.0
933.0,182.5,56.3,137.0,125.3,63.9
934.0,183.3,55.9,136.1,125.1,64.4
935.0,177.9,54.8,133.9,122.2,62.4
936.0,178.2,54.8,134.9,122.6,62.6
937.0,178.8,53.8,133.1,121.9,63.3
938.0,178.4,53.5,133.1,121.7,63.2
939.0,176.0,51.6,131.0,119.5,63.0
940.0,178.2,51.3,133.0,120.8,64.3
941.0,176.1,50.4,129.7,118.8,63.6
942.0,178.7,50.0,129.3,119.4,64.9
943.0,172.8,50.0,128.2,117.0,62.1
944.0,170.7,49.2,128.1,116.0,61.7
945.0,168.9,48.9,127.3,115.0,60.9
946.0,168.9,48.0,125.6,114.2,61.3
947.0,170.1,48.2,125.8,114.7,61.7
948.0,168.5,48.3,126.9,114.6,61.0
949.0,164.3,47.5,123.7,111.8,59.3
950.0,167.9,47.0,121.8,112.2,61.0
951.0,164.2,47.4,121.3,111.0,59.1
952.0,163.7,47.1,119.2,110.0,58.8
953.0,158.5,47.2,116.8,107.5,56.2
954.0,158.1,47.9,115.3,107.1,55.6
955.0,157.4,47.7,115.4,106.8,55.3
956.0,156.7,47.7,114.2,106.2,54.9
957.0,160.8,47.5,112.8,107.0,56.9
958.0,154.5,47.2,113.1,104.9,54.1
959.0,154.3,47.3,110.1,103.9,53.8
960.0,153.8,47.4,109.0,103.4,53.4
961.0,150.9,47.4,108.1,102.2,52.0
962.0,149.8,47.5,107.1,101.5,51.4
963.0,147.6,47.6,105.1,100.1,50.2
964.0,150.5,47.1,104.7,100.8,51.8
965.0,147.7,47.1,103.2,99.4,50.4
966.0,145.7,46.4,102.7,98.3,49.8
967.0,147.2,45.7,100.7,97.9,50.8
968.0,144.0,46.2,101.5,97.2,49.1
969.0,143.5,46.6,99.8,96.6,48.5
970.0,142.5,46.3,98.1,95.6,48.1
971.0,141.8,46.0,96.3,94.7,47.9
972.0,139.6,46.7,94.8,93.7,46.4
973.0,140.0,46.6,92.6,93.1,46.7
974.0,138.2,46.5,90.4,91.7,45.9
975.0,135.4,46.8,89.7,90.6,44.3
976.0,134.4,46.3,89.5,90.1,44.1
977.0,133.8,46.7,87.8,89.5,43.5
978.0,132.0,47.1,87.4,88.9,42.5
979.0,130.1,45.8,85.5,87.1,42.2
980.0,129.5,46.3,84.6,86.8,41.7
981.0,129.8,46.0,83.7,86.5,42.0
982.0,126.3,45.5,83.1,85.0,40.4
983.0,124.4,45.2,79.8,83.1,39.7
984.0,126.8,45.5,79.5,83.9,40.8
985.0,124.0,45.4,78.8,82.8,39.5
986.0,122.6,45.1,76.8,81.5,39.0
987.0,120.0,45.3,76.9,80.7,37.5
988.0,118.6,45.1,74.3,79.4,37.0
989.0,115.7,45.8,75.8,79.1,35.1
990.0,118.1,45.7,73.5,79.1,36.5
991.0,113.2,45.3,72.9,77.1,34.2
992.0,114.4,45.0,70.9,76.8,35.1
993.0,110.4,45.4,69.8,75.2,32.8
994.0,109.5,45.5,70.6,75.2,32.2
995.0,106.3,45.8,69.4,73.8,30.5
996.0,105.5,45.0,67.3,72.6,30.6
997.0,106.0,45.0,67.2,72.7,30.8
998.0,105.1,45.1,65.4,71.9,30.5
999.0,102.6,44.4,64.7,70.6,29.6
1000.0,101.1,44.4,64.5,70.0,28.8
1001.0,98.0,44.6,62.4,68.3,27.2
1002.0,98.6,44.5,61.9,68.3,27.7
1003.0,97.9,44.9,61.2,68.0,27.2
1004.0,94.9,44.0,59.4,66.1,26.1
1005.0,93.0,43.0,60.3,65.5,25.4
1006.0,93.3,43.1,59.3,65.2,25.6
1007.0,92.3,42.7,58.1,64.4,25.4
1008.0,92.2,42.6,57.5,64.1,25.5
1009.0,91.0,42.3,56.8,63.4,25.0
1010.0,90.3,42.7,55.9,63.0,24.6
1011.0,89.6,42.3,54.8,62.2,24.6
1012.0,87.3,42.2,54.5,61.3,23.3
1013.0,88.9,42.9,54.0,61.9,24.0
1014.0,86.2,43.0,53.8,61.0,22.5
1015.0,84.8,43.9,53.3,60.7,21.4
1016.0,83.6,44.0,52.5,60.1,20.8
1017.0,82.8,43.8,52.1,59.6,20.6
1018.0,82.0,43.2,51.7,59.0,20.4
1019.0,81.0,43.2,51.3,58.5,19.9
1020.0,79.4,43.2,50.7,57.8,19.1
1021.0,79.8,43.0,50.3,57.7,19.5
1022.0,79.6,43.2,49.8,57.5,19.4
1023.0,78.5,43.0,50.1,57.2,18.8
1024.0,76.6,43.6,49.1,56.4,17.7
1025.0,77.7,43.8,50.4,57.3,18.0
1026.0,75.7,43.4,48.7,55.9,17.3
1027.0,74.0,43.6,49.2,55.6,16.2
1028.0,73.9,43.1,49.2,55.4,16.3
1029.0,73.0,43.2,48.7,55.0,15.9
1030.0,70.6,42.9,48.9,54.1,14.6
1031.0,69.4,43.2,49.0,53.9,13.8
1032.0,68.7,42.4,48.2,53.1,13.8
1033.0,68.5,42.5,48.9,53.3,13.6
1034.0,66.6,41.9,48.3,52.3,12.9
1035.0,67.0,42.1,47.9,52.3,13.0
1036.0,65.5,41.9,48.2,51.8,12.2
1037.0,64.7,42.4,47.4,51.5,11.7
1038.0,63.4,42.3,46.3,50.7,11.2
1039.0,61.6,41.3,46.2,49.7,10.6
1040.0,62.4,41.7,46.9,50.3,10.8
1041.0,60.2,42.1,46.3,49.6,9.5
1042.0,58.6,42.0,46.0,48.9,8.7
1043.0,57.7,42.1,45.5,48.5,8.2
1044.0,56.9,41.6,45.6,48.0,8.0
1045.0,56.6,42.2,45.1,47.9,7.6
1046.0,55.3,42.6,45.6,47.9,6.7
1047.0,53.7,42.6,45.5,47.3,5.8
1048.0,54.3,42.8,46.1,47.7,5.9
1049.0,52.8,43.0,46.1,47.3,5.0
1050.0,53.0,42.8,45.3,47.0,5.3
1051.0,52.4,43.2,46.4,47.3,4.7
1052.0,52.0,43.0,46.5,47.1,4.5
1053.0,52.4,42.0,46.0,46.8,5.3
1054.0,52.2,42.0,44.8,46.3,5.3
1055.0,51.8,42.2,45.7,46.6,4.9
1056.0,51.5,43.4,45.1,46.6,4.2
1057.0,51.8,42.5,45.5,46.6,4.8
1058.0,52.5,42.6,44.8,46.7,5.2
1059.0,51.1,42.7,44.6,46.1,4.4
1060.0,51.5,42.3,45.8,46.5,4.6
1061.0,51.0,42.7,44.6,46.1,4.4
1062.0,50.7,42.4,44.8,46.0,4.3
1063.0,50.7,42.3,44.8,45.9,4.3
1064.0,50.1,42.6,45.1,45.9,3.8
1065.0,49.7,43.0,45.1,46.0,3.4
1066.0,50.2,42.8,45.4,46.1,3.7
1067.0,49.7,43.0,45.0,45.9,3.4
1068.0,50.4,43.8,45.4,46.5,3.4
1069.0,48.6,43.3,45.0,45.6,2.7
1070.0,48.8,42.8,44.8,45.5,3.1
1071.0,49.0,42.4,45.6,45.7,3.3
1072.0,49.3,41.2,45.3,45.3,4.0
1073.0,47.8,42.0,44.7,44.8,2.9
1074.0,48.2,42.1,44.8,45.0,3.0
1075.0,48.8,41.7,44.7,45.1,3.6
1076.0,48.0,41.7,44.5,44.7,3.2
1077.0,49.0,41.5,44.1,44.9,3.8
1078.0,48.8,41.3,44.6,44.9,3.7
1079.0,48.5,41.3,44.5,44.8,3.6
1080.0,48.0,41.8,44.4,44.7,3.1
1081.0,48.4,41.9,44.7,45.0,3.3
1082.0,48.5,42.0,44.6,45.0,3.3
1083.0,49.0,42.3,44.4,45.2,3.4
1084.0,48.3,42.1,44.7,45.0,3.1
1085.0,48.5,41.6,44.1,44.8,3.5
1086.0,48.1,41.8,44.6,44.8,3.1
1087.0,47.7,42.0,44.6,44.8,2.9
1088.0,47.5,42.3,43.9,44.5,2.7
1089.0,48.4,42.6,44.0,45.0,3.0
1090.0,48.4,43.1,44.0,45.2,2.8
1091.0,48.2,,43.4,45.8,3.4
1092.0,48.3,,44.1,46.2,3.0
1093.0,48.0,,43.7,45.8,3.0
1094.0,47.5,,44.7,46.1,2.0
1095.0,48.0,,,48.0,
1096.0,48.2,,,48.2,
1097.0,49.3,,,49.3,
1098.0,49.8,,,49.8,
1099.0,50.8,,,50.8,
1100.0,51.3,,,51.3,
1101.0,51.8,,,51.8,
1102.0,51.8,,,51.8,
1103.0,53.2,,,53.2,
1104.0,52.4,,,52.4,
1105.0,52.7,,,52.7,
1106.0,52.1,,,52.1,
1107.0,52.7,,,52.7,
1108.0,52.7,,,52.7,
1109.0,51.8,,,51.8,
1110.0,51.9,,,51.9,
1111.0,51.7,,,51.7,
1112.0,51.4,,,51.4,
1113.0,52.5,,,52.5,
1114.0,52.1,,,52.1,
1115.0,51.3,,,51.3,
1116.0,50.4,,,50.4,
1117.0,49.8,,,49.8,
1118.0,48.3,,,48.3,
1119.0,47.6,,,47.6,
1120.0,46.8,,,46.8,
1121.0,46.9,,,46.9,
1122.0,46.6,,,46.6,
1123.0,45.7,,,45.7,
1124.0,45.6,,,45.6,
1125.0,46.3,,,46.3,
1126.0,46.2,,,46.2,
1127.0,46.8,,,46.8,
1128.0,47.5,,,47.5,
1129.0,46.1,,,46.1,
1130.0,46.4,,,46.4,
1131.0,45.9,,,45.9,
1132.0,45.3,,,45.3,
1133.0,44.9,,,44.9,
1134.0,44.6,,,44.6,
1135.0,43.7,,,43.7,
1136.0,42.8,,,42.8,
1137.0,42.4,,,42.4,
1138.0,42.4,,,42.4,
1139.0,42.4,,,42.4,
1140.0,42.9,,,42.9,
1141.0,42.7,,,42.7,
1142.0,42.4,,,42.4,
1143.0,42.8,,,42.8,
1144.0,42.9,,,42.9,
1145.0,42.7,,,42.7,
1146.0,43.2,,,43.2,
1147.0,42.3,,,42.3,
1148.0,42.2,,,42.2,
1149.0,42.0,,,42.0,
1150.0,41.6,,,41.6,
1151.0,41.8,,,41.8,
1152.0,41.7,,,41.7,
1153.0,42.6,,,42.6,
1154.0,42.1,,,42.1,
1155.0,42.4,,,42.4,
1156.0,42.7,,,42.7,
1157.0,43.1,,,43.1,
1158.0,42.9,,,42.9,
1159.0,43.1,,,43.1,
1160.0,43.8,,,43.8,
1161.0,42.4,,,42.4,
1162.0,42.3,,,42.3,
1163.0,43.0,,,43.0,
1164.0,41.9,,,41.9,
1165.0,41.7,,,41.7,
1166.0,42.1,,,42.1,
1167.0,41.5,,,41.5,
1168.0,41.0,,,41.0,
1169.0,40.9,,,40.9,
1170.0,41.0,,,41.0,
1171.0,40.5,,,40.5,
1172.0,40.5,,,40.5,
1173.0,40.7,,,40.7,
1174.0,40.6,,,40.6,
1175.0,41.4,,,41.4,
1176.0,40.6,,,40.6,
1177.0,40.5,,,40.5,
1178.0,40.2,,,40.2,
1179.0,40.4,,,40.4,
1180.0,40.1,,,40.1,
1181.0,40.2,,,40.2,
1182.0,40.1,,,40.1,
1183.0,39.7,,,39.7,
1184.0,39.9,,,39.9,
1185.0,39.8,,,39.8,
1186.0,40.4,,,40.4,
1187.0,39.9,,,39.9,
1188.0,39.6,,,39.6,
1189.0,39.8,,,39.8,
1190.0,39.7,,,39.7,
1191.0,39.9,,,39.9,
1192.0,40.0,,,40.0,
1193.0,40.2,,,40.2,
1194.0,39.7,,,39.7,
1195.0,39.7,,,39.7,
1196.0,39.0,,,39.0,
1197.0,39.1,,,39.1,
1198.0,39.3,,,39.3,
1199.0,38.9,,,38.9,
1200.0,38.8,,,38.8,
1201.0,38.7,,,38.7,
1202.0,38.7,,,38.7,
1203.0,39.1,,,39.1,
1204.0,38.8,,,38.8,
1205.0,39.0,,,39.0,
1206.0,39.0,,,39.0,
1207.0,38.7,,,38.7,
1208.0,39.0,,,39.0,
1209.0,38.9,,,38.9,
1210.0,39.2,,,39.2,
1211.0,39.0,,,39.0,