File: 01_Data/Oak_Flooring/Cone/Oak_Flooring_HRRPUA_25.csv
Time after Ignition,Oak_Flooring_R1,Oak_Flooring_R2,Oak_Flooring_R3,Oak_Flooring_R4,Mean,Std. Dev.
0.0,6.2,9.6,20.4,12.9,12.3,6.1
1.0,22.3,21.2,39.4,23.6,26.6,8.6
2.0,58.7,38.2,57.1,38.0,48.0,11.5
3.0,96.7,65.6,79.0,61.2,75.6,15.9
4.0,134.6,96.7,102.1,84.5,104.5,21.4
5.0,166.5,120.1,123.8,110.6,130.2,24.8
6.0,193.7,146.2,145.8,136.9,155.7,25.7
7.0,219.3,168.7,170.3,165.0,180.8,25.7
8.0,242.0,187.6,188.3,180.1,199.5,28.6
9.0,260.0,202.5,206.4,201.1,217.5,28.5
10.0,272.3,211.4,210.9,218.0,228.1,29.6
11.0,281.0,222.5,224.7,232.0,240.1,27.6
12.0,292.7,227.4,236.3,239.9,249.1,29.6
13.0,294.3,231.5,239.9,249.2,253.7,28.0
14.0,301.2,234.6,245.8,254.1,258.9,29.3
15.0,299.0,232.7,248.0,258.3,259.5,28.4
16.0,298.9,229.9,256.2,262.4,261.8,28.4
17.0,312.1,226.1,254.7,263.9,264.2,35.7
18.0,310.9,234.0,252.1,266.8,265.9,32.8
19.0,312.0,234.0,257.2,263.0,266.6,32.8
20.0,299.0,229.3,260.8,260.8,262.5,28.5
21.0,291.7,229.2,259.1,262.6,260.7,25.6
22.0,290.9,228.7,262.3,259.1,260.3,25.4
23.0,284.6,226.6,260.1,250.1,255.4,24.0
24.0,284.4,220.4,257.5,249.1,252.8,26.3
25.0,276.8,223.9,253.4,247.7,250.4,21.7
26.0,271.7,215.6,251.9,244.1,245.8,23.3
27.0,267.9,215.4,255.2,241.2,244.9,22.5
28.0,258.0,214.6,249.2,238.4,240.1,18.8
29.0,249.2,212.7,248.4,230.0,235.1,17.4
30.0,249.2,210.0,247.0,227.2,233.4,18.5
31.0,241.8,205.4,245.8,222.5,228.9,18.6
32.0,233.9,204.8,245.3,219.9,226.0,17.5
33.0,224.6,203.2,238.2,217.9,221.0,14.6
34.0,225.2,199.6,240.1,213.3,219.5,17.2
35.0,219.7,199.9,235.0,211.1,216.4,14.8
36.0,214.4,199.2,232.0,208.4,213.5,13.8
37.0,207.1,196.5,227.6,202.2,208.4,13.5
38.0,208.1,194.5,230.3,203.5,209.1,15.2
39.0,203.3,192.4,225.9,199.8,205.4,14.4
40.0,197.6,189.2,228.7,200.3,204.0,17.2
41.0,194.0,186.9,224.7,195.4,200.3,16.7
42.0,187.1,184.3,219.3,195.4,196.6,15.9
43.0,186.3,183.7,219.7,193.5,195.8,16.5
44.0,179.6,181.8,214.5,194.7,192.6,16.0
45.0,180.1,180.0,212.0,193.4,191.4,15.1
46.0,170.8,179.1,208.2,189.1,186.8,16.1
47.0,168.8,181.7,209.1,191.6,187.8,17.0
48.0,166.2,177.8,198.5,185.1,181.9,13.5
49.0,164.5,177.5,201.3,186.0,182.3,15.4
50.0,158.5,173.8,197.6,182.4,178.1,16.3
51.0,161.6,172.5,195.5,182.9,178.1,14.5
52.0,156.1,171.8,194.9,178.5,175.3,16.1
53.0,154.1,168.9,193.4,174.5,172.7,16.2
54.0,153.7,166.9,192.8,177.9,172.9,16.6
55.0,151.6,163.6,191.1,173.7,170.0,16.7
56.0,149.2,166.1,188.3,174.0,169.4,16.3
57.0,148.2,164.3,185.1,169.4,166.8,15.2
58.0,145.7,163.9,182.5,172.8,166.2,15.7
59.0,140.0,162.7,184.1,167.3,163.5,18.2
60.0,142.9,156.9,178.4,166.9,161.3,15.1
61.0,138.7,160.8,177.4,164.8,160.5,16.1
62.0,137.2,158.7,176.7,164.1,159.2,16.5
63.0,136.0,157.4,171.4,163.0,156.9,15.1
64.0,135.3,155.4,172.7,162.2,156.4,15.8
65.0,132.9,149.2,173.9,157.6,153.4,17.1
66.0,132.5,151.5,168.9,156.0,152.2,15.1
67.0,131.9,150.7,170.4,155.1,152.0,15.9
68.0,130.2,146.2,167.5,154.0,149.5,15.6
69.0,129.9,146.5,170.5,154.8,150.4,16.9
70.0,128.2,141.5,169.2,151.6,147.6,17.3
71.0,130.2,139.8,165.5,150.4,146.5,15.1
72.0,125.0,141.3,167.6,148.3,145.5,17.7
73.0,123.1,137.8,163.7,149.0,143.4,17.2
74.0,122.5,135.6,160.9,147.4,141.6,16.4
75.0,120.6,136.4,163.9,146.1,141.7,18.1
76.0,123.1,132.6,161.9,144.8,140.6,16.7
77.0,120.7,134.2,162.3,143.7,140.2,17.5
78.0,121.9,132.1,157.3,143.5,138.7,15.2
79.0,120.9,133.2,160.9,141.2,139.0,16.8
80.0,120.0,130.2,155.8,138.5,136.1,15.1
81.0,121.3,128.2,154.3,138.3,135.5,14.3
82.0,119.4,128.5,154.5,141.9,136.1,15.4
83.0,117.6,128.4,153.2,137.1,134.1,15.1
84.0,117.5,126.4,151.8,137.1,133.2,14.8
85.0,115.6,126.1,151.4,136.3,132.3,15.3
86.0,115.5,125.0,150.9,134.4,131.5,15.1
87.0,115.1,124.8,150.3,131.6,130.4,14.9
88.0,113.9,121.7,148.9,131.1,128.9,15.1
89.0,113.3,123.5,151.1,128.6,129.1,16.0
90.0,114.0,123.2,149.7,128.1,128.8,15.1
91.0,110.3,123.7,146.8,127.0,127.0,15.1
92.0,111.9,122.0,146.2,129.0,127.3,14.4
93.0,110.9,122.0,147.6,126.0,126.7,15.4
94.0,110.3,120.6,146.0,126.1,125.8,15.0
95.0,111.0,120.2,144.1,124.7,125.0,14.0
96.0,109.5,120.5,143.9,124.9,124.7,14.4
97.0,109.8,118.5,142.2,123.7,123.5,13.7
98.0,109.9,119.3,143.8,123.7,124.2,14.3
99.0,109.0,117.2,143.3,123.8,123.3,14.6
100.0,110.4,117.1,141.6,124.0,123.3,13.4
101.0,108.4,117.1,142.3,122.3,122.5,14.4
102.0,108.4,116.0,140.2,121.2,121.5,13.6
103.0,109.3,116.4,138.8,122.3,121.7,12.6
104.0,107.8,115.1,138.6,120.1,120.4,13.1
105.0,108.6,114.9,138.1,123.4,121.2,12.8
106.0,109.6,113.6,134.6,120.9,119.7,11.0
107.0,108.3,113.5,134.2,119.3,118.8,11.2
108.0,108.9,111.9,133.5,120.6,118.7,11.1
109.0,110.3,112.3,133.7,117.3,118.4,10.6
110.0,109.7,110.0,133.2,118.5,117.9,11.0
111.0,109.2,110.7,131.1,118.1,117.3,10.0
112.0,108.5,108.3,130.2,118.5,116.4,10.4
113.0,109.3,109.8,130.3,118.0,116.8,9.8
114.0,110.3,111.0,129.8,117.0,117.0,9.1
115.0,107.5,108.1,131.2,114.8,115.4,11.0
116.0,107.8,107.0,129.8,116.6,115.3,10.6
117.0,108.7,106.8,129.5,115.9,115.2,10.3
118.0,109.5,105.8,128.8,116.7,115.2,10.1
119.0,110.2,105.9,128.0,114.8,114.7,9.5
120.0,107.9,106.1,126.3,116.1,114.1,9.2
121.0,108.2,105.9,125.8,115.0,113.7,8.9
122.0,106.3,106.1,126.9,112.6,113.0,9.8
123.0,104.5,104.0,126.0,113.6,112.0,10.3
124.0,105.3,104.2,123.8,113.4,111.7,9.1
125.0,106.5,103.5,124.2,113.1,111.8,9.2
126.0,107.9,103.6,122.4,111.6,111.4,8.1
127.0,107.1,102.3,121.9,113.0,111.1,8.4
128.0,107.0,102.7,123.6,112.1,111.4,9.0
129.0,105.5,102.0,121.5,111.5,110.1,8.6
130.0,104.0,103.2,122.0,110.4,109.9,8.7
131.0,105.0,99.4,122.0,112.2,109.7,9.8
132.0,106.8,100.7,121.0,110.8,109.8,8.5
133.0,104.6,100.8,121.8,110.8,109.5,9.2
134.0,103.0,100.3,120.9,109.6,108.4,9.2
135.0,104.2,100.2,121.4,107.3,108.3,9.2
136.0,104.1,97.4,121.4,107.8,107.7,10.1
137.0,103.0,98.2,123.2,106.2,107.7,10.9
138.0,103.0,98.8,119.4,104.3,106.4,9.0
139.0,102.5,98.2,120.2,104.5,106.3,9.6
140.0,101.0,97.7,120.0,103.3,105.5,9.9
141.0,101.0,96.5,118.6,104.4,105.2,9.5
142.0,100.1,97.4,120.2,105.0,105.7,10.2
143.0,100.0,94.7,118.9,104.8,104.6,10.4
144.0,100.7,95.2,120.1,103.3,104.8,10.7
145.0,100.0,96.3,120.8,102.4,104.9,10.9
146.0,100.5,94.6,118.3,101.3,103.7,10.2
147.0,99.0,95.7,120.3,103.1,104.5,11.0
148.0,98.3,93.7,119.6,100.6,103.0,11.4
149.0,99.4,93.9,118.2,101.0,103.1,10.5
150.0,100.3,93.7,117.9,100.8,103.2,10.3
151.0,98.1,92.6,117.1,100.5,102.1,10.6
152.0,97.5,92.2,117.7,98.8,101.6,11.2
153.0,98.1,92.8,117.5,99.4,102.0,10.7
154.0,97.7,91.4,115.9,99.4,101.1,10.4
155.0,97.1,92.2,116.8,99.0,101.3,10.7
156.0,96.1,91.1,115.0,96.3,99.6,10.5
157.0,96.5,91.8,116.5,97.3,100.6,10.9
158.0,96.3,90.2,117.1,97.8,100.4,11.6
159.0,95.5,92.2,115.9,98.3,100.5,10.6
160.0,94.2,91.5,116.4,97.9,100.0,11.3
161.0,93.6,91.3,115.7,97.0,99.4,11.1
162.0,92.1,90.5,113.4,96.3,98.1,10.5
163.0,92.9,89.3,117.2,97.7,99.3,12.4
164.0,93.0,88.6,116.9,96.4,98.7,12.5
165.0,92.5,89.1,115.4,95.2,98.1,11.8
166.0,91.9,88.2,113.2,94.1,96.8,11.1
167.0,90.3,88.1,113.1,95.9,96.9,11.3
168.0,91.2,88.5,113.4,94.4,96.9,11.3
169.0,91.2,85.9,112.3,95.5,96.2,11.4
170.0,90.4,86.3,113.0,94.3,96.0,11.8
171.0,91.0,87.2,112.2,96.8,96.8,11.0
172.0,90.0,87.0,110.9,95.9,95.9,10.6
173.0,91.0,85.7,109.9,97.0,95.9,10.4
174.0,88.9,85.7,109.6,97.0,95.3,10.6
175.0,89.5,86.7,110.6,98.9,96.4,10.8
176.0,89.6,84.3,109.7,100.9,96.1,11.4
177.0,88.0,84.2,108.0,99.9,95.0,11.0
178.0,90.7,85.6,107.6,100.8,96.2,9.9
179.0,89.7,83.8,107.6,99.6,95.2,10.5
180.0,89.4,84.4,107.9,100.3,95.5,10.6
181.0,90.1,83.5,105.6,100.8,95.0,10.1
182.0,90.9,82.7,107.0,101.0,95.4,10.7
183.0,92.4,82.9,106.2,97.1,94.7,9.7
184.0,89.3,83.4,105.5,100.1,94.6,10.1
185.0,91.1,82.5,105.0,100.4,94.7,10.0
186.0,90.5,80.2,104.4,100.3,93.8,10.8
187.0,91.4,81.0,103.3,97.9,93.4,9.6
188.0,89.2,80.8,103.6,98.8,93.1,10.2
189.0,90.3,80.5,104.4,99.8,93.8,10.6
190.0,90.2,79.9,102.9,99.9,93.2,10.4
191.0,88.9,80.5,102.9,99.9,93.0,10.3
192.0,90.9,79.0,103.7,98.0,92.9,10.6
193.0,88.7,78.5,102.1,99.8,92.3,10.9
194.0,89.2,78.9,102.1,97.9,92.0,10.3
195.0,89.6,77.0,101.1,97.4,91.3,10.7
196.0,89.2,77.2,101.0,98.7,91.5,10.9
197.0,88.4,76.5,100.1,98.1,90.8,10.8
198.0,88.6,76.4,99.6,97.7,90.6,10.6
199.0,86.6,76.5,98.3,97.4,89.7,10.3
200.0,86.1,75.7,99.0,98.1,89.7,11.0
201.0,86.2,76.4,98.8,95.9,89.3,10.2
202.0,86.8,76.3,99.7,98.6,90.3,11.1
203.0,85.7,76.1,100.3,96.3,89.6,10.9
204.0,87.0,75.9,100.6,97.2,90.2,11.1
205.0,86.7,75.3,99.9,96.9,89.7,11.2
206.0,84.8,76.1,99.5,97.1,89.4,11.0
207.0,85.1,75.6,100.5,96.7,89.5,11.4
208.0,85.9,75.2,99.4,95.5,89.0,10.8
209.0,86.8,75.2,98.9,96.2,89.3,10.7
210.0,85.7,75.4,100.4,96.7,89.6,11.3
211.0,83.4,74.8,99.4,95.6,88.3,11.3
212.0,83.5,75.2,98.3,95.5,88.1,10.7
213.0,81.4,74.0,98.4,94.5,87.1,11.4
214.0,82.7,74.0,98.6,93.9,87.3,11.1
215.0,82.1,74.2,97.3,95.1,87.1,11.0
216.0,81.0,73.3,97.9,94.8,86.7,11.6
217.0,80.5,72.8,97.3,95.2,86.4,11.8
218.0,81.5,73.1,97.2,94.2,86.5,11.2
219.0,80.9,72.5,97.7,95.0,86.5,11.9
220.0,80.9,72.9,98.9,92.5,86.3,11.6
221.0,80.5,72.9,96.9,94.6,86.2,11.5
222.0,80.9,73.2,97.1,92.7,86.0,10.9
223.0,81.1,71.4,95.7,93.0,85.3,11.2
224.0,82.7,72.3,97.3,92.3,86.2,11.0
225.0,82.6,71.5,96.2,92.3,85.6,11.0
226.0,82.0,70.7,96.1,91.3,85.0,11.2
227.0,82.2,69.8,94.0,92.3,84.6,11.1
228.0,82.3,71.7,94.1,90.9,84.7,10.0
229.0,81.9,70.3,94.1,90.2,84.1,10.6
230.0,82.6,68.3,94.4,90.8,84.0,11.6
231.0,82.2,69.0,94.0,91.4,84.2,11.3
232.0,81.6,69.0,94.1,89.2,83.5,10.9
233.0,80.7,68.5,91.9,89.7,82.7,10.6
234.0,81.3,69.0,93.0,89.5,83.2,10.7
235.0,81.1,69.5,93.3,90.6,83.6,10.8
236.0,79.6,68.4,93.3,91.5,83.2,11.6
237.0,81.2,69.0,91.2,89.2,82.7,10.1
238.0,81.1,68.5,91.8,91.2,83.2,10.9
239.0,81.5,68.1,91.5,89.9,82.8,10.7
240.0,80.4,68.7,92.0,89.7,82.7,10.6
241.0,80.2,67.4,90.8,89.1,81.9,10.7
242.0,79.5,67.5,90.5,91.2,82.2,11.2
243.0,79.7,67.3,89.8,89.8,81.7,10.7
244.0,81.3,66.8,89.6,89.4,81.8,10.7
245.0,80.0,67.6,89.1,87.8,81.1,9.9
246.0,81.1,66.3,90.1,90.1,81.9,11.2
247.0,78.8,66.8,89.1,89.4,81.0,10.7
248.0,80.8,67.3,89.2,89.0,81.6,10.3
249.0,79.7,66.0,88.9,87.5,80.5,10.5
250.0,79.6,66.0,88.0,88.4,80.5,10.5
251.0,79.2,66.4,88.4,87.8,80.5,10.3
252.0,79.2,65.8,86.9,86.3,79.5,9.8
253.0,78.6,65.5,88.4,86.9,79.8,10.5
254.0,78.7,65.3,88.2,87.3,79.9,10.6
255.0,78.7,65.5,86.8,87.1,79.5,10.1
256.0,78.3,65.1,87.0,86.3,79.2,10.1
257.0,77.8,64.9,85.3,86.8,78.7,10.0
258.0,78.2,64.5,86.6,85.6,78.7,10.2
259.0,78.1,64.3,87.7,88.1,79.5,11.2
260.0,79.1,63.9,88.5,86.7,79.5,11.2
261.0,78.6,63.7,87.0,86.4,78.9,10.9
262.0,79.5,64.4,85.8,87.2,79.2,10.4
263.0,78.9,63.8,87.0,87.5,79.3,11.1
264.0,79.4,63.0,86.3,87.2,79.0,11.2
265.0,78.0,63.6,84.6,85.5,77.9,10.1
266.0,78.9,63.3,84.8,85.2,78.1,10.3
267.0,78.1,63.6,85.3,84.6,77.9,10.1
268.0,78.2,63.5,84.3,84.8,77.7,9.9
269.0,79.4,63.3,85.2,85.4,78.4,10.4
270.0,78.0,63.8,83.6,84.6,77.5,9.6
271.0,79.6,63.4,83.3,84.5,77.7,9.8
272.0,78.9,63.0,84.0,85.8,77.9,10.4
273.0,79.2,63.0,83.6,85.2,77.8,10.1
274.0,80.0,63.4,83.7,85.2,78.1,10.0
275.0,78.2,63.0,82.6,85.7,77.3,10.1
276.0,79.0,63.3,81.3,84.7,77.1,9.5
277.0,79.3,63.2,82.9,84.2,77.4,9.7
278.0,78.7,63.2,84.2,85.5,77.9,10.2
279.0,78.5,63.6,84.5,84.5,77.8,9.9
280.0,78.9,62.7,82.7,84.2,77.1,9.9
281.0,77.9,62.4,83.1,84.2,76.9,10.0
282.0,77.8,62.2,83.7,83.6,76.8,10.1
283.0,78.2,63.3,83.3,84.1,77.2,9.7
284.0,78.1,64.2,83.9,83.5,77.4,9.2
285.0,77.9,63.9,82.1,83.6,76.9,9.0
286.0,78.5,63.3,84.2,84.8,77.7,10.0
287.0,78.3,63.7,84.7,84.6,77.8,9.9
288.0,80.0,63.2,84.4,82.7,77.6,9.7
289.0,78.7,63.0,85.4,84.2,77.9,10.3
290.0,78.5,64.2,84.1,83.1,77.5,9.2
291.0,77.9,63.3,84.3,84.4,77.5,9.9
292.0,78.8,63.3,84.8,82.3,77.3,9.6
293.0,79.2,63.2,84.9,83.0,77.6,9.9
294.0,78.9,63.8,85.5,83.1,77.8,9.7
295.0,78.2,63.7,84.8,83.8,77.6,9.7
296.0,78.5,63.6,84.5,81.1,76.9,9.2
297.0,80.1,63.8,84.6,82.1,77.7,9.4
298.0,78.3,63.2,83.5,80.7,76.4,9.0
299.0,78.7,62.9,84.3,80.9,76.7,9.5
300.0,77.2,61.9,82.6,80.0,75.4,9.3
301.0,77.0,62.6,84.4,80.8,76.2,9.5
302.0,77.2,62.2,81.3,81.2,75.5,9.1
303.0,76.4,61.6,83.3,80.9,75.6,9.8
304.0,77.0,62.2,82.9,80.7,75.7,9.3
305.0,76.5,61.1,82.2,82.3,75.5,10.0
306.0,77.8,61.1,83.4,82.5,76.2,10.3
307.0,77.9,61.8,83.7,81.5,76.2,9.9
308.0,78.5,61.3,84.2,80.0,76.0,10.1
309.0,78.9,61.2,83.5,81.6,76.3,10.2
310.0,79.0,61.0,84.0,81.3,76.3,10.4
311.0,77.9,60.7,83.5,80.4,75.6,10.2
312.0,76.9,61.4,83.6,81.1,75.8,10.0
313.0,76.8,60.1,83.0,80.1,75.0,10.3
314.0,75.8,62.3,84.4,79.3,75.5,9.5
315.0,77.5,61.9,85.2,78.9,75.9,9.9
316.0,76.8,61.6,84.1,79.8,75.6,9.8
317.0,75.7,61.4,84.9,80.2,75.5,10.1
318.0,76.3,62.1,83.5,80.4,75.6,9.5
319.0,76.7,61.5,83.5,80.6,75.6,9.8
320.0,75.9,60.7,84.4,80.6,75.4,10.4
321.0,75.5,60.8,84.0,80.4,75.2,10.2
322.0,75.8,60.9,83.9,79.6,75.0,10.0
323.0,75.5,60.6,83.6,80.2,75.0,10.1
324.0,75.2,60.5,84.0,79.8,74.9,10.2
325.0,76.3,61.5,84.4,79.8,75.5,9.9
326.0,75.2,61.1,85.3,79.2,75.2,10.3
327.0,74.4,60.6,85.3,78.7,74.8,10.5
328.0,74.8,60.8,84.7,79.6,75.0,10.3
329.0,74.4,60.6,84.6,78.3,74.5,10.2
330.0,75.1,61.8,83.9,79.4,75.0,9.5
331.0,73.5,61.4,84.2,78.7,74.4,9.7
332.0,73.8,61.0,83.5,79.6,74.5,9.8
333.0,75.3,61.4,83.6,79.0,74.8,9.6
334.0,73.7,61.2,84.1,79.8,74.7,10.0
335.0,73.6,61.4,84.1,80.6,74.9,10.0
336.0,74.0,62.1,83.5,79.9,74.9,9.4
337.0,73.3,61.9,83.0,81.2,74.9,9.6
338.0,73.1,61.8,82.7,80.2,74.5,9.4
339.0,74.0,62.1,84.6,81.0,75.4,9.9
340.0,73.9,62.1,83.7,80.2,75.0,9.5
341.0,74.4,61.8,83.7,79.5,74.8,9.5
342.0,74.2,63.5,84.0,79.8,75.4,8.9
343.0,74.3,61.6,83.5,79.9,74.8,9.6
344.0,74.8,62.5,82.7,79.2,74.8,8.8
345.0,74.3,61.8,83.2,79.7,74.7,9.4
346.0,75.2,62.6,83.2,79.8,75.2,9.0
347.0,74.9,62.5,82.9,78.7,74.8,8.8
348.0,75.5,61.5,83.9,80.1,75.2,9.8
349.0,75.6,62.3,83.2,79.3,75.1,9.1
350.0,75.3,60.8,83.3,79.1,74.6,9.8
351.0,76.1,61.1,82.9,78.9,74.8,9.5
352.0,76.0,61.0,84.6,78.6,75.1,10.0
353.0,75.7,61.4,83.4,80.0,75.1,9.7
354.0,75.5,61.6,82.1,79.3,74.6,9.1
355.0,75.1,61.0,83.5,80.0,74.9,9.9
356.0,75.4,61.9,82.4,79.9,74.9,9.1
357.0,75.5,61.0,83.1,79.8,74.8,9.8
358.0,75.2,61.8,83.4,78.5,74.7,9.3
359.0,76.4,61.7,83.3,79.0,75.1,9.4
360.0,75.5,61.2,82.3,78.6,74.4,9.3
361.0,76.6,61.9,83.4,79.0,75.2,9.3
362.0,76.2,60.5,83.3,77.8,74.4,9.8
363.0,76.8,60.9,83.6,78.3,74.9,9.8
364.0,75.8,60.0,82.8,79.3,74.5,10.1
365.0,76.5,60.6,83.4,78.8,74.8,9.9
366.0,77.2,60.4,83.2,79.6,75.1,10.1
367.0,77.3,59.7,84.0,77.4,74.6,10.4
368.0,77.0,61.7,84.7,78.2,75.4,9.7
369.0,74.7,61.0,82.5,78.6,74.2,9.4
370.0,74.7,60.6,83.6,79.0,74.5,9.9
371.0,75.0,60.9,83.7,79.2,74.7,9.8
372.0,75.9,61.1,83.1,79.4,74.9,9.6
373.0,74.0,61.1,83.5,79.8,74.6,9.8
374.0,75.8,61.7,83.6,80.0,75.3,9.6
375.0,74.7,61.9,82.7,79.8,74.8,9.2
376.0,75.3,62.4,83.1,80.5,75.3,9.2
377.0,75.7,62.3,84.0,79.3,75.3,9.3
378.0,76.0,61.0,83.9,77.6,74.6,9.7
379.0,75.0,61.0,82.6,80.0,74.7,9.6
380.0,76.4,61.5,83.7,77.9,74.9,9.5
381.0,75.6,61.2,85.3,80.3,75.6,10.4
382.0,76.0,60.8,83.2,79.0,74.7,9.7
383.0,74.1,60.8,84.6,77.9,74.4,10.0
384.0,76.8,60.9,82.9,79.9,75.1,9.8
385.0,75.9,60.7,84.4,79.3,75.1,10.2
386.0,76.3,61.2,83.1,79.4,75.0,9.6
387.0,77.0,61.8,85.2,79.0,75.8,10.0
388.0,78.4,61.1,83.3,78.7,75.4,9.8
389.0,76.6,60.4,83.1,79.5,74.9,10.0
390.0,76.7,62.0,82.9,80.9,75.7,9.5
391.0,77.1,61.1,83.9,79.9,75.5,10.0
392.0,77.9,61.2,84.3,80.0,75.8,10.1
393.0,77.4,60.5,84.2,80.9,75.7,10.6
394.0,77.0,60.1,85.4,80.6,75.8,11.0
395.0,76.8,60.6,84.2,81.0,75.6,10.5
396.0,77.4,60.3,84.1,80.9,75.7,10.6
397.0,76.1,61.1,84.5,80.5,75.6,10.2
398.0,76.5,59.8,84.2,80.2,75.2,10.7
399.0,77.9,59.4,84.1,80.8,75.6,11.0
400.0,76.9,60.2,84.3,80.9,75.6,10.7
401.0,76.4,60.4,84.8,80.8,75.6,10.7
402.0,77.0,60.6,84.7,80.8,75.8,10.6
403.0,76.2,60.7,83.4,81.6,75.5,10.3
404.0,76.1,60.9,85.4,81.1,75.9,10.7
405.0,76.8,60.8,84.3,80.9,75.7,10.4
406.0,75.7,61.7,84.6,81.6,75.9,10.2
407.0,77.1,60.4,84.8,82.8,76.3,11.1
408.0,77.0,60.9,85.3,81.6,76.2,10.7
409.0,78.3,61.4,84.4,81.6,76.4,10.3
410.0,77.1,61.5,83.9,81.9,76.1,10.1
411.0,77.4,61.5,85.2,81.1,76.3,10.4
412.0,77.3,61.4,85.3,80.0,76.0,10.3
413.0,76.7,61.7,84.7,79.7,75.7,9.9
414.0,76.6,62.0,84.1,79.3,75.5,9.5
415.0,75.1,61.9,85.2,79.4,75.4,9.9
416.0,76.6,61.5,85.3,80.1,75.9,10.2
417.0,78.8,61.5,83.9,81.4,76.4,10.2
418.0,78.2,62.1,84.8,80.4,76.4,9.9
419.0,78.1,62.6,85.3,80.2,76.5,9.8
420.0,78.8,62.9,85.3,79.9,76.7,9.7
421.0,78.7,63.7,84.5,80.1,76.7,9.0
422.0,77.5,63.4,84.9,80.8,76.7,9.3
423.0,77.3,63.2,85.1,80.3,76.5,9.4
424.0,77.3,63.2,85.1,81.3,76.7,9.6
425.0,77.5,62.4,83.4,80.0,75.8,9.3
426.0,76.6,63.1,84.1,82.0,76.4,9.5
427.0,76.8,62.8,84.3,81.5,76.4,9.5
428.0,78.4,63.1,85.3,81.1,77.0,9.7
429.0,77.0,63.2,83.4,79.7,75.8,8.8
430.0,76.8,62.8,84.6,81.3,76.4,9.6
431.0,76.4,63.7,84.0,82.0,76.5,9.2
432.0,76.9,62.4,85.2,81.4,76.5,10.0
433.0,77.1,62.6,85.4,80.8,76.5,9.8
434.0,77.4,62.5,83.9,81.3,76.3,9.6
435.0,77.5,62.5,86.1,80.9,76.7,10.1
436.0,77.4,63.1,85.1,80.8,76.6,9.6
437.0,78.7,63.4,85.6,80.4,77.0,9.5
438.0,79.1,63.4,85.5,79.9,77.0,9.5
439.0,78.5,62.8,86.1,79.3,76.7,9.9
440.0,79.1,62.2,86.7,79.9,77.0,10.4
441.0,78.5,63.2,87.0,81.2,77.5,10.2
442.0,79.8,63.2,85.6,81.1,77.4,9.8
443.0,78.0,63.8,85.6,78.8,76.6,9.2
444.0,78.3,64.1,87.3,79.2,77.2,9.6
445.0,77.3,63.9,86.0,78.7,76.5,9.2
446.0,76.9,63.7,86.6,78.9,76.5,9.5
447.0,77.2,63.6,86.8,79.1,76.7,9.7
448.0,77.3,65.0,85.7,79.6,76.9,8.7
449.0,77.7,63.3,85.4,79.3,76.4,9.3
450.0,77.8,63.2,85.9,78.8,76.4,9.5
451.0,78.4,64.7,86.8,80.2,77.5,9.3
452.0,80.0,64.2,87.0,80.6,78.0,9.7
453.0,80.3,63.9,87.0,79.7,77.7,9.8
454.0,80.3,66.1,87.2,80.2,78.4,8.9
455.0,79.7,65.5,86.5,80.9,78.2,9.0
456.0,81.3,65.1,86.7,81.5,78.6,9.4
457.0,81.6,64.2,86.1,79.8,77.9,9.6
458.0,81.2,66.2,86.4,80.6,78.6,8.7
459.0,80.8,65.5,86.7,79.5,78.1,9.0
460.0,80.2,65.3,87.8,80.1,78.4,9.4
461.0,81.2,64.3,85.8,79.9,77.8,9.4
462.0,79.7,64.8,87.0,80.1,77.9,9.3
463.0,79.3,64.2,86.9,80.5,77.7,9.6
464.0,78.2,63.8,87.9,80.5,77.6,10.1
465.0,79.1,63.0,88.1,81.2,77.8,10.6
466.0,78.6,63.3,89.2,81.6,78.2,10.9
467.0,79.2,63.6,89.1,80.2,78.0,10.6
468.0,78.6,63.3,89.1,82.5,78.4,11.0
469.0,78.1,63.7,89.4,80.7,78.0,10.6
470.0,78.4,64.8,88.9,81.3,78.3,10.0
471.0,79.2,63.8,90.7,81.8,78.9,11.2
472.0,78.7,63.0,88.2,82.0,78.0,10.7
473.0,78.3,63.9,86.8,81.3,77.6,9.7
474.0,79.8,64.1,87.5,81.8,78.3,10.0
475.0,78.5,64.2,87.8,80.3,77.7,9.9
476.0,78.6,64.0,87.4,81.2,77.8,9.9
477.0,79.5,65.5,87.6,81.2,78.4,9.3
478.0,79.3,64.7,87.6,81.1,78.2,9.6
479.0,79.8,64.9,89.1,81.3,78.8,10.1
480.0,78.6,65.2,89.6,82.1,78.9,10.2
481.0,79.4,64.1,88.4,82.0,78.5,10.3
482.0,78.8,65.0,89.1,81.3,78.5,10.0
483.0,80.4,64.6,88.8,81.7,78.9,10.2
484.0,79.2,65.3,88.3,82.5,78.8,9.8
485.0,78.4,65.7,89.5,82.1,78.9,9.9
486.0,78.3,66.5,89.3,82.5,79.2,9.6
487.0,78.6,65.7,90.3,82.7,79.3,10.3
488.0,80.0,65.9,89.9,83.9,79.9,10.2
489.0,79.2,66.4,88.2,83.9,79.4,9.4
490.0,78.1,65.9,89.0,83.1,79.0,9.8
491.0,78.4,65.5,87.9,83.2,78.7,9.7
492.0,77.5,64.9,90.2,82.3,78.8,10.6
493.0,77.3,65.4,88.4,83.9,78.7,10.0
494.0,78.1,65.5,88.8,82.5,78.7,9.8
495.0,79.1,65.2,89.9,84.5,79.7,10.6
496.0,78.9,66.4,90.2,83.2,79.6,10.0
497.0,79.1,65.3,90.3,82.9,79.4,10.5
498.0,80.0,64.6,90.5,81.8,79.2,10.8
499.0,79.9,65.2,90.9,82.0,79.5,10.6
500.0,78.3,65.8,90.5,81.7,79.1,10.2
501.0,78.8,65.8,91.2,81.8,79.4,10.5
502.0,78.6,66.0,90.9,81.0,79.1,10.3
503.0,79.9,65.3,91.6,80.7,79.4,10.8
504.0,78.4,66.2,91.5,82.2,79.6,10.4
505.0,80.3,65.5,92.2,82.1,80.0,11.0
506.0,78.2,64.8,91.2,82.2,79.1,11.0
507.0,79.2,65.7,92.3,82.2,79.8,11.0
508.0,79.5,66.1,92.8,82.6,80.2,11.0
509.0,79.2,65.7,92.5,81.4,79.7,11.0
510.0,78.7,65.3,92.9,81.7,79.6,11.4
511.0,77.9,66.2,92.2,80.4,79.2,10.7
512.0,79.0,65.3,92.4,81.3,79.5,11.1
513.0,78.5,64.9,93.6,80.7,79.4,11.8
514.0,78.0,65.6,92.2,80.4,79.0,10.9
515.0,77.6,65.9,93.8,82.2,79.9,11.6
516.0,78.3,66.0,94.5,82.2,80.2,11.7
517.0,78.5,66.8,92.3,81.5,79.8,10.5
518.0,78.7,66.9,92.9,82.7,80.3,10.7
519.0,78.1,67.1,93.4,82.1,80.2,10.9
520.0,78.4,66.2,93.1,82.2,80.0,11.1
521.0,78.9,66.5,93.6,83.1,80.5,11.2
522.0,78.7,67.1,94.2,82.1,80.5,11.2
523.0,78.1,67.1,93.6,83.6,80.6,11.1
524.0,79.8,67.3,93.3,80.9,80.3,10.6
525.0,78.9,67.6,93.5,82.7,80.7,10.7
526.0,79.1,67.2,93.6,83.0,80.7,10.9
527.0,79.9,68.3,94.3,81.5,81.0,10.6
528.0,80.0,67.6,94.6,81.3,80.9,11.0
529.0,79.3,67.5,94.5,82.0,80.8,11.1
530.0,78.8,68.9,96.4,81.6,81.4,11.4
531.0,81.6,67.3,95.4,81.2,81.4,11.5
532.0,81.4,67.9,95.8,82.9,82.0,11.4
533.0,81.1,68.2,96.3,81.8,81.8,11.5
534.0,81.6,68.2,96.8,81.2,82.0,11.7
535.0,81.0,68.8,97.4,80.7,82.0,11.8
536.0,81.0,67.7,96.6,81.1,81.6,11.8
537.0,81.8,66.8,96.8,81.1,81.6,12.2
538.0,80.7,67.3,96.5,81.7,81.5,12.0
539.0,82.5,68.8,96.4,83.5,82.8,11.3
540.0,81.2,68.4,96.3,82.3,82.1,11.4
541.0,81.8,67.6,96.1,82.5,82.0,11.6
542.0,82.0,67.4,95.1,82.0,81.6,11.3
543.0,82.1,67.5,96.5,81.9,82.0,11.8
544.0,82.9,67.7,97.2,84.2,83.0,12.0
545.0,83.6,68.3,96.9,82.8,82.9,11.7
546.0,83.6,68.6,97.1,83.2,83.1,11.6
547.0,82.5,68.0,96.6,82.9,82.5,11.7
548.0,83.3,67.5,96.4,83.1,82.6,11.8
549.0,82.0,67.5,97.6,82.7,82.5,12.3
550.0,83.2,67.6,97.3,83.0,82.8,12.1
551.0,83.5,67.1,97.8,83.0,82.8,12.5
552.0,81.5,67.1,96.9,85.0,82.7,12.3
553.0,82.6,68.0,98.5,83.9,83.3,12.4
554.0,81.8,67.6,100.0,84.3,83.4,13.3
555.0,81.6,66.7,99.5,83.3,82.8,13.4
556.0,82.0,67.1,100.0,84.2,83.3,13.4
557.0,82.5,67.3,99.1,85.3,83.6,13.1
558.0,82.2,67.0,100.5,83.0,83.2,13.7
559.0,82.1,67.1,100.5,83.5,83.3,13.7
560.0,83.2,66.9,100.4,83.7,83.6,13.7
561.0,82.3,67.4,101.4,82.6,83.4,13.9
562.0,83.1,64.7,101.3,82.9,83.0,15.0
563.0,83.9,65.7,101.8,84.4,84.0,14.8
564.0,82.3,66.0,100.7,83.9,83.2,14.2
565.0,82.0,65.7,101.9,84.2,83.5,14.8
566.0,82.7,65.4,101.6,83.6,83.3,14.8
567.0,83.6,66.3,101.2,83.7,83.7,14.3
568.0,84.9,67.2,102.5,84.8,84.8,14.4
569.0,84.0,66.8,102.7,83.5,84.3,14.7
570.0,84.3,66.4,102.9,85.0,84.6,14.9
571.0,84.3,67.2,103.0,84.5,84.7,14.6
572.0,85.0,67.2,101.7,83.7,84.4,14.1
573.0,83.1,67.2,104.2,83.6,84.5,15.2
574.0,83.8,66.9,104.4,83.4,84.6,15.4
575.0,84.8,67.8,104.7,84.1,85.3,15.1
576.0,83.5,67.7,105.6,84.2,85.2,15.5
577.0,85.3,68.7,104.5,85.2,85.9,14.6
578.0,82.7,67.6,106.3,84.5,85.3,16.0
579.0,83.1,67.8,105.4,83.6,85.0,15.5
580.0,83.5,67.3,108.5,84.7,86.0,17.0
581.0,84.1,66.5,107.0,84.9,85.6,16.6
582.0,84.4,67.4,107.7,83.5,85.8,16.6
583.0,85.6,67.6,108.4,85.5,86.8,16.7
584.0,84.3,67.2,108.2,83.3,85.8,16.9
585.0,84.7,68.2,108.9,84.0,86.4,16.8
586.0,85.4,67.1,107.5,84.2,86.1,16.6
587.0,86.8,67.5,108.9,84.7,87.0,17.0
588.0,86.7,67.6,107.9,84.0,86.5,16.6
589.0,88.1,66.9,109.0,84.6,87.2,17.3
590.0,88.6,67.7,110.2,85.4,88.0,17.4
591.0,88.0,67.8,109.6,85.1,87.6,17.2
592.0,88.8,66.3,111.7,85.9,88.2,18.6
593.0,87.4,66.4,109.7,85.5,87.3,17.7
594.0,88.6,67.1,111.0,85.3,88.0,18.0
595.0,86.5,66.7,112.0,85.6,87.7,18.6
596.0,88.3,68.2,111.9,84.7,88.3,18.0
597.0,87.8,67.3,111.8,84.5,87.9,18.3
598.0,88.5,68.1,111.9,84.5,88.2,18.1
599.0,89.7,68.1,113.8,85.2,89.2,18.8
600.0,89.6,66.7,113.5,86.8,89.2,19.2
601.0,88.6,67.5,115.1,86.0,89.3,19.6
602.0,88.9,66.9,113.8,85.4,88.7,19.3
603.0,88.1,66.2,116.5,86.2,89.3,20.7
604.0,87.3,66.3,117.7,84.3,88.9,21.3
605.0,87.3,67.0,115.9,85.6,89.0,20.2
606.0,87.9,66.3,117.4,85.5,89.3,21.1
607.0,88.5,67.1,116.6,85.6,89.5,20.4
608.0,88.1,67.5,116.1,85.2,89.2,20.1
609.0,89.1,68.3,118.9,85.1,90.3,21.0
610.0,89.8,68.3,117.5,85.9,90.4,20.3
611.0,91.3,68.9,118.8,86.6,91.4,20.7
612.0,90.8,67.7,118.8,85.0,90.6,21.2
613.0,92.0,67.6,118.3,84.8,90.7,21.1
614.0,91.1,67.3,120.7,84.2,90.8,22.3
615.0,93.5,69.2,121.9,85.3,92.5,22.1
616.0,92.7,68.5,119.5,87.6,92.1,21.1
617.0,92.9,69.9,121.6,86.5,92.7,21.6
618.0,93.3,68.3,122.2,87.0,92.7,22.4
619.0,93.2,69.3,121.0,86.8,92.6,21.5
620.0,93.1,69.5,124.2,87.1,93.5,22.8
621.0,94.2,70.8,124.5,89.4,94.7,22.2
622.0,93.2,71.1,126.2,88.5,94.7,23.0
623.0,94.2,70.4,126.2,87.4,94.6,23.3
624.0,95.5,70.6,126.6,88.3,95.3,23.4
625.0,95.8,71.3,127.5,88.1,95.7,23.6
626.0,96.3,71.7,128.3,88.3,96.1,23.8
627.0,96.0,72.2,130.2,87.1,96.4,24.6
628.0,95.6,71.9,131.1,88.8,96.9,24.9
629.0,96.6,71.7,132.5,90.3,97.8,25.4
630.0,96.7,72.8,130.3,90.4,97.5,24.0
631.0,97.4,74.0,132.2,88.9,98.1,24.7
632.0,96.9,74.5,130.9,88.7,97.8,24.0
633.0,98.4,74.1,135.1,89.3,99.2,25.9
634.0,97.8,74.2,132.7,90.3,98.8,24.7
635.0,98.4,73.8,133.1,89.3,98.7,25.1
636.0,98.6,73.6,133.2,89.6,98.7,25.2
637.0,98.4,72.5,134.7,90.3,99.0,26.2
638.0,99.3,74.9,136.8,91.1,100.5,26.3
639.0,100.1,73.2,139.3,89.9,100.6,28.1
640.0,100.5,74.4,140.4,91.0,101.6,28.1
641.0,101.6,73.7,139.9,91.7,101.7,27.9
642.0,100.5,74.7,140.9,91.4,101.9,28.1
643.0,102.5,74.0,143.6,91.6,102.9,29.6
644.0,103.9,74.5,145.6,92.0,104.0,30.2
645.0,104.5,73.2,143.9,92.3,103.5,29.9
646.0,105.6,74.4,143.5,93.3,104.2,29.2
647.0,105.0,74.4,145.2,92.7,104.3,30.0
648.0,105.3,75.4,147.8,90.7,104.8,31.2
649.0,105.1,74.7,146.0,91.7,104.4,30.4
650.0,104.1,74.4,145.9,92.3,104.2,30.4
651.0,105.6,74.5,147.7,92.3,105.0,31.2
652.0,104.8,75.7,149.6,93.8,106.0,31.5
653.0,105.1,76.2,151.2,93.3,106.4,32.1
654.0,106.1,76.7,149.2,93.4,106.4,31.0
655.0,106.1,76.4,153.4,94.8,107.7,32.9
656.0,107.8,77.0,152.9,94.6,108.1,32.5
657.0,108.0,77.1,154.6,93.5,108.3,33.3
658.0,109.5,77.2,154.3,93.2,108.6,33.2
659.0,109.5,76.1,155.2,94.7,108.9,33.8
660.0,108.7,77.7,156.5,93.8,109.2,34.0
661.0,109.5,76.3,157.2,93.7,109.2,34.8
662.0,112.0,76.6,159.5,95.2,110.8,35.5
663.0,110.1,78.3,159.7,94.7,110.7,35.2
664.0,112.6,77.9,162.5,96.1,112.3,36.3
665.0,111.9,77.7,164.1,96.3,112.5,37.1
666.0,112.2,77.3,164.7,96.9,112.8,37.5
667.0,111.3,77.7,165.8,96.7,112.8,37.9
668.0,112.7,76.2,165.5,96.6,112.8,38.2
669.0,114.5,78.8,169.8,96.6,114.9,39.3
670.0,114.7,76.8,169.5,96.1,114.3,40.0
671.0,116.4,77.7,174.5,98.7,116.8,41.5
672.0,113.9,78.6,171.7,97.5,115.4,40.2
673.0,115.9,77.9,174.4,97.0,116.3,41.8
674.0,115.7,78.2,177.3,98.1,117.3,42.8
675.0,118.4,78.7,176.2,97.6,117.7,42.2
676.0,118.0,78.6,178.0,97.7,118.1,43.1
677.0,118.5,80.6,177.7,100.7,119.4,41.9
678.0,118.9,80.0,181.0,97.5,119.4,44.1
679.0,120.7,80.2,181.5,99.3,120.4,44.0
680.0,121.4,79.6,180.1,100.7,120.4,43.3
681.0,122.1,81.5,181.6,100.5,121.4,43.4
682.0,121.4,82.9,183.0,101.8,122.2,43.4
683.0,120.9,81.8,184.6,101.4,122.2,44.6
684.0,124.1,82.8,183.1,102.3,123.1,43.5
685.0,124.3,82.5,186.1,101.7,123.7,45.0
686.0,127.1,81.0,188.1,102.2,124.6,46.4
687.0,127.8,83.3,188.5,100.9,125.1,46.0
688.0,126.2,82.4,189.5,100.5,124.6,46.8
689.0,128.5,82.2,193.1,100.8,126.1,48.5
690.0,126.7,82.6,197.0,102.0,127.1,50.0
691.0,128.2,83.1,193.6,101.7,126.6,48.4
692.0,130.6,83.3,191.6,102.1,126.9,47.3
693.0,128.4,83.0,197.9,103.1,128.1,50.1
694.0,130.4,83.0,197.7,104.6,128.9,49.8
695.0,129.8,82.3,199.0,102.6,128.4,50.9
696.0,130.4,82.8,199.5,104.4,129.3,50.7
697.0,130.2,83.0,203.1,104.2,130.1,52.3
698.0,132.4,82.4,204.9,105.8,131.4,53.1
699.0,131.1,83.4,207.7,104.0,131.6,54.4
700.0,130.9,81.4,201.3,106.0,129.9,51.7
701.0,130.5,83.5,206.9,106.3,131.8,53.6
702.0,132.3,83.2,208.3,105.2,132.3,54.5
703.0,131.7,82.9,205.5,105.4,131.4,53.3
704.0,131.7,81.1,205.9,107.0,131.4,53.8
705.0,130.9,83.2,210.8,107.1,133.0,55.4
706.0,132.2,82.9,212.2,105.3,133.2,56.4
707.0,132.7,84.1,219.8,106.8,135.9,59.4
708.0,131.6,83.9,216.3,105.2,134.3,58.1
709.0,134.8,85.4,218.4,106.8,136.4,58.3
710.0,133.2,84.2,221.8,105.5,136.2,60.5
711.0,134.3,85.1,218.0,107.1,136.1,58.2
712.0,135.4,87.0,219.8,107.2,137.4,58.4
713.0,133.0,85.1,224.0,107.3,137.4,61.0
714.0,132.8,85.5,228.6,106.5,138.3,63.2
715.0,135.3,87.4,228.1,108.4,139.8,62.0
716.0,133.4,87.2,229.6,109.0,139.8,62.7
717.0,133.8,85.8,227.6,108.3,138.9,62.3
718.0,132.5,86.0,230.9,110.1,139.9,63.6
719.0,132.1,87.6,237.8,111.7,142.3,66.2
720.0,134.3,86.9,235.1,111.0,141.8,65.1
721.0,132.5,87.5,242.7,111.3,143.5,68.6
722.0,134.1,86.8,241.0,112.2,143.5,67.8
723.0,133.3,87.2,243.2,112.1,144.0,68.8
724.0,133.1,87.2,241.7,111.8,143.5,68.1
725.0,134.2,86.9,245.1,111.8,144.5,69.8
726.0,133.9,88.9,241.6,112.9,144.4,67.4
727.0,132.6,88.7,244.3,111.9,144.4,69.0
728.0,131.9,89.9,244.0,113.8,144.9,68.2
729.0,132.6,89.5,248.1,113.8,146.0,70.3
730.0,133.8,89.7,249.5,114.1,146.8,70.8
731.0,130.9,88.4,258.9,114.2,148.1,75.9
732.0,133.8,90.2,252.9,114.3,147.8,72.3
733.0,132.4,92.8,258.7,116.1,150.0,74.3
734.0,133.4,91.5,255.1,114.9,148.7,73.0
735.0,131.5,92.8,254.5,116.2,148.7,72.3
736.0,132.7,92.1,259.0,117.4,150.3,74.4
737.0,132.9,92.4,261.1,117.5,151.0,75.3
738.0,130.6,92.0,259.2,117.0,149.7,74.7
739.0,134.4,92.4,265.5,118.0,152.6,77.2
740.0,130.4,93.2,263.0,118.9,151.4,76.0
741.0,131.1,93.5,262.6,119.6,151.7,75.6
742.0,132.6,92.5,266.4,119.0,152.6,77.7
743.0,131.1,93.7,265.0,119.0,152.2,76.8
744.0,128.4,93.8,263.7,118.9,151.2,76.4
745.0,130.8,95.5,264.7,119.0,152.5,76.2
746.0,132.6,93.9,263.4,119.1,152.3,75.8
747.0,132.3,94.3,262.8,120.9,152.6,75.2
748.0,132.0,93.5,263.1,121.5,152.5,75.5
749.0,134.0,94.6,263.9,121.1,153.4,75.4
750.0,133.0,94.5,262.9,125.9,154.1,74.5
751.0,132.7,94.0,259.0,121.5,151.8,73.3
752.0,132.5,94.3,257.6,122.8,151.8,72.4
753.0,133.3,94.3,260.0,124.4,153.0,73.2
754.0,132.6,93.5,259.4,125.5,152.8,73.1
755.0,131.2,95.8,258.0,123.2,152.1,72.2
756.0,135.4,95.0,252.8,124.3,151.9,69.4
757.0,135.3,97.1,256.6,126.2,153.8,70.5
758.0,133.9,99.6,249.5,124.9,152.0,66.6
759.0,133.8,98.3,249.2,127.2,152.1,66.5
760.0,133.5,98.5,248.6,125.6,151.5,66.4
761.0,133.5,98.5,247.0,127.2,151.6,65.4
762.0,135.8,100.1,239.3,127.2,150.6,61.1
763.0,136.6,100.9,247.3,127.0,152.9,64.7
764.0,135.2,101.6,240.0,127.9,151.2,60.9
765.0,132.6,101.4,245.6,127.4,151.7,64.0
766.0,134.5,99.6,240.5,129.9,151.1,61.6
767.0,132.3,102.0,247.9,129.3,152.9,64.8
768.0,132.0,102.1,245.1,128.5,151.9,63.5
769.0,134.6,101.8,249.0,130.2,153.9,65.0
770.0,131.7,102.1,247.8,131.5,153.3,64.5
771.0,130.6,103.9,243.8,133.1,152.8,62.1
772.0,131.2,101.1,241.9,133.6,152.0,61.8
773.0,134.3,103.4,242.5,134.6,153.7,61.0
774.0,133.5,104.8,243.4,133.7,153.8,61.2
775.0,133.0,105.5,240.7,134.5,153.4,59.7
776.0,134.0,104.5,234.1,136.0,152.2,56.5
777.0,130.3,101.7,238.3,133.8,151.0,59.9
778.0,135.7,104.3,242.3,134.4,154.2,60.5
779.0,133.0,103.4,239.2,134.7,152.6,59.5
780.0,132.2,106.4,235.6,135.0,152.3,57.0
781.0,136.7,105.9,236.5,137.1,154.1,56.8
782.0,135.3,106.3,242.7,137.8,155.5,59.9
783.0,135.6,105.0,236.6,138.3,153.9,57.1
784.0,138.5,107.1,238.2,137.6,155.4,57.1
785.0,139.1,106.6,236.5,137.2,154.9,56.4
786.0,138.8,107.6,237.7,138.5,155.6,56.6
787.0,137.6,107.2,234.6,140.9,155.1,55.2
788.0,138.4,107.7,234.6,140.8,155.3,54.9
789.0,138.3,106.5,238.3,142.8,156.5,56.9
790.0,138.5,108.1,236.6,141.9,156.3,55.7
791.0,139.2,107.6,235.6,141.4,156.0,55.3
792.0,137.7,108.8,235.6,141.8,156.0,55.1
793.0,139.2,108.3,238.1,142.5,157.0,56.2
794.0,137.3,107.9,242.5,143.8,157.9,58.5
795.0,139.8,109.8,233.2,145.1,157.0,53.2
796.0,138.8,111.4,239.1,144.9,158.6,55.6
797.0,137.8,111.3,236.0,147.0,158.0,54.2
798.0,139.3,110.2,234.5,145.3,157.3,53.7
799.0,141.1,111.0,233.7,145.1,157.7,52.9
800.0,142.4,113.0,235.6,145.6,159.1,53.1
801.0,142.2,111.9,232.4,147.3,158.5,51.7
802.0,142.1,113.3,227.9,148.3,157.9,49.1
803.0,143.0,114.4,234.7,147.0,159.7,52.0
804.0,140.4,113.9,231.8,149.8,158.9,50.9
805.0,142.7,113.8,234.8,145.9,159.3,52.3
806.0,143.7,114.4,235.5,147.3,160.2,52.3
807.0,144.3,115.2,231.5,148.0,159.7,50.1
808.0,145.3,117.1,235.2,149.3,161.7,51.0
809.0,143.3,115.9,237.6,150.9,162.0,52.6
810.0,141.6,117.3,239.2,150.3,162.1,53.3
811.0,147.1,118.1,230.3,152.1,161.9,48.0
812.0,144.2,115.2,234.0,150.7,161.0,51.0
813.0,147.0,116.2,228.8,151.5,160.9,48.0
814.0,147.2,118.0,230.5,153.8,162.4,48.0
815.0,145.3,119.4,229.2,153.5,161.8,47.2
816.0,146.2,118.3,239.0,153.8,164.3,52.1
817.0,147.7,119.9,232.4,153.9,163.5,48.3
818.0,147.1,119.9,233.3,157.0,164.3,48.6
819.0,145.7,118.8,232.8,154.4,162.9,49.0
820.0,148.4,120.6,234.1,155.6,164.7,48.7
821.0,147.2,122.8,231.2,154.8,164.0,46.8
822.0,148.7,124.0,233.2,158.0,165.9,47.1
823.0,151.4,121.8,235.3,159.9,167.1,48.3
824.0,151.6,122.1,230.8,159.4,166.0,46.1
825.0,149.6,124.0,230.7,156.4,165.2,45.9
826.0,152.7,124.0,229.3,159.6,166.4,44.7
827.0,151.4,125.3,232.3,158.5,166.9,45.9
828.0,154.4,125.9,235.4,157.9,168.4,46.9
829.0,151.5,122.2,227.1,162.7,165.9,44.3
830.0,151.6,124.4,229.9,163.4,167.3,44.8
831.0,154.1,125.2,233.7,162.5,168.9,46.1
832.0,154.3,124.5,236.0,159.6,168.6,47.5
833.0,150.9,122.2,231.9,161.9,166.7,46.6
834.0,153.7,128.9,231.1,163.3,169.3,43.7
835.0,154.8,128.5,229.3,164.6,169.3,42.8
836.0,153.3,125.3,226.4,164.5,167.3,42.7
837.0,157.6,126.0,225.5,168.9,169.5,41.5
838.0,158.2,129.0,227.4,166.5,170.3,41.3
839.0,156.8,128.4,226.4,168.6,170.1,41.2
840.0,156.8,130.3,228.0,167.4,170.6,41.3
841.0,161.1,129.1,226.9,169.3,171.6,40.8
842.0,158.1,132.1,225.1,171.9,171.8,39.2
843.0,156.7,132.3,221.4,168.9,169.8,37.6
844.0,156.7,131.3,219.5,171.3,169.7,37.1
845.0,156.2,131.5,218.4,169.6,168.9,36.6
846.0,158.9,135.1,217.4,176.1,171.8,34.7
847.0,156.8,132.2,215.0,175.2,169.8,34.9
848.0,158.0,135.5,213.8,175.8,170.8,33.1
849.0,159.3,132.5,212.0,176.4,170.1,33.3
850.0,158.2,133.7,211.6,173.0,169.1,32.6
851.0,159.3,134.7,210.6,178.9,170.9,32.1
852.0,158.1,134.5,207.3,177.6,169.4,30.8
853.0,161.7,135.4,205.9,178.5,170.4,29.6
854.0,162.7,135.8,201.8,178.2,169.6,27.7
855.0,164.8,137.2,201.7,180.7,171.1,27.2
856.0,165.4,138.4,203.9,179.4,171.8,27.3
857.0,163.5,139.2,200.1,179.2,170.5,25.7
858.0,164.3,138.6,198.9,181.2,170.7,25.7
859.0,160.1,140.5,195.9,181.0,169.4,24.2
860.0,166.4,139.2,198.8,183.3,171.9,25.5
861.0,164.9,141.0,198.8,186.1,172.7,25.4
862.0,166.4,140.0,191.9,186.9,171.3,23.6
863.0,163.6,140.1,193.3,186.2,170.8,24.0
864.0,166.1,140.5,192.3,191.6,172.6,24.6
865.0,167.9,144.0,193.6,188.8,173.6,22.7
866.0,166.1,143.4,194.4,193.8,174.4,24.5
867.0,166.2,143.9,190.9,191.9,173.2,22.8
868.0,168.0,144.9,190.6,192.3,173.9,22.3
869.0,168.2,144.0,192.3,196.9,175.3,24.4
870.0,167.3,149.2,189.1,193.3,174.7,20.5
871.0,168.7,148.7,188.6,193.4,174.8,20.4
872.0,169.7,148.4,186.4,192.5,174.3,19.7
873.0,169.6,149.6,187.9,194.3,175.4,20.1
874.0,168.0,151.8,188.0,193.5,175.3,19.1
875.0,171.0,150.5,185.3,194.4,175.3,19.1
876.0,170.6,153.7,183.2,199.5,176.8,19.4
877.0,171.7,152.6,183.3,196.1,175.9,18.5
878.0,170.8,152.0,181.3,196.9,175.2,18.9
879.0,171.0,147.3,178.8,200.5,174.4,22.0
880.0,168.6,148.5,179.3,198.2,173.6,20.8
881.0,170.1,150.7,176.8,201.2,174.7,20.8
882.0,172.0,153.4,177.2,199.0,175.4,18.8
883.0,170.8,156.0,175.3,201.3,175.9,18.8
884.0,174.2,155.6,177.9,201.9,177.4,19.0
885.0,175.0,156.6,176.2,204.1,178.0,19.6
886.0,171.3,155.1,173.3,201.9,175.4,19.4
887.0,175.9,159.2,172.4,205.1,178.1,19.4
888.0,173.3,159.4,171.2,209.1,178.3,21.5
889.0,173.4,158.8,169.1,203.6,176.2,19.2
890.0,172.0,157.8,168.3,206.3,176.1,21.0
891.0,174.4,161.4,165.1,205.1,176.5,19.8
892.0,172.5,160.3,165.9,206.5,176.3,20.7
893.0,174.0,164.9,165.5,208.4,178.2,20.5
894.0,173.5,164.4,165.4,206.6,177.5,19.9
895.0,171.6,164.4,164.6,207.4,177.0,20.6
896.0,172.6,164.9,162.1,209.8,177.4,22.1
897.0,175.3,168.0,159.2,209.8,178.1,22.1
898.0,172.7,165.4,160.9,213.8,178.2,24.2
899.0,177.2,164.5,159.3,213.3,178.6,24.3
900.0,175.9,165.7,156.5,215.5,178.4,26.0
901.0,176.8,165.8,157.6,212.6,178.2,24.2
902.0,176.3,167.7,154.6,214.1,178.2,25.6
903.0,176.1,166.1,155.0,216.2,178.4,26.7
904.0,174.4,167.1,152.3,215.4,177.3,27.0
905.0,171.0,165.4,150.3,217.1,176.0,28.8
906.0,167.7,167.9,149.1,216.7,175.3,29.0
907.0,167.8,167.9,150.5,215.1,175.3,27.7
908.0,172.5,171.8,147.8,216.4,177.1,28.6
909.0,171.7,168.6,146.9,220.9,177.0,31.3
910.0,170.7,170.7,146.2,218.2,176.4,30.1
911.0,174.7,170.7,143.5,219.5,177.1,31.5
912.0,169.1,169.8,143.9,219.2,175.5,31.5
913.0,169.0,169.6,142.0,220.4,175.2,32.7
914.0,172.2,172.4,141.4,219.6,176.4,32.3
915.0,169.8,169.2,139.8,219.0,174.5,32.8
916.0,167.2,173.1,138.7,217.5,174.1,32.6
917.0,166.9,173.7,136.5,222.7,174.9,35.7
918.0,167.1,174.3,135.4,217.7,173.6,33.9
919.0,165.6,172.6,134.6,218.7,172.9,34.7
920.0,165.6,177.7,134.4,218.0,173.9,34.6
921.0,163.4,176.7,134.2,221.7,174.0,36.4
922.0,166.1,180.1,129.9,220.6,174.2,37.5
923.0,163.5,178.8,129.3,218.6,172.5,37.0
924.0,159.9,179.4,126.1,225.0,172.6,41.3
925.0,162.6,179.1,128.9,221.1,172.9,38.3
926.0,161.8,182.9,126.6,219.3,172.7,38.8
927.0,161.1,182.7,124.7,220.5,172.3,40.1
928.0,159.5,182.4,124.3,219.3,171.4,39.9
929.0,161.0,182.1,120.5,220.1,170.9,41.6
930.0,158.6,183.4,118.9,223.9,171.2,44.0
931.0,157.5,185.2,116.6,217.8,169.3,42.9
932.0,154.0,182.7,114.3,221.8,168.2,45.5
933.0,158.2,185.2,113.8,220.9,169.5,45.2
934.0,154.6,185.0,111.3,220.7,167.9,46.4
935.0,154.9,192.2,113.6,228.0,172.1,49.2
936.0,151.3,188.3,109.8,218.3,166.9,46.9
937.0,151.6,187.8,109.7,219.6,167.2,47.3
938.0,153.6,190.0,109.4,223.2,169.0,48.9
939.0,152.2,192.6,107.5,222.8,168.8,50.0
940.0,150.4,187.4,107.4,219.3,166.1,48.2
941.0,149.0,191.2,104.8,216.3,165.3,49.0
942.0,148.4,190.6,103.2,218.0,165.0,50.2
943.0,147.5,194.5,101.6,218.0,165.4,51.7
944.0,147.6,192.8,99.7,218.4,164.6,52.2
945.0,145.8,196.6,98.7,216.1,164.3,52.8
946.0,146.0,195.1,97.7,217.1,164.0,53.2
947.0,146.9,192.3,95.7,213.0,162.0,52.1
948.0,147.4,198.3,93.6,212.6,163.0,54.1
949.0,147.0,198.9,91.9,214.8,163.1,55.7
950.0,147.5,200.6,91.1,214.3,163.4,56.2
951.0,146.4,201.3,89.6,213.0,162.6,56.7
952.0,144.5,199.5,87.9,208.6,160.1,55.9
953.0,146.0,201.2,86.5,211.8,161.4,57.7
954.0,148.0,204.1,86.9,212.8,162.9,58.3
955.0,149.3,207.3,85.7,207.8,162.6,58.1
956.0,147.9,205.8,83.9,206.4,161.0,58.3
957.0,146.9,208.9,82.3,212.0,162.5,61.3
958.0,147.7,210.4,80.8,211.7,162.6,62.2
959.0,148.2,214.1,78.3,205.4,161.5,62.7
960.0,148.7,212.7,78.3,200.9,160.2,61.3
961.0,148.7,216.6,75.5,198.6,159.9,63.1
962.0,153.2,212.6,73.7,203.3,160.7,63.6
963.0,147.8,215.9,73.6,199.7,159.2,64.0
964.0,149.4,215.5,71.7,199.2,159.0,64.6
965.0,150.0,217.4,71.9,197.9,159.3,64.8
966.0,153.4,215.4,69.1,194.5,158.1,64.7
967.0,149.7,219.8,68.1,194.1,157.9,66.5
968.0,147.4,224.8,67.6,195.7,158.9,68.7
969.0,150.5,220.8,66.3,192.8,157.6,67.4
970.0,149.1,224.2,64.4,193.4,157.8,69.5
971.0,150.2,226.0,63.7,188.4,157.1,69.5
972.0,148.0,224.8,63.6,187.3,155.9,69.0
973.0,150.2,224.2,61.3,188.2,156.0,70.0
974.0,149.1,224.4,61.8,181.7,154.2,68.9
975.0,148.3,221.0,59.7,181.6,152.6,68.7
976.0,151.7,226.3,58.6,180.4,154.3,70.8
977.0,147.8,226.6,57.5,177.9,152.4,71.2
978.0,147.5,224.8,56.9,178.6,152.0,70.9
979.0,148.3,222.0,55.5,174.2,150.0,70.0
980.0,150.1,227.2,56.5,171.3,151.2,71.1
981.0,147.2,226.8,53.7,170.6,149.6,72.1
982.0,145.6,222.7,53.9,169.7,147.9,70.5
983.0,147.1,230.6,52.3,165.7,148.9,73.7
984.0,150.2,229.6,50.7,166.8,149.3,74.1
985.0,150.1,227.2,50.2,163.7,147.8,73.2
986.0,148.3,231.3,49.6,165.3,148.6,75.1
987.0,148.3,227.6,48.9,161.8,146.7,73.8
988.0,148.3,224.8,47.7,160.6,145.3,73.2
989.0,151.8,230.8,47.8,158.0,147.1,75.3
990.0,147.2,226.7,46.9,157.0,144.4,74.0
991.0,149.0,224.2,46.1,157.1,144.1,73.5
992.0,150.9,227.6,46.1,154.1,144.7,74.7
993.0,148.6,224.0,44.6,153.6,142.7,73.9
994.0,149.8,223.2,44.0,151.8,142.2,73.8
995.0,149.3,221.8,43.4,154.2,142.2,73.7
996.0,152.1,221.7,42.5,150.6,141.7,74.0
997.0,151.7,224.7,42.3,152.2,142.7,75.2
998.0,150.4,224.2,42.5,150.3,141.9,74.8
999.0,153.2,222.0,41.5,148.9,141.4,74.6
1000.0,151.6,225.3,41.2,147.6,141.4,75.8
1001.0,153.0,222.6,40.0,144.9,140.1,75.3
1002.0,150.3,223.5,39.7,144.2,139.4,75.6
1003.0,150.1,223.1,39.2,144.0,139.1,75.7
1004.0,150.6,223.0,39.3,142.9,139.0,75.6
1005.0,147.0,223.3,38.6,144.1,138.3,75.9
1006.0,149.1,226.1,37.7,142.3,138.8,77.4
1007.0,149.2,225.2,37.2,141.4,138.2,77.3
1008.0,148.8,225.2,36.4,140.8,137.8,77.5
1009.0,146.6,222.2,36.2,138.3,135.8,76.4
1010.0,143.7,228.9,35.8,138.6,136.8,79.0
1011.0,147.3,223.5,35.8,136.3,135.7,77.1
1012.0,146.7,225.2,34.5,134.6,135.3,78.2
1013.0,148.0,224.9,34.4,139.1,136.6,78.3
1014.0,147.0,222.7,33.7,135.0,134.6,77.7
1015.0,148.9,220.1,33.1,133.7,134.0,77.1
1016.0,149.9,221.7,33.2,132.7,134.4,77.7
1017.0,150.7,220.5,33.2,133.3,134.4,77.3
1018.0,150.8,220.1,32.8,132.8,134.1,77.3
1019.0,147.3,218.1,32.9,129.8,132.0,76.3
1020.0,145.1,217.8,34.0,129.1,131.5,75.6
1021.0,145.9,216.6,32.7,127.6,130.7,75.8
1022.0,143.0,216.8,33.0,128.4,130.3,75.5
1023.0,140.0,214.3,32.9,125.8,128.3,74.5
1024.0,138.4,215.2,33.3,128.7,128.9,74.5
1025.0,138.6,217.0,33.2,128.1,129.2,75.3
1026.0,136.0,214.0,32.8,126.1,127.2,74.2
1027.0,133.6,214.7,32.7,127.1,127.0,74.5
1028.0,135.5,216.9,32.3,128.2,128.2,75.5
1029.0,133.7,215.1,31.7,126.4,126.7,75.0
1030.0,134.2,213.2,31.6,126.4,126.4,74.4
1031.0,133.6,218.5,31.9,124.4,127.1,76.3
1032.0,132.3,209.6,31.4,124.8,124.5,73.0
1033.0,132.8,208.6,31.1,123.2,123.9,72.7
1034.0,131.9,210.4,31.0,123.9,124.3,73.4
1035.0,130.7,209.1,30.5,124.3,123.7,73.1
1036.0,129.0,210.3,30.5,124.1,123.5,73.5
1037.0,130.4,207.0,29.5,121.6,122.2,72.7
1038.0,127.6,205.1,29.8,122.7,121.3,71.7
1039.0,130.3,200.2,30.1,122.9,120.9,69.8
1040.0,128.0,202.6,29.8,123.7,121.0,70.8
1041.0,128.0,202.1,30.1,123.2,120.9,70.4
1042.0,125.4,205.3,,122.2,151.0,47.1
1043.0,123.2,198.2,,122.7,148.0,43.4
1044.0,121.8,197.3,,124.2,147.8,42.9
1045.0,119.7,197.1,,121.6,146.1,44.2
1046.0,119.8,198.2,,122.4,146.8,44.5
1047.0,119.1,194.9,,120.4,144.8,43.4
1048.0,116.9,192.8,,122.0,143.9,42.4
1049.0,116.9,193.7,,120.2,143.6,43.4
1050.0,115.7,189.9,,120.1,141.9,41.6
1051.0,114.8,192.8,,120.0,142.5,43.6
1052.0,115.1,186.3,,122.4,141.3,39.1
1053.0,112.7,187.3,,121.9,140.6,40.7
1054.0,110.8,183.3,,121.3,138.5,39.2
1055.0,110.6,181.1,,121.8,137.9,37.9
1056.0,108.6,185.0,,120.9,138.2,41.0
1057.0,106.8,184.7,,123.0,138.2,41.1
1058.0,105.9,181.4,,121.4,136.2,39.9
1059.0,104.1,179.7,,119.7,134.5,39.9
1060.0,104.4,177.1,,120.0,133.8,38.3
1061.0,102.9,178.4,,118.4,133.2,39.9
1062.0,102.8,176.6,,119.1,132.8,38.7
1063.0,101.9,173.1,,120.9,132.0,36.9
1064.0,102.5,170.4,,119.4,130.8,35.3
1065.0,100.2,172.5,,120.2,131.0,37.3
1066.0,99.8,168.7,,120.8,129.8,35.3
1067.0,98.5,168.6,,118.6,128.5,36.1
1068.0,100.3,167.7,,118.4,128.8,34.9
1069.0,96.9,163.0,,120.9,126.9,33.5
1070.0,96.9,163.2,,118.8,126.3,33.8
1071.0,96.6,162.0,,121.4,126.7,33.0
1072.0,95.0,158.6,,119.7,124.4,32.1
1073.0,95.0,156.6,,120.2,123.9,31.0
1074.0,94.2,160.0,,119.7,124.7,33.2
1075.0,92.8,156.9,,119.6,123.1,32.2
1076.0,91.8,154.0,,120.3,122.1,31.1
1077.0,91.5,152.8,,121.0,121.8,30.7
1078.0,91.9,149.6,,119.0,120.2,28.9
1079.0,91.5,153.1,,120.8,121.8,30.8
1080.0,92.3,146.8,,122.0,120.4,27.3
1081.0,90.2,144.7,,121.3,118.7,27.3
1082.0,89.2,147.4,,120.9,119.2,29.2
1083.0,89.7,144.5,,123.0,119.1,27.6
1084.0,87.5,141.8,,123.4,117.6,27.6
1085.0,86.9,139.6,,123.4,116.6,27.0
1086.0,85.7,140.2,,122.6,116.2,27.8
1087.0,84.7,138.3,,123.9,115.6,27.7
1088.0,85.3,135.8,,122.2,114.5,26.2
1089.0,85.1,135.6,,123.7,114.8,26.4
1090.0,84.2,135.7,,124.3,114.7,27.1
1091.0,83.7,133.7,,125.7,114.4,26.9
1092.0,84.2,132.4,,123.5,113.4,25.6
1093.0,82.4,132.5,,125.9,113.6,27.3
1094.0,82.3,127.9,,126.5,112.3,25.9
1095.0,82.1,128.9,,124.3,111.8,25.7
1096.0,82.4,128.1,,125.1,111.8,25.6
1097.0,80.5,123.4,,125.3,109.7,25.3
1098.0,80.5,125.6,,126.6,110.9,26.3
1099.0,79.5,124.7,,126.6,110.2,26.7
1100.0,79.1,123.3,,126.4,109.6,26.5
1101.0,77.8,120.4,,125.3,107.8,26.1
1102.0,77.8,122.8,,127.5,109.4,27.4
1103.0,77.8,121.8,,127.2,108.9,27.1
1104.0,76.9,119.2,,131.1,109.0,28.5
1105.0,76.8,118.0,,128.3,107.7,27.2
1106.0,75.4,119.6,,128.2,107.7,28.3
1107.0,76.7,118.2,,131.2,108.7,28.5
1108.0,75.8,117.3,,127.3,106.8,27.3
1109.0,75.7,117.3,,129.6,107.5,28.2
1110.0,74.7,117.1,,130.6,107.5,29.2
1111.0,75.1,116.1,,129.4,106.9,28.3
1112.0,74.0,115.4,,129.4,106.3,28.9
1113.0,75.6,115.9,,128.7,106.7,27.7
1114.0,74.6,115.0,,129.5,106.4,28.4
1115.0,72.6,115.3,,131.0,106.3,30.2
1116.0,71.6,115.1,,131.0,105.9,30.8
1117.0,71.6,112.7,,130.9,105.1,30.3
1118.0,70.9,114.7,,130.7,105.4,31.0
1119.0,71.0,114.7,,130.0,105.2,30.6
1120.0,70.8,112.5,,129.4,104.2,30.2
1121.0,69.0,113.8,,129.2,104.0,31.3
1122.0,70.0,114.4,,130.9,105.1,31.5
1123.0,69.3,112.5,,130.0,103.9,31.2
1124.0,68.8,114.2,,129.3,104.1,31.5
1125.0,68.8,113.1,,128.8,103.6,31.1
1126.0,69.0,113.0,,129.9,103.9,31.4
1127.0,69.0,115.6,,129.9,104.8,31.9
1128.0,67.8,114.7,,130.0,104.1,32.4
1129.0,67.8,115.2,,129.2,104.1,32.2
1130.0,67.5,113.9,,130.7,104.0,32.8
1131.0,67.3,113.3,,130.8,103.8,32.8
1132.0,65.5,115.6,,129.8,103.6,33.8
1133.0,67.2,114.5,,131.4,104.4,33.3
1134.0,65.8,112.8,,129.5,102.7,33.1
1135.0,65.3,113.6,,129.8,102.9,33.5
1136.0,64.6,114.0,,131.0,103.2,34.5
1137.0,65.0,112.9,,131.4,103.1,34.3
1138.0,64.5,115.4,,130.1,103.4,34.4
1139.0,63.9,113.9,,130.2,102.6,34.5
1140.0,62.8,113.0,,132.1,102.6,35.8
1141.0,63.4,114.8,,131.8,103.3,35.6
1142.0,62.7,115.2,,131.2,103.0,35.8
1143.0,62.1,113.7,,131.5,102.4,36.0
1144.0,61.2,114.7,,129.4,101.8,35.9
1145.0,60.7,114.2,,129.0,101.3,35.9
1146.0,59.9,115.8,,129.7,101.8,36.9
1147.0,60.9,114.1,,128.7,101.2,35.7
1148.0,58.7,115.4,,129.4,101.2,37.5
1149.0,57.5,115.3,,128.8,100.5,37.9
1150.0,57.8,118.0,,126.8,100.8,37.5
1151.0,56.1,114.7,,128.1,99.6,38.3
1152.0,55.9,116.0,,126.7,99.5,38.1
1153.0,56.6,113.8,,128.3,99.5,37.9
1154.0,57.2,116.1,,125.8,99.7,37.1
1155.0,57.0,115.4,,129.4,100.6,38.4
1156.0,57.6,113.4,,130.8,100.6,38.2
1157.0,58.0,116.5,,129.4,101.3,38.0
1158.0,57.7,115.1,,128.7,100.5,37.7
1159.0,57.4,115.4,,128.6,100.5,37.9
1160.0,58.1,116.8,,128.0,101.0,37.5
1161.0,58.0,118.3,,127.4,101.2,37.7
1162.0,57.8,118.3,,129.0,101.7,38.4
1163.0,56.9,117.1,,127.5,100.5,38.1
1164.0,57.2,115.9,,125.7,99.6,37.0
1165.0,57.3,117.7,,124.6,99.9,37.0
1166.0,56.1,116.5,,127.8,100.1,38.6
1167.0,56.4,116.6,,127.6,100.2,38.4
1168.0,56.5,116.8,,125.9,99.7,37.7
1169.0,56.4,116.8,,128.6,100.6,38.7
1170.0,57.1,117.0,,127.6,100.6,38.0
1171.0,57.6,115.9,,125.7,99.7,36.8
1172.0,58.0,116.9,,126.6,100.5,37.1
1173.0,58.3,117.9,,126.3,100.8,37.1
1174.0,56.9,117.6,,127.9,100.8,38.4
1175.0,56.8,116.4,,125.1,99.4,37.2
1176.0,56.8,116.6,,125.6,99.6,37.4
1177.0,55.7,118.4,,126.3,100.1,38.7
1178.0,55.7,118.7,,126.6,100.3,38.8
1179.0,54.3,118.8,,126.6,99.9,39.7
1180.0,54.7,119.0,,124.9,99.5,38.9
1181.0,54.6,120.6,,126.1,100.4,39.8
1182.0,54.6,120.4,,125.0,100.0,39.4
1183.0,54.0,120.8,,124.2,99.6,39.6
1184.0,53.2,121.4,,124.7,99.8,40.3
1185.0,52.4,119.6,,123.9,98.6,40.1
1186.0,52.8,119.0,,122.4,98.0,39.2
1187.0,51.7,119.8,,124.1,98.5,40.6
1188.0,52.5,121.2,,121.4,98.4,39.7
1189.0,52.6,119.5,,123.4,98.5,39.8
1190.0,52.7,122.7,,122.0,99.1,40.2
1191.0,52.7,120.0,,122.7,98.5,39.6
1192.0,52.9,119.6,,120.8,97.7,38.8
1193.0,53.3,120.4,,121.2,98.3,39.0
1194.0,53.7,121.9,,124.0,99.9,40.0
1195.0,53.1,119.0,,120.6,97.6,38.5
1196.0,54.1,122.2,,121.1,99.1,39.0
1197.0,53.2,121.9,,119.7,98.3,39.0
1198.0,52.6,120.8,,119.9,97.8,39.1
1199.0,52.4,120.4,,120.5,97.8,39.3
1200.0,52.8,120.9,,120.8,98.2,39.3
1201.0,52.4,120.6,,121.4,98.1,39.6
1202.0,52.5,121.6,,120.9,98.3,39.7
1203.0,51.6,124.1,,120.5,98.7,40.9
1204.0,51.2,123.4,,119.2,97.9,40.5
1205.0,51.6,120.6,,119.1,97.1,39.4
1206.0,51.1,121.8,,119.3,97.4,40.1
1207.0,51.4,121.9,,119.7,97.7,40.1
1208.0,51.7,120.1,,118.8,96.9,39.1
1209.0,51.8,121.7,,117.5,97.0,39.2
1210.0,51.8,122.2,,117.2,97.0,39.3
1211.0,51.6,120.8,,117.6,96.7,39.1
1212.0,51.4,121.2,,118.3,97.0,39.5
1213.0,51.9,124.2,,116.0,97.4,39.6
1214.0,51.7,119.8,,118.3,96.6,38.9
1215.0,51.6,124.0,,118.4,98.0,40.3
1216.0,51.2,121.2,,116.5,96.3,39.1
1217.0,51.9,122.1,,116.2,96.8,38.9
1218.0,51.7,124.5,,114.7,97.0,39.5
1219.0,52.7,121.4,,113.9,96.0,37.7
1220.0,52.8,123.9,,116.1,97.6,39.0
1221.0,52.5,122.3,,112.3,95.7,37.8
1222.0,54.1,123.2,,113.9,97.0,37.5
1223.0,54.3,122.3,,111.9,96.2,36.7
1224.0,53.4,123.2,,110.6,95.7,37.2
1225.0,53.8,122.8,,109.3,95.3,36.6
1226.0,53.1,123.5,,109.5,95.4,37.3
1227.0,54.1,125.4,,108.3,95.9,37.2
1228.0,52.8,125.4,,108.6,95.6,38.0
1229.0,53.6,124.2,,108.8,95.6,37.1
1230.0,53.1,126.3,,107.1,95.5,37.9
1231.0,52.4,126.4,,106.6,95.1,38.3
1232.0,52.8,124.5,,106.5,94.6,37.3
1233.0,52.8,126.3,,106.6,95.2,38.0
1234.0,51.3,125.4,,106.5,94.4,38.5
1235.0,51.2,125.7,,106.2,94.4,38.6
1236.0,51.0,125.8,,105.1,93.9,38.6
1237.0,50.8,124.7,,104.9,93.5,38.3
1238.0,50.5,124.7,,103.8,93.0,38.2
1239.0,50.0,124.7,,103.3,92.7,38.4
1240.0,49.9,122.4,,102.1,91.5,37.4
1241.0,48.9,125.3,,103.4,92.6,39.3
1242.0,49.9,124.4,,103.2,92.5,38.4
1243.0,50.4,125.9,,103.6,93.3,38.8
1244.0,49.7,127.4,,102.7,93.3,39.7
1245.0,50.4,124.9,,102.1,92.5,38.1
1246.0,50.5,124.4,,101.5,92.1,37.8
1247.0,50.8,122.8,,99.6,91.1,36.7
1248.0,50.8,124.4,,99.7,91.6,37.5
1249.0,50.9,124.2,,99.1,91.4,37.2
1250.0,50.1,124.7,,99.3,91.4,37.9
1251.0,50.1,124.4,,100.6,91.7,37.9
1252.0,51.1,122.9,,99.3,91.1,36.6
1253.0,50.1,121.7,,97.0,89.6,36.4
1254.0,49.6,124.7,,96.5,90.2,37.9
1255.0,49.6,124.6,,97.1,90.4,37.9
1256.0,50.7,122.6,,93.6,89.0,36.2
1257.0,49.0,123.3,,97.3,89.9,37.7
1258.0,49.5,123.9,,95.2,89.5,37.5
1259.0,49.9,122.3,,94.5,88.9,36.5
1260.0,48.8,122.1,,93.2,88.1,36.9
1261.0,49.0,124.1,,93.2,88.8,37.7
1262.0,48.4,122.1,,91.9,87.5,37.0
1263.0,48.4,122.1,,90.8,87.1,37.0
1264.0,48.5,122.7,,91.9,87.7,37.2
1265.0,48.3,123.6,,89.5,87.1,37.8
1266.0,48.9,124.7,,87.4,87.0,37.9
1267.0,48.7,123.0,,87.4,86.4,37.2
1268.0,48.6,124.4,,87.3,86.8,37.9
1269.0,47.9,120.8,,86.5,85.0,36.5
1270.0,48.1,119.2,,84.7,84.0,35.6
1271.0,49.0,121.7,,85.7,85.5,36.4
1272.0,48.6,120.8,,82.6,84.0,36.1
1273.0,48.8,119.3,,82.5,83.5,35.3
1274.0,48.7,120.2,,82.5,83.8,35.8
1275.0,48.9,120.6,,81.7,83.7,35.9
1276.0,49.0,120.8,,81.1,83.6,36.0
1277.0,48.9,120.1,,80.0,83.0,35.7
1278.0,49.1,118.4,,79.4,82.3,34.7
1279.0,48.7,118.8,,79.1,82.2,35.1