File: 01_Data/Oak_Flooring/Cone/Oak_Flooring_HRRPUA_75.csv
Time after Ignition,Oak_Flooring_R1,Oak_Flooring_R2,Oak_Flooring_R3,Mean,Std. Dev.
0.0,10.0,13.3,3.0,8.8,5.3
0.75,22.3,32.6,5.3,20.1,13.8
1.5,42.3,50.8,7.7,33.6,22.8
2.25,77.4,83.3,18.0,59.6,36.1
3.0,108.0,113.4,36.3,85.9,43.1
3.75,145.5,154.2,63.8,121.2,49.8
4.5,172.2,199.9,109.0,160.4,46.6
5.25,203.6,245.1,149.4,199.4,48.0
6.0,237.8,273.0,184.0,231.6,44.9
6.75,271.1,300.5,214.6,262.1,43.7
7.5,295.2,330.8,241.7,289.3,44.8
8.25,322.5,355.0,261.1,312.8,47.7
9.0,338.5,375.6,292.5,335.5,41.6
9.75,350.9,394.1,316.1,353.7,39.1
10.5,380.4,398.0,325.7,368.0,37.7
11.25,378.4,405.5,344.3,376.0,30.6
12.0,393.6,416.7,361.2,390.5,27.9
12.75,415.2,427.2,371.2,404.5,29.5
13.5,418.9,422.4,394.2,411.8,15.4
14.25,431.5,425.2,388.4,415.0,23.3
15.0,435.1,428.9,407.0,423.7,14.7
15.75,420.0,420.1,416.1,418.7,2.3
16.5,417.1,429.1,421.0,422.4,6.1
17.25,411.1,414.5,422.3,416.0,5.7
18.0,417.6,418.5,424.1,420.1,3.6
18.75,420.1,410.4,428.1,419.6,8.9
19.5,412.9,406.3,413.3,410.8,3.9
20.25,402.3,394.1,428.7,408.4,18.1
21.0,407.6,396.5,413.9,406.0,8.8
21.75,394.3,389.6,415.2,399.7,13.6
22.5,390.9,388.6,419.0,399.5,16.9
23.25,389.4,391.5,422.2,401.1,18.4
24.0,380.2,391.7,414.6,395.5,17.5
24.75,377.2,383.5,404.4,388.4,14.3
25.5,394.3,372.1,408.3,391.5,18.2
26.25,381.9,372.6,394.9,383.1,11.2
27.0,368.0,380.1,381.4,376.5,7.4
27.75,372.5,372.8,386.4,377.2,8.0
28.5,367.6,360.8,381.9,370.1,10.8
29.25,365.0,351.6,377.7,364.7,13.1
30.0,359.3,364.4,372.4,365.4,6.6
30.75,354.4,356.1,378.2,362.9,13.3
31.5,355.0,354.4,365.0,358.1,6.0
32.25,354.2,341.0,361.3,352.2,10.3
33.0,346.5,349.0,360.4,352.0,7.4
33.75,344.7,337.2,347.1,343.0,5.1
34.5,342.8,340.9,345.7,343.1,2.4
35.25,347.6,338.0,342.0,342.5,4.8
36.0,331.8,330.3,344.4,335.5,7.8
36.75,337.1,329.4,331.8,332.8,4.0
37.5,328.9,331.5,337.5,332.6,4.4
38.25,324.1,322.6,331.0,325.9,4.5
39.0,329.3,325.3,322.4,325.7,3.5
39.75,326.8,323.6,317.2,322.5,4.9
40.5,320.9,313.4,314.0,316.1,4.2
41.25,316.5,315.4,315.2,315.7,0.7
42.0,311.1,310.7,316.8,312.9,3.4
42.75,306.4,308.7,303.4,306.2,2.7
43.5,308.0,305.4,313.3,308.9,4.0
44.25,303.3,306.5,304.2,304.6,1.6
45.0,302.1,306.5,306.3,305.0,2.5
45.75,298.9,299.0,301.0,299.6,1.2
46.5,300.4,297.2,298.1,298.6,1.7
47.25,291.9,289.2,297.0,292.7,4.0
48.0,297.4,294.8,299.6,297.3,2.4
48.75,296.0,287.4,290.9,291.4,4.3
49.5,286.9,284.8,287.9,286.5,1.6
50.25,291.0,280.4,293.0,288.1,6.8
51.0,283.5,286.5,282.4,284.1,2.1
51.75,285.5,276.4,285.8,282.6,5.3
52.5,281.2,278.9,282.8,281.0,2.0
53.25,279.4,278.8,270.8,276.3,4.8
54.0,286.3,278.2,271.6,278.7,7.4
54.75,276.8,279.5,274.3,276.8,2.6
55.5,274.8,276.4,276.1,275.8,0.9
56.25,280.1,273.6,272.8,275.5,4.0
57.0,278.3,277.6,273.6,276.5,2.5
57.75,272.0,270.5,266.2,269.6,3.0
58.5,270.9,270.6,266.8,269.4,2.3
59.25,266.9,269.9,261.1,266.0,4.5
60.0,273.1,268.5,272.0,271.2,2.4
60.75,265.1,265.5,269.1,266.6,2.2
61.5,262.9,263.5,268.9,265.1,3.3
62.25,261.3,262.2,268.6,264.0,4.0
63.0,256.8,263.9,261.7,260.8,3.7
63.75,256.9,260.6,266.7,261.4,5.0
64.5,255.6,260.7,268.3,261.6,6.4
65.25,254.1,254.3,262.3,256.9,4.7
66.0,256.1,258.9,265.2,260.1,4.6
66.75,252.7,254.4,260.6,255.9,4.2
67.5,252.9,253.3,259.4,255.2,3.7
68.25,252.9,251.2,260.8,255.0,5.1
69.0,249.0,248.5,258.3,251.9,5.5
69.75,248.7,245.7,258.8,251.1,6.9
70.5,248.3,246.8,257.2,250.8,5.6
71.25,245.8,245.6,254.8,248.7,5.3
72.0,247.2,245.2,253.9,248.8,4.6
72.75,244.4,242.0,255.8,247.4,7.4
73.5,246.7,244.6,257.2,249.5,6.7
74.25,243.2,241.9,253.9,246.3,6.6
75.0,240.5,239.8,258.7,246.3,10.8
75.75,239.5,236.2,254.2,243.3,9.6
76.5,243.6,243.6,253.0,246.7,5.5
77.25,239.9,241.5,251.9,244.4,6.5
78.0,245.2,241.6,255.0,247.3,7.0
78.75,241.0,240.2,251.7,244.3,6.4
79.5,241.3,237.7,248.0,242.3,5.2
80.25,237.7,237.9,247.1,240.9,5.3
81.0,237.3,230.3,249.7,239.1,9.8
81.75,241.7,235.3,246.0,241.0,5.4
82.5,237.9,233.7,250.7,240.8,8.8
83.25,234.4,235.8,245.6,238.6,6.1
84.0,238.2,231.7,246.0,238.6,7.2
84.75,236.6,234.2,250.5,240.4,8.8
85.5,233.5,229.7,247.9,237.0,9.6
86.25,233.6,231.8,246.9,237.4,8.2
87.0,237.8,233.4,247.5,239.6,7.2
87.75,230.4,226.2,247.8,234.8,11.4
88.5,232.3,226.9,242.0,233.7,7.6
89.25,235.3,226.6,244.1,235.3,8.8
90.0,237.3,226.7,240.2,234.7,7.1
90.75,230.5,225.2,240.4,232.0,7.7
91.5,232.7,224.0,239.4,232.0,7.7
92.25,232.7,226.1,237.1,232.0,5.5
93.0,231.7,222.3,238.0,230.7,7.9
93.75,232.2,223.4,234.7,230.1,5.9
94.5,235.2,226.3,236.3,232.6,5.5
95.25,230.7,220.8,232.3,227.9,6.2
96.0,228.7,227.1,232.7,229.5,2.9
96.75,233.2,222.5,231.6,229.1,5.8
97.5,233.1,219.5,229.3,227.3,7.1
98.25,231.4,222.7,229.4,227.8,4.5
99.0,225.7,219.1,230.0,224.9,5.5
99.75,227.1,218.7,224.8,223.5,4.3
100.5,229.8,216.3,226.9,224.3,7.1
101.25,227.2,221.6,229.8,226.2,4.2
102.0,228.9,218.5,228.1,225.1,5.8
102.75,229.4,213.1,224.7,222.4,8.4
103.5,227.7,212.6,229.0,223.1,9.1
104.25,228.7,216.9,220.1,221.9,6.1
105.0,225.3,215.9,222.6,221.3,4.9
105.75,226.6,214.3,219.4,220.1,6.1
106.5,229.9,216.5,218.4,221.6,7.2
107.25,229.5,211.3,218.5,219.8,9.2
108.0,230.0,214.9,221.4,222.1,7.6
108.75,227.3,217.7,218.6,221.2,5.3
109.5,224.8,212.1,219.2,218.7,6.4
110.25,224.1,213.6,218.8,218.8,5.2
111.0,226.0,215.7,217.5,219.7,5.5
111.75,227.4,214.4,216.4,219.4,7.0
112.5,226.4,209.1,219.4,218.3,8.7
113.25,230.4,210.5,215.1,218.7,10.4
114.0,226.0,212.9,216.2,218.4,6.8
114.75,227.7,211.8,215.0,218.2,8.4
115.5,228.0,212.8,212.6,217.8,8.9
116.25,228.0,211.5,216.8,218.7,8.4
117.0,229.1,212.5,214.2,218.6,9.1
117.75,223.2,210.8,215.1,216.4,6.3
118.5,225.4,208.7,213.8,216.0,8.5
119.25,219.2,210.1,211.7,213.6,4.8
120.0,225.0,208.1,209.3,214.1,9.5
120.75,218.5,208.2,207.1,211.3,6.3
121.5,220.6,209.2,208.6,212.8,6.8
122.25,218.8,207.3,207.9,211.4,6.5
123.0,224.3,209.0,203.7,212.3,10.7
123.75,219.5,212.7,203.5,211.9,8.1
124.5,222.4,207.8,198.9,209.7,11.9
125.25,220.4,207.5,201.6,209.8,9.6
126.0,218.1,208.8,203.2,210.0,7.5
126.75,218.9,208.4,201.2,209.5,8.9
127.5,221.2,209.4,198.4,209.7,11.4
128.25,219.4,205.3,199.7,208.1,10.1
129.0,218.0,207.8,202.5,209.4,7.9
129.75,217.4,209.0,201.7,209.4,7.9
130.5,213.9,208.5,199.8,207.4,7.1
131.25,219.0,207.0,202.9,209.6,8.4
132.0,216.5,207.0,201.9,208.5,7.4
132.75,218.7,208.4,203.3,210.1,7.8
133.5,212.9,207.5,202.0,207.5,5.5
134.25,217.0,206.6,202.4,208.6,7.5
135.0,214.5,208.2,198.8,207.2,7.9
135.75,217.2,205.5,198.0,206.9,9.7
136.5,215.8,208.9,195.6,206.7,10.3
137.25,213.1,209.0,195.5,205.9,9.2
138.0,216.8,205.6,199.3,207.2,8.9
138.75,218.8,201.8,193.3,204.6,13.0
139.5,217.2,199.9,191.3,202.8,13.2
140.25,213.9,205.5,195.7,205.1,9.1
141.0,209.3,206.7,195.1,203.7,7.6
141.75,212.3,202.0,196.2,203.5,8.1
142.5,211.5,200.9,195.2,202.5,8.3
143.25,209.7,203.0,193.6,202.1,8.1
144.0,211.3,201.8,198.2,203.8,6.8
144.75,211.1,202.8,194.8,202.9,8.2
145.5,210.7,200.2,194.8,201.9,8.1
146.25,211.0,205.2,201.2,205.8,4.9
147.0,206.8,201.6,196.5,201.7,5.1
147.75,210.7,203.5,195.7,203.3,7.5
148.5,208.3,205.7,194.6,202.9,7.3
149.25,210.7,202.7,194.5,202.6,8.1
150.0,209.7,201.3,198.2,203.1,6.0
150.75,207.7,200.2,194.8,200.9,6.5
151.5,209.8,200.2,194.2,201.4,7.9
152.25,208.0,200.7,193.6,200.8,7.2
153.0,206.0,199.2,192.7,199.3,6.6
153.75,207.5,197.8,194.9,200.0,6.6
154.5,206.3,198.7,195.3,200.1,5.6
155.25,203.9,201.2,197.7,200.9,3.1
156.0,207.3,199.7,197.4,201.5,5.2
156.75,202.3,198.8,194.0,198.3,4.2
157.5,201.7,197.6,201.8,200.4,2.4
158.25,207.4,196.4,200.1,201.3,5.6
159.0,208.9,196.4,195.8,200.4,7.4
159.75,204.8,197.1,195.2,199.0,5.1
160.5,205.4,193.1,192.9,197.1,7.1
161.25,203.4,198.9,196.4,199.6,3.6
162.0,200.3,195.9,197.0,197.8,2.3
162.75,203.3,194.4,195.3,197.7,4.9
163.5,201.9,198.9,204.2,201.7,2.7
164.25,203.5,195.8,196.1,198.4,4.3
165.0,203.3,194.8,197.3,198.5,4.4
165.75,201.3,196.7,198.8,198.9,2.3
166.5,201.0,196.9,193.9,197.3,3.6
167.25,199.1,196.2,199.5,198.2,1.8
168.0,201.3,191.7,195.2,196.1,4.8
168.75,200.5,195.8,195.6,197.3,2.8
169.5,201.1,195.6,198.3,198.3,2.7
170.25,203.0,195.9,199.4,199.4,3.6
171.0,200.2,193.9,197.2,197.1,3.2
171.75,204.6,194.7,197.9,199.1,5.1
172.5,202.3,193.8,197.5,197.9,4.3
173.25,195.4,192.8,199.3,195.8,3.2
174.0,197.4,193.5,198.7,196.5,2.7
174.75,198.0,194.5,196.3,196.3,1.8
175.5,196.7,192.3,196.6,195.2,2.5
176.25,197.6,191.6,200.9,196.7,4.7
177.0,196.7,194.9,197.2,196.3,1.2
177.75,195.6,191.0,198.2,194.9,3.7
178.5,199.3,189.5,196.2,195.0,5.0
179.25,196.4,193.5,196.2,195.4,1.6
180.0,196.0,196.0,193.5,195.2,1.5
180.75,194.2,192.7,194.4,193.8,1.0
181.5,197.2,192.6,190.7,193.5,3.3
182.25,196.6,194.4,194.9,195.3,1.1
183.0,195.4,194.1,196.3,195.3,1.1
183.75,194.8,189.3,193.6,192.6,2.9
184.5,194.7,191.2,197.8,194.5,3.3
185.25,195.8,192.9,195.7,194.8,1.7
186.0,197.4,193.9,191.9,194.4,2.8
186.75,193.6,191.1,195.3,193.3,2.1
187.5,199.2,192.0,198.2,196.4,3.9
188.25,197.4,189.6,199.4,195.5,5.2
189.0,196.3,193.6,194.2,194.7,1.4
189.75,194.9,190.6,194.3,193.3,2.3
190.5,196.7,190.1,197.6,194.8,4.1
191.25,195.8,190.8,195.1,193.9,2.7
192.0,197.6,190.5,197.0,195.0,3.9
192.75,197.2,189.4,199.3,195.3,5.2
193.5,199.2,190.8,195.8,195.3,4.2
194.25,196.1,191.2,196.1,194.5,2.8
195.0,192.6,191.1,192.7,192.1,0.9
195.75,194.7,189.4,193.8,192.6,2.8
196.5,196.8,194.8,193.1,194.9,1.9
197.25,197.2,190.2,192.2,193.2,3.6
198.0,196.5,192.1,196.8,195.2,2.6
198.75,192.0,190.7,191.6,191.4,0.6
199.5,197.7,190.5,188.9,192.3,4.7
200.25,193.8,189.0,188.8,190.5,2.8
201.0,194.4,189.1,190.6,191.4,2.7
201.75,194.0,191.8,192.4,192.7,1.2
202.5,198.4,192.9,191.7,194.3,3.6
203.25,188.8,189.5,190.7,189.6,1.0
204.0,192.0,186.2,191.8,190.0,3.3
204.75,194.2,190.1,190.4,191.6,2.3
205.5,192.0,190.3,193.0,191.8,1.4
206.25,192.1,195.4,190.9,192.8,2.3
207.0,190.4,190.8,188.7,190.0,1.1
207.75,190.4,189.1,192.3,190.6,1.6
208.5,196.1,192.2,190.0,192.8,3.1
209.25,195.3,189.5,190.9,191.9,3.0
210.0,195.5,190.3,189.4,191.7,3.3
210.75,190.9,188.9,190.3,190.0,1.0
211.5,194.0,189.4,189.5,191.0,2.6
212.25,192.4,190.0,192.1,191.5,1.3
213.0,195.7,189.2,188.2,191.0,4.1
213.75,191.0,190.2,187.5,189.6,1.8
214.5,192.9,190.5,186.3,189.9,3.4
215.25,189.2,191.8,189.4,190.1,1.5
216.0,191.3,190.2,187.8,189.8,1.8
216.75,194.3,188.0,190.0,190.8,3.2
217.5,193.9,191.2,187.3,190.8,3.3
218.25,194.2,189.9,187.2,190.4,3.5
219.0,194.3,191.1,186.7,190.7,3.8
219.75,191.0,191.1,187.6,189.9,2.0
220.5,193.5,187.5,184.9,188.6,4.4
221.25,192.2,191.6,187.9,190.6,2.4
222.0,193.9,185.8,185.0,188.2,4.9
222.75,193.2,187.5,187.5,189.4,3.3
223.5,192.3,189.3,187.9,189.8,2.3
224.25,192.8,185.8,186.6,188.4,3.8
225.0,190.3,188.2,186.9,188.5,1.7
225.75,193.8,187.5,185.4,188.9,4.4
226.5,191.5,186.5,186.3,188.1,3.0
227.25,194.7,190.5,185.8,190.3,4.5
228.0,189.9,187.7,186.8,188.1,1.6
228.75,190.1,194.0,184.7,189.6,4.7
229.5,188.7,191.0,183.7,187.8,3.7
230.25,192.5,190.1,180.7,187.8,6.2
231.0,188.8,188.2,185.7,187.6,1.6
231.75,193.2,191.1,182.0,188.8,5.9
232.5,188.5,192.9,183.0,188.1,4.9
233.25,189.1,188.5,180.3,186.0,5.0
234.0,189.4,191.2,183.2,187.9,4.2
234.75,188.0,187.8,181.5,185.8,3.7
235.5,191.1,186.2,180.2,185.8,5.5
236.25,189.2,186.5,182.3,186.0,3.5
237.0,192.3,187.9,183.2,187.8,4.5
237.75,188.2,186.8,182.3,185.8,3.1
238.5,188.1,183.7,182.7,184.8,2.9
239.25,191.7,187.7,181.6,187.0,5.1
240.0,188.9,186.8,184.2,186.7,2.4
240.75,190.7,185.9,179.7,185.4,5.5
241.5,191.1,187.4,179.9,186.1,5.7
242.25,192.7,185.6,183.4,187.2,4.9
243.0,192.0,185.5,182.4,186.7,4.9
243.75,187.6,191.0,184.4,187.7,3.3
244.5,191.2,191.2,181.2,187.9,5.8
245.25,185.3,187.4,183.3,185.3,2.1
246.0,189.4,188.0,181.2,186.2,4.4
246.75,189.0,185.3,179.5,184.6,4.8
247.5,190.2,185.6,180.9,185.6,4.7
248.25,188.9,187.9,181.1,186.0,4.2
249.0,189.9,188.9,177.5,185.4,6.9
249.75,189.5,187.5,176.6,184.5,7.0
250.5,189.5,185.6,175.5,183.5,7.2
251.25,186.8,184.0,178.4,183.1,4.3
252.0,185.6,186.8,176.3,182.9,5.7
252.75,188.8,187.7,178.8,185.1,5.5
253.5,186.6,184.6,175.6,182.3,5.8
254.25,186.1,184.7,176.0,182.3,5.5
255.0,188.8,183.2,179.3,183.8,4.8
255.75,186.3,185.4,179.4,183.7,3.7
256.5,188.4,182.6,174.7,181.9,6.8
257.25,188.4,183.4,177.8,183.2,5.3
258.0,188.2,184.0,177.3,183.2,5.5
258.75,185.9,187.7,176.4,183.3,6.0
259.5,185.7,182.8,176.2,181.6,4.9
260.25,187.7,184.2,176.1,182.6,5.9
261.0,189.3,184.2,177.8,183.8,5.8
261.75,186.3,183.6,175.9,181.9,5.4
262.5,185.3,183.1,177.3,181.9,4.1
263.25,188.4,183.5,173.8,181.9,7.4
264.0,185.7,178.9,177.5,180.7,4.4
264.75,187.5,185.9,174.3,182.6,7.2
265.5,188.7,183.9,176.2,182.9,6.3
266.25,187.6,183.8,178.0,183.1,4.9
267.0,188.7,183.0,173.1,181.6,7.9
267.75,189.4,182.8,174.6,182.3,7.4
268.5,185.7,184.8,176.4,182.3,5.2
269.25,188.1,182.1,173.5,181.2,7.3
270.0,188.2,179.8,176.3,181.4,6.1
270.75,189.4,182.1,175.6,182.4,6.9
271.5,189.2,178.3,173.5,180.4,8.1
272.25,191.4,180.4,175.8,182.5,8.0
273.0,188.1,182.4,173.5,181.4,7.4
273.75,190.2,180.0,172.3,180.8,9.0
274.5,187.7,181.5,173.5,180.9,7.1
275.25,190.3,180.9,172.9,181.4,8.7
276.0,188.4,183.0,176.4,182.6,6.0
276.75,186.5,179.5,173.3,179.8,6.6
277.5,190.6,178.8,173.9,181.1,8.6
278.25,190.6,181.7,172.0,181.4,9.3
279.0,191.2,179.9,171.5,180.9,9.9
279.75,194.0,179.6,171.8,181.8,11.2
280.5,189.3,178.2,173.6,180.4,8.1
281.25,189.0,178.9,172.0,180.0,8.6
282.0,192.5,185.7,170.7,183.0,11.1
282.75,187.0,180.4,172.0,179.8,7.5
283.5,190.0,182.9,169.4,180.8,10.5
284.25,187.0,178.7,173.8,179.8,6.7
285.0,190.1,180.1,172.8,181.0,8.7
285.75,189.5,178.1,174.9,180.8,7.7
286.5,190.7,179.0,173.9,181.2,8.6
287.25,189.3,179.0,172.6,180.3,8.4
288.0,188.7,182.0,174.9,181.9,6.9
288.75,190.5,177.5,171.6,179.8,9.7
289.5,188.6,175.1,170.8,178.2,9.3
290.25,187.5,177.0,175.8,180.1,6.4
291.0,190.5,180.4,171.9,180.9,9.3
291.75,189.7,177.0,172.5,179.7,8.9
292.5,192.5,177.8,177.2,182.5,8.7
293.25,191.0,180.5,171.6,181.1,9.7
294.0,187.3,178.5,174.9,180.2,6.4
294.75,193.5,178.9,172.6,181.7,10.8
295.5,188.7,179.4,175.6,181.2,6.7
296.25,190.4,177.8,171.7,180.0,9.6
297.0,193.5,182.5,174.3,183.4,9.6
297.75,186.2,180.1,174.0,180.1,6.1
298.5,186.5,181.1,178.0,181.8,4.3
299.25,189.8,182.5,175.1,182.5,7.3
300.0,188.0,178.2,176.9,181.0,6.0
300.75,189.4,177.4,175.3,180.7,7.6
301.5,186.9,181.8,174.9,181.2,6.0
302.25,188.6,178.6,176.8,181.3,6.4
303.0,190.7,176.6,173.7,180.3,9.1
303.75,186.1,177.9,178.1,180.7,4.7
304.5,188.5,175.9,175.6,180.0,7.4
305.25,186.6,174.9,175.7,179.1,6.6
306.0,187.3,176.7,177.1,180.4,6.0
306.75,190.0,176.5,175.8,180.8,8.0
307.5,191.0,178.6,176.8,182.1,7.7
308.25,191.4,179.1,177.3,182.6,7.7
309.0,190.4,175.7,178.5,181.6,7.8
309.75,188.8,179.3,176.3,181.5,6.5
310.5,190.2,176.7,178.9,181.9,7.2
311.25,189.2,178.3,178.8,182.1,6.2
312.0,189.8,176.9,175.9,180.9,7.7
312.75,192.3,176.7,176.4,181.8,9.1
313.5,192.5,176.2,175.3,181.3,9.7
314.25,192.0,177.2,174.0,181.1,9.6
315.0,189.9,176.3,173.2,179.8,8.9
315.75,190.5,177.7,176.6,181.6,7.8
316.5,193.5,178.5,171.5,181.1,11.2
317.25,189.9,177.4,171.8,179.7,9.2
318.0,192.8,179.8,172.9,181.9,10.1
318.75,192.5,177.7,175.0,181.7,9.4
319.5,191.7,177.2,173.7,180.9,9.6
320.25,189.7,179.5,174.2,181.1,7.9
321.0,188.9,178.6,175.9,181.1,6.9
321.75,189.9,181.0,177.6,182.8,6.4
322.5,190.9,178.4,180.3,183.2,6.7
323.25,190.8,180.3,179.9,183.7,6.2
324.0,195.1,180.8,179.5,185.1,8.7
324.75,190.1,180.9,178.1,183.1,6.3
325.5,192.6,181.2,175.5,183.1,8.7
326.25,190.8,181.7,179.2,183.9,6.1
327.0,189.0,182.1,179.2,183.5,5.0
327.75,194.9,181.1,175.8,183.9,9.9
328.5,193.6,181.5,175.6,183.6,9.2
329.25,191.4,180.7,172.8,181.6,9.3
330.0,190.0,179.4,177.1,182.1,6.9
330.75,188.1,179.7,175.4,181.1,6.4
331.5,190.9,177.3,173.2,180.4,9.3
332.25,190.1,181.7,175.8,182.5,7.2
333.0,192.2,181.1,177.0,183.4,7.8
333.75,191.6,181.4,173.5,182.2,9.1
334.5,191.0,181.9,176.3,183.1,7.4
335.25,189.7,182.9,174.1,182.2,7.9
336.0,192.2,181.9,172.6,182.2,9.8
336.75,193.1,180.7,171.1,181.6,11.1
337.5,189.3,181.2,171.9,180.8,8.7
338.25,192.1,179.9,170.0,180.7,11.1
339.0,192.7,180.3,173.6,182.2,9.6
339.75,193.1,183.2,172.1,182.8,10.5
340.5,191.1,185.8,174.6,183.8,8.4
341.25,192.0,182.3,172.4,182.2,9.8
342.0,191.8,180.6,172.1,181.5,9.8
342.75,190.9,182.3,171.3,181.5,9.8
343.5,190.2,181.2,171.7,181.0,9.3
344.25,189.6,182.6,173.0,181.7,8.3
345.0,193.6,180.7,170.4,181.6,11.6
345.75,191.5,182.9,173.3,182.6,9.1
346.5,196.3,184.2,172.3,184.2,12.0
347.25,193.8,181.9,176.0,183.9,9.0
348.0,195.4,182.2,171.0,182.9,12.2
348.75,195.7,181.5,172.7,183.3,11.6
349.5,193.4,183.2,170.9,182.5,11.3
350.25,194.3,183.2,174.2,183.9,10.0
351.0,194.7,181.0,172.8,182.8,11.1
351.75,195.2,184.0,175.9,185.1,9.7
352.5,195.5,185.0,170.6,183.7,12.5
353.25,194.6,186.3,173.2,184.7,10.8
354.0,194.5,181.8,172.9,183.0,10.9
354.75,194.2,187.0,170.4,183.9,12.2
355.5,198.5,185.6,172.2,185.4,13.2
356.25,197.2,186.8,171.8,185.3,12.8
357.0,196.9,183.9,170.8,183.9,13.1
357.75,198.9,183.8,172.1,184.9,13.5
358.5,197.7,179.6,170.9,182.8,13.7
359.25,197.1,186.1,171.9,185.0,12.6
360.0,192.9,184.3,171.4,182.9,10.8
360.75,196.6,180.8,171.1,182.8,12.9
361.5,195.8,182.6,172.5,183.7,11.7
362.25,194.4,183.5,172.9,183.6,10.7
363.0,195.1,184.4,173.9,184.5,10.6
363.75,197.6,185.8,173.9,185.8,11.8
364.5,196.8,186.6,169.9,184.5,13.6
365.25,195.4,181.4,174.5,183.7,10.6
366.0,196.2,186.9,177.1,186.7,9.6
366.75,196.6,186.4,173.7,185.6,11.4
367.5,197.1,186.8,174.7,186.2,11.2
368.25,196.7,185.6,173.4,185.2,11.7
369.0,195.7,187.0,177.0,186.6,9.4
369.75,198.7,188.8,173.9,187.1,12.5
370.5,200.4,187.6,175.7,187.9,12.4
371.25,198.0,186.3,176.4,186.9,10.8
372.0,197.8,187.2,177.0,187.3,10.4
372.75,197.3,188.1,177.0,187.5,10.1
373.5,201.2,187.9,174.7,187.9,13.3
374.25,204.3,185.9,177.3,189.2,13.8
375.0,201.1,187.8,176.4,188.4,12.4
375.75,202.3,189.9,176.9,189.7,12.7
376.5,203.0,189.9,174.7,189.2,14.2
377.25,199.9,188.6,175.8,188.1,12.0
378.0,208.9,187.3,178.7,191.6,15.6
378.75,200.9,194.6,174.2,189.9,14.0
379.5,207.1,189.8,177.3,191.4,14.9
380.25,207.1,185.9,174.3,189.1,16.7
381.0,209.8,188.9,176.8,191.8,16.7
381.75,202.9,187.4,176.8,189.0,13.1
382.5,203.7,189.0,177.6,190.1,13.0
383.25,205.6,189.3,175.6,190.2,15.1
384.0,205.7,185.7,175.6,189.0,15.3
384.75,206.8,191.4,178.5,192.2,14.2
385.5,206.3,188.7,173.5,189.5,16.4
386.25,208.4,188.8,177.9,191.7,15.5
387.0,206.7,193.1,180.2,193.3,13.3
387.75,207.4,187.4,179.8,191.6,14.3
388.5,209.3,188.4,178.4,192.0,15.7
389.25,209.6,189.5,177.0,192.1,16.4
390.0,207.5,194.2,178.0,193.2,14.8
390.75,207.1,190.9,178.3,192.1,14.4
391.5,215.5,192.7,175.4,194.6,20.1
392.25,207.4,192.9,176.5,192.3,15.5
393.0,209.1,190.9,178.7,192.9,15.3
393.75,210.2,193.2,175.3,192.9,17.5
394.5,211.7,197.4,179.4,196.2,16.2
395.25,211.1,196.4,178.7,195.4,16.2
396.0,211.7,196.7,182.5,196.9,14.6
396.75,212.1,190.5,181.5,194.7,15.7
397.5,214.5,196.1,181.3,197.3,16.7
398.25,215.9,197.2,178.6,197.3,18.7
399.0,212.6,198.8,182.6,198.0,15.0
399.75,215.6,197.8,180.3,197.9,17.7
400.5,213.7,193.1,181.9,196.2,16.1
401.25,217.4,196.5,181.6,198.5,18.0
402.0,215.2,194.7,180.3,196.7,17.6
402.75,215.9,194.1,183.9,198.0,16.3
403.5,214.1,194.3,183.3,197.2,15.6
404.25,217.6,192.1,183.6,197.8,17.7
405.0,215.5,195.6,181.6,197.6,17.1
405.75,214.8,195.5,180.1,196.8,17.4
406.5,218.2,198.6,183.0,199.9,17.6
407.25,214.7,198.2,182.4,198.4,16.2
408.0,219.2,193.2,188.0,200.1,16.7
408.75,219.6,197.4,183.6,200.2,18.2
409.5,217.6,193.6,183.2,198.1,17.7
410.25,217.2,197.8,189.1,201.4,14.4
411.0,218.4,195.4,183.3,199.1,17.8
411.75,218.4,196.6,184.2,199.7,17.3
412.5,218.7,191.6,185.3,198.5,17.7
413.25,217.6,195.5,182.3,198.5,17.8
414.0,217.3,194.8,187.0,199.7,15.8
414.75,218.7,192.2,187.7,199.5,16.8
415.5,224.1,193.2,186.3,201.2,20.1
416.25,221.7,193.8,185.8,200.4,18.9
417.0,222.7,199.0,186.3,202.6,18.5
417.75,222.4,199.3,185.3,202.3,18.7
418.5,218.7,195.8,183.8,199.4,17.8
419.25,219.4,197.2,184.8,200.4,17.6
420.0,223.4,195.0,184.0,200.8,20.3
420.75,220.3,197.9,185.6,201.2,17.6
421.5,216.0,196.8,184.8,199.2,15.8
422.25,229.2,194.5,189.0,204.3,21.8
423.0,222.3,199.3,188.9,203.5,17.1
423.75,224.8,193.4,187.4,201.9,20.0
424.5,225.4,193.4,186.4,201.8,20.8
425.25,222.3,202.6,186.4,203.7,18.0
426.0,221.8,199.7,187.6,203.0,17.3
426.75,226.7,197.4,189.4,204.5,19.6
427.5,220.3,196.4,187.3,201.3,17.0
428.25,232.2,195.5,189.5,205.7,23.2
429.0,224.0,198.1,189.9,204.0,17.8
429.75,226.7,199.0,191.9,205.9,18.4
430.5,225.2,199.5,190.2,205.0,18.1
431.25,225.6,198.0,189.6,204.4,18.8
432.0,222.7,199.0,189.8,203.8,17.0
432.75,225.9,199.7,189.4,205.0,18.8
433.5,229.5,202.2,190.3,207.3,20.1
434.25,227.9,203.6,192.1,207.9,18.2
435.0,226.6,204.6,193.2,208.1,17.0
435.75,233.7,197.6,189.5,207.0,23.5
436.5,228.5,198.4,192.7,206.5,19.3
437.25,230.8,203.0,194.0,209.3,19.2
438.0,226.2,203.3,193.9,207.8,16.6
438.75,231.0,204.2,190.2,208.5,20.7
439.5,235.1,202.5,190.9,209.5,22.9
440.25,231.0,202.9,189.1,207.7,21.3
441.0,229.2,207.8,192.8,209.9,18.3
441.75,226.6,203.1,194.8,208.1,16.5
442.5,229.5,206.4,193.3,209.8,18.3
443.25,230.9,203.7,197.3,210.7,17.8
444.0,229.7,201.4,192.4,207.9,19.5
444.75,236.4,209.6,193.4,213.1,21.7
445.5,228.5,202.9,192.6,208.0,18.5
446.25,231.1,207.2,192.4,210.2,19.5
447.0,232.0,202.4,193.0,209.1,20.3
447.75,234.3,204.7,193.4,210.8,21.1
448.5,224.9,207.7,195.6,209.4,14.8
449.25,230.5,204.4,195.5,210.1,18.2
450.0,233.4,205.1,194.0,210.8,20.3
450.75,234.0,209.3,193.7,212.3,20.3
451.5,234.7,211.3,192.9,213.0,20.9
452.25,238.4,211.3,195.5,215.0,21.7
453.0,237.5,208.6,195.9,214.0,21.4
453.75,235.8,210.0,196.2,214.0,20.1
454.5,235.8,210.2,199.0,215.0,18.9
455.25,234.8,204.8,197.2,212.3,19.9
456.0,235.3,209.1,192.2,212.2,21.7
456.75,231.6,212.2,191.7,211.9,20.0
457.5,230.3,208.3,196.0,211.6,17.4
458.25,235.4,210.6,195.7,213.9,20.0
459.0,235.2,209.9,197.4,214.2,19.2
459.75,237.5,209.3,193.5,213.4,22.3
460.5,240.0,210.2,196.6,215.6,22.2
461.25,235.8,207.6,198.3,213.9,19.5
462.0,236.4,209.8,194.6,213.6,21.2
462.75,235.5,212.7,196.0,214.7,19.8
463.5,239.4,210.2,195.6,215.1,22.3
464.25,236.4,214.9,200.1,217.1,18.3
465.0,236.8,211.8,198.2,215.6,19.6
465.75,235.5,215.6,197.4,216.2,19.1
466.5,234.7,211.2,199.4,215.1,18.0
467.25,236.6,212.0,196.9,215.1,20.1
468.0,238.3,217.8,194.4,216.8,22.0
468.75,239.0,216.4,203.6,219.7,17.9
469.5,236.2,214.4,196.2,215.6,20.0
470.25,240.8,221.0,194.2,218.7,23.4
471.0,242.9,218.7,195.6,219.1,23.6
471.75,236.5,214.5,197.8,216.3,19.4
472.5,237.4,217.2,195.1,216.6,21.1
473.25,238.1,216.1,199.4,217.9,19.4
474.0,238.4,217.1,198.9,218.1,19.8
474.75,236.3,217.8,199.3,217.8,18.5
475.5,236.1,220.3,201.1,219.2,17.5
476.25,244.1,220.9,201.6,222.2,21.3
477.0,239.0,220.5,197.1,218.9,21.0
477.75,236.6,223.0,200.5,220.0,18.2
478.5,239.7,217.7,197.8,218.4,21.0
479.25,243.0,225.0,198.2,222.1,22.6
480.0,237.3,219.5,196.8,217.9,20.3
480.75,240.3,219.6,199.9,219.9,20.2
481.5,240.9,221.8,201.2,221.3,19.8
482.25,242.1,219.8,198.2,220.1,21.9
483.0,239.2,223.9,199.4,220.8,20.1
483.75,243.8,220.4,197.6,220.6,23.1
484.5,235.9,222.9,204.3,221.0,15.9
485.25,236.7,224.5,201.1,220.8,18.1
486.0,243.0,224.3,200.4,222.5,21.4
486.75,240.7,226.7,196.8,221.4,22.4
487.5,241.8,226.2,196.9,221.7,22.8
488.25,241.7,227.8,196.1,221.9,23.4
489.0,243.4,223.8,199.7,222.3,21.9
489.75,246.9,230.2,200.3,225.8,23.6
490.5,242.5,229.5,196.4,222.8,23.8
491.25,249.9,228.8,199.5,226.1,25.3
492.0,243.2,229.1,201.2,224.5,21.4
492.75,238.2,227.2,201.0,222.2,19.1
493.5,249.5,229.3,200.5,226.4,24.6
494.25,245.1,232.5,200.8,226.1,22.8
495.0,246.2,228.5,201.5,225.4,22.5
495.75,250.4,233.5,203.6,229.1,23.7
496.5,244.5,235.5,200.5,226.8,23.3
497.25,246.9,239.5,202.4,229.6,23.8
498.0,248.0,235.2,201.0,228.1,24.3
498.75,246.7,238.0,200.2,228.3,24.7
499.5,242.9,239.4,198.5,226.9,24.7
500.25,245.1,236.0,201.9,227.7,22.8
501.0,245.4,236.9,199.7,227.3,24.3
501.75,244.4,239.9,202.4,228.9,23.1
502.5,243.2,238.7,201.6,227.9,22.8
503.25,247.8,239.9,202.6,230.1,24.1
504.0,248.3,236.0,196.5,226.9,27.0
504.75,246.4,243.7,200.0,230.0,26.1
505.5,254.7,239.9,199.5,231.4,28.6
506.25,253.2,237.9,197.3,229.5,28.9
507.0,253.4,246.9,198.8,233.0,29.8
507.75,246.9,242.3,198.5,229.2,26.7
508.5,252.6,248.2,201.8,234.2,28.2
509.25,254.5,243.4,198.4,232.1,29.7
510.0,255.0,246.7,195.7,232.5,32.1
510.75,252.3,247.6,197.9,232.6,30.1
511.5,248.9,245.9,200.5,231.8,27.1
512.25,249.8,247.0,201.3,232.7,27.2
513.0,250.0,249.1,197.4,232.2,30.1
513.75,257.4,248.0,199.2,234.8,31.2
514.5,255.6,252.2,198.8,235.5,31.8
515.25,254.5,256.4,197.6,236.2,33.4
516.0,255.5,252.2,199.3,235.7,31.6
516.75,257.4,250.1,201.9,236.4,30.2
517.5,252.5,259.8,198.6,237.0,33.4
518.25,258.3,254.6,198.0,237.0,33.8
519.0,257.6,256.2,198.8,237.5,33.6
519.75,257.4,256.3,199.0,237.6,33.4
520.5,252.6,259.3,199.4,237.1,32.8
521.25,257.4,257.9,203.1,239.5,31.5
522.0,255.1,264.8,203.5,241.1,33.0
522.75,257.2,264.4,198.4,240.0,36.2
523.5,257.4,264.1,198.9,240.1,35.8
524.25,259.7,264.3,201.6,241.9,35.0
525.0,259.0,262.4,198.7,240.0,35.9
525.75,257.2,267.6,201.1,242.0,35.8
526.5,257.0,263.0,202.7,240.9,33.2
527.25,258.8,267.8,201.1,242.6,36.2
528.0,259.2,265.6,199.0,241.3,36.7
528.75,262.9,265.0,200.6,242.8,36.6
529.5,266.1,266.4,203.0,245.2,36.5
530.25,267.7,262.4,200.8,243.6,37.2
531.0,262.6,269.3,205.2,245.7,35.2
531.75,262.5,263.7,207.0,244.4,32.4
532.5,263.7,265.9,208.1,245.9,32.7
533.25,262.8,269.4,204.2,245.5,35.9
534.0,263.5,270.6,202.0,245.4,37.7
534.75,262.8,270.1,201.2,244.7,37.8
535.5,261.9,272.7,203.2,246.0,37.4
536.25,261.3,267.2,201.5,243.4,36.3
537.0,262.9,274.8,201.5,246.4,39.3
537.75,266.7,270.3,203.7,246.9,37.5
538.5,264.9,278.2,202.6,248.5,40.3
539.25,266.0,274.6,201.9,247.5,39.7
540.0,267.6,275.1,203.7,248.8,39.3
540.75,266.6,276.7,206.8,250.0,37.8
541.5,269.6,276.8,202.3,249.6,41.1
542.25,260.7,284.2,203.4,249.4,41.6
543.0,265.2,279.2,207.2,250.6,38.2
543.75,262.9,278.5,207.8,249.7,37.1
544.5,258.3,283.0,208.4,249.9,38.0
545.25,256.4,277.2,208.4,247.3,35.2
546.0,256.6,286.4,203.9,249.0,41.8
546.75,252.5,286.7,206.9,248.7,40.0
547.5,254.1,281.6,203.8,246.5,39.5
548.25,246.8,280.5,207.4,244.9,36.6
549.0,244.8,288.1,207.5,246.8,40.3
549.75,240.4,285.9,206.3,244.2,39.9
550.5,236.8,290.6,211.9,246.4,40.3
551.25,232.0,284.0,209.0,241.7,38.4
552.0,228.9,289.5,207.2,241.9,42.6
552.75,225.8,296.5,215.8,246.0,44.0
553.5,221.6,297.3,208.5,242.5,47.9
554.25,221.1,298.4,213.2,244.2,47.1
555.0,212.5,292.3,209.7,238.2,46.9
555.75,207.0,301.7,212.4,240.4,53.2
556.5,205.1,296.5,212.7,238.1,50.7
557.25,199.6,298.4,210.6,236.2,54.2
558.0,195.5,298.0,210.0,234.5,55.5
558.75,195.1,302.6,208.5,235.4,58.6
559.5,190.1,302.4,212.3,235.0,59.5
560.25,188.3,306.7,210.5,235.2,63.0
561.0,185.3,302.0,217.3,234.9,60.3
561.75,183.9,303.2,214.8,234.0,61.9
562.5,180.2,298.1,214.0,230.7,60.7
563.25,180.1,300.8,211.4,230.8,62.6
564.0,174.9,305.6,217.9,232.8,66.6
564.75,168.8,308.4,217.1,231.4,70.9
565.5,168.7,305.3,215.0,229.7,69.4
566.25,162.4,305.8,217.7,228.6,72.3
567.0,161.9,302.9,221.8,228.9,70.8
567.75,158.3,304.8,217.7,227.0,73.7
568.5,158.0,311.3,219.5,229.6,77.2
569.25,157.5,312.2,218.8,229.5,77.9
570.0,155.3,303.6,218.2,225.7,74.4
570.75,151.6,307.0,222.0,226.9,77.8
571.5,149.9,314.4,217.0,227.1,82.7
572.25,149.9,303.9,220.4,224.7,77.1
573.0,146.7,311.1,224.4,227.4,82.2
573.75,148.3,311.6,224.1,228.0,81.8
574.5,146.8,312.1,224.6,227.8,82.7
575.25,145.1,310.1,224.5,226.6,82.5
576.0,145.5,314.4,224.6,228.2,84.5
576.75,144.4,315.2,224.9,228.2,85.4
577.5,146.3,315.0,224.8,228.7,84.4
578.25,145.1,321.1,226.6,231.0,88.1
579.0,144.6,312.4,226.4,227.8,83.9
579.75,143.7,318.2,228.6,230.2,87.3
580.5,142.6,315.3,226.5,228.1,86.4
581.25,142.8,322.8,229.4,231.6,90.0
582.0,141.3,317.3,229.4,229.3,88.0
582.75,143.2,317.7,224.5,228.4,87.3
583.5,142.1,321.4,230.1,231.2,89.6
584.25,142.7,311.8,230.7,228.4,84.6
585.0,143.0,322.8,231.4,232.4,89.9
585.75,144.5,319.5,235.4,233.1,87.5
586.5,141.6,321.6,233.5,232.2,90.0
587.25,140.8,322.9,229.2,231.0,91.1
588.0,141.8,319.1,234.9,231.9,88.7
588.75,140.1,320.0,232.5,230.9,90.0
589.5,142.6,328.1,237.1,235.9,92.8
590.25,141.5,322.7,235.2,233.1,90.6
591.0,138.9,321.0,234.2,231.4,91.1
591.75,138.5,320.6,233.3,230.8,91.1
592.5,140.1,316.4,238.0,231.5,88.3
593.25,141.9,327.6,229.9,233.1,92.9
594.0,141.6,328.1,237.2,235.6,93.3
594.75,140.1,314.9,240.3,231.7,87.7
595.5,140.2,325.8,239.8,235.3,92.9
596.25,142.3,325.3,241.5,236.3,91.6
597.0,140.8,319.1,240.0,233.3,89.3
597.75,140.3,316.4,239.0,231.9,88.3
598.5,139.4,314.7,244.0,232.7,88.2
599.25,141.0,324.3,237.8,234.4,91.7
600.0,140.9,328.6,241.6,237.1,93.9
600.75,140.8,319.6,240.2,233.5,89.6
601.5,143.6,318.6,242.8,235.0,87.8
602.25,140.5,322.6,242.5,235.2,91.3
603.0,141.6,316.9,241.6,233.4,87.9
603.75,141.9,308.1,246.8,232.3,84.0
604.5,140.4,310.1,243.7,231.4,85.5
605.25,141.1,310.0,243.2,231.4,85.0
606.0,141.1,312.8,242.3,232.1,86.3
606.75,141.3,306.6,242.1,230.0,83.3
607.5,141.8,303.0,242.8,229.2,81.4
608.25,142.1,297.6,248.8,229.5,79.5
609.0,142.0,299.1,248.1,229.7,80.1
609.75,138.0,290.1,248.4,225.5,78.6
610.5,139.4,289.7,248.2,225.8,77.6
611.25,140.9,283.4,248.2,224.2,74.2
612.0,140.1,283.2,249.4,224.2,74.8
612.75,143.4,283.9,247.3,224.9,72.9
613.5,139.7,270.4,252.9,221.0,71.0
614.25,140.6,271.3,250.9,220.9,70.3
615.0,143.1,264.0,253.0,220.1,66.9
615.75,143.1,258.4,250.5,217.3,64.4
616.5,143.2,259.6,249.4,217.4,64.5
617.25,141.3,253.4,253.5,216.1,64.8
618.0,140.6,247.0,257.6,215.1,64.7
618.75,140.0,243.8,252.0,211.9,62.5
619.5,140.4,240.2,257.3,212.6,63.1
620.25,138.4,236.7,261.9,212.3,65.2
621.0,140.7,233.0,257.7,210.5,61.6
621.75,142.2,222.2,257.2,207.2,59.0
622.5,142.9,220.8,257.6,207.1,58.6
623.25,144.5,216.7,258.3,206.5,57.6
624.0,143.4,213.9,258.7,205.4,58.1
624.75,143.7,207.7,260.9,204.1,58.7
625.5,143.3,202.7,260.6,202.2,58.7
626.25,144.2,201.6,259.5,201.8,57.7
627.0,144.4,195.8,258.9,199.7,57.4
627.75,143.1,194.8,262.6,200.2,59.9
628.5,143.0,187.5,262.0,197.5,60.1
629.25,143.2,187.3,267.0,199.2,62.7
630.0,141.8,180.3,262.7,194.9,61.8
630.75,143.0,181.1,263.2,195.8,61.4
631.5,142.9,176.1,264.8,194.6,63.0
632.25,141.8,171.5,265.8,193.0,64.7
633.0,146.0,168.8,263.1,192.7,62.1
633.75,143.8,166.0,265.0,191.6,64.5
634.5,142.8,160.2,276.4,193.1,72.7
635.25,144.8,159.3,267.7,190.6,67.1
636.0,145.8,158.4,262.2,188.8,63.9
636.75,143.8,150.9,261.3,185.4,65.9
637.5,144.4,150.4,267.9,187.6,69.7
638.25,145.1,147.0,263.7,185.3,67.9
639.0,145.9,142.9,266.9,185.2,70.8
639.75,145.4,140.9,265.3,183.8,70.5
640.5,144.4,137.5,268.3,183.4,73.6
641.25,146.3,135.2,268.5,183.3,74.0
642.0,144.8,131.5,268.1,181.5,75.3
642.75,145.0,128.2,267.1,180.1,75.8
643.5,144.1,126.1,263.9,178.0,74.9
644.25,145.2,123.7,266.9,178.6,77.2
645.0,144.4,121.0,264.3,176.6,76.9
645.75,143.4,118.3,266.6,176.1,79.4
646.5,145.9,115.1,264.4,175.1,78.8
647.25,146.0,112.5,270.3,176.3,83.1
648.0,143.9,112.0,270.6,175.5,83.9
648.75,146.2,107.5,274.6,176.1,87.5
649.5,145.4,105.1,264.8,171.8,83.0
650.25,148.0,101.4,266.9,172.1,85.3
651.0,144.2,99.8,269.3,171.1,87.9
651.75,142.7,96.0,267.9,168.9,88.9
652.5,144.6,94.0,265.3,168.0,88.0
653.25,143.7,92.4,265.6,167.3,89.0
654.0,146.4,89.3,270.3,168.7,92.5
654.75,145.5,87.0,268.5,167.0,92.6
655.5,145.6,85.0,266.9,165.8,92.6
656.25,145.5,82.9,266.4,164.9,93.3
657.0,146.6,80.6,269.2,165.5,95.7
657.75,145.1,79.7,264.9,163.2,93.9
658.5,144.7,79.1,263.9,162.6,93.7
659.25,146.0,76.6,262.8,161.8,94.1
660.0,146.0,74.2,264.1,161.5,95.9
660.75,146.8,74.6,264.3,161.9,95.7
661.5,146.5,73.0,261.7,160.4,95.1
662.25,147.7,71.5,258.4,159.2,94.0
663.0,146.6,70.7,258.0,158.4,94.2
663.75,146.6,69.4,260.7,158.9,96.2
664.5,146.2,68.7,263.6,159.5,98.1
665.25,147.3,68.3,259.1,158.2,95.8
666.0,147.0,67.1,259.3,157.8,96.6
666.75,145.7,65.8,258.5,156.7,96.8
667.5,148.3,64.1,257.9,156.8,97.2
668.25,148.7,64.1,256.5,156.4,96.4
669.0,145.3,62.7,256.4,154.8,97.2
669.75,146.9,62.5,256.3,155.2,97.2
670.5,145.4,61.5,251.2,152.7,95.0
671.25,146.3,60.3,246.6,151.1,93.2
672.0,148.0,61.1,251.1,153.4,95.1
672.75,144.2,59.1,249.4,150.9,95.3
673.5,147.9,58.3,244.4,150.2,93.1
674.25,145.0,58.6,245.0,149.5,93.3
675.0,144.8,57.8,242.3,148.3,92.3
675.75,145.5,57.8,240.0,147.8,91.1
676.5,146.5,57.2,237.6,147.1,90.2
677.25,147.2,57.4,242.7,149.1,92.7
678.0,145.2,56.7,238.7,146.9,91.0
678.75,146.2,56.6,228.9,143.9,86.2
679.5,146.3,56.9,228.9,144.0,86.0
680.25,144.7,55.3,226.3,142.1,85.5
681.0,144.0,55.7,229.6,143.1,86.9
681.75,143.2,55.1,220.0,139.4,82.5
682.5,144.1,55.5,222.5,140.7,83.5
683.25,144.4,55.0,216.5,138.6,80.9
684.0,141.6,55.6,214.9,137.4,79.7
684.75,141.8,55.0,211.3,136.0,78.3
685.5,143.1,54.9,212.8,136.9,79.1
686.25,141.6,53.5,207.5,134.2,77.3
687.0,142.6,53.7,210.2,135.5,78.5
687.75,143.3,53.2,206.2,134.2,76.9
688.5,139.5,53.5,208.0,133.7,77.4
689.25,139.7,53.7,205.3,132.9,76.0
690.0,140.0,53.5,206.3,133.3,76.6
690.75,140.6,53.3,202.5,132.1,75.0
691.5,139.4,52.9,200.6,131.0,74.2
692.25,137.7,52.9,200.6,130.4,74.1
693.0,138.3,53.3,197.1,129.6,72.3
693.75,139.1,53.0,194.5,128.9,71.3
694.5,136.3,54.0,191.4,127.2,69.2
695.25,137.8,53.5,187.7,126.3,67.8
696.0,136.3,53.6,187.0,125.6,67.3
696.75,136.5,53.8,185.1,125.1,66.4
697.5,137.0,54.1,181.7,124.3,64.8
698.25,135.9,52.5,182.2,123.5,65.7
699.0,136.6,52.8,185.3,124.9,67.0
699.75,134.5,53.5,177.1,121.7,62.8
700.5,133.0,52.7,178.2,121.3,63.5
701.25,136.3,52.6,176.9,121.9,63.3
702.0,135.6,52.7,175.1,121.2,62.5
702.75,137.2,52.5,177.1,122.3,63.6
703.5,134.8,52.5,171.2,119.5,60.8
704.25,132.6,52.3,169.7,118.2,60.0
705.0,132.7,51.1,172.0,118.6,61.7
705.75,132.7,52.1,170.7,118.5,60.5
706.5,133.2,51.6,169.6,118.2,60.4
707.25,132.5,52.2,171.4,118.7,60.8
708.0,130.7,52.5,166.2,116.5,58.2
708.75,132.5,52.3,165.8,116.9,58.4
709.5,129.9,51.9,164.2,115.3,57.6
710.25,129.2,51.6,166.4,115.7,58.6
711.0,127.2,52.4,165.0,114.9,57.3
711.75,129.5,52.5,164.9,115.6,57.4
712.5,128.6,52.0,165.1,115.2,57.7
713.25,126.6,52.5,164.3,114.5,56.9
714.0,126.5,52.1,161.7,113.4,56.0
714.75,127.8,53.3,161.6,114.3,55.4
715.5,127.1,51.1,162.6,113.6,56.9
716.25,129.2,52.2,161.5,114.3,56.2
717.0,123.7,52.0,162.4,112.7,56.0
717.75,125.1,52.6,162.7,113.5,56.0
718.5,122.8,52.3,160.9,112.0,55.1
719.25,121.5,51.7,163.1,112.1,56.3
720.0,123.4,51.0,162.8,112.4,56.7
720.75,121.1,51.2,159.9,110.7,55.1
721.5,119.1,51.3,158.7,109.7,54.3
722.25,120.0,50.4,157.5,109.3,54.3
723.0,120.3,50.3,157.4,109.3,54.4
723.75,119.8,50.3,159.8,110.0,55.4
724.5,117.9,50.7,155.7,108.1,53.1
725.25,118.5,50.4,156.9,108.6,53.9
726.0,118.7,50.5,157.5,108.9,54.2
726.75,118.8,50.8,155.0,108.2,52.9
727.5,115.2,50.6,157.3,107.7,53.7
728.25,114.5,50.6,154.7,106.6,52.5
729.0,114.5,49.7,153.1,105.8,52.2
729.75,112.3,50.9,153.2,105.4,51.5
730.5,112.7,50.6,154.6,106.0,52.3
731.25,110.3,50.4,150.9,103.9,50.6
732.0,110.7,50.3,151.6,104.2,51.0
732.75,109.6,49.1,154.6,104.4,52.9
733.5,111.0,50.5,149.9,103.8,50.1
734.25,106.6,49.2,149.2,101.7,50.2
735.0,108.2,48.6,151.7,102.9,51.8
735.75,106.2,48.4,150.1,101.6,51.0
736.5,105.9,49.4,150.5,101.9,50.7
737.25,103.4,48.7,149.3,100.5,50.4
738.0,104.0,48.7,144.7,99.1,48.2
738.75,102.2,48.6,146.4,99.1,49.0
739.5,101.7,49.0,144.8,98.5,48.0
740.25,100.8,48.6,143.9,97.8,47.7
741.0,100.6,49.1,143.8,97.8,47.4
741.75,98.6,48.9,142.4,96.6,46.8
742.5,98.4,49.2,141.7,96.4,46.3
743.25,96.6,48.7,141.9,95.8,46.6
744.0,94.3,48.2,141.3,94.6,46.6
744.75,94.0,48.3,140.3,94.2,46.0
745.5,94.5,47.9,137.2,93.2,44.7
746.25,92.4,49.1,137.2,92.9,44.0
747.0,92.1,48.1,137.8,92.7,44.9
747.75,90.9,48.7,136.8,92.1,44.0
748.5,89.6,48.4,136.6,91.5,44.2
749.25,88.9,49.0,136.2,91.4,43.6
750.0,87.8,49.1,134.7,90.5,42.9
750.75,86.4,48.5,133.9,89.6,42.8
751.5,85.8,49.2,133.2,89.4,42.2
752.25,86.2,48.7,132.4,89.1,42.0
753.0,82.3,49.4,133.0,88.2,42.1
753.75,81.8,49.1,130.3,87.1,40.9
754.5,81.7,48.7,129.6,86.7,40.7
755.25,81.2,49.0,127.4,85.9,39.4
756.0,81.5,49.0,130.1,86.9,40.8
756.75,79.6,47.7,127.4,84.9,40.1
757.5,77.7,48.8,125.6,84.0,38.8
758.25,76.7,48.9,125.3,83.7,38.7
759.0,76.2,48.5,123.3,82.7,37.8
759.75,74.1,47.4,124.2,81.9,39.0
760.5,73.5,47.7,121.9,81.0,37.7
761.25,72.9,47.5,118.6,79.7,36.0
762.0,69.8,47.8,120.4,79.3,37.2
762.75,69.8,47.3,119.2,78.8,36.8
763.5,69.4,47.4,117.0,77.9,35.6
764.25,67.4,47.6,116.5,77.2,35.5
765.0,66.7,47.8,116.0,76.8,35.2
765.75,66.2,47.2,117.8,77.1,36.5
766.5,64.8,47.2,116.6,76.2,36.1
767.25,64.0,47.3,114.3,75.2,34.9
768.0,61.4,47.4,113.0,73.9,34.5
768.75,61.6,47.2,111.7,73.5,33.8
769.5,60.9,47.2,111.0,73.0,33.6
770.25,60.9,46.3,110.0,72.4,33.3
771.0,60.2,47.5,109.9,72.6,33.0
771.75,58.2,47.2,107.6,71.0,32.2
772.5,57.3,46.9,108.2,70.8,32.8
773.25,56.9,47.5,106.7,70.4,31.8
774.0,55.7,47.1,105.9,69.5,31.8
774.75,55.6,47.3,104.8,69.3,31.0
775.5,54.0,47.0,104.7,68.6,31.5
776.25,54.4,46.8,100.9,67.4,29.3
777.0,52.7,46.5,100.3,66.5,29.5
777.75,52.5,47.3,97.6,65.8,27.6
778.5,52.0,46.8,96.4,65.1,27.2
779.25,50.9,46.3,94.6,64.0,26.7
780.0,50.2,46.9,94.2,63.7,26.4
780.75,50.0,48.0,92.4,63.5,25.1
781.5,49.6,47.9,88.9,62.1,23.2
782.25,49.5,48.0,91.1,62.9,24.5
783.0,48.7,48.2,89.9,62.2,23.9
783.75,49.1,48.2,89.4,62.2,23.5
784.5,49.1,48.2,86.3,61.2,21.8
785.25,47.9,48.5,84.9,60.4,21.2
786.0,48.7,47.6,82.9,59.8,20.1
786.75,47.8,47.2,81.4,58.8,19.6
787.5,47.3,47.5,81.0,58.6,19.4
788.25,46.9,46.7,80.6,58.1,19.5
789.0,47.0,46.7,79.7,57.8,18.9
789.75,47.0,47.0,79.0,57.7,18.5
790.5,46.5,46.8,78.3,57.2,18.3
791.25,47.3,46.6,75.4,56.4,16.4
792.0,45.9,46.5,74.2,55.5,16.1
792.75,46.5,46.4,73.8,55.6,15.8
793.5,46.3,46.1,72.3,54.9,15.1
794.25,46.1,46.3,70.1,54.2,13.8
795.0,45.4,46.5,70.7,54.2,14.3
795.75,45.7,46.3,68.5,53.5,13.0
796.5,45.6,46.4,66.8,52.9,12.0
797.25,46.0,45.8,64.1,51.9,10.5
798.0,44.8,46.4,64.1,51.8,10.7
798.75,45.4,46.4,63.3,51.7,10.0
799.5,45.4,46.3,61.3,51.0,9.0
800.25,45.3,46.8,60.1,50.7,8.1
801.0,46.4,47.3,58.7,50.8,6.8
801.75,45.9,46.9,59.5,50.8,7.5
802.5,46.6,47.8,57.6,50.7,6.1
803.25,47.1,46.6,57.1,50.3,5.9
804.0,46.7,47.2,56.9,50.2,5.8
804.75,47.6,46.8,56.0,50.1,5.1
805.5,47.2,46.7,56.4,50.1,5.5
806.25,47.0,46.3,55.7,49.7,5.3
807.0,46.5,45.9,55.1,49.2,5.1
807.75,46.5,45.6,54.6,48.9,5.0
808.5,46.5,46.3,54.5,49.1,4.7
809.25,46.3,45.7,54.3,48.8,4.8
810.0,46.3,46.0,54.3,48.8,4.7
810.75,46.9,46.1,53.8,48.9,4.2
811.5,47.1,46.7,53.5,49.1,3.8
812.25,47.1,45.8,53.9,48.9,4.4
813.0,46.7,46.3,54.2,49.1,4.5
813.75,46.8,46.9,53.1,48.9,3.6
814.5,46.7,46.9,53.7,49.1,4.0
815.25,47.0,47.5,53.5,49.3,3.6
816.0,46.5,47.1,52.7,48.8,3.4
816.75,46.9,47.6,52.8,49.1,3.2
817.5,46.8,48.1,53.2,49.4,3.4
818.25,45.5,47.0,52.8,48.4,3.8
819.0,46.5,47.7,53.0,49.0,3.5
819.75,45.2,48.0,52.1,48.4,3.5
820.5,44.8,47.9,52.4,48.4,3.8
821.25,45.1,47.5,51.5,48.1,3.2
822.0,45.4,48.0,52.2,48.5,3.4
822.75,44.5,47.3,51.6,47.8,3.6
823.5,44.1,47.8,51.7,47.8,3.8
824.25,43.7,46.5,51.4,47.2,3.9
825.0,44.6,,51.0,47.8,4.6
825.75,43.6,,50.5,47.0,4.8
826.5,44.3,,50.5,47.4,4.4
827.25,43.7,,50.6,47.2,4.9
828.0,43.9,,51.4,47.6,5.3
828.75,43.5,,51.1,47.3,5.4
829.5,43.8,,51.2,47.5,5.3
830.25,43.1,,50.3,46.7,5.1
831.0,44.4,,50.6,47.5,4.3
831.75,43.4,,50.8,47.1,5.2
832.5,43.5,,50.5,47.0,4.9
833.25,44.1,,49.8,46.9,4.0
834.0,43.1,,50.3,46.7,5.1
834.75,43.9,,50.0,46.9,4.3
835.5,43.8,,50.2,47.0,4.5
836.25,43.7,,50.5,47.1,4.8
837.0,43.7,,50.4,47.1,4.7
837.75,44.0,,49.7,46.8,4.0
838.5,44.2,,49.2,46.7,3.6
839.25,43.5,,50.1,46.8,4.7
840.0,44.1,,49.8,46.9,4.0
840.75,43.5,,50.2,46.9,4.8
841.5,43.2,,50.5,46.8,5.2
842.25,43.2,,50.3,46.7,5.0
843.0,44.0,,49.4,46.7,3.9
843.75,43.9,,49.3,46.6,3.8
844.5,44.1,,49.3,46.7,3.7
845.25,44.2,,49.8,47.0,3.9
846.0,44.3,,49.5,46.9,3.7
846.75,44.5,,49.3,46.9,3.4
847.5,43.9,,49.8,46.9,4.2
848.25,44.5,,48.8,46.6,3.1
849.0,43.8,,49.3,46.5,3.9
849.75,44.1,,49.5,46.8,3.8
850.5,44.0,,48.9,46.5,3.4
851.25,43.5,,48.9,46.2,3.8
852.0,43.6,,49.2,46.4,4.0
852.75,43.2,,48.7,46.0,3.9
853.5,43.8,,49.1,46.5,3.7
854.25,43.5,,48.9,46.2,3.8
855.0,42.8,,49.3,46.0,4.6
855.75,42.4,,49.2,45.8,4.8
856.5,42.8,,49.3,46.1,4.6
857.25,42.9,,49.5,46.2,4.7
858.0,42.7,,49.7,46.2,4.9
858.75,41.9,,48.4,45.2,4.6
859.5,42.5,,48.3,45.4,4.1
860.25,43.1,,48.1,45.6,3.5
861.0,42.5,,47.9,45.2,3.9
861.75,42.7,,47.7,45.2,3.5
862.5,43.1,,47.8,45.4,3.3
863.25,42.4,,47.4,44.9,3.5
864.0,42.9,,46.9,44.9,2.9
864.75,41.8,,46.5,44.2,3.3
865.5,42.5,,46.9,44.7,3.1
866.25,42.7,,47.5,45.1,3.4
867.0,42.4,,47.1,44.7,3.3
867.75,42.3,,46.7,44.5,3.2
868.5,43.0,,46.7,44.9,2.6
869.25,43.2,,46.9,45.1,2.7
870.0,42.6,,46.9,44.8,3.0
870.75,42.8,,47.6,45.2,3.4
871.5,42.6,,47.5,45.1,3.5
872.25,42.3,,47.3,44.8,3.5
873.0,43.1,,47.7,45.4,3.2
873.75,42.4,,47.0,44.7,3.3
874.5,41.7,,46.7,44.2,3.5
875.25,42.1,,47.5,44.8,3.8
876.0,41.9,,47.2,44.5,3.8
876.75,42.1,,47.5,44.8,3.8
877.5,41.3,,47.3,44.3,4.3
878.25,41.3,,47.6,44.4,4.4
879.0,41.3,,46.9,44.1,3.9
879.75,41.8,,47.4,44.6,4.0
880.5,41.5,,47.1,44.3,3.9
881.25,42.2,,47.4,44.8,3.6
882.0,42.6,,47.1,44.9,3.2
882.75,42.4,,47.0,44.7,3.3
883.5,42.5,,46.9,44.7,3.1
884.25,42.2,,47.6,44.9,3.8
885.0,42.3,,47.6,45.0,3.7
885.75,42.1,,47.9,45.0,4.1
886.5,42.0,,47.8,44.9,4.1
887.25,42.3,,48.2,45.3,4.2
888.0,41.8,,,41.8,
888.75,42.2,,,42.2,
889.5,42.2,,,42.2,
890.25,42.2,,,42.2,
891.0,42.5,,,42.5,
891.75,42.3,,,42.3,
892.5,43.2,,,43.2,
893.25,43.3,,,43.3,
894.0,43.3,,,43.3,
894.75,43.4,,,43.4,
895.5,43.5,,,43.5,
896.25,43.0,,,43.0,
897.0,42.9,,,42.9,
897.75,43.1,,,43.1,
898.5,42.7,,,42.7,
899.25,43.4,,,43.4,
900.0,43.1,,,43.1,
900.75,43.1,,,43.1,
901.5,43.5,,,43.5,
902.25,42.5,,,42.5,
903.0,42.6,,,42.6,
903.75,43.1,,,43.1,
904.5,42.5,,,42.5,
905.25,42.9,,,42.9,
906.0,43.1,,,43.1,
906.75,42.3,,,42.3,
907.5,41.9,,,41.9,
908.25,42.4,,,42.4,
909.0,41.2,,,41.2,
909.75,41.4,,,41.4,
910.5,40.4,,,40.4,
911.25,40.3,,,40.3,
912.0,40.0,,,40.0,
912.75,40.0,,,40.0,
913.5,39.9,,,39.9,
914.25,39.5,,,39.5,
915.0,39.5,,,39.5,
915.75,39.1,,,39.1,
916.5,39.5,,,39.5,
917.25,39.7,,,39.7,
918.0,38.9,,,38.9,
918.75,39.5,,,39.5,
919.5,39.1,,,39.1,
920.25,39.6,,,39.6,