File: 01_Data/PlasticB/FTIR/IS/PlasticB_IS_S_220901_R2.dpt
7497.03,0.82779
7491.25,0.82503
7485.46,0.82898
7479.67,0.81697
7473.89,0.81858
7468.1,0.81601
7462.32,0.81935
7456.53,0.80703
7450.74,0.80348
7444.96,0.80937
7439.17,0.79582
7433.38,0.79655
7427.6,0.80167
7421.81,0.79553
7416.03,0.79437
7410.24,0.79251
7404.45,0.80053
7398.67,0.80106
7392.88,0.79963
7387.09,0.80365
7381.31,0.80253
7375.52,0.81099
7369.74,0.80029
7363.95,0.80126
7358.16,0.81082
7352.38,0.81483
7346.59,0.79485
7340.8,0.79140
7335.02,0.79610
7329.23,0.79601
7323.45,0.78351
7317.66,0.77787
7311.87,0.78185
7306.09,0.76877
7300.3,0.77175
7294.51,0.76675
7288.73,0.75834
7282.94,0.74669
7277.16,0.74346
7271.37,0.74536
7265.58,0.74113
7259.8,0.74745
7254.01,0.74039
7248.22,0.73015
7242.44,0.72528
7236.65,0.72535
7230.87,0.72621
7225.08,0.70920
7219.29,0.71636
7213.51,0.70515
7207.72,0.70235
7201.93,0.69862
7196.15,0.69393
7190.36,0.69706
7184.58,0.69098
7178.79,0.69065
7173,0.69253
7167.22,0.68452
7161.43,0.68885
7155.65,0.69366
7149.86,0.69582
7144.07,0.68980
7138.29,0.69332
7132.5,0.69493
7126.71,0.68645
7120.93,0.69032
7115.14,0.68602
7109.36,0.68132
7103.57,0.67990
7097.78,0.67276
7092,0.67101
7086.21,0.67407
7080.42,0.66302
7074.64,0.67105
7068.85,0.67082
7063.07,0.67092
7057.28,0.67422
7051.49,0.67341
7045.71,0.68184
7039.92,0.67233
7034.13,0.67735
7028.35,0.68383
7022.56,0.68516
7016.78,0.68940
7010.99,0.68705
7005.2,0.67706
6999.42,0.68689
6993.63,0.69132
6987.84,0.68898
6982.06,0.68696
6976.27,0.68642
6970.49,0.68711
6964.7,0.68627
6958.91,0.68445
6953.13,0.68940
6947.34,0.69266
6941.55,0.69764
6935.77,0.69699
6929.98,0.69410
6924.2,0.69114
6918.41,0.69927
6912.62,0.70031
6906.84,0.71215
6901.05,0.71025
6895.26,0.71001
6889.48,0.70964
6883.69,0.71777
6877.91,0.71745
6872.12,0.71917
6866.33,0.71587
6860.55,0.71875
6854.76,0.72208
6848.97,0.72079
6843.19,0.72081
6837.4,0.73017
6831.62,0.72689
6825.83,0.72407
6820.04,0.73032
6814.26,0.72713
6808.47,0.72582
6802.68,0.73163
6796.9,0.72972
6791.11,0.73227
6785.33,0.73171
6779.54,0.73528
6773.75,0.73648
6767.97,0.73654
6762.18,0.73720
6756.39,0.74042
6750.61,0.74226
6744.82,0.74109
6739.04,0.73931
6733.25,0.73620
6727.46,0.73994
6721.68,0.74630
6715.89,0.74688
6710.1,0.74918
6704.32,0.74023
6698.53,0.74371
6692.75,0.75241
6686.96,0.74955
6681.17,0.75548
6675.39,0.75894
6669.6,0.76007
6663.82,0.75718
6658.03,0.76218
6652.24,0.76410
6646.46,0.76694
6640.67,0.76416
6634.88,0.76546
6629.1,0.76799
6623.31,0.76456
6617.53,0.76563
6611.74,0.76770
6605.95,0.76620
6600.17,0.77219
6594.38,0.77038
6588.59,0.77084
6582.81,0.77114
6577.02,0.77210
6571.24,0.77366
6565.45,0.77194
6559.66,0.77643
6553.88,0.78228
6548.09,0.78136
6542.3,0.78436
6536.52,0.78227
6530.73,0.78263
6524.95,0.78597
6519.16,0.77966
6513.37,0.78333
6507.59,0.78673
6501.8,0.78942
6496.01,0.79312
6490.23,0.79475
6484.44,0.79079
6478.66,0.79256
6472.87,0.79424
6467.08,0.79534
6461.3,0.79668
6455.51,0.79534
6449.72,0.80174
6443.94,0.80083
6438.15,0.79793
6432.37,0.80094
6426.58,0.79905
6420.79,0.80162
6415.01,0.79934
6409.22,0.79610
6403.43,0.79699
6397.65,0.79657
6391.86,0.79998
6386.08,0.79174
6380.29,0.79115
6374.5,0.78792
6368.72,0.78748
6362.93,0.78426
6357.14,0.78605
6351.36,0.78095
6345.57,0.78154
6339.79,0.77792
6334,0.77922
6328.21,0.77842
6322.43,0.77838
6316.64,0.77340
6310.85,0.76940
6305.07,0.76891
6299.28,0.76361
6293.5,0.76381
6287.71,0.75915
6281.92,0.75769
6276.14,0.75887
6270.35,0.75755
6264.56,0.75247
6258.78,0.74747
6252.99,0.74175
6247.21,0.73973
6241.42,0.73780
6235.63,0.73256
6229.85,0.72752
6224.06,0.71706
6218.27,0.71024
6212.49,0.70613
6206.7,0.70013
6200.92,0.69018
6195.13,0.67658
6189.34,0.66764
6183.56,0.65636
6177.77,0.64594
6171.98,0.62363
6166.2,0.60498
6160.41,0.58229
6154.63,0.55609
6148.84,0.53185
6143.05,0.50916
6137.27,0.49413
6131.48,0.48444
6125.7,0.46850
6119.91,0.44708
6114.12,0.43422
6108.34,0.42904
6102.55,0.43136
6096.76,0.43747
6090.98,0.43658
6085.19,0.42846
6079.41,0.42428
6073.62,0.42049
6067.83,0.43122
6062.05,0.45565
6056.26,0.47151
6050.47,0.47311
6044.69,0.46493
6038.9,0.44281
6033.12,0.41826
6027.33,0.38826
6021.54,0.35643
6015.76,0.33082
6009.97,0.30488
6004.18,0.28063
5998.4,0.26153
5992.61,0.24885
5986.83,0.23313
5981.04,0.21592
5975.25,0.20474
5969.47,0.19646
5963.68,0.19116
5957.89,0.19113
5952.11,0.19258
5946.32,0.19238
5940.54,0.19147
5934.75,0.19826
5928.96,0.20268
5923.18,0.20450
5917.39,0.20851
5911.6,0.21294
5905.82,0.21583
5900.03,0.22074
5894.25,0.22610
5888.46,0.23751
5882.67,0.24970
5876.89,0.26435
5871.1,0.27720
5865.31,0.28612
5859.53,0.28844
5853.74,0.29160
5847.96,0.29238
5842.17,0.29411
5836.38,0.29276
5830.6,0.29439
5824.81,0.29913
5819.02,0.29619
5813.24,0.29854
5807.45,0.29698
5801.67,0.29489
5795.88,0.29778
5790.09,0.30020
5784.31,0.30601
5778.52,0.31513
5772.73,0.32899
5766.95,0.34244
5761.16,0.35749
5755.38,0.37302
5749.59,0.38704
5743.8,0.39478
5738.02,0.39951
5732.23,0.39883
5726.44,0.39172
5720.66,0.37770
5714.87,0.36187
5709.09,0.35126
5703.3,0.34284
5697.51,0.33803
5691.73,0.33468
5685.94,0.32911
5680.15,0.32271
5674.37,0.31891
5668.58,0.31687
5662.8,0.32016
5657.01,0.32765
5651.22,0.33549
5645.44,0.34626
5639.65,0.35558
5633.87,0.36411
5628.08,0.37047
5622.29,0.37809
5616.51,0.38221
5610.72,0.38306
5604.93,0.38304
5599.15,0.37986
5593.36,0.37668
5587.58,0.37469
5581.79,0.37486
5576,0.38184
5570.22,0.38515
5564.43,0.38769
5558.64,0.38928
5552.86,0.38689
5547.07,0.38651
5541.29,0.38654
5535.5,0.38535
5529.71,0.38573
5523.93,0.38640
5518.14,0.38926
5512.35,0.38877
5506.57,0.39078
5500.78,0.39297
5495,0.39851
5489.21,0.40521
5483.42,0.40700
5477.64,0.40910
5471.85,0.41152
5466.06,0.41147
5460.28,0.41348
5454.49,0.41413
5448.71,0.41412
5442.92,0.41269
5437.13,0.41232
5431.35,0.41141
5425.56,0.41039
5419.77,0.40932
5413.99,0.40775
5408.2,0.40619
5402.42,0.40702
5396.63,0.40494
5390.84,0.40388
5385.06,0.40362
5379.27,0.40155
5373.48,0.40095
5367.7,0.40408
5361.91,0.40525
5356.13,0.40818
5350.34,0.41213
5344.55,0.41756
5338.77,0.42101
5332.98,0.42510
5327.19,0.42760
5321.41,0.42882
5315.62,0.43114
5309.84,0.43167
5304.05,0.43303
5298.26,0.43187
5292.48,0.43246
5286.69,0.43597
5280.9,0.43531
5275.12,0.43721
5269.33,0.43463
5263.55,0.43459
5257.76,0.43483
5251.97,0.43435
5246.19,0.43529
5240.4,0.43374
5234.61,0.43330
5228.83,0.43428
5223.04,0.43661
5217.26,0.44046
5211.47,0.44209
5205.68,0.44364
5199.9,0.44574
5194.11,0.44736
5188.32,0.44833
5182.54,0.44812
5176.75,0.44813
5170.97,0.44906
5165.18,0.45061
5159.39,0.45225
5153.61,0.45276
5147.82,0.44994
5142.03,0.44929
5136.25,0.44785
5130.46,0.44545
5124.68,0.44572
5118.89,0.44568
5113.1,0.44793
5107.32,0.44847
5101.53,0.44964
5095.75,0.44962
5089.96,0.45280
5084.17,0.45288
5078.39,0.45390
5072.6,0.45209
5066.81,0.45265
5061.03,0.45311
5055.24,0.45366
5049.46,0.45199
5043.67,0.45021
5037.88,0.45208
5032.1,0.45250
5026.31,0.45354
5020.52,0.45421
5014.74,0.45430
5008.95,0.45334
5003.17,0.45196
4997.38,0.44965
4991.59,0.44690
4985.81,0.44358
4980.02,0.44168
4974.23,0.44231
4968.45,0.44373
4962.66,0.44521
4956.88,0.44385
4951.09,0.44385
4945.3,0.44293
4939.52,0.44148
4933.73,0.44076
4927.94,0.44266
4922.16,0.44255
4916.37,0.44317
4910.59,0.44244
4904.8,0.44309
4899.01,0.44127
4893.23,0.43957
4887.44,0.43568
4881.65,0.43308
4875.87,0.42905
4870.08,0.42831
4864.3,0.42730
4858.51,0.42679
4852.72,0.42407
4846.94,0.42022
4841.15,0.41510
4835.36,0.41222
4829.58,0.41217
4823.79,0.41210
4818.01,0.41457
4812.22,0.41548
4806.43,0.41524
4800.65,0.41515
4794.86,0.41398
4789.07,0.40991
4783.29,0.40492
4777.5,0.39530
4771.72,0.38656
4765.93,0.37387
4760.14,0.36812
4754.36,0.36886
4748.57,0.36826
4742.78,0.36420
4737,0.35634
4731.21,0.34641
4725.43,0.33355
4719.64,0.31472
4713.85,0.29639
4708.07,0.28404
4702.28,0.27675
4696.49,0.26658
4690.71,0.25126
4684.92,0.22007
4679.14,0.18178
4673.35,0.14858
4667.56,0.13198
4661.78,0.12795
4655.99,0.13592
4650.2,0.15094
4644.42,0.15838
4638.63,0.15417
4632.85,0.14267
4627.06,0.13343
4621.27,0.13046
4615.49,0.13034
4609.7,0.12615
4603.92,0.12746
4598.13,0.14074
4592.34,0.15726
4586.56,0.16817
4580.77,0.16443
4574.98,0.14875
4569.2,0.14495
4563.41,0.16558
4557.63,0.18694
4551.84,0.20285
4546.05,0.22218
4540.27,0.23049
4534.48,0.23210
4528.69,0.23477
4522.91,0.23803
4517.12,0.23519
4511.34,0.23414
4505.55,0.23000
4499.76,0.23265
4493.98,0.24330
4488.19,0.24650
4482.4,0.24477
4476.62,0.24811
4470.83,0.25561
4465.05,0.26163
4459.26,0.26522
4453.47,0.26174
4447.69,0.25254
4441.9,0.24075
4436.11,0.23926
4430.33,0.24051
4424.54,0.23520
4418.76,0.22773
4412.97,0.22099
4407.18,0.21262
4401.4,0.20379
4395.61,0.19555
4389.82,0.18616
4384.04,0.17563
4378.25,0.16621
4372.47,0.15774
4366.68,0.14832
4360.89,0.13926
4355.11,0.13387
4349.32,0.12791
4343.53,0.12245
4337.75,0.11983
4331.96,0.11748
4326.18,0.11872
4320.39,0.12320
4314.6,0.13052
4308.82,0.13588
4303.03,0.13703
4297.24,0.13574
4291.46,0.13307
4285.67,0.12970
4279.89,0.12388
4274.1,0.11935
4268.31,0.11354
4262.53,0.10895
4256.74,0.10491
4250.95,0.10244
4245.17,0.10361
4239.38,0.10456
4233.6,0.10571
4227.81,0.10691
4222.02,0.10761
4216.24,0.10752
4210.45,0.10715
4204.66,0.10838
4198.88,0.10974
4193.09,0.11303
4187.31,0.11626
4181.52,0.11673
4175.73,0.11829
4169.95,0.12153
4164.16,0.12312
4158.37,0.12365
4152.59,0.12339
4146.8,0.12306
4141.02,0.12201
4135.23,0.11976
4129.44,0.11731
4123.66,0.11545
4117.87,0.11252
4112.09,0.11131
4106.3,0.10906
4100.51,0.10778
4094.73,0.10592
4088.94,0.10229
4083.15,0.09829
4077.37,0.09292
4071.58,0.08925
4065.8,0.08570
4060.01,0.08309
4054.22,0.08208
4048.44,0.08204
4042.65,0.08099
4036.86,0.08016
4031.08,0.08325
4025.29,0.08675
4019.51,0.09415
4013.72,0.10324
4007.93,0.10770
4002.15,0.10732
3996.36,0.10922
3990.57,0.11570
3984.79,0.11907
3979,0.11898
3973.22,0.11892
3967.43,0.11996
3961.64,0.12218
3955.86,0.12294
3950.07,0.12303
3944.28,0.12256
3938.5,0.12072
3932.71,0.12100
3926.93,0.12150
3921.14,0.12284
3915.35,0.12472
3909.57,0.12532
3903.78,0.12518
3897.99,0.12561
3892.21,0.12661
3886.42,0.12789
3880.64,0.12863
3874.85,0.12814
3869.06,0.12740
3863.28,0.12816
3857.49,0.12828
3851.7,0.12817
3845.92,0.12659
3840.13,0.12555
3834.35,0.12409
3828.56,0.12183
3822.77,0.12041
3816.99,0.11944
3811.2,0.12001
3805.41,0.11965
3799.63,0.12045
3793.84,0.12265
3788.06,0.12604
3782.27,0.12816
3776.48,0.12941
3770.7,0.12858
3764.91,0.12724
3759.12,0.12817
3753.34,0.13103
3747.55,0.13347
3741.77,0.13350
3735.98,0.13231
3730.19,0.13023
3724.41,0.12554
3718.62,0.12362
3712.83,0.12659
3707.05,0.12391
3701.26,0.11766
3695.48,0.11769
3689.69,0.12034
3683.9,0.11770
3678.12,0.11461
3672.33,0.11358
3666.54,0.11370
3660.76,0.11034
3654.97,0.10419
3649.19,0.09818
3643.4,0.09960
3637.61,0.11011
3631.83,0.11762
3626.04,0.11402
3620.25,0.10896
3614.47,0.11865
3608.68,0.13082
3602.9,0.13551
3597.11,0.13623
3591.32,0.13498
3585.54,0.13618
3579.75,0.13887
3573.97,0.14426
3568.18,0.14851
3562.39,0.14995
3556.61,0.15021
3550.82,0.14968
3545.03,0.14831
3539.25,0.14736
3533.46,0.14593
3527.68,0.14524
3521.89,0.14443
3516.1,0.14301
3510.32,0.14176
3504.53,0.14008
3498.74,0.13840
3492.96,0.13573
3487.17,0.13400
3481.39,0.13275
3475.6,0.13055
3469.81,0.12875
3464.03,0.12746
3458.24,0.12707
3452.45,0.12501
3446.67,0.12331
3440.88,0.12162
3435.1,0.12384
3429.31,0.12785
3423.52,0.13187
3417.74,0.13414
3411.95,0.13504
3406.16,0.13443
3400.38,0.13547
3394.59,0.13584
3388.81,0.13635
3383.02,0.13586
3377.23,0.13759
3371.45,0.13966
3365.66,0.14161
3359.87,0.14165
3354.09,0.14030
3348.3,0.14035
3342.52,0.13869
3336.73,0.13614
3330.94,0.13472
3325.16,0.13258
3319.37,0.13061
3313.58,0.12550
3307.8,0.11673
3302.01,0.10659
3296.23,0.10665
3290.44,0.11293
3284.65,0.11792
3278.87,0.12037
3273.08,0.12102
3267.29,0.12052
3261.51,0.12030
3255.72,0.11947
3249.94,0.11890
3244.15,0.11731
3238.36,0.11618
3232.58,0.11460
3226.79,0.11300
3221,0.11036
3215.22,0.10753
3209.43,0.10436
3203.65,0.09963
3197.86,0.09740
3192.07,0.09786
3186.29,0.09624
3180.5,0.09450
3174.71,0.09221
3168.93,0.08711
3163.14,0.08094
3157.36,0.08186
3151.57,0.08493
3145.78,0.08349
3140,0.08340
3134.21,0.08144
3128.42,0.07899
3122.64,0.07581
3116.85,0.07192
3111.07,0.06841
3105.28,0.06651
3099.49,0.06699
3093.71,0.06610
3087.92,0.06457
3082.14,0.06501
3076.35,0.06498
3070.56,0.06490
3064.78,0.06453
3058.99,0.06586
3053.2,0.06615
3047.42,0.06559
3041.63,0.06498
3035.85,0.06417
3030.06,0.06401
3024.27,0.06645
3018.49,0.06842
3012.7,0.06823
3006.91,0.06712
3001.13,0.06702
2995.34,0.06716
2989.56,0.06753
2983.77,0.06738
2977.98,0.06662
2972.2,0.06622
2966.41,0.06598
2960.62,0.06489
2954.84,0.06437
2949.05,0.06384
2943.27,0.06346
2937.48,0.06362
2931.69,0.06381
2925.91,0.06594
2920.12,0.06843
2914.33,0.06888
2908.55,0.06905
2902.76,0.06939
2896.98,0.06887
2891.19,0.06896
2885.4,0.06844
2879.62,0.06793
2873.83,0.06833
2868.04,0.06788
2862.26,0.06750
2856.47,0.06777
2850.69,0.06863
2844.9,0.06951
2839.11,0.06875
2833.33,0.06946
2827.54,0.06963
2821.75,0.07016
2815.97,0.07043
2810.18,0.07054
2804.4,0.07070
2798.61,0.07168
2792.82,0.07238
2787.04,0.07280
2781.25,0.07311
2775.46,0.07349
2769.68,0.07421
2763.89,0.07536
2758.11,0.07584
2752.32,0.07631
2746.53,0.07710
2740.75,0.07652
2734.96,0.07600
2729.17,0.07483
2723.39,0.07470
2717.6,0.07450
2711.82,0.07457
2706.03,0.07523
2700.24,0.07492
2694.46,0.07445
2688.67,0.07491
2682.88,0.07492
2677.1,0.07436
2671.31,0.07434
2665.53,0.07474
2659.74,0.07461
2653.95,0.07463
2648.17,0.07434
2642.38,0.07418
2636.59,0.07346
2630.81,0.07362
2625.02,0.07398
2619.24,0.07469
2613.45,0.07507
2607.66,0.07385
2601.88,0.07364
2596.09,0.07443
2590.3,0.07578
2584.52,0.07433
2578.73,0.07445
2572.95,0.07571
2567.16,0.07617
2561.37,0.07631
2555.59,0.07610
2549.8,0.07515
2544.02,0.07537
2538.23,0.07623
2532.44,0.07626
2526.66,0.07608
2520.87,0.07549
2515.08,0.07530
2509.3,0.07527
2503.51,0.07558
2497.73,0.07626
2491.94,0.07650
2486.15,0.07699
2480.37,0.07749
2474.58,0.07859
2468.79,0.07966
2463.01,0.08034
2457.22,0.08059
2451.44,0.08016
2445.65,0.08081
2439.86,0.08073
2434.08,0.08095
2428.29,0.08184
2422.5,0.08206
2416.72,0.08229
2410.93,0.08138
2405.15,0.08036
2399.36,0.07971
2393.57,0.07951
2387.79,0.07935
2382,0.07899
2376.21,0.07843
2370.43,0.07775
2364.64,0.07617
2358.86,0.07556
2353.07,0.07569
2347.28,0.07450
2341.5,0.07267
2335.71,0.07150
2329.92,0.07410
2324.14,0.07643
2318.35,0.07545
2312.57,0.07335
2306.78,0.07448
2300.99,0.07747
2295.21,0.07770
2289.42,0.07758
2283.63,0.07949
2277.85,0.08014
2272.06,0.07978
2266.28,0.07876
2260.49,0.07751
2254.7,0.07700
2248.92,0.07785
2243.13,0.07889
2237.34,0.08004
2231.56,0.08019
2225.77,0.08036
2219.99,0.08122
2214.2,0.08079
2208.41,0.08089
2202.63,0.08214
2196.84,0.08226
2191.05,0.08130
2185.27,0.08030
2179.48,0.08166
2173.7,0.08289
2167.91,0.08392
2162.12,0.08431
2156.34,0.08394
2150.55,0.08407
2144.76,0.08426
2138.98,0.08506
2133.19,0.08608
2127.41,0.08622
2121.62,0.08602
2115.83,0.08613
2110.05,0.08622
2104.26,0.08729
2098.47,0.08775
2092.69,0.08817
2086.9,0.08837
2081.12,0.08811
2075.33,0.08696
2069.54,0.08589
2063.76,0.08554
2057.97,0.08535
2052.19,0.08532
2046.4,0.08506
2040.61,0.08407
2034.83,0.08281
2029.04,0.08191
2023.25,0.08151
2017.47,0.08062
2011.68,0.07888
2005.9,0.07775
2000.11,0.07671
1994.32,0.07444
1988.54,0.07138
1982.75,0.07038
1976.96,0.07026
1971.18,0.06863
1965.39,0.06727
1959.61,0.06648
1953.82,0.06639
1948.03,0.06649
1942.25,0.06625
1936.46,0.06697
1930.67,0.06769
1924.89,0.06838
1919.1,0.06907
1913.32,0.07036
1907.53,0.06977
1901.74,0.06863
1895.96,0.06733
1890.17,0.06664
1884.38,0.06613
1878.6,0.06625
1872.81,0.06623
1867.03,0.06640
1861.24,0.06704
1855.45,0.06791
1849.67,0.06879
1843.88,0.06987
1838.09,0.06934
1832.31,0.06796
1826.52,0.06718
1820.74,0.06633
1814.95,0.06582
1809.16,0.06572
1803.38,0.06569
1797.59,0.06625
1791.8,0.06668
1786.02,0.06720
1780.23,0.06744
1774.45,0.06717
1768.66,0.06711
1762.87,0.06668
1757.09,0.06589
1751.3,0.06551
1745.51,0.06565
1739.73,0.06583
1733.94,0.06617
1728.16,0.06643
1722.37,0.06698
1716.58,0.06696
1710.8,0.06700
1705.01,0.06682
1699.22,0.06656
1693.44,0.06617
1687.65,0.06571
1681.87,0.06545
1676.08,0.06540
1670.29,0.06499
1664.51,0.06540
1658.72,0.06541
1652.93,0.06580
1647.15,0.06575
1641.36,0.06537
1635.58,0.06538
1629.79,0.06516
1624,0.06472
1618.22,0.06492
1612.43,0.06363
1606.64,0.06281
1600.86,0.06477
1595.07,0.06647
1589.29,0.06555
1583.5,0.06551
1577.71,0.06587
1571.93,0.06570
1566.14,0.06612
1560.35,0.06581
1554.57,0.06466
1548.78,0.06430
1543,0.06467
1537.21,0.06470
1531.42,0.06487
1525.64,0.06422
1519.85,0.06391
1514.07,0.06291
1508.28,0.06222
1502.49,0.06056
1496.71,0.05873
1490.92,0.06798
1485.13,0.06771
1479.35,0.06591
1473.56,0.06533
1467.78,0.06380
1461.99,0.06165
1456.2,0.05959
1450.42,0.06740
1444.63,0.06883
1438.84,0.06884
1433.06,0.06817
1427.27,0.06731
1421.49,0.06687
1415.7,0.06634
1409.91,0.06606
1404.13,0.06538
1398.34,0.06566
1392.55,0.06497
1386.77,0.06434
1380.98,0.06443
1375.2,0.06475
1369.41,0.06508
1363.62,0.06538
1357.84,0.06544
1352.05,0.06516
1346.26,0.06516
1340.48,0.06535
1334.69,0.06486
1328.91,0.06487
1323.12,0.06508
1317.33,0.06489
1311.55,0.06520
1305.76,0.06527
1299.97,0.06502
1294.19,0.06554
1288.4,0.06499
1282.62,0.06527
1276.83,0.06526
1271.04,0.06517
1265.26,0.06557
1259.47,0.06547
1253.68,0.06542
1247.9,0.06517
1242.11,0.06455
1236.33,0.06474
1230.54,0.06497
1224.75,0.06472
1218.97,0.06462
1213.18,0.06461
1207.39,0.06442
1201.61,0.06410
1195.82,0.06427
1190.04,0.06393
1184.25,0.06439
1178.46,0.06512
1172.68,0.06501
1166.89,0.06470
1161.1,0.06478
1155.32,0.06465
1149.53,0.06572
1143.75,0.06633
1137.96,0.06606
1132.17,0.06582
1126.39,0.06544
1120.6,0.06533
1114.81,0.06390
1109.03,0.06384
1103.24,0.06443
1097.46,0.06423
1091.67,0.06320
1085.88,0.06333
1080.1,0.06259
1074.31,0.06262
1068.52,0.06345
1062.74,0.06476
1056.95,0.06423
1051.17,0.06449
1045.38,0.06365
1039.59,0.06305
1033.81,0.06319
1028.02,0.06482
1022.24,0.06693
1016.45,0.06667
1010.66,0.06618
1004.88,0.06510
999.09,0.06461
993.304,0.06441
987.518,0.06419
981.731,0.06390
975.945,0.06392
970.159,0.06298
964.373,0.06284
958.586,0.06361
952.8,0.06350
947.014,0.06364
941.228,0.06360
935.441,0.06330
929.655,0.06267
923.869,0.06208
918.083,0.06237
912.297,0.06184
906.51,0.06240
900.724,0.06368
894.938,0.06279
889.152,0.06353
883.365,0.06256
877.579,0.06220
871.793,0.06218
866.007,0.06213
860.22,0.06214
854.434,0.06200
848.648,0.06052
842.862,0.06080
837.075,0.06120
831.289,0.06158
825.503,0.06111
819.717,0.05999
813.931,0.05980
808.144,0.05973
802.358,0.05873
796.572,0.05821
790.786,0.05639
784.999,0.05498
779.213,0.05333
773.427,0.05288
767.641,0.05263
761.854,0.05638
756.068,0.06218
750.282,0.06455
744.496,0.06652
738.709,0.06444
732.923,0.06278
727.137,0.05921
721.351,0.05576
715.565,0.04953
709.778,0.04072
703.992,0.04830
698.206,0.11551
692.42,0.11476
686.633,0.08702
680.847,0.07911
675.061,0.07575
669.275,0.07456
663.488,0.07357
657.702,0.07158
651.916,0.06903
646.13,0.06957
640.343,0.06897
634.557,0.06845
628.771,0.06869
622.985,0.06711
617.198,0.06697
611.412,0.06728
605.626,0.06714
599.84,0.06812