File: 01_Data/PlasticB/FTIR/IS/PlasticB_IS_S_220901_R1.dpt
7497.03,0.82069
7491.25,0.82222
7485.46,0.81388
7479.67,0.81931
7473.89,0.82294
7468.1,0.81363
7462.32,0.80847
7456.53,0.79802
7450.74,0.81900
7444.96,0.81379
7439.17,0.79223
7433.38,0.80054
7427.6,0.78936
7421.81,0.80313
7416.03,0.79550
7410.24,0.78570
7404.45,0.80011
7398.67,0.79358
7392.88,0.79572
7387.09,0.80220
7381.31,0.79936
7375.52,0.80602
7369.74,0.80954
7363.95,0.80897
7358.16,0.80355
7352.38,0.80595
7346.59,0.79961
7340.8,0.80584
7335.02,0.79546
7329.23,0.78368
7323.45,0.78619
7317.66,0.78089
7311.87,0.77834
7306.09,0.76930
7300.3,0.77127
7294.51,0.76197
7288.73,0.76336
7282.94,0.75336
7277.16,0.74226
7271.37,0.74604
7265.58,0.73804
7259.8,0.73588
7254.01,0.73495
7248.22,0.72987
7242.44,0.73091
7236.65,0.72642
7230.87,0.72206
7225.08,0.71749
7219.29,0.71620
7213.51,0.71079
7207.72,0.70519
7201.93,0.69991
7196.15,0.69728
7190.36,0.69805
7184.58,0.69185
7178.79,0.68572
7173,0.69069
7167.22,0.69371
7161.43,0.69326
7155.65,0.68641
7149.86,0.69489
7144.07,0.68437
7138.29,0.68994
7132.5,0.69259
7126.71,0.69231
7120.93,0.68683
7115.14,0.68970
7109.36,0.67847
7103.57,0.68294
7097.78,0.67574
7092,0.67527
7086.21,0.66965
7080.42,0.66400
7074.64,0.66513
7068.85,0.66081
7063.07,0.67031
7057.28,0.67083
7051.49,0.67349
7045.71,0.68101
7039.92,0.68050
7034.13,0.67571
7028.35,0.67567
7022.56,0.68479
7016.78,0.68825
7010.99,0.68436
7005.2,0.68631
6999.42,0.68900
6993.63,0.68210
6987.84,0.68758
6982.06,0.67967
6976.27,0.68025
6970.49,0.68587
6964.7,0.68117
6958.91,0.68769
6953.13,0.69169
6947.34,0.69222
6941.55,0.69273
6935.77,0.69088
6929.98,0.69974
6924.2,0.70061
6918.41,0.70247
6912.62,0.69883
6906.84,0.70821
6901.05,0.71194
6895.26,0.70984
6889.48,0.71118
6883.69,0.71971
6877.91,0.72078
6872.12,0.72017
6866.33,0.71778
6860.55,0.71844
6854.76,0.72179
6848.97,0.72882
6843.19,0.72645
6837.4,0.72808
6831.62,0.72836
6825.83,0.72706
6820.04,0.72973
6814.26,0.72618
6808.47,0.72887
6802.68,0.72524
6796.9,0.73187
6791.11,0.73391
6785.33,0.73574
6779.54,0.73969
6773.75,0.73459
6767.97,0.73991
6762.18,0.73932
6756.39,0.74066
6750.61,0.74254
6744.82,0.74178
6739.04,0.74191
6733.25,0.74377
6727.46,0.74275
6721.68,0.73930
6715.89,0.74275
6710.1,0.74082
6704.32,0.74987
6698.53,0.74670
6692.75,0.75119
6686.96,0.74943
6681.17,0.75582
6675.39,0.75336
6669.6,0.75428
6663.82,0.76072
6658.03,0.76058
6652.24,0.76102
6646.46,0.76648
6640.67,0.76263
6634.88,0.76736
6629.1,0.76278
6623.31,0.76583
6617.53,0.76625
6611.74,0.76807
6605.95,0.77080
6600.17,0.76802
6594.38,0.76815
6588.59,0.77144
6582.81,0.76852
6577.02,0.77551
6571.24,0.77270
6565.45,0.77805
6559.66,0.77835
6553.88,0.78043
6548.09,0.77853
6542.3,0.77866
6536.52,0.78105
6530.73,0.77992
6524.95,0.78293
6519.16,0.78558
6513.37,0.78429
6507.59,0.78487
6501.8,0.78981
6496.01,0.79083
6490.23,0.79383
6484.44,0.79774
6478.66,0.80013
6472.87,0.79944
6467.08,0.80038
6461.3,0.80025
6455.51,0.79565
6449.72,0.79460
6443.94,0.80191
6438.15,0.79883
6432.37,0.79991
6426.58,0.79888
6420.79,0.79883
6415.01,0.80132
6409.22,0.79874
6403.43,0.79542
6397.65,0.79549
6391.86,0.79469
6386.08,0.79426
6380.29,0.78923
6374.5,0.78677
6368.72,0.78220
6362.93,0.78402
6357.14,0.77905
6351.36,0.77948
6345.57,0.78180
6339.79,0.78096
6334,0.78389
6328.21,0.78115
6322.43,0.77885
6316.64,0.77922
6310.85,0.77053
6305.07,0.76812
6299.28,0.76224
6293.5,0.76441
6287.71,0.75984
6281.92,0.76338
6276.14,0.75831
6270.35,0.75888
6264.56,0.75285
6258.78,0.75291
6252.99,0.74174
6247.21,0.73771
6241.42,0.73660
6235.63,0.72899
6229.85,0.72257
6224.06,0.71404
6218.27,0.71012
6212.49,0.70803
6206.7,0.69880
6200.92,0.69061
6195.13,0.68188
6189.34,0.66887
6183.56,0.65509
6177.77,0.64319
6171.98,0.62864
6166.2,0.60531
6160.41,0.57878
6154.63,0.55864
6148.84,0.53155
6143.05,0.50878
6137.27,0.49330
6131.48,0.48407
6125.7,0.46931
6119.91,0.44723
6114.12,0.43117
6108.34,0.42626
6102.55,0.43136
6096.76,0.43909
6090.98,0.43665
6085.19,0.43203
6079.41,0.42308
6073.62,0.42211
6067.83,0.43096
6062.05,0.45408
6056.26,0.47081
6050.47,0.47481
6044.69,0.46554
6038.9,0.44641
6033.12,0.41912
6027.33,0.38946
6021.54,0.35742
6015.76,0.32892
6009.97,0.30325
6004.18,0.28038
5998.4,0.26045
5992.61,0.24391
5986.83,0.23068
5981.04,0.21658
5975.25,0.20590
5969.47,0.19489
5963.68,0.19220
5957.89,0.19120
5952.11,0.19202
5946.32,0.18720
5940.54,0.18839
5934.75,0.19776
5928.96,0.20410
5923.18,0.20521
5917.39,0.20500
5911.6,0.21210
5905.82,0.21720
5900.03,0.22159
5894.25,0.22929
5888.46,0.23681
5882.67,0.24824
5876.89,0.26412
5871.1,0.27558
5865.31,0.28349
5859.53,0.28895
5853.74,0.29223
5847.96,0.29219
5842.17,0.29489
5836.38,0.29200
5830.6,0.29785
5824.81,0.29784
5819.02,0.29876
5813.24,0.30025
5807.45,0.29824
5801.67,0.29682
5795.88,0.29776
5790.09,0.29592
5784.31,0.30346
5778.52,0.31385
5772.73,0.33041
5766.95,0.34330
5761.16,0.35886
5755.38,0.37463
5749.59,0.38678
5743.8,0.39595
5738.02,0.39900
5732.23,0.39599
5726.44,0.38916
5720.66,0.37706
5714.87,0.36436
5709.09,0.35188
5703.3,0.34376
5697.51,0.33634
5691.73,0.33377
5685.94,0.32965
5680.15,0.32541
5674.37,0.32080
5668.58,0.31705
5662.8,0.31948
5657.01,0.32586
5651.22,0.33691
5645.44,0.34819
5639.65,0.35428
5633.87,0.36330
5628.08,0.37147
5622.29,0.37744
5616.51,0.38264
5610.72,0.38267
5604.93,0.38103
5599.15,0.38066
5593.36,0.37658
5587.58,0.37193
5581.79,0.37410
5576,0.38023
5570.22,0.38565
5564.43,0.38771
5558.64,0.38819
5552.86,0.38797
5547.07,0.38742
5541.29,0.38757
5535.5,0.38832
5529.71,0.38483
5523.93,0.38636
5518.14,0.38913
5512.35,0.39175
5506.57,0.39096
5500.78,0.39335
5495,0.39707
5489.21,0.40447
5483.42,0.40796
5477.64,0.40907
5471.85,0.41255
5466.06,0.41320
5460.28,0.41522
5454.49,0.41375
5448.71,0.41443
5442.92,0.41223
5437.13,0.40953
5431.35,0.41086
5425.56,0.40927
5419.77,0.40796
5413.99,0.40707
5408.2,0.40681
5402.42,0.40590
5396.63,0.40375
5390.84,0.40507
5385.06,0.40029
5379.27,0.40097
5373.48,0.40279
5367.7,0.40303
5361.91,0.40559
5356.13,0.40847
5350.34,0.41267
5344.55,0.41905
5338.77,0.42219
5332.98,0.42432
5327.19,0.42670
5321.41,0.42886
5315.62,0.43324
5309.84,0.43320
5304.05,0.43088
5298.26,0.43247
5292.48,0.43297
5286.69,0.43339
5280.9,0.43493
5275.12,0.43587
5269.33,0.43441
5263.55,0.43397
5257.76,0.43421
5251.97,0.43432
5246.19,0.43390
5240.4,0.43298
5234.61,0.43070
5228.83,0.43236
5223.04,0.43603
5217.26,0.44050
5211.47,0.44239
5205.68,0.44446
5199.9,0.44492
5194.11,0.44761
5188.32,0.44945
5182.54,0.44951
5176.75,0.44762
5170.97,0.44978
5165.18,0.45068
5159.39,0.45186
5153.61,0.45206
5147.82,0.44988
5142.03,0.44932
5136.25,0.44720
5130.46,0.44496
5124.68,0.44519
5118.89,0.44580
5113.1,0.44580
5107.32,0.44772
5101.53,0.44919
5095.75,0.45113
5089.96,0.45094
5084.17,0.45115
5078.39,0.45156
5072.6,0.45245
5066.81,0.45266
5061.03,0.45249
5055.24,0.45280
5049.46,0.45142
5043.67,0.45125
5037.88,0.45168
5032.1,0.45317
5026.31,0.45451
5020.52,0.45389
5014.74,0.45423
5008.95,0.45367
5003.17,0.45263
4997.38,0.45162
4991.59,0.44650
4985.81,0.44247
4980.02,0.44210
4974.23,0.44157
4968.45,0.44361
4962.66,0.44451
4956.88,0.44301
4951.09,0.44415
4945.3,0.44346
4939.52,0.44110
4933.73,0.44211
4927.94,0.44303
4922.16,0.44285
4916.37,0.44348
4910.59,0.44358
4904.8,0.44145
4899.01,0.44020
4893.23,0.43816
4887.44,0.43620
4881.65,0.43365
4875.87,0.42995
4870.08,0.42790
4864.3,0.42632
4858.51,0.42608
4852.72,0.42382
4846.94,0.41986
4841.15,0.41586
4835.36,0.41280
4829.58,0.41206
4823.79,0.41290
4818.01,0.41341
4812.22,0.41564
4806.43,0.41700
4800.65,0.41516
4794.86,0.41286
4789.07,0.41014
4783.29,0.40441
4777.5,0.39642
4771.72,0.38543
4765.93,0.37400
4760.14,0.36847
4754.36,0.36835
4748.57,0.36863
4742.78,0.36401
4737,0.35699
4731.21,0.34696
4725.43,0.33299
4719.64,0.31496
4713.85,0.29715
4708.07,0.28490
4702.28,0.27841
4696.49,0.26691
4690.71,0.24976
4684.92,0.21961
4679.14,0.18191
4673.35,0.14813
4667.56,0.13085
4661.78,0.12779
4655.99,0.13538
4650.2,0.15115
4644.42,0.15934
4638.63,0.15403
4632.85,0.14283
4627.06,0.13314
4621.27,0.13002
4615.49,0.12960
4609.7,0.12504
4603.92,0.12615
4598.13,0.14074
4592.34,0.15837
4586.56,0.16778
4580.77,0.16588
4574.98,0.14809
4569.2,0.14574
4563.41,0.16531
4557.63,0.18727
4551.84,0.20407
4546.05,0.22117
4540.27,0.23123
4534.48,0.23214
4528.69,0.23469
4522.91,0.23729
4517.12,0.23546
4511.34,0.23313
4505.55,0.22937
4499.76,0.23248
4493.98,0.24365
4488.19,0.24627
4482.4,0.24544
4476.62,0.24804
4470.83,0.25523
4465.05,0.26181
4459.26,0.26467
4453.47,0.26068
4447.69,0.25131
4441.9,0.24062
4436.11,0.23983
4430.33,0.24129
4424.54,0.23588
4418.76,0.22839
4412.97,0.22115
4407.18,0.21315
4401.4,0.20442
4395.61,0.19513
4389.82,0.18549
4384.04,0.17525
4378.25,0.16597
4372.47,0.15710
4366.68,0.14874
4360.89,0.13964
4355.11,0.13320
4349.32,0.12813
4343.53,0.12290
4337.75,0.11971
4331.96,0.11739
4326.18,0.11848
4320.39,0.12363
4314.6,0.13059
4308.82,0.13528
4303.03,0.13634
4297.24,0.13521
4291.46,0.13303
4285.67,0.12960
4279.89,0.12336
4274.1,0.11888
4268.31,0.11339
4262.53,0.10835
4256.74,0.10466
4250.95,0.10348
4245.17,0.10299
4239.38,0.10342
4233.6,0.10562
4227.81,0.10674
4222.02,0.10764
4216.24,0.10785
4210.45,0.10701
4204.66,0.10831
4198.88,0.11032
4193.09,0.11274
4187.31,0.11552
4181.52,0.11620
4175.73,0.11800
4169.95,0.12144
4164.16,0.12290
4158.37,0.12317
4152.59,0.12281
4146.8,0.12298
4141.02,0.12204
4135.23,0.11990
4129.44,0.11734
4123.66,0.11521
4117.87,0.11232
4112.09,0.11025
4106.3,0.10861
4100.51,0.10831
4094.73,0.10554
4088.94,0.10227
4083.15,0.09790
4077.37,0.09317
4071.58,0.08816
4065.8,0.08466
4060.01,0.08263
4054.22,0.08096
4048.44,0.08165
4042.65,0.08142
4036.86,0.08107
4031.08,0.08280
4025.29,0.08673
4019.51,0.09418
4013.72,0.10364
4007.93,0.10654
4002.15,0.10685
3996.36,0.10995
3990.57,0.11644
3984.79,0.11910
3979,0.11873
3973.22,0.11923
3967.43,0.12075
3961.64,0.12211
3955.86,0.12356
3950.07,0.12351
3944.28,0.12190
3938.5,0.12024
3932.71,0.12061
3926.93,0.12185
3921.14,0.12282
3915.35,0.12442
3909.57,0.12542
3903.78,0.12494
3897.99,0.12511
3892.21,0.12651
3886.42,0.12815
3880.64,0.12876
3874.85,0.12836
3869.06,0.12923
3863.28,0.12769
3857.49,0.12882
3851.7,0.12878
3845.92,0.12722
3840.13,0.12571
3834.35,0.12388
3828.56,0.12191
3822.77,0.12055
3816.99,0.11924
3811.2,0.11940
3805.41,0.11962
3799.63,0.12068
3793.84,0.12255
3788.06,0.12548
3782.27,0.12865
3776.48,0.12897
3770.7,0.12824
3764.91,0.12675
3759.12,0.12789
3753.34,0.13094
3747.55,0.13307
3741.77,0.13331
3735.98,0.13294
3730.19,0.12999
3724.41,0.12488
3718.62,0.12305
3712.83,0.12656
3707.05,0.12369
3701.26,0.11795
3695.48,0.11768
3689.69,0.11915
3683.9,0.11669
3678.12,0.11279
3672.33,0.11273
3666.54,0.11241
3660.76,0.10992
3654.97,0.10421
3649.19,0.09802
3643.4,0.09900
3637.61,0.10952
3631.83,0.11720
3626.04,0.11424
3620.25,0.10923
3614.47,0.11766
3608.68,0.13044
3602.9,0.13507
3597.11,0.13509
3591.32,0.13371
3585.54,0.13490
3579.75,0.13874
3573.97,0.14336
3568.18,0.14829
3562.39,0.14921
3556.61,0.14959
3550.82,0.14890
3545.03,0.14795
3539.25,0.14673
3533.46,0.14576
3527.68,0.14513
3521.89,0.14395
3516.1,0.14191
3510.32,0.14120
3504.53,0.14009
3498.74,0.13858
3492.96,0.13633
3487.17,0.13413
3481.39,0.13273
3475.6,0.13039
3469.81,0.12904
3464.03,0.12718
3458.24,0.12692
3452.45,0.12581
3446.67,0.12326
3440.88,0.12220
3435.1,0.12343
3429.31,0.12726
3423.52,0.13187
3417.74,0.13404
3411.95,0.13393
3406.16,0.13488
3400.38,0.13514
3394.59,0.13529
3388.81,0.13599
3383.02,0.13539
3377.23,0.13734
3371.45,0.13939
3365.66,0.14114
3359.87,0.14208
3354.09,0.14042
3348.3,0.14024
3342.52,0.13763
3336.73,0.13619
3330.94,0.13476
3325.16,0.13231
3319.37,0.13039
3313.58,0.12589
3307.8,0.11575
3302.01,0.10683
3296.23,0.10709
3290.44,0.11287
3284.65,0.11742
3278.87,0.12046
3273.08,0.12074
3267.29,0.12058
3261.51,0.11984
3255.72,0.11882
3249.94,0.11788
3244.15,0.11719
3238.36,0.11649
3232.58,0.11469
3226.79,0.11294
3221,0.11043
3215.22,0.10793
3209.43,0.10395
3203.65,0.09925
3197.86,0.09731
3192.07,0.09740
3186.29,0.09575
3180.5,0.09443
3174.71,0.09258
3168.93,0.08702
3163.14,0.08097
3157.36,0.08249
3151.57,0.08444
3145.78,0.08394
3140,0.08312
3134.21,0.08117
3128.42,0.07866
3122.64,0.07633
3116.85,0.07237
3111.07,0.06839
3105.28,0.06667
3099.49,0.06605
3093.71,0.06633
3087.92,0.06501
3082.14,0.06438
3076.35,0.06566
3070.56,0.06491
3064.78,0.06460
3058.99,0.06514
3053.2,0.06630
3047.42,0.06537
3041.63,0.06526
3035.85,0.06405
3030.06,0.06459
3024.27,0.06638
3018.49,0.06776
3012.7,0.06794
3006.91,0.06691
3001.13,0.06655
2995.34,0.06745
2989.56,0.06706
2983.77,0.06727
2977.98,0.06707
2972.2,0.06592
2966.41,0.06552
2960.62,0.06514
2954.84,0.06481
2949.05,0.06419
2943.27,0.06320
2937.48,0.06270
2931.69,0.06369
2925.91,0.06613
2920.12,0.06810
2914.33,0.06844
2908.55,0.06883
2902.76,0.06916
2896.98,0.06894
2891.19,0.06885
2885.4,0.06878
2879.62,0.06833
2873.83,0.06857
2868.04,0.06794
2862.26,0.06798
2856.47,0.06764
2850.69,0.06866
2844.9,0.06908
2839.11,0.06940
2833.33,0.06926
2827.54,0.07011
2821.75,0.07059
2815.97,0.07042
2810.18,0.07073
2804.4,0.07080
2798.61,0.07150
2792.82,0.07241
2787.04,0.07280
2781.25,0.07284
2775.46,0.07337
2769.68,0.07452
2763.89,0.07544
2758.11,0.07558
2752.32,0.07605
2746.53,0.07650
2740.75,0.07625
2734.96,0.07592
2729.17,0.07514
2723.39,0.07474
2717.6,0.07449
2711.82,0.07485
2706.03,0.07488
2700.24,0.07510
2694.46,0.07451
2688.67,0.07417
2682.88,0.07453
2677.1,0.07457
2671.31,0.07455
2665.53,0.07450
2659.74,0.07483
2653.95,0.07497
2648.17,0.07454
2642.38,0.07387
2636.59,0.07343
2630.81,0.07280
2625.02,0.07417
2619.24,0.07473
2613.45,0.07470
2607.66,0.07359
2601.88,0.07325
2596.09,0.07467
2590.3,0.07548
2584.52,0.07477
2578.73,0.07447
2572.95,0.07610
2567.16,0.07607
2561.37,0.07598
2555.59,0.07640
2549.8,0.07548
2544.02,0.07550
2538.23,0.07590
2532.44,0.07596
2526.66,0.07573
2520.87,0.07533
2515.08,0.07515
2509.3,0.07497
2503.51,0.07559
2497.73,0.07582
2491.94,0.07633
2486.15,0.07687
2480.37,0.07753
2474.58,0.07839
2468.79,0.07942
2463.01,0.08023
2457.22,0.08073
2451.44,0.08010
2445.65,0.08095
2439.86,0.08081
2434.08,0.08138
2428.29,0.08176
2422.5,0.08179
2416.72,0.08157
2410.93,0.08116
2405.15,0.08023
2399.36,0.07933
2393.57,0.07941
2387.79,0.07912
2382,0.07876
2376.21,0.07851
2370.43,0.07771
2364.64,0.07654
2358.86,0.07554
2353.07,0.07578
2347.28,0.07513
2341.5,0.07269
2335.71,0.07149
2329.92,0.07432
2324.14,0.07684
2318.35,0.07559
2312.57,0.07368
2306.78,0.07456
2300.99,0.07710
2295.21,0.07708
2289.42,0.07756
2283.63,0.07908
2277.85,0.07979
2272.06,0.07949
2266.28,0.07861
2260.49,0.07721
2254.7,0.07667
2248.92,0.07767
2243.13,0.07903
2237.34,0.08020
2231.56,0.08051
2225.77,0.08076
2219.99,0.08117
2214.2,0.08114
2208.41,0.08103
2202.63,0.08190
2196.84,0.08193
2191.05,0.08108
2185.27,0.08007
2179.48,0.08162
2173.7,0.08314
2167.91,0.08385
2162.12,0.08413
2156.34,0.08402
2150.55,0.08381
2144.76,0.08414
2138.98,0.08481
2133.19,0.08577
2127.41,0.08642
2121.62,0.08615
2115.83,0.08640
2110.05,0.08636
2104.26,0.08688
2098.47,0.08741
2092.69,0.08838
2086.9,0.08832
2081.12,0.08792
2075.33,0.08687
2069.54,0.08573
2063.76,0.08583
2057.97,0.08577
2052.19,0.08527
2046.4,0.08497
2040.61,0.08406
2034.83,0.08268
2029.04,0.08183
2023.25,0.08150
2017.47,0.08101
2011.68,0.07899
2005.9,0.07810
2000.11,0.07703
1994.32,0.07423
1988.54,0.07165
1982.75,0.07029
1976.96,0.07006
1971.18,0.06847
1965.39,0.06703
1959.61,0.06649
1953.82,0.06606
1948.03,0.06627
1942.25,0.06626
1936.46,0.06680
1930.67,0.06734
1924.89,0.06826
1919.1,0.06968
1913.32,0.07006
1907.53,0.06991
1901.74,0.06862
1895.96,0.06731
1890.17,0.06665
1884.38,0.06656
1878.6,0.06620
1872.81,0.06627
1867.03,0.06651
1861.24,0.06699
1855.45,0.06781
1849.67,0.06896
1843.88,0.06977
1838.09,0.06933
1832.31,0.06851
1826.52,0.06707
1820.74,0.06646
1814.95,0.06613
1809.16,0.06563
1803.38,0.06565
1797.59,0.06567
1791.8,0.06611
1786.02,0.06752
1780.23,0.06741
1774.45,0.06720
1768.66,0.06755
1762.87,0.06662
1757.09,0.06573
1751.3,0.06553
1745.51,0.06537
1739.73,0.06520
1733.94,0.06598
1728.16,0.06630
1722.37,0.06677
1716.58,0.06696
1710.8,0.06712
1705.01,0.06704
1699.22,0.06636
1693.44,0.06608
1687.65,0.06606
1681.87,0.06547
1676.08,0.06473
1670.29,0.06491
1664.51,0.06516
1658.72,0.06494
1652.93,0.06540
1647.15,0.06593
1641.36,0.06554
1635.58,0.06538
1629.79,0.06568
1624,0.06529
1618.22,0.06476
1612.43,0.06353
1606.64,0.06252
1600.86,0.06479
1595.07,0.06606
1589.29,0.06561
1583.5,0.06513
1577.71,0.06573
1571.93,0.06591
1566.14,0.06573
1560.35,0.06582
1554.57,0.06505
1548.78,0.06470
1543,0.06468
1537.21,0.06397
1531.42,0.06416
1525.64,0.06424
1519.85,0.06404
1514.07,0.06321
1508.28,0.06235
1502.49,0.06058
1496.71,0.05903
1490.92,0.06822
1485.13,0.06783
1479.35,0.06612
1473.56,0.06478
1467.78,0.06338
1461.99,0.06184
1456.2,0.05926
1450.42,0.06761
1444.63,0.06914
1438.84,0.06881
1433.06,0.06818
1427.27,0.06761
1421.49,0.06646
1415.7,0.06634
1409.91,0.06599
1404.13,0.06582
1398.34,0.06541
1392.55,0.06461
1386.77,0.06472
1380.98,0.06464
1375.2,0.06472
1369.41,0.06487
1363.62,0.06504
1357.84,0.06521
1352.05,0.06516
1346.26,0.06539
1340.48,0.06518
1334.69,0.06499
1328.91,0.06502
1323.12,0.06493
1317.33,0.06504
1311.55,0.06505
1305.76,0.06509
1299.97,0.06490
1294.19,0.06492
1288.4,0.06505
1282.62,0.06544
1276.83,0.06560
1271.04,0.06563
1265.26,0.06548
1259.47,0.06573
1253.68,0.06551
1247.9,0.06570
1242.11,0.06543
1236.33,0.06502
1230.54,0.06503
1224.75,0.06440
1218.97,0.06476
1213.18,0.06457
1207.39,0.06459
1201.61,0.06375
1195.82,0.06440
1190.04,0.06402
1184.25,0.06399
1178.46,0.06449
1172.68,0.06477
1166.89,0.06468
1161.1,0.06420
1155.32,0.06478
1149.53,0.06535
1143.75,0.06628
1137.96,0.06559
1132.17,0.06558
1126.39,0.06579
1120.6,0.06518
1114.81,0.06455
1109.03,0.06464
1103.24,0.06487
1097.46,0.06417
1091.67,0.06295
1085.88,0.06297
1080.1,0.06305
1074.31,0.06260
1068.52,0.06383
1062.74,0.06452
1056.95,0.06417
1051.17,0.06461
1045.38,0.06393
1039.59,0.06348
1033.81,0.06283
1028.02,0.06551
1022.24,0.06691
1016.45,0.06664
1010.66,0.06590
1004.88,0.06478
999.09,0.06437
993.304,0.06415
987.518,0.06397
981.731,0.06417
975.945,0.06349
970.159,0.06297
964.373,0.06395
958.586,0.06409
952.8,0.06404
947.014,0.06388
941.228,0.06349
935.441,0.06336
929.655,0.06287
923.869,0.06298
918.083,0.06213
912.297,0.06184
906.51,0.06308
900.724,0.06339
894.938,0.06293
889.152,0.06346
883.365,0.06261
877.579,0.06252
871.793,0.06261
866.007,0.06201
860.22,0.06196
854.434,0.06050
848.648,0.06024
842.862,0.06051
837.075,0.06045
831.289,0.06172
825.503,0.06082
819.717,0.06042
813.931,0.05939
808.144,0.05967
802.358,0.05882
796.572,0.05823
790.786,0.05688
784.999,0.05597
779.213,0.05318
773.427,0.05174
767.641,0.05237
761.854,0.05553
756.068,0.06056
750.282,0.06425
744.496,0.06666
738.709,0.06641
732.923,0.06204
727.137,0.05844
721.351,0.05519
715.565,0.04936
709.778,0.04194
703.992,0.04781
698.206,0.11440
692.42,0.11376
686.633,0.08711
680.847,0.07910
675.061,0.07543
669.275,0.07465
663.488,0.07316
657.702,0.07195
651.916,0.07247
646.13,0.07041
640.343,0.06915
634.557,0.06943
628.771,0.06691
622.985,0.06805
617.198,0.06842
611.412,0.06762
605.626,0.06606
599.84,0.06687