File: 01_Data/PlasticB/FTIR/IS/PlasticB_IS_S_220901_R7.dpt
7497.03,0.82489
7491.25,0.82931
7485.46,0.82753
7479.67,0.82772
7473.89,0.82378
7468.1,0.81790
7462.32,0.80997
7456.53,0.81281
7450.74,0.81720
7444.96,0.80860
7439.17,0.79620
7433.38,0.79632
7427.6,0.79986
7421.81,0.80099
7416.03,0.79532
7410.24,0.79209
7404.45,0.79433
7398.67,0.79435
7392.88,0.78845
7387.09,0.79581
7381.31,0.80082
7375.52,0.80680
7369.74,0.80827
7363.95,0.80403
7358.16,0.80082
7352.38,0.81390
7346.59,0.79566
7340.8,0.80057
7335.02,0.79723
7329.23,0.78788
7323.45,0.78824
7317.66,0.78107
7311.87,0.77742
7306.09,0.77629
7300.3,0.76046
7294.51,0.77372
7288.73,0.75738
7282.94,0.75797
7277.16,0.75161
7271.37,0.75082
7265.58,0.73897
7259.8,0.73512
7254.01,0.74606
7248.22,0.73390
7242.44,0.73257
7236.65,0.71995
7230.87,0.72323
7225.08,0.72026
7219.29,0.71494
7213.51,0.71675
7207.72,0.71265
7201.93,0.70430
7196.15,0.70490
7190.36,0.69546
7184.58,0.69824
7178.79,0.68927
7173,0.69250
7167.22,0.69086
7161.43,0.69531
7155.65,0.69440
7149.86,0.68923
7144.07,0.69606
7138.29,0.69224
7132.5,0.69865
7126.71,0.69045
7120.93,0.68978
7115.14,0.68393
7109.36,0.68511
7103.57,0.68644
7097.78,0.67731
7092,0.67696
7086.21,0.67084
7080.42,0.67157
7074.64,0.66969
7068.85,0.66366
7063.07,0.66756
7057.28,0.66663
7051.49,0.67335
7045.71,0.68234
7039.92,0.67756
7034.13,0.68348
7028.35,0.68320
7022.56,0.68269
7016.78,0.68257
7010.99,0.68701
7005.2,0.69024
6999.42,0.68300
6993.63,0.68665
6987.84,0.68546
6982.06,0.68627
6976.27,0.68513
6970.49,0.67951
6964.7,0.68627
6958.91,0.69395
6953.13,0.68730
6947.34,0.69163
6941.55,0.69826
6935.77,0.68750
6929.98,0.69128
6924.2,0.69485
6918.41,0.70248
6912.62,0.70674
6906.84,0.70441
6901.05,0.70316
6895.26,0.70601
6889.48,0.71258
6883.69,0.71159
6877.91,0.71295
6872.12,0.72189
6866.33,0.72262
6860.55,0.71874
6854.76,0.72302
6848.97,0.73080
6843.19,0.72845
6837.4,0.72652
6831.62,0.72423
6825.83,0.72829
6820.04,0.73041
6814.26,0.72919
6808.47,0.72836
6802.68,0.73417
6796.9,0.72878
6791.11,0.73471
6785.33,0.73470
6779.54,0.73866
6773.75,0.74037
6767.97,0.73985
6762.18,0.73222
6756.39,0.73530
6750.61,0.73310
6744.82,0.73729
6739.04,0.74391
6733.25,0.73897
6727.46,0.74323
6721.68,0.74685
6715.89,0.74467
6710.1,0.74758
6704.32,0.74164
6698.53,0.75150
6692.75,0.75409
6686.96,0.75118
6681.17,0.75160
6675.39,0.75677
6669.6,0.75067
6663.82,0.75825
6658.03,0.75828
6652.24,0.75873
6646.46,0.76322
6640.67,0.76595
6634.88,0.76699
6629.1,0.76852
6623.31,0.76480
6617.53,0.76620
6611.74,0.76628
6605.95,0.76668
6600.17,0.76419
6594.38,0.76671
6588.59,0.77176
6582.81,0.77632
6577.02,0.77528
6571.24,0.77692
6565.45,0.77660
6559.66,0.77701
6553.88,0.77690
6548.09,0.77529
6542.3,0.77822
6536.52,0.77833
6530.73,0.77765
6524.95,0.78323
6519.16,0.78397
6513.37,0.79034
6507.59,0.78595
6501.8,0.78949
6496.01,0.79201
6490.23,0.78874
6484.44,0.79126
6478.66,0.79140
6472.87,0.79241
6467.08,0.79523
6461.3,0.79650
6455.51,0.79747
6449.72,0.80096
6443.94,0.80311
6438.15,0.79622
6432.37,0.79501
6426.58,0.79685
6420.79,0.79431
6415.01,0.79558
6409.22,0.79484
6403.43,0.79796
6397.65,0.79633
6391.86,0.79184
6386.08,0.79300
6380.29,0.79060
6374.5,0.79094
6368.72,0.78344
6362.93,0.78186
6357.14,0.77911
6351.36,0.78081
6345.57,0.77919
6339.79,0.78128
6334,0.77799
6328.21,0.77550
6322.43,0.77537
6316.64,0.77332
6310.85,0.77020
6305.07,0.76787
6299.28,0.76346
6293.5,0.76184
6287.71,0.75893
6281.92,0.76243
6276.14,0.76361
6270.35,0.75752
6264.56,0.75551
6258.78,0.74753
6252.99,0.74571
6247.21,0.73590
6241.42,0.73293
6235.63,0.72666
6229.85,0.72212
6224.06,0.71418
6218.27,0.70825
6212.49,0.70708
6206.7,0.69713
6200.92,0.68785
6195.13,0.68033
6189.34,0.66650
6183.56,0.65510
6177.77,0.64269
6171.98,0.62431
6166.2,0.60325
6160.41,0.57930
6154.63,0.55654
6148.84,0.53199
6143.05,0.50848
6137.27,0.49881
6131.48,0.48754
6125.7,0.46904
6119.91,0.44666
6114.12,0.43292
6108.34,0.42681
6102.55,0.43070
6096.76,0.43604
6090.98,0.43677
6085.19,0.42938
6079.41,0.42171
6073.62,0.41851
6067.83,0.43170
6062.05,0.45349
6056.26,0.47452
6050.47,0.47267
6044.69,0.46022
6038.9,0.44173
6033.12,0.41732
6027.33,0.39041
6021.54,0.35865
6015.76,0.32965
6009.97,0.30504
6004.18,0.27917
5998.4,0.25857
5992.61,0.24644
5986.83,0.23428
5981.04,0.21372
5975.25,0.20233
5969.47,0.19500
5963.68,0.19574
5957.89,0.19238
5952.11,0.19038
5946.32,0.18943
5940.54,0.19067
5934.75,0.19530
5928.96,0.20559
5923.18,0.20633
5917.39,0.20939
5911.6,0.21306
5905.82,0.21555
5900.03,0.21891
5894.25,0.22751
5888.46,0.23639
5882.67,0.24856
5876.89,0.26522
5871.1,0.27713
5865.31,0.28508
5859.53,0.29059
5853.74,0.29330
5847.96,0.29204
5842.17,0.29252
5836.38,0.29235
5830.6,0.29655
5824.81,0.29876
5819.02,0.29690
5813.24,0.29985
5807.45,0.29747
5801.67,0.29468
5795.88,0.29644
5790.09,0.29868
5784.31,0.30671
5778.52,0.31393
5772.73,0.32676
5766.95,0.34131
5761.16,0.35532
5755.38,0.37355
5749.59,0.38669
5743.8,0.39352
5738.02,0.39880
5732.23,0.39968
5726.44,0.39016
5720.66,0.37650
5714.87,0.36217
5709.09,0.35004
5703.3,0.34091
5697.51,0.33516
5691.73,0.33413
5685.94,0.32911
5680.15,0.32510
5674.37,0.31868
5668.58,0.31633
5662.8,0.31814
5657.01,0.32437
5651.22,0.33516
5645.44,0.34547
5639.65,0.35346
5633.87,0.36347
5628.08,0.37046
5622.29,0.37551
5616.51,0.37984
5610.72,0.37998
5604.93,0.38103
5599.15,0.38052
5593.36,0.37739
5587.58,0.37056
5581.79,0.37254
5576,0.38214
5570.22,0.38652
5564.43,0.38602
5558.64,0.38774
5552.86,0.38865
5547.07,0.38814
5541.29,0.38737
5535.5,0.38554
5529.71,0.38495
5523.93,0.38670
5518.14,0.38789
5512.35,0.39170
5506.57,0.39031
5500.78,0.39239
5495,0.39705
5489.21,0.40462
5483.42,0.40874
5477.64,0.41072
5471.85,0.41132
5466.06,0.41348
5460.28,0.41483
5454.49,0.41287
5448.71,0.41321
5442.92,0.41163
5437.13,0.41027
5431.35,0.41047
5425.56,0.40990
5419.77,0.40870
5413.99,0.41067
5408.2,0.40822
5402.42,0.40557
5396.63,0.40460
5390.84,0.40291
5385.06,0.40081
5379.27,0.40018
5373.48,0.40064
5367.7,0.40384
5361.91,0.40433
5356.13,0.40870
5350.34,0.41142
5344.55,0.41796
5338.77,0.42095
5332.98,0.42361
5327.19,0.42508
5321.41,0.42892
5315.62,0.43259
5309.84,0.43314
5304.05,0.43155
5298.26,0.43147
5292.48,0.43239
5286.69,0.43493
5280.9,0.43549
5275.12,0.43712
5269.33,0.43747
5263.55,0.43623
5257.76,0.43587
5251.97,0.43555
5246.19,0.43532
5240.4,0.43423
5234.61,0.43318
5228.83,0.43414
5223.04,0.43787
5217.26,0.44015
5211.47,0.44108
5205.68,0.44381
5199.9,0.44598
5194.11,0.44562
5188.32,0.44845
5182.54,0.44889
5176.75,0.44987
5170.97,0.44987
5165.18,0.44972
5159.39,0.45055
5153.61,0.45120
5147.82,0.44930
5142.03,0.44778
5136.25,0.44545
5130.46,0.44599
5124.68,0.44630
5118.89,0.44494
5113.1,0.44648
5107.32,0.44755
5101.53,0.44984
5095.75,0.45023
5089.96,0.45181
5084.17,0.45213
5078.39,0.45234
5072.6,0.45219
5066.81,0.45248
5061.03,0.45254
5055.24,0.45203
5049.46,0.45112
5043.67,0.45051
5037.88,0.44997
5032.1,0.45135
5026.31,0.45352
5020.52,0.45473
5014.74,0.45325
5008.95,0.45311
5003.17,0.45133
4997.38,0.44874
4991.59,0.44513
4985.81,0.44242
4980.02,0.43998
4974.23,0.44119
4968.45,0.44072
4962.66,0.44358
4956.88,0.44425
4951.09,0.44433
4945.3,0.44201
4939.52,0.44119
4933.73,0.44127
4927.94,0.44156
4922.16,0.44280
4916.37,0.44187
4910.59,0.44192
4904.8,0.44209
4899.01,0.44046
4893.23,0.43730
4887.44,0.43474
4881.65,0.43265
4875.87,0.42946
4870.08,0.42735
4864.3,0.42678
4858.51,0.42591
4852.72,0.42405
4846.94,0.41977
4841.15,0.41558
4835.36,0.41249
4829.58,0.41129
4823.79,0.41134
4818.01,0.41382
4812.22,0.41431
4806.43,0.41465
4800.65,0.41458
4794.86,0.41204
4789.07,0.40907
4783.29,0.40405
4777.5,0.39640
4771.72,0.38375
4765.93,0.37232
4760.14,0.36813
4754.36,0.36842
4748.57,0.36766
4742.78,0.36232
4737,0.35556
4731.21,0.34670
4725.43,0.33250
4719.64,0.31540
4713.85,0.29629
4708.07,0.28436
4702.28,0.27679
4696.49,0.26753
4690.71,0.24960
4684.92,0.21905
4679.14,0.18222
4673.35,0.14878
4667.56,0.13094
4661.78,0.12894
4655.99,0.13562
4650.2,0.15046
4644.42,0.15847
4638.63,0.15395
4632.85,0.14319
4627.06,0.13279
4621.27,0.12958
4615.49,0.12955
4609.7,0.12542
4603.92,0.12679
4598.13,0.14067
4592.34,0.15730
4586.56,0.16792
4580.77,0.16449
4574.98,0.14714
4569.2,0.14455
4563.41,0.16489
4557.63,0.18672
4551.84,0.20385
4546.05,0.22126
4540.27,0.23118
4534.48,0.23228
4528.69,0.23462
4522.91,0.23755
4517.12,0.23510
4511.34,0.23352
4505.55,0.22910
4499.76,0.23166
4493.98,0.24368
4488.19,0.24590
4482.4,0.24468
4476.62,0.24717
4470.83,0.25597
4465.05,0.26033
4459.26,0.26435
4453.47,0.26115
4447.69,0.25145
4441.9,0.24075
4436.11,0.23895
4430.33,0.24056
4424.54,0.23575
4418.76,0.22781
4412.97,0.21965
4407.18,0.21195
4401.4,0.20389
4395.61,0.19484
4389.82,0.18525
4384.04,0.17462
4378.25,0.16656
4372.47,0.15751
4366.68,0.14804
4360.89,0.13894
4355.11,0.13227
4349.32,0.12725
4343.53,0.12356
4337.75,0.11946
4331.96,0.11734
4326.18,0.11894
4320.39,0.12353
4314.6,0.13027
4308.82,0.13630
4303.03,0.13697
4297.24,0.13518
4291.46,0.13323
4285.67,0.12944
4279.89,0.12364
4274.1,0.11870
4268.31,0.11342
4262.53,0.10829
4256.74,0.10392
4250.95,0.10271
4245.17,0.10274
4239.38,0.10494
4233.6,0.10528
4227.81,0.10712
4222.02,0.10748
4216.24,0.10720
4210.45,0.10725
4204.66,0.10714
4198.88,0.11042
4193.09,0.11301
4187.31,0.11548
4181.52,0.11625
4175.73,0.11815
4169.95,0.12103
4164.16,0.12275
4158.37,0.12245
4152.59,0.12271
4146.8,0.12302
4141.02,0.12239
4135.23,0.11928
4129.44,0.11751
4123.66,0.11452
4117.87,0.11237
4112.09,0.11079
4106.3,0.10860
4100.51,0.10747
4094.73,0.10605
4088.94,0.10202
4083.15,0.09807
4077.37,0.09308
4071.58,0.08893
4065.8,0.08459
4060.01,0.08264
4054.22,0.08118
4048.44,0.08181
4042.65,0.08167
4036.86,0.08088
4031.08,0.08224
4025.29,0.08714
4019.51,0.09371
4013.72,0.10311
4007.93,0.10711
4002.15,0.10690
3996.36,0.10969
3990.57,0.11582
3984.79,0.11895
3979,0.11862
3973.22,0.11907
3967.43,0.12060
3961.64,0.12182
3955.86,0.12281
3950.07,0.12305
3944.28,0.12236
3938.5,0.12026
3932.71,0.12088
3926.93,0.12169
3921.14,0.12257
3915.35,0.12335
3909.57,0.12467
3903.78,0.12471
3897.99,0.12496
3892.21,0.12655
3886.42,0.12750
3880.64,0.12855
3874.85,0.12879
3869.06,0.12856
3863.28,0.12877
3857.49,0.12833
3851.7,0.12877
3845.92,0.12687
3840.13,0.12579
3834.35,0.12408
3828.56,0.12294
3822.77,0.12111
3816.99,0.11967
3811.2,0.11901
3805.41,0.11941
3799.63,0.12013
3793.84,0.12303
3788.06,0.12603
3782.27,0.12823
3776.48,0.12896
3770.7,0.12848
3764.91,0.12731
3759.12,0.12871
3753.34,0.13076
3747.55,0.13286
3741.77,0.13337
3735.98,0.13285
3730.19,0.13016
3724.41,0.12553
3718.62,0.12382
3712.83,0.12789
3707.05,0.12400
3701.26,0.11844
3695.48,0.11904
3689.69,0.12221
3683.9,0.12041
3678.12,0.11644
3672.33,0.11638
3666.54,0.11596
3660.76,0.11282
3654.97,0.10483
3649.19,0.09836
3643.4,0.09923
3637.61,0.10993
3631.83,0.11781
3626.04,0.11425
3620.25,0.10891
3614.47,0.11778
3608.68,0.13120
3602.9,0.13701
3597.11,0.13725
3591.32,0.13694
3585.54,0.13896
3579.75,0.14194
3573.97,0.14605
3568.18,0.14944
3562.39,0.15073
3556.61,0.15038
3550.82,0.15014
3545.03,0.14920
3539.25,0.14753
3533.46,0.14656
3527.68,0.14556
3521.89,0.14411
3516.1,0.14214
3510.32,0.14158
3504.53,0.14029
3498.74,0.13865
3492.96,0.13681
3487.17,0.13435
3481.39,0.13254
3475.6,0.13044
3469.81,0.12905
3464.03,0.12803
3458.24,0.12709
3452.45,0.12644
3446.67,0.12350
3440.88,0.12159
3435.1,0.12401
3429.31,0.12802
3423.52,0.13141
3417.74,0.13349
3411.95,0.13482
3406.16,0.13493
3400.38,0.13584
3394.59,0.13633
3388.81,0.13661
3383.02,0.13662
3377.23,0.13746
3371.45,0.14044
3365.66,0.14210
3359.87,0.14245
3354.09,0.14161
3348.3,0.13962
3342.52,0.13804
3336.73,0.13616
3330.94,0.13419
3325.16,0.13327
3319.37,0.13125
3313.58,0.12597
3307.8,0.11660
3302.01,0.10686
3296.23,0.10681
3290.44,0.11301
3284.65,0.11769
3278.87,0.11987
3273.08,0.12100
3267.29,0.12067
3261.51,0.12061
3255.72,0.11970
3249.94,0.11800
3244.15,0.11742
3238.36,0.11535
3232.58,0.11488
3226.79,0.11266
3221,0.11048
3215.22,0.10736
3209.43,0.10354
3203.65,0.09941
3197.86,0.09758
3192.07,0.09735
3186.29,0.09664
3180.5,0.09471
3174.71,0.09273
3168.93,0.08664
3163.14,0.08068
3157.36,0.08328
3151.57,0.08478
3145.78,0.08444
3140,0.08250
3134.21,0.08125
3128.42,0.07889
3122.64,0.07651
3116.85,0.07235
3111.07,0.06865
3105.28,0.06616
3099.49,0.06654
3093.71,0.06584
3087.92,0.06491
3082.14,0.06432
3076.35,0.06552
3070.56,0.06515
3064.78,0.06407
3058.99,0.06501
3053.2,0.06547
3047.42,0.06597
3041.63,0.06501
3035.85,0.06372
3030.06,0.06359
3024.27,0.06652
3018.49,0.06781
3012.7,0.06768
3006.91,0.06700
3001.13,0.06676
2995.34,0.06695
2989.56,0.06736
2983.77,0.06737
2977.98,0.06669
2972.2,0.06654
2966.41,0.06567
2960.62,0.06551
2954.84,0.06456
2949.05,0.06377
2943.27,0.06289
2937.48,0.06314
2931.69,0.06378
2925.91,0.06598
2920.12,0.06753
2914.33,0.06825
2908.55,0.06935
2902.76,0.06889
2896.98,0.06849
2891.19,0.06807
2885.4,0.06852
2879.62,0.06821
2873.83,0.06779
2868.04,0.06764
2862.26,0.06718
2856.47,0.06769
2850.69,0.06741
2844.9,0.06868
2839.11,0.06930
2833.33,0.06861
2827.54,0.06919
2821.75,0.06996
2815.97,0.07063
2810.18,0.07104
2804.4,0.07132
2798.61,0.07176
2792.82,0.07266
2787.04,0.07289
2781.25,0.07330
2775.46,0.07360
2769.68,0.07427
2763.89,0.07495
2758.11,0.07605
2752.32,0.07638
2746.53,0.07607
2740.75,0.07587
2734.96,0.07528
2729.17,0.07518
2723.39,0.07509
2717.6,0.07492
2711.82,0.07502
2706.03,0.07472
2700.24,0.07471
2694.46,0.07476
2688.67,0.07488
2682.88,0.07433
2677.1,0.07459
2671.31,0.07439
2665.53,0.07458
2659.74,0.07481
2653.95,0.07430
2648.17,0.07413
2642.38,0.07394
2636.59,0.07339
2630.81,0.07273
2625.02,0.07369
2619.24,0.07483
2613.45,0.07472
2607.66,0.07397
2601.88,0.07337
2596.09,0.07455
2590.3,0.07542
2584.52,0.07447
2578.73,0.07429
2572.95,0.07554
2567.16,0.07606
2561.37,0.07590
2555.59,0.07575
2549.8,0.07522
2544.02,0.07527
2538.23,0.07602
2532.44,0.07582
2526.66,0.07574
2520.87,0.07561
2515.08,0.07505
2509.3,0.07489
2503.51,0.07497
2497.73,0.07573
2491.94,0.07635
2486.15,0.07688
2480.37,0.07729
2474.58,0.07810
2468.79,0.07925
2463.01,0.08027
2457.22,0.08001
2451.44,0.08019
2445.65,0.08040
2439.86,0.08068
2434.08,0.08122
2428.29,0.08179
2422.5,0.08193
2416.72,0.08157
2410.93,0.08152
2405.15,0.08009
2399.36,0.07926
2393.57,0.07875
2387.79,0.07888
2382,0.07871
2376.21,0.07861
2370.43,0.07763
2364.64,0.07600
2358.86,0.07560
2353.07,0.07563
2347.28,0.07496
2341.5,0.07280
2335.71,0.07153
2329.92,0.07429
2324.14,0.07658
2318.35,0.07568
2312.57,0.07333
2306.78,0.07465
2300.99,0.07717
2295.21,0.07715
2289.42,0.07753
2283.63,0.07897
2277.85,0.07968
2272.06,0.07954
2266.28,0.07892
2260.49,0.07742
2254.7,0.07685
2248.92,0.07781
2243.13,0.07892
2237.34,0.08016
2231.56,0.08026
2225.77,0.08082
2219.99,0.08083
2214.2,0.08050
2208.41,0.08041
2202.63,0.08223
2196.84,0.08237
2191.05,0.08104
2185.27,0.08032
2179.48,0.08141
2173.7,0.08282
2167.91,0.08345
2162.12,0.08403
2156.34,0.08424
2150.55,0.08404
2144.76,0.08436
2138.98,0.08500
2133.19,0.08592
2127.41,0.08628
2121.62,0.08585
2115.83,0.08587
2110.05,0.08638
2104.26,0.08708
2098.47,0.08762
2092.69,0.08815
2086.9,0.08826
2081.12,0.08773
2075.33,0.08665
2069.54,0.08572
2063.76,0.08540
2057.97,0.08521
2052.19,0.08512
2046.4,0.08474
2040.61,0.08417
2034.83,0.08264
2029.04,0.08136
2023.25,0.08144
2017.47,0.08076
2011.68,0.07869
2005.9,0.07780
2000.11,0.07665
1994.32,0.07409
1988.54,0.07151
1982.75,0.06985
1976.96,0.07022
1971.18,0.06850
1965.39,0.06672
1959.61,0.06631
1953.82,0.06632
1948.03,0.06617
1942.25,0.06615
1936.46,0.06655
1930.67,0.06721
1924.89,0.06829
1919.1,0.06908
1913.32,0.07000
1907.53,0.06999
1901.74,0.06878
1895.96,0.06735
1890.17,0.06643
1884.38,0.06614
1878.6,0.06616
1872.81,0.06621
1867.03,0.06632
1861.24,0.06685
1855.45,0.06769
1849.67,0.06909
1843.88,0.06982
1838.09,0.06945
1832.31,0.06803
1826.52,0.06702
1820.74,0.06615
1814.95,0.06585
1809.16,0.06563
1803.38,0.06560
1797.59,0.06587
1791.8,0.06645
1786.02,0.06703
1780.23,0.06718
1774.45,0.06730
1768.66,0.06717
1762.87,0.06676
1757.09,0.06564
1751.3,0.06524
1745.51,0.06542
1739.73,0.06557
1733.94,0.06619
1728.16,0.06638
1722.37,0.06656
1716.58,0.06728
1710.8,0.06740
1705.01,0.06693
1699.22,0.06645
1693.44,0.06585
1687.65,0.06535
1681.87,0.06517
1676.08,0.06526
1670.29,0.06521
1664.51,0.06490
1658.72,0.06591
1652.93,0.06634
1647.15,0.06564
1641.36,0.06503
1635.58,0.06515
1629.79,0.06516
1624,0.06478
1618.22,0.06450
1612.43,0.06375
1606.64,0.06275
1600.86,0.06468
1595.07,0.06609
1589.29,0.06549
1583.5,0.06543
1577.71,0.06605
1571.93,0.06599
1566.14,0.06586
1560.35,0.06626
1554.57,0.06488
1548.78,0.06430
1543,0.06453
1537.21,0.06442
1531.42,0.06460
1525.64,0.06393
1519.85,0.06394
1514.07,0.06347
1508.28,0.06247
1502.49,0.06065
1496.71,0.05850
1490.92,0.06776
1485.13,0.06749
1479.35,0.06551
1473.56,0.06438
1467.78,0.06350
1461.99,0.06192
1456.2,0.05969
1450.42,0.06752
1444.63,0.06928
1438.84,0.06804
1433.06,0.06771
1427.27,0.06740
1421.49,0.06704
1415.7,0.06629
1409.91,0.06593
1404.13,0.06560
1398.34,0.06525
1392.55,0.06503
1386.77,0.06443
1380.98,0.06424
1375.2,0.06478
1369.41,0.06495
1363.62,0.06503
1357.84,0.06511
1352.05,0.06508
1346.26,0.06500
1340.48,0.06529
1334.69,0.06498
1328.91,0.06518
1323.12,0.06514
1317.33,0.06493
1311.55,0.06471
1305.76,0.06514
1299.97,0.06529
1294.19,0.06512
1288.4,0.06484
1282.62,0.06530
1276.83,0.06511
1271.04,0.06535
1265.26,0.06547
1259.47,0.06560
1253.68,0.06536
1247.9,0.06512
1242.11,0.06510
1236.33,0.06479
1230.54,0.06485
1224.75,0.06505
1218.97,0.06464
1213.18,0.06440
1207.39,0.06423
1201.61,0.06435
1195.82,0.06402
1190.04,0.06373
1184.25,0.06370
1178.46,0.06479
1172.68,0.06473
1166.89,0.06499
1161.1,0.06416
1155.32,0.06458
1149.53,0.06576
1143.75,0.06581
1137.96,0.06562
1132.17,0.06565
1126.39,0.06543
1120.6,0.06490
1114.81,0.06484
1109.03,0.06462
1103.24,0.06476
1097.46,0.06454
1091.67,0.06422
1085.88,0.06323
1080.1,0.06272
1074.31,0.06314
1068.52,0.06384
1062.74,0.06404
1056.95,0.06459
1051.17,0.06382
1045.38,0.06397
1039.59,0.06381
1033.81,0.06287
1028.02,0.06501
1022.24,0.06661
1016.45,0.06628
1010.66,0.06581
1004.88,0.06498
999.09,0.06494
993.304,0.06403
987.518,0.06404
981.731,0.06399
975.945,0.06345
970.159,0.06284
964.373,0.06301
958.586,0.06337
952.8,0.06324
947.014,0.06374
941.228,0.06320
935.441,0.06287
929.655,0.06276
923.869,0.06267
918.083,0.06260
912.297,0.06193
906.51,0.06268
900.724,0.06324
894.938,0.06270
889.152,0.06356
883.365,0.06336
877.579,0.06258
871.793,0.06178
866.007,0.06162
860.22,0.06175
854.434,0.06153
848.648,0.06147
842.862,0.06063
837.075,0.06118
831.289,0.06122
825.503,0.06009
819.717,0.06029
813.931,0.05966
808.144,0.05929
802.358,0.05822
796.572,0.05815
790.786,0.05739
784.999,0.05508
779.213,0.05332
773.427,0.05221
767.641,0.05232
761.854,0.05587
756.068,0.06090
750.282,0.06419
744.496,0.06737
738.709,0.06602
732.923,0.06220
727.137,0.05810
721.351,0.05446
715.565,0.04976
709.778,0.04174
703.992,0.04871
698.206,0.11474
692.42,0.11263
686.633,0.08720
680.847,0.07848
675.061,0.07540
669.275,0.07535
663.488,0.07260
657.702,0.07214
651.916,0.07145
646.13,0.06993
640.343,0.06889
634.557,0.06799
628.771,0.06937
622.985,0.06729
617.198,0.06696
611.412,0.06892
605.626,0.06607
599.84,0.06697