File: 01_Data/PlasticB/FTIR/IS/PlasticB_IS_S_220901_R4.dpt
7497.03,0.83013
7491.25,0.83061
7485.46,0.82026
7479.67,0.81506
7473.89,0.81266
7468.1,0.81486
7462.32,0.81230
7456.53,0.81332
7450.74,0.80941
7444.96,0.80775
7439.17,0.79174
7433.38,0.79790
7427.6,0.80321
7421.81,0.79684
7416.03,0.78814
7410.24,0.79255
7404.45,0.80057
7398.67,0.79676
7392.88,0.80306
7387.09,0.79911
7381.31,0.80610
7375.52,0.80623
7369.74,0.79246
7363.95,0.79728
7358.16,0.80218
7352.38,0.81220
7346.59,0.80188
7340.8,0.80164
7335.02,0.79700
7329.23,0.78442
7323.45,0.77746
7317.66,0.77602
7311.87,0.77911
7306.09,0.77931
7300.3,0.76207
7294.51,0.76200
7288.73,0.75404
7282.94,0.75273
7277.16,0.74788
7271.37,0.74215
7265.58,0.74267
7259.8,0.73530
7254.01,0.73564
7248.22,0.72417
7242.44,0.72540
7236.65,0.72363
7230.87,0.71723
7225.08,0.72274
7219.29,0.72005
7213.51,0.71100
7207.72,0.70273
7201.93,0.70499
7196.15,0.69644
7190.36,0.70248
7184.58,0.68911
7178.79,0.69431
7173,0.68907
7167.22,0.69458
7161.43,0.69701
7155.65,0.69005
7149.86,0.69153
7144.07,0.69597
7138.29,0.69531
7132.5,0.69349
7126.71,0.68759
7120.93,0.69122
7115.14,0.68897
7109.36,0.67917
7103.57,0.67704
7097.78,0.67675
7092,0.67134
7086.21,0.67454
7080.42,0.66926
7074.64,0.66714
7068.85,0.67025
7063.07,0.66993
7057.28,0.67148
7051.49,0.67163
7045.71,0.67878
7039.92,0.67777
7034.13,0.68610
7028.35,0.68869
7022.56,0.68116
7016.78,0.68115
7010.99,0.68685
7005.2,0.68556
6999.42,0.68723
6993.63,0.68425
6987.84,0.67929
6982.06,0.67950
6976.27,0.67971
6970.49,0.67859
6964.7,0.68517
6958.91,0.68110
6953.13,0.68765
6947.34,0.68283
6941.55,0.69529
6935.77,0.69399
6929.98,0.69737
6924.2,0.69699
6918.41,0.70202
6912.62,0.70431
6906.84,0.70358
6901.05,0.70451
6895.26,0.71010
6889.48,0.70186
6883.69,0.70801
6877.91,0.71001
6872.12,0.71149
6866.33,0.72044
6860.55,0.71944
6854.76,0.71616
6848.97,0.72367
6843.19,0.72591
6837.4,0.72681
6831.62,0.72657
6825.83,0.72652
6820.04,0.72451
6814.26,0.72903
6808.47,0.72584
6802.68,0.72626
6796.9,0.73213
6791.11,0.72916
6785.33,0.73632
6779.54,0.73671
6773.75,0.73821
6767.97,0.73878
6762.18,0.73833
6756.39,0.74315
6750.61,0.74528
6744.82,0.74286
6739.04,0.74114
6733.25,0.73905
6727.46,0.73955
6721.68,0.74008
6715.89,0.74546
6710.1,0.74594
6704.32,0.74276
6698.53,0.74786
6692.75,0.74995
6686.96,0.75009
6681.17,0.75192
6675.39,0.75545
6669.6,0.75811
6663.82,0.76092
6658.03,0.75751
6652.24,0.76369
6646.46,0.76444
6640.67,0.75823
6634.88,0.76456
6629.1,0.76229
6623.31,0.76273
6617.53,0.76567
6611.74,0.76347
6605.95,0.76982
6600.17,0.76603
6594.38,0.76679
6588.59,0.76965
6582.81,0.77306
6577.02,0.77425
6571.24,0.77175
6565.45,0.77429
6559.66,0.77912
6553.88,0.77774
6548.09,0.77588
6542.3,0.77999
6536.52,0.77711
6530.73,0.78237
6524.95,0.77885
6519.16,0.78832
6513.37,0.78434
6507.59,0.78529
6501.8,0.78665
6496.01,0.78645
6490.23,0.79000
6484.44,0.79181
6478.66,0.79261
6472.87,0.79758
6467.08,0.79247
6461.3,0.79835
6455.51,0.79529
6449.72,0.79624
6443.94,0.79873
6438.15,0.79687
6432.37,0.80090
6426.58,0.79657
6420.79,0.79743
6415.01,0.79446
6409.22,0.79592
6403.43,0.79335
6397.65,0.79483
6391.86,0.79060
6386.08,0.79275
6380.29,0.79431
6374.5,0.78803
6368.72,0.78125
6362.93,0.78159
6357.14,0.78005
6351.36,0.78439
6345.57,0.77962
6339.79,0.77859
6334,0.77354
6328.21,0.77701
6322.43,0.77459
6316.64,0.77359
6310.85,0.76864
6305.07,0.76637
6299.28,0.76427
6293.5,0.75953
6287.71,0.76056
6281.92,0.75972
6276.14,0.75773
6270.35,0.75519
6264.56,0.75237
6258.78,0.74890
6252.99,0.74319
6247.21,0.73712
6241.42,0.73109
6235.63,0.72902
6229.85,0.72201
6224.06,0.71427
6218.27,0.71737
6212.49,0.70566
6206.7,0.69641
6200.92,0.68644
6195.13,0.67958
6189.34,0.66599
6183.56,0.65830
6177.77,0.64090
6171.98,0.62133
6166.2,0.60273
6160.41,0.57995
6154.63,0.55996
6148.84,0.53113
6143.05,0.51123
6137.27,0.49745
6131.48,0.48308
6125.7,0.46642
6119.91,0.44418
6114.12,0.43301
6108.34,0.43001
6102.55,0.43140
6096.76,0.43755
6090.98,0.43663
6085.19,0.42937
6079.41,0.42333
6073.62,0.41707
6067.83,0.43029
6062.05,0.45426
6056.26,0.46763
6050.47,0.47142
6044.69,0.46370
6038.9,0.44197
6033.12,0.41562
6027.33,0.38999
6021.54,0.35844
6015.76,0.32848
6009.97,0.30268
6004.18,0.27789
5998.4,0.26042
5992.61,0.24517
5986.83,0.23043
5981.04,0.21554
5975.25,0.20378
5969.47,0.19385
5963.68,0.19177
5957.89,0.19167
5952.11,0.19100
5946.32,0.18569
5940.54,0.18919
5934.75,0.19605
5928.96,0.20092
5923.18,0.20649
5917.39,0.20804
5911.6,0.20796
5905.82,0.21528
5900.03,0.22111
5894.25,0.22772
5888.46,0.23463
5882.67,0.24812
5876.89,0.26445
5871.1,0.27607
5865.31,0.28381
5859.53,0.29140
5853.74,0.29134
5847.96,0.29198
5842.17,0.29159
5836.38,0.29424
5830.6,0.29640
5824.81,0.29820
5819.02,0.30152
5813.24,0.29630
5807.45,0.29286
5801.67,0.29720
5795.88,0.29764
5790.09,0.29629
5784.31,0.30156
5778.52,0.31387
5772.73,0.32752
5766.95,0.34443
5761.16,0.35917
5755.38,0.37414
5749.59,0.38565
5743.8,0.39462
5738.02,0.39728
5732.23,0.39704
5726.44,0.38891
5720.66,0.37582
5714.87,0.36273
5709.09,0.34866
5703.3,0.34177
5697.51,0.33542
5691.73,0.33502
5685.94,0.33047
5680.15,0.32569
5674.37,0.32049
5668.58,0.31607
5662.8,0.31858
5657.01,0.32622
5651.22,0.33700
5645.44,0.34602
5639.65,0.35300
5633.87,0.36274
5628.08,0.37108
5622.29,0.37806
5616.51,0.37992
5610.72,0.37987
5604.93,0.38117
5599.15,0.37958
5593.36,0.37631
5587.58,0.37063
5581.79,0.37328
5576,0.37913
5570.22,0.38544
5564.43,0.38616
5558.64,0.38673
5552.86,0.38727
5547.07,0.38520
5541.29,0.38608
5535.5,0.38581
5529.71,0.38605
5523.93,0.38658
5518.14,0.38896
5512.35,0.38976
5506.57,0.39204
5500.78,0.39291
5495,0.39785
5489.21,0.40410
5483.42,0.40811
5477.64,0.41066
5471.85,0.41191
5466.06,0.41286
5460.28,0.41301
5454.49,0.41386
5448.71,0.41343
5442.92,0.41115
5437.13,0.41041
5431.35,0.40888
5425.56,0.40860
5419.77,0.40719
5413.99,0.40672
5408.2,0.40575
5402.42,0.40512
5396.63,0.40406
5390.84,0.40318
5385.06,0.40186
5379.27,0.40189
5373.48,0.40155
5367.7,0.40232
5361.91,0.40680
5356.13,0.40669
5350.34,0.41077
5344.55,0.41778
5338.77,0.42099
5332.98,0.42438
5327.19,0.42561
5321.41,0.42992
5315.62,0.43284
5309.84,0.43174
5304.05,0.43057
5298.26,0.43092
5292.48,0.43149
5286.69,0.43342
5280.9,0.43435
5275.12,0.43491
5269.33,0.43617
5263.55,0.43563
5257.76,0.43454
5251.97,0.43554
5246.19,0.43456
5240.4,0.43390
5234.61,0.43163
5228.83,0.43415
5223.04,0.43541
5217.26,0.43981
5211.47,0.44271
5205.68,0.44434
5199.9,0.44463
5194.11,0.44580
5188.32,0.44874
5182.54,0.44872
5176.75,0.44776
5170.97,0.44933
5165.18,0.44907
5159.39,0.45189
5153.61,0.45036
5147.82,0.45015
5142.03,0.44718
5136.25,0.44564
5130.46,0.44505
5124.68,0.44541
5118.89,0.44605
5113.1,0.44615
5107.32,0.44766
5101.53,0.44986
5095.75,0.45100
5089.96,0.45171
5084.17,0.45103
5078.39,0.45233
5072.6,0.45292
5066.81,0.45202
5061.03,0.45345
5055.24,0.45225
5049.46,0.45010
5043.67,0.45086
5037.88,0.44955
5032.1,0.45193
5026.31,0.45252
5020.52,0.45303
5014.74,0.45318
5008.95,0.45316
5003.17,0.45219
4997.38,0.44833
4991.59,0.44636
4985.81,0.44380
4980.02,0.44142
4974.23,0.44172
4968.45,0.44125
4962.66,0.44263
4956.88,0.44285
4951.09,0.44313
4945.3,0.44099
4939.52,0.44131
4933.73,0.44057
4927.94,0.44191
4922.16,0.44267
4916.37,0.44185
4910.59,0.44194
4904.8,0.44117
4899.01,0.43919
4893.23,0.43717
4887.44,0.43448
4881.65,0.43129
4875.87,0.42850
4870.08,0.42606
4864.3,0.42535
4858.51,0.42513
4852.72,0.42261
4846.94,0.41968
4841.15,0.41514
4835.36,0.41195
4829.58,0.41013
4823.79,0.41148
4818.01,0.41299
4812.22,0.41356
4806.43,0.41497
4800.65,0.41392
4794.86,0.41237
4789.07,0.40903
4783.29,0.40356
4777.5,0.39596
4771.72,0.38533
4765.93,0.37329
4760.14,0.36798
4754.36,0.36990
4748.57,0.36765
4742.78,0.36310
4737,0.35675
4731.21,0.34630
4725.43,0.33285
4719.64,0.31452
4713.85,0.29611
4708.07,0.28404
4702.28,0.27681
4696.49,0.26678
4690.71,0.24953
4684.92,0.21971
4679.14,0.18144
4673.35,0.14884
4667.56,0.13050
4661.78,0.12714
4655.99,0.13637
4650.2,0.15063
4644.42,0.15877
4638.63,0.15331
4632.85,0.14218
4627.06,0.13370
4621.27,0.12994
4615.49,0.12909
4609.7,0.12543
4603.92,0.12597
4598.13,0.14015
4592.34,0.15726
4586.56,0.16776
4580.77,0.16432
4574.98,0.14739
4569.2,0.14399
4563.41,0.16427
4557.63,0.18664
4551.84,0.20255
4546.05,0.22161
4540.27,0.23105
4534.48,0.23091
4528.69,0.23397
4522.91,0.23683
4517.12,0.23606
4511.34,0.23349
4505.55,0.22886
4499.76,0.23143
4493.98,0.24372
4488.19,0.24565
4482.4,0.24427
4476.62,0.24723
4470.83,0.25508
4465.05,0.26210
4459.26,0.26479
4453.47,0.26149
4447.69,0.25052
4441.9,0.24055
4436.11,0.23914
4430.33,0.23986
4424.54,0.23544
4418.76,0.22782
4412.97,0.22066
4407.18,0.21269
4401.4,0.20434
4395.61,0.19457
4389.82,0.18493
4384.04,0.17614
4378.25,0.16614
4372.47,0.15694
4366.68,0.14789
4360.89,0.13922
4355.11,0.13252
4349.32,0.12684
4343.53,0.12304
4337.75,0.11997
4331.96,0.11828
4326.18,0.11868
4320.39,0.12325
4314.6,0.12985
4308.82,0.13570
4303.03,0.13664
4297.24,0.13470
4291.46,0.13259
4285.67,0.12873
4279.89,0.12365
4274.1,0.11782
4268.31,0.11333
4262.53,0.10852
4256.74,0.10454
4250.95,0.10310
4245.17,0.10268
4239.38,0.10432
4233.6,0.10552
4227.81,0.10622
4222.02,0.10646
4216.24,0.10686
4210.45,0.10703
4204.66,0.10769
4198.88,0.10992
4193.09,0.11329
4187.31,0.11532
4181.52,0.11652
4175.73,0.11751
4169.95,0.12076
4164.16,0.12285
4158.37,0.12234
4152.59,0.12287
4146.8,0.12276
4141.02,0.12191
4135.23,0.11902
4129.44,0.11745
4123.66,0.11458
4117.87,0.11183
4112.09,0.11084
4106.3,0.10904
4100.51,0.10815
4094.73,0.10616
4088.94,0.10194
4083.15,0.09745
4077.37,0.09319
4071.58,0.08851
4065.8,0.08467
4060.01,0.08212
4054.22,0.08171
4048.44,0.08148
4042.65,0.08155
4036.86,0.08015
4031.08,0.08256
4025.29,0.08648
4019.51,0.09307
4013.72,0.10289
4007.93,0.10666
4002.15,0.10665
3996.36,0.10945
3990.57,0.11579
3984.79,0.11914
3979,0.11912
3973.22,0.11882
3967.43,0.12052
3961.64,0.12184
3955.86,0.12263
3950.07,0.12353
3944.28,0.12172
3938.5,0.12028
3932.71,0.12068
3926.93,0.12162
3921.14,0.12282
3915.35,0.12393
3909.57,0.12482
3903.78,0.12485
3897.99,0.12521
3892.21,0.12705
3886.42,0.12784
3880.64,0.12810
3874.85,0.12831
3869.06,0.12828
3863.28,0.12719
3857.49,0.12841
3851.7,0.12802
3845.92,0.12649
3840.13,0.12521
3834.35,0.12317
3828.56,0.12210
3822.77,0.12063
3816.99,0.11972
3811.2,0.11958
3805.41,0.11968
3799.63,0.11950
3793.84,0.12193
3788.06,0.12519
3782.27,0.12808
3776.48,0.12869
3770.7,0.12749
3764.91,0.12718
3759.12,0.12820
3753.34,0.13036
3747.55,0.13395
3741.77,0.13359
3735.98,0.13228
3730.19,0.12984
3724.41,0.12451
3718.62,0.12363
3712.83,0.12728
3707.05,0.12438
3701.26,0.11791
3695.48,0.11825
3689.69,0.12051
3683.9,0.11837
3678.12,0.11473
3672.33,0.11440
3666.54,0.11527
3660.76,0.11167
3654.97,0.10474
3649.19,0.09821
3643.4,0.09945
3637.61,0.11003
3631.83,0.11803
3626.04,0.11441
3620.25,0.10886
3614.47,0.11811
3608.68,0.13127
3602.9,0.13606
3597.11,0.13686
3591.32,0.13571
3585.54,0.13687
3579.75,0.14004
3573.97,0.14468
3568.18,0.14916
3562.39,0.14945
3556.61,0.14912
3550.82,0.14942
3545.03,0.14826
3539.25,0.14766
3533.46,0.14590
3527.68,0.14532
3521.89,0.14364
3516.1,0.14259
3510.32,0.14203
3504.53,0.14024
3498.74,0.13875
3492.96,0.13653
3487.17,0.13424
3481.39,0.13212
3475.6,0.13047
3469.81,0.12856
3464.03,0.12748
3458.24,0.12634
3452.45,0.12606
3446.67,0.12347
3440.88,0.12105
3435.1,0.12344
3429.31,0.12783
3423.52,0.13163
3417.74,0.13361
3411.95,0.13433
3406.16,0.13467
3400.38,0.13551
3394.59,0.13564
3388.81,0.13576
3383.02,0.13580
3377.23,0.13773
3371.45,0.13955
3365.66,0.14149
3359.87,0.14211
3354.09,0.14059
3348.3,0.13898
3342.52,0.13771
3336.73,0.13638
3330.94,0.13542
3325.16,0.13290
3319.37,0.12985
3313.58,0.12496
3307.8,0.11651
3302.01,0.10674
3296.23,0.10728
3290.44,0.11270
3284.65,0.11783
3278.87,0.11973
3273.08,0.12038
3267.29,0.12103
3261.51,0.11980
3255.72,0.11923
3249.94,0.11822
3244.15,0.11677
3238.36,0.11603
3232.58,0.11404
3226.79,0.11194
3221,0.11081
3215.22,0.10815
3209.43,0.10375
3203.65,0.09982
3197.86,0.09770
3192.07,0.09731
3186.29,0.09579
3180.5,0.09424
3174.71,0.09231
3168.93,0.08684
3163.14,0.08105
3157.36,0.08237
3151.57,0.08419
3145.78,0.08391
3140,0.08328
3134.21,0.08103
3128.42,0.07879
3122.64,0.07588
3116.85,0.07200
3111.07,0.06831
3105.28,0.06642
3099.49,0.06563
3093.71,0.06629
3087.92,0.06502
3082.14,0.06486
3076.35,0.06523
3070.56,0.06446
3064.78,0.06416
3058.99,0.06563
3053.2,0.06633
3047.42,0.06538
3041.63,0.06480
3035.85,0.06412
3030.06,0.06425
3024.27,0.06691
3018.49,0.06815
3012.7,0.06772
3006.91,0.06721
3001.13,0.06666
2995.34,0.06721
2989.56,0.06718
2983.77,0.06715
2977.98,0.06689
2972.2,0.06632
2966.41,0.06538
2960.62,0.06478
2954.84,0.06461
2949.05,0.06343
2943.27,0.06304
2937.48,0.06317
2931.69,0.06354
2925.91,0.06566
2920.12,0.06722
2914.33,0.06916
2908.55,0.06896
2902.76,0.06889
2896.98,0.06904
2891.19,0.06867
2885.4,0.06825
2879.62,0.06767
2873.83,0.06783
2868.04,0.06738
2862.26,0.06717
2856.47,0.06770
2850.69,0.06800
2844.9,0.06815
2839.11,0.06871
2833.33,0.06909
2827.54,0.06930
2821.75,0.06989
2815.97,0.07057
2810.18,0.07079
2804.4,0.07109
2798.61,0.07155
2792.82,0.07237
2787.04,0.07252
2781.25,0.07291
2775.46,0.07362
2769.68,0.07439
2763.89,0.07538
2758.11,0.07594
2752.32,0.07603
2746.53,0.07626
2740.75,0.07648
2734.96,0.07575
2729.17,0.07535
2723.39,0.07493
2717.6,0.07481
2711.82,0.07493
2706.03,0.07515
2700.24,0.07492
2694.46,0.07483
2688.67,0.07446
2682.88,0.07421
2677.1,0.07446
2671.31,0.07446
2665.53,0.07430
2659.74,0.07477
2653.95,0.07425
2648.17,0.07438
2642.38,0.07398
2636.59,0.07331
2630.81,0.07292
2625.02,0.07404
2619.24,0.07484
2613.45,0.07510
2607.66,0.07401
2601.88,0.07276
2596.09,0.07426
2590.3,0.07509
2584.52,0.07426
2578.73,0.07425
2572.95,0.07602
2567.16,0.07557
2561.37,0.07583
2555.59,0.07550
2549.8,0.07535
2544.02,0.07536
2538.23,0.07601
2532.44,0.07636
2526.66,0.07595
2520.87,0.07524
2515.08,0.07523
2509.3,0.07485
2503.51,0.07523
2497.73,0.07561
2491.94,0.07605
2486.15,0.07657
2480.37,0.07739
2474.58,0.07818
2468.79,0.07983
2463.01,0.08005
2457.22,0.08038
2451.44,0.08015
2445.65,0.08038
2439.86,0.08086
2434.08,0.08086
2428.29,0.08176
2422.5,0.08207
2416.72,0.08144
2410.93,0.08087
2405.15,0.08020
2399.36,0.07963
2393.57,0.07937
2387.79,0.07881
2382,0.07894
2376.21,0.07868
2370.43,0.07785
2364.64,0.07645
2358.86,0.07588
2353.07,0.07532
2347.28,0.07475
2341.5,0.07268
2335.71,0.07153
2329.92,0.07433
2324.14,0.07656
2318.35,0.07538
2312.57,0.07310
2306.78,0.07474
2300.99,0.07753
2295.21,0.07702
2289.42,0.07750
2283.63,0.07860
2277.85,0.07976
2272.06,0.07928
2266.28,0.07858
2260.49,0.07718
2254.7,0.07691
2248.92,0.07750
2243.13,0.07847
2237.34,0.07958
2231.56,0.08025
2225.77,0.08077
2219.99,0.08090
2214.2,0.08067
2208.41,0.08091
2202.63,0.08215
2196.84,0.08193
2191.05,0.08091
2185.27,0.08002
2179.48,0.08138
2173.7,0.08270
2167.91,0.08364
2162.12,0.08416
2156.34,0.08387
2150.55,0.08386
2144.76,0.08401
2138.98,0.08485
2133.19,0.08561
2127.41,0.08588
2121.62,0.08599
2115.83,0.08607
2110.05,0.08617
2104.26,0.08684
2098.47,0.08777
2092.69,0.08820
2086.9,0.08799
2081.12,0.08748
2075.33,0.08664
2069.54,0.08563
2063.76,0.08532
2057.97,0.08496
2052.19,0.08532
2046.4,0.08488
2040.61,0.08393
2034.83,0.08260
2029.04,0.08160
2023.25,0.08137
2017.47,0.08070
2011.68,0.07892
2005.9,0.07743
2000.11,0.07645
1994.32,0.07437
1988.54,0.07100
1982.75,0.07024
1976.96,0.06987
1971.18,0.06831
1965.39,0.06675
1959.61,0.06673
1953.82,0.06618
1948.03,0.06605
1942.25,0.06614
1936.46,0.06683
1930.67,0.06693
1924.89,0.06803
1919.1,0.06909
1913.32,0.07011
1907.53,0.06980
1901.74,0.06858
1895.96,0.06717
1890.17,0.06660
1884.38,0.06617
1878.6,0.06592
1872.81,0.06603
1867.03,0.06639
1861.24,0.06701
1855.45,0.06746
1849.67,0.06863
1843.88,0.06955
1838.09,0.06945
1832.31,0.06846
1826.52,0.06687
1820.74,0.06606
1814.95,0.06594
1809.16,0.06551
1803.38,0.06589
1797.59,0.06589
1791.8,0.06604
1786.02,0.06705
1780.23,0.06763
1774.45,0.06690
1768.66,0.06698
1762.87,0.06669
1757.09,0.06590
1751.3,0.06560
1745.51,0.06530
1739.73,0.06567
1733.94,0.06556
1728.16,0.06621
1722.37,0.06715
1716.58,0.06720
1710.8,0.06695
1705.01,0.06672
1699.22,0.06632
1693.44,0.06592
1687.65,0.06552
1681.87,0.06537
1676.08,0.06490
1670.29,0.06501
1664.51,0.06511
1658.72,0.06543
1652.93,0.06584
1647.15,0.06577
1641.36,0.06572
1635.58,0.06544
1629.79,0.06529
1624,0.06487
1618.22,0.06458
1612.43,0.06370
1606.64,0.06251
1600.86,0.06464
1595.07,0.06591
1589.29,0.06612
1583.5,0.06536
1577.71,0.06601
1571.93,0.06605
1566.14,0.06567
1560.35,0.06546
1554.57,0.06498
1548.78,0.06466
1543,0.06474
1537.21,0.06443
1531.42,0.06447
1525.64,0.06424
1519.85,0.06400
1514.07,0.06325
1508.28,0.06217
1502.49,0.06051
1496.71,0.05849
1490.92,0.06787
1485.13,0.06750
1479.35,0.06550
1473.56,0.06456
1467.78,0.06331
1461.99,0.06183
1456.2,0.05920
1450.42,0.06765
1444.63,0.06926
1438.84,0.06869
1433.06,0.06773
1427.27,0.06719
1421.49,0.06667
1415.7,0.06665
1409.91,0.06616
1404.13,0.06567
1398.34,0.06514
1392.55,0.06474
1386.77,0.06417
1380.98,0.06433
1375.2,0.06456
1369.41,0.06473
1363.62,0.06516
1357.84,0.06526
1352.05,0.06519
1346.26,0.06511
1340.48,0.06516
1334.69,0.06465
1328.91,0.06472
1323.12,0.06498
1317.33,0.06496
1311.55,0.06479
1305.76,0.06497
1299.97,0.06509
1294.19,0.06536
1288.4,0.06532
1282.62,0.06489
1276.83,0.06562
1271.04,0.06511
1265.26,0.06541
1259.47,0.06546
1253.68,0.06530
1247.9,0.06468
1242.11,0.06484
1236.33,0.06499
1230.54,0.06460
1224.75,0.06499
1218.97,0.06443
1213.18,0.06450
1207.39,0.06426
1201.61,0.06398
1195.82,0.06428
1190.04,0.06407
1184.25,0.06398
1178.46,0.06527
1172.68,0.06496
1166.89,0.06495
1161.1,0.06427
1155.32,0.06509
1149.53,0.06550
1143.75,0.06560
1137.96,0.06589
1132.17,0.06572
1126.39,0.06576
1120.6,0.06468
1114.81,0.06421
1109.03,0.06463
1103.24,0.06381
1097.46,0.06421
1091.67,0.06350
1085.88,0.06263
1080.1,0.06294
1074.31,0.06353
1068.52,0.06364
1062.74,0.06374
1056.95,0.06430
1051.17,0.06419
1045.38,0.06465
1039.59,0.06384
1033.81,0.06321
1028.02,0.06498
1022.24,0.06632
1016.45,0.06620
1010.66,0.06545
1004.88,0.06502
999.09,0.06534
993.304,0.06470
987.518,0.06400
981.731,0.06384
975.945,0.06403
970.159,0.06321
964.373,0.06336
958.586,0.06368
952.8,0.06354
947.014,0.06373
941.228,0.06366
935.441,0.06374
929.655,0.06314
923.869,0.06248
918.083,0.06216
912.297,0.06117
906.51,0.06321
900.724,0.06363
894.938,0.06309
889.152,0.06287
883.365,0.06236
877.579,0.06192
871.793,0.06226
866.007,0.06240
860.22,0.06085
854.434,0.06108
848.648,0.06065
842.862,0.06120
837.075,0.06109
831.289,0.06115
825.503,0.06039
819.717,0.06092
813.931,0.05932
808.144,0.05893
802.358,0.05804
796.572,0.05779
790.786,0.05674
784.999,0.05582
779.213,0.05295
773.427,0.05157
767.641,0.05277
761.854,0.05573
756.068,0.06174
750.282,0.06465
744.496,0.06684
738.709,0.06523
732.923,0.06256
727.137,0.05807
721.351,0.05444
715.565,0.04980
709.778,0.04130
703.992,0.04875
698.206,0.11535
692.42,0.11165
686.633,0.08811
680.847,0.08018
675.061,0.07614
669.275,0.07497
663.488,0.07300
657.702,0.07217
651.916,0.07177
646.13,0.06980
640.343,0.06858
634.557,0.06895
628.771,0.06828
622.985,0.06743
617.198,0.06899
611.412,0.06880
605.626,0.06594
599.84,0.06526