File: 01_Data/HIPS/STA/N2/10K_min/HIPS_STA_N2_10KData_211020_R1.csv
##Temp./Â°C,Time/min,Mass loss(subtr.2)/mg,DSC(subtr.2)/(mW/mg),Sensit./(uV/mW)
49.966,10.01,-0.00789,-0.00808403,1.03584
50.566,11.45182,-0.007409215,0.01203996,1.03581
51.166,11.82275,-0.008986591,0.0258643,1.03578
51.766,12.0829,-0.00696433,0.03636168,1.03574
52.366,12.29964,-0.008424373,0.04651719,1.03571
52.966,12.49047,-0.00762415,0.05287945,1.03567
53.566,12.66232,-0.008346575,0.05821817,1.03564
54.166,12.82068,-0.008170725,0.06543188,1.0356
54.766,12.96861,-0.00745199,0.06861974,1.03556
55.366,13.10946,-0.007558051,0.07274961,1.03552
55.966,13.24445,-0.008842751,0.07696883,1.03547
56.566,13.37336,-0.00930149,0.07966102,1.03543
57.166,13.4982,-0.00770156,0.08392247,1.03538
57.766,13.6197,-0.007911866,0.0874543,1.03533
58.366,13.73645,-0.008039895,0.0906029,1.03529
58.966,13.8504,-0.008335545,0.0948473,1.03523
59.566,13.9617,-0.0060603,0.09759196,1.03518
60.166,14.0711,-0.006331597,0.10094,1.03513
60.766,14.17729,-0.007181444,0.10366,1.03507
61.366,14.28038,-0.00734442,0.10594,1.03501
61.966,14.38221,-0.008723441,0.1088,1.03496
62.566,14.4828,-0.00754628,0.11221,1.0349
63.166,14.58025,-0.006024076,0.11419,1.03483
63.766,14.6767,-0.008782345,0.12009,1.03477
64.366,14.77304,-0.00759559,0.12161,1.03471
64.966,14.8667,-0.008594489,0.12442,1.03464
65.566,14.95845,-0.0088858,0.12605,1.03457
66.166,15.04904,-0.00858356,0.13138,1.0345
66.766,15.13855,-0.00914162,0.13086,1.03443
67.366,15.22749,-0.00880218,0.13495,1.03436
67.966,15.315,-0.007925927,0.13508,1.03429
68.566,15.40114,-0.006508524,0.13854,1.03421
69.166,15.4859,-0.008059107,0.14059,1.03413
69.766,15.5704,-0.008007486,0.14369,1.03405
70.366,15.65388,-0.008045596,0.14728,1.03397
70.966,15.73647,-0.008104966,0.14885,1.03389
71.566,15.818,-0.00792677,0.15058,1.03381
72.166,15.89904,-0.007667892,0.15233,1.03373
72.766,15.97921,-0.00770644,0.15348,1.03364
73.366,16.05855,-0.007951866,0.15485,1.03355
73.966,16.13715,-0.008164549,0.16034,1.03346
74.566,16.2149,-0.00666517,0.15918,1.03337
75.166,16.29185,-0.00670794,0.16337,1.03328
75.766,16.36843,-0.007997799,0.16544,1.03319
76.366,16.44448,-0.00714717,0.16716,1.03309
76.966,16.52026,-0.008541831,0.17026,1.033
77.566,16.59529,-0.007311838,0.17247,1.0329
78.166,16.6696,-0.008776282,0.17137,1.0328
78.766,16.74359,-0.008755511,0.17558,1.0327
79.366,16.81706,-0.008905184,0.17326,1.0326
79.966,16.8898,-0.008781302,0.17462,1.03249
80.566,16.96197,-0.007460564,0.17414,1.03239
81.166,17.03366,-0.0074945,0.17354,1.03228
81.766,17.1051,-0.00876287,0.17162,1.03217
82.366,17.1763,-0.008732946,0.17158,1.03206
82.966,17.24683,-0.009384305,0.17012,1.03195
83.566,17.31682,-0.008863489,0.17023,1.03184
84.166,17.38628,-0.008778098,0.16976,1.03172
84.766,17.45571,-0.01020749,0.17134,1.03161
85.366,17.52496,-0.01020573,0.17206,1.03149
85.966,17.59361,-0.008894565,0.17214,1.03137
86.566,17.66191,-0.009621136,0.17279,1.03125
87.166,17.7296,-0.009793892,0.17349,1.03113
87.766,17.79714,-0.009338614,0.17693,1.03101
88.366,17.86411,-0.009110832,0.17605,1.03088
88.966,17.93095,-0.00909998,0.18273,1.03076
89.566,17.99764,-0.00773484,0.18372,1.03063
90.166,18.0639,-0.009047843,0.18307,1.0305
90.766,18.12978,-0.009109475,0.18562,1.03037
91.366,18.19557,-0.009207365,0.18674,1.03024
91.966,18.2611,-0.00812733,0.18954,1.03011
92.566,18.32626,-0.01058554,0.19179,1.02998
93.166,18.39112,-0.00942909,0.19563,1.02984
93.766,18.45585,-0.01041252,0.19655,1.0297
94.366,18.5203,-0.009430105,0.19865,1.02956
94.966,18.5842,-0.01001214,0.20153,1.02942
95.566,18.64794,-0.01074891,0.20195,1.02928
96.166,18.71155,-0.01014199,0.20607,1.02914
96.766,18.7748,-0.008766246,0.21187,1.029
97.366,18.83836,-0.008106025,0.21251,1.02885
97.966,18.90137,-0.009516265,0.21683,1.0287
98.566,18.96431,-0.00985264,0.21897,1.02855
99.166,19.02691,-0.01069778,0.22498,1.02841
99.766,19.0896,-0.009546784,0.22849,1.02825
100.366,19.15186,-0.008212881,0.23187,1.0281
100.966,19.21397,-0.0108697,0.23548,1.02795
101.566,19.27574,-0.009760375,0.23939,1.02779
102.166,19.33696,-0.01056697,0.24223,1.02764
102.766,19.3984,-0.01049557,0.2427,1.02748
103.366,19.45975,-0.0096501,0.24562,1.02732
103.966,19.52187,-0.01094996,0.24645,1.02716
104.566,19.58311,-0.01094923,0.24653,1.02699
105.166,19.64461,-0.01100707,0.24975,1.02683
105.766,19.70576,-0.008352355,0.24879,1.02667
106.366,19.7671,-0.00834618,0.24746,1.0265
106.966,19.82793,-0.008366202,0.24993,1.02633
107.566,19.88862,-0.009751051,0.25232,1.02616
108.166,19.94915,-0.01107956,0.25092,1.02599
108.766,20.00955,-0.01107997,0.25108,1.02582
109.366,20.06997,-0.00975956,0.254,1.02565
109.966,20.1301,-0.00976008,0.25385,1.02547
110.566,20.1903,-0.008439838,0.25351,1.0253
111.166,20.2501,-0.01009999,0.25304,1.02512
111.766,20.31,-0.01108,0.25708,1.02494
112.366,20.3699,-0.01141573,0.25711,1.02476
112.966,20.4296,-0.01107977,0.25727,1.02458
113.566,20.48922,-0.009753225,0.25797,1.0244
114.166,20.54889,-0.01111876,0.25758,1.02421
114.766,20.60849,-0.009755682,0.25946,1.02403
115.366,20.66799,-0.0110742,0.2596,1.02384
115.966,20.72731,-0.00866046,0.25979,1.02365
116.566,20.7864,-0.00704053,0.25941,1.02346
117.166,20.8455,-0.008464402,0.25995,1.02327
117.766,20.9045,-0.01087926,0.26249,1.02308
118.366,20.96357,-0.009904641,0.26004,1.02289
118.966,21.0224,-0.01130656,0.26275,1.02269
119.566,21.08096,-0.009980808,0.262,1.0225
120.166,21.139,-0.00997987,0.26346,1.0223
120.766,21.1974,-0.01118604,0.26352,1.0221
121.366,21.25565,-0.01130021,0.2635,1.0219
121.966,21.3144,-0.01028682,0.2659,1.0217
122.566,21.37265,-0.009976413,0.2666,1.0215
123.166,21.43068,-0.0113009,0.26496,1.02129
123.766,21.48864,-0.009979869,0.26751,1.02109
124.366,21.54654,-0.0099939,0.26657,1.02088
124.966,21.60434,-0.01128183,0.26673,1.02067
125.566,21.662,-0.009985104,0.26764,1.02046
126.166,21.7195,-0.01129481,0.27155,1.02025
126.766,21.77704,-0.009988319,0.27152,1.02004
127.366,21.83432,-0.00880532,0.27168,1.01983
127.966,21.8918,-0.009979132,0.27244,1.01962
128.566,21.94914,-0.009316638,0.27143,1.0194
129.166,22.00618,-0.00994366,0.27335,1.01918
129.766,22.0631,-0.01031019,0.27407,1.01897
130.366,22.1201,-0.0103103,0.2749,1.01875
130.966,22.17701,-0.01142355,0.27636,1.01853
131.566,22.2336,-0.01002833,0.27447,1.0183
132.166,22.29042,-0.009019109,0.27602,1.01808
132.766,22.3472,-0.01201195,0.27672,1.01786
133.366,22.40377,-0.01131398,0.2758,1.01763
133.966,22.4605,-0.0113,0.27683,1.0174
134.566,22.51676,-0.0113069,0.27536,1.01718
135.166,22.57302,-0.00998205,0.28068,1.01695
135.766,22.62934,-0.009057396,0.2802,1.01672
136.366,22.68514,-0.008943641,0.27826,1.01648
136.966,22.74072,-0.009980222,0.28074,1.01625
137.566,22.7962,-0.01108061,0.28071,1.01602
138.166,22.85141,-0.01008955,0.28099,1.01578
138.766,22.90709,-0.01051075,0.28309,1.01554
139.366,22.9629,-0.01139521,0.28258,1.01531
139.966,23.01856,-0.01006733,0.28348,1.01507
140.566,23.07496,-0.01140909,0.28247,1.01483
141.166,23.1312,-0.0114345,0.28465,1.01458
141.766,23.18744,-0.01009592,0.28631,1.01434
142.366,23.24345,-0.01009001,0.28567,1.0141
142.966,23.29872,-0.01008945,0.28701,1.01385
143.566,23.3541,-0.008922587,0.28616,1.0136
144.166,23.4093,-0.01037771,0.28937,1.01336
144.766,23.4645,-0.01140102,0.28913,1.01311
145.366,23.51983,-0.01141,0.28827,1.01286
145.966,23.5747,-0.01141443,0.28994,1.01261
146.566,23.6298,-0.01041947,0.28912,1.01235
147.166,23.68485,-0.01139622,0.28931,1.0121
147.766,23.7401,-0.01273066,0.29148,1.01184
148.366,23.7953,-0.01140362,0.2904,1.01159
148.966,23.85043,-0.01138067,0.29237,1.01133
149.566,23.9054,-0.0104197,0.29568,1.01107
150.166,23.96011,-0.01196054,0.29215,1.01081
150.766,24.0149,-0.01198291,0.29353,1.01055
151.366,24.06971,-0.01162004,0.29489,1.01029
151.966,24.12452,-0.01166319,0.29542,1.01003
152.566,24.17933,-0.01030956,0.29425,1.00976
153.166,24.23412,-0.01031055,0.29478,1.00949
153.766,24.28893,-0.0106458,0.29416,1.00923
154.366,24.34374,-0.0100281,0.29788,1.00896
154.966,24.3982,-0.01064018,0.29925,1.00869
155.566,24.45289,-0.01064119,0.29748,1.00842
156.166,24.50742,-0.01168519,0.29805,1.00815
156.766,24.562,-0.0116332,0.29781,1.00788
157.366,24.6166,-0.01079622,0.29769,1.0076
157.966,24.67087,-0.0116372,0.30156,1.00733
158.566,24.7254,-0.01162764,0.30082,1.00705
159.166,24.78003,-0.01196149,0.30128,1.00677
159.766,24.83469,-0.01197246,0.30185,1.00649
160.366,24.88961,-0.01162766,0.30057,1.00621
160.966,24.94421,-0.01126475,0.30428,1.00593
161.566,24.9987,-0.01126882,0.3031,1.00565
162.166,25.05311,-0.01262339,0.30363,1.00537
162.766,25.10749,-0.01129024,0.30396,1.00508
163.366,25.16183,-0.01260853,0.30502,1.0048
163.966,25.21632,-0.01260998,0.30488,1.00451
164.566,25.27094,-0.01259897,0.30312,1.00422
165.166,25.32554,-0.01126642,0.30447,1.00394
165.766,25.38,-0.01261996,0.30518,1.00365
166.366,25.4344,-0.01262603,0.30605,1.00336
166.966,25.48876,-0.01129839,0.30817,1.00306
167.566,25.54306,-0.01130121,0.30699,1.00277
168.166,25.59734,-0.01259624,0.30757,1.00248
168.766,25.65168,-0.01248854,0.30814,1.00218
169.366,25.70594,-0.01129012,0.30961,1.00188
169.966,25.7603,-0.01129116,0.30784,1.00159
170.566,25.8145,-0.01300692,0.30509,1.00129
171.166,25.86871,-0.01403991,0.30859,1.00099
171.766,25.9229,-0.01404,0.31013,1.00069
172.366,25.97713,-0.01404025,0.30729,1.00038
172.966,26.03122,-0.01328888,0.31081,1.00008
173.566,26.08531,-0.01272975,0.30911,0.99978
174.166,26.13926,-0.01273259,0.31125,0.99947
174.766,26.19312,-0.01141183,0.30969,0.99917
175.366,26.2473,-0.01141,0.31053,0.99886
175.966,26.30126,-0.01141023,0.31277,0.99855
176.566,26.35528,-0.01247797,0.30878,0.99824
177.166,26.40922,-0.01271299,0.31128,0.99793
177.766,26.463,-0.01272979,0.3119,0.99762
178.366,26.5171,-0.01315171,0.31251,0.99731
178.966,26.57109,-0.01404014,0.31194,0.99699
179.566,26.62511,-0.01404018,0.31164,0.99668
180.166,26.67902,-0.01349565,0.3136,0.99636
180.766,26.73269,-0.01140865,0.31364,0.99604
181.366,26.7865,-0.01275759,0.31612,0.99573
181.966,26.8402,-0.01404106,0.31631,0.99541
182.566,26.8936,-0.01271332,0.31658,0.99509
183.166,26.9474,-0.01272,0.31638,0.99477
183.766,27.0011,-0.01272,0.31642,0.99444
184.366,27.05472,-0.01271955,0.31709,0.99412
184.966,27.10861,-0.0140653,0.31662,0.9938
185.566,27.16214,-0.01404002,0.31697,0.99347
186.166,27.2158,-0.01406122,0.31721,0.99315
186.766,27.2694,-0.0140434,0.31789,0.99282
187.366,27.32293,-0.02103259,0.31937,0.99249
187.966,27.3765,-0.009517015,0.31977,0.99216
188.566,27.43017,-0.01109805,0.31932,0.99183
189.166,27.48375,-0.01268595,0.3208,0.9915
189.766,27.53738,-0.01313795,0.32056,0.99117
190.366,27.59102,-0.01174483,0.3204,0.99083
190.966,27.64443,-0.01304813,0.32128,0.9905
191.566,27.6981,-0.01304979,0.32247,0.99016
192.166,27.75153,-0.01383656,0.32299,0.98983
192.766,27.80501,-0.01311574,0.32211,0.98949
193.366,27.8586,-0.01305122,0.32249,0.98915
193.966,27.912,-0.01437546,0.32152,0.98881
194.566,27.9656,-0.01436997,0.32478,0.98847
195.166,28.019,-0.01437657,0.32389,0.98813
195.766,28.0725,-0.01568341,0.32553,0.98779
196.366,28.12606,-0.01567949,0.32636,0.98744
196.966,28.17935,-0.01661252,0.3271,0.9871
197.566,28.2327,-0.01698114,0.32739,0.98676
198.166,28.2861,-0.01569145,0.32648,0.98641
198.766,28.3396,-0.01569,0.32857,0.98606
199.366,28.39296,-0.01569,0.32954,0.98571
199.966,28.4459,-0.01568997,0.33005,0.98536
200.566,28.49942,-0.01569799,0.32907,0.98501
201.166,28.5529,-0.01699947,0.32952,0.98466
201.766,28.60667,-0.01582184,0.32951,0.98431
202.366,28.66048,-0.01700013,0.33052,0.98396
202.966,28.7138,-0.01707368,0.33163,0.9836
203.566,28.76717,-0.01567971,0.33385,0.98325
204.166,28.82055,-0.01567928,0.33284,0.98289
204.766,28.87414,-0.01700697,0.33267,0.98254
205.366,28.9275,-0.01699664,0.33331,0.98218
205.966,28.98088,-0.0182983,0.3327,0.98182
206.566,29.0341,-0.01766052,0.33477,0.98146
207.166,29.0873,-0.01765875,0.33465,0.9811
207.766,29.14072,-0.01701705,0.33541,0.98074
208.366,29.19422,-0.01701008,0.33511,0.98038
208.966,29.2477,-0.01692779,0.33687,0.98002
209.566,29.3011,-0.01831993,0.339,0.97965
210.166,29.3544,-0.01832579,0.33713,0.97929
210.766,29.4077,-0.0158636,0.33625,0.97892
211.366,29.46102,-0.01572576,0.33787,0.97855
211.966,29.51455,-0.01699905,0.33862,0.97819
212.566,29.56802,-0.01698118,0.33879,0.97782
213.166,29.62142,-0.01930806,0.34172,0.97745
213.766,29.6749,-0.01930999,0.33589,0.97708
214.366,29.7282,-0.01931527,0.33946,0.97671
214.966,29.7814,-0.01799118,0.34049,0.97633
215.566,29.8348,-0.01799,0.33954,0.97596
216.166,29.88808,-0.01799,0.34039,0.97559
216.766,29.94142,-0.0179903,0.34206,0.97521
217.366,29.99495,-0.0193845,0.34253,0.97484
217.966,30.0484,-0.02075234,0.34146,0.97446
218.566,30.1018,-0.02802307,0.34328,0.97408
219.166,30.1552,-0.01310879,0.34238,0.9737
219.766,30.2087,-0.01723393,0.34313,0.97332
220.366,30.26213,-0.02024071,0.3431,0.97294
220.966,30.3157,-0.0201799,0.34055,0.97256
221.566,30.36921,-0.01870383,0.34331,0.97218
222.166,30.42261,-0.01863819,0.34359,0.9718
222.766,30.47601,-0.021636,0.34489,0.97142
223.366,30.52934,-0.02089451,0.34494,0.97103
223.966,30.5827,-0.01887407,0.34632,0.97065
224.566,30.6363,-0.02020458,0.34644,0.97026
225.166,30.6897,-0.02148993,0.34762,0.96987
225.766,30.7433,-0.02149,0.34757,0.96949
226.366,30.7969,-0.02149,0.34948,0.9691
226.966,30.85036,-0.02149001,0.34809,0.96871
227.566,30.90383,-0.02141522,0.35058,0.96832
228.166,30.95719,-0.02281028,0.34935,0.96793
228.766,31.0107,-0.02281001,0.34794,0.96754
229.366,31.06424,-0.02276338,0.35011,0.96714
229.966,31.11778,-0.02151288,0.34918,0.96675
230.566,31.17135,-0.0228119,0.35233,0.96635
231.166,31.2248,-0.02290561,0.34897,0.96596
231.766,31.2782,-0.02289111,0.35114,0.96556
232.366,31.3316,-0.02138941,0.35019,0.96517
232.966,31.38506,-0.02197886,0.3512,0.96477
233.566,31.4385,-0.02303966,0.35133,0.96437
234.166,31.4921,-0.02351182,0.34976,0.96397
234.766,31.5456,-0.02401894,0.35151,0.96357
235.366,31.59924,-0.02336084,0.353,0.96317
235.966,31.65285,-0.02263771,0.35267,0.96277
236.566,31.70638,-0.02402627,0.35475,0.96237
237.166,31.76,-0.02500996,0.35129,0.96196
237.766,31.81342,-0.02500997,0.355,0.96156
238.366,31.86696,-0.02501667,0.35303,0.96116
238.966,31.9205,-0.02370033,0.35503,0.96075
239.566,31.97405,-0.02247465,0.356,0.96034
240.166,32.02776,-0.02255748,0.35384,0.95994
240.766,32.08137,-0.02367438,0.35339,0.95953
241.366,32.13496,-0.0246857,0.35648,0.95912
241.966,32.1884,-0.02403582,0.35444,0.95871
242.566,32.24184,-0.0241767,0.35647,0.9583
243.166,32.29544,-0.02555926,0.35627,0.95789
243.766,32.34896,-0.02689816,0.35599,0.95748
244.366,32.40262,-0.02688003,0.35664,0.95707
244.966,32.45613,-0.02688,0.35863,0.95665
245.566,32.5097,-0.02688003,0.35851,0.95624
246.166,32.56312,-0.02715667,0.35596,0.95583
246.766,32.61667,-0.02786037,0.35883,0.95541
247.366,32.67034,-0.02786,0.35792,0.955
247.966,32.72404,-0.02786054,0.35822,0.95458
248.566,32.77795,-0.02820431,0.35739,0.95416
249.166,32.83144,-0.02819001,0.36046,0.95374
249.766,32.8852,-0.02819,0.35841,0.95332
250.366,32.93874,-0.0281897,0.35952,0.9529
250.966,32.9923,-0.02948747,0.3598,0.95248
251.566,33.04611,-0.02950985,0.35918,0.95206
252.166,33.09968,-0.02983258,0.36372,0.95164
252.766,33.15341,-0.02850963,0.36012,0.95122
253.366,33.20712,-0.03088551,0.36037,0.9508
253.966,33.2609,-0.03082002,0.36219,0.95037
254.566,33.31429,-0.03082,0.35992,0.94995
255.166,33.36796,-0.03082,0.36228,0.94952
255.766,33.42154,-0.03081985,0.36245,0.9491
256.366,33.47517,-0.03222862,0.36042,0.94867
256.966,33.52908,-0.03214447,0.35999,0.94824
257.566,33.58283,-0.03246905,0.36184,0.94781
258.166,33.6366,-0.03386394,0.36243,0.94739
258.766,33.69038,-0.03226741,0.3627,0.94696
259.366,33.744,-0.03291564,0.3647,0.94653
259.966,33.79752,-0.03468793,0.36443,0.9461
260.566,33.85099,-0.03487994,0.36362,0.94566
261.166,33.90453,-0.03488628,0.3632,0.94523
261.766,33.95819,-0.03359725,0.36709,0.9448
262.366,34.01195,-0.0363033,0.36351,0.94437
262.966,34.06566,-0.03501201,0.36229,0.94393
263.566,34.11926,-0.03499,0.36479,0.9435
264.166,34.17304,-0.03499858,0.36605,0.94306
264.766,34.22687,-0.03629142,0.36416,0.94263
265.366,34.28048,-0.0363,0.36343,0.94219
265.966,34.33435,-0.0363,0.36407,0.94175
266.566,34.388,-0.03629957,0.36356,0.94131
267.166,34.44165,-0.03737861,0.36529,0.94088
267.766,34.49548,-0.03894047,0.36525,0.94044
268.366,34.54918,-0.03894289,0.36543,0.94
268.966,34.60289,-0.03761231,0.36538,0.93956
269.566,34.65659,-0.03861024,0.36278,0.93912
270.166,34.71031,-0.03962839,0.36454,0.93867
270.766,34.76397,-0.04037033,0.36477,0.93823
271.366,34.8178,-0.04037001,0.36448,0.93779
271.966,34.8716,-0.0403795,0.36623,0.93734
272.566,34.92568,-0.04162765,0.3649,0.9369
273.166,34.97978,-0.04299013,0.36289,0.93646
273.766,35.03378,-0.04299,0.36301,0.93601
274.366,35.08783,-0.04299,0.36278,0.93556
274.966,35.1417,-0.04298983,0.36218,0.93512
275.566,35.19551,-0.04439454,0.36334,0.93467
276.166,35.24933,-0.04430758,0.36315,0.93422
276.766,35.30319,-0.04497608,0.36527,0.93377
277.366,35.3571,-0.04421667,0.36471,0.93332
277.966,35.4111,-0.04562998,0.366,0.93288
278.566,35.4651,-0.04535663,0.36622,0.93243
279.166,35.51895,-0.04564517,0.36524,0.93197
279.766,35.57277,-0.04694827,0.36634,0.93152
280.366,35.62675,-0.04695,0.36448,0.93107
280.966,35.6806,-0.04695,0.36434,0.93062
281.566,35.73453,-0.04699912,0.36359,0.93017
282.166,35.7886,-0.04826013,0.3649,0.92971
282.766,35.84239,-0.04962406,0.36537,0.92926
283.366,35.8962,-0.05093873,0.36414,0.9288
283.966,35.9503,-0.0509,0.36617,0.92835
284.566,36.00424,-0.05089415,0.3659,0.92789
285.166,36.05822,-0.05221195,0.36804,0.92744
285.766,36.11233,-0.05219876,0.36437,0.92698
286.366,36.16633,-0.05251498,0.36629,0.92652
286.966,36.22039,-0.05507126,0.36608,0.92606
287.566,36.27449,-0.05365591,0.36529,0.9256
288.166,36.32853,-0.05375066,0.36471,0.92514
288.766,36.38245,-0.05505889,0.36413,0.92468
289.366,36.4367,-0.05638399,0.36203,0.92422
289.966,36.49067,-0.05507501,0.36618,0.92376
290.566,36.54506,-0.05630785,0.36352,0.9233
291.166,36.59946,-0.05735726,0.36573,0.92284
291.766,36.65341,-0.05772654,0.36584,0.92238
292.366,36.70766,-0.05899416,0.36107,0.92192
292.966,36.76171,-0.05901003,0.36474,0.92145
293.566,36.81585,-0.05997252,0.36573,0.92099
294.166,36.8701,-0.06132216,0.36548,0.92052
294.766,36.92438,-0.06203818,0.36748,0.92006
295.366,36.97865,-0.0629623,0.36723,0.91959
295.966,37.03304,-0.06165441,0.36566,0.91913
296.566,37.0875,-0.06431524,0.3665,0.91866
297.166,37.14182,-0.06428002,0.36455,0.91819
297.766,37.1961,-0.0642795,0.36566,0.91773
298.366,37.25036,-0.06529943,0.366,0.91726
298.966,37.30447,-0.06559001,0.36828,0.91679
299.566,37.3588,-0.0655979,0.36787,0.91632
300.166,37.4131,-0.06690924,0.37158,0.91585
300.766,37.46743,-0.06822353,0.37177,0.91538
301.366,37.5219,-0.06821982,0.3726,0.91491
301.966,37.57627,-0.06961198,0.37161,0.91444
302.566,37.63066,-0.06811726,0.37301,0.91397
303.166,37.68499,-0.06951357,0.37193,0.9135
303.766,37.73923,-0.07204431,0.37322,0.91303
304.366,37.7935,-0.07207026,0.37369,0.91255
304.966,37.84795,-0.07072248,0.37457,0.91208
305.566,37.90254,-0.07209159,0.37262,0.91161
306.166,37.95733,-0.07465418,0.37401,0.91113
306.766,38.01188,-0.07492046,0.3743,0.91066
307.366,38.06645,-0.07620919,0.37594,0.91018
307.966,38.12042,-0.07490831,0.3742,0.90971
308.566,38.1744,-0.07552766,0.37417,0.90923
309.166,38.22869,-0.0775498,0.37534,0.90875
309.766,38.2831,-0.07780437,0.3752,0.90828
310.366,38.3379,-0.07885994,0.37535,0.9078
310.966,38.3928,-0.07885998,0.37628,0.90732
311.566,38.44747,-0.07888365,0.37387,0.90684
312.166,38.50206,-0.08018115,0.3709,0.90637
312.766,38.5567,-0.08147176,0.37721,0.90589
313.366,38.61123,-0.08149195,0.373,0.90541
313.966,38.66576,-0.08182957,0.37593,0.90493
314.566,38.72038,-0.08185277,0.37283,0.90445
315.166,38.775,-0.08313989,0.37424,0.90397
315.766,38.82974,-0.08313836,0.36945,0.90349
316.366,38.8844,-0.0854438,0.37163,0.903
316.966,38.93891,-0.08545716,0.37038,0.90252
317.566,38.9936,-0.08805777,0.37095,0.90204
318.166,39.04797,-0.08807518,0.37291,0.90156
318.766,39.10255,-0.08938731,0.37017,0.90108
319.366,39.15733,-0.08809475,0.36875,0.90059
319.966,39.21197,-0.08958652,0.36904,0.90011
320.566,39.2669,-0.09070986,0.36814,0.89962
321.166,39.3216,-0.09071061,0.36745,0.89914
321.766,39.37642,-0.09200164,0.36641,0.89865
322.366,39.43132,-0.09201999,0.36855,0.89817
322.966,39.48646,-0.09201303,0.36925,0.89768
323.566,39.54187,-0.09333924,0.36527,0.8972
324.166,39.59722,-0.09463871,0.36414,0.89671
324.766,39.65255,-0.09465999,0.36492,0.89622
325.366,39.7076,-0.09466012,0.36393,0.89574
325.966,39.76259,-0.09605818,0.36148,0.89525
326.566,39.8175,-0.09596657,0.36113,0.89476
327.166,39.8725,-0.09727756,0.36172,0.89427
327.766,39.92749,-0.09728952,0.35806,0.89378
328.366,39.98236,-0.09858231,0.35633,0.89329
328.966,40.0374,-0.09878225,0.35557,0.89281
329.566,40.09191,-0.10022,0.35449,0.89232
330.166,40.1466,-0.10309,0.35465,0.89183
330.766,40.2014,-0.1031,0.35138,0.89134
331.366,40.25609,-0.10443,0.34892,0.89084
331.966,40.3113,-0.10577,0.34978,0.89035
332.566,40.36631,-0.10707,0.34751,0.88986
333.166,40.42132,-0.10711,0.3483,0.88937
333.766,40.47623,-0.10837,0.34673,0.88888
334.366,40.53117,-0.10837,0.34612,0.88839
334.966,40.58619,-0.10965,0.3415,0.88789
335.566,40.6413,-0.10971,0.34286,0.8874
336.166,40.69658,-0.11117,0.34002,0.88691
336.766,40.75213,-0.11383,0.33802,0.88641
337.366,40.80754,-0.11273,0.33999,0.88592
337.966,40.8629,-0.11117,0.34135,0.88542
338.566,40.9179,-0.11256,0.33714,0.88493
339.166,40.9728,-0.11386,0.33583,0.88443
339.766,41.0278,-0.11385,0.33515,0.88394
340.366,41.08267,-0.11515,0.33525,0.88344
340.966,41.1378,-0.11595,0.33384,0.88295
341.566,41.1928,-0.11534,0.33225,0.88245
342.166,41.2478,-0.11649,0.33053,0.88196
342.766,41.30288,-0.11648,0.32668,0.88146
343.366,41.35797,-0.11845,0.32431,0.88096
343.966,41.41316,-0.11911,0.32305,0.88046
344.566,41.46847,-0.11978,0.3243,0.87997
345.166,41.52381,-0.11974,0.32042,0.87947
345.766,41.5792,-0.12109,0.32263,0.87897
346.366,41.63452,-0.1215,0.31757,0.87847
346.966,41.68979,-0.12241,0.31665,0.87797
347.566,41.7451,-0.12378,0.31516,0.87747
348.166,41.80019,-0.12373,0.31591,0.87697
348.766,41.85549,-0.12571,0.31334,0.87648
349.366,41.91084,-0.12569,0.31238,0.87598
349.966,41.966,-0.12702,0.31143,0.87548
350.566,42.0212,-0.12702,0.30733,0.87498
351.166,42.07666,-0.12836,0.30969,0.87447
351.766,42.132,-0.12833,0.30744,0.87397
352.366,42.18766,-0.12824,0.30755,0.87347
352.966,42.24334,-0.13058,0.30329,0.87297
353.566,42.29869,-0.13097,0.30313,0.87247
354.166,42.35414,-0.13173,0.30243,0.87197
354.766,42.4096,-0.13324,0.3013,0.87147
355.366,42.46498,-0.13403,0.29977,0.87096
355.966,42.5205,-0.13491,0.30141,0.87046
356.566,42.57598,-0.13624,0.29738,0.86996
357.166,42.6314,-0.13692,0.29549,0.86946
357.766,42.6869,-0.13753,0.29208,0.86895
358.366,42.7425,-0.13886,0.29276,0.86845
358.966,42.79811,-0.1402,0.29035,0.86795
359.566,42.85344,-0.1405,0.28894,0.86744
360.166,42.90874,-0.14185,0.28648,0.86694
360.766,42.96407,-0.14206,0.28734,0.86643
361.366,43.01938,-0.14244,0.28663,0.86593
361.966,43.075,-0.14481,0.28557,0.86542
362.566,43.1303,-0.14577,0.28509,0.86492
363.166,43.186,-0.1472,0.28143,0.86441
363.766,43.24168,-0.14687,0.27932,0.86391
364.366,43.29741,-0.14688,0.2779,0.8634
364.966,43.3532,-0.14818,0.27573,0.8629
365.566,43.4088,-0.14946,0.27866,0.86239
366.166,43.46443,-0.15095,0.27756,0.86189
366.766,43.52016,-0.15092,0.27522,0.86138
367.366,43.5759,-0.15093,0.27761,0.86087
367.966,43.63162,-0.15234,0.27778,0.86037
368.566,43.68717,-0.15489,0.27582,0.85986
369.166,43.74283,-0.15474,0.27512,0.85935
369.766,43.79865,-0.1574,0.27741,0.85885
370.366,43.8544,-0.15819,0.27715,0.85834
370.966,43.91029,-0.15873,0.27959,0.85783
371.566,43.96608,-0.16006,0.27908,0.85732
372.166,44.02191,-0.16135,0.28073,0.85682
372.766,44.07768,-0.16401,0.27732,0.85631
373.366,44.13349,-0.16531,0.2808,0.8558
373.966,44.1892,-0.16532,0.28418,0.85529
374.566,44.24495,-0.16664,0.28354,0.85478
375.166,44.3006,-0.16863,0.28471,0.85427
375.766,44.35642,-0.17057,0.28949,0.85377
376.366,44.41205,-0.17192,0.28912,0.85326
376.966,44.4679,-0.17322,0.2915,0.85275
377.566,44.52375,-0.17447,0.29269,0.85224
378.166,44.5797,-0.17657,0.29472,0.85173
378.766,44.6357,-0.17836,0.29994,0.85122
379.366,44.69161,-0.17989,0.30587,0.85071
379.966,44.74751,-0.18125,0.30749,0.8502
380.566,44.8033,-0.1829,0.3122,0.84969
381.166,44.85922,-0.18665,0.31521,0.84918
381.766,44.91538,-0.18768,0.31978,0.84867
382.366,44.9714,-0.18817,0.32586,0.84816
382.966,45.02732,-0.19093,0.32813,0.84765
383.566,45.08319,-0.19366,0.33621,0.84714
384.166,45.1392,-0.19431,0.33986,0.84663
384.766,45.19531,-0.19679,0.34671,0.84612
385.366,45.2513,-0.20031,0.35479,0.84561
385.966,45.30738,-0.20236,0.36178,0.8451
386.566,45.36342,-0.20253,0.36596,0.84459
387.166,45.4194,-0.20591,0.37493,0.84407
387.766,45.4754,-0.20974,0.38492,0.84356
388.366,45.53123,-0.21163,0.39052,0.84305
388.966,45.58713,-0.21419,0.39951,0.84254
389.566,45.64314,-0.21599,0.41043,0.84203
390.166,45.69936,-0.2198,0.416,0.84152
390.766,45.75566,-0.22174,0.42689,0.84101
391.366,45.812,-0.22495,0.43647,0.84049
391.966,45.86823,-0.22708,0.44867,0.83998
392.566,45.92414,-0.23074,0.45979,0.83947
393.166,45.98037,-0.23345,0.47344,0.83896
393.766,46.03654,-0.23931,0.48516,0.83845
394.366,46.0929,-0.24272,0.50077,0.83793
394.966,46.14954,-0.246,0.51259,0.83742
395.566,46.2059,-0.25047,0.52538,0.83691
396.166,46.26226,-0.25354,0.54345,0.8364
396.766,46.31857,-0.2568,0.55829,0.83588
397.366,46.37481,-0.26101,0.57445,0.83537
397.966,46.43123,-0.26635,0.59008,0.83486
398.566,46.4874,-0.27058,0.6108,0.83435
399.166,46.54387,-0.27675,0.6286,0.83383
399.766,46.6004,-0.28215,0.64818,0.83332
400.366,46.6569,-0.28787,0.66659,0.83281
400.966,46.71353,-0.29282,0.69177,0.83229
401.566,46.77004,-0.29879,0.71366,0.83178
402.166,46.82658,-0.30272,0.739,0.83127
402.766,46.88303,-0.31195,0.76399,0.83076
403.366,46.93955,-0.31812,0.79408,0.83024
403.966,46.9962,-0.32704,0.82125,0.82973
404.566,47.05278,-0.33304,0.85147,0.82922
405.166,47.10948,-0.33927,0.88284,0.8287
405.766,47.16623,-0.35341,0.91671,0.82819
406.366,47.22285,-0.36177,0.9547,0.82768
406.966,47.27965,-0.36992,0.99267,0.82716
407.566,47.3365,-0.37978,1.03324,0.82665
408.166,47.39317,-0.38951,1.07605,0.82614
408.766,47.45002,-0.40255,1.12107,0.82562
409.366,47.5067,-0.41473,1.16892,0.82511
409.966,47.5634,-0.42767,1.21544,0.8246
410.566,47.62018,-0.44076,1.26603,0.82408
411.166,47.67706,-0.4565,1.32261,0.82357
411.766,47.7343,-0.47227,1.38215,0.82306
412.366,47.79173,-0.48711,1.44243,0.82254
412.966,47.84908,-0.49683,1.5055,0.82203
413.566,47.9064,-0.51717,1.57458,0.82152
414.166,47.9636,-0.53776,1.64383,0.821
414.766,48.02064,-0.55599,1.72044,0.82049
415.366,48.07793,-0.57822,1.79644,0.81998
415.966,48.13492,-0.59935,1.87437,0.81946
416.566,48.19193,-0.62402,1.95351,0.81895
417.166,48.24882,-0.64765,2.05299,0.81844
417.766,48.30594,-0.67336,2.14845,0.81792
418.366,48.36303,-0.70253,2.23709,0.81741
418.966,48.4203,-0.73132,2.32049,0.8169
419.566,48.47768,-0.76088,2.41152,0.81638
420.166,48.535,-0.79128,2.51425,0.81587
420.766,48.5923,-0.82293,2.61257,0.81536
421.366,48.64952,-0.85945,2.71691,0.81484
421.966,48.7067,-0.89505,2.81906,0.81433
422.566,48.7641,-0.93454,2.91308,0.81382
423.166,48.82175,-0.97247,3.00522,0.8133
423.766,48.87948,-1.01551,3.11087,0.81279
424.366,48.93723,-1.05984,3.21074,0.81228
424.966,48.9949,-1.09503,3.30837,0.81177
425.566,49.05237,-1.14465,3.401,0.81125
426.166,49.10992,-1.19243,3.49433,0.81074
426.766,49.16762,-1.24265,3.58815,0.81023
427.366,49.2252,-1.29155,3.68924,0.80971
427.966,49.2828,-1.345,3.77752,0.8092
428.566,49.34059,-1.39633,3.87078,0.80869
429.166,49.39837,-1.45505,3.94594,0.80818
429.766,49.45625,-1.51032,4.01425,0.80766
430.366,49.51392,-1.57062,4.07772,0.80715
430.966,49.57135,-1.62948,4.13927,0.80664
431.566,49.6291,-1.6895,4.17533,0.80613
432.166,49.6869,-1.75257,4.21036,0.80561
432.766,49.7444,-1.81357,4.22928,0.8051
433.366,49.80182,-1.87883,4.24023,0.80459
433.966,49.85923,-1.93875,4.2378,0.80408
434.566,49.9164,-2.00314,4.23214,0.80356
435.166,49.9739,-2.06273,4.22192,0.80305
435.766,50.0313,-2.12602,4.20331,0.80254
436.366,50.0886,-2.18652,4.17165,0.80203
436.966,50.14594,-2.24754,4.13134,0.80152
437.566,50.2031,-2.30914,4.08439,0.80101
438.166,50.26012,-2.36857,4.02838,0.80049
438.766,50.31682,-2.42922,3.96745,0.79998
439.366,50.37379,-2.48573,3.89553,0.79947
439.966,50.43076,-2.54258,3.81784,0.79896
440.566,50.48775,-2.5952,3.73694,0.79845
441.166,50.54487,-2.65215,3.65085,0.79794
441.766,50.60176,-2.70393,3.55826,0.79743
442.366,50.65855,-2.75602,3.45943,0.79692
442.966,50.71517,-2.80808,3.36579,0.79641
443.566,50.77186,-2.85504,3.25984,0.79589
444.166,50.82858,-2.90452,3.16089,0.79538
444.766,50.88523,-2.94822,3.0562,0.79487
445.366,50.94193,-2.99323,2.95142,0.79436
445.966,50.99845,-3.0389,2.84516,0.79385
446.566,51.05498,-3.07799,2.73837,0.79334
447.166,51.1116,-3.12,2.62626,0.79283
447.766,51.16815,-3.15717,2.51818,0.79232
448.366,51.2247,-3.19503,2.41403,0.79181
448.966,51.28115,-3.22976,2.30948,0.7913
449.566,51.3375,-3.26366,2.20324,0.79079
450.166,51.39412,-3.29642,2.09822,0.79028
450.766,51.4508,-3.32754,1.99623,0.78977
451.366,51.50742,-3.35832,1.89896,0.78927
451.966,51.564,-3.38715,1.80202,0.78876
452.566,51.62065,-3.41316,1.71158,0.78825
453.166,51.6774,-3.44051,1.62149,0.78774
453.766,51.73406,-3.46304,1.53125,0.78723
454.366,51.79116,-3.48685,1.44525,0.78672
454.966,51.8481,-3.50837,1.3655,0.78621
455.566,51.90509,-3.53097,1.28904,0.78571
456.166,51.96219,-3.54844,1.21816,0.7852
456.766,52.0191,-3.56886,1.15086,0.78469
457.366,52.07609,-3.58714,1.08772,0.78418
457.966,52.13301,-3.6042,1.0289,0.78367
458.566,52.1898,-3.62037,0.9705,0.78317
459.166,52.24685,-3.63645,0.92169,0.78266
459.766,52.30369,-3.65169,0.87347,0.78215
460.366,52.36067,-3.66564,0.83283,0.78164
460.966,52.41772,-3.68084,0.79146,0.78114
461.566,52.47458,-3.69481,0.75123,0.78063
462.166,52.5316,-3.70725,0.71843,0.78012
462.766,52.58865,-3.71963,0.68488,0.77962
463.366,52.6455,-3.73087,0.65721,0.77911
463.966,52.7026,-3.74308,0.6285,0.77861
464.566,52.75985,-3.75235,0.60058,0.7781
465.166,52.81723,-3.76459,0.57343,0.7776
465.766,52.8746,-3.77429,0.5483,0.77709
466.366,52.9318,-3.78471,0.52436,0.77658
466.966,52.9889,-3.79396,0.50137,0.77608
467.566,53.0461,-3.80441,0.47638,0.77557
468.166,53.10326,-3.81344,0.45619,0.77507
468.766,53.16047,-3.8202,0.43687,0.77456
469.366,53.2177,-3.82939,0.4157,0.77406
469.966,53.275,-3.83725,0.39599,0.77356
470.566,53.33249,-3.84389,0.37674,0.77305
471.166,53.39,-3.85195,0.35938,0.77255
471.766,53.44749,-3.85866,0.33786,0.77204
472.366,53.50496,-3.86554,0.31769,0.77154
472.966,53.5625,-3.87251,0.29729,0.77104
473.566,53.61991,-3.87948,0.28378,0.77054
474.166,53.67754,-3.88619,0.26098,0.77003
474.766,53.7353,-3.89175,0.24301,0.76953
475.366,53.79297,-3.89772,0.22398,0.76903
475.966,53.8509,-3.90143,0.20951,0.76853
476.566,53.90855,-3.90697,0.18871,0.76802
477.166,53.96635,-3.91084,0.17471,0.76752
477.766,54.02423,-3.91504,0.15424,0.76702
478.366,54.08205,-3.91881,0.14009,0.76652
478.966,54.1395,-3.92266,0.11898,0.76602
479.566,54.1973,-3.92446,0.10405,0.76552
480.166,54.25509,-3.92767,0.09009179,0.76502
480.766,54.3127,-3.93071,0.0779802,0.76452
481.366,54.37089,-3.93344,0.06402201,0.76401
481.966,54.4287,-3.93605,0.05162062,0.76351
482.566,54.48664,-3.93881,0.0397572,0.76301
483.166,54.5445,-3.94127,0.02719851,0.76252
483.766,54.60239,-3.94034,0.01211674,0.76202
484.366,54.66005,-3.94321,0.00388909,0.76152
484.966,54.7176,-3.94453,-0.004284139,0.76102
485.566,54.77499,-3.94584,-0.01676502,0.76052
486.166,54.8325,-3.94718,-0.02510575,0.76002
486.766,54.89004,-3.94848,-0.02866726,0.75952
487.366,54.9477,-3.95115,-0.03781495,0.75902
487.966,55.00549,-3.94978,-0.04368778,0.75853
488.566,55.06325,-3.95177,-0.04726368,0.75803
489.166,55.121,-3.95243,-0.05336943,0.75753
489.766,55.1787,-3.95243,-0.05832758,0.75704
490.366,55.2366,-3.95375,-0.06168965,0.75654
490.966,55.2944,-3.95376,-0.06561198,0.75604
491.566,55.35194,-3.95378,-0.06605722,0.75555
492.166,55.40956,-3.95374,-0.06842661,0.75505
492.766,55.4676,-3.95374,-0.06874028,0.75455
493.366,55.52585,-3.95374,-0.07302031,0.75406
493.966,55.584,-3.95503,-0.07488161,0.75356
494.566,55.64232,-3.95487,-0.07528609,0.75307
495.166,55.7004,-3.9544,-0.07190996,0.75257
495.766,55.75845,-3.9544,-0.07783282,0.75208
496.366,55.8165,-3.9544,-0.08099924,0.75158
496.966,55.8745,-3.95308,-0.07966547,0.75109
497.566,55.9326,-3.95389,-0.07875461,0.7506
498.166,55.99054,-3.95276,-0.07771053,0.7501
498.766,56.04854,-3.95297,-0.08313384,0.74961
499.366,56.10645,-3.95407,-0.08105969,0.74912
499.966,56.1644,-3.95407,-0.08274234,0.74863
500.566,56.2226,-3.95407,-0.08408385,0.74813
501.166,56.28049,-3.95407,-0.08405901,0.74764
501.766,56.3386,-3.95407,-0.09011542,0.74715
502.366,56.3967,-3.95369,-0.0918634,0.74666
502.966,56.4548,-3.95276,-0.09064469,0.74617
503.566,56.5129,-3.95276,-0.09261838,0.74568
504.166,56.5708,-3.95177,-0.09102349,0.74518
504.766,56.62888,-3.95177,-0.09440669,0.74469
505.366,56.68695,-3.95255,-0.09866944,0.7442
505.966,56.74501,-3.95203,-0.10062,0.74371
506.566,56.8031,-3.95323,-0.1027,0.74323
507.166,56.86111,-3.95441,-0.10324,0.74274
507.766,56.9193,-3.9544,-0.10215,0.74225
508.366,56.9775,-3.95312,-0.10552,0.74176
508.966,57.0356,-3.95177,-0.10873,0.74127
509.566,57.09385,-3.95177,-0.10212,0.74078
510.166,57.152,-3.95183,-0.10415,0.74029
510.766,57.21023,-3.95441,-0.10582,0.73981
511.366,57.2685,-3.95443,-0.10528,0.73932
511.966,57.3265,-3.95305,-0.10761,0.73883
512.566,57.3845,-3.95276,-0.10503,0.73835
513.166,57.4425,-3.95276,-0.10287,0.73786
513.766,57.5009,-3.95374,-0.10254,0.73737
514.366,57.55925,-3.95408,-0.09991827,0.73689
514.966,57.61784,-3.95408,-0.10036,0.7364
515.566,57.67649,-3.95339,-0.10165,0.73592
516.166,57.7351,-3.9521,-0.09999281,0.73543
516.766,57.7935,-3.9533,-0.10132,0.73495
517.366,57.8519,-3.95342,-0.10093,0.73447
517.966,57.91032,-3.95308,-0.09844933,0.73398
518.566,57.9688,-3.95181,-0.09839678,0.7335
519.166,58.0274,-3.9522,-0.09726207,0.73302
519.766,58.08589,-3.9532,-0.09830974,0.73253
520.366,58.14435,-3.9532,-0.09969556,0.73205
520.966,58.20293,-3.95457,-0.09845422,0.73157
521.566,58.2614,-3.95442,-0.09931018,0.73109
522.166,58.31985,-3.95277,-0.10033,0.7306
522.766,58.37822,-3.95243,-0.0991424,0.73012
523.366,58.43645,-3.95243,-0.0993199,0.72964
523.966,58.49455,-3.95382,-0.09965568,0.72916
524.566,58.55222,-3.95112,-0.09741423,0.72868
525.166,58.61028,-3.95243,-0.10118,0.7282
525.766,58.6688,-3.95243,-0.09981772,0.72772
526.366,58.72772,-3.95107,-0.10095,0.72724
526.966,58.78671,-3.95111,-0.09888339,0.72676
527.566,58.84511,-3.95244,-0.09906359,0.72629
528.166,58.9035,-3.95243,-0.09928009,0.72581
528.766,58.96187,-3.95376,-0.09948517,0.72533
529.366,59.02029,-3.95375,-0.10141,0.72485
529.966,59.07858,-3.95243,-0.10219,0.72438
530.566,59.1369,-3.95243,-0.09981998,0.7239
531.166,59.19545,-3.95243,-0.10351,0.72342
531.766,59.2541,-3.95243,-0.10552,0.72295
532.366,59.31272,-3.95243,-0.10379,0.72247
532.966,59.3711,-3.9521,-0.10592,0.722
533.566,59.42961,-3.95112,-0.1068,0.72152
534.166,59.48809,-3.95112,-0.10217,0.72105
534.766,59.54665,-3.95346,-0.10403,0.72057
535.366,59.60525,-3.95338,-0.10427,0.7201
535.966,59.6639,-3.95374,-0.10467,0.71962
536.566,59.7227,-3.95244,-0.1027,0.71915
537.166,59.78156,-3.95374,-0.10223,0.71868
537.766,59.84052,-3.95374,-0.10446,0.7182
538.366,59.8994,-3.95245,-0.10337,0.71773
538.966,59.95834,-3.9516,-0.10269,0.71726
539.566,60.01726,-3.95241,-0.10209,0.71679
540.166,60.0762,-3.9537,-0.10224,0.71632
540.766,60.13516,-3.95372,-0.10328,0.71585
541.366,60.19429,-3.95243,-0.10518,0.71538
541.966,60.25339,-3.95243,-0.10317,0.71491
542.566,60.3124,-3.95243,-0.10696,0.71444
543.166,60.37137,-3.95243,-0.10583,0.71397
543.766,60.43026,-3.95243,-0.10436,0.7135
544.366,60.48902,-3.95246,-0.10619,0.71303
544.966,60.5478,-3.95111,-0.10811,0.71256
545.566,60.60643,-3.9511,-0.10797,0.71209
546.166,60.6651,-3.95211,-0.11094,0.71163
546.766,60.7237,-3.95281,-0.10728,0.71116
547.366,60.78236,-3.95342,-0.10901,0.71069
547.966,60.84105,-3.95342,-0.10905,0.71023
548.566,60.89966,-3.95342,-0.10728,0.70976
549.166,60.9583,-3.95342,-0.10874,0.7093
549.766,61.0169,-3.95375,-0.11144,0.70883
550.366,61.07545,-3.95375,-0.11198,0.70837
550.966,61.13426,-3.95375,-0.11134,0.7079
551.566,61.19295,-3.95375,-0.11206,0.70744
552.166,61.25155,-3.95377,-0.10944,0.70697
552.766,61.3102,-3.95243,-0.11064,0.70651
553.366,61.369,-3.95242,-0.11307,0.70605
553.966,61.42793,-3.95341,-0.11179,0.70559
554.566,61.48689,-3.95474,-0.11231,0.70512
555.166,61.54596,-3.95346,-0.10908,0.70466
555.766,61.60499,-3.95342,-0.11,0.7042
556.366,61.66404,-3.95342,-0.11107,0.70374
556.966,61.72316,-3.95342,-0.11223,0.70328
557.566,61.78241,-3.95342,-0.10837,0.70282
558.166,61.84179,-3.95342,-0.11022,0.70236
558.766,61.90095,-3.95342,-0.10978,0.7019
559.366,61.96,-3.95342,-0.11009,0.70144
559.966,62.0189,-3.95342,-0.113,0.70098
560.566,62.0776,-3.95342,-0.11093,0.70053
561.166,62.1368,-3.95342,-0.11061,0.70007
561.766,62.19594,-3.95243,-0.11307,0.69961
562.366,62.2555,-3.95243,-0.11238,0.69915
562.966,62.3146,-3.95243,-0.1103,0.6987
563.566,62.3736,-3.95244,-0.11308,0.69824
564.166,62.43264,-3.95276,-0.11277,0.69779
564.766,62.49146,-3.9534,-0.11097,0.69733
565.366,62.5505,-3.95341,-0.11186,0.69688
565.966,62.60944,-3.95341,-0.11191,0.69642
566.566,62.66861,-3.95341,-0.11174,0.69597
567.166,62.7277,-3.9521,-0.11546,0.69551
567.766,62.7868,-3.9521,-0.11431,0.69506
568.366,62.8459,-3.95219,-0.11233,0.69461
568.966,62.90489,-3.95341,-0.10872,0.69416
569.566,62.96395,-3.95403,-0.10984,0.6937
570.166,63.023,-3.95276,-0.11059,0.69325
570.766,63.0817,-3.95273,-0.1097,0.6928
571.366,63.14083,-3.95375,-0.11301,0.69235
571.966,63.1999,-3.95375,-0.11239,0.6919
572.566,63.2594,-3.95375,-0.11221,0.69145
573.166,63.3187,-3.95381,-0.11384,0.691
573.766,63.37791,-3.95406,-0.11192,0.69055
574.366,63.43691,-3.95393,-0.10934,0.6901
574.966,63.4962,-3.95276,-0.11215,0.68966
575.566,63.5553,-3.95365,-0.11249,0.68921
576.166,63.6146,-3.95305,-0.10993,0.68876
576.766,63.67402,-3.95375,-0.11202,0.68831
577.366,63.73344,-3.95408,-0.10919,0.68787
577.966,63.7928,-3.95408,-0.10792,0.68742
578.566,63.85187,-3.95408,-0.11163,0.68698
579.166,63.91098,-3.95408,-0.11015,0.68653
579.766,63.97011,-3.95309,-0.10874,0.68609
580.366,64.0294,-3.95309,-0.11,0.68564
580.966,64.08872,-3.95308,-0.10854,0.6852
581.566,64.14803,-3.95243,-0.10581,0.68476
582.166,64.20739,-3.95246,-0.10636,0.68431
582.766,64.26694,-3.9521,-0.10639,0.68387
583.366,64.32637,-3.95325,-0.10272,0.68343
583.966,64.38593,-3.95342,-0.10282,0.68299
584.566,64.44551,-3.95342,-0.10237,0.68254
585.166,64.50515,-3.95342,-0.10452,0.6821
585.766,64.56472,-3.95342,-0.10005,0.68166
586.366,64.62435,-3.95443,-0.10226,0.68122
586.966,64.68397,-3.95474,-0.09859757,0.68078
587.566,64.74355,-3.95379,-0.10009,0.68035
588.166,64.80328,-3.95342,-0.09801472,0.67991
588.766,64.8628,-3.95342,-0.09694456,0.67947
589.366,64.92227,-3.95342,-0.10036,0.67903
589.966,64.98189,-3.95313,-0.09873795,0.67859
590.566,65.04124,-3.95472,-0.09615651,0.67816
591.166,65.10078,-3.95473,-0.09661382,0.67772
591.766,65.1603,-3.95341,-0.1001,0.67729
592.366,65.21983,-3.95341,-0.09931155,0.67685
592.966,65.27954,-3.95341,-0.0970211,0.67641
593.566,65.3391,-3.95341,-0.09905867,0.67598
594.166,65.3986,-3.95341,-0.09976222,0.67555
594.766,65.45815,-3.95341,-0.09803861,0.67511
595.366,65.51774,-3.95313,-0.10345,0.67468
595.966,65.57718,-3.95408,-0.10484,0.67425
596.566,65.63674,-3.95408,-0.10268,0.67381
597.166,65.6963,-3.95397,-0.10757,0.67338
597.766,65.75569,-3.95276,-0.10021,0.67295
598.366,65.81511,-3.95363,-0.09886583,0.67252
598.966,65.87451,-3.95416,-0.10149,0.67209
599.566,65.93394,-3.95372,-0.09931852,0.67166
600.166,65.99364,-3.95375,-0.10196,0.67123
600.766,66.05341,-3.95408,-0.09969152,0.6708
601.366,66.11314,-3.95408,-0.10224,0.67037
601.966,66.1725,-3.95408,-0.09995443,0.66994
602.566,66.23215,-3.95408,-0.10082,0.66952
603.166,66.29164,-3.95408,-0.10093,0.66909
603.766,66.35162,-3.95408,-0.09943223,0.66866
604.366,66.4115,-3.95408,-0.0979443,0.66824
604.966,66.47147,-3.95408,-0.09823722,0.66781
605.566,66.53144,-3.95407,-0.0987129,0.66739
606.166,66.59124,-3.9554,-0.09828162,0.66696
606.766,66.65097,-3.95407,-0.09895763,0.66654
607.366,66.7106,-3.95405,-0.10051,0.66611
607.966,66.77023,-3.95308,-0.10035,0.66569
608.566,66.83005,-3.95341,-0.10209,0.66527
609.166,66.88982,-3.95309,-0.09514853,0.66484
609.766,66.94989,-3.95244,-0.09579064,0.66442
610.366,67.01002,-3.95308,-0.09416044,0.664
610.966,67.07004,-3.95308,-0.09421537,0.66358
611.566,67.1303,-3.95407,-0.09506322,0.66316
612.166,67.18997,-3.95407,-0.09771545,0.66274
612.766,67.24974,-3.95407,-0.09804731,0.66232
613.366,67.3096,-3.95407,-0.10029,0.6619
613.966,67.3694,-3.95407,-0.09620084,0.66148
614.566,67.4293,-3.95407,-0.10159,0.66106
615.166,67.4891,-3.95407,-0.10235,0.66064
615.766,67.54918,-3.95438,-0.09907795,0.66023
616.366,67.6091,-3.9544,-0.10014,0.65981
616.966,67.66909,-3.9544,-0.10311,0.65939
617.566,67.72896,-3.9544,-0.10033,0.65898
618.166,67.7888,-3.9544,-0.09742862,0.65856
618.766,67.84875,-3.9544,-0.10186,0.65815
619.366,67.90869,-3.95309,-0.10384,0.65773
619.966,67.9687,-3.95442,-0.10258,0.65732
620.566,68.02875,-3.95343,-0.10068,0.6569
621.166,68.08867,-3.95341,-0.09941053,0.65649
621.766,68.14865,-3.95309,-0.10296,0.65608
622.366,68.20854,-3.95309,-0.10452,0.65567
622.966,68.26852,-3.95408,-0.10604,0.65525
623.566,68.3284,-3.95408,-0.1019,0.65484
624.166,68.38834,-3.95408,-0.10396,0.65443
624.766,68.4482,-3.95408,-0.10423,0.65402
625.366,68.50805,-3.95408,-0.10357,0.65361
625.966,68.56787,-3.9539,-0.10659,0.6532
626.566,68.62776,-3.95276,-0.10671,0.65279
627.166,68.68774,-3.95356,-0.10429,0.65239
627.766,68.74778,-3.95375,-0.1053,0.65198
628.366,68.80779,-3.95375,-0.10563,0.65157
628.966,68.86788,-3.95375,-0.10246,0.65116
629.566,68.92789,-3.95372,-0.10067,0.65076
630.166,68.988,-3.95274,-0.10097,0.65035
630.766,69.0479,-3.95406,-0.10224,0.64995
631.366,69.10804,-3.95407,-0.09806177,0.64954
631.966,69.16843,-3.95542,-0.09851379,0.64914
632.566,69.22864,-3.95405,-0.09761757,0.64873
633.166,69.28888,-3.95277,-0.09567832,0.64833
633.766,69.34911,-3.95276,-0.09889309,0.64793
634.366,69.4094,-3.95405,-0.09692333,0.64752
634.966,69.46969,-3.95407,-0.09951717,0.64712
635.566,69.53,-3.95407,-0.09782249,0.64672
636.166,69.59031,-3.95407,-0.10047,0.64632
636.766,69.65064,-3.95407,-0.10189,0.64592
637.366,69.711,-3.95339,-0.10105,0.64552
637.966,69.7713,-3.95276,-0.10391,0.64512
638.566,69.83161,-3.95387,-0.10698,0.64472
639.166,69.89195,-3.95408,-0.10745,0.64432
639.766,69.95221,-3.95408,-0.1069,0.64392
640.166,69.99252,-3.95408,-0.11063,0.64366