File: 01_Data/HIPS/STA/N2/10K_min/HIPS_STA_N2_10KData_211021_R2.csv
##Temp./Â°C,Time/min,Mass loss(subtr.2)/mg,DSC(subtr.2)/(mW/mg),Sensit./(uV/mW)
49.92,10.01,0.05331,-0.03995749,1.03584
50.42,11.38565,0.0648306,-0.02163186,1.03581
50.92,11.72375,0.0659809,-0.009363763,1.03579
51.42,11.9644,0.06616108,-0.002738794,1.03576
51.92,12.16271,0.07011127,0.0085086,1.03574
52.42,12.33742,0.06962204,0.01268565,1.03571
52.92,12.49289,0.07160547,0.01808341,1.03568
53.42,12.63685,0.07104064,0.02277141,1.03565
53.92,12.77055,0.07118773,0.02640132,1.03561
54.42,12.8982,0.07292624,0.02923562,1.03558
54.92,13.01934,0.0741044,0.0356541,1.03555
55.42,13.1347,0.07354464,0.03752599,1.03551
55.92,13.2464,0.07366167,0.04052202,1.03548
56.42,13.35335,0.07742087,0.04173125,1.03544
56.92,13.4575,0.07779126,0.04792163,1.0354
57.42,13.5603,0.07592218,0.05063395,1.03536
57.92,13.65998,0.07886886,0.05342423,1.03532
58.42,13.75636,0.07866781,0.05502213,1.03528
58.92,13.8497,0.07863515,0.05733477,1.03524
59.42,13.94156,0.08036996,0.05717811,1.03519
59.92,14.03307,0.08029981,0.06318392,1.03515
60.42,14.12319,0.08029976,0.0645349,1.0351
60.92,14.2105,0.08194503,0.06745892,1.03506
61.42,14.2957,0.08197866,0.06938664,1.03501
61.92,14.3803,0.08171893,0.06950479,1.03496
62.42,14.46359,0.08034448,0.07318972,1.03491
62.92,14.54571,0.0803249,0.0762333,1.03486
63.42,14.6265,0.08324301,0.0772016,1.03481
63.92,14.70675,0.08353442,0.07826334,1.03475
64.42,14.78558,0.08370288,0.08054396,1.0347
64.92,14.8638,0.09076008,0.08523003,1.03464
65.42,14.94103,0.08143149,0.08658905,1.03459
65.92,15.0168,0.08436066,0.08955014,1.03453
66.42,15.0915,0.08599414,0.0911332,1.03447
66.92,15.16565,0.08605378,0.09273614,1.03441
67.42,15.2393,0.0860882,0.09375937,1.03435
67.92,15.31189,0.0883817,0.09707058,1.03429
68.42,15.3833,0.08606598,0.09987084,1.03423
68.92,15.45399,0.08721305,0.10036,1.03416
69.42,15.52431,0.08727321,0.10146,1.0341
69.92,15.5941,0.08888591,0.10287,1.03403
70.42,15.66351,0.08894489,0.10599,1.03397
70.92,15.73214,0.08895231,0.10887,1.0339
71.42,15.8,0.08896014,0.10848,1.03383
71.92,15.867,0.08960529,0.11197,1.03376
72.42,15.9336,0.08908561,0.11346,1.03369
72.92,15.99976,0.08655244,0.11458,1.03362
73.42,16.06571,0.09299997,0.116,1.03354
73.92,16.131,0.09086778,0.11712,1.03347
74.42,16.19593,0.09082893,0.11928,1.03339
74.92,16.2604,0.09177525,0.12074,1.03332
75.42,16.32443,0.09082024,0.12249,1.03324
75.92,16.38795,0.09161398,0.12222,1.03316
76.42,16.4512,0.09351723,0.12436,1.03308
76.92,16.51407,0.09253332,0.12539,1.033
77.42,16.57679,0.09214782,0.12738,1.03292
77.92,16.63955,0.09214405,0.12856,1.03284
78.42,16.7014,0.09364595,0.13086,1.03276
78.92,16.76272,0.09342629,0.13164,1.03267
79.42,16.8234,0.08951804,0.13249,1.03259
79.92,16.88392,0.09621463,0.13401,1.0325
80.42,16.94395,0.09361735,0.13348,1.03241
80.92,17.0041,0.09497434,0.13035,1.03232
81.42,17.0639,0.09355426,0.13157,1.03223
81.92,17.12306,0.09487138,0.12732,1.03214
82.42,17.18216,0.09504243,0.12694,1.03205
82.92,17.24083,0.0953193,0.12727,1.03196
83.42,17.29937,0.09501233,0.12618,1.03187
83.92,17.35742,0.09631364,0.12802,1.03177
84.42,17.4153,0.09630761,0.12596,1.03167
84.92,17.4727,0.0961383,0.12658,1.03158
85.42,17.52995,0.09762268,0.12814,1.03148
85.92,17.5871,0.09696929,0.1273,1.03138
86.42,17.64386,0.0970105,0.12976,1.03128
86.92,17.70036,0.09608472,0.13229,1.03118
87.42,17.7568,0.0980701,0.12992,1.03108
87.92,17.81287,0.09744304,0.13162,1.03098
88.42,17.86893,0.09843148,0.13119,1.03087
88.92,17.92448,0.09929255,0.13514,1.03077
89.42,17.9799,0.09871902,0.13583,1.03066
89.92,18.03505,0.09739606,0.13789,1.03056
90.42,18.0901,0.09840173,0.13921,1.03045
90.92,18.145,0.10081,0.14193,1.03034
91.42,18.19941,0.10567,0.14326,1.03023
91.92,18.25391,0.09118623,0.1453,1.03012
92.42,18.3081,0.09826374,0.14695,1.03001
92.92,18.36213,0.09997684,0.14643,1.0299
93.42,18.416,0.09917884,0.14893,1.02978
93.92,18.4696,0.10011,0.15128,1.02967
94.42,18.523,0.10815,0.15318,1.02955
94.92,18.57621,0.09421238,0.15524,1.02943
95.42,18.62959,0.09902006,0.15753,1.02932
95.92,18.68282,0.10117,0.15872,1.0292
96.42,18.73582,0.10078,0.16025,1.02908
96.92,18.78876,0.10186,0.16412,1.02896
97.42,18.84122,0.10317,0.16581,1.02884
97.92,18.89357,0.1022,0.17147,1.02871
98.42,18.9459,0.10322,0.1732,1.02859
98.92,18.99803,0.10191,0.17594,1.02847
99.42,19.05039,0.10292,0.17873,1.02834
99.92,19.1023,0.10322,0.1824,1.02821
100.42,19.15437,0.1033,0.18489,1.02809
100.92,19.2062,0.10366,0.19166,1.02796
101.42,19.25786,0.10688,0.19314,1.02783
101.92,19.30951,0.09910837,0.19506,1.0277
102.42,19.3609,0.10312,0.19613,1.02757
102.92,19.4124,0.10166,0.19797,1.02744
103.42,19.46344,0.10246,0.19916,1.0273
103.92,19.5148,0.10306,0.19937,1.02717
104.42,19.56588,0.10443,0.20066,1.02703
104.92,19.61688,0.10443,0.20415,1.0269
105.42,19.66787,0.10425,0.20546,1.02676
105.92,19.71856,0.10311,0.20451,1.02662
106.42,19.76923,0.10338,0.20517,1.02648
106.92,19.8197,0.10442,0.20622,1.02634
107.42,19.8702,0.1051,0.20892,1.0262
107.92,19.92069,0.10578,0.20924,1.02606
108.42,19.97111,0.10706,0.20992,1.02592
108.92,20.0215,0.10643,0.20814,1.02578
109.42,20.0719,0.10548,0.20867,1.02563
109.92,20.12204,0.10574,0.21217,1.02549
110.42,20.17215,0.10574,0.21253,1.02534
110.92,20.22245,0.10335,0.20842,1.02519
111.42,20.2726,0.1059,0.21092,1.02504
111.92,20.32236,0.10825,0.21097,1.02489
112.42,20.37215,0.10671,0.21155,1.02474
112.92,20.42168,0.10761,0.21422,1.02459
113.42,20.47103,0.10902,0.21331,1.02444
113.92,20.52065,0.10903,0.2134,1.02429
114.42,20.57016,0.10771,0.21473,1.02413
114.92,20.6197,0.1064,0.21572,1.02398
115.42,20.6692,0.10769,0.21352,1.02382
115.92,20.71848,0.10773,0.21563,1.02367
116.42,20.7679,0.10193,0.21663,1.02351
116.92,20.81707,0.10944,0.21485,1.02335
117.42,20.86616,0.1132,0.21551,1.02319
117.92,20.9152,0.11026,0.21542,1.02303
118.42,20.96414,0.11121,0.21681,1.02287
118.92,21.01301,0.10991,0.21748,1.02271
119.42,21.06176,0.10994,0.21716,1.02254
119.92,21.11061,0.1099,0.21843,1.02238
120.42,21.15914,0.11025,0.21869,1.02222
120.92,21.20779,0.11112,0.21977,1.02205
121.42,21.2565,0.11054,0.21961,1.02188
121.92,21.3051,0.11075,0.22005,1.02172
122.42,21.3536,0.11098,0.21844,1.02155
122.92,21.40224,0.10783,0.2202,1.02138
123.42,21.45059,0.11026,0.22069,1.02121
123.92,21.49878,0.11572,0.22214,1.02104
124.42,21.5469,0.11063,0.22071,1.02086
124.92,21.595,0.11178,0.22037,1.02069
125.42,21.64312,0.11242,0.2227,1.02052
125.92,21.6913,0.11276,0.22199,1.02034
126.42,21.73948,0.11276,0.22571,1.02017
126.92,21.78755,0.11277,0.22677,1.01999
127.42,21.83535,0.11407,0.22505,1.01981
127.92,21.88291,0.11412,0.22543,1.01963
128.42,21.93064,0.11342,0.22636,1.01945
128.92,21.97813,0.11342,0.22767,1.01927
129.42,22.02573,0.11442,0.23008,1.01909
129.92,22.07324,0.11441,0.23072,1.01891
130.42,22.1206,0.11572,0.22818,1.01873
130.92,22.168,0.11572,0.23014,1.01854
131.42,22.21545,0.11436,0.2301,1.01836
131.92,22.26288,0.1144,0.23032,1.01817
132.42,22.31022,0.1144,0.22927,1.01799
132.92,22.3574,0.11572,0.23179,1.0178
133.42,22.4045,0.11652,0.23203,1.01761
133.92,22.4516,0.11703,0.23278,1.01742
134.42,22.49855,0.11706,0.23377,1.01723
134.92,22.5455,0.11572,0.23187,1.01704
135.42,22.59243,0.11572,0.23483,1.01685
135.92,22.63928,0.1157,0.23189,1.01666
136.42,22.68594,0.11704,0.23465,1.01646
136.92,22.73254,0.11617,0.23262,1.01627
137.42,22.77909,0.11572,0.23423,1.01607
137.92,22.82571,0.11572,0.23571,1.01588
138.42,22.87226,0.11589,0.23593,1.01568
138.92,22.91911,0.11704,0.2354,1.01548
139.42,22.96558,0.11839,0.23677,1.01528
139.92,23.01206,0.11835,0.23905,1.01508
140.42,23.05857,0.11838,0.23888,1.01488
140.92,23.10493,0.11704,0.23871,1.01468
141.42,23.1511,0.11561,0.24106,1.01448
141.92,23.19718,0.11444,0.23963,1.01428
142.42,23.24338,0.11694,0.24027,1.01407
142.92,23.28973,0.11693,0.24378,1.01387
143.42,23.33599,0.11696,0.24299,1.01366
143.92,23.3826,0.11825,0.24086,1.01346
144.42,23.4288,0.11824,0.24268,1.01325
144.92,23.47505,0.11694,0.24354,1.01304
145.42,23.521,0.11693,0.24498,1.01283
145.92,23.56683,0.11824,0.24612,1.01263
146.42,23.61264,0.11824,0.24661,1.01241
146.92,23.6586,0.11739,0.24647,1.0122
147.42,23.70447,0.11733,0.2464,1.01199
147.92,23.7503,0.11825,0.24538,1.01178
148.42,23.79632,0.11883,0.24743,1.01156
148.92,23.84207,0.11856,0.24585,1.01135
149.42,23.88787,0.11836,0.2469,1.01113
149.92,23.93375,0.11777,0.24768,1.01092
150.42,23.97939,0.11891,0.24916,1.0107
150.92,24.0251,0.11918,0.24974,1.01048
151.42,24.071,0.12022,0.24965,1.01026
151.92,24.11669,0.12087,0.25017,1.01005
152.42,24.16242,0.12156,0.25165,1.00982
152.92,24.20818,0.12012,0.25225,1.0096
153.42,24.25381,0.12011,0.25292,1.00938
153.92,24.2994,0.12039,0.25333,1.00916
154.42,24.34504,0.12143,0.25244,1.00894
154.92,24.3906,0.12143,0.253,1.00871
155.42,24.4362,0.12108,0.25577,1.00849
155.92,24.48184,0.12011,0.25457,1.00826
156.42,24.52723,0.12011,0.25822,1.00803
156.92,24.57276,0.12011,0.25619,1.00781
157.42,24.61833,0.12011,0.25668,1.00758
157.92,24.66382,0.12132,0.2555,1.00735
158.42,24.70944,0.12142,0.25663,1.00712
158.92,24.755,0.12142,0.25832,1.00689
159.42,24.8004,0.12012,0.25739,1.00665
159.92,24.84579,0.12011,0.25864,1.00642
160.42,24.89122,0.12011,0.25944,1.00619
160.92,24.93666,0.12023,0.25941,1.00596
161.42,24.98196,0.12143,0.25893,1.00572
161.92,25.027,0.12143,0.26177,1.00548
162.42,25.07235,0.12142,0.26133,1.00525
162.92,25.1175,0.12078,0.26298,1.00501
163.42,25.16274,0.12144,0.26121,1.00477
163.92,25.20808,0.12142,0.26399,1.00453
164.42,25.25378,0.12284,0.26273,1.00429
164.92,25.29919,0.12145,0.2628,1.00405
165.42,25.3445,0.12142,0.26357,1.00381
165.92,25.39,0.12142,0.26589,1.00357
166.42,25.43524,0.12168,0.26501,1.00333
166.92,25.48051,0.12143,0.2661,1.00309
167.42,25.5258,0.12162,0.26578,1.00284
167.92,25.57096,0.12176,0.2684,1.0026
168.42,25.61609,0.12275,0.26779,1.00235
168.92,25.66112,0.12286,0.26798,1.0021
169.42,25.70619,0.12286,0.26908,1.00186
169.92,25.75139,0.12216,0.26885,1.00161
170.42,25.79676,0.1222,0.26877,1.00136
170.92,25.84215,0.1222,0.26931,1.00111
171.42,25.88758,0.1222,0.26823,1.00086
171.92,25.93291,0.1222,0.2684,1.00061
172.42,25.97816,0.12344,0.27116,1.00036
172.92,26.02321,0.12278,0.2727,1.00011
173.42,26.06824,0.12366,0.2719,0.99985
173.92,26.11316,0.12286,0.27255,0.9996
174.42,26.1581,0.12285,0.27446,0.99934
174.92,26.20287,0.12285,0.27413,0.99909
175.42,26.248,0.12401,0.27495,0.99883
175.92,26.2931,0.12549,0.27816,0.99857
176.42,26.33837,0.12548,0.27711,0.99832
176.92,26.3836,0.12548,0.2772,0.99806
177.42,26.4287,0.12493,0.27973,0.9978
177.92,26.47358,0.12558,0.27957,0.99754
178.42,26.51854,0.12548,0.28071,0.99728
178.92,26.5635,0.12549,0.28046,0.99702
179.42,26.6083,0.12582,0.28189,0.99675
179.92,26.65325,0.12582,0.28152,0.99649
180.42,26.6981,0.12581,0.28077,0.99623
180.92,26.743,0.12551,0.28383,0.99596
181.42,26.78762,0.1268,0.28206,0.9957
181.92,26.83243,0.12679,0.28309,0.99543
182.42,26.87725,0.12655,0.28384,0.99517
182.92,26.9219,0.1268,0.28419,0.9949
183.42,26.9663,0.12554,0.28724,0.99463
183.92,27.01134,0.12679,0.28558,0.99436
184.42,27.0561,0.1268,0.28402,0.99409
184.92,27.10083,0.12546,0.28651,0.99382
185.42,27.1459,0.12678,0.28737,0.99355
185.92,27.1907,0.12679,0.28762,0.99328
186.42,27.23538,0.12811,0.28733,0.99301
186.92,27.28009,0.12812,0.28994,0.99273
187.42,27.3247,0.12679,0.28925,0.99246
187.92,27.36941,0.1268,0.28788,0.99219
188.42,27.41398,0.12681,0.28831,0.99191
188.92,27.45865,0.12813,0.28833,0.99163
189.42,27.50325,0.12812,0.28961,0.99136
189.92,27.54787,0.12839,0.291,0.99108
190.42,27.59242,0.12994,0.29211,0.9908
190.92,27.63713,0.13055,0.29057,0.99052
191.42,27.68184,0.13053,0.29285,0.99024
191.92,27.72646,0.12917,0.29499,0.98996
192.42,27.771,0.13028,0.2923,0.98968
192.92,27.81545,0.13045,0.29394,0.9894
193.42,27.85994,0.12921,0.2935,0.98912
193.92,27.90437,0.12921,0.29575,0.98884
194.42,27.94885,0.12921,0.29666,0.98855
194.92,27.9935,0.12892,0.29435,0.98827
195.42,28.03803,0.12809,0.29535,0.98799
195.92,28.08245,0.12921,0.29735,0.9877
196.42,28.12694,0.13027,0.29895,0.98741
196.92,28.1715,0.13052,0.29907,0.98713
197.42,28.21586,0.13183,0.29968,0.98684
197.92,28.26037,0.13184,0.29868,0.98655
198.42,28.3049,0.13057,0.29837,0.98626
198.92,28.34948,0.13053,0.29968,0.98597
199.42,28.3939,0.13053,0.29942,0.98568
199.92,28.4383,0.13001,0.30195,0.98539
200.42,28.4827,0.12921,0.29978,0.9851
200.92,28.52717,0.13052,0.30309,0.98481
201.42,28.57157,0.13053,0.30176,0.98451
201.92,28.616,0.13042,0.30376,0.98422
202.42,28.66045,0.13285,0.30444,0.98393
202.92,28.70485,0.13285,0.30231,0.98363
203.42,28.74935,0.13142,0.30635,0.98334
203.92,28.79372,0.13273,0.30734,0.98304
204.42,28.83823,0.13272,0.30747,0.98274
204.92,28.88268,0.13271,0.30701,0.98245
205.42,28.92704,0.13138,0.3074,0.98215
205.92,28.9714,0.13268,0.3088,0.98185
206.42,29.0159,0.1314,0.31115,0.98155
206.92,29.0605,0.1314,0.31161,0.98125
207.42,29.10489,0.13139,0.31088,0.98095
207.92,29.1494,0.13108,0.31259,0.98065
208.42,29.19378,0.13108,0.31434,0.98035
208.92,29.2381,0.13225,0.31124,0.98004
209.42,29.28255,0.13239,0.31326,0.97974
209.92,29.32702,0.13239,0.31415,0.97944
210.42,29.37143,0.13239,0.31339,0.97913
210.92,29.41597,0.13239,0.31686,0.97883
211.42,29.4604,0.13239,0.31383,0.97852
211.92,29.5049,0.13239,0.31908,0.97821
212.42,29.5494,0.13372,0.31765,0.97791
212.92,29.5938,0.13144,0.3154,0.9776
213.42,29.63829,0.13102,0.31634,0.97729
213.92,29.68283,0.13873,0.31781,0.97698
214.42,29.7273,0.1325,0.31946,0.97667
214.92,29.77187,0.13127,0.31982,0.97636
215.42,29.81645,0.13251,0.3204,0.97605
215.92,29.86092,0.13252,0.3221,0.97574
216.42,29.90519,0.12812,0.32254,0.97543
216.92,29.9495,0.13416,0.3224,0.97512
217.42,29.994,0.13248,0.3238,0.9748
217.92,30.03833,0.13107,0.32166,0.97449
218.42,30.08275,0.13208,0.3228,0.97417
218.92,30.1275,0.13239,0.32417,0.97386
219.42,30.172,0.13256,0.32413,0.97354
219.92,30.2165,0.13338,0.32388,0.97323
220.42,30.26097,0.13338,0.32702,0.97291
220.92,30.3054,0.13338,0.32656,0.97259
221.42,30.34967,0.13341,0.32717,0.97228
221.92,30.39412,0.12928,0.32555,0.97196
222.42,30.43859,0.13421,0.32904,0.97164
222.92,30.48306,0.1341,0.32874,0.97132
223.42,30.5275,0.134,0.3294,0.971
223.92,30.57208,0.13272,0.3282,0.97068
224.42,30.6165,0.13272,0.32934,0.97035
224.92,30.66092,0.13272,0.32736,0.97003
225.42,30.7054,0.13281,0.33061,0.96971
225.92,30.7498,0.1314,0.33071,0.96939
226.42,30.79438,0.13282,0.33211,0.96906
226.92,30.83891,0.13272,0.33154,0.96874
227.42,30.8834,0.13414,0.33025,0.96841
227.92,30.9278,0.13403,0.33235,0.96809
228.42,30.97233,0.13339,0.33293,0.96776
228.92,31.0167,0.13338,0.33295,0.96743
229.42,31.0613,0.13338,0.33545,0.96711
229.92,31.10575,0.13338,0.33637,0.96678
230.42,31.15036,0.13337,0.3357,0.96645
230.92,31.19482,0.13141,0.33427,0.96612
231.42,31.2393,0.1314,0.33609,0.96579
231.92,31.2838,0.13278,0.33748,0.96546
232.42,31.3284,0.13205,0.33693,0.96513
232.92,31.37299,0.13207,0.3383,0.9648
233.42,31.41765,0.13207,0.33724,0.96447
233.92,31.46221,0.13189,0.33763,0.96414
234.42,31.5067,0.1301,0.33707,0.9638
234.92,31.5512,0.1291,0.33734,0.96347
235.42,31.59566,0.12614,0.33743,0.96314
235.92,31.64013,0.1391,0.33996,0.9628
236.42,31.68473,0.13425,0.33939,0.96247
236.92,31.72937,0.1324,0.33776,0.96213
237.42,31.774,0.1321,0.3397,0.96179
237.92,31.8186,0.13264,0.33893,0.96146
238.42,31.86317,0.13121,0.34082,0.96112
238.92,31.9077,0.13086,0.34178,0.96078
239.42,31.9523,0.13038,0.34169,0.96044
239.92,31.9969,0.13087,0.34187,0.9601
240.42,32.0415,0.13086,0.34175,0.95977
240.92,32.08623,0.13085,0.33909,0.95943
241.42,32.13078,0.13218,0.34125,0.95908
241.92,32.17528,0.13218,0.34042,0.95874
242.42,32.21986,0.13219,0.34152,0.9584
242.92,32.26437,0.13114,0.34422,0.95806
243.42,32.30887,0.12987,0.34429,0.95772
243.92,32.35351,0.12987,0.3445,0.95737
244.42,32.3982,0.12987,0.34448,0.95703
244.92,32.44274,0.12989,0.34512,0.95669
245.42,32.4874,0.12954,0.3456,0.95634
245.92,32.53223,0.12954,0.34507,0.956
246.42,32.57678,0.12951,0.34418,0.95565
246.92,32.62143,0.12822,0.34603,0.9553
247.42,32.6661,0.12817,0.34561,0.95496
247.92,32.71063,0.13088,0.34625,0.95461
248.42,32.7553,0.13086,0.34673,0.95426
248.92,32.79997,0.12954,0.34671,0.95391
249.42,32.84467,0.12954,0.34652,0.95357
249.92,32.88941,0.12824,0.34428,0.95322
250.42,32.93424,0.12822,0.34807,0.95287
250.92,32.9788,0.12822,0.34631,0.95252
251.42,33.0235,0.12825,0.34586,0.95217
251.92,33.0682,0.12954,0.35036,0.95181
252.42,33.1128,0.12865,0.34881,0.95146
252.92,33.15736,0.12822,0.35173,0.95111
253.42,33.20239,0.12952,0.35049,0.95076
253.92,33.24714,0.12954,0.34954,0.9504
254.42,33.29188,0.12872,0.35198,0.95005
254.92,33.33665,0.12822,0.35174,0.9497
255.42,33.38147,0.12713,0.35263,0.94934
255.92,33.4262,0.12691,0.35072,0.94899
256.42,33.4709,0.12691,0.3533,0.94863
256.92,33.51574,0.12824,0.35146,0.94828
257.42,33.56049,0.12823,0.35372,0.94792
257.92,33.6051,0.12824,0.35363,0.94756
258.42,33.64976,0.12758,0.35357,0.9472
258.92,33.69448,0.12691,0.35306,0.94685
259.42,33.73927,0.12691,0.35532,0.94649
259.92,33.78398,0.12824,0.35568,0.94613
260.42,33.8288,0.12823,0.35284,0.94577
260.92,33.87356,0.1269,0.35424,0.94541
261.42,33.91831,0.12691,0.35629,0.94505
261.92,33.96306,0.12758,0.35451,0.94469
262.42,34.00792,0.12755,0.35407,0.94433
262.92,34.05283,0.12626,0.35901,0.94397
263.42,34.09771,0.12625,0.3586,0.9436
263.92,34.14255,0.12623,0.35609,0.94324
264.42,34.18742,0.12494,0.35503,0.94288
264.92,34.2321,0.12391,0.35714,0.94251
265.42,34.27677,0.12166,0.35663,0.94215
265.92,34.32168,0.1294,0.35591,0.94179
266.42,34.36645,0.12508,0.35564,0.94142
266.92,34.41124,0.12518,0.35571,0.94106
267.42,34.45593,0.12438,0.35491,0.94069
267.92,34.50054,0.12515,0.35643,0.94032
268.42,34.5453,0.12426,0.35731,0.93996
268.92,34.59004,0.12383,0.3579,0.93959
269.42,34.63494,0.12512,0.35796,0.93922
269.92,34.67982,0.12384,0.35875,0.93885
270.42,34.72459,0.1226,0.35639,0.93849
270.92,34.76939,0.12252,0.35855,0.93812
271.42,34.81372,0.12119,0.35926,0.93775
271.92,34.85846,0.12251,0.35846,0.93738
272.42,34.90337,0.12394,0.35972,0.93701
272.92,34.94782,0.12384,0.35834,0.93664
273.42,34.99276,0.12228,0.35894,0.93627
273.92,35.0379,0.12098,0.35691,0.9359
274.42,35.08279,0.122,0.3606,0.93552
274.92,35.1274,0.12197,0.35825,0.93515
275.42,35.17235,0.12036,0.36044,0.93478
275.92,35.21718,0.11927,0.3603,0.93441
276.42,35.26206,0.12033,0.36032,0.93403
276.92,35.30689,0.11863,0.3597,0.93366
277.42,35.35195,0.1178,0.36063,0.93328
277.92,35.39713,0.1178,0.36087,0.93291
278.42,35.44209,0.1178,0.3599,0.93253
278.92,35.48704,0.11779,0.35855,0.93216
279.42,35.53202,0.11915,0.35917,0.93178
279.92,35.577,0.11674,0.36087,0.93141
280.42,35.62198,0.11762,0.3596,0.93103
280.92,35.6669,0.11631,0.35979,0.93065
281.42,35.71209,0.11638,0.35987,0.93028
281.92,35.75721,0.11528,0.35849,0.9299
282.42,35.80225,0.11639,0.35716,0.92952
282.92,35.84727,0.11636,0.35829,0.92914
283.42,35.89222,0.11353,0.35922,0.92876
283.92,35.93723,0.11353,0.35824,0.92838
284.42,35.98217,0.11353,0.35954,0.928
284.92,36.02691,0.11353,0.3585,0.92762
285.42,36.07195,0.11353,0.3619,0.92724
285.92,36.1171,0.11341,0.3589,0.92686
286.42,36.16215,0.11341,0.35923,0.92648
286.92,36.2072,0.11351,0.35846,0.9261
287.42,36.25257,0.1121,0.35959,0.92572
287.92,36.29765,0.1121,0.35863,0.92533
288.42,36.3427,0.11208,0.3562,0.92495
288.92,36.38775,0.11078,0.35844,0.92457
289.42,36.43293,0.10989,0.36031,0.92418
289.92,36.47804,0.10949,0.35928,0.9238
290.42,36.52321,0.11078,0.36006,0.92341
290.92,36.56845,0.11056,0.35884,0.92303
291.42,36.61377,0.10947,0.35986,0.92264
291.92,36.65903,0.10947,0.35695,0.92226
292.42,36.7042,0.10951,0.36,0.92187
292.92,36.74948,0.10815,0.35878,0.92149
293.42,36.79467,0.10815,0.35792,0.9211
293.92,36.83992,0.10684,0.36212,0.92071
294.42,36.88521,0.10732,0.35855,0.92033
294.92,36.93045,0.10815,0.35891,0.91994
295.42,36.9758,0.10688,0.35748,0.91955
295.92,37.02111,0.10683,0.35937,0.91916
296.42,37.06624,0.10684,0.35671,0.91877
296.92,37.11152,0.10397,0.35514,0.91839
297.42,37.15667,0.10402,0.3588,0.918
297.92,37.20191,0.1053,0.35873,0.91761
298.42,37.2472,0.104,0.36038,0.91722
298.92,37.2924,0.10266,0.35899,0.91683
299.42,37.3376,0.10267,0.35559,0.91644
299.92,37.383,0.10267,0.35975,0.91604
300.42,37.42837,0.10267,0.35718,0.91565
300.92,37.47365,0.1035,0.3567,0.91526
301.42,37.519,0.10558,0.35917,0.91487
301.92,37.56433,0.10563,0.35839,0.91448
302.42,37.60946,0.10563,0.35518,0.91408
302.92,37.65475,0.10538,0.35713,0.91369
303.42,37.7,0.10431,0.35942,0.9133
303.92,37.74522,0.10403,0.35647,0.9129
304.42,37.79057,0.10299,0.35707,0.91251
304.92,37.83597,0.10299,0.35757,0.91212
305.42,37.88129,0.10299,0.35504,0.91172
305.92,37.92675,0.10299,0.35474,0.91133
306.42,37.97221,0.10299,0.35382,0.91093
306.92,38.0175,0.10163,0.3554,0.91054
307.42,38.06258,0.10167,0.35518,0.91014
307.92,38.10791,0.10022,0.35319,0.90974
308.42,38.15317,0.10025,0.35206,0.90935
308.92,38.1986,0.10025,0.35422,0.90895
309.42,38.244,0.09895191,0.35532,0.90855
309.92,38.28973,0.0975197,0.35305,0.90816
310.42,38.33513,0.0974501,0.35335,0.90776
310.92,38.38064,0.09754291,0.354,0.90736
311.42,38.4262,0.09751157,0.35199,0.90696
311.92,38.47168,0.09826522,0.35281,0.90656
312.42,38.5171,0.09848691,0.35071,0.90616
312.92,38.5625,0.09579494,0.35263,0.90576
313.42,38.60777,0.09586981,0.35021,0.90536
313.92,38.65307,0.09587255,0.34979,0.90496
314.42,38.69856,0.09487655,0.3489,0.90456
314.92,38.74391,0.09520927,0.34948,0.90416
315.42,38.78949,0.09521192,0.34765,0.90376
315.92,38.8352,0.09391729,0.34974,0.90336
316.42,38.88067,0.09356024,0.34764,0.90296
316.92,38.92628,0.09354714,0.34764,0.90256
317.42,38.97175,0.09102737,0.34467,0.90216
317.92,39.0172,0.09100681,0.34326,0.90176
318.42,39.06263,0.08948063,0.34524,0.90135
318.92,39.10822,0.08472704,0.34648,0.90095
319.42,39.15372,0.08606701,0.343,0.90055
319.92,39.1993,0.09434963,0.34095,0.90015
320.42,39.24504,0.08650841,0.34234,0.89974
320.92,39.29061,0.08786418,0.34057,0.89934
321.42,39.33616,0.08623641,0.3415,0.89893
321.92,39.3819,0.08523071,0.33983,0.89853
322.42,39.42733,0.08520675,0.33658,0.89813
322.92,39.4729,0.08380596,0.33773,0.89772
323.42,39.51833,0.08513986,0.33879,0.89732
323.92,39.56394,0.08414226,0.33502,0.89691
324.42,39.6096,0.08379715,0.33551,0.8965
324.92,39.6552,0.08239276,0.33792,0.8961
325.42,39.70092,0.0808412,0.33679,0.89569
325.92,39.74662,0.0795282,0.33699,0.89529
326.42,39.79233,0.07690985,0.34213,0.89488
326.92,39.838,0.07454374,0.33812,0.89447
327.42,39.88367,0.08670933,0.3321,0.89407
327.92,39.92933,0.08222953,0.33234,0.89366
328.42,39.975,0.0806192,0.32981,0.89325
328.92,40.02063,0.07929304,0.33162,0.89284
329.42,40.0664,0.07811182,0.32995,0.89243
329.92,40.11203,0.07933314,0.32555,0.89203
330.42,40.15783,0.07799445,0.32737,0.89162
330.92,40.20353,0.07679636,0.32395,0.89121
331.42,40.24923,0.07668002,0.32354,0.8908
331.92,40.29501,0.07668025,0.32422,0.89039
332.42,40.34081,0.07665183,0.32325,0.88998
332.92,40.3865,0.07536252,0.32206,0.88957
333.42,40.43243,0.07470793,0.32148,0.88916
333.92,40.47826,0.07405923,0.32223,0.88875
334.42,40.52424,0.07246685,0.31975,0.88834
334.92,40.57008,0.07141005,0.31941,0.88793
335.42,40.61574,0.07142416,0.31713,0.88752
335.92,40.6616,0.07272032,0.31713,0.88711
336.42,40.70746,0.07273266,0.31672,0.8867
336.92,40.75331,0.07481302,0.30958,0.88629
337.42,40.79916,0.07439956,0.31299,0.88587
337.92,40.84527,0.06247772,0.31404,0.88546
338.42,40.89111,0.06576049,0.31421,0.88505
338.92,40.93696,0.06700811,0.31339,0.88464
339.42,40.98292,0.0655089,0.31136,0.88422
339.92,41.0288,0.06570148,0.30672,0.88381
340.42,41.07475,0.06752367,0.30777,0.8834
340.92,41.12081,0.064699,0.30631,0.88299
341.42,41.16673,0.06638564,0.3034,0.88257
341.92,41.2127,0.06965902,0.30105,0.88216
342.42,41.25877,0.06006412,0.30405,0.88174
342.92,41.30468,0.06124507,0.30238,0.88133
343.42,41.35054,0.06165011,0.30364,0.88092
343.92,41.39659,0.06165,0.3009,0.8805
344.42,41.44253,0.06164906,0.30221,0.88009
344.92,41.48851,0.06030269,0.29903,0.87967
345.42,41.53452,0.06033015,0.29875,0.87926
345.92,41.58054,0.06032869,0.29777,0.87884
346.42,41.62652,0.05898437,0.29717,0.87843
346.92,41.6724,0.0590882,0.29544,0.87801
347.42,41.71833,0.05934968,0.29503,0.8776
347.92,41.76437,0.05856379,0.29382,0.87718
348.42,41.81042,0.05802989,0.29095,0.87676
348.92,41.8561,0.05803004,0.29117,0.87635
349.42,41.90206,0.05801847,0.29217,0.87593
349.92,41.94822,0.05648911,0.29241,0.87551
350.42,41.99414,0.05517297,0.2875,0.8751
350.92,42.0404,0.0551835,0.28759,0.87468
351.42,42.08661,0.05386946,0.28838,0.87426
351.92,42.13265,0.05385998,0.28286,0.87385
352.42,42.17855,0.05386018,0.28233,0.87343
352.92,42.22456,0.05362584,0.28005,0.87301
353.42,42.27064,0.05250939,0.27921,0.87259
353.92,42.31694,0.05122969,0.28014,0.87217
354.42,42.3633,0.05123003,0.27866,0.87176
354.92,42.40955,0.05123185,0.27558,0.87134
355.42,42.4559,0.04967738,0.27504,0.87092
355.92,42.50197,0.04968932,0.2739,0.8705
356.42,42.54797,0.04890798,0.27227,0.87008
356.92,42.5942,0.04881243,0.27231,0.86966
357.42,42.64042,0.04771024,0.27158,0.86924
357.92,42.6866,0.04772288,0.27018,0.86882
358.42,42.7328,0.04812764,0.26946,0.8684
358.92,42.779,0.04772108,0.267,0.86798
359.42,42.82522,0.04509234,0.26583,0.86756
359.92,42.87155,0.04508002,0.26896,0.86714
360.42,42.91773,0.04508005,0.26599,0.86672
360.92,42.96414,0.04508005,0.26371,0.8663
361.42,43.01048,0.04507878,0.26083,0.86588
361.92,43.05676,0.04261827,0.25826,0.86546
362.42,43.1032,0.04364055,0.25816,0.86504
362.92,43.1496,0.04234552,0.25667,0.86462
363.42,43.19587,0.04811447,0.2543,0.8642
363.92,43.2423,0.03859395,0.2565,0.86378
364.42,43.2886,0.03462501,0.25629,0.86336
364.92,43.3348,0.03883569,0.25488,0.86294
365.42,43.381,0.03721922,0.25689,0.86252
365.92,43.4275,0.0347791,0.25555,0.86209
366.42,43.47382,0.03538845,0.25595,0.86167
366.92,43.52028,0.03530227,0.25636,0.86125
367.42,43.56642,0.03167295,0.25315,0.86083
367.92,43.6126,0.03186146,0.25232,0.86041
368.42,43.65889,0.03050038,0.25318,0.85998
368.92,43.70527,0.0305,0.25162,0.85956
369.42,43.75173,0.03049939,0.25204,0.85914
369.92,43.79869,0.02915798,0.25111,0.85872
370.42,43.84519,0.02781433,0.25319,0.85829
370.92,43.89165,0.02648135,0.25428,0.85787
371.42,43.93803,0.02654987,0.25297,0.85745
371.92,43.9844,0.02650644,0.25352,0.85702
372.42,44.03069,0.02667083,0.25461,0.8566
372.92,44.07694,0.02529185,0.25623,0.85618
373.42,44.12341,0.02421475,0.25926,0.85575
373.92,44.1697,0.02401524,0.25335,0.85533
374.42,44.21606,0.0251463,0.2561,0.85491
374.92,44.26251,0.02405334,0.25789,0.85448
375.42,44.30903,0.02251934,0.2616,0.85406
375.92,44.3556,0.02139427,0.2612,0.85363
376.42,44.4022,0.01981767,0.26403,0.85321
376.92,44.4489,0.01975386,0.26734,0.85279
377.42,44.49545,0.0184279,0.2698,0.85236
377.92,44.542,0.01711617,0.27081,0.85194
378.42,44.58853,0.01578549,0.27508,0.85151
378.92,44.63496,0.01584887,0.27461,0.85109
379.42,44.68157,0.01436954,0.27789,0.85066
379.92,44.72829,0.01254237,0.27957,0.85024
380.42,44.77483,0.0113082,0.28465,0.84981
380.92,44.82142,0.01022069,0.28813,0.84939
381.42,44.86813,0.009034712,0.29089,0.84896
381.92,44.91474,0.00663122,0.29415,0.84854
382.42,44.96156,0.006011973,0.29642,0.84811
382.92,45.0084,0.004128438,0.30209,0.84769
383.42,45.05505,0.00274794,0.30744,0.84726
383.92,45.10168,0.001433316,0.3107,0.84684
384.42,45.1483,0.001358114,0.31427,0.84641
384.92,45.19502,-0.001210104,0.322,0.84599
385.42,45.2416,-0.00279392,0.327,0.84556
385.92,45.28832,-0.006433374,0.3325,0.84514
386.42,45.335,-0.00744662,0.33795,0.84471
386.92,45.3818,-0.009232314,0.3455,0.84428
387.42,45.42855,-0.01013072,0.34686,0.84386
387.92,45.47538,-0.01211126,0.35444,0.84343
388.42,45.52213,-0.01465224,0.3626,0.84301
388.92,45.56904,-0.01590169,0.36681,0.84258
389.42,45.6158,-0.01709117,0.37518,0.84215
389.92,45.66267,-0.01829014,0.38243,0.84173
390.42,45.7096,-0.02060773,0.39063,0.8413
390.92,45.75634,-0.02358658,0.39931,0.84087
391.42,45.80318,-0.0255642,0.40821,0.84045
391.92,45.85,-0.02719955,0.41689,0.84002
392.42,45.89685,-0.02929051,0.42714,0.83959
392.92,45.9436,-0.03405419,0.43596,0.83917
393.42,45.9907,-0.03557345,0.4459,0.83874
393.92,46.03751,-0.03861592,0.4555,0.83831
394.42,46.08423,-0.04200941,0.4663,0.83789
394.92,46.131,-0.04421857,0.4782,0.83746
395.42,46.17772,-0.04665983,0.48941,0.83703
395.92,46.22438,-0.04977125,0.50092,0.83661
396.42,46.2712,-0.05163016,0.51149,0.83618
396.92,46.318,-0.05582346,0.52783,0.83575
397.42,46.36484,-0.06029956,0.54145,0.83532
397.92,46.4118,-0.06340962,0.55374,0.8349
398.42,46.4587,-0.06677595,0.57012,0.83447
398.92,46.5054,-0.07064767,0.58659,0.83404
399.42,46.55232,-0.07553828,0.60267,0.83362
399.92,46.5991,-0.07953189,0.62032,0.83319
400.42,46.64608,-0.08430057,0.63571,0.83276
400.92,46.69316,-0.08851355,0.65402,0.83233
401.42,46.7402,-0.09281594,0.67185,0.83191
401.92,46.78713,-0.09745601,0.69134,0.83148
402.42,46.83409,-0.10196,0.71287,0.83105
402.92,46.88098,-0.10631,0.7355,0.83062
403.42,46.9279,-0.11331,0.75757,0.8302
403.92,46.97484,-0.11854,0.78103,0.82977
404.42,47.0218,-0.12652,0.80571,0.82934
404.92,47.0687,-0.13265,0.8299,0.82891
405.42,47.1157,-0.13738,0.85628,0.82849
405.92,47.1628,-0.14603,0.88305,0.82806
406.42,47.21,-0.15279,0.91399,0.82763
406.92,47.25707,-0.16014,0.94215,0.8272
407.42,47.30425,-0.16699,0.97534,0.82678
407.92,47.35135,-0.17472,1.0082,0.82635
408.42,47.39853,-0.18384,1.0431,0.82592
408.92,47.4457,-0.19301,1.0815,0.82549
409.42,47.49297,-0.20054,1.11855,0.82506
409.92,47.54031,-0.21223,1.15561,0.82464
410.42,47.5875,-0.2228,1.19878,0.82421
410.92,47.63482,-0.23472,1.24199,0.82378
411.42,47.68213,-0.24548,1.28873,0.82335
411.92,47.72937,-0.256,1.33267,0.82293
412.42,47.77681,-0.26694,1.38243,0.8225
412.92,47.82424,-0.2788,1.43345,0.82207
413.42,47.8716,-0.29289,1.48811,0.82164
413.92,47.91903,-0.30886,1.54529,0.82121
414.42,47.9664,-0.32303,1.60214,0.82079
414.92,48.01396,-0.33987,1.65951,0.82036
415.42,48.06149,-0.35478,1.72169,0.81993
415.92,48.10902,-0.35398,1.78142,0.8195
416.42,48.15644,-0.38215,1.84916,0.81908
416.92,48.20371,-0.41966,1.92015,0.81865
417.42,48.25099,-0.43826,1.99173,0.81822
417.92,48.29849,-0.44619,2.06768,0.81779
418.42,48.34612,-0.46652,2.14284,0.81736
418.92,48.3938,-0.49014,2.21818,0.81694
419.42,48.4415,-0.51462,2.29834,0.81651
419.92,48.48908,-0.53826,2.37702,0.81608
420.42,48.53667,-0.56363,2.46065,0.81565
420.92,48.58432,-0.59026,2.54103,0.81523
421.42,48.63193,-0.61914,2.631,0.8148
421.92,48.67964,-0.64756,2.74975,0.81437
422.42,48.7275,-0.67943,2.83867,0.81394
422.92,48.77536,-0.71172,2.91755,0.81352
423.42,48.8233,-0.74368,2.99168,0.81309
423.92,48.87115,-0.77743,3.06131,0.81266
424.42,48.9189,-0.81305,3.1427,0.81223
424.92,48.9666,-0.84823,3.22018,0.8118
425.42,49.0144,-0.88443,3.29496,0.81138
425.92,49.06215,-0.91882,3.38026,0.81095
426.42,49.10994,-0.95837,3.45398,0.81052
426.92,49.1578,-0.99886,3.54997,0.8101
427.42,49.2057,-1.03955,3.63722,0.80967
427.92,49.2538,-1.08318,3.70501,0.80924
428.42,49.30192,-1.12658,3.764,0.80881
428.92,49.34975,-1.1691,3.82541,0.80839
429.42,49.39774,-1.21668,3.88802,0.80796
429.92,49.44576,-1.26257,3.94848,0.80753
430.42,49.49373,-1.3084,3.99802,0.8071
430.92,49.54172,-1.35771,4.04051,0.80668
431.42,49.59005,-1.40569,4.07757,0.80625
431.92,49.63793,-1.45607,4.11242,0.80582
432.42,49.68591,-1.50497,4.13624,0.8054
432.92,49.73381,-1.55245,4.16437,0.80497
433.42,49.78159,-1.6036,4.17777,0.80454
433.92,49.82915,-1.65364,4.18425,0.80412
434.42,49.8767,-1.70732,4.18498,0.80369
434.92,49.92454,-1.75564,4.17917,0.80326
435.42,49.97213,-1.80687,4.16596,0.80284
435.92,50.01985,-1.85442,4.14724,0.80241
436.42,50.06772,-1.90719,4.12591,0.80198
436.92,50.11531,-1.95652,4.09574,0.80156
437.42,50.16278,-2.00707,4.06277,0.80113
437.92,50.21043,-2.05477,4.022,0.8007
438.42,50.25801,-2.10231,3.97228,0.80028
438.92,50.30563,-2.15218,3.91741,0.79985
439.42,50.3532,-2.20212,3.85596,0.79943
439.92,50.40077,-2.24715,3.79313,0.799
440.42,50.4482,-2.29231,3.72407,0.79857
440.92,50.49566,-2.34088,3.65338,0.79815
441.42,50.54306,-2.38079,3.57975,0.79772
441.92,50.59042,-2.4253,3.50158,0.7973
442.42,50.63777,-2.46893,3.42186,0.79687
442.92,50.6852,-2.50903,3.33888,0.79644
443.42,50.73243,-2.54784,3.25654,0.79602
443.92,50.77961,-2.58784,3.1745,0.79559
444.42,50.8268,-2.62421,3.08762,0.79517
444.92,50.87399,-2.6624,3.00303,0.79474
445.42,50.92107,-2.69894,2.91318,0.79432
445.92,50.96835,-2.73372,2.82329,0.79389
446.42,51.0156,-2.76662,2.73687,0.79347
446.92,51.06284,-2.79919,2.64656,0.79304
447.42,51.1099,-2.83223,2.55795,0.79262
447.92,51.15717,-2.86319,2.47066,0.79219
448.42,51.20428,-2.89549,2.38345,0.79177
448.92,51.25141,-2.92219,2.29342,0.79134
449.42,51.29868,-2.94961,2.20739,0.79092
449.92,51.346,-2.97589,2.12173,0.79049
450.42,51.3932,-3.00201,2.03656,0.79007
450.92,51.44062,-3.02832,1.9509,0.78964
451.42,51.48762,-3.05161,1.86955,0.78922
451.92,51.53495,-3.07338,1.7905,0.7888
452.42,51.58217,-3.09202,1.7099,0.78837
452.92,51.62939,-3.11791,1.63579,0.78795
453.42,51.6768,-3.13832,1.56223,0.78752
453.92,51.72413,-3.1591,1.49042,0.7871
454.42,51.77148,-3.17501,1.42113,0.78668
454.92,51.81895,-3.19345,1.35826,0.78625
455.42,51.86629,-3.21093,1.29082,0.78583
455.92,51.91369,-3.22979,1.23169,0.78541
456.42,51.96131,-3.24403,1.17451,0.78498
456.92,52.00862,-3.25777,1.12021,0.78456
457.42,52.05624,-3.27401,1.06573,0.78414
457.92,52.10382,-3.2887,1.01729,0.78371
458.42,52.15118,-3.30027,0.97056,0.78329
458.92,52.1987,-3.31639,0.9271,0.78287
459.42,52.24626,-3.329,0.88598,0.78244
459.92,52.29347,-3.34062,0.84761,0.78202
460.42,52.34064,-3.35321,0.80982,0.7816
460.92,52.38813,-3.36245,0.77718,0.78118
461.42,52.43564,-3.37476,0.74781,0.78075
461.92,52.48316,-3.38475,0.71584,0.78033
462.42,52.5313,-3.39437,0.68896,0.77991
462.92,52.57904,-3.40462,0.663,0.77949
463.42,52.6266,-3.41376,0.6403,0.77907
463.92,52.67426,-3.42342,0.61254,0.77865
464.42,52.7218,-3.43348,0.59087,0.77822
464.92,52.76927,-3.44162,0.5707,0.7778
465.42,52.81681,-3.44901,0.54636,0.77738
465.92,52.8644,-3.45772,0.52695,0.77696
466.42,52.9121,-3.46616,0.50816,0.77654
466.92,52.95986,-3.47198,0.48766,0.77612
467.42,53.00775,-3.48119,0.46777,0.7757
467.92,53.0555,-3.49202,0.44876,0.77528
468.42,53.1032,-3.49432,0.43326,0.77486
468.92,53.15104,-3.50137,0.41083,0.77444
469.42,53.19885,-3.50588,0.39699,0.77402
469.92,53.2466,-3.51471,0.37953,0.77359
470.42,53.2945,-3.52202,0.36221,0.77317
470.92,53.3424,-3.52952,0.3456,0.77276
471.42,53.39029,-3.53301,0.32951,0.77234
471.92,53.43829,-3.53862,0.3148,0.77192
472.42,53.4864,-3.54615,0.2975,0.7715
472.92,53.5344,-3.55132,0.27889,0.77108
473.42,53.5824,-3.55286,0.26237,0.77066
473.92,53.6304,-3.56066,0.24287,0.77024
474.42,53.6782,-3.56262,0.23024,0.76982
474.92,53.7261,-3.55949,0.2128,0.7694
475.42,53.7739,-3.5789,0.19877,0.76898
475.92,53.8217,-3.57944,0.18182,0.76856
476.42,53.86959,-3.57968,0.16821,0.76815
476.92,53.91755,-3.58347,0.15418,0.76773
477.42,53.96561,-3.58907,0.13927,0.76731
477.92,54.0137,-3.59223,0.12623,0.76689
478.42,54.06179,-3.5955,0.11183,0.76647
478.92,54.1098,-3.59857,0.09791678,0.76606
479.42,54.1578,-3.59868,0.08785799,0.76564
479.92,54.2058,-3.60264,0.07394014,0.76522
480.42,54.2539,-3.60518,0.06125686,0.7648
480.92,54.30205,-3.60852,0.04940705,0.76439
481.42,54.35021,-3.61278,0.04013754,0.76397
481.92,54.39829,-3.61631,0.026858,0.76355
482.42,54.4465,-3.61121,0.01497832,0.76314
482.92,54.49479,-3.61288,0.00377921,0.76272
483.42,54.54297,-3.61604,-0.00491197,0.7623
483.92,54.59112,-3.61797,-0.01623109,0.76189
484.42,54.63919,-3.61913,-0.02487365,0.76147
484.92,54.6874,-3.62135,-0.03453284,0.76106
485.42,54.7355,-3.62139,-0.04035875,0.76064
485.92,54.7836,-3.62172,-0.04929289,0.76023
486.42,54.83158,-3.62388,-0.0517475,0.75981
486.92,54.8796,-3.62513,-0.0591956,0.75939
487.42,54.9276,-3.62644,-0.06197601,0.75898
487.92,54.97582,-3.62511,-0.06941062,0.75857
488.42,55.02389,-3.62585,-0.07384125,0.75815
488.92,55.07196,-3.62644,-0.0788952,0.75774
489.42,55.11991,-3.62644,-0.08209801,0.75732
489.92,55.1676,-3.62598,-0.08848238,0.75691
490.42,55.2157,-3.62516,-0.0893577,0.75649
490.92,55.26386,-3.62786,-0.09189688,0.75608
491.42,55.31199,-3.62786,-0.09213814,0.75567
491.92,55.36036,-3.62918,-0.09623724,0.75525
492.42,55.40846,-3.62786,-0.09777936,0.75484
492.92,55.4565,-3.62786,-0.09862678,0.75443
493.42,55.5046,-3.62786,-0.09962793,0.75401
493.92,55.5527,-3.62786,-0.09745889,0.7536
494.42,55.60103,-3.62788,-0.09899414,0.75319
494.92,55.6494,-3.62655,-0.09714861,0.75278
495.42,55.6976,-3.62785,-0.10085,0.75236
495.92,55.74585,-3.62786,-0.099907,0.75195
496.42,55.7941,-3.62787,-0.10472,0.75154
496.92,55.84235,-3.62654,-0.10438,0.75113
497.42,55.89056,-3.62759,-0.10573,0.75072
497.92,55.9391,-3.62919,-0.10767,0.75031
498.42,55.9874,-3.62918,-0.10922,0.74989
498.92,56.03575,-3.62864,-0.11053,0.74948
499.42,56.08406,-3.62654,-0.11376,0.74907
499.92,56.1324,-3.62788,-0.11657,0.74866
500.42,56.18088,-3.62654,-0.11747,0.74825
500.92,56.22926,-3.62815,-0.121,0.74784
501.42,56.2775,-3.6282,-0.12854,0.74743
501.92,56.32584,-3.6284,-0.1271,0.74702
502.42,56.3742,-3.62803,-0.13053,0.74661
502.92,56.42244,-3.62768,-0.13331,0.7462
503.42,56.47084,-3.62654,-0.13378,0.74579
503.92,56.5193,-3.62589,-0.13314,0.74539
504.42,56.5677,-3.62749,-0.13205,0.74498
504.92,56.61605,-3.62743,-0.13426,0.74457
505.42,56.66438,-3.62704,-0.1372,0.74416
505.92,56.71281,-3.627,-0.13793,0.74375
506.42,56.761,-3.62743,-0.13726,0.74334
506.92,56.80944,-3.62714,-0.13958,0.74294
507.42,56.858,-3.62494,-0.1402,0.74253
507.92,56.9064,-3.62479,-0.14043,0.74212
508.42,56.95489,-3.62606,-0.13769,0.74171
508.92,57.00331,-3.62482,-0.13987,0.74131
509.42,57.05161,-3.62611,-0.13567,0.7409
509.92,57.1,-3.62611,-0.1378,0.74049
510.42,57.14841,-3.6248,-0.13815,0.74009
510.92,57.1969,-3.62479,-0.13775,0.73968
511.42,57.2455,-3.62471,-0.14184,0.73928
511.92,57.2941,-3.62513,-0.14458,0.73887
512.42,57.3427,-3.62513,-0.14423,0.73846
512.92,57.39133,-3.62513,-0.14321,0.73806
513.42,57.4397,-3.62513,-0.14298,0.73765
513.92,57.48834,-3.62611,-0.14098,0.73725
514.42,57.53697,-3.62612,-0.14063,0.73685
514.92,57.58554,-3.62479,-0.1395,0.73644
515.42,57.6341,-3.6248,-0.14136,0.73604
515.92,57.6827,-3.6248,-0.14096,0.73563
516.42,57.73126,-3.62609,-0.13935,0.73523
516.92,57.7798,-3.62612,-0.13991,0.73483
517.42,57.8284,-3.62348,-0.13827,0.73442
517.92,57.87704,-3.62595,-0.13677,0.73402
518.42,57.92575,-3.62557,-0.14045,0.73362
518.92,57.9744,-3.6247,-0.13806,0.73321
519.42,58.02313,-3.6249,-0.13867,0.73281
519.92,58.0718,-3.6249,-0.13731,0.73241
520.42,58.12061,-3.62489,-0.13963,0.73201
520.92,58.1693,-3.62496,-0.13466,0.7316
521.42,58.218,-3.62359,-0.13881,0.7312
521.92,58.2667,-3.62362,-0.14016,0.7308
522.42,58.3153,-3.6249,-0.13877,0.7304
522.92,58.3639,-3.6249,-0.13757,0.73
523.42,58.41267,-3.6249,-0.13771,0.7296
523.92,58.4614,-3.62359,-0.14028,0.7292
524.42,58.51014,-3.62228,-0.13898,0.7288
524.92,58.5587,-3.61541,-0.14239,0.7284
525.42,58.60726,-3.61592,-0.13828,0.728
525.92,58.6558,-3.63264,-0.13738,0.7276
526.42,58.7043,-3.63221,-0.13569,0.7272
526.92,58.75284,-3.62059,-0.13567,0.7268
527.42,58.8016,-3.62239,-0.13816,0.7264
527.92,58.85034,-3.62239,-0.13666,0.726
528.42,58.89892,-3.62236,-0.13561,0.72561
528.92,58.94765,-3.62372,-0.13619,0.72521
529.42,58.99657,-3.62385,-0.13735,0.72481
529.92,59.04535,-3.62268,-0.13753,0.72441
530.42,59.09415,-3.62093,-0.13595,0.72401
530.92,59.14305,-3.61622,-0.13604,0.72362
531.42,59.19175,-3.63311,-0.13578,0.72322
531.92,59.2404,-3.62672,-0.13405,0.72282
532.42,59.28923,-3.62358,-0.13383,0.72243
532.92,59.338,-3.62359,-0.13392,0.72203
533.42,59.3869,-3.62346,-0.13732,0.72164
533.92,59.4358,-3.62227,-0.13484,0.72124
534.42,59.4847,-3.62227,-0.13517,0.72084
534.92,59.5337,-3.62223,-0.13735,0.72045
535.42,59.5824,-3.62095,-0.13545,0.72005
535.92,59.63131,-3.62095,-0.13803,0.71966
536.42,59.6802,-3.62162,-0.13848,0.71927
536.92,59.72897,-3.62194,-0.14,0.71887
537.42,59.77769,-3.62194,-0.13807,0.71848
537.92,59.82669,-3.62059,-0.13966,0.71808
538.42,59.8755,-3.62057,-0.13704,0.71769
538.92,59.9245,-3.62174,-0.14066,0.7173
539.42,59.97367,-3.6204,-0.13628,0.7169
539.92,60.0226,-3.62091,-0.13602,0.71651
540.42,60.07154,-3.62139,-0.13484,0.71612
540.92,60.1205,-3.62139,-0.14026,0.71573
541.42,60.16939,-3.62079,-0.13413,0.71533
541.92,60.21829,-3.62008,-0.13539,0.71494
542.42,60.2671,-3.62103,-0.13911,0.71455
542.92,60.3162,-3.62107,-0.13666,0.71416
543.42,60.36518,-3.62108,-0.13675,0.71377
543.92,60.41414,-3.61974,-0.13814,0.71338
544.42,60.46305,-3.61951,-0.13941,0.71299
544.92,60.51206,-3.6184,-0.13847,0.7126
545.42,60.56095,-3.61964,-0.13475,0.71221
545.92,60.60986,-3.62096,-0.13371,0.71182
546.42,60.65899,-3.62096,-0.13569,0.71143
546.92,60.708,-3.621,-0.13476,0.71104
547.42,60.75728,-3.61964,-0.13402,0.71065
547.92,60.80659,-3.61964,-0.13433,0.71026
548.42,60.8556,-3.61964,-0.13244,0.70988
548.92,60.9047,-3.61963,-0.13624,0.70949
549.42,60.95366,-3.61833,-0.13549,0.7091
549.92,61.00269,-3.61832,-0.13699,0.70871
550.42,61.0518,-3.61832,-0.13421,0.70832
550.92,61.10099,-3.61964,-0.13712,0.70794
551.42,61.14995,-3.6181,-0.13398,0.70755
551.92,61.1991,-3.61901,-0.13217,0.70716
552.42,61.2483,-3.61942,-0.13352,0.70678
552.92,61.2974,-3.6194,-0.1347,0.70639
553.42,61.34665,-3.6181,-0.13495,0.70601
553.92,61.3958,-3.61771,-0.13513,0.70562
554.42,61.445,-3.61744,-0.13319,0.70524
554.92,61.49417,-3.61743,-0.13349,0.70485
555.42,61.5434,-3.61843,-0.13232,0.70447
555.92,61.5925,-3.61909,-0.13064,0.70408
556.42,61.6417,-3.61854,-0.13228,0.7037
556.92,61.69084,-3.61854,-0.1334,0.70332
557.42,61.7399,-3.61854,-0.1354,0.70293
557.92,61.789,-3.61854,-0.13468,0.70255
558.42,61.8381,-3.61855,-0.13432,0.70217
558.92,61.8872,-3.61722,-0.1347,0.70178
559.42,61.9363,-3.61831,-0.13303,0.7014
559.92,61.9856,-3.61877,-0.13588,0.70102
560.42,62.03485,-3.61786,-0.13762,0.70064
560.92,62.08419,-3.61857,-0.13424,0.70026
561.42,62.13355,-3.61854,-0.13786,0.69987
561.92,62.18283,-3.61715,-0.13535,0.69949
562.42,62.232,-3.61657,-0.138,0.69911
562.92,62.2812,-3.61657,-0.13727,0.69873
563.42,62.33025,-3.61657,-0.13879,0.69835
563.92,62.3794,-3.61657,-0.13922,0.69797
564.42,62.4287,-3.61657,-0.13989,0.69759
564.92,62.478,-3.61657,-0.14136,0.69721
565.42,62.52724,-3.61657,-0.13839,0.69684
565.92,62.5766,-3.61657,-0.14072,0.69646
566.42,62.62585,-3.61657,-0.13948,0.69608
566.92,62.67505,-3.61658,-0.13784,0.6957
567.42,62.72432,-3.61721,-0.13639,0.69532
567.92,62.77385,-3.61724,-0.1356,0.69494
568.42,62.82325,-3.61656,-0.13914,0.69457
568.92,62.8728,-3.61658,-0.13432,0.69419
569.42,62.9223,-3.61559,-0.13562,0.69381
569.92,62.97169,-3.61558,-0.13561,0.69344
570.42,63.0211,-3.61524,-0.13607,0.69306
570.92,63.0706,-3.61391,-0.13866,0.69269
571.42,63.12013,-3.61361,-0.13496,0.69231
571.92,63.16966,-3.61491,-0.13645,0.69194
572.42,63.2192,-3.61432,-0.13598,0.69156
572.92,63.26855,-3.61528,-0.13833,0.69119
573.42,63.31805,-3.61497,-0.13696,0.69081
573.92,63.3675,-3.61492,-0.13762,0.69044
574.42,63.41705,-3.61492,-0.13454,0.69006
574.92,63.46654,-3.61492,-0.14067,0.68969
575.42,63.51616,-3.61492,-0.13777,0.68932
575.92,63.5658,-3.61437,-0.13856,0.68894
576.42,63.61534,-3.61361,-0.14002,0.68857
576.92,63.6649,-3.61482,-0.13882,0.6882
577.42,63.71454,-3.61492,-0.13688,0.68783
577.92,63.76404,-3.61492,-0.13853,0.68746
578.42,63.8132,-3.61393,-0.13783,0.68708
578.92,63.8627,-3.61286,-0.13737,0.68671
579.42,63.9121,-3.61262,-0.13861,0.68634
579.92,63.9615,-3.61262,-0.13731,0.68597
580.42,64.01136,-3.61262,-0.13946,0.6856
580.92,64.0607,-3.61393,-0.13639,0.68523
581.42,64.1102,-3.61262,-0.13754,0.68486
581.92,64.15958,-3.61261,-0.13816,0.68449
582.42,64.20891,-3.61393,-0.14162,0.68412
582.92,64.25832,-3.61393,-0.13756,0.68376
583.42,64.30771,-3.61489,-0.1404,0.68339
583.92,64.35713,-3.61492,-0.14203,0.68302
584.42,64.4066,-3.61491,-0.13922,0.68265
584.92,64.456,-3.61362,-0.14292,0.68228
585.42,64.5055,-3.61361,-0.14035,0.68192
585.92,64.55489,-3.61276,-0.13888,0.68155
586.42,64.6044,-3.61383,-0.14285,0.68118
586.92,64.65394,-3.61349,-0.14197,0.68082
587.42,64.7034,-3.6135,-0.14321,0.68045
587.92,64.7529,-3.61232,-0.14459,0.68009
588.42,64.80212,-3.61218,-0.14675,0.67972
588.92,64.85126,-3.61218,-0.14394,0.67936
589.42,64.9009,-3.61218,-0.1472,0.67899
589.92,64.95067,-3.61216,-0.14416,0.67863
590.42,65.00054,-3.61219,-0.14579,0.67826
590.92,65.05056,-3.60503,-0.14638,0.6779
591.42,65.09998,-3.61338,-0.14019,0.67754
591.92,65.1493,-3.61723,-0.14093,0.67717
592.42,65.1987,-3.61372,-0.14315,0.67681
592.92,65.24815,-3.61095,-0.14312,0.67645
593.42,65.2976,-3.61097,-0.14449,0.67609
593.92,65.34701,-3.61097,-0.1414,0.67572
594.42,65.3964,-3.61098,-0.14092,0.67536
594.92,65.4459,-3.61131,-0.1459,0.675
595.42,65.49551,-3.61136,-0.14424,0.67464
595.92,65.54534,-3.61108,-0.14371,0.67428
596.42,65.5949,-3.61108,-0.14069,0.67392
596.92,65.6444,-3.60888,-0.14502,0.67356
597.42,65.69378,-3.60524,-0.14121,0.6732
597.92,65.74297,-3.61901,-0.14065,0.67284
598.42,65.79214,-3.61182,-0.1424,0.67248
598.92,65.8414,-3.61191,-0.14641,0.67212
599.42,65.89099,-3.61283,-0.1465,0.67176
599.92,65.9406,-3.61152,-0.14386,0.67141
600.42,65.99,-3.61152,-0.14524,0.67105
600.92,66.0395,-3.61021,-0.14255,0.67069
601.42,66.08882,-3.61021,-0.14393,0.67033
601.92,66.1383,-3.61021,-0.14709,0.66998
602.42,66.18785,-3.60905,-0.14059,0.66962
602.92,66.23756,-3.60872,-0.14457,0.66926
603.42,66.28709,-3.6078,-0.14192,0.66891
603.92,66.33667,-3.60889,-0.14206,0.66855
604.42,66.38636,-3.61013,-0.14454,0.6682
604.92,66.43584,-3.61173,-0.14501,0.66784
605.42,66.4854,-3.61031,-0.14304,0.66749
605.92,66.53496,-3.60995,-0.1457,0.66713
606.42,66.5843,-3.60998,-0.14368,0.66678
606.92,66.6336,-3.60998,-0.14387,0.66643
607.42,66.68298,-3.60998,-0.14378,0.66607
607.92,66.7323,-3.60998,-0.14508,0.66572
608.42,66.7817,-3.60998,-0.14297,0.66537
608.92,66.83114,-3.60867,-0.14654,0.66502
609.42,66.88062,-3.61102,-0.14361,0.66466
609.92,66.9299,-3.60998,-0.14442,0.66431
610.42,66.9793,-3.61083,-0.14528,0.66396
610.92,67.0286,-3.61701,-0.14781,0.66361
611.42,67.07799,-3.6011,-0.14432,0.66326
611.92,67.12746,-3.60532,-0.14503,0.66291
612.42,67.1769,-3.60763,-0.14513,0.66256
612.92,67.22626,-3.60852,-0.14404,0.66221
613.42,67.2757,-3.60779,-0.1456,0.66186
613.92,67.32506,-3.60786,-0.14426,0.66151
614.42,67.3744,-3.60709,-0.14286,0.66116
614.92,67.4238,-3.60858,-0.14342,0.66081
615.42,67.47331,-3.61576,-0.14514,0.66047
615.92,67.52275,-3.60399,-0.14539,0.66012
616.42,67.57226,-3.60579,-0.14595,0.65977
616.92,67.6219,-3.6067,-0.1432,0.65942
617.42,67.6716,-3.60768,-0.14297,0.65908
617.92,67.72123,-3.60768,-0.14582,0.65873
618.42,67.77094,-3.60858,-0.14715,0.65838
618.92,67.82074,-3.60769,-0.14669,0.65804
619.42,67.87055,-3.60922,-0.14615,0.65769
619.92,67.92031,-3.60922,-0.14652,0.65735
620.42,67.97009,-3.60922,-0.14605,0.657
620.92,68.01979,-3.6102,-0.14642,0.65666
621.42,68.06948,-3.60888,-0.14546,0.65632
621.92,68.11929,-3.60922,-0.1481,0.65597
622.42,68.16905,-3.60922,-0.14565,0.65563
622.92,68.21875,-3.61048,-0.14855,0.65529
623.42,68.26852,-3.60923,-0.14534,0.65494
623.92,68.3183,-3.60844,-0.1454,0.6546
624.42,68.3681,-3.60845,-0.14775,0.65426
624.92,68.41812,-3.60845,-0.14129,0.65392
625.42,68.46805,-3.60845,-0.13888,0.65357
625.92,68.51811,-3.60977,-0.14101,0.65323
626.42,68.56806,-3.60837,-0.13798,0.65289
626.92,68.618,-3.60958,-0.13941,0.65255
627.42,68.66825,-3.60845,-0.13978,0.65221
627.92,68.71845,-3.60924,-0.13829,0.65187
628.42,68.76845,-3.60709,-0.14034,0.65153
628.92,68.81849,-3.59751,-0.14268,0.65119
629.42,68.86854,-3.61517,-0.13947,0.65086
629.92,68.9181,-3.61407,-0.13778,0.65052
630.42,68.96812,-3.6099,-0.13783,0.65018
630.92,69.0183,-3.60989,-0.13833,0.64984
631.42,69.06825,-3.60856,-0.13898,0.6495
631.92,69.11837,-3.60722,-0.1433,0.64917
632.42,69.16844,-3.60746,-0.14231,0.64883
632.92,69.21834,-3.60976,-0.13978,0.64849
633.42,69.26805,-3.6094,-0.13751,0.64816
633.92,69.31817,-3.60834,-0.13986,0.64782
634.42,69.36819,-3.60834,-0.13633,0.64749
634.92,69.41811,-3.60834,-0.13573,0.64715
635.42,69.46829,-3.60833,-0.1367,0.64682
635.92,69.5184,-3.60672,-0.13608,0.64648
636.42,69.56851,-3.6067,-0.13376,0.64615
636.92,69.61873,-3.6067,-0.13389,0.64582
637.42,69.66893,-3.608,-0.13391,0.64548
637.92,69.71903,-3.60559,-0.1372,0.64515
638.42,69.76894,-3.60185,-0.13251,0.64482
638.92,69.8189,-3.61318,-0.13007,0.64448
639.42,69.86882,-3.60911,-0.13226,0.64415
639.92,69.91869,-3.6078,-0.12972,0.64382
640.42,69.96852,-3.6078,-0.12843,0.64349
640.72,69.99805,-3.6078,-0.1297,0.64329