File: 01_Data/HIPS/STA/N2/10K_min/HIPS_STA_N2_10KData_211025_R3.csv
##Temp./Â°C,Time/min,Mass loss(subtr.2)/mg,DSC(subtr.2)/(mW/mg),Sensit./(uV/mW)
49.894,10.00917,0.0612,-0.04177948,1.03584
50.494,11.46575,0.07033325,-0.01604974,1.03581
51.094,11.82756,0.06869148,-5.86486e-05,1.03578
51.694,12.09191,0.07204499,0.01309371,1.03575
52.294,12.30923,0.069327,0.02360383,1.03571
52.894,12.4991,0.07152037,0.03167735,1.03568
53.494,12.67197,0.07186953,0.04151189,1.03564
54.094,12.83085,0.07018437,0.04916633,1.0356
54.694,12.97981,0.07560273,0.05654968,1.03556
55.294,13.1207,0.07468072,0.06098961,1.03552
55.894,13.25509,0.0742312,0.06566495,1.03548
56.494,13.38521,0.07431836,0.07020262,1.03543
57.094,13.5111,0.07569465,0.07746034,1.03539
57.694,13.63145,0.07429079,0.08205055,1.03534
58.294,13.74952,0.07590096,0.08217638,1.03529
58.894,13.8641,0.07790363,0.08790608,1.03524
59.494,13.97504,0.07578423,0.09322227,1.03519
60.094,14.0831,0.07650207,0.09711881,1.03513
60.694,14.1897,0.07732874,0.10056,1.03508
61.294,14.2941,0.080608,0.10121,1.03502
61.894,14.3964,0.07787332,0.10576,1.03496
62.494,14.496,0.07689149,0.1106,1.0349
63.094,14.5939,0.08171059,0.11535,1.03484
63.694,14.6912,0.07499984,0.11522,1.03478
64.294,14.7862,0.07855604,0.1186,1.03471
64.894,14.8797,0.08144317,0.12338,1.03465
65.494,14.97265,0.08047398,0.12594,1.03458
66.094,15.06379,0.08253354,0.12837,1.03451
66.694,15.15284,0.0782374,0.13092,1.03444
67.294,15.24126,0.07966572,0.13414,1.03437
67.894,15.3289,0.07889422,0.13552,1.03429
68.494,15.4152,0.07786664,0.13952,1.03422
69.094,15.50041,0.07968925,0.14155,1.03414
69.694,15.58475,0.07996055,0.14397,1.03406
70.294,15.668,0.08182769,0.14813,1.03398
70.894,15.7507,0.08290688,0.14843,1.0339
71.494,15.8325,0.08009019,0.15095,1.03382
72.094,15.91324,0.08002188,0.15387,1.03374
72.694,15.99325,0.08247387,0.15658,1.03365
73.294,16.07224,0.08121865,0.16066,1.03356
73.894,16.151,0.08654064,0.16304,1.03347
74.494,16.22932,0.08039044,0.16065,1.03338
75.094,16.30714,0.07681559,0.16492,1.03329
75.694,16.3834,0.0803957,0.16844,1.0332
76.294,16.45908,0.08259931,0.17045,1.0331
76.894,16.53464,0.08251122,0.17466,1.03301
77.494,16.60969,0.08115997,0.17669,1.03291
78.094,16.6842,0.08107208,0.17755,1.03281
78.694,16.75789,0.08202255,0.18208,1.03271
79.294,16.83134,0.08416705,0.18246,1.03261
79.894,16.90437,0.08433839,0.18419,1.0325
80.494,16.97626,0.08461852,0.18293,1.0324
81.094,17.04794,0.0834479,0.18424,1.03229
81.694,17.1195,0.082846,0.18342,1.03218
82.294,17.19158,0.08300306,0.18146,1.03207
82.894,17.26247,0.0827556,0.18264,1.03196
83.494,17.33258,0.08545947,0.18261,1.03185
84.094,17.40224,0.08418381,0.18042,1.03174
84.694,17.47089,0.08159613,0.18088,1.03162
85.294,17.5392,0.08072903,0.1812,1.03151
85.894,17.60684,0.08067668,0.18319,1.03139
86.494,17.67494,0.08446596,0.18287,1.03127
87.094,17.7429,0.08531969,0.18691,1.03115
87.694,17.81065,0.08665027,0.18538,1.03102
88.294,17.87764,0.08800986,0.19136,1.0309
88.894,17.9442,0.08811453,0.18958,1.03077
89.494,18.01013,0.08653738,0.19224,1.03065
90.094,18.07651,0.085218,0.19458,1.03052
90.694,18.14263,0.0852544,0.19517,1.03039
91.294,18.20865,0.08379874,0.19821,1.03026
91.894,18.27409,0.08497898,0.1999,1.03013
92.494,18.33896,0.08490297,0.201,1.02999
93.094,18.4038,0.08749663,0.20459,1.02986
93.694,18.46865,0.0888499,0.20848,1.02972
94.294,18.53311,0.08747666,0.21023,1.02958
94.894,18.5974,0.08405121,0.21337,1.02944
95.494,18.66153,0.08325095,0.21562,1.0293
96.094,18.7259,0.08460073,0.2203,1.02916
96.694,18.79,0.08835814,0.22107,1.02901
97.294,18.85354,0.09027157,0.22846,1.02887
97.894,18.91613,0.08908333,0.23113,1.02872
98.494,18.97816,0.08915677,0.23424,1.02857
99.094,19.04053,0.08533595,0.23925,1.02842
99.694,19.10312,0.08544998,0.24258,1.02827
100.294,19.16592,0.08511607,0.24683,1.02812
100.894,19.2283,0.08445601,0.24983,1.02797
101.494,19.29024,0.08888212,0.25407,1.02781
102.094,19.35229,0.08719674,0.25612,1.02765
102.694,19.4144,0.08850898,0.25734,1.0275
103.294,19.47627,0.08985682,0.26101,1.02734
103.894,19.53829,0.09141211,0.26242,1.02718
104.494,19.60004,0.09380411,0.26394,1.02701
105.094,19.66191,0.09480703,0.26628,1.02685
105.694,19.72317,0.09340663,0.26727,1.02669
106.294,19.7845,0.09374337,0.26929,1.02652
106.894,19.84524,0.0963498,0.27129,1.02635
107.494,19.90545,0.09274041,0.27048,1.02618
108.094,19.96544,0.09019385,0.27304,1.02601
108.694,20.02552,0.09014941,0.27345,1.02584
109.294,20.08555,0.09017804,0.27468,1.02567
109.894,20.1462,0.09057436,0.2745,1.02549
110.494,20.2063,0.09273692,0.2754,1.02532
111.094,20.2664,0.09548999,0.27514,1.02514
111.694,20.3264,0.09454965,0.2781,1.02496
112.294,20.3861,0.09467823,0.2792,1.02478
112.894,20.4463,0.09729501,0.28006,1.0246
113.494,20.50658,0.09598889,0.28227,1.02442
114.094,20.56684,0.09597661,0.28141,1.02423
114.694,20.62678,0.09165036,0.27717,1.02405
115.294,20.68627,0.0917457,0.28059,1.02386
115.894,20.74568,0.08444976,0.28176,1.02368
116.494,20.80414,0.09289364,0.28429,1.02349
117.094,20.86309,0.09351686,0.28448,1.0233
117.694,20.92209,0.09169632,0.28496,1.0231
118.294,20.98125,0.09320594,0.28576,1.02291
118.894,21.04025,0.09600539,0.28478,1.02272
119.494,21.09887,0.09762909,0.28805,1.02252
120.094,21.15755,0.09157114,0.2878,1.02232
120.694,21.2162,0.09048889,0.28785,1.02212
121.294,21.2747,0.09139264,0.28779,1.02192
121.894,21.33311,0.09302194,0.28752,1.02172
122.494,21.39134,0.0940006,0.28981,1.02152
123.094,21.44955,0.09671387,0.29098,1.02132
123.694,21.50769,0.09970575,0.29114,1.02111
124.294,21.56579,0.09839414,0.29139,1.02091
124.894,21.6237,0.09704655,0.29311,1.0207
125.494,21.6816,0.09574798,0.29517,1.02049
126.094,21.73933,0.09587283,0.29312,1.02028
126.694,21.79714,0.09088686,0.29385,1.02007
127.294,21.85466,0.09857194,0.29542,1.01986
127.894,21.91208,0.09593356,0.29765,1.01964
128.494,21.96937,0.09454979,0.29642,1.01943
129.094,22.02652,0.09355379,0.29951,1.01921
129.694,22.08386,0.09490159,0.29794,1.01899
130.294,22.14108,0.09620037,0.2998,1.01877
130.894,22.19815,0.09620003,0.30103,1.01855
131.494,22.25519,0.09653194,0.30015,1.01833
132.094,22.312,0.09751022,0.30196,1.01811
132.694,22.36881,0.0975202,0.30095,1.01788
133.294,22.4257,0.09549642,0.30279,1.01766
133.894,22.48234,0.0960305,0.30196,1.01743
134.494,22.53858,0.09821415,0.30552,1.0172
135.094,22.59509,0.09997116,0.30584,1.01697
135.694,22.6515,0.10098,0.30653,1.01674
136.294,22.70806,0.09521486,0.30539,1.01651
136.894,22.76442,0.09332837,0.30749,1.01628
137.494,22.82024,0.09464836,0.30826,1.01604
138.094,22.87624,0.09543995,0.30909,1.01581
138.694,22.93225,0.09857747,0.3098,1.01557
139.294,22.9881,0.0986135,0.30785,1.01533
139.894,23.04419,0.09704315,0.3113,1.0151
140.494,23.09996,0.09743084,0.3124,1.01485
141.094,23.15567,0.09747483,0.3102,1.01461
141.694,23.21134,0.09849984,0.31236,1.01437
142.294,23.267,0.09576304,0.31127,1.01413
142.894,23.3227,0.09724295,0.31289,1.01388
143.494,23.37836,0.09718002,0.31499,1.01363
144.094,23.43383,0.09870902,0.31374,1.01339
144.694,23.4893,0.09992925,0.3145,1.01314
145.294,23.54476,0.09854329,0.31539,1.01289
145.894,23.60025,0.09968813,0.31551,1.01264
146.494,23.65563,0.10055,0.31589,1.01238
147.094,23.71096,0.09926161,0.31616,1.01213
147.694,23.766,0.09860545,0.31719,1.01187
148.294,23.8213,0.09848864,0.31744,1.01162
148.894,23.8764,0.0984326,0.3181,1.01136
149.494,23.9314,0.10056,0.31946,1.0111
150.094,23.9864,0.10047,0.31898,1.01084
150.694,24.04121,0.10051,0.31957,1.01058
151.294,24.09605,0.10016,0.32075,1.01032
151.894,24.15101,0.10051,0.31876,1.01006
152.494,24.20586,0.09928634,0.3182,1.00979
153.094,24.26083,0.10058,0.32082,1.00953
153.694,24.31588,0.10116,0.32403,1.00926
154.294,24.3707,0.10124,0.32253,1.00899
154.894,24.42556,0.10124,0.32271,1.00872
155.494,24.4803,0.10123,0.32471,1.00845
156.094,24.53489,0.10088,0.32299,1.00818
156.694,24.58964,0.1019,0.32428,1.00791
157.294,24.64426,0.102,0.32594,1.00763
157.894,24.69881,0.10288,0.32662,1.00736
158.494,24.75338,0.10288,0.32539,1.00708
159.094,24.80801,0.10233,0.32633,1.00681
159.694,24.86264,0.09892709,0.32711,1.00653
160.294,24.91722,0.09930262,0.32643,1.00625
160.894,24.9719,0.10173,0.32867,1.00597
161.494,25.02662,0.10123,0.32587,1.00569
162.094,25.08127,0.09913788,0.32809,1.0054
162.694,25.13596,0.10036,0.32787,1.00512
163.294,25.19053,0.10036,0.33145,1.00483
163.894,25.24471,0.10036,0.32965,1.00455
164.494,25.29928,0.1017,0.32914,1.00426
165.094,25.35373,0.10115,0.33099,1.00397
165.694,25.4083,0.09791572,0.33111,1.00368
166.294,25.4631,0.09703642,0.33524,1.00339
166.894,25.51742,0.09837611,0.33288,1.0031
167.494,25.57179,0.09506122,0.33435,1.00281
168.094,25.62601,0.09946301,0.33579,1.00251
168.694,25.68029,0.09947233,0.33478,1.00222
169.294,25.73476,0.10075,0.33578,1.00192
169.894,25.78912,0.10212,0.33466,1.00162
170.494,25.84337,0.10069,0.33609,1.00132
171.094,25.89764,0.10069,0.33609,1.00102
171.694,25.9519,0.10069,0.33431,1.00072
172.294,26.00603,0.10082,0.33793,1.00042
172.894,26.06029,0.10332,0.33792,1.00012
173.494,26.1145,0.10333,0.33959,0.99981
174.094,26.16849,0.102,0.33798,0.99951
174.694,26.2226,0.10437,0.33862,0.9992
175.294,26.2766,0.10415,0.3369,0.9989
175.894,26.33072,0.10267,0.34022,0.99859
176.494,26.3847,0.1033,0.34022,0.99828
177.094,26.43865,0.10332,0.34261,0.99797
177.694,26.4925,0.10063,0.34258,0.99766
178.294,26.54638,0.10025,0.34195,0.99734
178.894,26.60052,0.09947825,0.34239,0.99703
179.494,26.65447,0.09922312,0.3429,0.99671
180.094,26.70855,0.10333,0.33993,0.9964
180.694,26.7626,0.10489,0.34219,0.99608
181.294,26.81645,0.10332,0.34449,0.99576
181.894,26.87035,0.10071,0.34539,0.99545
182.494,26.9242,0.1007,0.34215,0.99513
183.094,26.978,0.09991388,0.34524,0.9948
183.694,27.03183,0.10563,0.34525,0.99448
184.294,27.08571,0.09748895,0.34556,0.99416
184.894,27.1394,0.10098,0.34459,0.99384
185.494,27.19329,0.10395,0.34836,0.99351
186.094,27.24703,0.10299,0.34767,0.99318
186.694,27.30065,0.10399,0.34826,0.99286
187.294,27.3543,0.10092,0.34984,0.99253
187.894,27.40788,0.10126,0.35096,0.9922
188.494,27.46153,0.10135,0.34933,0.99187
189.094,27.51517,0.10275,0.35068,0.99154
189.694,27.56881,0.10143,0.35023,0.99121
190.294,27.62241,0.10272,0.35273,0.99087
190.894,27.676,0.10398,0.3545,0.99054
191.494,27.7294,0.10398,0.35439,0.9902
192.094,27.7829,0.10266,0.35374,0.98987
192.694,27.8363,0.10117,0.35472,0.98953
193.294,27.88993,0.10113,0.35546,0.98919
193.894,27.9434,0.09847366,0.35723,0.98885
194.494,27.997,0.10068,0.35721,0.98851
195.094,28.05075,0.1035,0.3581,0.98817
195.694,28.1042,0.10602,0.3598,0.98783
196.294,28.1579,0.1052,0.35856,0.98749
196.894,28.2113,0.10069,0.35909,0.98714
197.494,28.2647,0.09913136,0.35734,0.9868
198.094,28.3182,0.10303,0.36219,0.98645
198.694,28.3715,0.10237,0.36031,0.9861
199.294,28.42493,0.10236,0.36002,0.98576
199.894,28.47833,0.10214,0.3592,0.98541
200.494,28.5318,0.10232,0.36313,0.98506
201.094,28.58547,0.09941524,0.36231,0.98471
201.694,28.6391,0.09639955,0.36423,0.98435
202.294,28.6925,0.09856183,0.36604,0.984
202.894,28.7459,0.09990475,0.36598,0.98365
203.494,28.7992,0.10014,0.36613,0.98329
204.094,28.85248,0.10087,0.36539,0.98294
204.694,28.90601,0.10468,0.36683,0.98258
205.294,28.9594,0.10418,0.36804,0.98222
205.894,29.0129,0.10089,0.36848,0.98186
206.494,29.0665,0.10114,0.36831,0.98151
207.094,29.12006,0.10119,0.36965,0.98115
207.694,29.1737,0.10376,0.37025,0.98078
208.294,29.22717,0.10226,0.37018,0.98042
208.894,29.2807,0.10079,0.37183,0.98006
209.494,29.3341,0.09948114,0.3722,0.97969
210.094,29.3877,0.10112,0.37279,0.97933
210.694,29.4413,0.10122,0.37284,0.97896
211.294,29.4948,0.10245,0.37506,0.9786
211.894,29.5482,0.10088,0.37461,0.97823
212.494,29.6017,0.09841257,0.37469,0.97786
213.094,29.65499,0.09973883,0.3751,0.97749
213.694,29.7082,0.10102,0.37607,0.97712
214.294,29.7614,0.09937359,0.37268,0.97675
214.894,29.81488,0.09831455,0.37717,0.97638
215.494,29.86846,0.09654715,0.37632,0.97601
216.094,29.92213,0.09989983,0.37865,0.97563
216.694,29.9758,0.10114,0.37698,0.97526
217.294,30.02914,0.09982091,0.37828,0.97488
217.894,30.0824,0.09967005,0.37855,0.97451
218.494,30.1359,0.09849697,0.37921,0.97413
219.094,30.1895,0.0998176,0.38008,0.97375
219.694,30.2431,0.10092,0.37901,0.97337
220.294,30.29682,0.09981219,0.38225,0.97299
220.894,30.3505,0.09981326,0.38217,0.97261
221.494,30.40411,0.09854985,0.38058,0.97223
222.094,30.4576,0.10017,0.38113,0.97185
222.694,30.51118,0.10125,0.38169,0.97146
223.294,30.5647,0.09981624,0.38155,0.97108
223.894,30.6182,0.09812408,0.38169,0.97069
224.494,30.67172,0.10051,0.38195,0.97031
225.094,30.7251,0.10253,0.38258,0.96992
225.694,30.7786,0.09980315,0.38267,0.96953
226.294,30.83219,0.09880388,0.38243,0.96914
226.894,30.8853,0.09882002,0.38301,0.96876
227.494,30.93882,0.09881999,0.38276,0.96836
228.094,30.9925,0.09948412,0.38155,0.96797
228.694,31.0462,0.10014,0.38211,0.96758
229.294,31.10033,0.10014,0.38257,0.96719
229.894,31.1542,0.09880968,0.38209,0.9668
230.494,31.20784,0.09408891,0.38472,0.9664
231.094,31.2614,0.10068,0.38375,0.96601
231.694,31.3152,0.1015,0.38369,0.96561
232.294,31.36879,0.0985322,0.38545,0.96521
232.894,31.42253,0.09668676,0.38317,0.96482
233.494,31.47601,0.09915057,0.3858,0.96442
234.094,31.52968,0.09915984,0.38659,0.96402
234.694,31.58338,0.09782525,0.38454,0.96362
235.294,31.63703,0.10046,0.38485,0.96322
235.894,31.6908,0.09887852,0.38736,0.96282
236.494,31.7444,0.09762138,0.3874,0.96242
237.094,31.7981,0.09912653,0.38926,0.96201
237.694,31.8516,0.09828834,0.3896,0.96161
238.294,31.90513,0.09794279,0.39028,0.9612
238.894,31.9588,0.09824975,0.39023,0.9608
239.494,32.01227,0.09686479,0.39175,0.96039
240.094,32.066,0.09815591,0.38767,0.95999
240.694,32.11988,0.09676039,0.392,0.95958
241.294,32.17367,0.09564926,0.39149,0.95917
241.894,32.22744,0.09831565,0.38907,0.95876
242.494,32.2812,0.09827809,0.39027,0.95835
243.094,32.33486,0.09479523,0.39228,0.95794
243.694,32.3887,0.09366833,0.39298,0.95753
244.294,32.44263,0.09362278,0.39117,0.95712
244.894,32.49643,0.09509619,0.392,0.9567
245.494,32.55011,0.09771314,0.39158,0.95629
246.094,32.60371,0.09796572,0.39451,0.95588
246.694,32.6574,0.09521346,0.39283,0.95546
247.294,32.71112,0.09264314,0.39175,0.95505
247.894,32.76481,0.0968473,0.39262,0.95463
248.494,32.81855,0.09729006,0.39136,0.95421
249.094,32.87218,0.09729593,0.39416,0.95379
249.694,32.92592,0.09663157,0.39469,0.95337
250.294,32.9797,0.09173666,0.39361,0.95296
250.894,33.03354,0.09043513,0.39495,0.95254
251.494,33.08748,0.09339233,0.39565,0.95211
252.094,33.1415,0.09378742,0.39608,0.95169
252.694,33.19525,0.09518552,0.39626,0.95127
253.294,33.2492,0.09114552,0.39824,0.95085
253.894,33.303,0.08730852,0.39929,0.95042
254.494,33.35672,0.09271008,0.39774,0.95
255.094,33.4107,0.09283235,0.39837,0.94957
255.694,33.46444,0.09384281,0.39818,0.94915
256.294,33.51814,0.09417254,0.39789,0.94872
256.894,33.57176,0.09237232,0.39871,0.94829
257.494,33.62546,0.09112327,0.39972,0.94787
258.094,33.67915,0.09115084,0.39968,0.94744
258.694,33.73308,0.08917465,0.39823,0.94701
259.294,33.78727,0.0904139,0.39703,0.94658
259.894,33.84122,0.0920135,0.39806,0.94615
260.494,33.89519,0.09111498,0.39729,0.94572
261.094,33.94908,0.09015873,0.39801,0.94528
261.694,34.0029,0.08884966,0.39887,0.94485
262.294,34.05672,0.08736976,0.39971,0.94442
262.894,34.11068,0.08579049,0.39981,0.94398
263.494,34.16446,0.08731753,0.39836,0.94355
264.094,34.21825,0.08994342,0.39706,0.94311
264.694,34.272,0.08934858,0.39823,0.94268
265.294,34.32565,0.08927481,0.39899,0.94224
265.894,34.37939,0.08994057,0.39811,0.9418
266.494,34.43334,0.08872073,0.39775,0.94137
267.094,34.4874,0.08723099,0.39781,0.94093
267.694,34.54157,0.08532636,0.399,0.94049
268.294,34.59567,0.08306321,0.39934,0.94005
268.894,34.64959,0.08314572,0.40047,0.93961
269.494,34.70348,0.08356978,0.3986,0.93917
270.094,34.7575,0.08358253,0.39822,0.93873
270.694,34.81155,0.08216889,0.39841,0.93828
271.294,34.86562,0.0807393,0.3961,0.93784
271.894,34.91967,0.08384759,0.39814,0.9374
272.494,34.97367,0.08570292,0.39646,0.93695
273.094,35.02758,0.08609013,0.3958,0.93651
273.694,35.08144,0.08419459,0.39589,0.93606
274.294,35.13541,0.08465197,0.39629,0.93562
274.894,35.18916,0.08347,0.39575,0.93517
275.494,35.2431,0.08195613,0.39561,0.93472
276.094,35.29714,0.08073079,0.39536,0.93428
276.694,35.35116,0.08071748,0.39669,0.93383
277.294,35.4054,0.08101608,0.39524,0.93338
277.894,35.4596,0.08094389,0.39386,0.93293
278.494,35.5137,0.08015111,0.39768,0.93248
279.094,35.56736,0.07677517,0.39424,0.93203
279.694,35.62138,0.07529596,0.39783,0.93158
280.294,35.67538,0.07544243,0.39605,0.93113
280.894,35.72939,0.07678006,0.39703,0.93067
281.494,35.7839,0.0759554,0.39496,0.93022
282.094,35.83773,0.07546054,0.39344,0.92977
282.694,35.89183,0.07688981,0.39226,0.92931
283.294,35.94583,0.07557994,0.39228,0.92886
283.894,35.9998,0.07426853,0.39291,0.9284
284.494,36.05408,0.07425996,0.3933,0.92795
285.094,36.10785,0.07426,0.39111,0.92749
285.694,36.16165,0.0742591,0.39204,0.92703
286.294,36.2158,0.07295726,0.3914,0.92658
286.894,36.26975,0.07425083,0.39148,0.92612
287.494,36.3243,0.07283918,0.39178,0.92566
288.094,36.37874,0.072181,0.39002,0.9252
288.694,36.43312,0.06990403,0.39035,0.92474
289.294,36.48764,0.06932061,0.39058,0.92428
289.894,36.54186,0.06974682,0.39126,0.92382
290.494,36.59618,0.0680094,0.3944,0.92336
291.094,36.65031,0.0700327,0.38848,0.9229
291.694,36.70443,0.06995569,0.38966,0.92243
292.294,36.75877,0.06855328,0.38641,0.92197
292.894,36.81303,0.0658171,0.39005,0.92151
293.494,36.8673,0.06581,0.3886,0.92104
294.094,36.92168,0.06580811,0.38851,0.92058
294.694,36.97591,0.06716047,0.38767,0.92011
295.294,37.03026,0.06581098,0.384,0.91965
295.894,37.08467,0.06581,0.38713,0.91918
296.494,37.139,0.06581,0.38619,0.91872
297.094,37.1934,0.06581042,0.38474,0.91825
297.694,37.24774,0.06495255,0.3832,0.91778
298.294,37.302,0.06359625,0.38447,0.91731
298.894,37.3563,0.06322386,0.38529,0.91685
299.494,37.4107,0.06140749,0.38231,0.91638
300.094,37.46504,0.06981387,0.38281,0.91591
300.694,37.51943,0.06138196,0.38284,0.91544
301.294,37.57395,0.06144924,0.3838,0.91497
301.894,37.6283,0.06142992,0.38249,0.9145
302.494,37.6828,0.06104102,0.38347,0.91403
303.094,37.73728,0.05934032,0.38208,0.91355
303.694,37.7917,0.05934101,0.38099,0.91308
304.294,37.8463,0.06083226,0.38046,0.91261
304.894,37.90083,0.05907435,0.3819,0.91214
305.494,37.95531,0.05701414,0.37859,0.91166
306.094,38.00967,0.05558423,0.38088,0.91119
306.694,38.0642,0.05583837,0.38046,0.91071
307.294,38.11874,0.05439272,0.38145,0.91024
307.894,38.17325,0.05277691,0.37948,0.90976
308.494,38.22789,0.05042791,0.37865,0.90929
309.094,38.28241,0.05185452,0.37672,0.90881
309.694,38.33706,0.05718405,0.37543,0.90833
310.294,38.39159,0.05594091,0.37463,0.90786
310.894,38.44612,0.05469875,0.37465,0.90738
311.494,38.5007,0.05049989,0.37511,0.9069
312.094,38.55529,0.04935025,0.37361,0.90642
312.694,38.60995,0.04936569,0.37315,0.90594
313.294,38.6647,0.047612,0.372,0.90547
313.894,38.7194,0.04891899,0.37288,0.90499
314.494,38.77406,0.04828181,0.3708,0.90451
315.094,38.82864,0.04835696,0.36836,0.90403
315.694,38.8833,0.04963392,0.36763,0.90354
316.294,38.9382,0.04811518,0.36618,0.90306
316.894,38.99296,0.04625528,0.36649,0.90258
317.494,39.04764,0.04683127,0.36474,0.9021
318.094,39.10228,0.04711629,0.36606,0.90162
318.694,39.1571,0.04507628,0.3668,0.90113
319.294,39.21183,0.03746879,0.3667,0.90065
319.894,39.26716,0.0379761,0.36764,0.90017
320.494,39.32217,0.03918029,0.36625,0.89968
321.094,39.37715,0.04172941,0.36294,0.8992
321.694,39.4319,0.04299966,0.36237,0.89871
322.294,39.48659,0.04234368,0.35906,0.89823
322.894,39.54146,0.04250052,0.35739,0.89774
323.494,39.59644,0.04234353,0.35397,0.89726
324.094,39.6516,0.03953847,0.35584,0.89677
324.694,39.7066,0.03698966,0.35636,0.89628
325.294,39.76142,0.03493852,0.35573,0.89579
325.894,39.81626,0.03203549,0.35625,0.89531
326.494,39.8713,0.02991762,0.35554,0.89482
327.094,39.92642,0.0341039,0.35097,0.89433
327.694,39.98169,0.03466831,0.34993,0.89384
328.294,40.03695,0.03328392,0.34822,0.89335
328.894,40.09191,0.02853896,0.34742,0.89286
329.494,40.1471,0.02427776,0.34678,0.89237
330.094,40.20218,0.02520849,0.34782,0.89188
330.694,40.2573,0.02370096,0.34497,0.89139
331.294,40.31242,0.02512371,0.34611,0.8909
331.894,40.3673,0.02443494,0.34376,0.89041
332.494,40.4225,0.02445091,0.33996,0.88992
333.094,40.47759,0.0231435,0.34041,0.88943
333.694,40.53282,0.02180349,0.33907,0.88894
334.294,40.58809,0.02438762,0.33494,0.88844
334.894,40.64315,0.02327424,0.33193,0.88795
335.494,40.69818,0.02302283,0.33243,0.88746
336.094,40.75339,0.02204708,0.32942,0.88697
336.694,40.8084,0.02133009,0.3277,0.88647
337.294,40.86367,0.02085143,0.32854,0.88598
337.894,40.91881,0.01517348,0.32942,0.88548
338.494,40.9739,0.01328163,0.32817,0.88499
339.094,41.0291,0.01798459,0.32626,0.88449
339.694,41.08432,0.01811251,0.3208,0.884
340.294,41.13953,0.01667031,0.31737,0.8835
340.894,41.19493,0.01516865,0.31821,0.88301
341.494,41.25033,0.01368908,0.31545,0.88251
342.094,41.3056,0.01667192,0.31356,0.88201
342.694,41.36092,0.01501939,0.31355,0.88152
343.294,41.41608,0.01440525,0.31064,0.88102
343.894,41.47132,0.0150711,0.30792,0.88052
344.494,41.5266,0.01360928,0.30641,0.88003
345.094,41.58174,0.01100962,0.30605,0.87953
345.694,41.637,0.009649773,0.30493,0.87903
346.294,41.69212,0.009650003,0.30446,0.87853
346.894,41.74735,0.009647475,0.30032,0.87803
347.494,41.8026,0.01104036,0.29731,0.87753
348.094,41.85788,0.009768765,0.29574,0.87703
348.694,41.91333,0.00824867,0.2946,0.87654
349.294,41.9688,0.007935107,0.29028,0.87604
349.894,42.02418,0.00756985,0.28847,0.87554
350.494,42.0796,0.006226364,0.2882,0.87504
351.094,42.13499,0.005943,0.28566,0.87453
351.694,42.1902,0.00669506,0.28365,0.87403
352.294,42.24556,0.00496004,0.28275,0.87353
352.894,42.30084,0.004648021,0.28012,0.87303
353.494,42.35626,0.003300532,0.28115,0.87253
354.094,42.4119,0.001954272,0.27866,0.87203
354.694,42.46737,0.00055215,0.27293,0.87153
355.294,42.52278,0.001949073,0.27422,0.87102
355.894,42.5781,0.001139316,0.27163,0.87052
356.494,42.63354,0.001222388,0.26941,0.87002
357.094,42.68895,0.001320849,0.26794,0.86952
357.694,42.7442,-2.110486e-05,0.26562,0.86901
358.294,42.79959,-0.0026732,0.26573,0.86851
358.894,42.85525,-0.005471791,0.26668,0.86801
359.494,42.91073,-0.00806886,0.2651,0.8675
360.094,42.96633,-0.008664555,0.26288,0.867
360.694,43.02189,-0.01005595,0.26045,0.86649
361.294,43.07732,-0.01010291,0.26041,0.86599
361.894,43.13306,-0.01009001,0.25824,0.86549
362.494,43.18872,-0.01009002,0.25765,0.86498
363.094,43.24426,-0.01162089,0.25722,0.86448
363.694,43.2999,-0.01191676,0.2544,0.86397
364.294,43.35542,-0.01434874,0.2536,0.86346
364.894,43.41097,-0.01106188,0.25046,0.86296
365.494,43.4666,-0.008123895,0.25041,0.86245
366.094,43.52214,-0.01261452,0.24949,0.86195
366.694,43.57775,-0.01762345,0.2508,0.86144
367.294,43.6333,-0.01898255,0.25174,0.86093
367.894,43.68892,-0.0174371,0.25122,0.86043
368.494,43.7442,-0.01922302,0.24921,0.85992
369.094,43.80008,-0.02124734,0.25036,0.85941
369.694,43.85579,-0.02109392,0.24975,0.85891
370.294,43.9118,-0.02219397,0.25168,0.8584
370.894,43.96771,-0.02426678,0.25152,0.85789
371.494,44.02336,-0.02417792,0.25264,0.85738
372.094,44.07913,-0.02533679,0.25188,0.85688
372.694,44.1348,-0.02584673,0.25429,0.85637
373.294,44.19062,-0.02845956,0.25636,0.85586
373.894,44.24649,-0.03190518,0.259,0.85535
374.494,44.30245,-0.03405794,0.25874,0.85484
375.094,44.35835,-0.03383913,0.25983,0.85434
375.694,44.41415,-0.03636664,0.26237,0.85383
376.294,44.47002,-0.03780673,0.26357,0.85332
376.894,44.5255,-0.03978357,0.26819,0.85281
377.494,44.58142,-0.03970416,0.26937,0.8523
378.094,44.63727,-0.04101695,0.27518,0.85179
378.694,44.69324,-0.0446543,0.27446,0.85128
379.294,44.74941,-0.04584782,0.27873,0.85077
379.894,44.80537,-0.04833455,0.28325,0.85026
380.494,44.86149,-0.0502416,0.28904,0.84975
381.094,44.91748,-0.04808179,0.29063,0.84924
381.694,44.9737,-0.05017337,0.29313,0.84873
382.294,45.02978,-0.0537865,0.29945,0.84822
382.894,45.08592,-0.05488869,0.30606,0.84771
383.494,45.1422,-0.05492812,0.31073,0.8472
384.094,45.19839,-0.05681197,0.31359,0.84669
384.694,45.25492,-0.05911132,0.31937,0.84618
385.294,45.31133,-0.06063063,0.3248,0.84567
385.894,45.36776,-0.06479677,0.33481,0.84516
386.494,45.42411,-0.06626205,0.34191,0.84465
387.094,45.48023,-0.06891382,0.34654,0.84414
387.694,45.53649,-0.07032216,0.35451,0.84362
388.294,45.59271,-0.07166764,0.35906,0.84311
388.894,45.64897,-0.07448384,0.37123,0.8426
389.494,45.7053,-0.07795477,0.3796,0.84209
390.094,45.76164,-0.08563384,0.38987,0.84158
390.694,45.81767,-0.08554951,0.3965,0.84107
391.294,45.87389,-0.08721876,0.41337,0.84055
391.894,45.9303,-0.09078186,0.42426,0.84004
392.494,45.9864,-0.09353514,0.43483,0.83953
393.094,46.04323,-0.09615289,0.44278,0.83902
393.694,46.09977,-0.09909225,0.45714,0.83851
394.294,46.15641,-0.10135,0.46755,0.83799
394.894,46.2132,-0.10338,0.48429,0.83748
395.494,46.26961,-0.10732,0.49428,0.83697
396.094,46.32606,-0.11199,0.51415,0.83646
396.694,46.38262,-0.11838,0.52867,0.83595
397.294,46.43897,-0.12153,0.54481,0.83543
397.894,46.49548,-0.12612,0.56035,0.83492
398.494,46.55208,-0.13439,0.57808,0.83441
399.094,46.6087,-0.13762,0.59567,0.83389
399.694,46.66543,-0.14036,0.61615,0.83338
400.294,46.7222,-0.14514,0.63646,0.83287
400.894,46.77874,-0.15231,0.65911,0.83236
401.494,46.8354,-0.15612,0.68296,0.83184
402.094,46.8919,-0.16448,0.70575,0.83133
402.694,46.9486,-0.17096,0.73304,0.83082
403.294,47.00544,-0.17962,0.75988,0.8303
403.894,47.06208,-0.18705,0.78624,0.82979
404.494,47.1188,-0.19204,0.81942,0.82928
405.094,47.1755,-0.20076,0.85024,0.82876
405.694,47.23229,-0.20765,0.88328,0.82825
406.294,47.2892,-0.21663,0.91903,0.82774
406.894,47.34601,-0.22591,0.95688,0.82723
407.494,47.40283,-0.23946,0.99402,0.82671
408.094,47.4596,-0.25258,1.0362,0.8262
408.694,47.5165,-0.25851,1.08138,0.82569
409.294,47.5734,-0.26772,1.12411,0.82517
409.894,47.63058,-0.27758,1.17137,0.82466
410.494,47.6879,-0.29014,1.2216,0.82415
411.094,47.74498,-0.3092,1.27698,0.82363
411.694,47.80206,-0.32453,1.33508,0.82312
412.294,47.859,-0.33822,1.3901,0.82261
412.894,47.91607,-0.35658,1.45481,0.82209
413.494,47.97305,-0.37203,1.51657,0.82158
414.094,48.03014,-0.38833,1.5925,0.82107
414.694,48.08728,-0.41207,1.66396,0.82055
415.294,48.14451,-0.43013,1.73805,0.82004
415.894,48.20183,-0.45445,1.81777,0.81953
416.494,48.25898,-0.4705,1.89765,0.81901
417.094,48.31607,-0.48721,1.98795,0.8185
417.694,48.37345,-0.51464,2.07914,0.81799
418.294,48.43083,-0.55008,2.16964,0.81747
418.894,48.4882,-0.58029,2.26273,0.81696
419.494,48.54562,-0.61084,2.35918,0.81645
420.094,48.60302,-0.64067,2.45991,0.81593
420.694,48.66046,-0.67135,2.55821,0.81542
421.294,48.71801,-0.7091,2.6578,0.81491
421.894,48.77551,-0.74487,2.76604,0.81439
422.494,48.83299,-0.78388,2.86857,0.81388
423.094,48.89074,-0.82701,2.97424,0.81337
423.694,48.94855,-0.86908,3.08235,0.81285
424.294,49.0064,-0.89731,3.1821,0.81234
424.894,49.0644,-0.96302,3.27518,0.81183
425.494,49.12209,-0.99903,3.36455,0.81131
426.094,49.17974,-1.04411,3.46759,0.8108
426.694,49.23738,-1.10157,3.56228,0.81029
427.294,49.295,-1.15457,3.64739,0.80978
427.894,49.3525,-1.20784,3.72796,0.80926
428.494,49.41049,-1.25783,3.7975,0.80875
429.094,49.46847,-1.31371,3.87192,0.80824
429.694,49.52602,-1.37015,3.93655,0.80772
430.294,49.58402,-1.435,4.00749,0.80721
430.894,49.64157,-1.49943,4.05599,0.8067
431.494,49.6995,-1.55774,4.09798,0.80619
432.094,49.75744,-1.62018,4.12649,0.80568
432.694,49.81504,-1.683,4.14651,0.80516
433.294,49.87294,-1.74408,4.16583,0.80465
433.894,49.93056,-1.80134,4.16639,0.80414
434.494,49.98831,-1.86153,4.16388,0.80363
435.094,50.04587,-1.92356,4.14593,0.80311
435.694,50.10333,-1.98669,4.127,0.8026
436.294,50.1608,-2.0571,4.09986,0.80209
436.894,50.2181,-2.11623,4.05879,0.80158
437.494,50.27534,-2.18001,4.00296,0.80107
438.094,50.3326,-2.23978,3.94385,0.80056
438.694,50.38995,-2.29845,3.87585,0.80004
439.294,50.44716,-2.3548,3.80062,0.79953
439.894,50.50418,-2.41053,3.71607,0.79902
440.494,50.56134,-2.46714,3.62645,0.79851
441.094,50.61845,-2.52034,3.53497,0.798
441.694,50.6755,-2.57662,3.44119,0.79749
442.294,50.73271,-2.62873,3.34208,0.79698
442.894,50.78967,-2.68199,3.23575,0.79647
443.494,50.84642,-2.73023,3.12887,0.79596
444.094,50.90323,-2.7744,3.02005,0.79545
444.694,50.95985,-2.8205,2.91754,0.79493
445.294,51.0167,-2.86356,2.80597,0.79442
445.894,51.0734,-2.90874,2.69478,0.79391
446.494,51.1301,-2.94904,2.58846,0.7934
447.094,51.18674,-2.98858,2.48028,0.79289
447.694,51.24351,-3.02464,2.3716,0.79238
448.294,51.30035,-3.05567,2.26526,0.79187
448.894,51.35712,-3.09257,2.15858,0.79136
449.494,51.4139,-3.12559,2.05564,0.79085
450.094,51.47007,-3.15966,1.96069,0.79035
450.694,51.52691,-3.19383,1.86163,0.78984
451.294,51.5837,-3.2234,1.76682,0.78933
451.894,51.64078,-3.24825,1.67244,0.78882
452.494,51.69805,-3.27451,1.58217,0.78831
453.094,51.75483,-3.30251,1.49726,0.7878
453.694,51.81156,-3.3192,1.40714,0.78729
454.294,51.8682,-3.33875,1.32788,0.78678
454.894,51.92479,-3.3631,1.2521,0.78627
455.494,51.98153,-3.38559,1.18222,0.78577
456.094,52.03821,-3.40501,1.11721,0.78526
456.694,52.09491,-3.42631,1.0524,0.78475
457.294,52.15186,-3.43954,0.99331,0.78424
457.894,52.2089,-3.45342,0.93612,0.78373
458.494,52.26603,-3.46934,0.88896,0.78323
459.094,52.32309,-3.4861,0.84216,0.78272
459.694,52.38005,-3.50301,0.80201,0.78221
460.294,52.43695,-3.51762,0.75984,0.78171
460.894,52.4941,-3.52823,0.72406,0.7812
461.494,52.551,-3.54089,0.68516,0.78069
462.094,52.6081,-3.55265,0.65502,0.78019
462.694,52.6653,-3.56728,0.62167,0.77968
463.294,52.72246,-3.57888,0.59407,0.77917
463.894,52.77975,-3.5876,0.56827,0.77867
464.494,52.837,-3.60296,0.53997,0.77816
465.094,52.89428,-3.61065,0.51781,0.77766
465.694,52.9513,-3.62012,0.49334,0.77715
466.294,53.00866,-3.62795,0.46904,0.77664
466.894,53.0659,-3.64118,0.4461,0.77614
467.494,53.12365,-3.65852,0.42912,0.77563
468.094,53.1812,-3.65421,0.40428,0.77513
468.694,53.2386,-3.66825,0.38433,0.77463
469.294,53.29617,-3.67723,0.36168,0.77412
469.894,53.35331,-3.68664,0.34326,0.77362
470.494,53.4109,-3.69627,0.32425,0.77311
471.094,53.4684,-3.70229,0.3043,0.77261
471.694,53.52604,-3.7076,0.28249,0.77211
472.294,53.58355,-3.71208,0.26154,0.7716
472.894,53.64091,-3.71991,0.2426,0.7711
473.494,53.6984,-3.72535,0.22818,0.7706
474.094,53.75591,-3.73022,0.20312,0.77009
474.694,53.8136,-3.738,0.18755,0.76959
475.294,53.87118,-3.7438,0.1661,0.76909
475.894,53.92875,-3.74949,0.14637,0.76859
476.494,53.98625,-3.75151,0.1273,0.76808
477.094,54.04385,-3.75685,0.11459,0.76758
477.694,54.10136,-3.76475,0.09462201,0.76708
478.294,54.15888,-3.76937,0.08256917,0.76658
478.894,54.2167,-3.76726,0.06484961,0.76608
479.494,54.27429,-3.76817,0.04864667,0.76558
480.094,54.3318,-3.77142,0.03002939,0.76508
480.694,54.38913,-3.77572,0.01367593,0.76458
481.294,54.4467,-3.77874,-8.040232e-06,0.76407
481.894,54.50425,-3.7814,-0.01494243,0.76357
482.494,54.56214,-3.78385,-0.02805532,0.76307
483.094,54.61991,-3.78431,-0.04934778,0.76258
483.694,54.6777,-3.78523,-0.06269973,0.76208
484.294,54.73575,-3.78912,-0.0692891,0.76158
484.894,54.79354,-3.79148,-0.08149306,0.76108
485.494,54.8515,-3.79475,-0.09352849,0.76058
486.094,54.90934,-3.79294,-0.10379,0.76008
486.694,54.96719,-3.791,-0.11312,0.75958
487.294,55.0251,-3.79119,-0.11797,0.75908
487.894,55.0829,-3.79508,-0.12174,0.75859
488.494,55.1407,-3.795,-0.12598,0.75809
489.094,55.1985,-3.79741,-0.13311,0.75759
489.694,55.25623,-3.79786,-0.13779,0.75709
490.294,55.314,-3.79851,-0.14382,0.7566
490.894,55.37149,-3.79571,-0.14427,0.7561
491.494,55.4292,-3.79701,-0.14936,0.75561
492.094,55.48686,-3.79895,-0.14791,0.75511
492.694,55.5445,-3.80157,-0.15815,0.75461
493.294,55.6024,-3.78333,-0.16378,0.75412
493.894,55.66032,-3.78955,-0.16655,0.75362
494.494,55.71826,-3.78951,-0.16661,0.75313
495.094,55.77627,-3.79044,-0.17018,0.75263
495.694,55.83435,-3.79089,-0.16281,0.75214
496.294,55.89238,-3.79218,-0.16328,0.75164
496.894,55.95055,-3.79218,-0.16844,0.75115
497.494,56.00897,-3.79218,-0.16823,0.75066
498.094,56.06742,-3.79155,-0.17282,0.75016
498.694,56.12588,-3.79087,-0.17758,0.74967
499.294,56.1842,-3.79219,-0.18291,0.74918
499.894,56.24245,-3.79346,-0.18978,0.74868
500.494,56.30086,-3.79269,-0.20507,0.74819
501.094,56.35926,-3.79218,-0.21885,0.7477
501.694,56.41771,-3.79218,-0.23414,0.74721
502.294,56.47614,-3.79215,-0.24534,0.74672
502.894,56.5346,-3.79083,-0.24913,0.74623
503.494,56.5931,-3.7901,-0.25441,0.74573
504.094,56.65141,-3.78946,-0.25575,0.74524
504.694,56.7097,-3.78951,-0.2631,0.74475
505.294,56.76801,-3.78745,-0.26555,0.74426
505.894,56.82626,-3.78991,-0.26767,0.74377
506.494,56.88459,-3.79285,-0.27098,0.74328
507.094,56.9428,-3.79284,-0.26896,0.74279
507.694,57.0012,-3.79284,-0.27097,0.74231
508.294,57.05947,-3.79131,-0.26976,0.74182
508.894,57.11784,-3.7913,-0.27071,0.74133
509.494,57.17621,-3.79268,-0.26563,0.74084
510.094,57.2345,-3.79261,-0.26886,0.74035
510.694,57.29291,-3.79399,-0.26875,0.73987
511.294,57.35125,-3.79705,-0.26436,0.73938
511.894,57.40987,-3.79559,-0.2622,0.73889
512.494,57.46835,-3.79367,-0.25998,0.7384
513.094,57.5268,-3.79084,-0.25733,0.73792
513.694,57.5853,-3.7903,-0.25931,0.73743
514.294,57.64376,-3.79127,-0.25716,0.73695
514.894,57.70239,-3.79449,-0.2552,0.73646
515.494,57.7609,-3.7936,-0.25597,0.73598
516.094,57.81952,-3.79294,-0.25291,0.73549
516.694,57.878,-3.79206,-0.25154,0.73501
517.294,57.93655,-3.79323,-0.25269,0.73452
517.894,57.99505,-3.79317,-0.25295,0.73404
518.494,58.0534,-3.79313,-0.25224,0.73356
519.094,58.1119,-3.79436,-0.24897,0.73307
519.694,58.17043,-3.79293,-0.25185,0.73259
520.294,58.22897,-3.79317,-0.24864,0.73211
520.894,58.2877,-3.79459,-0.24854,0.73163
521.494,58.3463,-3.7957,-0.24807,0.73114
522.094,58.40485,-3.79565,-0.24869,0.73066
522.694,58.4635,-3.79316,-0.25092,0.73018
523.294,58.52188,-3.79139,-0.25932,0.7297
523.894,58.5807,-3.7914,-0.2602,0.72922
524.494,58.6392,-3.79141,-0.26519,0.72874
525.094,58.69785,-3.79141,-0.26273,0.72826
525.694,58.75668,-3.79009,-0.26498,0.72778
526.294,58.81521,-3.79009,-0.26606,0.7273
526.894,58.8739,-3.79247,-0.26361,0.72682
527.494,58.9324,-3.7932,-0.26599,0.72634
528.094,58.99095,-3.79021,-0.26711,0.72587
528.694,59.04976,-3.78762,-0.26695,0.72539
529.294,59.1085,-3.79508,-0.26232,0.72491
529.894,59.1674,-3.79628,-0.26434,0.72443
530.494,59.2261,-3.7917,-0.26427,0.72396
531.094,59.28473,-3.7931,-0.26545,0.72348
531.694,59.34352,-3.79227,-0.26387,0.723
532.294,59.4023,-3.79174,-0.26234,0.72253
532.894,59.461,-3.79176,-0.26387,0.72205
533.494,59.5199,-3.78808,-0.2702,0.72158
534.094,59.57858,-3.7848,-0.26614,0.7211
534.694,59.63745,-3.78924,-0.26952,0.72063
535.294,59.6962,-3.79117,-0.26758,0.72015
535.894,59.755,-3.79251,-0.26835,0.71968
536.494,59.8138,-3.7892,-0.2644,0.71921
537.094,59.87259,-3.79197,-0.26596,0.71873
537.694,59.9313,-3.79427,-0.26522,0.71826
538.294,59.9899,-3.79558,-0.26503,0.71779
538.894,60.0486,-3.79398,-0.27082,0.71732
539.494,60.1074,-3.79277,-0.2686,0.71685
540.094,60.16626,-3.79411,-0.26729,0.71637
540.694,60.22504,-3.79021,-0.27068,0.7159
541.294,60.2837,-3.79136,-0.26917,0.71543
541.894,60.34239,-3.79163,-0.26841,0.71496
542.494,60.40124,-3.79147,-0.2712,0.71449
543.094,60.45994,-3.79188,-0.27277,0.71402
543.694,60.5186,-3.79185,-0.2724,0.71356
544.294,60.57731,-3.79051,-0.27081,0.71309
544.894,60.6358,-3.78892,-0.27055,0.71262
545.494,60.6944,-3.78595,-0.27344,0.71215
546.094,60.75281,-3.78764,-0.27525,0.71168
546.694,60.8114,-3.79183,-0.27774,0.71122
547.294,60.87014,-3.79103,-0.27487,0.71075
547.894,60.92906,-3.7924,-0.27862,0.71028
548.494,60.9878,-3.79184,-0.27725,0.70982
549.094,61.0465,-3.79107,-0.2763,0.70935
549.694,61.1053,-3.7924,-0.27765,0.70889
550.294,61.1639,-3.79239,-0.27706,0.70842
550.894,61.22277,-3.79371,-0.27481,0.70796
551.494,61.2815,-3.79231,-0.28061,0.70749
552.094,61.3402,-3.78783,-0.27789,0.70703
552.694,61.3989,-3.78329,-0.27831,0.70657
553.294,61.4575,-3.78603,-0.27814,0.7061
553.894,61.51627,-3.78649,-0.27962,0.70564
554.494,61.5751,-3.7848,-0.28275,0.70518
555.094,61.6342,-3.78769,-0.28108,0.70472
555.694,61.6929,-3.7912,-0.27617,0.70426
556.294,61.75164,-3.79108,-0.27935,0.7038
556.894,61.81058,-3.79107,-0.27638,0.70334
557.494,61.86956,-3.78842,-0.27928,0.70288
558.094,61.92873,-3.78692,-0.27978,0.70242
558.694,61.98757,-3.78822,-0.27905,0.70196
559.294,62.0466,-3.79113,-0.2775,0.7015
559.894,62.1058,-3.79112,-0.28038,0.70104
560.494,62.16516,-3.78789,-0.2795,0.70058
561.094,62.22441,-3.78501,-0.28229,0.70012
561.694,62.28363,-3.78328,-0.28521,0.69967
562.294,62.3429,-3.78436,-0.27937,0.69921
562.894,62.40209,-3.78809,-0.28135,0.69875
563.494,62.46111,-3.79238,-0.27933,0.6983
564.094,62.52018,-3.79109,-0.27678,0.69784
564.694,62.5792,-3.79208,-0.27952,0.69739
565.294,62.63856,-3.79016,-0.28198,0.69693
565.894,62.6979,-3.78634,-0.28155,0.69648
566.494,62.7571,-3.79112,-0.28098,0.69602
567.094,62.8163,-3.7883,-0.28245,0.69557
567.694,62.87536,-3.78948,-0.28173,0.69512
568.294,62.93461,-3.7894,-0.28384,0.69466
568.894,62.9939,-3.78659,-0.28697,0.69421
569.494,63.05296,-3.78647,-0.28441,0.69376
570.094,63.1121,-3.79065,-0.28382,0.69331
570.694,63.17119,-3.79086,-0.28745,0.69286
571.294,63.2303,-3.78955,-0.28561,0.6924
571.894,63.28966,-3.78799,-0.28582,0.69195
572.494,63.349,-3.78735,-0.28538,0.6915
573.094,63.40821,-3.78735,-0.28359,0.69106
573.694,63.46705,-3.78988,-0.28247,0.69061
574.294,63.5257,-3.7913,-0.28053,0.69016
574.894,63.58461,-3.78812,-0.28656,0.68971
575.494,63.6434,-3.78676,-0.28614,0.68926
576.094,63.7027,-3.78822,-0.28491,0.68881
576.694,63.762,-3.7908,-0.28365,0.68837
577.294,63.8211,-3.78891,-0.28376,0.68792
577.894,63.8805,-3.78672,-0.28469,0.68748
578.494,63.93988,-3.78575,-0.28432,0.68703
579.094,63.9991,-3.7868,-0.28367,0.68658
579.694,64.0587,-3.78339,-0.28087,0.68614
580.294,64.1182,-3.78654,-0.2835,0.6857
580.894,64.1781,-3.78929,-0.28101,0.68525
581.494,64.2377,-3.78911,-0.28097,0.68481
582.094,64.29726,-3.7872,-0.27956,0.68437
582.694,64.35665,-3.785,-0.28233,0.68392
583.294,64.41597,-3.78435,-0.2829,0.68348
583.894,64.47538,-3.78822,-0.28258,0.68304
584.494,64.53464,-3.78671,-0.28053,0.6826
585.094,64.5942,-3.78669,-0.28416,0.68216
585.694,64.6536,-3.78669,-0.28082,0.68172
586.294,64.71306,-3.78535,-0.28348,0.68128
586.894,64.77261,-3.78515,-0.28207,0.68084
587.494,64.83213,-3.78251,-0.28187,0.6804
588.094,64.89171,-3.78252,-0.28528,0.67996
588.694,64.95121,-3.78167,-0.28462,0.67952
589.294,65.01065,-3.7811,-0.28499,0.67908
589.894,65.06992,-3.78188,-0.28612,0.67865
590.494,65.1292,-3.78549,-0.2833,0.67821
591.094,65.18858,-3.79088,-0.27864,0.67777
591.694,65.24803,-3.79413,-0.27967,0.67734
592.294,65.30745,-3.79415,-0.28311,0.6769
592.894,65.36695,-3.79268,-0.27985,0.67647
593.494,65.4265,-3.7913,-0.28159,0.67603
594.094,65.48614,-3.78986,-0.28384,0.6756
594.694,65.54553,-3.78856,-0.2791,0.67516
595.294,65.60508,-3.7876,-0.28418,0.67473
595.894,65.66444,-3.78592,-0.2851,0.6743
596.494,65.72391,-3.7851,-0.28256,0.67387
597.094,65.7835,-3.78462,-0.28517,0.67343
597.694,65.8429,-3.78734,-0.28398,0.673
598.294,65.90263,-3.78403,-0.28535,0.67257
598.894,65.96213,-3.78838,-0.28586,0.67214
599.494,66.02189,-3.78955,-0.28165,0.67171
600.094,66.0817,-3.78467,-0.28426,0.67128
600.694,66.14125,-3.78341,-0.28411,0.67085
601.294,66.20092,-3.78624,-0.29078,0.67042
601.894,66.26029,-3.78624,-0.28752,0.67
602.494,66.31991,-3.7897,-0.28478,0.66957
603.094,66.37975,-3.79067,-0.28444,0.66914
603.694,66.43945,-3.78923,-0.28667,0.66871
604.294,66.49911,-3.78715,-0.28863,0.66829
604.894,66.55859,-3.78624,-0.28685,0.66786
605.494,66.61769,-3.7903,-0.2864,0.66744
606.094,66.67719,-3.78679,-0.28394,0.66701
606.694,66.7366,-3.78691,-0.2846,0.66659
607.294,66.7962,-3.78715,-0.28285,0.66616
607.894,66.85582,-3.78796,-0.28329,0.66574
608.494,66.9154,-3.78808,-0.27993,0.66532
609.094,66.97507,-3.78735,-0.28421,0.66489
609.694,67.03465,-3.78576,-0.28007,0.66447
610.294,67.09437,-3.78491,-0.28082,0.66405
610.894,67.15406,-3.78596,-0.27473,0.66363
611.494,67.21366,-3.7832,-0.27668,0.66321
612.094,67.27319,-3.78585,-0.27229,0.66279
612.694,67.3322,-3.78742,-0.2742,0.66237
613.294,67.39174,-3.78399,-0.26696,0.66195
613.894,67.4511,-3.78297,-0.26837,0.66153
614.494,67.51087,-3.78645,-0.26256,0.66111
615.094,67.57048,-3.78713,-0.26192,0.66069
615.694,67.6301,-3.78249,-0.26621,0.66028
616.294,67.6898,-3.78128,-0.26223,0.65986
616.894,67.74929,-3.78373,-0.26165,0.65944
617.494,67.80856,-3.78832,-0.25848,0.65903
618.094,67.86787,-3.79121,-0.25402,0.65861
618.694,67.92735,-3.78865,-0.25226,0.6582
619.294,67.98702,-3.78674,-0.24905,0.65778
619.894,68.0467,-3.78628,-0.24514,0.65737
620.494,68.1063,-3.79594,-0.24533,0.65695
621.094,68.1657,-3.79936,-0.24395,0.65654
621.694,68.22492,-3.80136,-0.24386,0.65613
622.294,68.28447,-3.80322,-0.24385,0.65571
622.894,68.34442,-3.80083,-0.24228,0.6553
623.494,68.40454,-3.79939,-0.24083,0.65489
624.094,68.4648,-3.79658,-0.24169,0.65448
624.694,68.52475,-3.797,-0.24158,0.65407
625.294,68.58468,-3.80218,-0.23714,0.65366
625.894,68.64455,-3.80136,-0.23938,0.65325
626.494,68.70445,-3.79619,-0.24033,0.65284
627.094,68.7644,-3.79525,-0.23921,0.65243
627.694,68.82437,-3.7968,-0.23942,0.65203
628.294,68.88427,-3.79812,-0.23968,0.65162
628.894,68.94423,-3.79412,-0.23972,0.65121
629.494,69.00442,-3.79716,-0.23795,0.65081
630.094,69.06444,-3.7992,-0.23687,0.6504
630.694,69.12438,-3.79927,-0.23589,0.64999
631.294,69.1844,-3.79852,-0.23713,0.64959
631.894,69.24438,-3.79636,-0.2337,0.64918
632.494,69.3048,-3.79613,-0.23862,0.64878
633.094,69.36497,-3.79429,-0.23293,0.64838
633.694,69.42503,-3.79423,-0.23524,0.64797
634.294,69.485,-3.79586,-0.23636,0.64757
634.894,69.5449,-3.79707,-0.23561,0.64717
635.494,69.60502,-3.79809,-0.23334,0.64677
636.094,69.66486,-3.79885,-0.23545,0.64637
636.694,69.72489,-3.79985,-0.23543,0.64597
637.294,69.78496,-3.79954,-0.23938,0.64557
637.894,69.845,-3.79756,-0.24153,0.64517
638.494,69.90521,-3.79741,-0.24205,0.64477
639.094,69.96522,-3.79853,-0.2412,0.64437
639.394,69.99506,-3.79996,-0.24304,0.64417