File: 01_Data/HIPS/STA/N2/3K_min/HIPS_STA_N2_3KData_211021_R1.csv
##Temp./Â°C,Time/min,Mass loss(subtr.2)/mg,DSC(subtr.2)/(mW/mg),Sensit./(uV/mW)
50.218,10.0158,-0.00921,0.00193075,0.99786
50.818,12.1898,-0.009682841,0.0229203,0.99832
51.418,12.85149,-0.009425565,0.03340522,0.99878
52.018,13.36827,-0.00966732,0.04196985,0.99923
52.618,13.81259,-0.01159891,0.04383633,0.99969
53.218,14.2185,-0.01190339,0.04916925,1.00013
53.818,14.59358,-0.01095677,0.05198184,1.00058
54.418,14.9441,-0.009901415,0.05550157,1.00102
55.018,15.2774,-0.009598259,0.05912875,1.00145
55.618,15.59714,-0.01104744,0.06194532,1.00188
56.218,15.9031,-0.009807266,0.06463164,1.00231
56.818,16.1972,-0.01085909,0.06364667,1.00273
57.418,16.4836,-0.01095909,0.06721766,1.00315
58.018,16.7611,-0.01055412,0.06851159,1.00357
58.618,17.03195,-0.01097676,0.07140205,1.00398
59.218,17.29712,-0.01097,0.07180296,1.00439
59.818,17.5581,-0.0105736,0.07357471,1.0048
60.418,17.8128,-0.011592,0.0752058,1.0052
61.018,18.06287,-0.01236146,0.07662674,1.00559
61.618,18.30884,-0.01095991,0.07807471,1.00599
62.218,18.5522,-0.01259095,0.07870906,1.00638
62.818,18.793,-0.01192151,0.08157841,1.00676
63.418,19.03075,-0.0132844,0.08392011,1.00714
64.018,19.2663,-0.0136,0.08640698,1.00752
64.618,19.49919,-0.01360981,0.0858256,1.00789
65.218,19.72968,-0.01347935,0.08831068,1.00826
65.818,19.95747,-0.01362225,0.08980704,1.00863
66.418,20.18354,-0.01289287,0.09087239,1.00899
67.018,20.40861,-0.01492075,0.09127326,1.00935
67.618,20.6323,-0.01359964,0.09044127,1.0097
68.218,20.85441,-0.01556395,0.08839978,1.01005
68.818,21.07516,-0.01383142,0.09231479,1.0104
69.418,21.29459,-0.01599187,0.09220425,1.01074
70.018,21.51289,-0.01595663,0.09295367,1.01108
70.618,21.73033,-0.01328001,0.09422691,1.01142
71.218,21.9468,-0.0132705,0.09406047,1.01175
71.818,22.16236,-0.01459029,0.09340933,1.01208
72.418,22.37752,-0.0133085,0.09558346,1.0124
73.018,22.5915,-0.01464715,0.09730875,1.01272
73.618,22.80517,-0.01456339,0.0967051,1.01304
74.218,23.0176,-0.0145935,0.09509697,1.01335
74.818,23.22965,-0.01322365,0.09596072,1.01366
75.418,23.44056,-0.0145756,0.09534825,1.01397
76.018,23.65116,-0.01395417,0.09595047,1.01427
76.618,23.86119,-0.0146774,0.09398069,1.01457
77.218,24.0708,-0.01459982,0.09579113,1.01486
77.818,24.27983,-0.01331642,0.09299842,1.01515
78.418,24.4876,-0.008485549,0.09445511,1.01544
79.018,24.69535,-0.01204606,0.09462682,1.01572
79.618,24.9035,-0.01210601,0.09634814,1.016
80.218,25.11044,-0.01310959,0.09397873,1.01627
80.818,25.31779,-0.01314442,0.09761104,1.01655
81.418,25.5238,-0.01317523,0.0949897,1.01681
82.018,25.7299,-0.01348424,0.09878091,1.01708
82.618,25.93477,-0.01196035,0.09981504,1.01734
83.218,26.13895,-0.0140867,0.09849282,1.01759
83.818,26.3433,-0.01382757,0.09990684,1.01785
84.418,26.5472,-0.01418054,0.10004,1.0181
85.018,26.7507,-0.01427514,0.10239,1.01834
85.618,26.95409,-0.01226096,0.10171,1.01858
86.218,27.15682,-0.01265448,0.10229,1.01882
86.818,27.3592,-0.0139786,0.10181,1.01906
87.418,27.56128,-0.01444839,0.10185,1.01929
88.018,27.76335,-0.01437,0.10278,1.01951
88.618,27.9655,-0.01436533,0.10284,1.01974
89.218,28.1669,-0.01369418,0.10623,1.01996
89.818,28.3682,-0.01635751,0.10647,1.02017
90.418,28.56917,-0.01699948,0.10825,1.02039
91.018,28.76929,-0.01569162,0.10676,1.0206
91.618,28.9689,-0.01601792,0.10935,1.0208
92.218,29.16762,-0.01603799,0.10857,1.021
92.818,29.36689,-0.01569126,0.11141,1.0212
93.418,29.56625,-0.01635606,0.11235,1.02139
94.018,29.7654,-0.01733,0.11428,1.02158
94.618,29.9653,-0.01697434,0.11538,1.02177
95.218,30.16378,-0.01705527,0.11478,1.02196
95.818,30.361,-0.01686858,0.11512,1.02214
96.418,30.5583,-0.01568905,0.11727,1.02231
97.018,30.7558,-0.01465485,0.11843,1.02248
97.618,30.9534,-0.01732,0.1206,1.02265
98.218,31.15121,-0.01469406,0.12199,1.02282
98.818,31.3479,-0.01601619,0.12242,1.02298
99.418,31.54402,-0.01483652,0.12228,1.02314
100.018,31.7397,-0.01610787,0.1256,1.02329
100.618,31.9359,-0.01503573,0.12587,1.02344
101.218,32.13192,-0.01503806,0.12458,1.02359
101.818,32.32806,-0.01219281,0.12491,1.02374
102.418,32.52454,-0.01502992,0.12854,1.02388
103.018,32.7206,-0.01495414,0.1273,1.02401
103.618,32.91633,-0.01237935,0.12722,1.02415
104.218,33.11207,-0.01337992,0.12981,1.02428
104.818,33.30737,-0.01277574,0.12787,1.0244
105.418,33.50288,-0.01269538,0.12949,1.02453
106.018,33.6983,-0.01269349,0.12867,1.02465
106.618,33.89389,-0.01207004,0.129,1.02476
107.218,34.08914,-0.01483975,0.13121,1.02487
107.818,34.2848,-0.01339012,0.13074,1.02498
108.418,34.47995,-0.01340105,0.13095,1.02509
109.018,34.67484,-0.01338241,0.13204,1.02519
109.618,34.86978,-0.01336607,0.13368,1.02529
110.218,35.0648,-0.01338,0.1349,1.02538
110.818,35.26007,-0.01322531,0.13359,1.02547
111.418,35.45438,-0.01372367,0.13512,1.02556
112.018,35.6489,-0.01501741,0.13579,1.02565
112.618,35.8429,-0.01513709,0.13266,1.02573
113.218,36.03779,-0.01403987,0.13478,1.0258
113.818,36.23279,-0.0153607,0.13498,1.02588
114.418,36.4276,-0.01667407,0.13521,1.02595
115.018,36.6224,-0.01564302,0.13617,1.02602
115.618,36.8168,-0.01569752,0.13317,1.02608
116.218,37.01182,-0.01567792,0.1349,1.02614
116.818,37.20671,-0.01515258,0.13626,1.0262
117.418,37.4016,-0.01518209,0.13532,1.02625
118.018,37.5963,-0.01449328,0.13632,1.0263
118.618,37.79083,-0.01415286,0.1385,1.02635
119.218,37.98532,-0.01382041,0.13737,1.02639
119.818,38.17947,-0.0134361,0.1373,1.02643
120.418,38.37381,-0.01399335,0.13619,1.02647
121.018,38.5668,-0.01381814,0.13817,1.0265
121.618,38.76081,-0.01291607,0.13618,1.02653
122.218,38.9551,-0.01448975,0.13866,1.02656
122.818,39.14959,-0.0141614,0.13757,1.02658
123.418,39.34495,-0.01335896,0.13925,1.0266
124.018,39.53885,-0.01424113,0.1385,1.02662
124.618,39.73259,-0.01415495,0.1417,1.02663
125.218,39.92645,-0.0148898,0.14032,1.02664
125.818,40.11993,-0.01611829,0.13942,1.02664
126.418,40.31382,-0.01746544,0.14331,1.02665
127.018,40.5073,-0.01500909,0.14206,1.02665
127.618,40.70062,-0.01644996,0.14136,1.02664
128.218,40.89418,-0.01750088,0.14192,1.02664
128.818,41.0877,-0.01779152,0.14476,1.02663
129.418,41.28165,-0.01780345,0.14481,1.02661
130.018,41.475,-0.01647883,0.14563,1.0266
130.618,41.66786,-0.01777962,0.14525,1.02658
131.218,41.8611,-0.01715006,0.14542,1.02655
131.818,42.05376,-0.0168687,0.14636,1.02652
132.418,42.2471,-0.01744179,0.14716,1.0265
133.018,42.44032,-0.01874982,0.14416,1.02646
133.618,42.63313,-0.01841989,0.14616,1.02643
134.218,42.82613,-0.0156824,0.14703,1.02639
134.818,43.01878,-0.01578983,0.14575,1.02634
135.418,43.21158,-0.0181046,0.14702,1.0263
136.018,43.40464,-0.01711,0.14828,1.02625
136.618,43.59714,-0.01580313,0.1509,1.02619
137.218,43.79009,-0.01712004,0.15053,1.02614
137.818,43.9829,-0.01710602,0.15169,1.02608
138.418,44.1755,-0.01580002,0.14777,1.02602
139.018,44.36759,-0.01536412,0.15026,1.02595
139.618,44.55943,-0.01678041,0.14994,1.02588
140.218,44.75144,-0.0173261,0.14869,1.02581
140.818,44.94311,-0.01809863,0.14975,1.02574
141.418,45.13493,-0.01678897,0.1522,1.02566
142.018,45.327,-0.01679057,0.15104,1.02558
142.618,45.51845,-0.01678546,0.14974,1.02549
143.218,45.71012,-0.01847778,0.15112,1.0254
143.818,45.90195,-0.01865793,0.15217,1.02531
144.418,46.09312,-0.01940626,0.15224,1.02522
145.018,46.28498,-0.01809943,0.15281,1.02512
145.618,46.4753,-0.01971891,0.1538,1.02502
146.218,46.66689,-0.01907967,0.15365,1.02492
146.818,46.85841,-0.01887631,0.15333,1.02481
147.418,47.04943,-0.01962998,0.154,1.0247
148.018,47.24102,-0.01962993,0.15473,1.02459
148.618,47.43162,-0.01773406,0.15447,1.02447
149.218,47.62209,-0.01856306,0.15559,1.02435
149.818,47.81324,-0.018863,0.15708,1.02423
150.418,48.00435,-0.0199322,0.15754,1.02411
151.018,48.19595,-0.02007253,0.15467,1.02398
151.618,48.38758,-0.01876071,0.15712,1.02385
152.218,48.57829,-0.02032796,0.15794,1.02371
152.818,48.76812,-0.02109665,0.15774,1.02358
153.418,48.95789,-0.01971706,0.16072,1.02344
154.018,49.1478,-0.01975113,0.15993,1.02329
154.618,49.33829,-0.0209737,0.15731,1.02315
155.218,49.52918,-0.01974994,0.15853,1.023
155.818,49.71952,-0.01842978,0.15894,1.02284
156.418,49.90956,-0.01966802,0.15931,1.02269
157.018,50.09892,-0.01995659,0.16071,1.02253
157.618,50.28816,-0.01964754,0.1594,1.02237
158.218,50.47811,-0.02444834,0.1622,1.0222
158.818,50.6685,-0.01898064,0.15963,1.02204
159.418,50.8593,-0.02128041,0.15967,1.02187
160.018,51.04937,-0.02128,0.15991,1.02169
160.618,51.23976,-0.02339611,0.16144,1.02152
161.218,51.43009,-0.0208193,0.16149,1.02134
161.818,51.62076,-0.01966551,0.1626,1.02116
162.418,51.81066,-0.02095,0.16265,1.02097
163.018,52.00079,-0.02129713,0.16579,1.02078
163.618,52.19082,-0.02042938,0.16333,1.02059
164.218,52.38071,-0.01952429,0.16534,1.0204
164.818,52.57128,-0.02084698,0.1643,1.0202
165.418,52.76109,-0.01975977,0.1652,1.02
166.018,52.95154,-0.02116974,0.16269,1.0198
166.618,53.14161,-0.02120579,0.16191,1.01959
167.218,53.33174,-0.02314171,0.16137,1.01938
167.818,53.52186,-0.02181239,0.16521,1.01917
168.418,53.71173,-0.0224833,0.16594,1.01896
169.018,53.90181,-0.01985718,0.16354,1.01874
169.618,54.09105,-0.02113503,0.16543,1.01852
170.218,54.2817,-0.02017987,0.16526,1.0183
170.818,54.47181,-0.0228213,0.1644,1.01807
171.418,54.6617,-0.0207887,0.16449,1.01784
172.018,54.8529,-0.02293532,0.16607,1.01761
172.618,55.0427,-0.02908681,0.16977,1.01738
173.218,55.23305,-0.02150707,0.17005,1.01714
173.818,55.4232,-0.02281252,0.16886,1.0169
174.418,55.61402,-0.02405756,0.17067,1.01666
175.018,55.80489,-0.02412989,0.16742,1.01641
175.618,55.9959,-0.02287544,0.16829,1.01617
176.218,56.18724,-0.01567942,0.16917,1.01592
176.818,56.37822,-0.02282091,0.16862,1.01566
177.418,56.5693,-0.02011974,0.17104,1.01541
178.018,56.75934,-0.02153837,0.17147,1.01515
178.618,56.94967,-0.02185367,0.17104,1.01488
179.218,57.1401,-0.02134434,0.16873,1.01462
179.818,57.3303,-0.02215998,0.16986,1.01435
180.418,57.52077,-0.02346745,0.1703,1.01408
181.018,57.7113,-0.02286739,0.17037,1.01381
181.618,57.902,-0.02791463,0.17203,1.01353
182.218,58.09305,-0.0239104,0.1719,1.01326
182.818,58.28374,-0.02512291,0.16996,1.01297
183.418,58.47432,-0.02380018,0.17403,1.01269
184.018,58.66386,-0.02379417,0.17268,1.0124
184.618,58.85414,-0.02512,0.17405,1.01212
185.218,59.0444,-0.02620624,0.17185,1.01182
185.818,59.2351,-0.02391505,0.17437,1.01153
186.418,59.42559,-0.02412973,0.17592,1.01123
187.018,59.61569,-0.02446374,0.17439,1.01093
187.618,59.80531,-0.02491647,0.17507,1.01063
188.218,59.9951,-0.02503017,0.17357,1.01033
188.818,60.18472,-0.02578433,0.17633,1.01002
189.418,60.37429,-0.02513734,0.17607,1.00971
190.018,60.5639,-0.02511188,0.17383,1.00939
190.618,60.7535,-0.023809,0.17502,1.00908
191.218,60.9422,-0.02641601,0.17419,1.00876
191.818,61.13168,-0.02774757,0.17464,1.00844
192.418,61.32063,-0.02672259,0.17411,1.00812
193.018,61.5093,-0.02675875,0.17474,1.00779
193.618,61.69823,-0.02680892,0.1774,1.00746
194.218,61.88736,-0.02776359,0.17676,1.00713
194.818,62.07629,-0.02644013,0.17651,1.0068
195.418,62.26526,-0.02676395,0.17766,1.00646
196.018,62.4544,-0.02677,0.17648,1.00612
196.618,62.64416,-0.02644587,0.17612,1.00578
197.218,62.83336,-0.02774999,0.17667,1.00544
197.818,63.02244,-0.02643088,0.17605,1.00509
198.418,63.21139,-0.02742002,0.17812,1.00474
199.018,63.40079,-0.02873328,0.18018,1.00439
199.618,63.5904,-0.02777027,0.17952,1.00404
200.218,63.78015,-0.03052465,0.17788,1.00368
200.818,63.9694,-0.03218784,0.17573,1.00333
201.418,64.15835,-0.0310402,0.17971,1.00296
202.018,64.34756,-0.03169994,0.18011,1.0026
202.618,64.53705,-0.03167737,0.17976,1.00223
203.218,64.72666,-0.03302058,0.1805,1.00187
203.818,64.9169,-0.03169968,0.18029,1.0015
204.418,65.10669,-0.03039013,0.18289,1.00112
205.018,65.2962,-0.03111467,0.17926,1.00075
205.618,65.48599,-0.03238952,0.18282,1.00037
206.218,65.67578,-0.03305221,0.18109,0.99999
206.818,65.8661,-0.03301,0.1804,0.9996
207.418,66.05705,-0.03437923,0.17993,0.99922
208.018,66.2461,-0.03471116,0.18355,0.99883
208.618,66.43633,-0.03368,0.18428,0.99844
209.218,66.6263,-0.03453255,0.18546,0.99805
209.818,66.81703,-0.03473042,0.18443,0.99765
210.418,67.0071,-0.03512903,0.18641,0.99726
211.018,67.1966,-0.03443557,0.18784,0.99686
211.618,67.38556,-0.03533021,0.18895,0.99646
212.218,67.5757,-0.03679021,0.18965,0.99605
212.818,67.76553,-0.03400965,0.18614,0.99564
213.418,67.95509,-0.03562969,0.18639,0.99524
214.018,68.1451,-0.03795821,0.18901,0.99482
214.618,68.33377,-0.0366389,0.18906,0.99441
215.218,68.52325,-0.04327009,0.1883,0.994
215.818,68.71261,-0.03628374,0.19072,0.99358
216.418,68.90223,-0.03862784,0.19036,0.99316
217.018,69.09232,-0.03735565,0.19212,0.99273
217.618,69.28217,-0.03927002,0.19084,0.99231
218.218,69.4718,-0.03929914,0.19098,0.99188
218.818,69.66152,-0.03796003,0.19109,0.99145
219.418,69.8514,-0.03927004,0.19249,0.99102
220.018,70.04159,-0.03795261,0.19433,0.99059
220.618,70.2319,-0.03927,0.19271,0.99015
221.218,70.42275,-0.03927,0.19047,0.98971
221.818,70.61328,-0.04056909,0.19071,0.98927
222.418,70.80315,-0.04002545,0.19066,0.98883
223.018,70.99285,-0.04068697,0.19291,0.98838
223.618,71.18235,-0.04123988,0.19386,0.98794
224.218,71.3721,-0.03687707,0.19395,0.98749
224.818,71.56148,-0.04377058,0.19386,0.98704
225.418,71.7508,-0.04113989,0.19508,0.98658
226.018,71.94006,-0.04375999,0.19485,0.98613
226.618,72.12891,-0.04146617,0.19603,0.98567
227.218,72.31876,-0.0454151,0.19723,0.98521
227.818,72.50824,-0.04631656,0.19961,0.98475
228.418,72.69816,-0.04573715,0.20173,0.98428
229.018,72.8884,-0.04547602,0.20097,0.98382
229.618,73.07876,-0.04773607,0.20198,0.98335
230.218,73.2693,-0.04432524,0.19886,0.98288
230.818,73.459,-0.0467505,0.20045,0.98241
231.418,73.64921,-0.04760842,0.20386,0.98193
232.018,73.83964,-0.04760819,0.20218,0.98145
232.618,74.02986,-0.04760905,0.20377,0.98097
233.218,74.21967,-0.048746,0.2034,0.98049
233.818,74.40938,-0.04986912,0.20431,0.98001
234.418,74.5993,-0.04892642,0.20555,0.97953
235.018,74.78967,-0.05157183,0.20438,0.97904
235.618,74.97975,-0.05107309,0.20239,0.97855
236.218,75.16943,-0.05065808,0.20544,0.97806
236.818,75.35933,-0.05102607,0.20615,0.97756
237.418,75.54885,-0.05166134,0.2078,0.97707
238.018,75.7393,-0.05166,0.20869,0.97657
238.618,75.92966,-0.05299824,0.20762,0.97607
239.218,76.11995,-0.05428919,0.20676,0.97557
239.818,76.31051,-0.05353565,0.21218,0.97507
240.418,76.50038,-0.05762878,0.20909,0.97456
241.018,76.69049,-0.0554352,0.20789,0.97406
241.618,76.87977,-0.05494759,0.21049,0.97355
242.218,77.0689,-0.05613397,0.2082,0.97304
242.818,77.25887,-0.05659215,0.21003,0.97252
243.418,77.44843,-0.05724989,0.20952,0.97201
244.018,77.63763,-0.05913544,0.20767,0.97149
244.618,77.82677,-0.05700078,0.2068,0.97097
245.218,78.0155,-0.05627216,0.20848,0.97045
245.818,78.20476,-0.05758728,0.20716,0.96993
246.418,78.39431,-0.05827897,0.20942,0.96941
247.018,78.5841,-0.06022331,0.21137,0.96888
247.618,78.77409,-0.06086822,0.21119,0.96835
248.218,78.96441,-0.06055003,0.21021,0.96782
248.818,79.1544,-0.06188547,0.21254,0.96729
249.418,79.34455,-0.06231958,0.21363,0.96676
250.018,79.53465,-0.06230763,0.21332,0.96622
250.618,79.72503,-0.06231014,0.21242,0.96568
251.218,79.9162,-0.06264061,0.21281,0.96515
251.818,80.10772,-0.06596074,0.20989,0.9646
252.418,80.2987,-0.06461065,0.21297,0.96406
253.018,80.48947,-0.06559035,0.21279,0.96352
253.618,80.68046,-0.0678974,0.21303,0.96297
254.218,80.8712,-0.065111,0.21168,0.96242
254.818,81.062,-0.06796551,0.21309,0.96187
255.418,81.2525,-0.07133665,0.2146,0.96132
256.018,81.4427,-0.07051617,0.21574,0.96077
256.618,81.63288,-0.07053002,0.21471,0.96021
257.218,81.82319,-0.06920929,0.2144,0.95966
257.818,82.01337,-0.07056757,0.21716,0.9591
258.418,82.20406,-0.07242595,0.21422,0.95854
259.018,82.39464,-0.07327,0.21295,0.95798
259.618,82.5853,-0.07276903,0.21474,0.95741
260.218,82.77634,-0.07195858,0.21782,0.95685
260.818,82.96689,-0.07326947,0.21514,0.95628
261.418,83.15773,-0.07457952,0.21447,0.95571
262.018,83.34873,-0.07589342,0.2144,0.95514
262.618,83.53911,-0.07589658,0.21284,0.95457
263.218,83.7299,-0.07557597,0.2161,0.95399
263.818,83.92056,-0.07688806,0.21433,0.95342
264.418,84.11081,-0.07821518,0.21366,0.95284
265.018,84.3014,-0.07689948,0.21212,0.95226
265.618,84.49229,-0.07821001,0.21532,0.95168
266.218,84.6828,-0.07886892,0.21577,0.9511
266.818,84.87275,-0.08247627,0.21683,0.95052
267.418,85.06245,-0.08160969,0.21668,0.94993
268.018,85.2514,-0.08094567,0.2132,0.94934
268.618,85.44032,-0.08279467,0.21396,0.94876
269.218,85.6302,-0.08542962,0.21387,0.94817
269.818,85.81968,-0.08264222,0.21037,0.94758
270.418,86.0094,-0.08447591,0.21178,0.94698
271.018,86.19882,-0.08413003,0.21172,0.94639
271.618,86.3879,-0.08543162,0.21311,0.94579
272.218,86.57749,-0.08805092,0.20979,0.94519
272.818,86.76781,-0.08577817,0.21313,0.94459
273.418,86.95741,-0.08588225,0.2111,0.94399
274.018,87.1477,-0.08843186,0.21136,0.94339
274.618,87.3376,-0.08971987,0.21169,0.94279
275.218,87.52785,-0.08972,0.2119,0.94218
275.818,87.71836,-0.08972,0.2127,0.94158
276.418,87.90867,-0.08972,0.21181,0.94097
277.018,88.0992,-0.08971998,0.21246,0.94036
277.618,88.28973,-0.09106521,0.21228,0.93975
278.218,88.48062,-0.09366017,0.21269,0.93913
278.818,88.67156,-0.09235962,0.21198,0.93852
279.418,88.8629,-0.09630437,0.20991,0.9379
280.018,89.0539,-0.09501672,0.21214,0.93729
280.618,89.24515,-0.09759602,0.21073,0.93667
281.218,89.4364,-0.09797365,0.21084,0.93605
281.818,89.62778,-0.09927006,0.21233,0.93543
282.418,89.81928,-0.10103,0.21381,0.93481
283.018,90.0114,-0.1009,0.21267,0.93418
283.618,90.20384,-0.09830112,0.21166,0.93356
284.218,90.39582,-0.10154,0.20918,0.93293
284.818,90.58836,-0.10091,0.21065,0.9323
285.418,90.78098,-0.09960723,0.21002,0.93167
286.018,90.9735,-0.10369,0.21246,0.93104
286.618,91.16513,-0.10482,0.21146,0.93041
287.218,91.3562,-0.10449,0.2127,0.92977
287.818,91.5475,-0.10318,0.21259,0.92914
288.418,91.73881,-0.10226,0.21134,0.9285
289.018,91.92931,-0.10355,0.2149,0.92787
289.618,92.1207,-0.10501,0.21226,0.92723
290.218,92.31193,-0.1076,0.21216,0.92659
290.818,92.50369,-0.11024,0.21473,0.92595
291.418,92.69628,-0.10892,0.21355,0.9253
292.018,92.88807,-0.11002,0.21321,0.92466
292.618,93.07915,-0.11023,0.2106,0.92401
293.218,93.27072,-0.11122,0.21179,0.92337
293.818,93.4616,-0.11254,0.21309,0.92272
294.418,93.65249,-0.11271,0.21304,0.92207
295.018,93.84274,-0.11254,0.21213,0.92142
295.618,94.03314,-0.11386,0.21381,0.92077
296.218,94.2234,-0.11386,0.21463,0.92012
296.818,94.41458,-0.11649,0.21428,0.91946
297.418,94.6066,-0.11714,0.21202,0.91881
298.018,94.7989,-0.11648,0.21405,0.91815
298.618,94.99069,-0.11781,0.2122,0.91749
299.218,95.18295,-0.11911,0.21265,0.91684
299.818,95.37432,-0.11946,0.212,0.91618
300.418,95.56569,-0.12077,0.21233,0.91552
301.018,95.75752,-0.12077,0.21316,0.91485
301.618,95.94893,-0.12207,0.21033,0.91419
302.218,96.14075,-0.12275,0.2095,0.91353
302.818,96.33247,-0.12274,0.20852,0.91286
303.418,96.5238,-0.12056,0.20805,0.91219
304.018,96.7158,-0.12307,0.21115,0.91153
304.618,96.90725,-0.12306,0.21039,0.91086
305.218,97.0981,-0.12669,0.20964,0.91019
305.818,97.28914,-0.12668,0.21391,0.90952
306.418,97.48026,-0.12669,0.21116,0.90885
307.018,97.67194,-0.12896,0.21213,0.90817
307.618,97.86345,-0.12823,0.20854,0.9075
308.218,98.05553,-0.12832,0.21231,0.90682
308.818,98.248,-0.12888,0.21335,0.90615
309.418,98.44059,-0.12905,0.21233,0.90547
310.018,98.63265,-0.13064,0.21292,0.90479
310.618,98.82451,-0.13065,0.21224,0.90411
311.218,99.01618,-0.13097,0.2139,0.90343
311.818,99.20812,-0.1319,0.21184,0.90275
312.418,99.40018,-0.13349,0.2132,0.90207
313.018,99.5921,-0.13349,0.21284,0.90138
313.618,99.78395,-0.1348,0.21096,0.9007
314.218,99.97545,-0.13489,0.21204,0.90002
314.818,100.167,-0.1355,0.21105,0.89933
315.418,100.3591,-0.13575,0.21202,0.89864
316.018,100.551,-0.13722,0.21082,0.89795
316.618,100.743,-0.13722,0.21106,0.89726
317.218,100.9355,-0.13733,0.21187,0.89657
317.818,101.1275,-0.13854,0.21119,0.89588
318.418,101.32,-0.1389,0.2124,0.89519
319.018,101.512,-0.13985,0.21163,0.8945
319.618,101.704,-0.13951,0.21389,0.89381
320.218,101.895,-0.14186,0.21561,0.89311
320.818,102.087,-0.14018,0.21556,0.89241
321.418,102.278,-0.1428,0.21616,0.89172
322.018,102.471,-0.14308,0.21404,0.89102
322.618,102.662,-0.14578,0.21302,0.89032
323.218,102.855,-0.14577,0.21209,0.88962
323.818,103.048,-0.14582,0.21337,0.88892
324.418,103.241,-0.14548,0.21061,0.88822
325.018,103.433,-0.14715,0.21079,0.88752
325.618,103.625,-0.14807,0.21298,0.88682
326.218,103.817,-0.15038,0.21325,0.88612
326.818,104.0102,-0.14904,0.21474,0.88541
327.418,104.203,-0.15145,0.21362,0.88471
328.018,104.395,-0.15005,0.21344,0.884
328.618,104.587,-0.14998,0.21529,0.8833
329.218,104.779,-0.15334,0.21454,0.88259
329.818,104.972,-0.15335,0.21334,0.88188
330.418,105.164,-0.15108,0.21098,0.88117
331.018,105.357,-0.15382,0.21097,0.88046
331.618,105.55,-0.15639,0.21262,0.87975
332.218,105.743,-0.15413,0.21253,0.87904
332.818,105.936,-0.15642,0.21172,0.87833
333.418,106.128,-0.15675,0.21158,0.87762
334.018,106.32,-0.15675,0.21127,0.87691
334.618,106.512,-0.15806,0.21033,0.87619
335.218,106.703,-0.15926,0.21032,0.87548
335.818,106.896,-0.15868,0.20886,0.87476
336.418,107.0888,-0.16142,0.21215,0.87405
337.018,107.281,-0.16174,0.21123,0.87333
337.618,107.474,-0.16311,0.21315,0.87261
338.218,107.667,-0.16441,0.20621,0.8719
338.818,107.859,-0.16449,0.21018,0.87118
339.418,108.0527,-0.16804,0.21146,0.87046
340.018,108.246,-0.16585,0.21056,0.86974
340.618,108.44,-0.16471,0.2113,0.86902
341.218,108.633,-0.16673,0.21025,0.8683
341.818,108.826,-0.16931,0.21154,0.86758
342.418,109.02,-0.1683,0.21267,0.86685
343.018,109.213,-0.17068,0.21012,0.86613
343.618,109.4071,-0.17042,0.21121,0.86541
344.218,109.6015,-0.17199,0.20875,0.86468
344.818,109.795,-0.17221,0.21124,0.86396
345.418,109.988,-0.1733,0.21015,0.86323
346.018,110.181,-0.17559,0.20901,0.86251
346.618,110.374,-0.17532,0.21133,0.86178
347.218,110.568,-0.17659,0.21261,0.86106
347.818,110.762,-0.1779,0.21242,0.86033
348.418,110.955,-0.18055,0.21387,0.8596
349.018,111.148,-0.17707,0.21018,0.85887
349.618,111.341,-0.18204,0.21493,0.85814
350.218,111.533,-0.18088,0.21574,0.85741
350.818,111.726,-0.1811,0.21757,0.85668
351.418,111.9186,-0.18653,0.21388,0.85595
352.018,112.112,-0.18442,0.21601,0.85522
352.618,112.305,-0.18737,0.21919,0.85449
353.218,112.499,-0.18669,0.21656,0.85376
353.818,112.692,-0.18866,0.2155,0.85303
354.418,112.886,-0.18802,0.21804,0.85229
355.018,113.0783,-0.19213,0.2205,0.85156
355.618,113.271,-0.19196,0.21969,0.85083
356.218,113.463,-0.1925,0.21963,0.85009
356.818,113.655,-0.19327,0.22129,0.84936
357.418,113.847,-0.19459,0.22143,0.84862
358.018,114.039,-0.19665,0.22109,0.84789
358.618,114.233,-0.19853,0.22425,0.84715
359.218,114.426,-0.19984,0.2269,0.84642
359.818,114.62,-0.20116,0.2277,0.84568
360.418,114.814,-0.20355,0.23421,0.84494
361.018,115.008,-0.20371,0.23447,0.84421
361.618,115.203,-0.20594,0.23904,0.84347
362.218,115.398,-0.20775,0.23612,0.84273
362.818,115.594,-0.20984,0.23896,0.84199
363.418,115.789,-0.20828,0.24168,0.84125
364.018,115.984,-0.21385,0.24317,0.84052
364.618,116.18,-0.21663,0.24775,0.83978
365.218,116.374,-0.21765,0.24758,0.83904
365.818,116.569,-0.21709,0.24973,0.8383
366.418,116.764,-0.21948,0.25202,0.83756
367.018,116.9587,-0.22192,0.25382,0.83682
367.618,117.1538,-0.22342,0.25747,0.83607
368.218,117.348,-0.22733,0.26122,0.83533
368.818,117.544,-0.22963,0.26486,0.83459
369.418,117.739,-0.23153,0.27074,0.83385
370.018,117.935,-0.23397,0.27483,0.83311
370.618,118.131,-0.23582,0.27893,0.83237
371.218,118.328,-0.24009,0.28211,0.83162
371.818,118.527,-0.24109,0.28335,0.83088
372.418,118.727,-0.24457,0.28883,0.83014
373.018,118.927,-0.24608,0.29214,0.8294
373.618,119.125,-0.24932,0.29878,0.82865
374.218,119.322,-0.25188,0.30522,0.82791
374.818,119.519,-0.25722,0.3109,0.82717
375.418,119.715,-0.26113,0.31425,0.82642
376.018,119.911,-0.26386,0.31817,0.82568
376.618,120.1078,-0.26824,0.32466,0.82493
377.218,120.304,-0.27278,0.32987,0.82419
377.818,120.5,-0.27663,0.33535,0.82344
378.418,120.696,-0.28195,0.34317,0.8227
379.018,120.891,-0.285,0.35091,0.82195
379.618,121.085,-0.29148,0.35373,0.82121
380.218,121.28,-0.29645,0.35977,0.82046
380.818,121.476,-0.301,0.37195,0.81972
381.418,121.671,-0.30686,0.38082,0.81897
382.018,121.867,-0.31476,0.38908,0.81823
382.618,122.063,-0.31878,0.39785,0.81748
383.218,122.258,-0.32627,0.40493,0.81674
383.818,122.453,-0.33339,0.41528,0.81599
384.418,122.648,-0.34018,0.42436,0.81524
385.018,122.842,-0.34511,0.43471,0.8145
385.618,123.036,-0.3568,0.44825,0.81375
386.218,123.23,-0.36375,0.45551,0.81301
386.818,123.425,-0.37447,0.47073,0.81226
387.418,123.62,-0.38428,0.48327,0.81151
388.018,123.815,-0.39661,0.49501,0.81077
388.618,124.012,-0.40477,0.50886,0.81002
389.218,124.21,-0.4187,0.52808,0.80927
389.818,124.4084,-0.42885,0.54283,0.80853
390.418,124.607,-0.4433,0.55926,0.80778
391.018,124.805,-0.45884,0.5818,0.80703
391.618,125.002,-0.47368,0.60476,0.80629
392.218,125.2,-0.49008,0.62489,0.80554
392.818,125.397,-0.50247,0.64613,0.80479
393.418,125.593,-0.51997,0.66838,0.80405
394.018,125.788,-0.53917,0.69741,0.8033
394.618,125.982,-0.55849,0.7214,0.80255
395.218,126.179,-0.58082,0.74202,0.80181
395.818,126.378,-0.60246,0.76861,0.80106
396.418,126.581,-0.62709,0.79915,0.80032
397.018,126.783,-0.65482,0.83021,0.79957
397.618,126.9855,-0.68113,0.86333,0.79882
398.218,127.186,-0.70583,0.89432,0.79808
398.818,127.386,-0.73612,0.92901,0.79733
399.418,127.5835,-0.76797,0.96489,0.79658
400.018,127.78,-0.80104,0.9976,0.79584
400.618,127.975,-0.83417,1.03541,0.79509
401.218,128.169,-0.86929,1.06837,0.79435
401.818,128.3643,-0.90419,1.10361,0.7936
402.418,128.56,-0.94267,1.14166,0.79286
403.018,128.755,-0.98381,1.17722,0.79211
403.618,128.95,-1.02364,1.20932,0.79137
404.218,129.145,-1.06972,1.24738,0.79062
404.818,129.339,-1.11601,1.27916,0.78988
405.418,129.535,-1.16375,1.31617,0.78913
406.018,129.732,-1.20992,1.34626,0.78839
406.618,129.929,-1.26252,1.37763,0.78764
407.218,130.127,-1.31267,1.40482,0.7869
407.818,130.325,-1.36654,1.42977,0.78615
408.418,130.523,-1.42324,1.45222,0.78541
409.018,130.721,-1.47188,1.47362,0.78467
409.618,130.919,-1.53286,1.49098,0.78392
410.218,131.117,-1.59188,1.50415,0.78318
410.818,131.315,-1.64937,1.51858,0.78244
411.418,131.513,-1.70912,1.52937,0.78169
412.018,131.711,-1.7684,1.53435,0.78095
412.618,131.909,-1.82885,1.5386,0.78021
413.218,132.107,-1.88995,1.53759,0.77947
413.818,132.306,-1.94776,1.533,0.77872
414.418,132.5056,-2.00892,1.52534,0.77798
415.018,132.704,-2.07368,1.51746,0.77724
415.618,132.902,-2.12899,1.50791,0.7765
416.218,133.098,-2.18827,1.4975,0.77576
416.818,133.293,-2.24472,1.48038,0.77502
417.418,133.488,-2.30112,1.46158,0.77428
418.018,133.681,-2.35698,1.43868,0.77354
418.618,133.874,-2.41037,1.42259,0.7728
419.218,134.068,-2.46451,1.39416,0.77206
419.818,134.263,-2.52198,1.37408,0.77132
420.418,134.46,-2.57508,1.34945,0.77058
421.018,134.656,-2.62475,1.31913,0.76984
421.618,134.854,-2.67823,1.28926,0.7691
422.218,135.051,-2.72686,1.25895,0.76837
422.818,135.2479,-2.77139,1.22989,0.76763
423.418,135.445,-2.82156,1.20065,0.76689
424.018,135.641,-2.86494,1.1673,0.76615
424.618,135.837,-2.90929,1.13475,0.76542
425.218,136.033,-2.94925,1.10051,0.76468
425.818,136.228,-2.9945,1.0682,0.76395
426.418,136.425,-3.02903,1.03059,0.76321
427.018,136.623,-3.06653,1.00141,0.76247
427.618,136.8207,-3.10539,0.96515,0.76174
428.218,137.019,-3.14135,0.93286,0.76101
428.818,137.217,-3.17199,0.89645,0.76027
429.418,137.415,-3.20802,0.86405,0.75954
430.018,137.614,-3.23575,0.82694,0.75881
430.618,137.814,-3.26415,0.79367,0.75807
431.218,138.012,-3.29281,0.76125,0.75734
431.818,138.21,-3.32023,0.73181,0.75661
432.418,138.407,-3.34556,0.70479,0.75588
433.018,138.603,-3.36657,0.6727,0.75515
433.618,138.799,-3.39012,0.64773,0.75442
434.218,138.994,-3.40871,0.61795,0.75369
434.818,139.19,-3.42958,0.59559,0.75296
435.418,139.387,-3.44647,0.57018,0.75223
436.018,139.584,-3.46311,0.54802,0.7515
436.618,139.781,-3.48032,0.53239,0.75077
437.218,139.977,-3.49717,0.51517,0.75004
437.818,140.1746,-3.50936,0.50186,0.74932
438.418,140.372,-3.52388,0.48569,0.74859
439.018,140.569,-3.53625,0.47198,0.74786
439.618,140.766,-3.55241,0.46082,0.74714
440.218,140.964,-3.5666,0.45032,0.74641
440.818,141.162,-3.57615,0.44159,0.74569
441.418,141.359,-3.58638,0.43186,0.74496
442.018,141.557,-3.60166,0.4253,0.74424
442.618,141.755,-3.61021,0.41524,0.74352
443.218,141.953,-3.62069,0.40648,0.7428
443.818,142.15,-3.6324,0.40366,0.74207
444.418,142.347,-3.64213,0.39625,0.74135
445.018,142.545,-3.65105,0.39013,0.74063
445.618,142.743,-3.66479,0.37992,0.73991
446.218,142.942,-3.66924,0.37928,0.73919
446.818,143.14,-3.68114,0.37127,0.73847
447.418,143.339,-3.68901,0.36659,0.73775
448.018,143.5381,-3.69558,0.36048,0.73704
448.618,143.739,-3.7057,0.35401,0.73632
449.218,143.9395,-3.71193,0.34594,0.7356
449.818,144.139,-3.7182,0.34101,0.73489
450.418,144.335,-3.72725,0.33701,0.73417
451.018,144.529,-3.73416,0.33289,0.73345
451.618,144.721,-3.74024,0.32365,0.73274
452.218,144.914,-3.74751,0.32126,0.73203
452.818,145.109,-3.74943,0.30924,0.73131
453.418,145.308,-3.75742,0.30632,0.7306
454.018,145.508,-3.76225,0.299,0.72989
454.618,145.708,-3.76579,0.2937,0.72918
455.218,145.907,-3.77352,0.29339,0.72847
455.818,146.106,-3.77728,0.2879,0.72776
456.418,146.304,-3.78002,0.28168,0.72705
457.018,146.503,-3.78489,0.27441,0.72634
457.618,146.701,-3.78687,0.27098,0.72563
458.218,146.898,-3.78882,0.26528,0.72493
458.818,147.094,-3.79268,0.26188,0.72422
459.418,147.288,-3.79315,0.25669,0.72351
460.018,147.483,-3.79915,0.25419,0.72281
460.618,147.68,-3.80161,0.24572,0.7221
461.218,147.878,-3.80223,0.24294,0.7214
461.818,148.076,-3.80226,0.23888,0.7207
462.418,148.274,-3.80799,0.23568,0.72
463.018,148.472,-3.80654,0.23268,0.71929
463.618,148.6713,-3.80917,0.2318,0.71859
464.218,148.872,-3.80787,0.22939,0.71789
464.818,149.075,-3.80914,0.23087,0.71719
465.418,149.278,-3.81078,0.22836,0.7165
466.018,149.482,-3.80907,0.23108,0.7158
466.618,149.683,-3.81422,0.23173,0.7151
467.218,149.882,-3.81161,0.22787,0.71441
467.818,150.079,-3.81138,0.22372,0.71371
468.418,150.274,-3.8114,0.22376,0.71301
469.018,150.468,-3.81214,0.2177,0.71232
469.618,150.665,-3.81346,0.21665,0.71163
470.218,150.863,-3.81346,0.21683,0.71094
470.818,151.063,-3.81215,0.21372,0.71024
471.418,151.261,-3.81355,0.20669,0.70955
472.018,151.457,-3.81222,0.20529,0.70886
472.618,151.652,-3.81347,0.20642,0.70817
473.218,151.847,-3.81283,0.20558,0.70749
473.818,152.044,-3.81446,0.20365,0.7068
474.418,152.244,-3.81443,0.20844,0.70611
475.018,152.446,-3.81545,0.2148,0.70543
475.618,152.649,-3.81174,0.21194,0.70474
476.218,152.851,-3.81419,0.21186,0.70406
476.818,153.052,-3.81303,0.21487,0.70337
477.418,153.25,-3.8151,0.21576,0.70269
478.018,153.447,-3.81303,0.21725,0.70201
478.618,153.6402,-3.81465,0.21772,0.70133
479.218,153.833,-3.81566,0.21703,0.70065
479.818,154.0277,-3.81343,0.21696,0.69997
480.418,154.224,-3.81276,0.2196,0.69929
481.018,154.422,-3.81312,0.22459,0.69861
481.618,154.623,-3.81578,0.22814,0.69794
482.218,154.825,-3.81368,0.23415,0.69726
482.818,155.027,-3.81454,0.23412,0.69659
483.418,155.229,-3.81445,0.23616,0.69591
484.018,155.43,-3.81511,0.23408,0.69524
484.618,155.63,-3.81444,0.242,0.69457
485.218,155.83,-3.81238,0.24248,0.6939
485.818,156.0305,-3.8162,0.24555,0.69323
486.418,156.23,-3.8149,0.24063,0.69256
487.018,156.43,-3.81363,0.24831,0.69189
487.618,156.63,-3.80845,0.24124,0.69122
488.218,156.8312,-3.81245,0.24639,0.69055
488.818,157.036,-3.81581,0.24394,0.68989
489.418,157.242,-3.81389,0.24505,0.68922
490.018,157.445,-3.81294,0.24751,0.68856
490.618,157.644,-3.81149,0.24231,0.6879
491.218,157.841,-3.81556,0.24349,0.68724
491.818,158.041,-3.81603,0.24225,0.68658
492.418,158.245,-3.81262,0.23938,0.68592
493.018,158.45,-3.81467,0.24501,0.68526
493.618,158.655,-3.81533,0.24538,0.6846
494.218,158.859,-3.8126,0.25118,0.68394
494.818,159.06,-3.8144,0.25188,0.68329
495.418,159.258,-3.8128,0.25069,0.68263
496.018,159.456,-3.81281,0.24806,0.68198
496.618,159.653,-3.81315,0.24823,0.68132
497.218,159.853,-3.81498,0.2524,0.68067
497.818,160.053,-3.81578,0.25138,0.68002
498.418,160.252,-3.81347,0.25321,0.67937
499.018,160.45,-3.81446,0.25229,0.67872
499.618,160.647,-3.81183,0.25206,0.67807
500.218,160.8446,-3.81434,0.25437,0.67743
500.818,161.0444,-3.81447,0.25588,0.67678
501.418,161.245,-3.81394,0.25592,0.67614
502.018,161.446,-3.81403,0.25367,0.67549
502.618,161.646,-3.81741,0.2555,0.67485
503.218,161.845,-3.81344,0.25457,0.67421
503.818,162.044,-3.81598,0.25592,0.67357
504.418,162.242,-3.81613,0.25493,0.67293
505.018,162.438,-3.81602,0.25817,0.67229
505.618,162.634,-3.81599,0.25414,0.67165
506.218,162.829,-3.81735,0.25715,0.67101
506.818,163.025,-3.81731,0.25576,0.67038
507.418,163.223,-3.81605,0.25607,0.66974
508.018,163.426,-3.81582,0.25743,0.66911
508.618,163.63,-3.81648,0.26164,0.66848
509.218,163.837,-3.81653,0.2683,0.66785
509.818,164.043,-3.81632,0.26824,0.66722
510.418,164.246,-3.81665,0.26808,0.66659
511.018,164.446,-3.81401,0.27054,0.66596
511.618,164.644,-3.81517,0.26985,0.66533
512.218,164.841,-3.81412,0.26951,0.66471
512.818,165.039,-3.81442,0.27101,0.66408
513.418,165.238,-3.81405,0.2741,0.66346
514.018,165.437,-3.81533,0.27387,0.66284
514.618,165.636,-3.81396,0.27325,0.66221
515.218,165.835,-3.81972,0.27852,0.66159
515.818,166.037,-3.81546,0.2762,0.66098
516.418,166.241,-3.81543,0.27578,0.66036
517.018,166.446,-3.813,0.27842,0.65974
517.618,166.649,-3.81544,0.28235,0.65912
518.218,166.851,-3.81703,0.27767,0.65851
518.818,167.05,-3.81575,0.27824,0.6579
519.418,167.248,-3.81574,0.28093,0.65728
520.018,167.446,-3.81444,0.27918,0.65667
520.618,167.643,-3.81469,0.27902,0.65606
521.218,167.841,-3.81456,0.27918,0.65545
521.818,168.04,-3.81586,0.28215,0.65485
522.418,168.242,-3.81456,0.28463,0.65424
523.018,168.448,-3.81328,0.28956,0.65363
523.618,168.6531,-3.81368,0.29311,0.65303
524.218,168.857,-3.8162,0.29316,0.65243
524.818,169.058,-3.81488,0.28987,0.65183
525.418,169.255,-3.81459,0.28739,0.65123
526.018,169.449,-3.81523,0.28428,0.65063
526.618,169.6416,-3.81635,0.27735,0.65003
527.218,169.835,-3.81335,0.27949,0.64943
527.818,170.033,-3.81335,0.28,0.64883
528.418,170.233,-3.81467,0.28115,0.64824
529.018,170.436,-3.81534,0.28604,0.64765
529.618,170.64,-3.81532,0.28899,0.64705
530.218,170.8451,-3.818,0.2927,0.64646
530.818,171.05,-3.81533,0.29326,0.64587
531.418,171.255,-3.81354,0.29684,0.64528
532.018,171.458,-3.81519,0.29836,0.6447
532.618,171.66,-3.81634,0.29722,0.64411
533.218,171.862,-3.81499,0.29661,0.64353
533.818,172.066,-3.81499,0.29305,0.64294
534.418,172.27,-3.81287,0.2946,0.64236
535.018,172.4736,-3.81429,0.29501,0.64178
535.618,172.675,-3.81628,0.29348,0.6412
536.218,172.875,-3.81368,0.29156,0.64062
536.818,173.077,-3.81434,0.28662,0.64004
537.418,173.282,-3.81642,0.28532,0.63946
538.018,173.493,-3.81498,0.28828,0.63889
538.618,173.703,-3.81523,0.28224,0.63832
539.218,173.909,-3.81549,0.2956,0.63774
539.818,174.1107,-3.81346,0.29698,0.63717
540.418,174.307,-3.81343,0.29352,0.6366
541.018,174.498,-3.81477,0.29275,0.63603
541.618,174.687,-3.81631,0.29275,0.63547
542.218,174.877,-3.81466,0.28703,0.6349
542.818,175.071,-3.81337,0.29398,0.63433
543.418,175.27,-3.81461,0.29513,0.63377
544.018,175.473,-3.81804,0.30454,0.63321
544.618,175.679,-3.81433,0.3048,0.63265
545.218,175.886,-3.81455,0.3065,0.63209
545.818,176.093,-3.814,0.30854,0.63153
546.418,176.299,-3.81434,0.31666,0.63097
547.018,176.502,-3.81434,0.31906,0.63041
547.618,176.702,-3.81434,0.31589,0.62986
548.218,176.901,-3.81335,0.31948,0.62931
548.818,177.1,-3.81482,0.31958,0.62875
549.418,177.301,-3.81675,0.31855,0.6282
550.018,177.501,-3.81495,0.32,0.62765
550.618,177.703,-3.81529,0.32594,0.62711
551.218,177.903,-3.81668,0.32651,0.62656
551.818,178.1022,-3.81404,0.33126,0.62601
552.418,178.302,-3.81504,0.32849,0.62547
553.018,178.506,-3.81598,0.33319,0.62493
553.618,178.712,-3.81328,0.3375,0.62438
554.218,178.92,-3.81289,0.3406,0.62384
554.818,179.124,-3.81466,0.34262,0.6233
555.418,179.328,-3.8147,0.3387,0.62277
556.018,179.533,-3.81192,0.34246,0.62223
556.618,179.737,-3.81207,0.34087,0.6217
557.218,179.94,-3.81253,0.33778,0.62116
557.818,180.14,-3.81523,0.33558,0.62063
558.418,180.337,-3.8105,0.33182,0.6201
559.018,180.534,-3.81181,0.33397,0.61957
559.618,180.733,-3.81379,0.33704,0.61904
560.218,180.932,-3.8128,0.34327,0.61851
560.818,181.133,-3.8128,0.34164,0.61799
561.418,181.332,-3.8127,0.33758,0.61746
562.018,181.529,-3.81138,0.34337,0.61694
562.618,181.727,-3.81201,0.33785,0.61642
563.218,181.924,-3.81269,0.33629,0.6159
563.818,182.123,-3.81137,0.33582,0.61538
564.418,182.325,-3.81127,0.33301,0.61486
565.018,182.527,-3.81402,0.33391,0.61435
565.618,182.732,-3.81258,0.33182,0.61383
566.218,182.937,-3.81186,0.33421,0.61332
566.818,183.144,-3.81386,0.33724,0.61281
567.418,183.352,-3.81116,0.33381,0.6123
568.018,183.56,-3.81384,0.33833,0.61179
568.618,183.769,-3.81247,0.33164,0.61128
569.218,183.976,-3.81248,0.33413,0.61077
569.818,184.182,-3.80982,0.34216,0.61027
570.418,184.385,-3.81106,0.3363,0.60976
571.018,184.585,-3.81144,0.3425,0.60926
571.618,184.782,-3.81412,0.33971,0.60876
572.218,184.975,-3.812,0.34101,0.60826
572.818,185.164,-3.81411,0.34242,0.60776
573.418,185.353,-3.8128,0.34172,0.60727
574.018,185.5452,-3.81198,0.34607,0.60677
574.618,185.7449,-3.81248,0.34913,0.60628
575.218,185.957,-3.81261,0.35329,0.60579
575.818,186.176,-3.81272,0.36538,0.60529
576.418,186.3965,-3.81276,0.3667,0.6048
577.018,186.61,-3.81345,0.36712,0.60432
577.618,186.817,-3.81205,0.36523,0.60383
578.218,187.019,-3.81269,0.36083,0.60334
578.818,187.217,-3.81358,0.35412,0.60286
579.418,187.414,-3.81269,0.35408,0.60238
580.018,187.609,-3.81269,0.35747,0.6019
580.618,187.8031,-3.81302,0.35737,0.60142
581.218,187.998,-3.81532,0.35411,0.60094
581.818,188.195,-3.81434,0.35518,0.60046
582.418,188.397,-3.81431,0.36109,0.59999
583.018,188.605,-3.81176,0.36743,0.59951
583.618,188.815,-3.8128,0.37096,0.59904
584.218,189.024,-3.812,0.37424,0.59857
584.818,189.233,-3.81302,0.37206,0.5981
585.418,189.438,-3.81061,0.37376,0.59763
586.018,189.645,-3.81278,0.3792,0.59716
586.618,189.852,-3.81246,0.37729,0.5967
587.218,190.06,-3.81258,0.38041,0.59623
587.818,190.267,-3.814,0.38392,0.59577
588.418,190.471,-3.80982,0.3844,0.59531
589.018,190.67,-3.81006,0.38083,0.59485
589.618,190.869,-3.81005,0.37899,0.59439
590.218,191.069,-3.81145,0.38063,0.59394
590.818,191.269,-3.81275,0.37992,0.59348
591.418,191.468,-3.81138,0.37696,0.59303
592.018,191.6645,-3.81171,0.37715,0.59257
592.618,191.86,-3.81072,0.38224,0.59212
593.218,192.058,-3.81069,0.38919,0.59167
593.818,192.257,-3.81369,0.39456,0.59123
594.418,192.4568,-3.80847,0.39725,0.59078
595.018,192.656,-3.81122,0.39833,0.59033
595.618,192.857,-3.81239,0.39996,0.58989
596.218,193.06,-3.80982,0.40142,0.58945
596.818,193.264,-3.8098,0.40114,0.58901
597.418,193.469,-3.81115,0.40251,0.58857
598.018,193.675,-3.81255,0.41059,0.58813
598.618,193.881,-3.81246,0.40728,0.58769
599.218,194.085,-3.81247,0.41059,0.58726
599.818,194.288,-3.81115,0.39449,0.58683
600.418,194.489,-3.81392,0.39423,0.58639
601.018,194.693,-3.81256,0.39544,0.58596
601.618,194.897,-3.81116,0.39956,0.58554
602.218,195.1018,-3.80984,0.40555,0.58511
602.818,195.306,-3.81116,0.4047,0.58468
603.418,195.51,-3.81018,0.40354,0.58426
604.018,195.715,-3.81148,0.40903,0.58383
604.618,195.922,-3.81213,0.4059,0.58341
605.218,196.134,-3.80951,0.41272,0.58299
605.818,196.347,-3.80957,0.40837,0.58257
606.418,196.554,-3.80948,0.4152,0.58216
607.018,196.755,-3.8104,0.41395,0.58174
607.618,196.951,-3.81022,0.41264,0.58133
608.218,197.146,-3.81022,0.41022,0.58091
608.818,197.345,-3.81017,0.41253,0.5805
609.418,197.548,-3.80962,0.412,0.58009
610.018,197.753,-3.80962,0.41521,0.57969
610.618,197.958,-3.80932,0.41901,0.57928
611.218,198.164,-3.81027,0.4165,0.57887
611.818,198.368,-3.80987,0.41777,0.57847
612.418,198.573,-3.81215,0.41761,0.57807
613.018,198.776,-3.80953,0.41829,0.57767
613.618,198.979,-3.80951,0.41668,0.57727
614.218,199.182,-3.81144,0.42033,0.57687
614.818,199.384,-3.81147,0.414,0.57647
615.418,199.587,-3.81013,0.41438,0.57608
616.018,199.79,-3.81051,0.41704,0.57569
616.618,199.993,-3.81015,0.42152,0.57529
617.218,200.196,-3.80893,0.4243,0.5749
617.818,200.397,-3.80856,0.42429,0.57451
618.418,200.595,-3.80955,0.42247,0.57413
619.018,200.791,-3.80979,0.42217,0.57374
619.618,200.988,-3.81114,0.42085,0.57336
620.218,201.188,-3.81155,0.42613,0.57297
620.818,201.392,-3.8128,0.42872,0.57259
621.418,201.597,-3.8089,0.42768,0.57221
622.018,201.803,-3.80882,0.43374,0.57184
622.618,202.008,-3.80885,0.43054,0.57146
623.218,202.216,-3.8115,0.44366,0.57108
623.818,202.429,-3.80886,0.44185,0.57071
624.418,202.642,-3.80886,0.44968,0.57034
625.018,202.8557,-3.80974,0.45478,0.56997
625.618,203.0658,-3.81171,0.45357,0.5696
626.218,203.274,-3.8082,0.4539,0.56923
626.818,203.478,-3.80997,0.45807,0.56886
627.418,203.68,-3.80761,0.45593,0.5685
628.018,203.88,-3.81028,0.45171,0.56814
628.618,204.079,-3.80634,0.45008,0.56777
629.218,204.279,-3.80975,0.4481,0.56741
629.818,204.48,-3.81005,0.44733,0.56706
630.418,204.683,-3.80956,0.44568,0.5667
631.018,204.888,-3.81028,0.44981,0.56634
631.618,205.096,-3.81028,0.45263,0.56599
632.218,205.304,-3.80896,0.45346,0.56564
632.818,205.51,-3.80764,0.46021,0.56529
633.418,205.7104,-3.80996,0.46248,0.56494
634.018,205.904,-3.80913,0.45367,0.56459
634.618,206.094,-3.80929,0.45044,0.56424
635.218,206.2857,-3.80817,0.45118,0.5639
635.818,206.483,-3.80863,0.45332,0.56355
636.418,206.685,-3.80884,0.45601,0.56321
637.018,206.894,-3.81062,0.45601,0.56287
637.618,207.1055,-3.80761,0.45929,0.56253
638.218,207.318,-3.81173,0.45626,0.56219
638.818,207.531,-3.80907,0.46083,0.56186
639.418,207.744,-3.80875,0.4633,0.56152
640.018,207.957,-3.80677,0.46621,0.56119
640.618,208.167,-3.80776,0.465,0.56086
641.218,208.373,-3.80908,0.46571,0.56053
641.818,208.576,-3.80808,0.46246,0.5602
642.418,208.7773,-3.80978,0.46302,0.55987
643.018,208.978,-3.81087,0.46423,0.55955
643.618,209.179,-3.80678,0.46167,0.55923
644.218,209.38,-3.80904,0.46708,0.5589
644.818,209.5815,-3.81016,0.46848,0.55858
645.418,209.784,-3.80786,0.47206,0.55826
646.018,209.987,-3.80517,0.4753,0.55795