File: 01_Data/Plywood/STA/N2/3K_min/Plywood_STA_N2_3KData_22243_R1.csv
##Temp./Â°C,Time/min,Mass loss(subtr.2)/mg,DSC(subtr.2)/mW,Sensit./(uV/mW)
50.341,10.01667,-0.08655,0.12887,1.04791
51.041,11.12829,-0.09425412,0.23168,1.0476
51.741,11.52094,-0.0968392,0.29613,1.04729
52.441,11.83972,-0.09829871,0.3321,1.04698
53.141,12.13073,-0.09926765,0.35617,1.04668
53.841,12.40755,-0.10012,0.37712,1.04637
54.541,12.6773,-0.10067,0.37976,1.04606
55.241,12.94341,-0.10205,0.39397,1.04575
55.941,13.2052,-0.10339,0.39646,1.04544
56.641,13.46509,-0.10575,0.41051,1.04513
57.341,13.7209,-0.10655,0.41341,1.04483
58.041,13.97299,-0.10751,0.42476,1.04452
58.741,14.22429,-0.109,0.42896,1.04421
59.441,14.47308,-0.11018,0.43642,1.04391
60.141,14.71974,-0.11155,0.44371,1.0436
60.841,14.9618,-0.1125,0.45496,1.04329
61.541,15.20149,-0.11317,0.459,1.04299
62.241,15.4421,-0.11441,0.46239,1.04268
62.941,15.68249,-0.11705,0.47406,1.04238
63.641,15.9228,-0.11704,0.47316,1.04207
64.341,16.16155,-0.11934,0.48128,1.04177
65.041,16.39958,-0.11768,0.46673,1.04146
65.741,16.6377,-0.12033,0.47346,1.04116
66.441,16.8753,-0.12165,0.48523,1.04085
67.141,17.1144,-0.12297,0.49342,1.04055
67.841,17.35302,-0.12558,0.48949,1.04024
68.541,17.59065,-0.12664,0.49331,1.03994
69.241,17.82639,-0.12758,0.50559,1.03964
69.941,18.06225,-0.1267,0.51611,1.03933
70.641,18.2972,-0.128,0.50627,1.03903
71.341,18.53295,-0.12978,0.50836,1.03873
72.041,18.7677,-0.12977,0.50507,1.03843
72.741,19.00283,-0.1311,0.50541,1.03813
73.441,19.2373,-0.13208,0.49554,1.03782
74.141,19.47429,-0.13306,0.495,1.03752
74.841,19.71046,-0.13339,0.49864,1.03722
75.541,19.94728,-0.13406,0.49605,1.03692
76.241,20.1829,-0.13437,0.49375,1.03662
76.941,20.41916,-0.13733,0.48734,1.03632
77.641,20.6543,-0.13733,0.49328,1.03602
78.341,20.88844,-0.13733,0.48565,1.03572
79.041,21.12195,-0.13768,0.50032,1.03542
79.741,21.35599,-0.139,0.48443,1.03512
80.441,21.58888,-0.13855,0.48922,1.03482
81.141,21.8216,-0.13994,0.48398,1.03452
81.841,22.05415,-0.13997,0.48002,1.03422
82.541,22.287,-0.13963,0.47176,1.03392
83.241,22.5211,-0.13832,0.47163,1.03362
83.941,22.75467,-0.13984,0.46554,1.03332
84.641,22.98923,-0.14124,0.46767,1.03303
85.341,23.2236,-0.1401,0.46331,1.03273
86.041,23.45756,-0.14143,0.45736,1.03243
86.741,23.6913,-0.14123,0.4573,1.03213
87.441,23.92505,-0.1426,0.44947,1.03184
88.141,24.15855,-0.14331,0.45816,1.03154
88.841,24.39155,-0.14392,0.44748,1.03124
89.541,24.62377,-0.14457,0.45214,1.03095
90.241,24.85645,-0.1432,0.43993,1.03065
90.941,25.08936,-0.14653,0.44759,1.03035
91.641,25.32291,-0.14523,0.44706,1.03006
92.341,25.5563,-0.14653,0.43466,1.02976
93.041,25.7879,-0.14688,0.43893,1.02947
93.741,26.02047,-0.14643,0.45605,1.02917
94.441,26.25243,-0.14785,0.4405,1.02887
95.141,26.4844,-0.14852,0.44031,1.02858
95.841,26.71588,-0.14852,0.44434,1.02828
96.541,26.94712,-0.14787,0.44669,1.02799
97.241,27.1794,-0.14819,0.43878,1.0277
97.941,27.4109,-0.14819,0.43062,1.0274
98.641,27.6424,-0.14818,0.4329,1.02711
99.341,27.87404,-0.14778,0.44034,1.02681
100.041,28.1051,-0.14754,0.43019,1.02652
100.741,28.33669,-0.14752,0.43676,1.02623
101.441,28.5686,-0.14753,0.43771,1.02593
102.141,28.80143,-0.1475,0.43255,1.02564
102.841,29.0349,-0.14622,0.43151,1.02535
103.541,29.2676,-0.14756,0.43324,1.02505
104.241,29.49982,-0.14622,0.44073,1.02476
104.941,29.731,-0.14621,0.43936,1.02447
105.641,29.9619,-0.14721,0.44472,1.02418
106.341,30.1924,-0.14681,0.43879,1.02388
107.041,30.4228,-0.14761,0.44514,1.02359
107.741,30.6527,-0.14754,0.43894,1.0233
108.441,30.8834,-0.14655,0.4497,1.02301
109.141,31.1145,-0.14667,0.44186,1.02272
109.841,31.34668,-0.14821,0.44175,1.02243
110.541,31.5792,-0.14688,0.44787,1.02214
111.241,31.81206,-0.14556,0.44288,1.02184
111.941,32.04482,-0.14688,0.44193,1.02155
112.641,32.27792,-0.14687,0.44487,1.02126
113.341,32.51068,-0.14687,0.45205,1.02097
114.041,32.74327,-0.14688,0.46043,1.02068
114.741,32.9741,-0.14579,0.46317,1.02039
115.441,33.20448,-0.14602,0.46749,1.0201
116.141,33.4348,-0.14589,0.47949,1.01981
116.841,33.6657,-0.14655,0.47741,1.01952
117.541,33.89625,-0.14523,0.47264,1.01923
118.241,34.12753,-0.14461,0.46957,1.01894
118.941,34.35913,-0.1446,0.47268,1.01866
119.641,34.59083,-0.1449,0.46299,1.01837
120.341,34.8217,-0.14326,0.47057,1.01808
121.041,35.0523,-0.14294,0.47694,1.01779
121.741,35.28394,-0.14393,0.46289,1.0175
122.441,35.51549,-0.14293,0.46941,1.01721
123.141,35.7468,-0.14259,0.47553,1.01692
123.841,35.97719,-0.1426,0.47546,1.01664
124.541,36.2074,-0.14244,0.4771,1.01635
125.241,36.43838,-0.14457,0.47598,1.01606
125.941,36.6689,-0.14457,0.4794,1.01577
126.641,36.899,-0.14391,0.4841,1.01548
127.341,37.1292,-0.14458,0.4765,1.0152
128.041,37.35882,-0.14432,0.48018,1.01491
128.741,37.58903,-0.1451,0.48987,1.01462
129.441,37.81774,-0.14369,0.4847,1.01434
130.141,38.04665,-0.14501,0.49606,1.01405
130.841,38.27467,-0.1444,0.50505,1.01376
131.541,38.50314,-0.14304,0.49967,1.01348
132.241,38.73113,-0.14565,0.51213,1.01319
132.941,38.95989,-0.14304,0.51589,1.0129
133.641,39.1899,-0.14435,0.49694,1.01262
134.341,39.4208,-0.14237,0.50325,1.01233
135.041,39.65189,-0.14235,0.50923,1.01204
135.741,39.88221,-0.14238,0.51729,1.01176
136.441,40.11231,-0.1437,0.51624,1.01147
137.141,40.34195,-0.14253,0.51672,1.01119
137.841,40.57141,-0.14223,0.52656,1.0109
138.541,40.79998,-0.1437,0.53071,1.01061
139.241,41.0291,-0.14235,0.52425,1.01033
139.941,41.25843,-0.14488,0.52329,1.01004
140.641,41.48858,-0.14436,0.52822,1.00976
141.341,41.71842,-0.14436,0.53417,1.00947
142.041,41.94856,-0.14567,0.53501,1.00919
142.741,42.17848,-0.14502,0.53856,1.0089
143.441,42.40817,-0.14731,0.535,1.00862
144.141,42.63824,-0.14764,0.52919,1.00833
144.841,42.86825,-0.1483,0.53702,1.00805
145.541,43.0981,-0.14896,0.53802,1.00776
146.241,43.32646,-0.14797,0.54279,1.00748
146.941,43.55435,-0.14929,0.53988,1.0072
147.641,43.78235,-0.14765,0.54748,1.00691
148.341,44.0114,-0.14765,0.55294,1.00663
149.041,44.2413,-0.14764,0.54657,1.00634
149.741,44.47164,-0.14732,0.54089,1.00606
150.441,44.70236,-0.14765,0.54141,1.00577
151.141,44.9326,-0.14785,0.5491,1.00549
151.841,45.16206,-0.1459,0.54912,1.00521
152.541,45.3908,-0.14616,0.5558,1.00492
153.241,45.61877,-0.14698,0.55696,1.00464
153.941,45.8464,-0.14621,0.56597,1.00436
154.641,46.07395,-0.14885,0.57614,1.00407
155.341,46.30211,-0.15017,0.57457,1.00379
156.041,46.5302,-0.15017,0.57422,1.00351
156.741,46.7568,-0.15017,0.58024,1.00322
157.441,46.98502,-0.14912,0.57403,1.00294
158.141,47.2141,-0.14908,0.57814,1.00266
158.841,47.44512,-0.1511,0.57721,1.00237
159.541,47.67438,-0.15214,0.57339,1.00209
160.241,47.9037,-0.15182,0.59285,1.00181
160.941,48.13235,-0.15182,0.582,1.00152
161.641,48.36094,-0.15416,0.56966,1.00124
162.341,48.5899,-0.15313,0.57589,1.00096
163.041,48.81812,-0.15445,0.57003,1.00067
163.741,49.04659,-0.15315,0.56465,1.00039
164.441,49.2729,-0.15492,0.57776,1.00011
165.141,49.49957,-0.15673,0.58079,0.99983
165.841,49.72684,-0.15575,0.587,0.99954
166.541,49.9543,-0.15588,0.59149,0.99926
167.241,50.18306,-0.15806,0.59101,0.99898
167.941,50.4106,-0.15773,0.59749,0.9987
168.641,50.64018,-0.15806,0.5869,0.99841
169.341,50.86908,-0.15917,0.5994,0.99813
170.041,51.0987,-0.15992,0.60769,0.99785
170.741,51.3269,-0.15924,0.61258,0.99757
171.441,51.5555,-0.15816,0.60953,0.99728
172.141,51.78383,-0.15862,0.62349,0.997
172.841,52.0133,-0.16189,0.62217,0.99672
173.541,52.24252,-0.15923,0.60529,0.99644
174.241,52.4726,-0.16168,0.60676,0.99615
174.941,52.70176,-0.16091,0.60885,0.99587
175.641,52.9306,-0.16125,0.61918,0.99559
176.341,53.1586,-0.16158,0.61733,0.99531
177.041,53.3866,-0.16162,0.61012,0.99502
177.741,53.6147,-0.16256,0.62116,0.99474
178.441,53.84208,-0.16355,0.62388,0.99446
179.141,54.06957,-0.16355,0.63026,0.99418
179.841,54.29628,-0.16387,0.62958,0.9939
180.541,54.5236,-0.16486,0.6278,0.99361
181.241,54.75116,-0.16525,0.62644,0.99333
181.941,54.9795,-0.16592,0.63399,0.99305
182.641,55.2073,-0.16789,0.6223,0.99277
183.341,55.43586,-0.16849,0.62417,0.99249
184.041,55.66505,-0.16847,0.63585,0.9922
184.741,55.8953,-0.1698,0.6301,0.99192
185.441,56.1245,-0.17158,0.64021,0.99164
186.141,56.35281,-0.17303,0.64296,0.99136
186.841,56.58113,-0.1743,0.64418,0.99107
187.541,56.8087,-0.17429,0.65034,0.99079
188.241,57.03629,-0.17828,0.65342,0.99051
188.941,57.2629,-0.18009,0.65261,0.99023
189.641,57.4904,-0.18011,0.6432,0.98995
190.341,57.71741,-0.18285,0.64984,0.98966
191.041,57.9452,-0.1838,0.65797,0.98938
191.741,58.1732,-0.1868,0.65899,0.9891
192.441,58.40166,-0.18885,0.65666,0.98882
193.141,58.63025,-0.1921,0.64531,0.98853
193.841,58.85889,-0.19202,0.64892,0.98825
194.541,59.0878,-0.19603,0.65437,0.98797
195.241,59.31635,-0.19733,0.65512,0.98769
195.941,59.54452,-0.20005,0.6592,0.9874
196.641,59.7725,-0.20227,0.66413,0.98712
197.341,59.9997,-0.20359,0.66956,0.98684
198.041,60.227,-0.20533,0.67506,0.98656
198.741,60.4538,-0.20589,0.67886,0.98627
199.441,60.68087,-0.20618,0.67548,0.98599
200.141,60.90695,-0.20788,0.6805,0.98571
200.841,61.13352,-0.20655,0.68831,0.98543
201.541,61.36035,-0.20754,0.67233,0.98514
202.241,61.58806,-0.20688,0.67086,0.98486
202.941,61.8158,-0.21039,0.67246,0.98458
203.641,62.0439,-0.21147,0.67207,0.98429
204.341,62.273,-0.21184,0.66841,0.98401
205.041,62.50114,-0.21445,0.68741,0.98373
205.741,62.7294,-0.21726,0.68431,0.98344
206.441,62.9565,-0.21594,0.68725,0.98316
207.141,63.18387,-0.21893,0.68869,0.98288
207.841,63.41,-0.22145,0.69264,0.98259
208.541,63.6361,-0.22127,0.69202,0.98231
209.241,63.8617,-0.22387,0.69466,0.98203
209.941,64.08753,-0.22416,0.70533,0.98174
210.641,64.31306,-0.22685,0.69809,0.98146
211.341,64.53947,-0.22643,0.70373,0.98118
212.041,64.76637,-0.22914,0.71,0.98089
212.741,64.99396,-0.23035,0.70655,0.98061
213.441,65.2216,-0.23178,0.71146,0.98033
214.141,65.44872,-0.23407,0.71911,0.98004
214.841,65.67569,-0.23441,0.71752,0.97976
215.541,65.90272,-0.23803,0.71805,0.97947
216.241,66.13048,-0.23804,0.71268,0.97919
216.941,66.3588,-0.2404,0.70953,0.9789
217.641,66.58702,-0.24323,0.71515,0.97862
218.341,66.8146,-0.24776,0.72632,0.97834
219.041,67.04241,-0.24719,0.72833,0.97805
219.741,67.2701,-0.2491,0.72745,0.97777
220.441,67.4987,-0.25175,0.73503,0.97748
221.141,67.72616,-0.25467,0.74144,0.9772
221.841,67.95355,-0.25602,0.74315,0.97691
222.541,68.17989,-0.25866,0.75697,0.97663
223.241,68.4057,-0.26194,0.75657,0.97634
223.941,68.6319,-0.26459,0.7589,0.97606
224.641,68.85834,-0.26589,0.75375,0.97577
225.341,69.0856,-0.26783,0.75553,0.97549
226.041,69.31289,-0.2715,0.74804,0.9752
226.741,69.5411,-0.27135,0.75778,0.97491
227.441,69.76913,-0.27619,0.75167,0.97463
228.141,69.99684,-0.27806,0.75027,0.97434
228.841,70.22373,-0.28118,0.76136,0.97406
229.541,70.45062,-0.28463,0.76316,0.97377
230.241,70.6772,-0.2873,0.77625,0.97348
230.941,70.9041,-0.2901,0.75642,0.9732
231.641,71.13094,-0.29518,0.77355,0.97291
232.341,71.35863,-0.2977,0.76815,0.97262
233.041,71.5861,-0.30216,0.77415,0.97234
233.741,71.81342,-0.30717,0.76835,0.97205
234.441,72.0395,-0.30735,0.78429,0.97176
235.141,72.26586,-0.31193,0.77963,0.97148
235.841,72.49184,-0.31308,0.79377,0.97119
236.541,72.7194,-0.31689,0.79169,0.9709
237.241,72.94689,-0.32102,0.78746,0.97061
237.941,73.17619,-0.32358,0.7877,0.97033
238.641,73.4048,-0.3279,0.79111,0.97004
239.341,73.6334,-0.33202,0.78516,0.96975
240.041,73.86081,-0.3353,0.78723,0.96946
240.741,74.0885,-0.33803,0.7984,0.96917
241.441,74.31581,-0.34252,0.80168,0.96888
242.141,74.54254,-0.34558,0.79831,0.9686
242.841,74.76918,-0.34955,0.80449,0.96831
243.541,74.99557,-0.35459,0.79872,0.96802
244.241,75.2226,-0.3577,0.8006,0.96773
244.941,75.4493,-0.36264,0.80505,0.96744
245.641,75.6769,-0.36712,0.79786,0.96715
246.341,75.90389,-0.37204,0.80392,0.96686
247.041,76.13186,-0.37791,0.81323,0.96657
247.741,76.35939,-0.38258,0.81045,0.96628
248.441,76.58768,-0.38794,0.81404,0.96599
249.141,76.8147,-0.39139,0.81925,0.9657
249.841,77.042,-0.39584,0.82712,0.96541
250.541,77.26871,-0.4012,0.81313,0.96512
251.241,77.4952,-0.40501,0.8212,0.96483
251.941,77.72192,-0.41179,0.81297,0.96454
252.641,77.94972,-0.41516,0.82361,0.96425
253.341,78.17845,-0.42112,0.81216,0.96395
254.041,78.40674,-0.42589,0.81404,0.96366
254.741,78.63425,-0.43201,0.7958,0.96337
255.441,78.86175,-0.43687,0.81861,0.96308
256.141,79.08994,-0.44363,0.81602,0.96279
256.841,79.31752,-0.44906,0.81792,0.96249
257.541,79.54481,-0.45599,0.81951,0.9622
258.241,79.77155,-0.46398,0.82442,0.96191
258.941,79.99928,-0.47086,0.82966,0.96162
259.641,80.22606,-0.47714,0.82905,0.96132
260.341,80.4521,-0.48322,0.83281,0.96103
261.041,80.67777,-0.49315,0.83465,0.96074
261.741,80.90316,-0.49836,0.83733,0.96044
262.441,81.12856,-0.50642,0.84096,0.96015
263.141,81.3543,-0.51684,0.84349,0.95985
263.841,81.58075,-0.52343,0.83023,0.95956
264.541,81.80847,-0.53137,0.82809,0.95927
265.241,82.0359,-0.54085,0.81702,0.95897
265.941,82.26411,-0.54974,0.83668,0.95868
266.641,82.49224,-0.56022,0.82528,0.95838
267.341,82.71999,-0.56766,0.83817,0.95809
268.041,82.94764,-0.57778,0.84377,0.95779
268.741,83.17456,-0.58675,0.84561,0.95749
269.441,83.4024,-0.59576,0.8518,0.9572
270.141,83.6301,-0.60578,0.86791,0.9569
270.841,83.85803,-0.61818,0.86114,0.95661
271.541,84.0849,-0.6277,0.86828,0.95631
272.241,84.31174,-0.63806,0.86307,0.95601
272.941,84.53764,-0.64901,0.87503,0.95571
273.641,84.76476,-0.66021,0.87809,0.95542
274.341,84.99126,-0.67145,0.87486,0.95512
275.041,85.21948,-0.68275,0.87698,0.95482
275.741,85.44763,-0.69597,0.88244,0.95452
276.441,85.67674,-0.70724,0.87842,0.95422
277.141,85.9059,-0.72049,0.89456,0.95393
277.841,86.13475,-0.73076,0.90296,0.95363
278.541,86.36362,-0.74426,0.90089,0.95333
279.241,86.5909,-0.75578,0.91697,0.95303
279.941,86.81819,-0.76888,0.91347,0.95273
280.641,87.04512,-0.78283,0.92403,0.95243
281.341,87.27309,-0.79599,0.93233,0.95213
282.041,87.50064,-0.81019,0.94031,0.95183
282.741,87.72853,-0.82332,0.92995,0.95153
283.441,87.95618,-0.83717,0.94258,0.95123
284.141,88.18406,-0.85034,0.95869,0.95093
284.841,88.41194,-0.86444,0.96088,0.95062
285.541,88.6403,-0.87785,0.97383,0.95032
286.241,88.8694,-0.89311,0.98323,0.95002
286.941,89.09785,-0.90592,0.97191,0.94972
287.641,89.3258,-0.92182,0.97662,0.94942
288.341,89.55343,-0.93939,0.98491,0.94911
289.041,89.78138,-0.95475,0.97799,0.94881
289.741,90.01021,-0.97078,0.98115,0.94851
290.441,90.2388,-0.98694,0.98972,0.9482
291.141,90.46829,-1.00251,0.99491,0.9479
291.841,90.69705,-1.01919,1.0093,0.94759
292.541,90.926,-1.03572,1.00157,0.94729
293.241,91.1537,-1.05265,1.00484,0.94698
293.941,91.38075,-1.06906,1.01709,0.94668
294.641,91.60766,-1.08651,1.01112,0.94637
295.341,91.8351,-1.10207,1.0164,0.94607
296.041,92.06282,-1.12172,1.00991,0.94576
296.741,92.29065,-1.13889,1.01694,0.94546
297.441,92.51867,-1.15733,1.01495,0.94515
298.141,92.7466,-1.1774,1.02337,0.94484
298.841,92.97411,-1.19591,1.03838,0.94454
299.541,93.2012,-1.21484,1.02878,0.94423
300.241,93.42824,-1.23442,1.0401,0.94392
300.941,93.6552,-1.25163,1.03457,0.94361
301.641,93.88288,-1.27101,1.03432,0.9433
302.341,94.11066,-1.29165,1.04422,0.943
303.041,94.33976,-1.31035,1.04285,0.94269
303.741,94.56862,-1.33208,1.04364,0.94238
304.441,94.7984,-1.35089,1.03633,0.94207
305.141,95.0273,-1.3707,1.04583,0.94176
305.841,95.256,-1.39225,1.05207,0.94145
306.541,95.48455,-1.41462,1.04525,0.94114
307.241,95.71366,-1.43463,1.0418,0.94083
307.941,95.943,-1.45507,1.03976,0.94052
308.641,96.1722,-1.47635,1.03841,0.9402
309.341,96.4007,-1.49848,1.03466,0.93989
310.041,96.62854,-1.51886,1.03202,0.93958
310.741,96.85621,-1.54047,1.02227,0.93927
311.441,97.0844,-1.56234,1.03397,0.93895
312.141,97.3121,-1.58254,1.03027,0.93864
312.841,97.53979,-1.60556,1.02854,0.93833
313.541,97.76686,-1.62668,1.02,0.93801
314.241,97.99377,-1.64844,1.01559,0.9377
314.941,98.2204,-1.67043,1.00811,0.93739
315.641,98.44705,-1.69464,1.01944,0.93707
316.341,98.67393,-1.71444,1.02146,0.93676
317.041,98.90101,-1.73699,1.00983,0.93644
317.741,99.12778,-1.75921,1.00559,0.93612
318.441,99.35435,-1.78156,0.99893,0.93581
319.141,99.58034,-1.80455,0.99934,0.93549
319.841,99.80678,-1.8278,0.98442,0.93517
320.541,100.033,-1.84778,0.98749,0.93486
321.241,100.261,-1.87135,0.97886,0.93454
321.941,100.488,-1.89051,0.96562,0.93422
322.641,100.7164,-1.91455,0.95575,0.9339
323.341,100.945,-1.93588,0.95397,0.93358
324.041,101.172,-1.9572,0.93819,0.93327
324.741,101.399,-1.97936,0.94212,0.93295
325.441,101.626,-1.99949,0.9271,0.93263
326.141,101.854,-2.01957,0.91551,0.93231
326.841,102.082,-2.03997,0.9075,0.93199
327.541,102.311,-2.06107,0.8851,0.93166
328.241,102.539,-2.07738,0.87569,0.93134
328.941,102.768,-2.09907,0.86182,0.93102
329.641,102.997,-2.11833,0.85787,0.9307
330.341,103.227,-2.13599,0.84571,0.93038
331.041,103.457,-2.15455,0.83162,0.93005
331.741,103.687,-2.17204,0.81549,0.92973
332.441,103.916,-2.18869,0.80514,0.92941
333.141,104.144,-2.20696,0.79274,0.92908
333.841,104.373,-2.22277,0.77885,0.92876
334.541,104.602,-2.23826,0.77158,0.92844
335.241,104.831,-2.25372,0.7559,0.92811
335.941,105.058,-2.26839,0.74685,0.92779
336.641,105.284,-2.28383,0.73151,0.92746
337.341,105.5114,-2.29747,0.72519,0.92713
338.041,105.74,-2.31214,0.70932,0.92681
338.741,105.968,-2.32503,0.69345,0.92648
339.441,106.196,-2.33973,0.66339,0.92615
340.141,106.424,-2.3516,0.66391,0.92582
340.841,106.651,-2.36282,0.64583,0.9255
341.541,106.88,-2.37415,0.62972,0.92517
342.241,107.1089,-2.38569,0.62046,0.92484
342.941,107.3375,-2.39394,0.60487,0.92451
343.641,107.567,-2.40367,0.58941,0.92418
344.341,107.796,-2.41381,0.57679,0.92385
345.041,108.026,-2.4204,0.57546,0.92352
345.741,108.2553,-2.43032,0.56361,0.92319
346.441,108.485,-2.43641,0.55505,0.92286
347.141,108.715,-2.44381,0.5348,0.92252
347.841,108.944,-2.45166,0.52959,0.92219
348.541,109.172,-2.45986,0.51977,0.92186
349.241,109.402,-2.46527,0.50371,0.92153
349.941,109.631,-2.47435,0.5093,0.92119
350.641,109.8617,-2.47981,0.49125,0.92086
351.341,110.092,-2.48816,0.48697,0.92052
352.041,110.323,-2.49395,0.48229,0.92019
352.741,110.553,-2.49777,0.4758,0.91985
353.441,110.782,-2.50462,0.47267,0.91952
354.141,111.011,-2.50728,0.47174,0.91918
354.841,111.239,-2.51295,0.46342,0.91885
355.541,111.467,-2.51688,0.46043,0.91851
356.241,111.696,-2.52208,0.44731,0.91817
356.941,111.924,-2.52497,0.44823,0.91783
357.641,112.152,-2.52852,0.43062,0.9175
358.341,112.381,-2.53141,0.43942,0.91716
359.041,112.61,-2.53669,0.43386,0.91682
359.741,112.839,-2.53935,0.44233,0.91648
360.441,113.068,-2.5431,0.4249,0.91614
361.141,113.298,-2.54435,0.41571,0.9158
361.841,113.527,-2.54725,0.41134,0.91546
362.541,113.756,-2.55275,0.41153,0.91511
363.241,113.986,-2.55326,0.40039,0.91477
363.941,114.216,-2.55592,0.41206,0.91443
364.641,114.445,-2.55854,0.39418,0.91409
365.341,114.675,-2.56117,0.40092,0.91374
366.041,114.905,-2.56381,0.38645,0.9134
366.741,115.134,-2.56515,0.39259,0.91306
367.441,115.363,-2.56779,0.38751,0.91271
368.141,115.592,-2.5717,0.38442,0.91237
368.841,115.82,-2.57164,0.37964,0.91202
369.541,116.05,-2.57434,0.36572,0.91168
370.241,116.279,-2.57739,0.37009,0.91133
370.941,116.508,-2.58058,0.3692,0.91098
371.641,116.737,-2.58225,0.36613,0.91064
372.341,116.965,-2.58548,0.36475,0.91029
373.041,117.195,-2.58749,0.35088,0.90994
373.741,117.425,-2.58961,0.34403,0.90959
374.441,117.6557,-2.59213,0.33814,0.90924
375.141,117.886,-2.59585,0.33726,0.90889
375.841,118.117,-2.59715,0.33924,0.90854
376.541,118.346,-2.60023,0.34234,0.90819
377.241,118.576,-2.60283,0.34078,0.90784
377.941,118.804,-2.6056,0.33543,0.90749
378.641,119.033,-2.60932,0.34323,0.90714
379.341,119.262,-2.61127,0.33091,0.90678
380.041,119.492,-2.61376,0.33293,0.90643
380.741,119.723,-2.61574,0.33665,0.90608
381.441,119.955,-2.61829,0.33397,0.90572
382.141,120.188,-2.62208,0.33548,0.90537
382.841,120.42,-2.62347,0.31975,0.90501
383.541,120.651,-2.62743,0.32186,0.90466
384.241,120.881,-2.62876,0.31861,0.9043
384.941,121.11,-2.63266,0.32058,0.90395
385.641,121.339,-2.63399,0.32532,0.90359
386.341,121.568,-2.63532,0.31372,0.90323
387.041,121.799,-2.63855,0.31438,0.90287
387.741,122.0295,-2.63965,0.31921,0.90252
388.441,122.2609,-2.64178,0.32283,0.90216
389.141,122.492,-2.64462,0.31699,0.9018
389.841,122.725,-2.64507,0.30969,0.90144
390.541,122.956,-2.64916,0.30983,0.90108
391.241,123.186,-2.65237,0.31918,0.90072
391.941,123.415,-2.65343,0.3139,0.90035
392.641,123.646,-2.65606,0.31377,0.89999
393.341,123.876,-2.65966,0.3149,0.89963
394.041,124.107,-2.66221,0.31109,0.89927
394.741,124.3366,-2.66494,0.30639,0.8989
395.441,124.567,-2.66625,0.31253,0.89854
396.141,124.7962,-2.66906,0.31508,0.89817
396.841,125.026,-2.67271,0.32215,0.89781
397.541,125.256,-2.67448,0.32378,0.89744
398.241,125.486,-2.67437,0.32475,0.89708
398.941,125.716,-2.67712,0.33074,0.89671
399.641,125.948,-2.68105,0.31332,0.89634
400.341,126.179,-2.68271,0.31106,0.89598
401.041,126.4116,-2.68532,0.3149,0.89561
401.741,126.644,-2.68633,0.3191,0.89524
402.441,126.877,-2.68901,0.3222,0.89487
403.141,127.1077,-2.69289,0.32506,0.8945
403.841,127.338,-2.6929,0.3419,0.89413
404.541,127.569,-2.69555,0.34205,0.89376
405.241,127.8,-2.69686,0.33219,0.89339
405.941,128.032,-2.70086,0.33494,0.89302
406.641,128.264,-2.7031,0.33786,0.89264
407.341,128.495,-2.70445,0.33658,0.89227
408.041,128.725,-2.7064,0.35055,0.8919
408.741,128.955,-2.70806,0.35424,0.89152
409.441,129.186,-2.70932,0.34618,0.89115
410.141,129.417,-2.71101,0.36312,0.89077
410.841,129.648,-2.71296,0.37305,0.8904
411.541,129.88,-2.71561,0.37291,0.89002
412.241,130.113,-2.71681,0.36732,0.88965
412.941,130.345,-2.71956,0.36441,0.88927
413.641,130.576,-2.72088,0.3719,0.88889
414.341,130.808,-2.72301,0.37467,0.88851
415.041,131.0397,-2.72351,0.38126,0.88813
415.741,131.2719,-2.72586,0.39398,0.88775
416.441,131.503,-2.72746,0.3832,0.88737
417.141,131.735,-2.72984,0.38791,0.88699
417.841,131.966,-2.73273,0.39221,0.88661
418.541,132.196,-2.73641,0.40456,0.88623
419.241,132.427,-2.73928,0.40938,0.88585
419.941,132.658,-2.73771,0.40251,0.88547
420.641,132.889,-2.73927,0.41161,0.88508
421.341,133.118,-2.73974,0.41467,0.8847
422.041,133.348,-2.74357,0.41429,0.88431
422.741,133.577,-2.74535,0.42349,0.88393
423.441,133.807,-2.74637,0.41981,0.88354
424.141,134.037,-2.74747,0.4211,0.88316
424.841,134.268,-2.75017,0.42725,0.88277
425.541,134.498,-2.7515,0.42652,0.88238
426.241,134.728,-2.75152,0.42835,0.882
426.941,134.959,-2.75312,0.43762,0.88161
427.641,135.1901,-2.75495,0.44164,0.88122
428.341,135.423,-2.75532,0.44503,0.88083
429.041,135.656,-2.75675,0.44769,0.88044
429.741,135.889,-2.75895,0.44831,0.88005
430.441,136.122,-2.76066,0.44582,0.87966
431.141,136.356,-2.76122,0.45025,0.87927
431.841,136.588,-2.76376,0.4408,0.87887
432.541,136.82,-2.76515,0.45787,0.87848
433.241,137.0513,-2.76742,0.45844,0.87809
433.941,137.283,-2.76761,0.46499,0.87769
434.641,137.515,-2.76882,0.46554,0.8773
435.341,137.747,-2.7709,0.45758,0.8769
436.041,137.979,-2.77091,0.46387,0.87651
436.741,138.21,-2.77417,0.46774,0.87611
437.441,138.44,-2.77383,0.47177,0.87571
438.141,138.671,-2.77648,0.46739,0.87532
438.841,138.903,-2.77846,0.47634,0.87492
439.541,139.133,-2.7789,0.46935,0.87452
440.241,139.365,-2.7783,0.46168,0.87412
440.941,139.596,-2.77989,0.46796,0.87372
441.641,139.827,-2.78108,0.47582,0.87332
442.341,140.059,-2.7812,0.47298,0.87292
443.041,140.291,-2.78393,0.47801,0.87252
443.741,140.523,-2.78275,0.47833,0.87212
444.441,140.756,-2.78694,0.47334,0.87171
445.141,140.989,-2.78585,0.4887,0.87131
445.841,141.221,-2.78678,0.48688,0.87091
446.541,141.455,-2.78777,0.47843,0.8705
447.241,141.688,-2.78872,0.47733,0.8701
447.941,141.921,-2.7894,0.46786,0.86969
448.641,142.152,-2.79075,0.48586,0.86928
449.341,142.384,-2.79207,0.48915,0.86888
450.041,142.616,-2.79339,0.4924,0.86847
450.741,142.847,-2.79501,0.49803,0.86806
451.441,143.0782,-2.79512,0.4944,0.86765
452.141,143.31,-2.79634,0.4957,0.86724
452.841,143.54,-2.79536,0.496,0.86683
453.541,143.772,-2.79804,0.50068,0.86642
454.241,144.005,-2.80083,0.49794,0.86601
454.941,144.239,-2.80082,0.49005,0.8656
455.641,144.471,-2.80118,0.50694,0.86519
456.341,144.703,-2.80413,0.50122,0.86477
457.041,144.935,-2.80612,0.4959,0.86436
457.741,145.169,-2.80746,0.4995,0.86395
458.441,145.402,-2.80642,0.49955,0.86353
459.141,145.635,-2.80906,0.49261,0.86312
459.841,145.867,-2.80841,0.5129,0.8627
460.541,146.099,-2.81143,0.49779,0.86228
461.241,146.331,-2.81138,0.50346,0.86187
461.941,146.564,-2.81237,0.49798,0.86145
462.641,146.796,-2.81245,0.52075,0.86103
463.341,147.029,-2.81191,0.52751,0.86061
464.041,147.26,-2.81271,0.52554,0.86019
464.741,147.493,-2.81542,0.55,0.85977
465.441,147.7251,-2.81664,0.54098,0.85935
466.141,147.958,-2.81664,0.54851,0.85893
466.841,148.19,-2.81795,0.55711,0.85851
467.541,148.422,-2.81926,0.55958,0.85808
468.241,148.654,-2.81927,0.56643,0.85766
468.941,148.887,-2.82156,0.55317,0.85724
469.641,149.12,-2.82176,0.55647,0.85681
470.341,149.3529,-2.8243,0.55909,0.85639
471.041,149.584,-2.8242,0.55376,0.85596
471.741,149.814,-2.82577,0.56632,0.85553
472.441,150.044,-2.82618,0.55947,0.85511
473.141,150.273,-2.82714,0.56508,0.85468
473.841,150.503,-2.82848,0.57162,0.85425
474.541,150.733,-2.82848,0.55841,0.85382
475.241,150.965,-2.83102,0.56353,0.85339
475.941,151.198,-2.83175,0.56644,0.85296
476.641,151.431,-2.83004,0.56604,0.85253
477.341,151.664,-2.83109,0.57747,0.8521
478.041,151.898,-2.83075,0.55102,0.85167
478.741,152.131,-2.83441,0.56194,0.85123
479.441,152.365,-2.83243,0.57226,0.8508
480.141,152.599,-2.83309,0.57464,0.85037
480.841,152.834,-2.8354,0.56094,0.84993
481.541,153.068,-2.8367,0.55056,0.8495
482.241,153.3014,-2.83638,0.54634,0.84906
482.941,153.535,-2.83813,0.54905,0.84862
483.641,153.768,-2.83868,0.53633,0.84819
484.341,154.001,-2.83737,0.53128,0.84775
485.041,154.233,-2.84033,0.51796,0.84731
485.741,154.464,-2.83766,0.5134,0.84687
486.441,154.697,-2.83673,0.48947,0.84643
487.141,154.93,-2.84078,0.49025,0.84599
487.841,155.163,-2.84011,0.4739,0.84555
488.541,155.394,-2.84307,0.49363,0.84511
489.241,155.626,-2.84175,0.48762,0.84467
489.941,155.856,-2.84187,0.50339,0.84422
490.641,156.086,-2.8441,0.50349,0.84378
491.341,156.318,-2.8432,0.48944,0.84334
492.041,156.549,-2.84581,0.49162,0.84289
492.741,156.781,-2.84581,0.50003,0.84245
493.441,157.013,-2.84682,0.48317,0.842
494.141,157.246,-2.84838,0.48211,0.84155
494.841,157.478,-2.85046,0.48839,0.84111
495.541,157.712,-2.8504,0.49109,0.84066
496.241,157.946,-2.85246,0.48544,0.84021
496.941,158.181,-2.85142,0.48192,0.83976
497.641,158.4144,-2.85404,0.48771,0.83931
498.341,158.647,-2.85404,0.47825,0.83886
499.041,158.88,-2.85402,0.4854,0.83841
499.741,159.114,-2.85603,0.49613,0.83796
500.441,159.346,-2.8564,0.47286,0.8375
501.141,159.578,-2.85537,0.47632,0.83705
501.841,159.81,-2.85569,0.46726,0.8366
502.541,160.0422,-2.857,0.4586,0.83614
503.241,160.275,-2.85931,0.472,0.83569
503.941,160.506,-2.86,0.46812,0.83523
504.641,160.738,-2.85964,0.45728,0.83477
505.341,160.97,-2.86062,0.44875,0.83432
506.041,161.202,-2.85996,0.4463,0.83386
506.741,161.437,-2.86128,0.44395,0.8334
507.441,161.672,-2.8613,0.44582,0.83294
508.141,161.9075,-2.86208,0.43188,0.83248
508.841,162.143,-2.85987,0.43212,0.83202
509.541,162.3781,-2.8623,0.42744,0.83156
510.241,162.613,-2.8649,0.41355,0.8311
510.941,162.847,-2.86453,0.40919,0.83064
511.641,163.081,-2.86457,0.39141,0.83017
512.341,163.313,-2.86379,0.39617,0.82971
513.041,163.544,-2.86457,0.3906,0.82925
513.741,163.775,-2.86488,0.38252,0.82878
514.441,164.007,-2.86357,0.37869,0.82832
515.141,164.238,-2.86621,0.38192,0.82785
515.841,164.471,-2.86689,0.36917,0.82738
516.541,164.704,-2.8655,0.38057,0.82692
517.241,164.937,-2.8656,0.37618,0.82645
517.941,165.171,-2.86687,0.38229,0.82598
518.641,165.406,-2.86679,0.38032,0.82551
519.341,165.64,-2.86857,0.38492,0.82504
520.041,165.876,-2.86979,0.38621,0.82457
520.741,166.111,-2.8695,0.39378,0.8241
521.441,166.348,-2.87148,0.38632,0.82362
522.141,166.584,-2.87148,0.38064,0.82315
522.841,166.821,-2.87279,0.38107,0.82268
523.541,167.056,-2.87279,0.39265,0.8222
524.241,167.2901,-2.87279,0.38739,0.82173
524.941,167.524,-2.87345,0.38996,0.82125
525.641,167.757,-2.87442,0.39331,0.82078
526.341,167.99,-2.87412,0.40087,0.8203
527.041,168.2241,-2.87543,0.39081,0.81982
527.741,168.457,-2.87496,0.39725,0.81935
528.441,168.69,-2.87503,0.40475,0.81887
529.141,168.923,-2.87782,0.39827,0.81839
529.841,169.156,-2.87773,0.40737,0.81791
530.541,169.39,-2.87773,0.4078,0.81743
531.241,169.623,-2.87773,0.41715,0.81694
531.941,169.858,-2.87773,0.40918,0.81646
532.641,170.092,-2.87905,0.42196,0.81598
533.341,170.327,-2.87974,0.43275,0.8155
534.041,170.562,-2.87905,0.41614,0.81501
534.741,170.796,-2.88102,0.41886,0.81453
535.441,171.03,-2.87979,0.41101,0.81404
536.141,171.263,-2.88143,0.41655,0.81356
536.841,171.496,-2.88073,0.41874,0.81307
537.541,171.729,-2.88201,0.43037,0.81258
538.241,171.964,-2.88312,0.4266,0.81209
538.941,172.197,-2.88267,0.42277,0.81161
539.641,172.43,-2.88398,0.43232,0.81112
540.341,172.663,-2.88412,0.43233,0.81063
541.041,172.8964,-2.88398,0.42313,0.81014
541.741,173.131,-2.884,0.44067,0.80965
542.441,173.365,-2.88563,0.41932,0.80915
543.141,173.6,-2.88563,0.41802,0.80866
543.841,173.836,-2.88563,0.43107,0.80817
544.541,174.073,-2.88662,0.42234,0.80767
545.241,174.309,-2.88957,0.42098,0.80718
545.941,174.544,-2.89035,0.43854,0.80668
546.641,174.779,-2.89024,0.444,0.80619
547.341,175.014,-2.89156,0.43725,0.80569
548.041,175.249,-2.89156,0.43666,0.80519
548.741,175.484,-2.89156,0.44566,0.8047
549.441,175.719,-2.89288,0.43778,0.8042
550.141,175.953,-2.89352,0.4457,0.8037
550.841,176.1874,-2.89363,0.44997,0.8032
551.541,176.421,-2.89435,0.44046,0.8027
552.241,176.655,-2.89452,0.44285,0.8022
552.941,176.888,-2.89485,0.4344,0.80169
553.641,177.122,-2.89479,0.42984,0.80119
554.341,177.356,-2.89616,0.44046,0.80069
555.041,177.591,-2.89746,0.43098,0.80018
555.741,177.825,-2.89484,0.42387,0.79968
556.441,178.059,-2.89616,0.42891,0.79917
557.141,178.293,-2.8966,0.42613,0.79867
557.841,178.526,-2.89686,0.43025,0.79816
558.541,178.759,-2.89771,0.44431,0.79765
559.241,178.992,-2.89851,0.44198,0.79715
559.941,179.226,-2.89946,0.44358,0.79664
560.641,179.46,-2.89945,0.44479,0.79613
561.341,179.695,-2.89945,0.45525,0.79562
562.041,179.93,-2.89978,0.44714,0.79511
562.741,180.164,-2.90207,0.46272,0.7946
563.441,180.399,-2.89978,0.44411,0.79409
564.141,180.634,-2.90109,0.45649,0.79357
564.841,180.869,-2.89978,0.44432,0.79306
565.541,181.1033,-2.90105,0.45756,0.79255
566.241,181.338,-2.90111,0.46412,0.79203
566.941,181.573,-2.90241,0.45662,0.79152
567.641,181.81,-2.9034,0.45462,0.791
568.341,182.045,-2.90367,0.45379,0.79048
569.041,182.281,-2.905,0.45024,0.78997
569.741,182.516,-2.90504,0.46002,0.78945
570.441,182.751,-2.90372,0.46765,0.78893
571.141,182.986,-2.90603,0.4444,0.78841
571.841,183.221,-2.90633,0.46148,0.78789
572.541,183.457,-2.90669,0.45394,0.78737
573.241,183.693,-2.90735,0.46064,0.78685
573.941,183.929,-2.90735,0.46757,0.78633
574.641,184.167,-2.90866,0.47084,0.78581
575.341,184.405,-2.90865,0.46187,0.78528
576.041,184.641,-2.91,0.46969,0.78476
576.741,184.876,-2.90998,0.47213,0.78424
577.441,185.109,-2.91,0.48023,0.78371
578.141,185.343,-2.91064,0.4856,0.78318
578.841,185.5761,-2.90932,0.48399,0.78266
579.541,185.81,-2.91131,0.48239,0.78213
580.241,186.044,-2.91,0.49214,0.7816
580.941,186.278,-2.90998,0.49606,0.78107
581.641,186.5126,-2.90999,0.51179,0.78055
582.341,186.746,-2.90996,0.49299,0.78002
583.041,186.98,-2.90892,0.49805,0.77949
583.741,187.2151,-2.91064,0.5086,0.77895
584.441,187.451,-2.91064,0.51679,0.77842
585.141,187.685,-2.91097,0.51483,0.77789
585.841,187.92,-2.91196,0.51775,0.77736
586.541,188.155,-2.91196,0.53801,0.77682
587.241,188.389,-2.91391,0.53209,0.77629
587.941,188.6219,-2.9113,0.52121,0.77576
588.641,188.855,-2.91258,0.53125,0.77522
589.341,189.089,-2.91261,0.53249,0.77468
590.041,189.323,-2.91393,0.53192,0.77415
590.741,189.557,-2.91269,0.53859,0.77361
591.441,189.791,-2.9136,0.53912,0.77307
592.141,190.025,-2.91369,0.53422,0.77253
592.841,190.2592,-2.91426,0.55322,0.77199
593.541,190.495,-2.91426,0.55172,0.77145
594.241,190.73,-2.91426,0.56285,0.77091
594.941,190.965,-2.91426,0.57034,0.77037
595.641,191.2,-2.9136,0.56585,0.76983
596.341,191.435,-2.9136,0.58096,0.76929
597.041,191.671,-2.91424,0.59166,0.76874
597.741,191.908,-2.91564,0.59974,0.7682
598.441,192.144,-2.91557,0.59236,0.76765
599.141,192.38,-2.91557,0.58941,0.76711
599.841,192.616,-2.9153,0.61431,0.76656
600.541,192.852,-2.91795,0.6003,0.76602
601.241,193.088,-2.9171,0.61905,0.76547
601.941,193.323,-2.9158,0.60169,0.76492
602.641,193.559,-2.91722,0.62537,0.76437
603.341,193.794,-2.91989,0.62292,0.76382
604.041,194.03,-2.91919,0.64555,0.76327
604.741,194.266,-2.91854,0.64608,0.76272
605.441,194.502,-2.9209,0.63345,0.76217
606.141,194.738,-2.92018,0.64218,0.76162
606.841,194.973,-2.92017,0.6653,0.76107
607.541,195.208,-2.92091,0.64395,0.76051
608.241,195.442,-2.92215,0.6592,0.75996
608.941,195.676,-2.92016,0.65092,0.75941
609.641,195.911,-2.9215,0.67034,0.75885
610.341,196.147,-2.9215,0.67412,0.75829
611.041,196.383,-2.92248,0.67865,0.75774
611.741,196.621,-2.92215,0.68182,0.75718
612.441,196.86,-2.92215,0.68447,0.75662
613.141,197.097,-2.92213,0.6929,0.75607
613.841,197.335,-2.92215,0.70164,0.75551
614.541,197.572,-2.92215,0.70348,0.75495
615.241,197.8095,-2.92282,0.71248,0.75439
615.941,198.046,-2.9228,0.71943,0.75383
616.641,198.2812,-2.92248,0.72406,0.75326
617.341,198.517,-2.92248,0.7318,0.7527
618.041,198.753,-2.92259,0.73363,0.75214
618.741,198.9905,-2.92215,0.74811,0.75158
619.441,199.228,-2.92319,0.75137,0.75101
620.141,199.465,-2.92347,0.77017,0.75045
620.841,199.7,-2.92347,0.78335,0.74988
621.541,199.935,-2.92379,0.7852,0.74932
622.241,200.168,-2.92347,0.79355,0.74875
622.941,200.402,-2.92413,0.79412,0.74818
623.641,200.635,-2.92408,0.81715,0.74762
624.341,200.87,-2.92415,0.81332,0.74705
625.041,201.106,-2.92549,0.81702,0.74648
625.741,201.343,-2.92544,0.82076,0.74591
626.441,201.5811,-2.92577,0.82521,0.74534
627.141,201.8177,-2.92577,0.82514,0.74477
627.841,202.054,-2.92709,0.84123,0.7442
628.541,202.289,-2.92577,0.84815,0.74362
629.241,202.524,-2.92709,0.83426,0.74305
629.941,202.76,-2.92709,0.84949,0.74248
630.641,202.996,-2.92854,0.85682,0.7419
631.341,203.232,-2.92841,0.86392,0.74133
632.041,203.469,-2.92775,0.85139,0.74075
632.741,203.706,-2.92996,0.85876,0.74018
633.441,203.943,-2.92847,0.85713,0.7396
634.141,204.18,-2.93008,0.86044,0.73902
634.841,204.417,-2.92841,0.84112,0.73845
635.541,204.652,-2.92972,0.84644,0.73787
636.241,204.887,-2.93071,0.83183,0.73729
636.941,205.121,-2.93036,0.84235,0.73671
637.641,205.355,-2.9317,0.85963,0.73613
638.341,205.589,-2.93137,0.85266,0.73555
639.041,205.824,-2.93281,0.85143,0.73497
639.741,206.06,-2.93203,0.84907,0.73439
640.441,206.296,-2.93331,0.85902,0.7338
641.141,206.532,-2.93203,0.87076,0.73322
641.841,206.769,-2.93169,0.85972,0.73264
642.541,207.007,-2.93235,0.86145,0.73205
643.241,207.246,-2.93103,0.85775,0.73147
643.941,207.485,-2.93236,0.85172,0.73088
644.641,207.7231,-2.93218,0.85689,0.73029
645.341,207.96,-2.93235,0.84774,0.72971
646.041,208.1954,-2.93289,0.85855,0.72912
646.741,208.431,-2.93168,0.86278,0.72853
647.441,208.667,-2.93103,0.86956,0.72794
648.141,208.903,-2.93202,0.8642,0.72735
648.841,209.138,-2.93157,0.86087,0.72676
649.541,209.372,-2.93205,0.86509,0.72617
650.241,209.6067,-2.93225,0.86614,0.72558
650.941,209.842,-2.93302,0.87247,0.72499
651.641,210.079,-2.93235,0.8829,0.7244
652.341,210.317,-2.93103,0.87385,0.7238
653.041,210.554,-2.93367,0.86842,0.72321
653.741,210.791,-2.93235,0.88436,0.72262
654.441,211.026,-2.93301,0.87631,0.72202
655.141,211.261,-2.93536,0.89271,0.72143
655.841,211.495,-2.93471,0.88745,0.72083
656.541,211.731,-2.93463,0.89727,0.72023
657.241,211.968,-2.93664,0.8893,0.71964
657.941,212.205,-2.9363,0.87668,0.71904
658.641,212.442,-2.93531,0.87966,0.71844
659.341,212.677,-2.9353,0.88486,0.71784
660.041,212.912,-2.93578,0.89273,0.71724
660.741,213.147,-2.93531,0.89807,0.71664
661.441,213.382,-2.93564,0.90536,0.71604
662.141,213.617,-2.93598,0.90279,0.71544
662.841,213.852,-2.93533,0.89548,0.71484
663.541,214.087,-2.93545,0.90573,0.71424
664.241,214.323,-2.93598,0.9089,0.71363
664.941,214.56,-2.93663,0.90028,0.71303
665.641,214.797,-2.93532,0.89637,0.71243
666.341,215.035,-2.93761,0.89975,0.71182
667.041,215.272,-2.93663,0.9116,0.71122
667.741,215.509,-2.93795,0.91559,0.71061
668.441,215.745,-2.93927,0.91461,0.71
669.141,215.983,-2.93861,0.90248,0.7094
669.841,216.22,-2.93999,0.90865,0.70879
670.541,216.456,-2.93993,0.91196,0.70818
671.241,216.692,-2.93929,0.91955,0.70757
671.941,216.9266,-2.93925,0.91773,0.70696
672.641,217.162,-2.93926,0.91877,0.70635
673.341,217.397,-2.94058,0.91705,0.70574
674.041,217.635,-2.9419,0.92734,0.70513
674.741,217.872,-2.94363,0.94133,0.70452
675.441,218.11,-2.94345,0.94039,0.70391
676.141,218.347,-2.94256,0.94192,0.70329
676.841,218.585,-2.94394,0.94773,0.70268
677.541,218.823,-2.94288,0.93351,0.70207
678.241,219.06,-2.9442,0.91916,0.70145
678.941,219.296,-2.94222,0.92525,0.70084
679.641,219.53,-2.94486,0.94984,0.70022
680.341,219.765,-2.94355,0.91947,0.69961
681.041,219.999,-2.94618,0.92655,0.69899
681.741,220.234,-2.94619,0.94606,0.69837
682.441,220.4694,-2.94683,0.949,0.69775
683.141,220.708,-2.94684,0.95397,0.69714
683.841,220.947,-2.94683,0.9318,0.69652
684.541,221.186,-2.94651,0.9404,0.6959
685.241,221.423,-2.94651,0.95535,0.69528
685.941,221.659,-2.94651,0.94612,0.69466
686.641,221.894,-2.94722,0.95733,0.69404
687.341,222.129,-2.94767,0.96154,0.69341
688.041,222.3647,-2.94716,0.92832,0.69279
688.741,222.6,-2.94848,0.93903,0.69217
689.441,222.835,-2.94856,0.94225,0.69155
690.141,223.07,-2.94848,0.92935,0.69092
690.841,223.305,-2.94884,0.93855,0.6903
691.541,223.542,-2.94947,0.94503,0.68967
692.241,223.7796,-2.94815,0.93288,0.68905
692.941,224.017,-2.9498,0.94083,0.68842
693.641,224.255,-2.95112,0.92381,0.68779
694.341,224.492,-2.9508,0.93463,0.68717
695.041,224.729,-2.95131,0.93358,0.68654
695.741,224.967,-2.95145,0.92433,0.68591
696.441,225.205,-2.95276,0.91711,0.68528
697.141,225.442,-2.95284,0.91554,0.68465
697.841,225.678,-2.95135,0.90564,0.68402
698.541,225.914,-2.95276,0.91222,0.68339
699.241,226.151,-2.95407,0.91476,0.68276
699.941,226.388,-2.95275,0.90842,0.68213
700.641,226.625,-2.95144,0.90688,0.6815
701.341,226.862,-2.95275,0.90432,0.68087
702.041,227.099,-2.95144,0.89679,0.68023
702.741,227.336,-2.95394,0.90375,0.6796
703.441,227.573,-2.95276,0.90498,0.67897
704.141,227.809,-2.95474,0.91112,0.67833
704.841,228.044,-2.95309,0.90546,0.6777
705.541,228.278,-2.95309,0.91615,0.67706
706.241,228.514,-2.9544,0.89807,0.67643
706.941,228.75,-2.95343,0.89626,0.67579
707.641,228.987,-2.95473,0.89306,0.67515
708.341,229.224,-2.9558,0.88072,0.67452
709.041,229.462,-2.95572,0.8929,0.67388
709.741,229.702,-2.95506,0.87958,0.67324
710.441,229.943,-2.95639,0.8786,0.6726
711.141,230.183,-2.95473,0.88662,0.67196
711.841,230.4217,-2.95605,0.88938,0.67132
712.541,230.66,-2.95683,0.8856,0.67068
713.241,230.896,-2.95556,0.89596,0.67004
713.941,231.132,-2.95577,0.90193,0.6694
714.641,231.367,-2.95539,0.89661,0.66875
715.341,231.602,-2.95534,0.89105,0.66811
716.041,231.838,-2.95578,0.88922,0.66747
716.741,232.075,-2.95558,0.894,0.66682
717.441,232.313,-2.95572,0.89743,0.66618
718.141,232.5511,-2.95704,0.89802,0.66554
718.841,232.789,-2.95777,0.89316,0.66489
719.541,233.028,-2.95546,0.8947,0.66425
720.241,233.2657,-2.95736,0.90201,0.6636
720.941,233.504,-2.9577,0.9003,0.66295
721.641,233.741,-2.95874,0.89216,0.66231
722.341,233.979,-2.95769,0.88394,0.66166
723.041,234.215,-2.96031,0.88028,0.66101
723.741,234.451,-2.96137,0.87023,0.66036
724.441,234.687,-2.96131,0.86626,0.65971
725.141,234.923,-2.95999,0.86199,0.65906
725.841,235.159,-2.96107,0.8828,0.65841
726.541,235.395,-2.96117,0.86821,0.65776
727.241,235.632,-2.95934,0.86073,0.65711
727.941,235.869,-2.96065,0.85657,0.65646
728.641,236.107,-2.96018,0.86216,0.65581
729.341,236.344,-2.96065,0.85224,0.65516
730.041,236.582,-2.96065,0.85209,0.6545
730.741,236.819,-2.96125,0.84702,0.65385
731.441,237.057,-2.9623,0.84049,0.6532
732.141,237.294,-2.96403,0.85005,0.65254
732.841,237.532,-2.9623,0.85362,0.65189
733.541,237.767,-2.96197,0.84236,0.65123
734.241,238.001,-2.96328,0.85889,0.65058
734.941,238.234,-2.96327,0.84463,0.64992
735.641,238.4678,-2.96427,0.83462,0.64926
736.341,238.703,-2.96328,0.83855,0.64861
737.041,238.938,-2.96396,0.84401,0.64795
737.741,239.1756,-2.96526,0.82615,0.64729
738.441,239.414,-2.96529,0.82872,0.64663
739.141,239.655,-2.96527,0.84136,0.64598
739.841,239.8965,-2.96578,0.82255,0.64532
740.541,240.137,-2.96723,0.8296,0.64466
741.241,240.375,-2.96724,0.82998,0.644
741.941,240.6122,-2.96756,0.8425,0.64334
742.641,240.849,-2.96658,0.82643,0.64268
743.341,241.085,-2.96757,0.82045,0.64201
744.041,241.321,-2.96711,0.83279,0.64135
744.741,241.559,-2.96579,0.82395,0.64069
745.441,241.797,-2.96855,0.81772,0.64003
746.141,242.037,-2.96757,0.80172,0.63936
746.841,242.274,-2.96851,0.82009,0.6387
747.541,242.511,-2.96889,0.82373,0.63804
748.241,242.748,-2.96921,0.81748,0.63737
748.941,242.985,-2.96921,0.82506,0.63671
749.641,243.222,-2.9702,0.82162,0.63604
750.341,243.459,-2.96921,0.81756,0.63538
751.041,243.697,-2.97151,0.82404,0.63471
751.741,243.935,-2.97151,0.81684,0.63404
752.441,244.1729,-2.97022,0.81109,0.63338
753.141,244.409,-2.97117,0.81438,0.63271
753.841,244.646,-2.97053,0.8029,0.63204
754.541,244.882,-2.97316,0.80877,0.63137
755.241,245.121,-2.97053,0.81655,0.6307
755.941,245.358,-2.97185,0.80985,0.63003
756.641,245.596,-2.97185,0.78243,0.62936
757.341,245.8328,-2.97119,0.79131,0.62869
758.041,246.07,-2.97257,0.79145,0.62802
758.741,246.307,-2.97433,0.80508,0.62735
759.441,246.544,-2.97284,0.79439,0.62668
760.141,246.782,-2.97349,0.81334,0.62601
760.841,247.021,-2.97237,0.80611,0.62534
761.541,247.259,-2.97353,0.81893,0.62467
762.241,247.496,-2.97184,0.79752,0.62399
762.941,247.732,-2.97352,0.81648,0.62332
763.641,247.969,-2.97415,0.80274,0.62265
764.341,248.206,-2.97419,0.80077,0.62197
765.041,248.443,-2.97251,0.80088,0.6213
765.741,248.68,-2.97348,0.79053,0.62062
766.441,248.916,-2.97214,0.79981,0.61995
767.141,249.152,-2.97448,0.80656,0.61927
767.841,249.39,-2.97308,0.80898,0.6186
768.541,249.629,-2.97282,0.77838,0.61792
769.241,249.868,-2.9748,0.80144,0.61724
769.941,250.107,-2.97349,0.78651,0.61657
770.641,250.346,-2.97482,0.78502,0.61589
771.341,250.586,-2.9748,0.81059,0.61521
772.041,250.8248,-2.97525,0.79835,0.61453
772.741,251.063,-2.97612,0.78749,0.61386
773.441,251.3,-2.97612,0.80991,0.61318
774.141,251.537,-2.97744,0.80951,0.6125
774.841,251.773,-2.97744,0.80508,0.61182
775.541,252.0088,-2.97875,0.82318,0.61114
776.241,252.244,-2.98004,0.80189,0.61046
776.941,252.48,-2.98004,0.8002,0.60978
777.641,252.716,-2.97908,0.813,0.6091
778.341,252.952,-2.98007,0.83793,0.60841
779.041,253.189,-2.97916,0.84306,0.60773
779.741,253.426,-2.98098,0.85409,0.60705
780.441,253.664,-2.97974,0.84431,0.60637
781.141,253.9036,-2.97977,0.85478,0.60568
781.841,254.142,-2.98072,0.85625,0.605
782.541,254.381,-2.98072,0.86545,0.60432
783.241,254.619,-2.98171,0.8621,0.60363
783.941,254.858,-2.98171,0.86067,0.60295
784.641,255.096,-2.98171,0.86874,0.60226
785.341,255.333,-2.98106,0.8624,0.60158
786.041,255.571,-2.98204,0.87822,0.60089
786.741,255.807,-2.98344,0.88372,0.60021
787.441,256.044,-2.9824,0.88468,0.59952
788.141,256.281,-2.98427,0.89732,0.59884
788.841,256.519,-2.98556,0.88369,0.59815
789.541,256.757,-2.98558,0.91318,0.59746
790.241,256.996,-2.98568,0.89317,0.59677
790.941,257.2343,-2.98566,0.88751,0.59609
791.641,257.472,-2.9883,0.90624,0.5954
792.341,257.709,-2.98731,0.89219,0.59471
793.041,257.944,-2.98776,0.90586,0.59402
793.741,258.18,-2.98698,0.91133,0.59333
794.441,258.4159,-2.98896,0.91362,0.59264
795.141,258.652,-2.9883,0.9175,0.59195
795.841,258.889,-2.98807,0.907,0.59126
796.541,259.128,-2.98896,0.92212,0.59057
797.241,259.366,-2.9906,0.91567,0.58988
797.941,259.605,-2.98928,0.89832,0.58919
798.641,259.844,-2.98961,0.90565,0.5885
799.041,259.981,-2.98961,0.9004,0.58811