File: 01_Data/Cotton_Rug/Cone/Cotton_Rug_HRRPUA_50.csv
Time after Ignition,Cotton_Rug_R1,Cotton_Rug_R2,Cotton_Rug_R3,Mean,Std. Dev.
0.0,41.2,28.8,33.0,34.3,6.3
0.25,46.0,35.6,39.5,40.4,5.2
0.5,51.1,41.2,44.2,45.5,5.1
0.75,59.6,47.2,50.3,52.3,6.4
1.0,59.8,51.2,58.8,56.6,4.7
1.25,66.6,57.2,67.5,63.8,5.7
1.5,73.9,63.8,74.1,70.6,5.9
1.75,79.8,72.1,81.2,77.7,4.9
2.0,85.3,78.1,86.4,83.3,4.5
2.25,90.9,83.7,95.9,90.2,6.1
2.5,97.5,93.3,102.8,97.9,4.7
2.75,103.8,101.3,110.3,105.1,4.7
3.0,110.2,105.5,115.9,110.5,5.2
3.25,115.1,113.9,123.6,117.5,5.3
3.5,123.2,121.9,131.1,125.4,4.9
3.75,128.3,127.9,138.7,131.7,6.1
4.0,134.8,134.5,146.2,138.5,6.6
4.25,140.1,139.9,151.9,144.0,6.9
4.5,148.4,147.3,158.5,151.4,6.2
4.75,153.2,155.4,164.2,157.6,5.8
5.0,159.0,160.5,170.3,163.3,6.2
5.25,168.2,167.3,174.6,170.0,4.0
5.5,176.2,171.5,180.7,176.1,4.6
5.75,182.2,182.0,190.7,185.0,4.9
6.0,184.5,182.9,195.5,187.6,6.8
6.25,190.4,196.7,203.1,196.7,6.3
6.5,191.2,205.2,208.6,201.7,9.2
6.75,196.3,202.8,215.5,204.9,9.8
7.0,209.3,208.5,217.3,211.7,4.9
7.25,206.5,217.8,228.7,217.7,11.1
7.5,211.1,219.8,229.8,220.2,9.4
7.75,210.8,224.8,235.3,223.6,12.3
8.0,223.5,227.5,243.0,231.3,10.3
8.25,227.7,235.6,249.1,237.5,10.8
8.5,231.1,241.3,252.4,241.6,10.7
8.75,234.6,241.5,257.1,244.4,11.5
9.0,233.0,251.6,260.1,248.2,13.8
9.25,238.6,247.7,264.8,250.4,13.3
9.5,247.8,261.0,273.4,260.8,12.8
9.75,247.9,263.0,272.9,261.3,12.6
10.0,250.9,267.6,283.8,267.4,16.4
10.25,254.6,269.7,278.8,267.7,12.2
10.5,261.7,278.5,291.1,277.1,14.7
10.75,266.3,280.9,295.8,281.0,14.7
11.0,267.6,291.9,298.2,285.9,16.1
11.25,271.7,297.9,308.0,292.5,18.7
11.5,275.5,291.4,306.9,291.3,15.7
11.75,283.1,297.7,313.0,297.9,14.9
12.0,285.0,304.2,320.0,303.1,17.5
12.25,289.7,308.6,322.5,306.9,16.4
12.5,286.6,308.6,326.7,307.3,20.0
12.75,286.8,321.1,339.1,315.7,26.6
13.0,298.5,320.1,345.3,321.3,23.4
13.25,302.6,330.0,350.4,327.7,24.0
13.5,302.1,333.1,362.4,332.5,30.2
13.75,305.9,335.9,359.6,333.8,26.9
14.0,312.2,341.2,367.8,340.4,27.8
14.25,317.3,346.3,375.7,346.4,29.2
14.5,321.6,347.1,380.2,349.6,29.4
14.75,320.3,353.4,387.5,353.7,33.6
15.0,321.3,356.0,397.3,358.2,38.1
15.25,332.5,365.3,400.7,366.2,34.1
15.5,330.7,367.2,399.2,365.7,34.3
15.75,333.0,364.9,395.8,364.6,31.4
16.0,355.0,371.9,403.9,376.9,24.8
16.25,338.4,377.6,401.6,372.5,31.9
16.5,359.9,384.5,414.9,386.4,27.6
16.75,356.7,386.9,427.6,390.4,35.6
17.0,355.9,383.1,416.2,385.1,30.2
17.25,355.6,391.3,420.7,389.2,32.6
17.5,360.4,395.2,426.5,394.0,33.1
17.75,374.5,393.1,427.7,398.4,27.0
18.0,380.4,400.0,432.2,404.2,26.2
18.25,363.0,396.1,446.1,401.7,41.8
18.5,371.0,412.7,449.4,411.1,39.2
18.75,382.4,416.0,457.9,418.8,37.8
19.0,381.5,422.0,456.4,419.9,37.5
19.25,391.1,417.7,460.7,423.1,35.1
19.5,390.3,415.5,449.3,418.3,29.6
19.75,391.5,428.8,463.9,428.1,36.2
20.0,399.7,438.9,480.8,439.8,40.5
20.25,404.4,443.2,479.1,442.2,37.3
20.5,407.1,449.2,469.7,442.0,31.9
20.75,406.0,450.2,493.6,449.9,43.8
21.0,418.1,456.0,485.5,453.2,33.8
21.25,422.5,452.2,501.1,458.6,39.7
21.5,421.3,464.6,498.2,461.3,38.5
21.75,429.1,474.8,507.8,470.6,39.5
22.0,423.0,457.4,506.7,462.4,42.1
22.25,430.9,463.4,514.9,469.7,42.4
22.5,434.2,471.2,522.0,475.8,44.1
22.75,440.3,477.2,529.1,482.2,44.6
23.0,438.8,491.5,529.5,486.6,45.5
23.25,445.7,484.9,520.0,483.5,37.1
23.5,440.8,486.7,545.9,491.1,52.7
23.75,448.4,491.4,529.3,489.7,40.5
24.0,448.8,494.6,544.0,495.8,47.6
24.25,460.0,513.9,542.7,505.5,41.9
24.5,464.5,511.4,530.2,502.0,33.8
24.75,472.2,492.5,547.1,503.9,38.7
25.0,458.7,509.7,554.1,507.5,47.8
25.25,463.7,519.2,551.7,511.5,44.5
25.5,478.5,511.9,550.5,513.6,36.0
25.75,485.3,515.3,563.4,521.4,39.4
26.0,470.6,514.0,556.5,513.7,43.0
26.25,475.8,519.4,551.6,515.6,38.0
26.5,483.1,540.8,552.8,525.6,37.2
26.75,491.0,535.6,569.7,532.1,39.4
27.0,490.1,531.7,573.2,531.7,41.5
27.25,496.0,537.6,570.2,534.6,37.2
27.5,486.8,541.6,572.5,533.6,43.4
27.75,498.0,560.3,580.2,546.2,42.9
28.0,500.4,547.5,572.3,540.1,36.5
28.25,505.9,546.3,569.4,540.5,32.2
28.5,494.2,549.5,581.1,541.6,44.0
28.75,489.5,555.1,586.9,543.8,49.7
29.0,499.0,559.0,593.6,550.6,47.9
29.25,502.8,557.5,576.3,545.5,38.2
29.5,493.6,547.6,573.8,538.3,40.9
29.75,504.8,553.3,588.9,549.0,42.2
30.0,514.8,566.0,578.5,553.1,33.7
30.25,516.1,565.6,577.8,553.2,32.7
30.5,512.6,550.0,583.3,548.6,35.4
30.75,503.4,565.4,587.4,552.1,43.5
31.0,532.6,564.8,578.9,558.7,23.7
31.25,501.0,557.2,576.9,545.0,39.4
31.5,520.6,581.6,573.5,558.6,33.2
31.75,524.8,566.3,571.4,554.2,25.6
32.0,522.2,571.1,577.0,556.8,30.1
32.25,526.2,580.3,589.7,565.4,34.3
32.5,510.0,574.4,570.8,551.7,36.2
32.75,526.0,561.2,578.5,555.3,26.8
33.0,511.7,581.1,579.5,557.4,39.6
33.25,530.2,595.8,577.8,567.9,33.9
33.5,514.6,550.5,584.5,549.9,35.0
33.75,524.3,548.8,586.4,553.2,31.3
34.0,526.2,560.3,561.3,549.2,20.0
34.25,516.2,563.3,571.7,550.4,29.9
34.5,528.3,562.3,584.1,558.2,28.1
34.75,514.2,583.9,565.9,554.7,36.1
35.0,520.8,566.3,563.8,550.3,25.6
35.25,522.7,546.3,570.5,546.5,23.9
35.5,528.2,553.6,560.6,547.5,17.1
35.75,520.8,564.7,562.6,549.4,24.7
36.0,519.5,562.5,560.7,547.6,24.4
36.25,519.6,550.4,563.5,544.5,22.5
36.5,519.0,552.1,551.5,540.8,18.9
36.75,530.7,557.2,546.0,544.6,13.3
37.0,521.4,539.6,558.1,539.7,18.3
37.25,515.8,548.7,553.7,539.4,20.6
37.5,512.9,554.2,534.2,533.7,20.6
37.75,515.8,541.6,552.2,536.5,18.7
38.0,522.5,550.1,541.3,538.0,14.1
38.25,515.7,555.7,538.1,536.5,20.0
38.5,509.2,537.2,538.2,528.2,16.5
38.75,512.3,531.8,533.2,525.8,11.7
39.0,521.3,535.3,540.0,532.2,9.8
39.25,499.0,530.4,524.7,518.1,16.7
39.5,498.5,526.1,532.5,519.0,18.1
39.75,490.7,503.6,533.9,509.4,22.2
40.0,505.7,512.0,519.0,512.3,6.7
40.25,501.7,516.5,519.1,512.4,9.4
40.5,506.0,523.6,511.8,513.8,9.0
40.75,496.7,503.5,517.4,505.9,10.5
41.0,489.3,488.4,496.2,491.3,4.3
41.25,483.3,502.4,489.4,491.7,9.7
41.5,482.7,496.6,503.2,494.2,10.5
41.75,487.6,495.7,508.7,497.3,10.7
42.0,480.8,479.1,491.7,483.9,6.8
42.25,483.0,496.1,490.8,490.0,6.6
42.5,487.7,469.4,479.4,478.8,9.2
42.75,479.1,474.1,488.1,480.5,7.1
43.0,485.2,471.6,478.5,478.4,6.8
43.25,481.4,470.4,474.0,475.3,5.6
43.5,482.1,461.2,468.7,470.7,10.6
43.75,481.0,457.3,461.0,466.4,12.7
44.0,471.8,463.5,465.9,467.0,4.3
44.25,475.6,451.2,458.1,461.6,12.6
44.5,465.7,435.3,445.1,448.7,15.5
44.75,463.2,451.6,440.4,451.7,11.4
45.0,460.2,440.2,433.3,444.6,13.9
45.25,457.2,433.0,437.3,442.5,12.9
45.5,456.9,422.6,422.2,433.9,19.9
45.75,449.8,422.2,429.1,433.7,14.3
46.0,457.2,410.8,421.7,429.9,24.3
46.25,451.7,405.9,414.8,424.1,24.3
46.5,441.4,407.4,409.7,419.5,19.0
46.75,435.6,392.9,405.3,411.3,21.9
47.0,432.1,381.1,395.4,402.9,26.3
47.25,437.6,378.6,401.1,405.8,29.8
47.5,435.4,371.3,388.3,398.3,33.2
47.75,434.8,355.9,383.0,391.2,40.1
48.0,427.9,353.2,378.2,386.4,38.0
48.25,426.8,351.7,365.6,381.4,40.0
48.5,416.9,345.6,356.1,372.9,38.5
48.75,410.9,334.4,352.2,365.8,40.1
49.0,416.9,327.4,347.6,364.0,47.0
49.25,405.0,322.5,339.4,355.6,43.6
49.5,403.2,314.9,328.5,348.9,47.6
49.75,393.9,309.2,317.6,340.2,46.7
50.0,386.1,305.5,318.3,336.6,43.3
50.25,387.7,299.6,306.1,331.1,49.1
50.5,389.4,290.7,303.9,328.0,53.6
50.75,381.6,280.5,293.8,318.6,54.9
51.0,380.5,275.6,280.4,312.2,59.2
51.25,371.6,270.1,274.0,305.2,57.5
51.5,366.0,263.7,273.7,301.1,56.4
51.75,362.9,257.2,265.5,295.2,58.8
52.0,359.6,252.4,259.7,290.6,59.9
52.25,352.2,243.5,250.5,282.1,60.9
52.5,347.9,237.7,238.9,274.8,63.3
52.75,343.9,235.0,236.1,271.7,62.6
53.0,336.8,225.3,231.7,264.6,62.6
53.25,328.7,216.9,225.2,257.0,62.3
53.5,321.3,212.2,218.6,250.7,61.2
53.75,321.8,208.2,216.4,248.8,63.3
54.0,318.1,201.7,209.3,243.0,65.1
54.25,313.7,195.1,199.9,236.2,67.1
54.5,306.2,189.9,191.0,229.1,66.8
54.75,304.4,184.6,187.7,225.6,68.3
55.0,297.4,178.4,182.1,219.3,67.7
55.25,296.7,175.2,176.8,216.2,69.7
55.5,292.1,168.5,170.0,210.2,70.9
55.75,293.0,166.8,167.1,209.0,72.8
56.0,283.7,160.6,163.3,202.5,70.3
56.25,278.5,156.2,153.7,196.1,71.3
56.5,279.1,152.2,150.8,194.0,73.7
56.75,272.6,147.6,148.2,189.5,72.0
57.0,272.5,142.9,142.8,186.1,74.9
57.25,271.3,141.0,137.5,183.2,76.2
57.5,264.2,139.9,135.6,179.9,73.1
57.75,260.5,135.0,132.7,176.1,73.1
58.0,261.5,132.0,127.6,173.7,76.0
58.25,260.3,128.0,124.8,171.0,77.3
58.5,249.5,124.6,122.4,165.5,72.7
58.75,246.9,123.5,118.6,163.0,72.7
59.0,243.3,118.7,116.9,159.6,72.4
59.25,242.3,117.5,112.9,157.6,73.4
59.5,237.6,113.8,109.2,153.5,72.8
59.75,233.3,112.3,109.7,151.7,70.7
60.0,235.7,108.6,104.9,149.7,74.5
60.25,230.9,105.3,101.9,146.1,73.5
60.5,223.5,103.6,101.6,142.9,69.8
60.75,222.4,101.9,99.7,141.3,70.2
61.0,217.2,101.2,96.4,138.3,68.4
61.25,214.7,97.4,95.1,135.7,68.4
61.5,210.3,96.5,92.6,133.1,66.9
61.75,209.2,93.8,91.1,131.3,67.4
62.0,204.5,93.1,87.9,128.5,65.9
62.25,202.6,89.7,89.1,127.2,65.4
62.5,198.2,88.6,86.7,124.5,63.8
62.75,192.3,86.2,85.2,121.2,61.6
63.0,192.7,85.3,83.0,120.3,62.7
63.25,188.0,84.9,81.8,118.2,60.5
63.5,188.6,82.9,79.5,117.0,62.0
63.75,185.2,81.3,77.8,114.8,61.0
64.0,182.8,79.2,77.6,113.2,60.3
64.25,177.1,79.8,77.0,111.3,57.0
64.5,176.7,79.1,78.2,111.3,56.6
64.75,176.2,78.8,75.3,110.1,57.3
65.0,171.6,76.4,74.7,107.6,55.4
65.25,170.1,75.7,74.9,106.9,54.8
65.5,171.8,74.0,73.4,106.4,56.6
65.75,170.2,73.1,71.6,105.0,56.5
66.0,167.1,75.7,71.9,104.9,53.9
66.25,163.5,72.2,70.7,102.1,53.2
66.5,160.6,70.9,69.1,100.2,52.3
66.75,160.2,71.0,68.6,99.9,52.2
67.0,159.9,69.8,68.4,99.4,52.4
67.25,156.0,69.8,68.5,98.1,50.1
67.5,157.4,68.5,68.5,98.1,51.3
67.75,156.4,69.2,67.0,97.5,51.0
68.0,153.9,68.8,65.7,96.1,50.0
68.25,152.0,67.5,65.4,95.0,49.4
68.5,149.3,67.6,65.6,94.2,47.7
68.75,148.2,67.0,65.3,93.5,47.4
69.0,145.2,65.9,64.8,92.0,46.1
69.25,146.1,65.2,63.4,91.6,47.2
69.5,145.7,65.1,64.0,91.6,46.8
69.75,141.4,64.3,63.5,89.8,44.7
70.0,142.7,64.1,62.9,89.9,45.7
70.25,140.7,62.4,64.1,89.1,44.8
70.5,139.4,62.4,63.0,88.3,44.3
70.75,139.1,62.0,63.4,88.2,44.1
71.0,136.4,61.5,63.2,87.0,42.8
71.25,137.9,62.5,63.7,88.0,43.2
71.5,136.3,61.4,63.8,87.2,42.6
71.75,133.5,59.7,62.3,85.2,41.8
72.0,135.8,60.5,62.5,86.3,42.9
72.25,131.0,59.7,62.7,84.5,40.3
72.5,134.2,59.5,61.8,85.2,42.4
72.75,133.7,59.3,61.5,84.8,42.3
73.0,129.6,58.9,62.2,83.6,39.9
73.25,129.1,58.5,62.3,83.3,39.7
73.5,129.3,58.3,62.3,83.3,39.9
73.75,127.5,58.1,62.5,82.7,38.9
74.0,126.5,56.9,62.2,81.9,38.7
74.25,127.1,58.2,61.9,82.4,38.7
74.5,124.1,57.2,61.6,81.0,37.4
74.75,120.5,57.0,61.1,79.5,35.6
75.0,122.8,56.8,61.5,80.4,36.8
75.25,120.7,56.7,61.7,79.7,35.6
75.5,118.2,56.4,61.3,78.6,34.4
75.75,119.3,56.8,62.4,79.5,34.5
76.0,118.4,55.8,61.0,78.4,34.7
76.25,117.6,56.8,61.3,78.6,33.9
76.5,113.2,56.3,60.9,76.8,31.6
76.75,111.9,56.3,61.2,76.5,30.8
77.0,113.1,56.5,61.0,76.9,31.5
77.25,112.0,56.2,61.1,76.5,30.9
77.5,108.9,56.1,60.4,75.1,29.3
77.75,110.3,56.5,60.0,75.6,30.1
78.0,108.0,56.2,60.1,74.8,28.9
78.25,106.2,56.5,59.9,74.2,27.7
78.5,107.6,56.5,60.1,74.7,28.5
78.75,107.7,55.8,59.8,74.4,28.9
79.0,105.9,56.2,59.5,73.9,27.8
79.25,104.8,56.7,60.2,73.9,26.8
79.5,102.9,56.2,60.8,73.3,25.8
79.75,104.1,56.1,59.6,73.3,26.8
80.0,103.6,55.9,59.6,73.0,26.5
80.25,100.0,56.2,60.2,72.1,24.2
80.5,98.8,56.1,59.6,71.5,23.7
80.75,99.8,55.8,60.0,71.8,24.3
81.0,98.7,55.4,59.3,71.1,24.0
81.25,99.4,56.2,59.5,71.7,24.1
81.5,94.7,56.2,58.8,69.9,21.5
81.75,94.5,55.4,58.8,69.6,21.7
82.0,94.3,55.4,58.3,69.3,21.7
82.25,92.8,55.8,58.1,68.9,20.7
82.5,90.8,55.8,57.4,68.0,19.7
82.75,90.6,55.6,57.6,67.9,19.6
83.0,89.4,55.8,57.4,67.5,19.0
83.25,87.9,56.2,57.7,67.3,17.9
83.5,87.6,56.4,56.9,67.0,17.8
83.75,85.0,56.0,57.8,66.3,16.3
84.0,85.7,55.8,56.6,66.0,17.0
84.25,84.5,56.1,57.3,65.9,16.0
84.5,84.3,56.8,56.7,65.9,15.9
84.75,84.1,56.1,56.5,65.6,16.1
85.0,82.8,55.9,55.9,64.9,15.5
85.25,83.3,55.4,56.2,65.0,15.9
85.5,82.4,54.9,55.8,64.3,15.6
85.75,82.2,54.3,55.5,64.0,15.8
86.0,81.4,54.8,55.8,64.0,15.1
86.25,80.9,53.7,56.0,63.5,15.1
86.5,79.6,55.0,56.4,63.7,13.8
86.75,80.0,55.0,55.7,63.6,14.3
87.0,78.8,54.8,55.9,63.1,13.5
87.25,78.8,54.4,55.4,62.9,13.8
87.5,77.7,54.4,55.6,62.6,13.1
87.75,78.3,55.2,55.3,62.9,13.3
88.0,77.8,54.4,55.8,62.7,13.2
88.25,77.3,55.5,55.3,62.7,12.6
88.5,77.1,53.6,55.2,62.0,13.1
88.75,76.6,54.8,54.4,61.9,12.7
89.0,76.7,53.7,54.4,61.6,13.1
89.25,75.5,54.0,53.5,61.0,12.6
89.5,74.9,54.3,54.5,61.2,11.8
89.75,74.2,53.8,54.2,60.7,11.6
90.0,74.0,54.3,54.9,61.1,11.2
90.25,74.2,53.5,53.6,60.5,11.9
90.5,73.7,53.8,53.9,60.5,11.4
90.75,72.9,54.0,54.0,60.3,10.9
91.0,72.2,53.2,53.7,59.7,10.8
91.25,72.6,54.3,53.6,60.1,10.8
91.5,71.8,53.1,53.8,59.6,10.6
91.75,72.1,53.5,53.3,59.7,10.8
92.0,71.0,53.2,53.7,59.3,10.1
92.25,71.3,53.6,54.1,59.6,10.1
92.5,70.0,53.1,53.7,59.0,9.6
92.75,70.3,53.5,53.2,59.0,9.8
93.0,69.9,52.5,53.4,58.6,9.8
93.25,69.2,52.9,53.2,58.4,9.4
93.5,68.2,52.5,53.2,57.9,8.9
93.75,69.1,51.5,53.2,58.0,9.7
94.0,68.6,52.9,52.3,57.9,9.2
94.25,69.4,51.8,53.4,58.2,9.7
94.5,68.3,52.3,52.8,57.8,9.1
94.75,69.0,52.2,52.6,57.9,9.5
95.0,67.9,52.5,52.7,57.7,8.8
95.25,68.4,52.3,52.4,57.7,9.3
95.5,67.7,51.7,52.6,57.3,9.0
95.75,67.2,51.8,52.0,57.0,8.9
96.0,67.0,52.1,52.3,57.1,8.5
96.25,65.7,51.9,52.9,56.8,7.7
96.5,67.1,51.7,52.2,57.0,8.8
96.75,65.6,52.5,51.5,56.5,7.9
97.0,65.8,52.2,52.9,57.0,7.7
97.25,65.8,51.7,52.0,56.5,8.1
97.5,65.2,51.9,51.4,56.2,7.8
97.75,65.3,51.6,51.3,56.1,8.0
98.0,65.0,52.6,52.0,56.5,7.4
98.25,65.9,52.2,51.0,56.4,8.3
98.5,65.3,51.8,51.0,56.1,8.0
98.75,65.6,52.7,50.7,56.3,8.1
99.0,65.3,52.1,51.0,56.1,8.0
99.25,64.4,51.5,51.4,55.8,7.5
99.5,64.8,51.8,50.0,55.5,8.1
99.75,64.5,51.8,50.9,55.7,7.6
100.0,63.8,52.7,50.7,55.7,7.0
100.25,63.8,52.2,50.9,55.6,7.1
100.5,64.0,51.6,50.2,55.3,7.6
100.75,63.9,51.3,50.1,55.1,7.7
101.0,63.6,51.5,49.6,54.9,7.6
101.25,64.1,52.2,50.0,55.5,7.6
101.5,63.9,51.6,50.8,55.4,7.4
101.75,63.0,51.3,49.5,54.6,7.4
102.0,63.5,51.1,50.3,55.0,7.4
102.25,62.7,51.6,50.1,54.8,6.8
102.5,63.1,52.1,50.2,55.1,7.0
102.75,62.3,52.3,50.5,55.0,6.3
103.0,62.7,52.2,50.9,55.3,6.5
103.25,62.9,51.9,51.3,55.3,6.5
103.5,62.1,50.9,51.3,54.8,6.3
103.75,62.8,51.8,50.7,55.1,6.7
104.0,62.7,51.9,50.9,55.2,6.5
104.25,62.0,51.8,50.0,54.6,6.5
104.5,61.1,51.0,51.0,54.4,5.8
104.75,61.7,50.9,51.1,54.6,6.1
105.0,61.6,50.6,51.6,54.6,6.0
105.25,61.5,50.9,51.7,54.7,5.9
105.5,61.7,50.7,51.0,54.5,6.3
105.75,61.8,50.1,51.4,54.4,6.4
106.0,61.4,49.8,51.0,54.1,6.4
106.25,60.9,50.4,51.3,54.2,5.8
106.5,61.3,50.0,51.1,54.1,6.2
106.75,62.1,50.3,51.5,54.6,6.5
107.0,61.3,49.6,50.7,53.9,6.4
107.25,61.2,50.0,51.6,54.3,6.0
107.5,60.6,49.9,51.7,54.1,5.8
107.75,61.0,50.5,50.9,54.1,6.0
108.0,60.9,50.3,52.0,54.4,5.7
108.25,60.9,49.3,51.4,53.9,6.2
108.5,60.8,49.5,51.6,54.0,6.0
108.75,60.5,49.9,51.1,53.8,5.8
109.0,60.5,49.5,51.2,53.7,6.0
109.25,61.1,49.8,50.7,53.9,6.3
109.5,60.8,49.9,51.3,54.0,5.9
109.75,60.0,49.7,52.0,53.9,5.4
110.0,60.3,49.5,51.9,53.9,5.7
110.25,59.6,49.5,52.1,53.7,5.3
110.5,60.6,48.9,51.8,53.8,6.1
110.75,59.8,48.9,51.8,53.5,5.7
111.0,60.0,49.5,52.6,54.0,5.4
111.25,60.2,49.4,52.2,53.9,5.6
111.5,59.7,49.4,51.9,53.7,5.4
111.75,59.9,49.1,52.5,53.8,5.5
112.0,59.8,49.3,52.6,53.9,5.3
112.25,59.7,49.7,52.5,54.0,5.2
112.5,60.4,49.9,52.0,54.1,5.6
112.75,59.5,49.4,53.1,54.0,5.1
113.0,59.6,49.6,52.7,54.0,5.1
113.25,59.1,49.5,52.2,53.6,4.9
113.5,58.8,49.9,52.2,53.6,4.6
113.75,58.7,49.7,52.6,53.7,4.6
114.0,58.9,49.8,52.4,53.7,4.7
114.25,59.1,49.6,52.4,53.7,4.9
114.5,58.4,49.7,52.9,53.6,4.4
114.75,58.8,49.9,52.2,53.6,4.6
115.0,59.2,49.7,53.1,54.0,4.8
115.25,58.4,49.8,52.5,53.6,4.4
115.5,58.9,49.6,52.9,53.8,4.7
115.75,58.5,49.3,52.8,53.5,4.6
116.0,59.7,49.7,52.7,54.0,5.1
116.25,59.0,49.4,52.8,53.7,4.9
116.5,59.4,49.7,52.3,53.8,5.0
116.75,59.3,50.1,52.5,53.9,4.8
117.0,59.2,49.6,52.5,53.8,4.9
117.25,59.1,49.8,52.8,53.9,4.7
117.5,58.6,50.4,52.1,53.7,4.3
117.75,59.0,49.8,51.7,53.5,4.8
118.0,58.8,50.0,52.0,53.6,4.6
118.25,59.5,49.0,51.4,53.3,5.5
118.5,58.4,50.4,52.3,53.7,4.2
118.75,58.3,49.5,51.7,53.2,4.6
119.0,57.5,49.0,51.3,52.6,4.4
119.25,58.6,48.8,51.9,53.1,5.0
119.5,58.1,49.0,51.9,53.0,4.7
119.75,57.6,49.0,51.0,52.6,4.5
120.0,58.8,49.2,51.7,53.2,5.0
120.25,58.0,49.1,52.1,53.0,4.5
120.5,58.8,49.2,51.5,53.1,5.0
120.75,57.4,50.1,51.8,53.1,3.8
121.0,57.9,48.9,51.2,52.7,4.7
121.25,58.3,49.0,51.9,53.1,4.7
121.5,58.2,49.1,50.6,52.6,4.9
121.75,57.8,48.9,50.8,52.5,4.7
122.0,56.6,48.6,51.3,52.2,4.1
122.25,58.5,48.5,51.3,52.8,5.1
122.5,57.6,48.6,51.3,52.5,4.6
122.75,57.5,49.0,51.8,52.8,4.4
123.0,56.7,49.1,51.4,52.4,3.9
123.25,57.2,48.9,51.4,52.5,4.3
123.5,56.7,48.8,51.4,52.3,4.0
123.75,57.6,48.2,51.6,52.5,4.8
124.0,56.7,49.2,51.0,52.3,3.9
124.25,56.2,48.8,51.0,52.0,3.8
124.5,56.2,48.5,51.2,52.0,3.9
124.75,55.7,48.0,51.6,51.8,3.8
125.0,55.8,49.0,50.9,51.9,3.5
125.25,55.6,48.3,50.8,51.6,3.7
125.5,55.1,48.4,51.4,51.6,3.4
125.75,56.6,48.6,51.0,52.1,4.1
126.0,56.0,48.1,51.2,51.7,4.0
126.25,55.0,49.3,51.0,51.8,2.9
126.5,55.4,48.5,50.9,51.6,3.5
126.75,55.5,48.3,50.8,51.5,3.7
127.0,54.9,48.0,50.9,51.3,3.5
127.25,55.1,48.9,50.5,51.5,3.2
127.5,55.6,48.2,50.8,51.5,3.8
127.75,54.5,49.3,50.7,51.5,2.7
128.0,55.3,48.8,50.5,51.5,3.4
128.25,56.1,49.2,51.1,52.1,3.6
128.5,54.7,48.7,50.9,51.4,3.0
128.75,55.7,47.9,51.0,51.5,3.9
129.0,55.3,48.1,50.1,51.2,3.7
129.25,54.2,48.5,50.9,51.2,2.9
129.5,55.4,47.9,50.3,51.2,3.8
129.75,54.8,47.8,50.4,51.0,3.5
130.0,55.0,47.7,50.0,50.9,3.7
130.25,55.3,48.5,50.5,51.4,3.5
130.5,54.4,47.9,49.9,50.7,3.3
130.75,54.6,47.8,50.6,51.0,3.4
131.0,54.8,47.4,50.1,50.8,3.7
131.25,53.7,47.7,49.8,50.4,3.1
131.5,53.8,47.0,49.6,50.1,3.4
131.75,53.2,46.4,49.7,49.8,3.4
132.0,53.0,47.3,50.2,50.2,2.9
132.25,53.0,46.9,49.3,49.7,3.0
132.5,53.1,48.3,49.9,50.4,2.5
132.75,53.4,46.6,49.7,49.9,3.4
133.0,52.4,47.0,50.4,49.9,2.7
133.25,52.8,46.9,49.7,49.8,3.0
133.5,52.7,47.4,49.4,49.9,2.7
133.75,52.9,47.0,50.0,50.0,2.9
134.0,52.6,46.4,49.9,49.6,3.1
134.25,52.5,47.1,49.6,49.7,2.7
134.5,52.1,47.3,49.6,49.7,2.4
134.75,51.6,46.8,50.2,49.5,2.5
135.0,51.8,47.1,49.7,49.5,2.4
135.25,52.3,46.4,49.8,49.5,3.0
135.5,51.9,46.9,49.7,49.5,2.5
135.75,50.7,46.9,50.1,49.2,2.1
136.0,51.0,46.6,49.5,49.1,2.2
136.25,51.4,46.6,49.7,49.2,2.4
136.5,51.5,46.7,49.4,49.2,2.4
136.75,51.2,46.6,49.9,49.2,2.4
137.0,50.8,47.5,48.5,48.9,1.7
137.25,50.6,47.0,48.9,48.8,1.8
137.5,50.7,47.0,48.2,48.6,1.9
137.75,50.8,46.4,48.8,48.7,2.2
138.0,50.8,47.0,48.8,48.8,1.9
138.25,50.7,46.6,48.9,48.7,2.1
138.5,50.4,46.9,48.4,48.6,1.8
138.75,50.2,46.8,48.6,48.5,1.7
139.0,49.9,46.6,48.7,48.4,1.7
139.25,49.7,47.2,48.8,48.6,1.3
139.5,49.5,46.5,48.8,48.3,1.6
139.75,48.4,46.3,48.8,47.8,1.3
140.0,49.5,46.9,48.2,48.2,1.3
140.25,49.4,46.4,49.0,48.3,1.6
140.5,48.8,47.0,48.6,48.1,1.0
140.75,48.7,46.8,48.5,48.0,1.0
141.0,48.6,46.6,49.0,48.1,1.3
141.25,49.4,47.1,48.6,48.4,1.1
141.5,48.7,46.7,48.4,48.0,1.1
141.75,48.4,46.5,48.7,47.9,1.2
142.0,48.5,46.1,48.8,47.8,1.5
142.25,48.7,46.1,48.1,47.6,1.4
142.5,48.4,45.5,48.5,47.5,1.7
142.75,48.7,45.3,49.0,47.6,2.0
143.0,48.6,45.8,49.1,47.8,1.8
143.25,48.6,45.7,49.2,47.8,1.9
143.5,48.7,46.1,49.1,47.9,1.6
143.75,48.4,45.2,48.5,47.4,1.8
144.0,48.7,45.5,48.8,47.7,1.9
144.25,48.8,45.3,48.6,47.6,2.0
144.5,48.5,45.1,49.0,47.5,2.1
144.75,48.5,45.2,48.2,47.3,1.8
145.0,47.8,45.3,49.1,47.4,1.9
145.25,47.6,45.6,48.6,47.3,1.5
145.5,48.0,44.8,48.8,47.2,2.1
145.75,47.0,45.6,48.3,47.0,1.3
146.0,46.9,45.3,48.9,47.0,1.8
146.25,47.4,45.0,48.4,46.9,1.8
146.5,47.1,45.3,48.5,46.9,1.6
146.75,46.3,44.8,48.6,46.6,1.9
147.0,46.7,44.9,48.1,46.5,1.6
147.25,46.6,44.9,48.2,46.6,1.6
147.5,46.6,44.9,49.2,46.9,2.2
147.75,46.2,45.2,48.1,46.5,1.5
148.0,45.8,44.2,48.6,46.2,2.2
148.25,46.0,44.6,47.9,46.2,1.6
148.5,45.6,44.9,48.6,46.4,1.9
148.75,45.9,44.9,47.3,46.0,1.2
149.0,45.3,44.4,48.0,45.9,1.8
149.25,45.1,44.4,47.1,45.5,1.4
149.5,45.2,44.9,47.1,45.7,1.2
149.75,44.5,45.0,47.6,45.7,1.7
150.0,44.9,44.0,47.7,45.5,2.0
150.25,44.8,44.6,46.9,45.4,1.3
150.5,43.9,44.2,47.9,45.3,2.2
150.75,43.9,43.7,47.6,45.1,2.2
151.0,44.2,44.6,47.0,45.2,1.5
151.25,43.2,43.9,46.7,44.6,1.9
151.5,43.9,44.3,46.6,44.9,1.4
151.75,43.5,44.6,47.1,45.1,1.8
152.0,42.9,43.4,46.0,44.1,1.7
152.25,42.9,43.4,46.0,44.1,1.7
152.5,42.6,43.7,46.6,44.3,2.1
152.75,42.3,43.7,46.6,44.2,2.2
153.0,41.9,43.7,46.6,44.1,2.4
153.25,42.3,43.8,46.4,44.1,2.1
153.5,41.6,44.0,46.4,44.0,2.4
153.75,41.9,43.9,46.6,44.1,2.4
154.0,41.8,43.9,47.2,44.3,2.7
154.25,41.8,43.6,46.7,44.0,2.5
154.5,41.0,43.1,46.5,43.5,2.8
154.75,40.9,43.4,46.2,43.5,2.7
155.0,40.4,43.5,46.4,43.4,3.0
155.25,41.2,44.0,46.3,43.8,2.6
155.5,40.7,43.5,46.4,43.5,2.9
155.75,41.2,44.1,45.8,43.7,2.4
156.0,41.1,43.4,47.2,43.9,3.1
156.25,41.0,43.5,46.2,43.5,2.6
156.5,40.5,43.7,46.5,43.6,3.0
156.75,40.1,43.9,45.9,43.3,2.9
157.0,40.4,43.8,46.2,43.5,2.9
157.25,39.7,43.9,45.7,43.1,3.1
157.5,39.4,43.7,45.3,42.8,3.1
157.75,39.7,44.0,46.2,43.3,3.3
158.0,39.7,43.1,45.7,42.8,3.0
158.25,39.2,42.9,45.4,42.5,3.1
158.5,38.9,43.2,45.7,42.6,3.5
158.75,38.6,42.5,45.9,42.4,3.7
159.0,38.2,42.9,45.5,42.2,3.7
159.25,37.9,43.0,46.1,42.3,4.2
159.5,38.0,42.2,45.7,42.0,3.8
159.75,37.9,42.0,46.0,41.9,4.0
160.0,38.1,42.2,45.7,42.0,3.8
160.25,38.3,41.8,45.7,41.9,3.7
160.5,37.2,41.8,46.2,41.7,4.5
160.75,37.7,41.7,45.0,41.4,3.7
161.0,37.6,41.5,45.4,41.5,3.9
161.25,37.3,41.7,45.9,41.6,4.3
161.5,37.2,41.8,45.6,41.5,4.2
161.75,36.8,41.2,45.2,41.1,4.2
162.0,36.7,41.4,44.9,41.0,4.1
162.25,37.1,41.0,44.7,40.9,3.8
162.5,36.7,40.3,44.2,40.4,3.7
162.75,36.9,40.9,44.6,40.8,3.9
163.0,36.4,40.2,45.1,40.6,4.3
163.25,36.2,40.1,45.1,40.5,4.4
163.5,36.7,40.6,44.7,40.7,4.0
163.75,37.3,40.5,44.9,40.9,3.8
164.0,36.6,39.6,44.4,40.2,4.0
164.25,36.5,40.3,44.5,40.4,4.0
164.5,36.7,39.5,44.9,40.4,4.2
164.75,36.5,39.4,44.7,40.2,4.2
165.0,36.2,39.7,45.1,40.3,4.5
165.25,36.0,39.3,44.2,39.9,4.2
165.5,36.2,39.1,44.8,40.0,4.4
165.75,35.5,39.3,44.3,39.7,4.4
166.0,35.4,39.1,44.2,39.6,4.5
166.25,35.8,38.8,43.6,39.4,3.9
166.5,35.7,39.1,43.6,39.5,4.0
166.75,35.3,39.1,44.4,39.6,4.6
167.0,35.2,39.0,43.9,39.4,4.4
167.25,35.0,38.8,44.2,39.3,4.6
167.5,35.7,38.5,44.2,39.5,4.4
167.75,35.4,39.1,43.7,39.4,4.2
168.0,35.3,38.8,43.6,39.2,4.2
168.25,35.6,38.3,43.4,39.1,4.0
168.5,35.5,38.8,43.8,39.3,4.2
168.75,35.4,38.7,43.8,39.3,4.3
169.0,35.2,38.1,43.4,38.9,4.2
169.25,35.4,38.3,43.6,39.1,4.1
169.5,34.4,38.3,43.8,38.8,4.7
169.75,35.4,38.3,43.3,39.0,4.0
170.0,35.0,38.6,43.3,39.0,4.2
170.25,34.9,38.4,43.6,39.0,4.4
170.5,35.1,39.0,43.6,39.2,4.3
170.75,34.6,38.1,43.6,38.7,4.5
171.0,34.3,38.1,43.0,38.4,4.4
171.25,34.7,38.1,43.5,38.8,4.4
171.5,34.1,38.4,43.2,38.6,4.6
171.75,34.3,37.3,43.3,38.3,4.6
172.0,34.7,38.3,43.8,38.9,4.6
172.25,34.2,37.7,43.6,38.5,4.8
172.5,33.8,38.1,42.6,38.2,4.4
172.75,34.0,37.4,42.9,38.1,4.5
173.0,34.0,38.0,42.5,38.2,4.3
173.25,34.5,37.5,43.0,38.3,4.3
173.5,34.2,37.4,42.8,38.2,4.3
173.75,33.9,38.3,42.3,38.2,4.2
174.0,34.4,37.9,42.5,38.3,4.1
174.25,34.4,37.0,43.0,38.1,4.4
174.5,33.9,37.3,42.7,37.9,4.5
174.75,34.1,37.5,42.4,38.0,4.2
175.0,34.1,38.3,42.1,38.2,4.0
175.25,33.6,37.7,41.9,37.7,4.2
175.5,33.3,37.1,42.6,37.7,4.7
175.75,33.0,37.2,42.1,37.4,4.5
176.0,33.0,37.5,42.2,37.6,4.6
176.25,32.6,37.4,41.9,37.3,4.6
176.5,32.7,36.9,42.2,37.2,4.8
176.75,32.3,37.3,43.0,37.5,5.3
177.0,32.1,37.3,42.1,37.2,5.0
177.25,32.2,37.1,42.4,37.2,5.1
177.5,32.3,36.9,42.2,37.1,5.0
177.75,32.5,37.3,42.9,37.6,5.2
178.0,31.7,37.2,42.4,37.1,5.4
178.25,31.9,36.3,41.7,36.6,4.9
178.5,32.2,36.6,41.9,36.9,4.8
178.75,32.6,37.0,41.2,36.9,4.3
179.0,31.9,37.1,41.4,36.8,4.7
179.25,32.1,,41.6,36.8,6.7
179.5,31.7,,41.5,36.6,6.9
179.75,32.0,,41.6,36.8,6.8
180.0,31.6,,42.0,36.8,7.4
180.25,32.0,,41.5,36.8,6.7
180.5,31.2,,41.3,36.3,7.1
180.75,31.5,,41.0,36.3,6.7
181.0,31.2,,41.5,36.3,7.3
181.25,31.3,,40.7,36.0,6.7
181.5,30.9,,40.8,35.8,7.0
181.75,31.0,,41.0,36.0,7.0
182.0,30.7,,40.7,35.7,7.1
182.25,30.7,,40.1,35.4,6.7
182.5,30.7,,40.1,35.4,6.7
182.75,30.5,,40.3,35.4,7.0
183.0,30.3,,40.1,35.2,7.0
183.25,30.0,,39.9,34.9,7.0
183.5,30.3,,40.1,35.2,6.9
183.75,30.1,,39.4,34.8,6.5
184.0,30.4,,40.2,35.3,6.9
184.25,30.3,,39.6,34.9,6.5
184.5,30.2,,40.2,35.2,7.1
184.75,30.2,,39.5,34.9,6.6
185.0,30.3,,39.7,35.0,6.7
185.25,30.0,,39.0,34.5,6.4
185.5,29.6,,39.7,34.7,7.2
185.75,30.0,,39.1,34.6,6.4
186.0,29.6,,39.0,34.3,6.6
186.25,29.7,,39.1,34.4,6.7
186.5,29.3,,38.4,33.9,6.4
186.75,29.4,,38.3,33.8,6.3
187.0,28.5,,38.1,33.3,6.8
187.25,28.7,,38.9,33.8,7.2
187.5,29.0,,38.9,33.9,7.0
187.75,29.0,,38.9,33.9,7.0
188.0,29.0,,38.6,33.8,6.8
188.25,29.0,,38.5,33.7,6.7
188.5,28.6,,38.7,33.7,7.2
188.75,28.9,,38.6,33.7,6.9
189.0,28.6,,39.2,33.9,7.5
189.25,28.0,,38.8,33.4,7.7
189.5,28.3,,38.7,33.5,7.3
189.75,28.6,,38.1,33.3,6.7
190.0,28.4,,38.6,33.5,7.2
190.25,28.5,,38.4,33.5,7.1
190.5,28.5,,38.4,33.4,7.0
190.75,28.2,,38.4,33.3,7.2
191.0,28.3,,38.1,33.2,6.9
191.25,28.4,,37.5,33.0,6.4
191.5,28.7,,37.9,33.3,6.5
191.75,28.4,,37.7,33.1,6.6
192.0,28.6,,38.2,33.4,6.8
192.25,28.4,,37.6,33.0,6.4
192.5,28.3,,37.7,33.0,6.6
192.75,28.1,,37.2,32.7,6.4