File: 01_Data/Hemp_Sheet/FTIR/IS/Hemp_Sheet_IS_S_220909_R8.dpt
7497.03,0.56904
7491.25,0.58007
7485.46,0.57436
7479.67,0.56038
7473.89,0.56783
7468.1,0.56552
7462.32,0.56406
7456.53,0.55807
7450.74,0.56959
7444.96,0.56253
7439.17,0.57018
7433.38,0.56864
7427.6,0.55997
7421.81,0.57114
7416.03,0.56287
7410.24,0.56615
7404.45,0.57530
7398.67,0.56099
7392.88,0.56123
7387.09,0.56014
7381.31,0.56086
7375.52,0.56315
7369.74,0.56294
7363.95,0.56334
7358.16,0.56089
7352.38,0.56346
7346.59,0.55258
7340.8,0.55565
7335.02,0.56451
7329.23,0.55796
7323.45,0.56306
7317.66,0.56449
7311.87,0.55931
7306.09,0.55771
7300.3,0.55300
7294.51,0.56011
7288.73,0.55190
7282.94,0.55656
7277.16,0.55664
7271.37,0.55506
7265.58,0.55291
7259.8,0.55491
7254.01,0.55326
7248.22,0.55435
7242.44,0.55737
7236.65,0.56023
7230.87,0.55423
7225.08,0.55886
7219.29,0.55571
7213.51,0.55858
7207.72,0.55334
7201.93,0.55371
7196.15,0.55438
7190.36,0.56180
7184.58,0.56230
7178.79,0.55767
7173,0.55553
7167.22,0.55493
7161.43,0.54872
7155.65,0.55364
7149.86,0.55192
7144.07,0.55183
7138.29,0.55284
7132.5,0.55040
7126.71,0.55357
7120.93,0.55061
7115.14,0.54606
7109.36,0.54580
7103.57,0.53612
7097.78,0.53998
7092,0.53974
7086.21,0.53787
7080.42,0.53342
7074.64,0.53237
7068.85,0.53383
7063.07,0.53346
7057.28,0.52979
7051.49,0.52561
7045.71,0.52732
7039.92,0.52415
7034.13,0.51576
7028.35,0.51275
7022.56,0.51791
7016.78,0.51065
7010.99,0.50825
7005.2,0.50819
6999.42,0.50375
6993.63,0.50517
6987.84,0.50033
6982.06,0.50155
6976.27,0.50289
6970.49,0.49427
6964.7,0.49943
6958.91,0.49722
6953.13,0.49062
6947.34,0.49311
6941.55,0.48716
6935.77,0.48642
6929.98,0.48985
6924.2,0.48934
6918.41,0.49369
6912.62,0.49036
6906.84,0.48915
6901.05,0.48872
6895.26,0.48919
6889.48,0.48535
6883.69,0.48498
6877.91,0.48741
6872.12,0.48422
6866.33,0.47987
6860.55,0.48679
6854.76,0.48011
6848.97,0.48242
6843.19,0.48657
6837.4,0.47620
6831.62,0.47721
6825.83,0.47540
6820.04,0.48195
6814.26,0.47771
6808.47,0.47447
6802.68,0.46998
6796.9,0.47029
6791.11,0.47405
6785.33,0.46537
6779.54,0.46236
6773.75,0.46516
6767.97,0.47151
6762.18,0.46424
6756.39,0.45984
6750.61,0.46331
6744.82,0.46315
6739.04,0.47056
6733.25,0.46484
6727.46,0.46094
6721.68,0.46254
6715.89,0.46913
6710.1,0.46218
6704.32,0.46690
6698.53,0.46382
6692.75,0.46370
6686.96,0.46369
6681.17,0.46293
6675.39,0.46385
6669.6,0.46073
6663.82,0.46506
6658.03,0.46745
6652.24,0.46317
6646.46,0.46812
6640.67,0.46203
6634.88,0.46624
6629.1,0.46967
6623.31,0.46943
6617.53,0.46923
6611.74,0.47184
6605.95,0.47300
6600.17,0.46966
6594.38,0.47174
6588.59,0.47144
6582.81,0.47453
6577.02,0.47174
6571.24,0.47297
6565.45,0.47321
6559.66,0.47371
6553.88,0.47444
6548.09,0.47374
6542.3,0.47202
6536.52,0.47784
6530.73,0.47414
6524.95,0.47531
6519.16,0.47382
6513.37,0.47362
6507.59,0.46814
6501.8,0.47081
6496.01,0.47006
6490.23,0.47385
6484.44,0.47595
6478.66,0.47406
6472.87,0.47457
6467.08,0.47289
6461.3,0.47109
6455.51,0.47569
6449.72,0.47674
6443.94,0.47361
6438.15,0.47677
6432.37,0.47571
6426.58,0.47844
6420.79,0.47644
6415.01,0.47839
6409.22,0.47714
6403.43,0.47751
6397.65,0.47731
6391.86,0.48139
6386.08,0.47898
6380.29,0.47787
6374.5,0.47882
6368.72,0.47623
6362.93,0.47695
6357.14,0.47848
6351.36,0.48024
6345.57,0.48083
6339.79,0.48178
6334,0.48113
6328.21,0.48149
6322.43,0.48294
6316.64,0.48351
6310.85,0.48068
6305.07,0.48303
6299.28,0.48189
6293.5,0.48159
6287.71,0.48468
6281.92,0.48465
6276.14,0.48464
6270.35,0.48809
6264.56,0.48992
6258.78,0.48754
6252.99,0.49209
6247.21,0.49474
6241.42,0.49261
6235.63,0.49496
6229.85,0.49594
6224.06,0.49767
6218.27,0.49826
6212.49,0.50069
6206.7,0.50357
6200.92,0.50315
6195.13,0.50642
6189.34,0.50920
6183.56,0.50790
6177.77,0.51194
6171.98,0.51312
6166.2,0.51320
6160.41,0.51232
6154.63,0.51513
6148.84,0.51508
6143.05,0.51676
6137.27,0.52080
6131.48,0.51789
6125.7,0.51905
6119.91,0.52070
6114.12,0.52408
6108.34,0.52433
6102.55,0.52585
6096.76,0.52503
6090.98,0.52626
6085.19,0.52866
6079.41,0.52919
6073.62,0.52962
6067.83,0.52968
6062.05,0.52982
6056.26,0.53227
6050.47,0.53294
6044.69,0.53332
6038.9,0.53324
6033.12,0.53251
6027.33,0.53483
6021.54,0.53722
6015.76,0.53653
6009.97,0.53798
6004.18,0.53986
5998.4,0.54061
5992.61,0.54058
5986.83,0.53831
5981.04,0.53893
5975.25,0.54096
5969.47,0.53811
5963.68,0.53920
5957.89,0.53943
5952.11,0.53793
5946.32,0.53984
5940.54,0.53809
5934.75,0.53554
5928.96,0.53863
5923.18,0.53609
5917.39,0.53568
5911.6,0.53436
5905.82,0.53648
5900.03,0.53203
5894.25,0.53070
5888.46,0.52941
5882.67,0.52905
5876.89,0.52836
5871.1,0.52538
5865.31,0.52467
5859.53,0.52515
5853.74,0.52688
5847.96,0.52843
5842.17,0.52721
5836.38,0.52713
5830.6,0.52791
5824.81,0.52799
5819.02,0.52875
5813.24,0.52589
5807.45,0.52589
5801.67,0.52647
5795.88,0.52521
5790.09,0.52640
5784.31,0.52507
5778.52,0.52348
5772.73,0.52272
5766.95,0.52419
5761.16,0.52517
5755.38,0.52298
5749.59,0.52260
5743.8,0.52394
5738.02,0.52151
5732.23,0.52050
5726.44,0.52332
5720.66,0.52226
5714.87,0.52299
5709.09,0.52262
5703.3,0.52181
5697.51,0.52180
5691.73,0.52046
5685.94,0.52186
5680.15,0.52075
5674.37,0.52040
5668.58,0.51941
5662.8,0.51698
5657.01,0.51764
5651.22,0.52007
5645.44,0.51838
5639.65,0.51874
5633.87,0.51820
5628.08,0.51836
5622.29,0.52016
5616.51,0.51853
5610.72,0.51632
5604.93,0.51723
5599.15,0.51728
5593.36,0.51816
5587.58,0.51881
5581.79,0.51783
5576,0.51948
5570.22,0.51944
5564.43,0.52063
5558.64,0.52004
5552.86,0.52069
5547.07,0.52003
5541.29,0.52056
5535.5,0.51972
5529.71,0.51935
5523.93,0.51925
5518.14,0.51879
5512.35,0.51904
5506.57,0.51893
5500.78,0.51906
5495,0.51994
5489.21,0.51873
5483.42,0.51869
5477.64,0.51969
5471.85,0.52014
5466.06,0.51968
5460.28,0.52004
5454.49,0.52090
5448.71,0.52174
5442.92,0.52296
5437.13,0.52241
5431.35,0.52394
5425.56,0.52509
5419.77,0.52622
5413.99,0.52623
5408.2,0.52513
5402.42,0.52773
5396.63,0.52808
5390.84,0.53009
5385.06,0.53181
5379.27,0.52995
5373.48,0.53067
5367.7,0.52938
5361.91,0.53036
5356.13,0.53109
5350.34,0.52908
5344.55,0.53078
5338.77,0.52958
5332.98,0.52832
5327.19,0.52796
5321.41,0.52747
5315.62,0.52827
5309.84,0.52594
5304.05,0.52352
5298.26,0.52299
5292.48,0.52009
5286.69,0.51829
5280.9,0.51396
5275.12,0.51100
5269.33,0.50778
5263.55,0.50418
5257.76,0.49850
5251.97,0.49464
5246.19,0.49026
5240.4,0.48516
5234.61,0.48367
5228.83,0.47868
5223.04,0.47593
5217.26,0.47358
5211.47,0.47267
5205.68,0.47072
5199.9,0.46831
5194.11,0.46871
5188.32,0.46819
5182.54,0.46587
5176.75,0.46663
5170.97,0.46703
5165.18,0.46819
5159.39,0.46877
5153.61,0.47023
5147.82,0.47307
5142.03,0.47323
5136.25,0.47493
5130.46,0.47709
5124.68,0.47741
5118.89,0.47913
5113.1,0.47877
5107.32,0.48249
5101.53,0.48346
5095.75,0.48450
5089.96,0.48454
5084.17,0.48599
5078.39,0.48739
5072.6,0.48925
5066.81,0.48984
5061.03,0.49149
5055.24,0.49287
5049.46,0.49365
5043.67,0.49390
5037.88,0.49463
5032.1,0.49497
5026.31,0.49339
5020.52,0.49525
5014.74,0.49668
5008.95,0.49501
5003.17,0.49450
4997.38,0.49510
4991.59,0.49366
4985.81,0.49347
4980.02,0.49062
4974.23,0.49083
4968.45,0.48774
4962.66,0.48569
4956.88,0.48261
4951.09,0.47959
4945.3,0.47665
4939.52,0.47228
4933.73,0.46881
4927.94,0.46375
4922.16,0.45964
4916.37,0.45363
4910.59,0.44991
4904.8,0.44425
4899.01,0.43767
4893.23,0.43268
4887.44,0.42729
4881.65,0.42290
4875.87,0.41562
4870.08,0.41143
4864.3,0.40635
4858.51,0.40256
4852.72,0.39792
4846.94,0.39315
4841.15,0.38889
4835.36,0.38443
4829.58,0.37998
4823.79,0.37612
4818.01,0.37264
4812.22,0.36965
4806.43,0.36564
4800.65,0.36370
4794.86,0.36258
4789.07,0.36151
4783.29,0.35951
4777.5,0.35718
4771.72,0.35578
4765.93,0.35510
4760.14,0.35415
4754.36,0.35410
4748.57,0.35503
4742.78,0.35576
4737,0.35495
4731.21,0.35721
4725.43,0.35919
4719.64,0.36137
4713.85,0.36297
4708.07,0.36548
4702.28,0.36733
4696.49,0.36913
4690.71,0.37281
4684.92,0.37537
4679.14,0.37729
4673.35,0.38016
4667.56,0.38216
4661.78,0.38470
4655.99,0.38664
4650.2,0.38943
4644.42,0.39035
4638.63,0.39336
4632.85,0.39390
4627.06,0.39726
4621.27,0.39855
4615.49,0.40025
4609.7,0.40215
4603.92,0.40511
4598.13,0.40736
4592.34,0.41026
4586.56,0.41151
4580.77,0.41417
4574.98,0.41702
4569.2,0.41919
4563.41,0.42194
4557.63,0.42388
4551.84,0.42574
4546.05,0.42728
4540.27,0.42895
4534.48,0.43020
4528.69,0.43118
4522.91,0.43283
4517.12,0.43464
4511.34,0.43531
4505.55,0.43511
4499.76,0.43627
4493.98,0.43644
4488.19,0.43632
4482.4,0.43597
4476.62,0.43599
4470.83,0.43419
4465.05,0.43228
4459.26,0.42932
4453.47,0.42577
4447.69,0.42050
4441.9,0.41478
4436.11,0.40790
4430.33,0.40002
4424.54,0.39097
4418.76,0.38275
4412.97,0.37412
4407.18,0.36689
4401.4,0.36199
4395.61,0.35990
4389.82,0.36294
4384.04,0.36643
4378.25,0.36825
4372.47,0.37158
4366.68,0.37294
4360.89,0.37285
4355.11,0.37185
4349.32,0.37021
4343.53,0.36864
4337.75,0.36606
4331.96,0.36342
4326.18,0.36012
4320.39,0.35693
4314.6,0.35366
4308.82,0.35162
4303.03,0.34965
4297.24,0.34697
4291.46,0.34404
4285.67,0.34154
4279.89,0.33975
4274.1,0.34022
4268.31,0.33948
4262.53,0.34100
4256.74,0.34158
4250.95,0.34228
4245.17,0.34288
4239.38,0.34238
4233.6,0.34490
4227.81,0.34510
4222.02,0.34485
4216.24,0.34518
4210.45,0.34673
4204.66,0.34948
4198.88,0.35132
4193.09,0.35318
4187.31,0.35224
4181.52,0.35247
4175.73,0.35318
4169.95,0.35533
4164.16,0.35670
4158.37,0.35591
4152.59,0.35494
4146.8,0.35372
4141.02,0.35301
4135.23,0.35153
4129.44,0.34941
4123.66,0.34653
4117.87,0.34229
4112.09,0.33819
4106.3,0.33238
4100.51,0.32640
4094.73,0.32021
4088.94,0.31433
4083.15,0.30812
4077.37,0.30248
4071.58,0.29662
4065.8,0.29001
4060.01,0.28296
4054.22,0.27647
4048.44,0.26980
4042.65,0.26384
4036.86,0.25933
4031.08,0.25644
4025.29,0.25459
4019.51,0.25502
4013.72,0.25603
4007.93,0.25783
4002.15,0.26071
3996.36,0.26405
3990.57,0.26656
3984.79,0.26992
3979,0.27156
3973.22,0.27321
3967.43,0.27580
3961.64,0.27811
3955.86,0.28088
3950.07,0.28327
3944.28,0.28631
3938.5,0.28956
3932.71,0.29257
3926.93,0.29544
3921.14,0.29823
3915.35,0.30058
3909.57,0.30221
3903.78,0.30429
3897.99,0.30617
3892.21,0.30840
3886.42,0.31024
3880.64,0.31171
3874.85,0.31308
3869.06,0.31554
3863.28,0.31896
3857.49,0.32281
3851.7,0.32609
3845.92,0.32870
3840.13,0.33103
3834.35,0.33305
3828.56,0.33325
3822.77,0.33425
3816.99,0.33437
3811.2,0.33411
3805.41,0.33424
3799.63,0.33479
3793.84,0.33557
3788.06,0.33564
3782.27,0.33546
3776.48,0.33526
3770.7,0.33403
3764.91,0.33380
3759.12,0.33302
3753.34,0.33254
3747.55,0.33154
3741.77,0.32983
3735.98,0.32738
3730.19,0.32380
3724.41,0.31992
3718.62,0.31622
3712.83,0.31212
3707.05,0.30620
3701.26,0.29998
3695.48,0.29211
3689.69,0.28458
3683.9,0.27426
3678.12,0.26313
3672.33,0.24851
3666.54,0.23437
3660.76,0.22011
3654.97,0.20554
3649.19,0.18980
3643.4,0.17573
3637.61,0.16285
3631.83,0.15115
3626.04,0.13810
3620.25,0.12710
3614.47,0.11601
3608.68,0.10600
3602.9,0.09664
3597.11,0.08880
3591.32,0.08202
3585.54,0.07556
3579.75,0.07034
3573.97,0.06560
3568.18,0.06135
3562.39,0.05751
3556.61,0.05413
3550.82,0.05034
3545.03,0.04728
3539.25,0.04491
3533.46,0.04223
3527.68,0.04032
3521.89,0.03804
3516.1,0.03673
3510.32,0.03541
3504.53,0.03444
3498.74,0.03327
3492.96,0.03155
3487.17,0.03096
3481.39,0.03042
3475.6,0.02985
3469.81,0.02945
3464.03,0.02831
3458.24,0.02852
3452.45,0.02847
3446.67,0.02802
3440.88,0.02832
3435.1,0.02793
3429.31,0.02832
3423.52,0.02793
3417.74,0.02813
3411.95,0.02850
3406.16,0.02886
3400.38,0.02830
3394.59,0.02836
3388.81,0.02803
3383.02,0.02882
3377.23,0.02914
3371.45,0.02932
3365.66,0.02946
3359.87,0.02983
3354.09,0.03095
3348.3,0.03107
3342.52,0.03239
3336.73,0.03332
3330.94,0.03444
3325.16,0.03498
3319.37,0.03486
3313.58,0.03490
3307.8,0.03524
3302.01,0.03496
3296.23,0.03525
3290.44,0.03561
3284.65,0.03600
3278.87,0.03627
3273.08,0.03754
3267.29,0.03697
3261.51,0.03896
3255.72,0.03983
3249.94,0.04172
3244.15,0.04196
3238.36,0.04282
3232.58,0.04424
3226.79,0.04468
3221,0.04607
3215.22,0.04741
3209.43,0.04797
3203.65,0.04955
3197.86,0.05100
3192.07,0.05284
3186.29,0.05389
3180.5,0.05612
3174.71,0.05722
3168.93,0.05918
3163.14,0.06073
3157.36,0.06277
3151.57,0.06460
3145.78,0.06707
3140,0.06868
3134.21,0.07080
3128.42,0.07342
3122.64,0.07543
3116.85,0.07790
3111.07,0.08014
3105.28,0.08263
3099.49,0.08560
3093.71,0.08761
3087.92,0.09022
3082.14,0.09302
3076.35,0.09548
3070.56,0.09800
3064.78,0.09981
3058.99,0.10251
3053.2,0.10490
3047.42,0.10682
3041.63,0.10892
3035.85,0.11047
3030.06,0.11224
3024.27,0.11406
3018.49,0.11455
3012.7,0.11586
3006.91,0.11550
3001.13,0.11421
2995.34,0.11183
2989.56,0.10708
2983.77,0.09969
2977.98,0.08853
2972.2,0.07366
2966.41,0.06628
2960.62,0.06462
2954.84,0.06331
2949.05,0.05928
2943.27,0.05619
2937.48,0.05663
2931.69,0.05537
2925.91,0.05322
2920.12,0.05049
2914.33,0.04834
2908.55,0.04706
2902.76,0.04614
2896.98,0.04748
2891.19,0.04910
2885.4,0.05099
2879.62,0.05226
2873.83,0.05267
2868.04,0.05366
2862.26,0.05496
2856.47,0.05585
2850.69,0.05862
2844.9,0.06446
2839.11,0.07031
2833.33,0.07586
2827.54,0.08023
2821.75,0.08367
2815.97,0.08830
2810.18,0.09366
2804.4,0.09745
2798.61,0.10102
2792.82,0.10362
2787.04,0.10479
2781.25,0.10581
2775.46,0.10660
2769.68,0.10726
2763.89,0.10794
2758.11,0.10878
2752.32,0.10914
2746.53,0.10853
2740.75,0.10809
2734.96,0.10875
2729.17,0.10923
2723.39,0.11076
2717.6,0.11222
2711.82,0.11438
2706.03,0.11709
2700.24,0.12035
2694.46,0.12333
2688.67,0.12731
2682.88,0.12999
2677.1,0.13243
2671.31,0.13501
2665.53,0.13634
2659.74,0.13713
2653.95,0.13913
2648.17,0.14142
2642.38,0.14432
2636.59,0.14619
2630.81,0.14819
2625.02,0.15059
2619.24,0.15207
2613.45,0.15361
2607.66,0.15481
2601.88,0.15688
2596.09,0.15826
2590.3,0.15966
2584.52,0.16037
2578.73,0.16078
2572.95,0.16124
2567.16,0.15989
2561.37,0.15922
2555.59,0.15843
2549.8,0.15763
2544.02,0.15668
2538.23,0.15634
2532.44,0.15740
2526.66,0.15842
2520.87,0.15961
2515.08,0.16029
2509.3,0.16325
2503.51,0.16727
2497.73,0.17099
2491.94,0.17447
2486.15,0.17715
2480.37,0.17899
2474.58,0.18185
2468.79,0.18456
2463.01,0.18644
2457.22,0.18781
2451.44,0.18968
2445.65,0.19235
2439.86,0.19497
2434.08,0.19805
2428.29,0.20145
2422.5,0.20473
2416.72,0.20838
2410.93,0.21053
2405.15,0.21303
2399.36,0.21544
2393.57,0.21821
2387.79,0.22043
2382,0.22305
2376.21,0.22611
2370.43,0.22954
2364.64,0.23212
2358.86,0.23359
2353.07,0.23589
2347.28,0.23807
2341.5,0.24047
2335.71,0.24296
2329.92,0.24401
2324.14,0.24607
2318.35,0.24716
2312.57,0.24809
2306.78,0.24867
2300.99,0.24754
2295.21,0.24584
2289.42,0.24501
2283.63,0.24394
2277.85,0.24306
2272.06,0.24063
2266.28,0.23634
2260.49,0.23241
2254.7,0.22908
2248.92,0.22733
2243.13,0.22607
2237.34,0.22539
2231.56,0.22491
2225.77,0.22523
2219.99,0.22737
2214.2,0.23007
2208.41,0.23203
2202.63,0.23197
2196.84,0.23029
2191.05,0.22839
2185.27,0.22461
2179.48,0.21985
2173.7,0.21436
2167.91,0.20922
2162.12,0.20491
2156.34,0.20201
2150.55,0.19945
2144.76,0.19770
2138.98,0.19530
2133.19,0.19483
2127.41,0.19652
2121.62,0.19924
2115.83,0.20197
2110.05,0.20475
2104.26,0.20775
2098.47,0.21007
2092.69,0.21249
2086.9,0.21412
2081.12,0.21522
2075.33,0.21494
2069.54,0.21346
2063.76,0.21363
2057.97,0.21358
2052.19,0.21366
2046.4,0.21403
2040.61,0.21547
2034.83,0.21876
2029.04,0.22384
2023.25,0.22916
2017.47,0.23483
2011.68,0.23958
2005.9,0.24214
2000.11,0.24381
1994.32,0.24618
1988.54,0.24937
1982.75,0.25238
1976.96,0.25392
1971.18,0.25457
1965.39,0.25574
1959.61,0.25723
1953.82,0.26000
1948.03,0.26303
1942.25,0.26813
1936.46,0.27248
1930.67,0.27587
1924.89,0.27872
1919.1,0.28005
1913.32,0.28171
1907.53,0.28316
1901.74,0.28317
1895.96,0.28293
1890.17,0.28229
1884.38,0.28151
1878.6,0.28080
1872.81,0.27996
1867.03,0.27893
1861.24,0.27738
1855.45,0.27515
1849.67,0.27190
1843.88,0.26825
1838.09,0.26543
1832.31,0.26348
1826.52,0.26125
1820.74,0.25824
1814.95,0.25546
1809.16,0.25195
1803.38,0.24806
1797.59,0.24494
1791.8,0.24106
1786.02,0.23739
1780.23,0.23313
1774.45,0.22873
1768.66,0.22366
1762.87,0.21927
1757.09,0.21433
1751.3,0.21019
1745.51,0.20478
1739.73,0.19895
1733.94,0.19386
1728.16,0.18951
1722.37,0.18709
1716.58,0.18338
1710.8,0.17961
1705.01,0.17550
1699.22,0.16972
1693.44,0.16221
1687.65,0.15387
1681.87,0.14386
1676.08,0.13426
1670.29,0.12453
1664.51,0.11680
1658.72,0.11129
1652.93,0.10761
1647.15,0.10471
1641.36,0.10236
1635.58,0.10106
1629.79,0.10085
1624,0.10254
1618.22,0.10454
1612.43,0.10529
1606.64,0.10628
1600.86,0.10772
1595.07,0.10986
1589.29,0.11326
1583.5,0.11796
1577.71,0.12186
1571.93,0.12570
1566.14,0.12777
1560.35,0.12954
1554.57,0.12952
1548.78,0.12916
1543,0.12890
1537.21,0.12719
1531.42,0.12527
1525.64,0.12233
1519.85,0.11683
1514.07,0.11055
1508.28,0.10575
1502.49,0.10062
1496.71,0.09497
1490.92,0.08584
1485.13,0.07247
1479.35,0.06348
1473.56,0.05788
1467.78,0.05110
1461.99,0.04523
1456.2,0.04158
1450.42,0.03984
1444.63,0.03819
1438.84,0.03618
1433.06,0.03415
1427.27,0.03551
1421.49,0.03894
1415.7,0.04227
1409.91,0.04348
1404.13,0.04370
1398.34,0.04360
1392.55,0.04167
1386.77,0.03756
1380.98,0.03373
1375.2,0.03138
1369.41,0.03170
1363.62,0.03315
1357.84,0.03362
1352.05,0.03492
1346.26,0.03495
1340.48,0.03377
1334.69,0.03375
1328.91,0.03396
1323.12,0.03404
1317.33,0.03469
1311.55,0.03739
1305.76,0.04014
1299.97,0.04182
1294.19,0.04140
1288.4,0.03972
1282.62,0.03724
1276.83,0.03930
1271.04,0.04018
1265.26,0.03896
1259.47,0.03906
1253.68,0.04010
1247.9,0.03936
1242.11,0.03927
1236.33,0.03831
1230.54,0.03933
1224.75,0.04042
1218.97,0.03976
1213.18,0.03666
1207.39,0.03116
1201.61,0.03004
1195.82,0.03023
1190.04,0.02962
1184.25,0.02699
1178.46,0.02677
1172.68,0.03195
1166.89,0.04096
1161.1,0.04087
1155.32,0.03550
1149.53,0.03128
1143.75,0.02810
1137.96,0.02455
1132.17,0.02189
1126.39,0.02350
1120.6,0.02789
1114.81,0.03140
1109.03,0.03449
1103.24,0.03398
1097.46,0.03197
1091.67,0.02988
1085.88,0.03099
1080.1,0.03810
1074.31,0.04707
1068.52,0.05707
1062.74,0.06854
1056.95,0.06779
1051.17,0.06068
1045.38,0.05334
1039.59,0.05653
1033.81,0.06316
1028.02,0.06103
1022.24,0.05861
1016.45,0.05825
1010.66,0.05875
1004.88,0.05720
999.09,0.05755
993.304,0.06016
987.518,0.06147
981.731,0.06838
975.945,0.07799
970.159,0.08366
964.373,0.09006
958.586,0.09851
952.8,0.10692
947.014,0.11159
941.228,0.11399
935.441,0.11401
929.655,0.11480
923.869,0.11662
918.083,0.11303
912.297,0.10422
906.51,0.09585
900.724,0.08958
894.938,0.08812
889.152,0.09658
883.365,0.10608
877.579,0.11157
871.793,0.11799
866.007,0.12191
860.22,0.12462
854.434,0.12513
848.648,0.12388
842.862,0.12187
837.075,0.11709
831.289,0.11251
825.503,0.10317
819.717,0.09518
813.931,0.09012
808.144,0.08384
802.358,0.08079
796.572,0.08075
790.786,0.08363
784.999,0.08735
779.213,0.08643
773.427,0.08428
767.641,0.08082
761.854,0.07678
756.068,0.07297
750.282,0.06873
744.496,0.06498
738.709,0.06163
732.923,0.05737
727.137,0.05366
721.351,0.04982
715.565,0.04768
709.778,0.04830
703.992,0.04770
698.206,0.04888
692.42,0.05000
686.633,0.04746
680.847,0.04731
675.061,0.04730
669.275,0.04802
663.488,0.04800
657.702,0.04860
651.916,0.04554
646.13,0.04474
640.343,0.04534
634.557,0.04189
628.771,0.04076
622.985,0.04016
617.198,0.04036
611.412,0.04524
605.626,0.04605
599.84,0.04737