File: 01_Data/Hemp_Sheet/FTIR/IS/Hemp_Sheet_IS_S_220909_R7.dpt
7497.03,0.57022
7491.25,0.57663
7485.46,0.56450
7479.67,0.56776
7473.89,0.56673
7468.1,0.56003
7462.32,0.57141
7456.53,0.56673
7450.74,0.56784
7444.96,0.57192
7439.17,0.55751
7433.38,0.56763
7427.6,0.56335
7421.81,0.57063
7416.03,0.56730
7410.24,0.56574
7404.45,0.56784
7398.67,0.56215
7392.88,0.56281
7387.09,0.56172
7381.31,0.57306
7375.52,0.57029
7369.74,0.55531
7363.95,0.56068
7358.16,0.56607
7352.38,0.57741
7346.59,0.56823
7340.8,0.56009
7335.02,0.55811
7329.23,0.56247
7323.45,0.56564
7317.66,0.56034
7311.87,0.56312
7306.09,0.54801
7300.3,0.55720
7294.51,0.55704
7288.73,0.55146
7282.94,0.55693
7277.16,0.55085
7271.37,0.55694
7265.58,0.55037
7259.8,0.55733
7254.01,0.54864
7248.22,0.55369
7242.44,0.55316
7236.65,0.55831
7230.87,0.55829
7225.08,0.56016
7219.29,0.55797
7213.51,0.54843
7207.72,0.55904
7201.93,0.55073
7196.15,0.55836
7190.36,0.55622
7184.58,0.55374
7178.79,0.56236
7173,0.54985
7167.22,0.55638
7161.43,0.55510
7155.65,0.55322
7149.86,0.55713
7144.07,0.55356
7138.29,0.55210
7132.5,0.55174
7126.71,0.54839
7120.93,0.54755
7115.14,0.54790
7109.36,0.55390
7103.57,0.54428
7097.78,0.55025
7092,0.54246
7086.21,0.54078
7080.42,0.53644
7074.64,0.53573
7068.85,0.53188
7063.07,0.53103
7057.28,0.52869
7051.49,0.52474
7045.71,0.51838
7039.92,0.52798
7034.13,0.52329
7028.35,0.51569
7022.56,0.51197
7016.78,0.50694
7010.99,0.51228
7005.2,0.50688
6999.42,0.50056
6993.63,0.50175
6987.84,0.49945
6982.06,0.50625
6976.27,0.49495
6970.49,0.49941
6964.7,0.49738
6958.91,0.49200
6953.13,0.49592
6947.34,0.49650
6941.55,0.49610
6935.77,0.50014
6929.98,0.50179
6924.2,0.49834
6918.41,0.48937
6912.62,0.48976
6906.84,0.48740
6901.05,0.48892
6895.26,0.48880
6889.48,0.48853
6883.69,0.48738
6877.91,0.48896
6872.12,0.48214
6866.33,0.48667
6860.55,0.48210
6854.76,0.48172
6848.97,0.48075
6843.19,0.48059
6837.4,0.47761
6831.62,0.47839
6825.83,0.47479
6820.04,0.47760
6814.26,0.47942
6808.47,0.47787
6802.68,0.47401
6796.9,0.47226
6791.11,0.47063
6785.33,0.46984
6779.54,0.46886
6773.75,0.46846
6767.97,0.47076
6762.18,0.46726
6756.39,0.46736
6750.61,0.46488
6744.82,0.46231
6739.04,0.46424
6733.25,0.46032
6727.46,0.46696
6721.68,0.46183
6715.89,0.45874
6710.1,0.46127
6704.32,0.46772
6698.53,0.46250
6692.75,0.46495
6686.96,0.46181
6681.17,0.46338
6675.39,0.46220
6669.6,0.46251
6663.82,0.46437
6658.03,0.46618
6652.24,0.46527
6646.46,0.46350
6640.67,0.46855
6634.88,0.47066
6629.1,0.46306
6623.31,0.46223
6617.53,0.47256
6611.74,0.47024
6605.95,0.46971
6600.17,0.47334
6594.38,0.47408
6588.59,0.46999
6582.81,0.47129
6577.02,0.47307
6571.24,0.47561
6565.45,0.47400
6559.66,0.47158
6553.88,0.47564
6548.09,0.47281
6542.3,0.47388
6536.52,0.47437
6530.73,0.47242
6524.95,0.47328
6519.16,0.47238
6513.37,0.47445
6507.59,0.47408
6501.8,0.47457
6496.01,0.47668
6490.23,0.47468
6484.44,0.47382
6478.66,0.47599
6472.87,0.47588
6467.08,0.47557
6461.3,0.47239
6455.51,0.47380
6449.72,0.47665
6443.94,0.47790
6438.15,0.47815
6432.37,0.47704
6426.58,0.47726
6420.79,0.48031
6415.01,0.48316
6409.22,0.47680
6403.43,0.47692
6397.65,0.47798
6391.86,0.48071
6386.08,0.47603
6380.29,0.47641
6374.5,0.47990
6368.72,0.47911
6362.93,0.48043
6357.14,0.48134
6351.36,0.48530
6345.57,0.48187
6339.79,0.47876
6334,0.48041
6328.21,0.47822
6322.43,0.48010
6316.64,0.48184
6310.85,0.48567
6305.07,0.48835
6299.28,0.48465
6293.5,0.48420
6287.71,0.48487
6281.92,0.48462
6276.14,0.48735
6270.35,0.48575
6264.56,0.48824
6258.78,0.48860
6252.99,0.49203
6247.21,0.49498
6241.42,0.49393
6235.63,0.49612
6229.85,0.49875
6224.06,0.49982
6218.27,0.50007
6212.49,0.50348
6206.7,0.50495
6200.92,0.50698
6195.13,0.51119
6189.34,0.51037
6183.56,0.50983
6177.77,0.50844
6171.98,0.51259
6166.2,0.51145
6160.41,0.51781
6154.63,0.51756
6148.84,0.51642
6143.05,0.51819
6137.27,0.52072
6131.48,0.52150
6125.7,0.52175
6119.91,0.52458
6114.12,0.52220
6108.34,0.52451
6102.55,0.52593
6096.76,0.52593
6090.98,0.52594
6085.19,0.52838
6079.41,0.52959
6073.62,0.52993
6067.83,0.53004
6062.05,0.53151
6056.26,0.53341
6050.47,0.53404
6044.69,0.53806
6038.9,0.53563
6033.12,0.53405
6027.33,0.53427
6021.54,0.53707
6015.76,0.53676
6009.97,0.53861
6004.18,0.54056
5998.4,0.54163
5992.61,0.53972
5986.83,0.54219
5981.04,0.54261
5975.25,0.53720
5969.47,0.54419
5963.68,0.54272
5957.89,0.54152
5952.11,0.54386
5946.32,0.54232
5940.54,0.53891
5934.75,0.53889
5928.96,0.53763
5923.18,0.53759
5917.39,0.53679
5911.6,0.53809
5905.82,0.53549
5900.03,0.53872
5894.25,0.53588
5888.46,0.53389
5882.67,0.53170
5876.89,0.53201
5871.1,0.52969
5865.31,0.52653
5859.53,0.52840
5853.74,0.53019
5847.96,0.52852
5842.17,0.53133
5836.38,0.53084
5830.6,0.53139
5824.81,0.53169
5819.02,0.52789
5813.24,0.52728
5807.45,0.52681
5801.67,0.52677
5795.88,0.52829
5790.09,0.52849
5784.31,0.52559
5778.52,0.52657
5772.73,0.52551
5766.95,0.52621
5761.16,0.52649
5755.38,0.52544
5749.59,0.52645
5743.8,0.52465
5738.02,0.52209
5732.23,0.52243
5726.44,0.52405
5720.66,0.52496
5714.87,0.52469
5709.09,0.52462
5703.3,0.52307
5697.51,0.52378
5691.73,0.52282
5685.94,0.52257
5680.15,0.52367
5674.37,0.52164
5668.58,0.52228
5662.8,0.52039
5657.01,0.52064
5651.22,0.52091
5645.44,0.52191
5639.65,0.52088
5633.87,0.52023
5628.08,0.52325
5622.29,0.52108
5616.51,0.52082
5610.72,0.52160
5604.93,0.51936
5599.15,0.51950
5593.36,0.52019
5587.58,0.52028
5581.79,0.52030
5576,0.52326
5570.22,0.52096
5564.43,0.52110
5558.64,0.52131
5552.86,0.52155
5547.07,0.52178
5541.29,0.52205
5535.5,0.52173
5529.71,0.52192
5523.93,0.52097
5518.14,0.52201
5512.35,0.52163
5506.57,0.52209
5500.78,0.52166
5495,0.52208
5489.21,0.52160
5483.42,0.52338
5477.64,0.52270
5471.85,0.52195
5466.06,0.52192
5460.28,0.52267
5454.49,0.52350
5448.71,0.52556
5442.92,0.52378
5437.13,0.52429
5431.35,0.52689
5425.56,0.52749
5419.77,0.52771
5413.99,0.52913
5408.2,0.52966
5402.42,0.53050
5396.63,0.53176
5390.84,0.53273
5385.06,0.53092
5379.27,0.53140
5373.48,0.53347
5367.7,0.53136
5361.91,0.53286
5356.13,0.53271
5350.34,0.53278
5344.55,0.53260
5338.77,0.53204
5332.98,0.53161
5327.19,0.53181
5321.41,0.52994
5315.62,0.52978
5309.84,0.52857
5304.05,0.52576
5298.26,0.52451
5292.48,0.52376
5286.69,0.52002
5280.9,0.51748
5275.12,0.51318
5269.33,0.51003
5263.55,0.50552
5257.76,0.49970
5251.97,0.49700
5246.19,0.49138
5240.4,0.48674
5234.61,0.48446
5228.83,0.48175
5223.04,0.47781
5217.26,0.47472
5211.47,0.47260
5205.68,0.46999
5199.9,0.46865
5194.11,0.46763
5188.32,0.46736
5182.54,0.46866
5176.75,0.46790
5170.97,0.46774
5165.18,0.46902
5159.39,0.47081
5153.61,0.47207
5147.82,0.47283
5142.03,0.47500
5136.25,0.47469
5130.46,0.47695
5124.68,0.47854
5118.89,0.48013
5113.1,0.48037
5107.32,0.48250
5101.53,0.48490
5095.75,0.48644
5089.96,0.48624
5084.17,0.48816
5078.39,0.49029
5072.6,0.49092
5066.81,0.49036
5061.03,0.49295
5055.24,0.49315
5049.46,0.49593
5043.67,0.49585
5037.88,0.49599
5032.1,0.49660
5026.31,0.49679
5020.52,0.49697
5014.74,0.49709
5008.95,0.49651
5003.17,0.49693
4997.38,0.49585
4991.59,0.49550
4985.81,0.49425
4980.02,0.49282
4974.23,0.49164
4968.45,0.48974
4962.66,0.48710
4956.88,0.48563
4951.09,0.48203
4945.3,0.47769
4939.52,0.47480
4933.73,0.46965
4927.94,0.46551
4922.16,0.46277
4916.37,0.45616
4910.59,0.45242
4904.8,0.44668
4899.01,0.44032
4893.23,0.43436
4887.44,0.42893
4881.65,0.42345
4875.87,0.41830
4870.08,0.41375
4864.3,0.40813
4858.51,0.40273
4852.72,0.39886
4846.94,0.39576
4841.15,0.39105
4835.36,0.38678
4829.58,0.38204
4823.79,0.37792
4818.01,0.37448
4812.22,0.37144
4806.43,0.36778
4800.65,0.36588
4794.86,0.36379
4789.07,0.36242
4783.29,0.36095
4777.5,0.35941
4771.72,0.35871
4765.93,0.35690
4760.14,0.35609
4754.36,0.35653
4748.57,0.35528
4742.78,0.35695
4737,0.35780
4731.21,0.35874
4725.43,0.36032
4719.64,0.36350
4713.85,0.36481
4708.07,0.36683
4702.28,0.36852
4696.49,0.37138
4690.71,0.37342
4684.92,0.37611
4679.14,0.37973
4673.35,0.38200
4667.56,0.38382
4661.78,0.38622
4655.99,0.38904
4650.2,0.39129
4644.42,0.39288
4638.63,0.39473
4632.85,0.39629
4627.06,0.39813
4621.27,0.40063
4615.49,0.40264
4609.7,0.40534
4603.92,0.40706
4598.13,0.40976
4592.34,0.41168
4586.56,0.41383
4580.77,0.41593
4574.98,0.41813
4569.2,0.42030
4563.41,0.42367
4557.63,0.42631
4551.84,0.42859
4546.05,0.42967
4540.27,0.43128
4534.48,0.43315
4528.69,0.43435
4522.91,0.43534
4517.12,0.43666
4511.34,0.43765
4505.55,0.43776
4499.76,0.43825
4493.98,0.43859
4488.19,0.43867
4482.4,0.43875
4476.62,0.43840
4470.83,0.43668
4465.05,0.43487
4459.26,0.43150
4453.47,0.42799
4447.69,0.42204
4441.9,0.41655
4436.11,0.41033
4430.33,0.40188
4424.54,0.39424
4418.76,0.38439
4412.97,0.37561
4407.18,0.36872
4401.4,0.36336
4395.61,0.36222
4389.82,0.36437
4384.04,0.36710
4378.25,0.37026
4372.47,0.37353
4366.68,0.37464
4360.89,0.37389
4355.11,0.37357
4349.32,0.37110
4343.53,0.36996
4337.75,0.36782
4331.96,0.36531
4326.18,0.36145
4320.39,0.35843
4314.6,0.35646
4308.82,0.35426
4303.03,0.35101
4297.24,0.34805
4291.46,0.34543
4285.67,0.34306
4279.89,0.34196
4274.1,0.34187
4268.31,0.34165
4262.53,0.34177
4256.74,0.34306
4250.95,0.34299
4245.17,0.34375
4239.38,0.34455
4233.6,0.34559
4227.81,0.34631
4222.02,0.34710
4216.24,0.34693
4210.45,0.34815
4204.66,0.35121
4198.88,0.35342
4193.09,0.35392
4187.31,0.35447
4181.52,0.35358
4175.73,0.35520
4169.95,0.35657
4164.16,0.35834
4158.37,0.35765
4152.59,0.35787
4146.8,0.35518
4141.02,0.35360
4135.23,0.35260
4129.44,0.35079
4123.66,0.34761
4117.87,0.34375
4112.09,0.33913
4106.3,0.33402
4100.51,0.32797
4094.73,0.32165
4088.94,0.31629
4083.15,0.30965
4077.37,0.30380
4071.58,0.29741
4065.8,0.29197
4060.01,0.28477
4054.22,0.27801
4048.44,0.27150
4042.65,0.26470
4036.86,0.26028
4031.08,0.25719
4025.29,0.25604
4019.51,0.25501
4013.72,0.25734
4007.93,0.25925
4002.15,0.26215
3996.36,0.26534
3990.57,0.26751
3984.79,0.27065
3979,0.27305
3973.22,0.27487
3967.43,0.27739
3961.64,0.28022
3955.86,0.28176
3950.07,0.28463
3944.28,0.28730
3938.5,0.29042
3932.71,0.29377
3926.93,0.29701
3921.14,0.29900
3915.35,0.30201
3909.57,0.30389
3903.78,0.30617
3897.99,0.30776
3892.21,0.30968
3886.42,0.31099
3880.64,0.31311
3874.85,0.31370
3869.06,0.31637
3863.28,0.32016
3857.49,0.32368
3851.7,0.32717
3845.92,0.32991
3840.13,0.33291
3834.35,0.33428
3828.56,0.33535
3822.77,0.33562
3816.99,0.33549
3811.2,0.33531
3805.41,0.33538
3799.63,0.33613
3793.84,0.33728
3788.06,0.33728
3782.27,0.33702
3776.48,0.33642
3770.7,0.33568
3764.91,0.33531
3759.12,0.33436
3753.34,0.33316
3747.55,0.33262
3741.77,0.33035
3735.98,0.32801
3730.19,0.32440
3724.41,0.32112
3718.62,0.31687
3712.83,0.31268
3707.05,0.30623
3701.26,0.30035
3695.48,0.29313
3689.69,0.28505
3683.9,0.27373
3678.12,0.26303
3672.33,0.24864
3666.54,0.23382
3660.76,0.21929
3654.97,0.20334
3649.19,0.18937
3643.4,0.17524
3637.61,0.16213
3631.83,0.15036
3626.04,0.13791
3620.25,0.12708
3614.47,0.11600
3608.68,0.10594
3602.9,0.09614
3597.11,0.08859
3591.32,0.08207
3585.54,0.07572
3579.75,0.07016
3573.97,0.06479
3568.18,0.06066
3562.39,0.05685
3556.61,0.05313
3550.82,0.04969
3545.03,0.04709
3539.25,0.04453
3533.46,0.04235
3527.68,0.04025
3521.89,0.03867
3516.1,0.03708
3510.32,0.03566
3504.53,0.03449
3498.74,0.03270
3492.96,0.03132
3487.17,0.03046
3481.39,0.03079
3475.6,0.02955
3469.81,0.02948
3464.03,0.02860
3458.24,0.02843
3452.45,0.02886
3446.67,0.02881
3440.88,0.02870
3435.1,0.02812
3429.31,0.02738
3423.52,0.02839
3417.74,0.02847
3411.95,0.02871
3406.16,0.02791
3400.38,0.02818
3394.59,0.02823
3388.81,0.02857
3383.02,0.02848
3377.23,0.02883
3371.45,0.02886
3365.66,0.02894
3359.87,0.03000
3354.09,0.03034
3348.3,0.03118
3342.52,0.03292
3336.73,0.03409
3330.94,0.03420
3325.16,0.03489
3319.37,0.03474
3313.58,0.03461
3307.8,0.03432
3302.01,0.03498
3296.23,0.03498
3290.44,0.03597
3284.65,0.03554
3278.87,0.03617
3273.08,0.03754
3267.29,0.03849
3261.51,0.03921
3255.72,0.03965
3249.94,0.04133
3244.15,0.04158
3238.36,0.04234
3232.58,0.04309
3226.79,0.04407
3221,0.04535
3215.22,0.04626
3209.43,0.04789
3203.65,0.04879
3197.86,0.05043
3192.07,0.05203
3186.29,0.05359
3180.5,0.05571
3174.71,0.05672
3168.93,0.05826
3163.14,0.06073
3157.36,0.06287
3151.57,0.06473
3145.78,0.06675
3140,0.06806
3134.21,0.07063
3128.42,0.07305
3122.64,0.07484
3116.85,0.07754
3111.07,0.07977
3105.28,0.08184
3099.49,0.08484
3093.71,0.08764
3087.92,0.09001
3082.14,0.09259
3076.35,0.09522
3070.56,0.09743
3064.78,0.09971
3058.99,0.10233
3053.2,0.10442
3047.42,0.10710
3041.63,0.10880
3035.85,0.11041
3030.06,0.11208
3024.27,0.11361
3018.49,0.11514
3012.7,0.11578
3006.91,0.11595
3001.13,0.11460
2995.34,0.11170
2989.56,0.10686
2983.77,0.09917
2977.98,0.08873
2972.2,0.07404
2966.41,0.06646
2960.62,0.06582
2954.84,0.06380
2949.05,0.05961
2943.27,0.05683
2937.48,0.05614
2931.69,0.05513
2925.91,0.05322
2920.12,0.05051
2914.33,0.04864
2908.55,0.04680
2902.76,0.04611
2896.98,0.04758
2891.19,0.04928
2885.4,0.05094
2879.62,0.05204
2873.83,0.05288
2868.04,0.05315
2862.26,0.05481
2856.47,0.05615
2850.69,0.05862
2844.9,0.06466
2839.11,0.07031
2833.33,0.07551
2827.54,0.07990
2821.75,0.08448
2815.97,0.08875
2810.18,0.09374
2804.4,0.09756
2798.61,0.10143
2792.82,0.10434
2787.04,0.10545
2781.25,0.10625
2775.46,0.10661
2769.68,0.10758
2763.89,0.10811
2758.11,0.10855
2752.32,0.10917
2746.53,0.10927
2740.75,0.10865
2734.96,0.10888
2729.17,0.10975
2723.39,0.11087
2717.6,0.11244
2711.82,0.11470
2706.03,0.11768
2700.24,0.12082
2694.46,0.12403
2688.67,0.12757
2682.88,0.13045
2677.1,0.13337
2671.31,0.13554
2665.53,0.13646
2659.74,0.13766
2653.95,0.13930
2648.17,0.14153
2642.38,0.14444
2636.59,0.14652
2630.81,0.14854
2625.02,0.15088
2619.24,0.15297
2613.45,0.15484
2607.66,0.15597
2601.88,0.15760
2596.09,0.15912
2590.3,0.15989
2584.52,0.16078
2578.73,0.16178
2572.95,0.16171
2567.16,0.16074
2561.37,0.15960
2555.59,0.15919
2549.8,0.15869
2544.02,0.15692
2538.23,0.15724
2532.44,0.15801
2526.66,0.15952
2520.87,0.15964
2515.08,0.16109
2509.3,0.16360
2503.51,0.16793
2497.73,0.17129
2491.94,0.17512
2486.15,0.17771
2480.37,0.18029
2474.58,0.18316
2468.79,0.18524
2463.01,0.18702
2457.22,0.18840
2451.44,0.19023
2445.65,0.19319
2439.86,0.19604
2434.08,0.19871
2428.29,0.20241
2422.5,0.20588
2416.72,0.20865
2410.93,0.21148
2405.15,0.21403
2399.36,0.21628
2393.57,0.21886
2387.79,0.22147
2382,0.22388
2376.21,0.22716
2370.43,0.23017
2364.64,0.23283
2358.86,0.23476
2353.07,0.23675
2347.28,0.23927
2341.5,0.24193
2335.71,0.24402
2329.92,0.24528
2324.14,0.24692
2318.35,0.24861
2312.57,0.24918
2306.78,0.24919
2300.99,0.24811
2295.21,0.24685
2289.42,0.24547
2283.63,0.24483
2277.85,0.24397
2272.06,0.24136
2266.28,0.23717
2260.49,0.23301
2254.7,0.22993
2248.92,0.22843
2243.13,0.22674
2237.34,0.22586
2231.56,0.22541
2225.77,0.22643
2219.99,0.22839
2214.2,0.23123
2208.41,0.23246
2202.63,0.23252
2196.84,0.23103
2191.05,0.22896
2185.27,0.22520
2179.48,0.22056
2173.7,0.21504
2167.91,0.21010
2162.12,0.20561
2156.34,0.20240
2150.55,0.20010
2144.76,0.19820
2138.98,0.19596
2133.19,0.19548
2127.41,0.19719
2121.62,0.19984
2115.83,0.20265
2110.05,0.20542
2104.26,0.20838
2098.47,0.21086
2092.69,0.21292
2086.9,0.21481
2081.12,0.21577
2075.33,0.21524
2069.54,0.21420
2063.76,0.21386
2057.97,0.21395
2052.19,0.21447
2046.4,0.21466
2040.61,0.21605
2034.83,0.21969
2029.04,0.22420
2023.25,0.23001
2017.47,0.23576
2011.68,0.24053
2005.9,0.24333
2000.11,0.24477
1994.32,0.24709
1988.54,0.25065
1982.75,0.25324
1976.96,0.25496
1971.18,0.25594
1965.39,0.25691
1959.61,0.25826
1953.82,0.26047
1948.03,0.26436
1942.25,0.26904
1936.46,0.27352
1930.67,0.27679
1924.89,0.27957
1919.1,0.28146
1913.32,0.28294
1907.53,0.28393
1901.74,0.28429
1895.96,0.28392
1890.17,0.28321
1884.38,0.28279
1878.6,0.28172
1872.81,0.28125
1867.03,0.27987
1861.24,0.27811
1855.45,0.27585
1849.67,0.27298
1843.88,0.26949
1838.09,0.26632
1832.31,0.26398
1826.52,0.26168
1820.74,0.25926
1814.95,0.25629
1809.16,0.25277
1803.38,0.24905
1797.59,0.24562
1791.8,0.24206
1786.02,0.23813
1780.23,0.23393
1774.45,0.22917
1768.66,0.22434
1762.87,0.21966
1757.09,0.21548
1751.3,0.21101
1745.51,0.20535
1739.73,0.19900
1733.94,0.19382
1728.16,0.18991
1722.37,0.18714
1716.58,0.18366
1710.8,0.18011
1705.01,0.17547
1699.22,0.16987
1693.44,0.16208
1687.65,0.15321
1681.87,0.14303
1676.08,0.13348
1670.29,0.12400
1664.51,0.11621
1658.72,0.11077
1652.93,0.10725
1647.15,0.10418
1641.36,0.10196
1635.58,0.10100
1629.79,0.10117
1624,0.10232
1618.22,0.10407
1612.43,0.10541
1606.64,0.10637
1600.86,0.10790
1595.07,0.10991
1589.29,0.11322
1583.5,0.11760
1577.71,0.12238
1571.93,0.12568
1566.14,0.12764
1560.35,0.12947
1554.57,0.12934
1548.78,0.12917
1543,0.12875
1537.21,0.12791
1531.42,0.12564
1525.64,0.12256
1519.85,0.11742
1514.07,0.11055
1508.28,0.10529
1502.49,0.10061
1496.71,0.09525
1490.92,0.08600
1485.13,0.07268
1479.35,0.06390
1473.56,0.05791
1467.78,0.05089
1461.99,0.04552
1456.2,0.04181
1450.42,0.04003
1444.63,0.03818
1438.84,0.03602
1433.06,0.03462
1427.27,0.03590
1421.49,0.03891
1415.7,0.04289
1409.91,0.04394
1404.13,0.04379
1398.34,0.04365
1392.55,0.04156
1386.77,0.03785
1380.98,0.03361
1375.2,0.03171
1369.41,0.03217
1363.62,0.03270
1357.84,0.03353
1352.05,0.03477
1346.26,0.03483
1340.48,0.03358
1334.69,0.03406
1328.91,0.03450
1323.12,0.03403
1317.33,0.03449
1311.55,0.03679
1305.76,0.04025
1299.97,0.04204
1294.19,0.04162
1288.4,0.03947
1282.62,0.03732
1276.83,0.03909
1271.04,0.04061
1265.26,0.03973
1259.47,0.03922
1253.68,0.04025
1247.9,0.03971
1242.11,0.03914
1236.33,0.03802
1230.54,0.03935
1224.75,0.04019
1218.97,0.04024
1213.18,0.03610
1207.39,0.03102
1201.61,0.03023
1195.82,0.03015
1190.04,0.02982
1184.25,0.02735
1178.46,0.02659
1172.68,0.03132
1166.89,0.04073
1161.1,0.04097
1155.32,0.03584
1149.53,0.03188
1143.75,0.02798
1137.96,0.02406
1132.17,0.02215
1126.39,0.02269
1120.6,0.02700
1114.81,0.03210
1109.03,0.03449
1103.24,0.03309
1097.46,0.03207
1091.67,0.02943
1085.88,0.03150
1080.1,0.03776
1074.31,0.04695
1068.52,0.05662
1062.74,0.06879
1056.95,0.06766
1051.17,0.06042
1045.38,0.05275
1039.59,0.05605
1033.81,0.06350
1028.02,0.06100
1022.24,0.05862
1016.45,0.05846
1010.66,0.05904
1004.88,0.05699
999.09,0.05762
993.304,0.06006
987.518,0.06133
981.731,0.06824
975.945,0.07773
970.159,0.08376
964.373,0.09006
958.586,0.09841
952.8,0.10650
947.014,0.11180
941.228,0.11383
935.441,0.11441
929.655,0.11545
923.869,0.11660
918.083,0.11282
912.297,0.10500
906.51,0.09623
900.724,0.08937
894.938,0.08940
889.152,0.09677
883.365,0.10585
877.579,0.11225
871.793,0.11778
866.007,0.12206
860.22,0.12399
854.434,0.12496
848.648,0.12329
842.862,0.12166
837.075,0.11749
831.289,0.11100
825.503,0.10180
819.717,0.09419
813.931,0.08940
808.144,0.08463
802.358,0.08042
796.572,0.08068
790.786,0.08335
784.999,0.08515
779.213,0.08598
773.427,0.08268
767.641,0.08054
761.854,0.07689
756.068,0.07204
750.282,0.06830
744.496,0.06464
738.709,0.06072
732.923,0.05697
727.137,0.05166
721.351,0.05027
715.565,0.04840
709.778,0.04707
703.992,0.04722
698.206,0.04800
692.42,0.04807
686.633,0.04774
680.847,0.04715
675.061,0.04492
669.275,0.04621
663.488,0.04649
657.702,0.04796
651.916,0.04527
646.13,0.04301
640.343,0.04128
634.557,0.04105
628.771,0.03874
622.985,0.04216
617.198,0.04307
611.412,0.04402
605.626,0.04469
599.84,0.04699