File: 01_Data/Hemp_Sheet/FTIR/IS/Hemp_Sheet_IS_S_220909_R5.dpt
7497.03,0.57423
7491.25,0.57507
7485.46,0.56663
7479.67,0.58025
7473.89,0.57735
7468.1,0.57932
7462.32,0.57010
7456.53,0.57368
7450.74,0.56929
7444.96,0.56296
7439.17,0.57478
7433.38,0.56366
7427.6,0.57114
7421.81,0.56648
7416.03,0.57053
7410.24,0.57414
7404.45,0.56935
7398.67,0.55974
7392.88,0.55674
7387.09,0.55749
7381.31,0.57456
7375.52,0.57339
7369.74,0.56808
7363.95,0.56107
7358.16,0.56656
7352.38,0.56859
7346.59,0.55577
7340.8,0.56850
7335.02,0.55173
7329.23,0.54738
7323.45,0.55144
7317.66,0.55369
7311.87,0.56221
7306.09,0.56443
7300.3,0.56257
7294.51,0.54389
7288.73,0.55614
7282.94,0.56016
7277.16,0.55693
7271.37,0.55484
7265.58,0.55467
7259.8,0.55622
7254.01,0.55447
7248.22,0.55480
7242.44,0.55840
7236.65,0.56030
7230.87,0.56019
7225.08,0.56109
7219.29,0.55222
7213.51,0.55520
7207.72,0.55361
7201.93,0.56167
7196.15,0.55453
7190.36,0.55864
7184.58,0.55808
7178.79,0.54714
7173,0.55405
7167.22,0.55306
7161.43,0.54753
7155.65,0.55398
7149.86,0.55313
7144.07,0.54855
7138.29,0.55706
7132.5,0.54555
7126.71,0.54642
7120.93,0.54750
7115.14,0.54574
7109.36,0.55273
7103.57,0.55174
7097.78,0.54567
7092,0.53456
7086.21,0.54347
7080.42,0.53461
7074.64,0.53530
7068.85,0.52742
7063.07,0.53100
7057.28,0.52892
7051.49,0.52338
7045.71,0.52069
7039.92,0.52287
7034.13,0.51997
7028.35,0.51473
7022.56,0.51328
7016.78,0.51057
7010.99,0.50455
7005.2,0.50768
6999.42,0.51293
6993.63,0.50902
6987.84,0.50190
6982.06,0.50259
6976.27,0.50291
6970.49,0.49270
6964.7,0.50151
6958.91,0.49638
6953.13,0.49793
6947.34,0.49231
6941.55,0.49326
6935.77,0.49593
6929.98,0.49610
6924.2,0.49106
6918.41,0.48771
6912.62,0.48697
6906.84,0.49035
6901.05,0.49094
6895.26,0.48457
6889.48,0.48629
6883.69,0.48907
6877.91,0.48616
6872.12,0.48867
6866.33,0.48665
6860.55,0.47927
6854.76,0.48152
6848.97,0.48386
6843.19,0.48587
6837.4,0.48176
6831.62,0.48224
6825.83,0.48261
6820.04,0.47326
6814.26,0.47471
6808.47,0.47206
6802.68,0.47311
6796.9,0.47286
6791.11,0.47468
6785.33,0.47054
6779.54,0.46909
6773.75,0.46465
6767.97,0.46559
6762.18,0.46747
6756.39,0.46360
6750.61,0.46519
6744.82,0.46473
6739.04,0.46090
6733.25,0.46281
6727.46,0.46469
6721.68,0.46311
6715.89,0.46283
6710.1,0.46019
6704.32,0.46326
6698.53,0.46024
6692.75,0.45929
6686.96,0.46116
6681.17,0.46221
6675.39,0.46613
6669.6,0.46267
6663.82,0.46579
6658.03,0.46243
6652.24,0.46758
6646.46,0.46484
6640.67,0.47006
6634.88,0.46547
6629.1,0.46708
6623.31,0.46363
6617.53,0.46922
6611.74,0.47484
6605.95,0.47021
6600.17,0.46592
6594.38,0.46989
6588.59,0.47192
6582.81,0.47496
6577.02,0.47419
6571.24,0.46837
6565.45,0.47272
6559.66,0.47482
6553.88,0.47305
6548.09,0.47553
6542.3,0.47529
6536.52,0.47341
6530.73,0.47645
6524.95,0.47572
6519.16,0.47258
6513.37,0.47375
6507.59,0.47091
6501.8,0.47139
6496.01,0.47634
6490.23,0.47456
6484.44,0.47434
6478.66,0.47407
6472.87,0.47498
6467.08,0.47169
6461.3,0.47320
6455.51,0.47083
6449.72,0.47384
6443.94,0.47459
6438.15,0.47568
6432.37,0.47625
6426.58,0.47611
6420.79,0.47797
6415.01,0.47473
6409.22,0.47319
6403.43,0.47675
6397.65,0.47627
6391.86,0.47930
6386.08,0.47707
6380.29,0.47510
6374.5,0.47729
6368.72,0.47704
6362.93,0.47911
6357.14,0.48040
6351.36,0.48088
6345.57,0.48213
6339.79,0.48045
6334,0.48207
6328.21,0.48257
6322.43,0.48095
6316.64,0.48101
6310.85,0.48169
6305.07,0.48394
6299.28,0.48618
6293.5,0.48359
6287.71,0.48314
6281.92,0.48358
6276.14,0.48859
6270.35,0.48575
6264.56,0.48519
6258.78,0.48733
6252.99,0.49085
6247.21,0.49488
6241.42,0.49547
6235.63,0.49590
6229.85,0.50213
6224.06,0.50122
6218.27,0.50192
6212.49,0.50096
6206.7,0.50018
6200.92,0.50437
6195.13,0.50499
6189.34,0.50936
6183.56,0.50963
6177.77,0.51232
6171.98,0.51142
6166.2,0.51127
6160.41,0.51377
6154.63,0.51302
6148.84,0.51735
6143.05,0.51769
6137.27,0.51867
6131.48,0.52053
6125.7,0.52135
6119.91,0.52291
6114.12,0.52365
6108.34,0.52409
6102.55,0.52816
6096.76,0.52633
6090.98,0.52912
6085.19,0.53007
6079.41,0.52820
6073.62,0.53079
6067.83,0.53297
6062.05,0.53308
6056.26,0.53273
6050.47,0.53460
6044.69,0.53386
6038.9,0.53589
6033.12,0.53477
6027.33,0.53819
6021.54,0.53678
6015.76,0.53991
6009.97,0.53936
6004.18,0.53928
5998.4,0.53842
5992.61,0.54011
5986.83,0.54035
5981.04,0.54448
5975.25,0.53811
5969.47,0.54071
5963.68,0.54376
5957.89,0.54094
5952.11,0.54031
5946.32,0.54037
5940.54,0.54054
5934.75,0.54066
5928.96,0.53823
5923.18,0.53669
5917.39,0.53628
5911.6,0.53709
5905.82,0.53712
5900.03,0.53663
5894.25,0.53453
5888.46,0.53158
5882.67,0.52966
5876.89,0.52810
5871.1,0.52841
5865.31,0.52895
5859.53,0.52711
5853.74,0.52772
5847.96,0.53083
5842.17,0.52797
5836.38,0.52851
5830.6,0.52861
5824.81,0.52983
5819.02,0.52834
5813.24,0.52647
5807.45,0.52797
5801.67,0.52604
5795.88,0.52652
5790.09,0.52442
5784.31,0.52367
5778.52,0.52393
5772.73,0.52404
5766.95,0.52626
5761.16,0.52395
5755.38,0.52167
5749.59,0.52415
5743.8,0.52349
5738.02,0.52461
5732.23,0.52252
5726.44,0.52472
5720.66,0.52337
5714.87,0.52171
5709.09,0.52285
5703.3,0.52445
5697.51,0.52232
5691.73,0.52047
5685.94,0.51973
5680.15,0.52091
5674.37,0.51925
5668.58,0.51991
5662.8,0.51765
5657.01,0.52064
5651.22,0.51918
5645.44,0.51867
5639.65,0.51719
5633.87,0.51917
5628.08,0.51993
5622.29,0.51892
5616.51,0.51683
5610.72,0.51873
5604.93,0.52022
5599.15,0.51959
5593.36,0.51982
5587.58,0.52004
5581.79,0.51854
5576,0.52032
5570.22,0.52029
5564.43,0.51921
5558.64,0.51982
5552.86,0.52159
5547.07,0.52134
5541.29,0.52258
5535.5,0.52166
5529.71,0.52158
5523.93,0.52284
5518.14,0.52188
5512.35,0.52066
5506.57,0.52027
5500.78,0.51961
5495,0.51977
5489.21,0.52055
5483.42,0.51911
5477.64,0.51911
5471.85,0.52029
5466.06,0.52172
5460.28,0.52047
5454.49,0.52187
5448.71,0.52352
5442.92,0.52420
5437.13,0.52560
5431.35,0.52546
5425.56,0.52563
5419.77,0.52631
5413.99,0.52720
5408.2,0.52880
5402.42,0.52850
5396.63,0.52907
5390.84,0.52997
5385.06,0.53052
5379.27,0.53083
5373.48,0.53200
5367.7,0.53094
5361.91,0.53106
5356.13,0.53073
5350.34,0.53236
5344.55,0.53020
5338.77,0.53164
5332.98,0.52843
5327.19,0.52903
5321.41,0.52862
5315.62,0.52695
5309.84,0.52573
5304.05,0.52451
5298.26,0.52196
5292.48,0.51910
5286.69,0.51670
5280.9,0.51539
5275.12,0.50922
5269.33,0.50411
5263.55,0.50081
5257.76,0.49670
5251.97,0.49283
5246.19,0.48795
5240.4,0.48337
5234.61,0.48021
5228.83,0.47752
5223.04,0.47230
5217.26,0.46977
5211.47,0.46727
5205.68,0.46561
5199.9,0.46568
5194.11,0.46436
5188.32,0.46400
5182.54,0.46267
5176.75,0.46400
5170.97,0.46506
5165.18,0.46481
5159.39,0.46540
5153.61,0.46634
5147.82,0.46699
5142.03,0.46902
5136.25,0.47033
5130.46,0.47283
5124.68,0.47405
5118.89,0.47527
5113.1,0.47594
5107.32,0.47849
5101.53,0.47976
5095.75,0.48245
5089.96,0.48176
5084.17,0.48354
5078.39,0.48336
5072.6,0.48585
5066.81,0.48782
5061.03,0.48910
5055.24,0.49064
5049.46,0.49154
5043.67,0.49146
5037.88,0.49218
5032.1,0.49436
5026.31,0.49318
5020.52,0.49239
5014.74,0.49447
5008.95,0.49397
5003.17,0.49328
4997.38,0.49309
4991.59,0.49303
4985.81,0.49138
4980.02,0.48990
4974.23,0.48932
4968.45,0.48766
4962.66,0.48620
4956.88,0.48269
4951.09,0.47860
4945.3,0.47608
4939.52,0.47183
4933.73,0.46846
4927.94,0.46439
4922.16,0.45993
4916.37,0.45498
4910.59,0.44953
4904.8,0.44384
4899.01,0.43920
4893.23,0.43471
4887.44,0.42740
4881.65,0.42236
4875.87,0.41757
4870.08,0.41185
4864.3,0.40679
4858.51,0.40258
4852.72,0.39795
4846.94,0.39421
4841.15,0.38958
4835.36,0.38546
4829.58,0.38156
4823.79,0.37740
4818.01,0.37296
4812.22,0.36896
4806.43,0.36598
4800.65,0.36350
4794.86,0.36367
4789.07,0.36136
4783.29,0.35952
4777.5,0.35813
4771.72,0.35697
4765.93,0.35740
4760.14,0.35478
4754.36,0.35493
4748.57,0.35505
4742.78,0.35596
4737,0.35675
4731.21,0.35803
4725.43,0.35970
4719.64,0.36167
4713.85,0.36338
4708.07,0.36456
4702.28,0.36763
4696.49,0.37019
4690.71,0.37330
4684.92,0.37529
4679.14,0.37840
4673.35,0.38046
4667.56,0.38270
4661.78,0.38477
4655.99,0.38749
4650.2,0.38905
4644.42,0.39218
4638.63,0.39362
4632.85,0.39637
4627.06,0.39713
4621.27,0.39996
4615.49,0.40140
4609.7,0.40288
4603.92,0.40607
4598.13,0.40856
4592.34,0.41117
4586.56,0.41318
4580.77,0.41510
4574.98,0.41773
4569.2,0.41912
4563.41,0.42127
4557.63,0.42425
4551.84,0.42656
4546.05,0.42779
4540.27,0.42962
4534.48,0.43121
4528.69,0.43294
4522.91,0.43406
4517.12,0.43576
4511.34,0.43734
4505.55,0.43703
4499.76,0.43680
4493.98,0.43698
4488.19,0.43752
4482.4,0.43790
4476.62,0.43656
4470.83,0.43519
4465.05,0.43393
4459.26,0.43096
4453.47,0.42593
4447.69,0.42153
4441.9,0.41546
4436.11,0.40842
4430.33,0.40033
4424.54,0.39203
4418.76,0.38278
4412.97,0.37600
4407.18,0.36728
4401.4,0.36248
4395.61,0.36155
4389.82,0.36320
4384.04,0.36631
4378.25,0.36917
4372.47,0.37253
4366.68,0.37380
4360.89,0.37342
4355.11,0.37252
4349.32,0.37058
4343.53,0.36934
4337.75,0.36690
4331.96,0.36406
4326.18,0.36063
4320.39,0.35682
4314.6,0.35471
4308.82,0.35264
4303.03,0.34984
4297.24,0.34745
4291.46,0.34483
4285.67,0.34231
4279.89,0.34022
4274.1,0.33974
4268.31,0.33985
4262.53,0.34052
4256.74,0.34134
4250.95,0.34167
4245.17,0.34276
4239.38,0.34389
4233.6,0.34470
4227.81,0.34636
4222.02,0.34612
4216.24,0.34542
4210.45,0.34693
4204.66,0.34961
4198.88,0.35179
4193.09,0.35284
4187.31,0.35390
4181.52,0.35334
4175.73,0.35340
4169.95,0.35467
4164.16,0.35715
4158.37,0.35695
4152.59,0.35574
4146.8,0.35422
4141.02,0.35254
4135.23,0.35138
4129.44,0.34951
4123.66,0.34665
4117.87,0.34246
4112.09,0.33808
4106.3,0.33325
4100.51,0.32699
4094.73,0.32004
4088.94,0.31412
4083.15,0.30801
4077.37,0.30285
4071.58,0.29661
4065.8,0.29010
4060.01,0.28338
4054.22,0.27656
4048.44,0.26963
4042.65,0.26369
4036.86,0.25998
4031.08,0.25675
4025.29,0.25497
4019.51,0.25476
4013.72,0.25637
4007.93,0.25833
4002.15,0.26184
3996.36,0.26445
3990.57,0.26748
3984.79,0.27029
3979,0.27240
3973.22,0.27378
3967.43,0.27575
3961.64,0.27843
3955.86,0.28064
3950.07,0.28315
3944.28,0.28602
3938.5,0.28940
3932.71,0.29279
3926.93,0.29592
3921.14,0.29843
3915.35,0.30017
3909.57,0.30222
3903.78,0.30399
3897.99,0.30573
3892.21,0.30795
3886.42,0.30910
3880.64,0.31138
3874.85,0.31231
3869.06,0.31519
3863.28,0.31901
3857.49,0.32205
3851.7,0.32591
3845.92,0.32845
3840.13,0.33071
3834.35,0.33196
3828.56,0.33292
3822.77,0.33402
3816.99,0.33372
3811.2,0.33428
3805.41,0.33379
3799.63,0.33439
3793.84,0.33462
3788.06,0.33482
3782.27,0.33505
3776.48,0.33441
3770.7,0.33353
3764.91,0.33337
3759.12,0.33269
3753.34,0.33113
3747.55,0.32996
3741.77,0.32784
3735.98,0.32599
3730.19,0.32256
3724.41,0.31886
3718.62,0.31467
3712.83,0.31045
3707.05,0.30419
3701.26,0.29768
3695.48,0.28998
3689.69,0.28212
3683.9,0.27115
3678.12,0.25994
3672.33,0.24550
3666.54,0.23088
3660.76,0.21503
3654.97,0.20004
3649.19,0.18554
3643.4,0.17120
3637.61,0.15880
3631.83,0.14638
3626.04,0.13512
3620.25,0.12331
3614.47,0.11343
3608.68,0.10383
3602.9,0.09488
3597.11,0.08786
3591.32,0.08024
3585.54,0.07418
3579.75,0.06845
3573.97,0.06449
3568.18,0.05959
3562.39,0.05567
3556.61,0.05266
3550.82,0.04970
3545.03,0.04598
3539.25,0.04447
3533.46,0.04239
3527.68,0.03988
3521.89,0.03857
3516.1,0.03640
3510.32,0.03545
3504.53,0.03377
3498.74,0.03253
3492.96,0.03182
3487.17,0.03057
3481.39,0.03046
3475.6,0.02962
3469.81,0.02946
3464.03,0.02896
3458.24,0.02850
3452.45,0.02850
3446.67,0.02811
3440.88,0.02731
3435.1,0.02770
3429.31,0.02816
3423.52,0.02784
3417.74,0.02823
3411.95,0.02883
3406.16,0.02867
3400.38,0.02819
3394.59,0.02805
3388.81,0.02835
3383.02,0.02886
3377.23,0.02933
3371.45,0.02899
3365.66,0.03016
3359.87,0.02959
3354.09,0.03085
3348.3,0.03167
3342.52,0.03291
3336.73,0.03383
3330.94,0.03417
3325.16,0.03460
3319.37,0.03494
3313.58,0.03506
3307.8,0.03476
3302.01,0.03499
3296.23,0.03511
3290.44,0.03610
3284.65,0.03587
3278.87,0.03603
3273.08,0.03701
3267.29,0.03817
3261.51,0.03936
3255.72,0.04051
3249.94,0.04108
3244.15,0.04134
3238.36,0.04193
3232.58,0.04342
3226.79,0.04476
3221,0.04505
3215.22,0.04654
3209.43,0.04750
3203.65,0.04897
3197.86,0.05061
3192.07,0.05224
3186.29,0.05343
3180.5,0.05493
3174.71,0.05665
3168.93,0.05831
3163.14,0.05988
3157.36,0.06193
3151.57,0.06356
3145.78,0.06575
3140,0.06779
3134.21,0.07036
3128.42,0.07285
3122.64,0.07456
3116.85,0.07679
3111.07,0.07921
3105.28,0.08173
3099.49,0.08454
3093.71,0.08671
3087.92,0.08900
3082.14,0.09190
3076.35,0.09430
3070.56,0.09623
3064.78,0.09911
3058.99,0.10104
3053.2,0.10300
3047.42,0.10570
3041.63,0.10759
3035.85,0.10953
3030.06,0.11154
3024.27,0.11290
3018.49,0.11421
3012.7,0.11486
3006.91,0.11467
3001.13,0.11311
2995.34,0.11088
2989.56,0.10631
2983.77,0.09879
2977.98,0.08804
2972.2,0.07430
2966.41,0.06646
2960.62,0.06542
2954.84,0.06284
2949.05,0.05933
2943.27,0.05757
2937.48,0.05635
2931.69,0.05494
2925.91,0.05300
2920.12,0.05060
2914.33,0.04849
2908.55,0.04738
2902.76,0.04672
2896.98,0.04732
2891.19,0.04932
2885.4,0.05076
2879.62,0.05222
2873.83,0.05281
2868.04,0.05321
2862.26,0.05506
2856.47,0.05655
2850.69,0.05856
2844.9,0.06433
2839.11,0.07042
2833.33,0.07579
2827.54,0.07979
2821.75,0.08444
2815.97,0.08909
2810.18,0.09367
2804.4,0.09768
2798.61,0.10046
2792.82,0.10300
2787.04,0.10478
2781.25,0.10610
2775.46,0.10661
2769.68,0.10730
2763.89,0.10760
2758.11,0.10857
2752.32,0.10898
2746.53,0.10865
2740.75,0.10828
2734.96,0.10832
2729.17,0.10964
2723.39,0.11051
2717.6,0.11198
2711.82,0.11403
2706.03,0.11737
2700.24,0.12029
2694.46,0.12355
2688.67,0.12631
2682.88,0.13001
2677.1,0.13272
2671.31,0.13521
2665.53,0.13612
2659.74,0.13703
2653.95,0.13911
2648.17,0.14104
2642.38,0.14408
2636.59,0.14609
2630.81,0.14804
2625.02,0.15055
2619.24,0.15233
2613.45,0.15391
2607.66,0.15550
2601.88,0.15716
2596.09,0.15897
2590.3,0.15995
2584.52,0.16051
2578.73,0.16097
2572.95,0.16118
2567.16,0.16026
2561.37,0.15928
2555.59,0.15847
2549.8,0.15757
2544.02,0.15672
2538.23,0.15662
2532.44,0.15732
2526.66,0.15865
2520.87,0.15969
2515.08,0.16057
2509.3,0.16311
2503.51,0.16724
2497.73,0.17122
2491.94,0.17458
2486.15,0.17750
2480.37,0.17969
2474.58,0.18238
2468.79,0.18491
2463.01,0.18621
2457.22,0.18751
2451.44,0.18981
2445.65,0.19199
2439.86,0.19492
2434.08,0.19811
2428.29,0.20149
2422.5,0.20531
2416.72,0.20803
2410.93,0.21074
2405.15,0.21326
2399.36,0.21540
2393.57,0.21823
2387.79,0.22043
2382,0.22297
2376.21,0.22627
2370.43,0.22921
2364.64,0.23180
2358.86,0.23359
2353.07,0.23560
2347.28,0.23787
2341.5,0.24036
2335.71,0.24271
2329.92,0.24402
2324.14,0.24558
2318.35,0.24743
2312.57,0.24772
2306.78,0.24811
2300.99,0.24690
2295.21,0.24552
2289.42,0.24436
2283.63,0.24381
2277.85,0.24276
2272.06,0.24018
2266.28,0.23604
2260.49,0.23164
2254.7,0.22903
2248.92,0.22696
2243.13,0.22580
2237.34,0.22457
2231.56,0.22443
2225.77,0.22525
2219.99,0.22754
2214.2,0.22954
2208.41,0.23112
2202.63,0.23115
2196.84,0.23000
2191.05,0.22735
2185.27,0.22376
2179.48,0.21899
2173.7,0.21367
2167.91,0.20824
2162.12,0.20410
2156.34,0.20116
2150.55,0.19867
2144.76,0.19694
2138.98,0.19479
2133.19,0.19425
2127.41,0.19602
2121.62,0.19841
2115.83,0.20108
2110.05,0.20409
2104.26,0.20698
2098.47,0.20913
2092.69,0.21119
2086.9,0.21303
2081.12,0.21394
2075.33,0.21347
2069.54,0.21251
2063.76,0.21253
2057.97,0.21273
2052.19,0.21253
2046.4,0.21321
2040.61,0.21488
2034.83,0.21792
2029.04,0.22283
2023.25,0.22849
2017.47,0.23417
2011.68,0.23896
2005.9,0.24188
2000.11,0.24334
1994.32,0.24531
1988.54,0.24842
1982.75,0.25104
1976.96,0.25284
1971.18,0.25409
1965.39,0.25540
1959.61,0.25696
1953.82,0.25892
1948.03,0.26264
1942.25,0.26720
1936.46,0.27165
1930.67,0.27497
1924.89,0.27769
1919.1,0.27955
1913.32,0.28086
1907.53,0.28204
1901.74,0.28253
1895.96,0.28206
1890.17,0.28155
1884.38,0.28080
1878.6,0.27997
1872.81,0.27944
1867.03,0.27810
1861.24,0.27643
1855.45,0.27409
1849.67,0.27112
1843.88,0.26688
1838.09,0.26439
1832.31,0.26246
1826.52,0.26018
1820.74,0.25707
1814.95,0.25467
1809.16,0.25111
1803.38,0.24725
1797.59,0.24370
1791.8,0.24073
1786.02,0.23697
1780.23,0.23251
1774.45,0.22749
1768.66,0.22239
1762.87,0.21781
1757.09,0.21367
1751.3,0.20914
1745.51,0.20348
1739.73,0.19734
1733.94,0.19305
1728.16,0.18821
1722.37,0.18513
1716.58,0.18186
1710.8,0.17786
1705.01,0.17380
1699.22,0.16745
1693.44,0.15914
1687.65,0.15120
1681.87,0.14025
1676.08,0.13051
1670.29,0.12153
1664.51,0.11345
1658.72,0.10827
1652.93,0.10498
1647.15,0.10212
1641.36,0.09962
1635.58,0.09892
1629.79,0.09909
1624,0.10065
1618.22,0.10265
1612.43,0.10420
1606.64,0.10520
1600.86,0.10666
1595.07,0.10929
1589.29,0.11238
1583.5,0.11657
1577.71,0.12091
1571.93,0.12439
1566.14,0.12661
1560.35,0.12814
1554.57,0.12844
1548.78,0.12823
1543,0.12799
1537.21,0.12638
1531.42,0.12445
1525.64,0.12149
1519.85,0.11647
1514.07,0.10954
1508.28,0.10518
1502.49,0.10002
1496.71,0.09436
1490.92,0.08581
1485.13,0.07234
1479.35,0.06360
1473.56,0.05822
1467.78,0.05093
1461.99,0.04543
1456.2,0.04168
1450.42,0.03966
1444.63,0.03852
1438.84,0.03608
1433.06,0.03462
1427.27,0.03594
1421.49,0.03885
1415.7,0.04253
1409.91,0.04390
1404.13,0.04403
1398.34,0.04328
1392.55,0.04200
1386.77,0.03791
1380.98,0.03402
1375.2,0.03181
1369.41,0.03222
1363.62,0.03291
1357.84,0.03326
1352.05,0.03450
1346.26,0.03488
1340.48,0.03381
1334.69,0.03384
1328.91,0.03471
1323.12,0.03393
1317.33,0.03437
1311.55,0.03692
1305.76,0.04002
1299.97,0.04212
1294.19,0.04152
1288.4,0.03934
1282.62,0.03718
1276.83,0.03904
1271.04,0.04052
1265.26,0.03953
1259.47,0.03952
1253.68,0.04014
1247.9,0.03943
1242.11,0.03935
1236.33,0.03864
1230.54,0.03915
1224.75,0.04078
1218.97,0.04025
1213.18,0.03646
1207.39,0.03076
1201.61,0.02991
1195.82,0.03021
1190.04,0.02997
1184.25,0.02762
1178.46,0.02699
1172.68,0.03186
1166.89,0.04078
1161.1,0.04040
1155.32,0.03581
1149.53,0.03231
1143.75,0.02876
1137.96,0.02427
1132.17,0.02251
1126.39,0.02333
1120.6,0.02733
1114.81,0.03136
1109.03,0.03484
1103.24,0.03330
1097.46,0.03203
1091.67,0.02959
1085.88,0.03139
1080.1,0.03835
1074.31,0.04741
1068.52,0.05652
1062.74,0.06901
1056.95,0.06757
1051.17,0.06022
1045.38,0.05290
1039.59,0.05697
1033.81,0.06370
1028.02,0.06180
1022.24,0.05851
1016.45,0.05790
1010.66,0.05792
1004.88,0.05742
999.09,0.05857
993.304,0.06061
987.518,0.06128
981.731,0.06823
975.945,0.07776
970.159,0.08399
964.373,0.09032
958.586,0.09880
952.8,0.10662
947.014,0.11185
941.228,0.11436
935.441,0.11469
929.655,0.11521
923.869,0.11598
918.083,0.11264
912.297,0.10352
906.51,0.09593
900.724,0.08925
894.938,0.08848
889.152,0.09661
883.365,0.10495
877.579,0.11125
871.793,0.11719
866.007,0.12071
860.22,0.12298
854.434,0.12441
848.648,0.12329
842.862,0.12053
837.075,0.11616
831.289,0.10963
825.503,0.10185
819.717,0.09408
813.931,0.08858
808.144,0.08337
802.358,0.08058
796.572,0.07999
790.786,0.08229
784.999,0.08520
779.213,0.08461
773.427,0.08235
767.641,0.07977
761.854,0.07598
756.068,0.07203
750.282,0.06842
744.496,0.06471
738.709,0.06124
732.923,0.05620
727.137,0.05252
721.351,0.04909
715.565,0.04774
709.778,0.04729
703.992,0.04744
698.206,0.04823
692.42,0.04916
686.633,0.04747
680.847,0.04704
675.061,0.04687
669.275,0.04586
663.488,0.04599
657.702,0.04777
651.916,0.04751
646.13,0.04543
640.343,0.04427
634.557,0.03928
628.771,0.04037
622.985,0.04100
617.198,0.04235
611.412,0.04259
605.626,0.04633
599.84,0.04552