File: 01_Data/Hemp_Sheet/FTIR/IS/Hemp_Sheet_IS_S_220909_R3.dpt
7497.03,0.57400
7491.25,0.57784
7485.46,0.57548
7479.67,0.57533
7473.89,0.57711
7468.1,0.57901
7462.32,0.56973
7456.53,0.57217
7450.74,0.57147
7444.96,0.57057
7439.17,0.56747
7433.38,0.55815
7427.6,0.57303
7421.81,0.56999
7416.03,0.57157
7410.24,0.56411
7404.45,0.56671
7398.67,0.56522
7392.88,0.56375
7387.09,0.56710
7381.31,0.56825
7375.52,0.57536
7369.74,0.56934
7363.95,0.56696
7358.16,0.56991
7352.38,0.56778
7346.59,0.56615
7340.8,0.56439
7335.02,0.55845
7329.23,0.55469
7323.45,0.55711
7317.66,0.56259
7311.87,0.56161
7306.09,0.55349
7300.3,0.56129
7294.51,0.55458
7288.73,0.55350
7282.94,0.55404
7277.16,0.54720
7271.37,0.56096
7265.58,0.55503
7259.8,0.56248
7254.01,0.55886
7248.22,0.55570
7242.44,0.55330
7236.65,0.56249
7230.87,0.55383
7225.08,0.56504
7219.29,0.55935
7213.51,0.55695
7207.72,0.55454
7201.93,0.56071
7196.15,0.55603
7190.36,0.56236
7184.58,0.55589
7178.79,0.55623
7173,0.55527
7167.22,0.55805
7161.43,0.55987
7155.65,0.55472
7149.86,0.55390
7144.07,0.55396
7138.29,0.55380
7132.5,0.55962
7126.71,0.54584
7120.93,0.54669
7115.14,0.54561
7109.36,0.54267
7103.57,0.54668
7097.78,0.54546
7092,0.54547
7086.21,0.53989
7080.42,0.53884
7074.64,0.53356
7068.85,0.53740
7063.07,0.52789
7057.28,0.52903
7051.49,0.52795
7045.71,0.52202
7039.92,0.52408
7034.13,0.51939
7028.35,0.51589
7022.56,0.51339
7016.78,0.51118
7010.99,0.50483
7005.2,0.50676
6999.42,0.50845
6993.63,0.50506
6987.84,0.49830
6982.06,0.49769
6976.27,0.49635
6970.49,0.49925
6964.7,0.49960
6958.91,0.50009
6953.13,0.49469
6947.34,0.49240
6941.55,0.49178
6935.77,0.49045
6929.98,0.49618
6924.2,0.48800
6918.41,0.48510
6912.62,0.48636
6906.84,0.48950
6901.05,0.48453
6895.26,0.48156
6889.48,0.48298
6883.69,0.48886
6877.91,0.48722
6872.12,0.48366
6866.33,0.48481
6860.55,0.48145
6854.76,0.47852
6848.97,0.48190
6843.19,0.48236
6837.4,0.48157
6831.62,0.47633
6825.83,0.47096
6820.04,0.47500
6814.26,0.47805
6808.47,0.47338
6802.68,0.47256
6796.9,0.46867
6791.11,0.47783
6785.33,0.47440
6779.54,0.47091
6773.75,0.46822
6767.97,0.47129
6762.18,0.46623
6756.39,0.46351
6750.61,0.45992
6744.82,0.46298
6739.04,0.46725
6733.25,0.46424
6727.46,0.46169
6721.68,0.46294
6715.89,0.46437
6710.1,0.46463
6704.32,0.46239
6698.53,0.46229
6692.75,0.46003
6686.96,0.45950
6681.17,0.46010
6675.39,0.46494
6669.6,0.46339
6663.82,0.46846
6658.03,0.46290
6652.24,0.46219
6646.46,0.46723
6640.67,0.46497
6634.88,0.46722
6629.1,0.46434
6623.31,0.46800
6617.53,0.46845
6611.74,0.46966
6605.95,0.46971
6600.17,0.47546
6594.38,0.47371
6588.59,0.47650
6582.81,0.46943
6577.02,0.46897
6571.24,0.47444
6565.45,0.47400
6559.66,0.46901
6553.88,0.47342
6548.09,0.47888
6542.3,0.47020
6536.52,0.47124
6530.73,0.47535
6524.95,0.47092
6519.16,0.47265
6513.37,0.47100
6507.59,0.47284
6501.8,0.47334
6496.01,0.46844
6490.23,0.47475
6484.44,0.47243
6478.66,0.47269
6472.87,0.47114
6467.08,0.47338
6461.3,0.47404
6455.51,0.47180
6449.72,0.47192
6443.94,0.47251
6438.15,0.47445
6432.37,0.47501
6426.58,0.47833
6420.79,0.47591
6415.01,0.47915
6409.22,0.47890
6403.43,0.47703
6397.65,0.47580
6391.86,0.47710
6386.08,0.47930
6380.29,0.48221
6374.5,0.47986
6368.72,0.47903
6362.93,0.47822
6357.14,0.47761
6351.36,0.48012
6345.57,0.48044
6339.79,0.47988
6334,0.48074
6328.21,0.48038
6322.43,0.47883
6316.64,0.48002
6310.85,0.48257
6305.07,0.48390
6299.28,0.48472
6293.5,0.48371
6287.71,0.48868
6281.92,0.48518
6276.14,0.48426
6270.35,0.48917
6264.56,0.48890
6258.78,0.49135
6252.99,0.48906
6247.21,0.48931
6241.42,0.49513
6235.63,0.49503
6229.85,0.49738
6224.06,0.49804
6218.27,0.49992
6212.49,0.50498
6206.7,0.50248
6200.92,0.50322
6195.13,0.50741
6189.34,0.50893
6183.56,0.50993
6177.77,0.51032
6171.98,0.51283
6166.2,0.51251
6160.41,0.51598
6154.63,0.51393
6148.84,0.51537
6143.05,0.51691
6137.27,0.51857
6131.48,0.51693
6125.7,0.51777
6119.91,0.52221
6114.12,0.52010
6108.34,0.52406
6102.55,0.52565
6096.76,0.52453
6090.98,0.52797
6085.19,0.52746
6079.41,0.52683
6073.62,0.52821
6067.83,0.53223
6062.05,0.53211
6056.26,0.53295
6050.47,0.53375
6044.69,0.53203
6038.9,0.53347
6033.12,0.53646
6027.33,0.53623
6021.54,0.53734
6015.76,0.53509
6009.97,0.53398
6004.18,0.53552
5998.4,0.53775
5992.61,0.54033
5986.83,0.53853
5981.04,0.53884
5975.25,0.53890
5969.47,0.54082
5963.68,0.53944
5957.89,0.53971
5952.11,0.53865
5946.32,0.54071
5940.54,0.53948
5934.75,0.54133
5928.96,0.53657
5923.18,0.53508
5917.39,0.53587
5911.6,0.53590
5905.82,0.53635
5900.03,0.53515
5894.25,0.53212
5888.46,0.53263
5882.67,0.53075
5876.89,0.52907
5871.1,0.52688
5865.31,0.52905
5859.53,0.52954
5853.74,0.52929
5847.96,0.53021
5842.17,0.52991
5836.38,0.52934
5830.6,0.52891
5824.81,0.52969
5819.02,0.52896
5813.24,0.52841
5807.45,0.52784
5801.67,0.52978
5795.88,0.52695
5790.09,0.52526
5784.31,0.52530
5778.52,0.52577
5772.73,0.52367
5766.95,0.52539
5761.16,0.52429
5755.38,0.52321
5749.59,0.52626
5743.8,0.52200
5738.02,0.52470
5732.23,0.52284
5726.44,0.52206
5720.66,0.52346
5714.87,0.52327
5709.09,0.52398
5703.3,0.52175
5697.51,0.52215
5691.73,0.52147
5685.94,0.52137
5680.15,0.52092
5674.37,0.52168
5668.58,0.52121
5662.8,0.51856
5657.01,0.51755
5651.22,0.51950
5645.44,0.51931
5639.65,0.51993
5633.87,0.52036
5628.08,0.51820
5622.29,0.51659
5616.51,0.51995
5610.72,0.52025
5604.93,0.51789
5599.15,0.51883
5593.36,0.52110
5587.58,0.51845
5581.79,0.52110
5576,0.52002
5570.22,0.52161
5564.43,0.52181
5558.64,0.52128
5552.86,0.52006
5547.07,0.51876
5541.29,0.51966
5535.5,0.52122
5529.71,0.52177
5523.93,0.52071
5518.14,0.52040
5512.35,0.52008
5506.57,0.51757
5500.78,0.52072
5495,0.52128
5489.21,0.52020
5483.42,0.52083
5477.64,0.52022
5471.85,0.52099
5466.06,0.52227
5460.28,0.52029
5454.49,0.52150
5448.71,0.52261
5442.92,0.52316
5437.13,0.52424
5431.35,0.52529
5425.56,0.52701
5419.77,0.52770
5413.99,0.52718
5408.2,0.52863
5402.42,0.52944
5396.63,0.52792
5390.84,0.52998
5385.06,0.53225
5379.27,0.53223
5373.48,0.52975
5367.7,0.53195
5361.91,0.53042
5356.13,0.53067
5350.34,0.53051
5344.55,0.53266
5338.77,0.53057
5332.98,0.52924
5327.19,0.53009
5321.41,0.52727
5315.62,0.52557
5309.84,0.52537
5304.05,0.52322
5298.26,0.52016
5292.48,0.51817
5286.69,0.51625
5280.9,0.51079
5275.12,0.50793
5269.33,0.50235
5263.55,0.49813
5257.76,0.49295
5251.97,0.48837
5246.19,0.48174
5240.4,0.47842
5234.61,0.47615
5228.83,0.47100
5223.04,0.46722
5217.26,0.46483
5211.47,0.46207
5205.68,0.45893
5199.9,0.45870
5194.11,0.45729
5188.32,0.45614
5182.54,0.45713
5176.75,0.45773
5170.97,0.45720
5165.18,0.45813
5159.39,0.45817
5153.61,0.46018
5147.82,0.46075
5142.03,0.46264
5136.25,0.46521
5130.46,0.46541
5124.68,0.46788
5118.89,0.46981
5113.1,0.47164
5107.32,0.47258
5101.53,0.47319
5095.75,0.47560
5089.96,0.47643
5084.17,0.47910
5078.39,0.48007
5072.6,0.48233
5066.81,0.48241
5061.03,0.48412
5055.24,0.48564
5049.46,0.48586
5043.67,0.48700
5037.88,0.48924
5032.1,0.48900
5026.31,0.49060
5020.52,0.49057
5014.74,0.49021
5008.95,0.49006
5003.17,0.49102
4997.38,0.49142
4991.59,0.48977
4985.81,0.48928
4980.02,0.48807
4974.23,0.48672
4968.45,0.48503
4962.66,0.48338
4956.88,0.48115
4951.09,0.47867
4945.3,0.47511
4939.52,0.47161
4933.73,0.46772
4927.94,0.46261
4922.16,0.45998
4916.37,0.45451
4910.59,0.45020
4904.8,0.44546
4899.01,0.43874
4893.23,0.43456
4887.44,0.42808
4881.65,0.42191
4875.87,0.41680
4870.08,0.41162
4864.3,0.40821
4858.51,0.40262
4852.72,0.39855
4846.94,0.39445
4841.15,0.39122
4835.36,0.38628
4829.58,0.38165
4823.79,0.37773
4818.01,0.37370
4812.22,0.37035
4806.43,0.36775
4800.65,0.36546
4794.86,0.36297
4789.07,0.36192
4783.29,0.36005
4777.5,0.35892
4771.72,0.35740
4765.93,0.35650
4760.14,0.35561
4754.36,0.35549
4748.57,0.35542
4742.78,0.35560
4737,0.35654
4731.21,0.35789
4725.43,0.35937
4719.64,0.36191
4713.85,0.36394
4708.07,0.36600
4702.28,0.36808
4696.49,0.37000
4690.71,0.37313
4684.92,0.37623
4679.14,0.37876
4673.35,0.38100
4667.56,0.38321
4661.78,0.38522
4655.99,0.38623
4650.2,0.38869
4644.42,0.39050
4638.63,0.39392
4632.85,0.39613
4627.06,0.39773
4621.27,0.39948
4615.49,0.40195
4609.7,0.40363
4603.92,0.40609
4598.13,0.40857
4592.34,0.41032
4586.56,0.41230
4580.77,0.41462
4574.98,0.41785
4569.2,0.42023
4563.41,0.42243
4557.63,0.42473
4551.84,0.42629
4546.05,0.42903
4540.27,0.42947
4534.48,0.43120
4528.69,0.43259
4522.91,0.43479
4517.12,0.43467
4511.34,0.43610
4505.55,0.43627
4499.76,0.43694
4493.98,0.43780
4488.19,0.43724
4482.4,0.43678
4476.62,0.43704
4470.83,0.43543
4465.05,0.43339
4459.26,0.43068
4453.47,0.42673
4447.69,0.42146
4441.9,0.41635
4436.11,0.40887
4430.33,0.40076
4424.54,0.39186
4418.76,0.38386
4412.97,0.37505
4407.18,0.36809
4401.4,0.36266
4395.61,0.36141
4389.82,0.36353
4384.04,0.36696
4378.25,0.37019
4372.47,0.37193
4366.68,0.37347
4360.89,0.37343
4355.11,0.37210
4349.32,0.37061
4343.53,0.36954
4337.75,0.36683
4331.96,0.36385
4326.18,0.36042
4320.39,0.35869
4314.6,0.35572
4308.82,0.35289
4303.03,0.35018
4297.24,0.34756
4291.46,0.34455
4285.67,0.34284
4279.89,0.34072
4274.1,0.34046
4268.31,0.34047
4262.53,0.34110
4256.74,0.34222
4250.95,0.34191
4245.17,0.34257
4239.38,0.34332
4233.6,0.34498
4227.81,0.34564
4222.02,0.34606
4216.24,0.34574
4210.45,0.34672
4204.66,0.34928
4198.88,0.35165
4193.09,0.35282
4187.31,0.35316
4181.52,0.35283
4175.73,0.35350
4169.95,0.35463
4164.16,0.35641
4158.37,0.35716
4152.59,0.35553
4146.8,0.35416
4141.02,0.35228
4135.23,0.35107
4129.44,0.34948
4123.66,0.34634
4117.87,0.34224
4112.09,0.33797
4106.3,0.33334
4100.51,0.32746
4094.73,0.32026
4088.94,0.31380
4083.15,0.30788
4077.37,0.30200
4071.58,0.29647
4065.8,0.29038
4060.01,0.28350
4054.22,0.27713
4048.44,0.27059
4042.65,0.26388
4036.86,0.25902
4031.08,0.25607
4025.29,0.25439
4019.51,0.25511
4013.72,0.25630
4007.93,0.25836
4002.15,0.26085
3996.36,0.26394
3990.57,0.26694
3984.79,0.26966
3979,0.27087
3973.22,0.27374
3967.43,0.27635
3961.64,0.27846
3955.86,0.28070
3950.07,0.28294
3944.28,0.28621
3938.5,0.28915
3932.71,0.29271
3926.93,0.29483
3921.14,0.29792
3915.35,0.30012
3909.57,0.30150
3903.78,0.30342
3897.99,0.30568
3892.21,0.30749
3886.42,0.30910
3880.64,0.31089
3874.85,0.31168
3869.06,0.31435
3863.28,0.31802
3857.49,0.32179
3851.7,0.32517
3845.92,0.32751
3840.13,0.32971
3834.35,0.33102
3828.56,0.33214
3822.77,0.33253
3816.99,0.33216
3811.2,0.33225
3805.41,0.33278
3799.63,0.33297
3793.84,0.33344
3788.06,0.33342
3782.27,0.33300
3776.48,0.33242
3770.7,0.33202
3764.91,0.33088
3759.12,0.33052
3753.34,0.32962
3747.55,0.32789
3741.77,0.32562
3735.98,0.32316
3730.19,0.31986
3724.41,0.31588
3718.62,0.31143
3712.83,0.30677
3707.05,0.30108
3701.26,0.29380
3695.48,0.28607
3689.69,0.27716
3683.9,0.26646
3678.12,0.25457
3672.33,0.23977
3666.54,0.22460
3660.76,0.20930
3654.97,0.19296
3649.19,0.17870
3643.4,0.16535
3637.61,0.15210
3631.83,0.13979
3626.04,0.12856
3620.25,0.11816
3614.47,0.10876
3608.68,0.09910
3602.9,0.09116
3597.11,0.08398
3591.32,0.07705
3585.54,0.07140
3579.75,0.06668
3573.97,0.06163
3568.18,0.05858
3562.39,0.05479
3556.61,0.05080
3550.82,0.04856
3545.03,0.04621
3539.25,0.04416
3533.46,0.04160
3527.68,0.03964
3521.89,0.03743
3516.1,0.03589
3510.32,0.03534
3504.53,0.03402
3498.74,0.03247
3492.96,0.03125
3487.17,0.03039
3481.39,0.03010
3475.6,0.02974
3469.81,0.02895
3464.03,0.02867
3458.24,0.02815
3452.45,0.02880
3446.67,0.02805
3440.88,0.02791
3435.1,0.02799
3429.31,0.02781
3423.52,0.02795
3417.74,0.02848
3411.95,0.02828
3406.16,0.02859
3400.38,0.02845
3394.59,0.02806
3388.81,0.02817
3383.02,0.02865
3377.23,0.02888
3371.45,0.02935
3365.66,0.02911
3359.87,0.02937
3354.09,0.02969
3348.3,0.03077
3342.52,0.03291
3336.73,0.03288
3330.94,0.03394
3325.16,0.03481
3319.37,0.03508
3313.58,0.03549
3307.8,0.03511
3302.01,0.03464
3296.23,0.03509
3290.44,0.03569
3284.65,0.03621
3278.87,0.03725
3273.08,0.03735
3267.29,0.03794
3261.51,0.03942
3255.72,0.03967
3249.94,0.04085
3244.15,0.04175
3238.36,0.04242
3232.58,0.04220
3226.79,0.04421
3221,0.04462
3215.22,0.04613
3209.43,0.04751
3203.65,0.04771
3197.86,0.05042
3192.07,0.05105
3186.29,0.05245
3180.5,0.05404
3174.71,0.05569
3168.93,0.05751
3163.14,0.05918
3157.36,0.06135
3151.57,0.06248
3145.78,0.06457
3140,0.06659
3134.21,0.06857
3128.42,0.07050
3122.64,0.07188
3116.85,0.07515
3111.07,0.07748
3105.28,0.07947
3099.49,0.08226
3093.71,0.08422
3087.92,0.08778
3082.14,0.09001
3076.35,0.09209
3070.56,0.09438
3064.78,0.09630
3058.99,0.09885
3053.2,0.10139
3047.42,0.10333
3041.63,0.10571
3035.85,0.10698
3030.06,0.10883
3024.27,0.11031
3018.49,0.11157
3012.7,0.11258
3006.91,0.11243
3001.13,0.11163
2995.34,0.10927
2989.56,0.10520
2983.77,0.09771
2977.98,0.08754
2972.2,0.07382
2966.41,0.06636
2960.62,0.06492
2954.84,0.06275
2949.05,0.05939
2943.27,0.05668
2937.48,0.05676
2931.69,0.05469
2925.91,0.05313
2920.12,0.05052
2914.33,0.04824
2908.55,0.04736
2902.76,0.04632
2896.98,0.04736
2891.19,0.04914
2885.4,0.05042
2879.62,0.05204
2873.83,0.05249
2868.04,0.05320
2862.26,0.05429
2856.47,0.05659
2850.69,0.05878
2844.9,0.06430
2839.11,0.07068
2833.33,0.07535
2827.54,0.07980
2821.75,0.08402
2815.97,0.08847
2810.18,0.09305
2804.4,0.09720
2798.61,0.10022
2792.82,0.10264
2787.04,0.10477
2781.25,0.10588
2775.46,0.10648
2769.68,0.10619
2763.89,0.10718
2758.11,0.10788
2752.32,0.10832
2746.53,0.10773
2740.75,0.10760
2734.96,0.10807
2729.17,0.10946
2723.39,0.11007
2717.6,0.11166
2711.82,0.11315
2706.03,0.11624
2700.24,0.11972
2694.46,0.12315
2688.67,0.12637
2682.88,0.12923
2677.1,0.13264
2671.31,0.13450
2665.53,0.13590
2659.74,0.13699
2653.95,0.13895
2648.17,0.14094
2642.38,0.14377
2636.59,0.14567
2630.81,0.14761
2625.02,0.15042
2619.24,0.15224
2613.45,0.15332
2607.66,0.15532
2601.88,0.15699
2596.09,0.15872
2590.3,0.15956
2584.52,0.16008
2578.73,0.16031
2572.95,0.16051
2567.16,0.15967
2561.37,0.15889
2555.59,0.15846
2549.8,0.15754
2544.02,0.15636
2538.23,0.15645
2532.44,0.15748
2526.66,0.15837
2520.87,0.15945
2515.08,0.16032
2509.3,0.16308
2503.51,0.16683
2497.73,0.17094
2491.94,0.17447
2486.15,0.17704
2480.37,0.17939
2474.58,0.18215
2468.79,0.18476
2463.01,0.18582
2457.22,0.18765
2451.44,0.18927
2445.65,0.19180
2439.86,0.19518
2434.08,0.19828
2428.29,0.20175
2422.5,0.20502
2416.72,0.20805
2410.93,0.21038
2405.15,0.21276
2399.36,0.21555
2393.57,0.21776
2387.79,0.22059
2382,0.22266
2376.21,0.22556
2370.43,0.22877
2364.64,0.23144
2358.86,0.23335
2353.07,0.23511
2347.28,0.23760
2341.5,0.24013
2335.71,0.24173
2329.92,0.24320
2324.14,0.24469
2318.35,0.24662
2312.57,0.24701
2306.78,0.24701
2300.99,0.24584
2295.21,0.24467
2289.42,0.24313
2283.63,0.24210
2277.85,0.24105
2272.06,0.23872
2266.28,0.23472
2260.49,0.23029
2254.7,0.22751
2248.92,0.22596
2243.13,0.22415
2237.34,0.22289
2231.56,0.22283
2225.77,0.22358
2219.99,0.22567
2214.2,0.22755
2208.41,0.22936
2202.63,0.22917
2196.84,0.22815
2191.05,0.22568
2185.27,0.22170
2179.48,0.21727
2173.7,0.21216
2167.91,0.20704
2162.12,0.20282
2156.34,0.19960
2150.55,0.19705
2144.76,0.19519
2138.98,0.19297
2133.19,0.19258
2127.41,0.19447
2121.62,0.19695
2115.83,0.19945
2110.05,0.20268
2104.26,0.20496
2098.47,0.20750
2092.69,0.20964
2086.9,0.21126
2081.12,0.21217
2075.33,0.21219
2069.54,0.21101
2063.76,0.21073
2057.97,0.21080
2052.19,0.21090
2046.4,0.21128
2040.61,0.21311
2034.83,0.21645
2029.04,0.22123
2023.25,0.22696
2017.47,0.23250
2011.68,0.23706
2005.9,0.24010
2000.11,0.24117
1994.32,0.24350
1988.54,0.24675
1982.75,0.24944
1976.96,0.25114
1971.18,0.25216
1965.39,0.25352
1959.61,0.25482
1953.82,0.25740
1948.03,0.26108
1942.25,0.26528
1936.46,0.26975
1930.67,0.27319
1924.89,0.27595
1919.1,0.27782
1913.32,0.27909
1907.53,0.28015
1901.74,0.28026
1895.96,0.27989
1890.17,0.27954
1884.38,0.27867
1878.6,0.27817
1872.81,0.27706
1867.03,0.27607
1861.24,0.27413
1855.45,0.27201
1849.67,0.26924
1843.88,0.26514
1838.09,0.26230
1832.31,0.26040
1826.52,0.25807
1820.74,0.25560
1814.95,0.25281
1809.16,0.24943
1803.38,0.24546
1797.59,0.24201
1791.8,0.23856
1786.02,0.23460
1780.23,0.23044
1774.45,0.22578
1768.66,0.22062
1762.87,0.21601
1757.09,0.21173
1751.3,0.20713
1745.51,0.20171
1739.73,0.19525
1733.94,0.19029
1728.16,0.18602
1722.37,0.18249
1716.58,0.17898
1710.8,0.17477
1705.01,0.16979
1699.22,0.16343
1693.44,0.15504
1687.65,0.14644
1681.87,0.13575
1676.08,0.12589
1670.29,0.11718
1664.51,0.10958
1658.72,0.10392
1652.93,0.10033
1647.15,0.09805
1641.36,0.09615
1635.58,0.09546
1629.79,0.09610
1624,0.09781
1618.22,0.10006
1612.43,0.10179
1606.64,0.10307
1600.86,0.10494
1595.07,0.10722
1589.29,0.11056
1583.5,0.11510
1577.71,0.11951
1571.93,0.12314
1566.14,0.12552
1560.35,0.12610
1554.57,0.12691
1548.78,0.12652
1543,0.12657
1537.21,0.12535
1531.42,0.12353
1525.64,0.12120
1519.85,0.11551
1514.07,0.10884
1508.28,0.10432
1502.49,0.09926
1496.71,0.09389
1490.92,0.08518
1485.13,0.07220
1479.35,0.06325
1473.56,0.05773
1467.78,0.05075
1461.99,0.04517
1456.2,0.04179
1450.42,0.03962
1444.63,0.03824
1438.84,0.03611
1433.06,0.03453
1427.27,0.03594
1421.49,0.03912
1415.7,0.04242
1409.91,0.04395
1404.13,0.04380
1398.34,0.04367
1392.55,0.04181
1386.77,0.03806
1380.98,0.03338
1375.2,0.03141
1369.41,0.03192
1363.62,0.03285
1357.84,0.03348
1352.05,0.03469
1346.26,0.03509
1340.48,0.03363
1334.69,0.03388
1328.91,0.03452
1323.12,0.03389
1317.33,0.03429
1311.55,0.03693
1305.76,0.03994
1299.97,0.04182
1294.19,0.04111
1288.4,0.03953
1282.62,0.03757
1276.83,0.03944
1271.04,0.04103
1265.26,0.03946
1259.47,0.03974
1253.68,0.04032
1247.9,0.03976
1242.11,0.03975
1236.33,0.03857
1230.54,0.03951
1224.75,0.04042
1218.97,0.04054
1213.18,0.03662
1207.39,0.03076
1201.61,0.02991
1195.82,0.03063
1190.04,0.03007
1184.25,0.02766
1178.46,0.02614
1172.68,0.03135
1166.89,0.04069
1161.1,0.04037
1155.32,0.03574
1149.53,0.03162
1143.75,0.02842
1137.96,0.02448
1132.17,0.02237
1126.39,0.02375
1120.6,0.02686
1114.81,0.03174
1109.03,0.03452
1103.24,0.03413
1097.46,0.03241
1091.67,0.02977
1085.88,0.03077
1080.1,0.03744
1074.31,0.04709
1068.52,0.05605
1062.74,0.06788
1056.95,0.06756
1051.17,0.06052
1045.38,0.05309
1039.59,0.05594
1033.81,0.06354
1028.02,0.06116
1022.24,0.05859
1016.45,0.05846
1010.66,0.05840
1004.88,0.05673
999.09,0.05811
993.304,0.06018
987.518,0.06209
981.731,0.06844
975.945,0.07788
970.159,0.08348
964.373,0.09017
958.586,0.09814
952.8,0.10668
947.014,0.11110
941.228,0.11379
935.441,0.11372
929.655,0.11479
923.869,0.11541
918.083,0.11177
912.297,0.10360
906.51,0.09556
900.724,0.08890
894.938,0.08797
889.152,0.09527
883.365,0.10408
877.579,0.11098
871.793,0.11571
866.007,0.11916
860.22,0.12131
854.434,0.12185
848.648,0.12001
842.862,0.11760
837.075,0.11383
831.289,0.10817
825.503,0.10014
819.717,0.09207
813.931,0.08730
808.144,0.08167
802.358,0.07837
796.572,0.07792
790.786,0.08005
784.999,0.08348
779.213,0.08337
773.427,0.08111
767.641,0.07713
761.854,0.07446
756.068,0.07003
750.282,0.06621
744.496,0.06287
738.709,0.06038
732.923,0.05510
727.137,0.05115
721.351,0.04840
715.565,0.04684
709.778,0.04631
703.992,0.04662
698.206,0.04721
692.42,0.04709
686.633,0.04863
680.847,0.04819
675.061,0.04576
669.275,0.04563
663.488,0.04707
657.702,0.04770
651.916,0.04591
646.13,0.04443
640.343,0.04272
634.557,0.03877
628.771,0.03879
622.985,0.03917
617.198,0.04023
611.412,0.04253
605.626,0.04653
599.84,0.04794