File: 01_Data/Hemp_Sheet/FTIR/IS/Hemp_Sheet_IS_S_220909_R6.dpt
7497.03,0.57029
7491.25,0.57165
7485.46,0.56462
7479.67,0.56203
7473.89,0.56411
7468.1,0.57611
7462.32,0.56804
7456.53,0.57338
7450.74,0.56827
7444.96,0.56688
7439.17,0.56452
7433.38,0.56285
7427.6,0.57356
7421.81,0.56813
7416.03,0.56490
7410.24,0.56643
7404.45,0.56291
7398.67,0.56552
7392.88,0.55883
7387.09,0.56625
7381.31,0.56917
7375.52,0.56093
7369.74,0.55649
7363.95,0.56306
7358.16,0.56996
7352.38,0.56934
7346.59,0.56219
7340.8,0.56031
7335.02,0.55827
7329.23,0.56064
7323.45,0.55978
7317.66,0.55253
7311.87,0.55524
7306.09,0.55353
7300.3,0.55564
7294.51,0.56283
7288.73,0.55775
7282.94,0.55866
7277.16,0.55658
7271.37,0.55203
7265.58,0.55681
7259.8,0.56402
7254.01,0.55835
7248.22,0.55714
7242.44,0.55793
7236.65,0.56048
7230.87,0.55270
7225.08,0.55333
7219.29,0.55874
7213.51,0.55732
7207.72,0.55045
7201.93,0.55240
7196.15,0.56048
7190.36,0.55591
7184.58,0.55548
7178.79,0.55560
7173,0.55435
7167.22,0.55818
7161.43,0.55155
7155.65,0.54698
7149.86,0.54732
7144.07,0.55113
7138.29,0.55294
7132.5,0.55626
7126.71,0.54210
7120.93,0.55022
7115.14,0.54706
7109.36,0.54089
7103.57,0.54374
7097.78,0.53860
7092,0.54103
7086.21,0.54490
7080.42,0.53445
7074.64,0.53698
7068.85,0.53031
7063.07,0.53450
7057.28,0.53315
7051.49,0.53403
7045.71,0.52377
7039.92,0.52120
7034.13,0.51955
7028.35,0.51639
7022.56,0.51216
7016.78,0.51356
7010.99,0.51040
7005.2,0.51055
6999.42,0.50579
6993.63,0.50060
6987.84,0.49988
6982.06,0.50207
6976.27,0.49890
6970.49,0.50248
6964.7,0.50043
6958.91,0.49750
6953.13,0.49786
6947.34,0.49077
6941.55,0.49282
6935.77,0.49417
6929.98,0.49191
6924.2,0.49154
6918.41,0.48711
6912.62,0.48855
6906.84,0.49689
6901.05,0.49020
6895.26,0.48919
6889.48,0.49359
6883.69,0.49115
6877.91,0.48641
6872.12,0.49043
6866.33,0.48614
6860.55,0.48050
6854.76,0.47973
6848.97,0.48026
6843.19,0.48255
6837.4,0.48287
6831.62,0.47824
6825.83,0.47733
6820.04,0.47834
6814.26,0.47561
6808.47,0.47589
6802.68,0.47268
6796.9,0.47152
6791.11,0.46622
6785.33,0.47182
6779.54,0.46791
6773.75,0.46803
6767.97,0.46484
6762.18,0.46253
6756.39,0.46799
6750.61,0.46478
6744.82,0.45930
6739.04,0.45957
6733.25,0.46627
6727.46,0.46182
6721.68,0.46099
6715.89,0.46466
6710.1,0.46616
6704.32,0.46036
6698.53,0.46419
6692.75,0.46372
6686.96,0.46391
6681.17,0.46093
6675.39,0.46817
6669.6,0.46277
6663.82,0.46665
6658.03,0.47030
6652.24,0.46760
6646.46,0.46347
6640.67,0.46745
6634.88,0.46868
6629.1,0.46634
6623.31,0.46954
6617.53,0.47020
6611.74,0.47056
6605.95,0.46863
6600.17,0.47143
6594.38,0.47319
6588.59,0.47506
6582.81,0.47404
6577.02,0.47692
6571.24,0.47634
6565.45,0.47530
6559.66,0.47164
6553.88,0.47621
6548.09,0.47207
6542.3,0.47404
6536.52,0.47161
6530.73,0.47177
6524.95,0.47379
6519.16,0.47410
6513.37,0.47945
6507.59,0.47237
6501.8,0.47541
6496.01,0.47418
6490.23,0.47451
6484.44,0.47571
6478.66,0.46981
6472.87,0.47410
6467.08,0.47453
6461.3,0.47223
6455.51,0.47308
6449.72,0.47583
6443.94,0.47717
6438.15,0.47405
6432.37,0.47790
6426.58,0.47745
6420.79,0.47701
6415.01,0.47843
6409.22,0.47747
6403.43,0.47935
6397.65,0.47806
6391.86,0.47672
6386.08,0.47741
6380.29,0.47879
6374.5,0.47637
6368.72,0.47626
6362.93,0.47733
6357.14,0.48080
6351.36,0.47940
6345.57,0.48197
6339.79,0.48168
6334,0.47704
6328.21,0.48456
6322.43,0.48256
6316.64,0.48171
6310.85,0.48428
6305.07,0.48346
6299.28,0.48088
6293.5,0.48193
6287.71,0.48217
6281.92,0.48203
6276.14,0.48586
6270.35,0.48954
6264.56,0.48807
6258.78,0.48668
6252.99,0.49153
6247.21,0.49527
6241.42,0.49615
6235.63,0.49470
6229.85,0.49819
6224.06,0.49943
6218.27,0.50124
6212.49,0.50279
6206.7,0.50430
6200.92,0.50771
6195.13,0.50760
6189.34,0.50837
6183.56,0.51041
6177.77,0.51370
6171.98,0.51238
6166.2,0.51489
6160.41,0.51484
6154.63,0.51400
6148.84,0.51412
6143.05,0.51696
6137.27,0.51694
6131.48,0.52032
6125.7,0.52281
6119.91,0.52257
6114.12,0.52274
6108.34,0.52311
6102.55,0.52532
6096.76,0.52288
6090.98,0.52644
6085.19,0.52851
6079.41,0.52760
6073.62,0.52979
6067.83,0.53022
6062.05,0.53292
6056.26,0.53396
6050.47,0.53385
6044.69,0.53557
6038.9,0.53445
6033.12,0.53335
6027.33,0.53622
6021.54,0.53526
6015.76,0.53689
6009.97,0.53580
6004.18,0.53700
5998.4,0.53682
5992.61,0.53975
5986.83,0.53985
5981.04,0.53995
5975.25,0.54056
5969.47,0.54184
5963.68,0.54174
5957.89,0.54050
5952.11,0.53618
5946.32,0.53932
5940.54,0.54076
5934.75,0.53871
5928.96,0.53756
5923.18,0.53873
5917.39,0.53468
5911.6,0.53651
5905.82,0.53707
5900.03,0.53398
5894.25,0.53565
5888.46,0.53348
5882.67,0.53143
5876.89,0.52902
5871.1,0.52535
5865.31,0.52813
5859.53,0.52760
5853.74,0.52670
5847.96,0.52874
5842.17,0.52900
5836.38,0.52740
5830.6,0.53028
5824.81,0.52926
5819.02,0.53002
5813.24,0.52997
5807.45,0.52824
5801.67,0.52697
5795.88,0.52777
5790.09,0.52763
5784.31,0.52783
5778.52,0.52596
5772.73,0.52361
5766.95,0.52149
5761.16,0.52477
5755.38,0.52531
5749.59,0.52360
5743.8,0.52618
5738.02,0.52372
5732.23,0.52123
5726.44,0.52272
5720.66,0.52141
5714.87,0.52259
5709.09,0.52200
5703.3,0.52270
5697.51,0.52338
5691.73,0.52325
5685.94,0.52119
5680.15,0.52201
5674.37,0.51903
5668.58,0.51806
5662.8,0.52003
5657.01,0.52071
5651.22,0.51814
5645.44,0.51862
5639.65,0.52119
5633.87,0.51803
5628.08,0.51982
5622.29,0.51926
5616.51,0.51904
5610.72,0.51995
5604.93,0.51940
5599.15,0.51877
5593.36,0.52077
5587.58,0.52062
5581.79,0.52034
5576,0.52094
5570.22,0.51914
5564.43,0.52004
5558.64,0.52162
5552.86,0.52392
5547.07,0.52146
5541.29,0.52115
5535.5,0.52171
5529.71,0.52107
5523.93,0.52283
5518.14,0.52115
5512.35,0.52042
5506.57,0.51991
5500.78,0.51984
5495,0.52025
5489.21,0.52081
5483.42,0.51916
5477.64,0.51972
5471.85,0.52040
5466.06,0.52127
5460.28,0.52178
5454.49,0.52161
5448.71,0.52258
5442.92,0.52348
5437.13,0.52303
5431.35,0.52384
5425.56,0.52572
5419.77,0.52625
5413.99,0.52839
5408.2,0.52784
5402.42,0.52803
5396.63,0.52980
5390.84,0.52855
5385.06,0.52912
5379.27,0.52977
5373.48,0.53116
5367.7,0.53183
5361.91,0.53047
5356.13,0.53110
5350.34,0.53006
5344.55,0.53008
5338.77,0.53045
5332.98,0.52955
5327.19,0.52794
5321.41,0.52747
5315.62,0.52702
5309.84,0.52601
5304.05,0.52466
5298.26,0.52342
5292.48,0.52038
5286.69,0.51796
5280.9,0.51628
5275.12,0.51216
5269.33,0.50816
5263.55,0.50256
5257.76,0.49986
5251.97,0.49453
5246.19,0.48919
5240.4,0.48473
5234.61,0.47949
5228.83,0.47694
5223.04,0.47364
5217.26,0.47169
5211.47,0.46975
5205.68,0.46854
5199.9,0.46707
5194.11,0.46706
5188.32,0.46479
5182.54,0.46362
5176.75,0.46410
5170.97,0.46537
5165.18,0.46651
5159.39,0.46673
5153.61,0.46886
5147.82,0.46949
5142.03,0.47121
5136.25,0.47147
5130.46,0.47345
5124.68,0.47514
5118.89,0.47751
5113.1,0.47904
5107.32,0.48055
5101.53,0.48202
5095.75,0.48353
5089.96,0.48501
5084.17,0.48492
5078.39,0.48739
5072.6,0.48803
5066.81,0.48975
5061.03,0.48932
5055.24,0.49264
5049.46,0.49378
5043.67,0.49331
5037.88,0.49446
5032.1,0.49402
5026.31,0.49398
5020.52,0.49494
5014.74,0.49497
5008.95,0.49553
5003.17,0.49382
4997.38,0.49379
4991.59,0.49259
4985.81,0.49216
4980.02,0.49149
4974.23,0.49115
4968.45,0.48922
4962.66,0.48472
4956.88,0.48318
4951.09,0.47999
4945.3,0.47597
4939.52,0.47301
4933.73,0.46836
4927.94,0.46528
4922.16,0.46153
4916.37,0.45532
4910.59,0.45013
4904.8,0.44363
4899.01,0.43925
4893.23,0.43364
4887.44,0.42882
4881.65,0.42178
4875.87,0.41711
4870.08,0.41153
4864.3,0.40662
4858.51,0.40177
4852.72,0.39711
4846.94,0.39379
4841.15,0.39039
4835.36,0.38514
4829.58,0.38089
4823.79,0.37644
4818.01,0.37320
4812.22,0.37045
4806.43,0.36691
4800.65,0.36466
4794.86,0.36250
4789.07,0.36072
4783.29,0.35992
4777.5,0.35860
4771.72,0.35739
4765.93,0.35691
4760.14,0.35546
4754.36,0.35465
4748.57,0.35467
4742.78,0.35527
4737,0.35768
4731.21,0.35768
4725.43,0.36030
4719.64,0.36279
4713.85,0.36309
4708.07,0.36543
4702.28,0.36698
4696.49,0.37056
4690.71,0.37309
4684.92,0.37543
4679.14,0.37867
4673.35,0.38165
4667.56,0.38296
4661.78,0.38522
4655.99,0.38749
4650.2,0.38968
4644.42,0.39128
4638.63,0.39425
4632.85,0.39608
4627.06,0.39844
4621.27,0.39995
4615.49,0.40245
4609.7,0.40365
4603.92,0.40573
4598.13,0.40904
4592.34,0.41107
4586.56,0.41344
4580.77,0.41555
4574.98,0.41725
4569.2,0.42093
4563.41,0.42249
4557.63,0.42396
4551.84,0.42630
4546.05,0.42744
4540.27,0.42997
4534.48,0.43169
4528.69,0.43355
4522.91,0.43453
4517.12,0.43522
4511.34,0.43666
4505.55,0.43792
4499.76,0.43777
4493.98,0.43761
4488.19,0.43761
4482.4,0.43685
4476.62,0.43702
4470.83,0.43602
4465.05,0.43435
4459.26,0.43096
4453.47,0.42670
4447.69,0.42130
4441.9,0.41548
4436.11,0.40868
4430.33,0.40053
4424.54,0.39202
4418.76,0.38347
4412.97,0.37501
4407.18,0.36709
4401.4,0.36310
4395.61,0.36089
4389.82,0.36393
4384.04,0.36661
4378.25,0.36946
4372.47,0.37163
4366.68,0.37402
4360.89,0.37352
4355.11,0.37239
4349.32,0.37038
4343.53,0.36924
4337.75,0.36691
4331.96,0.36473
4326.18,0.36077
4320.39,0.35672
4314.6,0.35558
4308.82,0.35317
4303.03,0.35013
4297.24,0.34813
4291.46,0.34548
4285.67,0.34240
4279.89,0.34077
4274.1,0.34014
4268.31,0.34020
4262.53,0.34140
4256.74,0.34218
4250.95,0.34181
4245.17,0.34217
4239.38,0.34337
4233.6,0.34492
4227.81,0.34562
4222.02,0.34594
4216.24,0.34490
4210.45,0.34694
4204.66,0.34969
4198.88,0.35182
4193.09,0.35262
4187.31,0.35292
4181.52,0.35329
4175.73,0.35422
4169.95,0.35490
4164.16,0.35737
4158.37,0.35751
4152.59,0.35590
4146.8,0.35462
4141.02,0.35316
4135.23,0.35226
4129.44,0.35030
4123.66,0.34706
4117.87,0.34335
4112.09,0.33884
4106.3,0.33260
4100.51,0.32669
4094.73,0.32053
4088.94,0.31403
4083.15,0.30889
4077.37,0.30314
4071.58,0.29774
4065.8,0.29054
4060.01,0.28439
4054.22,0.27734
4048.44,0.26952
4042.65,0.26417
4036.86,0.25930
4031.08,0.25626
4025.29,0.25447
4019.51,0.25461
4013.72,0.25554
4007.93,0.25875
4002.15,0.26121
3996.36,0.26464
3990.57,0.26709
3984.79,0.26972
3979,0.27190
3973.22,0.27428
3967.43,0.27606
3961.64,0.27906
3955.86,0.28112
3950.07,0.28336
3944.28,0.28631
3938.5,0.28940
3932.71,0.29292
3926.93,0.29563
3921.14,0.29826
3915.35,0.30094
3909.57,0.30310
3903.78,0.30372
3897.99,0.30605
3892.21,0.30815
3886.42,0.31023
3880.64,0.31239
3874.85,0.31285
3869.06,0.31613
3863.28,0.31918
3857.49,0.32242
3851.7,0.32597
3845.92,0.32898
3840.13,0.33137
3834.35,0.33281
3828.56,0.33348
3822.77,0.33430
3816.99,0.33366
3811.2,0.33442
3805.41,0.33431
3799.63,0.33460
3793.84,0.33526
3788.06,0.33550
3782.27,0.33524
3776.48,0.33527
3770.7,0.33418
3764.91,0.33363
3759.12,0.33299
3753.34,0.33187
3747.55,0.33144
3741.77,0.32951
3735.98,0.32652
3730.19,0.32307
3724.41,0.32006
3718.62,0.31565
3712.83,0.31101
3707.05,0.30525
3701.26,0.29891
3695.48,0.29156
3689.69,0.28284
3683.9,0.27271
3678.12,0.26153
3672.33,0.24720
3666.54,0.23246
3660.76,0.21746
3654.97,0.20200
3649.19,0.18678
3643.4,0.17309
3637.61,0.16051
3631.83,0.14804
3626.04,0.13565
3620.25,0.12519
3614.47,0.11435
3608.68,0.10433
3602.9,0.09610
3597.11,0.08817
3591.32,0.08132
3585.54,0.07515
3579.75,0.06987
3573.97,0.06562
3568.18,0.06087
3562.39,0.05711
3556.61,0.05262
3550.82,0.04969
3545.03,0.04713
3539.25,0.04438
3533.46,0.04221
3527.68,0.04027
3521.89,0.03841
3516.1,0.03678
3510.32,0.03541
3504.53,0.03411
3498.74,0.03293
3492.96,0.03199
3487.17,0.03094
3481.39,0.03011
3475.6,0.02922
3469.81,0.02881
3464.03,0.02852
3458.24,0.02770
3452.45,0.02820
3446.67,0.02750
3440.88,0.02861
3435.1,0.02865
3429.31,0.02873
3423.52,0.02809
3417.74,0.02784
3411.95,0.02813
3406.16,0.02831
3400.38,0.02789
3394.59,0.02836
3388.81,0.02877
3383.02,0.02887
3377.23,0.02915
3371.45,0.02927
3365.66,0.02959
3359.87,0.03028
3354.09,0.03126
3348.3,0.03165
3342.52,0.03273
3336.73,0.03382
3330.94,0.03418
3325.16,0.03446
3319.37,0.03520
3313.58,0.03395
3307.8,0.03489
3302.01,0.03519
3296.23,0.03559
3290.44,0.03591
3284.65,0.03616
3278.87,0.03706
3273.08,0.03729
3267.29,0.03803
3261.51,0.03978
3255.72,0.03969
3249.94,0.04095
3244.15,0.04164
3238.36,0.04197
3232.58,0.04260
3226.79,0.04515
3221,0.04542
3215.22,0.04636
3209.43,0.04741
3203.65,0.04899
3197.86,0.05070
3192.07,0.05158
3186.29,0.05312
3180.5,0.05539
3174.71,0.05700
3168.93,0.05863
3163.14,0.06044
3157.36,0.06174
3151.57,0.06423
3145.78,0.06619
3140,0.06845
3134.21,0.07092
3128.42,0.07279
3122.64,0.07452
3116.85,0.07692
3111.07,0.07995
3105.28,0.08177
3099.49,0.08481
3093.71,0.08683
3087.92,0.08965
3082.14,0.09205
3076.35,0.09449
3070.56,0.09705
3064.78,0.09972
3058.99,0.10168
3053.2,0.10455
3047.42,0.10631
3041.63,0.10798
3035.85,0.10960
3030.06,0.11143
3024.27,0.11318
3018.49,0.11455
3012.7,0.11525
3006.91,0.11516
3001.13,0.11374
2995.34,0.11160
2989.56,0.10684
2983.77,0.09894
2977.98,0.08808
2972.2,0.07395
2966.41,0.06648
2960.62,0.06541
2954.84,0.06344
2949.05,0.05945
2943.27,0.05688
2937.48,0.05643
2931.69,0.05523
2925.91,0.05288
2920.12,0.05074
2914.33,0.04847
2908.55,0.04697
2902.76,0.04674
2896.98,0.04725
2891.19,0.04882
2885.4,0.05109
2879.62,0.05207
2873.83,0.05228
2868.04,0.05309
2862.26,0.05446
2856.47,0.05641
2850.69,0.05909
2844.9,0.06443
2839.11,0.07043
2833.33,0.07574
2827.54,0.07997
2821.75,0.08420
2815.97,0.08899
2810.18,0.09337
2804.4,0.09729
2798.61,0.10111
2792.82,0.10358
2787.04,0.10514
2781.25,0.10577
2775.46,0.10725
2769.68,0.10728
2763.89,0.10770
2758.11,0.10834
2752.32,0.10909
2746.53,0.10883
2740.75,0.10792
2734.96,0.10856
2729.17,0.10953
2723.39,0.11080
2717.6,0.11227
2711.82,0.11467
2706.03,0.11717
2700.24,0.12022
2694.46,0.12351
2688.67,0.12668
2682.88,0.12987
2677.1,0.13287
2671.31,0.13514
2665.53,0.13613
2659.74,0.13763
2653.95,0.13946
2648.17,0.14154
2642.38,0.14396
2636.59,0.14622
2630.81,0.14819
2625.02,0.15055
2619.24,0.15235
2613.45,0.15425
2607.66,0.15561
2601.88,0.15711
2596.09,0.15889
2590.3,0.15986
2584.52,0.16083
2578.73,0.16109
2572.95,0.16080
2567.16,0.16030
2561.37,0.15918
2555.59,0.15890
2549.8,0.15780
2544.02,0.15699
2538.23,0.15682
2532.44,0.15781
2526.66,0.15895
2520.87,0.15981
2515.08,0.16043
2509.3,0.16331
2503.51,0.16737
2497.73,0.17072
2491.94,0.17436
2486.15,0.17719
2480.37,0.17978
2474.58,0.18272
2468.79,0.18527
2463.01,0.18670
2457.22,0.18786
2451.44,0.18973
2445.65,0.19233
2439.86,0.19524
2434.08,0.19839
2428.29,0.20187
2422.5,0.20508
2416.72,0.20840
2410.93,0.21097
2405.15,0.21342
2399.36,0.21603
2393.57,0.21842
2387.79,0.22110
2382,0.22320
2376.21,0.22631
2370.43,0.22966
2364.64,0.23248
2358.86,0.23442
2353.07,0.23572
2347.28,0.23788
2341.5,0.24098
2335.71,0.24266
2329.92,0.24440
2324.14,0.24580
2318.35,0.24757
2312.57,0.24827
2306.78,0.24834
2300.99,0.24729
2295.21,0.24574
2289.42,0.24481
2283.63,0.24426
2277.85,0.24292
2272.06,0.24043
2266.28,0.23622
2260.49,0.23178
2254.7,0.22920
2248.92,0.22755
2243.13,0.22603
2237.34,0.22514
2231.56,0.22501
2225.77,0.22539
2219.99,0.22779
2214.2,0.23021
2208.41,0.23181
2202.63,0.23160
2196.84,0.23020
2191.05,0.22788
2185.27,0.22428
2179.48,0.21936
2173.7,0.21376
2167.91,0.20887
2162.12,0.20470
2156.34,0.20177
2150.55,0.19957
2144.76,0.19712
2138.98,0.19495
2133.19,0.19468
2127.41,0.19666
2121.62,0.19925
2115.83,0.20192
2110.05,0.20436
2104.26,0.20711
2098.47,0.20961
2092.69,0.21179
2086.9,0.21381
2081.12,0.21468
2075.33,0.21429
2069.54,0.21325
2063.76,0.21307
2057.97,0.21327
2052.19,0.21332
2046.4,0.21370
2040.61,0.21550
2034.83,0.21841
2029.04,0.22313
2023.25,0.22885
2017.47,0.23444
2011.68,0.23924
2005.9,0.24228
2000.11,0.24401
1994.32,0.24597
1988.54,0.24919
1982.75,0.25195
1976.96,0.25379
1971.18,0.25461
1965.39,0.25585
1959.61,0.25753
1953.82,0.26015
1948.03,0.26350
1942.25,0.26773
1936.46,0.27234
1930.67,0.27578
1924.89,0.27813
1919.1,0.28016
1913.32,0.28144
1907.53,0.28281
1901.74,0.28321
1895.96,0.28302
1890.17,0.28186
1884.38,0.28123
1878.6,0.28067
1872.81,0.27972
1867.03,0.27864
1861.24,0.27718
1855.45,0.27460
1849.67,0.27178
1843.88,0.26810
1838.09,0.26498
1832.31,0.26281
1826.52,0.26067
1820.74,0.25814
1814.95,0.25511
1809.16,0.25182
1803.38,0.24798
1797.59,0.24426
1791.8,0.24077
1786.02,0.23750
1780.23,0.23321
1774.45,0.22865
1768.66,0.22323
1762.87,0.21841
1757.09,0.21396
1751.3,0.20963
1745.51,0.20410
1739.73,0.19775
1733.94,0.19328
1728.16,0.18878
1722.37,0.18618
1716.58,0.18282
1710.8,0.17886
1705.01,0.17423
1699.22,0.16864
1693.44,0.16097
1687.65,0.15243
1681.87,0.14192
1676.08,0.13184
1670.29,0.12262
1664.51,0.11507
1658.72,0.10947
1652.93,0.10613
1647.15,0.10286
1641.36,0.10100
1635.58,0.10005
1629.79,0.09984
1624,0.10140
1618.22,0.10337
1612.43,0.10497
1606.64,0.10531
1600.86,0.10709
1595.07,0.10913
1589.29,0.11279
1583.5,0.11698
1577.71,0.12145
1571.93,0.12502
1566.14,0.12730
1560.35,0.12870
1554.57,0.12872
1548.78,0.12833
1543,0.12790
1537.21,0.12721
1531.42,0.12494
1525.64,0.12183
1519.85,0.11664
1514.07,0.11019
1508.28,0.10520
1502.49,0.10011
1496.71,0.09481
1490.92,0.08600
1485.13,0.07245
1479.35,0.06346
1473.56,0.05779
1467.78,0.05121
1461.99,0.04552
1456.2,0.04163
1450.42,0.04000
1444.63,0.03824
1438.84,0.03629
1433.06,0.03446
1427.27,0.03569
1421.49,0.03883
1415.7,0.04252
1409.91,0.04364
1404.13,0.04344
1398.34,0.04339
1392.55,0.04157
1386.77,0.03786
1380.98,0.03388
1375.2,0.03182
1369.41,0.03186
1363.62,0.03322
1357.84,0.03352
1352.05,0.03483
1346.26,0.03487
1340.48,0.03362
1334.69,0.03359
1328.91,0.03430
1323.12,0.03397
1317.33,0.03439
1311.55,0.03737
1305.76,0.03982
1299.97,0.04223
1294.19,0.04148
1288.4,0.03967
1282.62,0.03733
1276.83,0.03961
1271.04,0.04078
1265.26,0.03933
1259.47,0.03936
1253.68,0.04003
1247.9,0.03980
1242.11,0.03908
1236.33,0.03853
1230.54,0.03957
1224.75,0.04101
1218.97,0.04067
1213.18,0.03634
1207.39,0.03110
1201.61,0.02989
1195.82,0.03049
1190.04,0.03014
1184.25,0.02803
1178.46,0.02698
1172.68,0.03183
1166.89,0.04075
1161.1,0.04068
1155.32,0.03608
1149.53,0.03119
1143.75,0.02766
1137.96,0.02470
1132.17,0.02232
1126.39,0.02357
1120.6,0.02732
1114.81,0.03188
1109.03,0.03526
1103.24,0.03376
1097.46,0.03183
1091.67,0.02931
1085.88,0.03080
1080.1,0.03803
1074.31,0.04731
1068.52,0.05597
1062.74,0.06810
1056.95,0.06876
1051.17,0.06054
1045.38,0.05338
1039.59,0.05595
1033.81,0.06329
1028.02,0.06140
1022.24,0.05880
1016.45,0.05867
1010.66,0.05928
1004.88,0.05761
999.09,0.05844
993.304,0.05996
987.518,0.06132
981.731,0.06824
975.945,0.07732
970.159,0.08366
964.373,0.08993
958.586,0.09840
952.8,0.10628
947.014,0.11092
941.228,0.11372
935.441,0.11460
929.655,0.11467
923.869,0.11548
918.083,0.11281
912.297,0.10450
906.51,0.09628
900.724,0.08955
894.938,0.08900
889.152,0.09595
883.365,0.10595
877.579,0.11209
871.793,0.11715
866.007,0.12164
860.22,0.12390
854.434,0.12420
848.648,0.12294
842.862,0.12064
837.075,0.11649
831.289,0.11175
825.503,0.10245
819.717,0.09490
813.931,0.08944
808.144,0.08375
802.358,0.07979
796.572,0.07998
790.786,0.08288
784.999,0.08588
779.213,0.08584
773.427,0.08359
767.641,0.08029
761.854,0.07576
756.068,0.07159
750.282,0.06841
744.496,0.06441
738.709,0.06076
732.923,0.05647
727.137,0.05248
721.351,0.04972
715.565,0.04802
709.778,0.04683
703.992,0.04796
698.206,0.04892
692.42,0.04888
686.633,0.04847
680.847,0.04719
675.061,0.04617
669.275,0.04635
663.488,0.04547
657.702,0.04610
651.916,0.04496
646.13,0.04517
640.343,0.04387
634.557,0.03947
628.771,0.03938
622.985,0.04001
617.198,0.04228
611.412,0.04587
605.626,0.04866
599.84,0.04762