File: 01_Data/Hemp_Sheet/FTIR/IS/Hemp_Sheet_IS_T_220909_R6.dpt
7497.03,0.02554
7491.25,0.02526
7485.46,0.02854
7479.67,0.02405
7473.89,0.02761
7468.1,0.02528
7462.32,0.02014
7456.53,0.03560
7450.74,0.01987
7444.96,0.02061
7439.17,0.02484
7433.38,0.03402
7427.6,0.02079
7421.81,0.02583
7416.03,0.02390
7410.24,0.02545
7404.45,0.03075
7398.67,0.02194
7392.88,0.02715
7387.09,0.03214
7381.31,0.02275
7375.52,0.02622
7369.74,0.01624
7363.95,0.02584
7358.16,0.02541
7352.38,0.02565
7346.59,0.02358
7340.8,0.02689
7335.02,0.02124
7329.23,0.02310
7323.45,0.02666
7317.66,0.03598
7311.87,0.02826
7306.09,0.02809
7300.3,0.02920
7294.51,0.02843
7288.73,0.02755
7282.94,0.01984
7277.16,0.02343
7271.37,0.02955
7265.58,0.02799
7259.8,0.02797
7254.01,0.02988
7248.22,0.02650
7242.44,0.02360
7236.65,0.02217
7230.87,0.01868
7225.08,0.02850
7219.29,0.03131
7213.51,0.02758
7207.72,0.02873
7201.93,0.02782
7196.15,0.03014
7190.36,0.03124
7184.58,0.02681
7178.79,0.02745
7173,0.02319
7167.22,0.02393
7161.43,0.02841
7155.65,0.02539
7149.86,0.03180
7144.07,0.02972
7138.29,0.02718
7132.5,0.02863
7126.71,0.02425
7120.93,0.01936
7115.14,0.02321
7109.36,0.02831
7103.57,0.02105
7097.78,0.01970
7092,0.02688
7086.21,0.02723
7080.42,0.02450
7074.64,0.03001
7068.85,0.02956
7063.07,0.03609
7057.28,0.02647
7051.49,0.02426
7045.71,0.02682
7039.92,0.02391
7034.13,0.02173
7028.35,0.02111
7022.56,0.02037
7016.78,0.02105
7010.99,0.02177
7005.2,0.02322
6999.42,0.02104
6993.63,0.02099
6987.84,0.02403
6982.06,0.02714
6976.27,0.02356
6970.49,0.02671
6964.7,0.02375
6958.91,0.01772
6953.13,0.02280
6947.34,0.02190
6941.55,0.02892
6935.77,0.02665
6929.98,0.02158
6924.2,0.02276
6918.41,0.01868
6912.62,0.01930
6906.84,0.02330
6901.05,0.02431
6895.26,0.02836
6889.48,0.02293
6883.69,0.02989
6877.91,0.02031
6872.12,0.02195
6866.33,0.02951
6860.55,0.02820
6854.76,0.02477
6848.97,0.02141
6843.19,0.02245
6837.4,0.02229
6831.62,0.02703
6825.83,0.02376
6820.04,0.02140
6814.26,0.02297
6808.47,0.01814
6802.68,0.02434
6796.9,0.02695
6791.11,0.02424
6785.33,0.02637
6779.54,0.02366
6773.75,0.02582
6767.97,0.02296
6762.18,0.02643
6756.39,0.01831
6750.61,0.01852
6744.82,0.02345
6739.04,0.02312
6733.25,0.02040
6727.46,0.02376
6721.68,0.02478
6715.89,0.02371
6710.1,0.02552
6704.32,0.02276
6698.53,0.02242
6692.75,0.01991
6686.96,0.02274
6681.17,0.02239
6675.39,0.02648
6669.6,0.02285
6663.82,0.02236
6658.03,0.02435
6652.24,0.02298
6646.46,0.02581
6640.67,0.01996
6634.88,0.02242
6629.1,0.02342
6623.31,0.01958
6617.53,0.02620
6611.74,0.02474
6605.95,0.02036
6600.17,0.01985
6594.38,0.02444
6588.59,0.02620
6582.81,0.02205
6577.02,0.02467
6571.24,0.02724
6565.45,0.01931
6559.66,0.02617
6553.88,0.02090
6548.09,0.02265
6542.3,0.01932
6536.52,0.02131
6530.73,0.02191
6524.95,0.02340
6519.16,0.02829
6513.37,0.01966
6507.59,0.02340
6501.8,0.01976
6496.01,0.02080
6490.23,0.01976
6484.44,0.02682
6478.66,0.02643
6472.87,0.02376
6467.08,0.02208
6461.3,0.02175
6455.51,0.02250
6449.72,0.02310
6443.94,0.02332
6438.15,0.02198
6432.37,0.02051
6426.58,0.01863
6420.79,0.02246
6415.01,0.02067
6409.22,0.02242
6403.43,0.02083
6397.65,0.02273
6391.86,0.01867
6386.08,0.02324
6380.29,0.02287
6374.5,0.02626
6368.72,0.02367
6362.93,0.02454
6357.14,0.02197
6351.36,0.01931
6345.57,0.02098
6339.79,0.02431
6334,0.02031
6328.21,0.02186
6322.43,0.02510
6316.64,0.02275
6310.85,0.02304
6305.07,0.02241
6299.28,0.02588
6293.5,0.02270
6287.71,0.02497
6281.92,0.02066
6276.14,0.02268
6270.35,0.02235
6264.56,0.02382
6258.78,0.02138
6252.99,0.02297
6247.21,0.02681
6241.42,0.02414
6235.63,0.02206
6229.85,0.02207
6224.06,0.02395
6218.27,0.02084
6212.49,0.02094
6206.7,0.02168
6200.92,0.02253
6195.13,0.02025
6189.34,0.02143
6183.56,0.01970
6177.77,0.01780
6171.98,0.02348
6166.2,0.02154
6160.41,0.02006
6154.63,0.02342
6148.84,0.02130
6143.05,0.02367
6137.27,0.02166
6131.48,0.01946
6125.7,0.02212
6119.91,0.02216
6114.12,0.02162
6108.34,0.01957
6102.55,0.01783
6096.76,0.02350
6090.98,0.02040
6085.19,0.02215
6079.41,0.02402
6073.62,0.02552
6067.83,0.01992
6062.05,0.02165
6056.26,0.02225
6050.47,0.02259
6044.69,0.02314
6038.9,0.02275
6033.12,0.02208
6027.33,0.02305
6021.54,0.02366
6015.76,0.02424
6009.97,0.02066
6004.18,0.02065
5998.4,0.02239
5992.61,0.02110
5986.83,0.02213
5981.04,0.02293
5975.25,0.02377
5969.47,0.02086
5963.68,0.02315
5957.89,0.02343
5952.11,0.02261
5946.32,0.02003
5940.54,0.02347
5934.75,0.02365
5928.96,0.02371
5923.18,0.02317
5917.39,0.02461
5911.6,0.02419
5905.82,0.02391
5900.03,0.02104
5894.25,0.02008
5888.46,0.02173
5882.67,0.02194
5876.89,0.02255
5871.1,0.02216
5865.31,0.02084
5859.53,0.02124
5853.74,0.02335
5847.96,0.02140
5842.17,0.02327
5836.38,0.02018
5830.6,0.01970
5824.81,0.02100
5819.02,0.02317
5813.24,0.02192
5807.45,0.02325
5801.67,0.02522
5795.88,0.02210
5790.09,0.02203
5784.31,0.02155
5778.52,0.02069
5772.73,0.02261
5766.95,0.02246
5761.16,0.02227
5755.38,0.02193
5749.59,0.02079
5743.8,0.01883
5738.02,0.02093
5732.23,0.02079
5726.44,0.02076
5720.66,0.02145
5714.87,0.02042
5709.09,0.02111
5703.3,0.02192
5697.51,0.02417
5691.73,0.02158
5685.94,0.02012
5680.15,0.02216
5674.37,0.02234
5668.58,0.02317
5662.8,0.02080
5657.01,0.02161
5651.22,0.02397
5645.44,0.02339
5639.65,0.02425
5633.87,0.02247
5628.08,0.02212
5622.29,0.02210
5616.51,0.02249
5610.72,0.02261
5604.93,0.02138
5599.15,0.02052
5593.36,0.02110
5587.58,0.02165
5581.79,0.02215
5576,0.02183
5570.22,0.02200
5564.43,0.02194
5558.64,0.02282
5552.86,0.02362
5547.07,0.02342
5541.29,0.02215
5535.5,0.02117
5529.71,0.02040
5523.93,0.02170
5518.14,0.02319
5512.35,0.02220
5506.57,0.02085
5500.78,0.02041
5495,0.02296
5489.21,0.02134
5483.42,0.02392
5477.64,0.02348
5471.85,0.02257
5466.06,0.02166
5460.28,0.02061
5454.49,0.02062
5448.71,0.02274
5442.92,0.02181
5437.13,0.02060
5431.35,0.02266
5425.56,0.02234
5419.77,0.02189
5413.99,0.02266
5408.2,0.02229
5402.42,0.02256
5396.63,0.02256
5390.84,0.02027
5385.06,0.02125
5379.27,0.02317
5373.48,0.02350
5367.7,0.02244
5361.91,0.02230
5356.13,0.02257
5350.34,0.02157
5344.55,0.02287
5338.77,0.02253
5332.98,0.02312
5327.19,0.02219
5321.41,0.02172
5315.62,0.02247
5309.84,0.02147
5304.05,0.02124
5298.26,0.02069
5292.48,0.02272
5286.69,0.02140
5280.9,0.02150
5275.12,0.02050
5269.33,0.02056
5263.55,0.02122
5257.76,0.02180
5251.97,0.02261
5246.19,0.02043
5240.4,0.02036
5234.61,0.02255
5228.83,0.02269
5223.04,0.02201
5217.26,0.02287
5211.47,0.02220
5205.68,0.02224
5199.9,0.02268
5194.11,0.02192
5188.32,0.02293
5182.54,0.02275
5176.75,0.02150
5170.97,0.02149
5165.18,0.02239
5159.39,0.02165
5153.61,0.02232
5147.82,0.02186
5142.03,0.02138
5136.25,0.02221
5130.46,0.02310
5124.68,0.02244
5118.89,0.02149
5113.1,0.02170
5107.32,0.02129
5101.53,0.02125
5095.75,0.02214
5089.96,0.02344
5084.17,0.02171
5078.39,0.02127
5072.6,0.02296
5066.81,0.02259
5061.03,0.02233
5055.24,0.02133
5049.46,0.02251
5043.67,0.02335
5037.88,0.02097
5032.1,0.02216
5026.31,0.02310
5020.52,0.02273
5014.74,0.02295
5008.95,0.02153
5003.17,0.02212
4997.38,0.02321
4991.59,0.02214
4985.81,0.02121
4980.02,0.02157
4974.23,0.02258
4968.45,0.02193
4962.66,0.02357
4956.88,0.02220
4951.09,0.02031
4945.3,0.02204
4939.52,0.02264
4933.73,0.02228
4927.94,0.02117
4922.16,0.02103
4916.37,0.02253
4910.59,0.02231
4904.8,0.02162
4899.01,0.02235
4893.23,0.02227
4887.44,0.02185
4881.65,0.02175
4875.87,0.02248
4870.08,0.02259
4864.3,0.02286
4858.51,0.02221
4852.72,0.02140
4846.94,0.02214
4841.15,0.02174
4835.36,0.02325
4829.58,0.02267
4823.79,0.02255
4818.01,0.02245
4812.22,0.02231
4806.43,0.02235
4800.65,0.02339
4794.86,0.02152
4789.07,0.02161
4783.29,0.02179
4777.5,0.02303
4771.72,0.02298
4765.93,0.02252
4760.14,0.02284
4754.36,0.02245
4748.57,0.02171
4742.78,0.02230
4737,0.02272
4731.21,0.02180
4725.43,0.02255
4719.64,0.02245
4713.85,0.02234
4708.07,0.02245
4702.28,0.02258
4696.49,0.02261
4690.71,0.02261
4684.92,0.02326
4679.14,0.02202
4673.35,0.02249
4667.56,0.02167
4661.78,0.02215
4655.99,0.02175
4650.2,0.02252
4644.42,0.02312
4638.63,0.02224
4632.85,0.02307
4627.06,0.02226
4621.27,0.02241
4615.49,0.02230
4609.7,0.02226
4603.92,0.02193
4598.13,0.02167
4592.34,0.02221
4586.56,0.02169
4580.77,0.02226
4574.98,0.02187
4569.2,0.02173
4563.41,0.02252
4557.63,0.02191
4551.84,0.02221
4546.05,0.02189
4540.27,0.02212
4534.48,0.02247
4528.69,0.02196
4522.91,0.02227
4517.12,0.02336
4511.34,0.02226
4505.55,0.02235
4499.76,0.02241
4493.98,0.02306
4488.19,0.02148
4482.4,0.02235
4476.62,0.02255
4470.83,0.02158
4465.05,0.02263
4459.26,0.02275
4453.47,0.02223
4447.69,0.02220
4441.9,0.02325
4436.11,0.02184
4430.33,0.02196
4424.54,0.02255
4418.76,0.02259
4412.97,0.02201
4407.18,0.02257
4401.4,0.02343
4395.61,0.02257
4389.82,0.02241
4384.04,0.02164
4378.25,0.02154
4372.47,0.02263
4366.68,0.02224
4360.89,0.02252
4355.11,0.02323
4349.32,0.02293
4343.53,0.02286
4337.75,0.02230
4331.96,0.02205
4326.18,0.02194
4320.39,0.02260
4314.6,0.02215
4308.82,0.02229
4303.03,0.02261
4297.24,0.02277
4291.46,0.02271
4285.67,0.02231
4279.89,0.02226
4274.1,0.02220
4268.31,0.02261
4262.53,0.02281
4256.74,0.02320
4250.95,0.02324
4245.17,0.02266
4239.38,0.02299
4233.6,0.02232
4227.81,0.02254
4222.02,0.02291
4216.24,0.02324
4210.45,0.02258
4204.66,0.02213
4198.88,0.02262
4193.09,0.02267
4187.31,0.02266
4181.52,0.02211
4175.73,0.02207
4169.95,0.02256
4164.16,0.02236
4158.37,0.02223
4152.59,0.02262
4146.8,0.02215
4141.02,0.02211
4135.23,0.02227
4129.44,0.02265
4123.66,0.02252
4117.87,0.02170
4112.09,0.02231
4106.3,0.02175
4100.51,0.02187
4094.73,0.02251
4088.94,0.02188
4083.15,0.02244
4077.37,0.02247
4071.58,0.02230
4065.8,0.02197
4060.01,0.02244
4054.22,0.02246
4048.44,0.02272
4042.65,0.02252
4036.86,0.02265
4031.08,0.02254
4025.29,0.02223
4019.51,0.02240
4013.72,0.02232
4007.93,0.02224
4002.15,0.02202
3996.36,0.02264
3990.57,0.02234
3984.79,0.02239
3979,0.02254
3973.22,0.02215
3967.43,0.02199
3961.64,0.02257
3955.86,0.02247
3950.07,0.02220
3944.28,0.02265
3938.5,0.02176
3932.71,0.02199
3926.93,0.02308
3921.14,0.02223
3915.35,0.02297
3909.57,0.02231
3903.78,0.02262
3897.99,0.02242
3892.21,0.02230
3886.42,0.02254
3880.64,0.02281
3874.85,0.02265
3869.06,0.02264
3863.28,0.02265
3857.49,0.02253
3851.7,0.02262
3845.92,0.02213
3840.13,0.02165
3834.35,0.02219
3828.56,0.02208
3822.77,0.02286
3816.99,0.02203
3811.2,0.02199
3805.41,0.02258
3799.63,0.02195
3793.84,0.02236
3788.06,0.02274
3782.27,0.02286
3776.48,0.02314
3770.7,0.02243
3764.91,0.02259
3759.12,0.02231
3753.34,0.02254
3747.55,0.02269
3741.77,0.02229
3735.98,0.02233
3730.19,0.02150
3724.41,0.02262
3718.62,0.02222
3712.83,0.02268
3707.05,0.02238
3701.26,0.02257
3695.48,0.02182
3689.69,0.02189
3683.9,0.02167
3678.12,0.02194
3672.33,0.02153
3666.54,0.02142
3660.76,0.02180
3654.97,0.02173
3649.19,0.02222
3643.4,0.02171
3637.61,0.02215
3631.83,0.02184
3626.04,0.02136
3620.25,0.02203
3614.47,0.02174
3608.68,0.02110
3602.9,0.02143
3597.11,0.02193
3591.32,0.02162
3585.54,0.02200
3579.75,0.02194
3573.97,0.02196
3568.18,0.02140
3562.39,0.02129
3556.61,0.02117
3550.82,0.02098
3545.03,0.02099
3539.25,0.02047
3533.46,0.02161
3527.68,0.02051
3521.89,0.02085
3516.1,0.02079
3510.32,0.02118
3504.53,0.02176
3498.74,0.02037
3492.96,0.02031
3487.17,0.02087
3481.39,0.02091
3475.6,0.02066
3469.81,0.02045
3464.03,0.02129
3458.24,0.02025
3452.45,0.02122
3446.67,0.02052
3440.88,0.02129
3435.1,0.02066
3429.31,0.02077
3423.52,0.02012
3417.74,0.02016
3411.95,0.02056
3406.16,0.02102
3400.38,0.02075
3394.59,0.01975
3388.81,0.02048
3383.02,0.02026
3377.23,0.02027
3371.45,0.01972
3365.66,0.01972
3359.87,0.02099
3354.09,0.02079
3348.3,0.02046
3342.52,0.01943
3336.73,0.02009
3330.94,0.02073
3325.16,0.02068
3319.37,0.02026
3313.58,0.02040
3307.8,0.02060
3302.01,0.02019
3296.23,0.01977
3290.44,0.02052
3284.65,0.02113
3278.87,0.01980
3273.08,0.01991
3267.29,0.02024
3261.51,0.02079
3255.72,0.02103
3249.94,0.01987
3244.15,0.02042
3238.36,0.02060
3232.58,0.01980
3226.79,0.02079
3221,0.02031
3215.22,0.02002
3209.43,0.02117
3203.65,0.02065
3197.86,0.02047
3192.07,0.02057
3186.29,0.02088
3180.5,0.02028
3174.71,0.02122
3168.93,0.02087
3163.14,0.02056
3157.36,0.02103
3151.57,0.02107
3145.78,0.02054
3140,0.02106
3134.21,0.02011
3128.42,0.02095
3122.64,0.02047
3116.85,0.02040
3111.07,0.02043
3105.28,0.02066
3099.49,0.02050
3093.71,0.02046
3087.92,0.02067
3082.14,0.02033
3076.35,0.02083
3070.56,0.02065
3064.78,0.01995
3058.99,0.01970
3053.2,0.02057
3047.42,0.02053
3041.63,0.02046
3035.85,0.02014
3030.06,0.02036
3024.27,0.02066
3018.49,0.02056
3012.7,0.02069
3006.91,0.02016
3001.13,0.02047
2995.34,0.02010
2989.56,0.02035
2983.77,0.01976
2977.98,0.01953
2972.2,0.01986
2966.41,0.01903
2960.62,0.01983
2954.84,0.01940
2949.05,0.01945
2943.27,0.01944
2937.48,0.01977
2931.69,0.01984
2925.91,0.01972
2920.12,0.02012
2914.33,0.01996
2908.55,0.02026
2902.76,0.02009
2896.98,0.02042
2891.19,0.02094
2885.4,0.02038
2879.62,0.02054
2873.83,0.02069
2868.04,0.02044
2862.26,0.02049
2856.47,0.02035
2850.69,0.02020
2844.9,0.02106
2839.11,0.02048
2833.33,0.02089
2827.54,0.02091
2821.75,0.02108
2815.97,0.02124
2810.18,0.02138
2804.4,0.02085
2798.61,0.02106
2792.82,0.02099
2787.04,0.02126
2781.25,0.02126
2775.46,0.02097
2769.68,0.02096
2763.89,0.02128
2758.11,0.02127
2752.32,0.02134
2746.53,0.02125
2740.75,0.02097
2734.96,0.02111
2729.17,0.02092
2723.39,0.02071
2717.6,0.02139
2711.82,0.02080
2706.03,0.02114
2700.24,0.02106
2694.46,0.02072
2688.67,0.02099
2682.88,0.02108
2677.1,0.02125
2671.31,0.02106
2665.53,0.02078
2659.74,0.02105
2653.95,0.02094
2648.17,0.02115
2642.38,0.02141
2636.59,0.02105
2630.81,0.02105
2625.02,0.02125
2619.24,0.02134
2613.45,0.02133
2607.66,0.02075
2601.88,0.02127
2596.09,0.02121
2590.3,0.02129
2584.52,0.02093
2578.73,0.02148
2572.95,0.02136
2567.16,0.02083
2561.37,0.02102
2555.59,0.02086
2549.8,0.02071
2544.02,0.02096
2538.23,0.02125
2532.44,0.02114
2526.66,0.02066
2520.87,0.02107
2515.08,0.02076
2509.3,0.02101
2503.51,0.02118
2497.73,0.02108
2491.94,0.02100
2486.15,0.02099
2480.37,0.02132
2474.58,0.02106
2468.79,0.02095
2463.01,0.02066
2457.22,0.02148
2451.44,0.02090
2445.65,0.02103
2439.86,0.02093
2434.08,0.02123
2428.29,0.02137
2422.5,0.02106
2416.72,0.02088
2410.93,0.02104
2405.15,0.02091
2399.36,0.02138
2393.57,0.02111
2387.79,0.02106
2382,0.02061
2376.21,0.02093
2370.43,0.02111
2364.64,0.02119
2358.86,0.02073
2353.07,0.02141
2347.28,0.02085
2341.5,0.02107
2335.71,0.02078
2329.92,0.02068
2324.14,0.02090
2318.35,0.02063
2312.57,0.02074
2306.78,0.02118
2300.99,0.02073
2295.21,0.02122
2289.42,0.02073
2283.63,0.02101
2277.85,0.02112
2272.06,0.02084
2266.28,0.02090
2260.49,0.02099
2254.7,0.02089
2248.92,0.02085
2243.13,0.02079
2237.34,0.02122
2231.56,0.02117
2225.77,0.02098
2219.99,0.02075
2214.2,0.02038
2208.41,0.02082
2202.63,0.02095
2196.84,0.02092
2191.05,0.02081
2185.27,0.02105
2179.48,0.02085
2173.7,0.02067
2167.91,0.02078
2162.12,0.02075
2156.34,0.02047
2150.55,0.02085
2144.76,0.02087
2138.98,0.02077
2133.19,0.02078
2127.41,0.02076
2121.62,0.02085
2115.83,0.02093
2110.05,0.02082
2104.26,0.02088
2098.47,0.02052
2092.69,0.02133
2086.9,0.02049
2081.12,0.02056
2075.33,0.02042
2069.54,0.02081
2063.76,0.02063
2057.97,0.02078
2052.19,0.02078
2046.4,0.02099
2040.61,0.02085
2034.83,0.02095
2029.04,0.02051
2023.25,0.02063
2017.47,0.02052
2011.68,0.02047
2005.9,0.02040
2000.11,0.02064
1994.32,0.02034
1988.54,0.02063
1982.75,0.02068
1976.96,0.02052
1971.18,0.02077
1965.39,0.02033
1959.61,0.02041
1953.82,0.02031
1948.03,0.02083
1942.25,0.02099
1936.46,0.02055
1930.67,0.02036
1924.89,0.02032
1919.1,0.02060
1913.32,0.02018
1907.53,0.02033
1901.74,0.02023
1895.96,0.02040
1890.17,0.02052
1884.38,0.02023
1878.6,0.02024
1872.81,0.02028
1867.03,0.02070
1861.24,0.02043
1855.45,0.02022
1849.67,0.02006
1843.88,0.02026
1838.09,0.02007
1832.31,0.02036
1826.52,0.02040
1820.74,0.01995
1814.95,0.01959
1809.16,0.01944
1803.38,0.01942
1797.59,0.01947
1791.8,0.01916
1786.02,0.01922
1780.23,0.01874
1774.45,0.01923
1768.66,0.01829
1762.87,0.01803
1757.09,0.01746
1751.3,0.01705
1745.51,0.01720
1739.73,0.01882
1733.94,0.01975
1728.16,0.02015
1722.37,0.02068
1716.58,0.02080
1710.8,0.02054
1705.01,0.02030
1699.22,0.01994
1693.44,0.01900
1687.65,0.01903
1681.87,0.01897
1676.08,0.01881
1670.29,0.01870
1664.51,0.01871
1658.72,0.01834
1652.93,0.01865
1647.15,0.01837
1641.36,0.01841
1635.58,0.01868
1629.79,0.01849
1624,0.01867
1618.22,0.01884
1612.43,0.01896
1606.64,0.01857
1600.86,0.01884
1595.07,0.01935
1589.29,0.01842
1583.5,0.01853
1577.71,0.01846
1571.93,0.01819
1566.14,0.01821
1560.35,0.01821
1554.57,0.01794
1548.78,0.01833
1543,0.01845
1537.21,0.01820
1531.42,0.01834
1525.64,0.01887
1519.85,0.01806
1514.07,0.01826
1508.28,0.01824
1502.49,0.01852
1496.71,0.01855
1490.92,0.01878
1485.13,0.01842
1479.35,0.01880
1473.56,0.01812
1467.78,0.01830
1461.99,0.01839
1456.2,0.01859
1450.42,0.01843
1444.63,0.01856
1438.84,0.01877
1433.06,0.01866
1427.27,0.01857
1421.49,0.01822
1415.7,0.01850
1409.91,0.01793
1404.13,0.01812
1398.34,0.01796
1392.55,0.01800
1386.77,0.01815
1380.98,0.01793
1375.2,0.01812
1369.41,0.01811
1363.62,0.01815
1357.84,0.01823
1352.05,0.01782
1346.26,0.01764
1340.48,0.01784
1334.69,0.01728
1328.91,0.01739
1323.12,0.01719
1317.33,0.01706
1311.55,0.01693
1305.76,0.01687
1299.97,0.01737
1294.19,0.01783
1288.4,0.01817
1282.62,0.01854
1276.83,0.01883
1271.04,0.01915
1265.26,0.01933
1259.47,0.01984
1253.68,0.02031
1247.9,0.01969
1242.11,0.01953
1236.33,0.01984
1230.54,0.01956
1224.75,0.01914
1218.97,0.01904
1213.18,0.01858
1207.39,0.01839
1201.61,0.01815
1195.82,0.01828
1190.04,0.01829
1184.25,0.01753
1178.46,0.01768
1172.68,0.01834
1166.89,0.01737
1161.1,0.01760
1155.32,0.01754
1149.53,0.01722
1143.75,0.01783
1137.96,0.01798
1132.17,0.01831
1126.39,0.01896
1120.6,0.01962
1114.81,0.01890
1109.03,0.01893
1103.24,0.01878
1097.46,0.01830
1091.67,0.01832
1085.88,0.01793
1080.1,0.01881
1074.31,0.01905
1068.52,0.01991
1062.74,0.01984
1056.95,0.01969
1051.17,0.02014
1045.38,0.01977
1039.59,0.01933
1033.81,0.01881
1028.02,0.01851
1022.24,0.01914
1016.45,0.01922
1010.66,0.02027
1004.88,0.02114
999.09,0.02137
993.304,0.02135
987.518,0.02105
981.731,0.02013
975.945,0.02096
970.159,0.02008
964.373,0.02026
958.586,0.02057
952.8,0.01993
947.014,0.01984
941.228,0.01953
935.441,0.01956
929.655,0.01974
923.869,0.01945
918.083,0.01915
912.297,0.01930
906.51,0.01896
900.724,0.01866
894.938,0.01848
889.152,0.01935
883.365,0.01866
877.579,0.01894
871.793,0.01908
866.007,0.01903
860.22,0.01880
854.434,0.01910
848.648,0.01937
842.862,0.01892
837.075,0.01925
831.289,0.01898
825.503,0.02001
819.717,0.01967
813.931,0.01896
808.144,0.01917
802.358,0.01924
796.572,0.01860
790.786,0.01839
784.999,0.01804
779.213,0.01855
773.427,0.01837
767.641,0.01842
761.854,0.01884
756.068,0.01856
750.282,0.01755
744.496,0.01816
738.709,0.01867
732.923,0.01885
727.137,0.01804
721.351,0.01825
715.565,0.01794
709.778,0.01812
703.992,0.01808
698.206,0.01711
692.42,0.01652
686.633,0.01766
680.847,0.01755
675.061,0.01718
669.275,0.01618
663.488,0.01747
657.702,0.01814
651.916,0.01733
646.13,0.01731
640.343,0.01612
634.557,0.01683
628.771,0.01440
622.985,0.01453
617.198,0.01722
611.412,0.01543
605.626,0.01588
599.84,0.01567