File: 01_Data/Hemp_Sheet/FTIR/IS/Hemp_Sheet_IS_S_220909_R4.dpt
7497.03,0.57710
7491.25,0.57925
7485.46,0.57578
7479.67,0.57154
7473.89,0.57283
7468.1,0.56999
7462.32,0.57032
7456.53,0.56486
7450.74,0.56450
7444.96,0.57138
7439.17,0.56873
7433.38,0.56822
7427.6,0.56163
7421.81,0.56365
7416.03,0.57480
7410.24,0.57235
7404.45,0.56741
7398.67,0.56690
7392.88,0.56408
7387.09,0.55819
7381.31,0.56746
7375.52,0.56453
7369.74,0.56098
7363.95,0.55724
7358.16,0.55807
7352.38,0.56230
7346.59,0.55686
7340.8,0.55613
7335.02,0.55493
7329.23,0.55133
7323.45,0.54849
7317.66,0.55861
7311.87,0.55859
7306.09,0.55545
7300.3,0.56711
7294.51,0.55728
7288.73,0.55804
7282.94,0.55458
7277.16,0.55310
7271.37,0.55281
7265.58,0.55061
7259.8,0.55824
7254.01,0.55077
7248.22,0.55294
7242.44,0.55415
7236.65,0.55276
7230.87,0.55624
7225.08,0.55653
7219.29,0.56208
7213.51,0.55746
7207.72,0.55738
7201.93,0.55155
7196.15,0.56059
7190.36,0.55236
7184.58,0.56008
7178.79,0.55553
7173,0.55732
7167.22,0.55865
7161.43,0.55406
7155.65,0.54640
7149.86,0.55176
7144.07,0.55100
7138.29,0.54883
7132.5,0.54848
7126.71,0.54372
7120.93,0.54282
7115.14,0.54467
7109.36,0.54103
7103.57,0.53657
7097.78,0.54480
7092,0.54024
7086.21,0.54169
7080.42,0.53416
7074.64,0.52992
7068.85,0.52807
7063.07,0.53699
7057.28,0.53313
7051.49,0.52694
7045.71,0.52147
7039.92,0.52092
7034.13,0.52225
7028.35,0.51479
7022.56,0.51318
7016.78,0.51217
7010.99,0.50448
7005.2,0.50586
6999.42,0.50449
6993.63,0.50660
6987.84,0.50251
6982.06,0.50502
6976.27,0.50432
6970.49,0.49835
6964.7,0.49032
6958.91,0.49563
6953.13,0.49804
6947.34,0.49669
6941.55,0.49895
6935.77,0.49795
6929.98,0.48865
6924.2,0.49357
6918.41,0.48720
6912.62,0.48960
6906.84,0.49037
6901.05,0.48537
6895.26,0.48817
6889.48,0.48809
6883.69,0.48386
6877.91,0.48794
6872.12,0.48784
6866.33,0.48400
6860.55,0.48376
6854.76,0.48701
6848.97,0.47953
6843.19,0.47682
6837.4,0.48043
6831.62,0.47347
6825.83,0.47940
6820.04,0.47685
6814.26,0.47588
6808.47,0.47629
6802.68,0.47432
6796.9,0.47185
6791.11,0.47207
6785.33,0.47380
6779.54,0.46775
6773.75,0.46378
6767.97,0.46697
6762.18,0.46290
6756.39,0.46931
6750.61,0.46790
6744.82,0.45951
6739.04,0.46652
6733.25,0.46214
6727.46,0.46682
6721.68,0.46181
6715.89,0.46002
6710.1,0.45904
6704.32,0.46253
6698.53,0.46321
6692.75,0.46325
6686.96,0.45648
6681.17,0.46423
6675.39,0.46277
6669.6,0.46522
6663.82,0.46483
6658.03,0.46326
6652.24,0.46010
6646.46,0.46236
6640.67,0.46544
6634.88,0.46704
6629.1,0.47105
6623.31,0.46549
6617.53,0.46970
6611.74,0.46947
6605.95,0.46583
6600.17,0.47113
6594.38,0.47241
6588.59,0.47332
6582.81,0.47279
6577.02,0.47403
6571.24,0.47412
6565.45,0.47387
6559.66,0.47143
6553.88,0.47669
6548.09,0.47756
6542.3,0.47138
6536.52,0.47554
6530.73,0.47385
6524.95,0.47507
6519.16,0.46994
6513.37,0.47054
6507.59,0.47054
6501.8,0.47247
6496.01,0.47435
6490.23,0.47646
6484.44,0.47124
6478.66,0.47197
6472.87,0.47226
6467.08,0.47304
6461.3,0.47063
6455.51,0.47611
6449.72,0.47737
6443.94,0.47347
6438.15,0.47604
6432.37,0.47509
6426.58,0.47310
6420.79,0.47409
6415.01,0.47351
6409.22,0.47641
6403.43,0.47645
6397.65,0.47518
6391.86,0.47416
6386.08,0.47896
6380.29,0.47652
6374.5,0.47613
6368.72,0.47914
6362.93,0.48013
6357.14,0.47970
6351.36,0.48015
6345.57,0.47480
6339.79,0.47586
6334,0.47839
6328.21,0.47881
6322.43,0.48114
6316.64,0.48207
6310.85,0.48146
6305.07,0.48364
6299.28,0.48185
6293.5,0.48262
6287.71,0.48113
6281.92,0.48370
6276.14,0.48534
6270.35,0.48651
6264.56,0.48564
6258.78,0.48998
6252.99,0.49284
6247.21,0.49043
6241.42,0.49073
6235.63,0.49564
6229.85,0.49736
6224.06,0.49957
6218.27,0.50028
6212.49,0.49845
6206.7,0.50052
6200.92,0.50361
6195.13,0.50738
6189.34,0.50514
6183.56,0.50821
6177.77,0.50904
6171.98,0.50931
6166.2,0.51446
6160.41,0.51525
6154.63,0.51216
6148.84,0.51528
6143.05,0.51582
6137.27,0.52075
6131.48,0.52029
6125.7,0.52222
6119.91,0.52303
6114.12,0.51954
6108.34,0.52371
6102.55,0.52347
6096.76,0.52526
6090.98,0.52756
6085.19,0.52640
6079.41,0.52638
6073.62,0.53374
6067.83,0.52940
6062.05,0.52840
6056.26,0.53203
6050.47,0.53351
6044.69,0.53337
6038.9,0.53361
6033.12,0.53620
6027.33,0.53565
6021.54,0.53550
6015.76,0.53803
6009.97,0.53930
6004.18,0.53559
5998.4,0.53942
5992.61,0.53894
5986.83,0.54047
5981.04,0.53939
5975.25,0.54122
5969.47,0.53918
5963.68,0.53938
5957.89,0.53937
5952.11,0.54157
5946.32,0.53995
5940.54,0.53826
5934.75,0.53963
5928.96,0.53752
5923.18,0.53836
5917.39,0.53376
5911.6,0.53647
5905.82,0.53419
5900.03,0.53379
5894.25,0.53477
5888.46,0.53203
5882.67,0.52960
5876.89,0.52983
5871.1,0.52666
5865.31,0.52701
5859.53,0.52615
5853.74,0.52741
5847.96,0.53028
5842.17,0.52746
5836.38,0.52905
5830.6,0.52841
5824.81,0.52905
5819.02,0.52897
5813.24,0.52739
5807.45,0.52767
5801.67,0.52507
5795.88,0.52686
5790.09,0.52547
5784.31,0.52521
5778.52,0.52319
5772.73,0.52372
5766.95,0.52539
5761.16,0.52404
5755.38,0.52511
5749.59,0.52389
5743.8,0.52560
5738.02,0.52289
5732.23,0.52222
5726.44,0.52020
5720.66,0.52253
5714.87,0.52453
5709.09,0.52318
5703.3,0.52174
5697.51,0.52139
5691.73,0.52323
5685.94,0.52196
5680.15,0.52178
5674.37,0.51883
5668.58,0.51799
5662.8,0.51972
5657.01,0.51973
5651.22,0.51827
5645.44,0.51816
5639.65,0.51799
5633.87,0.51804
5628.08,0.51948
5622.29,0.51845
5616.51,0.51880
5610.72,0.51818
5604.93,0.51844
5599.15,0.51714
5593.36,0.51866
5587.58,0.51955
5581.79,0.51925
5576,0.51961
5570.22,0.51964
5564.43,0.52138
5558.64,0.52064
5552.86,0.52061
5547.07,0.51989
5541.29,0.52172
5535.5,0.51991
5529.71,0.52151
5523.93,0.52027
5518.14,0.52109
5512.35,0.51971
5506.57,0.51983
5500.78,0.51934
5495,0.51890
5489.21,0.52200
5483.42,0.51975
5477.64,0.51919
5471.85,0.51919
5466.06,0.51977
5460.28,0.52058
5454.49,0.52233
5448.71,0.52166
5442.92,0.52330
5437.13,0.52339
5431.35,0.52411
5425.56,0.52497
5419.77,0.52514
5413.99,0.52688
5408.2,0.52727
5402.42,0.52883
5396.63,0.52914
5390.84,0.52967
5385.06,0.52891
5379.27,0.53079
5373.48,0.53191
5367.7,0.53053
5361.91,0.53179
5356.13,0.53084
5350.34,0.53027
5344.55,0.52843
5338.77,0.52909
5332.98,0.52969
5327.19,0.52718
5321.41,0.52780
5315.62,0.52603
5309.84,0.52470
5304.05,0.52232
5298.26,0.52064
5292.48,0.51652
5286.69,0.51525
5280.9,0.51240
5275.12,0.50957
5269.33,0.50366
5263.55,0.49869
5257.76,0.49542
5251.97,0.48960
5246.19,0.48494
5240.4,0.48112
5234.61,0.47558
5228.83,0.47230
5223.04,0.46828
5217.26,0.46690
5211.47,0.46419
5205.68,0.46127
5199.9,0.45979
5194.11,0.45967
5188.32,0.45855
5182.54,0.45819
5176.75,0.45892
5170.97,0.45923
5165.18,0.46151
5159.39,0.46002
5153.61,0.46302
5147.82,0.46269
5142.03,0.46430
5136.25,0.46512
5130.46,0.46768
5124.68,0.47080
5118.89,0.47094
5113.1,0.47260
5107.32,0.47409
5101.53,0.47499
5095.75,0.47689
5089.96,0.47936
5084.17,0.48023
5078.39,0.48124
5072.6,0.48380
5066.81,0.48574
5061.03,0.48532
5055.24,0.48699
5049.46,0.48800
5043.67,0.48971
5037.88,0.48955
5032.1,0.49050
5026.31,0.49116
5020.52,0.49183
5014.74,0.49184
5008.95,0.49042
5003.17,0.49116
4997.38,0.49127
4991.59,0.49150
4985.81,0.49001
4980.02,0.48808
4974.23,0.48668
4968.45,0.48550
4962.66,0.48431
4956.88,0.48106
4951.09,0.47745
4945.3,0.47554
4939.52,0.47116
4933.73,0.46709
4927.94,0.46309
4922.16,0.45930
4916.37,0.45413
4910.59,0.44884
4904.8,0.44437
4899.01,0.43849
4893.23,0.43133
4887.44,0.42709
4881.65,0.42268
4875.87,0.41602
4870.08,0.41122
4864.3,0.40598
4858.51,0.40109
4852.72,0.39812
4846.94,0.39359
4841.15,0.38908
4835.36,0.38485
4829.58,0.38088
4823.79,0.37715
4818.01,0.37338
4812.22,0.36882
4806.43,0.36637
4800.65,0.36435
4794.86,0.36304
4789.07,0.36165
4783.29,0.35912
4777.5,0.35775
4771.72,0.35600
4765.93,0.35535
4760.14,0.35410
4754.36,0.35484
4748.57,0.35461
4742.78,0.35509
4737,0.35682
4731.21,0.35835
4725.43,0.35955
4719.64,0.36257
4713.85,0.36312
4708.07,0.36564
4702.28,0.36682
4696.49,0.36987
4690.71,0.37364
4684.92,0.37627
4679.14,0.37752
4673.35,0.37957
4667.56,0.38182
4661.78,0.38448
4655.99,0.38636
4650.2,0.38862
4644.42,0.39085
4638.63,0.39318
4632.85,0.39500
4627.06,0.39815
4621.27,0.39968
4615.49,0.40149
4609.7,0.40361
4603.92,0.40609
4598.13,0.40809
4592.34,0.41034
4586.56,0.41331
4580.77,0.41501
4574.98,0.41705
4569.2,0.41871
4563.41,0.42176
4557.63,0.42412
4551.84,0.42532
4546.05,0.42719
4540.27,0.42904
4534.48,0.43115
4528.69,0.43240
4522.91,0.43383
4517.12,0.43519
4511.34,0.43543
4505.55,0.43595
4499.76,0.43612
4493.98,0.43649
4488.19,0.43584
4482.4,0.43711
4476.62,0.43607
4470.83,0.43543
4465.05,0.43311
4459.26,0.43022
4453.47,0.42524
4447.69,0.42153
4441.9,0.41460
4436.11,0.40732
4430.33,0.40011
4424.54,0.39146
4418.76,0.38398
4412.97,0.37412
4407.18,0.36654
4401.4,0.36299
4395.61,0.36131
4389.82,0.36306
4384.04,0.36613
4378.25,0.36976
4372.47,0.37210
4366.68,0.37300
4360.89,0.37360
4355.11,0.37165
4349.32,0.37052
4343.53,0.36879
4337.75,0.36621
4331.96,0.36349
4326.18,0.36018
4320.39,0.35724
4314.6,0.35458
4308.82,0.35321
4303.03,0.34962
4297.24,0.34689
4291.46,0.34451
4285.67,0.34151
4279.89,0.34035
4274.1,0.33948
4268.31,0.33955
4262.53,0.34072
4256.74,0.34066
4250.95,0.34122
4245.17,0.34221
4239.38,0.34304
4233.6,0.34478
4227.81,0.34488
4222.02,0.34448
4216.24,0.34551
4210.45,0.34669
4204.66,0.34894
4198.88,0.35135
4193.09,0.35259
4187.31,0.35303
4181.52,0.35264
4175.73,0.35310
4169.95,0.35533
4164.16,0.35610
4158.37,0.35630
4152.59,0.35502
4146.8,0.35316
4141.02,0.35224
4135.23,0.35116
4129.44,0.34903
4123.66,0.34539
4117.87,0.34226
4112.09,0.33712
4106.3,0.33282
4100.51,0.32683
4094.73,0.32085
4088.94,0.31437
4083.15,0.30811
4077.37,0.30212
4071.58,0.29672
4065.8,0.29029
4060.01,0.28332
4054.22,0.27610
4048.44,0.26958
4042.65,0.26438
4036.86,0.25855
4031.08,0.25575
4025.29,0.25466
4019.51,0.25440
4013.72,0.25582
4007.93,0.25822
4002.15,0.26032
3996.36,0.26381
3990.57,0.26616
3984.79,0.26847
3979,0.27158
3973.22,0.27347
3967.43,0.27539
3961.64,0.27798
3955.86,0.28035
3950.07,0.28265
3944.28,0.28568
3938.5,0.28847
3932.71,0.29167
3926.93,0.29527
3921.14,0.29739
3915.35,0.30017
3909.57,0.30101
3903.78,0.30403
3897.99,0.30555
3892.21,0.30730
3886.42,0.30945
3880.64,0.31051
3874.85,0.31208
3869.06,0.31440
3863.28,0.31873
3857.49,0.32230
3851.7,0.32489
3845.92,0.32682
3840.13,0.32971
3834.35,0.33160
3828.56,0.33246
3822.77,0.33204
3816.99,0.33265
3811.2,0.33272
3805.41,0.33336
3799.63,0.33311
3793.84,0.33387
3788.06,0.33414
3782.27,0.33358
3776.48,0.33344
3770.7,0.33252
3764.91,0.33198
3759.12,0.33119
3753.34,0.32979
3747.55,0.32842
3741.77,0.32622
3735.98,0.32374
3730.19,0.32069
3724.41,0.31690
3718.62,0.31238
3712.83,0.30792
3707.05,0.30146
3701.26,0.29532
3695.48,0.28772
3689.69,0.27926
3683.9,0.26786
3678.12,0.25661
3672.33,0.24166
3666.54,0.22636
3660.76,0.21183
3654.97,0.19628
3649.19,0.18207
3643.4,0.16722
3637.61,0.15473
3631.83,0.14329
3626.04,0.13054
3620.25,0.12049
3614.47,0.11114
3608.68,0.10077
3602.9,0.09267
3597.11,0.08493
3591.32,0.07850
3585.54,0.07306
3579.75,0.06752
3573.97,0.06324
3568.18,0.05859
3562.39,0.05559
3556.61,0.05169
3550.82,0.04891
3545.03,0.04640
3539.25,0.04429
3533.46,0.04212
3527.68,0.03959
3521.89,0.03820
3516.1,0.03643
3510.32,0.03495
3504.53,0.03377
3498.74,0.03254
3492.96,0.03089
3487.17,0.03058
3481.39,0.03080
3475.6,0.03024
3469.81,0.02908
3464.03,0.02875
3458.24,0.02889
3452.45,0.02836
3446.67,0.02850
3440.88,0.02788
3435.1,0.02776
3429.31,0.02774
3423.52,0.02784
3417.74,0.02864
3411.95,0.02789
3406.16,0.02852
3400.38,0.02786
3394.59,0.02789
3388.81,0.02862
3383.02,0.02841
3377.23,0.02887
3371.45,0.02943
3365.66,0.02974
3359.87,0.02934
3354.09,0.03043
3348.3,0.03158
3342.52,0.03237
3336.73,0.03375
3330.94,0.03443
3325.16,0.03478
3319.37,0.03432
3313.58,0.03453
3307.8,0.03435
3302.01,0.03554
3296.23,0.03516
3290.44,0.03588
3284.65,0.03659
3278.87,0.03679
3273.08,0.03728
3267.29,0.03823
3261.51,0.03942
3255.72,0.04003
3249.94,0.04084
3244.15,0.04168
3238.36,0.04245
3232.58,0.04251
3226.79,0.04402
3221,0.04462
3215.22,0.04596
3209.43,0.04740
3203.65,0.04882
3197.86,0.04988
3192.07,0.05094
3186.29,0.05228
3180.5,0.05480
3174.71,0.05700
3168.93,0.05820
3163.14,0.05961
3157.36,0.06127
3151.57,0.06357
3145.78,0.06554
3140,0.06757
3134.21,0.06987
3128.42,0.07186
3122.64,0.07365
3116.85,0.07537
3111.07,0.07754
3105.28,0.08055
3099.49,0.08312
3093.71,0.08498
3087.92,0.08821
3082.14,0.09061
3076.35,0.09254
3070.56,0.09553
3064.78,0.09792
3058.99,0.10003
3053.2,0.10221
3047.42,0.10386
3041.63,0.10634
3035.85,0.10761
3030.06,0.11009
3024.27,0.11140
3018.49,0.11268
3012.7,0.11389
3006.91,0.11356
3001.13,0.11284
2995.34,0.11030
2989.56,0.10580
2983.77,0.09839
2977.98,0.08722
2972.2,0.07312
2966.41,0.06652
2960.62,0.06511
2954.84,0.06349
2949.05,0.05891
2943.27,0.05672
2937.48,0.05627
2931.69,0.05563
2925.91,0.05325
2920.12,0.05022
2914.33,0.04844
2908.55,0.04689
2902.76,0.04665
2896.98,0.04752
2891.19,0.04911
2885.4,0.05066
2879.62,0.05233
2873.83,0.05289
2868.04,0.05295
2862.26,0.05476
2856.47,0.05618
2850.69,0.05892
2844.9,0.06430
2839.11,0.07035
2833.33,0.07507
2827.54,0.07974
2821.75,0.08397
2815.97,0.08838
2810.18,0.09303
2804.4,0.09715
2798.61,0.10055
2792.82,0.10305
2787.04,0.10473
2781.25,0.10571
2775.46,0.10635
2769.68,0.10677
2763.89,0.10753
2758.11,0.10836
2752.32,0.10859
2746.53,0.10809
2740.75,0.10788
2734.96,0.10806
2729.17,0.10956
2723.39,0.11023
2717.6,0.11195
2711.82,0.11389
2706.03,0.11663
2700.24,0.12011
2694.46,0.12307
2688.67,0.12632
2682.88,0.12954
2677.1,0.13251
2671.31,0.13456
2665.53,0.13590
2659.74,0.13709
2653.95,0.13887
2648.17,0.14140
2642.38,0.14356
2636.59,0.14562
2630.81,0.14779
2625.02,0.15026
2619.24,0.15223
2613.45,0.15395
2607.66,0.15495
2601.88,0.15668
2596.09,0.15851
2590.3,0.15921
2584.52,0.15985
2578.73,0.16065
2572.95,0.16035
2567.16,0.16013
2561.37,0.15888
2555.59,0.15845
2549.8,0.15712
2544.02,0.15675
2538.23,0.15679
2532.44,0.15741
2526.66,0.15820
2520.87,0.15905
2515.08,0.15997
2509.3,0.16287
2503.51,0.16714
2497.73,0.17082
2491.94,0.17398
2486.15,0.17714
2480.37,0.17927
2474.58,0.18195
2468.79,0.18485
2463.01,0.18585
2457.22,0.18746
2451.44,0.18946
2445.65,0.19181
2439.86,0.19463
2434.08,0.19805
2428.29,0.20136
2422.5,0.20479
2416.72,0.20830
2410.93,0.21045
2405.15,0.21278
2399.36,0.21522
2393.57,0.21789
2387.79,0.22026
2382,0.22259
2376.21,0.22571
2370.43,0.22883
2364.64,0.23127
2358.86,0.23333
2353.07,0.23487
2347.28,0.23736
2341.5,0.23982
2335.71,0.24214
2329.92,0.24336
2324.14,0.24499
2318.35,0.24616
2312.57,0.24714
2306.78,0.24718
2300.99,0.24614
2295.21,0.24443
2289.42,0.24333
2283.63,0.24254
2277.85,0.24162
2272.06,0.23906
2266.28,0.23530
2260.49,0.23075
2254.7,0.22774
2248.92,0.22582
2243.13,0.22445
2237.34,0.22383
2231.56,0.22334
2225.77,0.22390
2219.99,0.22592
2214.2,0.22892
2208.41,0.23005
2202.63,0.22986
2196.84,0.22874
2191.05,0.22626
2185.27,0.22245
2179.48,0.21739
2173.7,0.21271
2167.91,0.20741
2162.12,0.20320
2156.34,0.20006
2150.55,0.19782
2144.76,0.19612
2138.98,0.19388
2133.19,0.19323
2127.41,0.19481
2121.62,0.19728
2115.83,0.20032
2110.05,0.20321
2104.26,0.20584
2098.47,0.20837
2092.69,0.21022
2086.9,0.21226
2081.12,0.21321
2075.33,0.21263
2069.54,0.21188
2063.76,0.21137
2057.97,0.21158
2052.19,0.21188
2046.4,0.21224
2040.61,0.21387
2034.83,0.21682
2029.04,0.22166
2023.25,0.22741
2017.47,0.23304
2011.68,0.23771
2005.9,0.24084
2000.11,0.24180
1994.32,0.24394
1988.54,0.24732
1982.75,0.25028
1976.96,0.25202
1971.18,0.25294
1965.39,0.25403
1959.61,0.25523
1953.82,0.25797
1948.03,0.26137
1942.25,0.26585
1936.46,0.26997
1930.67,0.27383
1924.89,0.27616
1919.1,0.27791
1913.32,0.27924
1907.53,0.28058
1901.74,0.28103
1895.96,0.28062
1890.17,0.27976
1884.38,0.27925
1878.6,0.27852
1872.81,0.27778
1867.03,0.27699
1861.24,0.27517
1855.45,0.27272
1849.67,0.26934
1843.88,0.26619
1838.09,0.26329
1832.31,0.26121
1826.52,0.25909
1820.74,0.25631
1814.95,0.25327
1809.16,0.25013
1803.38,0.24617
1797.59,0.24250
1791.8,0.23895
1786.02,0.23530
1780.23,0.23139
1774.45,0.22684
1768.66,0.22122
1762.87,0.21667
1757.09,0.21220
1751.3,0.20760
1745.51,0.20226
1739.73,0.19616
1733.94,0.19109
1728.16,0.18646
1722.37,0.18368
1716.58,0.17978
1710.8,0.17577
1705.01,0.17122
1699.22,0.16539
1693.44,0.15688
1687.65,0.14833
1681.87,0.13749
1676.08,0.12811
1670.29,0.11861
1664.51,0.11097
1658.72,0.10615
1652.93,0.10223
1647.15,0.09962
1641.36,0.09774
1635.58,0.09731
1629.79,0.09756
1624,0.09879
1618.22,0.10100
1612.43,0.10266
1606.64,0.10379
1600.86,0.10549
1595.07,0.10768
1589.29,0.11124
1583.5,0.11559
1577.71,0.12007
1571.93,0.12330
1566.14,0.12582
1560.35,0.12703
1554.57,0.12733
1548.78,0.12705
1543,0.12722
1537.21,0.12603
1531.42,0.12370
1525.64,0.12101
1519.85,0.11583
1514.07,0.10893
1508.28,0.10452
1502.49,0.09960
1496.71,0.09399
1490.92,0.08543
1485.13,0.07205
1479.35,0.06354
1473.56,0.05755
1467.78,0.05067
1461.99,0.04514
1456.2,0.04139
1450.42,0.03992
1444.63,0.03822
1438.84,0.03637
1433.06,0.03429
1427.27,0.03592
1421.49,0.03881
1415.7,0.04289
1409.91,0.04389
1404.13,0.04402
1398.34,0.04373
1392.55,0.04122
1386.77,0.03787
1380.98,0.03356
1375.2,0.03186
1369.41,0.03214
1363.62,0.03321
1357.84,0.03379
1352.05,0.03489
1346.26,0.03465
1340.48,0.03345
1334.69,0.03369
1328.91,0.03417
1323.12,0.03412
1317.33,0.03447
1311.55,0.03707
1305.76,0.03993
1299.97,0.04191
1294.19,0.04164
1288.4,0.03952
1282.62,0.03768
1276.83,0.03961
1271.04,0.04093
1265.26,0.03920
1259.47,0.03984
1253.68,0.04015
1247.9,0.03922
1242.11,0.03884
1236.33,0.03823
1230.54,0.03908
1224.75,0.04034
1218.97,0.03985
1213.18,0.03637
1207.39,0.03113
1201.61,0.02988
1195.82,0.03004
1190.04,0.02981
1184.25,0.02807
1178.46,0.02659
1172.68,0.03162
1166.89,0.04101
1161.1,0.04110
1155.32,0.03553
1149.53,0.03170
1143.75,0.02853
1137.96,0.02459
1132.17,0.02249
1126.39,0.02420
1120.6,0.02731
1114.81,0.03175
1109.03,0.03464
1103.24,0.03290
1097.46,0.03160
1091.67,0.02986
1085.88,0.03108
1080.1,0.03762
1074.31,0.04687
1068.52,0.05679
1062.74,0.06798
1056.95,0.06801
1051.17,0.06025
1045.38,0.05317
1039.59,0.05654
1033.81,0.06302
1028.02,0.06200
1022.24,0.05849
1016.45,0.05793
1010.66,0.05882
1004.88,0.05711
999.09,0.05834
993.304,0.05986
987.518,0.06109
981.731,0.06816
975.945,0.07820
970.159,0.08366
964.373,0.08975
958.586,0.09839
952.8,0.10589
947.014,0.11149
941.228,0.11425
935.441,0.11418
929.655,0.11498
923.869,0.11524
918.083,0.11225
912.297,0.10396
906.51,0.09597
900.724,0.08906
894.938,0.08806
889.152,0.09590
883.365,0.10529
877.579,0.11104
871.793,0.11623
866.007,0.11991
860.22,0.12248
854.434,0.12251
848.648,0.12256
842.862,0.11877
837.075,0.11464
831.289,0.10941
825.503,0.10013
819.717,0.09296
813.931,0.08814
808.144,0.08384
802.358,0.07968
796.572,0.07954
790.786,0.08174
784.999,0.08400
779.213,0.08360
773.427,0.08097
767.641,0.07855
761.854,0.07423
756.068,0.07116
750.282,0.06777
744.496,0.06411
738.709,0.06001
732.923,0.05587
727.137,0.05218
721.351,0.04878
715.565,0.04760
709.778,0.04730
703.992,0.04829
698.206,0.04848
692.42,0.04850
686.633,0.04759
680.847,0.04711
675.061,0.04682
669.275,0.04614
663.488,0.04603
657.702,0.04669
651.916,0.04669
646.13,0.04634
640.343,0.04156
634.557,0.04060
628.771,0.03867
622.985,0.04072
617.198,0.04349
611.412,0.04565
605.626,0.04636
599.84,0.04453