File: 01_Data/Hemp_Sheet/FTIR/IS/Hemp_Sheet_IS_S_220909_R1.dpt
7497.03,0.57133
7491.25,0.58028
7485.46,0.56249
7479.67,0.56786
7473.89,0.57550
7468.1,0.56412
7462.32,0.56877
7456.53,0.56955
7450.74,0.57077
7444.96,0.56627
7439.17,0.57278
7433.38,0.57065
7427.6,0.56957
7421.81,0.57464
7416.03,0.57169
7410.24,0.56097
7404.45,0.56728
7398.67,0.57080
7392.88,0.56863
7387.09,0.56501
7381.31,0.55303
7375.52,0.55484
7369.74,0.55434
7363.95,0.56099
7358.16,0.55777
7352.38,0.56795
7346.59,0.55757
7340.8,0.56773
7335.02,0.55619
7329.23,0.55362
7323.45,0.56069
7317.66,0.55051
7311.87,0.55224
7306.09,0.55961
7300.3,0.55662
7294.51,0.56009
7288.73,0.55636
7282.94,0.56484
7277.16,0.56162
7271.37,0.54939
7265.58,0.55512
7259.8,0.56098
7254.01,0.55807
7248.22,0.55246
7242.44,0.56354
7236.65,0.55146
7230.87,0.55630
7225.08,0.56017
7219.29,0.54888
7213.51,0.55343
7207.72,0.55520
7201.93,0.55297
7196.15,0.55802
7190.36,0.55422
7184.58,0.55618
7178.79,0.55408
7173,0.55881
7167.22,0.54972
7161.43,0.55255
7155.65,0.55211
7149.86,0.54512
7144.07,0.54963
7138.29,0.55070
7132.5,0.55216
7126.71,0.54963
7120.93,0.55224
7115.14,0.54433
7109.36,0.54367
7103.57,0.53503
7097.78,0.54670
7092,0.53767
7086.21,0.53542
7080.42,0.53494
7074.64,0.53075
7068.85,0.52476
7063.07,0.52847
7057.28,0.52639
7051.49,0.52496
7045.71,0.51522
7039.92,0.51613
7034.13,0.52226
7028.35,0.51331
7022.56,0.51243
7016.78,0.50544
7010.99,0.50536
7005.2,0.50467
6999.42,0.50259
6993.63,0.50087
6987.84,0.50479
6982.06,0.50064
6976.27,0.49741
6970.49,0.49413
6964.7,0.49146
6958.91,0.49429
6953.13,0.49389
6947.34,0.48998
6941.55,0.49694
6935.77,0.49381
6929.98,0.48901
6924.2,0.49280
6918.41,0.49011
6912.62,0.49301
6906.84,0.49005
6901.05,0.49082
6895.26,0.48792
6889.48,0.48100
6883.69,0.48085
6877.91,0.48242
6872.12,0.47786
6866.33,0.48457
6860.55,0.48285
6854.76,0.47982
6848.97,0.48339
6843.19,0.48038
6837.4,0.47739
6831.62,0.47157
6825.83,0.47943
6820.04,0.47446
6814.26,0.47275
6808.47,0.46886
6802.68,0.47010
6796.9,0.46731
6791.11,0.46874
6785.33,0.47135
6779.54,0.46925
6773.75,0.46202
6767.97,0.46143
6762.18,0.46599
6756.39,0.46308
6750.61,0.46292
6744.82,0.46202
6739.04,0.45775
6733.25,0.45693
6727.46,0.45618
6721.68,0.46332
6715.89,0.46208
6710.1,0.46350
6704.32,0.46070
6698.53,0.46082
6692.75,0.46131
6686.96,0.46136
6681.17,0.46197
6675.39,0.46172
6669.6,0.45969
6663.82,0.46068
6658.03,0.46098
6652.24,0.46397
6646.46,0.46437
6640.67,0.46544
6634.88,0.46028
6629.1,0.46539
6623.31,0.46586
6617.53,0.46728
6611.74,0.46770
6605.95,0.46844
6600.17,0.46733
6594.38,0.47115
6588.59,0.47103
6582.81,0.47035
6577.02,0.47131
6571.24,0.47210
6565.45,0.47313
6559.66,0.47173
6553.88,0.46887
6548.09,0.47152
6542.3,0.47761
6536.52,0.47124
6530.73,0.47245
6524.95,0.47210
6519.16,0.46856
6513.37,0.46959
6507.59,0.47113
6501.8,0.46860
6496.01,0.47124
6490.23,0.47087
6484.44,0.47003
6478.66,0.46936
6472.87,0.47092
6467.08,0.47131
6461.3,0.47310
6455.51,0.46991
6449.72,0.46971
6443.94,0.47087
6438.15,0.47388
6432.37,0.47446
6426.58,0.47452
6420.79,0.47377
6415.01,0.47350
6409.22,0.47325
6403.43,0.47567
6397.65,0.47350
6391.86,0.47639
6386.08,0.47538
6380.29,0.47664
6374.5,0.47403
6368.72,0.48033
6362.93,0.47654
6357.14,0.47796
6351.36,0.47998
6345.57,0.47691
6339.79,0.47621
6334,0.48193
6328.21,0.48022
6322.43,0.47915
6316.64,0.48188
6310.85,0.48122
6305.07,0.48053
6299.28,0.48078
6293.5,0.47890
6287.71,0.48251
6281.92,0.48123
6276.14,0.48635
6270.35,0.48382
6264.56,0.48713
6258.78,0.48430
6252.99,0.48459
6247.21,0.48866
6241.42,0.48961
6235.63,0.49698
6229.85,0.49303
6224.06,0.49596
6218.27,0.49647
6212.49,0.50066
6206.7,0.50081
6200.92,0.50357
6195.13,0.50413
6189.34,0.50280
6183.56,0.50540
6177.77,0.50699
6171.98,0.50887
6166.2,0.50963
6160.41,0.51126
6154.63,0.51427
6148.84,0.51476
6143.05,0.51711
6137.27,0.51676
6131.48,0.51729
6125.7,0.52286
6119.91,0.51681
6114.12,0.52043
6108.34,0.52396
6102.55,0.52359
6096.76,0.52641
6090.98,0.52794
6085.19,0.52729
6079.41,0.52527
6073.62,0.52818
6067.83,0.52682
6062.05,0.52591
6056.26,0.52800
6050.47,0.53291
6044.69,0.52995
6038.9,0.53253
6033.12,0.53375
6027.33,0.53523
6021.54,0.53261
6015.76,0.53671
6009.97,0.53467
6004.18,0.53613
5998.4,0.53431
5992.61,0.53657
5986.83,0.53794
5981.04,0.53779
5975.25,0.53786
5969.47,0.53674
5963.68,0.54237
5957.89,0.53920
5952.11,0.53693
5946.32,0.53705
5940.54,0.53991
5934.75,0.53629
5928.96,0.53569
5923.18,0.53351
5917.39,0.53417
5911.6,0.53431
5905.82,0.53617
5900.03,0.53497
5894.25,0.53527
5888.46,0.53172
5882.67,0.53225
5876.89,0.52738
5871.1,0.52375
5865.31,0.52681
5859.53,0.52617
5853.74,0.52548
5847.96,0.52502
5842.17,0.52658
5836.38,0.52842
5830.6,0.52667
5824.81,0.52841
5819.02,0.52823
5813.24,0.52859
5807.45,0.52463
5801.67,0.52444
5795.88,0.52452
5790.09,0.52564
5784.31,0.52377
5778.52,0.52231
5772.73,0.52320
5766.95,0.52453
5761.16,0.52361
5755.38,0.52386
5749.59,0.52234
5743.8,0.52355
5738.02,0.52129
5732.23,0.52237
5726.44,0.52277
5720.66,0.52289
5714.87,0.52039
5709.09,0.52129
5703.3,0.51973
5697.51,0.52067
5691.73,0.52014
5685.94,0.51840
5680.15,0.51816
5674.37,0.51755
5668.58,0.51752
5662.8,0.51835
5657.01,0.51928
5651.22,0.51696
5645.44,0.51663
5639.65,0.51725
5633.87,0.51787
5628.08,0.51518
5622.29,0.51753
5616.51,0.51671
5610.72,0.51602
5604.93,0.51760
5599.15,0.51815
5593.36,0.51716
5587.58,0.51849
5581.79,0.51749
5576,0.51971
5570.22,0.51831
5564.43,0.51919
5558.64,0.51845
5552.86,0.51934
5547.07,0.51863
5541.29,0.51847
5535.5,0.51898
5529.71,0.51969
5523.93,0.51920
5518.14,0.51949
5512.35,0.51839
5506.57,0.51976
5500.78,0.51859
5495,0.51814
5489.21,0.51885
5483.42,0.51862
5477.64,0.51933
5471.85,0.52008
5466.06,0.51793
5460.28,0.51972
5454.49,0.52125
5448.71,0.52317
5442.92,0.52294
5437.13,0.52291
5431.35,0.52326
5425.56,0.52511
5419.77,0.52311
5413.99,0.52684
5408.2,0.52685
5402.42,0.52866
5396.63,0.52948
5390.84,0.52821
5385.06,0.52843
5379.27,0.52822
5373.48,0.52781
5367.7,0.52811
5361.91,0.52998
5356.13,0.52944
5350.34,0.52823
5344.55,0.52925
5338.77,0.52728
5332.98,0.52497
5327.19,0.52581
5321.41,0.52393
5315.62,0.52111
5309.84,0.51915
5304.05,0.51667
5298.26,0.51533
5292.48,0.51099
5286.69,0.50800
5280.9,0.50349
5275.12,0.49922
5269.33,0.49300
5263.55,0.48778
5257.76,0.48148
5251.97,0.47582
5246.19,0.46960
5240.4,0.46412
5234.61,0.45881
5228.83,0.45466
5223.04,0.45216
5217.26,0.44755
5211.47,0.44443
5205.68,0.44268
5199.9,0.44017
5194.11,0.43846
5188.32,0.43734
5182.54,0.43747
5176.75,0.43755
5170.97,0.43767
5165.18,0.43912
5159.39,0.43971
5153.61,0.44013
5147.82,0.44278
5142.03,0.44486
5136.25,0.44506
5130.46,0.44751
5124.68,0.44920
5118.89,0.45199
5113.1,0.45383
5107.32,0.45466
5101.53,0.45713
5095.75,0.45887
5089.96,0.46056
5084.17,0.46271
5078.39,0.46473
5072.6,0.46512
5066.81,0.46847
5061.03,0.46979
5055.24,0.47111
5049.46,0.47286
5043.67,0.47345
5037.88,0.47543
5032.1,0.47595
5026.31,0.47764
5020.52,0.47796
5014.74,0.47942
5008.95,0.48031
5003.17,0.48007
4997.38,0.48016
4991.59,0.47843
4985.81,0.47977
4980.02,0.47928
4974.23,0.47817
4968.45,0.47754
4962.66,0.47637
4956.88,0.47416
4951.09,0.47164
4945.3,0.46900
4939.52,0.46526
4933.73,0.46307
4927.94,0.45806
4922.16,0.45575
4916.37,0.45219
4910.59,0.44596
4904.8,0.44203
4899.01,0.43549
4893.23,0.43132
4887.44,0.42629
4881.65,0.42029
4875.87,0.41486
4870.08,0.40999
4864.3,0.40564
4858.51,0.40097
4852.72,0.39738
4846.94,0.39377
4841.15,0.38925
4835.36,0.38439
4829.58,0.38010
4823.79,0.37668
4818.01,0.37173
4812.22,0.36891
4806.43,0.36585
4800.65,0.36428
4794.86,0.36184
4789.07,0.36183
4783.29,0.35997
4777.5,0.35690
4771.72,0.35711
4765.93,0.35501
4760.14,0.35352
4754.36,0.35465
4748.57,0.35484
4742.78,0.35419
4737,0.35653
4731.21,0.35726
4725.43,0.35922
4719.64,0.36034
4713.85,0.36209
4708.07,0.36450
4702.28,0.36675
4696.49,0.36837
4690.71,0.37160
4684.92,0.37359
4679.14,0.37738
4673.35,0.37867
4667.56,0.38149
4661.78,0.38423
4655.99,0.38556
4650.2,0.38837
4644.42,0.38945
4638.63,0.39200
4632.85,0.39373
4627.06,0.39596
4621.27,0.39758
4615.49,0.40051
4609.7,0.40139
4603.92,0.40464
4598.13,0.40637
4592.34,0.40859
4586.56,0.41105
4580.77,0.41292
4574.98,0.41531
4569.2,0.41838
4563.41,0.42008
4557.63,0.42232
4551.84,0.42426
4546.05,0.42629
4540.27,0.42819
4534.48,0.42936
4528.69,0.43102
4522.91,0.43150
4517.12,0.43314
4511.34,0.43463
4505.55,0.43513
4499.76,0.43536
4493.98,0.43651
4488.19,0.43608
4482.4,0.43560
4476.62,0.43555
4470.83,0.43391
4465.05,0.43169
4459.26,0.42921
4453.47,0.42512
4447.69,0.42009
4441.9,0.41415
4436.11,0.40713
4430.33,0.39876
4424.54,0.39095
4418.76,0.38178
4412.97,0.37445
4407.18,0.36597
4401.4,0.36103
4395.61,0.35957
4389.82,0.36304
4384.04,0.36595
4378.25,0.36839
4372.47,0.37169
4366.68,0.37346
4360.89,0.37329
4355.11,0.37168
4349.32,0.37029
4343.53,0.36840
4337.75,0.36663
4331.96,0.36360
4326.18,0.35938
4320.39,0.35624
4314.6,0.35453
4308.82,0.35140
4303.03,0.34919
4297.24,0.34715
4291.46,0.34362
4285.67,0.34100
4279.89,0.33922
4274.1,0.33867
4268.31,0.33829
4262.53,0.33928
4256.74,0.34074
4250.95,0.34019
4245.17,0.34048
4239.38,0.34155
4233.6,0.34336
4227.81,0.34426
4222.02,0.34440
4216.24,0.34408
4210.45,0.34523
4204.66,0.34726
4198.88,0.35023
4193.09,0.35075
4187.31,0.35098
4181.52,0.35108
4175.73,0.35154
4169.95,0.35329
4164.16,0.35408
4158.37,0.35421
4152.59,0.35316
4146.8,0.35134
4141.02,0.34984
4135.23,0.34853
4129.44,0.34658
4123.66,0.34348
4117.87,0.33998
4112.09,0.33583
4106.3,0.33012
4100.51,0.32411
4094.73,0.31692
4088.94,0.31197
4083.15,0.30574
4077.37,0.30079
4071.58,0.29523
4065.8,0.28843
4060.01,0.28176
4054.22,0.27471
4048.44,0.26785
4042.65,0.26182
4036.86,0.25827
4031.08,0.25439
4025.29,0.25231
4019.51,0.25277
4013.72,0.25473
4007.93,0.25644
4002.15,0.25937
3996.36,0.26190
3990.57,0.26508
3984.79,0.26812
3979,0.26958
3973.22,0.27176
3967.43,0.27328
3961.64,0.27589
3955.86,0.27797
3950.07,0.28123
3944.28,0.28340
3938.5,0.28635
3932.71,0.28996
3926.93,0.29257
3921.14,0.29538
3915.35,0.29693
3909.57,0.29834
3903.78,0.30142
3897.99,0.30306
3892.21,0.30551
3886.42,0.30712
3880.64,0.30821
3874.85,0.30876
3869.06,0.31187
3863.28,0.31571
3857.49,0.31767
3851.7,0.32255
3845.92,0.32354
3840.13,0.32689
3834.35,0.32838
3828.56,0.32873
3822.77,0.32940
3816.99,0.32858
3811.2,0.32722
3805.41,0.32764
3799.63,0.32849
3793.84,0.32762
3788.06,0.32700
3782.27,0.32727
3776.48,0.32612
3770.7,0.32553
3764.91,0.32503
3759.12,0.32298
3753.34,0.32315
3747.55,0.32185
3741.77,0.31803
3735.98,0.31566
3730.19,0.31158
3724.41,0.30718
3718.62,0.30213
3712.83,0.29747
3707.05,0.29024
3701.26,0.28270
3695.48,0.27417
3689.69,0.26487
3683.9,0.25213
3678.12,0.23987
3672.33,0.22497
3666.54,0.20795
3660.76,0.19207
3654.97,0.17703
3649.19,0.16244
3643.4,0.14733
3637.61,0.13617
3631.83,0.12453
3626.04,0.11383
3620.25,0.10496
3614.47,0.09654
3608.68,0.08878
3602.9,0.08155
3597.11,0.07486
3591.32,0.07056
3585.54,0.06502
3579.75,0.06104
3573.97,0.05789
3568.18,0.05437
3562.39,0.05111
3556.61,0.04870
3550.82,0.04577
3545.03,0.04385
3539.25,0.04188
3533.46,0.03962
3527.68,0.03767
3521.89,0.03690
3516.1,0.03547
3510.32,0.03464
3504.53,0.03349
3498.74,0.03208
3492.96,0.03156
3487.17,0.03074
3481.39,0.02982
3475.6,0.02904
3469.81,0.02909
3464.03,0.02879
3458.24,0.02745
3452.45,0.02813
3446.67,0.02823
3440.88,0.02780
3435.1,0.02793
3429.31,0.02828
3423.52,0.02812
3417.74,0.02826
3411.95,0.02780
3406.16,0.02775
3400.38,0.02805
3394.59,0.02861
3388.81,0.02834
3383.02,0.02925
3377.23,0.02953
3371.45,0.02940
3365.66,0.02940
3359.87,0.02936
3354.09,0.02959
3348.3,0.03117
3342.52,0.03217
3336.73,0.03322
3330.94,0.03393
3325.16,0.03456
3319.37,0.03481
3313.58,0.03442
3307.8,0.03475
3302.01,0.03548
3296.23,0.03583
3290.44,0.03526
3284.65,0.03614
3278.87,0.03673
3273.08,0.03780
3267.29,0.03786
3261.51,0.03969
3255.72,0.03989
3249.94,0.03942
3244.15,0.04080
3238.36,0.04098
3232.58,0.04221
3226.79,0.04274
3221,0.04360
3215.22,0.04528
3209.43,0.04663
3203.65,0.04729
3197.86,0.04778
3192.07,0.04914
3186.29,0.05048
3180.5,0.05201
3174.71,0.05338
3168.93,0.05432
3163.14,0.05579
3157.36,0.05790
3151.57,0.05926
3145.78,0.06105
3140,0.06298
3134.21,0.06488
3128.42,0.06657
3122.64,0.06869
3116.85,0.07074
3111.07,0.07263
3105.28,0.07482
3099.49,0.07757
3093.71,0.07926
3087.92,0.08178
3082.14,0.08371
3076.35,0.08599
3070.56,0.08828
3064.78,0.09038
3058.99,0.09275
3053.2,0.09510
3047.42,0.09701
3041.63,0.09876
3035.85,0.10111
3030.06,0.10279
3024.27,0.10383
3018.49,0.10600
3012.7,0.10694
3006.91,0.10721
3001.13,0.10689
2995.34,0.10479
2989.56,0.10089
2983.77,0.09476
2977.98,0.08434
2972.2,0.07159
2966.41,0.06483
2960.62,0.06447
2954.84,0.06306
2949.05,0.05930
2943.27,0.05659
2937.48,0.05633
2931.69,0.05547
2925.91,0.05302
2920.12,0.05068
2914.33,0.04838
2908.55,0.04705
2902.76,0.04656
2896.98,0.04712
2891.19,0.04936
2885.4,0.05061
2879.62,0.05198
2873.83,0.05225
2868.04,0.05317
2862.26,0.05438
2856.47,0.05569
2850.69,0.05832
2844.9,0.06378
2839.11,0.06951
2833.33,0.07427
2827.54,0.07903
2821.75,0.08330
2815.97,0.08736
2810.18,0.09201
2804.4,0.09593
2798.61,0.09943
2792.82,0.10182
2787.04,0.10351
2781.25,0.10428
2775.46,0.10425
2769.68,0.10519
2763.89,0.10604
2758.11,0.10660
2752.32,0.10723
2746.53,0.10719
2740.75,0.10634
2734.96,0.10691
2729.17,0.10790
2723.39,0.10892
2717.6,0.11012
2711.82,0.11239
2706.03,0.11549
2700.24,0.11840
2694.46,0.12193
2688.67,0.12514
2682.88,0.12786
2677.1,0.13063
2671.31,0.13319
2665.53,0.13469
2659.74,0.13615
2653.95,0.13771
2648.17,0.13984
2642.38,0.14214
2636.59,0.14443
2630.81,0.14643
2625.02,0.14916
2619.24,0.15126
2613.45,0.15280
2607.66,0.15386
2601.88,0.15614
2596.09,0.15718
2590.3,0.15823
2584.52,0.15874
2578.73,0.15941
2572.95,0.15952
2567.16,0.15858
2561.37,0.15749
2555.59,0.15692
2549.8,0.15634
2544.02,0.15518
2538.23,0.15515
2532.44,0.15581
2526.66,0.15715
2520.87,0.15803
2515.08,0.15864
2509.3,0.16164
2503.51,0.16595
2497.73,0.16942
2491.94,0.17307
2486.15,0.17580
2480.37,0.17810
2474.58,0.18076
2468.79,0.18320
2463.01,0.18516
2457.22,0.18602
2451.44,0.18785
2445.65,0.19063
2439.86,0.19326
2434.08,0.19610
2428.29,0.19949
2422.5,0.20321
2416.72,0.20611
2410.93,0.20867
2405.15,0.21040
2399.36,0.21302
2393.57,0.21541
2387.79,0.21782
2382,0.22038
2376.21,0.22320
2370.43,0.22673
2364.64,0.22922
2358.86,0.23071
2353.07,0.23202
2347.28,0.23387
2341.5,0.23709
2335.71,0.23879
2329.92,0.24014
2324.14,0.24110
2318.35,0.24203
2312.57,0.24274
2306.78,0.24252
2300.99,0.24152
2295.21,0.23963
2289.42,0.23865
2283.63,0.23770
2277.85,0.23610
2272.06,0.23441
2266.28,0.22975
2260.49,0.22571
2254.7,0.22231
2248.92,0.22062
2243.13,0.21942
2237.34,0.21850
2231.56,0.21775
2225.77,0.21835
2219.99,0.22001
2214.2,0.22230
2208.41,0.22328
2202.63,0.22332
2196.84,0.22172
2191.05,0.21965
2185.27,0.21599
2179.48,0.21135
2173.7,0.20648
2167.91,0.20144
2162.12,0.19702
2156.34,0.19414
2150.55,0.19183
2144.76,0.18995
2138.98,0.18798
2133.19,0.18716
2127.41,0.18881
2121.62,0.19166
2115.83,0.19425
2110.05,0.19686
2104.26,0.19940
2098.47,0.20170
2092.69,0.20325
2086.9,0.20524
2081.12,0.20606
2075.33,0.20583
2069.54,0.20472
2063.76,0.20521
2057.97,0.20540
2052.19,0.20546
2046.4,0.20580
2040.61,0.20724
2034.83,0.21048
2029.04,0.21516
2023.25,0.22099
2017.47,0.22658
2011.68,0.23098
2005.9,0.23352
2000.11,0.23498
1994.32,0.23724
1988.54,0.24031
1982.75,0.24348
1976.96,0.24488
1971.18,0.24609
1965.39,0.24700
1959.61,0.24845
1953.82,0.25105
1948.03,0.25469
1942.25,0.25913
1936.46,0.26319
1930.67,0.26617
1924.89,0.26857
1919.1,0.27078
1913.32,0.27192
1907.53,0.27322
1901.74,0.27337
1895.96,0.27331
1890.17,0.27266
1884.38,0.27180
1878.6,0.27056
1872.81,0.27044
1867.03,0.26940
1861.24,0.26739
1855.45,0.26504
1849.67,0.26273
1843.88,0.25933
1838.09,0.25583
1832.31,0.25392
1826.52,0.25197
1820.74,0.24880
1814.95,0.24639
1809.16,0.24268
1803.38,0.23936
1797.59,0.23550
1791.8,0.23273
1786.02,0.22826
1780.23,0.22442
1774.45,0.22011
1768.66,0.21446
1762.87,0.20959
1757.09,0.20525
1751.3,0.20092
1745.51,0.19498
1739.73,0.18868
1733.94,0.18360
1728.16,0.17788
1722.37,0.17441
1716.58,0.17063
1710.8,0.16468
1705.01,0.15915
1699.22,0.15252
1693.44,0.14283
1687.65,0.13420
1681.87,0.12331
1676.08,0.11420
1670.29,0.10560
1664.51,0.09836
1658.72,0.09318
1652.93,0.09088
1647.15,0.08856
1641.36,0.08679
1635.58,0.08733
1629.79,0.08858
1624,0.09108
1618.22,0.09313
1612.43,0.09578
1606.64,0.09751
1600.86,0.09945
1595.07,0.10222
1589.29,0.10550
1583.5,0.10984
1577.71,0.11448
1571.93,0.11787
1566.14,0.12009
1560.35,0.12215
1554.57,0.12235
1548.78,0.12211
1543,0.12297
1537.21,0.12184
1531.42,0.11897
1525.64,0.11689
1519.85,0.11252
1514.07,0.10622
1508.28,0.10228
1502.49,0.09732
1496.71,0.09244
1490.92,0.08389
1485.13,0.07061
1479.35,0.06215
1473.56,0.05733
1467.78,0.05028
1461.99,0.04517
1456.2,0.04184
1450.42,0.03979
1444.63,0.03818
1438.84,0.03633
1433.06,0.03428
1427.27,0.03590
1421.49,0.03889
1415.7,0.04293
1409.91,0.04416
1404.13,0.04411
1398.34,0.04408
1392.55,0.04217
1386.77,0.03787
1380.98,0.03338
1375.2,0.03164
1369.41,0.03221
1363.62,0.03295
1357.84,0.03393
1352.05,0.03523
1346.26,0.03495
1340.48,0.03401
1334.69,0.03372
1328.91,0.03462
1323.12,0.03382
1317.33,0.03449
1311.55,0.03681
1305.76,0.03983
1299.97,0.04218
1294.19,0.04181
1288.4,0.03950
1282.62,0.03760
1276.83,0.03960
1271.04,0.04114
1265.26,0.03978
1259.47,0.03970
1253.68,0.04070
1247.9,0.03958
1242.11,0.03951
1236.33,0.03875
1230.54,0.03981
1224.75,0.04128
1218.97,0.04119
1213.18,0.03681
1207.39,0.03116
1201.61,0.03014
1195.82,0.03084
1190.04,0.03032
1184.25,0.02758
1178.46,0.02645
1172.68,0.03146
1166.89,0.04075
1161.1,0.04077
1155.32,0.03557
1149.53,0.03141
1143.75,0.02845
1137.96,0.02484
1132.17,0.02241
1126.39,0.02344
1120.6,0.02721
1114.81,0.03194
1109.03,0.03484
1103.24,0.03380
1097.46,0.03224
1091.67,0.03006
1085.88,0.03057
1080.1,0.03794
1074.31,0.04717
1068.52,0.05652
1062.74,0.06819
1056.95,0.06740
1051.17,0.06052
1045.38,0.05255
1039.59,0.05543
1033.81,0.06380
1028.02,0.06164
1022.24,0.05889
1016.45,0.05815
1010.66,0.05843
1004.88,0.05649
999.09,0.05811
993.304,0.06019
987.518,0.06183
981.731,0.06820
975.945,0.07787
970.159,0.08371
964.373,0.09030
958.586,0.09753
952.8,0.10533
947.014,0.11009
941.228,0.11276
935.441,0.11213
929.655,0.11241
923.869,0.11374
918.083,0.11008
912.297,0.10173
906.51,0.09322
900.724,0.08672
894.938,0.08607
889.152,0.09316
883.365,0.10199
877.579,0.10753
871.793,0.11141
866.007,0.11393
860.22,0.11558
854.434,0.11549
848.648,0.11316
842.862,0.11007
837.075,0.10708
831.289,0.10208
825.503,0.09408
819.717,0.08747
813.931,0.08258
808.144,0.07728
802.358,0.07454
796.572,0.07410
790.786,0.07653
784.999,0.07843
779.213,0.07709
773.427,0.07615
767.641,0.07281
761.854,0.06941
756.068,0.06584
750.282,0.06239
744.496,0.05990
738.709,0.05658
732.923,0.05334
727.137,0.04964
721.351,0.04668
715.565,0.04495
709.778,0.04619
703.992,0.04594
698.206,0.04649
692.42,0.04665
686.633,0.04557
680.847,0.04590
675.061,0.04533
669.275,0.04559
663.488,0.04417
657.702,0.04515
651.916,0.04488
646.13,0.04382
640.343,0.04234
634.557,0.03922
628.771,0.04005
622.985,0.03896
617.198,0.04212
611.412,0.04340
605.626,0.04497
599.84,0.04511