File: 01_Data/Hemp_Sheet/FTIR/IS/Hemp_Sheet_IS_S_220909_R2.dpt
7497.03,0.57613
7491.25,0.57604
7485.46,0.57757
7479.67,0.57871
7473.89,0.58478
7468.1,0.56800
7462.32,0.56113
7456.53,0.56496
7450.74,0.57424
7444.96,0.57571
7439.17,0.56982
7433.38,0.57031
7427.6,0.57193
7421.81,0.57551
7416.03,0.56966
7410.24,0.57083
7404.45,0.56677
7398.67,0.56313
7392.88,0.56517
7387.09,0.56305
7381.31,0.57006
7375.52,0.56449
7369.74,0.55823
7363.95,0.56743
7358.16,0.56586
7352.38,0.56430
7346.59,0.55601
7340.8,0.55933
7335.02,0.55730
7329.23,0.56265
7323.45,0.55190
7317.66,0.55455
7311.87,0.56135
7306.09,0.56062
7300.3,0.55554
7294.51,0.55592
7288.73,0.55424
7282.94,0.56047
7277.16,0.55512
7271.37,0.56111
7265.58,0.55266
7259.8,0.56556
7254.01,0.56000
7248.22,0.55302
7242.44,0.54937
7236.65,0.55251
7230.87,0.55879
7225.08,0.56371
7219.29,0.55492
7213.51,0.55556
7207.72,0.56379
7201.93,0.55864
7196.15,0.56284
7190.36,0.55966
7184.58,0.55602
7178.79,0.55206
7173,0.55290
7167.22,0.55735
7161.43,0.54623
7155.65,0.55485
7149.86,0.54917
7144.07,0.55006
7138.29,0.55303
7132.5,0.55239
7126.71,0.54667
7120.93,0.54887
7115.14,0.55147
7109.36,0.54399
7103.57,0.54979
7097.78,0.54094
7092,0.54120
7086.21,0.53819
7080.42,0.53390
7074.64,0.53326
7068.85,0.52843
7063.07,0.52796
7057.28,0.52530
7051.49,0.52726
7045.71,0.52596
7039.92,0.52655
7034.13,0.52056
7028.35,0.51765
7022.56,0.51226
7016.78,0.51106
7010.99,0.50785
7005.2,0.50866
6999.42,0.50104
6993.63,0.50109
6987.84,0.50477
6982.06,0.50124
6976.27,0.49817
6970.49,0.50237
6964.7,0.50114
6958.91,0.50172
6953.13,0.49719
6947.34,0.49604
6941.55,0.49843
6935.77,0.48961
6929.98,0.49430
6924.2,0.49304
6918.41,0.48996
6912.62,0.49153
6906.84,0.48587
6901.05,0.48516
6895.26,0.49310
6889.48,0.48876
6883.69,0.48817
6877.91,0.48739
6872.12,0.48931
6866.33,0.48019
6860.55,0.47805
6854.76,0.47547
6848.97,0.48427
6843.19,0.47748
6837.4,0.47708
6831.62,0.47266
6825.83,0.47840
6820.04,0.47320
6814.26,0.47624
6808.47,0.47314
6802.68,0.47566
6796.9,0.47234
6791.11,0.47182
6785.33,0.46929
6779.54,0.46788
6773.75,0.46525
6767.97,0.46549
6762.18,0.46796
6756.39,0.46248
6750.61,0.46216
6744.82,0.46030
6739.04,0.46175
6733.25,0.45948
6727.46,0.46148
6721.68,0.45994
6715.89,0.45834
6710.1,0.46280
6704.32,0.46452
6698.53,0.46370
6692.75,0.46354
6686.96,0.46183
6681.17,0.45539
6675.39,0.46275
6669.6,0.46171
6663.82,0.46426
6658.03,0.46396
6652.24,0.46422
6646.46,0.46441
6640.67,0.46681
6634.88,0.46418
6629.1,0.46865
6623.31,0.46614
6617.53,0.46761
6611.74,0.46605
6605.95,0.46992
6600.17,0.47504
6594.38,0.46847
6588.59,0.47125
6582.81,0.47231
6577.02,0.47390
6571.24,0.47519
6565.45,0.47234
6559.66,0.47303
6553.88,0.47463
6548.09,0.47087
6542.3,0.47505
6536.52,0.47198
6530.73,0.47174
6524.95,0.47030
6519.16,0.47158
6513.37,0.47746
6507.59,0.47514
6501.8,0.47238
6496.01,0.47360
6490.23,0.47168
6484.44,0.46840
6478.66,0.46892
6472.87,0.46653
6467.08,0.47202
6461.3,0.47015
6455.51,0.47566
6449.72,0.47205
6443.94,0.47124
6438.15,0.47216
6432.37,0.47245
6426.58,0.47687
6420.79,0.47652
6415.01,0.47358
6409.22,0.47407
6403.43,0.47801
6397.65,0.47762
6391.86,0.47693
6386.08,0.47769
6380.29,0.47607
6374.5,0.47763
6368.72,0.47870
6362.93,0.47976
6357.14,0.47715
6351.36,0.48033
6345.57,0.48064
6339.79,0.47817
6334,0.47974
6328.21,0.47662
6322.43,0.48243
6316.64,0.48129
6310.85,0.48367
6305.07,0.48190
6299.28,0.48330
6293.5,0.48178
6287.71,0.48145
6281.92,0.48218
6276.14,0.48291
6270.35,0.48441
6264.56,0.48855
6258.78,0.48816
6252.99,0.48898
6247.21,0.49331
6241.42,0.49056
6235.63,0.49233
6229.85,0.49738
6224.06,0.49814
6218.27,0.50050
6212.49,0.50318
6206.7,0.50218
6200.92,0.50329
6195.13,0.50378
6189.34,0.50446
6183.56,0.50515
6177.77,0.50494
6171.98,0.50966
6166.2,0.50951
6160.41,0.51471
6154.63,0.51684
6148.84,0.51361
6143.05,0.51852
6137.27,0.51791
6131.48,0.52138
6125.7,0.52030
6119.91,0.52009
6114.12,0.51895
6108.34,0.52587
6102.55,0.52745
6096.76,0.52726
6090.98,0.52425
6085.19,0.52852
6079.41,0.52611
6073.62,0.52468
6067.83,0.52756
6062.05,0.53081
6056.26,0.53079
6050.47,0.53107
6044.69,0.53191
6038.9,0.53535
6033.12,0.53344
6027.33,0.53428
6021.54,0.53290
6015.76,0.53651
6009.97,0.53712
6004.18,0.53703
5998.4,0.53525
5992.61,0.53549
5986.83,0.54093
5981.04,0.54013
5975.25,0.53782
5969.47,0.53942
5963.68,0.53860
5957.89,0.54098
5952.11,0.53955
5946.32,0.54030
5940.54,0.53946
5934.75,0.53884
5928.96,0.53918
5923.18,0.53648
5917.39,0.53569
5911.6,0.53538
5905.82,0.53442
5900.03,0.53347
5894.25,0.53169
5888.46,0.53152
5882.67,0.52861
5876.89,0.53010
5871.1,0.52620
5865.31,0.52220
5859.53,0.52652
5853.74,0.52827
5847.96,0.52842
5842.17,0.52697
5836.38,0.52810
5830.6,0.52687
5824.81,0.52689
5819.02,0.52628
5813.24,0.52735
5807.45,0.52612
5801.67,0.52561
5795.88,0.52296
5790.09,0.52257
5784.31,0.52343
5778.52,0.52306
5772.73,0.52371
5766.95,0.52353
5761.16,0.52518
5755.38,0.52317
5749.59,0.52220
5743.8,0.52342
5738.02,0.52284
5732.23,0.52180
5726.44,0.52204
5720.66,0.52246
5714.87,0.52113
5709.09,0.52209
5703.3,0.52052
5697.51,0.52099
5691.73,0.51959
5685.94,0.51940
5680.15,0.52102
5674.37,0.51821
5668.58,0.51843
5662.8,0.51786
5657.01,0.51825
5651.22,0.51862
5645.44,0.51902
5639.65,0.51837
5633.87,0.51848
5628.08,0.51614
5622.29,0.51744
5616.51,0.51765
5610.72,0.51756
5604.93,0.51831
5599.15,0.51619
5593.36,0.51928
5587.58,0.51737
5581.79,0.51878
5576,0.51905
5570.22,0.52056
5564.43,0.51937
5558.64,0.52058
5552.86,0.52030
5547.07,0.51767
5541.29,0.51819
5535.5,0.52024
5529.71,0.51815
5523.93,0.51856
5518.14,0.51965
5512.35,0.51865
5506.57,0.51927
5500.78,0.52054
5495,0.51963
5489.21,0.51820
5483.42,0.51956
5477.64,0.51933
5471.85,0.51865
5466.06,0.52094
5460.28,0.52048
5454.49,0.52228
5448.71,0.52201
5442.92,0.52297
5437.13,0.52333
5431.35,0.52385
5425.56,0.52542
5419.77,0.52690
5413.99,0.52586
5408.2,0.52706
5402.42,0.52807
5396.63,0.52788
5390.84,0.52833
5385.06,0.53020
5379.27,0.53038
5373.48,0.52843
5367.7,0.52922
5361.91,0.52938
5356.13,0.52932
5350.34,0.52945
5344.55,0.52949
5338.77,0.52736
5332.98,0.52678
5327.19,0.52757
5321.41,0.52538
5315.62,0.52526
5309.84,0.52218
5304.05,0.52004
5298.26,0.51905
5292.48,0.51517
5286.69,0.51305
5280.9,0.50795
5275.12,0.50418
5269.33,0.49921
5263.55,0.49438
5257.76,0.48987
5251.97,0.48534
5246.19,0.47783
5240.4,0.47289
5234.61,0.46892
5228.83,0.46454
5223.04,0.46108
5217.26,0.45841
5211.47,0.45650
5205.68,0.45347
5199.9,0.45111
5194.11,0.45096
5188.32,0.45121
5182.54,0.44902
5176.75,0.44916
5170.97,0.45098
5165.18,0.45231
5159.39,0.45279
5153.61,0.45344
5147.82,0.45512
5142.03,0.45628
5136.25,0.45734
5130.46,0.45840
5124.68,0.46095
5118.89,0.46319
5113.1,0.46565
5107.32,0.46560
5101.53,0.46678
5095.75,0.46944
5089.96,0.47073
5084.17,0.47382
5078.39,0.47411
5072.6,0.47475
5066.81,0.47747
5061.03,0.47971
5055.24,0.48025
5049.46,0.48203
5043.67,0.48226
5037.88,0.48308
5032.1,0.48420
5026.31,0.48500
5020.52,0.48590
5014.74,0.48614
5008.95,0.48643
5003.17,0.48723
4997.38,0.48730
4991.59,0.48586
4985.81,0.48554
4980.02,0.48493
4974.23,0.48395
4968.45,0.48222
4962.66,0.48084
4956.88,0.47645
4951.09,0.47550
4945.3,0.47232
4939.52,0.46847
4933.73,0.46594
4927.94,0.46113
4922.16,0.45813
4916.37,0.45382
4910.59,0.44701
4904.8,0.44266
4899.01,0.43644
4893.23,0.43312
4887.44,0.42741
4881.65,0.42135
4875.87,0.41579
4870.08,0.40985
4864.3,0.40566
4858.51,0.40114
4852.72,0.39747
4846.94,0.39354
4841.15,0.38942
4835.36,0.38574
4829.58,0.38140
4823.79,0.37687
4818.01,0.37301
4812.22,0.36900
4806.43,0.36662
4800.65,0.36532
4794.86,0.36264
4789.07,0.36071
4783.29,0.35943
4777.5,0.35823
4771.72,0.35628
4765.93,0.35515
4760.14,0.35532
4754.36,0.35454
4748.57,0.35467
4742.78,0.35474
4737,0.35578
4731.21,0.35752
4725.43,0.35920
4719.64,0.36060
4713.85,0.36246
4708.07,0.36447
4702.28,0.36701
4696.49,0.36928
4690.71,0.37198
4684.92,0.37507
4679.14,0.37744
4673.35,0.37948
4667.56,0.38221
4661.78,0.38468
4655.99,0.38634
4650.2,0.38855
4644.42,0.39118
4638.63,0.39336
4632.85,0.39504
4627.06,0.39644
4621.27,0.39820
4615.49,0.40144
4609.7,0.40279
4603.92,0.40502
4598.13,0.40760
4592.34,0.41036
4586.56,0.41230
4580.77,0.41403
4574.98,0.41645
4569.2,0.41826
4563.41,0.42135
4557.63,0.42405
4551.84,0.42540
4546.05,0.42676
4540.27,0.42870
4534.48,0.43041
4528.69,0.43226
4522.91,0.43271
4517.12,0.43405
4511.34,0.43455
4505.55,0.43477
4499.76,0.43535
4493.98,0.43623
4488.19,0.43585
4482.4,0.43609
4476.62,0.43487
4470.83,0.43448
4465.05,0.43240
4459.26,0.42970
4453.47,0.42579
4447.69,0.42051
4441.9,0.41411
4436.11,0.40683
4430.33,0.39913
4424.54,0.39080
4418.76,0.38232
4412.97,0.37397
4407.18,0.36671
4401.4,0.36138
4395.61,0.36040
4389.82,0.36241
4384.04,0.36498
4378.25,0.36875
4372.47,0.37142
4366.68,0.37282
4360.89,0.37325
4355.11,0.37176
4349.32,0.36997
4343.53,0.36883
4337.75,0.36647
4331.96,0.36360
4326.18,0.36013
4320.39,0.35652
4314.6,0.35416
4308.82,0.35182
4303.03,0.34980
4297.24,0.34673
4291.46,0.34453
4285.67,0.34175
4279.89,0.34016
4274.1,0.33921
4268.31,0.33923
4262.53,0.33978
4256.74,0.34029
4250.95,0.34078
4245.17,0.34199
4239.38,0.34253
4233.6,0.34387
4227.81,0.34453
4222.02,0.34544
4216.24,0.34470
4210.45,0.34608
4204.66,0.34834
4198.88,0.34996
4193.09,0.35116
4187.31,0.35137
4181.52,0.35172
4175.73,0.35237
4169.95,0.35259
4164.16,0.35499
4158.37,0.35520
4152.59,0.35362
4146.8,0.35175
4141.02,0.35133
4135.23,0.34986
4129.44,0.34834
4123.66,0.34530
4117.87,0.34099
4112.09,0.33659
4106.3,0.33118
4100.51,0.32518
4094.73,0.31847
4088.94,0.31321
4083.15,0.30723
4077.37,0.30188
4071.58,0.29594
4065.8,0.28921
4060.01,0.28231
4054.22,0.27584
4048.44,0.26891
4042.65,0.26291
4036.86,0.25888
4031.08,0.25488
4025.29,0.25438
4019.51,0.25289
4013.72,0.25532
4007.93,0.25749
4002.15,0.25962
3996.36,0.26317
3990.57,0.26562
3984.79,0.26858
3979,0.27101
3973.22,0.27293
3967.43,0.27465
3961.64,0.27704
3955.86,0.27964
3950.07,0.28190
3944.28,0.28489
3938.5,0.28816
3932.71,0.29084
3926.93,0.29385
3921.14,0.29626
3915.35,0.29815
3909.57,0.30022
3903.78,0.30183
3897.99,0.30373
3892.21,0.30604
3886.42,0.30790
3880.64,0.30904
3874.85,0.31004
3869.06,0.31350
3863.28,0.31642
3857.49,0.32024
3851.7,0.32367
3845.92,0.32613
3840.13,0.32864
3834.35,0.32949
3828.56,0.32990
3822.77,0.33047
3816.99,0.32992
3811.2,0.32969
3805.41,0.33043
3799.63,0.33085
3793.84,0.33063
3788.06,0.33060
3782.27,0.33081
3776.48,0.32964
3770.7,0.32908
3764.91,0.32866
3759.12,0.32748
3753.34,0.32588
3747.55,0.32520
3741.77,0.32274
3735.98,0.32003
3730.19,0.31688
3724.41,0.31291
3718.62,0.30842
3712.83,0.30349
3707.05,0.29697
3701.26,0.28964
3695.48,0.28169
3689.69,0.27317
3683.9,0.26163
3678.12,0.24960
3672.33,0.23461
3666.54,0.21874
3660.76,0.20313
3654.97,0.18791
3649.19,0.17321
3643.4,0.15893
3637.61,0.14660
3631.83,0.13536
3626.04,0.12354
3620.25,0.11368
3614.47,0.10441
3608.68,0.09601
3602.9,0.08811
3597.11,0.08088
3591.32,0.07504
3585.54,0.07001
3579.75,0.06546
3573.97,0.06110
3568.18,0.05790
3562.39,0.05341
3556.61,0.05107
3550.82,0.04812
3545.03,0.04534
3539.25,0.04364
3533.46,0.04059
3527.68,0.03926
3521.89,0.03792
3516.1,0.03635
3510.32,0.03486
3504.53,0.03301
3498.74,0.03243
3492.96,0.03179
3487.17,0.03100
3481.39,0.02985
3475.6,0.02986
3469.81,0.02904
3464.03,0.02892
3458.24,0.02888
3452.45,0.02776
3446.67,0.02780
3440.88,0.02780
3435.1,0.02833
3429.31,0.02888
3423.52,0.02807
3417.74,0.02840
3411.95,0.02827
3406.16,0.02860
3400.38,0.02851
3394.59,0.02819
3388.81,0.02862
3383.02,0.02880
3377.23,0.02899
3371.45,0.02945
3365.66,0.02988
3359.87,0.03014
3354.09,0.02985
3348.3,0.03147
3342.52,0.03290
3336.73,0.03396
3330.94,0.03490
3325.16,0.03474
3319.37,0.03503
3313.58,0.03460
3307.8,0.03472
3302.01,0.03508
3296.23,0.03497
3290.44,0.03536
3284.65,0.03637
3278.87,0.03693
3273.08,0.03731
3267.29,0.03783
3261.51,0.03921
3255.72,0.03994
3249.94,0.04097
3244.15,0.04122
3238.36,0.04228
3232.58,0.04226
3226.79,0.04415
3221,0.04509
3215.22,0.04564
3209.43,0.04683
3203.65,0.04842
3197.86,0.04862
3192.07,0.05036
3186.29,0.05219
3180.5,0.05371
3174.71,0.05547
3168.93,0.05641
3163.14,0.05830
3157.36,0.05965
3151.57,0.06186
3145.78,0.06363
3140,0.06552
3134.21,0.06753
3128.42,0.06990
3122.64,0.07193
3116.85,0.07425
3111.07,0.07644
3105.28,0.07844
3099.49,0.08108
3093.71,0.08330
3087.92,0.08596
3082.14,0.08792
3076.35,0.09007
3070.56,0.09236
3064.78,0.09519
3058.99,0.09746
3053.2,0.09915
3047.42,0.10147
3041.63,0.10334
3035.85,0.10562
3030.06,0.10677
3024.27,0.10835
3018.49,0.11038
3012.7,0.11081
3006.91,0.11099
3001.13,0.11027
2995.34,0.10804
2989.56,0.10370
2983.77,0.09678
2977.98,0.08603
2972.2,0.07303
2966.41,0.06569
2960.62,0.06512
2954.84,0.06307
2949.05,0.05912
2943.27,0.05674
2937.48,0.05607
2931.69,0.05530
2925.91,0.05297
2920.12,0.05031
2914.33,0.04781
2908.55,0.04659
2902.76,0.04667
2896.98,0.04763
2891.19,0.04920
2885.4,0.05137
2879.62,0.05224
2873.83,0.05234
2868.04,0.05289
2862.26,0.05408
2856.47,0.05606
2850.69,0.05862
2844.9,0.06403
2839.11,0.06999
2833.33,0.07509
2827.54,0.07926
2821.75,0.08362
2815.97,0.08833
2810.18,0.09266
2804.4,0.09664
2798.61,0.09964
2792.82,0.10252
2787.04,0.10422
2781.25,0.10513
2775.46,0.10553
2769.68,0.10613
2763.89,0.10681
2758.11,0.10809
2752.32,0.10802
2746.53,0.10759
2740.75,0.10709
2734.96,0.10760
2729.17,0.10860
2723.39,0.10990
2717.6,0.11094
2711.82,0.11325
2706.03,0.11615
2700.24,0.11979
2694.46,0.12231
2688.67,0.12588
2682.88,0.12929
2677.1,0.13206
2671.31,0.13404
2665.53,0.13523
2659.74,0.13648
2653.95,0.13800
2648.17,0.14047
2642.38,0.14323
2636.59,0.14568
2630.81,0.14733
2625.02,0.14927
2619.24,0.15126
2613.45,0.15305
2607.66,0.15451
2601.88,0.15631
2596.09,0.15777
2590.3,0.15867
2584.52,0.15919
2578.73,0.15976
2572.95,0.15990
2567.16,0.15944
2561.37,0.15829
2555.59,0.15780
2549.8,0.15707
2544.02,0.15581
2538.23,0.15607
2532.44,0.15679
2526.66,0.15779
2520.87,0.15853
2515.08,0.15973
2509.3,0.16233
2503.51,0.16623
2497.73,0.16986
2491.94,0.17347
2486.15,0.17658
2480.37,0.17908
2474.58,0.18134
2468.79,0.18421
2463.01,0.18563
2457.22,0.18664
2451.44,0.18914
2445.65,0.19132
2439.86,0.19404
2434.08,0.19734
2428.29,0.20045
2422.5,0.20418
2416.72,0.20675
2410.93,0.20946
2405.15,0.21140
2399.36,0.21414
2393.57,0.21714
2387.79,0.21925
2382,0.22163
2376.21,0.22421
2370.43,0.22788
2364.64,0.22998
2358.86,0.23153
2353.07,0.23358
2347.28,0.23583
2341.5,0.23855
2335.71,0.24029
2329.92,0.24186
2324.14,0.24315
2318.35,0.24473
2312.57,0.24534
2306.78,0.24551
2300.99,0.24430
2295.21,0.24267
2289.42,0.24189
2283.63,0.24120
2277.85,0.23967
2272.06,0.23690
2266.28,0.23292
2260.49,0.22858
2254.7,0.22571
2248.92,0.22375
2243.13,0.22242
2237.34,0.22131
2231.56,0.22084
2225.77,0.22133
2219.99,0.22376
2214.2,0.22580
2208.41,0.22761
2202.63,0.22742
2196.84,0.22571
2191.05,0.22335
2185.27,0.21958
2179.48,0.21517
2173.7,0.21007
2167.91,0.20494
2162.12,0.20075
2156.34,0.19776
2150.55,0.19535
2144.76,0.19356
2138.98,0.19134
2133.19,0.19078
2127.41,0.19245
2121.62,0.19482
2115.83,0.19772
2110.05,0.20068
2104.26,0.20323
2098.47,0.20559
2092.69,0.20748
2086.9,0.20945
2081.12,0.21024
2075.33,0.20998
2069.54,0.20884
2063.76,0.20899
2057.97,0.20878
2052.19,0.20909
2046.4,0.20963
2040.61,0.21099
2034.83,0.21454
2029.04,0.21931
2023.25,0.22470
2017.47,0.22999
2011.68,0.23502
2005.9,0.23795
2000.11,0.23920
1994.32,0.24105
1988.54,0.24443
1982.75,0.24738
1976.96,0.24900
1971.18,0.24981
1965.39,0.25098
1959.61,0.25270
1953.82,0.25533
1948.03,0.25865
1942.25,0.26334
1936.46,0.26748
1930.67,0.27085
1924.89,0.27316
1919.1,0.27480
1913.32,0.27649
1907.53,0.27742
1901.74,0.27782
1895.96,0.27739
1890.17,0.27679
1884.38,0.27619
1878.6,0.27530
1872.81,0.27446
1867.03,0.27324
1861.24,0.27214
1855.45,0.26977
1849.67,0.26668
1843.88,0.26330
1838.09,0.26020
1832.31,0.25818
1826.52,0.25598
1820.74,0.25323
1814.95,0.25074
1809.16,0.24712
1803.38,0.24334
1797.59,0.23975
1791.8,0.23593
1786.02,0.23245
1780.23,0.22826
1774.45,0.22380
1768.66,0.21855
1762.87,0.21378
1757.09,0.20939
1751.3,0.20468
1745.51,0.19936
1739.73,0.19325
1733.94,0.18782
1728.16,0.18310
1722.37,0.17947
1716.58,0.17590
1710.8,0.17132
1705.01,0.16652
1699.22,0.15978
1693.44,0.15120
1687.65,0.14254
1681.87,0.13158
1676.08,0.12270
1670.29,0.11287
1664.51,0.10581
1658.72,0.10032
1652.93,0.09773
1647.15,0.09493
1641.36,0.09306
1635.58,0.09289
1629.79,0.09343
1624,0.09512
1618.22,0.09796
1612.43,0.09991
1606.64,0.10101
1600.86,0.10328
1595.07,0.10588
1589.29,0.10933
1583.5,0.11317
1577.71,0.11762
1571.93,0.12125
1566.14,0.12342
1560.35,0.12473
1554.57,0.12487
1548.78,0.12517
1543,0.12530
1537.21,0.12406
1531.42,0.12240
1525.64,0.11916
1519.85,0.11432
1514.07,0.10792
1508.28,0.10331
1502.49,0.09845
1496.71,0.09313
1490.92,0.08482
1485.13,0.07139
1479.35,0.06257
1473.56,0.05728
1467.78,0.05055
1461.99,0.04536
1456.2,0.04179
1450.42,0.03943
1444.63,0.03819
1438.84,0.03639
1433.06,0.03404
1427.27,0.03594
1421.49,0.03935
1415.7,0.04238
1409.91,0.04395
1404.13,0.04394
1398.34,0.04360
1392.55,0.04182
1386.77,0.03788
1380.98,0.03361
1375.2,0.03168
1369.41,0.03221
1363.62,0.03298
1357.84,0.03349
1352.05,0.03470
1346.26,0.03478
1340.48,0.03387
1334.69,0.03387
1328.91,0.03471
1323.12,0.03404
1317.33,0.03466
1311.55,0.03718
1305.76,0.04008
1299.97,0.04220
1294.19,0.04151
1288.4,0.03964
1282.62,0.03762
1276.83,0.03953
1271.04,0.04086
1265.26,0.03907
1259.47,0.03912
1253.68,0.03992
1247.9,0.03903
1242.11,0.03926
1236.33,0.03831
1230.54,0.03974
1224.75,0.04048
1218.97,0.04062
1213.18,0.03702
1207.39,0.03141
1201.61,0.02993
1195.82,0.03002
1190.04,0.03000
1184.25,0.02779
1178.46,0.02643
1172.68,0.03184
1166.89,0.04051
1161.1,0.04022
1155.32,0.03562
1149.53,0.03155
1143.75,0.02816
1137.96,0.02446
1132.17,0.02191
1126.39,0.02350
1120.6,0.02672
1114.81,0.03187
1109.03,0.03483
1103.24,0.03370
1097.46,0.03147
1091.67,0.02994
1085.88,0.03137
1080.1,0.03779
1074.31,0.04689
1068.52,0.05624
1062.74,0.06837
1056.95,0.06788
1051.17,0.05997
1045.38,0.05255
1039.59,0.05611
1033.81,0.06359
1028.02,0.06171
1022.24,0.05881
1016.45,0.05855
1010.66,0.05837
1004.88,0.05690
999.09,0.05798
993.304,0.06052
987.518,0.06213
981.731,0.06905
975.945,0.07832
970.159,0.08379
964.373,0.09056
958.586,0.09830
952.8,0.10553
947.014,0.11126
941.228,0.11293
935.441,0.11364
929.655,0.11436
923.869,0.11490
918.083,0.11093
912.297,0.10303
906.51,0.09499
900.724,0.08804
894.938,0.08748
889.152,0.09560
883.365,0.10392
877.579,0.10913
871.793,0.11439
866.007,0.11838
860.22,0.11970
854.434,0.12001
848.648,0.11864
842.862,0.11521
837.075,0.11111
831.289,0.10570
825.503,0.09846
819.717,0.09103
813.931,0.08536
808.144,0.08064
802.358,0.07768
796.572,0.07760
790.786,0.08010
784.999,0.08248
779.213,0.08154
773.427,0.07985
767.641,0.07658
761.854,0.07229
756.068,0.06964
750.282,0.06584
744.496,0.06266
738.709,0.05806
732.923,0.05535
727.137,0.05073
721.351,0.04815
715.565,0.04772
709.778,0.04691
703.992,0.04748
698.206,0.04843
692.42,0.04789
686.633,0.04737
680.847,0.04623
675.061,0.04471
669.275,0.04627
663.488,0.04614
657.702,0.04721
651.916,0.04585
646.13,0.04348
640.343,0.04160
634.557,0.03916
628.771,0.03899
622.985,0.04068
617.198,0.04247
611.412,0.04369
605.626,0.04522
599.84,0.04579