File: 01_Data/Nylon/Cone/Deprecated/Nylon_Cone_HF25Scan_220225_R1.csv
Names,Time,Stack TC,Smoke TC,Exh Press,Smoke Comp,Smoke Meas,CO Meter,CO2 Meter,O2 Meter,Sample Mass,Ext Coeff,Start Test,Flame Verif
Chan Gain,,500,500,1,1,1,1,1,1,1,1,1.0,1.0
Offset,,0,0,0.136092,0,0,0,0,0,0,0,0.0,0.0
Gain,,1,1,25.011,15.4219,15.1528,1,1,1,1.00089,1.02113,1.0,1.0
Units,sec,C,C,Pa,%,%,%,%,%,g,/m,,
Baseline,,22.3126,23.2988,161.704,114.278,113.99,-0.00909365,0.0965153,20.82,0.0125528,0.0225785,,
25,6,19.5927,20.2847,160.149,116.471,116.383,-0.00936088,0.101861,20.8131,908.044,0.00674587,0.0,0.0
50,12.25,20.3718,20.7449,162.18,116.482,116.17,-0.00943893,0.100237,20.8128,908.034,0.0240356,0.0,0.0
75,18.5,20.1636,20.8492,166.257,116.467,116.491,-0.0094323,0.0986625,20.8135,908.074,-0.00186882,0.0,0.0
100,24.75,20.708,21.1795,163.113,116.401,116.315,-0.00962735,0.0975536,20.814,908.014,0.00665624,0.0,0.0
125,31,20.504,21.2363,163.186,116.335,116.179,-0.00944101,0.0971865,20.8153,908.004,0.0119523,0.0,0.0
150,37.25,20.6039,21.3513,162.639,116.282,115.952,-0.0097532,0.0977906,20.8155,907.974,0.0254146,0.0,0.0
175,43.5,20.2406,21.678,163.695,116.188,116.156,-0.00970278,0.097942,20.8147,908.004,0.00245771,0.0,0.0
200,49.75,21.0133,21.8362,158.253,116.151,115.719,-0.00912126,0.0982606,20.812,907.954,0.0333893,0.0,0.0
225,56,21.3367,21.908,161.023,116.066,115.79,-0.00941678,0.09875,20.8082,907.954,0.0213069,0.0,0.0
250,62.25,21.0924,22.4333,158.184,116.007,115.877,-0.0095507,0.0990728,20.8078,907.954,0.0100785,0.0,0.0
275,68.5,21.6287,21.9105,159.633,115.953,115.791,-0.00949814,0.0988011,20.8059,907.964,0.0125857,0.0,0.0
300,74.75,21.9734,22.4293,163.33,115.922,115.973,-0.00931017,0.0974507,20.8113,907.954,-0.0038972,0.0,0.0
325,81,22.0326,22.8443,160.448,115.866,115.992,-0.00941894,0.0966799,20.8135,907.954,-0.00969006,0.0,0.0
350,87.25,21.9405,23.0232,159.732,115.823,115.612,-0.00959095,0.0966602,20.817,907.934,0.0163286,0.0,0.0
375,93.5,21.5809,22.9104,162.832,115.792,115.516,-0.00949225,0.0965067,20.8191,907.894,0.0213814,0.0,0.0
400,99.75,22.7669,23.2603,160.195,115.741,115.718,-0.00956534,0.0962999,20.8175,907.874,0.00175634,0.0,0.0
425,106,21.8239,23.2639,159.194,115.722,115.188,-0.00927169,0.0965597,20.8172,907.834,0.0414866,0.0,0.0
450,112.25,21.8928,23.493,163.028,115.708,115.351,-0.00932809,0.0974446,20.8147,907.834,0.0276727,0.0,0.0
475,118.5,22.4276,23.5022,164.617,115.646,115.122,-0.00944723,0.0982739,20.8129,907.784,0.0406905,0.0,0.0
500,124.75,22.8632,23.5351,160.673,115.61,115.192,-0.00935464,0.0985778,20.8123,907.764,0.0324159,0.0,0.0
525,131,22.5636,23.8362,161.619,115.78,115.405,-0.00946214,0.0987005,20.81,907.754,0.0290096,0.0,0.0
550,137.25,22.7281,23.4212,160.639,115.907,115.177,-0.00959199,0.0985525,20.8131,907.734,0.0566184,0.0,0.0
575,143.5,22.8745,23.796,160.055,116.03,114.995,-0.00977133,0.0979878,20.8145,907.744,0.0802498,0.0,0.0
600,149.75,22.7239,23.6379,159.759,116.157,114.842,-0.00943825,0.0974159,20.8167,907.664,0.101986,0.0,0.0
625,156,23.3311,23.5868,161.996,116.228,114.839,-0.00916259,0.0966415,20.8174,907.634,0.10768,0.0,0.0
650,162.25,23.458,24.3336,162.15,116.265,115.124,-0.0093066,0.0970867,20.8157,907.614,0.0883905,0.0,0.0
675,168.5,22.9703,24.1412,159.836,116.297,115.173,-0.00957355,0.0976718,20.8131,907.594,0.0870424,0.0,0.0
700,174.75,22.838,24.384,159.992,116.316,115.523,-0.00971812,0.0984381,20.8084,907.564,0.0613091,0.0,0.0
725,181,23.3732,24.4349,159.737,116.356,115.193,-0.00919002,0.100721,20.8045,907.554,0.0899901,0.0,0.0
750,187.25,23.3674,24.6542,159.924,116.389,115.539,-0.00936824,0.100966,20.806,907.504,0.0656339,0.0,0.0
775,193.5,22.9955,24.4264,161.867,116.393,115.244,-0.00982038,0.0996722,20.8106,907.474,0.088898,0.0,0.0
800,199.75,23.6274,24.9214,155.197,116.412,114.904,-0.00948055,0.0991903,20.8138,907.434,0.116802,0.0,0.0
825,206,23.5535,24.9369,157.197,116.395,115.35,-0.00949404,0.0974866,20.8156,907.424,0.08078,0.0,0.0
850,212.25,23.2104,24.6743,162.657,116.327,115.193,-0.00967338,0.0966463,20.816,907.414,0.0877794,0.0,0.0
875,218.5,23.5148,24.345,161.241,116.284,115.583,-0.00943415,0.0968834,20.8137,907.374,0.054149,0.0,0.0
900,224.75,23.5425,24.7822,161.418,116.214,115.431,-0.00951113,0.0983581,20.8106,907.354,0.0605424,0.0,0.0
925,231,23.7361,24.3273,158.283,116.1,115.419,-0.00959377,0.100564,20.8077,907.334,0.0527298,0.0,0.0
950,237.25,24.1498,25.0354,162.611,115.975,114.745,-0.00964425,0.101867,20.8044,907.334,0.0955424,0.0,0.0
975,243.5,23.3855,25.1121,157.962,115.833,115.204,-0.00965097,0.10057,20.8072,907.324,0.0487482,0.0,0.0
1000,249.75,23.6889,24.9482,156.715,115.622,114.898,-0.00956934,0.0995256,20.81,907.304,0.0562629,0.0,0.0
1025,256,23.3227,24.1999,159.968,115.584,114.897,-0.00956873,0.0994038,20.8091,907.284,0.0533805,0.0,0.0
1050,262.25,23.7134,24.9484,159.951,115.627,114.899,-0.0098975,0.0985975,20.8137,907.223,0.0565186,0.0,0.0
1075,268.5,23.6145,24.564,164.338,115.655,114.879,-0.00975535,0.0983199,20.8151,907.193,0.0603652,0.0,0.0
1100,274.75,23.4876,24.9056,162.556,115.696,115.036,-0.00929888,0.0981392,20.8157,907.193,0.0512478,0.0,0.0
1125,281,23.7088,25.3245,159.34,115.74,115.215,-0.00934658,0.0985522,20.8164,907.193,0.0407128,0.0,0.0
1150,287.25,23.6693,25.0812,160.065,115.78,114.764,-0.00926862,0.098611,20.8161,907.153,0.078893,0.0,0.0
1175,293.5,23.8241,25.8638,160.83,115.841,115.255,-0.00951834,0.0990008,20.8159,907.093,0.045413,0.0,0.0
1200,299.75,24.0731,25.6112,164.392,115.88,115.515,-0.00968951,0.0983691,20.8166,907.103,0.0282592,0.0,0.0
1225,306,24.3506,25.3901,162.546,115.906,115.207,-0.010055,0.0976972,20.8165,907.113,0.0541362,0.0,0.0
1250,312.25,23.6585,25.8417,159.117,115.947,115.126,-0.00958222,0.0978016,20.8156,907.073,0.0635942,0.0,0.0
1275,318.5,24.0077,24.9751,157.334,115.968,115.218,-0.00949082,0.097974,20.8131,907.063,0.058109,0.0,0.0
1300,324.75,24.219,26.0377,160.335,115.975,115.63,-0.0098615,0.0985305,20.813,907.023,0.0266794,0.0,0.0
1325,331,23.7601,25.2987,160.716,115.984,115.525,-0.00940296,0.0989514,20.8111,907.003,0.0355784,0.0,0.0
1350,337.25,23.6404,25.6442,162.486,115.983,115.883,-0.00969328,0.0998561,20.8071,907.003,0.00772531,0.0,0.0
1375,343.5,23.8953,25.7629,159.835,115.954,115.328,-0.00958171,0.101395,20.8028,907.033,0.0484668,0.0,0.0
1400,349.75,24.1627,25.1269,158.82,115.927,115.571,-0.00946978,0.102919,20.802,907.013,0.0274853,0.0,0.0
1425,356,24.6042,25.0983,157.912,115.912,115.348,-0.00956785,0.100254,20.8079,906.983,0.0436854,0.0,0.0
1450,362.25,24.4339,25.422,158.904,115.846,115.514,-0.00962585,0.0982928,20.813,906.963,0.0257106,0.0,0.0
1475,368.5,24.4037,25.6424,161.297,115.809,115.588,-0.00963904,0.0972833,20.8181,906.953,0.0171355,0.0,0.0
1500,374.75,24.2715,25.0376,158.162,115.742,115.487,-0.0095301,0.0970203,20.8194,906.933,0.0197451,0.0,0.0
1525,381,23.9229,25.8188,159.65,115.678,115.284,-0.00960084,0.0973191,20.8178,906.923,0.0306208,0.0,0.0
1550,387.25,24.1647,25.4234,164.921,115.627,115.273,-0.00933336,0.0970082,20.819,906.913,0.0274736,0.0,0.0
1575,393.5,24.3488,25.574,158.905,115.53,115.207,-0.00928626,0.0975955,20.8146,906.893,0.0250643,0.0,0.0
1600,399.75,24.3586,25.7951,158.635,115.436,115.104,-0.00929546,0.0980267,20.8122,906.883,0.0257479,0.0,0.0
1625,406,24.3779,25.5198,156.995,115.351,114.871,-0.00929883,0.0997921,20.8088,906.883,0.0374,0.0,0.0
1650,412.25,24.344,25.8469,162.012,115.274,114.968,-0.00959846,0.10189,20.8064,906.893,0.023763,0.0,0.0
1675,418.5,25.0468,25.7354,160.601,115.147,114.953,-0.00980174,0.100915,20.8053,906.873,0.0151092,0.0,0.0
1700,424.75,24.7712,25.6246,163.905,115.059,114.812,-0.0097899,0.09961,20.8076,906.853,0.0192933,0.0,0.0
1725,431,24.5057,25.7639,161.761,114.942,114.408,-0.00965619,0.0999573,20.8102,906.853,0.0416811,0.0,0.0
1750,437.25,24.8397,26.0326,157.431,114.807,114.372,-0.00958978,0.100449,20.8116,906.843,0.0340095,0.0,0.0
1775,443.5,24.6948,26.3587,162.269,114.673,114.691,-0.00956483,0.099829,20.8115,906.813,-0.00145284,0.0,0.0
1800,449.75,24.4925,25.6856,161.273,114.534,114.048,-0.00940979,0.0992059,20.8142,906.813,0.0381103,0.0,0.0
1825,456,24.886,26.2238,159.478,114.398,114.207,-0.00956362,0.0980629,20.815,906.803,0.0149813,0.0,0.0
1850,462.25,24.8571,26.3942,159.304,114.308,113.56,-0.00946196,0.0983207,20.8131,906.803,0.058824,0.0,0.0
1875,468.5,24.6566,26.052,163.492,114.223,113.735,-0.0094988,0.0992276,20.8108,906.783,0.0383325,0.0,0.0
1900,474.75,24.6985,25.9912,161.48,114.088,113.81,-0.00947894,0.0998516,20.8084,906.793,0.0218363,0.0,0.0
1925,481,24.2699,26.1696,164.011,113.991,113.208,-0.00939748,0.0994451,20.8118,906.773,0.0617333,0.0,0.0
1950,487.25,24.6962,26.1112,160.139,113.917,113.317,-0.00951678,0.0985399,20.8159,906.793,0.0472943,0.0,0.0
1975,493.5,24.8259,26.3524,160.359,113.886,113.378,-0.00946622,0.0973727,20.8181,906.753,0.0400282,0.0,0.0
2000,499.75,24.4947,26.1589,162.86,113.931,113.248,-0.00978058,0.0970056,20.8185,906.753,0.0538518,0.0,0.0
2025,506,25.0079,26.2505,162.103,113.937,113.405,-0.00981592,0.0966244,20.8183,906.733,0.0419064,0.0,0.0
2050,512.25,25.292,26.3668,161.127,113.931,113.695,-0.009788,0.0976283,20.8182,906.753,0.0186274,0.0,0.0
2075,518.5,24.8472,26.0069,158.107,113.947,113.602,-0.00963746,0.0980473,20.8194,906.763,0.0272107,0.0,0.0
2100,524.75,24.9263,26.4165,160.493,113.947,113.261,-0.00975338,0.0968846,20.8248,906.763,0.0540874,0.0,0.0
2125,531,24.6608,26.3625,165.271,113.98,113.413,-0.00951667,0.0960456,20.8275,906.703,0.0446884,0.0,0.0
2150,537.25,25.1477,25.9253,158.188,114.067,113.35,-0.00973218,0.0939476,20.834,906.733,0.0564592,0.0,0.0
2175,543.5,24.6651,26.0194,158.05,114.209,113.781,-0.00957259,0.0911874,20.8436,906.703,0.0336212,0.0,0.0
2200,549.75,25.1842,26.0794,159.762,114.393,113.953,-0.00951567,0.0889262,20.8517,906.713,0.0344733,0.0,0.0
2225,556,25.3532,26.3419,162.575,114.648,114.274,-0.00948799,0.0887578,20.8537,906.733,0.0292693,0.0,0.0
2250,562.25,25.7435,26.5539,161.419,114.974,114.242,-0.00950219,0.0884269,20.8552,906.683,0.0572168,0.0,0.0
2275,568.5,25.2133,26.4254,159.12,115.33,114.594,-0.00947135,0.0897733,20.8499,906.653,0.0573802,0.0,0.0
2300,574.75,25.3778,26.7481,158.024,115.614,114.838,-0.00950587,0.0922279,20.8411,906.683,0.0603313,0.0,0.0
2325,581,25.8226,26.9044,156.364,115.844,114.589,-0.009793,0.0896224,20.8516,906.663,0.0975685,0.0,0.0
2350,587.25,25.4569,26.4455,162.303,115.946,115.323,-0.00973755,0.0866853,20.8609,906.643,0.0482799,0.0,0.0
2375,593.5,25.2609,27.0251,156.579,115.939,115.354,-0.00992888,0.0874158,20.856,906.653,0.0452557,0.0,0.0
2400,599.75,25.1121,26.424,163,115.781,115.152,-0.00966955,0.0877207,20.8548,906.613,0.0487355,0.0,0.0
2425,606,25.6726,26.8796,159.458,115.559,114.857,-0.00962693,0.0867786,20.8605,906.603,0.054548,0.0,0.0
2450,612.25,25.6932,26.4326,158.835,116.029,115.022,-0.00943785,0.0861402,20.861,906.593,0.0780537,0.0,0.0
2475,618.5,25.5763,26.7364,160.163,116.361,115.878,-0.0095776,0.0879413,20.8536,906.563,0.0372576,0.0,0.0
2500,624.75,25.6554,26.5577,158.792,115.928,115.117,-0.00951567,0.0926491,20.8421,906.553,0.0628945,0.0,0.0
2525,631,25.6552,26.6105,155.438,115.725,114.935,-0.00939608,0.0932833,20.841,906.563,0.061324,0.0,0.0
2550,637.25,25.625,27.1247,158.801,116.194,115.39,-0.00925753,0.093256,20.8443,906.553,0.0621777,0.0,0.0
2575,643.5,25.3683,26.9588,153.735,116.397,115.265,-0.00936121,0.091713,20.8474,906.543,0.0875341,0.0,0.0
2600,649.75,26.0001,26.228,163.246,115.983,114.795,-0.00958962,0.0919832,20.8438,906.523,0.0922267,0.0,0.0
2625,656,25.6465,26.5564,158.243,115.062,114.066,-0.00981393,0.0913638,20.8469,906.513,0.0779319,0.0,0.0
2650,662.25,25.4488,26.9564,161.428,114.128,113.132,-0.00948012,0.0916911,20.8459,906.493,0.0785639,0.0,0.0
2675,668.5,25.4705,27.3263,161.013,113.873,112.91,-0.00959229,0.0914778,20.8448,906.483,0.0761132,0.0,0.0
2700,674.75,25.3485,27.334,155.829,114.416,113.095,-0.00961418,0.0933908,20.8427,906.463,0.10407,0.0,0.0
2725,681,25.8938,27.3358,159.323,115.263,114.2,-0.00980206,0.0951893,20.8369,906.463,0.083002,0.0,0.0
2750,687.25,25.2254,27.2353,163.086,115.858,114.459,-0.00968464,0.095128,20.8319,906.483,0.108824,0.0,0.0
2775,693.5,25.4841,27.2404,156.113,115.839,114.877,-0.00946351,0.0948455,20.8296,906.433,0.0747494,0.0,0.0
2800,699.75,26.4308,27.2211,164.098,115.499,114.946,-0.00963428,0.0947754,20.8294,906.463,0.0429936,0.0,0.0
2825,706,25.542,26.9755,162.519,116.339,115.182,-0.00953325,0.0936701,20.8335,906.483,0.0895123,0.0,0.0
2850,712.25,25.8238,26.7819,159.926,115.931,114.345,-0.00926126,0.0922514,20.8356,906.413,0.123369,0.0,0.0
2875,718.5,25.8711,26.1368,158.756,115.895,114.782,-0.00955631,0.0931659,20.8342,906.413,0.0864745,0.0,0.0
2900,724.75,25.1178,26.968,156.157,116.4,115.563,-0.00983863,0.0928745,20.8351,906.383,0.0647106,0.0,0.0
2925,731,25.402,27.0574,158.914,116.111,115.117,-0.00934653,0.0929843,20.8344,906.393,0.076993,0.0,0.0
2950,737.25,25.749,26.8777,160.374,114.989,113.47,-0.0094789,0.0925624,20.8364,906.373,0.119145,0.0,0.0
2975,743.5,25.9148,27.0071,161.913,114.001,112.837,-0.0093721,0.0918265,20.8389,906.363,0.0919011,0.0,0.0
3000,749.75,26.0162,26.7766,155.004,114.126,112.285,-0.00944631,0.0916289,20.8398,906.363,0.14567,0.0,0.0
3025,756,25.9283,27.1668,163.758,115.047,113.495,-0.00964101,0.0910763,20.8419,906.403,0.121682,0.0,0.0
3050,762.25,26.2147,27.0278,160.8,115.742,114.215,-0.00969796,0.0891337,20.849,906.363,0.118923,0.0,0.0
3075,768.5,25.4138,26.8595,157.485,115.779,114.226,-0.00965116,0.0905312,20.8444,906.343,0.120966,0.0,0.0
3100,774.75,25.7609,27.1986,159.158,115.494,113.782,-0.00955548,0.0936407,20.8367,906.233,0.133717,0.0,0.0
3125,781,25.3186,26.8233,161.664,116.347,114.699,-0.00958782,0.0960545,20.8338,906.253,0.127823,0.0,0.0
3150,787.25,25.7715,27.1339,155.885,115.655,114.539,-0.00968386,0.0963228,20.8347,906.303,0.086833,0.0,0.0
3175,793.5,26.5716,27.5879,160.861,116.04,114.415,-0.00935637,0.0953085,20.8374,906.293,0.126333,0.0,0.0
3200,799.75,25.9219,26.7608,159.397,116.431,114.683,-0.00942062,0.094199,20.839,906.243,0.135426,0.0,0.0
3225,806,26.0323,26.9813,157.54,116.162,115.05,-0.00977922,0.0939004,20.8413,906.223,0.0862048,0.0,0.0
3250,812.25,25.8377,26.9889,161.277,115.319,113.799,-0.00980505,0.0924312,20.8442,906.213,0.11889,0.0,0.0
3275,818.5,25.0505,27.1709,160.478,114.468,113.08,-0.00943733,0.0921431,20.8449,906.203,0.109295,0.0,0.0
3300,824.75,25.8857,27.1922,158.711,113.973,112.561,-0.00948943,0.0924962,20.8434,906.193,0.111661,0.0,0.0
3325,831,25.2393,27.0035,162.813,113.947,112.279,-0.00961097,0.0927586,20.8412,906.233,0.132065,0.0,0.0
3350,837.25,25.7078,26.8833,158.898,114.332,112.417,-0.0094022,0.092376,20.8403,906.173,0.15129,0.0,0.0
3375,843.5,25.5924,27.1796,160.996,114.826,113.65,-0.00963106,0.0920209,20.8403,906.183,0.0922267,0.0,0.0
3400,849.75,25.6709,26.7664,158.243,115.224,113.635,-0.00946405,0.0918774,20.8438,906.153,0.124398,0.0,0.0
3425,856,25.33,27.5187,159.51,115.543,114.451,-0.00988494,0.0919922,20.8442,906.143,0.0850647,0.0,0.0
3450,862.25,25.5782,27.0056,160.473,115.674,114.09,-0.0096387,0.0916563,20.8443,906.122,0.123474,0.0,0.0
3475,868.5,25.9181,27.0089,162.348,115.748,114.19,-0.0094058,0.0927085,20.8443,906.112,0.121428,0.0,0.0
3500,874.75,25.8467,27.1486,161.741,115.75,114.611,-0.00964731,0.0933745,20.8403,906.112,0.0885163,0.0,0.0
3525,881,25.7167,27.2584,159.756,115.664,114.158,-0.00933982,0.0932501,20.8397,906.112,0.117374,0.0,0.0
3550,887.25,25.906,27.1234,163.054,115.565,114.726,-0.00958414,0.0926095,20.8397,906.133,0.0652343,0.0,0.0
3575,893.5,25.3646,28.096,161.768,115.473,114.098,-0.00962584,0.0922454,20.8397,906.102,0.107246,0.0,0.0
3600,899.75,25.6107,27.1814,161.512,115.393,114.054,-0.00977664,0.0923845,20.8429,906.073,0.104559,0.0,0.0
3625,906,25.9872,27.3327,162.916,115.775,114.356,-0.0100629,0.0926644,20.8432,906.062,0.110491,0.0,0.0
3650,912.25,25.5677,27.0268,161.527,116.048,115.046,-0.00972737,0.092164,20.8433,906.042,0.0777054,0.0,0.0
3675,918.5,26.1288,27.0112,163.185,116.233,115.056,-0.00954701,0.0920625,20.8406,906.002,0.0911792,0.0,0.0
3700,924.75,25.7206,27.1538,158.053,116.285,115.07,-0.00958621,0.0931008,20.8386,905.982,0.0940516,0.0,0.0
3725,931,25.8403,27.3202,165.249,116.251,114.949,-0.00947864,0.0927554,20.8386,905.992,0.100913,0.0,0.0
3750,937.25,25.649,26.7114,161.998,116.12,114.25,-0.00943749,0.0923068,20.8386,905.982,0.14544,0.0,0.0
3775,943.5,25.9388,26.8562,157.848,115.867,114.56,-0.00946851,0.0924455,20.8391,905.952,0.101593,0.0,0.0
3800,949.75,25.8557,26.9405,163.021,115.563,113.879,-0.00962462,0.093191,20.8354,905.952,0.131512,0.0,0.0
3825,956,25.4577,27.0073,158.285,115.672,114.222,-0.00931003,0.0938493,20.8347,905.952,0.112988,0.0,0.0
3850,962.25,24.3531,26.7715,162.635,115.789,113.944,-0.00898324,0.093607,20.8369,905.962,0.143879,0.0,0.0
3875,968.5,25.435,26.849,165.312,115.961,114.166,-0.00950302,0.0932764,20.8394,905.932,0.139688,0.0,0.0
3900,974.75,26.0824,26.7945,159.19,116.084,114.384,-0.0096415,0.0935901,20.8391,905.882,0.1321,0.0,0.0
3925,981,25.8096,27.1251,160.792,116.184,114.723,-0.00963404,0.095322,20.837,905.862,0.113364,0.0,0.0
3950,987.25,25.9746,26.9054,159.049,116.279,114.67,-0.00960041,0.0947299,20.8363,905.872,0.124771,0.0,0.0
3975,993.5,25.6533,26.6203,158.382,116.357,114.792,-0.00959283,0.0957162,20.8322,905.842,0.121256,0.0,0.0
4000,999.75,26.0862,27.0335,161.965,116.382,115.206,-0.00987272,0.0957983,20.8294,905.842,0.0909393,0.0,0.0
4025,1006,25.9785,26.7585,157.88,116.439,114.178,-0.00991274,0.0958486,20.8284,905.822,0.175642,0.0,0.0
4050,1012.25,26.1209,26.7997,159.11,116.432,114.96,-0.00955191,0.0954854,20.8305,905.802,0.113999,0.0,0.0
4075,1018.5,25.738,27.1394,161.478,116.402,114.854,-0.00931127,0.0953526,20.8291,905.792,0.119936,0.0,0.0
4100,1024.75,25.5717,27.3381,162.074,116.403,114.615,-0.00943345,0.0968868,20.8267,905.792,0.138709,0.0,0.0
4125,1031,25.6992,27.0886,156.531,116.367,114.509,-0.00953355,0.102027,20.8184,905.782,0.144236,0.0,0.0
4150,1037.25,25.7634,26.9504,160.771,116.327,114.744,-0.00961726,0.103057,20.8163,905.752,0.122764,0.0,0.0
4175,1043.5,26.2859,27.2405,156.529,116.313,115.223,-0.00921742,0.10148,20.8182,905.712,0.084392,0.0,0.0
4200,1049.75,26.6008,27.6605,162.863,116.302,114.783,-0.00929084,0.102328,20.8163,905.712,0.117737,0.0,0.0
4225,1056,25.9346,26.9633,159.129,116.247,114.8,-0.00967543,0.100093,20.8201,905.722,0.112198,0.0,0.0
4250,1062.25,26.0963,26.7826,158.188,116.225,114.806,-0.00951271,0.101028,20.8173,905.722,0.11006,0.0,0.0
4275,1068.5,25.5148,27.0688,158.291,116.172,114.29,-0.0096913,0.100088,20.8196,905.692,0.146279,0.0,0.0
4300,1074.75,26.0004,27.4841,161.422,116.08,114.095,-0.00952514,0.0973111,20.8234,905.652,0.154507,0.0,0.0
4325,1081,26.1233,26.98,162.209,115.992,114.435,-0.00953631,0.0965064,20.8242,905.652,0.12107,0.0,0.0
4350,1087.25,26.0642,27.0114,156.738,115.887,113.541,-0.00938845,0.0959684,20.8268,905.652,0.18313,0.0,0.0
4375,1093.5,26.0063,27.3742,159.151,115.834,113.85,-0.00958756,0.0958594,20.8273,905.622,0.154791,0.0,0.0
4400,1099.75,25.9272,26.7733,159.617,115.828,113.587,-0.00923207,0.095836,20.8279,905.612,0.175006,0.0,0.0
4425,1106,26.0019,27.103,158.866,115.814,114.12,-0.00951708,0.0959051,20.8268,905.612,0.13204,0.0,0.0
4450,1112.25,25.7509,27.1176,155.781,115.814,114.377,-0.00943416,0.0971994,20.8226,905.582,0.111774,0.0,0.0
4475,1118.5,26.048,26.9229,161.961,115.84,114.372,-0.00940298,0.0972401,20.8213,905.582,0.114246,0.0,0.0
4500,1124.75,26.1154,27.1802,161.554,115.84,113.863,-0.00958486,0.0991352,20.8194,905.552,0.154209,0.0,0.0
4525,1131,26.2399,26.9066,157.451,115.846,114.542,-0.00963909,0.0992132,20.8241,905.532,0.10133,0.0,0.0
4550,1137.25,25.3108,27.4121,159.509,115.925,114.388,-0.00963385,0.0973178,20.8257,905.532,0.119527,0.0,0.0
4575,1143.5,25.8555,27.3503,160.024,115.99,114.969,-0.0091815,0.0964904,20.8246,905.532,0.0791788,0.0,0.0
4600,1149.75,26.0191,27.2122,158.765,116.08,114.714,-0.00949462,0.100593,20.8163,905.522,0.1061,0.0,0.0
4625,1156,26.141,27.1771,161.001,116.187,114.295,-0.00963766,0.100461,20.8182,905.502,0.147078,0.0,0.0
4650,1162.25,25.2475,27.4651,164.082,116.281,114.657,-0.00968899,0.0972397,20.8237,905.482,0.125964,0.0,0.0
4675,1168.5,26.1292,26.9241,159.028,116.333,114.375,-0.00983465,0.0954298,20.8275,905.472,0.152014,0.0,0.0
4700,1174.75,25.8302,26.5256,158.739,116.406,114.951,-0.00967052,0.0958696,20.8263,905.432,0.11262,0.0,0.0
4725,1181,25.8977,26.9491,160.034,116.448,114.622,-0.00932676,0.0950898,20.8247,905.452,0.141498,0.0,0.0
4750,1187.25,26.054,27.0766,162.893,116.381,114.594,-0.00963195,0.0947808,20.8253,905.412,0.13856,0.0,0.0
4775,1193.5,26.0029,27.3029,160.75,116.34,114.879,-0.00940137,0.0948469,20.8252,905.402,0.113171,0.0,0.0
4800,1199.75,25.5404,26.8621,161.315,116.261,114.882,-0.00977605,0.0962758,20.8278,905.392,0.106902,0.0,0.0
4825,1206,25.9873,27.2422,165.003,116.143,114.689,-0.00948614,0.09765,20.8259,905.362,0.112806,0.0,0.0
4850,1212.25,26.2474,27.0121,158.187,116.039,114.104,-0.00956374,0.0969962,20.8278,905.372,0.150657,0.0,0.0
4875,1218.5,26.2536,27.4706,161.009,115.942,114.532,-0.00965302,0.0963998,20.8262,905.382,0.109618,0.0,0.0
4900,1224.75,25.5816,27.7051,162.022,115.836,114.017,-0.00955873,0.0947378,20.831,905.322,0.141813,0.0,0.0
4925,1231,26.1273,27.5522,160.934,115.75,114.412,-0.00937215,0.0926277,20.8377,905.322,0.104143,0.0,0.0
4950,1237.25,25.8909,27.4745,158.366,115.659,114.275,-0.00964473,0.0912404,20.8398,905.312,0.107834,0.0,0.0
4975,1243.5,25.9889,27.0976,157.037,115.546,114.031,-0.0095282,0.0926227,20.8343,905.312,0.11824,0.0,0.0
5000,1249.75,25.7172,26.8699,157.35,115.773,114.339,-0.0096223,0.0933141,20.8331,905.302,0.111613,0.0,0.0
5025,1256,25.5982,27.2516,162.198,116.04,114.412,-0.00970604,0.0944284,20.833,905.272,0.126551,0.0,0.0
5050,1262.25,26.0659,26.9649,160.803,116.229,114.796,-0.00958691,0.0941137,20.8309,905.242,0.111143,0.0,0.0
5075,1268.5,26.0465,27.3239,162.215,116.276,115.244,-0.00930892,0.0959885,20.827,905.262,0.0798752,0.0,0.0
5100,1274.75,25.5623,27.2504,162.096,116.179,115.073,-0.00958803,0.102784,20.8157,905.252,0.0857109,0.0,0.0
5125,1281,25.5326,27.1861,163.252,115.88,114.677,-0.00941137,0.100796,20.8141,905.202,0.0935053,0.0,0.0
5150,1287.25,26.0484,27.2022,159.161,115.472,114.519,-0.00928093,0.0991291,20.8114,905.222,0.0741977,0.0,0.0
5175,1293.5,25.6346,27.0391,162.209,115.443,113.723,-0.00936803,0.0987293,20.8113,905.222,0.134472,0.0,0.0
5200,1299.75,26.1816,27.2855,157.613,115.554,114.366,-0.00917019,0.0986609,20.811,905.212,0.0925278,0.0,0.0
5225,1306,25.4898,27.5156,157.94,115.674,114.413,-0.00954212,0.0973975,20.8153,905.212,0.0981684,0.0,0.0
5250,1312.25,26.1828,26.8721,160.255,115.752,114.488,-0.0093333,0.0962901,20.8195,905.202,0.0983173,0.0,0.0
5275,1318.5,26.198,26.6023,157.851,115.741,114.598,-0.0092508,0.0960413,20.821,905.172,0.0888367,0.0,0.0
5300,1324.75,25.7497,26.9838,159.265,115.681,114.738,-0.0095815,0.0960763,20.8228,905.162,0.0733007,0.0,0.0
5325,1331,25.4402,26.8209,159.555,115.579,114.318,-0.00967566,0.0956338,20.825,905.142,0.0983015,0.0,0.0
5350,1337.25,25.6539,27.1172,157.08,115.42,114.119,-0.00949763,0.0956896,20.8236,905.132,0.101522,0.0,0.0
5375,1343.5,26.2206,27.1753,160.451,115.22,113.465,-0.00939248,0.0964972,20.8213,905.122,0.13742,0.0,0.0
5400,1349.75,26.3012,27.3297,159.916,114.965,113.607,-0.00942635,0.0969811,20.8189,905.102,0.106439,0.0,0.0
5425,1356,25.2848,27.1196,158.428,114.666,113.411,-0.00968037,0.0970209,20.8203,905.102,0.0985613,0.0,0.0
5450,1362.25,25.8834,27.259,159.568,114.376,112.966,-0.00976199,0.0980734,20.8196,905.082,0.111126,0.0,0.0
5475,1368.5,26.014,27.0894,161.329,114.138,112.462,-0.00929713,0.0977866,20.8198,905.082,0.13255,0.0,0.0
5500,1374.75,26.7227,26.6563,162.295,113.971,112.559,-0.0094392,0.0970305,20.8201,905.052,0.11166,0.0,0.0
5525,1381,26.1639,26.6662,158.079,113.915,112.631,-0.00933784,0.096734,20.8196,905.052,0.101482,0.0,0.0
5550,1387.25,25.7815,28.0524,166.184,113.947,112.579,-0.00958404,0.0969152,20.82,905.021,0.108192,0.0,0.0
5575,1393.5,26.0786,27.2128,158.616,114.115,112.942,-0.00966511,0.098167,20.8188,905.012,0.0925532,0.0,0.0
5600,1399.75,25.6443,27.6803,158.021,114.36,112.675,-0.00959472,0.098526,20.8158,905.002,0.133002,0.0,0.0
5625,1406,25.4617,26.5331,158.625,114.666,113.221,-0.00975219,0.0985337,20.8142,904.992,0.113549,0.0,0.0
5650,1412.25,25.7918,27.1762,158.536,114.965,113.666,-0.00949289,0.100164,20.8097,904.992,0.101847,0.0,0.0
5675,1418.5,25.7796,27.3679,157.218,115.317,114.462,-0.00921108,0.100834,20.8097,904.951,0.0666652,0.0,0.0
5700,1424.75,26.1614,27.2714,160.386,115.662,114.7,-0.00928868,0.0996969,20.8122,904.992,0.0748034,0.0,0.0
5725,1431,25.8685,27.5349,161.564,115.947,114.701,-0.00964815,0.101541,20.81,904.951,0.0967911,0.0,0.0
5750,1437.25,26.1015,26.9447,157.355,116.207,114.698,-0.00979206,0.104466,20.8056,904.951,0.117056,0.0,0.0
5775,1443.5,25.882,27.1007,162.559,116.352,115.284,-0.0096014,0.102891,20.8048,904.961,0.0826549,0.0,0.0
5800,1449.75,25.9698,26.7889,157.436,116.393,114.909,-0.00976286,0.102102,20.8087,904.961,0.114957,0.0,0.0
5825,1456,25.6365,26.9657,158.236,116.361,114.679,-0.00972022,0.10188,20.8096,904.931,0.130463,0.0,0.0
5850,1462.25,25.7834,26.9964,161.764,116.212,115.413,-0.00949225,0.101378,20.8123,904.931,0.061797,0.0,0.0
5875,1468.5,25.9597,26.6899,160.929,115.999,114.605,-0.00966534,0.0998967,20.8156,904.911,0.108268,0.0,0.0
5900,1474.75,26.2429,27.4552,161.886,115.797,114.899,-0.00967731,0.0988313,20.817,904.891,0.0696705,0.0,0.0
5925,1481,25.6825,26.9226,158.535,115.62,114.027,-0.00939855,0.098027,20.8173,904.851,0.124257,0.0,0.0
5950,1487.25,26.2384,26.9034,160.599,115.613,114.577,-0.00926693,0.0975316,20.8212,904.861,0.0805874,0.0,0.0
5975,1493.5,25.8005,27.3315,160.094,115.986,114.438,-0.00957322,0.097772,20.8208,904.851,0.120307,0.0,0.0
6000,1499.75,25.8744,26.9258,161.036,116.204,114.365,-0.0096879,0.101458,20.8156,904.811,0.142876,0.0,0.0
6025,1506,25.6118,27.3495,157.056,116.289,115.441,-0.00977369,0.0999012,20.8172,904.811,0.0655544,0.0,0.0
6050,1512.25,25.9908,27.1386,159.797,116.279,115.702,-0.00959719,0.0985479,20.8167,904.811,0.0445439,0.0,0.0
6075,1518.5,26.1381,27.4049,162.659,116.14,115.164,-0.00950732,0.097779,20.819,904.801,0.0755383,0.0,0.0
6100,1524.75,25.8165,27.1093,158.13,115.873,114.865,-0.00919522,0.098432,20.8165,904.771,0.0783067,0.0,0.0
6125,1531,26.0715,27.4951,153.841,115.521,114.559,-0.00928344,0.0981263,20.8169,904.801,0.0749559,0.0,0.0
6150,1537.25,26.4539,27.5199,161.164,115.485,114.846,-0.0092522,0.0969109,20.8197,904.771,0.0496849,0.0,0.0
6175,1543.5,25.6335,27.1526,161.394,115.558,114.351,-0.00966921,0.0964559,20.8218,904.761,0.0939787,0.0,0.0
6200,1549.75,25.1635,26.8624,158.885,115.67,114.854,-0.00974491,0.0960284,20.8244,904.781,0.0634787,0.0,0.0
6225,1556,26.024,26.917,157.485,115.758,114.032,-0.00939368,0.096102,20.8239,904.781,0.134498,0.0,0.0
6250,1562.25,25.7148,27.151,159.971,115.81,114.341,-0.00942037,0.0962841,20.8234,904.751,0.114309,0.0,0.0
6275,1568.5,25.9259,27.1778,161.704,115.832,114.923,-0.00967544,0.0958495,20.8235,904.721,0.0705265,0.0,0.0
6300,1574.75,25.1633,26.8641,158.737,115.831,114.933,-0.0097287,0.0958522,20.8231,904.711,0.069697,0.0,0.0
6325,1581,25.025,26.8959,160.11,115.776,114.974,-0.00921426,0.0959693,20.823,904.681,0.0622667,0.0,0.0
6350,1587.25,26.0853,27.3069,157.805,115.715,114.769,-0.00956981,0.0955975,20.8236,904.701,0.0735782,0.0,0.0
6375,1593.5,25.8162,26.5828,159.404,115.645,113.927,-0.00979287,0.0964472,20.8233,904.661,0.134039,0.0,0.0
6400,1599.75,25.7456,27.2465,163.067,115.489,114.32,-0.00989068,0.0967978,20.8209,904.641,0.0911867,0.0,0.0
6425,1606,25.8426,27.1654,161.699,115.308,114.62,-0.00965065,0.0964073,20.8229,904.611,0.0536023,0.0,0.0
6450,1612.25,25.1873,26.7357,157.204,115.065,114.016,-0.00994866,0.0965196,20.8208,904.651,0.0820751,0.0,0.0
6475,1618.5,25.5103,26.5108,161.319,114.814,114.01,-0.00980251,0.0960063,20.8219,904.601,0.0629252,0.0,0.0
6500,1624.75,25.4493,26.8931,161.812,114.574,113.677,-0.00964831,0.0956468,20.8237,904.621,0.0704132,0.0,0.0
6525,1631,25.3703,26.9668,159.51,114.325,112.641,-0.00949385,0.0952331,20.8238,904.571,0.132959,0.0,0.0
6550,1637.25,25.7378,26.9448,161.645,114.108,113.526,-0.00946439,0.0948357,20.8284,904.581,0.045873,0.0,0.0
6575,1643.5,25.1357,27.2617,156.693,113.959,113.132,-0.00963093,0.0956982,20.8264,904.551,0.0652576,0.0,0.0
6600,1649.75,25.8945,26.9987,162.754,113.873,113.11,-0.0098892,0.0962884,20.8229,904.551,0.0602051,0.0,0.0
6625,1656,25.809,27.2029,155.486,113.861,112.802,-0.00956788,0.0967944,20.8202,904.531,0.0837023,0.0,0.0
6650,1662.25,25.3811,27.2398,156.466,113.975,112.689,-0.00940744,0.0968665,20.8188,904.551,0.101658,0.0,0.0
6675,1668.5,25.5515,27.3768,157.589,114.144,113.535,-0.00961678,0.0970439,20.8196,904.521,0.0479496,0.0,0.0
6700,1674.75,25.8597,26.7393,162.386,114.399,113.692,-0.00982182,0.0966751,20.8198,904.511,0.0554766,0.0,0.0
6725,1681,25.5191,26.4668,161.129,114.718,113.612,-0.00943985,0.0959009,20.8241,904.481,0.0867674,0.0,0.0
6750,1687.25,25.5942,27.4902,160.726,115.016,113.881,-0.00936183,0.0953226,20.8268,904.481,0.088805,0.0,0.0
6775,1693.5,25.1086,26.9917,160.96,115.312,114.017,-0.00932468,0.0950225,20.8272,904.461,0.101143,0.0,0.0
6800,1699.75,25.6526,27.0708,155.819,115.64,114.665,-0.00939609,0.094698,20.8272,904.451,0.0758718,0.0,0.0
6825,1706,25.8618,27.1742,163.955,115.936,115.329,-0.00945905,0.0943284,20.8307,904.451,0.0470489,0.0,0.0
6850,1712.25,25.8437,26.8304,158.127,116.16,115.664,-0.00938279,0.093425,20.835,904.421,0.0383389,0.0,0.0
6875,1718.5,25.1327,26.8422,159.073,116.32,115.114,-0.00929692,0.0927628,20.8368,904.421,0.0933511,0.0,0.0
6900,1724.75,25.494,27.1128,159.356,116.375,115.36,-0.00980741,0.0926768,20.8364,904.401,0.0784686,0.0,0.0
6925,1731,26.0679,26.9021,158.418,116.4,115.033,-0.0093166,0.0929229,20.8362,904.401,0.105845,0.0,0.0
6950,1737.25,25.5562,26.5673,157.51,116.346,115.574,-0.00972454,0.0977247,20.8289,904.361,0.0596854,0.0,0.0
6975,1743.5,26.0796,26.8128,159.528,116.271,115.443,-0.00945629,0.0980423,20.8249,904.321,0.0640342,0.0,0.0
7000,1749.75,25.7849,26.4896,159.003,116.159,115.087,-0.00927604,0.0978425,20.8206,904.341,0.0831077,0.0,0.0
7025,1756,26.1367,26.9588,160.265,116.068,114.687,-0.00909308,0.0981735,20.8199,904.301,0.107214,0.0,0.0
7050,1762.25,26.3399,27.3051,157.434,115.941,115.25,-0.00933059,0.0983883,20.8183,904.301,0.0535195,0.0,0.0
7075,1768.5,25.7502,27.2873,159,115.777,114.868,-0.00947002,0.098425,20.8176,904.291,0.0705933,0.0,0.0
7100,1774.75,25.8262,27.3436,160.421,115.654,114.808,-0.00955778,0.0981997,20.8189,904.301,0.0657749,0.0,0.0
7125,1781,25.7536,26.8865,160.822,115.565,114.555,-0.00941651,0.098367,20.817,904.291,0.078566,0.0,0.0
7150,1787.25,25.768,27.2959,157.547,115.603,114.702,-0.00952396,0.0987789,20.8149,904.281,0.0700657,0.0,0.0
7175,1793.5,25.9266,27.0654,157.019,115.836,114.714,-0.00943139,0.0993471,20.8166,904.231,0.0871597,0.0,0.0
7200,1799.75,25.6515,27.3003,160.343,116.047,114.718,-0.00940002,0.0985399,20.8177,904.231,0.103124,0.0,0.0
7225,1806,25.6937,27.0817,160.703,116.175,114.792,-0.00970679,0.0976695,20.8165,904.261,0.107297,0.0,0.0
7250,1812.25,25.4961,27.1919,160.007,116.283,114.958,-0.00974693,0.0983063,20.8132,904.221,0.102622,0.0,0.0
7275,1818.5,25.9427,27.2052,162.645,116.321,115.559,-0.00993466,0.0984064,20.815,904.231,0.058875,0.0,0.0
7300,1824.75,25.8708,27.0067,161.72,116.294,115.221,-0.00962179,0.0975293,20.8159,904.191,0.0830496,0.0,0.0
7325,1831,25.6653,26.6235,160.238,116.258,115.649,-0.00973096,0.0973796,20.8173,904.181,0.0471031,0.0,0.0
7350,1837.25,26.0893,27.1934,165.027,116.178,115.389,-0.00970577,0.0973668,20.8183,904.171,0.0610875,0.0,0.0
7375,1843.5,26.476,26.9375,158.042,116.048,114.698,-0.00947709,0.0977832,20.8179,904.171,0.104858,0.0,0.0
7400,1849.75,26.2635,27.0929,158.839,115.923,115.049,-0.00979071,0.0979771,20.8157,904.111,0.0677854,0.0,0.0
7425,1856,25.5174,26.7954,162.669,115.713,114.269,-0.00986233,0.0991573,20.8135,904.091,0.112532,0.0,0.0
7450,1862.25,26.2964,26.669,160.279,115.454,114.505,-0.00949617,0.0984116,20.8172,904.091,0.0739319,0.0,0.0
7475,1868.5,25.8827,27.2689,166.565,115.513,114.762,-0.00980413,0.0967272,20.8212,904.091,0.0584411,0.0,0.0
7500,1874.75,26.3037,27.2839,160.664,115.575,114.287,-0.00966521,0.0957441,20.8246,904.071,0.100401,0.0,0.0
7525,1881,25.9063,26.6577,160.803,115.625,114.164,-0.00921,0.0969438,20.8232,904.071,0.113949,0.0,0.0
7550,1887.25,26.194,27.1079,162.214,115.726,114.398,-0.009313,0.0963933,20.8247,904.051,0.103372,0.0,0.0
7575,1893.5,26.0364,27.228,159.963,115.798,114.533,-0.00964235,0.0956632,20.8241,904.051,0.0984124,0.0,0.0
7600,1899.75,26.5692,27.3367,156.104,115.845,114.63,-0.009753,0.0952483,20.8227,904.061,0.0944246,0.0,0.0
7625,1906,26.1287,27.0819,161.134,115.891,114.85,-0.00954638,0.0949213,20.8226,904.041,0.0808075,0.0,0.0
7650,1912.25,26.3332,27.541,156.296,115.886,114.895,-0.00924012,0.0953388,20.8231,904.031,0.0769093,0.0,0.0
7675,1918.5,26.2507,27.3334,158.865,115.839,114.719,-0.00918048,0.0953635,20.822,904.021,0.0870529,0.0,0.0
7700,1924.75,25.8311,27.6437,162.228,115.762,114.545,-0.00965851,0.0949268,20.8234,904.001,0.0947057,0.0,0.0
7725,1931,26.1616,26.9504,161.303,115.647,114.669,-0.00992281,0.0948899,20.8235,903.981,0.0761291,0.0,0.0
7750,1937.25,26.2236,27.769,161.747,115.512,114.213,-0.00979923,0.0954808,20.8219,904.001,0.101312,0.0,0.0
7775,1943.5,25.9926,26.9852,162.026,115.351,114.457,-0.00967669,0.0968341,20.8176,903.961,0.0696938,0.0,0.0
7800,1949.75,25.8862,27.3311,161.212,115.165,113.782,-0.00968756,0.09736,20.8161,903.971,0.108239,0.0,0.0
7825,1956,25.622,26.1968,163.043,114.924,114.133,-0.00975424,0.0971609,20.8188,903.941,0.0618171,0.0,0.0
7850,1962.25,25.3294,26.9892,155.936,114.701,113.758,-0.00944418,0.0976041,20.8177,903.951,0.0739679,0.0,0.0
7875,1968.5,25.932,27.196,160.007,114.512,113.675,-0.00938682,0.0980582,20.8178,903.951,0.0657007,0.0,0.0
7900,1974.75,25.7229,27.2118,160.493,114.329,113.279,-0.00967477,0.0972985,20.8192,903.921,0.0826867,0.0,0.0
7925,1981,25.7245,27.3189,156.913,114.154,112.991,-0.00945469,0.096881,20.8213,903.901,0.0917331,0.0,0.0
7950,1987.25,26.0576,27.2657,161.519,114.015,112.883,-0.00956186,0.096735,20.8206,903.881,0.0893769,0.0,0.0
7975,1993.5,26.0076,26.7935,156.641,113.91,113.083,-0.00937277,0.0959458,20.8215,903.891,0.0652544,0.0,0.0
8000,1999.75,25.8942,27.0784,161.961,113.858,112.541,-0.0093262,0.0955524,20.8229,903.871,0.104214,0.0,0.0
8025,2006,25.9876,27.1204,160.294,113.842,113.104,-0.00956768,0.0956449,20.8217,903.861,0.0582756,0.0,0.0
8050,2012.25,25.9733,26.9402,160.387,113.847,112.685,-0.0095191,0.095578,20.8233,903.85,0.0918493,0.0,0.0
8075,2018.5,25.4535,27.3105,160.558,113.928,113.082,-0.00958719,0.0950563,20.8267,903.84,0.0668062,0.0,0.0
8100,2024.75,25.8397,26.9906,162.067,114.034,113.406,-0.00974781,0.0947465,20.8258,903.8,0.0494884,0.0,0.0
8125,2031,25.8305,26.7098,156.669,114.159,113.398,-0.00960147,0.0952217,20.8251,903.78,0.0598996,0.0,0.0
8150,2037.25,25.6622,27.0801,161.565,114.288,113.469,-0.00953626,0.0959797,20.8222,903.79,0.0644265,0.0,0.0
8175,2043.5,25.9798,27.2934,160.8,114.407,113.641,-0.00923876,0.0969895,20.8208,903.77,0.0601478,0.0,0.0
8200,2049.75,25.9169,27.2051,157.607,114.462,113.482,-0.00950335,0.0962807,20.8217,903.78,0.0770787,0.0,0.0
8225,2056,26.2115,27.0259,158.544,114.556,113.831,-0.00962818,0.0933448,20.8327,903.78,0.0569261,0.0,0.0
8250,2062.25,25.8634,26.8138,157.219,114.657,113.633,-0.00930959,0.0905583,20.8441,903.77,0.0803112,0.0,0.0
8275,2068.5,25.1958,27.5325,161.168,114.716,114.137,-0.00965342,0.0899332,20.846,903.76,0.0452982,0.0,0.0
8300,2074.75,25.9998,27.2516,160.685,114.75,113.763,-0.00952941,0.0909015,20.8435,903.74,0.0773518,0.0,0.0
8325,2081,26.5774,27.3147,160.856,114.688,114.189,-0.00941698,0.0909769,20.8442,903.71,0.0390311,0.0,0.0
8350,2087.25,25.9292,28.2237,163.204,114.578,113.637,-0.00930552,0.0915785,20.8428,903.72,0.0738779,0.0,0.0
8375,2093.5,25.9239,26.678,162.553,114.46,113.864,-0.0095053,0.0912109,20.8445,903.69,0.0468333,0.0,0.0
8400,2099.75,25.6174,27.6775,158.499,114.26,113.962,-0.00964049,0.0924675,20.841,903.66,0.0234574,0.0,0.0
8425,2106,26.1815,27.3743,162.943,114.073,113.512,-0.00955625,0.0950645,20.8355,903.68,0.0441593,0.0,0.0
8450,2112.25,26.0858,27.6585,159.276,113.906,113.831,-0.00955977,0.0971668,20.8318,903.65,0.00585063,0.0,0.0
8475,2118.5,26.2372,27.6967,160.161,113.842,113.48,-0.00965159,0.0975612,20.8298,903.65,0.0285146,0.0,0.0
8500,2124.75,26.8448,27.3076,155.528,113.947,113.706,-0.0094918,0.0984508,20.8312,903.63,0.0189002,0.0,0.0
8525,2131,26.0029,27.538,156.076,114.247,114.054,-0.00976278,0.0978242,20.8301,903.65,0.0151572,0.0,0.0
8550,2137.25,25.7256,27.4295,168.237,114.739,114.074,-0.00964971,0.0949981,20.8348,903.62,0.0521099,0.0,0.0
8575,2143.5,25.9859,27.631,159.731,115.284,114.791,-0.00967722,0.0927667,20.8361,903.59,0.0384133,0.0,0.0
8600,2149.75,26.5758,27.5015,160.129,115.686,114.91,-0.00982121,0.0932803,20.8321,903.59,0.0602825,0.0,0.0
8625,2156,26.2656,27.3076,158.365,115.892,115.037,-0.00928081,0.0935497,20.8309,903.58,0.0663218,0.0,0.0
8650,2162.25,26.1427,27.6927,158.992,115.785,115.239,-0.00939163,0.0931691,20.831,903.57,0.0423761,0.0,0.0
8675,2168.5,25.9245,26.9801,161.655,115.526,114.781,-0.00975522,0.0926693,20.8321,903.57,0.0580189,0.0,0.0
8700,2174.75,26.1346,27.8202,158.972,116.137,115.604,-0.00976346,0.0925086,20.8314,903.56,0.0411815,0.0,0.0
8725,2181,26.6218,27.3561,155.976,116.293,115.432,-0.00985397,0.0923193,20.8313,903.53,0.0665635,0.0,0.0
8750,2187.25,26.176,27.5045,159.767,115.576,115.107,-0.00983803,0.092376,20.8306,903.53,0.0364451,0.0,0.0
8775,2193.5,26.3247,26.9219,155.755,116.005,114.395,-0.009831,0.0926148,20.8294,903.52,0.125164,0.0,0.0
8800,2199.75,25.7033,27.3547,157.522,116.41,115.046,-0.0096209,0.0924591,20.8302,903.52,0.105562,0.0,0.0
8825,2206,26.1209,27.3393,158.865,116.147,114.82,-0.00951449,0.0919548,20.8312,903.48,0.102919,0.0,0.0
8850,2212.25,26.2966,27.554,157.488,115.169,113.861,-0.00982253,0.0920186,20.8363,903.49,0.102273,0.0,0.0
8875,2218.5,25.7179,27.6617,158.833,114.17,112.785,-0.00975261,0.0919303,20.8368,903.51,0.109316,0.0,0.0
8900,2224.75,26.0637,27.5022,157.079,113.947,112.502,-0.0097913,0.0916585,20.8388,903.46,0.114263,0.0,0.0
8925,2231,26.179,27.5871,156.98,114.613,112.819,-0.00958499,0.0925822,20.8386,903.48,0.14135,0.0,0.0
8950,2237.25,26.0785,27.6691,159.254,115.504,114.233,-0.00965219,0.0933929,20.8364,903.42,0.0991337,0.0,0.0
8975,2243.5,26.901,27.314,161.719,115.855,114.392,-0.00953523,0.0919562,20.8385,903.41,0.113818,0.0,0.0
9000,2249.75,26.5155,27.4894,153.922,115.582,113.557,-0.00972144,0.0913014,20.8387,903.43,0.158396,0.0,0.0
9025,2256,26.5107,27.2163,157.213,116.085,115.038,-0.00960094,0.0900078,20.8429,903.44,0.0811155,0.0,0.0
9050,2262.25,26.0276,26.7712,159.992,116.132,114.576,-0.00936505,0.0886775,20.8488,903.42,0.120825,0.0,0.0
9075,2268.5,26.2557,27.5402,160.251,115.87,114.68,-0.00968639,0.0884787,20.8479,903.42,0.0924518,0.0,0.0
9100,2274.75,26.2161,26.985,156.46,116.422,115.253,-0.00970476,0.0883125,20.8492,903.4,0.0903886,0.0,0.0
9125,2281,26.167,27.7108,157.304,115.934,114.133,-0.00964418,0.0882849,20.8501,903.33,0.140192,0.0,0.0
9150,2287.25,26.0438,27.6028,164.027,114.581,112.95,-0.009664,0.0881759,20.8523,903.33,0.128392,0.0,0.0
9175,2293.5,26.0574,27.8545,160.964,113.934,112.088,-0.00972839,0.0880463,20.8518,903.34,0.146279,0.0,0.0
9200,2299.75,26.3559,27.3012,159.146,114.863,112.56,-0.0100047,0.0872814,20.8549,903.34,0.181371,0.0,0.0
9225,2306,26.2805,27.2741,157.896,115.696,113.976,-0.00962831,0.0863939,20.8569,903.3,0.134195,0.0,0.0
9250,2312.25,26.4744,27.3036,158.318,115.594,113.931,-0.0097099,0.086238,20.857,903.3,0.129811,0.0,0.0
9275,2318.5,26.4966,27.8035,155.818,116.16,113.764,-0.00953312,0.0857051,20.857,903.33,0.18671,0.0,0.0
9300,2324.75,26.4753,27.7972,161.064,115.865,114.03,-0.0094489,0.0850762,20.8598,903.28,0.143052,0.0,0.0
9325,2331,26.6174,27.8819,159.656,116.07,114.229,-0.00963643,0.0853893,20.8604,903.29,0.143223,0.0,0.0
9350,2337.25,26.1656,27.8178,157.568,116.4,114.143,-0.00947296,0.0859543,20.8571,903.23,0.175394,0.0,0.0
9375,2343.5,26.0674,26.7053,159.575,115.499,113.328,-0.00999345,0.0869222,20.8563,903.16,0.169976,0.0,0.0
9400,2349.75,26.343,28.1155,158.055,114.225,111.856,-0.00951342,0.0877812,20.8575,903.15,0.187759,0.0,0.0
9425,2356,26.4575,27.6559,159.473,114.039,111.898,-0.00956776,0.0882334,20.8577,903.19,0.1698,0.0,0.0
9450,2362.25,26.4714,27.6578,159.184,114.77,112.667,-0.00955907,0.0883092,20.8567,903.19,0.165603,0.0,0.0
9475,2368.5,26.2523,27.6874,157.671,115.475,113.566,-0.00958069,0.0874962,20.8584,903.2,0.14931,0.0,0.0
9500,2374.75,26.1487,27.5087,159.709,115.707,113.851,-0.00938766,0.0882579,20.8562,903.18,0.144814,0.0,0.0
9525,2381,26.3019,27.6221,159.421,115.581,113.481,-0.00988789,0.0884844,20.856,903.16,0.164198,0.0,0.0
9550,2387.25,26.7553,27.8239,158.232,115.366,113.102,-0.00946419,0.0876652,20.8553,903.15,0.177603,0.0,0.0
9575,2393.5,26.2477,28.1183,160.551,116.099,114.006,-0.00946827,0.0869564,20.8563,903.14,0.162969,0.0,0.0
9600,2399.75,26.6252,27.6366,159.882,116.241,113.565,-0.00942093,0.0864586,20.8586,903.13,0.20862,0.0,0.0
9625,2406,26.6596,27.5791,157.098,115.812,113.73,-0.00953366,0.0871398,20.8564,903.12,0.162472,0.0,0.0
9650,2412.25,26.2313,27.793,157.378,115.686,114,-0.00943842,0.08713,20.8575,903.11,0.131576,0.0,0.0
9675,2418.5,25.7875,27.4972,160.271,116.008,114.048,-0.00959084,0.0862727,20.8574,903.12,0.152689,0.0,0.0
9700,2424.75,26.2728,27.8119,158.84,116.285,113.821,-0.00954711,0.0864555,20.8594,903.09,0.191845,0.0,0.0
9725,2431,26.5425,27.78,161.014,116.422,114.792,-0.00955384,0.0878361,20.859,903.08,0.126291,0.0,0.0
9750,2437.25,26.5083,27.8452,158.492,116.375,114.573,-0.0097589,0.0881101,20.8574,903.07,0.139716,0.0,0.0
9775,2443.5,26.0027,27.2223,167.249,116.21,114.168,-0.00983416,0.0870393,20.8607,903.05,0.158791,0.0,0.0
9800,2449.75,26.1548,27.551,163.753,115.963,113.361,-0.00980414,0.0860532,20.8619,903.06,0.203224,0.0,0.0
9825,2456,26.9571,27.6217,158.037,115.656,113.5,-0.00964435,0.0857061,20.8612,903.04,0.168535,0.0,0.0
9850,2462.25,26.0858,27.5423,158.88,115.361,113.689,-0.00951163,0.0855795,20.8599,903.03,0.130775,0.0,0.0
9875,2468.5,26.5035,27.863,157.328,115.107,113.114,-0.00964015,0.0853686,20.8633,903.03,0.156385,0.0,0.0
9900,2474.75,26.4284,27.4851,159.988,114.838,112.625,-0.00961542,0.0852955,20.8627,903.01,0.174274,0.0,0.0
9925,2481,25.9836,27.14,158.358,114.619,112.42,-0.00966255,0.0879538,20.8594,903,0.173532,0.0,0.0
9950,2487.25,26.0127,27.4437,159.041,114.428,112.46,-0.00967634,0.0884229,20.8553,902.96,0.155383,0.0,0.0
9975,2493.5,25.8708,27.5622,159.046,114.22,111.875,-0.00969841,0.0869971,20.856,902.98,0.185761,0.0,0.0
10000,2499.75,26.5732,27.9101,158.603,114.098,112.059,-0.00953239,0.0864746,20.8554,902.96,0.161509,0.0,0.0
10025,2506,26.8136,27.4225,161.977,114.019,111.515,-0.0097208,0.089411,20.8511,902.96,0.198913,0.0,0.0
10050,2512.25,25.9551,27.3646,158.396,113.976,111.804,-0.00953805,0.0896499,20.8538,902.94,0.172289,0.0,0.0
10075,2518.5,26.1775,27.4786,162.837,114.012,112.437,-0.00950715,0.0893454,20.8532,902.95,0.124597,0.0,0.0
10100,2524.75,26.0663,27.446,159.783,114.062,112.148,-0.00970777,0.0905368,20.8535,902.93,0.151607,0.0,0.0
10125,2531,25.8754,27.3804,163.152,114.17,112.429,-0.00964282,0.0894237,20.8548,902.92,0.137639,0.0,0.0
10150,2537.25,26.3553,27.3911,158.825,114.27,111.635,-0.00947171,0.0904517,20.8524,902.93,0.208945,0.0,0.0
10175,2543.5,26.1285,27.5667,157.347,114.442,111.934,-0.00961483,0.0891428,20.8546,902.89,0.1985,0.0,0.0
10200,2549.75,26.0092,27.6796,159.359,114.59,112.849,-0.00950643,0.0886646,20.8531,902.9,0.137125,0.0,0.0
10225,2556,25.4385,26.9602,158.731,114.789,113.095,-0.00983887,0.0912068,20.848,902.86,0.133131,0.0,0.0
10250,2562.25,25.9322,27.7987,160.819,114.968,112.988,-0.00988973,0.0974019,20.8404,902.88,0.155614,0.0,0.0
10275,2568.5,26.0356,27.6367,158.333,115.118,113.288,-0.00972296,0.0945195,20.8449,902.84,0.143543,0.0,0.0
10300,2574.75,26.167,27.2843,163.895,115.207,113.004,-0.00989288,0.0921751,20.8466,902.83,0.172938,0.0,0.0
10325,2581,26.1175,27.1775,162.58,115.289,113.671,-0.00974571,0.0922621,20.8453,902.83,0.126603,0.0,0.0
10350,2587.25,26.0535,26.9491,160.723,115.36,113.652,-0.00994095,0.0917867,20.8458,902.82,0.133653,0.0,0.0
10375,2593.5,25.7665,27.7462,160.849,115.446,113.594,-0.00965801,0.0911093,20.8464,902.83,0.144932,0.0,0.0
10400,2599.75,26.3943,27.6439,155.879,115.519,113.616,-0.00954383,0.0916547,20.847,902.79,0.148802,0.0,0.0
10425,2606,26.1856,27.6343,155.098,115.566,113.742,-0.00934745,0.092445,20.8459,902.79,0.142504,0.0,0.0
10450,2612.25,26.0627,27.7376,156.662,115.614,113.249,-0.00971052,0.0930005,20.8443,902.75,0.185165,0.0,0.0
10475,2618.5,25.5781,26.8644,155.385,115.634,113.61,-0.0094265,0.0921853,20.8442,902.76,0.158177,0.0,0.0
10500,2624.75,26.2508,27.5066,156.906,115.629,113.81,-0.00960582,0.0912752,20.8461,902.74,0.14204,0.0,0.0
10525,2631,25.8076,27.6516,159.349,115.634,113.268,-0.00934184,0.0909125,20.8457,902.709,0.185198,0.0,0.0
10550,2637.25,26.1588,27.0214,158.538,115.641,113.224,-0.00957763,0.0902025,20.8478,902.709,0.189182,0.0,0.0
10575,2643.5,26.3185,27.767,158.822,115.641,113.853,-0.00956428,0.0897744,20.8477,902.679,0.139531,0.0,0.0
10600,2649.75,26.0129,27.614,164.675,115.655,113.925,-0.00942936,0.0894095,20.8485,902.7,0.13506,0.0,0.0
10625,2656,25.7458,27.276,155.909,115.655,113.581,-0.00966732,0.0890283,20.8487,902.69,0.162114,0.0,0.0
10650,2662.25,26.4865,27.5266,161.949,115.652,113.365,-0.0098598,0.0894341,20.846,902.69,0.178906,0.0,0.0
10675,2668.5,25.9287,27.4863,160.231,115.662,113.245,-0.00960766,0.0903297,20.8436,902.679,0.189176,0.0,0.0
10700,2674.75,25.5906,27.2558,156.483,115.656,113.777,-0.00950308,0.0910305,20.844,902.679,0.146739,0.0,0.0
10725,2681,25.6772,27.212,157.721,115.639,113.342,-0.00974346,0.0909395,20.8437,902.649,0.179712,0.0,0.0
10750,2687.25,26.144,27.0593,163.444,115.683,113.341,-0.00976277,0.0920722,20.8403,902.639,0.183211,0.0,0.0
10775,2693.5,26.1987,27.7966,160.436,115.665,113.34,-0.00972987,0.0933509,20.8408,902.639,0.1819,0.0,0.0
10800,2699.75,25.9804,27.2953,160.094,115.66,113.721,-0.00962508,0.0933781,20.8428,902.629,0.151436,0.0,0.0
10825,2706,26.1362,27.3801,163.265,115.67,114.073,-0.00933612,0.0919168,20.843,902.609,0.124563,0.0,0.0
10850,2712.25,26.3882,27.5535,156.708,115.673,113.48,-0.00955949,0.0903497,20.8455,902.589,0.171453,0.0,0.0
10875,2718.5,26.5214,27.679,158.652,115.663,114.219,-0.00961619,0.0896586,20.8471,902.579,0.112512,0.0,0.0
10900,2724.75,25.8178,27.5107,159.967,115.668,113.554,-0.00963006,0.0900878,20.8461,902.569,0.165215,0.0,0.0
10925,2731,26.05,27.1748,159.073,115.677,113.645,-0.00946795,0.0903527,20.8458,902.549,0.158723,0.0,0.0
10950,2737.25,25.5837,27.8725,159.947,115.654,113.6,-0.00968078,0.0909365,20.8445,902.539,0.160546,0.0,0.0
10975,2743.5,26.101,27.6553,160.063,115.666,113.311,-0.00958731,0.0915748,20.8426,902.529,0.184275,0.0,0.0
11000,2749.75,26.0916,27.2842,155.686,115.663,113.594,-0.00974354,0.0911537,20.8434,902.499,0.161713,0.0,0.0
11025,2756,25.6443,26.9003,160.238,115.661,113.71,-0.00938414,0.0910139,20.8464,902.499,0.152347,0.0,0.0
11050,2762.25,25.6839,27.1936,161.723,115.671,113.682,-0.00967214,0.0922377,20.8437,902.489,0.155407,0.0,0.0
11075,2768.5,25.9956,27.0105,160.995,115.665,113.556,-0.00995309,0.0914987,20.8439,902.489,0.164813,0.0,0.0
11100,2774.75,26.4706,27.6327,156.111,115.673,113.484,-0.0100744,0.0911604,20.8436,902.469,0.171125,0.0,0.0
11125,2781,26.1022,27.3913,157.678,115.67,113.551,-0.00982984,0.0905509,20.845,902.459,0.165542,0.0,0.0
11150,2787.25,26.1327,27.833,159.01,115.67,113.588,-0.0096699,0.0910111,20.8451,902.459,0.162697,0.0,0.0
11175,2793.5,25.9299,27.4402,164.663,115.66,113.858,-0.00968163,0.0921765,20.8403,902.449,0.140661,0.0,0.0
11200,2799.75,25.7902,26.9817,155.622,115.658,114.045,-0.00972057,0.0914036,20.8398,902.439,0.125794,0.0,0.0
11225,2806,26.5567,27.1432,158.399,115.632,113.772,-0.00971043,0.0903889,20.8429,902.449,0.145244,0.0,0.0
11250,2812.25,25.714,27.2629,160.606,115.63,114.209,-0.00964223,0.0900375,20.8431,902.349,0.110758,0.0,0.0
11275,2818.5,26.0104,27.845,160.183,115.638,114.401,-0.00964521,0.0901825,20.8435,902.459,0.096303,0.0,0.0
11300,2824.75,25.2057,26.952,158.353,115.63,113.153,-0.00937745,0.0909389,20.843,902.419,0.193906,0.0,0.0
11325,2831,25.1619,27.0627,156.965,115.608,113.568,-0.00954609,0.0913766,20.8432,902.389,0.159526,0.0,0.0
11350,2837.25,25.591,27.0942,159.806,115.612,114.168,-0.00981393,0.0898777,20.8455,902.359,0.112602,0.0,0.0
11375,2843.5,25.9192,26.6806,158.281,115.573,113.845,-0.00960105,0.0890452,20.8486,902.369,0.134971,0.0,0.0
11400,2849.75,25.3173,26.637,154.879,115.515,113.53,-0.00980033,0.0885846,20.8489,902.349,0.155221,0.0,0.0
11425,2856,25.5504,26.8442,159.794,115.412,113.617,-0.00974227,0.0881698,20.85,902.339,0.140442,0.0,0.0
11450,2862.25,25.2527,27.0065,158.366,115.283,113.612,-0.00975152,0.0916341,20.8414,902.339,0.130793,0.0,0.0
11475,2868.5,25.2422,26.4575,159.62,115.063,113.549,-0.00945335,0.0921262,20.841,902.319,0.118659,0.0,0.0
11500,2874.75,25.3695,26.7586,159.511,114.845,113.197,-0.00952403,0.0911211,20.8414,902.289,0.129411,0.0,0.0
11525,2881,25.8955,26.8227,161.448,114.612,113.328,-0.00948517,0.0910333,20.8418,902.289,0.100945,0.0,0.0
11550,2887.25,25.5417,26.7737,160.873,114.389,112.46,-0.00937462,0.0903173,20.8419,902.299,0.152324,0.0,0.0
11575,2893.5,25.5288,26.9402,159.042,114.2,112.498,-0.00943251,0.0891254,20.8435,902.279,0.13444,0.0,0.0
11600,2899.75,26.1376,26.6487,158.91,114.059,112.332,-0.00947532,0.0880633,20.8491,902.279,0.136624,0.0,0.0
11625,2906,26.0729,27.0347,157.497,113.988,111.768,-0.00969812,0.0866017,20.8529,902.259,0.176214,0.0,0.0
11650,2912.25,25.2893,26.4945,159.182,113.979,112.836,-0.00966574,0.0868417,20.8517,902.219,0.0903474,0.0,0.0
11675,2918.5,25.5029,26.735,158.556,114.055,112.258,-0.00939295,0.0878521,20.846,902.229,0.142193,0.0,0.0
11700,2924.75,25.6266,26.8239,159.109,114.142,112.519,-0.00980282,0.0884101,20.8431,902.239,0.128278,0.0,0.0
11725,2931,25.3792,27.0824,165.637,114.311,112.741,,0.0881273,,902.199,0.123876,0.0,0.0
11750,2937.25,25.7117,27.0189,164.254,114.492,112.874,,,,902.209,0.127489,0.0,0.0
11758,2939.25,25.2199,26.5398,158.481,114.556,112.752,,,,902.199,0.14215,0.0,0.0