File: 01_Data/LDPE/FTIR/IS/LDPE_IS_S_220831_R8.dpt
7497.03,0.48972
7491.25,0.49977
7485.46,0.49505
7479.67,0.49221
7473.89,0.49196
7468.1,0.49338
7462.32,0.48698
7456.53,0.48616
7450.74,0.48627
7444.96,0.49018
7439.17,0.49742
7433.38,0.47941
7427.6,0.49397
7421.81,0.49454
7416.03,0.48485
7410.24,0.49088
7404.45,0.49068
7398.67,0.48376
7392.88,0.48834
7387.09,0.47653
7381.31,0.47834
7375.52,0.47608
7369.74,0.47091
7363.95,0.46931
7358.16,0.46478
7352.38,0.46510
7346.59,0.44831
7340.8,0.45397
7335.02,0.44930
7329.23,0.44295
7323.45,0.44570
7317.66,0.43960
7311.87,0.42554
7306.09,0.42543
7300.3,0.42587
7294.51,0.41551
7288.73,0.40299
7282.94,0.39706
7277.16,0.38839
7271.37,0.37016
7265.58,0.37269
7259.8,0.36594
7254.01,0.35859
7248.22,0.35293
7242.44,0.33546
7236.65,0.32150
7230.87,0.31651
7225.08,0.30362
7219.29,0.29898
7213.51,0.27383
7207.72,0.26828
7201.93,0.24662
7196.15,0.23347
7190.36,0.21813
7184.58,0.19576
7178.79,0.18755
7173,0.17193
7167.22,0.19561
7161.43,0.21721
7155.65,0.24135
7149.86,0.25425
7144.07,0.26636
7138.29,0.26791
7132.5,0.27211
7126.71,0.27710
7120.93,0.27139
7115.14,0.26727
7109.36,0.26215
7103.57,0.25456
7097.78,0.24550
7092,0.23888
7086.21,0.22990
7080.42,0.22707
7074.64,0.21713
7068.85,0.20683
7063.07,0.20165
7057.28,0.21745
7051.49,0.21181
7045.71,0.22071
7039.92,0.22422
7034.13,0.22158
7028.35,0.22500
7022.56,0.22851
7016.78,0.22474
7010.99,0.23237
7005.2,0.23143
6999.42,0.22916
6993.63,0.24399
6987.84,0.24855
6982.06,0.24285
6976.27,0.24275
6970.49,0.23996
6964.7,0.24286
6958.91,0.24330
6953.13,0.24892
6947.34,0.25228
6941.55,0.25418
6935.77,0.25993
6929.98,0.26570
6924.2,0.27155
6918.41,0.27932
6912.62,0.27927
6906.84,0.28273
6901.05,0.28830
6895.26,0.29579
6889.48,0.30406
6883.69,0.30627
6877.91,0.31012
6872.12,0.31253
6866.33,0.31303
6860.55,0.32333
6854.76,0.32623
6848.97,0.32919
6843.19,0.33100
6837.4,0.33225
6831.62,0.33852
6825.83,0.34117
6820.04,0.34555
6814.26,0.35564
6808.47,0.36312
6802.68,0.36699
6796.9,0.37025
6791.11,0.38637
6785.33,0.38377
6779.54,0.38823
6773.75,0.39054
6767.97,0.39192
6762.18,0.39908
6756.39,0.39960
6750.61,0.40288
6744.82,0.40642
6739.04,0.41116
6733.25,0.41099
6727.46,0.41623
6721.68,0.42279
6715.89,0.42002
6710.1,0.42666
6704.32,0.42776
6698.53,0.42612
6692.75,0.43541
6686.96,0.43322
6681.17,0.43876
6675.39,0.44003
6669.6,0.44346
6663.82,0.44260
6658.03,0.44605
6652.24,0.44837
6646.46,0.44913
6640.67,0.45160
6634.88,0.44662
6629.1,0.45217
6623.31,0.45149
6617.53,0.45205
6611.74,0.45510
6605.95,0.44960
6600.17,0.45334
6594.38,0.45853
6588.59,0.45293
6582.81,0.45358
6577.02,0.45443
6571.24,0.45552
6565.45,0.45091
6559.66,0.45532
6553.88,0.45060
6548.09,0.45147
6542.3,0.45210
6536.52,0.45024
6530.73,0.44961
6524.95,0.45091
6519.16,0.44755
6513.37,0.44365
6507.59,0.44458
6501.8,0.44289
6496.01,0.43908
6490.23,0.43545
6484.44,0.43264
6478.66,0.43427
6472.87,0.44734
6467.08,0.46037
6461.3,0.46782
6455.51,0.47337
6449.72,0.47954
6443.94,0.48145
6438.15,0.48558
6432.37,0.49065
6426.58,0.48855
6420.79,0.48896
6415.01,0.49010
6409.22,0.49866
6403.43,0.49673
6397.65,0.49905
6391.86,0.50275
6386.08,0.50645
6380.29,0.49957
6374.5,0.51027
6368.72,0.50863
6362.93,0.50969
6357.14,0.51364
6351.36,0.51680
6345.57,0.51757
6339.79,0.52255
6334,0.51997
6328.21,0.52243
6322.43,0.51995
6316.64,0.52281
6310.85,0.51575
6305.07,0.51880
6299.28,0.52349
6293.5,0.52090
6287.71,0.52272
6281.92,0.52207
6276.14,0.51788
6270.35,0.52255
6264.56,0.52260
6258.78,0.52288
6252.99,0.52213
6247.21,0.52164
6241.42,0.52107
6235.63,0.52026
6229.85,0.51860
6224.06,0.51950
6218.27,0.52318
6212.49,0.51934
6206.7,0.51752
6200.92,0.51883
6195.13,0.51695
6189.34,0.51433
6183.56,0.51446
6177.77,0.51781
6171.98,0.51414
6166.2,0.51180
6160.41,0.51020
6154.63,0.50663
6148.84,0.50433
6143.05,0.50461
6137.27,0.49887
6131.48,0.49632
6125.7,0.49729
6119.91,0.49541
6114.12,0.49444
6108.34,0.49191
6102.55,0.49110
6096.76,0.49073
6090.98,0.49119
6085.19,0.48794
6079.41,0.48521
6073.62,0.48506
6067.83,0.48012
6062.05,0.47958
6056.26,0.47807
6050.47,0.47735
6044.69,0.47469
6038.9,0.46968
6033.12,0.46333
6027.33,0.46074
6021.54,0.45302
6015.76,0.44937
6009.97,0.44104
6004.18,0.43942
5998.4,0.43185
5992.61,0.42191
5986.83,0.41509
5981.04,0.40702
5975.25,0.39886
5969.47,0.38462
5963.68,0.37349
5957.89,0.36305
5952.11,0.35025
5946.32,0.34339
5940.54,0.32718
5934.75,0.31077
5928.96,0.28907
5923.18,0.27129
5917.39,0.24968
5911.6,0.22806
5905.82,0.21461
5900.03,0.20321
5894.25,0.19297
5888.46,0.17692
5882.67,0.16124
5876.89,0.14018
5871.1,0.12064
5865.31,0.10126
5859.53,0.08929
5853.74,0.07800
5847.96,0.07125
5842.17,0.06848
5836.38,0.06339
5830.6,0.05992
5824.81,0.05842
5819.02,0.05801
5813.24,0.05970
5807.45,0.05912
5801.67,0.05691
5795.88,0.05910
5790.09,0.05864
5784.31,0.05488
5778.52,0.05510
5772.73,0.05478
5766.95,0.05562
5761.16,0.05660
5755.38,0.05622
5749.59,0.05907
5743.8,0.06340
5738.02,0.06434
5732.23,0.06610
5726.44,0.06945
5720.66,0.07674
5714.87,0.07872
5709.09,0.07578
5703.3,0.07259
5697.51,0.07066
5691.73,0.06640
5685.94,0.06237
5680.15,0.06101
5674.37,0.05966
5668.58,0.05708
5662.8,0.05838
5657.01,0.05801
5651.22,0.06363
5645.44,0.06863
5639.65,0.07414
5633.87,0.07795
5628.08,0.07858
5622.29,0.08196
5616.51,0.08449
5610.72,0.09076
5604.93,0.09224
5599.15,0.09533
5593.36,0.09831
5587.58,0.09726
5581.79,0.09610
5576,0.09399
5570.22,0.08987
5564.43,0.08915
5558.64,0.08545
5552.86,0.08581
5547.07,0.08545
5541.29,0.08599
5535.5,0.08643
5529.71,0.08869
5523.93,0.08887
5518.14,0.08646
5512.35,0.08780
5506.57,0.08678
5500.78,0.08626
5495,0.08486
5489.21,0.08570
5483.42,0.08693
5477.64,0.09120
5471.85,0.09122
5466.06,0.09419
5460.28,0.09636
5454.49,0.09680
5448.71,0.09777
5442.92,0.09956
5437.13,0.10201
5431.35,0.10262
5425.56,0.10450
5419.77,0.10640
5413.99,0.11039
5408.2,0.11763
5402.42,0.12172
5396.63,0.12572
5390.84,0.12923
5385.06,0.13274
5379.27,0.13506
5373.48,0.13783
5367.7,0.13940
5361.91,0.14423
5356.13,0.14917
5350.34,0.15399
5344.55,0.16131
5338.77,0.16343
5332.98,0.16524
5327.19,0.16622
5321.41,0.16546
5315.62,0.16090
5309.84,0.15834
5304.05,0.16028
5298.26,0.16206
5292.48,0.16339
5286.69,0.16359
5280.9,0.16296
5275.12,0.16261
5269.33,0.16402
5263.55,0.16546
5257.76,0.16421
5251.97,0.16240
5246.19,0.16423
5240.4,0.16267
5234.61,0.16218
5228.83,0.16262
5223.04,0.15990
5217.26,0.16061
5211.47,0.15797
5205.68,0.16027
5199.9,0.16050
5194.11,0.15954
5188.32,0.15955
5182.54,0.16032
5176.75,0.16021
5170.97,0.16140
5165.18,0.16128
5159.39,0.16211
5153.61,0.16308
5147.82,0.16616
5142.03,0.16620
5136.25,0.16864
5130.46,0.16822
5124.68,0.16710
5118.89,0.16590
5113.1,0.16681
5107.32,0.16485
5101.53,0.16230
5095.75,0.16428
5089.96,0.16482
5084.17,0.16675
5078.39,0.16809
5072.6,0.16784
5066.81,0.16757
5061.03,0.16858
5055.24,0.17186
5049.46,0.17306
5043.67,0.17457
5037.88,0.17320
5032.1,0.17351
5026.31,0.17210
5020.52,0.16957
5014.74,0.17008
5008.95,0.16884
5003.17,0.16751
4997.38,0.16279
4991.59,0.15798
4985.81,0.15365
4980.02,0.14909
4974.23,0.14772
4968.45,0.14581
4962.66,0.14663
4956.88,0.15319
4951.09,0.16313
4945.3,0.16827
4939.52,0.16920
4933.73,0.17012
4927.94,0.17266
4922.16,0.17113
4916.37,0.17310
4910.59,0.17365
4904.8,0.17220
4899.01,0.17052
4893.23,0.17044
4887.44,0.16780
4881.65,0.16728
4875.87,0.16671
4870.08,0.16568
4864.3,0.16705
4858.51,0.17023
4852.72,0.17590
4846.94,0.18194
4841.15,0.18780
4835.36,0.19065
4829.58,0.19459
4823.79,0.19857
4818.01,0.20363
4812.22,0.20826
4806.43,0.21216
4800.65,0.21496
4794.86,0.21752
4789.07,0.21988
4783.29,0.22100
4777.5,0.22367
4771.72,0.22854
4765.93,0.23343
4760.14,0.23683
4754.36,0.23885
4748.57,0.24184
4742.78,0.24463
4737,0.24624
4731.21,0.24799
4725.43,0.25070
4719.64,0.25407
4713.85,0.25939
4708.07,0.26004
4702.28,0.26074
4696.49,0.26160
4690.71,0.26070
4684.92,0.25828
4679.14,0.25397
4673.35,0.24670
4667.56,0.24408
4661.78,0.24688
4655.99,0.25210
4650.2,0.25447
4644.42,0.25493
4638.63,0.25416
4632.85,0.25360
4627.06,0.25191
4621.27,0.24951
4615.49,0.24755
4609.7,0.24392
4603.92,0.24115
4598.13,0.23979
4592.34,0.23716
4586.56,0.23395
4580.77,0.23129
4574.98,0.22721
4569.2,0.22354
4563.41,0.21715
4557.63,0.21096
4551.84,0.20458
4546.05,0.19711
4540.27,0.19204
4534.48,0.18545
4528.69,0.17964
4522.91,0.17384
4517.12,0.16668
4511.34,0.16013
4505.55,0.15193
4499.76,0.14590
4493.98,0.13805
4488.19,0.13180
4482.4,0.12525
4476.62,0.11854
4470.83,0.11214
4465.05,0.10611
4459.26,0.09969
4453.47,0.09294
4447.69,0.08714
4441.9,0.07998
4436.11,0.07494
4430.33,0.07040
4424.54,0.06663
4418.76,0.06369
4412.97,0.06077
4407.18,0.05995
4401.4,0.05833
4395.61,0.05817
4389.82,0.05736
4384.04,0.05616
4378.25,0.05756
4372.47,0.05774
4366.68,0.05685
4360.89,0.05641
4355.11,0.05718
4349.32,0.05594
4343.53,0.05671
4337.75,0.05680
4331.96,0.05685
4326.18,0.05628
4320.39,0.05700
4314.6,0.05601
4308.82,0.05653
4303.03,0.05730
4297.24,0.05741
4291.46,0.05701
4285.67,0.05570
4279.89,0.05618
4274.1,0.05631
4268.31,0.05631
4262.53,0.05689
4256.74,0.05653
4250.95,0.05679
4245.17,0.05665
4239.38,0.05750
4233.6,0.05699
4227.81,0.05661
4222.02,0.05753
4216.24,0.05687
4210.45,0.05701
4204.66,0.05658
4198.88,0.05730
4193.09,0.05699
4187.31,0.05711
4181.52,0.05611
4175.73,0.05682
4169.95,0.05656
4164.16,0.05718
4158.37,0.05746
4152.59,0.05712
4146.8,0.05738
4141.02,0.05695
4135.23,0.05652
4129.44,0.05675
4123.66,0.05637
4117.87,0.05683
4112.09,0.05666
4106.3,0.05698
4100.51,0.05691
4094.73,0.05667
4088.94,0.05667
4083.15,0.05684
4077.37,0.05694
4071.58,0.05768
4065.8,0.05722
4060.01,0.05692
4054.22,0.05639
4048.44,0.05716
4042.65,0.05693
4036.86,0.05693
4031.08,0.05683
4025.29,0.05649
4019.51,0.05727
4013.72,0.05735
4007.93,0.05753
4002.15,0.05751
3996.36,0.05661
3990.57,0.05713
3984.79,0.05697
3979,0.05750
3973.22,0.05718
3967.43,0.05744
3961.64,0.05763
3955.86,0.05741
3950.07,0.05715
3944.28,0.05742
3938.5,0.05666
3932.71,0.05690
3926.93,0.05718
3921.14,0.05675
3915.35,0.05751
3909.57,0.05737
3903.78,0.05705
3897.99,0.05695
3892.21,0.05717
3886.42,0.05742
3880.64,0.05677
3874.85,0.05712
3869.06,0.05828
3863.28,0.05733
3857.49,0.05772
3851.7,0.05692
3845.92,0.05723
3840.13,0.05750
3834.35,0.05772
3828.56,0.05684
3822.77,0.05702
3816.99,0.05732
3811.2,0.05776
3805.41,0.05757
3799.63,0.05751
3793.84,0.05730
3788.06,0.05797
3782.27,0.05789
3776.48,0.05833
3770.7,0.05779
3764.91,0.05820
3759.12,0.05782
3753.34,0.05750
3747.55,0.05791
3741.77,0.05736
3735.98,0.05826
3730.19,0.05817
3724.41,0.05791
3718.62,0.05732
3712.83,0.05814
3707.05,0.05765
3701.26,0.05748
3695.48,0.05832
3689.69,0.05791
3683.9,0.05754
3678.12,0.05782
3672.33,0.05700
3666.54,0.05704
3660.76,0.05725
3654.97,0.05780
3649.19,0.05740
3643.4,0.05661
3637.61,0.05695
3631.83,0.05735
3626.04,0.05710
3620.25,0.05697
3614.47,0.05587
3608.68,0.05653
3602.9,0.05653
3597.11,0.05623
3591.32,0.05703
3585.54,0.05714
3579.75,0.05725
3573.97,0.05696
3568.18,0.05805
3562.39,0.05894
3556.61,0.05861
3550.82,0.05947
3545.03,0.05979
3539.25,0.06044
3533.46,0.05977
3527.68,0.06029
3521.89,0.06042
3516.1,0.06016
3510.32,0.05988
3504.53,0.05968
3498.74,0.05994
3492.96,0.05917
3487.17,0.05928
3481.39,0.05881
3475.6,0.05857
3469.81,0.05859
3464.03,0.05844
3458.24,0.05703
3452.45,0.05707
3446.67,0.05717
3440.88,0.05665
3435.1,0.05665
3429.31,0.05615
3423.52,0.05674
3417.74,0.05722
3411.95,0.05661
3406.16,0.05610
3400.38,0.05634
3394.59,0.05618
3388.81,0.05640
3383.02,0.05556
3377.23,0.05545
3371.45,0.05573
3365.66,0.05610
3359.87,0.05615
3354.09,0.05576
3348.3,0.05591
3342.52,0.05584
3336.73,0.05548
3330.94,0.05624
3325.16,0.05613
3319.37,0.05646
3313.58,0.05650
3307.8,0.05651
3302.01,0.05678
3296.23,0.05724
3290.44,0.05676
3284.65,0.05701
3278.87,0.05652
3273.08,0.05651
3267.29,0.05579
3261.51,0.05597
3255.72,0.05636
3249.94,0.05605
3244.15,0.05632
3238.36,0.05609
3232.58,0.05574
3226.79,0.05522
3221,0.05548
3215.22,0.05564
3209.43,0.05531
3203.65,0.05520
3197.86,0.05520
3192.07,0.05486
3186.29,0.05481
3180.5,0.05444
3174.71,0.05449
3168.93,0.05476
3163.14,0.05449
3157.36,0.05438
3151.57,0.05470
3145.78,0.05426
3140,0.05393
3134.21,0.05421
3128.42,0.05369
3122.64,0.05372
3116.85,0.05399
3111.07,0.05410
3105.28,0.05356
3099.49,0.05335
3093.71,0.05310
3087.92,0.05302
3082.14,0.05294
3076.35,0.05241
3070.56,0.05252
3064.78,0.05260
3058.99,0.05211
3053.2,0.05178
3047.42,0.05237
3041.63,0.05168
3035.85,0.05142
3030.06,0.05143
3024.27,0.05104
3018.49,0.05093
3012.7,0.05007
3006.91,0.04986
3001.13,0.04935
2995.34,0.04975
2989.56,0.04863
2983.77,0.04778
2977.98,0.04677
2972.2,0.04621
2966.41,0.04487
2960.62,0.04400
2954.84,0.04321
2949.05,0.04147
2943.27,0.03829
2937.48,0.03558
2931.69,0.03624
2925.91,0.04345
2920.12,0.06634
2914.33,0.08338
2908.55,0.07452
2902.76,0.06914
2896.98,0.06615
2891.19,0.06457
2885.4,0.06335
2879.62,0.06105
2873.83,0.05898
2868.04,0.05579
2862.26,0.05201
2856.47,0.05066
2850.69,0.06463
2844.9,0.07969
2839.11,0.07260
2833.33,0.06880
2827.54,0.06670
2821.75,0.06537
2815.97,0.06424
2810.18,0.06357
2804.4,0.06295
2798.61,0.06275
2792.82,0.06209
2787.04,0.06199
2781.25,0.06146
2775.46,0.06168
2769.68,0.06129
2763.89,0.06067
2758.11,0.06029
2752.32,0.06031
2746.53,0.06038
2740.75,0.06019
2734.96,0.06037
2729.17,0.05976
2723.39,0.05994
2717.6,0.05982
2711.82,0.05945
2706.03,0.05970
2700.24,0.05969
2694.46,0.05944
2688.67,0.05951
2682.88,0.05949
2677.1,0.05889
2671.31,0.05914
2665.53,0.05913
2659.74,0.05911
2653.95,0.05885
2648.17,0.05898
2642.38,0.05894
2636.59,0.05866
2630.81,0.05863
2625.02,0.05842
2619.24,0.05867
2613.45,0.05863
2607.66,0.05879
2601.88,0.05855
2596.09,0.05895
2590.3,0.05878
2584.52,0.05861
2578.73,0.05871
2572.95,0.05840
2567.16,0.05817
2561.37,0.05838
2555.59,0.05860
2549.8,0.05859
2544.02,0.05860
2538.23,0.05848
2532.44,0.05802
2526.66,0.05821
2520.87,0.05824
2515.08,0.05830
2509.3,0.05845
2503.51,0.05862
2497.73,0.05847
2491.94,0.05849
2486.15,0.05893
2480.37,0.05848
2474.58,0.05844
2468.79,0.05887
2463.01,0.05884
2457.22,0.05880
2451.44,0.05878
2445.65,0.05879
2439.86,0.05906
2434.08,0.05877
2428.29,0.05860
2422.5,0.05829
2416.72,0.05835
2410.93,0.05823
2405.15,0.05850
2399.36,0.05826
2393.57,0.05828
2387.79,0.05868
2382,0.05832
2376.21,0.05827
2370.43,0.05851
2364.64,0.05865
2358.86,0.05797
2353.07,0.05822
2347.28,0.05854
2341.5,0.05824
2335.71,0.05852
2329.92,0.05782
2324.14,0.05817
2318.35,0.05852
2312.57,0.05809
2306.78,0.05789
2300.99,0.05787
2295.21,0.05808
2289.42,0.05855
2283.63,0.05839
2277.85,0.05821
2272.06,0.05843
2266.28,0.05841
2260.49,0.05884
2254.7,0.05848
2248.92,0.05854
2243.13,0.05826
2237.34,0.05932
2231.56,0.05988
2225.77,0.06048
2219.99,0.05992
2214.2,0.06077
2208.41,0.06093
2202.63,0.06047
2196.84,0.06041
2191.05,0.06020
2185.27,0.06011
2179.48,0.06040
2173.7,0.06035
2167.91,0.06019
2162.12,0.05944
2156.34,0.05899
2150.55,0.05929
2144.76,0.05878
2138.98,0.06021
2133.19,0.06157
2127.41,0.06343
2121.62,0.06494
2115.83,0.06587
2110.05,0.06618
2104.26,0.06598
2098.47,0.06568
2092.69,0.06515
2086.9,0.06404
2081.12,0.06315
2075.33,0.06233
2069.54,0.06160
2063.76,0.06077
2057.97,0.05987
2052.19,0.05942
2046.4,0.05872
2040.61,0.05832
2034.83,0.05847
2029.04,0.05793
2023.25,0.05785
2017.47,0.05809
2011.68,0.05796
2005.9,0.05976
2000.11,0.06272
1994.32,0.06519
1988.54,0.06695
1982.75,0.06786
1976.96,0.06807
1971.18,0.06770
1965.39,0.06646
1959.61,0.06517
1953.82,0.06510
1948.03,0.06524
1942.25,0.06482
1936.46,0.06410
1930.67,0.06333
1924.89,0.06262
1919.1,0.06137
1913.32,0.06045
1907.53,0.05922
1901.74,0.05802
1895.96,0.05831
1890.17,0.05882
1884.38,0.06240
1878.6,0.06707
1872.81,0.07091
1867.03,0.07390
1861.24,0.07763
1855.45,0.07986
1849.67,0.08201
1843.88,0.08218
1838.09,0.08110
1832.31,0.07855
1826.52,0.07192
1820.74,0.06576
1814.95,0.06544
1809.16,0.06759
1803.38,0.06930
1797.59,0.07049
1791.8,0.07090
1786.02,0.07090
1780.23,0.07086
1774.45,0.07076
1768.66,0.06973
1762.87,0.06848
1757.09,0.06771
1751.3,0.06606
1745.51,0.06400
1739.73,0.06151
1733.94,0.05891
1728.16,0.05758
1722.37,0.05684
1716.58,0.05652
1710.8,0.05809
1705.01,0.05889
1699.22,0.05917
1693.44,0.05935
1687.65,0.05902
1681.87,0.05875
1676.08,0.05859
1670.29,0.05808
1664.51,0.05799
1658.72,0.05718
1652.93,0.05687
1647.15,0.05672
1641.36,0.05659
1635.58,0.05691
1629.79,0.05663
1624,0.05643
1618.22,0.05682
1612.43,0.05662
1606.64,0.05642
1600.86,0.05637
1595.07,0.05647
1589.29,0.05642
1583.5,0.05624
1577.71,0.05575
1571.93,0.05610
1566.14,0.05578
1560.35,0.05610
1554.57,0.05572
1548.78,0.05555
1543,0.05553
1537.21,0.05545
1531.42,0.05565
1525.64,0.05559
1519.85,0.05503
1514.07,0.05524
1508.28,0.05524
1502.49,0.05510
1496.71,0.05472
1490.92,0.05430
1485.13,0.05372
1479.35,0.05154
1473.56,0.05133
1467.78,0.05532
1461.99,0.05930
1456.2,0.05978
1450.42,0.05929
1444.63,0.05888
1438.84,0.05866
1433.06,0.05865
1427.27,0.05829
1421.49,0.05839
1415.7,0.05774
1409.91,0.05781
1404.13,0.05796
1398.34,0.05733
1392.55,0.05721
1386.77,0.05676
1380.98,0.05653
1375.2,0.05694
1369.41,0.05733
1363.62,0.05746
1357.84,0.05727
1352.05,0.05768
1346.26,0.05729
1340.48,0.05741
1334.69,0.05706
1328.91,0.05750
1323.12,0.05731
1317.33,0.05705
1311.55,0.05737
1305.76,0.05785
1299.97,0.05742
1294.19,0.05765
1288.4,0.05747
1282.62,0.05735
1276.83,0.05721
1271.04,0.05743
1265.26,0.05772
1259.47,0.05761
1253.68,0.05743
1247.9,0.05731
1242.11,0.05746
1236.33,0.05738
1230.54,0.05710
1224.75,0.05771
1218.97,0.05745
1213.18,0.05743
1207.39,0.05716
1201.61,0.05737
1195.82,0.05726
1190.04,0.05675
1184.25,0.05778
1178.46,0.05727
1172.68,0.05756
1166.89,0.05681
1161.1,0.05680
1155.32,0.05772
1149.53,0.05728
1143.75,0.05747
1137.96,0.05731
1132.17,0.05730
1126.39,0.05685
1120.6,0.05711
1114.81,0.05718
1109.03,0.05696
1103.24,0.05681
1097.46,0.05631
1091.67,0.05697
1085.88,0.05601
1080.1,0.05738
1074.31,0.05710
1068.52,0.05691
1062.74,0.05689
1056.95,0.05678
1051.17,0.05671
1045.38,0.05696
1039.59,0.05699
1033.81,0.05732
1028.02,0.05794
1022.24,0.05769
1016.45,0.05817
1010.66,0.05716
1004.88,0.05737
999.09,0.05744
993.304,0.05719
987.518,0.05751
981.731,0.05744
975.945,0.05763
970.159,0.05700
964.373,0.05773
958.586,0.05715
952.8,0.05807
947.014,0.05790
941.228,0.05715
935.441,0.05779
929.655,0.05696
923.869,0.05740
918.083,0.05720
912.297,0.05753
906.51,0.05739
900.724,0.05638
894.938,0.05687
889.152,0.05699
883.365,0.05670
877.579,0.05730
871.793,0.05667
866.007,0.05759
860.22,0.05763
854.434,0.05732
848.648,0.05749
842.862,0.05714
837.075,0.05691
831.289,0.05724
825.503,0.05750
819.717,0.05694
813.931,0.05673
808.144,0.05709
802.358,0.05664
796.572,0.05725
790.786,0.05765
784.999,0.05679
779.213,0.05599
773.427,0.05696
767.641,0.05706
761.854,0.05642
756.068,0.05588
750.282,0.05522
744.496,0.05512
738.709,0.05466
732.923,0.05141
727.137,0.05575
721.351,0.05654
715.565,0.06284
709.778,0.06021
703.992,0.05954
698.206,0.05916
692.42,0.05864
686.633,0.05816
680.847,0.05913
675.061,0.05950
669.275,0.06217
663.488,0.06619
657.702,0.07165
651.916,0.08030
646.13,0.08766
640.343,0.09479
634.557,0.10162
628.771,0.10760
622.985,0.10994
617.198,0.11247
611.412,0.10706
605.626,0.09910
599.84,0.09109