File: 01_Data/LDPE/FTIR/IS/LDPE_IS_S_220831_R5.dpt
7497.03,0.48530
7491.25,0.48816
7485.46,0.48864
7479.67,0.48855
7473.89,0.49116
7468.1,0.48812
7462.32,0.48880
7456.53,0.48546
7450.74,0.48683
7444.96,0.48604
7439.17,0.48497
7433.38,0.47496
7427.6,0.48018
7421.81,0.48365
7416.03,0.48306
7410.24,0.47974
7404.45,0.48540
7398.67,0.47786
7392.88,0.48630
7387.09,0.48190
7381.31,0.47676
7375.52,0.47213
7369.74,0.46491
7363.95,0.46738
7358.16,0.46527
7352.38,0.46127
7346.59,0.46167
7340.8,0.45968
7335.02,0.45186
7329.23,0.44429
7323.45,0.44841
7317.66,0.43732
7311.87,0.42890
7306.09,0.42123
7300.3,0.41436
7294.51,0.41104
7288.73,0.40336
7282.94,0.39276
7277.16,0.38711
7271.37,0.37385
7265.58,0.36917
7259.8,0.36111
7254.01,0.35458
7248.22,0.34131
7242.44,0.33149
7236.65,0.32484
7230.87,0.31170
7225.08,0.30567
7219.29,0.28762
7213.51,0.27622
7207.72,0.26695
7201.93,0.24933
7196.15,0.22714
7190.36,0.21381
7184.58,0.19613
7178.79,0.18339
7173,0.17899
7167.22,0.18863
7161.43,0.20737
7155.65,0.24010
7149.86,0.25740
7144.07,0.26397
7138.29,0.27207
7132.5,0.27026
7126.71,0.26881
7120.93,0.26405
7115.14,0.25458
7109.36,0.24895
7103.57,0.24897
7097.78,0.24206
7092,0.23155
7086.21,0.23424
7080.42,0.22843
7074.64,0.21866
7068.85,0.21047
7063.07,0.20529
7057.28,0.20530
7051.49,0.21622
7045.71,0.23171
7039.92,0.22756
7034.13,0.22292
7028.35,0.22102
7022.56,0.22504
7016.78,0.22384
7010.99,0.22421
7005.2,0.23182
6999.42,0.23956
6993.63,0.24080
6987.84,0.24530
6982.06,0.24741
6976.27,0.24287
6970.49,0.24845
6964.7,0.24678
6958.91,0.24261
6953.13,0.24661
6947.34,0.24749
6941.55,0.25600
6935.77,0.26214
6929.98,0.26538
6924.2,0.27663
6918.41,0.28270
6912.62,0.27741
6906.84,0.28861
6901.05,0.29003
6895.26,0.29610
6889.48,0.29496
6883.69,0.30080
6877.91,0.30442
6872.12,0.31026
6866.33,0.31939
6860.55,0.31416
6854.76,0.32363
6848.97,0.32500
6843.19,0.33152
6837.4,0.33274
6831.62,0.33842
6825.83,0.34426
6820.04,0.35212
6814.26,0.35311
6808.47,0.35671
6802.68,0.36702
6796.9,0.37184
6791.11,0.37186
6785.33,0.37781
6779.54,0.37978
6773.75,0.38623
6767.97,0.39292
6762.18,0.39909
6756.39,0.40213
6750.61,0.40470
6744.82,0.40630
6739.04,0.41058
6733.25,0.41297
6727.46,0.41441
6721.68,0.41299
6715.89,0.42270
6710.1,0.42098
6704.32,0.42575
6698.53,0.42794
6692.75,0.43106
6686.96,0.43639
6681.17,0.43224
6675.39,0.43170
6669.6,0.43721
6663.82,0.43555
6658.03,0.44121
6652.24,0.44227
6646.46,0.44276
6640.67,0.44406
6634.88,0.44655
6629.1,0.44749
6623.31,0.44991
6617.53,0.45347
6611.74,0.45122
6605.95,0.45039
6600.17,0.45516
6594.38,0.45134
6588.59,0.45308
6582.81,0.45128
6577.02,0.45574
6571.24,0.44739
6565.45,0.44997
6559.66,0.45258
6553.88,0.45162
6548.09,0.45062
6542.3,0.44848
6536.52,0.45054
6530.73,0.44872
6524.95,0.44431
6519.16,0.44140
6513.37,0.43654
6507.59,0.43798
6501.8,0.43578
6496.01,0.43518
6490.23,0.43162
6484.44,0.42803
6478.66,0.43290
6472.87,0.44453
6467.08,0.45962
6461.3,0.46515
6455.51,0.46983
6449.72,0.47247
6443.94,0.47618
6438.15,0.47981
6432.37,0.48326
6426.58,0.48841
6420.79,0.48877
6415.01,0.48989
6409.22,0.49164
6403.43,0.49598
6397.65,0.49895
6391.86,0.50063
6386.08,0.50101
6380.29,0.50346
6374.5,0.50027
6368.72,0.50342
6362.93,0.50777
6357.14,0.51023
6351.36,0.51160
6345.57,0.51286
6339.79,0.51093
6334,0.51711
6328.21,0.51526
6322.43,0.51568
6316.64,0.51562
6310.85,0.51731
6305.07,0.51997
6299.28,0.51762
6293.5,0.51746
6287.71,0.51961
6281.92,0.51814
6276.14,0.51928
6270.35,0.51841
6264.56,0.51501
6258.78,0.51800
6252.99,0.51838
6247.21,0.51952
6241.42,0.51921
6235.63,0.51753
6229.85,0.51491
6224.06,0.51551
6218.27,0.51465
6212.49,0.51437
6206.7,0.51200
6200.92,0.51413
6195.13,0.51258
6189.34,0.51447
6183.56,0.51419
6177.77,0.50700
6171.98,0.50817
6166.2,0.51180
6160.41,0.50493
6154.63,0.50364
6148.84,0.50138
6143.05,0.49981
6137.27,0.49767
6131.48,0.49271
6125.7,0.49089
6119.91,0.49358
6114.12,0.49106
6108.34,0.48956
6102.55,0.49046
6096.76,0.48761
6090.98,0.48598
6085.19,0.48521
6079.41,0.48422
6073.62,0.47915
6067.83,0.47831
6062.05,0.47844
6056.26,0.47314
6050.47,0.47166
6044.69,0.46892
6038.9,0.46308
6033.12,0.45922
6027.33,0.45449
6021.54,0.45162
6015.76,0.44313
6009.97,0.44159
6004.18,0.43499
5998.4,0.42943
5992.61,0.42010
5986.83,0.41511
5981.04,0.40432
5975.25,0.39395
5969.47,0.38318
5963.68,0.37274
5957.89,0.35997
5952.11,0.34753
5946.32,0.33581
5940.54,0.32302
5934.75,0.30965
5928.96,0.29042
5923.18,0.26863
5917.39,0.24712
5911.6,0.22529
5905.82,0.21434
5900.03,0.20248
5894.25,0.19231
5888.46,0.17597
5882.67,0.15808
5876.89,0.14004
5871.1,0.12080
5865.31,0.10164
5859.53,0.08844
5853.74,0.07814
5847.96,0.07255
5842.17,0.06797
5836.38,0.06388
5830.6,0.06124
5824.81,0.05688
5819.02,0.05698
5813.24,0.05809
5807.45,0.05889
5801.67,0.05798
5795.88,0.05512
5790.09,0.05535
5784.31,0.05559
5778.52,0.05573
5772.73,0.05655
5766.95,0.05695
5761.16,0.05869
5755.38,0.05756
5749.59,0.06069
5743.8,0.06290
5738.02,0.06478
5732.23,0.06549
5726.44,0.07194
5720.66,0.07588
5714.87,0.07729
5709.09,0.07498
5703.3,0.07203
5697.51,0.06662
5691.73,0.06509
5685.94,0.06250
5680.15,0.06261
5674.37,0.06157
5668.58,0.05882
5662.8,0.05878
5657.01,0.06081
5651.22,0.06392
5645.44,0.06833
5639.65,0.07172
5633.87,0.07664
5628.08,0.07847
5622.29,0.08099
5616.51,0.08488
5610.72,0.08878
5604.93,0.09150
5599.15,0.09411
5593.36,0.09762
5587.58,0.09550
5581.79,0.09653
5576,0.09297
5570.22,0.08982
5564.43,0.08699
5558.64,0.08670
5552.86,0.08593
5547.07,0.08467
5541.29,0.08546
5535.5,0.08742
5529.71,0.08674
5523.93,0.08776
5518.14,0.08870
5512.35,0.08820
5506.57,0.08578
5500.78,0.08683
5495,0.08570
5489.21,0.08603
5483.42,0.08795
5477.64,0.09005
5471.85,0.09240
5466.06,0.09456
5460.28,0.09652
5454.49,0.09596
5448.71,0.09836
5442.92,0.09778
5437.13,0.10022
5431.35,0.10119
5425.56,0.10451
5419.77,0.10784
5413.99,0.11054
5408.2,0.11531
5402.42,0.12239
5396.63,0.12756
5390.84,0.12899
5385.06,0.13220
5379.27,0.13558
5373.48,0.13692
5367.7,0.14190
5361.91,0.14370
5356.13,0.14895
5350.34,0.15325
5344.55,0.15792
5338.77,0.16054
5332.98,0.16583
5327.19,0.16494
5321.41,0.16432
5315.62,0.16238
5309.84,0.15788
5304.05,0.15795
5298.26,0.16059
5292.48,0.16237
5286.69,0.16281
5280.9,0.16322
5275.12,0.16186
5269.33,0.16317
5263.55,0.16129
5257.76,0.16200
5251.97,0.16228
5246.19,0.16105
5240.4,0.16173
5234.61,0.15938
5228.83,0.16043
5223.04,0.15952
5217.26,0.15964
5211.47,0.15882
5205.68,0.15925
5199.9,0.15857
5194.11,0.15783
5188.32,0.15780
5182.54,0.15909
5176.75,0.15994
5170.97,0.15969
5165.18,0.16032
5159.39,0.16032
5153.61,0.16153
5147.82,0.16395
5142.03,0.16481
5136.25,0.16634
5130.46,0.16679
5124.68,0.16619
5118.89,0.16531
5113.1,0.16503
5107.32,0.16388
5101.53,0.16353
5095.75,0.16434
5089.96,0.16525
5084.17,0.16653
5078.39,0.16713
5072.6,0.16555
5066.81,0.16790
5061.03,0.16932
5055.24,0.16967
5049.46,0.17267
5043.67,0.17269
5037.88,0.17261
5032.1,0.17215
5026.31,0.17162
5020.52,0.16877
5014.74,0.16939
5008.95,0.16777
5003.17,0.16607
4997.38,0.16100
4991.59,0.15798
4985.81,0.15337
4980.02,0.15051
4974.23,0.14582
4968.45,0.14471
4962.66,0.14467
4956.88,0.15191
4951.09,0.16183
4945.3,0.16562
4939.52,0.16911
4933.73,0.17000
4927.94,0.17097
4922.16,0.17099
4916.37,0.17059
4910.59,0.17279
4904.8,0.17168
4899.01,0.16860
4893.23,0.16923
4887.44,0.16735
4881.65,0.16594
4875.87,0.16389
4870.08,0.16473
4864.3,0.16588
4858.51,0.16934
4852.72,0.17485
4846.94,0.17984
4841.15,0.18562
4835.36,0.19095
4829.58,0.19369
4823.79,0.19838
4818.01,0.20169
4812.22,0.20665
4806.43,0.21102
4800.65,0.21364
4794.86,0.21614
4789.07,0.21888
4783.29,0.21948
4777.5,0.22249
4771.72,0.22673
4765.93,0.23062
4760.14,0.23376
4754.36,0.23780
4748.57,0.24037
4742.78,0.24216
4737,0.24424
4731.21,0.24636
4725.43,0.24853
4719.64,0.25323
4713.85,0.25497
4708.07,0.25671
4702.28,0.25777
4696.49,0.25852
4690.71,0.25892
4684.92,0.25633
4679.14,0.25197
4673.35,0.24556
4667.56,0.24133
4661.78,0.24556
4655.99,0.24923
4650.2,0.25227
4644.42,0.25361
4638.63,0.25220
4632.85,0.25151
4627.06,0.24927
4621.27,0.24730
4615.49,0.24490
4609.7,0.24263
4603.92,0.24164
4598.13,0.23765
4592.34,0.23605
4586.56,0.23314
4580.77,0.22853
4574.98,0.22540
4569.2,0.22133
4563.41,0.21497
4557.63,0.20875
4551.84,0.20242
4546.05,0.19609
4540.27,0.18972
4534.48,0.18420
4528.69,0.17856
4522.91,0.17194
4517.12,0.16634
4511.34,0.15824
4505.55,0.15213
4499.76,0.14483
4493.98,0.13862
4488.19,0.13132
4482.4,0.12465
4476.62,0.11798
4470.83,0.11197
4465.05,0.10563
4459.26,0.09833
4453.47,0.09259
4447.69,0.08636
4441.9,0.07978
4436.11,0.07444
4430.33,0.07017
4424.54,0.06554
4418.76,0.06218
4412.97,0.06050
4407.18,0.05837
4401.4,0.05771
4395.61,0.05751
4389.82,0.05762
4384.04,0.05687
4378.25,0.05628
4372.47,0.05677
4366.68,0.05770
4360.89,0.05681
4355.11,0.05681
4349.32,0.05645
4343.53,0.05581
4337.75,0.05584
4331.96,0.05595
4326.18,0.05650
4320.39,0.05614
4314.6,0.05611
4308.82,0.05673
4303.03,0.05673
4297.24,0.05670
4291.46,0.05752
4285.67,0.05635
4279.89,0.05724
4274.1,0.05680
4268.31,0.05703
4262.53,0.05626
4256.74,0.05638
4250.95,0.05683
4245.17,0.05730
4239.38,0.05673
4233.6,0.05686
4227.81,0.05693
4222.02,0.05657
4216.24,0.05711
4210.45,0.05647
4204.66,0.05593
4198.88,0.05542
4193.09,0.05616
4187.31,0.05657
4181.52,0.05673
4175.73,0.05668
4169.95,0.05673
4164.16,0.05636
4158.37,0.05696
4152.59,0.05696
4146.8,0.05680
4141.02,0.05712
4135.23,0.05758
4129.44,0.05617
4123.66,0.05677
4117.87,0.05675
4112.09,0.05674
4106.3,0.05676
4100.51,0.05673
4094.73,0.05667
4088.94,0.05663
4083.15,0.05656
4077.37,0.05662
4071.58,0.05700
4065.8,0.05672
4060.01,0.05673
4054.22,0.05709
4048.44,0.05687
4042.65,0.05702
4036.86,0.05671
4031.08,0.05696
4025.29,0.05690
4019.51,0.05745
4013.72,0.05704
4007.93,0.05687
4002.15,0.05645
3996.36,0.05748
3990.57,0.05727
3984.79,0.05714
3979,0.05719
3973.22,0.05689
3967.43,0.05719
3961.64,0.05708
3955.86,0.05699
3950.07,0.05741
3944.28,0.05762
3938.5,0.05766
3932.71,0.05694
3926.93,0.05730
3921.14,0.05709
3915.35,0.05768
3909.57,0.05735
3903.78,0.05692
3897.99,0.05707
3892.21,0.05718
3886.42,0.05710
3880.64,0.05701
3874.85,0.05722
3869.06,0.05764
3863.28,0.05646
3857.49,0.05701
3851.7,0.05669
3845.92,0.05741
3840.13,0.05728
3834.35,0.05691
3828.56,0.05708
3822.77,0.05736
3816.99,0.05701
3811.2,0.05704
3805.41,0.05760
3799.63,0.05710
3793.84,0.05738
3788.06,0.05741
3782.27,0.05744
3776.48,0.05697
3770.7,0.05778
3764.91,0.05756
3759.12,0.05793
3753.34,0.05727
3747.55,0.05797
3741.77,0.05713
3735.98,0.05737
3730.19,0.05757
3724.41,0.05756
3718.62,0.05756
3712.83,0.05730
3707.05,0.05768
3701.26,0.05698
3695.48,0.05699
3689.69,0.05689
3683.9,0.05708
3678.12,0.05741
3672.33,0.05697
3666.54,0.05711
3660.76,0.05652
3654.97,0.05662
3649.19,0.05719
3643.4,0.05647
3637.61,0.05653
3631.83,0.05689
3626.04,0.05678
3620.25,0.05637
3614.47,0.05615
3608.68,0.05582
3602.9,0.05659
3597.11,0.05646
3591.32,0.05710
3585.54,0.05693
3579.75,0.05663
3573.97,0.05678
3568.18,0.05758
3562.39,0.05789
3556.61,0.05839
3550.82,0.05869
3545.03,0.05981
3539.25,0.05956
3533.46,0.06006
3527.68,0.05983
3521.89,0.05985
3516.1,0.06001
3510.32,0.06001
3504.53,0.06052
3498.74,0.06033
3492.96,0.05959
3487.17,0.05870
3481.39,0.05839
3475.6,0.05762
3469.81,0.05791
3464.03,0.05703
3458.24,0.05718
3452.45,0.05730
3446.67,0.05659
3440.88,0.05637
3435.1,0.05656
3429.31,0.05660
3423.52,0.05622
3417.74,0.05633
3411.95,0.05649
3406.16,0.05688
3400.38,0.05609
3394.59,0.05612
3388.81,0.05613
3383.02,0.05555
3377.23,0.05511
3371.45,0.05498
3365.66,0.05543
3359.87,0.05550
3354.09,0.05574
3348.3,0.05579
3342.52,0.05577
3336.73,0.05564
3330.94,0.05636
3325.16,0.05601
3319.37,0.05661
3313.58,0.05596
3307.8,0.05663
3302.01,0.05735
3296.23,0.05715
3290.44,0.05656
3284.65,0.05598
3278.87,0.05567
3273.08,0.05576
3267.29,0.05594
3261.51,0.05607
3255.72,0.05633
3249.94,0.05574
3244.15,0.05613
3238.36,0.05540
3232.58,0.05609
3226.79,0.05560
3221,0.05562
3215.22,0.05538
3209.43,0.05484
3203.65,0.05495
3197.86,0.05442
3192.07,0.05457
3186.29,0.05455
3180.5,0.05450
3174.71,0.05386
3168.93,0.05396
3163.14,0.05433
3157.36,0.05432
3151.57,0.05448
3145.78,0.05431
3140,0.05442
3134.21,0.05428
3128.42,0.05380
3122.64,0.05345
3116.85,0.05332
3111.07,0.05267
3105.28,0.05310
3099.49,0.05352
3093.71,0.05325
3087.92,0.05314
3082.14,0.05218
3076.35,0.05199
3070.56,0.05211
3064.78,0.05218
3058.99,0.05184
3053.2,0.05215
3047.42,0.05130
3041.63,0.05135
3035.85,0.05103
3030.06,0.05093
3024.27,0.05029
3018.49,0.05006
3012.7,0.05008
3006.91,0.04959
3001.13,0.04903
2995.34,0.04855
2989.56,0.04787
2983.77,0.04746
2977.98,0.04633
2972.2,0.04508
2966.41,0.04468
2960.62,0.04407
2954.84,0.04294
2949.05,0.04080
2943.27,0.03843
2937.48,0.03581
2931.69,0.03544
2925.91,0.04326
2920.12,0.06633
2914.33,0.08350
2908.55,0.07452
2902.76,0.06874
2896.98,0.06622
2891.19,0.06424
2885.4,0.06309
2879.62,0.06077
2873.83,0.05876
2868.04,0.05566
2862.26,0.05263
2856.47,0.05025
2850.69,0.06420
2844.9,0.07889
2839.11,0.07259
2833.33,0.06883
2827.54,0.06652
2821.75,0.06511
2815.97,0.06385
2810.18,0.06285
2804.4,0.06285
2798.61,0.06200
2792.82,0.06188
2787.04,0.06148
2781.25,0.06066
2775.46,0.06080
2769.68,0.06126
2763.89,0.06058
2758.11,0.06032
2752.32,0.06019
2746.53,0.06002
2740.75,0.05968
2734.96,0.05974
2729.17,0.05934
2723.39,0.05961
2717.6,0.05913
2711.82,0.05905
2706.03,0.05932
2700.24,0.05933
2694.46,0.05918
2688.67,0.05911
2682.88,0.05867
2677.1,0.05826
2671.31,0.05857
2665.53,0.05878
2659.74,0.05816
2653.95,0.05858
2648.17,0.05851
2642.38,0.05889
2636.59,0.05805
2630.81,0.05809
2625.02,0.05810
2619.24,0.05798
2613.45,0.05866
2607.66,0.05870
2601.88,0.05827
2596.09,0.05853
2590.3,0.05804
2584.52,0.05806
2578.73,0.05840
2572.95,0.05836
2567.16,0.05841
2561.37,0.05817
2555.59,0.05813
2549.8,0.05806
2544.02,0.05764
2538.23,0.05789
2532.44,0.05836
2526.66,0.05792
2520.87,0.05827
2515.08,0.05845
2509.3,0.05765
2503.51,0.05789
2497.73,0.05822
2491.94,0.05785
2486.15,0.05792
2480.37,0.05828
2474.58,0.05803
2468.79,0.05845
2463.01,0.05863
2457.22,0.05844
2451.44,0.05864
2445.65,0.05859
2439.86,0.05843
2434.08,0.05846
2428.29,0.05837
2422.5,0.05807
2416.72,0.05783
2410.93,0.05790
2405.15,0.05779
2399.36,0.05795
2393.57,0.05802
2387.79,0.05795
2382,0.05791
2376.21,0.05764
2370.43,0.05797
2364.64,0.05810
2358.86,0.05794
2353.07,0.05767
2347.28,0.05792
2341.5,0.05805
2335.71,0.05808
2329.92,0.05799
2324.14,0.05780
2318.35,0.05733
2312.57,0.05786
2306.78,0.05795
2300.99,0.05805
2295.21,0.05782
2289.42,0.05742
2283.63,0.05773
2277.85,0.05759
2272.06,0.05777
2266.28,0.05806
2260.49,0.05825
2254.7,0.05833
2248.92,0.05834
2243.13,0.05806
2237.34,0.05879
2231.56,0.05949
2225.77,0.05989
2219.99,0.05965
2214.2,0.06001
2208.41,0.06015
2202.63,0.06029
2196.84,0.06047
2191.05,0.05975
2185.27,0.05948
2179.48,0.05986
2173.7,0.05975
2167.91,0.05951
2162.12,0.05929
2156.34,0.05857
2150.55,0.05847
2144.76,0.05881
2138.98,0.05962
2133.19,0.06150
2127.41,0.06316
2121.62,0.06469
2115.83,0.06463
2110.05,0.06558
2104.26,0.06519
2098.47,0.06517
2092.69,0.06497
2086.9,0.06386
2081.12,0.06354
2075.33,0.06189
2069.54,0.06118
2063.76,0.06054
2057.97,0.05963
2052.19,0.05907
2046.4,0.05852
2040.61,0.05803
2034.83,0.05783
2029.04,0.05779
2023.25,0.05779
2017.47,0.05795
2011.68,0.05792
2005.9,0.05945
2000.11,0.06238
1994.32,0.06494
1988.54,0.06717
1982.75,0.06770
1976.96,0.06778
1971.18,0.06728
1965.39,0.06586
1959.61,0.06483
1953.82,0.06475
1948.03,0.06471
1942.25,0.06407
1936.46,0.06380
1930.67,0.06282
1924.89,0.06201
1919.1,0.06098
1913.32,0.05978
1907.53,0.05852
1901.74,0.05790
1895.96,0.05755
1890.17,0.05854
1884.38,0.06212
1878.6,0.06659
1872.81,0.07014
1867.03,0.07346
1861.24,0.07655
1855.45,0.07918
1849.67,0.08150
1843.88,0.08172
1838.09,0.08030
1832.31,0.07809
1826.52,0.07126
1820.74,0.06514
1814.95,0.06537
1809.16,0.06718
1803.38,0.06885
1797.59,0.06953
1791.8,0.07046
1786.02,0.07059
1780.23,0.07050
1774.45,0.07014
1768.66,0.06946
1762.87,0.06799
1757.09,0.06710
1751.3,0.06590
1745.51,0.06409
1739.73,0.06133
1733.94,0.05871
1728.16,0.05709
1722.37,0.05673
1716.58,0.05672
1710.8,0.05759
1705.01,0.05842
1699.22,0.05839
1693.44,0.05864
1687.65,0.05892
1681.87,0.05840
1676.08,0.05851
1670.29,0.05807
1664.51,0.05766
1658.72,0.05731
1652.93,0.05653
1647.15,0.05632
1641.36,0.05632
1635.58,0.05652
1629.79,0.05629
1624,0.05613
1618.22,0.05641
1612.43,0.05585
1606.64,0.05633
1600.86,0.05620
1595.07,0.05625
1589.29,0.05622
1583.5,0.05588
1577.71,0.05634
1571.93,0.05575
1566.14,0.05566
1560.35,0.05600
1554.57,0.05559
1548.78,0.05572
1543,0.05530
1537.21,0.05514
1531.42,0.05529
1525.64,0.05532
1519.85,0.05491
1514.07,0.05490
1508.28,0.05465
1502.49,0.05467
1496.71,0.05469
1490.92,0.05426
1485.13,0.05341
1479.35,0.05145
1473.56,0.05129
1467.78,0.05508
1461.99,0.05901
1456.2,0.05973
1450.42,0.05878
1444.63,0.05843
1438.84,0.05870
1433.06,0.05842
1427.27,0.05801
1421.49,0.05784
1415.7,0.05786
1409.91,0.05749
1404.13,0.05693
1398.34,0.05707
1392.55,0.05685
1386.77,0.05668
1380.98,0.05647
1375.2,0.05668
1369.41,0.05688
1363.62,0.05723
1357.84,0.05672
1352.05,0.05675
1346.26,0.05702
1340.48,0.05705
1334.69,0.05724
1328.91,0.05694
1323.12,0.05691
1317.33,0.05674
1311.55,0.05716
1305.76,0.05689
1299.97,0.05658
1294.19,0.05689
1288.4,0.05699
1282.62,0.05721
1276.83,0.05744
1271.04,0.05726
1265.26,0.05708
1259.47,0.05703
1253.68,0.05690
1247.9,0.05705
1242.11,0.05730
1236.33,0.05712
1230.54,0.05704
1224.75,0.05686
1218.97,0.05710
1213.18,0.05715
1207.39,0.05733
1201.61,0.05706
1195.82,0.05719
1190.04,0.05723
1184.25,0.05710
1178.46,0.05674
1172.68,0.05678
1166.89,0.05707
1161.1,0.05720
1155.32,0.05664
1149.53,0.05656
1143.75,0.05693
1137.96,0.05707
1132.17,0.05712
1126.39,0.05669
1120.6,0.05648
1114.81,0.05688
1109.03,0.05655
1103.24,0.05589
1097.46,0.05589
1091.67,0.05652
1085.88,0.05637
1080.1,0.05598
1074.31,0.05667
1068.52,0.05622
1062.74,0.05716
1056.95,0.05665
1051.17,0.05703
1045.38,0.05636
1039.59,0.05657
1033.81,0.05723
1028.02,0.05707
1022.24,0.05797
1016.45,0.05730
1010.66,0.05770
1004.88,0.05692
999.09,0.05745
993.304,0.05779
987.518,0.05768
981.731,0.05727
975.945,0.05751
970.159,0.05771
964.373,0.05760
958.586,0.05765
952.8,0.05736
947.014,0.05795
941.228,0.05740
935.441,0.05735
929.655,0.05718
923.869,0.05705
918.083,0.05719
912.297,0.05743
906.51,0.05658
900.724,0.05704
894.938,0.05662
889.152,0.05634
883.365,0.05709
877.579,0.05724
871.793,0.05697
866.007,0.05726
860.22,0.05710
854.434,0.05683
848.648,0.05745
842.862,0.05674
837.075,0.05751
831.289,0.05667
825.503,0.05607
819.717,0.05745
813.931,0.05641
808.144,0.05704
802.358,0.05688
796.572,0.05675
790.786,0.05673
784.999,0.05666
779.213,0.05652
773.427,0.05570
767.641,0.05600
761.854,0.05620
756.068,0.05561
750.282,0.05569
744.496,0.05436
738.709,0.05421
732.923,0.05348
727.137,0.05580
721.351,0.05583
715.565,0.06194
709.778,0.06077
703.992,0.05849
698.206,0.05764
692.42,0.05810
686.633,0.05809
680.847,0.05937
675.061,0.05921
669.275,0.06184
663.488,0.06604
657.702,0.07011
651.916,0.08046
646.13,0.08770
640.343,0.09394
634.557,0.09985
628.771,0.10565
622.985,0.10971
617.198,0.11145
611.412,0.10874
605.626,0.09893
599.84,0.09318