File: 01_Data/LDPE/FTIR/IS/LDPE_IS_S_220831_R1.dpt
7497.03,0.48825
7491.25,0.49642
7485.46,0.49530
7479.67,0.48292
7473.89,0.49460
7468.1,0.50150
7462.32,0.48793
7456.53,0.48549
7450.74,0.48962
7444.96,0.49869
7439.17,0.48874
7433.38,0.47743
7427.6,0.49336
7421.81,0.49377
7416.03,0.48832
7410.24,0.48285
7404.45,0.49089
7398.67,0.48903
7392.88,0.47830
7387.09,0.48314
7381.31,0.48061
7375.52,0.48998
7369.74,0.46608
7363.95,0.46696
7358.16,0.46908
7352.38,0.45906
7346.59,0.44949
7340.8,0.46230
7335.02,0.45154
7329.23,0.45124
7323.45,0.43893
7317.66,0.43746
7311.87,0.43404
7306.09,0.43556
7300.3,0.42186
7294.51,0.41976
7288.73,0.40663
7282.94,0.39632
7277.16,0.38634
7271.37,0.37061
7265.58,0.36448
7259.8,0.36458
7254.01,0.35955
7248.22,0.34747
7242.44,0.32734
7236.65,0.32428
7230.87,0.31832
7225.08,0.30464
7219.29,0.29541
7213.51,0.27778
7207.72,0.27024
7201.93,0.25348
7196.15,0.22972
7190.36,0.22379
7184.58,0.19646
7178.79,0.18347
7173,0.17374
7167.22,0.18980
7161.43,0.22173
7155.65,0.23838
7149.86,0.25809
7144.07,0.26731
7138.29,0.27077
7132.5,0.26734
7126.71,0.26699
7120.93,0.26419
7115.14,0.26115
7109.36,0.25195
7103.57,0.24920
7097.78,0.24352
7092,0.24056
7086.21,0.23052
7080.42,0.22999
7074.64,0.21799
7068.85,0.20304
7063.07,0.19755
7057.28,0.21487
7051.49,0.22132
7045.71,0.22659
7039.92,0.22444
7034.13,0.22381
7028.35,0.22152
7022.56,0.22098
7016.78,0.22944
7010.99,0.23063
7005.2,0.24098
6999.42,0.23889
6993.63,0.24102
6987.84,0.24684
6982.06,0.24685
6976.27,0.24795
6970.49,0.25205
6964.7,0.24593
6958.91,0.24722
6953.13,0.25127
6947.34,0.24841
6941.55,0.25285
6935.77,0.26198
6929.98,0.26640
6924.2,0.27146
6918.41,0.27737
6912.62,0.28339
6906.84,0.28656
6901.05,0.29169
6895.26,0.29426
6889.48,0.29987
6883.69,0.30735
6877.91,0.31384
6872.12,0.31540
6866.33,0.31289
6860.55,0.31791
6854.76,0.32534
6848.97,0.33159
6843.19,0.33153
6837.4,0.33282
6831.62,0.33801
6825.83,0.34713
6820.04,0.34981
6814.26,0.35526
6808.47,0.36257
6802.68,0.37017
6796.9,0.37410
6791.11,0.37954
6785.33,0.38349
6779.54,0.38549
6773.75,0.39090
6767.97,0.39515
6762.18,0.39604
6756.39,0.40051
6750.61,0.40353
6744.82,0.40858
6739.04,0.40918
6733.25,0.41297
6727.46,0.41495
6721.68,0.41938
6715.89,0.41649
6710.1,0.42658
6704.32,0.43221
6698.53,0.43043
6692.75,0.42992
6686.96,0.43361
6681.17,0.43789
6675.39,0.43576
6669.6,0.43973
6663.82,0.44439
6658.03,0.44390
6652.24,0.44723
6646.46,0.45081
6640.67,0.44785
6634.88,0.44753
6629.1,0.44841
6623.31,0.45008
6617.53,0.45686
6611.74,0.45439
6605.95,0.45550
6600.17,0.45501
6594.38,0.45975
6588.59,0.45379
6582.81,0.45473
6577.02,0.45380
6571.24,0.45261
6565.45,0.45557
6559.66,0.45475
6553.88,0.45267
6548.09,0.45195
6542.3,0.45277
6536.52,0.44982
6530.73,0.45007
6524.95,0.44582
6519.16,0.44368
6513.37,0.44268
6507.59,0.44030
6501.8,0.44036
6496.01,0.43619
6490.23,0.43166
6484.44,0.43305
6478.66,0.44037
6472.87,0.45127
6467.08,0.45926
6461.3,0.46640
6455.51,0.47252
6449.72,0.47802
6443.94,0.48897
6438.15,0.48894
6432.37,0.49106
6426.58,0.49250
6420.79,0.48904
6415.01,0.49400
6409.22,0.49869
6403.43,0.49940
6397.65,0.50249
6391.86,0.50345
6386.08,0.50667
6380.29,0.50609
6374.5,0.50519
6368.72,0.50916
6362.93,0.51007
6357.14,0.51490
6351.36,0.51611
6345.57,0.52109
6339.79,0.51882
6334,0.51950
6328.21,0.52289
6322.43,0.51910
6316.64,0.52339
6310.85,0.52181
6305.07,0.52166
6299.28,0.52165
6293.5,0.52466
6287.71,0.52080
6281.92,0.52009
6276.14,0.52129
6270.35,0.52223
6264.56,0.52216
6258.78,0.52255
6252.99,0.52134
6247.21,0.52279
6241.42,0.51884
6235.63,0.52297
6229.85,0.52111
6224.06,0.52148
6218.27,0.51821
6212.49,0.51813
6206.7,0.51869
6200.92,0.51863
6195.13,0.51620
6189.34,0.51421
6183.56,0.51700
6177.77,0.51496
6171.98,0.51282
6166.2,0.50799
6160.41,0.50681
6154.63,0.50666
6148.84,0.50306
6143.05,0.50682
6137.27,0.49935
6131.48,0.49896
6125.7,0.49601
6119.91,0.49439
6114.12,0.49341
6108.34,0.49429
6102.55,0.49233
6096.76,0.49175
6090.98,0.48878
6085.19,0.48654
6079.41,0.48628
6073.62,0.48415
6067.83,0.48153
6062.05,0.48167
6056.26,0.47757
6050.47,0.47715
6044.69,0.47112
6038.9,0.46869
6033.12,0.46502
6027.33,0.46208
6021.54,0.45590
6015.76,0.44783
6009.97,0.44310
6004.18,0.43719
5998.4,0.43254
5992.61,0.42519
5986.83,0.41611
5981.04,0.40947
5975.25,0.39767
5969.47,0.38775
5963.68,0.37650
5957.89,0.36303
5952.11,0.35161
5946.32,0.34176
5940.54,0.32741
5934.75,0.30967
5928.96,0.29239
5923.18,0.26851
5917.39,0.24673
5911.6,0.23121
5905.82,0.21657
5900.03,0.20675
5894.25,0.19306
5888.46,0.18117
5882.67,0.16055
5876.89,0.13997
5871.1,0.12026
5865.31,0.10430
5859.53,0.09207
5853.74,0.07945
5847.96,0.07224
5842.17,0.06775
5836.38,0.06576
5830.6,0.06259
5824.81,0.06256
5819.02,0.05810
5813.24,0.05778
5807.45,0.05827
5801.67,0.05919
5795.88,0.05562
5790.09,0.05590
5784.31,0.05491
5778.52,0.05442
5772.73,0.05619
5766.95,0.05434
5761.16,0.05682
5755.38,0.05632
5749.59,0.05863
5743.8,0.06305
5738.02,0.06248
5732.23,0.06561
5726.44,0.06931
5720.66,0.07855
5714.87,0.07899
5709.09,0.07655
5703.3,0.07286
5697.51,0.06940
5691.73,0.06507
5685.94,0.06414
5680.15,0.06209
5674.37,0.06268
5668.58,0.05806
5662.8,0.05842
5657.01,0.05880
5651.22,0.06623
5645.44,0.06898
5639.65,0.07232
5633.87,0.07614
5628.08,0.07922
5622.29,0.08095
5616.51,0.08492
5610.72,0.09078
5604.93,0.09252
5599.15,0.09511
5593.36,0.09636
5587.58,0.09682
5581.79,0.09612
5576,0.09389
5570.22,0.09069
5564.43,0.08671
5558.64,0.08685
5552.86,0.08685
5547.07,0.08635
5541.29,0.08542
5535.5,0.08808
5529.71,0.08921
5523.93,0.09004
5518.14,0.08840
5512.35,0.08786
5506.57,0.08619
5500.78,0.08622
5495,0.08612
5489.21,0.08666
5483.42,0.08905
5477.64,0.09067
5471.85,0.09293
5466.06,0.09585
5460.28,0.09614
5454.49,0.09643
5448.71,0.09936
5442.92,0.10016
5437.13,0.10020
5431.35,0.10216
5425.56,0.10470
5419.77,0.10807
5413.99,0.11245
5408.2,0.11607
5402.42,0.12081
5396.63,0.12567
5390.84,0.12958
5385.06,0.13075
5379.27,0.13820
5373.48,0.13880
5367.7,0.14047
5361.91,0.14533
5356.13,0.15046
5350.34,0.15453
5344.55,0.15968
5338.77,0.16317
5332.98,0.16545
5327.19,0.16497
5321.41,0.16514
5315.62,0.16307
5309.84,0.15876
5304.05,0.16015
5298.26,0.16238
5292.48,0.16301
5286.69,0.16361
5280.9,0.16269
5275.12,0.16247
5269.33,0.16346
5263.55,0.16318
5257.76,0.16307
5251.97,0.16577
5246.19,0.16365
5240.4,0.16191
5234.61,0.16202
5228.83,0.16123
5223.04,0.15983
5217.26,0.15887
5211.47,0.15917
5205.68,0.15959
5199.9,0.15828
5194.11,0.15961
5188.32,0.15929
5182.54,0.16056
5176.75,0.16072
5170.97,0.16099
5165.18,0.16178
5159.39,0.16132
5153.61,0.16191
5147.82,0.16378
5142.03,0.16584
5136.25,0.16671
5130.46,0.16729
5124.68,0.16640
5118.89,0.16641
5113.1,0.16487
5107.32,0.16360
5101.53,0.16410
5095.75,0.16402
5089.96,0.16597
5084.17,0.16728
5078.39,0.16729
5072.6,0.16778
5066.81,0.16951
5061.03,0.16908
5055.24,0.17138
5049.46,0.17347
5043.67,0.17484
5037.88,0.17352
5032.1,0.17370
5026.31,0.17233
5020.52,0.17043
5014.74,0.17028
5008.95,0.16912
5003.17,0.16695
4997.38,0.16428
4991.59,0.15758
4985.81,0.15381
4980.02,0.15019
4974.23,0.14678
4968.45,0.14486
4962.66,0.14663
4956.88,0.15337
4951.09,0.16345
4945.3,0.16841
4939.52,0.16896
4933.73,0.16977
4927.94,0.17073
4922.16,0.17069
4916.37,0.17263
4910.59,0.17318
4904.8,0.17074
4899.01,0.17075
4893.23,0.17000
4887.44,0.16973
4881.65,0.16777
4875.87,0.16588
4870.08,0.16692
4864.3,0.16763
4858.51,0.17027
4852.72,0.17491
4846.94,0.18135
4841.15,0.18708
4835.36,0.19101
4829.58,0.19534
4823.79,0.19835
4818.01,0.20394
4812.22,0.20735
4806.43,0.21225
4800.65,0.21617
4794.86,0.21911
4789.07,0.22002
4783.29,0.22094
4777.5,0.22296
4771.72,0.22789
4765.93,0.23270
4760.14,0.23601
4754.36,0.23979
4748.57,0.24191
4742.78,0.24385
4737,0.24580
4731.21,0.24810
4725.43,0.25094
4719.64,0.25440
4713.85,0.25703
4708.07,0.25810
4702.28,0.26050
4696.49,0.26056
4690.71,0.26095
4684.92,0.25900
4679.14,0.25340
4673.35,0.24742
4667.56,0.24368
4661.78,0.24722
4655.99,0.25151
4650.2,0.25402
4644.42,0.25567
4638.63,0.25443
4632.85,0.25385
4627.06,0.25224
4621.27,0.25039
4615.49,0.24702
4609.7,0.24370
4603.92,0.24211
4598.13,0.24116
4592.34,0.23776
4586.56,0.23457
4580.77,0.23035
4574.98,0.22691
4569.2,0.22247
4563.41,0.21702
4557.63,0.21083
4551.84,0.20416
4546.05,0.19732
4540.27,0.19157
4534.48,0.18513
4528.69,0.17930
4522.91,0.17394
4517.12,0.16629
4511.34,0.16022
4505.55,0.15242
4499.76,0.14543
4493.98,0.13963
4488.19,0.13279
4482.4,0.12507
4476.62,0.11825
4470.83,0.11249
4465.05,0.10546
4459.26,0.09841
4453.47,0.09271
4447.69,0.08618
4441.9,0.08068
4436.11,0.07575
4430.33,0.07016
4424.54,0.06635
4418.76,0.06287
4412.97,0.06129
4407.18,0.05884
4401.4,0.05827
4395.61,0.05780
4389.82,0.05745
4384.04,0.05794
4378.25,0.05760
4372.47,0.05762
4366.68,0.05672
4360.89,0.05624
4355.11,0.05647
4349.32,0.05674
4343.53,0.05668
4337.75,0.05756
4331.96,0.05698
4326.18,0.05562
4320.39,0.05657
4314.6,0.05691
4308.82,0.05656
4303.03,0.05640
4297.24,0.05775
4291.46,0.05694
4285.67,0.05717
4279.89,0.05690
4274.1,0.05720
4268.31,0.05699
4262.53,0.05621
4256.74,0.05719
4250.95,0.05694
4245.17,0.05636
4239.38,0.05720
4233.6,0.05621
4227.81,0.05677
4222.02,0.05699
4216.24,0.05717
4210.45,0.05668
4204.66,0.05758
4198.88,0.05709
4193.09,0.05747
4187.31,0.05689
4181.52,0.05657
4175.73,0.05707
4169.95,0.05667
4164.16,0.05645
4158.37,0.05687
4152.59,0.05692
4146.8,0.05682
4141.02,0.05684
4135.23,0.05679
4129.44,0.05687
4123.66,0.05713
4117.87,0.05698
4112.09,0.05673
4106.3,0.05681
4100.51,0.05709
4094.73,0.05693
4088.94,0.05710
4083.15,0.05775
4077.37,0.05773
4071.58,0.05667
4065.8,0.05627
4060.01,0.05666
4054.22,0.05774
4048.44,0.05709
4042.65,0.05682
4036.86,0.05728
4031.08,0.05739
4025.29,0.05755
4019.51,0.05778
4013.72,0.05722
4007.93,0.05729
4002.15,0.05770
3996.36,0.05673
3990.57,0.05681
3984.79,0.05748
3979,0.05691
3973.22,0.05687
3967.43,0.05726
3961.64,0.05735
3955.86,0.05772
3950.07,0.05756
3944.28,0.05766
3938.5,0.05725
3932.71,0.05712
3926.93,0.05790
3921.14,0.05751
3915.35,0.05710
3909.57,0.05656
3903.78,0.05766
3897.99,0.05700
3892.21,0.05708
3886.42,0.05773
3880.64,0.05785
3874.85,0.05742
3869.06,0.05722
3863.28,0.05707
3857.49,0.05743
3851.7,0.05743
3845.92,0.05728
3840.13,0.05784
3834.35,0.05792
3828.56,0.05731
3822.77,0.05760
3816.99,0.05754
3811.2,0.05778
3805.41,0.05719
3799.63,0.05781
3793.84,0.05747
3788.06,0.05795
3782.27,0.05786
3776.48,0.05754
3770.7,0.05794
3764.91,0.05727
3759.12,0.05784
3753.34,0.05780
3747.55,0.05789
3741.77,0.05823
3735.98,0.05776
3730.19,0.05808
3724.41,0.05762
3718.62,0.05758
3712.83,0.05751
3707.05,0.05798
3701.26,0.05774
3695.48,0.05730
3689.69,0.05710
3683.9,0.05750
3678.12,0.05780
3672.33,0.05739
3666.54,0.05725
3660.76,0.05665
3654.97,0.05740
3649.19,0.05708
3643.4,0.05715
3637.61,0.05682
3631.83,0.05670
3626.04,0.05741
3620.25,0.05682
3614.47,0.05695
3608.68,0.05674
3602.9,0.05634
3597.11,0.05689
3591.32,0.05683
3585.54,0.05697
3579.75,0.05762
3573.97,0.05800
3568.18,0.05859
3562.39,0.05831
3556.61,0.05906
3550.82,0.05928
3545.03,0.05947
3539.25,0.05951
3533.46,0.05996
3527.68,0.05973
3521.89,0.06007
3516.1,0.06025
3510.32,0.05980
3504.53,0.05934
3498.74,0.06024
3492.96,0.05890
3487.17,0.05955
3481.39,0.05883
3475.6,0.05891
3469.81,0.05830
3464.03,0.05811
3458.24,0.05727
3452.45,0.05736
3446.67,0.05685
3440.88,0.05702
3435.1,0.05615
3429.31,0.05600
3423.52,0.05688
3417.74,0.05691
3411.95,0.05671
3406.16,0.05652
3400.38,0.05676
3394.59,0.05602
3388.81,0.05620
3383.02,0.05582
3377.23,0.05571
3371.45,0.05558
3365.66,0.05605
3359.87,0.05569
3354.09,0.05639
3348.3,0.05599
3342.52,0.05675
3336.73,0.05603
3330.94,0.05681
3325.16,0.05578
3319.37,0.05650
3313.58,0.05609
3307.8,0.05676
3302.01,0.05633
3296.23,0.05653
3290.44,0.05649
3284.65,0.05686
3278.87,0.05667
3273.08,0.05706
3267.29,0.05672
3261.51,0.05632
3255.72,0.05609
3249.94,0.05625
3244.15,0.05661
3238.36,0.05580
3232.58,0.05586
3226.79,0.05594
3221,0.05571
3215.22,0.05479
3209.43,0.05545
3203.65,0.05510
3197.86,0.05487
3192.07,0.05466
3186.29,0.05516
3180.5,0.05522
3174.71,0.05438
3168.93,0.05455
3163.14,0.05490
3157.36,0.05446
3151.57,0.05474
3145.78,0.05370
3140,0.05460
3134.21,0.05416
3128.42,0.05447
3122.64,0.05368
3116.85,0.05438
3111.07,0.05373
3105.28,0.05334
3099.49,0.05336
3093.71,0.05291
3087.92,0.05273
3082.14,0.05261
3076.35,0.05248
3070.56,0.05234
3064.78,0.05220
3058.99,0.05200
3053.2,0.05143
3047.42,0.05173
3041.63,0.05148
3035.85,0.05100
3030.06,0.05110
3024.27,0.05105
3018.49,0.05052
3012.7,0.05004
3006.91,0.05006
3001.13,0.04950
2995.34,0.04875
2989.56,0.04816
2983.77,0.04770
2977.98,0.04677
2972.2,0.04572
2966.41,0.04484
2960.62,0.04437
2954.84,0.04276
2949.05,0.04154
2943.27,0.03894
2937.48,0.03586
2931.69,0.03614
2925.91,0.04364
2920.12,0.06642
2914.33,0.08368
2908.55,0.07507
2902.76,0.06894
2896.98,0.06613
2891.19,0.06485
2885.4,0.06254
2879.62,0.06110
2873.83,0.05903
2868.04,0.05579
2862.26,0.05228
2856.47,0.05058
2850.69,0.06457
2844.9,0.07983
2839.11,0.07302
2833.33,0.06854
2827.54,0.06670
2821.75,0.06554
2815.97,0.06427
2810.18,0.06328
2804.4,0.06313
2798.61,0.06205
2792.82,0.06213
2787.04,0.06161
2781.25,0.06163
2775.46,0.06164
2769.68,0.06069
2763.89,0.06092
2758.11,0.06052
2752.32,0.06072
2746.53,0.06023
2740.75,0.05971
2734.96,0.06012
2729.17,0.05991
2723.39,0.05997
2717.6,0.05933
2711.82,0.05941
2706.03,0.05958
2700.24,0.05914
2694.46,0.05900
2688.67,0.05948
2682.88,0.05928
2677.1,0.05942
2671.31,0.05911
2665.53,0.05917
2659.74,0.05908
2653.95,0.05891
2648.17,0.05919
2642.38,0.05909
2636.59,0.05900
2630.81,0.05865
2625.02,0.05865
2619.24,0.05848
2613.45,0.05883
2607.66,0.05888
2601.88,0.05862
2596.09,0.05881
2590.3,0.05846
2584.52,0.05848
2578.73,0.05919
2572.95,0.05872
2567.16,0.05833
2561.37,0.05869
2555.59,0.05865
2549.8,0.05878
2544.02,0.05828
2538.23,0.05854
2532.44,0.05858
2526.66,0.05869
2520.87,0.05850
2515.08,0.05862
2509.3,0.05838
2503.51,0.05863
2497.73,0.05857
2491.94,0.05840
2486.15,0.05855
2480.37,0.05831
2474.58,0.05859
2468.79,0.05831
2463.01,0.05860
2457.22,0.05856
2451.44,0.05892
2445.65,0.05905
2439.86,0.05876
2434.08,0.05876
2428.29,0.05838
2422.5,0.05847
2416.72,0.05810
2410.93,0.05841
2405.15,0.05823
2399.36,0.05844
2393.57,0.05809
2387.79,0.05821
2382,0.05825
2376.21,0.05811
2370.43,0.05822
2364.64,0.05805
2358.86,0.05804
2353.07,0.05837
2347.28,0.05810
2341.5,0.05790
2335.71,0.05785
2329.92,0.05809
2324.14,0.05791
2318.35,0.05806
2312.57,0.05811
2306.78,0.05791
2300.99,0.05781
2295.21,0.05803
2289.42,0.05859
2283.63,0.05829
2277.85,0.05817
2272.06,0.05806
2266.28,0.05863
2260.49,0.05864
2254.7,0.05845
2248.92,0.05853
2243.13,0.05839
2237.34,0.05935
2231.56,0.06044
2225.77,0.06017
2219.99,0.05976
2214.2,0.06062
2208.41,0.06070
2202.63,0.06056
2196.84,0.06091
2191.05,0.06044
2185.27,0.06010
2179.48,0.05990
2173.7,0.06014
2167.91,0.06001
2162.12,0.05987
2156.34,0.05895
2150.55,0.05882
2144.76,0.05901
2138.98,0.06009
2133.19,0.06160
2127.41,0.06384
2121.62,0.06499
2115.83,0.06572
2110.05,0.06582
2104.26,0.06603
2098.47,0.06579
2092.69,0.06499
2086.9,0.06434
2081.12,0.06351
2075.33,0.06262
2069.54,0.06157
2063.76,0.06069
2057.97,0.06007
2052.19,0.05927
2046.4,0.05880
2040.61,0.05825
2034.83,0.05810
2029.04,0.05820
2023.25,0.05760
2017.47,0.05792
2011.68,0.05828
2005.9,0.06009
2000.11,0.06281
1994.32,0.06545
1988.54,0.06730
1982.75,0.06837
1976.96,0.06861
1971.18,0.06765
1965.39,0.06618
1959.61,0.06545
1953.82,0.06536
1948.03,0.06516
1942.25,0.06463
1936.46,0.06403
1930.67,0.06338
1924.89,0.06254
1919.1,0.06139
1913.32,0.06013
1907.53,0.05933
1901.74,0.05862
1895.96,0.05825
1890.17,0.05909
1884.38,0.06248
1878.6,0.06720
1872.81,0.07071
1867.03,0.07395
1861.24,0.07734
1855.45,0.07992
1849.67,0.08185
1843.88,0.08222
1838.09,0.08064
1832.31,0.07835
1826.52,0.07180
1820.74,0.06554
1814.95,0.06576
1809.16,0.06788
1803.38,0.06947
1797.59,0.07070
1791.8,0.07101
1786.02,0.07114
1780.23,0.07089
1774.45,0.07072
1768.66,0.06971
1762.87,0.06908
1757.09,0.06771
1751.3,0.06638
1745.51,0.06375
1739.73,0.06154
1733.94,0.05907
1728.16,0.05774
1722.37,0.05668
1716.58,0.05709
1710.8,0.05794
1705.01,0.05843
1699.22,0.05888
1693.44,0.05884
1687.65,0.05921
1681.87,0.05885
1676.08,0.05860
1670.29,0.05873
1664.51,0.05764
1658.72,0.05700
1652.93,0.05728
1647.15,0.05647
1641.36,0.05645
1635.58,0.05690
1629.79,0.05654
1624,0.05709
1618.22,0.05631
1612.43,0.05659
1606.64,0.05653
1600.86,0.05613
1595.07,0.05637
1589.29,0.05649
1583.5,0.05653
1577.71,0.05610
1571.93,0.05624
1566.14,0.05619
1560.35,0.05601
1554.57,0.05571
1548.78,0.05556
1543,0.05540
1537.21,0.05571
1531.42,0.05556
1525.64,0.05549
1519.85,0.05541
1514.07,0.05532
1508.28,0.05529
1502.49,0.05520
1496.71,0.05504
1490.92,0.05444
1485.13,0.05397
1479.35,0.05221
1473.56,0.05139
1467.78,0.05554
1461.99,0.05913
1456.2,0.05994
1450.42,0.05937
1444.63,0.05886
1438.84,0.05900
1433.06,0.05874
1427.27,0.05855
1421.49,0.05839
1415.7,0.05791
1409.91,0.05764
1404.13,0.05773
1398.34,0.05738
1392.55,0.05726
1386.77,0.05678
1380.98,0.05705
1375.2,0.05673
1369.41,0.05738
1363.62,0.05738
1357.84,0.05749
1352.05,0.05740
1346.26,0.05766
1340.48,0.05761
1334.69,0.05759
1328.91,0.05726
1323.12,0.05750
1317.33,0.05745
1311.55,0.05734
1305.76,0.05727
1299.97,0.05709
1294.19,0.05741
1288.4,0.05763
1282.62,0.05759
1276.83,0.05742
1271.04,0.05757
1265.26,0.05750
1259.47,0.05752
1253.68,0.05758
1247.9,0.05758
1242.11,0.05753
1236.33,0.05764
1230.54,0.05796
1224.75,0.05744
1218.97,0.05760
1213.18,0.05759
1207.39,0.05766
1201.61,0.05727
1195.82,0.05724
1190.04,0.05704
1184.25,0.05714
1178.46,0.05746
1172.68,0.05726
1166.89,0.05718
1161.1,0.05708
1155.32,0.05798
1149.53,0.05714
1143.75,0.05621
1137.96,0.05677
1132.17,0.05722
1126.39,0.05719
1120.6,0.05713
1114.81,0.05765
1109.03,0.05701
1103.24,0.05715
1097.46,0.05681
1091.67,0.05670
1085.88,0.05656
1080.1,0.05665
1074.31,0.05693
1068.52,0.05693
1062.74,0.05740
1056.95,0.05737
1051.17,0.05709
1045.38,0.05699
1039.59,0.05763
1033.81,0.05794
1028.02,0.05790
1022.24,0.05790
1016.45,0.05789
1010.66,0.05802
1004.88,0.05714
999.09,0.05801
993.304,0.05780
987.518,0.05795
981.731,0.05806
975.945,0.05719
970.159,0.05730
964.373,0.05787
958.586,0.05743
952.8,0.05799
947.014,0.05772
941.228,0.05692
935.441,0.05688
929.655,0.05795
923.869,0.05848
918.083,0.05806
912.297,0.05759
906.51,0.05737
900.724,0.05714
894.938,0.05704
889.152,0.05711
883.365,0.05704
877.579,0.05672
871.793,0.05657
866.007,0.05771
860.22,0.05751
854.434,0.05781
848.648,0.05699
842.862,0.05666
837.075,0.05650
831.289,0.05728
825.503,0.05793
819.717,0.05689
813.931,0.05711
808.144,0.05712
802.358,0.05718
796.572,0.05755
790.786,0.05697
784.999,0.05669
779.213,0.05633
773.427,0.05613
767.641,0.05732
761.854,0.05614
756.068,0.05624
750.282,0.05495
744.496,0.05458
738.709,0.05392
732.923,0.05193
727.137,0.05630
721.351,0.05640
715.565,0.06253
709.778,0.05933
703.992,0.05975
698.206,0.05910
692.42,0.05756
686.633,0.05828
680.847,0.05874
675.061,0.06052
669.275,0.06345
663.488,0.06610
657.702,0.06965
651.916,0.08077
646.13,0.08674
640.343,0.09434
634.557,0.10104
628.771,0.10593
622.985,0.10918
617.198,0.11066
611.412,0.10851
605.626,0.10174
599.84,0.09019