File: 01_Data/LDPE/FTIR/IS/LDPE_IS_S_220831_R7.dpt
7497.03,0.48615
7491.25,0.49342
7485.46,0.48742
7479.67,0.49041
7473.89,0.48411
7468.1,0.49146
7462.32,0.48709
7456.53,0.48120
7450.74,0.48465
7444.96,0.47558
7439.17,0.48649
7433.38,0.49023
7427.6,0.48978
7421.81,0.49803
7416.03,0.47842
7410.24,0.48559
7404.45,0.48734
7398.67,0.47719
7392.88,0.47845
7387.09,0.47641
7381.31,0.47668
7375.52,0.46315
7369.74,0.46157
7363.95,0.46486
7358.16,0.46713
7352.38,0.46476
7346.59,0.44970
7340.8,0.45333
7335.02,0.45205
7329.23,0.45132
7323.45,0.44484
7317.66,0.43327
7311.87,0.42970
7306.09,0.42563
7300.3,0.42644
7294.51,0.41891
7288.73,0.40316
7282.94,0.39955
7277.16,0.38778
7271.37,0.37790
7265.58,0.37835
7259.8,0.36783
7254.01,0.35278
7248.22,0.34373
7242.44,0.33840
7236.65,0.32444
7230.87,0.31924
7225.08,0.30473
7219.29,0.29869
7213.51,0.27842
7207.72,0.26765
7201.93,0.24865
7196.15,0.23657
7190.36,0.21976
7184.58,0.20025
7178.79,0.18255
7173,0.17286
7167.22,0.19031
7161.43,0.21321
7155.65,0.23850
7149.86,0.25754
7144.07,0.26406
7138.29,0.26996
7132.5,0.27493
7126.71,0.26837
7120.93,0.26866
7115.14,0.26310
7109.36,0.25177
7103.57,0.24883
7097.78,0.24470
7092,0.24290
7086.21,0.23085
7080.42,0.22876
7074.64,0.21858
7068.85,0.20929
7063.07,0.19850
7057.28,0.20945
7051.49,0.22085
7045.71,0.22236
7039.92,0.22508
7034.13,0.22261
7028.35,0.22804
7022.56,0.22774
7016.78,0.22430
7010.99,0.23515
7005.2,0.23072
6999.42,0.23553
6993.63,0.24075
6987.84,0.23860
6982.06,0.24020
6976.27,0.24089
6970.49,0.24248
6964.7,0.24451
6958.91,0.24225
6953.13,0.24753
6947.34,0.25069
6941.55,0.25457
6935.77,0.26500
6929.98,0.26926
6924.2,0.27462
6918.41,0.28195
6912.62,0.28606
6906.84,0.29058
6901.05,0.28544
6895.26,0.29387
6889.48,0.29575
6883.69,0.30037
6877.91,0.30817
6872.12,0.31337
6866.33,0.31039
6860.55,0.31576
6854.76,0.32164
6848.97,0.32495
6843.19,0.33246
6837.4,0.33590
6831.62,0.33370
6825.83,0.33950
6820.04,0.35491
6814.26,0.35730
6808.47,0.35762
6802.68,0.36340
6796.9,0.37285
6791.11,0.37391
6785.33,0.38559
6779.54,0.38804
6773.75,0.39043
6767.97,0.39600
6762.18,0.39482
6756.39,0.39748
6750.61,0.40404
6744.82,0.40669
6739.04,0.40887
6733.25,0.41047
6727.46,0.41379
6721.68,0.41841
6715.89,0.41931
6710.1,0.42213
6704.32,0.42305
6698.53,0.42891
6692.75,0.42600
6686.96,0.43188
6681.17,0.43164
6675.39,0.43904
6669.6,0.43912
6663.82,0.44711
6658.03,0.44671
6652.24,0.44914
6646.46,0.44892
6640.67,0.44578
6634.88,0.44456
6629.1,0.45109
6623.31,0.45024
6617.53,0.45319
6611.74,0.45577
6605.95,0.45032
6600.17,0.45367
6594.38,0.45306
6588.59,0.45505
6582.81,0.45129
6577.02,0.44989
6571.24,0.45386
6565.45,0.45097
6559.66,0.44988
6553.88,0.45135
6548.09,0.44725
6542.3,0.44983
6536.52,0.44520
6530.73,0.44809
6524.95,0.44677
6519.16,0.44596
6513.37,0.43929
6507.59,0.44365
6501.8,0.44194
6496.01,0.43444
6490.23,0.42966
6484.44,0.42766
6478.66,0.43423
6472.87,0.44561
6467.08,0.45534
6461.3,0.46494
6455.51,0.47041
6449.72,0.47292
6443.94,0.47921
6438.15,0.48502
6432.37,0.48534
6426.58,0.48882
6420.79,0.48945
6415.01,0.48762
6409.22,0.49000
6403.43,0.49705
6397.65,0.49977
6391.86,0.49668
6386.08,0.50111
6380.29,0.50320
6374.5,0.50311
6368.72,0.50872
6362.93,0.50894
6357.14,0.50787
6351.36,0.51253
6345.57,0.51562
6339.79,0.51590
6334,0.51791
6328.21,0.51300
6322.43,0.52083
6316.64,0.51754
6310.85,0.52113
6305.07,0.51885
6299.28,0.51951
6293.5,0.52096
6287.71,0.51999
6281.92,0.51832
6276.14,0.51817
6270.35,0.51796
6264.56,0.51631
6258.78,0.51814
6252.99,0.51921
6247.21,0.51265
6241.42,0.51760
6235.63,0.51847
6229.85,0.51649
6224.06,0.52105
6218.27,0.51898
6212.49,0.51988
6206.7,0.51742
6200.92,0.51791
6195.13,0.51511
6189.34,0.51393
6183.56,0.51298
6177.77,0.50845
6171.98,0.50820
6166.2,0.50698
6160.41,0.50520
6154.63,0.50511
6148.84,0.50545
6143.05,0.50189
6137.27,0.49726
6131.48,0.49495
6125.7,0.49551
6119.91,0.49438
6114.12,0.48794
6108.34,0.49157
6102.55,0.48955
6096.76,0.48900
6090.98,0.48796
6085.19,0.48471
6079.41,0.48184
6073.62,0.48133
6067.83,0.47949
6062.05,0.47778
6056.26,0.47706
6050.47,0.47109
6044.69,0.46953
6038.9,0.46398
6033.12,0.46250
6027.33,0.45530
6021.54,0.45183
6015.76,0.44621
6009.97,0.44061
6004.18,0.43501
5998.4,0.43030
5992.61,0.42219
5986.83,0.41331
5981.04,0.40614
5975.25,0.39712
5969.47,0.38599
5963.68,0.37418
5957.89,0.35974
5952.11,0.35376
5946.32,0.33899
5940.54,0.32448
5934.75,0.30811
5928.96,0.28951
5923.18,0.26802
5917.39,0.24753
5911.6,0.22923
5905.82,0.21229
5900.03,0.20206
5894.25,0.19175
5888.46,0.18001
5882.67,0.15795
5876.89,0.13745
5871.1,0.11863
5865.31,0.10104
5859.53,0.08910
5853.74,0.07984
5847.96,0.07433
5842.17,0.06779
5836.38,0.06302
5830.6,0.06120
5824.81,0.05874
5819.02,0.05936
5813.24,0.05771
5807.45,0.05787
5801.67,0.05687
5795.88,0.05826
5790.09,0.05721
5784.31,0.05609
5778.52,0.05641
5772.73,0.05493
5766.95,0.05613
5761.16,0.05616
5755.38,0.05778
5749.59,0.05830
5743.8,0.06192
5738.02,0.06571
5732.23,0.06702
5726.44,0.07124
5720.66,0.07682
5714.87,0.07927
5709.09,0.07595
5703.3,0.07079
5697.51,0.06712
5691.73,0.06697
5685.94,0.06365
5680.15,0.06277
5674.37,0.05999
5668.58,0.05945
5662.8,0.05763
5657.01,0.06029
5651.22,0.06370
5645.44,0.06923
5639.65,0.07431
5633.87,0.07723
5628.08,0.08019
5622.29,0.08262
5616.51,0.08621
5610.72,0.09071
5604.93,0.09317
5599.15,0.09636
5593.36,0.09728
5587.58,0.09704
5581.79,0.09524
5576,0.09337
5570.22,0.09040
5564.43,0.08795
5558.64,0.08478
5552.86,0.08601
5547.07,0.08594
5541.29,0.08667
5535.5,0.08787
5529.71,0.08570
5523.93,0.08846
5518.14,0.08715
5512.35,0.08735
5506.57,0.08590
5500.78,0.08657
5495,0.08303
5489.21,0.08643
5483.42,0.08892
5477.64,0.08959
5471.85,0.09193
5466.06,0.09264
5460.28,0.09480
5454.49,0.09628
5448.71,0.09740
5442.92,0.09986
5437.13,0.10004
5431.35,0.10011
5425.56,0.10250
5419.77,0.10780
5413.99,0.11047
5408.2,0.11619
5402.42,0.12191
5396.63,0.12674
5390.84,0.12928
5385.06,0.13136
5379.27,0.13647
5373.48,0.13809
5367.7,0.14099
5361.91,0.14471
5356.13,0.14878
5350.34,0.15244
5344.55,0.15773
5338.77,0.16303
5332.98,0.16403
5327.19,0.16583
5321.41,0.16415
5315.62,0.16151
5309.84,0.15887
5304.05,0.15893
5298.26,0.16113
5292.48,0.16104
5286.69,0.16334
5280.9,0.16227
5275.12,0.16351
5269.33,0.16271
5263.55,0.16296
5257.76,0.16212
5251.97,0.16191
5246.19,0.16301
5240.4,0.16097
5234.61,0.15972
5228.83,0.15984
5223.04,0.15928
5217.26,0.15826
5211.47,0.15908
5205.68,0.15928
5199.9,0.15949
5194.11,0.15847
5188.32,0.15933
5182.54,0.15800
5176.75,0.15981
5170.97,0.16094
5165.18,0.15873
5159.39,0.16028
5153.61,0.16155
5147.82,0.16375
5142.03,0.16476
5136.25,0.16690
5130.46,0.16726
5124.68,0.16624
5118.89,0.16539
5113.1,0.16568
5107.32,0.16390
5101.53,0.16203
5095.75,0.16281
5089.96,0.16457
5084.17,0.16513
5078.39,0.16630
5072.6,0.16694
5066.81,0.16874
5061.03,0.16919
5055.24,0.17066
5049.46,0.17252
5043.67,0.17258
5037.88,0.17348
5032.1,0.17139
5026.31,0.17096
5020.52,0.17023
5014.74,0.16755
5008.95,0.16901
5003.17,0.16579
4997.38,0.16118
4991.59,0.15820
4985.81,0.15307
4980.02,0.14984
4974.23,0.14768
4968.45,0.14468
4962.66,0.14480
4956.88,0.15255
4951.09,0.16224
4945.3,0.16682
4939.52,0.16938
4933.73,0.16948
4927.94,0.17152
4922.16,0.17167
4916.37,0.17170
4910.59,0.17110
4904.8,0.17042
4899.01,0.16849
4893.23,0.16886
4887.44,0.16881
4881.65,0.16705
4875.87,0.16515
4870.08,0.16544
4864.3,0.16677
4858.51,0.17012
4852.72,0.17444
4846.94,0.18055
4841.15,0.18515
4835.36,0.19086
4829.58,0.19412
4823.79,0.19854
4818.01,0.20299
4812.22,0.20676
4806.43,0.21145
4800.65,0.21492
4794.86,0.21750
4789.07,0.21911
4783.29,0.22103
4777.5,0.22264
4771.72,0.22625
4765.93,0.23052
4760.14,0.23569
4754.36,0.23814
4748.57,0.24077
4742.78,0.24336
4737,0.24463
4731.21,0.24624
4725.43,0.24925
4719.64,0.25318
4713.85,0.25621
4708.07,0.25707
4702.28,0.25887
4696.49,0.25955
4690.71,0.25917
4684.92,0.25820
4679.14,0.25311
4673.35,0.24629
4667.56,0.24220
4661.78,0.24518
4655.99,0.25002
4650.2,0.25336
4644.42,0.25275
4638.63,0.25280
4632.85,0.25205
4627.06,0.25011
4621.27,0.24820
4615.49,0.24573
4609.7,0.24265
4603.92,0.24061
4598.13,0.23916
4592.34,0.23623
4586.56,0.23269
4580.77,0.23014
4574.98,0.22433
4569.2,0.22205
4563.41,0.21590
4557.63,0.20944
4551.84,0.20374
4546.05,0.19704
4540.27,0.18985
4534.48,0.18376
4528.69,0.17796
4522.91,0.17269
4517.12,0.16600
4511.34,0.16008
4505.55,0.15174
4499.76,0.14523
4493.98,0.13909
4488.19,0.13049
4482.4,0.12481
4476.62,0.11822
4470.83,0.11195
4465.05,0.10495
4459.26,0.09939
4453.47,0.09213
4447.69,0.08581
4441.9,0.07938
4436.11,0.07439
4430.33,0.06992
4424.54,0.06589
4418.76,0.06232
4412.97,0.05970
4407.18,0.05837
4401.4,0.05808
4395.61,0.05769
4389.82,0.05738
4384.04,0.05784
4378.25,0.05690
4372.47,0.05661
4366.68,0.05588
4360.89,0.05704
4355.11,0.05754
4349.32,0.05626
4343.53,0.05653
4337.75,0.05662
4331.96,0.05655
4326.18,0.05594
4320.39,0.05604
4314.6,0.05586
4308.82,0.05603
4303.03,0.05651
4297.24,0.05691
4291.46,0.05707
4285.67,0.05762
4279.89,0.05753
4274.1,0.05636
4268.31,0.05699
4262.53,0.05708
4256.74,0.05660
4250.95,0.05666
4245.17,0.05649
4239.38,0.05618
4233.6,0.05664
4227.81,0.05655
4222.02,0.05652
4216.24,0.05664
4210.45,0.05680
4204.66,0.05612
4198.88,0.05655
4193.09,0.05698
4187.31,0.05661
4181.52,0.05689
4175.73,0.05632
4169.95,0.05664
4164.16,0.05621
4158.37,0.05686
4152.59,0.05703
4146.8,0.05630
4141.02,0.05705
4135.23,0.05688
4129.44,0.05674
4123.66,0.05689
4117.87,0.05606
4112.09,0.05614
4106.3,0.05621
4100.51,0.05670
4094.73,0.05603
4088.94,0.05645
4083.15,0.05681
4077.37,0.05733
4071.58,0.05732
4065.8,0.05699
4060.01,0.05706
4054.22,0.05639
4048.44,0.05718
4042.65,0.05761
4036.86,0.05711
4031.08,0.05679
4025.29,0.05699
4019.51,0.05683
4013.72,0.05738
4007.93,0.05723
4002.15,0.05734
3996.36,0.05723
3990.57,0.05712
3984.79,0.05699
3979,0.05752
3973.22,0.05753
3967.43,0.05697
3961.64,0.05701
3955.86,0.05703
3950.07,0.05673
3944.28,0.05650
3938.5,0.05717
3932.71,0.05697
3926.93,0.05673
3921.14,0.05663
3915.35,0.05631
3909.57,0.05670
3903.78,0.05648
3897.99,0.05738
3892.21,0.05704
3886.42,0.05660
3880.64,0.05633
3874.85,0.05723
3869.06,0.05730
3863.28,0.05736
3857.49,0.05824
3851.7,0.05705
3845.92,0.05752
3840.13,0.05757
3834.35,0.05690
3828.56,0.05693
3822.77,0.05734
3816.99,0.05726
3811.2,0.05729
3805.41,0.05729
3799.63,0.05710
3793.84,0.05688
3788.06,0.05728
3782.27,0.05748
3776.48,0.05781
3770.7,0.05780
3764.91,0.05778
3759.12,0.05754
3753.34,0.05795
3747.55,0.05758
3741.77,0.05778
3735.98,0.05854
3730.19,0.05761
3724.41,0.05774
3718.62,0.05704
3712.83,0.05768
3707.05,0.05756
3701.26,0.05738
3695.48,0.05728
3689.69,0.05729
3683.9,0.05677
3678.12,0.05718
3672.33,0.05683
3666.54,0.05680
3660.76,0.05677
3654.97,0.05771
3649.19,0.05734
3643.4,0.05612
3637.61,0.05677
3631.83,0.05738
3626.04,0.05744
3620.25,0.05649
3614.47,0.05598
3608.68,0.05643
3602.9,0.05681
3597.11,0.05678
3591.32,0.05706
3585.54,0.05669
3579.75,0.05730
3573.97,0.05788
3568.18,0.05825
3562.39,0.05858
3556.61,0.05845
3550.82,0.05871
3545.03,0.05955
3539.25,0.05949
3533.46,0.05935
3527.68,0.05965
3521.89,0.06011
3516.1,0.05981
3510.32,0.06016
3504.53,0.06013
3498.74,0.06021
3492.96,0.05953
3487.17,0.05903
3481.39,0.05868
3475.6,0.05830
3469.81,0.05777
3464.03,0.05781
3458.24,0.05729
3452.45,0.05711
3446.67,0.05658
3440.88,0.05682
3435.1,0.05665
3429.31,0.05640
3423.52,0.05718
3417.74,0.05633
3411.95,0.05614
3406.16,0.05607
3400.38,0.05631
3394.59,0.05565
3388.81,0.05615
3383.02,0.05561
3377.23,0.05557
3371.45,0.05564
3365.66,0.05555
3359.87,0.05564
3354.09,0.05552
3348.3,0.05506
3342.52,0.05573
3336.73,0.05588
3330.94,0.05633
3325.16,0.05590
3319.37,0.05589
3313.58,0.05637
3307.8,0.05659
3302.01,0.05632
3296.23,0.05682
3290.44,0.05673
3284.65,0.05564
3278.87,0.05616
3273.08,0.05548
3267.29,0.05618
3261.51,0.05600
3255.72,0.05590
3249.94,0.05596
3244.15,0.05621
3238.36,0.05594
3232.58,0.05565
3226.79,0.05556
3221,0.05553
3215.22,0.05542
3209.43,0.05605
3203.65,0.05514
3197.86,0.05432
3192.07,0.05469
3186.29,0.05454
3180.5,0.05479
3174.71,0.05446
3168.93,0.05437
3163.14,0.05381
3157.36,0.05403
3151.57,0.05422
3145.78,0.05451
3140,0.05446
3134.21,0.05411
3128.42,0.05372
3122.64,0.05384
3116.85,0.05399
3111.07,0.05360
3105.28,0.05315
3099.49,0.05324
3093.71,0.05316
3087.92,0.05272
3082.14,0.05285
3076.35,0.05275
3070.56,0.05252
3064.78,0.05201
3058.99,0.05237
3053.2,0.05189
3047.42,0.05176
3041.63,0.05172
3035.85,0.05097
3030.06,0.05055
3024.27,0.05048
3018.49,0.05064
3012.7,0.04998
3006.91,0.04969
3001.13,0.04901
2995.34,0.04892
2989.56,0.04868
2983.77,0.04738
2977.98,0.04645
2972.2,0.04559
2966.41,0.04489
2960.62,0.04424
2954.84,0.04279
2949.05,0.04076
2943.27,0.03814
2937.48,0.03531
2931.69,0.03589
2925.91,0.04343
2920.12,0.06587
2914.33,0.08294
2908.55,0.07413
2902.76,0.06884
2896.98,0.06587
2891.19,0.06450
2885.4,0.06317
2879.62,0.06085
2873.83,0.05867
2868.04,0.05542
2862.26,0.05269
2856.47,0.05054
2850.69,0.06435
2844.9,0.07912
2839.11,0.07245
2833.33,0.06833
2827.54,0.06612
2821.75,0.06514
2815.97,0.06420
2810.18,0.06354
2804.4,0.06270
2798.61,0.06254
2792.82,0.06214
2787.04,0.06175
2781.25,0.06125
2775.46,0.06139
2769.68,0.06115
2763.89,0.06076
2758.11,0.06044
2752.32,0.06015
2746.53,0.05989
2740.75,0.05968
2734.96,0.05919
2729.17,0.05934
2723.39,0.05938
2717.6,0.05945
2711.82,0.05966
2706.03,0.05902
2700.24,0.05912
2694.46,0.05880
2688.67,0.05905
2682.88,0.05914
2677.1,0.05891
2671.31,0.05894
2665.53,0.05878
2659.74,0.05873
2653.95,0.05812
2648.17,0.05808
2642.38,0.05850
2636.59,0.05870
2630.81,0.05872
2625.02,0.05881
2619.24,0.05844
2613.45,0.05864
2607.66,0.05857
2601.88,0.05851
2596.09,0.05845
2590.3,0.05860
2584.52,0.05890
2578.73,0.05832
2572.95,0.05843
2567.16,0.05841
2561.37,0.05848
2555.59,0.05878
2549.8,0.05848
2544.02,0.05818
2538.23,0.05823
2532.44,0.05844
2526.66,0.05871
2520.87,0.05818
2515.08,0.05838
2509.3,0.05834
2503.51,0.05830
2497.73,0.05814
2491.94,0.05802
2486.15,0.05830
2480.37,0.05793
2474.58,0.05822
2468.79,0.05811
2463.01,0.05846
2457.22,0.05883
2451.44,0.05888
2445.65,0.05848
2439.86,0.05855
2434.08,0.05833
2428.29,0.05824
2422.5,0.05796
2416.72,0.05773
2410.93,0.05810
2405.15,0.05864
2399.36,0.05776
2393.57,0.05785
2387.79,0.05833
2382,0.05836
2376.21,0.05841
2370.43,0.05817
2364.64,0.05802
2358.86,0.05792
2353.07,0.05787
2347.28,0.05774
2341.5,0.05793
2335.71,0.05801
2329.92,0.05781
2324.14,0.05782
2318.35,0.05808
2312.57,0.05805
2306.78,0.05810
2300.99,0.05808
2295.21,0.05789
2289.42,0.05763
2283.63,0.05758
2277.85,0.05794
2272.06,0.05816
2266.28,0.05807
2260.49,0.05880
2254.7,0.05852
2248.92,0.05830
2243.13,0.05822
2237.34,0.05872
2231.56,0.05975
2225.77,0.05990
2219.99,0.05994
2214.2,0.06028
2208.41,0.06071
2202.63,0.06043
2196.84,0.06028
2191.05,0.06009
2185.27,0.05973
2179.48,0.05992
2173.7,0.05997
2167.91,0.05982
2162.12,0.05964
2156.34,0.05864
2150.55,0.05850
2144.76,0.05908
2138.98,0.05990
2133.19,0.06166
2127.41,0.06342
2121.62,0.06483
2115.83,0.06533
2110.05,0.06514
2104.26,0.06520
2098.47,0.06547
2092.69,0.06464
2086.9,0.06413
2081.12,0.06349
2075.33,0.06198
2069.54,0.06115
2063.76,0.06037
2057.97,0.05976
2052.19,0.05897
2046.4,0.05852
2040.61,0.05806
2034.83,0.05803
2029.04,0.05742
2023.25,0.05770
2017.47,0.05783
2011.68,0.05807
2005.9,0.05961
2000.11,0.06245
1994.32,0.06486
1988.54,0.06683
1982.75,0.06773
1976.96,0.06778
1971.18,0.06769
1965.39,0.06625
1959.61,0.06509
1953.82,0.06504
1948.03,0.06496
1942.25,0.06450
1936.46,0.06404
1930.67,0.06323
1924.89,0.06215
1919.1,0.06093
1913.32,0.05945
1907.53,0.05887
1901.74,0.05821
1895.96,0.05789
1890.17,0.05883
1884.38,0.06258
1878.6,0.06632
1872.81,0.07041
1867.03,0.07395
1861.24,0.07682
1855.45,0.07989
1849.67,0.08184
1843.88,0.08227
1838.09,0.08028
1832.31,0.07788
1826.52,0.07168
1820.74,0.06538
1814.95,0.06552
1809.16,0.06707
1803.38,0.06888
1797.59,0.07019
1791.8,0.07046
1786.02,0.07061
1780.23,0.07080
1774.45,0.07025
1768.66,0.06940
1762.87,0.06853
1757.09,0.06723
1751.3,0.06550
1745.51,0.06384
1739.73,0.06123
1733.94,0.05881
1728.16,0.05746
1722.37,0.05682
1716.58,0.05660
1710.8,0.05791
1705.01,0.05857
1699.22,0.05891
1693.44,0.05906
1687.65,0.05896
1681.87,0.05853
1676.08,0.05830
1670.29,0.05761
1664.51,0.05784
1658.72,0.05739
1652.93,0.05626
1647.15,0.05650
1641.36,0.05622
1635.58,0.05587
1629.79,0.05626
1624,0.05631
1618.22,0.05630
1612.43,0.05624
1606.64,0.05629
1600.86,0.05609
1595.07,0.05595
1589.29,0.05627
1583.5,0.05627
1577.71,0.05631
1571.93,0.05603
1566.14,0.05573
1560.35,0.05558
1554.57,0.05563
1548.78,0.05541
1543,0.05539
1537.21,0.05531
1531.42,0.05530
1525.64,0.05539
1519.85,0.05505
1514.07,0.05526
1508.28,0.05522
1502.49,0.05500
1496.71,0.05485
1490.92,0.05431
1485.13,0.05354
1479.35,0.05185
1473.56,0.05108
1467.78,0.05469
1461.99,0.05884
1456.2,0.05978
1450.42,0.05918
1444.63,0.05844
1438.84,0.05845
1433.06,0.05860
1427.27,0.05818
1421.49,0.05811
1415.7,0.05790
1409.91,0.05754
1404.13,0.05726
1398.34,0.05727
1392.55,0.05678
1386.77,0.05661
1380.98,0.05657
1375.2,0.05684
1369.41,0.05725
1363.62,0.05718
1357.84,0.05721
1352.05,0.05725
1346.26,0.05707
1340.48,0.05701
1334.69,0.05740
1328.91,0.05741
1323.12,0.05715
1317.33,0.05717
1311.55,0.05734
1305.76,0.05716
1299.97,0.05710
1294.19,0.05736
1288.4,0.05727
1282.62,0.05736
1276.83,0.05746
1271.04,0.05719
1265.26,0.05705
1259.47,0.05726
1253.68,0.05739
1247.9,0.05714
1242.11,0.05748
1236.33,0.05688
1230.54,0.05728
1224.75,0.05722
1218.97,0.05731
1213.18,0.05748
1207.39,0.05746
1201.61,0.05698
1195.82,0.05729
1190.04,0.05706
1184.25,0.05688
1178.46,0.05723
1172.68,0.05651
1166.89,0.05701
1161.1,0.05686
1155.32,0.05669
1149.53,0.05660
1143.75,0.05698
1137.96,0.05728
1132.17,0.05684
1126.39,0.05639
1120.6,0.05661
1114.81,0.05715
1109.03,0.05712
1103.24,0.05706
1097.46,0.05683
1091.67,0.05675
1085.88,0.05667
1080.1,0.05622
1074.31,0.05629
1068.52,0.05669
1062.74,0.05683
1056.95,0.05690
1051.17,0.05751
1045.38,0.05663
1039.59,0.05686
1033.81,0.05657
1028.02,0.05717
1022.24,0.05764
1016.45,0.05735
1010.66,0.05694
1004.88,0.05757
999.09,0.05695
993.304,0.05711
987.518,0.05718
981.731,0.05733
975.945,0.05748
970.159,0.05724
964.373,0.05754
958.586,0.05780
952.8,0.05766
947.014,0.05740
941.228,0.05749
935.441,0.05713
929.655,0.05668
923.869,0.05696
918.083,0.05756
912.297,0.05707
906.51,0.05733
900.724,0.05726
894.938,0.05690
889.152,0.05665
883.365,0.05659
877.579,0.05655
871.793,0.05668
866.007,0.05703
860.22,0.05696
854.434,0.05754
848.648,0.05733
842.862,0.05714
837.075,0.05718
831.289,0.05693
825.503,0.05669
819.717,0.05717
813.931,0.05677
808.144,0.05654
802.358,0.05705
796.572,0.05641
790.786,0.05692
784.999,0.05750
779.213,0.05663
773.427,0.05654
767.641,0.05700
761.854,0.05578
756.068,0.05576
750.282,0.05570
744.496,0.05584
738.709,0.05375
732.923,0.05154
727.137,0.05639
721.351,0.05762
715.565,0.06335
709.778,0.06114
703.992,0.05846
698.206,0.05799
692.42,0.05787
686.633,0.05874
680.847,0.05883
675.061,0.06068
669.275,0.06277
663.488,0.06601
657.702,0.07194
651.916,0.08143
646.13,0.08871
640.343,0.09709
634.557,0.09952
628.771,0.10389
622.985,0.10814
617.198,0.11137
611.412,0.10606
605.626,0.09941
599.84,0.09070