File: 01_Data/LDPE/FTIR/IS/LDPE_IS_S_220831_R3.dpt
7497.03,0.49291
7491.25,0.49830
7485.46,0.48971
7479.67,0.48150
7473.89,0.48665
7468.1,0.48867
7462.32,0.48772
7456.53,0.48502
7450.74,0.48167
7444.96,0.49207
7439.17,0.48857
7433.38,0.48718
7427.6,0.48373
7421.81,0.48999
7416.03,0.48182
7410.24,0.48921
7404.45,0.48957
7398.67,0.48317
7392.88,0.48207
7387.09,0.47796
7381.31,0.47613
7375.52,0.47487
7369.74,0.47669
7363.95,0.46380
7358.16,0.47276
7352.38,0.45442
7346.59,0.45785
7340.8,0.45662
7335.02,0.44998
7329.23,0.44542
7323.45,0.43583
7317.66,0.44228
7311.87,0.44155
7306.09,0.42885
7300.3,0.42527
7294.51,0.41787
7288.73,0.40288
7282.94,0.39652
7277.16,0.38957
7271.37,0.37578
7265.58,0.36493
7259.8,0.36250
7254.01,0.35681
7248.22,0.35127
7242.44,0.33590
7236.65,0.33004
7230.87,0.32057
7225.08,0.29995
7219.29,0.28851
7213.51,0.27328
7207.72,0.26599
7201.93,0.25036
7196.15,0.23600
7190.36,0.22009
7184.58,0.19864
7178.79,0.17882
7173,0.17204
7167.22,0.18432
7161.43,0.21217
7155.65,0.23593
7149.86,0.24912
7144.07,0.26123
7138.29,0.27391
7132.5,0.26877
7126.71,0.26962
7120.93,0.26769
7115.14,0.25911
7109.36,0.25880
7103.57,0.24632
7097.78,0.23910
7092,0.23681
7086.21,0.23189
7080.42,0.22735
7074.64,0.21606
7068.85,0.21131
7063.07,0.20423
7057.28,0.20668
7051.49,0.21842
7045.71,0.22255
7039.92,0.22368
7034.13,0.22477
7028.35,0.21896
7022.56,0.22547
7016.78,0.22369
7010.99,0.23125
7005.2,0.23785
6999.42,0.23721
6993.63,0.23558
6987.84,0.24395
6982.06,0.24492
6976.27,0.24368
6970.49,0.23844
6964.7,0.24176
6958.91,0.24923
6953.13,0.24589
6947.34,0.24958
6941.55,0.25539
6935.77,0.26473
6929.98,0.27146
6924.2,0.27785
6918.41,0.27790
6912.62,0.28474
6906.84,0.29328
6901.05,0.28518
6895.26,0.28831
6889.48,0.29776
6883.69,0.30046
6877.91,0.30574
6872.12,0.31184
6866.33,0.31555
6860.55,0.31520
6854.76,0.32372
6848.97,0.32566
6843.19,0.32398
6837.4,0.32920
6831.62,0.33141
6825.83,0.34062
6820.04,0.35517
6814.26,0.35234
6808.47,0.36142
6802.68,0.36860
6796.9,0.37499
6791.11,0.37968
6785.33,0.37898
6779.54,0.38795
6773.75,0.39200
6767.97,0.39298
6762.18,0.39429
6756.39,0.40172
6750.61,0.40480
6744.82,0.40883
6739.04,0.40676
6733.25,0.40680
6727.46,0.41249
6721.68,0.41340
6715.89,0.41971
6710.1,0.42339
6704.32,0.43149
6698.53,0.43264
6692.75,0.43094
6686.96,0.43349
6681.17,0.44114
6675.39,0.44304
6669.6,0.43758
6663.82,0.43726
6658.03,0.44357
6652.24,0.44236
6646.46,0.44726
6640.67,0.44869
6634.88,0.44839
6629.1,0.45080
6623.31,0.45841
6617.53,0.45259
6611.74,0.45446
6605.95,0.45376
6600.17,0.45496
6594.38,0.45454
6588.59,0.45342
6582.81,0.45580
6577.02,0.45509
6571.24,0.45335
6565.45,0.44756
6559.66,0.45451
6553.88,0.45287
6548.09,0.45217
6542.3,0.44991
6536.52,0.45145
6530.73,0.44602
6524.95,0.44751
6519.16,0.44746
6513.37,0.44847
6507.59,0.44239
6501.8,0.43490
6496.01,0.43696
6490.23,0.42873
6484.44,0.42871
6478.66,0.43095
6472.87,0.44600
6467.08,0.45875
6461.3,0.46913
6455.51,0.47159
6449.72,0.47776
6443.94,0.47884
6438.15,0.48872
6432.37,0.48952
6426.58,0.48950
6420.79,0.48853
6415.01,0.49303
6409.22,0.49402
6403.43,0.49730
6397.65,0.49758
6391.86,0.50102
6386.08,0.50367
6380.29,0.50298
6374.5,0.50528
6368.72,0.50703
6362.93,0.50931
6357.14,0.51017
6351.36,0.51348
6345.57,0.51570
6339.79,0.51412
6334,0.51939
6328.21,0.51890
6322.43,0.51996
6316.64,0.52196
6310.85,0.51720
6305.07,0.51825
6299.28,0.51875
6293.5,0.52268
6287.71,0.52400
6281.92,0.51909
6276.14,0.52188
6270.35,0.51993
6264.56,0.51791
6258.78,0.51923
6252.99,0.51886
6247.21,0.52176
6241.42,0.52300
6235.63,0.51850
6229.85,0.51749
6224.06,0.52066
6218.27,0.51791
6212.49,0.51689
6206.7,0.51762
6200.92,0.51796
6195.13,0.51962
6189.34,0.51375
6183.56,0.51264
6177.77,0.50870
6171.98,0.50990
6166.2,0.51103
6160.41,0.50818
6154.63,0.50603
6148.84,0.50308
6143.05,0.49885
6137.27,0.49928
6131.48,0.49807
6125.7,0.49666
6119.91,0.49363
6114.12,0.49358
6108.34,0.49286
6102.55,0.48936
6096.76,0.48870
6090.98,0.48538
6085.19,0.48569
6079.41,0.48648
6073.62,0.48223
6067.83,0.48171
6062.05,0.47972
6056.26,0.47575
6050.47,0.47501
6044.69,0.46884
6038.9,0.46864
6033.12,0.46372
6027.33,0.45935
6021.54,0.45134
6015.76,0.44932
6009.97,0.44408
6004.18,0.43970
5998.4,0.42930
5992.61,0.42125
5986.83,0.41678
5981.04,0.40546
5975.25,0.39668
5969.47,0.38788
5963.68,0.37565
5957.89,0.36571
5952.11,0.35074
5946.32,0.33784
5940.54,0.32455
5934.75,0.30802
5928.96,0.28809
5923.18,0.26689
5917.39,0.24811
5911.6,0.22976
5905.82,0.21337
5900.03,0.20408
5894.25,0.19289
5888.46,0.17860
5882.67,0.16171
5876.89,0.13957
5871.1,0.11822
5865.31,0.10255
5859.53,0.08797
5853.74,0.07863
5847.96,0.07052
5842.17,0.06665
5836.38,0.06407
5830.6,0.06205
5824.81,0.05919
5819.02,0.05806
5813.24,0.05770
5807.45,0.05863
5801.67,0.05810
5795.88,0.05654
5790.09,0.05835
5784.31,0.05696
5778.52,0.05677
5772.73,0.05535
5766.95,0.05349
5761.16,0.05597
5755.38,0.05652
5749.59,0.05855
5743.8,0.06165
5738.02,0.06590
5732.23,0.06575
5726.44,0.06960
5720.66,0.07655
5714.87,0.07965
5709.09,0.07596
5703.3,0.07157
5697.51,0.06790
5691.73,0.06602
5685.94,0.06448
5680.15,0.06295
5674.37,0.06015
5668.58,0.05906
5662.8,0.05889
5657.01,0.06022
5651.22,0.06385
5645.44,0.06975
5639.65,0.07219
5633.87,0.07558
5628.08,0.07988
5622.29,0.08174
5616.51,0.08493
5610.72,0.08879
5604.93,0.09291
5599.15,0.09446
5593.36,0.09702
5587.58,0.09755
5581.79,0.09383
5576,0.09059
5570.22,0.09009
5564.43,0.08719
5558.64,0.08596
5552.86,0.08559
5547.07,0.08578
5541.29,0.08767
5535.5,0.08682
5529.71,0.08817
5523.93,0.08803
5518.14,0.08974
5512.35,0.08916
5506.57,0.08702
5500.78,0.08564
5495,0.08555
5489.21,0.08428
5483.42,0.08507
5477.64,0.08889
5471.85,0.09122
5466.06,0.09439
5460.28,0.09616
5454.49,0.09662
5448.71,0.09768
5442.92,0.09925
5437.13,0.10006
5431.35,0.10148
5425.56,0.10350
5419.77,0.10724
5413.99,0.11183
5408.2,0.11697
5402.42,0.12180
5396.63,0.12650
5390.84,0.13002
5385.06,0.13347
5379.27,0.13621
5373.48,0.13861
5367.7,0.14184
5361.91,0.14281
5356.13,0.14832
5350.34,0.15497
5344.55,0.15975
5338.77,0.16263
5332.98,0.16644
5327.19,0.16654
5321.41,0.16494
5315.62,0.16170
5309.84,0.15860
5304.05,0.15974
5298.26,0.16209
5292.48,0.16240
5286.69,0.16297
5280.9,0.16314
5275.12,0.16274
5269.33,0.16248
5263.55,0.16253
5257.76,0.16416
5251.97,0.16318
5246.19,0.16241
5240.4,0.16181
5234.61,0.16187
5228.83,0.15998
5223.04,0.15955
5217.26,0.15970
5211.47,0.16095
5205.68,0.16016
5199.9,0.15916
5194.11,0.16002
5188.32,0.15834
5182.54,0.15873
5176.75,0.15971
5170.97,0.15948
5165.18,0.16013
5159.39,0.16093
5153.61,0.16189
5147.82,0.16352
5142.03,0.16612
5136.25,0.16649
5130.46,0.16747
5124.68,0.16815
5118.89,0.16630
5113.1,0.16507
5107.32,0.16378
5101.53,0.16470
5095.75,0.16413
5089.96,0.16481
5084.17,0.16666
5078.39,0.16787
5072.6,0.16871
5066.81,0.16823
5061.03,0.16970
5055.24,0.17196
5049.46,0.17298
5043.67,0.17188
5037.88,0.17280
5032.1,0.17460
5026.31,0.17229
5020.52,0.17051
5014.74,0.17022
5008.95,0.16873
5003.17,0.16677
4997.38,0.16224
4991.59,0.15781
4985.81,0.15384
4980.02,0.14974
4974.23,0.14809
4968.45,0.14482
4962.66,0.14618
4956.88,0.15343
4951.09,0.16286
4945.3,0.16750
4939.52,0.16984
4933.73,0.17158
4927.94,0.17129
4922.16,0.17155
4916.37,0.17237
4910.59,0.17213
4904.8,0.17263
4899.01,0.17187
4893.23,0.16984
4887.44,0.16837
4881.65,0.16655
4875.87,0.16604
4870.08,0.16534
4864.3,0.16622
4858.51,0.17054
4852.72,0.17545
4846.94,0.18092
4841.15,0.18555
4835.36,0.19041
4829.58,0.19395
4823.79,0.19859
4818.01,0.20426
4812.22,0.20819
4806.43,0.21172
4800.65,0.21425
4794.86,0.21708
4789.07,0.21973
4783.29,0.22110
4777.5,0.22254
4771.72,0.22779
4765.93,0.23152
4760.14,0.23569
4754.36,0.23905
4748.57,0.24184
4742.78,0.24392
4737,0.24512
4731.21,0.24627
4725.43,0.24992
4719.64,0.25336
4713.85,0.25672
4708.07,0.25869
4702.28,0.25826
4696.49,0.26050
4690.71,0.26080
4684.92,0.25800
4679.14,0.25272
4673.35,0.24693
4667.56,0.24328
4661.78,0.24529
4655.99,0.25078
4650.2,0.25349
4644.42,0.25378
4638.63,0.25399
4632.85,0.25265
4627.06,0.25137
4621.27,0.24913
4615.49,0.24664
4609.7,0.24367
4603.92,0.24177
4598.13,0.24028
4592.34,0.23689
4586.56,0.23431
4580.77,0.23005
4574.98,0.22659
4569.2,0.22187
4563.41,0.21615
4557.63,0.20961
4551.84,0.20423
4546.05,0.19730
4540.27,0.19136
4534.48,0.18481
4528.69,0.17855
4522.91,0.17266
4517.12,0.16597
4511.34,0.16004
4505.55,0.15250
4499.76,0.14481
4493.98,0.13905
4488.19,0.13178
4482.4,0.12467
4476.62,0.11819
4470.83,0.11248
4465.05,0.10614
4459.26,0.09946
4453.47,0.09279
4447.69,0.08624
4441.9,0.07977
4436.11,0.07456
4430.33,0.07044
4424.54,0.06642
4418.76,0.06261
4412.97,0.06053
4407.18,0.05854
4401.4,0.05800
4395.61,0.05743
4389.82,0.05761
4384.04,0.05720
4378.25,0.05704
4372.47,0.05745
4366.68,0.05723
4360.89,0.05687
4355.11,0.05704
4349.32,0.05637
4343.53,0.05621
4337.75,0.05637
4331.96,0.05591
4326.18,0.05617
4320.39,0.05671
4314.6,0.05672
4308.82,0.05648
4303.03,0.05665
4297.24,0.05751
4291.46,0.05699
4285.67,0.05635
4279.89,0.05681
4274.1,0.05655
4268.31,0.05661
4262.53,0.05649
4256.74,0.05679
4250.95,0.05667
4245.17,0.05671
4239.38,0.05670
4233.6,0.05607
4227.81,0.05712
4222.02,0.05761
4216.24,0.05728
4210.45,0.05710
4204.66,0.05656
4198.88,0.05620
4193.09,0.05638
4187.31,0.05693
4181.52,0.05661
4175.73,0.05633
4169.95,0.05691
4164.16,0.05710
4158.37,0.05696
4152.59,0.05613
4146.8,0.05711
4141.02,0.05643
4135.23,0.05726
4129.44,0.05693
4123.66,0.05673
4117.87,0.05652
4112.09,0.05733
4106.3,0.05647
4100.51,0.05643
4094.73,0.05727
4088.94,0.05690
4083.15,0.05692
4077.37,0.05715
4071.58,0.05786
4065.8,0.05694
4060.01,0.05692
4054.22,0.05653
4048.44,0.05709
4042.65,0.05662
4036.86,0.05645
4031.08,0.05739
4025.29,0.05812
4019.51,0.05723
4013.72,0.05700
4007.93,0.05733
4002.15,0.05758
3996.36,0.05711
3990.57,0.05664
3984.79,0.05726
3979,0.05727
3973.22,0.05697
3967.43,0.05771
3961.64,0.05705
3955.86,0.05741
3950.07,0.05718
3944.28,0.05703
3938.5,0.05662
3932.71,0.05726
3926.93,0.05779
3921.14,0.05706
3915.35,0.05731
3909.57,0.05742
3903.78,0.05771
3897.99,0.05733
3892.21,0.05702
3886.42,0.05699
3880.64,0.05683
3874.85,0.05666
3869.06,0.05674
3863.28,0.05732
3857.49,0.05737
3851.7,0.05665
3845.92,0.05741
3840.13,0.05738
3834.35,0.05772
3828.56,0.05733
3822.77,0.05757
3816.99,0.05710
3811.2,0.05725
3805.41,0.05736
3799.63,0.05759
3793.84,0.05724
3788.06,0.05765
3782.27,0.05756
3776.48,0.05788
3770.7,0.05769
3764.91,0.05787
3759.12,0.05730
3753.34,0.05830
3747.55,0.05772
3741.77,0.05817
3735.98,0.05760
3730.19,0.05757
3724.41,0.05732
3718.62,0.05740
3712.83,0.05740
3707.05,0.05752
3701.26,0.05777
3695.48,0.05708
3689.69,0.05701
3683.9,0.05781
3678.12,0.05808
3672.33,0.05748
3666.54,0.05704
3660.76,0.05707
3654.97,0.05706
3649.19,0.05707
3643.4,0.05729
3637.61,0.05663
3631.83,0.05659
3626.04,0.05636
3620.25,0.05691
3614.47,0.05659
3608.68,0.05666
3602.9,0.05649
3597.11,0.05627
3591.32,0.05703
3585.54,0.05717
3579.75,0.05719
3573.97,0.05691
3568.18,0.05702
3562.39,0.05828
3556.61,0.05879
3550.82,0.05928
3545.03,0.05922
3539.25,0.05990
3533.46,0.05997
3527.68,0.05994
3521.89,0.06012
3516.1,0.05924
3510.32,0.05963
3504.53,0.05916
3498.74,0.05889
3492.96,0.05977
3487.17,0.05906
3481.39,0.05822
3475.6,0.05845
3469.81,0.05751
3464.03,0.05793
3458.24,0.05703
3452.45,0.05667
3446.67,0.05714
3440.88,0.05679
3435.1,0.05670
3429.31,0.05574
3423.52,0.05651
3417.74,0.05651
3411.95,0.05636
3406.16,0.05673
3400.38,0.05583
3394.59,0.05609
3388.81,0.05666
3383.02,0.05557
3377.23,0.05534
3371.45,0.05531
3365.66,0.05517
3359.87,0.05579
3354.09,0.05568
3348.3,0.05566
3342.52,0.05667
3336.73,0.05617
3330.94,0.05622
3325.16,0.05643
3319.37,0.05649
3313.58,0.05633
3307.8,0.05645
3302.01,0.05669
3296.23,0.05689
3290.44,0.05623
3284.65,0.05642
3278.87,0.05653
3273.08,0.05600
3267.29,0.05613
3261.51,0.05586
3255.72,0.05612
3249.94,0.05636
3244.15,0.05574
3238.36,0.05643
3232.58,0.05593
3226.79,0.05591
3221,0.05488
3215.22,0.05480
3209.43,0.05496
3203.65,0.05476
3197.86,0.05464
3192.07,0.05526
3186.29,0.05457
3180.5,0.05454
3174.71,0.05424
3168.93,0.05441
3163.14,0.05448
3157.36,0.05462
3151.57,0.05432
3145.78,0.05459
3140,0.05425
3134.21,0.05409
3128.42,0.05410
3122.64,0.05369
3116.85,0.05361
3111.07,0.05391
3105.28,0.05367
3099.49,0.05308
3093.71,0.05327
3087.92,0.05298
3082.14,0.05248
3076.35,0.05312
3070.56,0.05248
3064.78,0.05193
3058.99,0.05190
3053.2,0.05157
3047.42,0.05187
3041.63,0.05141
3035.85,0.05136
3030.06,0.05146
3024.27,0.05131
3018.49,0.05068
3012.7,0.05040
3006.91,0.04977
3001.13,0.04970
2995.34,0.04922
2989.56,0.04807
2983.77,0.04712
2977.98,0.04649
2972.2,0.04550
2966.41,0.04518
2960.62,0.04451
2954.84,0.04319
2949.05,0.04108
2943.27,0.03837
2937.48,0.03608
2931.69,0.03664
2925.91,0.04344
2920.12,0.06631
2914.33,0.08303
2908.55,0.07451
2902.76,0.06917
2896.98,0.06622
2891.19,0.06451
2885.4,0.06272
2879.62,0.06075
2873.83,0.05858
2868.04,0.05620
2862.26,0.05229
2856.47,0.05057
2850.69,0.06455
2844.9,0.07926
2839.11,0.07301
2833.33,0.06887
2827.54,0.06636
2821.75,0.06529
2815.97,0.06413
2810.18,0.06321
2804.4,0.06324
2798.61,0.06203
2792.82,0.06203
2787.04,0.06163
2781.25,0.06136
2775.46,0.06095
2769.68,0.06127
2763.89,0.06037
2758.11,0.06080
2752.32,0.06001
2746.53,0.05986
2740.75,0.06023
2734.96,0.05976
2729.17,0.05963
2723.39,0.05976
2717.6,0.05964
2711.82,0.05946
2706.03,0.05959
2700.24,0.05927
2694.46,0.05957
2688.67,0.05902
2682.88,0.05915
2677.1,0.05889
2671.31,0.05927
2665.53,0.05924
2659.74,0.05905
2653.95,0.05882
2648.17,0.05866
2642.38,0.05837
2636.59,0.05867
2630.81,0.05886
2625.02,0.05847
2619.24,0.05832
2613.45,0.05868
2607.66,0.05827
2601.88,0.05873
2596.09,0.05880
2590.3,0.05835
2584.52,0.05838
2578.73,0.05880
2572.95,0.05830
2567.16,0.05796
2561.37,0.05835
2555.59,0.05811
2549.8,0.05831
2544.02,0.05815
2538.23,0.05838
2532.44,0.05819
2526.66,0.05843
2520.87,0.05836
2515.08,0.05821
2509.3,0.05849
2503.51,0.05801
2497.73,0.05785
2491.94,0.05827
2486.15,0.05819
2480.37,0.05830
2474.58,0.05791
2468.79,0.05810
2463.01,0.05843
2457.22,0.05843
2451.44,0.05856
2445.65,0.05896
2439.86,0.05845
2434.08,0.05840
2428.29,0.05823
2422.5,0.05788
2416.72,0.05816
2410.93,0.05812
2405.15,0.05820
2399.36,0.05830
2393.57,0.05811
2387.79,0.05844
2382,0.05808
2376.21,0.05814
2370.43,0.05822
2364.64,0.05821
2358.86,0.05801
2353.07,0.05791
2347.28,0.05808
2341.5,0.05825
2335.71,0.05816
2329.92,0.05818
2324.14,0.05800
2318.35,0.05793
2312.57,0.05799
2306.78,0.05794
2300.99,0.05803
2295.21,0.05824
2289.42,0.05811
2283.63,0.05823
2277.85,0.05798
2272.06,0.05812
2266.28,0.05833
2260.49,0.05827
2254.7,0.05808
2248.92,0.05868
2243.13,0.05853
2237.34,0.05904
2231.56,0.05974
2225.77,0.06014
2219.99,0.05994
2214.2,0.06069
2208.41,0.06060
2202.63,0.06038
2196.84,0.06025
2191.05,0.06004
2185.27,0.05977
2179.48,0.06008
2173.7,0.06029
2167.91,0.05966
2162.12,0.05964
2156.34,0.05888
2150.55,0.05881
2144.76,0.05922
2138.98,0.06006
2133.19,0.06167
2127.41,0.06322
2121.62,0.06468
2115.83,0.06556
2110.05,0.06551
2104.26,0.06517
2098.47,0.06549
2092.69,0.06510
2086.9,0.06420
2081.12,0.06329
2075.33,0.06244
2069.54,0.06147
2063.76,0.06068
2057.97,0.06012
2052.19,0.05935
2046.4,0.05863
2040.61,0.05806
2034.83,0.05840
2029.04,0.05815
2023.25,0.05802
2017.47,0.05783
2011.68,0.05801
2005.9,0.05954
2000.11,0.06231
1994.32,0.06532
1988.54,0.06699
1982.75,0.06781
1976.96,0.06812
1971.18,0.06769
1965.39,0.06612
1959.61,0.06483
1953.82,0.06512
1948.03,0.06524
1942.25,0.06474
1936.46,0.06420
1930.67,0.06314
1924.89,0.06255
1919.1,0.06103
1913.32,0.06025
1907.53,0.05912
1901.74,0.05823
1895.96,0.05768
1890.17,0.05903
1884.38,0.06257
1878.6,0.06677
1872.81,0.07034
1867.03,0.07373
1861.24,0.07703
1855.45,0.07992
1849.67,0.08175
1843.88,0.08213
1838.09,0.08062
1832.31,0.07788
1826.52,0.07155
1820.74,0.06562
1814.95,0.06540
1809.16,0.06720
1803.38,0.06930
1797.59,0.07071
1791.8,0.07091
1786.02,0.07063
1780.23,0.07094
1774.45,0.07051
1768.66,0.06980
1762.87,0.06861
1757.09,0.06727
1751.3,0.06576
1745.51,0.06382
1739.73,0.06123
1733.94,0.05893
1728.16,0.05735
1722.37,0.05667
1716.58,0.05700
1710.8,0.05777
1705.01,0.05884
1699.22,0.05872
1693.44,0.05871
1687.65,0.05907
1681.87,0.05869
1676.08,0.05836
1670.29,0.05809
1664.51,0.05756
1658.72,0.05764
1652.93,0.05694
1647.15,0.05596
1641.36,0.05617
1635.58,0.05619
1629.79,0.05620
1624,0.05653
1618.22,0.05653
1612.43,0.05633
1606.64,0.05609
1600.86,0.05608
1595.07,0.05618
1589.29,0.05599
1583.5,0.05648
1577.71,0.05634
1571.93,0.05586
1566.14,0.05586
1560.35,0.05553
1554.57,0.05562
1548.78,0.05587
1543,0.05589
1537.21,0.05547
1531.42,0.05583
1525.64,0.05563
1519.85,0.05527
1514.07,0.05531
1508.28,0.05529
1502.49,0.05481
1496.71,0.05460
1490.92,0.05475
1485.13,0.05363
1479.35,0.05182
1473.56,0.05105
1467.78,0.05511
1461.99,0.05906
1456.2,0.06000
1450.42,0.05960
1444.63,0.05884
1438.84,0.05844
1433.06,0.05865
1427.27,0.05827
1421.49,0.05810
1415.7,0.05815
1409.91,0.05753
1404.13,0.05756
1398.34,0.05750
1392.55,0.05709
1386.77,0.05696
1380.98,0.05678
1375.2,0.05706
1369.41,0.05724
1363.62,0.05739
1357.84,0.05757
1352.05,0.05742
1346.26,0.05778
1340.48,0.05754
1334.69,0.05705
1328.91,0.05714
1323.12,0.05708
1317.33,0.05718
1311.55,0.05711
1305.76,0.05697
1299.97,0.05719
1294.19,0.05728
1288.4,0.05759
1282.62,0.05764
1276.83,0.05755
1271.04,0.05775
1265.26,0.05747
1259.47,0.05756
1253.68,0.05722
1247.9,0.05721
1242.11,0.05729
1236.33,0.05766
1230.54,0.05730
1224.75,0.05729
1218.97,0.05711
1213.18,0.05692
1207.39,0.05735
1201.61,0.05713
1195.82,0.05685
1190.04,0.05677
1184.25,0.05719
1178.46,0.05671
1172.68,0.05667
1166.89,0.05703
1161.1,0.05646
1155.32,0.05666
1149.53,0.05679
1143.75,0.05653
1137.96,0.05699
1132.17,0.05686
1126.39,0.05670
1120.6,0.05719
1114.81,0.05775
1109.03,0.05691
1103.24,0.05688
1097.46,0.05675
1091.67,0.05669
1085.88,0.05639
1080.1,0.05687
1074.31,0.05629
1068.52,0.05726
1062.74,0.05741
1056.95,0.05722
1051.17,0.05701
1045.38,0.05772
1039.59,0.05689
1033.81,0.05724
1028.02,0.05799
1022.24,0.05798
1016.45,0.05714
1010.66,0.05767
1004.88,0.05677
999.09,0.05698
993.304,0.05712
987.518,0.05707
981.731,0.05705
975.945,0.05722
970.159,0.05708
964.373,0.05698
958.586,0.05739
952.8,0.05769
947.014,0.05773
941.228,0.05774
935.441,0.05727
929.655,0.05766
923.869,0.05765
918.083,0.05657
912.297,0.05695
906.51,0.05754
900.724,0.05716
894.938,0.05672
889.152,0.05679
883.365,0.05731
877.579,0.05734
871.793,0.05733
866.007,0.05762
860.22,0.05660
854.434,0.05748
848.648,0.05673
842.862,0.05736
837.075,0.05778
831.289,0.05755
825.503,0.05752
819.717,0.05780
813.931,0.05712
808.144,0.05725
802.358,0.05656
796.572,0.05711
790.786,0.05624
784.999,0.05651
779.213,0.05683
773.427,0.05650
767.641,0.05623
761.854,0.05595
756.068,0.05574
750.282,0.05514
744.496,0.05458
738.709,0.05373
732.923,0.05199
727.137,0.05646
721.351,0.05769
715.565,0.06214
709.778,0.06100
703.992,0.05917
698.206,0.05820
692.42,0.05786
686.633,0.05842
680.847,0.05811
675.061,0.06010
669.275,0.06321
663.488,0.06639
657.702,0.07150
651.916,0.08064
646.13,0.08850
640.343,0.09455
634.557,0.09987
628.771,0.10511
622.985,0.10987
617.198,0.11099
611.412,0.10877
605.626,0.09803
599.84,0.09199