File: 01_Data/LDPE/FTIR/IS/LDPE_IS_S_220831_R6.dpt
7497.03,0.48489
7491.25,0.49069
7485.46,0.49189
7479.67,0.49218
7473.89,0.49194
7468.1,0.49102
7462.32,0.49052
7456.53,0.47990
7450.74,0.48468
7444.96,0.49403
7439.17,0.48901
7433.38,0.48461
7427.6,0.48682
7421.81,0.49586
7416.03,0.49042
7410.24,0.48570
7404.45,0.48798
7398.67,0.48651
7392.88,0.47491
7387.09,0.48438
7381.31,0.48252
7375.52,0.48128
7369.74,0.46965
7363.95,0.46315
7358.16,0.45558
7352.38,0.46136
7346.59,0.44998
7340.8,0.45113
7335.02,0.45026
7329.23,0.44339
7323.45,0.44681
7317.66,0.43605
7311.87,0.42835
7306.09,0.42618
7300.3,0.41590
7294.51,0.41345
7288.73,0.39786
7282.94,0.38805
7277.16,0.38002
7271.37,0.37494
7265.58,0.36720
7259.8,0.36533
7254.01,0.35076
7248.22,0.34600
7242.44,0.33160
7236.65,0.31751
7230.87,0.31203
7225.08,0.30046
7219.29,0.29264
7213.51,0.27155
7207.72,0.26147
7201.93,0.24953
7196.15,0.22869
7190.36,0.21231
7184.58,0.19653
7178.79,0.17922
7173,0.16735
7167.22,0.18559
7161.43,0.20990
7155.65,0.24016
7149.86,0.25792
7144.07,0.26700
7138.29,0.26730
7132.5,0.27053
7126.71,0.26963
7120.93,0.27115
7115.14,0.25979
7109.36,0.25063
7103.57,0.25566
7097.78,0.24368
7092,0.23343
7086.21,0.23853
7080.42,0.22503
7074.64,0.21330
7068.85,0.20637
7063.07,0.20288
7057.28,0.20602
7051.49,0.21662
7045.71,0.22043
7039.92,0.22650
7034.13,0.22734
7028.35,0.22557
7022.56,0.22853
7016.78,0.22715
7010.99,0.23325
7005.2,0.23509
6999.42,0.23549
6993.63,0.23405
6987.84,0.24030
6982.06,0.24156
6976.27,0.24352
6970.49,0.24300
6964.7,0.24759
6958.91,0.24697
6953.13,0.25353
6947.34,0.25217
6941.55,0.26143
6935.77,0.26576
6929.98,0.26996
6924.2,0.27488
6918.41,0.28191
6912.62,0.28296
6906.84,0.28955
6901.05,0.28959
6895.26,0.29718
6889.48,0.30402
6883.69,0.30431
6877.91,0.30896
6872.12,0.30769
6866.33,0.31506
6860.55,0.32441
6854.76,0.32459
6848.97,0.32981
6843.19,0.33098
6837.4,0.32945
6831.62,0.33447
6825.83,0.34006
6820.04,0.34961
6814.26,0.35069
6808.47,0.35844
6802.68,0.36395
6796.9,0.37188
6791.11,0.37494
6785.33,0.38092
6779.54,0.39420
6773.75,0.39364
6767.97,0.38903
6762.18,0.39227
6756.39,0.39911
6750.61,0.40375
6744.82,0.40419
6739.04,0.41003
6733.25,0.41127
6727.46,0.41300
6721.68,0.41913
6715.89,0.42227
6710.1,0.42849
6704.32,0.42624
6698.53,0.42730
6692.75,0.43077
6686.96,0.43243
6681.17,0.43465
6675.39,0.44128
6669.6,0.43867
6663.82,0.43891
6658.03,0.44317
6652.24,0.44335
6646.46,0.44727
6640.67,0.44699
6634.88,0.44831
6629.1,0.44490
6623.31,0.44827
6617.53,0.45097
6611.74,0.45195
6605.95,0.45533
6600.17,0.45683
6594.38,0.45440
6588.59,0.45461
6582.81,0.45467
6577.02,0.45587
6571.24,0.44993
6565.45,0.44892
6559.66,0.44875
6553.88,0.45087
6548.09,0.45229
6542.3,0.45102
6536.52,0.44972
6530.73,0.44948
6524.95,0.44784
6519.16,0.44459
6513.37,0.44148
6507.59,0.44002
6501.8,0.43737
6496.01,0.43389
6490.23,0.43189
6484.44,0.42869
6478.66,0.43279
6472.87,0.44737
6467.08,0.45937
6461.3,0.46636
6455.51,0.47411
6449.72,0.47686
6443.94,0.48092
6438.15,0.48068
6432.37,0.48436
6426.58,0.48918
6420.79,0.49019
6415.01,0.49272
6409.22,0.49113
6403.43,0.50037
6397.65,0.49929
6391.86,0.49931
6386.08,0.49964
6380.29,0.50114
6374.5,0.50278
6368.72,0.50840
6362.93,0.50802
6357.14,0.50946
6351.36,0.51201
6345.57,0.51331
6339.79,0.51313
6334,0.51540
6328.21,0.51819
6322.43,0.51758
6316.64,0.51776
6310.85,0.51969
6305.07,0.51716
6299.28,0.52123
6293.5,0.51608
6287.71,0.52108
6281.92,0.52344
6276.14,0.51824
6270.35,0.52016
6264.56,0.51960
6258.78,0.51983
6252.99,0.51595
6247.21,0.52159
6241.42,0.51534
6235.63,0.51913
6229.85,0.52040
6224.06,0.51963
6218.27,0.51973
6212.49,0.51728
6206.7,0.51944
6200.92,0.51604
6195.13,0.51212
6189.34,0.51012
6183.56,0.51070
6177.77,0.51234
6171.98,0.50864
6166.2,0.50787
6160.41,0.50495
6154.63,0.50188
6148.84,0.50205
6143.05,0.50282
6137.27,0.49957
6131.48,0.49700
6125.7,0.49490
6119.91,0.49062
6114.12,0.49278
6108.34,0.48973
6102.55,0.49092
6096.76,0.48946
6090.98,0.48941
6085.19,0.48992
6079.41,0.48572
6073.62,0.48458
6067.83,0.48205
6062.05,0.47669
6056.26,0.47362
6050.47,0.47288
6044.69,0.46741
6038.9,0.46682
6033.12,0.46116
6027.33,0.45749
6021.54,0.45132
6015.76,0.44824
6009.97,0.44129
6004.18,0.43834
5998.4,0.43101
5992.61,0.42160
5986.83,0.41541
5981.04,0.40459
5975.25,0.39282
5969.47,0.38533
5963.68,0.37301
5957.89,0.36467
5952.11,0.34990
5946.32,0.33698
5940.54,0.32499
5934.75,0.31020
5928.96,0.29038
5923.18,0.26614
5917.39,0.24525
5911.6,0.22608
5905.82,0.21143
5900.03,0.20242
5894.25,0.19217
5888.46,0.17877
5882.67,0.16010
5876.89,0.14015
5871.1,0.12122
5865.31,0.10276
5859.53,0.08940
5853.74,0.07960
5847.96,0.07137
5842.17,0.06877
5836.38,0.06292
5830.6,0.06118
5824.81,0.05951
5819.02,0.05866
5813.24,0.05933
5807.45,0.05776
5801.67,0.05733
5795.88,0.05827
5790.09,0.05769
5784.31,0.05583
5778.52,0.05633
5772.73,0.05707
5766.95,0.05867
5761.16,0.05750
5755.38,0.05788
5749.59,0.05802
5743.8,0.06094
5738.02,0.06382
5732.23,0.06578
5726.44,0.06982
5720.66,0.07845
5714.87,0.07811
5709.09,0.07491
5703.3,0.07252
5697.51,0.06885
5691.73,0.06646
5685.94,0.06437
5680.15,0.06089
5674.37,0.05932
5668.58,0.05952
5662.8,0.05903
5657.01,0.05847
5651.22,0.06466
5645.44,0.07062
5639.65,0.07231
5633.87,0.07732
5628.08,0.07824
5622.29,0.08149
5616.51,0.08419
5610.72,0.08717
5604.93,0.09370
5599.15,0.09725
5593.36,0.09709
5587.58,0.09780
5581.79,0.09499
5576,0.09137
5570.22,0.09004
5564.43,0.08702
5558.64,0.08585
5552.86,0.08541
5547.07,0.08560
5541.29,0.08489
5535.5,0.08825
5529.71,0.08732
5523.93,0.08673
5518.14,0.08809
5512.35,0.08782
5506.57,0.08691
5500.78,0.08525
5495,0.08595
5489.21,0.08759
5483.42,0.08904
5477.64,0.09055
5471.85,0.09202
5466.06,0.09247
5460.28,0.09487
5454.49,0.09725
5448.71,0.09680
5442.92,0.09970
5437.13,0.10043
5431.35,0.10317
5425.56,0.10441
5419.77,0.10660
5413.99,0.11354
5408.2,0.11703
5402.42,0.12209
5396.63,0.12515
5390.84,0.12777
5385.06,0.13258
5379.27,0.13561
5373.48,0.13772
5367.7,0.14131
5361.91,0.14572
5356.13,0.14940
5350.34,0.15470
5344.55,0.15888
5338.77,0.16280
5332.98,0.16555
5327.19,0.16599
5321.41,0.16560
5315.62,0.16161
5309.84,0.15827
5304.05,0.15851
5298.26,0.16257
5292.48,0.16263
5286.69,0.16283
5280.9,0.16315
5275.12,0.16140
5269.33,0.16385
5263.55,0.16301
5257.76,0.16370
5251.97,0.16445
5246.19,0.16091
5240.4,0.16037
5234.61,0.16023
5228.83,0.15933
5223.04,0.15851
5217.26,0.15767
5211.47,0.15839
5205.68,0.16043
5199.9,0.16160
5194.11,0.15911
5188.32,0.15940
5182.54,0.15942
5176.75,0.16012
5170.97,0.16161
5165.18,0.16056
5159.39,0.15974
5153.61,0.16172
5147.82,0.16563
5142.03,0.16688
5136.25,0.16667
5130.46,0.16793
5124.68,0.16742
5118.89,0.16456
5113.1,0.16582
5107.32,0.16408
5101.53,0.16419
5095.75,0.16407
5089.96,0.16549
5084.17,0.16592
5078.39,0.16801
5072.6,0.16848
5066.81,0.16858
5061.03,0.16820
5055.24,0.17159
5049.46,0.17354
5043.67,0.17348
5037.88,0.17435
5032.1,0.17303
5026.31,0.17133
5020.52,0.16994
5014.74,0.16914
5008.95,0.16781
5003.17,0.16647
4997.38,0.16248
4991.59,0.15672
4985.81,0.15355
4980.02,0.15084
4974.23,0.14789
4968.45,0.14514
4962.66,0.14496
4956.88,0.15267
4951.09,0.16139
4945.3,0.16700
4939.52,0.16984
4933.73,0.17081
4927.94,0.17148
4922.16,0.17080
4916.37,0.17187
4910.59,0.17357
4904.8,0.17132
4899.01,0.17024
4893.23,0.17014
4887.44,0.16792
4881.65,0.16535
4875.87,0.16584
4870.08,0.16552
4864.3,0.16691
4858.51,0.17127
4852.72,0.17515
4846.94,0.18038
4841.15,0.18542
4835.36,0.19039
4829.58,0.19428
4823.79,0.19871
4818.01,0.20202
4812.22,0.20746
4806.43,0.21320
4800.65,0.21446
4794.86,0.21704
4789.07,0.21854
4783.29,0.22068
4777.5,0.22280
4771.72,0.22643
4765.93,0.23139
4760.14,0.23492
4754.36,0.23863
4748.57,0.24064
4742.78,0.24331
4737,0.24497
4731.21,0.24655
4725.43,0.24991
4719.64,0.25372
4713.85,0.25579
4708.07,0.25775
4702.28,0.25900
4696.49,0.25978
4690.71,0.25906
4684.92,0.25781
4679.14,0.25350
4673.35,0.24719
4667.56,0.24312
4661.78,0.24474
4655.99,0.25077
4650.2,0.25344
4644.42,0.25342
4638.63,0.25417
4632.85,0.25199
4627.06,0.25085
4621.27,0.24779
4615.49,0.24602
4609.7,0.24349
4603.92,0.24149
4598.13,0.24037
4592.34,0.23749
4586.56,0.23362
4580.77,0.22981
4574.98,0.22558
4569.2,0.22155
4563.41,0.21615
4557.63,0.20921
4551.84,0.20310
4546.05,0.19721
4540.27,0.19057
4534.48,0.18455
4528.69,0.17823
4522.91,0.17283
4517.12,0.16694
4511.34,0.15932
4505.55,0.15250
4499.76,0.14498
4493.98,0.13771
4488.19,0.13134
4482.4,0.12492
4476.62,0.11884
4470.83,0.11241
4465.05,0.10559
4459.26,0.09903
4453.47,0.09346
4447.69,0.08559
4441.9,0.08007
4436.11,0.07426
4430.33,0.07118
4424.54,0.06678
4418.76,0.06271
4412.97,0.06042
4407.18,0.05795
4401.4,0.05736
4395.61,0.05692
4389.82,0.05765
4384.04,0.05729
4378.25,0.05690
4372.47,0.05697
4366.68,0.05686
4360.89,0.05677
4355.11,0.05668
4349.32,0.05643
4343.53,0.05658
4337.75,0.05642
4331.96,0.05673
4326.18,0.05620
4320.39,0.05617
4314.6,0.05621
4308.82,0.05642
4303.03,0.05696
4297.24,0.05721
4291.46,0.05751
4285.67,0.05685
4279.89,0.05634
4274.1,0.05756
4268.31,0.05673
4262.53,0.05717
4256.74,0.05740
4250.95,0.05673
4245.17,0.05655
4239.38,0.05597
4233.6,0.05740
4227.81,0.05642
4222.02,0.05661
4216.24,0.05669
4210.45,0.05679
4204.66,0.05657
4198.88,0.05676
4193.09,0.05706
4187.31,0.05642
4181.52,0.05647
4175.73,0.05655
4169.95,0.05710
4164.16,0.05685
4158.37,0.05643
4152.59,0.05616
4146.8,0.05641
4141.02,0.05639
4135.23,0.05707
4129.44,0.05785
4123.66,0.05681
4117.87,0.05614
4112.09,0.05626
4106.3,0.05683
4100.51,0.05643
4094.73,0.05645
4088.94,0.05711
4083.15,0.05683
4077.37,0.05638
4071.58,0.05694
4065.8,0.05663
4060.01,0.05683
4054.22,0.05628
4048.44,0.05706
4042.65,0.05712
4036.86,0.05645
4031.08,0.05709
4025.29,0.05712
4019.51,0.05731
4013.72,0.05757
4007.93,0.05683
4002.15,0.05699
3996.36,0.05697
3990.57,0.05728
3984.79,0.05731
3979,0.05720
3973.22,0.05711
3967.43,0.05725
3961.64,0.05709
3955.86,0.05730
3950.07,0.05754
3944.28,0.05727
3938.5,0.05775
3932.71,0.05759
3926.93,0.05688
3921.14,0.05729
3915.35,0.05672
3909.57,0.05715
3903.78,0.05746
3897.99,0.05692
3892.21,0.05725
3886.42,0.05751
3880.64,0.05727
3874.85,0.05724
3869.06,0.05677
3863.28,0.05708
3857.49,0.05747
3851.7,0.05709
3845.92,0.05679
3840.13,0.05675
3834.35,0.05709
3828.56,0.05728
3822.77,0.05724
3816.99,0.05761
3811.2,0.05785
3805.41,0.05801
3799.63,0.05663
3793.84,0.05761
3788.06,0.05778
3782.27,0.05767
3776.48,0.05753
3770.7,0.05736
3764.91,0.05774
3759.12,0.05736
3753.34,0.05758
3747.55,0.05771
3741.77,0.05743
3735.98,0.05780
3730.19,0.05735
3724.41,0.05740
3718.62,0.05733
3712.83,0.05716
3707.05,0.05683
3701.26,0.05742
3695.48,0.05723
3689.69,0.05770
3683.9,0.05727
3678.12,0.05708
3672.33,0.05751
3666.54,0.05655
3660.76,0.05638
3654.97,0.05746
3649.19,0.05714
3643.4,0.05655
3637.61,0.05710
3631.83,0.05754
3626.04,0.05692
3620.25,0.05673
3614.47,0.05635
3608.68,0.05636
3602.9,0.05657
3597.11,0.05691
3591.32,0.05738
3585.54,0.05708
3579.75,0.05782
3573.97,0.05769
3568.18,0.05789
3562.39,0.05834
3556.61,0.05800
3550.82,0.05892
3545.03,0.05996
3539.25,0.05934
3533.46,0.06026
3527.68,0.05994
3521.89,0.06008
3516.1,0.06001
3510.32,0.05988
3504.53,0.06014
3498.74,0.05965
3492.96,0.05891
3487.17,0.05933
3481.39,0.05900
3475.6,0.05831
3469.81,0.05839
3464.03,0.05775
3458.24,0.05777
3452.45,0.05637
3446.67,0.05649
3440.88,0.05699
3435.1,0.05640
3429.31,0.05659
3423.52,0.05672
3417.74,0.05602
3411.95,0.05673
3406.16,0.05652
3400.38,0.05557
3394.59,0.05697
3388.81,0.05629
3383.02,0.05638
3377.23,0.05546
3371.45,0.05535
3365.66,0.05520
3359.87,0.05577
3354.09,0.05628
3348.3,0.05570
3342.52,0.05578
3336.73,0.05559
3330.94,0.05616
3325.16,0.05704
3319.37,0.05630
3313.58,0.05674
3307.8,0.05671
3302.01,0.05705
3296.23,0.05656
3290.44,0.05613
3284.65,0.05601
3278.87,0.05682
3273.08,0.05681
3267.29,0.05674
3261.51,0.05563
3255.72,0.05602
3249.94,0.05634
3244.15,0.05669
3238.36,0.05553
3232.58,0.05582
3226.79,0.05553
3221,0.05528
3215.22,0.05507
3209.43,0.05457
3203.65,0.05437
3197.86,0.05500
3192.07,0.05528
3186.29,0.05466
3180.5,0.05453
3174.71,0.05557
3168.93,0.05436
3163.14,0.05505
3157.36,0.05481
3151.57,0.05459
3145.78,0.05377
3140,0.05443
3134.21,0.05402
3128.42,0.05397
3122.64,0.05365
3116.85,0.05430
3111.07,0.05342
3105.28,0.05353
3099.49,0.05282
3093.71,0.05307
3087.92,0.05266
3082.14,0.05232
3076.35,0.05242
3070.56,0.05232
3064.78,0.05191
3058.99,0.05211
3053.2,0.05197
3047.42,0.05143
3041.63,0.05123
3035.85,0.05199
3030.06,0.05081
3024.27,0.05070
3018.49,0.05050
3012.7,0.05021
3006.91,0.04956
3001.13,0.04884
2995.34,0.04873
2989.56,0.04781
2983.77,0.04729
2977.98,0.04633
2972.2,0.04524
2966.41,0.04500
2960.62,0.04352
2954.84,0.04270
2949.05,0.04110
2943.27,0.03805
2937.48,0.03578
2931.69,0.03580
2925.91,0.04352
2920.12,0.06627
2914.33,0.08338
2908.55,0.07424
2902.76,0.06841
2896.98,0.06573
2891.19,0.06447
2885.4,0.06293
2879.62,0.06072
2873.83,0.05814
2868.04,0.05558
2862.26,0.05189
2856.47,0.05034
2850.69,0.06503
2844.9,0.07927
2839.11,0.07269
2833.33,0.06849
2827.54,0.06675
2821.75,0.06487
2815.97,0.06376
2810.18,0.06316
2804.4,0.06316
2798.61,0.06225
2792.82,0.06173
2787.04,0.06173
2781.25,0.06167
2775.46,0.06115
2769.68,0.06092
2763.89,0.06065
2758.11,0.06034
2752.32,0.05987
2746.53,0.05978
2740.75,0.05979
2734.96,0.05983
2729.17,0.05969
2723.39,0.05962
2717.6,0.05951
2711.82,0.05917
2706.03,0.05933
2700.24,0.05933
2694.46,0.05913
2688.67,0.05869
2682.88,0.05841
2677.1,0.05870
2671.31,0.05887
2665.53,0.05952
2659.74,0.05895
2653.95,0.05822
2648.17,0.05882
2642.38,0.05857
2636.59,0.05873
2630.81,0.05891
2625.02,0.05860
2619.24,0.05837
2613.45,0.05888
2607.66,0.05827
2601.88,0.05862
2596.09,0.05848
2590.3,0.05869
2584.52,0.05844
2578.73,0.05873
2572.95,0.05864
2567.16,0.05865
2561.37,0.05811
2555.59,0.05836
2549.8,0.05860
2544.02,0.05838
2538.23,0.05799
2532.44,0.05787
2526.66,0.05842
2520.87,0.05783
2515.08,0.05824
2509.3,0.05821
2503.51,0.05831
2497.73,0.05800
2491.94,0.05830
2486.15,0.05830
2480.37,0.05811
2474.58,0.05819
2468.79,0.05821
2463.01,0.05828
2457.22,0.05894
2451.44,0.05904
2445.65,0.05855
2439.86,0.05827
2434.08,0.05870
2428.29,0.05774
2422.5,0.05786
2416.72,0.05789
2410.93,0.05792
2405.15,0.05771
2399.36,0.05810
2393.57,0.05827
2387.79,0.05821
2382,0.05796
2376.21,0.05770
2370.43,0.05809
2364.64,0.05770
2358.86,0.05780
2353.07,0.05801
2347.28,0.05760
2341.5,0.05784
2335.71,0.05814
2329.92,0.05792
2324.14,0.05788
2318.35,0.05755
2312.57,0.05793
2306.78,0.05785
2300.99,0.05792
2295.21,0.05778
2289.42,0.05841
2283.63,0.05788
2277.85,0.05834
2272.06,0.05812
2266.28,0.05805
2260.49,0.05843
2254.7,0.05866
2248.92,0.05845
2243.13,0.05852
2237.34,0.05866
2231.56,0.06016
2225.77,0.05985
2219.99,0.05947
2214.2,0.06031
2208.41,0.06064
2202.63,0.06085
2196.84,0.06062
2191.05,0.06020
2185.27,0.05994
2179.48,0.05984
2173.7,0.05980
2167.91,0.05955
2162.12,0.05932
2156.34,0.05905
2150.55,0.05843
2144.76,0.05873
2138.98,0.05968
2133.19,0.06144
2127.41,0.06295
2121.62,0.06443
2115.83,0.06534
2110.05,0.06554
2104.26,0.06572
2098.47,0.06541
2092.69,0.06446
2086.9,0.06363
2081.12,0.06309
2075.33,0.06201
2069.54,0.06112
2063.76,0.06044
2057.97,0.05969
2052.19,0.05937
2046.4,0.05873
2040.61,0.05795
2034.83,0.05805
2029.04,0.05754
2023.25,0.05757
2017.47,0.05786
2011.68,0.05795
2005.9,0.05982
2000.11,0.06244
1994.32,0.06492
1988.54,0.06684
1982.75,0.06780
1976.96,0.06826
1971.18,0.06766
1965.39,0.06585
1959.61,0.06474
1953.82,0.06490
1948.03,0.06496
1942.25,0.06459
1936.46,0.06365
1930.67,0.06317
1924.89,0.06225
1919.1,0.06115
1913.32,0.05987
1907.53,0.05888
1901.74,0.05811
1895.96,0.05791
1890.17,0.05887
1884.38,0.06261
1878.6,0.06687
1872.81,0.07051
1867.03,0.07407
1861.24,0.07702
1855.45,0.07943
1849.67,0.08166
1843.88,0.08204
1838.09,0.08059
1832.31,0.07784
1826.52,0.07142
1820.74,0.06522
1814.95,0.06541
1809.16,0.06750
1803.38,0.06943
1797.59,0.07010
1791.8,0.07053
1786.02,0.07071
1780.23,0.07075
1774.45,0.07008
1768.66,0.06937
1762.87,0.06857
1757.09,0.06707
1751.3,0.06575
1745.51,0.06382
1739.73,0.06156
1733.94,0.05893
1728.16,0.05739
1722.37,0.05646
1716.58,0.05641
1710.8,0.05744
1705.01,0.05865
1699.22,0.05856
1693.44,0.05884
1687.65,0.05883
1681.87,0.05852
1676.08,0.05859
1670.29,0.05807
1664.51,0.05752
1658.72,0.05662
1652.93,0.05637
1647.15,0.05618
1641.36,0.05599
1635.58,0.05641
1629.79,0.05616
1624,0.05651
1618.22,0.05634
1612.43,0.05622
1606.64,0.05643
1600.86,0.05597
1595.07,0.05611
1589.29,0.05599
1583.5,0.05616
1577.71,0.05628
1571.93,0.05610
1566.14,0.05611
1560.35,0.05644
1554.57,0.05518
1548.78,0.05593
1543,0.05577
1537.21,0.05580
1531.42,0.05556
1525.64,0.05560
1519.85,0.05526
1514.07,0.05542
1508.28,0.05508
1502.49,0.05473
1496.71,0.05452
1490.92,0.05424
1485.13,0.05356
1479.35,0.05167
1473.56,0.05128
1467.78,0.05516
1461.99,0.05927
1456.2,0.05969
1450.42,0.05954
1444.63,0.05910
1438.84,0.05847
1433.06,0.05841
1427.27,0.05806
1421.49,0.05776
1415.7,0.05794
1409.91,0.05761
1404.13,0.05729
1398.34,0.05741
1392.55,0.05731
1386.77,0.05684
1380.98,0.05692
1375.2,0.05695
1369.41,0.05719
1363.62,0.05715
1357.84,0.05742
1352.05,0.05749
1346.26,0.05723
1340.48,0.05725
1334.69,0.05740
1328.91,0.05719
1323.12,0.05713
1317.33,0.05666
1311.55,0.05685
1305.76,0.05684
1299.97,0.05680
1294.19,0.05700
1288.4,0.05748
1282.62,0.05727
1276.83,0.05750
1271.04,0.05713
1265.26,0.05740
1259.47,0.05702
1253.68,0.05694
1247.9,0.05751
1242.11,0.05727
1236.33,0.05760
1230.54,0.05709
1224.75,0.05687
1218.97,0.05742
1213.18,0.05723
1207.39,0.05676
1201.61,0.05720
1195.82,0.05733
1190.04,0.05715
1184.25,0.05737
1178.46,0.05709
1172.68,0.05674
1166.89,0.05710
1161.1,0.05693
1155.32,0.05693
1149.53,0.05703
1143.75,0.05700
1137.96,0.05732
1132.17,0.05738
1126.39,0.05699
1120.6,0.05709
1114.81,0.05637
1109.03,0.05713
1103.24,0.05716
1097.46,0.05758
1091.67,0.05634
1085.88,0.05673
1080.1,0.05631
1074.31,0.05616
1068.52,0.05682
1062.74,0.05695
1056.95,0.05709
1051.17,0.05675
1045.38,0.05749
1039.59,0.05716
1033.81,0.05654
1028.02,0.05721
1022.24,0.05770
1016.45,0.05756
1010.66,0.05785
1004.88,0.05741
999.09,0.05724
993.304,0.05756
987.518,0.05749
981.731,0.05688
975.945,0.05781
970.159,0.05780
964.373,0.05708
958.586,0.05776
952.8,0.05767
947.014,0.05757
941.228,0.05705
935.441,0.05693
929.655,0.05765
923.869,0.05692
918.083,0.05709
912.297,0.05683
906.51,0.05679
900.724,0.05712
894.938,0.05719
889.152,0.05689
883.365,0.05656
877.579,0.05682
871.793,0.05758
866.007,0.05762
860.22,0.05744
854.434,0.05787
848.648,0.05693
842.862,0.05722
837.075,0.05672
831.289,0.05723
825.503,0.05712
819.717,0.05649
813.931,0.05688
808.144,0.05736
802.358,0.05707
796.572,0.05719
790.786,0.05654
784.999,0.05636
779.213,0.05684
773.427,0.05665
767.641,0.05557
761.854,0.05672
756.068,0.05592
750.282,0.05513
744.496,0.05435
738.709,0.05356
732.923,0.05133
727.137,0.05613
721.351,0.05734
715.565,0.06334
709.778,0.06077
703.992,0.05953
698.206,0.05904
692.42,0.05866
686.633,0.05691
680.847,0.05820
675.061,0.06017
669.275,0.06334
663.488,0.06576
657.702,0.06974
651.916,0.08071
646.13,0.08773
640.343,0.09460
634.557,0.10013
628.771,0.10531
622.985,0.10996
617.198,0.11139
611.412,0.10836
605.626,0.09905
599.84,0.08825