File: 01_Data/LDPE/FTIR/IS/LDPE_IS_S_220831_R4.dpt
7497.03,0.49170
7491.25,0.48700
7485.46,0.48960
7479.67,0.49238
7473.89,0.49152
7468.1,0.48018
7462.32,0.48847
7456.53,0.50271
7450.74,0.48305
7444.96,0.47665
7439.17,0.47748
7433.38,0.47657
7427.6,0.48767
7421.81,0.48198
7416.03,0.48109
7410.24,0.48067
7404.45,0.48785
7398.67,0.48202
7392.88,0.47835
7387.09,0.47754
7381.31,0.46842
7375.52,0.46666
7369.74,0.46636
7363.95,0.46008
7358.16,0.46187
7352.38,0.45084
7346.59,0.45206
7340.8,0.44909
7335.02,0.45854
7329.23,0.44157
7323.45,0.44392
7317.66,0.43849
7311.87,0.42602
7306.09,0.42554
7300.3,0.41562
7294.51,0.41155
7288.73,0.39715
7282.94,0.39319
7277.16,0.38810
7271.37,0.37818
7265.58,0.36304
7259.8,0.35916
7254.01,0.35591
7248.22,0.34945
7242.44,0.33366
7236.65,0.32151
7230.87,0.31609
7225.08,0.30681
7219.29,0.28775
7213.51,0.27849
7207.72,0.26332
7201.93,0.24694
7196.15,0.23385
7190.36,0.21165
7184.58,0.19360
7178.79,0.17642
7173,0.17309
7167.22,0.18822
7161.43,0.21852
7155.65,0.23558
7149.86,0.25045
7144.07,0.26763
7138.29,0.27130
7132.5,0.27688
7126.71,0.26798
7120.93,0.26727
7115.14,0.26519
7109.36,0.25958
7103.57,0.24259
7097.78,0.23793
7092,0.23571
7086.21,0.23153
7080.42,0.22377
7074.64,0.21396
7068.85,0.20838
7063.07,0.19990
7057.28,0.19995
7051.49,0.21946
7045.71,0.21629
7039.92,0.22506
7034.13,0.21895
7028.35,0.22172
7022.56,0.22526
7016.78,0.23033
7010.99,0.23240
7005.2,0.23139
6999.42,0.23614
6993.63,0.24177
6987.84,0.23947
6982.06,0.24508
6976.27,0.24405
6970.49,0.24232
6964.7,0.24021
6958.91,0.24964
6953.13,0.24387
6947.34,0.24737
6941.55,0.25526
6935.77,0.25911
6929.98,0.26576
6924.2,0.27316
6918.41,0.28002
6912.62,0.28926
6906.84,0.28647
6901.05,0.28624
6895.26,0.28857
6889.48,0.29746
6883.69,0.30164
6877.91,0.30621
6872.12,0.31297
6866.33,0.31775
6860.55,0.31541
6854.76,0.32546
6848.97,0.32569
6843.19,0.32481
6837.4,0.32699
6831.62,0.33356
6825.83,0.34117
6820.04,0.34729
6814.26,0.34813
6808.47,0.35751
6802.68,0.36405
6796.9,0.37030
6791.11,0.37584
6785.33,0.38233
6779.54,0.38365
6773.75,0.38940
6767.97,0.39248
6762.18,0.39628
6756.39,0.39848
6750.61,0.40067
6744.82,0.40333
6739.04,0.40802
6733.25,0.41395
6727.46,0.41012
6721.68,0.41349
6715.89,0.41877
6710.1,0.41926
6704.32,0.41849
6698.53,0.42209
6692.75,0.42733
6686.96,0.43151
6681.17,0.43410
6675.39,0.43634
6669.6,0.44211
6663.82,0.44140
6658.03,0.43744
6652.24,0.44560
6646.46,0.44109
6640.67,0.44887
6634.88,0.44917
6629.1,0.44749
6623.31,0.45284
6617.53,0.44639
6611.74,0.45192
6605.95,0.45288
6600.17,0.45202
6594.38,0.44791
6588.59,0.44975
6582.81,0.45133
6577.02,0.45348
6571.24,0.44997
6565.45,0.45026
6559.66,0.44957
6553.88,0.44639
6548.09,0.44755
6542.3,0.44790
6536.52,0.44686
6530.73,0.44500
6524.95,0.44293
6519.16,0.44085
6513.37,0.44079
6507.59,0.43879
6501.8,0.44044
6496.01,0.43149
6490.23,0.42864
6484.44,0.43074
6478.66,0.43088
6472.87,0.44178
6467.08,0.45788
6461.3,0.46320
6455.51,0.47018
6449.72,0.47749
6443.94,0.47952
6438.15,0.48206
6432.37,0.48640
6426.58,0.48786
6420.79,0.48343
6415.01,0.48673
6409.22,0.48675
6403.43,0.49487
6397.65,0.49661
6391.86,0.49452
6386.08,0.49858
6380.29,0.49951
6374.5,0.50460
6368.72,0.50103
6362.93,0.50766
6357.14,0.50888
6351.36,0.50661
6345.57,0.51178
6339.79,0.51500
6334,0.51122
6328.21,0.51507
6322.43,0.51463
6316.64,0.51570
6310.85,0.51478
6305.07,0.51535
6299.28,0.51344
6293.5,0.51794
6287.71,0.51977
6281.92,0.51928
6276.14,0.51753
6270.35,0.51786
6264.56,0.51701
6258.78,0.51562
6252.99,0.51286
6247.21,0.51733
6241.42,0.51782
6235.63,0.51948
6229.85,0.51454
6224.06,0.51475
6218.27,0.51566
6212.49,0.51081
6206.7,0.51315
6200.92,0.51009
6195.13,0.50967
6189.34,0.50916
6183.56,0.51300
6177.77,0.51196
6171.98,0.50983
6166.2,0.50485
6160.41,0.50248
6154.63,0.50176
6148.84,0.50207
6143.05,0.50073
6137.27,0.49460
6131.48,0.49145
6125.7,0.49223
6119.91,0.49362
6114.12,0.49150
6108.34,0.48791
6102.55,0.48889
6096.76,0.48575
6090.98,0.48783
6085.19,0.48537
6079.41,0.48375
6073.62,0.48207
6067.83,0.47893
6062.05,0.47783
6056.26,0.47403
6050.47,0.47044
6044.69,0.46680
6038.9,0.46321
6033.12,0.46044
6027.33,0.45450
6021.54,0.44921
6015.76,0.44764
6009.97,0.43867
6004.18,0.43199
5998.4,0.42553
5992.61,0.42247
5986.83,0.41022
5981.04,0.40325
5975.25,0.39161
5969.47,0.38242
5963.68,0.36909
5957.89,0.36178
5952.11,0.35098
5946.32,0.33663
5940.54,0.32512
5934.75,0.30922
5928.96,0.28834
5923.18,0.26585
5917.39,0.24461
5911.6,0.22654
5905.82,0.21161
5900.03,0.20150
5894.25,0.19184
5888.46,0.17619
5882.67,0.16069
5876.89,0.13843
5871.1,0.11945
5865.31,0.10449
5859.53,0.08780
5853.74,0.07849
5847.96,0.07079
5842.17,0.06684
5836.38,0.06416
5830.6,0.06148
5824.81,0.05974
5819.02,0.06029
5813.24,0.05790
5807.45,0.05701
5801.67,0.05772
5795.88,0.05555
5790.09,0.05700
5784.31,0.05698
5778.52,0.05516
5772.73,0.05555
5766.95,0.05671
5761.16,0.05710
5755.38,0.05946
5749.59,0.06021
5743.8,0.06166
5738.02,0.06441
5732.23,0.06614
5726.44,0.07028
5720.66,0.07620
5714.87,0.07634
5709.09,0.07530
5703.3,0.07394
5697.51,0.06937
5691.73,0.06383
5685.94,0.06316
5680.15,0.06020
5674.37,0.06070
5668.58,0.05934
5662.8,0.05807
5657.01,0.05887
5651.22,0.06154
5645.44,0.06677
5639.65,0.07358
5633.87,0.07525
5628.08,0.07975
5622.29,0.08085
5616.51,0.08423
5610.72,0.08779
5604.93,0.09024
5599.15,0.09487
5593.36,0.09814
5587.58,0.09572
5581.79,0.09447
5576,0.09185
5570.22,0.08874
5564.43,0.08554
5558.64,0.08653
5552.86,0.08283
5547.07,0.08444
5541.29,0.08579
5535.5,0.08765
5529.71,0.08757
5523.93,0.08787
5518.14,0.08825
5512.35,0.08596
5506.57,0.08567
5500.78,0.08478
5495,0.08385
5489.21,0.08443
5483.42,0.08654
5477.64,0.09030
5471.85,0.09388
5466.06,0.09439
5460.28,0.09499
5454.49,0.09402
5448.71,0.09890
5442.92,0.09903
5437.13,0.09994
5431.35,0.10260
5425.56,0.10253
5419.77,0.10663
5413.99,0.10987
5408.2,0.11599
5402.42,0.12070
5396.63,0.12679
5390.84,0.12996
5385.06,0.13155
5379.27,0.13416
5373.48,0.13611
5367.7,0.13965
5361.91,0.14487
5356.13,0.14828
5350.34,0.15339
5344.55,0.15848
5338.77,0.16201
5332.98,0.16549
5327.19,0.16612
5321.41,0.16386
5315.62,0.16065
5309.84,0.15789
5304.05,0.15779
5298.26,0.16110
5292.48,0.16101
5286.69,0.16322
5280.9,0.16109
5275.12,0.16212
5269.33,0.16340
5263.55,0.16383
5257.76,0.16244
5251.97,0.16246
5246.19,0.16128
5240.4,0.16092
5234.61,0.15870
5228.83,0.15779
5223.04,0.15810
5217.26,0.15850
5211.47,0.15731
5205.68,0.15865
5199.9,0.15787
5194.11,0.15824
5188.32,0.15706
5182.54,0.15688
5176.75,0.15810
5170.97,0.15993
5165.18,0.15918
5159.39,0.16032
5153.61,0.16142
5147.82,0.16444
5142.03,0.16559
5136.25,0.16635
5130.46,0.16638
5124.68,0.16545
5118.89,0.16602
5113.1,0.16463
5107.32,0.16376
5101.53,0.16216
5095.75,0.16295
5089.96,0.16367
5084.17,0.16303
5078.39,0.16715
5072.6,0.16677
5066.81,0.16776
5061.03,0.16900
5055.24,0.17039
5049.46,0.17159
5043.67,0.17297
5037.88,0.17185
5032.1,0.17151
5026.31,0.17171
5020.52,0.16899
5014.74,0.16800
5008.95,0.16725
5003.17,0.16517
4997.38,0.16060
4991.59,0.15590
4985.81,0.15314
4980.02,0.15000
4974.23,0.14636
4968.45,0.14457
4962.66,0.14441
4956.88,0.15255
4951.09,0.16080
4945.3,0.16638
4939.52,0.16827
4933.73,0.16862
4927.94,0.16999
4922.16,0.17104
4916.37,0.17067
4910.59,0.17059
4904.8,0.17078
4899.01,0.17015
4893.23,0.16847
4887.44,0.16770
4881.65,0.16552
4875.87,0.16476
4870.08,0.16368
4864.3,0.16576
4858.51,0.16986
4852.72,0.17447
4846.94,0.17885
4841.15,0.18567
4835.36,0.18978
4829.58,0.19378
4823.79,0.19675
4818.01,0.20206
4812.22,0.20573
4806.43,0.21038
4800.65,0.21284
4794.86,0.21589
4789.07,0.21782
4783.29,0.21873
4777.5,0.22124
4771.72,0.22562
4765.93,0.23078
4760.14,0.23538
4754.36,0.23699
4748.57,0.23947
4742.78,0.24138
4737,0.24411
4731.21,0.24500
4725.43,0.24792
4719.64,0.25222
4713.85,0.25543
4708.07,0.25630
4702.28,0.25730
4696.49,0.25791
4690.71,0.25831
4684.92,0.25584
4679.14,0.25174
4673.35,0.24489
4667.56,0.24115
4661.78,0.24441
4655.99,0.24861
4650.2,0.25168
4644.42,0.25249
4638.63,0.25145
4632.85,0.25010
4627.06,0.24852
4621.27,0.24663
4615.49,0.24322
4609.7,0.24201
4603.92,0.23907
4598.13,0.23731
4592.34,0.23512
4586.56,0.23167
4580.77,0.22872
4574.98,0.22551
4569.2,0.22153
4563.41,0.21448
4557.63,0.20779
4551.84,0.20183
4546.05,0.19670
4540.27,0.19053
4534.48,0.18345
4528.69,0.17749
4522.91,0.17157
4517.12,0.16464
4511.34,0.15784
4505.55,0.15166
4499.76,0.14412
4493.98,0.13846
4488.19,0.12969
4482.4,0.12327
4476.62,0.11701
4470.83,0.11161
4465.05,0.10516
4459.26,0.09941
4453.47,0.09168
4447.69,0.08564
4441.9,0.07885
4436.11,0.07347
4430.33,0.06983
4424.54,0.06590
4418.76,0.06228
4412.97,0.06012
4407.18,0.05793
4401.4,0.05722
4395.61,0.05756
4389.82,0.05643
4384.04,0.05677
4378.25,0.05570
4372.47,0.05689
4366.68,0.05660
4360.89,0.05671
4355.11,0.05715
4349.32,0.05613
4343.53,0.05644
4337.75,0.05603
4331.96,0.05592
4326.18,0.05599
4320.39,0.05620
4314.6,0.05733
4308.82,0.05742
4303.03,0.05697
4297.24,0.05666
4291.46,0.05654
4285.67,0.05618
4279.89,0.05626
4274.1,0.05605
4268.31,0.05589
4262.53,0.05619
4256.74,0.05659
4250.95,0.05592
4245.17,0.05657
4239.38,0.05589
4233.6,0.05582
4227.81,0.05596
4222.02,0.05634
4216.24,0.05615
4210.45,0.05619
4204.66,0.05568
4198.88,0.05639
4193.09,0.05638
4187.31,0.05628
4181.52,0.05610
4175.73,0.05652
4169.95,0.05647
4164.16,0.05635
4158.37,0.05638
4152.59,0.05586
4146.8,0.05618
4141.02,0.05701
4135.23,0.05659
4129.44,0.05664
4123.66,0.05673
4117.87,0.05632
4112.09,0.05696
4106.3,0.05578
4100.51,0.05591
4094.73,0.05621
4088.94,0.05651
4083.15,0.05701
4077.37,0.05713
4071.58,0.05609
4065.8,0.05640
4060.01,0.05630
4054.22,0.05674
4048.44,0.05686
4042.65,0.05748
4036.86,0.05620
4031.08,0.05663
4025.29,0.05711
4019.51,0.05665
4013.72,0.05713
4007.93,0.05695
4002.15,0.05676
3996.36,0.05704
3990.57,0.05730
3984.79,0.05754
3979,0.05701
3973.22,0.05756
3967.43,0.05714
3961.64,0.05714
3955.86,0.05692
3950.07,0.05731
3944.28,0.05733
3938.5,0.05744
3932.71,0.05642
3926.93,0.05612
3921.14,0.05732
3915.35,0.05672
3909.57,0.05669
3903.78,0.05644
3897.99,0.05681
3892.21,0.05758
3886.42,0.05647
3880.64,0.05650
3874.85,0.05708
3869.06,0.05754
3863.28,0.05656
3857.49,0.05738
3851.7,0.05722
3845.92,0.05689
3840.13,0.05685
3834.35,0.05720
3828.56,0.05715
3822.77,0.05694
3816.99,0.05724
3811.2,0.05725
3805.41,0.05765
3799.63,0.05733
3793.84,0.05729
3788.06,0.05732
3782.27,0.05633
3776.48,0.05758
3770.7,0.05745
3764.91,0.05716
3759.12,0.05701
3753.34,0.05728
3747.55,0.05664
3741.77,0.05690
3735.98,0.05699
3730.19,0.05821
3724.41,0.05758
3718.62,0.05798
3712.83,0.05723
3707.05,0.05719
3701.26,0.05745
3695.48,0.05684
3689.69,0.05696
3683.9,0.05743
3678.12,0.05689
3672.33,0.05692
3666.54,0.05653
3660.76,0.05689
3654.97,0.05714
3649.19,0.05633
3643.4,0.05664
3637.61,0.05611
3631.83,0.05626
3626.04,0.05610
3620.25,0.05616
3614.47,0.05640
3608.68,0.05636
3602.9,0.05607
3597.11,0.05617
3591.32,0.05547
3585.54,0.05650
3579.75,0.05712
3573.97,0.05730
3568.18,0.05777
3562.39,0.05817
3556.61,0.05813
3550.82,0.05924
3545.03,0.05937
3539.25,0.05943
3533.46,0.05938
3527.68,0.05945
3521.89,0.05936
3516.1,0.05961
3510.32,0.05967
3504.53,0.05898
3498.74,0.05921
3492.96,0.05886
3487.17,0.05907
3481.39,0.05919
3475.6,0.05844
3469.81,0.05784
3464.03,0.05743
3458.24,0.05652
3452.45,0.05653
3446.67,0.05633
3440.88,0.05677
3435.1,0.05608
3429.31,0.05611
3423.52,0.05609
3417.74,0.05644
3411.95,0.05641
3406.16,0.05543
3400.38,0.05614
3394.59,0.05561
3388.81,0.05631
3383.02,0.05593
3377.23,0.05532
3371.45,0.05539
3365.66,0.05526
3359.87,0.05568
3354.09,0.05536
3348.3,0.05513
3342.52,0.05546
3336.73,0.05544
3330.94,0.05607
3325.16,0.05556
3319.37,0.05646
3313.58,0.05581
3307.8,0.05563
3302.01,0.05575
3296.23,0.05615
3290.44,0.05576
3284.65,0.05655
3278.87,0.05592
3273.08,0.05634
3267.29,0.05639
3261.51,0.05585
3255.72,0.05637
3249.94,0.05542
3244.15,0.05584
3238.36,0.05557
3232.58,0.05558
3226.79,0.05533
3221,0.05520
3215.22,0.05515
3209.43,0.05528
3203.65,0.05443
3197.86,0.05482
3192.07,0.05490
3186.29,0.05486
3180.5,0.05478
3174.71,0.05509
3168.93,0.05472
3163.14,0.05439
3157.36,0.05398
3151.57,0.05383
3145.78,0.05422
3140,0.05419
3134.21,0.05418
3128.42,0.05369
3122.64,0.05346
3116.85,0.05342
3111.07,0.05305
3105.28,0.05290
3099.49,0.05237
3093.71,0.05275
3087.92,0.05254
3082.14,0.05219
3076.35,0.05241
3070.56,0.05213
3064.78,0.05224
3058.99,0.05206
3053.2,0.05187
3047.42,0.05153
3041.63,0.05099
3035.85,0.05094
3030.06,0.05100
3024.27,0.05079
3018.49,0.04963
3012.7,0.04992
3006.91,0.04912
3001.13,0.04913
2995.34,0.04845
2989.56,0.04829
2983.77,0.04734
2977.98,0.04611
2972.2,0.04508
2966.41,0.04450
2960.62,0.04333
2954.84,0.04260
2949.05,0.04129
2943.27,0.03816
2937.48,0.03558
2931.69,0.03594
2925.91,0.04328
2920.12,0.06609
2914.33,0.08279
2908.55,0.07445
2902.76,0.06802
2896.98,0.06569
2891.19,0.06408
2885.4,0.06263
2879.62,0.05997
2873.83,0.05866
2868.04,0.05579
2862.26,0.05212
2856.47,0.04992
2850.69,0.06468
2844.9,0.07883
2839.11,0.07206
2833.33,0.06800
2827.54,0.06663
2821.75,0.06500
2815.97,0.06413
2810.18,0.06312
2804.4,0.06231
2798.61,0.06188
2792.82,0.06163
2787.04,0.06177
2781.25,0.06109
2775.46,0.06057
2769.68,0.06103
2763.89,0.06071
2758.11,0.06056
2752.32,0.06000
2746.53,0.05971
2740.75,0.05959
2734.96,0.05907
2729.17,0.05969
2723.39,0.05895
2717.6,0.05893
2711.82,0.05914
2706.03,0.05897
2700.24,0.05893
2694.46,0.05845
2688.67,0.05883
2682.88,0.05864
2677.1,0.05837
2671.31,0.05901
2665.53,0.05844
2659.74,0.05854
2653.95,0.05833
2648.17,0.05831
2642.38,0.05837
2636.59,0.05836
2630.81,0.05830
2625.02,0.05838
2619.24,0.05829
2613.45,0.05846
2607.66,0.05829
2601.88,0.05821
2596.09,0.05803
2590.3,0.05793
2584.52,0.05835
2578.73,0.05800
2572.95,0.05819
2567.16,0.05825
2561.37,0.05833
2555.59,0.05795
2549.8,0.05815
2544.02,0.05814
2538.23,0.05784
2532.44,0.05808
2526.66,0.05794
2520.87,0.05796
2515.08,0.05790
2509.3,0.05801
2503.51,0.05770
2497.73,0.05814
2491.94,0.05839
2486.15,0.05826
2480.37,0.05793
2474.58,0.05768
2468.79,0.05788
2463.01,0.05845
2457.22,0.05852
2451.44,0.05831
2445.65,0.05828
2439.86,0.05814
2434.08,0.05815
2428.29,0.05772
2422.5,0.05777
2416.72,0.05787
2410.93,0.05779
2405.15,0.05780
2399.36,0.05769
2393.57,0.05778
2387.79,0.05782
2382,0.05805
2376.21,0.05772
2370.43,0.05778
2364.64,0.05788
2358.86,0.05787
2353.07,0.05753
2347.28,0.05766
2341.5,0.05716
2335.71,0.05759
2329.92,0.05774
2324.14,0.05739
2318.35,0.05773
2312.57,0.05754
2306.78,0.05762
2300.99,0.05768
2295.21,0.05779
2289.42,0.05746
2283.63,0.05776
2277.85,0.05761
2272.06,0.05725
2266.28,0.05753
2260.49,0.05802
2254.7,0.05792
2248.92,0.05794
2243.13,0.05743
2237.34,0.05863
2231.56,0.05984
2225.77,0.05974
2219.99,0.05910
2214.2,0.06035
2208.41,0.06009
2202.63,0.06013
2196.84,0.06022
2191.05,0.05976
2185.27,0.05969
2179.48,0.05956
2173.7,0.05954
2167.91,0.05950
2162.12,0.05929
2156.34,0.05832
2150.55,0.05813
2144.76,0.05873
2138.98,0.05934
2133.19,0.06101
2127.41,0.06302
2121.62,0.06448
2115.83,0.06488
2110.05,0.06527
2104.26,0.06515
2098.47,0.06528
2092.69,0.06477
2086.9,0.06376
2081.12,0.06271
2075.33,0.06169
2069.54,0.06097
2063.76,0.06024
2057.97,0.05942
2052.19,0.05849
2046.4,0.05805
2040.61,0.05765
2034.83,0.05744
2029.04,0.05758
2023.25,0.05766
2017.47,0.05756
2011.68,0.05777
2005.9,0.05926
2000.11,0.06221
1994.32,0.06457
1988.54,0.06627
1982.75,0.06749
1976.96,0.06766
1971.18,0.06705
1965.39,0.06577
1959.61,0.06461
1953.82,0.06435
1948.03,0.06451
1942.25,0.06416
1936.46,0.06367
1930.67,0.06232
1924.89,0.06173
1919.1,0.06066
1913.32,0.05969
1907.53,0.05845
1901.74,0.05778
1895.96,0.05762
1890.17,0.05858
1884.38,0.06191
1878.6,0.06607
1872.81,0.07004
1867.03,0.07341
1861.24,0.07665
1855.45,0.07930
1849.67,0.08119
1843.88,0.08173
1838.09,0.08018
1832.31,0.07756
1826.52,0.07091
1820.74,0.06488
1814.95,0.06488
1809.16,0.06720
1803.38,0.06844
1797.59,0.06967
1791.8,0.07065
1786.02,0.07011
1780.23,0.07030
1774.45,0.07000
1768.66,0.06879
1762.87,0.06793
1757.09,0.06672
1751.3,0.06598
1745.51,0.06341
1739.73,0.06107
1733.94,0.05851
1728.16,0.05699
1722.37,0.05595
1716.58,0.05635
1710.8,0.05690
1705.01,0.05804
1699.22,0.05832
1693.44,0.05857
1687.65,0.05858
1681.87,0.05825
1676.08,0.05785
1670.29,0.05787
1664.51,0.05703
1658.72,0.05698
1652.93,0.05623
1647.15,0.05597
1641.36,0.05610
1635.58,0.05622
1629.79,0.05602
1624,0.05598
1618.22,0.05575
1612.43,0.05611
1606.64,0.05599
1600.86,0.05582
1595.07,0.05583
1589.29,0.05613
1583.5,0.05592
1577.71,0.05606
1571.93,0.05590
1566.14,0.05545
1560.35,0.05523
1554.57,0.05549
1548.78,0.05489
1543,0.05486
1537.21,0.05507
1531.42,0.05472
1525.64,0.05486
1519.85,0.05501
1514.07,0.05463
1508.28,0.05464
1502.49,0.05466
1496.71,0.05438
1490.92,0.05376
1485.13,0.05306
1479.35,0.05156
1473.56,0.05086
1467.78,0.05478
1461.99,0.05858
1456.2,0.05958
1450.42,0.05896
1444.63,0.05855
1438.84,0.05819
1433.06,0.05837
1427.27,0.05815
1421.49,0.05791
1415.7,0.05763
1409.91,0.05753
1404.13,0.05708
1398.34,0.05679
1392.55,0.05637
1386.77,0.05669
1380.98,0.05680
1375.2,0.05685
1369.41,0.05687
1363.62,0.05712
1357.84,0.05701
1352.05,0.05699
1346.26,0.05707
1340.48,0.05672
1334.69,0.05716
1328.91,0.05677
1323.12,0.05690
1317.33,0.05674
1311.55,0.05667
1305.76,0.05673
1299.97,0.05659
1294.19,0.05704
1288.4,0.05702
1282.62,0.05724
1276.83,0.05710
1271.04,0.05693
1265.26,0.05723
1259.47,0.05689
1253.68,0.05722
1247.9,0.05712
1242.11,0.05689
1236.33,0.05707
1230.54,0.05683
1224.75,0.05683
1218.97,0.05670
1213.18,0.05678
1207.39,0.05663
1201.61,0.05651
1195.82,0.05678
1190.04,0.05681
1184.25,0.05686
1178.46,0.05622
1172.68,0.05619
1166.89,0.05673
1161.1,0.05644
1155.32,0.05674
1149.53,0.05645
1143.75,0.05718
1137.96,0.05686
1132.17,0.05666
1126.39,0.05699
1120.6,0.05687
1114.81,0.05701
1109.03,0.05694
1103.24,0.05648
1097.46,0.05649
1091.67,0.05661
1085.88,0.05693
1080.1,0.05602
1074.31,0.05638
1068.52,0.05645
1062.74,0.05651
1056.95,0.05674
1051.17,0.05741
1045.38,0.05669
1039.59,0.05727
1033.81,0.05752
1028.02,0.05707
1022.24,0.05708
1016.45,0.05735
1010.66,0.05660
1004.88,0.05717
999.09,0.05721
993.304,0.05672
987.518,0.05714
981.731,0.05742
975.945,0.05738
970.159,0.05674
964.373,0.05680
958.586,0.05706
952.8,0.05726
947.014,0.05745
941.228,0.05715
935.441,0.05739
929.655,0.05745
923.869,0.05694
918.083,0.05650
912.297,0.05675
906.51,0.05673
900.724,0.05685
894.938,0.05656
889.152,0.05711
883.365,0.05675
877.579,0.05725
871.793,0.05710
866.007,0.05708
860.22,0.05641
854.434,0.05742
848.648,0.05709
842.862,0.05675
837.075,0.05659
831.289,0.05740
825.503,0.05709
819.717,0.05661
813.931,0.05698
808.144,0.05676
802.358,0.05697
796.572,0.05705
790.786,0.05745
784.999,0.05679
779.213,0.05611
773.427,0.05573
767.641,0.05538
761.854,0.05528
756.068,0.05600
750.282,0.05455
744.496,0.05425
738.709,0.05366
732.923,0.05149
727.137,0.05528
721.351,0.05717
715.565,0.06186
709.778,0.05995
703.992,0.06046
698.206,0.05867
692.42,0.05771
686.633,0.05922
680.847,0.05780
675.061,0.05989
669.275,0.06268
663.488,0.06587
657.702,0.07251
651.916,0.07888
646.13,0.08792
640.343,0.09459
634.557,0.09958
628.771,0.10477
622.985,0.10918
617.198,0.11191
611.412,0.10871
605.626,0.09943
599.84,0.09066