File: 01_Data/LDPE/FTIR/IS/LDPE_IS_S_220831_R2.dpt
7497.03,0.48285
7491.25,0.49024
7485.46,0.48826
7479.67,0.48768
7473.89,0.48670
7468.1,0.48893
7462.32,0.49116
7456.53,0.48972
7450.74,0.48528
7444.96,0.49072
7439.17,0.48707
7433.38,0.48339
7427.6,0.48348
7421.81,0.49390
7416.03,0.48854
7410.24,0.48309
7404.45,0.48366
7398.67,0.48389
7392.88,0.48704
7387.09,0.48301
7381.31,0.47173
7375.52,0.47437
7369.74,0.47067
7363.95,0.46177
7358.16,0.47460
7352.38,0.46626
7346.59,0.46046
7340.8,0.45335
7335.02,0.45218
7329.23,0.45180
7323.45,0.43476
7317.66,0.43880
7311.87,0.43033
7306.09,0.42049
7300.3,0.42646
7294.51,0.41402
7288.73,0.39490
7282.94,0.38815
7277.16,0.38076
7271.37,0.38045
7265.58,0.36870
7259.8,0.36050
7254.01,0.35307
7248.22,0.33961
7242.44,0.33577
7236.65,0.33055
7230.87,0.31275
7225.08,0.30019
7219.29,0.28382
7213.51,0.27741
7207.72,0.26335
7201.93,0.24365
7196.15,0.23101
7190.36,0.21271
7184.58,0.19309
7178.79,0.18203
7173,0.17943
7167.22,0.18834
7161.43,0.21732
7155.65,0.24015
7149.86,0.25481
7144.07,0.26694
7138.29,0.26782
7132.5,0.26474
7126.71,0.27242
7120.93,0.26421
7115.14,0.26711
7109.36,0.25723
7103.57,0.25157
7097.78,0.24488
7092,0.23578
7086.21,0.23374
7080.42,0.23289
7074.64,0.21572
7068.85,0.21190
7063.07,0.20367
7057.28,0.20717
7051.49,0.21923
7045.71,0.22481
7039.92,0.22338
7034.13,0.22378
7028.35,0.22558
7022.56,0.23007
7016.78,0.22557
7010.99,0.23358
7005.2,0.23957
6999.42,0.23877
6993.63,0.23810
6987.84,0.23703
6982.06,0.24140
6976.27,0.24925
6970.49,0.24742
6964.7,0.24352
6958.91,0.24819
6953.13,0.24353
6947.34,0.25175
6941.55,0.25439
6935.77,0.25467
6929.98,0.27165
6924.2,0.27397
6918.41,0.27832
6912.62,0.28216
6906.84,0.28693
6901.05,0.28923
6895.26,0.29298
6889.48,0.30069
6883.69,0.30230
6877.91,0.30631
6872.12,0.30965
6866.33,0.31529
6860.55,0.32144
6854.76,0.32539
6848.97,0.32669
6843.19,0.32693
6837.4,0.32732
6831.62,0.33723
6825.83,0.34184
6820.04,0.34208
6814.26,0.35145
6808.47,0.35737
6802.68,0.36788
6796.9,0.37494
6791.11,0.37477
6785.33,0.37616
6779.54,0.38228
6773.75,0.38988
6767.97,0.39233
6762.18,0.39383
6756.39,0.39538
6750.61,0.40346
6744.82,0.40653
6739.04,0.40678
6733.25,0.40683
6727.46,0.41456
6721.68,0.41768
6715.89,0.42001
6710.1,0.42236
6704.32,0.43041
6698.53,0.42987
6692.75,0.42617
6686.96,0.43213
6681.17,0.43406
6675.39,0.43659
6669.6,0.43957
6663.82,0.44358
6658.03,0.44238
6652.24,0.44057
6646.46,0.44882
6640.67,0.44663
6634.88,0.44749
6629.1,0.45222
6623.31,0.45342
6617.53,0.45164
6611.74,0.45020
6605.95,0.45262
6600.17,0.45594
6594.38,0.45201
6588.59,0.45579
6582.81,0.45413
6577.02,0.45122
6571.24,0.44827
6565.45,0.45245
6559.66,0.44823
6553.88,0.44486
6548.09,0.44865
6542.3,0.45458
6536.52,0.44900
6530.73,0.44473
6524.95,0.44563
6519.16,0.44512
6513.37,0.43998
6507.59,0.43986
6501.8,0.43703
6496.01,0.43111
6490.23,0.42679
6484.44,0.43158
6478.66,0.43806
6472.87,0.44442
6467.08,0.45985
6461.3,0.46707
6455.51,0.47079
6449.72,0.47467
6443.94,0.47947
6438.15,0.48385
6432.37,0.48661
6426.58,0.48578
6420.79,0.48878
6415.01,0.49447
6409.22,0.49500
6403.43,0.49769
6397.65,0.49698
6391.86,0.49843
6386.08,0.49841
6380.29,0.50361
6374.5,0.50445
6368.72,0.50722
6362.93,0.50873
6357.14,0.51321
6351.36,0.51332
6345.57,0.51602
6339.79,0.51469
6334,0.51818
6328.21,0.51895
6322.43,0.51472
6316.64,0.51467
6310.85,0.51899
6305.07,0.51780
6299.28,0.52204
6293.5,0.51622
6287.71,0.51950
6281.92,0.52359
6276.14,0.52284
6270.35,0.52042
6264.56,0.52056
6258.78,0.51996
6252.99,0.52079
6247.21,0.52214
6241.42,0.51725
6235.63,0.51549
6229.85,0.51639
6224.06,0.51745
6218.27,0.51648
6212.49,0.51743
6206.7,0.51591
6200.92,0.51623
6195.13,0.51294
6189.34,0.51349
6183.56,0.51290
6177.77,0.51142
6171.98,0.51267
6166.2,0.50626
6160.41,0.50617
6154.63,0.50192
6148.84,0.50208
6143.05,0.50172
6137.27,0.49526
6131.48,0.49468
6125.7,0.49467
6119.91,0.48985
6114.12,0.49310
6108.34,0.49021
6102.55,0.48632
6096.76,0.48766
6090.98,0.49049
6085.19,0.48313
6079.41,0.48632
6073.62,0.48426
6067.83,0.48424
6062.05,0.47920
6056.26,0.47349
6050.47,0.46978
6044.69,0.46717
6038.9,0.46520
6033.12,0.46026
6027.33,0.45841
6021.54,0.45304
6015.76,0.44467
6009.97,0.44035
6004.18,0.43502
5998.4,0.42828
5992.61,0.42281
5986.83,0.41603
5981.04,0.40599
5975.25,0.39616
5969.47,0.38463
5963.68,0.37468
5957.89,0.36265
5952.11,0.35222
5946.32,0.33816
5940.54,0.32326
5934.75,0.30856
5928.96,0.28997
5923.18,0.26696
5917.39,0.24558
5911.6,0.22757
5905.82,0.21184
5900.03,0.20529
5894.25,0.19429
5888.46,0.17782
5882.67,0.16049
5876.89,0.13971
5871.1,0.12010
5865.31,0.10515
5859.53,0.08888
5853.74,0.07915
5847.96,0.07071
5842.17,0.06633
5836.38,0.06444
5830.6,0.06381
5824.81,0.06096
5819.02,0.06217
5813.24,0.05690
5807.45,0.05574
5801.67,0.05494
5795.88,0.05738
5790.09,0.05577
5784.31,0.05617
5778.52,0.05788
5772.73,0.05550
5766.95,0.05329
5761.16,0.05471
5755.38,0.05739
5749.59,0.06007
5743.8,0.06133
5738.02,0.06338
5732.23,0.06467
5726.44,0.06988
5720.66,0.07727
5714.87,0.07683
5709.09,0.07554
5703.3,0.07178
5697.51,0.06680
5691.73,0.06559
5685.94,0.06360
5680.15,0.06162
5674.37,0.06093
5668.58,0.05671
5662.8,0.05807
5657.01,0.06075
5651.22,0.06300
5645.44,0.06824
5639.65,0.07275
5633.87,0.07623
5628.08,0.08088
5622.29,0.08316
5616.51,0.08337
5610.72,0.08760
5604.93,0.09134
5599.15,0.09298
5593.36,0.09574
5587.58,0.09742
5581.79,0.09556
5576,0.09282
5570.22,0.08802
5564.43,0.08776
5558.64,0.08625
5552.86,0.08491
5547.07,0.08457
5541.29,0.08738
5535.5,0.08649
5529.71,0.08809
5523.93,0.08599
5518.14,0.08820
5512.35,0.08868
5506.57,0.08880
5500.78,0.08799
5495,0.08549
5489.21,0.08798
5483.42,0.08679
5477.64,0.08807
5471.85,0.09245
5466.06,0.09205
5460.28,0.09411
5454.49,0.09663
5448.71,0.09828
5442.92,0.09950
5437.13,0.09981
5431.35,0.10172
5425.56,0.10508
5419.77,0.10601
5413.99,0.11316
5408.2,0.11622
5402.42,0.12054
5396.63,0.12478
5390.84,0.12920
5385.06,0.13249
5379.27,0.13546
5373.48,0.13718
5367.7,0.14192
5361.91,0.14498
5356.13,0.14858
5350.34,0.15248
5344.55,0.15636
5338.77,0.16220
5332.98,0.16518
5327.19,0.16656
5321.41,0.16486
5315.62,0.16106
5309.84,0.15892
5304.05,0.15889
5298.26,0.16154
5292.48,0.16285
5286.69,0.16324
5280.9,0.16176
5275.12,0.16329
5269.33,0.16301
5263.55,0.16398
5257.76,0.16354
5251.97,0.16343
5246.19,0.16272
5240.4,0.16111
5234.61,0.15998
5228.83,0.16046
5223.04,0.15879
5217.26,0.15768
5211.47,0.15803
5205.68,0.15987
5199.9,0.15902
5194.11,0.15725
5188.32,0.15779
5182.54,0.15955
5176.75,0.15941
5170.97,0.15976
5165.18,0.16043
5159.39,0.16032
5153.61,0.16250
5147.82,0.16340
5142.03,0.16574
5136.25,0.16740
5130.46,0.16791
5124.68,0.16726
5118.89,0.16561
5113.1,0.16472
5107.32,0.16271
5101.53,0.16226
5095.75,0.16384
5089.96,0.16391
5084.17,0.16646
5078.39,0.16774
5072.6,0.16845
5066.81,0.16880
5061.03,0.16905
5055.24,0.16996
5049.46,0.17222
5043.67,0.17319
5037.88,0.17348
5032.1,0.17236
5026.31,0.17095
5020.52,0.16959
5014.74,0.16853
5008.95,0.16787
5003.17,0.16629
4997.38,0.16102
4991.59,0.15649
4985.81,0.15310
4980.02,0.15035
4974.23,0.14794
4968.45,0.14393
4962.66,0.14446
4956.88,0.15299
4951.09,0.16220
4945.3,0.16657
4939.52,0.16930
4933.73,0.17033
4927.94,0.17197
4922.16,0.17202
4916.37,0.17211
4910.59,0.17235
4904.8,0.17104
4899.01,0.17106
4893.23,0.16938
4887.44,0.16809
4881.65,0.16720
4875.87,0.16617
4870.08,0.16452
4864.3,0.16638
4858.51,0.16898
4852.72,0.17548
4846.94,0.18051
4841.15,0.18596
4835.36,0.19045
4829.58,0.19445
4823.79,0.19899
4818.01,0.20315
4812.22,0.20701
4806.43,0.21171
4800.65,0.21504
4794.86,0.21734
4789.07,0.21788
4783.29,0.22007
4777.5,0.22419
4771.72,0.22695
4765.93,0.23123
4760.14,0.23488
4754.36,0.23830
4748.57,0.24024
4742.78,0.24254
4737,0.24447
4731.21,0.24595
4725.43,0.24836
4719.64,0.25161
4713.85,0.25496
4708.07,0.25826
4702.28,0.25961
4696.49,0.25961
4690.71,0.25827
4684.92,0.25760
4679.14,0.25229
4673.35,0.24602
4667.56,0.24182
4661.78,0.24459
4655.99,0.24999
4650.2,0.25332
4644.42,0.25302
4638.63,0.25349
4632.85,0.25269
4627.06,0.25127
4621.27,0.24751
4615.49,0.24621
4609.7,0.24291
4603.92,0.24095
4598.13,0.23906
4592.34,0.23594
4586.56,0.23336
4580.77,0.22962
4574.98,0.22546
4569.2,0.22161
4563.41,0.21565
4557.63,0.20953
4551.84,0.20265
4546.05,0.19644
4540.27,0.19083
4534.48,0.18428
4528.69,0.17838
4522.91,0.17154
4517.12,0.16667
4511.34,0.16006
4505.55,0.15214
4499.76,0.14484
4493.98,0.13787
4488.19,0.13149
4482.4,0.12484
4476.62,0.11821
4470.83,0.11132
4465.05,0.10593
4459.26,0.09927
4453.47,0.09238
4447.69,0.08608
4441.9,0.07986
4436.11,0.07502
4430.33,0.06986
4424.54,0.06582
4418.76,0.06342
4412.97,0.06068
4407.18,0.05806
4401.4,0.05725
4395.61,0.05783
4389.82,0.05730
4384.04,0.05687
4378.25,0.05653
4372.47,0.05659
4366.68,0.05653
4360.89,0.05621
4355.11,0.05674
4349.32,0.05678
4343.53,0.05672
4337.75,0.05650
4331.96,0.05624
4326.18,0.05635
4320.39,0.05719
4314.6,0.05725
4308.82,0.05674
4303.03,0.05707
4297.24,0.05680
4291.46,0.05661
4285.67,0.05723
4279.89,0.05705
4274.1,0.05730
4268.31,0.05666
4262.53,0.05700
4256.74,0.05705
4250.95,0.05580
4245.17,0.05665
4239.38,0.05723
4233.6,0.05615
4227.81,0.05686
4222.02,0.05653
4216.24,0.05602
4210.45,0.05618
4204.66,0.05691
4198.88,0.05705
4193.09,0.05646
4187.31,0.05699
4181.52,0.05605
4175.73,0.05595
4169.95,0.05676
4164.16,0.05716
4158.37,0.05608
4152.59,0.05674
4146.8,0.05728
4141.02,0.05647
4135.23,0.05753
4129.44,0.05665
4123.66,0.05638
4117.87,0.05614
4112.09,0.05652
4106.3,0.05672
4100.51,0.05640
4094.73,0.05703
4088.94,0.05665
4083.15,0.05694
4077.37,0.05623
4071.58,0.05669
4065.8,0.05689
4060.01,0.05635
4054.22,0.05606
4048.44,0.05758
4042.65,0.05699
4036.86,0.05640
4031.08,0.05683
4025.29,0.05727
4019.51,0.05696
4013.72,0.05703
4007.93,0.05653
4002.15,0.05728
3996.36,0.05730
3990.57,0.05727
3984.79,0.05669
3979,0.05682
3973.22,0.05768
3967.43,0.05726
3961.64,0.05754
3955.86,0.05759
3950.07,0.05726
3944.28,0.05684
3938.5,0.05692
3932.71,0.05729
3926.93,0.05735
3921.14,0.05712
3915.35,0.05716
3909.57,0.05757
3903.78,0.05701
3897.99,0.05727
3892.21,0.05764
3886.42,0.05708
3880.64,0.05724
3874.85,0.05700
3869.06,0.05678
3863.28,0.05702
3857.49,0.05730
3851.7,0.05769
3845.92,0.05761
3840.13,0.05716
3834.35,0.05692
3828.56,0.05680
3822.77,0.05802
3816.99,0.05761
3811.2,0.05710
3805.41,0.05714
3799.63,0.05797
3793.84,0.05726
3788.06,0.05767
3782.27,0.05775
3776.48,0.05722
3770.7,0.05796
3764.91,0.05767
3759.12,0.05747
3753.34,0.05756
3747.55,0.05756
3741.77,0.05756
3735.98,0.05734
3730.19,0.05764
3724.41,0.05833
3718.62,0.05744
3712.83,0.05782
3707.05,0.05743
3701.26,0.05667
3695.48,0.05764
3689.69,0.05673
3683.9,0.05771
3678.12,0.05723
3672.33,0.05763
3666.54,0.05732
3660.76,0.05701
3654.97,0.05667
3649.19,0.05735
3643.4,0.05658
3637.61,0.05747
3631.83,0.05635
3626.04,0.05754
3620.25,0.05708
3614.47,0.05658
3608.68,0.05642
3602.9,0.05572
3597.11,0.05637
3591.32,0.05629
3585.54,0.05700
3579.75,0.05722
3573.97,0.05686
3568.18,0.05733
3562.39,0.05801
3556.61,0.05845
3550.82,0.05887
3545.03,0.05890
3539.25,0.05934
3533.46,0.05988
3527.68,0.05958
3521.89,0.06014
3516.1,0.06049
3510.32,0.05971
3504.53,0.05950
3498.74,0.05940
3492.96,0.05911
3487.17,0.05933
3481.39,0.05866
3475.6,0.05770
3469.81,0.05829
3464.03,0.05760
3458.24,0.05728
3452.45,0.05706
3446.67,0.05651
3440.88,0.05673
3435.1,0.05607
3429.31,0.05657
3423.52,0.05606
3417.74,0.05656
3411.95,0.05623
3406.16,0.05626
3400.38,0.05624
3394.59,0.05617
3388.81,0.05580
3383.02,0.05573
3377.23,0.05630
3371.45,0.05536
3365.66,0.05498
3359.87,0.05561
3354.09,0.05566
3348.3,0.05569
3342.52,0.05613
3336.73,0.05624
3330.94,0.05609
3325.16,0.05618
3319.37,0.05633
3313.58,0.05618
3307.8,0.05626
3302.01,0.05620
3296.23,0.05570
3290.44,0.05629
3284.65,0.05645
3278.87,0.05656
3273.08,0.05625
3267.29,0.05573
3261.51,0.05624
3255.72,0.05579
3249.94,0.05645
3244.15,0.05583
3238.36,0.05603
3232.58,0.05507
3226.79,0.05546
3221,0.05548
3215.22,0.05476
3209.43,0.05501
3203.65,0.05547
3197.86,0.05465
3192.07,0.05413
3186.29,0.05505
3180.5,0.05520
3174.71,0.05434
3168.93,0.05458
3163.14,0.05423
3157.36,0.05490
3151.57,0.05462
3145.78,0.05434
3140,0.05418
3134.21,0.05396
3128.42,0.05345
3122.64,0.05342
3116.85,0.05297
3111.07,0.05339
3105.28,0.05365
3099.49,0.05316
3093.71,0.05282
3087.92,0.05277
3082.14,0.05287
3076.35,0.05231
3070.56,0.05197
3064.78,0.05201
3058.99,0.05212
3053.2,0.05199
3047.42,0.05171
3041.63,0.05160
3035.85,0.05131
3030.06,0.05136
3024.27,0.05062
3018.49,0.05054
3012.7,0.04987
3006.91,0.04961
3001.13,0.04974
2995.34,0.04881
2989.56,0.04771
2983.77,0.04739
2977.98,0.04677
2972.2,0.04589
2966.41,0.04454
2960.62,0.04410
2954.84,0.04320
2949.05,0.04133
2943.27,0.03860
2937.48,0.03570
2931.69,0.03625
2925.91,0.04388
2920.12,0.06612
2914.33,0.08297
2908.55,0.07512
2902.76,0.06887
2896.98,0.06593
2891.19,0.06429
2885.4,0.06272
2879.62,0.06076
2873.83,0.05866
2868.04,0.05573
2862.26,0.05167
2856.47,0.05062
2850.69,0.06481
2844.9,0.07885
2839.11,0.07228
2833.33,0.06850
2827.54,0.06666
2821.75,0.06507
2815.97,0.06383
2810.18,0.06354
2804.4,0.06216
2798.61,0.06222
2792.82,0.06190
2787.04,0.06156
2781.25,0.06096
2775.46,0.06117
2769.68,0.06110
2763.89,0.06050
2758.11,0.06016
2752.32,0.06058
2746.53,0.06023
2740.75,0.05979
2734.96,0.06001
2729.17,0.05947
2723.39,0.05928
2717.6,0.05943
2711.82,0.05940
2706.03,0.05897
2700.24,0.05942
2694.46,0.05865
2688.67,0.05880
2682.88,0.05859
2677.1,0.05932
2671.31,0.05904
2665.53,0.05869
2659.74,0.05856
2653.95,0.05824
2648.17,0.05875
2642.38,0.05867
2636.59,0.05842
2630.81,0.05857
2625.02,0.05884
2619.24,0.05864
2613.45,0.05850
2607.66,0.05885
2601.88,0.05826
2596.09,0.05869
2590.3,0.05863
2584.52,0.05825
2578.73,0.05823
2572.95,0.05824
2567.16,0.05827
2561.37,0.05819
2555.59,0.05846
2549.8,0.05859
2544.02,0.05855
2538.23,0.05744
2532.44,0.05831
2526.66,0.05779
2520.87,0.05823
2515.08,0.05824
2509.3,0.05775
2503.51,0.05820
2497.73,0.05792
2491.94,0.05837
2486.15,0.05878
2480.37,0.05846
2474.58,0.05802
2468.79,0.05840
2463.01,0.05815
2457.22,0.05850
2451.44,0.05830
2445.65,0.05825
2439.86,0.05853
2434.08,0.05801
2428.29,0.05789
2422.5,0.05811
2416.72,0.05768
2410.93,0.05798
2405.15,0.05850
2399.36,0.05830
2393.57,0.05829
2387.79,0.05838
2382,0.05833
2376.21,0.05836
2370.43,0.05839
2364.64,0.05789
2358.86,0.05823
2353.07,0.05796
2347.28,0.05816
2341.5,0.05779
2335.71,0.05757
2329.92,0.05796
2324.14,0.05781
2318.35,0.05800
2312.57,0.05784
2306.78,0.05814
2300.99,0.05781
2295.21,0.05801
2289.42,0.05779
2283.63,0.05801
2277.85,0.05778
2272.06,0.05765
2266.28,0.05812
2260.49,0.05813
2254.7,0.05820
2248.92,0.05827
2243.13,0.05850
2237.34,0.05903
2231.56,0.05979
2225.77,0.05984
2219.99,0.05984
2214.2,0.06011
2208.41,0.06057
2202.63,0.06088
2196.84,0.06023
2191.05,0.06025
2185.27,0.05981
2179.48,0.05972
2173.7,0.05991
2167.91,0.05969
2162.12,0.05888
2156.34,0.05897
2150.55,0.05871
2144.76,0.05888
2138.98,0.05971
2133.19,0.06126
2127.41,0.06308
2121.62,0.06466
2115.83,0.06568
2110.05,0.06570
2104.26,0.06555
2098.47,0.06499
2092.69,0.06461
2086.9,0.06353
2081.12,0.06294
2075.33,0.06226
2069.54,0.06148
2063.76,0.06057
2057.97,0.05954
2052.19,0.05906
2046.4,0.05818
2040.61,0.05799
2034.83,0.05817
2029.04,0.05803
2023.25,0.05803
2017.47,0.05772
2011.68,0.05812
2005.9,0.05989
2000.11,0.06239
1994.32,0.06522
1988.54,0.06643
1982.75,0.06775
1976.96,0.06783
1971.18,0.06743
1965.39,0.06620
1959.61,0.06481
1953.82,0.06517
1948.03,0.06483
1942.25,0.06421
1936.46,0.06398
1930.67,0.06308
1924.89,0.06220
1919.1,0.06102
1913.32,0.06007
1907.53,0.05898
1901.74,0.05796
1895.96,0.05765
1890.17,0.05891
1884.38,0.06245
1878.6,0.06656
1872.81,0.07043
1867.03,0.07394
1861.24,0.07717
1855.45,0.07961
1849.67,0.08183
1843.88,0.08196
1838.09,0.08054
1832.31,0.07809
1826.52,0.07138
1820.74,0.06509
1814.95,0.06544
1809.16,0.06720
1803.38,0.06914
1797.59,0.07030
1791.8,0.07079
1786.02,0.07064
1780.23,0.07047
1774.45,0.07030
1768.66,0.06944
1762.87,0.06829
1757.09,0.06733
1751.3,0.06556
1745.51,0.06347
1739.73,0.06151
1733.94,0.05856
1728.16,0.05700
1722.37,0.05647
1716.58,0.05678
1710.8,0.05740
1705.01,0.05845
1699.22,0.05901
1693.44,0.05858
1687.65,0.05868
1681.87,0.05850
1676.08,0.05851
1670.29,0.05796
1664.51,0.05758
1658.72,0.05708
1652.93,0.05622
1647.15,0.05598
1641.36,0.05622
1635.58,0.05655
1629.79,0.05622
1624,0.05618
1618.22,0.05628
1612.43,0.05622
1606.64,0.05646
1600.86,0.05615
1595.07,0.05622
1589.29,0.05563
1583.5,0.05588
1577.71,0.05582
1571.93,0.05593
1566.14,0.05579
1560.35,0.05590
1554.57,0.05549
1548.78,0.05519
1543,0.05539
1537.21,0.05509
1531.42,0.05542
1525.64,0.05538
1519.85,0.05512
1514.07,0.05522
1508.28,0.05535
1502.49,0.05491
1496.71,0.05458
1490.92,0.05463
1485.13,0.05353
1479.35,0.05170
1473.56,0.05129
1467.78,0.05529
1461.99,0.05894
1456.2,0.05989
1450.42,0.05955
1444.63,0.05864
1438.84,0.05829
1433.06,0.05850
1427.27,0.05841
1421.49,0.05784
1415.7,0.05745
1409.91,0.05757
1404.13,0.05733
1398.34,0.05715
1392.55,0.05724
1386.77,0.05680
1380.98,0.05637
1375.2,0.05684
1369.41,0.05698
1363.62,0.05731
1357.84,0.05754
1352.05,0.05728
1346.26,0.05729
1340.48,0.05728
1334.69,0.05736
1328.91,0.05744
1323.12,0.05746
1317.33,0.05674
1311.55,0.05730
1305.76,0.05715
1299.97,0.05678
1294.19,0.05690
1288.4,0.05721
1282.62,0.05722
1276.83,0.05692
1271.04,0.05677
1265.26,0.05735
1259.47,0.05752
1253.68,0.05749
1247.9,0.05706
1242.11,0.05721
1236.33,0.05734
1230.54,0.05671
1224.75,0.05713
1218.97,0.05741
1213.18,0.05694
1207.39,0.05685
1201.61,0.05701
1195.82,0.05693
1190.04,0.05712
1184.25,0.05669
1178.46,0.05751
1172.68,0.05701
1166.89,0.05692
1161.1,0.05700
1155.32,0.05720
1149.53,0.05710
1143.75,0.05690
1137.96,0.05706
1132.17,0.05624
1126.39,0.05707
1120.6,0.05694
1114.81,0.05714
1109.03,0.05728
1103.24,0.05681
1097.46,0.05694
1091.67,0.05755
1085.88,0.05656
1080.1,0.05654
1074.31,0.05661
1068.52,0.05659
1062.74,0.05716
1056.95,0.05733
1051.17,0.05691
1045.38,0.05731
1039.59,0.05762
1033.81,0.05662
1028.02,0.05712
1022.24,0.05746
1016.45,0.05729
1010.66,0.05722
1004.88,0.05721
999.09,0.05811
993.304,0.05729
987.518,0.05727
981.731,0.05695
975.945,0.05721
970.159,0.05771
964.373,0.05757
958.586,0.05721
952.8,0.05730
947.014,0.05765
941.228,0.05726
935.441,0.05753
929.655,0.05713
923.869,0.05722
918.083,0.05727
912.297,0.05663
906.51,0.05687
900.724,0.05720
894.938,0.05638
889.152,0.05653
883.365,0.05731
877.579,0.05644
871.793,0.05748
866.007,0.05693
860.22,0.05661
854.434,0.05755
848.648,0.05716
842.862,0.05674
837.075,0.05735
831.289,0.05659
825.503,0.05710
819.717,0.05700
813.931,0.05695
808.144,0.05718
802.358,0.05725
796.572,0.05745
790.786,0.05706
784.999,0.05649
779.213,0.05679
773.427,0.05642
767.641,0.05557
761.854,0.05557
756.068,0.05648
750.282,0.05557
744.496,0.05490
738.709,0.05364
732.923,0.05189
727.137,0.05600
721.351,0.05660
715.565,0.06274
709.778,0.05975
703.992,0.05970
698.206,0.05873
692.42,0.05809
686.633,0.05804
680.847,0.05891
675.061,0.06081
669.275,0.06354
663.488,0.06718
657.702,0.07051
651.916,0.08059
646.13,0.08755
640.343,0.09416
634.557,0.10085
628.771,0.10437
622.985,0.10772
617.198,0.11052
611.412,0.10753
605.626,0.09748
599.84,0.08957