File: 01_Data/Wood_Stud/FTIR/IS/Wood_Stud_IS_S_221031_R8.dpt
7497.03,0.84121
7491.25,0.83170
7485.46,0.83026
7479.67,0.83015
7473.89,0.83144
7468.1,0.83886
7462.32,0.83821
7456.53,0.83559
7450.74,0.83587
7444.96,0.83331
7439.17,0.81899
7433.38,0.82482
7427.6,0.82576
7421.81,0.82577
7416.03,0.81225
7410.24,0.81805
7404.45,0.82043
7398.67,0.80219
7392.88,0.81416
7387.09,0.80932
7381.31,0.81320
7375.52,0.80507
7369.74,0.80257
7363.95,0.80376
7358.16,0.80313
7352.38,0.80632
7346.59,0.79613
7340.8,0.80148
7335.02,0.80323
7329.23,0.79704
7323.45,0.79880
7317.66,0.78887
7311.87,0.79439
7306.09,0.77876
7300.3,0.78834
7294.51,0.78749
7288.73,0.78969
7282.94,0.79043
7277.16,0.78231
7271.37,0.78273
7265.58,0.77928
7259.8,0.78635
7254.01,0.78125
7248.22,0.78430
7242.44,0.78784
7236.65,0.78085
7230.87,0.78210
7225.08,0.78083
7219.29,0.78253
7213.51,0.77526
7207.72,0.77664
7201.93,0.77837
7196.15,0.76753
7190.36,0.76827
7184.58,0.77090
7178.79,0.76055
7173,0.76620
7167.22,0.76085
7161.43,0.76338
7155.65,0.75431
7149.86,0.75145
7144.07,0.74077
7138.29,0.75129
7132.5,0.75026
7126.71,0.74094
7120.93,0.73953
7115.14,0.73062
7109.36,0.72701
7103.57,0.72555
7097.78,0.72715
7092,0.71666
7086.21,0.72428
7080.42,0.71064
7074.64,0.69701
7068.85,0.69052
7063.07,0.69539
7057.28,0.69050
7051.49,0.68004
7045.71,0.67426
7039.92,0.66539
7034.13,0.66460
7028.35,0.66255
7022.56,0.65885
7016.78,0.66208
7010.99,0.65368
7005.2,0.65947
6999.42,0.65020
6993.63,0.64221
6987.84,0.64218
6982.06,0.64099
6976.27,0.63740
6970.49,0.63683
6964.7,0.63409
6958.91,0.63590
6953.13,0.63380
6947.34,0.63771
6941.55,0.63577
6935.77,0.62808
6929.98,0.62851
6924.2,0.63431
6918.41,0.63102
6912.62,0.63232
6906.84,0.62685
6901.05,0.63044
6895.26,0.62811
6889.48,0.63011
6883.69,0.63038
6877.91,0.62768
6872.12,0.62665
6866.33,0.62693
6860.55,0.62368
6854.76,0.62640
6848.97,0.63071
6843.19,0.62748
6837.4,0.61771
6831.62,0.62349
6825.83,0.62488
6820.04,0.63088
6814.26,0.62537
6808.47,0.63001
6802.68,0.63107
6796.9,0.62585
6791.11,0.62693
6785.33,0.62877
6779.54,0.62325
6773.75,0.62458
6767.97,0.63046
6762.18,0.62502
6756.39,0.62530
6750.61,0.62807
6744.82,0.62541
6739.04,0.62512
6733.25,0.63215
6727.46,0.63175
6721.68,0.63425
6715.89,0.62814
6710.1,0.63130
6704.32,0.63132
6698.53,0.63769
6692.75,0.63680
6686.96,0.63777
6681.17,0.63547
6675.39,0.63829
6669.6,0.64021
6663.82,0.64067
6658.03,0.63917
6652.24,0.64026
6646.46,0.64385
6640.67,0.64406
6634.88,0.64699
6629.1,0.64442
6623.31,0.64804
6617.53,0.64784
6611.74,0.65083
6605.95,0.64813
6600.17,0.65077
6594.38,0.65103
6588.59,0.64995
6582.81,0.65329
6577.02,0.65283
6571.24,0.65189
6565.45,0.65270
6559.66,0.65101
6553.88,0.65538
6548.09,0.65692
6542.3,0.65386
6536.52,0.65357
6530.73,0.65247
6524.95,0.65603
6519.16,0.65773
6513.37,0.65418
6507.59,0.65878
6501.8,0.65638
6496.01,0.66036
6490.23,0.66108
6484.44,0.65487
6478.66,0.66043
6472.87,0.66149
6467.08,0.66353
6461.3,0.65845
6455.51,0.66182
6449.72,0.66195
6443.94,0.66301
6438.15,0.66605
6432.37,0.66127
6426.58,0.66068
6420.79,0.66293
6415.01,0.66937
6409.22,0.66618
6403.43,0.66926
6397.65,0.66539
6391.86,0.66422
6386.08,0.66437
6380.29,0.66824
6374.5,0.67148
6368.72,0.66422
6362.93,0.66816
6357.14,0.66898
6351.36,0.67248
6345.57,0.66915
6339.79,0.66726
6334,0.66792
6328.21,0.66911
6322.43,0.67038
6316.64,0.66654
6310.85,0.66969
6305.07,0.67415
6299.28,0.67496
6293.5,0.67083
6287.71,0.67568
6281.92,0.67857
6276.14,0.67623
6270.35,0.67596
6264.56,0.67976
6258.78,0.68280
6252.99,0.68312
6247.21,0.68328
6241.42,0.68654
6235.63,0.68657
6229.85,0.69184
6224.06,0.69018
6218.27,0.69131
6212.49,0.69347
6206.7,0.69696
6200.92,0.69861
6195.13,0.69451
6189.34,0.70101
6183.56,0.69977
6177.77,0.70257
6171.98,0.70385
6166.2,0.70481
6160.41,0.70715
6154.63,0.70920
6148.84,0.70927
6143.05,0.70830
6137.27,0.70699
6131.48,0.71365
6125.7,0.71241
6119.91,0.71385
6114.12,0.71511
6108.34,0.71598
6102.55,0.71575
6096.76,0.71800
6090.98,0.71415
6085.19,0.71694
6079.41,0.72050
6073.62,0.71804
6067.83,0.71942
6062.05,0.71944
6056.26,0.71868
6050.47,0.71286
6044.69,0.71393
6038.9,0.71015
6033.12,0.70780
6027.33,0.71123
6021.54,0.70964
6015.76,0.70514
6009.97,0.70698
6004.18,0.70466
5998.4,0.70418
5992.61,0.70105
5986.83,0.70015
5981.04,0.69678
5975.25,0.70053
5969.47,0.69860
5963.68,0.70028
5957.89,0.70138
5952.11,0.69927
5946.32,0.70182
5940.54,0.70356
5934.75,0.70047
5928.96,0.70113
5923.18,0.70223
5917.39,0.69946
5911.6,0.69754
5905.82,0.69754
5900.03,0.69696
5894.25,0.69646
5888.46,0.69598
5882.67,0.69443
5876.89,0.69551
5871.1,0.69301
5865.31,0.69158
5859.53,0.69356
5853.74,0.69128
5847.96,0.69151
5842.17,0.69014
5836.38,0.69113
5830.6,0.69244
5824.81,0.69296
5819.02,0.69013
5813.24,0.68877
5807.45,0.68516
5801.67,0.68796
5795.88,0.68776
5790.09,0.68633
5784.31,0.68901
5778.52,0.68619
5772.73,0.68705
5766.95,0.69025
5761.16,0.69094
5755.38,0.68976
5749.59,0.68903
5743.8,0.69057
5738.02,0.68974
5732.23,0.69181
5726.44,0.69275
5720.66,0.69064
5714.87,0.69065
5709.09,0.68920
5703.3,0.68843
5697.51,0.68934
5691.73,0.68742
5685.94,0.68741
5680.15,0.68633
5674.37,0.68686
5668.58,0.68753
5662.8,0.68720
5657.01,0.68592
5651.22,0.68453
5645.44,0.68711
5639.65,0.68488
5633.87,0.68654
5628.08,0.68653
5622.29,0.68839
5616.51,0.68766
5610.72,0.68740
5604.93,0.68407
5599.15,0.68490
5593.36,0.68539
5587.58,0.68564
5581.79,0.68925
5576,0.68647
5570.22,0.68704
5564.43,0.68744
5558.64,0.68994
5552.86,0.68924
5547.07,0.69148
5541.29,0.69125
5535.5,0.68978
5529.71,0.68947
5523.93,0.69187
5518.14,0.69220
5512.35,0.69060
5506.57,0.69091
5500.78,0.69219
5495,0.69328
5489.21,0.69398
5483.42,0.69248
5477.64,0.69395
5471.85,0.69418
5466.06,0.69568
5460.28,0.69545
5454.49,0.69716
5448.71,0.69702
5442.92,0.69902
5437.13,0.69972
5431.35,0.69821
5425.56,0.70295
5419.77,0.70449
5413.99,0.70494
5408.2,0.70376
5402.42,0.70642
5396.63,0.70504
5390.84,0.70573
5385.06,0.70624
5379.27,0.70776
5373.48,0.70703
5367.7,0.70705
5361.91,0.70658
5356.13,0.70600
5350.34,0.70400
5344.55,0.70406
5338.77,0.70147
5332.98,0.69789
5327.19,0.69637
5321.41,0.69138
5315.62,0.68814
5309.84,0.68314
5304.05,0.67713
5298.26,0.67045
5292.48,0.66314
5286.69,0.65552
5280.9,0.64583
5275.12,0.63417
5269.33,0.62320
5263.55,0.61206
5257.76,0.60156
5251.97,0.59306
5246.19,0.58249
5240.4,0.57636
5234.61,0.57078
5228.83,0.56609
5223.04,0.55932
5217.26,0.55539
5211.47,0.55323
5205.68,0.55100
5199.9,0.54914
5194.11,0.54819
5188.32,0.54810
5182.54,0.54973
5176.75,0.55091
5170.97,0.55049
5165.18,0.55294
5159.39,0.55436
5153.61,0.55712
5147.82,0.56201
5142.03,0.56350
5136.25,0.56668
5130.46,0.57072
5124.68,0.57345
5118.89,0.57588
5113.1,0.58111
5107.32,0.58384
5101.53,0.58472
5095.75,0.58892
5089.96,0.59242
5084.17,0.59487
5078.39,0.59740
5072.6,0.59911
5066.81,0.60202
5061.03,0.60531
5055.24,0.60742
5049.46,0.61001
5043.67,0.61128
5037.88,0.61478
5032.1,0.61616
5026.31,0.61852
5020.52,0.61870
5014.74,0.61985
5008.95,0.62067
5003.17,0.62009
4997.38,0.62079
4991.59,0.62141
4985.81,0.62098
4980.02,0.61843
4974.23,0.61764
4968.45,0.61486
4962.66,0.61090
4956.88,0.60866
4951.09,0.60346
4945.3,0.59925
4939.52,0.59484
4933.73,0.59058
4927.94,0.58568
4922.16,0.58093
4916.37,0.57642
4910.59,0.57148
4904.8,0.56520
4899.01,0.55990
4893.23,0.55567
4887.44,0.55023
4881.65,0.54536
4875.87,0.54137
4870.08,0.53726
4864.3,0.53219
4858.51,0.52812
4852.72,0.52380
4846.94,0.51945
4841.15,0.51648
4835.36,0.51405
4829.58,0.50976
4823.79,0.50760
4818.01,0.50509
4812.22,0.50219
4806.43,0.50050
4800.65,0.49944
4794.86,0.49699
4789.07,0.49647
4783.29,0.49577
4777.5,0.49539
4771.72,0.49470
4765.93,0.49399
4760.14,0.49410
4754.36,0.49411
4748.57,0.49429
4742.78,0.49492
4737,0.49525
4731.21,0.49651
4725.43,0.49724
4719.64,0.49802
4713.85,0.49871
4708.07,0.49989
4702.28,0.50040
4696.49,0.50233
4690.71,0.50335
4684.92,0.50413
4679.14,0.50475
4673.35,0.50826
4667.56,0.50929
4661.78,0.51140
4655.99,0.51487
4650.2,0.51678
4644.42,0.51928
4638.63,0.52148
4632.85,0.52399
4627.06,0.52720
4621.27,0.52955
4615.49,0.53278
4609.7,0.53626
4603.92,0.53949
4598.13,0.54254
4592.34,0.54371
4586.56,0.54732
4580.77,0.54955
4574.98,0.55172
4569.2,0.55226
4563.41,0.55393
4557.63,0.55663
4551.84,0.55768
4546.05,0.55842
4540.27,0.55952
4534.48,0.56174
4528.69,0.56187
4522.91,0.56217
4517.12,0.56232
4511.34,0.56155
4505.55,0.56105
4499.76,0.55894
4493.98,0.55590
4488.19,0.55384
4482.4,0.54955
4476.62,0.54437
4470.83,0.53807
4465.05,0.53126
4459.26,0.52525
4453.47,0.51860
4447.69,0.51090
4441.9,0.50446
4436.11,0.49794
4430.33,0.49002
4424.54,0.48243
4418.76,0.47437
4412.97,0.46862
4407.18,0.46348
4401.4,0.45982
4395.61,0.45966
4389.82,0.46006
4384.04,0.46162
4378.25,0.46322
4372.47,0.46623
4366.68,0.47067
4360.89,0.47167
4355.11,0.47230
4349.32,0.47102
4343.53,0.47035
4337.75,0.46905
4331.96,0.46721
4326.18,0.46496
4320.39,0.46186
4314.6,0.45959
4308.82,0.45783
4303.03,0.45458
4297.24,0.45148
4291.46,0.45083
4285.67,0.44846
4279.89,0.44832
4274.1,0.44847
4268.31,0.44939
4262.53,0.45036
4256.74,0.45195
4250.95,0.45339
4245.17,0.45364
4239.38,0.45428
4233.6,0.45426
4227.81,0.45523
4222.02,0.45448
4216.24,0.45452
4210.45,0.45398
4204.66,0.45427
4198.88,0.45573
4193.09,0.45575
4187.31,0.45624
4181.52,0.45786
4175.73,0.45865
4169.95,0.46041
4164.16,0.46156
4158.37,0.46157
4152.59,0.46104
4146.8,0.45867
4141.02,0.45630
4135.23,0.45352
4129.44,0.45062
4123.66,0.44716
4117.87,0.44183
4112.09,0.43713
4106.3,0.43249
4100.51,0.42655
4094.73,0.42126
4088.94,0.41515
4083.15,0.40978
4077.37,0.40433
4071.58,0.39763
4065.8,0.39238
4060.01,0.38701
4054.22,0.38059
4048.44,0.37608
4042.65,0.37131
4036.86,0.36710
4031.08,0.36361
4025.29,0.36189
4019.51,0.35956
4013.72,0.35849
4007.93,0.35832
4002.15,0.35925
3996.36,0.36012
3990.57,0.36208
3984.79,0.36379
3979,0.36537
3973.22,0.36669
3967.43,0.36896
3961.64,0.37166
3955.86,0.37417
3950.07,0.37666
3944.28,0.37977
3938.5,0.38273
3932.71,0.38607
3926.93,0.38876
3921.14,0.39159
3915.35,0.39482
3909.57,0.39762
3903.78,0.40072
3897.99,0.40178
3892.21,0.40473
3886.42,0.40732
3880.64,0.40928
3874.85,0.41107
3869.06,0.41325
3863.28,0.41625
3857.49,0.41953
3851.7,0.42297
3845.92,0.42486
3840.13,0.42696
3834.35,0.42854
3828.56,0.42887
3822.77,0.42994
3816.99,0.43027
3811.2,0.42970
3805.41,0.42954
3799.63,0.42979
3793.84,0.42850
3788.06,0.42805
3782.27,0.42807
3776.48,0.42687
3770.7,0.42571
3764.91,0.42405
3759.12,0.42214
3753.34,0.41926
3747.55,0.41682
3741.77,0.41372
3735.98,0.41070
3730.19,0.40575
3724.41,0.40064
3718.62,0.39407
3712.83,0.38739
3707.05,0.37835
3701.26,0.36843
3695.48,0.35611
3689.69,0.34226
3683.9,0.32503
3678.12,0.30674
3672.33,0.28506
3666.54,0.26355
3660.76,0.24346
3654.97,0.22467
3649.19,0.20765
3643.4,0.19154
3637.61,0.17768
3631.83,0.16658
3626.04,0.15378
3620.25,0.14343
3614.47,0.13395
3608.68,0.12423
3602.9,0.11597
3597.11,0.10813
3591.32,0.10134
3585.54,0.09575
3579.75,0.08954
3573.97,0.08465
3568.18,0.08048
3562.39,0.07666
3556.61,0.07328
3550.82,0.07080
3545.03,0.06741
3539.25,0.06515
3533.46,0.06362
3527.68,0.06082
3521.89,0.05882
3516.1,0.05731
3510.32,0.05614
3504.53,0.05449
3498.74,0.05337
3492.96,0.05255
3487.17,0.05163
3481.39,0.05075
3475.6,0.04998
3469.81,0.04896
3464.03,0.04919
3458.24,0.04882
3452.45,0.04819
3446.67,0.04834
3440.88,0.04823
3435.1,0.04821
3429.31,0.04923
3423.52,0.04870
3417.74,0.04877
3411.95,0.04948
3406.16,0.04905
3400.38,0.04920
3394.59,0.04957
3388.81,0.04992
3383.02,0.04978
3377.23,0.05015
3371.45,0.05062
3365.66,0.05129
3359.87,0.05129
3354.09,0.05192
3348.3,0.05294
3342.52,0.05309
3336.73,0.05476
3330.94,0.05535
3325.16,0.05628
3319.37,0.05661
3313.58,0.05813
3307.8,0.05817
3302.01,0.05876
3296.23,0.06034
3290.44,0.06100
3284.65,0.06167
3278.87,0.06312
3273.08,0.06387
3267.29,0.06620
3261.51,0.06766
3255.72,0.06921
3249.94,0.07072
3244.15,0.07200
3238.36,0.07396
3232.58,0.07537
3226.79,0.07739
3221,0.07905
3215.22,0.08146
3209.43,0.08373
3203.65,0.08544
3197.86,0.08680
3192.07,0.08958
3186.29,0.09249
3180.5,0.09505
3174.71,0.09698
3168.93,0.10015
3163.14,0.10217
3157.36,0.10519
3151.57,0.10810
3145.78,0.11098
3140,0.11368
3134.21,0.11624
3128.42,0.11923
3122.64,0.12238
3116.85,0.12457
3111.07,0.12755
3105.28,0.13078
3099.49,0.13323
3093.71,0.13507
3087.92,0.13815
3082.14,0.13998
3076.35,0.14226
3070.56,0.14440
3064.78,0.14685
3058.99,0.14890
3053.2,0.15152
3047.42,0.15369
3041.63,0.15534
3035.85,0.15683
3030.06,0.15748
3024.27,0.15703
3018.49,0.15599
3012.7,0.15298
3006.91,0.14987
3001.13,0.14578
2995.34,0.14337
2989.56,0.13962
2983.77,0.13309
2977.98,0.12387
2972.2,0.11489
2966.41,0.10762
2960.62,0.10290
2954.84,0.09887
2949.05,0.09390
2943.27,0.08983
2937.48,0.08768
2931.69,0.08711
2925.91,0.08648
2920.12,0.08599
2914.33,0.08612
2908.55,0.08597
2902.76,0.08631
2896.98,0.08708
2891.19,0.08860
2885.4,0.08968
2879.62,0.09109
2873.83,0.09263
2868.04,0.09520
2862.26,0.09885
2856.47,0.10215
2850.69,0.10560
2844.9,0.11152
2839.11,0.11831
2833.33,0.12538
2827.54,0.13397
2821.75,0.14137
2815.97,0.14941
2810.18,0.15518
2804.4,0.16015
2798.61,0.16478
2792.82,0.16849
2787.04,0.17180
2781.25,0.17346
2775.46,0.17533
2769.68,0.17677
2763.89,0.17818
2758.11,0.17933
2752.32,0.18015
2746.53,0.18065
2740.75,0.18100
2734.96,0.18180
2729.17,0.18352
2723.39,0.18501
2717.6,0.18718
2711.82,0.18971
2706.03,0.19276
2700.24,0.19565
2694.46,0.19877
2688.67,0.20147
2682.88,0.20431
2677.1,0.20666
2671.31,0.20924
2665.53,0.21040
2659.74,0.21229
2653.95,0.21423
2648.17,0.21621
2642.38,0.21836
2636.59,0.22036
2630.81,0.22259
2625.02,0.22520
2619.24,0.22741
2613.45,0.22935
2607.66,0.23104
2601.88,0.23285
2596.09,0.23494
2590.3,0.23650
2584.52,0.23796
2578.73,0.23914
2572.95,0.23975
2567.16,0.24032
2561.37,0.24063
2555.59,0.24076
2549.8,0.24181
2544.02,0.24157
2538.23,0.24283
2532.44,0.24438
2526.66,0.24652
2520.87,0.24811
2515.08,0.24957
2509.3,0.25197
2503.51,0.25511
2497.73,0.25834
2491.94,0.26140
2486.15,0.26401
2480.37,0.26651
2474.58,0.26881
2468.79,0.27127
2463.01,0.27365
2457.22,0.27558
2451.44,0.27849
2445.65,0.28108
2439.86,0.28414
2434.08,0.28699
2428.29,0.28989
2422.5,0.29328
2416.72,0.29688
2410.93,0.30037
2405.15,0.30325
2399.36,0.30606
2393.57,0.30883
2387.79,0.31163
2382,0.31441
2376.21,0.31683
2370.43,0.31942
2364.64,0.32153
2358.86,0.32325
2353.07,0.32512
2347.28,0.32707
2341.5,0.32836
2335.71,0.32973
2329.92,0.33050
2324.14,0.33108
2318.35,0.33162
2312.57,0.33187
2306.78,0.33149
2300.99,0.33022
2295.21,0.32930
2289.42,0.32846
2283.63,0.32791
2277.85,0.32717
2272.06,0.32530
2266.28,0.32327
2260.49,0.32103
2254.7,0.31971
2248.92,0.31836
2243.13,0.31758
2237.34,0.31700
2231.56,0.31532
2225.77,0.31509
2219.99,0.31451
2214.2,0.31429
2208.41,0.31329
2202.63,0.31189
2196.84,0.30930
2191.05,0.30623
2185.27,0.30270
2179.48,0.29909
2173.7,0.29491
2167.91,0.29183
2162.12,0.28911
2156.34,0.28668
2150.55,0.28497
2144.76,0.28348
2138.98,0.28262
2133.19,0.28251
2127.41,0.28269
2121.62,0.28370
2115.83,0.28540
2110.05,0.28652
2104.26,0.28761
2098.47,0.28854
2092.69,0.28951
2086.9,0.29008
2081.12,0.28913
2075.33,0.28795
2069.54,0.28663
2063.76,0.28537
2057.97,0.28445
2052.19,0.28477
2046.4,0.28615
2040.61,0.28803
2034.83,0.29103
2029.04,0.29486
2023.25,0.29821
2017.47,0.30235
2011.68,0.30558
2005.9,0.30821
2000.11,0.31062
1994.32,0.31315
1988.54,0.31595
1982.75,0.31751
1976.96,0.31918
1971.18,0.32123
1965.39,0.32354
1959.61,0.32640
1953.82,0.32996
1948.03,0.33355
1942.25,0.33686
1936.46,0.33978
1930.67,0.34173
1924.89,0.34354
1919.1,0.34463
1913.32,0.34503
1907.53,0.34554
1901.74,0.34489
1895.96,0.34441
1890.17,0.34411
1884.38,0.34387
1878.6,0.34318
1872.81,0.34283
1867.03,0.34228
1861.24,0.34130
1855.45,0.33986
1849.67,0.33818
1843.88,0.33606
1838.09,0.33353
1832.31,0.33107
1826.52,0.32802
1820.74,0.32417
1814.95,0.31974
1809.16,0.31450
1803.38,0.30850
1797.59,0.30085
1791.8,0.29173
1786.02,0.27944
1780.23,0.26237
1774.45,0.24089
1768.66,0.21038
1762.87,0.17939
1757.09,0.14969
1751.3,0.12931
1745.51,0.11734
1739.73,0.11341
1733.94,0.11489
1728.16,0.11984
1722.37,0.12784
1716.58,0.13965
1710.8,0.15241
1705.01,0.16233
1699.22,0.16644
1693.44,0.16369
1687.65,0.15744
1681.87,0.14488
1676.08,0.13170
1670.29,0.11896
1664.51,0.11105
1658.72,0.10881
1652.93,0.11175
1647.15,0.11339
1641.36,0.11274
1635.58,0.11277
1629.79,0.11262
1624,0.11242
1618.22,0.11019
1612.43,0.10566
1606.64,0.10100
1600.86,0.10110
1595.07,0.10176
1589.29,0.10487
1583.5,0.11369
1577.71,0.12939
1571.93,0.14932
1566.14,0.16514
1560.35,0.17401
1554.57,0.17665
1548.78,0.17481
1543,0.17109
1537.21,0.16005
1531.42,0.14167
1525.64,0.11592
1519.85,0.08468
1514.07,0.06775
1508.28,0.06711
1502.49,0.07588
1496.71,0.08709
1490.92,0.09424
1485.13,0.09252
1479.35,0.08715
1473.56,0.07752
1467.78,0.06804
1461.99,0.06558
1456.2,0.06515
1450.42,0.06528
1444.63,0.06767
1438.84,0.06551
1433.06,0.06127
1427.27,0.06057
1421.49,0.06235
1415.7,0.06609
1409.91,0.06931
1404.13,0.07073
1398.34,0.06998
1392.55,0.06724
1386.77,0.06332
1380.98,0.05855
1375.2,0.05752
1369.41,0.05854
1363.62,0.06083
1357.84,0.06305
1352.05,0.06413
1346.26,0.06360
1340.48,0.06192
1334.69,0.06116
1328.91,0.06093
1323.12,0.06024
1317.33,0.05996
1311.55,0.06182
1305.76,0.06328
1299.97,0.06323
1294.19,0.06088
1288.4,0.05742
1282.62,0.05412
1276.83,0.05250
1271.04,0.05157
1265.26,0.05281
1259.47,0.05478
1253.68,0.05623
1247.9,0.05692
1242.11,0.05651
1236.33,0.05600
1230.54,0.05631
1224.75,0.05659
1218.97,0.05710
1213.18,0.05731
1207.39,0.05770
1201.61,0.05897
1195.82,0.05918
1190.04,0.05794
1184.25,0.05398
1178.46,0.04846
1172.68,0.04453
1166.89,0.04604
1161.1,0.04909
1155.32,0.04995
1149.53,0.04860
1143.75,0.04675
1137.96,0.04459
1132.17,0.04284
1126.39,0.04271
1120.6,0.04416
1114.81,0.04506
1109.03,0.04788
1103.24,0.04867
1097.46,0.04826
1091.67,0.04848
1085.88,0.04952
1080.1,0.05275
1074.31,0.05757
1068.52,0.06354
1062.74,0.07126
1056.95,0.07621
1051.17,0.07577
1045.38,0.07353
1039.59,0.07547
1033.81,0.08133
1028.02,0.08383
1022.24,0.08577
1016.45,0.08797
1010.66,0.08891
1004.88,0.08953
999.09,0.09122
993.304,0.09464
987.518,0.09944
981.731,0.10685
975.945,0.11181
970.159,0.11335
964.373,0.11481
958.586,0.12037
952.8,0.12561
947.014,0.12893
941.228,0.13076
935.441,0.13365
929.655,0.13678
923.869,0.13744
918.083,0.13547
912.297,0.13054
906.51,0.12282
900.724,0.11668
894.938,0.11661
889.152,0.12119
883.365,0.12592
877.579,0.12685
871.793,0.12815
866.007,0.12966
860.22,0.13226
854.434,0.13570
848.648,0.13988
842.862,0.14180
837.075,0.13939
831.289,0.13528
825.503,0.13237
819.717,0.12534
813.931,0.12108
808.144,0.11942
802.358,0.12209
796.572,0.12495
790.786,0.12524
784.999,0.12319
779.213,0.12084
773.427,0.11762
767.641,0.11630
761.854,0.11461
756.068,0.11305
750.282,0.11081
744.496,0.10897
738.709,0.10572
732.923,0.10367
727.137,0.10045
721.351,0.09823
715.565,0.09723
709.778,0.09534
703.992,0.09490
698.206,0.09217
692.42,0.09119
686.633,0.08833
680.847,0.08610
675.061,0.08255
669.275,0.08165
663.488,0.08286
657.702,0.08325
651.916,0.08306
646.13,0.08219
640.343,0.08021
634.557,0.07866
628.771,0.07955
622.985,0.07544
617.198,0.07853
611.412,0.07813
605.626,0.08090
599.84,0.08189