File: 01_Data/Wood_Stud/FTIR/IS/Wood_Stud_IS_S_221031_R7.dpt
7497.03,0.85416
7491.25,0.84684
7485.46,0.84168
7479.67,0.85058
7473.89,0.84345
7468.1,0.84307
7462.32,0.82956
7456.53,0.83551
7450.74,0.82229
7444.96,0.82617
7439.17,0.82741
7433.38,0.82465
7427.6,0.82975
7421.81,0.82866
7416.03,0.81657
7410.24,0.81584
7404.45,0.81367
7398.67,0.81470
7392.88,0.81171
7387.09,0.80620
7381.31,0.80344
7375.52,0.81387
7369.74,0.80331
7363.95,0.80255
7358.16,0.80594
7352.38,0.80752
7346.59,0.80694
7340.8,0.79726
7335.02,0.78498
7329.23,0.78793
7323.45,0.78294
7317.66,0.78710
7311.87,0.78915
7306.09,0.78267
7300.3,0.79203
7294.51,0.78905
7288.73,0.78865
7282.94,0.78001
7277.16,0.79278
7271.37,0.79197
7265.58,0.79463
7259.8,0.78394
7254.01,0.79405
7248.22,0.77827
7242.44,0.77970
7236.65,0.78341
7230.87,0.77826
7225.08,0.78285
7219.29,0.77693
7213.51,0.77289
7207.72,0.77070
7201.93,0.77503
7196.15,0.77215
7190.36,0.76794
7184.58,0.77864
7178.79,0.77209
7173,0.77200
7167.22,0.75790
7161.43,0.75935
7155.65,0.75463
7149.86,0.75150
7144.07,0.74773
7138.29,0.74821
7132.5,0.74445
7126.71,0.74990
7120.93,0.73325
7115.14,0.73603
7109.36,0.72759
7103.57,0.71843
7097.78,0.71794
7092,0.71171
7086.21,0.70898
7080.42,0.70564
7074.64,0.70062
7068.85,0.69304
7063.07,0.69406
7057.28,0.69078
7051.49,0.68554
7045.71,0.67743
7039.92,0.66941
7034.13,0.67531
7028.35,0.66123
7022.56,0.66166
7016.78,0.65517
7010.99,0.65298
7005.2,0.65048
6999.42,0.63807
6993.63,0.63783
6987.84,0.63651
6982.06,0.64477
6976.27,0.64508
6970.49,0.63947
6964.7,0.63861
6958.91,0.63855
6953.13,0.63262
6947.34,0.63482
6941.55,0.63358
6935.77,0.63312
6929.98,0.62649
6924.2,0.62719
6918.41,0.62990
6912.62,0.63652
6906.84,0.62962
6901.05,0.62604
6895.26,0.62653
6889.48,0.63184
6883.69,0.62724
6877.91,0.62640
6872.12,0.63332
6866.33,0.63678
6860.55,0.63078
6854.76,0.62526
6848.97,0.62268
6843.19,0.62364
6837.4,0.62944
6831.62,0.63133
6825.83,0.62263
6820.04,0.63113
6814.26,0.62965
6808.47,0.62423
6802.68,0.62843
6796.9,0.62848
6791.11,0.63047
6785.33,0.62536
6779.54,0.62877
6773.75,0.63111
6767.97,0.63022
6762.18,0.63038
6756.39,0.62318
6750.61,0.63222
6744.82,0.63608
6739.04,0.62893
6733.25,0.63442
6727.46,0.63661
6721.68,0.63106
6715.89,0.62621
6710.1,0.63238
6704.32,0.63007
6698.53,0.62902
6692.75,0.63631
6686.96,0.63601
6681.17,0.63653
6675.39,0.63997
6669.6,0.63664
6663.82,0.63930
6658.03,0.63811
6652.24,0.63734
6646.46,0.64258
6640.67,0.63987
6634.88,0.64361
6629.1,0.64698
6623.31,0.64315
6617.53,0.64122
6611.74,0.64387
6605.95,0.65060
6600.17,0.65201
6594.38,0.64356
6588.59,0.65010
6582.81,0.65439
6577.02,0.65312
6571.24,0.65462
6565.45,0.65171
6559.66,0.65493
6553.88,0.65568
6548.09,0.65580
6542.3,0.65893
6536.52,0.65627
6530.73,0.65631
6524.95,0.65573
6519.16,0.65785
6513.37,0.65823
6507.59,0.65805
6501.8,0.65740
6496.01,0.66325
6490.23,0.65824
6484.44,0.66112
6478.66,0.65422
6472.87,0.65886
6467.08,0.66064
6461.3,0.66581
6455.51,0.66106
6449.72,0.65982
6443.94,0.66670
6438.15,0.66086
6432.37,0.66314
6426.58,0.66621
6420.79,0.66165
6415.01,0.66564
6409.22,0.66512
6403.43,0.66797
6397.65,0.66486
6391.86,0.66523
6386.08,0.66664
6380.29,0.66523
6374.5,0.66825
6368.72,0.66581
6362.93,0.66406
6357.14,0.66611
6351.36,0.67051
6345.57,0.67049
6339.79,0.66805
6334,0.67317
6328.21,0.67416
6322.43,0.67224
6316.64,0.67248
6310.85,0.67323
6305.07,0.67184
6299.28,0.67499
6293.5,0.67681
6287.71,0.67928
6281.92,0.67798
6276.14,0.67804
6270.35,0.67812
6264.56,0.67971
6258.78,0.68222
6252.99,0.68633
6247.21,0.68745
6241.42,0.68485
6235.63,0.68860
6229.85,0.69090
6224.06,0.69031
6218.27,0.69369
6212.49,0.69869
6206.7,0.69744
6200.92,0.70012
6195.13,0.70034
6189.34,0.70307
6183.56,0.70307
6177.77,0.70090
6171.98,0.70605
6166.2,0.70563
6160.41,0.70372
6154.63,0.70542
6148.84,0.71500
6143.05,0.71280
6137.27,0.71263
6131.48,0.71399
6125.7,0.71371
6119.91,0.71561
6114.12,0.71188
6108.34,0.71611
6102.55,0.71634
6096.76,0.72054
6090.98,0.71930
6085.19,0.71891
6079.41,0.71692
6073.62,0.72069
6067.83,0.71637
6062.05,0.71810
6056.26,0.72036
6050.47,0.71055
6044.69,0.71292
6038.9,0.71176
6033.12,0.71243
6027.33,0.70976
6021.54,0.70857
6015.76,0.70833
6009.97,0.70587
6004.18,0.70635
5998.4,0.70011
5992.61,0.69995
5986.83,0.70092
5981.04,0.69745
5975.25,0.69907
5969.47,0.69908
5963.68,0.69988
5957.89,0.70086
5952.11,0.70317
5946.32,0.70167
5940.54,0.70278
5934.75,0.70124
5928.96,0.70260
5923.18,0.70393
5917.39,0.70056
5911.6,0.69891
5905.82,0.69634
5900.03,0.69691
5894.25,0.69447
5888.46,0.69686
5882.67,0.69262
5876.89,0.69455
5871.1,0.69123
5865.31,0.69319
5859.53,0.69467
5853.74,0.69472
5847.96,0.69189
5842.17,0.69539
5836.38,0.69358
5830.6,0.69246
5824.81,0.68960
5819.02,0.69179
5813.24,0.68716
5807.45,0.68738
5801.67,0.68759
5795.88,0.68631
5790.09,0.68635
5784.31,0.68693
5778.52,0.68805
5772.73,0.69011
5766.95,0.68972
5761.16,0.69326
5755.38,0.69047
5749.59,0.68903
5743.8,0.69051
5738.02,0.69038
5732.23,0.68967
5726.44,0.69285
5720.66,0.69277
5714.87,0.69126
5709.09,0.69225
5703.3,0.69062
5697.51,0.68932
5691.73,0.69055
5685.94,0.68794
5680.15,0.68668
5674.37,0.68789
5668.58,0.68813
5662.8,0.68698
5657.01,0.68766
5651.22,0.68768
5645.44,0.68631
5639.65,0.68563
5633.87,0.68468
5628.08,0.68512
5622.29,0.68639
5616.51,0.68570
5610.72,0.68645
5604.93,0.68651
5599.15,0.68495
5593.36,0.68573
5587.58,0.68600
5581.79,0.68596
5576,0.68568
5570.22,0.68702
5564.43,0.68759
5558.64,0.68863
5552.86,0.69012
5547.07,0.68883
5541.29,0.69167
5535.5,0.69096
5529.71,0.69130
5523.93,0.69111
5518.14,0.69072
5512.35,0.69199
5506.57,0.69395
5500.78,0.69172
5495,0.69223
5489.21,0.69346
5483.42,0.69379
5477.64,0.69373
5471.85,0.69381
5466.06,0.69478
5460.28,0.69630
5454.49,0.69716
5448.71,0.69683
5442.92,0.69778
5437.13,0.69818
5431.35,0.70061
5425.56,0.70193
5419.77,0.70262
5413.99,0.70500
5408.2,0.70516
5402.42,0.70426
5396.63,0.70671
5390.84,0.70766
5385.06,0.70680
5379.27,0.70786
5373.48,0.70866
5367.7,0.70646
5361.91,0.70659
5356.13,0.70576
5350.34,0.70534
5344.55,0.70265
5338.77,0.70035
5332.98,0.69907
5327.19,0.69589
5321.41,0.69288
5315.62,0.68732
5309.84,0.68253
5304.05,0.67540
5298.26,0.67017
5292.48,0.66091
5286.69,0.65457
5280.9,0.64616
5275.12,0.63426
5269.33,0.62482
5263.55,0.61338
5257.76,0.60371
5251.97,0.59216
5246.19,0.58313
5240.4,0.57642
5234.61,0.56928
5228.83,0.56236
5223.04,0.55843
5217.26,0.55511
5211.47,0.55093
5205.68,0.54862
5199.9,0.54766
5194.11,0.54740
5188.32,0.54889
5182.54,0.54959
5176.75,0.54753
5170.97,0.55104
5165.18,0.55292
5159.39,0.55581
5153.61,0.55807
5147.82,0.55993
5142.03,0.56409
5136.25,0.56728
5130.46,0.56983
5124.68,0.57436
5118.89,0.57756
5113.1,0.57970
5107.32,0.58267
5101.53,0.58592
5095.75,0.58823
5089.96,0.59186
5084.17,0.59427
5078.39,0.59565
5072.6,0.59851
5066.81,0.60258
5061.03,0.60363
5055.24,0.60639
5049.46,0.60959
5043.67,0.61185
5037.88,0.61233
5032.1,0.61524
5026.31,0.61575
5020.52,0.61880
5014.74,0.61923
5008.95,0.61971
5003.17,0.61983
4997.38,0.62099
4991.59,0.62036
4985.81,0.61979
4980.02,0.61893
4974.23,0.61580
4968.45,0.61406
4962.66,0.61087
4956.88,0.60757
4951.09,0.60473
4945.3,0.60043
4939.52,0.59573
4933.73,0.59023
4927.94,0.58557
4922.16,0.58198
4916.37,0.57562
4910.59,0.57033
4904.8,0.56527
4899.01,0.56053
4893.23,0.55442
4887.44,0.54949
4881.65,0.54618
4875.87,0.54112
4870.08,0.53631
4864.3,0.53312
4858.51,0.52859
4852.72,0.52421
4846.94,0.52102
4841.15,0.51688
4835.36,0.51410
4829.58,0.51120
4823.79,0.50695
4818.01,0.50448
4812.22,0.50232
4806.43,0.50126
4800.65,0.50005
4794.86,0.49832
4789.07,0.49814
4783.29,0.49571
4777.5,0.49554
4771.72,0.49533
4765.93,0.49416
4760.14,0.49464
4754.36,0.49382
4748.57,0.49542
4742.78,0.49593
4737,0.49563
4731.21,0.49642
4725.43,0.49665
4719.64,0.49818
4713.85,0.49921
4708.07,0.49992
4702.28,0.50114
4696.49,0.50172
4690.71,0.50280
4684.92,0.50564
4679.14,0.50652
4673.35,0.50652
4667.56,0.50956
4661.78,0.51236
4655.99,0.51443
4650.2,0.51649
4644.42,0.51958
4638.63,0.52135
4632.85,0.52445
4627.06,0.52654
4621.27,0.52966
4615.49,0.53234
4609.7,0.53670
4603.92,0.53913
4598.13,0.54155
4592.34,0.54419
4586.56,0.54695
4580.77,0.55023
4574.98,0.55117
4569.2,0.55270
4563.41,0.55433
4557.63,0.55722
4551.84,0.55763
4546.05,0.55811
4540.27,0.56029
4534.48,0.56092
4528.69,0.56261
4522.91,0.56277
4517.12,0.56221
4511.34,0.56328
4505.55,0.56091
4499.76,0.55938
4493.98,0.55646
4488.19,0.55430
4482.4,0.55002
4476.62,0.54460
4470.83,0.53778
4465.05,0.53194
4459.26,0.52514
4453.47,0.51894
4447.69,0.51164
4441.9,0.50506
4436.11,0.49810
4430.33,0.48994
4424.54,0.48227
4418.76,0.47488
4412.97,0.46835
4407.18,0.46403
4401.4,0.46164
4395.61,0.46005
4389.82,0.46049
4384.04,0.46271
4378.25,0.46506
4372.47,0.46729
4366.68,0.46983
4360.89,0.47157
4355.11,0.47168
4349.32,0.47181
4343.53,0.47082
4337.75,0.46973
4331.96,0.46687
4326.18,0.46498
4320.39,0.46274
4314.6,0.45980
4308.82,0.45752
4303.03,0.45470
4297.24,0.45226
4291.46,0.44990
4285.67,0.44850
4279.89,0.44796
4274.1,0.44837
4268.31,0.44930
4262.53,0.45100
4256.74,0.45226
4250.95,0.45380
4245.17,0.45397
4239.38,0.45479
4233.6,0.45495
4227.81,0.45479
4222.02,0.45495
4216.24,0.45448
4210.45,0.45465
4204.66,0.45526
4198.88,0.45559
4193.09,0.45618
4187.31,0.45632
4181.52,0.45749
4175.73,0.45906
4169.95,0.46133
4164.16,0.46221
4158.37,0.46204
4152.59,0.46111
4146.8,0.45896
4141.02,0.45711
4135.23,0.45376
4129.44,0.45040
4123.66,0.44641
4117.87,0.44188
4112.09,0.43681
4106.3,0.43195
4100.51,0.42681
4094.73,0.42113
4088.94,0.41539
4083.15,0.40974
4077.37,0.40378
4071.58,0.39901
4065.8,0.39191
4060.01,0.38702
4054.22,0.38120
4048.44,0.37630
4042.65,0.37142
4036.86,0.36734
4031.08,0.36450
4025.29,0.36156
4019.51,0.35957
4013.72,0.35861
4007.93,0.35851
4002.15,0.35912
3996.36,0.36058
3990.57,0.36208
3984.79,0.36428
3979,0.36517
3973.22,0.36712
3967.43,0.36838
3961.64,0.37157
3955.86,0.37435
3950.07,0.37678
3944.28,0.37988
3938.5,0.38320
3932.71,0.38645
3926.93,0.38915
3921.14,0.39296
3915.35,0.39507
3909.57,0.39687
3903.78,0.40049
3897.99,0.40271
3892.21,0.40500
3886.42,0.40755
3880.64,0.40990
3874.85,0.41103
3869.06,0.41351
3863.28,0.41612
3857.49,0.41897
3851.7,0.42226
3845.92,0.42487
3840.13,0.42713
3834.35,0.42773
3828.56,0.42917
3822.77,0.42968
3816.99,0.43015
3811.2,0.42928
3805.41,0.42947
3799.63,0.42893
3793.84,0.42817
3788.06,0.42859
3782.27,0.42756
3776.48,0.42622
3770.7,0.42513
3764.91,0.42367
3759.12,0.42199
3753.34,0.41987
3747.55,0.41648
3741.77,0.41266
3735.98,0.40951
3730.19,0.40532
3724.41,0.40027
3718.62,0.39374
3712.83,0.38639
3707.05,0.37830
3701.26,0.36821
3695.48,0.35553
3689.69,0.34189
3683.9,0.32423
3678.12,0.30606
3672.33,0.28468
3666.54,0.26245
3660.76,0.24262
3654.97,0.22366
3649.19,0.20678
3643.4,0.19123
3637.61,0.17692
3631.83,0.16532
3626.04,0.15315
3620.25,0.14297
3614.47,0.13377
3608.68,0.12414
3602.9,0.11524
3597.11,0.10736
3591.32,0.10088
3585.54,0.09398
3579.75,0.08961
3573.97,0.08395
3568.18,0.08001
3562.39,0.07597
3556.61,0.07276
3550.82,0.06983
3545.03,0.06754
3539.25,0.06472
3533.46,0.06233
3527.68,0.06048
3521.89,0.05876
3516.1,0.05757
3510.32,0.05603
3504.53,0.05491
3498.74,0.05379
3492.96,0.05294
3487.17,0.05182
3481.39,0.05047
3475.6,0.04953
3469.81,0.05003
3464.03,0.04943
3458.24,0.04938
3452.45,0.04868
3446.67,0.04856
3440.88,0.04828
3435.1,0.04888
3429.31,0.04832
3423.52,0.04896
3417.74,0.04877
3411.95,0.04933
3406.16,0.04913
3400.38,0.04950
3394.59,0.04926
3388.81,0.04956
3383.02,0.05085
3377.23,0.05063
3371.45,0.05033
3365.66,0.05059
3359.87,0.05093
3354.09,0.05206
3348.3,0.05273
3342.52,0.05302
3336.73,0.05326
3330.94,0.05538
3325.16,0.05626
3319.37,0.05710
3313.58,0.05833
3307.8,0.05853
3302.01,0.05900
3296.23,0.05952
3290.44,0.06164
3284.65,0.06215
3278.87,0.06281
3273.08,0.06356
3267.29,0.06546
3261.51,0.06747
3255.72,0.06852
3249.94,0.07090
3244.15,0.07182
3238.36,0.07418
3232.58,0.07567
3226.79,0.07784
3221,0.07939
3215.22,0.08151
3209.43,0.08314
3203.65,0.08596
3197.86,0.08733
3192.07,0.09001
3186.29,0.09209
3180.5,0.09397
3174.71,0.09770
3168.93,0.10011
3163.14,0.10233
3157.36,0.10490
3151.57,0.10734
3145.78,0.11045
3140,0.11300
3134.21,0.11617
3128.42,0.11893
3122.64,0.12171
3116.85,0.12440
3111.07,0.12685
3105.28,0.12983
3099.49,0.13288
3093.71,0.13518
3087.92,0.13745
3082.14,0.13962
3076.35,0.14159
3070.56,0.14414
3064.78,0.14632
3058.99,0.14914
3053.2,0.15146
3047.42,0.15313
3041.63,0.15518
3035.85,0.15650
3030.06,0.15703
3024.27,0.15698
3018.49,0.15544
3012.7,0.15265
3006.91,0.14929
3001.13,0.14571
2995.34,0.14327
2989.56,0.13959
2983.77,0.13303
2977.98,0.12425
2972.2,0.11477
2966.41,0.10765
2960.62,0.10307
2954.84,0.09809
2949.05,0.09415
2943.27,0.09012
2937.48,0.08817
2931.69,0.08747
2925.91,0.08671
2920.12,0.08536
2914.33,0.08557
2908.55,0.08600
2902.76,0.08604
2896.98,0.08685
2891.19,0.08829
2885.4,0.08986
2879.62,0.09074
2873.83,0.09282
2868.04,0.09510
2862.26,0.09857
2856.47,0.10238
2850.69,0.10575
2844.9,0.11167
2839.11,0.11826
2833.33,0.12555
2827.54,0.13372
2821.75,0.14198
2815.97,0.14879
2810.18,0.15538
2804.4,0.16013
2798.61,0.16486
2792.82,0.16823
2787.04,0.17148
2781.25,0.17405
2775.46,0.17576
2769.68,0.17720
2763.89,0.17812
2758.11,0.17891
2752.32,0.17990
2746.53,0.18095
2740.75,0.18117
2734.96,0.18215
2729.17,0.18306
2723.39,0.18518
2717.6,0.18733
2711.82,0.18989
2706.03,0.19297
2700.24,0.19602
2694.46,0.19855
2688.67,0.20161
2682.88,0.20418
2677.1,0.20696
2671.31,0.20866
2665.53,0.21019
2659.74,0.21226
2653.95,0.21435
2648.17,0.21635
2642.38,0.21812
2636.59,0.22078
2630.81,0.22288
2625.02,0.22506
2619.24,0.22749
2613.45,0.22925
2607.66,0.23152
2601.88,0.23325
2596.09,0.23483
2590.3,0.23625
2584.52,0.23801
2578.73,0.23874
2572.95,0.23959
2567.16,0.24055
2561.37,0.24093
2555.59,0.24110
2549.8,0.24138
2544.02,0.24180
2538.23,0.24298
2532.44,0.24423
2526.66,0.24669
2520.87,0.24810
2515.08,0.24986
2509.3,0.25202
2503.51,0.25528
2497.73,0.25836
2491.94,0.26117
2486.15,0.26407
2480.37,0.26654
2474.58,0.26876
2468.79,0.27108
2463.01,0.27362
2457.22,0.27568
2451.44,0.27832
2445.65,0.28133
2439.86,0.28401
2434.08,0.28696
2428.29,0.28993
2422.5,0.29333
2416.72,0.29669
2410.93,0.29991
2405.15,0.30360
2399.36,0.30625
2393.57,0.30860
2387.79,0.31162
2382,0.31417
2376.21,0.31711
2370.43,0.32002
2364.64,0.32144
2358.86,0.32328
2353.07,0.32475
2347.28,0.32669
2341.5,0.32809
2335.71,0.32947
2329.92,0.33048
2324.14,0.33096
2318.35,0.33156
2312.57,0.33159
2306.78,0.33121
2300.99,0.33004
2295.21,0.32950
2289.42,0.32905
2283.63,0.32842
2277.85,0.32745
2272.06,0.32550
2266.28,0.32285
2260.49,0.32096
2254.7,0.31953
2248.92,0.31846
2243.13,0.31750
2237.34,0.31603
2231.56,0.31520
2225.77,0.31472
2219.99,0.31447
2214.2,0.31404
2208.41,0.31295
2202.63,0.31115
2196.84,0.30921
2191.05,0.30600
2185.27,0.30233
2179.48,0.29867
2173.7,0.29503
2167.91,0.29156
2162.12,0.28877
2156.34,0.28685
2150.55,0.28511
2144.76,0.28354
2138.98,0.28265
2133.19,0.28207
2127.41,0.28211
2121.62,0.28324
2115.83,0.28449
2110.05,0.28595
2104.26,0.28749
2098.47,0.28845
2092.69,0.28944
2086.9,0.28950
2081.12,0.28915
2075.33,0.28776
2069.54,0.28639
2063.76,0.28505
2057.97,0.28428
2052.19,0.28468
2046.4,0.28599
2040.61,0.28801
2034.83,0.29132
2029.04,0.29473
2023.25,0.29820
2017.47,0.30203
2011.68,0.30559
2005.9,0.30826
2000.11,0.31026
1994.32,0.31284
1988.54,0.31486
1982.75,0.31735
1976.96,0.31915
1971.18,0.32138
1965.39,0.32348
1959.61,0.32641
1953.82,0.32924
1948.03,0.33306
1942.25,0.33656
1936.46,0.33923
1930.67,0.34157
1924.89,0.34325
1919.1,0.34459
1913.32,0.34498
1907.53,0.34532
1901.74,0.34492
1895.96,0.34408
1890.17,0.34378
1884.38,0.34347
1878.6,0.34321
1872.81,0.34281
1867.03,0.34216
1861.24,0.34098
1855.45,0.33955
1849.67,0.33769
1843.88,0.33595
1838.09,0.33306
1832.31,0.33077
1826.52,0.32805
1820.74,0.32431
1814.95,0.31950
1809.16,0.31455
1803.38,0.30844
1797.59,0.30100
1791.8,0.29164
1786.02,0.27913
1780.23,0.26259
1774.45,0.24081
1768.66,0.21040
1762.87,0.17945
1757.09,0.14997
1751.3,0.12968
1745.51,0.11805
1739.73,0.11374
1733.94,0.11502
1728.16,0.11982
1722.37,0.12798
1716.58,0.13976
1710.8,0.15263
1705.01,0.16189
1699.22,0.16623
1693.44,0.16345
1687.65,0.15698
1681.87,0.14471
1676.08,0.13156
1670.29,0.11851
1664.51,0.11079
1658.72,0.10906
1652.93,0.11114
1647.15,0.11319
1641.36,0.11219
1635.58,0.11221
1629.79,0.11251
1624,0.11204
1618.22,0.11043
1612.43,0.10568
1606.64,0.10106
1600.86,0.10077
1595.07,0.10145
1589.29,0.10479
1583.5,0.11381
1577.71,0.12956
1571.93,0.14942
1566.14,0.16500
1560.35,0.17391
1554.57,0.17630
1548.78,0.17502
1543,0.17111
1537.21,0.16022
1531.42,0.14168
1525.64,0.11603
1519.85,0.08483
1514.07,0.06826
1508.28,0.06713
1502.49,0.07601
1496.71,0.08700
1490.92,0.09421
1485.13,0.09249
1479.35,0.08701
1473.56,0.07743
1467.78,0.06776
1461.99,0.06556
1456.2,0.06533
1450.42,0.06525
1444.63,0.06750
1438.84,0.06567
1433.06,0.06143
1427.27,0.06025
1421.49,0.06253
1415.7,0.06623
1409.91,0.06929
1404.13,0.07097
1398.34,0.07045
1392.55,0.06723
1386.77,0.06321
1380.98,0.05846
1375.2,0.05737
1369.41,0.05853
1363.62,0.06120
1357.84,0.06267
1352.05,0.06425
1346.26,0.06412
1340.48,0.06179
1334.69,0.06154
1328.91,0.06122
1323.12,0.06011
1317.33,0.06054
1311.55,0.06197
1305.76,0.06359
1299.97,0.06333
1294.19,0.06108
1288.4,0.05746
1282.62,0.05418
1276.83,0.05244
1271.04,0.05163
1265.26,0.05285
1259.47,0.05487
1253.68,0.05635
1247.9,0.05681
1242.11,0.05696
1236.33,0.05661
1230.54,0.05629
1224.75,0.05674
1218.97,0.05731
1213.18,0.05735
1207.39,0.05775
1201.61,0.05870
1195.82,0.05904
1190.04,0.05758
1184.25,0.05367
1178.46,0.04805
1172.68,0.04512
1166.89,0.04641
1161.1,0.04889
1155.32,0.04973
1149.53,0.04844
1143.75,0.04698
1137.96,0.04469
1132.17,0.04240
1126.39,0.04225
1120.6,0.04380
1114.81,0.04534
1109.03,0.04787
1103.24,0.04879
1097.46,0.04888
1091.67,0.04813
1085.88,0.04974
1080.1,0.05319
1074.31,0.05736
1068.52,0.06352
1062.74,0.07099
1056.95,0.07656
1051.17,0.07575
1045.38,0.07379
1039.59,0.07544
1033.81,0.08207
1028.02,0.08442
1022.24,0.08574
1016.45,0.08758
1010.66,0.08917
1004.88,0.08924
999.09,0.09161
993.304,0.09467
987.518,0.09900
981.731,0.10692
975.945,0.11150
970.159,0.11306
964.373,0.11599
958.586,0.12026
952.8,0.12516
947.014,0.12854
941.228,0.13088
935.441,0.13390
929.655,0.13595
923.869,0.13712
918.083,0.13583
912.297,0.13087
906.51,0.12285
900.724,0.11595
894.938,0.11638
889.152,0.12169
883.365,0.12591
877.579,0.12713
871.793,0.12795
866.007,0.12987
860.22,0.13147
854.434,0.13552
848.648,0.14024
842.862,0.14166
837.075,0.13903
831.289,0.13501
825.503,0.13199
819.717,0.12497
813.931,0.11976
808.144,0.11857
802.358,0.12134
796.572,0.12410
790.786,0.12486
784.999,0.12358
779.213,0.12057
773.427,0.11778
767.641,0.11616
761.854,0.11448
756.068,0.11383
750.282,0.11096
744.496,0.10778
738.709,0.10602
732.923,0.10414
727.137,0.10077
721.351,0.09923
715.565,0.09633
709.778,0.09493
703.992,0.09330
698.206,0.09205
692.42,0.09137
686.633,0.08815
680.847,0.08575
675.061,0.08138
669.275,0.08070
663.488,0.08149
657.702,0.08350
651.916,0.08319
646.13,0.08252
640.343,0.08004
634.557,0.07628
628.771,0.07735
622.985,0.07789
617.198,0.07733
611.412,0.07795
605.626,0.07984
599.84,0.08088