File: 01_Data/Wood_Stud/FTIR/IS/Wood_Stud_IS_S_221031_R6.dpt
7497.03,0.83232
7491.25,0.85001
7485.46,0.84993
7479.67,0.83719
7473.89,0.85839
7468.1,0.83990
7462.32,0.83665
7456.53,0.83198
7450.74,0.83120
7444.96,0.83022
7439.17,0.82461
7433.38,0.81459
7427.6,0.81715
7421.81,0.81223
7416.03,0.81775
7410.24,0.82047
7404.45,0.80957
7398.67,0.81283
7392.88,0.80228
7387.09,0.80721
7381.31,0.80553
7375.52,0.79508
7369.74,0.79275
7363.95,0.79801
7358.16,0.80009
7352.38,0.79610
7346.59,0.79677
7340.8,0.80016
7335.02,0.80394
7329.23,0.80404
7323.45,0.78806
7317.66,0.78282
7311.87,0.78564
7306.09,0.78468
7300.3,0.79263
7294.51,0.79259
7288.73,0.78262
7282.94,0.78052
7277.16,0.79293
7271.37,0.78496
7265.58,0.78459
7259.8,0.77976
7254.01,0.78201
7248.22,0.78222
7242.44,0.79097
7236.65,0.78666
7230.87,0.78485
7225.08,0.78828
7219.29,0.78140
7213.51,0.77062
7207.72,0.77317
7201.93,0.77883
7196.15,0.78623
7190.36,0.78135
7184.58,0.75448
7178.79,0.75723
7173,0.76586
7167.22,0.75117
7161.43,0.76134
7155.65,0.75561
7149.86,0.75326
7144.07,0.75149
7138.29,0.74302
7132.5,0.74940
7126.71,0.74397
7120.93,0.74189
7115.14,0.72768
7109.36,0.72555
7103.57,0.72182
7097.78,0.72186
7092,0.71798
7086.21,0.71497
7080.42,0.70822
7074.64,0.69574
7068.85,0.69585
7063.07,0.69401
7057.28,0.68812
7051.49,0.67851
7045.71,0.67546
7039.92,0.67004
7034.13,0.66441
7028.35,0.66930
7022.56,0.66863
7016.78,0.65452
7010.99,0.64961
7005.2,0.65180
6999.42,0.65293
6993.63,0.64401
6987.84,0.64412
6982.06,0.63962
6976.27,0.64546
6970.49,0.63021
6964.7,0.63012
6958.91,0.63494
6953.13,0.62876
6947.34,0.63286
6941.55,0.63411
6935.77,0.62655
6929.98,0.62639
6924.2,0.62235
6918.41,0.62970
6912.62,0.62365
6906.84,0.62893
6901.05,0.63118
6895.26,0.62802
6889.48,0.63866
6883.69,0.63205
6877.91,0.63187
6872.12,0.62707
6866.33,0.63075
6860.55,0.62873
6854.76,0.63065
6848.97,0.63350
6843.19,0.63301
6837.4,0.62376
6831.62,0.62518
6825.83,0.62564
6820.04,0.62645
6814.26,0.62497
6808.47,0.62767
6802.68,0.62629
6796.9,0.62834
6791.11,0.62692
6785.33,0.63066
6779.54,0.63153
6773.75,0.62781
6767.97,0.62869
6762.18,0.63399
6756.39,0.63082
6750.61,0.62754
6744.82,0.62917
6739.04,0.63011
6733.25,0.63013
6727.46,0.63019
6721.68,0.62826
6715.89,0.63290
6710.1,0.63178
6704.32,0.62898
6698.53,0.63344
6692.75,0.63253
6686.96,0.63268
6681.17,0.63071
6675.39,0.63353
6669.6,0.63329
6663.82,0.63850
6658.03,0.64175
6652.24,0.63469
6646.46,0.63511
6640.67,0.64203
6634.88,0.64244
6629.1,0.64278
6623.31,0.64726
6617.53,0.64745
6611.74,0.64535
6605.95,0.64509
6600.17,0.65043
6594.38,0.65583
6588.59,0.65159
6582.81,0.65255
6577.02,0.64761
6571.24,0.65066
6565.45,0.65119
6559.66,0.65456
6553.88,0.65453
6548.09,0.65683
6542.3,0.65698
6536.52,0.65725
6530.73,0.66243
6524.95,0.65520
6519.16,0.65384
6513.37,0.65653
6507.59,0.66157
6501.8,0.65807
6496.01,0.65521
6490.23,0.66424
6484.44,0.65770
6478.66,0.65625
6472.87,0.66068
6467.08,0.66596
6461.3,0.66091
6455.51,0.65882
6449.72,0.66028
6443.94,0.66707
6438.15,0.66205
6432.37,0.66148
6426.58,0.66188
6420.79,0.66549
6415.01,0.66378
6409.22,0.66648
6403.43,0.66088
6397.65,0.66258
6391.86,0.66608
6386.08,0.66645
6380.29,0.66597
6374.5,0.66590
6368.72,0.66661
6362.93,0.66673
6357.14,0.66372
6351.36,0.67012
6345.57,0.66315
6339.79,0.67075
6334,0.67184
6328.21,0.66483
6322.43,0.66996
6316.64,0.67048
6310.85,0.67112
6305.07,0.67560
6299.28,0.67693
6293.5,0.67688
6287.71,0.67515
6281.92,0.67451
6276.14,0.67863
6270.35,0.67491
6264.56,0.68169
6258.78,0.68462
6252.99,0.67901
6247.21,0.68307
6241.42,0.68539
6235.63,0.68338
6229.85,0.69190
6224.06,0.69074
6218.27,0.69303
6212.49,0.69358
6206.7,0.69398
6200.92,0.69592
6195.13,0.69734
6189.34,0.70019
6183.56,0.69697
6177.77,0.70609
6171.98,0.70082
6166.2,0.70614
6160.41,0.70564
6154.63,0.70916
6148.84,0.70674
6143.05,0.71233
6137.27,0.70823
6131.48,0.71513
6125.7,0.71450
6119.91,0.71557
6114.12,0.71511
6108.34,0.71530
6102.55,0.71533
6096.76,0.71786
6090.98,0.71719
6085.19,0.71621
6079.41,0.71868
6073.62,0.71799
6067.83,0.71654
6062.05,0.71698
6056.26,0.71785
6050.47,0.71656
6044.69,0.71656
6038.9,0.71190
6033.12,0.71137
6027.33,0.71061
6021.54,0.71061
6015.76,0.70653
6009.97,0.70520
6004.18,0.70700
5998.4,0.70341
5992.61,0.70303
5986.83,0.69751
5981.04,0.69861
5975.25,0.70084
5969.47,0.69982
5963.68,0.69931
5957.89,0.69898
5952.11,0.70191
5946.32,0.70127
5940.54,0.69978
5934.75,0.70118
5928.96,0.69988
5923.18,0.70266
5917.39,0.70038
5911.6,0.69773
5905.82,0.70012
5900.03,0.69796
5894.25,0.69822
5888.46,0.69468
5882.67,0.69360
5876.89,0.69107
5871.1,0.69212
5865.31,0.69140
5859.53,0.69140
5853.74,0.69678
5847.96,0.69376
5842.17,0.69094
5836.38,0.69267
5830.6,0.68841
5824.81,0.68676
5819.02,0.68852
5813.24,0.69056
5807.45,0.68786
5801.67,0.68982
5795.88,0.68530
5790.09,0.68826
5784.31,0.68994
5778.52,0.68977
5772.73,0.69092
5766.95,0.69179
5761.16,0.69146
5755.38,0.69259
5749.59,0.69215
5743.8,0.69054
5738.02,0.69210
5732.23,0.69226
5726.44,0.69136
5720.66,0.68944
5714.87,0.68991
5709.09,0.68844
5703.3,0.68687
5697.51,0.69062
5691.73,0.68952
5685.94,0.68768
5680.15,0.68730
5674.37,0.68568
5668.58,0.68731
5662.8,0.68608
5657.01,0.68746
5651.22,0.68719
5645.44,0.68575
5639.65,0.68609
5633.87,0.68856
5628.08,0.68565
5622.29,0.68697
5616.51,0.68626
5610.72,0.68680
5604.93,0.68500
5599.15,0.68514
5593.36,0.68576
5587.58,0.68701
5581.79,0.68629
5576,0.68771
5570.22,0.68817
5564.43,0.68848
5558.64,0.68788
5552.86,0.68936
5547.07,0.69011
5541.29,0.68952
5535.5,0.68935
5529.71,0.69072
5523.93,0.69332
5518.14,0.69256
5512.35,0.69103
5506.57,0.69176
5500.78,0.69345
5495,0.69436
5489.21,0.69453
5483.42,0.69251
5477.64,0.69354
5471.85,0.69783
5466.06,0.69556
5460.28,0.69735
5454.49,0.69766
5448.71,0.69805
5442.92,0.69848
5437.13,0.70036
5431.35,0.70048
5425.56,0.70190
5419.77,0.70331
5413.99,0.70549
5408.2,0.70498
5402.42,0.70616
5396.63,0.70745
5390.84,0.70659
5385.06,0.70776
5379.27,0.70532
5373.48,0.70857
5367.7,0.70772
5361.91,0.70518
5356.13,0.70516
5350.34,0.70352
5344.55,0.70401
5338.77,0.70257
5332.98,0.69904
5327.19,0.69574
5321.41,0.69141
5315.62,0.68733
5309.84,0.68374
5304.05,0.67707
5298.26,0.67037
5292.48,0.66183
5286.69,0.65279
5280.9,0.64261
5275.12,0.63437
5269.33,0.62212
5263.55,0.61092
5257.76,0.60216
5251.97,0.59234
5246.19,0.58214
5240.4,0.57401
5234.61,0.56764
5228.83,0.56264
5223.04,0.55596
5217.26,0.55192
5211.47,0.54981
5205.68,0.54753
5199.9,0.54636
5194.11,0.54627
5188.32,0.54456
5182.54,0.54594
5176.75,0.54554
5170.97,0.54764
5165.18,0.54925
5159.39,0.55219
5153.61,0.55545
5147.82,0.55811
5142.03,0.56025
5136.25,0.56479
5130.46,0.56798
5124.68,0.57200
5118.89,0.57330
5113.1,0.57675
5107.32,0.57962
5101.53,0.58302
5095.75,0.58569
5089.96,0.58841
5084.17,0.59148
5078.39,0.59469
5072.6,0.59648
5066.81,0.59865
5061.03,0.60153
5055.24,0.60499
5049.46,0.60672
5043.67,0.61037
5037.88,0.61121
5032.1,0.61379
5026.31,0.61522
5020.52,0.61599
5014.74,0.61792
5008.95,0.61945
5003.17,0.61952
4997.38,0.61989
4991.59,0.61893
4985.81,0.61860
4980.02,0.61826
4974.23,0.61448
4968.45,0.61486
4962.66,0.61100
4956.88,0.60777
4951.09,0.60381
4945.3,0.59939
4939.52,0.59518
4933.73,0.59090
4927.94,0.58567
4922.16,0.58069
4916.37,0.57636
4910.59,0.57073
4904.8,0.56455
4899.01,0.56070
4893.23,0.55507
4887.44,0.54956
4881.65,0.54573
4875.87,0.54103
4870.08,0.53665
4864.3,0.53320
4858.51,0.52850
4852.72,0.52521
4846.94,0.52101
4841.15,0.51744
4835.36,0.51424
4829.58,0.51120
4823.79,0.50803
4818.01,0.50462
4812.22,0.50231
4806.43,0.50089
4800.65,0.50041
4794.86,0.49913
4789.07,0.49748
4783.29,0.49575
4777.5,0.49489
4771.72,0.49502
4765.93,0.49449
4760.14,0.49436
4754.36,0.49415
4748.57,0.49457
4742.78,0.49514
4737,0.49471
4731.21,0.49532
4725.43,0.49856
4719.64,0.49952
4713.85,0.49997
4708.07,0.49923
4702.28,0.50102
4696.49,0.50125
4690.71,0.50237
4684.92,0.50481
4679.14,0.50600
4673.35,0.50840
4667.56,0.51021
4661.78,0.51239
4655.99,0.51534
4650.2,0.51798
4644.42,0.52098
4638.63,0.52148
4632.85,0.52443
4627.06,0.52667
4621.27,0.52951
4615.49,0.53306
4609.7,0.53573
4603.92,0.53969
4598.13,0.54299
4592.34,0.54413
4586.56,0.54643
4580.77,0.54939
4574.98,0.55117
4569.2,0.55297
4563.41,0.55499
4557.63,0.55703
4551.84,0.55804
4546.05,0.55863
4540.27,0.56034
4534.48,0.56068
4528.69,0.56190
4522.91,0.56242
4517.12,0.56294
4511.34,0.56228
4505.55,0.56107
4499.76,0.55913
4493.98,0.55682
4488.19,0.55384
4482.4,0.54978
4476.62,0.54338
4470.83,0.53819
4465.05,0.53240
4459.26,0.52513
4453.47,0.51874
4447.69,0.51110
4441.9,0.50500
4436.11,0.49794
4430.33,0.49125
4424.54,0.48330
4418.76,0.47518
4412.97,0.46849
4407.18,0.46390
4401.4,0.46171
4395.61,0.46135
4389.82,0.46043
4384.04,0.46166
4378.25,0.46502
4372.47,0.46739
4366.68,0.46965
4360.89,0.47110
4355.11,0.47242
4349.32,0.47228
4343.53,0.47127
4337.75,0.46941
4331.96,0.46759
4326.18,0.46530
4320.39,0.46290
4314.6,0.46024
4308.82,0.45731
4303.03,0.45457
4297.24,0.45210
4291.46,0.44983
4285.67,0.44943
4279.89,0.44871
4274.1,0.44905
4268.31,0.44976
4262.53,0.45150
4256.74,0.45308
4250.95,0.45327
4245.17,0.45404
4239.38,0.45488
4233.6,0.45467
4227.81,0.45535
4222.02,0.45515
4216.24,0.45452
4210.45,0.45513
4204.66,0.45524
4198.88,0.45470
4193.09,0.45553
4187.31,0.45667
4181.52,0.45743
4175.73,0.45880
4169.95,0.46043
4164.16,0.46155
4158.37,0.46219
4152.59,0.46052
4146.8,0.45909
4141.02,0.45646
4135.23,0.45382
4129.44,0.45036
4123.66,0.44642
4117.87,0.44204
4112.09,0.43758
4106.3,0.43158
4100.51,0.42635
4094.73,0.42162
4088.94,0.41628
4083.15,0.40951
4077.37,0.40375
4071.58,0.39793
4065.8,0.39300
4060.01,0.38654
4054.22,0.38117
4048.44,0.37593
4042.65,0.37093
4036.86,0.36688
4031.08,0.36451
4025.29,0.36083
4019.51,0.35885
4013.72,0.35810
4007.93,0.35871
4002.15,0.35931
3996.36,0.36082
3990.57,0.36179
3984.79,0.36365
3979,0.36468
3973.22,0.36595
3967.43,0.36870
3961.64,0.37116
3955.86,0.37486
3950.07,0.37696
3944.28,0.37926
3938.5,0.38258
3932.71,0.38599
3926.93,0.38894
3921.14,0.39192
3915.35,0.39427
3909.57,0.39694
3903.78,0.40031
3897.99,0.40253
3892.21,0.40466
3886.42,0.40727
3880.64,0.40883
3874.85,0.41066
3869.06,0.41331
3863.28,0.41590
3857.49,0.41909
3851.7,0.42114
3845.92,0.42407
3840.13,0.42641
3834.35,0.42803
3828.56,0.42854
3822.77,0.42942
3816.99,0.42959
3811.2,0.42824
3805.41,0.42826
3799.63,0.42819
3793.84,0.42831
3788.06,0.42775
3782.27,0.42586
3776.48,0.42549
3770.7,0.42443
3764.91,0.42283
3759.12,0.42073
3753.34,0.41909
3747.55,0.41571
3741.77,0.41294
3735.98,0.40926
3730.19,0.40370
3724.41,0.39852
3718.62,0.39271
3712.83,0.38567
3707.05,0.37673
3701.26,0.36644
3695.48,0.35359
3689.69,0.34048
3683.9,0.32189
3678.12,0.30346
3672.33,0.28189
3666.54,0.25980
3660.76,0.23992
3654.97,0.22126
3649.19,0.20477
3643.4,0.18845
3637.61,0.17517
3631.83,0.16328
3626.04,0.15207
3620.25,0.14147
3614.47,0.13210
3608.68,0.12319
3602.9,0.11456
3597.11,0.10634
3591.32,0.09976
3585.54,0.09395
3579.75,0.08849
3573.97,0.08301
3568.18,0.08009
3562.39,0.07639
3556.61,0.07280
3550.82,0.06991
3545.03,0.06722
3539.25,0.06490
3533.46,0.06266
3527.68,0.06061
3521.89,0.05927
3516.1,0.05742
3510.32,0.05665
3504.53,0.05449
3498.74,0.05312
3492.96,0.05271
3487.17,0.05187
3481.39,0.05078
3475.6,0.05042
3469.81,0.04917
3464.03,0.04926
3458.24,0.04851
3452.45,0.04805
3446.67,0.04896
3440.88,0.04815
3435.1,0.04840
3429.31,0.04842
3423.52,0.04867
3417.74,0.04905
3411.95,0.04942
3406.16,0.04918
3400.38,0.05035
3394.59,0.04982
3388.81,0.05041
3383.02,0.05030
3377.23,0.05003
3371.45,0.05031
3365.66,0.05110
3359.87,0.05074
3354.09,0.05171
3348.3,0.05177
3342.52,0.05292
3336.73,0.05402
3330.94,0.05478
3325.16,0.05566
3319.37,0.05606
3313.58,0.05711
3307.8,0.05801
3302.01,0.05878
3296.23,0.05911
3290.44,0.06069
3284.65,0.06140
3278.87,0.06279
3273.08,0.06404
3267.29,0.06568
3261.51,0.06676
3255.72,0.06860
3249.94,0.07032
3244.15,0.07170
3238.36,0.07316
3232.58,0.07465
3226.79,0.07664
3221,0.07906
3215.22,0.08113
3209.43,0.08201
3203.65,0.08533
3197.86,0.08720
3192.07,0.08951
3186.29,0.09184
3180.5,0.09374
3174.71,0.09644
3168.93,0.09944
3163.14,0.10127
3157.36,0.10484
3151.57,0.10704
3145.78,0.10986
3140,0.11228
3134.21,0.11529
3128.42,0.11863
3122.64,0.12073
3116.85,0.12395
3111.07,0.12708
3105.28,0.12938
3099.49,0.13221
3093.71,0.13421
3087.92,0.13654
3082.14,0.13856
3076.35,0.14127
3070.56,0.14345
3064.78,0.14562
3058.99,0.14823
3053.2,0.15109
3047.42,0.15275
3041.63,0.15431
3035.85,0.15557
3030.06,0.15619
3024.27,0.15666
3018.49,0.15467
3012.7,0.15225
3006.91,0.14909
3001.13,0.14554
2995.34,0.14328
2989.56,0.13929
2983.77,0.13281
2977.98,0.12413
2972.2,0.11405
2966.41,0.10784
2960.62,0.10317
2954.84,0.09855
2949.05,0.09432
2943.27,0.09012
2937.48,0.08760
2931.69,0.08717
2925.91,0.08665
2920.12,0.08586
2914.33,0.08581
2908.55,0.08620
2902.76,0.08634
2896.98,0.08649
2891.19,0.08831
2885.4,0.08962
2879.62,0.09101
2873.83,0.09240
2868.04,0.09554
2862.26,0.09891
2856.47,0.10249
2850.69,0.10574
2844.9,0.11147
2839.11,0.11840
2833.33,0.12532
2827.54,0.13351
2821.75,0.14223
2815.97,0.14921
2810.18,0.15488
2804.4,0.16024
2798.61,0.16451
2792.82,0.16797
2787.04,0.17131
2781.25,0.17318
2775.46,0.17519
2769.68,0.17636
2763.89,0.17778
2758.11,0.17935
2752.32,0.17997
2746.53,0.18039
2740.75,0.18111
2734.96,0.18181
2729.17,0.18317
2723.39,0.18499
2717.6,0.18712
2711.82,0.18987
2706.03,0.19241
2700.24,0.19581
2694.46,0.19870
2688.67,0.20154
2682.88,0.20415
2677.1,0.20645
2671.31,0.20905
2665.53,0.21050
2659.74,0.21227
2653.95,0.21427
2648.17,0.21575
2642.38,0.21797
2636.59,0.22026
2630.81,0.22268
2625.02,0.22505
2619.24,0.22777
2613.45,0.22949
2607.66,0.23134
2601.88,0.23354
2596.09,0.23460
2590.3,0.23655
2584.52,0.23775
2578.73,0.23908
2572.95,0.24009
2567.16,0.24043
2561.37,0.24067
2555.59,0.24110
2549.8,0.24136
2544.02,0.24216
2538.23,0.24273
2532.44,0.24463
2526.66,0.24649
2520.87,0.24789
2515.08,0.24983
2509.3,0.25227
2503.51,0.25514
2497.73,0.25826
2491.94,0.26109
2486.15,0.26394
2480.37,0.26646
2474.58,0.26914
2468.79,0.27127
2463.01,0.27366
2457.22,0.27551
2451.44,0.27798
2445.65,0.28123
2439.86,0.28393
2434.08,0.28705
2428.29,0.29000
2422.5,0.29362
2416.72,0.29681
2410.93,0.30006
2405.15,0.30286
2399.36,0.30602
2393.57,0.30901
2387.79,0.31170
2382,0.31409
2376.21,0.31709
2370.43,0.31964
2364.64,0.32113
2358.86,0.32295
2353.07,0.32461
2347.28,0.32628
2341.5,0.32794
2335.71,0.32927
2329.92,0.33012
2324.14,0.33067
2318.35,0.33135
2312.57,0.33123
2306.78,0.33064
2300.99,0.32977
2295.21,0.32886
2289.42,0.32832
2283.63,0.32760
2277.85,0.32637
2272.06,0.32453
2266.28,0.32254
2260.49,0.32047
2254.7,0.31887
2248.92,0.31769
2243.13,0.31669
2237.34,0.31546
2231.56,0.31478
2225.77,0.31428
2219.99,0.31394
2214.2,0.31361
2208.41,0.31273
2202.63,0.31081
2196.84,0.30854
2191.05,0.30513
2185.27,0.30179
2179.48,0.29817
2173.7,0.29427
2167.91,0.29097
2162.12,0.28822
2156.34,0.28579
2150.55,0.28422
2144.76,0.28238
2138.98,0.28160
2133.19,0.28128
2127.41,0.28189
2121.62,0.28266
2115.83,0.28369
2110.05,0.28492
2104.26,0.28645
2098.47,0.28791
2092.69,0.28866
2086.9,0.28918
2081.12,0.28844
2075.33,0.28706
2069.54,0.28539
2063.76,0.28441
2057.97,0.28377
2052.19,0.28397
2046.4,0.28542
2040.61,0.28736
2034.83,0.29016
2029.04,0.29364
2023.25,0.29725
2017.47,0.30163
2011.68,0.30468
2005.9,0.30739
2000.11,0.30958
1994.32,0.31209
1988.54,0.31445
1982.75,0.31658
1976.96,0.31865
1971.18,0.32060
1965.39,0.32290
1959.61,0.32567
1953.82,0.32880
1948.03,0.33252
1942.25,0.33577
1936.46,0.33884
1930.67,0.34102
1924.89,0.34256
1919.1,0.34342
1913.32,0.34440
1907.53,0.34436
1901.74,0.34429
1895.96,0.34335
1890.17,0.34311
1884.38,0.34271
1878.6,0.34224
1872.81,0.34192
1867.03,0.34146
1861.24,0.34023
1855.45,0.33911
1849.67,0.33741
1843.88,0.33520
1838.09,0.33261
1832.31,0.33043
1826.52,0.32733
1820.74,0.32336
1814.95,0.31891
1809.16,0.31375
1803.38,0.30785
1797.59,0.30022
1791.8,0.29101
1786.02,0.27900
1780.23,0.26223
1774.45,0.24098
1768.66,0.21048
1762.87,0.17953
1757.09,0.15026
1751.3,0.12986
1745.51,0.11775
1739.73,0.11316
1733.94,0.11461
1728.16,0.11995
1722.37,0.12793
1716.58,0.13942
1710.8,0.15172
1705.01,0.16162
1699.22,0.16539
1693.44,0.16221
1687.65,0.15604
1681.87,0.14343
1676.08,0.13097
1670.29,0.11772
1664.51,0.10984
1658.72,0.10804
1652.93,0.11100
1647.15,0.11223
1641.36,0.11158
1635.58,0.11155
1629.79,0.11161
1624,0.11182
1618.22,0.10948
1612.43,0.10503
1606.64,0.10118
1600.86,0.10090
1595.07,0.10127
1589.29,0.10453
1583.5,0.11377
1577.71,0.12884
1571.93,0.14906
1566.14,0.16489
1560.35,0.17333
1554.57,0.17560
1548.78,0.17463
1543,0.17054
1537.21,0.15966
1531.42,0.14172
1525.64,0.11615
1519.85,0.08486
1514.07,0.06785
1508.28,0.06725
1502.49,0.07569
1496.71,0.08721
1490.92,0.09376
1485.13,0.09293
1479.35,0.08670
1473.56,0.07733
1467.78,0.06776
1461.99,0.06623
1456.2,0.06587
1450.42,0.06528
1444.63,0.06739
1438.84,0.06570
1433.06,0.06137
1427.27,0.06042
1421.49,0.06238
1415.7,0.06633
1409.91,0.06926
1404.13,0.07056
1398.34,0.07048
1392.55,0.06751
1386.77,0.06294
1380.98,0.05843
1375.2,0.05739
1369.41,0.05822
1363.62,0.06073
1357.84,0.06286
1352.05,0.06431
1346.26,0.06363
1340.48,0.06196
1334.69,0.06109
1328.91,0.06071
1323.12,0.05994
1317.33,0.06004
1311.55,0.06207
1305.76,0.06305
1299.97,0.06318
1294.19,0.06154
1288.4,0.05811
1282.62,0.05447
1276.83,0.05255
1271.04,0.05145
1265.26,0.05276
1259.47,0.05465
1253.68,0.05612
1247.9,0.05746
1242.11,0.05705
1236.33,0.05579
1230.54,0.05608
1224.75,0.05664
1218.97,0.05730
1213.18,0.05778
1207.39,0.05722
1201.61,0.05850
1195.82,0.05969
1190.04,0.05740
1184.25,0.05380
1178.46,0.04797
1172.68,0.04457
1166.89,0.04606
1161.1,0.04882
1155.32,0.04948
1149.53,0.04854
1143.75,0.04617
1137.96,0.04420
1132.17,0.04239
1126.39,0.04197
1120.6,0.04374
1114.81,0.04491
1109.03,0.04811
1103.24,0.04914
1097.46,0.04840
1091.67,0.04776
1085.88,0.04945
1080.1,0.05309
1074.31,0.05730
1068.52,0.06381
1062.74,0.07067
1056.95,0.07632
1051.17,0.07561
1045.38,0.07327
1039.59,0.07530
1033.81,0.08100
1028.02,0.08399
1022.24,0.08530
1016.45,0.08752
1010.66,0.08897
1004.88,0.08926
999.09,0.09171
993.304,0.09440
987.518,0.09928
981.731,0.10670
975.945,0.11185
970.159,0.11337
964.373,0.11619
958.586,0.12032
952.8,0.12563
947.014,0.12890
941.228,0.13057
935.441,0.13427
929.655,0.13658
923.869,0.13770
918.083,0.13580
912.297,0.13038
906.51,0.12262
900.724,0.11560
894.938,0.11576
889.152,0.12171
883.365,0.12590
877.579,0.12672
871.793,0.12794
866.007,0.12929
860.22,0.13111
854.434,0.13483
848.648,0.13915
842.862,0.14124
837.075,0.13872
831.289,0.13496
825.503,0.13095
819.717,0.12505
813.931,0.11985
808.144,0.11851
802.358,0.12028
796.572,0.12331
790.786,0.12445
784.999,0.12139
779.213,0.11962
773.427,0.11646
767.641,0.11528
761.854,0.11356
756.068,0.11214
750.282,0.11045
744.496,0.10760
738.709,0.10548
732.923,0.10231
727.137,0.09951
721.351,0.09782
715.565,0.09546
709.778,0.09436
703.992,0.09286
698.206,0.09174
692.42,0.08896
686.633,0.08799
680.847,0.08518
675.061,0.08222
669.275,0.08089
663.488,0.08193
657.702,0.08278
651.916,0.08292
646.13,0.08179
640.343,0.07989
634.557,0.07644
628.771,0.07550
622.985,0.07675
617.198,0.07702
611.412,0.07938
605.626,0.08063
599.84,0.08271