File: 01_Data/Wood_Stud/FTIR/IS/Wood_Stud_IS_S_221031_R3.dpt
7497.03,0.83880
7491.25,0.86161
7485.46,0.84878
7479.67,0.84280
7473.89,0.83762
7468.1,0.82520
7462.32,0.83035
7456.53,0.84653
7450.74,0.83677
7444.96,0.83530
7439.17,0.83363
7433.38,0.82234
7427.6,0.81552
7421.81,0.82207
7416.03,0.80423
7410.24,0.81433
7404.45,0.80695
7398.67,0.80600
7392.88,0.81416
7387.09,0.81156
7381.31,0.81208
7375.52,0.81004
7369.74,0.80191
7363.95,0.78858
7358.16,0.79636
7352.38,0.80189
7346.59,0.80095
7340.8,0.80324
7335.02,0.80277
7329.23,0.78945
7323.45,0.78926
7317.66,0.77959
7311.87,0.79901
7306.09,0.78726
7300.3,0.79443
7294.51,0.77936
7288.73,0.77829
7282.94,0.77951
7277.16,0.77244
7271.37,0.77864
7265.58,0.78532
7259.8,0.78945
7254.01,0.78262
7248.22,0.78459
7242.44,0.77499
7236.65,0.78118
7230.87,0.77546
7225.08,0.78086
7219.29,0.77805
7213.51,0.78044
7207.72,0.77486
7201.93,0.76877
7196.15,0.78076
7190.36,0.77571
7184.58,0.76742
7178.79,0.76351
7173,0.75775
7167.22,0.76706
7161.43,0.75460
7155.65,0.75952
7149.86,0.74734
7144.07,0.73863
7138.29,0.74248
7132.5,0.74269
7126.71,0.73774
7120.93,0.72963
7115.14,0.72674
7109.36,0.72631
7103.57,0.71840
7097.78,0.71418
7092,0.71364
7086.21,0.71660
7080.42,0.70161
7074.64,0.70817
7068.85,0.69919
7063.07,0.69638
7057.28,0.67943
7051.49,0.67610
7045.71,0.67791
7039.92,0.67065
7034.13,0.66538
7028.35,0.67219
7022.56,0.65929
7016.78,0.65555
7010.99,0.65309
7005.2,0.64922
6999.42,0.64023
6993.63,0.64228
6987.84,0.64112
6982.06,0.63888
6976.27,0.63836
6970.49,0.64105
6964.7,0.63005
6958.91,0.62906
6953.13,0.63195
6947.34,0.63061
6941.55,0.63638
6935.77,0.62856
6929.98,0.62336
6924.2,0.62493
6918.41,0.62752
6912.62,0.62104
6906.84,0.62829
6901.05,0.62420
6895.26,0.62624
6889.48,0.63044
6883.69,0.63016
6877.91,0.63033
6872.12,0.62814
6866.33,0.62663
6860.55,0.63044
6854.76,0.63387
6848.97,0.62203
6843.19,0.62538
6837.4,0.62569
6831.62,0.62628
6825.83,0.62546
6820.04,0.62910
6814.26,0.62179
6808.47,0.62782
6802.68,0.62458
6796.9,0.62067
6791.11,0.61799
6785.33,0.62749
6779.54,0.62632
6773.75,0.62709
6767.97,0.63026
6762.18,0.62190
6756.39,0.63022
6750.61,0.62570
6744.82,0.62943
6739.04,0.62487
6733.25,0.62670
6727.46,0.63202
6721.68,0.63089
6715.89,0.62762
6710.1,0.62979
6704.32,0.63128
6698.53,0.63126
6692.75,0.63356
6686.96,0.62806
6681.17,0.63554
6675.39,0.63433
6669.6,0.63320
6663.82,0.63622
6658.03,0.63478
6652.24,0.63630
6646.46,0.63517
6640.67,0.64191
6634.88,0.63758
6629.1,0.63977
6623.31,0.64586
6617.53,0.64595
6611.74,0.64446
6605.95,0.64502
6600.17,0.64703
6594.38,0.65395
6588.59,0.64633
6582.81,0.65435
6577.02,0.65105
6571.24,0.65033
6565.45,0.64874
6559.66,0.64756
6553.88,0.65003
6548.09,0.65929
6542.3,0.65232
6536.52,0.64932
6530.73,0.65510
6524.95,0.65637
6519.16,0.65530
6513.37,0.65036
6507.59,0.65154
6501.8,0.65729
6496.01,0.65391
6490.23,0.65147
6484.44,0.65494
6478.66,0.65707
6472.87,0.66602
6467.08,0.66030
6461.3,0.65489
6455.51,0.65937
6449.72,0.66189
6443.94,0.65539
6438.15,0.66089
6432.37,0.66603
6426.58,0.66353
6420.79,0.65784
6415.01,0.66142
6409.22,0.66326
6403.43,0.66178
6397.65,0.66320
6391.86,0.66030
6386.08,0.66509
6380.29,0.66192
6374.5,0.66344
6368.72,0.66584
6362.93,0.66469
6357.14,0.66624
6351.36,0.66458
6345.57,0.66180
6339.79,0.66740
6334,0.66426
6328.21,0.66557
6322.43,0.66719
6316.64,0.66704
6310.85,0.66865
6305.07,0.66848
6299.28,0.67365
6293.5,0.67364
6287.71,0.67143
6281.92,0.67392
6276.14,0.67637
6270.35,0.67356
6264.56,0.67566
6258.78,0.67987
6252.99,0.68004
6247.21,0.68407
6241.42,0.68355
6235.63,0.68496
6229.85,0.68298
6224.06,0.68945
6218.27,0.69125
6212.49,0.69544
6206.7,0.69309
6200.92,0.69472
6195.13,0.69485
6189.34,0.69763
6183.56,0.69881
6177.77,0.70258
6171.98,0.70236
6166.2,0.70250
6160.41,0.70562
6154.63,0.70303
6148.84,0.70477
6143.05,0.70665
6137.27,0.70593
6131.48,0.71140
6125.7,0.71035
6119.91,0.71202
6114.12,0.71507
6108.34,0.71355
6102.55,0.71438
6096.76,0.71187
6090.98,0.71176
6085.19,0.71452
6079.41,0.71607
6073.62,0.71593
6067.83,0.71342
6062.05,0.71546
6056.26,0.71476
6050.47,0.71118
6044.69,0.71113
6038.9,0.70904
6033.12,0.71053
6027.33,0.70694
6021.54,0.70514
6015.76,0.70951
6009.97,0.70573
6004.18,0.70337
5998.4,0.70109
5992.61,0.70009
5986.83,0.70140
5981.04,0.69718
5975.25,0.69628
5969.47,0.69707
5963.68,0.69691
5957.89,0.69558
5952.11,0.69764
5946.32,0.70173
5940.54,0.70124
5934.75,0.70171
5928.96,0.69998
5923.18,0.69769
5917.39,0.69838
5911.6,0.69571
5905.82,0.69525
5900.03,0.69565
5894.25,0.69418
5888.46,0.69561
5882.67,0.69249
5876.89,0.69270
5871.1,0.69109
5865.31,0.69132
5859.53,0.69119
5853.74,0.69268
5847.96,0.68930
5842.17,0.68836
5836.38,0.68959
5830.6,0.68944
5824.81,0.68708
5819.02,0.68600
5813.24,0.68745
5807.45,0.68659
5801.67,0.68603
5795.88,0.68470
5790.09,0.68515
5784.31,0.68517
5778.52,0.68404
5772.73,0.68569
5766.95,0.68827
5761.16,0.68762
5755.38,0.68790
5749.59,0.68878
5743.8,0.68772
5738.02,0.68779
5732.23,0.68800
5726.44,0.69212
5720.66,0.68998
5714.87,0.68916
5709.09,0.68964
5703.3,0.68800
5697.51,0.68722
5691.73,0.68747
5685.94,0.68783
5680.15,0.68738
5674.37,0.68600
5668.58,0.68547
5662.8,0.68332
5657.01,0.68400
5651.22,0.68330
5645.44,0.68609
5639.65,0.68265
5633.87,0.68243
5628.08,0.68359
5622.29,0.68358
5616.51,0.68342
5610.72,0.68495
5604.93,0.68166
5599.15,0.68186
5593.36,0.68266
5587.58,0.68292
5581.79,0.68507
5576,0.68406
5570.22,0.68553
5564.43,0.68599
5558.64,0.68465
5552.86,0.68641
5547.07,0.68645
5541.29,0.68820
5535.5,0.68675
5529.71,0.68911
5523.93,0.68750
5518.14,0.68751
5512.35,0.68978
5506.57,0.69034
5500.78,0.68975
5495,0.69092
5489.21,0.69096
5483.42,0.69222
5477.64,0.69140
5471.85,0.69142
5466.06,0.69209
5460.28,0.69242
5454.49,0.69329
5448.71,0.69559
5442.92,0.69820
5437.13,0.69769
5431.35,0.69728
5425.56,0.69948
5419.77,0.70204
5413.99,0.69943
5408.2,0.70232
5402.42,0.70238
5396.63,0.70468
5390.84,0.70424
5385.06,0.70411
5379.27,0.70283
5373.48,0.70428
5367.7,0.70216
5361.91,0.70193
5356.13,0.70235
5350.34,0.70149
5344.55,0.69959
5338.77,0.69630
5332.98,0.69425
5327.19,0.69298
5321.41,0.68632
5315.62,0.68265
5309.84,0.67728
5304.05,0.67162
5298.26,0.66405
5292.48,0.65625
5286.69,0.64623
5280.9,0.63558
5275.12,0.62484
5269.33,0.61453
5263.55,0.60214
5257.76,0.59192
5251.97,0.58220
5246.19,0.57270
5240.4,0.56388
5234.61,0.55597
5228.83,0.55289
5223.04,0.54600
5217.26,0.54243
5211.47,0.54003
5205.68,0.53852
5199.9,0.53429
5194.11,0.53375
5188.32,0.53472
5182.54,0.53399
5176.75,0.53478
5170.97,0.53883
5165.18,0.53996
5159.39,0.54210
5153.61,0.54487
5147.82,0.54937
5142.03,0.55117
5136.25,0.55434
5130.46,0.55816
5124.68,0.56016
5118.89,0.56437
5113.1,0.56795
5107.32,0.57293
5101.53,0.57323
5095.75,0.57656
5089.96,0.57822
5084.17,0.58266
5078.39,0.58533
5072.6,0.58852
5066.81,0.59036
5061.03,0.59343
5055.24,0.59722
5049.46,0.59868
5043.67,0.60025
5037.88,0.60271
5032.1,0.60486
5026.31,0.60747
5020.52,0.60900
5014.74,0.60995
5008.95,0.61123
5003.17,0.61266
4997.38,0.61296
4991.59,0.61213
4985.81,0.61271
4980.02,0.61119
4974.23,0.60931
4968.45,0.60691
4962.66,0.60423
4956.88,0.60446
4951.09,0.59910
4945.3,0.59537
4939.52,0.59118
4933.73,0.58721
4927.94,0.58396
4922.16,0.57805
4916.37,0.57065
4910.59,0.56751
4904.8,0.56388
4899.01,0.55733
4893.23,0.55399
4887.44,0.54920
4881.65,0.54393
4875.87,0.53911
4870.08,0.53401
4864.3,0.53110
4858.51,0.52688
4852.72,0.52370
4846.94,0.51881
4841.15,0.51583
4835.36,0.51215
4829.58,0.50919
4823.79,0.50585
4818.01,0.50308
4812.22,0.50106
4806.43,0.49840
4800.65,0.49818
4794.86,0.49628
4789.07,0.49576
4783.29,0.49405
4777.5,0.49425
4771.72,0.49388
4765.93,0.49329
4760.14,0.49385
4754.36,0.49298
4748.57,0.49277
4742.78,0.49404
4737,0.49368
4731.21,0.49429
4725.43,0.49487
4719.64,0.49698
4713.85,0.49775
4708.07,0.49824
4702.28,0.49911
4696.49,0.50090
4690.71,0.50079
4684.92,0.50319
4679.14,0.50304
4673.35,0.50572
4667.56,0.50795
4661.78,0.50973
4655.99,0.51286
4650.2,0.51534
4644.42,0.51694
4638.63,0.51877
4632.85,0.52125
4627.06,0.52452
4621.27,0.52739
4615.49,0.52990
4609.7,0.53311
4603.92,0.53658
4598.13,0.54052
4592.34,0.54244
4586.56,0.54550
4580.77,0.54811
4574.98,0.54873
4569.2,0.55083
4563.41,0.55341
4557.63,0.55385
4551.84,0.55540
4546.05,0.55616
4540.27,0.55790
4534.48,0.55853
4528.69,0.55978
4522.91,0.56075
4517.12,0.56127
4511.34,0.55975
4505.55,0.55822
4499.76,0.55689
4493.98,0.55378
4488.19,0.55174
4482.4,0.54766
4476.62,0.54226
4470.83,0.53666
4465.05,0.52996
4459.26,0.52375
4453.47,0.51692
4447.69,0.50966
4441.9,0.50279
4436.11,0.49589
4430.33,0.48839
4424.54,0.48090
4418.76,0.47318
4412.97,0.46738
4407.18,0.46285
4401.4,0.45992
4395.61,0.45827
4389.82,0.45946
4384.04,0.46120
4378.25,0.46411
4372.47,0.46540
4366.68,0.46797
4360.89,0.47017
4355.11,0.47076
4349.32,0.47022
4343.53,0.46920
4337.75,0.46744
4331.96,0.46654
4326.18,0.46393
4320.39,0.46079
4314.6,0.45820
4308.82,0.45653
4303.03,0.45406
4297.24,0.45088
4291.46,0.44872
4285.67,0.44755
4279.89,0.44689
4274.1,0.44725
4268.31,0.44790
4262.53,0.44926
4256.74,0.45065
4250.95,0.45240
4245.17,0.45248
4239.38,0.45287
4233.6,0.45260
4227.81,0.45346
4222.02,0.45262
4216.24,0.45206
4210.45,0.45202
4204.66,0.45309
4198.88,0.45355
4193.09,0.45350
4187.31,0.45485
4181.52,0.45522
4175.73,0.45611
4169.95,0.45841
4164.16,0.45994
4158.37,0.45859
4152.59,0.45816
4146.8,0.45644
4141.02,0.45416
4135.23,0.45183
4129.44,0.44823
4123.66,0.44377
4117.87,0.43917
4112.09,0.43467
4106.3,0.42984
4100.51,0.42419
4094.73,0.41901
4088.94,0.41303
4083.15,0.40736
4077.37,0.40243
4071.58,0.39677
4065.8,0.38997
4060.01,0.38495
4054.22,0.37884
4048.44,0.37420
4042.65,0.36959
4036.86,0.36568
4031.08,0.36172
4025.29,0.35920
4019.51,0.35710
4013.72,0.35630
4007.93,0.35665
4002.15,0.35716
3996.36,0.35879
3990.57,0.36015
3984.79,0.36204
3979,0.36289
3973.22,0.36383
3967.43,0.36657
3961.64,0.36894
3955.86,0.37187
3950.07,0.37435
3944.28,0.37763
3938.5,0.38070
3932.71,0.38355
3926.93,0.38694
3921.14,0.38874
3915.35,0.39187
3909.57,0.39461
3903.78,0.39740
3897.99,0.39977
3892.21,0.40209
3886.42,0.40328
3880.64,0.40599
3874.85,0.40815
3869.06,0.41037
3863.28,0.41281
3857.49,0.41512
3851.7,0.41865
3845.92,0.42057
3840.13,0.42258
3834.35,0.42470
3828.56,0.42513
3822.77,0.42529
3816.99,0.42566
3811.2,0.42465
3805.41,0.42531
3799.63,0.42471
3793.84,0.42443
3788.06,0.42315
3782.27,0.42244
3776.48,0.42082
3770.7,0.41973
3764.91,0.41756
3759.12,0.41537
3753.34,0.41322
3747.55,0.41071
3741.77,0.40653
3735.98,0.40290
3730.19,0.39846
3724.41,0.39277
3718.62,0.38581
3712.83,0.37902
3707.05,0.36994
3701.26,0.35974
3695.48,0.34687
3689.69,0.33209
3683.9,0.31365
3678.12,0.29636
3672.33,0.27338
3666.54,0.25096
3660.76,0.23159
3654.97,0.21309
3649.19,0.19610
3643.4,0.18027
3637.61,0.16793
3631.83,0.15684
3626.04,0.14514
3620.25,0.13680
3614.47,0.12713
3608.68,0.11812
3602.9,0.11080
3597.11,0.10364
3591.32,0.09654
3585.54,0.09102
3579.75,0.08603
3573.97,0.08210
3568.18,0.07871
3562.39,0.07460
3556.61,0.07133
3550.82,0.06799
3545.03,0.06598
3539.25,0.06389
3533.46,0.06174
3527.68,0.05990
3521.89,0.05780
3516.1,0.05672
3510.32,0.05564
3504.53,0.05406
3498.74,0.05281
3492.96,0.05216
3487.17,0.05164
3481.39,0.05014
3475.6,0.04930
3469.81,0.04951
3464.03,0.04858
3458.24,0.04854
3452.45,0.04825
3446.67,0.04761
3440.88,0.04828
3435.1,0.04824
3429.31,0.04818
3423.52,0.04865
3417.74,0.04879
3411.95,0.04837
3406.16,0.04921
3400.38,0.04898
3394.59,0.04868
3388.81,0.04890
3383.02,0.04931
3377.23,0.04987
3371.45,0.05026
3365.66,0.05024
3359.87,0.05097
3354.09,0.05110
3348.3,0.05112
3342.52,0.05294
3336.73,0.05343
3330.94,0.05530
3325.16,0.05592
3319.37,0.05653
3313.58,0.05744
3307.8,0.05801
3302.01,0.05851
3296.23,0.05981
3290.44,0.06018
3284.65,0.06101
3278.87,0.06229
3273.08,0.06375
3267.29,0.06530
3261.51,0.06619
3255.72,0.06742
3249.94,0.06907
3244.15,0.07047
3238.36,0.07180
3232.58,0.07386
3226.79,0.07542
3221,0.07846
3215.22,0.08000
3209.43,0.08153
3203.65,0.08317
3197.86,0.08496
3192.07,0.08736
3186.29,0.08966
3180.5,0.09186
3174.71,0.09449
3168.93,0.09744
3163.14,0.10000
3157.36,0.10258
3151.57,0.10524
3145.78,0.10726
3140,0.11020
3134.21,0.11261
3128.42,0.11611
3122.64,0.11823
3116.85,0.12102
3111.07,0.12394
3105.28,0.12668
3099.49,0.12898
3093.71,0.13195
3087.92,0.13430
3082.14,0.13603
3076.35,0.13819
3070.56,0.14064
3064.78,0.14333
3058.99,0.14530
3053.2,0.14789
3047.42,0.14989
3041.63,0.15119
3035.85,0.15320
3030.06,0.15379
3024.27,0.15396
3018.49,0.15228
3012.7,0.15008
3006.91,0.14654
3001.13,0.14391
2995.34,0.14136
2989.56,0.13779
2983.77,0.13124
2977.98,0.12286
2972.2,0.11385
2966.41,0.10678
2960.62,0.10232
2954.84,0.09820
2949.05,0.09384
2943.27,0.09022
2937.48,0.08673
2931.69,0.08695
2925.91,0.08609
2920.12,0.08541
2914.33,0.08517
2908.55,0.08555
2902.76,0.08623
2896.98,0.08688
2891.19,0.08720
2885.4,0.08910
2879.62,0.09085
2873.83,0.09240
2868.04,0.09464
2862.26,0.09881
2856.47,0.10190
2850.69,0.10561
2844.9,0.11113
2839.11,0.11769
2833.33,0.12489
2827.54,0.13325
2821.75,0.14105
2815.97,0.14822
2810.18,0.15360
2804.4,0.15865
2798.61,0.16377
2792.82,0.16734
2787.04,0.16972
2781.25,0.17222
2775.46,0.17387
2769.68,0.17495
2763.89,0.17656
2758.11,0.17771
2752.32,0.17842
2746.53,0.17946
2740.75,0.17955
2734.96,0.18037
2729.17,0.18186
2723.39,0.18358
2717.6,0.18573
2711.82,0.18829
2706.03,0.19127
2700.24,0.19436
2694.46,0.19704
2688.67,0.19963
2682.88,0.20200
2677.1,0.20502
2671.31,0.20725
2665.53,0.20887
2659.74,0.21106
2653.95,0.21263
2648.17,0.21437
2642.38,0.21674
2636.59,0.21902
2630.81,0.22131
2625.02,0.22404
2619.24,0.22604
2613.45,0.22767
2607.66,0.22975
2601.88,0.23173
2596.09,0.23344
2590.3,0.23476
2584.52,0.23638
2578.73,0.23759
2572.95,0.23842
2567.16,0.23875
2561.37,0.23927
2555.59,0.23988
2549.8,0.24005
2544.02,0.24046
2538.23,0.24157
2532.44,0.24287
2526.66,0.24484
2520.87,0.24652
2515.08,0.24799
2509.3,0.25087
2503.51,0.25351
2497.73,0.25706
2491.94,0.26013
2486.15,0.26256
2480.37,0.26508
2474.58,0.26727
2468.79,0.26976
2463.01,0.27187
2457.22,0.27411
2451.44,0.27652
2445.65,0.27942
2439.86,0.28205
2434.08,0.28484
2428.29,0.28829
2422.5,0.29177
2416.72,0.29515
2410.93,0.29810
2405.15,0.30155
2399.36,0.30463
2393.57,0.30702
2387.79,0.30935
2382,0.31204
2376.21,0.31489
2370.43,0.31683
2364.64,0.31889
2358.86,0.32084
2353.07,0.32215
2347.28,0.32412
2341.5,0.32498
2335.71,0.32593
2329.92,0.32695
2324.14,0.32762
2318.35,0.32826
2312.57,0.32835
2306.78,0.32762
2300.99,0.32678
2295.21,0.32563
2289.42,0.32485
2283.63,0.32413
2277.85,0.32283
2272.06,0.32130
2266.28,0.31889
2260.49,0.31673
2254.7,0.31520
2248.92,0.31412
2243.13,0.31282
2237.34,0.31228
2231.56,0.31060
2225.77,0.31023
2219.99,0.31021
2214.2,0.30988
2208.41,0.30832
2202.63,0.30648
2196.84,0.30421
2191.05,0.30157
2185.27,0.29825
2179.48,0.29413
2173.7,0.29027
2167.91,0.28688
2162.12,0.28420
2156.34,0.28200
2150.55,0.28046
2144.76,0.27893
2138.98,0.27745
2133.19,0.27727
2127.41,0.27793
2121.62,0.27873
2115.83,0.27967
2110.05,0.28086
2104.26,0.28262
2098.47,0.28349
2092.69,0.28451
2086.9,0.28475
2081.12,0.28416
2075.33,0.28296
2069.54,0.28162
2063.76,0.28061
2057.97,0.27999
2052.19,0.28023
2046.4,0.28165
2040.61,0.28375
2034.83,0.28665
2029.04,0.28984
2023.25,0.29371
2017.47,0.29756
2011.68,0.30040
2005.9,0.30329
2000.11,0.30541
1994.32,0.30788
1988.54,0.31037
1982.75,0.31257
1976.96,0.31485
1971.18,0.31664
1965.39,0.31857
1959.61,0.32157
1953.82,0.32487
1948.03,0.32842
1942.25,0.33190
1936.46,0.33456
1930.67,0.33687
1924.89,0.33843
1919.1,0.33952
1913.32,0.34011
1907.53,0.34036
1901.74,0.34024
1895.96,0.33985
1890.17,0.33928
1884.38,0.33882
1878.6,0.33880
1872.81,0.33797
1867.03,0.33735
1861.24,0.33658
1855.45,0.33530
1849.67,0.33363
1843.88,0.33152
1838.09,0.32896
1832.31,0.32635
1826.52,0.32353
1820.74,0.31982
1814.95,0.31571
1809.16,0.31050
1803.38,0.30422
1797.59,0.29719
1791.8,0.28831
1786.02,0.27623
1780.23,0.26044
1774.45,0.24006
1768.66,0.21021
1762.87,0.17964
1757.09,0.14983
1751.3,0.12947
1745.51,0.11744
1739.73,0.11318
1733.94,0.11440
1728.16,0.11883
1722.37,0.12630
1716.58,0.13786
1710.8,0.15001
1705.01,0.15897
1699.22,0.16271
1693.44,0.15957
1687.65,0.15265
1681.87,0.14120
1676.08,0.12825
1670.29,0.11587
1664.51,0.10763
1658.72,0.10544
1652.93,0.10780
1647.15,0.10940
1641.36,0.10877
1635.58,0.10867
1629.79,0.10923
1624,0.10926
1618.22,0.10767
1612.43,0.10343
1606.64,0.09955
1600.86,0.09989
1595.07,0.10053
1589.29,0.10346
1583.5,0.11286
1577.71,0.12803
1571.93,0.14767
1566.14,0.16310
1560.35,0.17108
1554.57,0.17402
1548.78,0.17274
1543,0.16824
1537.21,0.15797
1531.42,0.14029
1525.64,0.11504
1519.85,0.08504
1514.07,0.06781
1508.28,0.06746
1502.49,0.07611
1496.71,0.08772
1490.92,0.09396
1485.13,0.09267
1479.35,0.08664
1473.56,0.07715
1467.78,0.06768
1461.99,0.06603
1456.2,0.06557
1450.42,0.06525
1444.63,0.06716
1438.84,0.06562
1433.06,0.06147
1427.27,0.06022
1421.49,0.06260
1415.7,0.06631
1409.91,0.06906
1404.13,0.07060
1398.34,0.07033
1392.55,0.06729
1386.77,0.06302
1380.98,0.05843
1375.2,0.05750
1369.41,0.05828
1363.62,0.06092
1357.84,0.06287
1352.05,0.06413
1346.26,0.06396
1340.48,0.06221
1334.69,0.06123
1328.91,0.06113
1323.12,0.06015
1317.33,0.05990
1311.55,0.06192
1305.76,0.06292
1299.97,0.06299
1294.19,0.06100
1288.4,0.05776
1282.62,0.05438
1276.83,0.05260
1271.04,0.05162
1265.26,0.05252
1259.47,0.05453
1253.68,0.05614
1247.9,0.05692
1242.11,0.05714
1236.33,0.05632
1230.54,0.05618
1224.75,0.05679
1218.97,0.05714
1213.18,0.05712
1207.39,0.05750
1201.61,0.05861
1195.82,0.05897
1190.04,0.05731
1184.25,0.05337
1178.46,0.04848
1172.68,0.04452
1166.89,0.04592
1161.1,0.04932
1155.32,0.04959
1149.53,0.04881
1143.75,0.04672
1137.96,0.04437
1132.17,0.04220
1126.39,0.04254
1120.6,0.04391
1114.81,0.04514
1109.03,0.04802
1103.24,0.04897
1097.46,0.04779
1091.67,0.04827
1085.88,0.04915
1080.1,0.05202
1074.31,0.05717
1068.52,0.06333
1062.74,0.07111
1056.95,0.07614
1051.17,0.07600
1045.38,0.07340
1039.59,0.07547
1033.81,0.08110
1028.02,0.08376
1022.24,0.08529
1016.45,0.08787
1010.66,0.08896
1004.88,0.08968
999.09,0.09127
993.304,0.09400
987.518,0.09925
981.731,0.10609
975.945,0.11142
970.159,0.11308
964.373,0.11552
958.586,0.11962
952.8,0.12525
947.014,0.12816
941.228,0.13024
935.441,0.13267
929.655,0.13550
923.869,0.13658
918.083,0.13433
912.297,0.12925
906.51,0.12213
900.724,0.11511
894.938,0.11574
889.152,0.11992
883.365,0.12488
877.579,0.12591
871.793,0.12733
866.007,0.12805
860.22,0.12972
854.434,0.13348
848.648,0.13726
842.862,0.13954
837.075,0.13683
831.289,0.13314
825.503,0.12907
819.717,0.12300
813.931,0.11798
808.144,0.11718
802.358,0.11909
796.572,0.12171
790.786,0.12160
784.999,0.12035
779.213,0.11643
773.427,0.11457
767.641,0.11292
761.854,0.11188
756.068,0.10994
750.282,0.10833
744.496,0.10620
738.709,0.10397
732.923,0.10126
727.137,0.09811
721.351,0.09599
715.565,0.09463
709.778,0.09268
703.992,0.09139
698.206,0.09007
692.42,0.08786
686.633,0.08604
680.847,0.08306
675.061,0.08136
669.275,0.08087
663.488,0.08072
657.702,0.08123
651.916,0.08067
646.13,0.08067
640.343,0.07941
634.557,0.07695
628.771,0.07653
622.985,0.07514
617.198,0.07676
611.412,0.07624
605.626,0.07787
599.84,0.07941