File: 01_Data/Wood_Stud/FTIR/IS/Wood_Stud_IS_S_221031_R4.dpt
7497.03,0.84533
7491.25,0.84250
7485.46,0.85034
7479.67,0.84367
7473.89,0.84725
7468.1,0.83826
7462.32,0.81750
7456.53,0.83039
7450.74,0.82587
7444.96,0.83022
7439.17,0.82038
7433.38,0.81209
7427.6,0.82904
7421.81,0.82476
7416.03,0.81767
7410.24,0.81768
7404.45,0.82588
7398.67,0.81227
7392.88,0.80434
7387.09,0.80814
7381.31,0.81087
7375.52,0.80791
7369.74,0.80227
7363.95,0.80324
7358.16,0.81208
7352.38,0.80776
7346.59,0.79943
7340.8,0.80631
7335.02,0.78929
7329.23,0.78836
7323.45,0.79126
7317.66,0.78728
7311.87,0.78539
7306.09,0.78494
7300.3,0.79488
7294.51,0.79084
7288.73,0.79283
7282.94,0.78414
7277.16,0.78552
7271.37,0.78248
7265.58,0.78584
7259.8,0.78444
7254.01,0.79030
7248.22,0.77004
7242.44,0.77271
7236.65,0.78015
7230.87,0.77815
7225.08,0.78344
7219.29,0.78307
7213.51,0.78293
7207.72,0.77232
7201.93,0.77725
7196.15,0.77353
7190.36,0.77696
7184.58,0.76558
7178.79,0.76729
7173,0.76847
7167.22,0.75498
7161.43,0.75367
7155.65,0.75455
7149.86,0.75332
7144.07,0.74781
7138.29,0.74764
7132.5,0.74354
7126.71,0.74170
7120.93,0.73266
7115.14,0.72737
7109.36,0.71614
7103.57,0.72161
7097.78,0.72125
7092,0.71617
7086.21,0.70544
7080.42,0.69504
7074.64,0.69306
7068.85,0.69724
7063.07,0.69188
7057.28,0.68976
7051.49,0.68607
7045.71,0.67704
7039.92,0.66897
7034.13,0.66802
7028.35,0.66465
7022.56,0.65675
7016.78,0.65410
7010.99,0.65239
7005.2,0.64555
6999.42,0.64080
6993.63,0.64325
6987.84,0.64533
6982.06,0.63912
6976.27,0.63745
6970.49,0.63592
6964.7,0.64140
6958.91,0.63191
6953.13,0.63552
6947.34,0.63044
6941.55,0.63356
6935.77,0.63149
6929.98,0.63179
6924.2,0.62907
6918.41,0.62952
6912.62,0.63269
6906.84,0.62701
6901.05,0.62489
6895.26,0.62715
6889.48,0.62600
6883.69,0.62497
6877.91,0.61967
6872.12,0.62541
6866.33,0.62619
6860.55,0.63038
6854.76,0.62851
6848.97,0.62692
6843.19,0.62363
6837.4,0.62561
6831.62,0.62352
6825.83,0.62333
6820.04,0.62254
6814.26,0.62971
6808.47,0.62954
6802.68,0.62353
6796.9,0.62645
6791.11,0.62541
6785.33,0.62433
6779.54,0.62118
6773.75,0.62372
6767.97,0.62954
6762.18,0.62222
6756.39,0.62647
6750.61,0.62926
6744.82,0.62872
6739.04,0.62264
6733.25,0.62489
6727.46,0.63411
6721.68,0.63362
6715.89,0.63329
6710.1,0.63715
6704.32,0.62913
6698.53,0.63588
6692.75,0.63138
6686.96,0.63749
6681.17,0.63248
6675.39,0.64000
6669.6,0.63466
6663.82,0.63669
6658.03,0.63588
6652.24,0.63781
6646.46,0.64107
6640.67,0.64011
6634.88,0.63894
6629.1,0.64076
6623.31,0.64069
6617.53,0.64373
6611.74,0.64782
6605.95,0.65044
6600.17,0.65138
6594.38,0.64805
6588.59,0.64840
6582.81,0.64942
6577.02,0.64742
6571.24,0.64846
6565.45,0.65171
6559.66,0.65490
6553.88,0.65369
6548.09,0.65256
6542.3,0.64985
6536.52,0.65163
6530.73,0.65678
6524.95,0.65359
6519.16,0.65733
6513.37,0.65831
6507.59,0.65775
6501.8,0.65360
6496.01,0.65857
6490.23,0.65434
6484.44,0.65696
6478.66,0.65762
6472.87,0.65711
6467.08,0.66087
6461.3,0.66384
6455.51,0.65727
6449.72,0.66065
6443.94,0.66251
6438.15,0.65981
6432.37,0.66415
6426.58,0.66185
6420.79,0.66048
6415.01,0.66257
6409.22,0.66102
6403.43,0.66001
6397.65,0.66371
6391.86,0.66170
6386.08,0.65947
6380.29,0.66141
6374.5,0.66464
6368.72,0.66239
6362.93,0.66314
6357.14,0.66272
6351.36,0.66674
6345.57,0.66993
6339.79,0.66806
6334,0.66834
6328.21,0.66921
6322.43,0.67165
6316.64,0.67169
6310.85,0.67063
6305.07,0.67202
6299.28,0.67160
6293.5,0.67335
6287.71,0.67244
6281.92,0.67591
6276.14,0.67542
6270.35,0.67809
6264.56,0.67836
6258.78,0.68164
6252.99,0.68102
6247.21,0.68224
6241.42,0.68175
6235.63,0.68300
6229.85,0.68461
6224.06,0.69029
6218.27,0.68608
6212.49,0.69257
6206.7,0.69042
6200.92,0.69341
6195.13,0.69544
6189.34,0.69976
6183.56,0.70177
6177.77,0.70054
6171.98,0.70434
6166.2,0.70301
6160.41,0.70248
6154.63,0.70081
6148.84,0.70775
6143.05,0.70775
6137.27,0.70472
6131.48,0.71089
6125.7,0.70798
6119.91,0.71265
6114.12,0.71392
6108.34,0.71147
6102.55,0.71431
6096.76,0.71601
6090.98,0.71444
6085.19,0.71856
6079.41,0.71326
6073.62,0.71186
6067.83,0.71446
6062.05,0.71441
6056.26,0.71555
6050.47,0.71229
6044.69,0.71319
6038.9,0.71244
6033.12,0.70818
6027.33,0.70903
6021.54,0.70586
6015.76,0.70409
6009.97,0.70357
6004.18,0.70241
5998.4,0.69974
5992.61,0.70040
5986.83,0.69539
5981.04,0.69886
5975.25,0.69768
5969.47,0.70053
5963.68,0.69808
5957.89,0.69767
5952.11,0.70041
5946.32,0.70077
5940.54,0.69969
5934.75,0.70268
5928.96,0.70088
5923.18,0.69725
5917.39,0.69857
5911.6,0.69738
5905.82,0.69654
5900.03,0.69692
5894.25,0.69826
5888.46,0.69635
5882.67,0.69322
5876.89,0.69142
5871.1,0.69440
5865.31,0.69299
5859.53,0.69310
5853.74,0.69178
5847.96,0.69357
5842.17,0.69097
5836.38,0.69119
5830.6,0.68926
5824.81,0.69113
5819.02,0.68763
5813.24,0.68774
5807.45,0.68700
5801.67,0.68317
5795.88,0.68662
5790.09,0.68487
5784.31,0.68354
5778.52,0.68722
5772.73,0.68763
5766.95,0.68837
5761.16,0.68956
5755.38,0.68952
5749.59,0.69087
5743.8,0.68749
5738.02,0.68898
5732.23,0.69218
5726.44,0.69142
5720.66,0.68737
5714.87,0.68666
5709.09,0.68776
5703.3,0.68729
5697.51,0.68490
5691.73,0.68633
5685.94,0.68580
5680.15,0.68597
5674.37,0.68512
5668.58,0.68210
5662.8,0.68444
5657.01,0.68457
5651.22,0.68448
5645.44,0.68401
5639.65,0.68402
5633.87,0.68266
5628.08,0.68478
5622.29,0.68623
5616.51,0.68374
5610.72,0.68317
5604.93,0.68344
5599.15,0.68374
5593.36,0.68538
5587.58,0.68652
5581.79,0.68363
5576,0.68369
5570.22,0.68533
5564.43,0.68677
5558.64,0.68537
5552.86,0.68822
5547.07,0.68812
5541.29,0.68636
5535.5,0.68728
5529.71,0.69030
5523.93,0.68869
5518.14,0.69133
5512.35,0.69036
5506.57,0.69054
5500.78,0.68805
5495,0.68828
5489.21,0.68951
5483.42,0.69223
5477.64,0.69221
5471.85,0.69231
5466.06,0.69394
5460.28,0.69328
5454.49,0.69334
5448.71,0.69456
5442.92,0.69450
5437.13,0.69827
5431.35,0.69871
5425.56,0.69933
5419.77,0.69964
5413.99,0.70070
5408.2,0.70181
5402.42,0.70363
5396.63,0.70477
5390.84,0.70565
5385.06,0.70306
5379.27,0.70518
5373.48,0.70468
5367.7,0.70331
5361.91,0.70275
5356.13,0.70092
5350.34,0.70052
5344.55,0.69946
5338.77,0.69713
5332.98,0.69591
5327.19,0.69048
5321.41,0.69030
5315.62,0.68428
5309.84,0.68011
5304.05,0.67434
5298.26,0.66510
5292.48,0.65898
5286.69,0.64739
5280.9,0.63927
5275.12,0.62861
5269.33,0.61642
5263.55,0.60477
5257.76,0.59552
5251.97,0.58467
5246.19,0.57676
5240.4,0.56796
5234.61,0.56122
5228.83,0.55529
5223.04,0.55102
5217.26,0.54737
5211.47,0.54455
5205.68,0.54137
5199.9,0.53988
5194.11,0.54077
5188.32,0.53979
5182.54,0.54003
5176.75,0.54148
5170.97,0.54185
5165.18,0.54376
5159.39,0.54626
5153.61,0.54847
5147.82,0.55210
5142.03,0.55577
5136.25,0.55762
5130.46,0.56158
5124.68,0.56622
5118.89,0.56852
5113.1,0.57150
5107.32,0.57449
5101.53,0.57812
5095.75,0.57987
5089.96,0.58252
5084.17,0.58577
5078.39,0.58936
5072.6,0.59122
5066.81,0.59353
5061.03,0.59730
5055.24,0.59928
5049.46,0.60164
5043.67,0.60522
5037.88,0.60575
5032.1,0.60853
5026.31,0.60996
5020.52,0.61250
5014.74,0.61322
5008.95,0.61471
5003.17,0.61580
4997.38,0.61477
4991.59,0.61496
4985.81,0.61707
4980.02,0.61383
4974.23,0.61152
4968.45,0.60984
4962.66,0.60756
4956.88,0.60393
4951.09,0.60059
4945.3,0.59654
4939.52,0.59216
4933.73,0.58705
4927.94,0.58318
4922.16,0.57841
4916.37,0.57318
4910.59,0.56877
4904.8,0.56381
4899.01,0.55750
4893.23,0.55404
4887.44,0.54887
4881.65,0.54488
4875.87,0.53961
4870.08,0.53567
4864.3,0.53035
4858.51,0.52711
4852.72,0.52362
4846.94,0.52045
4841.15,0.51624
4835.36,0.51198
4829.58,0.50880
4823.79,0.50592
4818.01,0.50330
4812.22,0.50219
4806.43,0.49876
4800.65,0.49747
4794.86,0.49597
4789.07,0.49572
4783.29,0.49450
4777.5,0.49498
4771.72,0.49371
4765.93,0.49311
4760.14,0.49268
4754.36,0.49198
4748.57,0.49352
4742.78,0.49338
4737,0.49335
4731.21,0.49511
4725.43,0.49611
4719.64,0.49600
4713.85,0.49740
4708.07,0.49904
4702.28,0.49820
4696.49,0.50068
4690.71,0.50170
4684.92,0.50270
4679.14,0.50400
4673.35,0.50633
4667.56,0.50778
4661.78,0.51016
4655.99,0.51335
4650.2,0.51531
4644.42,0.51654
4638.63,0.51928
4632.85,0.52151
4627.06,0.52467
4621.27,0.52859
4615.49,0.53148
4609.7,0.53424
4603.92,0.53848
4598.13,0.54033
4592.34,0.54341
4586.56,0.54525
4580.77,0.54702
4574.98,0.54851
4569.2,0.55133
4563.41,0.55290
4557.63,0.55510
4551.84,0.55615
4546.05,0.55723
4540.27,0.55762
4534.48,0.55945
4528.69,0.55992
4522.91,0.56052
4517.12,0.56054
4511.34,0.56002
4505.55,0.55796
4499.76,0.55777
4493.98,0.55485
4488.19,0.55223
4482.4,0.54759
4476.62,0.54319
4470.83,0.53708
4465.05,0.53114
4459.26,0.52318
4453.47,0.51711
4447.69,0.51056
4441.9,0.50317
4436.11,0.49662
4430.33,0.48867
4424.54,0.48154
4418.76,0.47354
4412.97,0.46736
4407.18,0.46242
4401.4,0.45964
4395.61,0.45825
4389.82,0.45955
4384.04,0.46143
4378.25,0.46355
4372.47,0.46569
4366.68,0.46907
4360.89,0.46994
4355.11,0.47058
4349.32,0.47084
4343.53,0.46964
4337.75,0.46794
4331.96,0.46540
4326.18,0.46409
4320.39,0.46132
4314.6,0.45882
4308.82,0.45643
4303.03,0.45376
4297.24,0.45079
4291.46,0.44889
4285.67,0.44797
4279.89,0.44738
4274.1,0.44732
4268.31,0.44829
4262.53,0.44975
4256.74,0.45121
4250.95,0.45217
4245.17,0.45243
4239.38,0.45274
4233.6,0.45357
4227.81,0.45355
4222.02,0.45247
4216.24,0.45289
4210.45,0.45328
4204.66,0.45306
4198.88,0.45374
4193.09,0.45452
4187.31,0.45577
4181.52,0.45600
4175.73,0.45731
4169.95,0.45873
4164.16,0.45988
4158.37,0.45985
4152.59,0.45946
4146.8,0.45714
4141.02,0.45503
4135.23,0.45163
4129.44,0.44878
4123.66,0.44419
4117.87,0.44001
4112.09,0.43468
4106.3,0.43020
4100.51,0.42450
4094.73,0.41966
4088.94,0.41409
4083.15,0.40860
4077.37,0.40275
4071.58,0.39738
4065.8,0.39107
4060.01,0.38562
4054.22,0.37975
4048.44,0.37378
4042.65,0.36960
4036.86,0.36584
4031.08,0.36239
4025.29,0.36025
4019.51,0.35833
4013.72,0.35736
4007.93,0.35714
4002.15,0.35773
3996.36,0.35947
3990.57,0.36056
3984.79,0.36254
3979,0.36322
3973.22,0.36451
3967.43,0.36760
3961.64,0.36997
3955.86,0.37265
3950.07,0.37532
3944.28,0.37791
3938.5,0.38123
3932.71,0.38459
3926.93,0.38736
3921.14,0.38990
3915.35,0.39288
3909.57,0.39483
3903.78,0.39786
3897.99,0.40003
3892.21,0.40283
3886.42,0.40467
3880.64,0.40705
3874.85,0.40881
3869.06,0.41135
3863.28,0.41385
3857.49,0.41642
3851.7,0.42004
3845.92,0.42115
3840.13,0.42412
3834.35,0.42593
3828.56,0.42627
3822.77,0.42721
3816.99,0.42592
3811.2,0.42631
3805.41,0.42640
3799.63,0.42559
3793.84,0.42514
3788.06,0.42473
3782.27,0.42345
3776.48,0.42315
3770.7,0.42170
3764.91,0.41986
3759.12,0.41785
3753.34,0.41541
3747.55,0.41222
3741.77,0.40920
3735.98,0.40524
3730.19,0.40081
3724.41,0.39469
3718.62,0.38840
3712.83,0.38184
3707.05,0.37321
3701.26,0.36288
3695.48,0.35025
3689.69,0.33621
3683.9,0.31771
3678.12,0.29972
3672.33,0.27870
3666.54,0.25617
3660.76,0.23587
3654.97,0.21765
3649.19,0.20048
3643.4,0.18454
3637.61,0.17149
3631.83,0.15941
3626.04,0.14802
3620.25,0.13903
3614.47,0.12953
3608.68,0.12122
3602.9,0.11238
3597.11,0.10538
3591.32,0.09826
3585.54,0.09148
3579.75,0.08691
3573.97,0.08269
3568.18,0.07924
3562.39,0.07537
3556.61,0.07257
3550.82,0.06975
3545.03,0.06705
3539.25,0.06478
3533.46,0.06200
3527.68,0.05993
3521.89,0.05857
3516.1,0.05731
3510.32,0.05606
3504.53,0.05479
3498.74,0.05321
3492.96,0.05185
3487.17,0.05092
3481.39,0.05047
3475.6,0.05014
3469.81,0.04948
3464.03,0.04892
3458.24,0.04856
3452.45,0.04887
3446.67,0.04870
3440.88,0.04843
3435.1,0.04857
3429.31,0.04817
3423.52,0.04848
3417.74,0.04877
3411.95,0.04865
3406.16,0.04961
3400.38,0.04899
3394.59,0.04932
3388.81,0.04978
3383.02,0.05015
3377.23,0.04996
3371.45,0.05055
3365.66,0.05079
3359.87,0.05132
3354.09,0.05165
3348.3,0.05169
3342.52,0.05351
3336.73,0.05394
3330.94,0.05502
3325.16,0.05618
3319.37,0.05664
3313.58,0.05722
3307.8,0.05840
3302.01,0.05896
3296.23,0.05925
3290.44,0.06110
3284.65,0.06240
3278.87,0.06290
3273.08,0.06394
3267.29,0.06503
3261.51,0.06634
3255.72,0.06835
3249.94,0.06920
3244.15,0.07064
3238.36,0.07359
3232.58,0.07537
3226.79,0.07570
3221,0.07892
3215.22,0.08085
3209.43,0.08182
3203.65,0.08418
3197.86,0.08701
3192.07,0.08882
3186.29,0.09069
3180.5,0.09306
3174.71,0.09540
3168.93,0.09861
3163.14,0.10126
3157.36,0.10387
3151.57,0.10615
3145.78,0.10883
3140,0.11170
3134.21,0.11423
3128.42,0.11739
3122.64,0.11958
3116.85,0.12306
3111.07,0.12557
3105.28,0.12769
3099.49,0.13059
3093.71,0.13324
3087.92,0.13587
3082.14,0.13743
3076.35,0.13943
3070.56,0.14193
3064.78,0.14437
3058.99,0.14703
3053.2,0.14938
3047.42,0.15172
3041.63,0.15303
3035.85,0.15427
3030.06,0.15531
3024.27,0.15492
3018.49,0.15382
3012.7,0.15135
3006.91,0.14759
3001.13,0.14439
2995.34,0.14219
2989.56,0.13864
2983.77,0.13216
2977.98,0.12355
2972.2,0.11405
2966.41,0.10730
2960.62,0.10292
2954.84,0.09827
2949.05,0.09404
2943.27,0.08958
2937.48,0.08765
2931.69,0.08701
2925.91,0.08653
2920.12,0.08593
2914.33,0.08552
2908.55,0.08585
2902.76,0.08609
2896.98,0.08712
2891.19,0.08849
2885.4,0.08962
2879.62,0.09081
2873.83,0.09291
2868.04,0.09504
2862.26,0.09864
2856.47,0.10228
2850.69,0.10529
2844.9,0.11132
2839.11,0.11758
2833.33,0.12488
2827.54,0.13296
2821.75,0.14132
2815.97,0.14847
2810.18,0.15443
2804.4,0.15923
2798.61,0.16412
2792.82,0.16794
2787.04,0.17047
2781.25,0.17237
2775.46,0.17428
2769.68,0.17549
2763.89,0.17738
2758.11,0.17805
2752.32,0.17913
2746.53,0.17945
2740.75,0.18038
2734.96,0.18116
2729.17,0.18262
2723.39,0.18439
2717.6,0.18667
2711.82,0.18893
2706.03,0.19203
2700.24,0.19519
2694.46,0.19752
2688.67,0.20021
2682.88,0.20296
2677.1,0.20569
2671.31,0.20789
2665.53,0.20996
2659.74,0.21156
2653.95,0.21302
2648.17,0.21489
2642.38,0.21709
2636.59,0.21939
2630.81,0.22187
2625.02,0.22484
2619.24,0.22683
2613.45,0.22838
2607.66,0.23016
2601.88,0.23202
2596.09,0.23405
2590.3,0.23549
2584.52,0.23680
2578.73,0.23814
2572.95,0.23913
2567.16,0.23959
2561.37,0.24012
2555.59,0.24015
2549.8,0.24022
2544.02,0.24073
2538.23,0.24181
2532.44,0.24289
2526.66,0.24546
2520.87,0.24737
2515.08,0.24861
2509.3,0.25107
2503.51,0.25433
2497.73,0.25703
2491.94,0.26080
2486.15,0.26276
2480.37,0.26511
2474.58,0.26776
2468.79,0.27026
2463.01,0.27239
2457.22,0.27465
2451.44,0.27707
2445.65,0.27998
2439.86,0.28277
2434.08,0.28543
2428.29,0.28885
2422.5,0.29226
2416.72,0.29528
2410.93,0.29842
2405.15,0.30188
2399.36,0.30464
2393.57,0.30781
2387.79,0.31013
2382,0.31277
2376.21,0.31525
2370.43,0.31776
2364.64,0.32002
2358.86,0.32144
2353.07,0.32301
2347.28,0.32464
2341.5,0.32646
2335.71,0.32761
2329.92,0.32824
2324.14,0.32892
2318.35,0.32901
2312.57,0.32901
2306.78,0.32898
2300.99,0.32787
2295.21,0.32715
2289.42,0.32656
2283.63,0.32571
2277.85,0.32495
2272.06,0.32275
2266.28,0.32038
2260.49,0.31864
2254.7,0.31681
2248.92,0.31560
2243.13,0.31489
2237.34,0.31364
2231.56,0.31248
2225.77,0.31196
2219.99,0.31192
2214.2,0.31130
2208.41,0.31025
2202.63,0.30873
2196.84,0.30630
2191.05,0.30287
2185.27,0.29941
2179.48,0.29591
2173.7,0.29209
2167.91,0.28866
2162.12,0.28617
2156.34,0.28407
2150.55,0.28196
2144.76,0.28060
2138.98,0.27955
2133.19,0.27925
2127.41,0.27971
2121.62,0.28060
2115.83,0.28160
2110.05,0.28280
2104.26,0.28410
2098.47,0.28518
2092.69,0.28629
2086.9,0.28661
2081.12,0.28604
2075.33,0.28489
2069.54,0.28317
2063.76,0.28204
2057.97,0.28158
2052.19,0.28164
2046.4,0.28306
2040.61,0.28498
2034.83,0.28826
2029.04,0.29127
2023.25,0.29517
2017.47,0.29883
2011.68,0.30218
2005.9,0.30519
2000.11,0.30763
1994.32,0.30958
1988.54,0.31227
1982.75,0.31432
1976.96,0.31638
1971.18,0.31832
1965.39,0.32069
1959.61,0.32357
1953.82,0.32632
1948.03,0.33020
1942.25,0.33392
1936.46,0.33648
1930.67,0.33839
1924.89,0.34041
1919.1,0.34132
1913.32,0.34187
1907.53,0.34176
1901.74,0.34176
1895.96,0.34133
1890.17,0.34069
1884.38,0.34064
1878.6,0.34004
1872.81,0.33939
1867.03,0.33918
1861.24,0.33770
1855.45,0.33687
1849.67,0.33480
1843.88,0.33299
1838.09,0.33080
1832.31,0.32808
1826.52,0.32490
1820.74,0.32098
1814.95,0.31714
1809.16,0.31200
1803.38,0.30596
1797.59,0.29873
1791.8,0.28973
1786.02,0.27772
1780.23,0.26115
1774.45,0.24008
1768.66,0.21011
1762.87,0.17950
1757.09,0.14984
1751.3,0.12966
1745.51,0.11769
1739.73,0.11318
1733.94,0.11456
1728.16,0.11946
1722.37,0.12669
1716.58,0.13868
1710.8,0.15109
1705.01,0.16081
1699.22,0.16394
1693.44,0.16092
1687.65,0.15490
1681.87,0.14241
1676.08,0.12962
1670.29,0.11709
1664.51,0.10914
1658.72,0.10705
1652.93,0.10950
1647.15,0.11124
1641.36,0.11042
1635.58,0.10997
1629.79,0.11057
1624,0.11030
1618.22,0.10879
1612.43,0.10396
1606.64,0.10040
1600.86,0.09990
1595.07,0.10095
1589.29,0.10413
1583.5,0.11316
1577.71,0.12860
1571.93,0.14842
1566.14,0.16382
1560.35,0.17203
1554.57,0.17474
1548.78,0.17373
1543,0.16968
1537.21,0.15889
1531.42,0.14077
1525.64,0.11513
1519.85,0.08458
1514.07,0.06755
1508.28,0.06747
1502.49,0.07604
1496.71,0.08752
1490.92,0.09415
1485.13,0.09287
1479.35,0.08686
1473.56,0.07691
1467.78,0.06782
1461.99,0.06586
1456.2,0.06562
1450.42,0.06502
1444.63,0.06718
1438.84,0.06567
1433.06,0.06149
1427.27,0.06050
1421.49,0.06273
1415.7,0.06616
1409.91,0.06949
1404.13,0.07074
1398.34,0.07008
1392.55,0.06751
1386.77,0.06303
1380.98,0.05860
1375.2,0.05771
1369.41,0.05881
1363.62,0.06105
1357.84,0.06282
1352.05,0.06400
1346.26,0.06382
1340.48,0.06172
1334.69,0.06113
1328.91,0.06101
1323.12,0.06016
1317.33,0.06017
1311.55,0.06192
1305.76,0.06342
1299.97,0.06308
1294.19,0.06092
1288.4,0.05764
1282.62,0.05401
1276.83,0.05286
1271.04,0.05164
1265.26,0.05257
1259.47,0.05477
1253.68,0.05618
1247.9,0.05706
1242.11,0.05685
1236.33,0.05591
1230.54,0.05629
1224.75,0.05746
1218.97,0.05717
1213.18,0.05780
1207.39,0.05756
1201.61,0.05887
1195.82,0.05923
1190.04,0.05756
1184.25,0.05379
1178.46,0.04869
1172.68,0.04410
1166.89,0.04567
1161.1,0.04896
1155.32,0.04994
1149.53,0.04915
1143.75,0.04643
1137.96,0.04438
1132.17,0.04191
1126.39,0.04211
1120.6,0.04328
1114.81,0.04530
1109.03,0.04841
1103.24,0.04884
1097.46,0.04836
1091.67,0.04834
1085.88,0.04919
1080.1,0.05244
1074.31,0.05794
1068.52,0.06351
1062.74,0.07086
1056.95,0.07655
1051.17,0.07592
1045.38,0.07383
1039.59,0.07557
1033.81,0.08108
1028.02,0.08379
1022.24,0.08566
1016.45,0.08733
1010.66,0.08869
1004.88,0.08998
999.09,0.09085
993.304,0.09409
987.518,0.09884
981.731,0.10638
975.945,0.11171
970.159,0.11320
964.373,0.11563
958.586,0.12007
952.8,0.12542
947.014,0.12847
941.228,0.13068
935.441,0.13320
929.655,0.13660
923.869,0.13719
918.083,0.13507
912.297,0.12991
906.51,0.12217
900.724,0.11563
894.938,0.11522
889.152,0.12190
883.365,0.12517
877.579,0.12636
871.793,0.12761
866.007,0.12851
860.22,0.13162
854.434,0.13425
848.648,0.13825
842.862,0.14064
837.075,0.13771
831.289,0.13417
825.503,0.13033
819.717,0.12369
813.931,0.11862
808.144,0.11806
802.358,0.11986
796.572,0.12286
790.786,0.12340
784.999,0.12138
779.213,0.11828
773.427,0.11479
767.641,0.11370
761.854,0.11279
756.068,0.11138
750.282,0.11002
744.496,0.10761
738.709,0.10587
732.923,0.10270
727.137,0.09884
721.351,0.09676
715.565,0.09585
709.778,0.09375
703.992,0.09270
698.206,0.09143
692.42,0.08991
686.633,0.08784
680.847,0.08451
675.061,0.08056
669.275,0.08000
663.488,0.08204
657.702,0.08282
651.916,0.08173
646.13,0.08008
640.343,0.08012
634.557,0.07826
628.771,0.07733
622.985,0.07499
617.198,0.07618
611.412,0.07907
605.626,0.08059
599.84,0.08099