File: 01_Data/Wood_Stud/FTIR/IS/Wood_Stud_IS_T_221031_R3.dpt
7497.03,0.01384
7491.25,0.02391
7485.46,0.02234
7479.67,0.02754
7473.89,0.03121
7468.1,0.02405
7462.32,0.02856
7456.53,0.01709
7450.74,0.02523
7444.96,0.02521
7439.17,0.02510
7433.38,0.01336
7427.6,0.02565
7421.81,0.02243
7416.03,0.02995
7410.24,0.02886
7404.45,0.01740
7398.67,0.02219
7392.88,0.02697
7387.09,0.02501
7381.31,0.02586
7375.52,0.01871
7369.74,0.02771
7363.95,0.02297
7358.16,0.02634
7352.38,0.02455
7346.59,0.01472
7340.8,0.03209
7335.02,0.02388
7329.23,0.01934
7323.45,0.02026
7317.66,0.02586
7311.87,0.01645
7306.09,0.02582
7300.3,0.02237
7294.51,0.02360
7288.73,0.02719
7282.94,0.01361
7277.16,0.02249
7271.37,0.02212
7265.58,0.02238
7259.8,0.01806
7254.01,0.02813
7248.22,0.01464
7242.44,0.02311
7236.65,0.01771
7230.87,0.03175
7225.08,0.02347
7219.29,0.02505
7213.51,0.02523
7207.72,0.01802
7201.93,0.01852
7196.15,0.02178
7190.36,0.02689
7184.58,0.02103
7178.79,0.01839
7173,0.02883
7167.22,0.02547
7161.43,0.02243
7155.65,0.02536
7149.86,0.02599
7144.07,0.02532
7138.29,0.02614
7132.5,0.02180
7126.71,0.01336
7120.93,0.01488
7115.14,0.01407
7109.36,0.02385
7103.57,0.02411
7097.78,0.01994
7092,0.02384
7086.21,0.02392
7080.42,0.02259
7074.64,0.02127
7068.85,0.02321
7063.07,0.02256
7057.28,0.02492
7051.49,0.02162
7045.71,0.02964
7039.92,0.02407
7034.13,0.02156
7028.35,0.02372
7022.56,0.02329
7016.78,0.01962
7010.99,0.02804
7005.2,0.02784
6999.42,0.02239
6993.63,0.02468
6987.84,0.02380
6982.06,0.02584
6976.27,0.02214
6970.49,0.02491
6964.7,0.02367
6958.91,0.02521
6953.13,0.02320
6947.34,0.02222
6941.55,0.02062
6935.77,0.02982
6929.98,0.02343
6924.2,0.02469
6918.41,0.02103
6912.62,0.02221
6906.84,0.02458
6901.05,0.02369
6895.26,0.02504
6889.48,0.02316
6883.69,0.01779
6877.91,0.01954
6872.12,0.02053
6866.33,0.02343
6860.55,0.01832
6854.76,0.01929
6848.97,0.01898
6843.19,0.02332
6837.4,0.02036
6831.62,0.02607
6825.83,0.02606
6820.04,0.02201
6814.26,0.01877
6808.47,0.02249
6802.68,0.01865
6796.9,0.02129
6791.11,0.02123
6785.33,0.01934
6779.54,0.02091
6773.75,0.02362
6767.97,0.02757
6762.18,0.02361
6756.39,0.02327
6750.61,0.02494
6744.82,0.02192
6739.04,0.02440
6733.25,0.01454
6727.46,0.01909
6721.68,0.01748
6715.89,0.02633
6710.1,0.02343
6704.32,0.02135
6698.53,0.02471
6692.75,0.01886
6686.96,0.02464
6681.17,0.02450
6675.39,0.02007
6669.6,0.01753
6663.82,0.02141
6658.03,0.02983
6652.24,0.02423
6646.46,0.02339
6640.67,0.02065
6634.88,0.01945
6629.1,0.02331
6623.31,0.02200
6617.53,0.01628
6611.74,0.01796
6605.95,0.02142
6600.17,0.02032
6594.38,0.02049
6588.59,0.02388
6582.81,0.02267
6577.02,0.02078
6571.24,0.02321
6565.45,0.02506
6559.66,0.02405
6553.88,0.01681
6548.09,0.02013
6542.3,0.02068
6536.52,0.02299
6530.73,0.02312
6524.95,0.02547
6519.16,0.01921
6513.37,0.02286
6507.59,0.02650
6501.8,0.01939
6496.01,0.01864
6490.23,0.02117
6484.44,0.02059
6478.66,0.02170
6472.87,0.02082
6467.08,0.02451
6461.3,0.02458
6455.51,0.02135
6449.72,0.02065
6443.94,0.02271
6438.15,0.02169
6432.37,0.02294
6426.58,0.01919
6420.79,0.02131
6415.01,0.02209
6409.22,0.01897
6403.43,0.01942
6397.65,0.02186
6391.86,0.02175
6386.08,0.01981
6380.29,0.01998
6374.5,0.01867
6368.72,0.02209
6362.93,0.02175
6357.14,0.02105
6351.36,0.02160
6345.57,0.02116
6339.79,0.01922
6334,0.01875
6328.21,0.02237
6322.43,0.02374
6316.64,0.01888
6310.85,0.02216
6305.07,0.01876
6299.28,0.02106
6293.5,0.02314
6287.71,0.02078
6281.92,0.02083
6276.14,0.02176
6270.35,0.02189
6264.56,0.01882
6258.78,0.01867
6252.99,0.02110
6247.21,0.01665
6241.42,0.01939
6235.63,0.02171
6229.85,0.02314
6224.06,0.02240
6218.27,0.02253
6212.49,0.02387
6206.7,0.02107
6200.92,0.02229
6195.13,0.02603
6189.34,0.02224
6183.56,0.02223
6177.77,0.01774
6171.98,0.02240
6166.2,0.02114
6160.41,0.01790
6154.63,0.02139
6148.84,0.02127
6143.05,0.02182
6137.27,0.02076
6131.48,0.02039
6125.7,0.02124
6119.91,0.02378
6114.12,0.02167
6108.34,0.02026
6102.55,0.02161
6096.76,0.02173
6090.98,0.02319
6085.19,0.02195
6079.41,0.02071
6073.62,0.02318
6067.83,0.01919
6062.05,0.02029
6056.26,0.02042
6050.47,0.02192
6044.69,0.02100
6038.9,0.02294
6033.12,0.02258
6027.33,0.02279
6021.54,0.02272
6015.76,0.02368
6009.97,0.02372
6004.18,0.02220
5998.4,0.01853
5992.61,0.02184
5986.83,0.02248
5981.04,0.02243
5975.25,0.02124
5969.47,0.02180
5963.68,0.02111
5957.89,0.02137
5952.11,0.02131
5946.32,0.02024
5940.54,0.02320
5934.75,0.01894
5928.96,0.02040
5923.18,0.02183
5917.39,0.01917
5911.6,0.02238
5905.82,0.02430
5900.03,0.02113
5894.25,0.02122
5888.46,0.02006
5882.67,0.02252
5876.89,0.02189
5871.1,0.01950
5865.31,0.02080
5859.53,0.02009
5853.74,0.02069
5847.96,0.01981
5842.17,0.02102
5836.38,0.02099
5830.6,0.02292
5824.81,0.02211
5819.02,0.02123
5813.24,0.02012
5807.45,0.01947
5801.67,0.02062
5795.88,0.02139
5790.09,0.02174
5784.31,0.02076
5778.52,0.01945
5772.73,0.01924
5766.95,0.02066
5761.16,0.02175
5755.38,0.02226
5749.59,0.02268
5743.8,0.01998
5738.02,0.02366
5732.23,0.02417
5726.44,0.02216
5720.66,0.02238
5714.87,0.01993
5709.09,0.01988
5703.3,0.02129
5697.51,0.02133
5691.73,0.02169
5685.94,0.02133
5680.15,0.02135
5674.37,0.02178
5668.58,0.02149
5662.8,0.02106
5657.01,0.02232
5651.22,0.02157
5645.44,0.02205
5639.65,0.02301
5633.87,0.02083
5628.08,0.02143
5622.29,0.02333
5616.51,0.02156
5610.72,0.02171
5604.93,0.02168
5599.15,0.02144
5593.36,0.02195
5587.58,0.02286
5581.79,0.01981
5576,0.02251
5570.22,0.02110
5564.43,0.01995
5558.64,0.02098
5552.86,0.02260
5547.07,0.02074
5541.29,0.02238
5535.5,0.02244
5529.71,0.02114
5523.93,0.02218
5518.14,0.02352
5512.35,0.02132
5506.57,0.02035
5500.78,0.02094
5495,0.01912
5489.21,0.01996
5483.42,0.02255
5477.64,0.02066
5471.85,0.02233
5466.06,0.02190
5460.28,0.02168
5454.49,0.02161
5448.71,0.01942
5442.92,0.02121
5437.13,0.02016
5431.35,0.01969
5425.56,0.02240
5419.77,0.02144
5413.99,0.02254
5408.2,0.02155
5402.42,0.02062
5396.63,0.02101
5390.84,0.02163
5385.06,0.02257
5379.27,0.02085
5373.48,0.02350
5367.7,0.02176
5361.91,0.02194
5356.13,0.02081
5350.34,0.02233
5344.55,0.02170
5338.77,0.02300
5332.98,0.02333
5327.19,0.02268
5321.41,0.02216
5315.62,0.02130
5309.84,0.02101
5304.05,0.02212
5298.26,0.02166
5292.48,0.02247
5286.69,0.02102
5280.9,0.02020
5275.12,0.01970
5269.33,0.02197
5263.55,0.02087
5257.76,0.02099
5251.97,0.01964
5246.19,0.02160
5240.4,0.02156
5234.61,0.02136
5228.83,0.02238
5223.04,0.02024
5217.26,0.02102
5211.47,0.02044
5205.68,0.02128
5199.9,0.02199
5194.11,0.02084
5188.32,0.02133
5182.54,0.02227
5176.75,0.02265
5170.97,0.02007
5165.18,0.02167
5159.39,0.02017
5153.61,0.02123
5147.82,0.02223
5142.03,0.02176
5136.25,0.02064
5130.46,0.02052
5124.68,0.02115
5118.89,0.02112
5113.1,0.02099
5107.32,0.02193
5101.53,0.02249
5095.75,0.02114
5089.96,0.02074
5084.17,0.02153
5078.39,0.02120
5072.6,0.02099
5066.81,0.02165
5061.03,0.02232
5055.24,0.02053
5049.46,0.02162
5043.67,0.02156
5037.88,0.02145
5032.1,0.02148
5026.31,0.02110
5020.52,0.02128
5014.74,0.02202
5008.95,0.02186
5003.17,0.02172
4997.38,0.02119
4991.59,0.02192
4985.81,0.02012
4980.02,0.02082
4974.23,0.02187
4968.45,0.02239
4962.66,0.02145
4956.88,0.02187
4951.09,0.02097
4945.3,0.02145
4939.52,0.02093
4933.73,0.02143
4927.94,0.02143
4922.16,0.02123
4916.37,0.02176
4910.59,0.02302
4904.8,0.02174
4899.01,0.02130
4893.23,0.02142
4887.44,0.02102
4881.65,0.02150
4875.87,0.02171
4870.08,0.02117
4864.3,0.02145
4858.51,0.02251
4852.72,0.02247
4846.94,0.02096
4841.15,0.02119
4835.36,0.02039
4829.58,0.02150
4823.79,0.02148
4818.01,0.02185
4812.22,0.02204
4806.43,0.02136
4800.65,0.02193
4794.86,0.02256
4789.07,0.02129
4783.29,0.02041
4777.5,0.02241
4771.72,0.02147
4765.93,0.02121
4760.14,0.02092
4754.36,0.02174
4748.57,0.02093
4742.78,0.02104
4737,0.02151
4731.21,0.02152
4725.43,0.02163
4719.64,0.02093
4713.85,0.02151
4708.07,0.02165
4702.28,0.02191
4696.49,0.02179
4690.71,0.02208
4684.92,0.02183
4679.14,0.02202
4673.35,0.02235
4667.56,0.02167
4661.78,0.02228
4655.99,0.02136
4650.2,0.02164
4644.42,0.02110
4638.63,0.02089
4632.85,0.02217
4627.06,0.02139
4621.27,0.02145
4615.49,0.02129
4609.7,0.02207
4603.92,0.02162
4598.13,0.02179
4592.34,0.02059
4586.56,0.02098
4580.77,0.02217
4574.98,0.02133
4569.2,0.02244
4563.41,0.02199
4557.63,0.02153
4551.84,0.02103
4546.05,0.02158
4540.27,0.02149
4534.48,0.02163
4528.69,0.02179
4522.91,0.02122
4517.12,0.02046
4511.34,0.02131
4505.55,0.02199
4499.76,0.02228
4493.98,0.02162
4488.19,0.02226
4482.4,0.02128
4476.62,0.02209
4470.83,0.02241
4465.05,0.02167
4459.26,0.02226
4453.47,0.02137
4447.69,0.02191
4441.9,0.02202
4436.11,0.02206
4430.33,0.02168
4424.54,0.02240
4418.76,0.02211
4412.97,0.02163
4407.18,0.02111
4401.4,0.02066
4395.61,0.02118
4389.82,0.02155
4384.04,0.02199
4378.25,0.02151
4372.47,0.02162
4366.68,0.02196
4360.89,0.02172
4355.11,0.02075
4349.32,0.02097
4343.53,0.02162
4337.75,0.02229
4331.96,0.02168
4326.18,0.02214
4320.39,0.02161
4314.6,0.02146
4308.82,0.02150
4303.03,0.02141
4297.24,0.02214
4291.46,0.02181
4285.67,0.02165
4279.89,0.02181
4274.1,0.02172
4268.31,0.02138
4262.53,0.02116
4256.74,0.02104
4250.95,0.02196
4245.17,0.02226
4239.38,0.02224
4233.6,0.02229
4227.81,0.02174
4222.02,0.02210
4216.24,0.02080
4210.45,0.02115
4204.66,0.02155
4198.88,0.02217
4193.09,0.02174
4187.31,0.02192
4181.52,0.02268
4175.73,0.02194
4169.95,0.02194
4164.16,0.02202
4158.37,0.02130
4152.59,0.02161
4146.8,0.02183
4141.02,0.02219
4135.23,0.02241
4129.44,0.02132
4123.66,0.02162
4117.87,0.02233
4112.09,0.02211
4106.3,0.02245
4100.51,0.02173
4094.73,0.02155
4088.94,0.02245
4083.15,0.02194
4077.37,0.02213
4071.58,0.02199
4065.8,0.02230
4060.01,0.02239
4054.22,0.02204
4048.44,0.02223
4042.65,0.02223
4036.86,0.02212
4031.08,0.02242
4025.29,0.02212
4019.51,0.02198
4013.72,0.02166
4007.93,0.02125
4002.15,0.02156
3996.36,0.02194
3990.57,0.02220
3984.79,0.02195
3979,0.02205
3973.22,0.02133
3967.43,0.02197
3961.64,0.02175
3955.86,0.02127
3950.07,0.02205
3944.28,0.02233
3938.5,0.02110
3932.71,0.02219
3926.93,0.02200
3921.14,0.02166
3915.35,0.02152
3909.57,0.02232
3903.78,0.02199
3897.99,0.02172
3892.21,0.02223
3886.42,0.02189
3880.64,0.02199
3874.85,0.02218
3869.06,0.02205
3863.28,0.02245
3857.49,0.02211
3851.7,0.02241
3845.92,0.02240
3840.13,0.02271
3834.35,0.02230
3828.56,0.02231
3822.77,0.02151
3816.99,0.02118
3811.2,0.02181
3805.41,0.02219
3799.63,0.02196
3793.84,0.02181
3788.06,0.02148
3782.27,0.02207
3776.48,0.02192
3770.7,0.02215
3764.91,0.02188
3759.12,0.02248
3753.34,0.02172
3747.55,0.02217
3741.77,0.02210
3735.98,0.02268
3730.19,0.02214
3724.41,0.02228
3718.62,0.02243
3712.83,0.02119
3707.05,0.02196
3701.26,0.02250
3695.48,0.02143
3689.69,0.02133
3683.9,0.02182
3678.12,0.02237
3672.33,0.02194
3666.54,0.02135
3660.76,0.02204
3654.97,0.02209
3649.19,0.02168
3643.4,0.02170
3637.61,0.02250
3631.83,0.02125
3626.04,0.02145
3620.25,0.02082
3614.47,0.02146
3608.68,0.02143
3602.9,0.02145
3597.11,0.02139
3591.32,0.02133
3585.54,0.02044
3579.75,0.02022
3573.97,0.02130
3568.18,0.02149
3562.39,0.02004
3556.61,0.02013
3550.82,0.02087
3545.03,0.02026
3539.25,0.02080
3533.46,0.02027
3527.68,0.02085
3521.89,0.02033
3516.1,0.02109
3510.32,0.02122
3504.53,0.02102
3498.74,0.02023
3492.96,0.02049
3487.17,0.02063
3481.39,0.01998
3475.6,0.02007
3469.81,0.02091
3464.03,0.02039
3458.24,0.02039
3452.45,0.01994
3446.67,0.02048
3440.88,0.02013
3435.1,0.01969
3429.31,0.02007
3423.52,0.02022
3417.74,0.02033
3411.95,0.01995
3406.16,0.02011
3400.38,0.02001
3394.59,0.01988
3388.81,0.02029
3383.02,0.01992
3377.23,0.01984
3371.45,0.02015
3365.66,0.02007
3359.87,0.01924
3354.09,0.02000
3348.3,0.01957
3342.52,0.01962
3336.73,0.02007
3330.94,0.01997
3325.16,0.02001
3319.37,0.01972
3313.58,0.01968
3307.8,0.02015
3302.01,0.02006
3296.23,0.01970
3290.44,0.01987
3284.65,0.01976
3278.87,0.01947
3273.08,0.01949
3267.29,0.02068
3261.51,0.02072
3255.72,0.02053
3249.94,0.02021
3244.15,0.02038
3238.36,0.01995
3232.58,0.02015
3226.79,0.02002
3221,0.01978
3215.22,0.02008
3209.43,0.01893
3203.65,0.01977
3197.86,0.01952
3192.07,0.02052
3186.29,0.02009
3180.5,0.02104
3174.71,0.02046
3168.93,0.01989
3163.14,0.01997
3157.36,0.01980
3151.57,0.02021
3145.78,0.02089
3140,0.02007
3134.21,0.02016
3128.42,0.02074
3122.64,0.02005
3116.85,0.01989
3111.07,0.02042
3105.28,0.02018
3099.49,0.02027
3093.71,0.02071
3087.92,0.02012
3082.14,0.02037
3076.35,0.02000
3070.56,0.01990
3064.78,0.02079
3058.99,0.02031
3053.2,0.02061
3047.42,0.02016
3041.63,0.02023
3035.85,0.02029
3030.06,0.02061
3024.27,0.02000
3018.49,0.02034
3012.7,0.02009
3006.91,0.02026
3001.13,0.01990
2995.34,0.01974
2989.56,0.01962
2983.77,0.01967
2977.98,0.01999
2972.2,0.01917
2966.41,0.01932
2960.62,0.01914
2954.84,0.01892
2949.05,0.01927
2943.27,0.01909
2937.48,0.01915
2931.69,0.01905
2925.91,0.01976
2920.12,0.02011
2914.33,0.01974
2908.55,0.02000
2902.76,0.01977
2896.98,0.02040
2891.19,0.02014
2885.4,0.01976
2879.62,0.02025
2873.83,0.02003
2868.04,0.02037
2862.26,0.02012
2856.47,0.02002
2850.69,0.02004
2844.9,0.02064
2839.11,0.02062
2833.33,0.02123
2827.54,0.02118
2821.75,0.02083
2815.97,0.02101
2810.18,0.02097
2804.4,0.02103
2798.61,0.02126
2792.82,0.02061
2787.04,0.02097
2781.25,0.02077
2775.46,0.02092
2769.68,0.02123
2763.89,0.02074
2758.11,0.02080
2752.32,0.02126
2746.53,0.02123
2740.75,0.02101
2734.96,0.02077
2729.17,0.02090
2723.39,0.02071
2717.6,0.02081
2711.82,0.02094
2706.03,0.02064
2700.24,0.02093
2694.46,0.02113
2688.67,0.02073
2682.88,0.02070
2677.1,0.02119
2671.31,0.02105
2665.53,0.02087
2659.74,0.02088
2653.95,0.02111
2648.17,0.02084
2642.38,0.02094
2636.59,0.02071
2630.81,0.02073
2625.02,0.02112
2619.24,0.02103
2613.45,0.02100
2607.66,0.02111
2601.88,0.02083
2596.09,0.02091
2590.3,0.02116
2584.52,0.02082
2578.73,0.02073
2572.95,0.02112
2567.16,0.02100
2561.37,0.02060
2555.59,0.02113
2549.8,0.02095
2544.02,0.02115
2538.23,0.02121
2532.44,0.02124
2526.66,0.02104
2520.87,0.02084
2515.08,0.02073
2509.3,0.02106
2503.51,0.02114
2497.73,0.02113
2491.94,0.02092
2486.15,0.02051
2480.37,0.02096
2474.58,0.02081
2468.79,0.02123
2463.01,0.02095
2457.22,0.02111
2451.44,0.02078
2445.65,0.02100
2439.86,0.02076
2434.08,0.02078
2428.29,0.02092
2422.5,0.02132
2416.72,0.02112
2410.93,0.02114
2405.15,0.02106
2399.36,0.02096
2393.57,0.02131
2387.79,0.02075
2382,0.02080
2376.21,0.02088
2370.43,0.02105
2364.64,0.02103
2358.86,0.02116
2353.07,0.02068
2347.28,0.02102
2341.5,0.02113
2335.71,0.02088
2329.92,0.02087
2324.14,0.02124
2318.35,0.02109
2312.57,0.02119
2306.78,0.02098
2300.99,0.02087
2295.21,0.02097
2289.42,0.02096
2283.63,0.02076
2277.85,0.02083
2272.06,0.02079
2266.28,0.02083
2260.49,0.02090
2254.7,0.02100
2248.92,0.02070
2243.13,0.02088
2237.34,0.02114
2231.56,0.02121
2225.77,0.02089
2219.99,0.02052
2214.2,0.02075
2208.41,0.02098
2202.63,0.02110
2196.84,0.02104
2191.05,0.02073
2185.27,0.02092
2179.48,0.02089
2173.7,0.02068
2167.91,0.02096
2162.12,0.02075
2156.34,0.02055
2150.55,0.02109
2144.76,0.02069
2138.98,0.02072
2133.19,0.02074
2127.41,0.02094
2121.62,0.02082
2115.83,0.02060
2110.05,0.02080
2104.26,0.02106
2098.47,0.02087
2092.69,0.02035
2086.9,0.02067
2081.12,0.02090
2075.33,0.02067
2069.54,0.02120
2063.76,0.02068
2057.97,0.02081
2052.19,0.02046
2046.4,0.02045
2040.61,0.02086
2034.83,0.02077
2029.04,0.02043
2023.25,0.02053
2017.47,0.02065
2011.68,0.02054
2005.9,0.02057
2000.11,0.02078
1994.32,0.02071
1988.54,0.02074
1982.75,0.02081
1976.96,0.02055
1971.18,0.02073
1965.39,0.02083
1959.61,0.02079
1953.82,0.02068
1948.03,0.02057
1942.25,0.02075
1936.46,0.02086
1930.67,0.02090
1924.89,0.02060
1919.1,0.02065
1913.32,0.02067
1907.53,0.02025
1901.74,0.02039
1895.96,0.02040
1890.17,0.02052
1884.38,0.02031
1878.6,0.02047
1872.81,0.02031
1867.03,0.02024
1861.24,0.02036
1855.45,0.02048
1849.67,0.02010
1843.88,0.02031
1838.09,0.02008
1832.31,0.01988
1826.52,0.02018
1820.74,0.02012
1814.95,0.01995
1809.16,0.01959
1803.38,0.01960
1797.59,0.01974
1791.8,0.01920
1786.02,0.01942
1780.23,0.01894
1774.45,0.01912
1768.66,0.01879
1762.87,0.01810
1757.09,0.01790
1751.3,0.01733
1745.51,0.01763
1739.73,0.01845
1733.94,0.01914
1728.16,0.02025
1722.37,0.02033
1716.58,0.02046
1710.8,0.01990
1705.01,0.02034
1699.22,0.01966
1693.44,0.01897
1687.65,0.01926
1681.87,0.01861
1676.08,0.01897
1670.29,0.01863
1664.51,0.01792
1658.72,0.01809
1652.93,0.01801
1647.15,0.01851
1641.36,0.01800
1635.58,0.01878
1629.79,0.01867
1624,0.01845
1618.22,0.01831
1612.43,0.01841
1606.64,0.01855
1600.86,0.01841
1595.07,0.01873
1589.29,0.01823
1583.5,0.01848
1577.71,0.01870
1571.93,0.01818
1566.14,0.01787
1560.35,0.01858
1554.57,0.01789
1548.78,0.01806
1543,0.01841
1537.21,0.01816
1531.42,0.01851
1525.64,0.01839
1519.85,0.01871
1514.07,0.01832
1508.28,0.01890
1502.49,0.01879
1496.71,0.01878
1490.92,0.01897
1485.13,0.01873
1479.35,0.01854
1473.56,0.01855
1467.78,0.01808
1461.99,0.01835
1456.2,0.01889
1450.42,0.01786
1444.63,0.01862
1438.84,0.01881
1433.06,0.01858
1427.27,0.01862
1421.49,0.01804
1415.7,0.01821
1409.91,0.01831
1404.13,0.01812
1398.34,0.01830
1392.55,0.01803
1386.77,0.01814
1380.98,0.01806
1375.2,0.01806
1369.41,0.01812
1363.62,0.01781
1357.84,0.01767
1352.05,0.01790
1346.26,0.01762
1340.48,0.01757
1334.69,0.01720
1328.91,0.01706
1323.12,0.01724
1317.33,0.01687
1311.55,0.01675
1305.76,0.01724
1299.97,0.01737
1294.19,0.01787
1288.4,0.01805
1282.62,0.01852
1276.83,0.01876
1271.04,0.01926
1265.26,0.01950
1259.47,0.02001
1253.68,0.01992
1247.9,0.02012
1242.11,0.01974
1236.33,0.01990
1230.54,0.01976
1224.75,0.01917
1218.97,0.01921
1213.18,0.01888
1207.39,0.01904
1201.61,0.01883
1195.82,0.01833
1190.04,0.01826
1184.25,0.01813
1178.46,0.01842
1172.68,0.01788
1166.89,0.01803
1161.1,0.01800
1155.32,0.01756
1149.53,0.01726
1143.75,0.01776
1137.96,0.01782
1132.17,0.01779
1126.39,0.01810
1120.6,0.01891
1114.81,0.01855
1109.03,0.01801
1103.24,0.01805
1097.46,0.01824
1091.67,0.01824
1085.88,0.01787
1080.1,0.01857
1074.31,0.01850
1068.52,0.01968
1062.74,0.01982
1056.95,0.01973
1051.17,0.01811
1045.38,0.01864
1039.59,0.01977
1033.81,0.01991
1028.02,0.01907
1022.24,0.01901
1016.45,0.01944
1010.66,0.02007
1004.88,0.02044
999.09,0.02067
993.304,0.02171
987.518,0.02053
981.731,0.02025
975.945,0.02007
970.159,0.02034
964.373,0.01991
958.586,0.01990
952.8,0.01972
947.014,0.01962
941.228,0.01910
935.441,0.01915
929.655,0.01934
923.869,0.01895
918.083,0.01917
912.297,0.01918
906.51,0.01858
900.724,0.01904
894.938,0.01798
889.152,0.01857
883.365,0.01862
877.579,0.01890
871.793,0.01826
866.007,0.01866
860.22,0.01875
854.434,0.01812
848.648,0.01839
842.862,0.01866
837.075,0.01884
831.289,0.01840
825.503,0.01930
819.717,0.01980
813.931,0.01837
808.144,0.01838
802.358,0.01837
796.572,0.01893
790.786,0.01901
784.999,0.01906
779.213,0.01812
773.427,0.01803
767.641,0.01828
761.854,0.01775
756.068,0.01691
750.282,0.01782
744.496,0.01805
738.709,0.01800
732.923,0.01787
727.137,0.01835
721.351,0.01786
715.565,0.01760
709.778,0.01806
703.992,0.01783
698.206,0.01777
692.42,0.01805
686.633,0.01778
680.847,0.01837
675.061,0.01709
669.275,0.01762
663.488,0.01701
657.702,0.01542
651.916,0.01701
646.13,0.01747
640.343,0.01705
634.557,0.01634
628.771,0.01764
622.985,0.01631
617.198,0.01355
611.412,0.01599
605.626,0.01634
599.84,0.01538