File: 01_Data/Wood_Stud/FTIR/IS/Wood_Stud_IS_S_221031_R5.dpt
7497.03,0.84482
7491.25,0.84704
7485.46,0.84272
7479.67,0.83879
7473.89,0.84135
7468.1,0.83704
7462.32,0.84247
7456.53,0.82708
7450.74,0.84188
7444.96,0.83919
7439.17,0.83111
7433.38,0.81770
7427.6,0.81741
7421.81,0.81705
7416.03,0.82294
7410.24,0.81875
7404.45,0.82076
7398.67,0.81857
7392.88,0.81146
7387.09,0.80550
7381.31,0.81193
7375.52,0.81533
7369.74,0.80207
7363.95,0.79772
7358.16,0.79639
7352.38,0.80445
7346.59,0.80231
7340.8,0.79163
7335.02,0.80645
7329.23,0.78272
7323.45,0.79521
7317.66,0.79208
7311.87,0.80176
7306.09,0.79714
7300.3,0.79536
7294.51,0.78939
7288.73,0.79034
7282.94,0.79388
7277.16,0.78251
7271.37,0.79063
7265.58,0.78244
7259.8,0.79590
7254.01,0.79581
7248.22,0.77882
7242.44,0.78692
7236.65,0.78533
7230.87,0.78232
7225.08,0.78729
7219.29,0.77518
7213.51,0.77167
7207.72,0.77500
7201.93,0.76649
7196.15,0.77184
7190.36,0.77334
7184.58,0.76777
7178.79,0.77117
7173,0.76638
7167.22,0.76832
7161.43,0.76358
7155.65,0.75859
7149.86,0.74342
7144.07,0.75113
7138.29,0.75523
7132.5,0.74756
7126.71,0.73596
7120.93,0.73038
7115.14,0.73226
7109.36,0.73144
7103.57,0.71878
7097.78,0.71948
7092,0.71154
7086.21,0.70827
7080.42,0.70363
7074.64,0.70173
7068.85,0.69888
7063.07,0.68369
7057.28,0.68511
7051.49,0.68636
7045.71,0.67491
7039.92,0.66826
7034.13,0.66424
7028.35,0.66464
7022.56,0.65999
7016.78,0.65930
7010.99,0.65780
7005.2,0.65152
6999.42,0.64414
6993.63,0.64499
6987.84,0.64475
6982.06,0.63779
6976.27,0.63741
6970.49,0.63607
6964.7,0.64046
6958.91,0.63489
6953.13,0.63741
6947.34,0.62886
6941.55,0.62637
6935.77,0.63033
6929.98,0.63073
6924.2,0.62750
6918.41,0.63130
6912.62,0.62863
6906.84,0.62507
6901.05,0.63009
6895.26,0.62501
6889.48,0.63126
6883.69,0.63079
6877.91,0.63053
6872.12,0.62770
6866.33,0.62506
6860.55,0.63085
6854.76,0.62974
6848.97,0.62914
6843.19,0.63068
6837.4,0.63334
6831.62,0.62004
6825.83,0.62774
6820.04,0.62538
6814.26,0.63437
6808.47,0.63116
6802.68,0.62650
6796.9,0.62202
6791.11,0.62384
6785.33,0.62433
6779.54,0.62273
6773.75,0.62332
6767.97,0.62965
6762.18,0.63024
6756.39,0.62715
6750.61,0.63126
6744.82,0.62590
6739.04,0.63061
6733.25,0.62565
6727.46,0.62539
6721.68,0.62366
6715.89,0.62898
6710.1,0.62996
6704.32,0.63688
6698.53,0.62865
6692.75,0.63478
6686.96,0.63494
6681.17,0.63484
6675.39,0.63899
6669.6,0.63886
6663.82,0.63967
6658.03,0.63881
6652.24,0.63901
6646.46,0.64054
6640.67,0.63784
6634.88,0.64267
6629.1,0.63800
6623.31,0.64541
6617.53,0.64332
6611.74,0.64903
6605.95,0.64126
6600.17,0.64722
6594.38,0.64379
6588.59,0.64740
6582.81,0.65032
6577.02,0.65212
6571.24,0.64963
6565.45,0.64701
6559.66,0.65121
6553.88,0.64937
6548.09,0.65277
6542.3,0.65555
6536.52,0.65783
6530.73,0.65755
6524.95,0.65576
6519.16,0.65731
6513.37,0.65537
6507.59,0.65592
6501.8,0.66109
6496.01,0.65492
6490.23,0.65863
6484.44,0.66382
6478.66,0.65882
6472.87,0.66163
6467.08,0.66244
6461.3,0.65782
6455.51,0.65903
6449.72,0.66391
6443.94,0.66363
6438.15,0.66333
6432.37,0.66725
6426.58,0.66345
6420.79,0.65989
6415.01,0.66295
6409.22,0.66063
6403.43,0.66377
6397.65,0.66418
6391.86,0.66414
6386.08,0.66849
6380.29,0.66703
6374.5,0.66385
6368.72,0.66834
6362.93,0.66473
6357.14,0.66777
6351.36,0.66702
6345.57,0.66836
6339.79,0.66451
6334,0.66805
6328.21,0.66894
6322.43,0.67049
6316.64,0.66796
6310.85,0.66926
6305.07,0.67572
6299.28,0.67260
6293.5,0.67702
6287.71,0.67424
6281.92,0.67161
6276.14,0.67699
6270.35,0.67976
6264.56,0.67841
6258.78,0.68277
6252.99,0.68274
6247.21,0.68455
6241.42,0.68473
6235.63,0.68722
6229.85,0.68762
6224.06,0.68994
6218.27,0.69368
6212.49,0.69743
6206.7,0.69682
6200.92,0.69727
6195.13,0.70070
6189.34,0.69971
6183.56,0.70124
6177.77,0.70447
6171.98,0.70607
6166.2,0.70545
6160.41,0.70727
6154.63,0.70841
6148.84,0.70753
6143.05,0.71033
6137.27,0.70946
6131.48,0.71275
6125.7,0.71327
6119.91,0.71610
6114.12,0.71510
6108.34,0.71837
6102.55,0.71304
6096.76,0.71505
6090.98,0.71463
6085.19,0.71579
6079.41,0.71711
6073.62,0.71622
6067.83,0.71582
6062.05,0.71739
6056.26,0.71559
6050.47,0.71375
6044.69,0.71017
6038.9,0.71344
6033.12,0.71117
6027.33,0.70934
6021.54,0.70576
6015.76,0.70579
6009.97,0.70671
6004.18,0.70373
5998.4,0.70209
5992.61,0.70166
5986.83,0.70064
5981.04,0.69885
5975.25,0.70015
5969.47,0.70054
5963.68,0.70049
5957.89,0.70043
5952.11,0.69866
5946.32,0.69924
5940.54,0.70333
5934.75,0.70344
5928.96,0.70362
5923.18,0.70340
5917.39,0.69980
5911.6,0.69791
5905.82,0.69887
5900.03,0.69837
5894.25,0.69594
5888.46,0.69361
5882.67,0.69564
5876.89,0.69255
5871.1,0.69044
5865.31,0.69234
5859.53,0.69278
5853.74,0.69363
5847.96,0.69002
5842.17,0.69190
5836.38,0.69490
5830.6,0.69113
5824.81,0.69057
5819.02,0.68677
5813.24,0.68598
5807.45,0.68612
5801.67,0.68535
5795.88,0.68579
5790.09,0.68748
5784.31,0.68717
5778.52,0.68748
5772.73,0.68920
5766.95,0.68778
5761.16,0.69054
5755.38,0.69103
5749.59,0.69212
5743.8,0.69091
5738.02,0.69095
5732.23,0.68976
5726.44,0.68982
5720.66,0.69005
5714.87,0.68948
5709.09,0.68936
5703.3,0.68748
5697.51,0.68800
5691.73,0.68863
5685.94,0.68696
5680.15,0.68860
5674.37,0.68592
5668.58,0.68549
5662.8,0.68561
5657.01,0.68587
5651.22,0.68605
5645.44,0.68692
5639.65,0.68453
5633.87,0.68446
5628.08,0.68512
5622.29,0.68430
5616.51,0.68399
5610.72,0.68525
5604.93,0.68279
5599.15,0.68453
5593.36,0.68503
5587.58,0.68424
5581.79,0.68648
5576,0.68754
5570.22,0.68779
5564.43,0.68722
5558.64,0.68520
5552.86,0.68667
5547.07,0.68893
5541.29,0.68868
5535.5,0.68738
5529.71,0.69147
5523.93,0.69224
5518.14,0.69180
5512.35,0.69140
5506.57,0.69177
5500.78,0.69223
5495,0.69210
5489.21,0.69421
5483.42,0.69320
5477.64,0.69406
5471.85,0.69330
5466.06,0.69353
5460.28,0.69675
5454.49,0.69592
5448.71,0.69614
5442.92,0.69934
5437.13,0.69897
5431.35,0.70093
5425.56,0.70303
5419.77,0.70348
5413.99,0.70312
5408.2,0.70348
5402.42,0.70558
5396.63,0.70576
5390.84,0.70544
5385.06,0.70548
5379.27,0.70619
5373.48,0.70483
5367.7,0.70354
5361.91,0.70503
5356.13,0.70473
5350.34,0.70359
5344.55,0.70075
5338.77,0.69873
5332.98,0.69789
5327.19,0.69479
5321.41,0.68983
5315.62,0.68564
5309.84,0.68069
5304.05,0.67576
5298.26,0.66758
5292.48,0.66045
5286.69,0.65058
5280.9,0.64122
5275.12,0.63122
5269.33,0.62079
5263.55,0.60904
5257.76,0.59915
5251.97,0.58920
5246.19,0.57978
5240.4,0.57128
5234.61,0.56535
5228.83,0.55809
5223.04,0.55469
5217.26,0.54948
5211.47,0.54639
5205.68,0.54424
5199.9,0.54327
5194.11,0.54146
5188.32,0.54332
5182.54,0.54105
5176.75,0.54402
5170.97,0.54500
5165.18,0.54753
5159.39,0.55047
5153.61,0.55323
5147.82,0.55651
5142.03,0.55809
5136.25,0.56160
5130.46,0.56468
5124.68,0.56883
5118.89,0.57201
5113.1,0.57607
5107.32,0.57698
5101.53,0.58044
5095.75,0.58342
5089.96,0.58628
5084.17,0.58982
5078.39,0.59187
5072.6,0.59423
5066.81,0.59717
5061.03,0.59988
5055.24,0.60230
5049.46,0.60373
5043.67,0.60679
5037.88,0.60840
5032.1,0.61209
5026.31,0.61269
5020.52,0.61530
5014.74,0.61553
5008.95,0.61702
5003.17,0.61814
4997.38,0.61815
4991.59,0.61731
4985.81,0.61654
4980.02,0.61529
4974.23,0.61303
4968.45,0.61259
4962.66,0.60895
4956.88,0.60619
4951.09,0.60376
4945.3,0.59971
4939.52,0.59444
4933.73,0.58865
4927.94,0.58475
4922.16,0.57934
4916.37,0.57532
4910.59,0.57031
4904.8,0.56505
4899.01,0.56083
4893.23,0.55492
4887.44,0.55038
4881.65,0.54665
4875.87,0.54064
4870.08,0.53633
4864.3,0.53222
4858.51,0.52871
4852.72,0.52418
4846.94,0.52048
4841.15,0.51852
4835.36,0.51290
4829.58,0.51010
4823.79,0.50758
4818.01,0.50357
4812.22,0.50263
4806.43,0.50047
4800.65,0.50016
4794.86,0.49668
4789.07,0.49615
4783.29,0.49576
4777.5,0.49406
4771.72,0.49434
4765.93,0.49378
4760.14,0.49387
4754.36,0.49307
4748.57,0.49387
4742.78,0.49420
4737,0.49499
4731.21,0.49543
4725.43,0.49660
4719.64,0.49839
4713.85,0.49935
4708.07,0.49961
4702.28,0.50115
4696.49,0.50215
4690.71,0.50268
4684.92,0.50379
4679.14,0.50556
4673.35,0.50705
4667.56,0.50859
4661.78,0.51097
4655.99,0.51367
4650.2,0.51541
4644.42,0.51868
4638.63,0.52098
4632.85,0.52378
4627.06,0.52611
4621.27,0.52825
4615.49,0.53215
4609.7,0.53528
4603.92,0.53788
4598.13,0.54160
4592.34,0.54410
4586.56,0.54629
4580.77,0.54883
4574.98,0.55035
4569.2,0.55172
4563.41,0.55394
4557.63,0.55519
4551.84,0.55731
4546.05,0.55775
4540.27,0.55869
4534.48,0.55969
4528.69,0.56098
4522.91,0.56168
4517.12,0.56150
4511.34,0.56198
4505.55,0.55921
4499.76,0.55746
4493.98,0.55651
4488.19,0.55228
4482.4,0.54901
4476.62,0.54477
4470.83,0.53800
4465.05,0.53238
4459.26,0.52450
4453.47,0.51698
4447.69,0.51090
4441.9,0.50381
4436.11,0.49735
4430.33,0.48915
4424.54,0.48099
4418.76,0.47443
4412.97,0.46734
4407.18,0.46264
4401.4,0.46016
4395.61,0.45962
4389.82,0.45955
4384.04,0.46256
4378.25,0.46407
4372.47,0.46537
4366.68,0.46908
4360.89,0.47087
4355.11,0.47135
4349.32,0.47066
4343.53,0.46995
4337.75,0.46923
4331.96,0.46686
4326.18,0.46477
4320.39,0.46150
4314.6,0.45951
4308.82,0.45716
4303.03,0.45437
4297.24,0.45168
4291.46,0.44913
4285.67,0.44848
4279.89,0.44733
4274.1,0.44790
4268.31,0.44867
4262.53,0.45039
4256.74,0.45113
4250.95,0.45301
4245.17,0.45350
4239.38,0.45447
4233.6,0.45411
4227.81,0.45357
4222.02,0.45354
4216.24,0.45407
4210.45,0.45427
4204.66,0.45497
4198.88,0.45429
4193.09,0.45527
4187.31,0.45582
4181.52,0.45661
4175.73,0.45848
4169.95,0.45980
4164.16,0.45994
4158.37,0.46037
4152.59,0.45932
4146.8,0.45790
4141.02,0.45613
4135.23,0.45306
4129.44,0.44894
4123.66,0.44550
4117.87,0.44092
4112.09,0.43644
4106.3,0.43160
4100.51,0.42635
4094.73,0.42035
4088.94,0.41401
4083.15,0.40884
4077.37,0.40329
4071.58,0.39734
4065.8,0.39189
4060.01,0.38613
4054.22,0.38014
4048.44,0.37553
4042.65,0.36964
4036.86,0.36617
4031.08,0.36294
4025.29,0.36053
4019.51,0.35881
4013.72,0.35825
4007.93,0.35805
4002.15,0.35903
3996.36,0.36022
3990.57,0.36093
3984.79,0.36241
3979,0.36491
3973.22,0.36601
3967.43,0.36854
3961.64,0.37077
3955.86,0.37315
3950.07,0.37615
3944.28,0.37924
3938.5,0.38193
3932.71,0.38509
3926.93,0.38832
3921.14,0.39074
3915.35,0.39386
3909.57,0.39579
3903.78,0.39969
3897.99,0.40159
3892.21,0.40336
3886.42,0.40617
3880.64,0.40812
3874.85,0.40912
3869.06,0.41279
3863.28,0.41521
3857.49,0.41784
3851.7,0.42083
3845.92,0.42324
3840.13,0.42507
3834.35,0.42667
3828.56,0.42747
3822.77,0.42804
3816.99,0.42801
3811.2,0.42726
3805.41,0.42658
3799.63,0.42735
3793.84,0.42668
3788.06,0.42633
3782.27,0.42536
3776.48,0.42437
3770.7,0.42276
3764.91,0.42176
3759.12,0.41945
3753.34,0.41705
3747.55,0.41431
3741.77,0.41037
3735.98,0.40736
3730.19,0.40195
3724.41,0.39693
3718.62,0.39043
3712.83,0.38381
3707.05,0.37496
3701.26,0.36431
3695.48,0.35264
3689.69,0.33832
3683.9,0.32007
3678.12,0.30201
3672.33,0.27979
3666.54,0.25726
3660.76,0.23842
3654.97,0.21995
3649.19,0.20276
3643.4,0.18706
3637.61,0.17361
3631.83,0.16172
3626.04,0.15027
3620.25,0.14038
3614.47,0.13041
3608.68,0.12171
3602.9,0.11433
3597.11,0.10593
3591.32,0.09980
3585.54,0.09312
3579.75,0.08863
3573.97,0.08298
3568.18,0.07961
3562.39,0.07554
3556.61,0.07205
3550.82,0.06957
3545.03,0.06719
3539.25,0.06467
3533.46,0.06218
3527.68,0.05979
3521.89,0.05918
3516.1,0.05706
3510.32,0.05574
3504.53,0.05401
3498.74,0.05299
3492.96,0.05195
3487.17,0.05089
3481.39,0.05119
3475.6,0.05047
3469.81,0.04973
3464.03,0.04917
3458.24,0.04955
3452.45,0.04876
3446.67,0.04841
3440.88,0.04838
3435.1,0.04830
3429.31,0.04801
3423.52,0.04858
3417.74,0.04891
3411.95,0.04888
3406.16,0.04812
3400.38,0.04933
3394.59,0.04877
3388.81,0.04992
3383.02,0.05045
3377.23,0.05038
3371.45,0.05002
3365.66,0.04998
3359.87,0.05100
3354.09,0.05197
3348.3,0.05213
3342.52,0.05304
3336.73,0.05427
3330.94,0.05479
3325.16,0.05630
3319.37,0.05636
3313.58,0.05686
3307.8,0.05872
3302.01,0.05918
3296.23,0.06017
3290.44,0.06054
3284.65,0.06146
3278.87,0.06307
3273.08,0.06486
3267.29,0.06534
3261.51,0.06670
3255.72,0.06794
3249.94,0.06901
3244.15,0.07045
3238.36,0.07297
3232.58,0.07471
3226.79,0.07627
3221,0.07861
3215.22,0.08045
3209.43,0.08226
3203.65,0.08488
3197.86,0.08681
3192.07,0.08943
3186.29,0.09144
3180.5,0.09436
3174.71,0.09631
3168.93,0.09920
3163.14,0.10103
3157.36,0.10413
3151.57,0.10690
3145.78,0.10885
3140,0.11209
3134.21,0.11431
3128.42,0.11725
3122.64,0.11987
3116.85,0.12387
3111.07,0.12636
3105.28,0.12833
3099.49,0.13131
3093.71,0.13359
3087.92,0.13598
3082.14,0.13891
3076.35,0.14042
3070.56,0.14284
3064.78,0.14535
3058.99,0.14780
3053.2,0.15008
3047.42,0.15179
3041.63,0.15317
3035.85,0.15493
3030.06,0.15591
3024.27,0.15561
3018.49,0.15442
3012.7,0.15220
3006.91,0.14902
3001.13,0.14546
2995.34,0.14276
2989.56,0.13872
2983.77,0.13257
2977.98,0.12425
2972.2,0.11471
2966.41,0.10732
2960.62,0.10243
2954.84,0.09836
2949.05,0.09410
2943.27,0.08993
2937.48,0.08763
2931.69,0.08717
2925.91,0.08655
2920.12,0.08597
2914.33,0.08511
2908.55,0.08590
2902.76,0.08594
2896.98,0.08705
2891.19,0.08770
2885.4,0.08920
2879.62,0.09065
2873.83,0.09198
2868.04,0.09545
2862.26,0.09847
2856.47,0.10209
2850.69,0.10586
2844.9,0.11138
2839.11,0.11784
2833.33,0.12534
2827.54,0.13366
2821.75,0.14162
2815.97,0.14840
2810.18,0.15453
2804.4,0.15985
2798.61,0.16459
2792.82,0.16769
2787.04,0.17052
2781.25,0.17303
2775.46,0.17493
2769.68,0.17615
2763.89,0.17729
2758.11,0.17859
2752.32,0.17938
2746.53,0.18012
2740.75,0.18027
2734.96,0.18129
2729.17,0.18264
2723.39,0.18429
2717.6,0.18689
2711.82,0.18923
2706.03,0.19251
2700.24,0.19511
2694.46,0.19785
2688.67,0.20075
2682.88,0.20345
2677.1,0.20588
2671.31,0.20779
2665.53,0.21015
2659.74,0.21198
2653.95,0.21372
2648.17,0.21558
2642.38,0.21763
2636.59,0.22022
2630.81,0.22259
2625.02,0.22510
2619.24,0.22677
2613.45,0.22854
2607.66,0.23068
2601.88,0.23288
2596.09,0.23458
2590.3,0.23582
2584.52,0.23736
2578.73,0.23844
2572.95,0.23946
2567.16,0.23964
2561.37,0.24019
2555.59,0.24060
2549.8,0.24089
2544.02,0.24123
2538.23,0.24197
2532.44,0.24356
2526.66,0.24602
2520.87,0.24788
2515.08,0.24941
2509.3,0.25137
2503.51,0.25458
2497.73,0.25764
2491.94,0.26042
2486.15,0.26335
2480.37,0.26610
2474.58,0.26844
2468.79,0.27069
2463.01,0.27282
2457.22,0.27537
2451.44,0.27766
2445.65,0.28036
2439.86,0.28329
2434.08,0.28592
2428.29,0.28925
2422.5,0.29292
2416.72,0.29608
2410.93,0.29990
2405.15,0.30237
2399.36,0.30534
2393.57,0.30848
2387.79,0.31087
2382,0.31348
2376.21,0.31620
2370.43,0.31871
2364.64,0.32096
2358.86,0.32269
2353.07,0.32413
2347.28,0.32504
2341.5,0.32733
2335.71,0.32791
2329.92,0.32941
2324.14,0.32995
2318.35,0.33016
2312.57,0.33035
2306.78,0.32973
2300.99,0.32898
2295.21,0.32812
2289.42,0.32732
2283.63,0.32684
2277.85,0.32581
2272.06,0.32369
2266.28,0.32143
2260.49,0.31916
2254.7,0.31826
2248.92,0.31694
2243.13,0.31588
2237.34,0.31502
2231.56,0.31349
2225.77,0.31296
2219.99,0.31270
2214.2,0.31268
2208.41,0.31126
2202.63,0.30996
2196.84,0.30713
2191.05,0.30426
2185.27,0.30071
2179.48,0.29709
2173.7,0.29304
2167.91,0.28978
2162.12,0.28700
2156.34,0.28526
2150.55,0.28364
2144.76,0.28190
2138.98,0.28057
2133.19,0.28011
2127.41,0.28059
2121.62,0.28178
2115.83,0.28274
2110.05,0.28396
2104.26,0.28543
2098.47,0.28632
2092.69,0.28774
2086.9,0.28786
2081.12,0.28710
2075.33,0.28580
2069.54,0.28461
2063.76,0.28329
2057.97,0.28263
2052.19,0.28277
2046.4,0.28392
2040.61,0.28633
2034.83,0.28919
2029.04,0.29278
2023.25,0.29655
2017.47,0.30029
2011.68,0.30368
2005.9,0.30636
2000.11,0.30863
1994.32,0.31088
1988.54,0.31310
1982.75,0.31540
1976.96,0.31739
1971.18,0.31917
1965.39,0.32153
1959.61,0.32443
1953.82,0.32794
1948.03,0.33157
1942.25,0.33488
1936.46,0.33742
1930.67,0.33978
1924.89,0.34136
1919.1,0.34239
1913.32,0.34320
1907.53,0.34301
1901.74,0.34274
1895.96,0.34253
1890.17,0.34211
1884.38,0.34142
1878.6,0.34104
1872.81,0.34068
1867.03,0.34039
1861.24,0.33922
1855.45,0.33789
1849.67,0.33616
1843.88,0.33429
1838.09,0.33160
1832.31,0.32921
1826.52,0.32629
1820.74,0.32229
1814.95,0.31791
1809.16,0.31276
1803.38,0.30688
1797.59,0.29940
1791.8,0.29035
1786.02,0.27824
1780.23,0.26216
1774.45,0.24075
1768.66,0.21015
1762.87,0.17927
1757.09,0.15028
1751.3,0.12987
1745.51,0.11787
1739.73,0.11344
1733.94,0.11459
1728.16,0.11963
1722.37,0.12727
1716.58,0.13917
1710.8,0.15144
1705.01,0.16104
1699.22,0.16454
1693.44,0.16166
1687.65,0.15548
1681.87,0.14299
1676.08,0.13045
1670.29,0.11755
1664.51,0.10968
1658.72,0.10774
1652.93,0.11048
1647.15,0.11167
1641.36,0.11112
1635.58,0.11090
1629.79,0.11138
1624,0.11101
1618.22,0.10937
1612.43,0.10458
1606.64,0.10072
1600.86,0.10053
1595.07,0.10158
1589.29,0.10424
1583.5,0.11323
1577.71,0.12885
1571.93,0.14902
1566.14,0.16467
1560.35,0.17279
1554.57,0.17567
1548.78,0.17378
1543,0.16988
1537.21,0.15924
1531.42,0.14126
1525.64,0.11582
1519.85,0.08523
1514.07,0.06832
1508.28,0.06706
1502.49,0.07564
1496.71,0.08691
1490.92,0.09381
1485.13,0.09257
1479.35,0.08695
1473.56,0.07704
1467.78,0.06797
1461.99,0.06607
1456.2,0.06558
1450.42,0.06530
1444.63,0.06749
1438.84,0.06563
1433.06,0.06141
1427.27,0.06037
1421.49,0.06236
1415.7,0.06584
1409.91,0.06911
1404.13,0.07046
1398.34,0.07018
1392.55,0.06748
1386.77,0.06296
1380.98,0.05870
1375.2,0.05737
1369.41,0.05875
1363.62,0.06089
1357.84,0.06270
1352.05,0.06387
1346.26,0.06388
1340.48,0.06219
1334.69,0.06122
1328.91,0.06090
1323.12,0.06032
1317.33,0.06024
1311.55,0.06168
1305.76,0.06362
1299.97,0.06359
1294.19,0.06114
1288.4,0.05784
1282.62,0.05428
1276.83,0.05260
1271.04,0.05192
1265.26,0.05276
1259.47,0.05432
1253.68,0.05635
1247.9,0.05671
1242.11,0.05640
1236.33,0.05575
1230.54,0.05611
1224.75,0.05686
1218.97,0.05731
1213.18,0.05751
1207.39,0.05764
1201.61,0.05902
1195.82,0.05937
1190.04,0.05808
1184.25,0.05364
1178.46,0.04826
1172.68,0.04509
1166.89,0.04556
1161.1,0.04918
1155.32,0.04959
1149.53,0.04865
1143.75,0.04625
1137.96,0.04434
1132.17,0.04241
1126.39,0.04265
1120.6,0.04394
1114.81,0.04558
1109.03,0.04850
1103.24,0.04937
1097.46,0.04829
1091.67,0.04822
1085.88,0.04914
1080.1,0.05253
1074.31,0.05706
1068.52,0.06318
1062.74,0.07108
1056.95,0.07674
1051.17,0.07606
1045.38,0.07345
1039.59,0.07524
1033.81,0.08138
1028.02,0.08394
1022.24,0.08604
1016.45,0.08748
1010.66,0.08916
1004.88,0.08973
999.09,0.09115
993.304,0.09412
987.518,0.09987
981.731,0.10660
975.945,0.11195
970.159,0.11354
964.373,0.11540
958.586,0.12067
952.8,0.12516
947.014,0.12872
941.228,0.13113
935.441,0.13363
929.655,0.13581
923.869,0.13726
918.083,0.13498
912.297,0.13001
906.51,0.12238
900.724,0.11598
894.938,0.11604
889.152,0.12179
883.365,0.12496
877.579,0.12747
871.793,0.12782
866.007,0.12947
860.22,0.13181
854.434,0.13536
848.648,0.13921
842.862,0.14109
837.075,0.13868
831.289,0.13429
825.503,0.13018
819.717,0.12390
813.931,0.11856
808.144,0.11803
802.358,0.12074
796.572,0.12317
790.786,0.12349
784.999,0.12210
779.213,0.11968
773.427,0.11682
767.641,0.11473
761.854,0.11289
756.068,0.11221
750.282,0.11000
744.496,0.10778
738.709,0.10497
732.923,0.10282
727.137,0.09986
721.351,0.09708
715.565,0.09621
709.778,0.09367
703.992,0.09242
698.206,0.09124
692.42,0.08985
686.633,0.08792
680.847,0.08528
675.061,0.08079
669.275,0.08158
663.488,0.08216
657.702,0.08191
651.916,0.08179
646.13,0.08176
640.343,0.07976
634.557,0.07594
628.771,0.07553
622.985,0.07616
617.198,0.07595
611.412,0.07849
605.626,0.08217
599.84,0.08039