File: 01_Data/Wood_Stud/FTIR/IS/Wood_Stud_IS_S_221031_R2.dpt
7497.03,0.84898
7491.25,0.83663
7485.46,0.83615
7479.67,0.82838
7473.89,0.83425
7468.1,0.83037
7462.32,0.82583
7456.53,0.83169
7450.74,0.84071
7444.96,0.83173
7439.17,0.81808
7433.38,0.82677
7427.6,0.81363
7421.81,0.82438
7416.03,0.80841
7410.24,0.81184
7404.45,0.80829
7398.67,0.80595
7392.88,0.81091
7387.09,0.80555
7381.31,0.81149
7375.52,0.80050
7369.74,0.79535
7363.95,0.80354
7358.16,0.79796
7352.38,0.79176
7346.59,0.79633
7340.8,0.80465
7335.02,0.79551
7329.23,0.77796
7323.45,0.79841
7317.66,0.78751
7311.87,0.78556
7306.09,0.78141
7300.3,0.78868
7294.51,0.78228
7288.73,0.77881
7282.94,0.77709
7277.16,0.77546
7271.37,0.77752
7265.58,0.77376
7259.8,0.78297
7254.01,0.77822
7248.22,0.77714
7242.44,0.77609
7236.65,0.78220
7230.87,0.76787
7225.08,0.77527
7219.29,0.77667
7213.51,0.77805
7207.72,0.77610
7201.93,0.76993
7196.15,0.77131
7190.36,0.77029
7184.58,0.76036
7178.79,0.76257
7173,0.74836
7167.22,0.75577
7161.43,0.75629
7155.65,0.76483
7149.86,0.74740
7144.07,0.73611
7138.29,0.73552
7132.5,0.73912
7126.71,0.73207
7120.93,0.72318
7115.14,0.72342
7109.36,0.71994
7103.57,0.71402
7097.78,0.71075
7092,0.71040
7086.21,0.70613
7080.42,0.69896
7074.64,0.69359
7068.85,0.69227
7063.07,0.67966
7057.28,0.67696
7051.49,0.67940
7045.71,0.67577
7039.92,0.66368
7034.13,0.66507
7028.35,0.66448
7022.56,0.65455
7016.78,0.64698
7010.99,0.65221
7005.2,0.64762
6999.42,0.63942
6993.63,0.64043
6987.84,0.64237
6982.06,0.63771
6976.27,0.63259
6970.49,0.62955
6964.7,0.63446
6958.91,0.63074
6953.13,0.62609
6947.34,0.62877
6941.55,0.62613
6935.77,0.62981
6929.98,0.63039
6924.2,0.62393
6918.41,0.63215
6912.62,0.63119
6906.84,0.62958
6901.05,0.62521
6895.26,0.62646
6889.48,0.62270
6883.69,0.61630
6877.91,0.62553
6872.12,0.62562
6866.33,0.62964
6860.55,0.62754
6854.76,0.62307
6848.97,0.62676
6843.19,0.62374
6837.4,0.62239
6831.62,0.61832
6825.83,0.61878
6820.04,0.62024
6814.26,0.62390
6808.47,0.62197
6802.68,0.61970
6796.9,0.62353
6791.11,0.61904
6785.33,0.62032
6779.54,0.62434
6773.75,0.62091
6767.97,0.62745
6762.18,0.62740
6756.39,0.62487
6750.61,0.62717
6744.82,0.62906
6739.04,0.62423
6733.25,0.62533
6727.46,0.63146
6721.68,0.62243
6715.89,0.62391
6710.1,0.62307
6704.32,0.62687
6698.53,0.63160
6692.75,0.62576
6686.96,0.62561
6681.17,0.63028
6675.39,0.63548
6669.6,0.63042
6663.82,0.63361
6658.03,0.63926
6652.24,0.64153
6646.46,0.63527
6640.67,0.63848
6634.88,0.63609
6629.1,0.63904
6623.31,0.63841
6617.53,0.64063
6611.74,0.64292
6605.95,0.64628
6600.17,0.63635
6594.38,0.64110
6588.59,0.64122
6582.81,0.64952
6577.02,0.64200
6571.24,0.64512
6565.45,0.64937
6559.66,0.64624
6553.88,0.65237
6548.09,0.64864
6542.3,0.64780
6536.52,0.64840
6530.73,0.64751
6524.95,0.65006
6519.16,0.65333
6513.37,0.65352
6507.59,0.65472
6501.8,0.65417
6496.01,0.65380
6490.23,0.65499
6484.44,0.65307
6478.66,0.64939
6472.87,0.65218
6467.08,0.65553
6461.3,0.65498
6455.51,0.66022
6449.72,0.65758
6443.94,0.65907
6438.15,0.66012
6432.37,0.66320
6426.58,0.65907
6420.79,0.65662
6415.01,0.66128
6409.22,0.65938
6403.43,0.65592
6397.65,0.66047
6391.86,0.65824
6386.08,0.65946
6380.29,0.65685
6374.5,0.65801
6368.72,0.66406
6362.93,0.65875
6357.14,0.66094
6351.36,0.65949
6345.57,0.66449
6339.79,0.66382
6334,0.66326
6328.21,0.66393
6322.43,0.66494
6316.64,0.66747
6310.85,0.66958
6305.07,0.66804
6299.28,0.66932
6293.5,0.66828
6287.71,0.66843
6281.92,0.66762
6276.14,0.67161
6270.35,0.67227
6264.56,0.67479
6258.78,0.67503
6252.99,0.67347
6247.21,0.67851
6241.42,0.67992
6235.63,0.67952
6229.85,0.68316
6224.06,0.68664
6218.27,0.68848
6212.49,0.68874
6206.7,0.69041
6200.92,0.69265
6195.13,0.69291
6189.34,0.69550
6183.56,0.69918
6177.77,0.69572
6171.98,0.69690
6166.2,0.70168
6160.41,0.70247
6154.63,0.70222
6148.84,0.70820
6143.05,0.70548
6137.27,0.70844
6131.48,0.70974
6125.7,0.70930
6119.91,0.70788
6114.12,0.71197
6108.34,0.71312
6102.55,0.71208
6096.76,0.71103
6090.98,0.71218
6085.19,0.71364
6079.41,0.71744
6073.62,0.71148
6067.83,0.71222
6062.05,0.70978
6056.26,0.70828
6050.47,0.70848
6044.69,0.71012
6038.9,0.71026
6033.12,0.71160
6027.33,0.70376
6021.54,0.70266
6015.76,0.70307
6009.97,0.70138
6004.18,0.69812
5998.4,0.69731
5992.61,0.69576
5986.83,0.69682
5981.04,0.69510
5975.25,0.69500
5969.47,0.69485
5963.68,0.69656
5957.89,0.69403
5952.11,0.69205
5946.32,0.69727
5940.54,0.69848
5934.75,0.69950
5928.96,0.69820
5923.18,0.69883
5917.39,0.69742
5911.6,0.69431
5905.82,0.69580
5900.03,0.69294
5894.25,0.69340
5888.46,0.69372
5882.67,0.68858
5876.89,0.68921
5871.1,0.69122
5865.31,0.68966
5859.53,0.69000
5853.74,0.69006
5847.96,0.68912
5842.17,0.68833
5836.38,0.68722
5830.6,0.68840
5824.81,0.68764
5819.02,0.68447
5813.24,0.68508
5807.45,0.68320
5801.67,0.68173
5795.88,0.68269
5790.09,0.68348
5784.31,0.68408
5778.52,0.68487
5772.73,0.68449
5766.95,0.68381
5761.16,0.68802
5755.38,0.68723
5749.59,0.68585
5743.8,0.68809
5738.02,0.68916
5732.23,0.68577
5726.44,0.68549
5720.66,0.68592
5714.87,0.68398
5709.09,0.68456
5703.3,0.68557
5697.51,0.68669
5691.73,0.68344
5685.94,0.68122
5680.15,0.68359
5674.37,0.68564
5668.58,0.68326
5662.8,0.68269
5657.01,0.68470
5651.22,0.68289
5645.44,0.68092
5639.65,0.68163
5633.87,0.67960
5628.08,0.68135
5622.29,0.67866
5616.51,0.68126
5610.72,0.68128
5604.93,0.67982
5599.15,0.68050
5593.36,0.68044
5587.58,0.67981
5581.79,0.68140
5576,0.68142
5570.22,0.68121
5564.43,0.68119
5558.64,0.68289
5552.86,0.68381
5547.07,0.68640
5541.29,0.68530
5535.5,0.68707
5529.71,0.68783
5523.93,0.68386
5518.14,0.68705
5512.35,0.68651
5506.57,0.68673
5500.78,0.68739
5495,0.68632
5489.21,0.68863
5483.42,0.68852
5477.64,0.68820
5471.85,0.68944
5466.06,0.68884
5460.28,0.69086
5454.49,0.69175
5448.71,0.69198
5442.92,0.69470
5437.13,0.69562
5431.35,0.69658
5425.56,0.69673
5419.77,0.69837
5413.99,0.69787
5408.2,0.69777
5402.42,0.70032
5396.63,0.70040
5390.84,0.70042
5385.06,0.70100
5379.27,0.69957
5373.48,0.70018
5367.7,0.69813
5361.91,0.69886
5356.13,0.69837
5350.34,0.69781
5344.55,0.69693
5338.77,0.69423
5332.98,0.69003
5327.19,0.68628
5321.41,0.68251
5315.62,0.67717
5309.84,0.67173
5304.05,0.66404
5298.26,0.65741
5292.48,0.64705
5286.69,0.63829
5280.9,0.62744
5275.12,0.61657
5269.33,0.60523
5263.55,0.59308
5257.76,0.58347
5251.97,0.57275
5246.19,0.56353
5240.4,0.55317
5234.61,0.54728
5228.83,0.54036
5223.04,0.53530
5217.26,0.53050
5211.47,0.52754
5205.68,0.52317
5199.9,0.52305
5194.11,0.52195
5188.32,0.52166
5182.54,0.52255
5176.75,0.52387
5170.97,0.52556
5165.18,0.52873
5159.39,0.53221
5153.61,0.53366
5147.82,0.53585
5142.03,0.53962
5136.25,0.54376
5130.46,0.54658
5124.68,0.54955
5118.89,0.55267
5113.1,0.55811
5107.32,0.56009
5101.53,0.56169
5095.75,0.56566
5089.96,0.56832
5084.17,0.57228
5078.39,0.57584
5072.6,0.57818
5066.81,0.58227
5061.03,0.58415
5055.24,0.58587
5049.46,0.58915
5043.67,0.59158
5037.88,0.59489
5032.1,0.59786
5026.31,0.59827
5020.52,0.60100
5014.74,0.60196
5008.95,0.60231
5003.17,0.60322
4997.38,0.60456
4991.59,0.60507
4985.81,0.60528
4980.02,0.60461
4974.23,0.60467
4968.45,0.60335
4962.66,0.60014
4956.88,0.59701
4951.09,0.59405
4945.3,0.59088
4939.52,0.58577
4933.73,0.58287
4927.94,0.57937
4922.16,0.57480
4916.37,0.56981
4910.59,0.56515
4904.8,0.55973
4899.01,0.55562
4893.23,0.55124
4887.44,0.54610
4881.65,0.54240
4875.87,0.53713
4870.08,0.53265
4864.3,0.52782
4858.51,0.52552
4852.72,0.52201
4846.94,0.51697
4841.15,0.51495
4835.36,0.51157
4829.58,0.50754
4823.79,0.50407
4818.01,0.50230
4812.22,0.49999
4806.43,0.49788
4800.65,0.49627
4794.86,0.49571
4789.07,0.49403
4783.29,0.49326
4777.5,0.49232
4771.72,0.49239
4765.93,0.49113
4760.14,0.49174
4754.36,0.49196
4748.57,0.49106
4742.78,0.49150
4737,0.49169
4731.21,0.49325
4725.43,0.49302
4719.64,0.49498
4713.85,0.49571
4708.07,0.49653
4702.28,0.49812
4696.49,0.49859
4690.71,0.49959
4684.92,0.50079
4679.14,0.50186
4673.35,0.50431
4667.56,0.50647
4661.78,0.50903
4655.99,0.50973
4650.2,0.51277
4644.42,0.51535
4638.63,0.51648
4632.85,0.52032
4627.06,0.52238
4621.27,0.52604
4615.49,0.52913
4609.7,0.53192
4603.92,0.53496
4598.13,0.53772
4592.34,0.54145
4586.56,0.54388
4580.77,0.54482
4574.98,0.54623
4569.2,0.54883
4563.41,0.55004
4557.63,0.55129
4551.84,0.55319
4546.05,0.55403
4540.27,0.55519
4534.48,0.55671
4528.69,0.55777
4522.91,0.55780
4517.12,0.55815
4511.34,0.55767
4505.55,0.55663
4499.76,0.55506
4493.98,0.55279
4488.19,0.54976
4482.4,0.54570
4476.62,0.54056
4470.83,0.53414
4465.05,0.52763
4459.26,0.52148
4453.47,0.51515
4447.69,0.50801
4441.9,0.50152
4436.11,0.49455
4430.33,0.48681
4424.54,0.47909
4418.76,0.47119
4412.97,0.46478
4407.18,0.46097
4401.4,0.45806
4395.61,0.45785
4389.82,0.45832
4384.04,0.45998
4378.25,0.46212
4372.47,0.46459
4366.68,0.46723
4360.89,0.46991
4355.11,0.46933
4349.32,0.46902
4343.53,0.46835
4337.75,0.46655
4331.96,0.46506
4326.18,0.46224
4320.39,0.45940
4314.6,0.45699
4308.82,0.45393
4303.03,0.45124
4297.24,0.44980
4291.46,0.44711
4285.67,0.44602
4279.89,0.44569
4274.1,0.44549
4268.31,0.44601
4262.53,0.44708
4256.74,0.44977
4250.95,0.44995
4245.17,0.45102
4239.38,0.45112
4233.6,0.45162
4227.81,0.45180
4222.02,0.45075
4216.24,0.45072
4210.45,0.45093
4204.66,0.45084
4198.88,0.45158
4193.09,0.45177
4187.31,0.45217
4181.52,0.45309
4175.73,0.45425
4169.95,0.45561
4164.16,0.45694
4158.37,0.45594
4152.59,0.45541
4146.8,0.45319
4141.02,0.45114
4135.23,0.44801
4129.44,0.44482
4123.66,0.44082
4117.87,0.43703
4112.09,0.43239
4106.3,0.42804
4100.51,0.42211
4094.73,0.41627
4088.94,0.41064
4083.15,0.40521
4077.37,0.39858
4071.58,0.39403
4065.8,0.38785
4060.01,0.38254
4054.22,0.37672
4048.44,0.37165
4042.65,0.36676
4036.86,0.36347
4031.08,0.36012
4025.29,0.35727
4019.51,0.35562
4013.72,0.35400
4007.93,0.35428
4002.15,0.35559
3996.36,0.35642
3990.57,0.35779
3984.79,0.35941
3979,0.36044
3973.22,0.36243
3967.43,0.36387
3961.64,0.36641
3955.86,0.36924
3950.07,0.37214
3944.28,0.37473
3938.5,0.37786
3932.71,0.38074
3926.93,0.38296
3921.14,0.38657
3915.35,0.38842
3909.57,0.39145
3903.78,0.39387
3897.99,0.39609
3892.21,0.39825
3886.42,0.40029
3880.64,0.40263
3874.85,0.40428
3869.06,0.40632
3863.28,0.40981
3857.49,0.41198
3851.7,0.41543
3845.92,0.41692
3840.13,0.41940
3834.35,0.42022
3828.56,0.42077
3822.77,0.42122
3816.99,0.42086
3811.2,0.42022
3805.41,0.42019
3799.63,0.41970
3793.84,0.41898
3788.06,0.41784
3782.27,0.41688
3776.48,0.41562
3770.7,0.41424
3764.91,0.41206
3759.12,0.40994
3753.34,0.40746
3747.55,0.40334
3741.77,0.40024
3735.98,0.39672
3730.19,0.39088
3724.41,0.38557
3718.62,0.37874
3712.83,0.37157
3707.05,0.36176
3701.26,0.35090
3695.48,0.33789
3689.69,0.32371
3683.9,0.30544
3678.12,0.28676
3672.33,0.26345
3666.54,0.24163
3660.76,0.22202
3654.97,0.20299
3649.19,0.18661
3643.4,0.17210
3637.61,0.15930
3631.83,0.14886
3626.04,0.13774
3620.25,0.12900
3614.47,0.12106
3608.68,0.11311
3602.9,0.10592
3597.11,0.09901
3591.32,0.09360
3585.54,0.08839
3579.75,0.08380
3573.97,0.07948
3568.18,0.07590
3562.39,0.07295
3556.61,0.07048
3550.82,0.06745
3545.03,0.06408
3539.25,0.06291
3533.46,0.06127
3527.68,0.05959
3521.89,0.05746
3516.1,0.05649
3510.32,0.05479
3504.53,0.05340
3498.74,0.05295
3492.96,0.05143
3487.17,0.04964
3481.39,0.04984
3475.6,0.04949
3469.81,0.04908
3464.03,0.04866
3458.24,0.04824
3452.45,0.04802
3446.67,0.04789
3440.88,0.04734
3435.1,0.04869
3429.31,0.04826
3423.52,0.04766
3417.74,0.04779
3411.95,0.04863
3406.16,0.04923
3400.38,0.04907
3394.59,0.04888
3388.81,0.04899
3383.02,0.04970
3377.23,0.04960
3371.45,0.05061
3365.66,0.04963
3359.87,0.05032
3354.09,0.05091
3348.3,0.05155
3342.52,0.05242
3336.73,0.05295
3330.94,0.05406
3325.16,0.05495
3319.37,0.05611
3313.58,0.05696
3307.8,0.05771
3302.01,0.05812
3296.23,0.05939
3290.44,0.06008
3284.65,0.06024
3278.87,0.06175
3273.08,0.06313
3267.29,0.06463
3261.51,0.06622
3255.72,0.06715
3249.94,0.06881
3244.15,0.06946
3238.36,0.07104
3232.58,0.07225
3226.79,0.07426
3221,0.07679
3215.22,0.07845
3209.43,0.07947
3203.65,0.08259
3197.86,0.08364
3192.07,0.08628
3186.29,0.08827
3180.5,0.09062
3174.71,0.09219
3168.93,0.09455
3163.14,0.09702
3157.36,0.09918
3151.57,0.10211
3145.78,0.10453
3140,0.10834
3134.21,0.11085
3128.42,0.11281
3122.64,0.11493
3116.85,0.11825
3111.07,0.12079
3105.28,0.12381
3099.49,0.12570
3093.71,0.12806
3087.92,0.13044
3082.14,0.13229
3076.35,0.13431
3070.56,0.13637
3064.78,0.13935
3058.99,0.14185
3053.2,0.14413
3047.42,0.14642
3041.63,0.14829
3035.85,0.14938
3030.06,0.15021
3024.27,0.15009
3018.49,0.14965
3012.7,0.14733
3006.91,0.14449
3001.13,0.14164
2995.34,0.13961
2989.56,0.13597
2983.77,0.13012
2977.98,0.12192
2972.2,0.11254
2966.41,0.10620
2960.62,0.10172
2954.84,0.09793
2949.05,0.09351
2943.27,0.08995
2937.48,0.08720
2931.69,0.08662
2925.91,0.08602
2920.12,0.08545
2914.33,0.08585
2908.55,0.08574
2902.76,0.08594
2896.98,0.08670
2891.19,0.08769
2885.4,0.08910
2879.62,0.09060
2873.83,0.09233
2868.04,0.09510
2862.26,0.09874
2856.47,0.10182
2850.69,0.10505
2844.9,0.11122
2839.11,0.11720
2833.33,0.12389
2827.54,0.13232
2821.75,0.13995
2815.97,0.14721
2810.18,0.15327
2804.4,0.15828
2798.61,0.16187
2792.82,0.16559
2787.04,0.16847
2781.25,0.17039
2775.46,0.17265
2769.68,0.17415
2763.89,0.17497
2758.11,0.17605
2752.32,0.17713
2746.53,0.17778
2740.75,0.17828
2734.96,0.17897
2729.17,0.18059
2723.39,0.18244
2717.6,0.18451
2711.82,0.18707
2706.03,0.18972
2700.24,0.19263
2694.46,0.19552
2688.67,0.19807
2682.88,0.20107
2677.1,0.20363
2671.31,0.20560
2665.53,0.20749
2659.74,0.20967
2653.95,0.21072
2648.17,0.21293
2642.38,0.21550
2636.59,0.21746
2630.81,0.22007
2625.02,0.22257
2619.24,0.22492
2613.45,0.22674
2607.66,0.22865
2601.88,0.23063
2596.09,0.23217
2590.3,0.23348
2584.52,0.23523
2578.73,0.23621
2572.95,0.23680
2567.16,0.23792
2561.37,0.23774
2555.59,0.23795
2549.8,0.23856
2544.02,0.23885
2538.23,0.24001
2532.44,0.24145
2526.66,0.24339
2520.87,0.24545
2515.08,0.24685
2509.3,0.24905
2503.51,0.25226
2497.73,0.25548
2491.94,0.25849
2486.15,0.26067
2480.37,0.26331
2474.58,0.26562
2468.79,0.26789
2463.01,0.27024
2457.22,0.27235
2451.44,0.27510
2445.65,0.27768
2439.86,0.28069
2434.08,0.28313
2428.29,0.28650
2422.5,0.29005
2416.72,0.29335
2410.93,0.29581
2405.15,0.29918
2399.36,0.30198
2393.57,0.30456
2387.79,0.30723
2382,0.30917
2376.21,0.31184
2370.43,0.31479
2364.64,0.31696
2358.86,0.31781
2353.07,0.31939
2347.28,0.32097
2341.5,0.32236
2335.71,0.32296
2329.92,0.32346
2324.14,0.32475
2318.35,0.32510
2312.57,0.32458
2306.78,0.32365
2300.99,0.32292
2295.21,0.32189
2289.42,0.32120
2283.63,0.32043
2277.85,0.31906
2272.06,0.31739
2266.28,0.31523
2260.49,0.31316
2254.7,0.31159
2248.92,0.31040
2243.13,0.30929
2237.34,0.30782
2231.56,0.30673
2225.77,0.30620
2219.99,0.30542
2214.2,0.30513
2208.41,0.30410
2202.63,0.30183
2196.84,0.29963
2191.05,0.29683
2185.27,0.29339
2179.48,0.28958
2173.7,0.28582
2167.91,0.28256
2162.12,0.27997
2156.34,0.27773
2150.55,0.27626
2144.76,0.27470
2138.98,0.27383
2133.19,0.27305
2127.41,0.27350
2121.62,0.27454
2115.83,0.27506
2110.05,0.27623
2104.26,0.27770
2098.47,0.27881
2092.69,0.28017
2086.9,0.28019
2081.12,0.27959
2075.33,0.27882
2069.54,0.27757
2063.76,0.27606
2057.97,0.27552
2052.19,0.27602
2046.4,0.27717
2040.61,0.27951
2034.83,0.28240
2029.04,0.28567
2023.25,0.28920
2017.47,0.29307
2011.68,0.29600
2005.9,0.29900
2000.11,0.30103
1994.32,0.30372
1988.54,0.30609
1982.75,0.30805
1976.96,0.30990
1971.18,0.31195
1965.39,0.31425
1959.61,0.31736
1953.82,0.32022
1948.03,0.32345
1942.25,0.32720
1936.46,0.33008
1930.67,0.33216
1924.89,0.33340
1919.1,0.33543
1913.32,0.33540
1907.53,0.33566
1901.74,0.33565
1895.96,0.33502
1890.17,0.33470
1884.38,0.33420
1878.6,0.33371
1872.81,0.33360
1867.03,0.33335
1861.24,0.33201
1855.45,0.33082
1849.67,0.32905
1843.88,0.32701
1838.09,0.32456
1832.31,0.32231
1826.52,0.31955
1820.74,0.31581
1814.95,0.31157
1809.16,0.30657
1803.38,0.30100
1797.59,0.29352
1791.8,0.28500
1786.02,0.27369
1780.23,0.25867
1774.45,0.23848
1768.66,0.20968
1762.87,0.17961
1757.09,0.15008
1751.3,0.12968
1745.51,0.11777
1739.73,0.11265
1733.94,0.11319
1728.16,0.11743
1722.37,0.12485
1716.58,0.13620
1710.8,0.14773
1705.01,0.15658
1699.22,0.15983
1693.44,0.15563
1687.65,0.14911
1681.87,0.13715
1676.08,0.12525
1670.29,0.11296
1664.51,0.10478
1658.72,0.10243
1652.93,0.10453
1647.15,0.10599
1641.36,0.10531
1635.58,0.10524
1629.79,0.10595
1624,0.10659
1618.22,0.10531
1612.43,0.10170
1606.64,0.09874
1600.86,0.09888
1595.07,0.09947
1589.29,0.10284
1583.5,0.11192
1577.71,0.12705
1571.93,0.14589
1566.14,0.16132
1560.35,0.16879
1554.57,0.17117
1548.78,0.16971
1543,0.16638
1537.21,0.15608
1531.42,0.13873
1525.64,0.11397
1519.85,0.08455
1514.07,0.06822
1508.28,0.06781
1502.49,0.07598
1496.71,0.08707
1490.92,0.09383
1485.13,0.09226
1479.35,0.08627
1473.56,0.07656
1467.78,0.06770
1461.99,0.06556
1456.2,0.06522
1450.42,0.06501
1444.63,0.06725
1438.84,0.06582
1433.06,0.06134
1427.27,0.06040
1421.49,0.06241
1415.7,0.06652
1409.91,0.06922
1404.13,0.07108
1398.34,0.07034
1392.55,0.06743
1386.77,0.06281
1380.98,0.05876
1375.2,0.05760
1369.41,0.05855
1363.62,0.06089
1357.84,0.06263
1352.05,0.06441
1346.26,0.06360
1340.48,0.06223
1334.69,0.06156
1328.91,0.06126
1323.12,0.06015
1317.33,0.05990
1311.55,0.06187
1305.76,0.06355
1299.97,0.06319
1294.19,0.06103
1288.4,0.05784
1282.62,0.05392
1276.83,0.05254
1271.04,0.05174
1265.26,0.05260
1259.47,0.05446
1253.68,0.05626
1247.9,0.05711
1242.11,0.05696
1236.33,0.05635
1230.54,0.05621
1224.75,0.05677
1218.97,0.05722
1213.18,0.05725
1207.39,0.05771
1201.61,0.05891
1195.82,0.05950
1190.04,0.05821
1184.25,0.05380
1178.46,0.04884
1172.68,0.04489
1166.89,0.04583
1161.1,0.04880
1155.32,0.05048
1149.53,0.04834
1143.75,0.04656
1137.96,0.04485
1132.17,0.04313
1126.39,0.04261
1120.6,0.04400
1114.81,0.04556
1109.03,0.04828
1103.24,0.04902
1097.46,0.04801
1091.67,0.04858
1085.88,0.04997
1080.1,0.05190
1074.31,0.05707
1068.52,0.06302
1062.74,0.07057
1056.95,0.07599
1051.17,0.07576
1045.38,0.07366
1039.59,0.07501
1033.81,0.08043
1028.02,0.08391
1022.24,0.08547
1016.45,0.08688
1010.66,0.08908
1004.88,0.08959
999.09,0.09162
993.304,0.09383
987.518,0.09961
981.731,0.10643
975.945,0.11100
970.159,0.11259
964.373,0.11552
958.586,0.11969
952.8,0.12507
947.014,0.12806
941.228,0.12974
935.441,0.13216
929.655,0.13482
923.869,0.13612
918.083,0.13413
912.297,0.12858
906.51,0.12031
900.724,0.11423
894.938,0.11439
889.152,0.12006
883.365,0.12386
877.579,0.12446
871.793,0.12540
866.007,0.12670
860.22,0.12835
854.434,0.13206
848.648,0.13468
842.862,0.13658
837.075,0.13453
831.289,0.12995
825.503,0.12577
819.717,0.12064
813.931,0.11585
808.144,0.11391
802.358,0.11614
796.572,0.11896
790.786,0.11905
784.999,0.11718
779.213,0.11390
773.427,0.11180
767.641,0.10971
761.854,0.10866
756.068,0.10746
750.282,0.10587
744.496,0.10275
738.709,0.10131
732.923,0.09923
727.137,0.09663
721.351,0.09380
715.565,0.09286
709.778,0.09079
703.992,0.08972
698.206,0.08837
692.42,0.08717
686.633,0.08581
680.847,0.08245
675.061,0.07947
669.275,0.07998
663.488,0.08094
657.702,0.07980
651.916,0.08026
646.13,0.07980
640.343,0.07842
634.557,0.07702
628.771,0.07539
622.985,0.07367
617.198,0.07524
611.412,0.07821
605.626,0.08118
599.84,0.07952