File: 01_Data/Wood_Stud/FTIR/IS/Wood_Stud_IS_S_221031_R1.dpt
7497.03,0.84849
7491.25,0.84398
7485.46,0.83334
7479.67,0.82858
7473.89,0.84411
7468.1,0.84305
7462.32,0.82434
7456.53,0.82304
7450.74,0.83097
7444.96,0.82541
7439.17,0.81881
7433.38,0.81879
7427.6,0.82761
7421.81,0.81808
7416.03,0.81317
7410.24,0.80292
7404.45,0.80828
7398.67,0.81090
7392.88,0.80983
7387.09,0.80655
7381.31,0.80802
7375.52,0.80322
7369.74,0.80549
7363.95,0.81144
7358.16,0.79719
7352.38,0.79856
7346.59,0.78485
7340.8,0.80245
7335.02,0.79748
7329.23,0.77940
7323.45,0.79556
7317.66,0.78522
7311.87,0.78404
7306.09,0.78298
7300.3,0.77924
7294.51,0.78051
7288.73,0.78117
7282.94,0.78376
7277.16,0.78230
7271.37,0.77687
7265.58,0.77020
7259.8,0.77879
7254.01,0.78102
7248.22,0.78661
7242.44,0.77778
7236.65,0.76795
7230.87,0.77876
7225.08,0.77654
7219.29,0.77957
7213.51,0.78071
7207.72,0.77271
7201.93,0.76812
7196.15,0.75849
7190.36,0.77162
7184.58,0.75676
7178.79,0.75716
7173,0.75959
7167.22,0.75984
7161.43,0.75495
7155.65,0.74214
7149.86,0.73549
7144.07,0.73577
7138.29,0.73642
7132.5,0.72645
7126.71,0.73375
7120.93,0.72709
7115.14,0.72144
7109.36,0.71858
7103.57,0.70961
7097.78,0.71146
7092,0.70797
7086.21,0.69649
7080.42,0.69549
7074.64,0.68949
7068.85,0.69096
7063.07,0.67595
7057.28,0.67565
7051.49,0.67045
7045.71,0.66478
7039.92,0.66027
7034.13,0.65879
7028.35,0.65614
7022.56,0.65349
7016.78,0.64564
7010.99,0.64150
7005.2,0.64236
6999.42,0.63543
6993.63,0.63454
6987.84,0.63292
6982.06,0.63214
6976.27,0.62787
6970.49,0.63328
6964.7,0.62908
6958.91,0.62577
6953.13,0.62165
6947.34,0.62319
6941.55,0.62205
6935.77,0.62585
6929.98,0.61940
6924.2,0.62181
6918.41,0.61834
6912.62,0.61844
6906.84,0.62449
6901.05,0.62288
6895.26,0.61830
6889.48,0.61969
6883.69,0.62198
6877.91,0.61741
6872.12,0.61677
6866.33,0.62142
6860.55,0.62178
6854.76,0.61823
6848.97,0.61868
6843.19,0.61432
6837.4,0.61815
6831.62,0.61889
6825.83,0.62039
6820.04,0.61866
6814.26,0.61949
6808.47,0.61836
6802.68,0.62088
6796.9,0.61720
6791.11,0.61454
6785.33,0.61814
6779.54,0.61681
6773.75,0.61631
6767.97,0.61414
6762.18,0.61924
6756.39,0.61527
6750.61,0.62227
6744.82,0.62543
6739.04,0.62360
6733.25,0.61654
6727.46,0.62450
6721.68,0.62487
6715.89,0.62604
6710.1,0.62988
6704.32,0.62584
6698.53,0.63005
6692.75,0.62465
6686.96,0.62861
6681.17,0.63001
6675.39,0.62371
6669.6,0.63005
6663.82,0.63256
6658.03,0.62964
6652.24,0.63258
6646.46,0.63267
6640.67,0.63563
6634.88,0.63594
6629.1,0.63416
6623.31,0.64226
6617.53,0.63629
6611.74,0.63915
6605.95,0.63987
6600.17,0.64174
6594.38,0.64304
6588.59,0.64235
6582.81,0.64242
6577.02,0.63924
6571.24,0.64133
6565.45,0.64505
6559.66,0.64951
6553.88,0.64754
6548.09,0.64935
6542.3,0.64187
6536.52,0.64667
6530.73,0.64678
6524.95,0.64637
6519.16,0.65276
6513.37,0.65354
6507.59,0.64622
6501.8,0.64670
6496.01,0.64886
6490.23,0.64885
6484.44,0.65007
6478.66,0.64932
6472.87,0.65270
6467.08,0.65348
6461.3,0.65365
6455.51,0.65176
6449.72,0.64969
6443.94,0.65381
6438.15,0.65352
6432.37,0.65809
6426.58,0.66170
6420.79,0.65705
6415.01,0.65608
6409.22,0.65463
6403.43,0.65669
6397.65,0.65778
6391.86,0.65849
6386.08,0.65910
6380.29,0.65818
6374.5,0.65740
6368.72,0.65958
6362.93,0.65898
6357.14,0.66286
6351.36,0.66262
6345.57,0.66045
6339.79,0.66585
6334,0.66398
6328.21,0.66502
6322.43,0.66242
6316.64,0.66636
6310.85,0.65922
6305.07,0.66580
6299.28,0.66381
6293.5,0.66285
6287.71,0.66540
6281.92,0.66857
6276.14,0.66817
6270.35,0.67178
6264.56,0.67384
6258.78,0.67427
6252.99,0.67727
6247.21,0.67495
6241.42,0.67486
6235.63,0.67928
6229.85,0.68285
6224.06,0.68281
6218.27,0.68273
6212.49,0.68720
6206.7,0.68628
6200.92,0.69375
6195.13,0.69071
6189.34,0.69196
6183.56,0.69493
6177.77,0.69307
6171.98,0.69548
6166.2,0.69919
6160.41,0.70125
6154.63,0.70127
6148.84,0.69992
6143.05,0.70293
6137.27,0.70547
6131.48,0.70381
6125.7,0.70406
6119.91,0.70764
6114.12,0.71023
6108.34,0.70963
6102.55,0.70787
6096.76,0.70935
6090.98,0.70984
6085.19,0.70783
6079.41,0.70891
6073.62,0.70845
6067.83,0.71142
6062.05,0.70782
6056.26,0.70762
6050.47,0.70864
6044.69,0.70763
6038.9,0.70660
6033.12,0.70336
6027.33,0.70271
6021.54,0.70240
6015.76,0.69999
6009.97,0.70026
6004.18,0.69828
5998.4,0.69650
5992.61,0.69756
5986.83,0.69382
5981.04,0.69234
5975.25,0.69350
5969.47,0.69259
5963.68,0.69389
5957.89,0.69381
5952.11,0.69324
5946.32,0.69876
5940.54,0.69713
5934.75,0.69772
5928.96,0.69607
5923.18,0.69530
5917.39,0.69734
5911.6,0.69390
5905.82,0.69200
5900.03,0.68958
5894.25,0.69127
5888.46,0.69159
5882.67,0.69088
5876.89,0.69062
5871.1,0.68795
5865.31,0.68951
5859.53,0.68834
5853.74,0.69013
5847.96,0.69120
5842.17,0.68916
5836.38,0.68790
5830.6,0.68493
5824.81,0.68383
5819.02,0.68334
5813.24,0.68544
5807.45,0.68011
5801.67,0.68361
5795.88,0.68140
5790.09,0.68630
5784.31,0.68489
5778.52,0.68290
5772.73,0.68544
5766.95,0.68506
5761.16,0.68544
5755.38,0.68863
5749.59,0.68683
5743.8,0.68397
5738.02,0.68511
5732.23,0.68574
5726.44,0.68528
5720.66,0.68635
5714.87,0.68450
5709.09,0.68345
5703.3,0.68233
5697.51,0.68377
5691.73,0.68244
5685.94,0.68157
5680.15,0.68184
5674.37,0.68284
5668.58,0.68049
5662.8,0.68250
5657.01,0.67868
5651.22,0.67949
5645.44,0.67875
5639.65,0.67860
5633.87,0.67945
5628.08,0.67900
5622.29,0.67920
5616.51,0.67909
5610.72,0.67869
5604.93,0.67848
5599.15,0.67866
5593.36,0.67763
5587.58,0.67732
5581.79,0.68177
5576,0.68152
5570.22,0.68012
5564.43,0.68188
5558.64,0.68019
5552.86,0.68376
5547.07,0.68226
5541.29,0.68317
5535.5,0.68463
5529.71,0.68359
5523.93,0.68439
5518.14,0.68423
5512.35,0.68334
5506.57,0.68652
5500.78,0.68619
5495,0.68525
5489.21,0.68646
5483.42,0.68612
5477.64,0.68687
5471.85,0.68811
5466.06,0.68837
5460.28,0.69052
5454.49,0.69002
5448.71,0.69143
5442.92,0.69206
5437.13,0.69443
5431.35,0.69270
5425.56,0.69402
5419.77,0.69581
5413.99,0.69538
5408.2,0.69681
5402.42,0.69966
5396.63,0.69880
5390.84,0.69868
5385.06,0.69760
5379.27,0.69992
5373.48,0.69789
5367.7,0.69787
5361.91,0.69510
5356.13,0.69443
5350.34,0.69433
5344.55,0.69177
5338.77,0.69068
5332.98,0.68739
5327.19,0.68555
5321.41,0.67897
5315.62,0.67325
5309.84,0.66756
5304.05,0.66054
5298.26,0.65271
5292.48,0.64447
5286.69,0.63427
5280.9,0.62414
5275.12,0.60862
5269.33,0.59798
5263.55,0.58681
5257.76,0.57252
5251.97,0.56267
5246.19,0.55321
5240.4,0.54360
5234.61,0.53530
5228.83,0.52938
5223.04,0.52131
5217.26,0.51693
5211.47,0.51571
5205.68,0.51324
5199.9,0.51021
5194.11,0.50844
5188.32,0.50893
5182.54,0.50939
5176.75,0.51110
5170.97,0.51163
5165.18,0.51534
5159.39,0.51706
5153.61,0.52080
5147.82,0.52287
5142.03,0.52684
5136.25,0.53014
5130.46,0.53378
5124.68,0.53817
5118.89,0.54188
5113.1,0.54449
5107.32,0.54872
5101.53,0.55036
5095.75,0.55539
5089.96,0.55799
5084.17,0.56076
5078.39,0.56536
5072.6,0.56814
5066.81,0.57004
5061.03,0.57230
5055.24,0.57627
5049.46,0.57902
5043.67,0.58235
5037.88,0.58316
5032.1,0.58592
5026.31,0.58877
5020.52,0.59052
5014.74,0.59143
5008.95,0.59489
5003.17,0.59606
4997.38,0.59797
4991.59,0.59816
4985.81,0.59754
4980.02,0.59740
4974.23,0.59632
4968.45,0.59488
4962.66,0.59411
4956.88,0.59205
4951.09,0.58875
4945.3,0.58581
4939.52,0.58252
4933.73,0.57990
4927.94,0.57529
4922.16,0.57044
4916.37,0.56729
4910.59,0.56193
4904.8,0.55910
4899.01,0.55414
4893.23,0.54784
4887.44,0.54443
4881.65,0.53982
4875.87,0.53577
4870.08,0.53088
4864.3,0.52660
4858.51,0.52325
4852.72,0.51874
4846.94,0.51623
4841.15,0.51203
4835.36,0.50990
4829.58,0.50659
4823.79,0.50295
4818.01,0.50085
4812.22,0.50024
4806.43,0.49657
4800.65,0.49479
4794.86,0.49310
4789.07,0.49196
4783.29,0.49185
4777.5,0.49117
4771.72,0.49052
4765.93,0.48920
4760.14,0.48957
4754.36,0.48942
4748.57,0.48978
4742.78,0.49025
4737,0.49030
4731.21,0.49127
4725.43,0.49221
4719.64,0.49229
4713.85,0.49411
4708.07,0.49515
4702.28,0.49504
4696.49,0.49685
4690.71,0.49767
4684.92,0.49978
4679.14,0.49971
4673.35,0.50250
4667.56,0.50526
4661.78,0.50700
4655.99,0.50861
4650.2,0.51104
4644.42,0.51393
4638.63,0.51602
4632.85,0.51742
4627.06,0.52082
4621.27,0.52388
4615.49,0.52624
4609.7,0.53023
4603.92,0.53330
4598.13,0.53612
4592.34,0.53860
4586.56,0.54078
4580.77,0.54266
4574.98,0.54463
4569.2,0.54632
4563.41,0.54766
4557.63,0.55012
4551.84,0.55065
4546.05,0.55151
4540.27,0.55324
4534.48,0.55468
4528.69,0.55554
4522.91,0.55637
4517.12,0.55572
4511.34,0.55501
4505.55,0.55449
4499.76,0.55323
4493.98,0.55028
4488.19,0.54715
4482.4,0.54263
4476.62,0.53855
4470.83,0.53217
4465.05,0.52686
4459.26,0.52063
4453.47,0.51339
4447.69,0.50796
4441.9,0.50062
4436.11,0.49215
4430.33,0.48575
4424.54,0.47741
4418.76,0.47097
4412.97,0.46519
4407.18,0.45986
4401.4,0.45716
4395.61,0.45698
4389.82,0.45710
4384.04,0.45909
4378.25,0.46125
4372.47,0.46333
4366.68,0.46635
4360.89,0.46851
4355.11,0.46860
4349.32,0.46861
4343.53,0.46609
4337.75,0.46562
4331.96,0.46402
4326.18,0.46145
4320.39,0.45805
4314.6,0.45521
4308.82,0.45354
4303.03,0.45085
4297.24,0.44884
4291.46,0.44609
4285.67,0.44551
4279.89,0.44455
4274.1,0.44416
4268.31,0.44506
4262.53,0.44605
4256.74,0.44776
4250.95,0.44844
4245.17,0.44931
4239.38,0.44937
4233.6,0.44892
4227.81,0.44963
4222.02,0.44952
4216.24,0.44830
4210.45,0.44859
4204.66,0.44902
4198.88,0.44965
4193.09,0.44995
4187.31,0.45019
4181.52,0.45166
4175.73,0.45239
4169.95,0.45400
4164.16,0.45457
4158.37,0.45376
4152.59,0.45303
4146.8,0.45093
4141.02,0.44847
4135.23,0.44552
4129.44,0.44153
4123.66,0.43740
4117.87,0.43266
4112.09,0.42836
4106.3,0.42408
4100.51,0.41914
4094.73,0.41340
4088.94,0.40772
4083.15,0.40263
4077.37,0.39706
4071.58,0.39079
4065.8,0.38476
4060.01,0.38017
4054.22,0.37448
4048.44,0.36917
4042.65,0.36463
4036.86,0.36095
4031.08,0.35773
4025.29,0.35510
4019.51,0.35347
4013.72,0.35243
4007.93,0.35182
4002.15,0.35292
3996.36,0.35346
3990.57,0.35483
3984.79,0.35643
3979,0.35790
3973.22,0.35982
3967.43,0.36156
3961.64,0.36447
3955.86,0.36689
3950.07,0.36952
3944.28,0.37206
3938.5,0.37423
3932.71,0.37695
3926.93,0.38051
3921.14,0.38337
3915.35,0.38586
3909.57,0.38805
3903.78,0.39086
3897.99,0.39311
3892.21,0.39539
3886.42,0.39788
3880.64,0.39941
3874.85,0.40109
3869.06,0.40274
3863.28,0.40613
3857.49,0.40811
3851.7,0.41157
3845.92,0.41326
3840.13,0.41522
3834.35,0.41693
3828.56,0.41646
3822.77,0.41695
3816.99,0.41690
3811.2,0.41496
3805.41,0.41556
3799.63,0.41531
3793.84,0.41385
3788.06,0.41265
3782.27,0.41102
3776.48,0.40982
3770.7,0.40808
3764.91,0.40562
3759.12,0.40330
3753.34,0.40077
3747.55,0.39770
3741.77,0.39315
3735.98,0.38881
3730.19,0.38305
3724.41,0.37763
3718.62,0.37012
3712.83,0.36262
3707.05,0.35239
3701.26,0.34120
3695.48,0.32812
3689.69,0.31303
3683.9,0.29371
3678.12,0.27481
3672.33,0.25230
3666.54,0.22987
3660.76,0.20946
3654.97,0.19146
3649.19,0.17531
3643.4,0.16033
3637.61,0.14941
3631.83,0.13924
3626.04,0.12931
3620.25,0.12185
3614.47,0.11363
3608.68,0.10578
3602.9,0.10097
3597.11,0.09428
3591.32,0.08861
3585.54,0.08380
3579.75,0.08016
3573.97,0.07639
3568.18,0.07312
3562.39,0.07038
3556.61,0.06682
3550.82,0.06473
3545.03,0.06335
3539.25,0.06112
3533.46,0.05965
3527.68,0.05784
3521.89,0.05568
3516.1,0.05546
3510.32,0.05377
3504.53,0.05192
3498.74,0.05143
3492.96,0.05041
3487.17,0.04986
3481.39,0.04945
3475.6,0.04883
3469.81,0.04716
3464.03,0.04681
3458.24,0.04751
3452.45,0.04754
3446.67,0.04726
3440.88,0.04803
3435.1,0.04739
3429.31,0.04737
3423.52,0.04776
3417.74,0.04768
3411.95,0.04817
3406.16,0.04826
3400.38,0.04837
3394.59,0.04828
3388.81,0.04848
3383.02,0.04855
3377.23,0.04949
3371.45,0.04900
3365.66,0.04933
3359.87,0.05029
3354.09,0.05105
3348.3,0.05190
3342.52,0.05288
3336.73,0.05301
3330.94,0.05430
3325.16,0.05488
3319.37,0.05540
3313.58,0.05635
3307.8,0.05679
3302.01,0.05759
3296.23,0.05767
3290.44,0.05928
3284.65,0.05982
3278.87,0.06163
3273.08,0.06116
3267.29,0.06340
3261.51,0.06475
3255.72,0.06515
3249.94,0.06721
3244.15,0.06839
3238.36,0.06981
3232.58,0.07204
3226.79,0.07286
3221,0.07482
3215.22,0.07626
3209.43,0.07734
3203.65,0.07923
3197.86,0.08195
3192.07,0.08327
3186.29,0.08545
3180.5,0.08728
3174.71,0.08969
3168.93,0.09220
3163.14,0.09384
3157.36,0.09649
3151.57,0.09921
3145.78,0.10054
3140,0.10371
3134.21,0.10619
3128.42,0.10830
3122.64,0.11108
3116.85,0.11385
3111.07,0.11584
3105.28,0.11869
3099.49,0.12084
3093.71,0.12288
3087.92,0.12548
3082.14,0.12748
3076.35,0.12972
3070.56,0.13186
3064.78,0.13398
3058.99,0.13701
3053.2,0.13950
3047.42,0.14139
3041.63,0.14336
3035.85,0.14467
3030.06,0.14572
3024.27,0.14613
3018.49,0.14525
3012.7,0.14345
3006.91,0.14088
3001.13,0.13860
2995.34,0.13668
2989.56,0.13395
2983.77,0.12832
2977.98,0.12026
2972.2,0.11155
2966.41,0.10527
2960.62,0.10126
2954.84,0.09764
2949.05,0.09293
2943.27,0.08945
2937.48,0.08734
2931.69,0.08690
2925.91,0.08572
2920.12,0.08560
2914.33,0.08536
2908.55,0.08558
2902.76,0.08586
2896.98,0.08604
2891.19,0.08765
2885.4,0.08944
2879.62,0.09051
2873.83,0.09220
2868.04,0.09479
2862.26,0.09840
2856.47,0.10094
2850.69,0.10462
2844.9,0.11019
2839.11,0.11616
2833.33,0.12387
2827.54,0.13107
2821.75,0.13895
2815.97,0.14594
2810.18,0.15157
2804.4,0.15634
2798.61,0.16054
2792.82,0.16414
2787.04,0.16664
2781.25,0.16868
2775.46,0.17055
2769.68,0.17188
2763.89,0.17318
2758.11,0.17441
2752.32,0.17514
2746.53,0.17590
2740.75,0.17619
2734.96,0.17735
2729.17,0.17877
2723.39,0.18078
2717.6,0.18273
2711.82,0.18520
2706.03,0.18823
2700.24,0.19122
2694.46,0.19352
2688.67,0.19637
2682.88,0.19912
2677.1,0.20158
2671.31,0.20406
2665.53,0.20597
2659.74,0.20765
2653.95,0.20971
2648.17,0.21129
2642.38,0.21376
2636.59,0.21633
2630.81,0.21867
2625.02,0.22077
2619.24,0.22276
2613.45,0.22483
2607.66,0.22690
2601.88,0.22888
2596.09,0.23019
2590.3,0.23155
2584.52,0.23273
2578.73,0.23421
2572.95,0.23526
2567.16,0.23571
2561.37,0.23620
2555.59,0.23650
2549.8,0.23651
2544.02,0.23678
2538.23,0.23744
2532.44,0.23941
2526.66,0.24186
2520.87,0.24344
2515.08,0.24512
2509.3,0.24761
2503.51,0.25044
2497.73,0.25377
2491.94,0.25658
2486.15,0.25872
2480.37,0.26138
2474.58,0.26426
2468.79,0.26637
2463.01,0.26833
2457.22,0.27036
2451.44,0.27335
2445.65,0.27592
2439.86,0.27854
2434.08,0.28128
2428.29,0.28432
2422.5,0.28798
2416.72,0.29093
2410.93,0.29363
2405.15,0.29630
2399.36,0.29942
2393.57,0.30228
2387.79,0.30445
2382,0.30679
2376.21,0.30884
2370.43,0.31101
2364.64,0.31322
2358.86,0.31454
2353.07,0.31597
2347.28,0.31711
2341.5,0.31844
2335.71,0.31944
2329.92,0.31972
2324.14,0.32044
2318.35,0.32068
2312.57,0.32066
2306.78,0.31951
2300.99,0.31878
2295.21,0.31765
2289.42,0.31650
2283.63,0.31605
2277.85,0.31488
2272.06,0.31294
2266.28,0.31030
2260.49,0.30831
2254.7,0.30660
2248.92,0.30514
2243.13,0.30425
2237.34,0.30291
2231.56,0.30157
2225.77,0.30070
2219.99,0.29983
2214.2,0.29933
2208.41,0.29788
2202.63,0.29599
2196.84,0.29400
2191.05,0.29090
2185.27,0.28751
2179.48,0.28348
2173.7,0.27995
2167.91,0.27681
2162.12,0.27432
2156.34,0.27219
2150.55,0.27036
2144.76,0.26864
2138.98,0.26773
2133.19,0.26773
2127.41,0.26771
2121.62,0.26833
2115.83,0.26975
2110.05,0.27059
2104.26,0.27218
2098.47,0.27289
2092.69,0.27375
2086.9,0.27398
2081.12,0.27367
2075.33,0.27263
2069.54,0.27177
2063.76,0.27017
2057.97,0.27009
2052.19,0.27050
2046.4,0.27164
2040.61,0.27372
2034.83,0.27639
2029.04,0.28004
2023.25,0.28383
2017.47,0.28745
2011.68,0.29127
2005.9,0.29337
2000.11,0.29567
1994.32,0.29778
1988.54,0.30025
1982.75,0.30233
1976.96,0.30419
1971.18,0.30642
1965.39,0.30856
1959.61,0.31139
1953.82,0.31469
1948.03,0.31843
1942.25,0.32173
1936.46,0.32450
1930.67,0.32633
1924.89,0.32805
1919.1,0.32924
1913.32,0.32964
1907.53,0.33005
1901.74,0.32989
1895.96,0.32965
1890.17,0.32936
1884.38,0.32897
1878.6,0.32868
1872.81,0.32825
1867.03,0.32790
1861.24,0.32698
1855.45,0.32580
1849.67,0.32386
1843.88,0.32222
1838.09,0.31958
1832.31,0.31722
1826.52,0.31445
1820.74,0.31063
1814.95,0.30706
1809.16,0.30187
1803.38,0.29620
1797.59,0.28927
1791.8,0.28141
1786.02,0.27049
1780.23,0.25612
1774.45,0.23698
1768.66,0.20956
1762.87,0.17966
1757.09,0.15090
1751.3,0.13015
1745.51,0.11715
1739.73,0.11213
1733.94,0.11287
1728.16,0.11610
1722.37,0.12291
1716.58,0.13347
1710.8,0.14462
1705.01,0.15288
1699.22,0.15522
1693.44,0.15103
1687.65,0.14438
1681.87,0.13265
1676.08,0.12080
1670.29,0.10940
1664.51,0.10130
1658.72,0.09833
1652.93,0.10029
1647.15,0.10148
1641.36,0.10055
1635.58,0.10074
1629.79,0.10166
1624,0.10228
1618.22,0.10226
1612.43,0.09960
1606.64,0.09681
1600.86,0.09725
1595.07,0.09783
1589.29,0.10151
1583.5,0.11050
1577.71,0.12533
1571.93,0.14381
1566.14,0.15797
1560.35,0.16611
1554.57,0.16799
1548.78,0.16665
1543,0.16367
1537.21,0.15323
1531.42,0.13646
1525.64,0.11282
1519.85,0.08364
1514.07,0.06789
1508.28,0.06749
1502.49,0.07634
1496.71,0.08722
1490.92,0.09371
1485.13,0.09200
1479.35,0.08630
1473.56,0.07683
1467.78,0.06752
1461.99,0.06566
1456.2,0.06516
1450.42,0.06531
1444.63,0.06717
1438.84,0.06542
1433.06,0.06143
1427.27,0.06023
1421.49,0.06251
1415.7,0.06638
1409.91,0.06936
1404.13,0.07092
1398.34,0.07051
1392.55,0.06756
1386.77,0.06309
1380.98,0.05865
1375.2,0.05733
1369.41,0.05866
1363.62,0.06096
1357.84,0.06315
1352.05,0.06420
1346.26,0.06402
1340.48,0.06220
1334.69,0.06149
1328.91,0.06093
1323.12,0.06022
1317.33,0.06051
1311.55,0.06199
1305.76,0.06361
1299.97,0.06366
1294.19,0.06158
1288.4,0.05798
1282.62,0.05441
1276.83,0.05258
1271.04,0.05181
1265.26,0.05254
1259.47,0.05421
1253.68,0.05624
1247.9,0.05690
1242.11,0.05670
1236.33,0.05666
1230.54,0.05649
1224.75,0.05678
1218.97,0.05720
1213.18,0.05757
1207.39,0.05790
1201.61,0.05909
1195.82,0.05927
1190.04,0.05834
1184.25,0.05340
1178.46,0.04857
1172.68,0.04506
1166.89,0.04614
1161.1,0.04892
1155.32,0.05005
1149.53,0.04840
1143.75,0.04628
1137.96,0.04418
1132.17,0.04260
1126.39,0.04211
1120.6,0.04299
1114.81,0.04477
1109.03,0.04744
1103.24,0.04853
1097.46,0.04864
1091.67,0.04799
1085.88,0.04919
1080.1,0.05215
1074.31,0.05709
1068.52,0.06238
1062.74,0.06947
1056.95,0.07580
1051.17,0.07483
1045.38,0.07305
1039.59,0.07457
1033.81,0.08004
1028.02,0.08374
1022.24,0.08531
1016.45,0.08687
1010.66,0.08817
1004.88,0.08835
999.09,0.09084
993.304,0.09337
987.518,0.09891
981.731,0.10681
975.945,0.11117
970.159,0.11266
964.373,0.11516
958.586,0.11910
952.8,0.12388
947.014,0.12737
941.228,0.12923
935.441,0.13112
929.655,0.13307
923.869,0.13476
918.083,0.13238
912.297,0.12673
906.51,0.11892
900.724,0.11250
894.938,0.11262
889.152,0.11819
883.365,0.12146
877.579,0.12259
871.793,0.12293
866.007,0.12386
860.22,0.12580
854.434,0.12844
848.648,0.13226
842.862,0.13228
837.075,0.12953
831.289,0.12636
825.503,0.12221
819.717,0.11638
813.931,0.11185
808.144,0.11081
802.358,0.11285
796.572,0.11439
790.786,0.11371
784.999,0.11247
779.213,0.11017
773.427,0.10772
767.641,0.10628
761.854,0.10474
756.068,0.10381
750.282,0.10217
744.496,0.09969
738.709,0.09789
732.923,0.09459
727.137,0.09320
721.351,0.09027
715.565,0.08933
709.778,0.08857
703.992,0.08708
698.206,0.08674
692.42,0.08432
686.633,0.08241
680.847,0.08065
675.061,0.07873
669.275,0.07879
663.488,0.07843
657.702,0.07887
651.916,0.07954
646.13,0.07960
640.343,0.07678
634.557,0.07512
628.771,0.07505
622.985,0.07419
617.198,0.07513
611.412,0.07817
605.626,0.07857
599.84,0.07799