File: 01_Data/Plywood/Cone/Plywood_Cone_HF35Scan_190308_R1.csv
Names,Time,Stack TC,Smoke TC,Exh Press,Smoke Comp,Smoke Meas,CO Meter,CO2 Meter,O2 Meter,Sample Mass,Ext Coeff,Start Test,Flame Verif
Chan Gain,,500,500,1,1,1,1,1,1,1,1,1,1
Offset,,0,0,0.120824,0,0,0,0,0,0,0,0,0
Gain,,1,1,25.011,13.3584,14.8895,1,1,1,1.00093,1.03656,1,1
Units,sec,C,C,Pa,%,%,%,%,%,g,/m,,
Baseline,,38.725,39.985,175.177,99.665,96.6491,0.002473526,0.0686577,20.9309,-0.0793234,0.27943,,
8,1.75,38.3302,39.3714,173.028,99.3231,96.1395,0.002572302,0.0702077,20.9302,1019.96,0.296218,0,0
16,3.75,38.6305,39.6303,172.649,99.2795,96.5607,0.002781938,0.0719823,20.9298,1019.98,0.252472,0,0
24,5.75,38.3475,40.0518,178.033,99.2522,96.5098,0.002941441,0.0759178,20.9295,1019.88,0.254764,0,0
32,7.75,38.8332,39.7812,171.896,99.2183,96.1195,0.003102269,0.08006683,20.9272,1019.95,0.288513,0,0
40,9.75,38.8041,39.8479,173.763,99.1731,95.8959,0.003139343,0.0833519,20.9251,1019.89,0.305537,0,0
48,11.75,38.8856,39.7605,177.005,99.1339,95.8192,0.002999614,0.0851481,20.9223,1019.86,0.309232,0,0
56,13.75,38.8531,39.7584,180.46,99.0989,95.9487,0.00289886,0.0860201,20.9188,1019.86,0.293735,0,0
64,15.75,38.4907,39.8602,176.007,99.0296,95.761,0.002813175,0.086861,20.9169,1019.84,0.305177,0,0
72,17.75,38.3067,40.1357,170.645,98.9839,95.8196,0.002678267,0.0883419,20.9151,1019.82,0.29542,0,0
80,19.75,39.1128,39.9556,176.391,98.9293,95.5538,0.002597905,0.0902708,20.9138,1019.78,0.315658,0,0
88,21.75,38.90028,39.6383,175.201,98.8706,95.5324,0.002824253,0.0918011,20.9116,1019.76,0.312294,0,0
96,23.75,38.9155,39.9698,174.554,98.8616,95.7128,0.00319991,0.0928411,20.9092,1019.73,0.294317,0,0
104,25.75,39.2076,39.8693,174.91,98.8641,96.0573,0.003213432,0.0928419,20.9074,1019.72,0.26188,0,0
112,27.75,38.9602,40.2928,174.472,98.8722,96.0759,0.002735449,0.09127669,20.9058,1019.7,0.260866,0,0
120,29.75,39.2506,40.2758,175.557,98.8677,95.7046,0.002227932,0.0882984,20.905,1019.64,0.295656,0,0
128,31.75,39.0726,40.0553,175.551,98.8775,96.3376,0.001964878,0.08446414,20.9047,1019.65,0.236618,0,0
136,33.75,38.8453,40.2206,171.483,98.8914,95.7878,0.002018146,0.0813013,20.9067,1019.62,0.289933,0,0
144,35.75,38.9558,40.1819,172.739,98.8857,96.0191,0.002347554,0.07865265,20.9081,1019.58,0.267481,0,0
152,37.75,39.1077,40.5009,171.104,98.8983,95.0958,0.002386184,0.0766395,20.9088,1019.57,0.3565,0,0
160,39.75,38.837,40.8629,174.456,98.9105,95.4647,0.00215195,0.0751509,20.909,1019.57,0.322414,0,0
168,41.75,38.7966,40.0518,173.702,98.9215,95.4188,0.001979211,0.0741147,20.9118,1019.53,0.327798,0,0
176,43.75,38.9056,39.9007,175.065,98.9313,95.2952,0.002087662,0.0733906,20.913,1019.5,0.340482,0,0
184,45.75,39.4467,40.3228,171.109,98.9334,95.8596,0.00229969,0.0729533,20.9143,1019.48,0.286981,0,0
192,47.75,38.8853,40.3654,180.037,98.9432,95.5574,0.002555984,0.0727112,20.9155,1019.45,0.316587,0,0
200,49.75,39.0994,40.257,180.747,98.9603,94.9317,0.002798358,0.0725931,20.917,1019.41,0.377893,0,0
208,51.75,39.2545,40.0669,175.484,98.9615,95.7901,0.0029061,0.0725458,20.9182,1019.4,0.296162,0,0
216,53.75,39.6935,40.0814,174.923,98.9672,95.1744,0.002955227,0.0728191,20.9198,1019.38,0.355319,0,0
224,55.75,38.8357,40.1334,178.119,98.9811,95.3107,0.003046638,0.0731214,20.9198,1019.33,0.343578,0,0
232,57.75,38.8889,40.372,173.879,98.9843,95.1317,0.003112985,0.0734778,20.9192,1019.28,0.360973,0,0
240,59.75,39.6116,40.5301,177.541,98.99,94.6904,0.003152341,0.0736081,20.9189,1019.25,0.403766,0,0
248,61.75,38.6741,40.8675,171.083,98.9925,94.904,0.003311522,0.0734153,20.9194,1019.19,0.383507,0,0
256,63.75,39.4524,40.2007,172.803,98.9925,94.1029,0.003450162,0.0731465,20.9203,1019.15,0.460583,0,0
264,65.75,39.2078,41.1738,172.904,99.0027,94.2592,0.003463431,0.0729098,20.9207,1019.1,0.446429,0,0
272,67.75,39.4892,40.8866,171.688,98.9908,94.9404,0.003545129,0.0729357,20.9212,1019.03,0.379874,0,0
280,69.75,39.5226,40.6068,174.275,98.9896,97.4327,0.003766176,0.0728481,20.9215,1018.99,0.144147,0,1
288,71.75,40.3752,41.5013,167.985,98.9831,95.6283,0.004071296,0.0728384,20.9216,1018.88,0.313515,0,1
296,73.75,40.5364,42.2195,166.116,98.986,96.6062,0.004281055,0.07385616,20.9216,1018.7,0.221273,0,1
304,75.75,41.9503,42.9884,160.188,98.9729,95.1417,0.004190718,0.0823543,20.9208,1018.52,0.358968,0,1
312,77.75,42.6239,43.9691,156.979,98.9513,95.5947,0.004070831,0.100592,20.918,1018.29,0.313792,0,0
320,79.75,43.6923,45.4269,162.897,98.9399,96.1704,0.004254772,0.133856,20.9113,1018.08,0.258147,0,0
328,81.75,45.3908,47.2058,158.972,98.9285,95.3157,0.004586538,0.179864,20.9014,1017.87,0.338268,0,0
336,83.75,45.2819,48.7207,161.539,98.926,96.2704,0.005059196,0.226164,20.8853,1017.7,0.247426,0,0
344,85.75,46.177,49.4155,163.179,98.9118,95.4979,0.005619991,0.266675,20.8656,1017.45,0.319367,0,0
352,87.75,47.3283,49.6635,158.832,98.8979,96.3208,0.006028027,0.292684,20.8451,1017.26,0.240079,0,0
360,89.75,48.1023,51.2145,162.816,98.8918,95.6238,0.006272926,0.304258,20.8297,1017.04,0.305555,0,0
368,91.75,48.2242,52.5006,162.982,98.8767,95.2584,0.006432239,0.30902,20.8126,1016.85,0.338973,0,0
376,93.75,49.0024,53.5237,163.315,98.8763,94.8931,0.006490722,0.312728,20.7939,1016.6,0.373874,0,0
384,95.75,50.4776,53.9269,163.184,98.8539,95.3043,0.006459199,0.317006,20.7793,1016.41,0.332493,0,0
392,97.75,49.8134,55.4161,153.857,98.9167,94.6059,0.006412398,0.322395,20.7665,1016.17,0.405143,0,0
400,99.75,50.8045,56.0813,158.527,99.0206,96.0913,0.006430994,0.32911,20.7519,1015.99,0.27304,0,0
408,101.75,51.1627,55.5458,158.27,99.0964,95.7933,0.006534266,0.335988,20.7376,1015.78,0.30825,0,0
416,103.75,51.5327,55.5065,161.919,99.1886,96.3208,0.00682679,0.338568,20.7265,1015.64,0.266763,0,0
424,105.75,52.3608,56.2551,163.195,99.2656,95.776,0.007111186,0.335086,20.7155,1015.44,0.325399,0,0
432,107.75,52.0669,56.4073,164.091,99.3508,97.4545,0.007120545,0.326226,20.7083,1015.31,0.175229,0,0
440,109.75,52.6441,56.8804,166.763,99.4071,96.1999,0.006994334,0.31578,20.7039,1015.11,0.298188,0,0
448,111.75,53.2946,57.5462,157.195,99.4544,96.2458,0.006684389,0.306573,20.6992,1014.96,0.298176,0,0
456,113.75,52.6163,57.7703,161.109,99.5196,95.9377,0.006357617,0.29946,20.6964,1014.79,0.33329,0,0
464,115.75,52.5312,58.7103,166.895,99.5493,96.9224,0.006035319,0.294276,20.6954,1014.66,0.243161,0,0
472,117.75,53.5412,57.7514,164.622,99.5913,96.7034,0.005753169,0.28996,20.695,1014.48,0.267565,0,0
480,119.75,53.191,57.5314,165.412,99.6488,97.2237,0.005571599,0.28508,20.6948,1014.3,0.224024,0,0
488,121.75,53.6538,58.2227,169.795,99.681,96.4735,0.005614436,0.279265,20.6959,1014.18,0.297393,0,0
496,123.75,53.7776,58.1889,163.329,99.7063,96.9474,0.005691871,0.27259,20.6974,1014.05,0.25514,0,0
504,125.75,53.4251,57.6478,162.326,99.7206,97.6458,0.005650278,0.266356,20.6992,1013.85,0.191174,0,0
512,127.75,53.2526,57.6496,166.812,99.7246,97.6163,0.005485852,0.261094,20.7017,1013.75,0.194297,0,0
520,129.75,53.6192,58.2884,162.513,99.723,97.4963,0.005271383,0.257093,20.7026,1013.59,0.205328,0,0
528,131.75,52.8071,58.2295,164.073,99.7177,97.1687,0.005049866,0.253858,20.7049,1013.49,0.235451,0,0
536,133.75,53.2327,57.4397,165.252,99.6957,97.5945,0.004874816,0.250797,20.7091,1013.32,0.193689,0,0
544,135.75,52.9035,57.1702,164.177,99.6509,97.9557,0.004773971,0.247917,20.7121,1013.15,0.156005,0,0
552,137.75,52.2551,58.5659,160.189,99.6182,96.8197,0.004694714,0.244934,20.7146,1013.04,0.259091,0,0
560,139.75,53.446,57.6207,164.997,99.5489,97.5495,0.004697618,0.24024,20.7178,1012.89,0.184486,0,0
568,141.75,52.5303,58.2534,166.495,99.4756,97.6463,0.00473047,0.235153,20.722,1012.75,0.168764,0,0
576,143.75,51.9124,58.2702,166.645,99.3704,96.647,0.004698232,0.229957,20.7267,1012.64,0.252668,0,0
584,145.75,52.9022,56.7407,166.753,99.2554,96.6339,0.004733924,0.226196,20.7294,1012.52,0.243383,0,0
592,147.75,52.3301,58.1649,165.779,99.1258,96.7934,0.00493024,0.223399,20.7336,1012.38,0.216505,0,0
600,149.75,52.3495,57.1052,164.131,99.103,96.7438,0.004889759,0.221234,20.7378,1012.26,0.219064,0,0
608,151.75,51.7215,57.8755,168.217,99.1441,97.096,0.004810305,0.218704,20.7406,1012.13,0.189804,0,0
616,153.75,52.2088,57.6717,166.63,99.1951,97.175,0.004957004,0.215867,20.7436,1012.01,0.187076,0,0
624,155.75,53.0092,56.4233,160.822,99.2485,97.216,0.005339792,0.212928,20.7482,1011.88,0.188143,0,0
632,157.75,51.2926,56.9714,170.165,99.3076,97.2509,0.005696196,0.2104256,20.751,1011.79,0.190285,0,0
640,159.75,52.7286,56.0477,167.897,99.383,98.072,0.005958213,0.208486,20.7534,1011.67,0.120741,0,0
648,161.75,52.3124,55.4769,167.382,99.4776,97.0955,0.006214005,0.206869,20.7569,1011.53,0.220378,0,0
656,163.75,52.0503,56.286,165.341,99.5416,97.1769,0.006292786,0.205235,20.761,1011.44,0.218613,0,0
664,165.75,52.2023,56.0388,169.067,99.6158,97.131,0.006217826,0.202618,20.7648,1011.33,0.229683,0,0
672,167.75,51.3825,56.5696,167.597,99.6884,97.8053,0.006224065,0.200214,20.7676,1011.18,0.173398,0,0
680,169.75,52.4596,55.6162,171.121,99.7393,97.5699,0.006350139,0.198656,20.7701,1011.06,0.199953,0,0
688,171.75,51.1688,56.2716,167.281,99.7785,97.7549,0.006578928,0.197228,20.7732,1010.94,0.186302,0,0
696,173.75,51.8993,55.3921,165.85,99.8021,97.5917,0.00685301,0.196081,20.7759,1010.83,0.203642,0,0
704,175.75,51.8021,54.5239,170.535,99.7976,97.8962,0.007002686,0.195153,20.7779,1010.75,0.174912,0,0
712,177.75,50.6212,55.8855,167.949,99.7882,97.4972,0.007079575,0.193917,20.7799,1010.58,0.211189,0,0
720,179.75,51.4481,54.0582,169.663,99.7528,97.6208,0.007076483,0.192751,20.7817,1010.48,0.196438,0,0
728,181.75,51.9882,54.4349,161.654,99.6769,96.8461,0.006997969,0.191613,20.7831,1010.35,0.261972,0,0
736,183.75,50.7027,54.8118,167.758,99.595,98.0925,0.006880771,0.190246,20.7852,1010.27,0.13822,0,0
744,185.75,50.7775,54.8294,165.883,99.4866,97.4281,0.00694821,0.188543,20.7876,1010.13,0.190103,0,0
752,187.75,50.741,54.7675,173.404,99.3553,97.0251,0.007216411,0.187149,20.79,1010.05,0.215791,0,0
760,189.75,51.4529,53.8662,168.837,99.1983,96.9047,0.007490654,0.18685,20.7914,1009.9,0.212707,0,0
768,191.75,50.8118,53.4205,166.874,99.019,96.8924,0.007402248,0.187384,20.7925,1009.81,0.197402,0,0
776,193.75,49.7832,54.7306,163.038,98.8315,97.0442,0.007103624,0.187782,20.7948,1009.7,0.165935,0,0
784,195.75,51.3483,53.8866,172.509,98.6476,96.8911,0.006793506,0.187206,20.7965,1009.57,0.163362,0,0
792,197.75,51.1132,53.0299,162.51,98.4637,95.6815,0.006529548,0.185663,20.7976,1009.46,0.260626,0,0
800,199.75,50.0628,53.8635,169.142,98.3043,96.8361,0.006366754,0.183879,20.799,1009.34,0.13683,0,0
808,201.75,50.846,52.9105,173.269,98.1286,95.6533,0.006548988,0.182209,20.7994,1009.23,0.232308,0,0
816,203.75,49.8799,53.6107,172.437,97.9933,95.3266,0.006889487,0.18052,20.7999,1009.1,0.250867,0,0
824,205.75,49.2679,54.0001,171.35,97.8869,96.3435,0.007141553,0.179507,20.8009,1009,0.144505,0,0
832,207.75,49.8884,53.3412,166.788,97.8172,95.3002,0.007438139,0.178984,20.8019,1008.89,0.237024,0,0
840,209.75,50.1245,52.9484,167.228,97.7744,96.937,0.007780034,0.178134,20.8028,1008.74,0.0782122,0,0
848,211.75,49.365,54.0216,164.912,97.7809,95.8555,0.008093989,0.177379,20.8049,1008.66,0.180828,0,0
856,213.75,49.5326,53.2406,172.025,97.8351,96.1949,0.008404977,0.1768969,20.8068,1008.52,0.153728,0,0
864,215.75,49.14,53.6864,169.362,97.9162,95.7424,0.008645113,0.176454,20.8076,1008.42,0.204144,0,0
872,217.75,50.3315,53.0106,163.923,98.0361,95.6169,0.008735023,0.175773,20.8092,1008.31,0.2271851,0,0
880,219.75,50.5505,52.7315,165.205,98.1694,96.9001,0.008755026,0.174833,20.81,1008.16,0.118327,0,0
888,221.75,50.2734,51.805,165.394,98.3325,96.0073,0.008747199,0.173989,20.8103,1008.05,0.217588,0,0
896,223.75,49.421,52.9475,168.662,98.5029,96.3935,0.008786102,0.173319,20.8105,1007.96,0.196827,0,0
904,225.75,49.4692,53.457,166.754,98.6745,96.3317,0.009076676,0.172611,20.8105,1007.83,0.218487,0,0
912,227.75,48.7886,53.2179,166.363,98.809,97.0801,0.009437656,0.17199,20.8117,1007.72,0.160508,0,0
920,229.75,50.5282,52.4551,169.657,98.9619,97.0574,0.009616885,0.171622,20.8125,1007.6,0.176694,0,0
928,231.75,49.5176,52.8755,168.216,99.0683,96.9142,0.009486675,0.171677,20.8133,1007.52,0.199884,0,0
936,233.75,50.6352,52.2369,167.798,99.1421,97.5399,0.009406553,0.171679,20.8142,1007.38,0.148139,0,0
944,235.75,49.0827,53.3861,169.231,99.191,97.8344,0.009604944,0.171601,20.8146,1007.26,0.125218,0,0
952,237.75,49.506,52.7827,169.671,99.2057,97.5127,0.009736365,0.171637,20.8148,1007.1,0.156512,0,0
960,239.75,49.662,51.908,164.817,99.1837,97.9639,0.009631459,0.171981,20.8148,1007.01,0.112518,0,0
968,241.75,50.1796,51.6361,165.692,99.1246,97.1905,0.00949869,0.172265,20.8149,1006.87,0.179163,0,0
976,243.75,50.8922,52.1942,167.444,99.0381,97.6208,0.009576957,0.171992,20.8151,1006.73,0.131064,0,0
984,245.75,49.9232,51.9144,166.272,98.9892,97.3518,0.009723371,0.171695,20.8155,1006.62,0.151662,0,0
992,247.75,49.8879,52.3907,167.125,98.9134,97.2296,0.009742094,0.172628,20.8156,1006.51,0.156117,0,0
1000,249.75,50.3044,51.9338,166.008,98.8608,97.6285,0.009714572,0.175489,20.8157,1006.4,0.114048,0,0
1008,251.75,50.7609,52.0481,161.544,98.9089,97.8257,0.009657726,0.1783,20.8157,1006.27,0.100123,0,0
1016,253.75,50.2246,52.8604,171.057,99.242,97.5059,0.009582601,0.179985,20.8143,1006.16,0.160471,0,0
1024,255.75,50.5446,51.951,166.767,99.4996,98.1597,0.009559387,0.180794,20.8134,1006.05,0.123276,0,0
1032,257.75,49.9047,53.2223,167.509,99.6537,98.8468,0.009768082,0.180915,20.8124,1005.91,0.07392773,0,0
1040,259.75,50.4179,53.0667,165.621,99.7299,98.2774,0.0100278,0.181093,20.8112,1005.79,0.133404,0,0
1048,261.75,51.1516,52.163,166.148,99.6961,97.918,0.01007,0.181269,20.8107,1005.67,0.163635,0,0
1056,263.75,50.1548,52.9697,164.297,99.5685,98.6368,0.009945135,0.181047,20.8105,1005.57,0.0854825,0,0
1064,265.75,49.9526,53.0597,167.766,99.3174,99.4125,0.009913782,0.180803,20.8102,1005.44,-0.00870046,0,0
1072,267.75,51.2406,52.6852,166.168,99.1091,97.1328,0.009989085,0.180679,20.8092,1005.32,0.183142,0,0
1080,269.75,49.7145,53.7029,166.342,99.2285,97.7689,0.009801016,0.180852,20.808,1005.2,0.134738,0,0
1088,271.75,49.5481,53.9367,167.58,99.3798,97.7489,0.009443842,0.181208,20.8075,1005.09,0.150446,0,0
1096,273.75,49.6628,53.7897,172.051,99.5273,97.6767,0.009164914,0.181464,20.8073,1004.97,0.170661,0,0
1104,275.75,50.9087,53.3054,169.248,99.6619,98.6514,0.008930782,0.181876,20.8072,1004.84,0.0926632,0,0
1112,277.75,49.8305,53.6413,168.768,99.7805,98.5373,0.008674562,0.182359,20.8077,1004.7,0.113997,0,0
1120,279.75,50.911,53.3558,165.961,99.816,97.9298,0.008674353,0.182337,20.8079,1004.6,0.173462,0,0
1128,281.75,50.9683,53.0553,168.257,99.7956,98.2947,0.008800445,0.1817,20.8079,1004.47,0.13779,0,0
1136,283.75,49.3788,54.025,166.711,99.6749,97.833,0.008771853,0.180981,20.808,1004.35,0.169594,0,0
1144,285.75,50.6776,53.0928,173.291,99.4902,99.1421,0.008760965,0.180799,20.808,1004.25,0.0318721,0,0
1152,287.75,49.8039,53.8266,168.461,99.2293,98.5928,0.008710266,0.181126,20.8073,1004.15,0.0585197,0,0
1160,289.75,50.767,52.5597,166.775,98.926,98.2715,0.008388586,0.181723,20.8075,1004.02,0.060359,0,0
1168,291.75,49.677,54.3114,160.266,98.586,98.0479,0.008201423,0.18215,20.8069,1003.88,0.0497651,0,0
1176,293.75,51.0831,52.576,166.65,98.2876,96.399,0.008399162,0.18261,20.8067,1003.75,0.176422,0,0
1184,295.75,50.081,54.1011,167.654,98.0438,97.0755,0.008580355,0.183324,20.8066,1003.66,0.09024667,0,0
1192,297.75,51.4452,52.5316,167.966,97.8657,97.1728,0.008460283,0.183976,20.8065,1003.52,0.06460683,0,0
1200,299.75,50.6282,53.7408,165.551,97.8078,96.0772,0.007996691,0.184434,20.806,1003.41,0.162319,0,0
1208,301.75,51.0645,52.9378,171.44,97.8551,96.702,0.007516771,0.185147,20.8048,1003.29,0.107778,0,0
1216,303.75,50.7873,53.0205,169.049,97.9925,96.7043,0.007340513,0.186066,20.8043,1003.18,0.120321,0,0
1224,305.75,51.3083,52.7874,169.859,98.2004,97.7907,0.007440559,0.18682,20.8041,1003.05,0.0380084,0,0
1232,307.75,51.781,52.6446,173.951,98.4487,97.8457,0.007663317,0.18737,20.804,1002.91,0.055856,0,0
1240,309.75,50.5194,53.8216,164.789,98.7006,97.6644,0.007720513,0.187716,20.804,1002.78,0.0959587,0,0
1248,311.75,50.9093,53.6531,166.981,98.935,98.5964,0.007573637,0.188103,20.804,1002.69,0.0311732,0,0
1256,313.75,51.8305,52.7195,161.418,99.0862,98.3456,0.007312199,0.188431,20.804,1002.58,0.0682234,0,0
1264,315.75,50.4917,54.9951,169.732,99.1796,97.2537,0.006981181,0.188472,20.804,1002.44,0.178302,0,0
1272,317.75,50.2174,55.0401,170.787,99.1882,97.9321,0.00667933,0.188229,20.8037,1002.33,0.115881,0,0
1280,319.75,50.2372,55.2083,166.441,99.1254,98.2311,0.006510518,0.18779,20.8024,1002.2,0.0824067,0,0
1288,321.75,50.761,54.8371,167.807,99.008,97.8094,0.006379962,0.187567,20.8014,1002.1,0.110747,0,0
1296,323.75,51.3118,53.3184,165.266,98.9118,98.3833,0.00618664,0.18746,20.8022,1001.96,0.0487119,0,0
1304,325.75,51.0342,54.4099,160.083,98.8335,96.9147,0.0060202,0.18764,20.8038,1001.84,0.178264,0,0
1312,327.75,52.2238,54.1342,169.513,98.8633,97.8312,0.005905522,0.188176,20.8038,1001.71,0.0954192,0,0
1320,329.75,50.6483,55.124,169.585,99.2986,97.7676,0.005693832,0.188813,20.8038,1001.61,0.141288,0,0
1328,331.75,50.5025,55.3793,163.586,99.573,98.2415,0.005590152,0.189663,20.8038,1001.48,0.122406,0,0
1336,333.75,52.7015,53.393,166.641,99.7022,99.3607,0.005881208,0.191011,20.8038,1001.37,0.0312023,0,0
1344,335.75,51.2398,55.1311,159.66,99.6472,99.1035,0.006170111,0.192461,20.8038,1001.24,0.0497479,0,0
1352,337.75,51.2554,54.9411,169.749,99.4548,99.0172,0.00618212,0.193987,20.8038,1001.11,0.0400978,0,0
1360,339.75,52.879,53.6816,166.19,99.0895,97.8394,0.006140014,0.194597,20.8025,1000.99,0.115443,0,0
1368,341.75,52.7163,53.854,163.751,99.2053,98.0547,0.006157693,0.194528,20.8019,1000.85,0.106067,0,0
1376,343.75,52.8174,53.9085,168.925,99.3924,99.1221,0.006122616,0.194711,20.8016,1000.74,0.02475879,0,0
1384,345.75,51.2645,55.7677,167.307,99.5873,99.8614,0.00604371,0.195094,20.8015,1000.61,-0.0249959,0,0
1392,347.75,52.0628,55.3378,169.652,99.723,99.347,0.006041355,0.195577,20.8013,1000.49,0.0343452,0,0
1400,349.75,53.14,54.2503,163.796,99.809,100.646,0.0062167,0.195908,20.8,1000.38,-0.0759015,0,0
1408,351.75,53.1434,53.9683,164.323,99.7903,99.8082,0.006369854,0.196214,20.7994,1000.23,-0.001636868,0,0
1416,353.75,52.7135,55.0672,165.694,99.661,98.6714,0.006410693,0.196388,20.7991,1000.12,0.0907457,0,0
1424,355.75,52.8304,55.0653,165.206,99.4385,98.521,0.006423566,0.19707,20.7989,999.984,0.0842851,0,0
1432,357.75,52.9189,54.1135,164.461,99.129,98.8954,0.006211082,0.197557,20.7989,999.874,0.0214591,0,0
1440,359.75,52.502,54.6791,166.881,98.7752,98.1325,0.005846492,0.198005,20.7989,999.734,0.0593597,0,0
1448,361.75,50.9931,56.1586,165.749,98.4405,98.1252,0.005624751,0.198587,20.7989,999.604,0.0291713,0,0
1456,363.75,51.5398,55.7945,163.935,98.1445,98.8645,0.005534685,0.199316,20.7986,999.494,-0.0664552,0,0
1464,365.75,51.8421,55.8257,165.444,97.9358,98.4987,0.005609054,0.19992,20.7974,999.354,-0.052109,0,0
1472,367.75,51.6029,56.4779,165.5,97.8315,98.2756,0.005799799,0.200678,20.7969,999.234,-0.0411851,0,0
1480,369.75,51.5618,56.4414,164.78,97.8637,97.5831,0.005989019,0.201867,20.7967,999.103,0.0261045,0,0
1488,371.75,51.7492,56.5921,165.917,98.0023,98.2488,0.005991586,0.202821,20.7959,998.993,-0.0228436,0,0
1496,373.75,52.2708,55.7432,162.968,98.2301,97.19,0.005948018,0.203994,20.7943,998.873,0.0967888,0,0
1504,375.75,52.4712,55.715,167.575,98.4882,98.6782,0.006014631,0.205064,20.7928,998.763,-0.0175222,0,0
1512,377.75,52.3669,56.5794,169.079,98.7454,97.8444,0.005911994,0.206185,20.7922,998.633,0.0833519,0,0
1520,379.75,53.3324,54.9872,159.522,98.9619,98.8572,0.005553883,0.20724,20.792,998.483,0.00962446,0,0
1528,381.75,51.4314,56.8765,165.389,99.118,99.3157,0.005029231,0.207528,20.7915,998.373,-0.018113,0,0
1536,383.75,52.215,56.6543,165.076,99.1906,98.8109,0.004716458,0.207424,20.7898,998.233,0.0348776,0,0
1544,385.75,54.0874,55.1651,165.832,99.1739,99.303,0.004791564,0.207211,20.7892,998.122,-0.0118262,0,0
1552,387.75,54.0633,55.4516,167.008,99.0895,98.4483,0.004954267,0.207476,20.7888,997.972,0.0590323,0,0
1560,389.75,54.119,54.9206,165.461,98.9468,98.7173,0.005080038,0.207954,20.7887,997.852,0.0211206,0,0
1568,391.75,53.1305,55.7052,168.699,98.8482,99.2148,0.005130357,0.208575,20.7879,997.742,-0.0336638,0,0
1576,393.75,52.0446,57.3804,170.803,98.7821,98.5791,0.005068196,0.208934,20.7886,997.592,0.0187055,0,0
1584,395.75,54.2502,55.3518,167.187,98.796,98.9976,0.004914372,0.209617,20.788,997.492,-0.0185377,0,0
1592,397.75,52.6245,56.8479,164.948,99.1878,98.7127,0.004824845,0.210943,20.7874,997.362,0.04365186,0,0
1600,399.75,54.3407,55.4227,166.208,99.4462,98.7386,0.004931144,0.212313,20.7859,997.252,0.0649286,0,0
1608,401.75,53.0478,56.3139,168.595,99.6203,99.6946,0.005043103,0.212891,20.7852,997.132,-0.006784624,0,0
1616,403.75,52.3895,57.734,166.596,99.6716,99.2762,0.005146491,0.213041,20.7853,997.011,0.0361505,0,0
1624,405.75,54.4419,55.4023,167.037,99.6227,99.6156,0.005150428,0.213064,20.7854,996.861,0.000651413,0,0
1632,407.75,51.9779,57.3828,163.369,99.489,99.098,0.00504488,0.212269,20.7855,996.741,0.0358039,0,0
1640,409.75,52.5588,57.7199,164.574,99.2709,98.2447,0.004923783,0.211176,20.7855,996.601,0.0944849,0,0
1648,411.75,54.2071,55.4557,165.198,99.0818,99.0917,0.004837789,0.210471,20.7855,996.481,-0.000909455,0,0
1656,413.75,53.0064,57.8136,159.473,99.1678,99.2393,0.004737162,0.210374,20.7855,996.351,-0.006560088,0,0
1664,415.75,52.3687,57.9393,161.928,99.2787,99.6006,0.004651387,0.210667,20.7851,996.231,-0.0294365,0,0
1672,417.75,53.1581,57.6609,163.161,99.3529,99.2194,0.004803257,0.210945,20.7839,996.101,0.012226,0,0
1680,419.75,52.1143,57.0783,165.055,99.4222,100.394,0.004956616,0.211661,20.7834,995.96,-0.0884847,0,0
1688,421.75,52.2292,57.796,163.274,99.5351,98.8172,0.005004394,0.212518,20.7831,995.86,0.0658143,0,0
1696,423.75,52.4541,57.8986,161.775,99.6333,100.447,0.005072118,0.213056,20.7818,995.74,-0.0739649,0,0
1704,425.75,54.8161,55.7761,167.453,99.7189,99.8291,0.005126041,0.213793,20.7811,995.63,-0.0100432,0,0
1712,427.75,54.8728,55.6183,163.554,99.7752,100.14,0.005059921,0.214441,20.7808,995.49,-0.0331802,0,0
1720,429.75,54.4254,56.3963,164.494,99.8062,99.477,0.004992125,0.215092,20.7807,995.36,0.0300389,0,0
1728,431.75,52.5855,57.3618,161.468,99.8082,100.341,0.004956116,0.215874,20.7807,995.22,-0.0484299,0,0
1736,433.75,52.7745,58.1994,164.782,99.7911,100.313,0.004850542,0.216878,20.7806,995.12,-0.0473964,0,0
1744,435.75,54.6057,56.6528,167.048,99.7116,99.2284,0.004763625,0.217992,20.7797,995.01,0.0441664,0,0
1752,437.75,52.7989,58.2027,163.69,99.6064,99.1953,0.004735246,0.219233,20.7789,994.859,0.037609,0,0
1760,439.75,53.1596,56.9872,169.618,99.4711,99.1962,0.004950125,0.220047,20.7773,994.719,0.0251631,0,0
1768,441.75,53.9502,56.7837,167.313,99.3223,98.4333,0.005248209,0.220224,20.7761,994.609,0.0817536,0,0
1776,443.75,55.2954,55.9043,162.552,99.1425,98.5737,0.005346277,0.220031,20.7756,994.499,0.0523196,0,0
1784,445.75,55.264,55.8235,169.132,98.9489,98.5455,0.00520201,0.220213,20.7741,994.379,0.03714155,0,0
1792,447.75,52.7475,58.1351,165.91,98.7577,97.9307,0.005001698,0.220703,20.7729,994.269,0.0764583,0,0
1800,449.75,52.5851,57.9976,171.124,98.5836,98.949,0.004873376,0.220958,20.7724,994.139,-0.0336393,0,0
1808,451.75,54.4723,56.7833,166.975,98.4058,98.1502,0.00482221,0.220939,20.7722,993.999,0.023654,0,0
1816,453.75,55.015,56.1668,165.745,98.2452,97.8571,0.004707615,0.221206,20.7721,993.859,0.0359929,0,0
1824,455.75,55.3274,56.1266,169.046,98.1213,98.4373,0.004522242,0.221701,20.7724,993.748,-0.0292402,0,0
1832,457.75,54.5877,57.1486,165.418,98.0112,98.3528,0.004457741,0.221977,20.7717,993.648,-0.0316356,0,0
1840,459.75,55.5587,55.7657,164.404,97.9476,99.088,0.004515142,0.222108,20.7711,993.528,-0.105253,0,0
1848,461.75,54.1233,57.9833,167.859,97.9105,98.0934,0.004656806,0.222495,20.7708,993.358,-0.0169635,0,0
1856,463.75,55.2261,55.9879,164.042,97.8999,98.296,0.004857661,0.222818,20.7706,993.218,-0.0367144,0,0
1864,465.75,54.7838,57.2843,164.898,97.9317,97.8794,0.004896676,0.2234101,20.7703,993.108,0.00486442,0,0
1872,467.75,53.3037,58.6498,160.816,97.9811,98.6496,0.004854018,0.223868,20.7691,992.978,-0.0618247,0,0
1880,469.75,54.7001,56.8698,159.399,98.0703,97.3091,0.0046661,0.224639,20.7686,992.838,0.0708545,0,0
1888,471.75,55.7939,56.38,163.345,98.1719,98.1193,0.004362594,0.225834,20.7683,992.747,0.00487092,0,0
1896,473.75,54.9662,57.4933,168.134,98.2844,97.7948,0.004220461,0.226883,20.7671,992.607,0.0454003,0,0
1904,475.75,53.4583,58.8978,166.097,98.4071,98.1329,0.004220884,0.228158,20.7664,992.457,0.0253684,0,0
1912,477.75,53.4579,59.1052,162.548,98.5229,98.0807,0.004272252,0.229539,20.7656,992.337,0.0409018,0,0
1920,479.75,56.2105,56.5971,165.967,98.6407,99.2825,0.00433749,0.230463,20.7639,992.197,-0.0589735,0,0
1928,481.75,56.3988,57.0266,163.412,98.7634,98.5509,0.004507579,0.231467,20.7631,992.077,0.0195784,0,0
1936,483.75,55.1059,57.8571,167.74,98.8694,98.8331,0.004778652,0.233011,20.7628,991.927,0.00333353,0,0
1944,485.75,54.2879,58.3689,165.516,98.9721,98.8713,0.004922444,0.234566,20.763,991.807,0.009264971,0,0
1952,487.75,54.6622,59.664,165.774,99.043,98.3024,0.004853734,0.236055,20.7623,991.636,0.0682492,0,0
1960,489.75,55.1701,59.5451,161.758,99.1327,99.5602,0.004654588,0.237646,20.7611,991.516,-0.0391209,0,0
1968,491.75,55.9919,57.7011,165.974,99.1841,98.9036,0.004586867,0.239301,20.7606,991.406,0.02575323,0,0
1976,493.75,56.1616,57.9169,162.981,99.2363,98.9063,0.004554248,0.240379,20.7602,991.286,0.0302852,0,0
1984,495.75,54.5793,58.9895,164.444,99.264,99.5497,0.00460512,0.241624,20.7589,991.106,-0.026134,0,0
1992,497.75,55.1416,59.7035,160.838,99.2583,98.7741,0.004841378,0.243567,20.7567,990.976,0.0444663,0,0
2000,499.75,57.0204,57.7121,163.634,99.255,99.3366,0.004950847,0.245695,20.7555,990.796,-0.007469658,0,0
2008,501.75,54.8905,60.5155,163.567,99.2481,98.9249,0.004761163,0.247327,20.7539,990.666,0.0296554,0,0
2016,503.75,54.728,60.4793,162.539,99.2167,99.8882,0.004498804,0.248811,20.7519,990.545,-0.061333,0,0
2024,505.75,56.0035,59.3026,164.834,99.1886,98.267,0.004453588,0.250736,20.7505,990.395,0.084879,0,0
2032,507.75,55.8481,60.8922,164.683,99.1405,97.9066,0.004483615,0.252356,20.7489,990.245,0.11387,0,0
2040,509.75,57.6298,58.2957,161.814,99.0936,99.1498,0.004587379,0.2537,20.7479,990.065,-0.005159844,0,0
2048,511.75,56.274,59.8053,160.801,99.0451,98.7191,0.004443425,0.255125,20.7459,989.905,0.0299762,0,0
2056,513.75,57.9414,58.6221,162.422,98.9978,99.3775,0.004228379,0.25663,20.7442,989.755,-0.0348073,0,0
2064,515.75,56.4098,60.1618,163.763,98.9366,98.8917,0.004349743,0.258213,20.7426,989.605,0.004126635,0,0
2072,517.75,56.2934,61.7143,164.795,98.891,100.293,0.004782994,0.259772,20.7414,989.484,-0.128013,0,0
2080,519.75,56.6982,60.1385,161.833,98.8743,99.0585,0.005032444,0.261354,20.7398,989.304,-0.01692817,0,0
2088,521.75,57.001,61.6879,161.482,98.8469,97.9943,0.004977024,0.26316,20.738,989.114,0.07877,0,0
2096,523.75,57.7239,60.7582,162.929,98.8245,98.61,0.00479692,0.264822,20.7367,988.984,0.01975791,0,0
2104,525.75,57.3917,61.4328,164.831,98.8082,98.6077,0.004680011,0.266899,20.7348,988.824,0.0184664,0,0
2112,527.75,56.8841,62.3961,162.032,98.7988,98.3315,0.00473309,0.269367,20.7327,988.644,0.0431136,0,0
2120,529.75,56.7814,62.6918,168.317,98.8025,97.8898,0.004881765,0.271595,20.7318,988.464,0.08438395,0,0
2128,531.75,55.9416,61.6462,160.598,98.9366,98.1883,0.004931622,0.273468,20.7293,988.293,0.0690313,0,0
2136,533.75,59.288,59.8065,161.866,99.0732,98.0934,0.004908738,0.275144,20.7276,988.133,0.0903722,0,0
2144,535.75,57.3113,61.466,159.865,99.1951,99.3829,0.004798045,0.276492,20.7252,987.983,-0.0172024,0,0
2152,537.75,57.4675,62.7516,159.231,99.2836,98.3288,0.004629097,0.277092,20.7232,987.843,0.087866,0,0
2160,539.75,57.3694,63.4316,164.852,99.3753,98.3224,0.004539214,0.277708,20.7223,987.643,0.096851,0,0
2168,541.75,56.5535,62.7126,161.99,99.4523,99.6815,0.004467296,0.2793639,20.7207,987.503,-0.0209264,0,0
2176,543.75,56.9757,62.4009,163.951,99.5175,98.3151,0.004595812,0.281365,20.7189,987.343,0.110531,0,0
2184,545.75,59.4951,61.3436,154.937,99.5966,98.76,0.005017544,0.28312,20.7168,987.152,0.0767066,0,0
2192,547.75,58.307,64.0055,158.849,99.648,99.3234,0.005343814,0.284669,20.7145,986.982,0.0296662,0,0
2200,549.75,58.407,64.4011,161.766,99.6928,98.3628,0.005387132,0.286133,20.7118,986.782,0.122122,0,0
2208,551.75,58.9544,64.044,163.322,99.7173,99.6828,0.005339298,0.288169,20.7102,986.622,0.003143911,0,0
2216,553.75,58.4391,64.8124,160.442,99.7507,99.27388,0.005413229,0.291017,20.708,986.442,0.043571,0,0
2224,555.75,59.7647,63.0825,159.775,99.745,98.5778,0.005303626,0.293634,20.7064,986.221,0.107033,0,0
2232,557.75,59.6067,64.8615,159.532,99.732,99.6492,0.004986971,0.295826,20.705,986.031,0.007549627,0,0
2240,559.75,59.7088,63.6046,161.627,99.7059,98.4224,0.004734387,0.29757,20.7035,985.891,0.117811,0,0
2248,561.75,58.0118,64.1704,163.167,99.6802,99.0435,0.004761098,0.29956,20.7011,985.691,0.0582644,0,0
2256,563.75,60.2113,63.6394,159.385,99.6394,99.5233,0.004889766,0.30191,20.6984,985.511,0.0106011,0,0
2264,565.75,59.5227,66.0981,162.067,99.5775,98.854,0.005094031,0.304377,20.6962,985.331,0.06630069,0,0
2272,567.75,59.3477,64.51,163.293,99.5143,99.3561,0.00529426,0.306275,20.6953,985.181,0.0144632,0,0
2280,569.75,59.9921,65.944,163.18,99.4046,97.9148,0.005494689,0.307918,20.6929,984.95,0.137306,0,0
2288,571.75,60.4332,64.6345,159.292,99.3072,98.9013,0.005602806,0.30965,20.6902,984.77,0.0372419,0,0
2296,573.75,59.6168,66.2958,159.858,99.191,97.8357,0.005718746,0.311535,20.6873,984.57,0.12509,0,0
2304,575.75,60.5384,64.9133,160.391,99.1788,97.8566,0.005797176,0.314144,20.6847,984.36,0.122028,0,0
2312,577.75,61.0729,65.1277,159.553,99.1992,99.5293,0.005850687,0.316928,20.6825,984.18,-0.0302053,0,0
2320,579.75,61.588,64.902,157.211,99.2387,97.978,0.00583528,0.319349,20.6811,983.979,0.116254,0,0
2328,581.75,60.3555,67.3598,163.349,99.2791,97.4731,0.005784001,0.322242,20.6783,983.779,0.166921,0,0
2336,583.75,59.7553,66.3028,155.971,99.3019,97.998,0.005904381,0.324447,20.6744,983.569,0.120186,0,0
2344,585.75,63.0611,65.0006,162.399,99.3431,98.0257,0.006075413,0.327056,20.6715,983.379,0.121384,0,0
2352,587.75,62.962,65.0429,159.498,99.3912,98.2788,0.006125423,0.329547,20.6691,983.179,0.10234,0,0
2360,589.75,60.7523,67.8018,158.221,99.4376,98.5696,0.005975293,0.331872,20.6655,982.938,0.0797252,0,0
2368,591.75,63.6317,65.7174,162.493,99.4829,98.5678,0.005837347,0.334758,20.6631,982.738,0.08402954,0,0
2376,593.75,63.289,66.0753,156.819,99.529,98.715,0.005765143,0.337519,20.6613,982.528,0.0746685,0,0
2384,595.75,62.386,68.2859,157.528,99.5771,97.7353,0.005743771,0.340154,20.6578,982.318,0.16975,0,0
2392,597.75,62.7579,67.9336,159.756,99.6211,97.9657,0.005786325,0.342542,20.6544,982.088,0.152362,0,0
2400,599.75,64.4559,65.9756,158.402,99.6708,99.0939,0.005838857,0.344646,20.653,981.917,0.0527798,0,0
2408,601.75,64.4398,66.6132,157.131,99.7047,98.2151,0.006054683,0.346667,20.6512,981.677,0.136861,0,0
2416,603.75,61.7062,68.8435,152.285,99.7528,98.5496,0.006339588,0.348963,20.6503,981.467,0.11034,0,0
2424,605.75,64.7528,66.5959,159.691,99.7862,97.0315,0.006316358,0.351654,20.6478,981.257,0.254544,0,0
2432,607.75,64.5732,66.6884,161.076,99.8135,98.1125,0.006224874,0.354279,20.6454,981.007,0.156294,0,0
2440,609.75,63.9068,68.9087,157.635,99.8441,98.8672,0.00655994,0.356148,20.6437,980.786,0.0894009,0,0
2448,611.75,64.4355,68.0385,157.559,99.8588,96.8811,0.00702646,0.358089,20.641,980.586,0.275259,0,0
2456,613.75,63.8174,69.3148,158.874,99.8849,98.5569,0.007268689,0.360078,20.6389,980.376,0.1217,0,0
2464,615.75,62.7936,70.3069,155.96,99.8922,96.7829,0.007304463,0.361483,20.6354,980.156,0.287518,0,0
2472,617.75,65.9429,68.3955,151.624,99.9122,98.4646,0.00733675,0.362406,20.6333,979.956,0.132699,0,0
2480,619.75,66.0425,68.6032,160.165,99.9273,97.2096,0.007427991,0.363155,20.6306,979.705,0.250711,0,0
2488,621.75,66.3092,68.9628,156.801,99.9342,97.0824,0.007415901,0.364398,20.6285,979.505,0.26325,0,0
2496,623.75,63.1615,70.8103,160.835,99.9309,97.9652,0.007221441,0.366643,20.627,979.285,0.180637,0,0
2504,625.75,63.8922,71.6461,152.558,99.9301,97.7835,0.006997266,0.368923,20.6234,979.055,0.197449,0,0
2512,627.75,65.1775,71.6047,156.293,99.926,97.4704,0.007027812,0.370948,20.6205,978.815,0.226237,0,0
2520,629.75,67.1314,69.3713,161.504,99.9273,98.5573,0.007111997,0.372426,20.618,978.594,0.125517,0,0
2528,631.75,65.4887,69.9335,155.639,99.9252,98.1443,0.007086397,0.373344,20.6151,978.424,0.163517,0,0
2536,633.75,63.6098,71.1613,153.666,99.9114,99.0235,0.007099642,0.373994,20.6137,978.194,0.0811606,0,0
2544,635.75,64.3195,72.1997,153.403,99.9008,98.052,0.007176552,0.3737,20.6122,977.974,0.169841,0,0
2552,637.75,64.4515,72.2894,153.07,99.8849,99.0376,0.007242954,0.372705,20.6106,977.714,0.07745567,0,0
2560,639.75,65.5302,72.9509,156.414,99.871,98.0861,0.00723809,0.373054,20.6075,977.533,0.163972,0,0
2568,641.75,64.3983,72.2159,153.272,99.86,97.898,0.007260393,0.374677,20.6056,977.303,0.180426,0,0
2576,643.75,64.5203,72.2899,153.908,99.8359,97.2709,0.007313134,0.375578,20.6037,977.083,0.236662,0,0
2584,645.75,64.8535,72.5368,154.204,99.8098,97.036,0.007271746,0.375063,20.6029,976.873,0.256272,0,0
2592,647.75,66.1434,71.8307,160.688,99.774,97.5445,0.007121745,0.375025,20.6018,976.623,0.205483,0,0
2600,649.75,65.8796,72.9599,164.655,99.7569,98.4619,0.007034198,0.374792,20.6021,976.462,0.118806,0,0
2608,651.75,65.8381,72.8225,159.678,99.7304,97.987,0.007068197,0.373484,20.602,976.232,0.160347,0,0
2616,653.75,67.6961,70.0388,158.612,99.6945,97.8562,0.007044556,0.371486,20.6011,976.032,0.169226,0,0
2624,655.75,67.6648,69.5972,161.132,99.6725,98.1829,0.006783765,0.369743,20.6009,975.862,0.136911,0,0
2632,657.75,65.9425,72.5848,157.62,99.6427,98.8259,0.006480897,0.367462,20.6011,975.632,0.0748469,0,0
2640,659.75,63.9532,71.3975,159.619,99.6158,98.0057,0.006340792,0.364566,20.6012,975.462,0.148167,0,0
2648,661.75,64.7323,71.1675,161.611,99.5999,98.4842,0.006357662,0.362307,20.6024,975.231,0.102432,0,0
2656,663.75,67.3569,69.3297,158.808,99.5771,97.9303,0.006442195,0.360377,20.6031,975.051,0.151632,0,0
2664,665.75,64.0622,71.0605,161.797,99.5714,98.6909,0.006499014,0.358457,20.6034,974.911,0.0807599,0,0
2672,667.75,64.3888,71.0242,158.923,99.5551,98.4378,0.006534217,0.356582,20.604,974.701,0.102618,0,0
2680,669.75,66.4851,69.0539,155.468,99.5652,98.6627,0.006512937,0.354061,20.6051,974.501,0.0827966,0,0
2688,671.75,64.5933,71.9541,155.406,99.5441,98.6087,0.006468782,0.350821,20.6062,974.351,0.0858454,0,0
2696,673.75,67.729,69.8095,160.309,99.551,98.4855,0.006521403,0.348343,20.6079,974.15,0.0978397,0,0
2704,675.75,65.7215,72.0943,151.612,99.533,98.3892,0.006407424,0.344643,20.6096,974.02,0.1051,0,0
2712,677.75,64.19,70.4221,160.534,99.5184,98.9449,0.005994508,0.341248,20.6107,973.84,0.05254703,0,0
2720,679.75,64.425,71.661,161.301,99.5326,97.7753,0.005646127,0.338007,20.6123,973.67,0.161972,0,0
2728,681.75,64.1848,71.2742,157.795,99.5371,99.0867,0.00545117,0.334468,20.6142,973.51,0.0412417,0,0
2736,683.75,65.2925,70.0639,162.997,99.5249,98.3901,0.005390486,0.330938,20.616,973.35,0.10427,0,0
2744,685.75,65.0631,69.6027,161.955,99.5184,98.5664,0.005354036,0.327313,20.6184,973.209,0.08739575,0,0
2752,687.75,66.6804,67.8236,162.302,99.5114,98.4528,0.005303739,0.323287,20.6212,973.029,0.0972488,0,0
2760,689.75,65.7392,68.9472,161.74,99.52,98.3674,0.00521944,0.318824,20.6244,972.859,0.105924,0,0
2768,691.75,63.8038,69.2302,160.004,99.5196,97.6585,0.00524094,0.314891,20.6273,972.739,0.171646,0,0
2776,693.75,65.0955,68.7233,165.73,99.5253,98.122,0.005356684,0.311763,20.6293,972.589,0.129117,0,0
2784,695.75,62.4345,68.8904,160.652,99.5224,98.4542,0.0054909,0.309073,20.6319,972.429,0.0981282,0,0
2792,697.75,65.0732,66.7511,158.714,99.5163,98.4383,0.005583628,0.306096,20.6336,972.319,0.0990385,0,0
2800,699.75,64.2148,67.1921,159.052,99.5294,98.5219,0.005579859,0.302365,20.6357,972.169,0.0925109,0,0
2808,701.75,64.7818,66.3962,159.448,99.5355,98.1911,0.005427596,0.298793,20.64,972.018,0.12365,0,0
2816,703.75,65.0153,67.4594,156.423,99.5269,98.0302,0.005255674,0.295157,20.6434,971.898,0.137775,0,0
2824,705.75,62.0328,68.221,162.421,99.5061,99.8505,0.005129829,0.291554,20.6462,971.788,-0.0314131,0,0
2832,707.75,63.6869,66.9625,159.34,99.4886,98.9813,0.004979944,0.287543,20.6482,971.648,0.0464874,0,0
2840,709.75,62.2261,68.4696,156.817,99.48,99.6097,0.004629966,0.282812,20.6521,971.528,-0.0118398,0,0
2848,711.75,61.7509,67.7639,169.398,99.4458,98.3524,0.004300218,0.278712,20.6553,971.438,0.100528,0,0
2856,713.75,63.5893,66.3988,159.852,99.447,99.173,0.004255222,0.273591,20.6598,971.318,0.0250885,0,0
2864,715.75,62.1694,66.5088,161.955,99.4205,98.8204,0.004401782,0.268434,20.6652,971.198,0.0550512,0,0
2872,717.75,61.2137,66.3011,165.288,99.3981,99.4647,0.004524439,0.262937,20.669,971.087,-0.006092594,0,0
2880,719.75,60.8916,66.9327,157.119,99.3708,98.6146,0.004668263,0.257775,20.6745,971.007,0.0694605,0,0
2888,721.75,61.8925,67.5294,164.17,99.3345,98.7282,0.004692319,0.2522856,20.68,970.927,0.0556728,0,0
2896,723.75,60.5657,66.4094,166.031,99.3231,98.7359,0.004609005,0.24679,20.686,970.807,0.0539167,0,0
2904,725.75,59.706,64.7257,159.28,99.2942,99.621,0.004549956,0.241809,20.6905,970.727,-0.029884,0,0
2912,727.75,59.0788,64.4093,160.314,99.2681,99.885,0.004593403,0.237139,20.6963,970.637,-0.05633809,0,0
2920,729.75,62.306,63.8002,163.702,99.2448,99.5229,0.004796883,0.232088,20.7016,970.497,-0.0254405,0,0
2928,731.75,58.736,64.3479,160.446,99.2098,99.9373,0.005225334,0.227592,20.707,970.447,-0.066435,0,0
2936,733.75,58.7068,64.1195,163.026,99.18,98.7445,0.005554785,0.223476,20.7115,970.377,0.0400126,0,0
2944,735.75,62.2073,61.3333,165.757,99.1466,99.5261,0.00560965,0.219292,20.7166,970.297,-0.0347366,0,0
2952,737.75,60.6379,60.6783,162.59,99.1083,99.1235,0.005501581,0.215034,20.7216,970.217,-0.00139674,0,0
2960,739.75,61.6226,61.4257,162.496,99.0854,98.8299,0.005360896,0.211122,20.7262,970.147,0.0234745,0,0
2968,741.75,57.5142,62.5556,166.68,99.0724,99.0853,0.005399121,0.208175,20.7297,970.087,-0.001186971,0,0
2976,743.75,58.1448,63.155,165.791,99.0341,99.5883,0.005719316,0.205841,20.7338,969.996,-0.05074637,0,0
2984,745.75,57.4168,62.2485,164.734,99.0235,99.5656,0.006079562,0.203432,20.7386,969.926,-0.0496445,0,0
2992,747.75,58.8717,62.7318,165.192,98.9978,99.9636,0.006414623,0.20075,20.7423,969.846,-0.0882812,0,0
3000,749.75,60.9241,59.7623,163.194,98.9648,100.104,0.006675996,0.197861,20.745,969.786,-0.104036,0,0
3008,751.75,56.4949,60.9397,164.492,98.9362,98.4369,0.006744256,0.195601,20.7483,969.706,0.0460053,0,0
3016,753.75,57.4967,62.1119,169.924,98.9032,99.014,0.006746612,0.193611,20.751,969.656,-0.0101778,0,0
3024,755.75,58.1752,61.908,162.092,98.8955,99.6851,0.006743806,0.191154,20.7547,969.576,-0.0723134,0,0
3032,757.75,57.9139,58.9491,170.867,98.8339,98.6541,0.006755879,0.188171,20.7581,969.536,0.016557,0,0
3040,759.75,57.6399,59.396,162.236,98.816,98.7245,0.006879122,0.185328,20.7621,969.466,0.008417086,0,0
3048,761.75,56.9609,59.4895,169.226,98.796,98.0057,0.00705604,0.182756,20.7651,969.406,0.07302779,0,0
3056,763.75,56.8691,59.2186,165.579,98.7674,99.1389,0.007224195,0.180807,20.7674,969.356,-0.0341349,0,0
3064,765.75,57.0431,60.5589,170.531,98.7683,99.2902,0.007297156,0.179579,20.7707,969.316,-0.0479259,0,0
3072,767.75,54.8953,59.1523,164.354,98.7621,99.7169,0.007284923,0.177934,20.7736,969.236,-0.0874789,0,0
3080,769.75,58.7759,56.6608,161.007,98.7556,99.3207,0.007408035,0.175213,20.7765,969.206,-0.0518778,0,0
3088,771.75,58.4397,56.2429,163.694,98.7564,98.6255,0.007564555,0.172611,20.7797,969.136,0.01206687,0,0
3096,773.75,57.0489,57.4218,166.779,98.7491,99.2139,0.00772963,0.170317,20.7824,969.106,-0.0426977,0,0
3104,775.75,57.0769,55.7715,169.543,98.7458,98.675,0.008111682,0.167909,20.7854,969.036,0.006526114,0,0
3112,777.75,54.6617,58.6893,167.495,98.745,98.1938,0.00848038,0.165695,20.7881,969.006,0.0509002,0,0
3120,779.75,56.4639,56.8056,163.409,98.7226,99.133,0.008590993,0.16348,20.7917,968.966,-0.0377222,0,0
3128,781.75,55.1625,58.632,170.816,98.7193,99.0244,0.00851342,0.161635,20.7943,968.935,-0.0280561,0,0
3136,783.75,56.4922,55.9765,171.631,98.6981,99.7755,0.008490593,0.159697,20.7975,968.875,-0.0987166,0,0
3144,785.75,55.2477,56.729,167.469,98.692,99.0967,0.008655961,0.157535,20.8003,968.845,-0.0372036,0,0
3152,787.75,54.1366,56.0948,167.877,98.6761,98.0575,0.00888248,0.155057,20.802,968.815,0.05718524,0,0
3160,789.75,54.1828,57.3845,166.641,98.6798,99.0421,0.009325356,0.152986,20.805,968.775,-0.033326,0,0
3168,791.75,54.8906,54.1579,168.722,98.6606,98.8972,0.009805118,0.150994,20.8078,968.745,-0.0217749,0,0
3176,793.75,52.9851,55.4706,173.102,98.6488,99.2989,0.0100955,0.1494,20.8102,968.705,-0.05971976,0,0
3184,795.75,54.0917,57.4315,169.465,98.6252,99.5774,0.0101691,0.148111,20.8126,968.675,-0.0873689,0,0
3192,797.75,53.4412,57.2264,163.773,98.6203,98.9017,0.0101433,0.146705,20.8152,968.635,-0.0259128,0,0
3200,799.75,52.6978,56.3597,168.088,98.6174,98.9358,0.0102833,0.144965,20.8186,968.605,-0.0293087,0,0
3208,801.75,53.985,54.5557,164.766,98.608,99.6301,0.0105784,0.143052,20.8203,968.585,-0.0937602,0,0
3216,803.75,53.1785,56.6815,165.411,98.6032,99.5188,0.0108487,0.14148,20.8214,968.545,-0.0840453,0,0
3224,805.75,54.8826,52.161,173.969,98.5962,99.7955,0.0109345,0.139883,20.823,968.535,-0.109933,0,0
3232,807.75,53.2377,52.5655,167.763,98.5779,98.8345,0.0109547,0.138604,20.8248,968.525,-0.02363796,0,0
3240,809.75,52.8372,55.9545,167.381,98.5742,98.1665,0.0111442,0.137469,20.8273,968.485,0.0376824,0,0
3248,811.75,50.743,53.6787,167.06,98.5763,99.0326,0.0116233,0.136117,20.8289,968.445,-0.0419958,0,0
3256,813.75,51.3065,54.5559,171.96,98.5567,99.2725,0.0123021,0.134836,20.8298,968.415,-0.0658023,0,0
3264,815.75,51.4623,54.8779,170.031,98.5392,99.0585,0.01333405,0.132862,20.8325,968.375,-0.0477963,0,0
3272,817.75,54.2429,51.3736,172.324,98.531,98.5337,0.0140585,0.130637,20.8345,968.335,-0.000247137,0,0
3280,819.75,52.3337,53.5847,167.375,98.5216,98.6727,0.0143501,0.129113,20.8375,968.325,-0.01393418,0,0
3288,821.75,51.0115,52.6868,169.712,98.5037,97.5404,0.0142145,0.127758,20.8401,968.305,0.0893569,0,0
3296,823.75,51.9526,52.5981,172.014,98.4886,99.2203,0.01395156,0.126726,20.8423,968.245,-0.0672982,0,0
3304,825.75,53.6583,51.1489,169.613,98.4829,98.9831,0.0138341,0.126036,20.8444,968.235,-0.0460628,0,0
3312,827.75,51.6588,52.2924,174.337,98.4731,99.1326,0.0139992,0.125183,20.8471,968.225,-0.0606881,0,0
3320,829.75,51.9502,50.2435,170.401,98.476,98.521,0.0142509,0.124299,20.8487,968.205,-0.004152908,0,0
3328,831.75,51.241,54.27,165.167,98.4776,98.4551,0.0145228,0.123408,20.8506,968.155,0.00208089,0,0
3336,833.75,52.2271,51.61,175.633,98.4752,98.7127,0.0147668,0.122567,20.8515,968.135,-0.021908,0,0
3344,835.75,52.0778,49.4002,168.946,98.4829,99.3548,0.0149031,0.122237,20.8531,968.105,-0.0801428,0,0
3352,837.75,48.8468,52.1445,171.79,98.4849,98.8195,0.0149703,0.122272,20.8552,968.085,-0.0308356,0,0
3360,839.75,51.6635,49.4948,172.69,98.4915,98.9681,0.0150116,0.12223,20.8561,968.065,-0.0438951,0,0
3368,841.75,50.7228,53.2122,169.315,98.511,98.6545,0.0152308,0.122341,20.8565,968.055,-0.0132378,0,0
3376,843.75,51.0252,49.2385,166.639,98.5135,98.1284,0.0155262,0.123389,20.8574,967.945,0.0356139,0,0
3384,845.75,49.013,52.0423,173.786,98.5106,98.6691,0.0159748,0.125289,20.8584,967.965,-0.0146154,0,0
3392,847.75,51.8653,48.4445,174.545,98.5192,98.1102,0.0162693,0.126803,20.8588,968.165,0.0378259,0,0
3400,849.75,47.1841,50.1704,172.05,98.544,98.4314,0.01554887,0.127525,20.859,968.115,0.0103954,0,0
3408,851.75,51.2975,48.0728,176.262,98.5432,98.3556,0.014184,0.125055,20.859,859.264,0.01733271,0,0
3416,853.75,47.5373,49.995,174.101,98.5522,98.3805,0.0128093,0.119056,20.8602,-0.120111,0.0158504,0,0
3424,855.75,46.55,48.4981,174.188,98.5428,97.828,0.0121208,0.113542,20.8609,-0.120111,0.0661963,0,0
3432,857.75,45.9392,48.2253,170.803,98.5648,98.3228,0.0120798,0.110554,20.863,-0.13012,0.0223511,0,0
3440,859.75,49.6958,47.2163,173.025,98.5909,98.7641,0.0120461,0.109108,20.8641,-0.14013,-0.0159525,0,0
3448,861.75,47.7682,46.8899,176.002,98.5824,98.5791,0.0114079,0.108409,20.8643,-0.120111,0.000300241,0,0
3456,863.75,45.4597,47.8662,172.397,98.5958,98.8854,0.009788074,0.106113,20.867,-0.13012,-0.026664,0,0
3464,865.75,47.2936,47.5747,172.811,98.5983,98.8622,0.008321564,0.101212,20.8696,-0.120111,-0.0243074,0,0
3472,867.75,47.254,48.9157,177.615,98.5934,98.4873,0.006669869,0.0951341,20.8727,-0.13012,0.00978471,0,0
3480,869.75,46.1694,46.6384,167.099,98.5995,98.4019,0.005477963,0.0900108,20.8754,-0.14013,0.0182382,0,0
3488,871.75,47.5445,46.4059,171.174,98.5905,98.6655,0.00471377,0.0854085,20.8789,-0.14013,-0.006907742,0,0
3496,873.75,48.6723,44.961,175.64,98.5864,98.3424,0.00390802,0.0817401,20.8824,-0.14013,0.0225371,0,0
3504,875.75,48.1334,43.5424,174.334,98.5563,98.9753,0.003256291,0.0787824,20.8851,-0.14013,-0.038581,0,0
3512,877.75,43.6824,46.0247,172.682,98.5514,98.0243,0.002816549,0.0764773,20.8895,-0.150139,0.0487604,0,0
3520,879.75,46.1319,47.549,175.8,98.533,98.1747,0.002655434,0.0748305,20.8925,-0.14013,0.0331271,0,0
3528,881.75,44.8515,47.2155,173.662,98.5159,98.296,0.00257201,0.0737395,20.8959,-0.14013,0.0203171,0,0
3536,883.75,44.7834,47.1067,172.633,98.4829,98.0934,0.0024495,0.0730451,20.8994,-0.150139,0.0360339,0,0
3544,885.75,46.9988,44.5752,177.074,98.4703,98.66,0.002431677,0.07262069,20.9025,-0.150139,-0.0175037,0,0
3552,887.75,47.0161,42.6634,170.893,98.4544,97.7517,0.002513829,0.0722053,20.9051,-0.160148,0.0651288,0,0
3560,889.75,47.4869,43.9278,175.704,98.445,98.3051,0.002462549,0.0719091,20.9074,-0.14013,0.0129274,0,0
3568,891.75,43.343,44.9439,174.774,98.436,98.0534,0.002365525,0.0716966,20.9112,-0.14013,0.035412,0,0
3576,893.75,43.1715,45.3028,175.662,98.4185,98.2701,0.002465699,0.0718115,20.9128,-0.14013,0.0137164,0,0
3584,895.75,45.1825,45.5278,172.489,98.4058,97.8489,0.002544546,0.0720904,20.9135,-0.14013,0.0516062,0,0
3592,897.75,46.3836,42.036,173.772,98.4136,97.9252,0.002494482,0.0723649,20.9138,-0.150139,0.0452321,0,0
3600,899.75,44.3966,46.108,174.234,98.392,98.6318,0.002515984,0.0726522,20.914,-0.14013,-0.0221367,0,0
3608,901.75,46.2566,41.819,176.403,98.3985,98.1111,0.002724754,0.0726584,20.9145,-0.150139,0.0265973,0,0
3616,903.75,44.6015,46.3837,173.87,98.381,98.5114,0.002913906,0.0726043,20.9156,-0.14013,-0.0120471,0,0
3624,905.75,42.8837,44.0745,177.037,98.3667,98.3415,0.002959238,0.0725094,20.9168,-0.150139,0.002333383,0,0
3632,907.75,45.9698,43.6336,176.564,98.3606,97.415,0.002853371,0.0724044,20.9185,-0.150139,0.0878381,0,0
3640,909.75,45.3018,43.7045,175.75,98.3316,98.8413,0.002702346,0.072249,20.9194,-0.150139,-0.0470052,0,0
3648,911.75,46.1255,41.6296,171.194,98.3162,97.201,0.002824259,0.0721091,20.9212,-0.160148,0.103728,0,0
3656,913.75,42.0375,43.7327,175.826,98.3105,98.3565,0.003032864,0.07198,20.9213,-0.160148,-0.004254844,0,0
3664,915.75,42.7612,43.846,175.188,98.2803,97.9271,0.003218353,0.0720325,20.9206,-0.160148,0.0327372,0,0
3672,917.75,46.4973,42.4326,174.685,98.2685,97.6912,0.003169063,0.0722421,20.9203,-0.160148,0.0535665,0,0
3680,919.75,43.9577,43.5497,176.236,98.2575,97.5586,0.00297475,0.07218,20.9215,-0.160148,0.0649071,0,0
3688,921.75,45.2928,41.1129,177.108,98.2493,99.0617,0.002843966,0.0722212,20.922,-0.150139,-0.0748731,0,0
3696,923.75,45.6946,41.472,170.23,98.2297,98.1811,0.002686571,0.07233867,20.9223,-0.150139,0.004505827,0,0
3704,925.75,44.1547,41.4349,174.064,98.2281,98.4892,0.002441907,0.0723016,20.9224,-0.160148,-0.0241319,0,0
3712,927.75,43.5367,45.7506,173.056,98.2326,98.3633,0.002222067,0.0722046,20.9224,-0.160148,-0.0120889,0,0
3720,929.75,42.7328,44.6225,172.887,98.2232,98.0716,0.002030664,0.07204996,20.9221,-0.150139,0.0140487,0,0
3728,931.75,42.845,43.2001,170.915,98.2395,98.4987,0.002116309,0.0720112,20.9219,-0.150139,-0.0239553,0,0
3736,933.75,42.4024,43.3827,169.605,98.2383,98.2892,0.002307821,0.0718224,20.9219,-0.160148,-0.004711399,0,0
3744,935.75,41.1947,43.3691,172.601,98.2403,97.4586,0.002371705,0.0714745,20.9218,-0.150139,0.0726439,0,0
3752,937.75,41.5218,43.5135,174.802,98.2448,98.2524,0.002397779,0.0711116,20.9218,-0.150139,-0.000702408,0,0
3760,939.75,43.2629,41.9817,173.646,98.266,98.3883,0.00247142,0.0707713,20.9226,-0.150139,-0.0113053,0,0
3768,941.75,41.1906,43.4605,172.247,98.2831,98.2256,0.002477244,0.0705641,20.923,-0.150139,0.005324828,0,0
3776,943.75,43.1291,45.1545,172.937,98.2909,98.222,0.002554213,0.07023596,20.9236,-0.170157,0.006377722,0,0
3784,945.75,45.3275,40.754,175.905,98.3064,98.0761,0.002741331,0.0698344,20.9248,-0.150139,0.0213228,0,0
3792,947.75,42.4126,42.9773,174.54,98.3178,98.2697,0.002688536,0.0693596,20.9253,-0.150139,0.004451658,0,0
3800,949.75,41.1554,42.7381,173.689,98.3349,98.0661,0.00258479,0.0690012,20.9255,-0.160148,0.0248896,0,0
3808,951.75,40.7123,42.5734,169.548,98.352,97.36,,0.0688145,,-0.160148,0.0921804,0,0
3816,953.75,44.9173,40.476,172.06,98.394,98.79,,0.068679,,-0.150139,-0.0365141,0,0
3824,955.75,43.2484,40.6876,173.143,98.4238,97.9089,,,,-0.160148,0.0476919,0,0
3832,957.75,42.8999,42.5538,176.623,98.4654,98.5964,,,,-0.160148,-0.01209,0,0
3840,959.75,40.7092,42.6386,174.603,98.487,98.2456,,,,-0.160148,0.0223122,0,0
3848,961.75,44.1697,40.1029,171.741,98.5277,98.2288,,,,-0.160148,0.0276316,0,0
3851,962.5,43.2166,40.5266,174.454,98.5326,97.9162,,,,-0.160148,0.0570668,0,0