File: 01_Data/Plywood/Cone/Plywood_HRRPUA_35.csv
Time after Ignition,Plywood_R1,Plywood_R2,Plywood_R3,Mean,Std. Dev.
0.0,5.0,2.1,3.5,3.6,1.5
0.75,4.9,2.1,3.5,3.5,1.4
1.5,4.8,2.1,3.5,3.5,1.4
2.25,4.9,2.1,3.5,3.5,1.4
3.0,4.8,2.1,3.4,3.5,1.3
3.75,4.8,2.3,3.5,3.5,1.3
4.5,4.8,2.5,3.5,3.6,1.1
5.25,4.7,2.7,3.4,3.6,1.0
6.0,4.8,2.9,3.4,3.7,1.0
6.75,5.0,3.1,3.3,3.8,1.1
7.5,5.3,3.4,3.1,3.9,1.2
8.25,5.8,3.8,3.3,4.3,1.3
9.0,6.4,4.5,3.9,4.9,1.3
9.75,7.5,5.6,4.4,5.8,1.6
10.5,9.1,6.2,5.4,6.9,1.9
11.25,10.5,7.5,6.5,8.2,2.1
12.0,12.4,9.2,7.6,9.7,2.5
12.75,14.4,11.2,9.7,11.8,2.4
13.5,16.5,13.3,12.0,13.9,2.3
14.25,19.5,16.1,14.9,16.9,2.4
15.0,22.8,18.9,17.6,19.8,2.7
15.75,26.0,22.6,21.7,23.4,2.3
16.5,30.0,26.0,24.5,26.8,2.8
17.25,33.8,29.9,28.1,30.6,2.9
18.0,37.9,33.3,31.4,34.2,3.3
18.75,41.3,36.0,34.7,37.3,3.5
19.5,44.4,40.2,37.1,40.6,3.6
20.25,47.8,44.1,41.1,44.3,3.4
21.0,50.5,47.3,44.0,47.3,3.2
21.75,53.8,52.0,47.8,51.2,3.1
22.5,56.7,53.8,52.2,54.2,2.3
23.25,59.9,57.0,55.8,57.6,2.1
24.0,63.5,59.3,57.4,60.0,3.1
24.75,67.1,61.6,60.1,62.9,3.7
25.5,69.4,64.9,63.1,65.8,3.2
26.25,72.7,66.3,64.9,68.0,4.1
27.0,75.3,69.3,69.5,71.4,3.4
27.75,77.6,72.9,71.5,74.0,3.2
28.5,81.0,74.2,75.7,77.0,3.6
29.25,82.4,75.9,77.3,78.5,3.4
30.0,86.1,78.4,79.1,81.2,4.2
30.75,86.8,81.2,81.9,83.3,3.1
31.5,89.1,81.8,83.0,84.7,3.9
32.25,95.0,83.3,84.8,87.7,6.3
33.0,94.4,86.8,86.7,89.3,4.4
33.75,98.1,86.0,88.5,90.8,6.4
34.5,99.8,86.4,90.6,92.2,6.8
35.25,102.9,86.7,91.6,93.7,8.3
36.0,103.9,89.6,93.3,95.6,7.4
36.75,106.0,91.2,95.1,97.4,7.7
37.5,107.8,92.4,97.3,99.2,7.9
38.25,108.8,91.3,98.1,99.4,8.8
39.0,110.5,91.1,100.2,100.6,9.7
39.75,108.6,93.5,99.7,100.6,7.6
40.5,111.9,93.6,100.2,101.9,9.3
41.25,112.4,94.5,100.3,102.4,9.1
42.0,114.4,94.2,102.0,103.5,10.2
42.75,114.9,96.0,101.1,104.0,9.8
43.5,116.2,96.7,101.1,104.7,10.2
44.25,115.9,97.1,103.3,105.4,9.6
45.0,115.2,99.6,102.5,105.8,8.3
45.75,116.9,96.9,102.4,105.4,10.4
46.5,117.0,100.1,103.7,106.9,8.9
47.25,116.4,99.6,104.9,106.9,8.6
48.0,115.4,100.6,103.6,106.6,7.8
48.75,117.5,101.2,107.0,108.6,8.3
49.5,118.3,104.4,105.3,109.3,7.7
50.25,117.0,103.4,107.7,109.4,7.0
51.0,117.4,104.0,106.8,109.4,7.1
51.75,116.5,103.6,109.0,109.7,6.5
52.5,116.8,104.5,107.6,109.6,6.4
53.25,116.3,106.3,108.5,110.4,5.3
54.0,117.0,108.1,110.9,112.0,4.5
54.75,116.5,108.0,110.9,111.8,4.3
55.5,115.3,111.2,111.1,112.5,2.4
56.25,117.4,111.2,110.1,112.9,3.9
57.0,114.1,111.9,113.4,113.1,1.1
57.75,115.0,116.4,112.8,114.7,1.8
58.5,113.0,113.3,113.1,113.1,0.2
59.25,113.3,114.4,113.3,113.7,0.7
60.0,112.9,112.9,114.0,113.3,0.6
60.75,113.9,114.0,115.9,114.6,1.1
61.5,113.2,114.9,115.8,114.6,1.3
62.25,114.4,116.3,115.1,115.3,1.0
63.0,112.1,118.5,112.5,114.4,3.6
63.75,111.8,118.4,117.4,115.8,3.6
64.5,110.7,119.4,116.1,115.4,4.4
65.25,111.0,119.5,116.1,115.5,4.3
66.0,109.9,120.2,116.5,115.5,5.3
66.75,108.5,119.8,117.6,115.3,6.0
67.5,107.3,122.0,114.7,114.7,7.3
68.25,109.1,118.0,117.6,114.9,5.0
69.0,106.1,119.9,115.4,113.8,7.1
69.75,107.4,121.1,111.1,113.2,7.1
70.5,105.7,120.4,113.8,113.3,7.4
71.25,106.7,120.8,114.0,113.8,7.0
72.0,105.5,121.0,114.3,113.6,7.8
72.75,103.3,121.6,111.1,112.0,9.2
73.5,102.9,120.3,113.1,112.1,8.8
74.25,101.8,120.8,110.6,111.1,9.5
75.0,102.2,119.8,113.2,111.7,8.9
75.75,101.7,122.0,110.9,111.5,10.2
76.5,101.2,122.4,109.5,111.0,10.7
77.25,101.6,121.5,109.8,111.0,10.0
78.0,99.3,121.7,107.6,109.6,11.3
78.75,97.8,120.6,107.9,108.8,11.4
79.5,98.1,121.0,107.4,108.8,11.5
80.25,96.7,121.0,106.0,107.9,12.3
81.0,95.9,119.3,107.7,107.6,11.7
81.75,95.4,118.4,105.4,106.4,11.5
82.5,95.6,118.9,104.7,106.4,11.7
83.25,95.5,118.7,103.3,105.8,11.8
84.0,94.3,118.4,102.8,105.2,12.2
84.75,93.0,118.3,101.6,104.3,12.8
85.5,93.9,118.3,100.1,104.1,12.7
86.25,92.4,115.8,100.0,102.8,11.9
87.0,89.7,116.5,101.3,102.5,13.4
87.75,90.8,117.4,100.0,102.7,13.5
88.5,90.3,115.1,98.1,101.2,12.7
89.25,89.7,112.6,95.5,99.3,11.9
90.0,89.7,114.8,95.4,100.0,13.2
90.75,88.3,111.2,94.2,97.9,11.9
91.5,88.8,112.9,92.2,98.0,13.0
92.25,90.0,109.3,91.5,96.9,10.7
93.0,87.3,108.7,91.1,95.7,11.4
93.75,87.0,108.4,92.1,95.8,11.2
94.5,86.9,109.0,90.5,95.5,11.9
95.25,87.3,106.7,90.6,94.9,10.4
96.0,83.5,107.3,90.6,93.8,12.2
96.75,84.2,107.4,88.4,93.3,12.3
97.5,82.4,105.5,87.5,91.8,12.1
98.25,84.0,104.1,87.0,91.7,10.9
99.0,82.1,103.6,86.2,90.6,11.4
99.75,82.0,103.8,85.2,90.3,11.8
100.5,81.5,103.4,85.7,90.2,11.6
101.25,80.6,102.1,85.1,89.3,11.4
102.0,80.4,101.9,83.5,88.6,11.6
102.75,78.7,101.2,81.7,87.2,12.2
103.5,78.3,100.9,81.4,86.9,12.3
104.25,78.7,100.2,79.7,86.2,12.2
105.0,77.5,98.8,80.0,85.4,11.7
105.75,77.2,97.5,80.2,85.0,10.9
106.5,75.7,97.5,78.5,83.9,11.8
107.25,76.1,96.8,77.2,83.4,11.6
108.0,76.1,97.3,76.0,83.1,12.3
108.75,76.6,95.4,75.5,82.5,11.2
109.5,75.8,94.4,74.5,81.6,11.1
110.25,75.6,94.7,73.0,81.1,11.8
111.0,75.5,92.7,73.9,80.7,10.4
111.75,74.6,93.0,73.2,80.3,11.1
112.5,74.1,93.5,71.8,79.8,11.9
113.25,75.0,91.2,70.9,79.0,10.7
114.0,73.9,91.1,71.2,78.7,10.8
114.75,73.5,91.3,71.9,78.9,10.8
115.5,73.3,89.6,70.7,77.8,10.2
116.25,72.7,90.6,69.1,77.5,11.5
117.0,71.8,89.9,69.2,77.0,11.3
117.75,71.3,88.6,68.4,76.1,10.9
118.5,70.8,88.1,67.7,75.5,11.0
119.25,71.6,88.0,67.6,75.7,10.8
120.0,70.3,86.8,65.7,74.3,11.1
120.75,71.1,87.7,65.3,74.7,11.6
121.5,70.0,86.4,66.0,74.1,10.8
122.25,69.8,85.3,65.3,73.4,10.5
123.0,69.5,84.5,64.5,72.8,10.4
123.75,68.8,84.3,63.9,72.4,10.6
124.5,69.5,84.3,65.3,73.0,10.0
125.25,68.3,85.3,64.8,72.8,11.0
126.0,68.0,84.9,63.2,72.0,11.4
126.75,68.3,84.9,63.0,72.1,11.4
127.5,67.2,84.3,62.5,71.3,11.5
128.25,67.1,85.9,62.7,71.9,12.3
129.0,66.0,83.8,61.8,70.5,11.6
129.75,67.4,83.8,61.8,71.0,11.4
130.5,65.8,83.8,60.8,70.1,12.1
131.25,67.0,83.3,62.1,70.8,11.1
132.0,65.7,83.6,62.2,70.5,11.5
132.75,66.5,83.8,61.0,70.4,11.9
133.5,66.5,83.6,61.0,70.4,11.8
134.25,66.1,81.7,60.1,69.3,11.2
135.0,67.0,82.2,59.5,69.5,11.6
135.75,65.3,82.8,60.2,69.4,11.8
136.5,65.4,82.5,57.8,68.6,12.6
137.25,66.7,81.2,59.2,69.1,11.2
138.0,65.7,81.6,58.9,68.7,11.7
138.75,64.7,82.4,58.5,68.5,12.4
139.5,65.8,81.8,58.3,68.6,12.0
140.25,64.7,81.5,57.0,67.7,12.5
141.0,64.5,80.7,57.3,67.5,12.0
141.75,64.9,82.2,57.0,68.0,12.9
142.5,63.6,81.0,57.2,67.3,12.3
143.25,64.1,82.5,56.5,67.7,13.4
144.0,63.8,81.7,56.7,67.4,12.9
144.75,62.8,80.4,56.0,66.4,12.6
145.5,62.3,79.8,54.7,65.6,12.9
146.25,61.6,80.9,54.5,65.7,13.7
147.0,62.6,81.2,53.9,65.9,14.0
147.75,61.6,80.3,53.3,65.1,13.9
148.5,62.0,79.4,53.6,65.0,13.1
149.25,62.0,81.5,53.5,65.7,14.4
150.0,61.3,80.7,53.2,65.1,14.1
150.75,60.1,78.6,54.2,64.3,12.7
151.5,61.4,79.4,53.7,64.8,13.2
152.25,61.6,80.0,53.4,65.0,13.6
153.0,60.4,78.8,52.8,64.0,13.4
153.75,61.1,80.3,51.8,64.4,14.5
154.5,60.1,80.1,52.4,64.2,14.3
155.25,60.0,79.3,52.5,63.9,13.8
156.0,61.2,78.0,52.4,63.9,13.0
156.75,60.4,78.3,51.7,63.5,13.6
157.5,61.0,78.9,51.1,63.7,14.1
158.25,60.4,77.5,51.6,63.1,13.2
159.0,60.0,77.3,52.2,63.2,12.8
159.75,59.2,77.0,50.6,62.2,13.5
160.5,60.0,78.4,51.3,63.2,13.8
161.25,60.7,77.1,50.2,62.6,13.6
162.0,59.7,78.3,50.9,63.0,14.0
162.75,59.5,78.8,49.4,62.6,14.9
163.5,59.6,78.3,49.9,62.6,14.4
164.25,58.9,78.2,49.3,62.1,14.7
165.0,58.8,79.2,50.2,62.8,14.9
165.75,59.0,79.1,49.3,62.4,15.2
166.5,59.2,78.4,48.9,62.2,15.0
167.25,58.9,78.6,49.6,62.4,14.8
168.0,58.7,78.2,49.0,62.0,14.9
168.75,58.7,79.2,49.1,62.3,15.4
169.5,59.2,77.1,49.4,61.9,14.1
170.25,58.6,78.0,49.3,62.0,14.7
171.0,58.1,79.5,49.5,62.4,15.5
171.75,58.7,77.4,49.6,61.9,14.2
172.5,59.0,78.2,49.3,62.2,14.7
173.25,58.1,77.6,50.9,62.2,13.8
174.0,58.5,79.6,49.8,62.6,15.3
174.75,58.1,77.3,49.7,61.7,14.1
175.5,58.6,79.0,50.1,62.6,14.8
176.25,58.6,77.6,49.7,62.0,14.3
177.0,58.0,77.6,49.8,61.8,14.3
177.75,57.7,78.4,49.8,62.0,14.7
178.5,57.5,79.5,48.8,61.9,15.8
179.25,57.4,79.2,49.4,62.0,15.4
180.0,57.9,78.7,49.7,62.1,14.9
180.75,58.2,78.6,49.9,62.2,14.7
181.5,57.6,77.3,50.1,61.7,14.1
182.25,59.1,79.0,48.7,62.2,15.4
183.0,57.0,78.7,50.0,61.9,15.0
183.75,58.1,78.5,49.4,62.0,15.0
184.5,58.7,77.9,49.6,62.1,14.5
185.25,58.4,78.6,50.3,62.4,14.6
186.0,59.0,77.5,49.9,62.1,14.1
186.75,59.5,78.3,49.5,62.4,14.6
187.5,60.1,78.8,49.3,62.7,14.9
188.25,59.1,79.4,50.5,63.0,14.8
189.0,59.8,78.5,50.2,62.8,14.4
189.75,60.3,77.0,49.8,62.4,13.7
190.5,60.2,77.1,49.9,62.4,13.7
191.25,59.8,78.1,49.7,62.5,14.4
192.0,61.1,77.5,49.2,62.6,14.2
192.75,60.5,78.2,49.0,62.5,14.7
193.5,61.5,77.9,49.5,62.9,14.3
194.25,60.1,77.2,48.5,61.9,14.4
195.0,60.1,78.1,49.8,62.6,14.3
195.75,60.9,78.5,48.4,62.6,15.1
196.5,61.4,77.9,48.8,62.7,14.6
197.25,60.1,78.4,49.2,62.6,14.8
198.0,61.1,77.7,49.9,62.9,14.0
198.75,60.9,76.7,49.9,62.5,13.5
199.5,61.7,76.8,49.7,62.7,13.6
200.25,62.1,76.7,49.2,62.7,13.8
201.0,61.8,77.3,50.7,63.2,13.4
201.75,62.4,76.6,50.2,63.1,13.2
202.5,63.4,76.3,50.7,63.4,12.8
203.25,62.6,75.5,50.5,62.9,12.5
204.0,62.1,75.8,49.5,62.5,13.1
204.75,63.2,76.1,50.2,63.2,12.9
205.5,62.8,77.1,50.1,63.3,13.5
206.25,62.9,76.8,50.1,63.3,13.4
207.0,62.6,76.0,50.4,63.0,12.8
207.75,61.9,76.1,50.0,62.7,13.1
208.5,63.2,75.9,49.6,62.9,13.1
209.25,62.7,76.5,50.3,63.2,13.1
210.0,62.0,77.2,50.1,63.1,13.6
210.75,61.8,77.6,50.2,63.2,13.8
211.5,61.5,76.3,51.0,62.9,12.7
212.25,61.9,75.9,50.2,62.7,12.9
213.0,62.0,76.5,49.7,62.7,13.5
213.75,61.6,76.5,51.3,63.1,12.7
214.5,61.9,76.4,49.9,62.8,13.3
215.25,62.9,75.4,49.8,62.7,12.8
216.0,62.7,75.9,49.2,62.6,13.3
216.75,62.5,78.2,49.3,63.3,14.5
217.5,62.7,77.8,50.3,63.6,13.8
218.25,60.8,75.8,51.2,62.6,12.4
219.0,62.5,77.0,50.5,63.3,13.2
219.75,60.8,77.6,51.1,63.2,13.4
220.5,61.5,77.7,50.8,63.4,13.5
221.25,63.7,79.8,51.1,64.8,14.4
222.0,62.4,77.9,50.1,63.5,13.9
222.75,62.5,77.0,50.5,63.3,13.2
223.5,62.6,77.3,51.5,63.8,12.9
224.25,62.0,78.4,50.9,63.8,13.8
225.0,62.3,79.0,51.2,64.2,14.0
225.75,63.2,78.7,51.5,64.5,13.7
226.5,62.7,78.9,52.4,64.7,13.4
227.25,61.8,78.2,51.3,63.8,13.6
228.0,63.0,79.6,51.1,64.6,14.3
228.75,62.3,78.8,51.4,64.2,13.8
229.5,62.5,79.3,51.1,64.3,14.1
230.25,62.5,79.2,52.4,64.7,13.5
231.0,62.5,80.9,51.5,65.0,14.9
231.75,64.9,80.2,52.8,65.9,13.7
232.5,62.9,81.1,52.5,65.5,14.5
233.25,63.0,81.1,51.9,65.3,14.7
234.0,62.7,80.8,52.5,65.3,14.3
234.75,62.6,81.3,52.4,65.5,14.6
235.5,63.8,79.9,53.4,65.7,13.4
236.25,64.4,80.1,53.1,65.9,13.6
237.0,64.2,81.2,52.9,66.1,14.2
237.75,63.4,81.6,53.0,66.0,14.5
238.5,63.4,80.3,53.2,65.6,13.7
239.25,63.8,80.9,53.1,65.9,14.0
240.0,64.5,81.3,52.8,66.2,14.3
240.75,63.4,81.0,52.4,65.6,14.5
241.5,64.9,81.4,52.7,66.3,14.4
242.25,64.2,81.0,51.5,65.6,14.8
243.0,63.8,80.9,51.9,65.5,14.6
243.75,63.7,81.1,50.9,65.2,15.1
244.5,64.1,80.7,51.6,65.4,14.6
245.25,64.3,81.0,52.1,65.8,14.5
246.0,63.5,80.1,51.4,65.0,14.4
246.75,63.5,80.7,52.4,65.5,14.3
247.5,63.4,81.0,52.0,65.4,14.6
248.25,64.7,80.0,52.8,65.8,13.6
249.0,64.7,79.5,52.4,65.5,13.5
249.75,64.0,79.8,51.6,65.1,14.1
250.5,63.3,78.7,52.9,65.0,13.0
251.25,65.0,78.4,52.6,65.3,12.9
252.0,64.2,79.5,52.8,65.5,13.4
252.75,65.7,78.5,52.3,65.5,13.1
253.5,64.4,80.0,53.2,65.9,13.5
254.25,64.3,78.2,52.0,64.8,13.1
255.0,64.3,78.7,52.3,65.1,13.2
255.75,63.4,79.1,52.3,65.0,13.5
256.5,63.7,79.5,52.8,65.3,13.4
257.25,63.5,79.9,52.4,65.3,13.8
258.0,63.2,78.7,52.4,64.7,13.2
258.75,62.8,77.9,52.2,64.3,12.9
259.5,63.3,77.6,52.2,64.4,12.8
260.25,64.0,79.0,51.4,64.8,13.8
261.0,64.4,77.2,52.2,64.6,12.5
261.75,64.6,77.3,52.6,64.8,12.4
262.5,63.4,77.7,52.0,64.4,12.8
263.25,63.9,76.7,52.4,64.3,12.2
264.0,62.9,77.1,52.5,64.2,12.3
264.75,64.6,75.0,53.0,64.2,11.0
265.5,63.9,75.3,51.5,63.6,11.9
266.25,64.1,74.8,52.4,63.7,11.2
267.0,62.4,76.3,52.5,63.8,12.0
267.75,64.0,75.2,51.8,63.7,11.7
268.5,63.4,76.7,51.8,64.0,12.5
269.25,63.6,76.8,52.7,64.4,12.1
270.0,64.2,77.0,51.8,64.3,12.6
270.75,63.2,76.0,51.9,63.7,12.1
271.5,64.4,75.4,52.4,64.1,11.5
272.25,64.1,75.6,51.7,63.8,12.0
273.0,64.0,75.1,52.1,63.7,11.5
273.75,64.9,74.9,53.4,64.4,10.8
274.5,64.3,74.2,52.6,63.7,10.8
275.25,64.9,75.9,52.8,64.5,11.6
276.0,64.2,74.2,53.7,64.0,10.3
276.75,63.8,73.7,53.0,63.5,10.3
277.5,64.5,72.7,51.8,63.0,10.5
278.25,64.7,73.7,51.8,63.4,11.0
279.0,65.5,73.2,52.7,63.8,10.4
279.75,65.2,71.9,52.8,63.3,9.7
280.5,64.9,73.6,53.0,63.9,10.4
281.25,66.5,72.4,53.1,64.0,9.9
282.0,66.4,71.6,51.8,63.3,10.2
282.75,65.2,71.0,52.4,62.8,9.5
283.5,65.9,70.7,52.6,63.1,9.3
284.25,67.0,70.3,53.0,63.4,9.2
285.0,65.8,70.1,52.9,62.9,9.0
285.75,66.4,69.0,52.6,62.7,8.8
286.5,65.4,70.1,52.0,62.5,9.4
287.25,65.6,68.8,53.1,62.5,8.3
288.0,66.5,68.3,52.2,62.3,8.8
288.75,65.8,68.6,53.0,62.5,8.3
289.5,66.3,69.5,53.3,63.0,8.6
290.25,66.4,66.3,53.0,61.9,7.7
291.0,66.2,67.2,53.6,62.3,7.6
291.75,65.6,67.0,53.3,62.0,7.6
292.5,65.9,67.1,53.8,62.2,7.3
293.25,65.7,66.1,53.9,61.9,6.9
294.0,65.9,67.5,54.3,62.5,7.2
294.75,66.1,66.2,53.7,62.0,7.2
295.5,66.8,66.9,54.2,62.6,7.3
296.25,66.8,64.9,53.7,61.8,7.1
297.0,66.7,64.9,54.7,62.1,6.4
297.75,66.4,66.8,54.2,62.4,7.2
298.5,67.2,64.8,54.7,62.2,6.7
299.25,66.5,64.0,54.3,61.6,6.4
300.0,66.0,63.9,54.6,61.5,6.1
300.75,67.4,64.7,54.7,62.3,6.7
301.5,68.7,63.4,55.6,62.6,6.6
302.25,66.6,62.7,54.9,61.4,6.0
303.0,67.5,62.8,55.1,61.8,6.3
303.75,67.1,63.5,55.5,62.0,5.9
304.5,67.4,62.9,55.2,61.8,6.1
305.25,68.0,63.3,55.6,62.3,6.3
306.0,69.2,63.0,55.8,62.7,6.7
306.75,68.7,63.7,53.9,62.1,7.5
307.5,69.4,62.2,55.9,62.5,6.7
308.25,69.5,62.0,55.4,62.3,7.1
309.0,70.0,62.9,56.8,63.2,6.6
309.75,69.4,63.0,56.9,63.1,6.3
310.5,68.6,62.7,56.7,62.7,5.9
311.25,69.2,62.7,57.0,63.0,6.1
312.0,69.9,62.2,57.1,63.1,6.5
312.75,69.8,61.5,57.6,63.0,6.2
313.5,70.6,60.9,57.1,62.9,7.0
314.25,70.3,60.8,59.0,63.4,6.1
315.0,70.3,60.1,57.6,62.7,6.8
315.75,71.3,60.7,57.2,63.1,7.4
316.5,70.4,60.7,57.8,62.9,6.6
317.25,70.9,61.2,58.3,63.5,6.6
318.0,71.1,60.7,57.9,63.3,7.0
318.75,71.0,61.3,57.6,63.3,6.9
319.5,71.5,59.9,58.2,63.2,7.3
320.25,71.1,60.1,57.7,63.0,7.2
321.0,70.8,60.1,58.9,63.3,6.6
321.75,70.0,60.7,58.4,63.1,6.1
322.5,71.1,60.3,59.3,63.6,6.5
323.25,71.1,60.7,59.0,63.6,6.6
324.0,70.5,60.1,58.8,63.2,6.4
324.75,70.7,60.4,58.1,63.1,6.7
325.5,70.3,58.9,58.8,62.6,6.6
326.25,70.7,60.4,58.8,63.3,6.4
327.0,71.5,59.9,58.4,63.3,7.2
327.75,72.3,59.8,58.5,63.5,7.6
328.5,72.7,59.9,59.5,64.0,7.5
329.25,72.3,60.1,59.0,63.8,7.4
330.0,71.7,59.5,59.8,63.7,6.9
330.75,72.1,59.3,59.5,63.6,7.3
331.5,72.6,59.0,60.3,64.0,7.5
332.25,72.6,59.1,59.4,63.7,7.7
333.0,73.3,59.0,60.1,64.1,8.0
333.75,73.1,60.1,60.5,64.6,7.3
334.5,72.1,59.3,59.9,63.8,7.3
335.25,72.7,58.8,59.2,63.5,7.9
336.0,72.9,59.3,59.0,63.7,7.9
336.75,72.4,59.9,59.7,64.0,7.2
337.5,72.3,59.6,59.3,63.7,7.4
338.25,72.6,60.4,60.1,64.4,7.1
339.0,72.1,59.4,59.4,63.6,7.4
339.75,72.7,59.9,60.8,64.5,7.1
340.5,71.6,59.8,60.0,63.8,6.7
341.25,72.5,60.0,60.8,64.4,7.0
342.0,72.2,59.5,60.1,63.9,7.2
342.75,72.1,58.9,61.3,64.1,7.0
343.5,71.9,58.8,60.9,63.9,7.0
344.25,73.4,58.9,60.8,64.4,7.9
345.0,71.1,60.8,61.2,64.4,5.9
345.75,71.7,60.7,61.0,64.5,6.3
346.5,72.8,60.5,60.7,64.6,7.0
347.25,74.5,61.2,62.1,65.9,7.5
348.0,73.1,61.1,61.4,65.2,6.9
348.75,73.2,60.4,62.0,65.2,6.9
349.5,73.2,60.4,62.0,65.2,7.0
350.25,73.3,59.8,62.2,65.1,7.2
351.0,73.6,59.3,61.4,64.7,7.7
351.75,73.5,59.3,62.8,65.2,7.4
352.5,73.6,59.7,61.2,64.8,7.6
353.25,74.1,59.8,62.2,65.4,7.6
354.0,74.5,60.5,62.3,65.8,7.6
354.75,74.7,59.7,62.4,65.6,8.0
355.5,75.2,59.9,62.5,65.9,8.2
356.25,73.6,59.9,62.1,65.2,7.3
357.0,74.9,59.7,63.5,66.0,7.9
357.75,74.5,58.8,63.2,65.5,8.1
358.5,74.3,60.2,64.2,66.3,7.3
359.25,74.6,59.3,63.7,65.8,7.9
360.0,73.9,60.4,64.5,66.2,6.9
360.75,75.1,59.8,65.7,66.9,7.7
361.5,75.5,60.0,64.1,66.5,8.0
362.25,74.8,60.1,65.7,66.9,7.4
363.0,74.0,60.8,65.5,66.8,6.7
363.75,73.5,60.6,65.9,66.7,6.5
364.5,75.3,60.5,65.2,67.0,7.6
365.25,75.2,59.9,65.5,66.9,7.7
366.0,73.6,60.0,66.4,66.7,6.8
366.75,75.7,59.6,65.6,67.0,8.1
367.5,76.4,59.5,66.9,67.6,8.5
368.25,75.9,60.2,65.7,67.3,7.9
369.0,75.4,60.2,67.0,67.6,7.6
369.75,74.9,60.1,64.9,66.6,7.6
370.5,77.3,61.6,67.6,68.8,7.9
371.25,76.8,60.7,66.8,68.1,8.1
372.0,76.2,60.7,67.5,68.2,7.8
372.75,77.4,60.9,66.9,68.4,8.4
373.5,76.6,62.5,67.6,68.9,7.2
374.25,77.4,61.2,68.2,69.0,8.1
375.0,76.4,60.5,66.9,68.0,8.0
375.75,77.3,61.6,68.3,69.1,7.9
376.5,78.6,61.0,68.5,69.4,8.8
377.25,78.2,60.2,70.1,69.5,9.0
378.0,79.7,61.2,68.1,69.7,9.4
378.75,80.6,61.4,68.4,70.2,9.7
379.5,78.7,61.2,68.8,69.6,8.8
380.25,79.3,60.8,69.0,69.7,9.3
381.0,80.4,61.6,69.8,70.6,9.4
381.75,78.9,61.6,70.2,70.2,8.7
382.5,78.4,62.5,71.6,70.8,8.0
383.25,78.5,62.5,72.2,71.1,8.1
384.0,78.7,62.1,72.0,70.9,8.3
384.75,79.4,62.3,72.1,71.3,8.6
385.5,79.1,62.8,72.5,71.5,8.2
386.25,78.6,63.2,72.4,71.4,7.7
387.0,79.6,62.2,71.9,71.2,8.7
387.75,78.4,62.8,72.0,71.1,7.8
388.5,78.5,63.6,71.9,71.3,7.4
389.25,79.6,63.9,72.7,72.1,7.9
390.0,79.6,63.3,73.8,72.2,8.3
390.75,79.7,63.8,74.5,72.6,8.1
391.5,80.4,63.9,73.6,72.6,8.3
392.25,80.5,64.9,73.8,73.1,7.8
393.0,80.2,65.3,73.6,73.1,7.5
393.75,80.9,65.6,74.8,73.8,7.7
394.5,78.5,65.0,74.2,72.6,6.9
395.25,80.4,65.1,75.9,73.8,7.8
396.0,79.2,65.7,75.2,73.4,7.0
396.75,79.6,65.3,75.3,73.4,7.3
397.5,79.5,65.2,75.2,73.3,7.4
398.25,79.5,66.3,75.4,73.7,6.8
399.0,79.5,66.2,75.7,73.8,6.8
399.75,81.0,67.8,77.8,75.5,6.9
400.5,80.5,68.5,76.7,75.2,6.2
401.25,79.9,68.2,77.8,75.3,6.2
402.0,80.9,67.8,77.6,75.4,6.8
402.75,81.0,69.7,78.7,76.5,6.0
403.5,80.3,69.2,78.1,75.9,5.9
404.25,80.7,69.4,78.8,76.3,6.0
405.0,82.0,69.3,77.9,76.4,6.5
405.75,81.1,68.9,78.6,76.2,6.5
406.5,81.7,71.2,77.7,76.8,5.3
407.25,80.7,69.3,78.5,76.2,6.0
408.0,80.8,70.5,77.7,76.3,5.3
408.75,82.3,70.2,79.1,77.2,6.2
409.5,83.0,70.1,80.0,77.7,6.7
410.25,82.1,70.3,79.8,77.4,6.2
411.0,83.0,70.9,80.8,78.2,6.4
411.75,83.4,70.8,81.1,78.5,6.7
412.5,82.5,71.6,81.6,78.6,6.1
413.25,82.2,71.5,82.6,78.8,6.3
414.0,83.1,70.9,81.7,78.6,6.6
414.75,83.7,72.5,83.2,79.8,6.3
415.5,84.6,72.6,82.9,80.0,6.5
416.25,84.3,72.1,83.9,80.1,6.9
417.0,83.5,72.8,84.6,80.3,6.5
417.75,83.2,74.0,85.1,80.8,5.9
418.5,83.8,75.1,85.9,81.6,5.7
419.25,84.2,73.9,86.1,81.4,6.6
420.0,83.2,74.6,86.1,81.3,6.0
420.75,83.9,75.7,86.2,81.9,5.5
421.5,83.5,74.7,87.3,81.8,6.4
422.25,83.4,76.9,87.3,82.5,5.3
423.0,84.6,75.9,87.9,82.8,6.2
423.75,83.2,75.8,89.9,82.9,7.0
424.5,82.9,76.3,88.3,82.5,6.0
425.25,85.9,76.6,88.2,83.6,6.1
426.0,85.4,78.2,90.9,84.8,6.4
426.75,85.8,78.3,89.1,84.4,5.5
427.5,84.2,78.2,89.4,83.9,5.6
428.25,86.2,78.7,91.4,85.4,6.4
429.0,85.3,77.9,92.5,85.2,7.3
429.75,85.8,79.8,91.0,85.5,5.6
430.5,86.8,80.4,93.1,86.8,6.4
431.25,86.5,79.3,93.0,86.3,6.9
432.0,87.0,81.5,92.7,87.1,5.6
432.75,87.0,82.1,93.8,87.6,5.9
433.5,87.8,83.1,95.2,88.7,6.1
434.25,88.0,83.4,94.3,88.6,5.5
435.0,88.2,83.8,94.4,88.8,5.3
435.75,87.1,84.3,94.9,88.8,5.5
436.5,89.5,86.1,96.1,90.6,5.1
437.25,88.8,85.5,97.4,90.6,6.1
438.0,89.5,85.5,96.5,90.5,5.6
438.75,89.6,85.7,97.5,90.9,6.0
439.5,89.8,88.2,98.0,92.0,5.2
440.25,90.1,88.6,99.2,92.7,5.8
441.0,89.5,88.2,96.5,91.4,4.4
441.75,90.6,88.5,99.5,92.8,5.9
442.5,90.7,89.1,98.1,92.6,4.8
443.25,91.3,90.8,99.8,94.0,5.1
444.0,91.0,91.0,100.3,94.1,5.3
444.75,92.1,90.4,99.6,94.0,4.9
445.5,91.8,92.8,98.8,94.5,3.8
446.25,92.7,91.7,101.7,95.4,5.5
447.0,92.8,92.7,100.7,95.4,4.6
447.75,93.8,94.9,100.7,96.5,3.7
448.5,90.6,93.0,100.0,94.6,4.9
449.25,91.5,95.9,100.7,96.0,4.6
450.0,94.0,95.7,100.7,96.8,3.5
450.75,94.1,97.9,99.7,97.2,2.9
451.5,94.4,97.0,99.0,96.8,2.3
452.25,94.8,96.2,100.8,97.3,3.1
453.0,94.4,98.4,100.1,97.6,2.9
453.75,94.6,97.6,100.8,97.7,3.1
454.5,95.3,99.3,100.9,98.5,2.9
455.25,96.3,99.7,103.1,99.7,3.4
456.0,96.1,101.4,101.4,99.6,3.1
456.75,96.6,100.1,102.6,99.8,3.0
457.5,97.7,100.7,101.0,99.8,1.8
458.25,97.3,103.7,103.8,101.6,3.8
459.0,97.1,101.4,103.3,100.6,3.2
459.75,97.7,103.3,103.4,101.5,3.3
460.5,96.4,103.7,102.5,100.9,3.9
461.25,96.3,104.7,104.6,101.8,4.8
462.0,97.3,106.5,103.3,102.4,4.7
462.75,98.2,107.0,103.4,102.9,4.4
463.5,98.9,106.3,106.1,103.8,4.2
464.25,99.3,108.4,103.9,103.9,4.6
465.0,99.2,109.6,105.4,104.7,5.2
465.75,100.4,107.6,104.8,104.3,3.6
466.5,100.5,109.8,105.8,105.4,4.7
467.25,99.7,111.5,107.6,106.3,6.0
468.0,102.8,111.3,105.9,106.7,4.3
468.75,102.0,113.6,106.4,107.3,5.9
469.5,100.2,113.0,104.3,105.8,6.6
470.25,102.4,113.2,105.6,107.1,5.6
471.0,103.0,116.0,104.7,107.9,7.1
471.75,101.6,113.0,107.4,107.3,5.7
472.5,102.6,113.3,105.7,107.2,5.5
473.25,102.4,114.8,104.9,107.4,6.6
474.0,103.0,113.6,104.6,107.1,5.7
474.75,102.9,114.8,106.7,108.1,6.1
475.5,103.1,114.0,106.0,107.7,5.6
476.25,103.6,116.5,105.3,108.5,7.0
477.0,102.1,117.4,106.1,108.5,7.9
477.75,105.3,114.6,107.4,109.1,4.9
478.5,103.8,117.5,108.1,109.8,7.0
479.25,105.1,119.4,109.5,111.3,7.3
480.0,108.1,118.1,108.1,111.4,5.7
480.75,104.8,119.2,109.6,111.2,7.3
481.5,108.8,120.7,111.6,113.7,6.2
482.25,106.2,119.6,111.1,112.3,6.8
483.0,108.1,120.3,110.3,112.9,6.5
483.75,108.8,123.6,111.2,114.5,8.0
484.5,108.6,123.3,111.7,114.5,7.7
485.25,108.6,122.5,110.2,113.8,7.6
486.0,108.7,123.6,110.5,114.3,8.1
486.75,110.0,122.5,112.4,114.9,6.6
487.5,110.4,124.9,111.2,115.5,8.2
488.25,109.3,126.9,111.4,115.9,9.6
489.0,109.3,126.7,112.9,116.3,9.2
489.75,110.5,129.1,112.4,117.4,10.2
490.5,109.4,127.2,112.8,116.5,9.4
491.25,108.9,129.6,111.6,116.7,11.3
492.0,111.2,128.2,115.6,118.3,8.8
492.75,113.3,126.6,116.0,118.6,7.0
493.5,111.6,131.4,117.3,120.1,10.2
494.25,111.9,131.9,115.8,119.8,10.6
495.0,112.3,132.8,116.3,120.5,10.8
495.75,114.0,134.7,115.9,121.5,11.5
496.5,112.5,134.4,117.2,121.3,11.5
497.25,115.0,134.8,117.3,122.4,10.8
498.0,113.3,133.9,115.7,121.0,11.3
498.75,111.5,131.6,115.7,119.6,10.6
499.5,113.1,137.1,116.2,122.1,13.1
500.25,113.0,135.4,118.2,122.2,11.7
501.0,116.4,137.6,115.0,123.0,12.7
501.75,118.1,136.6,118.5,124.4,10.6
502.5,115.6,139.5,120.0,125.1,12.7
503.25,118.0,138.7,119.9,125.5,11.4
504.0,119.9,139.7,119.1,126.2,11.7
504.75,116.5,140.0,122.7,126.4,12.2
505.5,117.4,138.9,123.5,126.6,11.1
506.25,118.3,141.0,123.9,127.7,11.8
507.0,119.2,142.8,121.7,127.9,12.9
507.75,118.3,143.4,124.6,128.8,13.0
508.5,117.5,140.9,123.1,127.2,12.2
509.25,119.9,143.5,123.1,128.9,12.8
510.0,119.5,142.2,123.6,128.4,12.1
510.75,124.6,144.6,126.4,131.9,11.1
511.5,120.3,143.6,125.0,129.6,12.3
512.25,120.9,145.3,127.6,131.3,12.6
513.0,123.5,147.0,126.1,132.2,12.9
513.75,123.0,143.7,126.7,131.1,11.0
514.5,124.0,149.7,127.4,133.7,13.9
515.25,123.1,147.3,127.3,132.5,12.9
516.0,122.8,147.4,128.6,132.9,12.9
516.75,125.1,149.3,127.1,133.8,13.4
517.5,125.4,150.7,130.6,135.6,13.4
518.25,126.4,150.4,127.9,134.9,13.5
519.0,125.9,149.7,128.6,134.7,13.0
519.75,127.8,148.6,128.5,135.0,11.8
520.5,128.1,151.8,128.3,136.1,13.6
521.25,125.3,149.3,131.5,135.4,12.5
522.0,128.8,150.0,129.8,136.2,11.9
522.75,128.4,152.6,131.2,137.4,13.3
523.5,127.9,151.7,131.1,136.9,12.9
524.25,128.5,151.7,132.5,137.6,12.4
525.0,128.5,152.7,130.4,137.2,13.5
525.75,129.4,156.3,133.5,139.7,14.5
526.5,130.1,156.2,134.0,140.1,14.0
527.25,130.7,155.5,133.1,139.8,13.7
528.0,131.8,155.1,133.6,140.2,13.0
528.75,131.8,153.5,132.3,139.2,12.4
529.5,131.8,156.0,135.3,141.0,13.1
530.25,133.4,158.1,136.6,142.7,13.4
531.0,132.9,158.7,137.1,142.9,13.8
531.75,135.0,160.6,134.5,143.4,15.0
532.5,134.4,160.7,136.0,143.7,14.7
533.25,132.7,159.3,138.5,143.5,13.9
534.0,134.8,158.1,139.2,144.0,12.4
534.75,135.5,158.2,138.6,144.1,12.3
535.5,135.7,160.4,139.0,145.0,13.4
536.25,135.2,159.5,140.8,145.2,12.7
537.0,135.9,156.6,142.9,145.1,10.6
537.75,136.7,162.4,141.3,146.8,13.7
538.5,134.1,160.4,140.8,145.1,13.7
539.25,137.7,163.9,141.0,147.5,14.2
540.0,137.2,160.2,143.6,147.0,11.9
540.75,135.2,161.7,142.4,146.4,13.7
541.5,138.0,165.8,142.0,148.6,15.0
542.25,138.5,164.2,144.1,148.9,13.5
543.0,138.2,164.7,143.4,148.8,14.0
543.75,139.5,167.1,145.2,150.6,14.6
544.5,138.4,165.2,143.2,148.9,14.3
545.25,141.5,164.2,142.8,149.5,12.8
546.0,140.6,164.7,143.7,149.7,13.1
546.75,142.5,164.3,144.3,150.4,12.1
547.5,141.6,167.2,145.7,151.5,13.8
548.25,141.7,165.9,145.6,151.1,13.0
549.0,138.9,164.8,145.7,149.8,13.5
549.75,142.9,167.5,146.1,152.1,13.4
550.5,142.6,171.7,145.3,153.2,16.1
551.25,143.8,167.7,147.3,152.9,12.9
552.0,147.3,167.8,146.1,153.7,12.2
552.75,146.9,168.2,146.9,154.0,12.3
553.5,144.8,166.9,147.5,153.1,12.0
554.25,142.5,170.7,149.6,154.3,14.7
555.0,146.6,170.6,148.2,155.1,13.4
555.75,144.2,168.2,149.2,153.9,12.7
556.5,144.7,167.9,147.6,153.4,12.6
557.25,145.6,168.8,149.0,154.5,12.5
558.0,145.0,169.4,149.0,154.5,13.1
558.75,150.1,173.7,147.8,157.2,14.4
559.5,147.9,167.0,149.8,154.9,10.5
560.25,151.3,167.2,150.7,156.4,9.4
561.0,150.4,169.4,149.7,156.5,11.2
561.75,151.5,167.2,148.9,155.9,9.9
562.5,147.7,167.7,151.0,155.5,10.8
563.25,149.4,169.8,148.2,155.8,12.1
564.0,148.4,168.2,148.6,155.0,11.4
564.75,152.4,170.8,151.6,158.3,10.9
565.5,153.7,169.2,150.9,158.0,9.9
566.25,150.4,167.8,151.2,156.5,9.8
567.0,149.9,169.9,149.3,156.4,11.7
567.75,152.6,170.3,150.9,157.9,10.8
568.5,152.2,169.2,152.6,158.0,9.7
569.25,154.2,167.3,154.0,158.5,7.6
570.0,154.8,167.0,153.0,158.3,7.7
570.75,151.9,164.4,151.9,156.0,7.2
571.5,154.0,165.3,153.6,157.7,6.7
572.25,154.5,164.1,153.0,157.2,6.0
573.0,152.9,164.7,155.1,157.5,6.3
573.75,155.2,166.5,152.0,157.9,7.6
574.5,155.5,162.7,154.1,157.5,4.6
575.25,156.6,163.0,153.5,157.7,4.8
576.0,154.9,164.1,155.5,158.1,5.1
576.75,157.8,162.8,153.4,158.0,4.7
577.5,157.9,163.7,150.4,157.3,6.7
578.25,156.6,163.9,153.1,157.9,5.5
579.0,158.0,164.2,154.9,159.0,4.7
579.75,160.4,161.9,154.5,159.0,3.9
580.5,158.1,162.6,151.3,157.3,5.7
581.25,157.7,160.5,154.2,157.5,3.1
582.0,156.2,162.2,151.8,156.7,5.2
582.75,155.0,159.3,152.8,155.7,3.3
583.5,160.6,159.2,153.4,157.7,3.8
584.25,157.1,162.0,152.1,157.1,5.0
585.0,156.9,158.1,152.5,155.8,3.0
585.75,154.8,160.6,153.0,156.1,4.0
586.5,156.0,160.0,154.6,156.8,2.8
587.25,157.2,158.1,152.1,155.8,3.2
588.0,156.8,157.5,152.7,155.7,2.6
588.75,156.9,159.6,152.6,156.4,3.6
589.5,156.0,157.4,152.5,155.3,2.5
590.25,159.1,157.5,153.8,156.8,2.7
591.0,158.2,158.8,152.4,156.5,3.5
591.75,156.8,159.3,155.4,157.2,2.0
592.5,157.9,153.2,152.6,154.6,2.9
593.25,156.0,154.9,149.8,153.5,3.3
594.0,157.1,154.3,153.6,155.0,1.8
594.75,153.2,152.4,154.0,153.2,0.8
595.5,155.6,152.5,150.8,153.0,2.4
596.25,157.6,151.3,155.6,154.8,3.2
597.0,158.2,151.3,153.5,154.3,3.5
597.75,154.6,152.5,151.8,153.0,1.4
598.5,156.8,150.5,153.8,153.7,3.1
599.25,154.0,152.0,155.2,153.7,1.6
600.0,154.4,148.6,154.1,152.4,3.2
600.75,156.5,150.2,149.4,152.0,3.9
601.5,158.0,148.3,152.7,153.0,4.9
602.25,157.7,148.6,150.4,152.2,4.8
603.0,153.6,146.5,151.7,150.6,3.7
603.75,154.7,147.5,149.1,150.5,3.8
604.5,153.6,147.2,149.7,150.2,3.2
605.25,152.4,145.4,151.5,149.8,3.8
606.0,155.0,143.3,151.9,150.1,6.1
606.75,155.5,144.9,153.1,151.2,5.5
607.5,154.9,145.5,149.7,150.0,4.7
608.25,153.3,144.0,151.1,149.5,4.8
609.0,154.1,142.1,149.9,148.7,6.1
609.75,152.1,143.0,149.8,148.3,4.7
610.5,155.9,140.8,152.1,149.6,7.8
611.25,152.5,140.7,151.6,148.3,6.6
612.0,152.2,140.9,149.5,147.5,5.9
612.75,152.3,138.3,151.9,147.5,8.0
613.5,149.8,140.4,150.6,146.9,5.7
614.25,150.9,138.5,148.9,146.1,6.6
615.0,152.4,139.6,149.6,147.2,6.8
615.75,150.1,138.6,150.1,146.3,6.6
616.5,151.7,138.5,149.5,146.6,7.1
617.25,151.7,136.3,150.2,146.1,8.5
618.0,149.1,134.9,148.6,144.2,8.1
618.75,148.4,134.2,145.8,142.8,7.6
619.5,147.5,132.9,147.5,142.7,8.4
620.25,148.9,131.1,149.9,143.3,10.6
621.0,147.7,135.5,149.4,144.2,7.6
621.75,145.7,130.3,147.6,141.2,9.5
622.5,147.1,130.0,144.0,140.4,9.1
623.25,147.1,129.9,145.5,140.8,9.5
624.0,149.4,128.4,143.7,140.5,10.8
624.75,144.3,129.5,143.6,139.1,8.4
625.5,142.8,128.9,145.2,139.0,8.8
626.25,145.8,125.8,143.8,138.5,11.0
627.0,144.4,127.8,142.9,138.4,9.2
627.75,145.0,125.5,142.4,137.6,10.6
628.5,141.5,127.9,143.2,137.5,8.4
629.25,144.8,126.0,142.5,137.8,10.3
630.0,144.5,123.5,142.4,136.8,11.6
630.75,144.0,122.4,139.1,135.2,11.3
631.5,141.9,123.5,140.3,135.2,10.2
632.25,141.4,121.6,140.3,134.5,11.1
633.0,139.4,122.9,139.8,134.0,9.7
633.75,141.4,121.6,137.9,133.6,10.6
634.5,140.1,121.4,137.7,133.0,10.2
635.25,139.2,118.3,137.3,131.6,11.6
636.0,136.9,120.8,135.5,131.1,8.9
636.75,136.5,119.9,136.3,130.9,9.5
637.5,138.3,117.2,138.5,131.3,12.3
638.25,139.4,115.3,135.3,130.0,12.9
639.0,135.7,117.2,134.1,129.0,10.3
639.75,137.2,116.5,134.5,129.4,11.3
640.5,137.6,114.6,131.9,128.0,12.0
641.25,133.3,115.4,131.7,126.8,9.9
642.0,133.9,112.7,133.5,126.7,12.1
642.75,135.0,113.6,129.6,126.1,11.1
643.5,136.1,112.6,130.9,126.5,12.3
644.25,132.7,112.3,125.9,123.6,10.4
645.0,130.4,111.8,128.8,123.7,10.3
645.75,130.9,109.7,125.8,122.1,11.1
646.5,128.0,110.2,125.3,121.2,9.6
647.25,128.4,111.2,124.5,121.4,9.0
648.0,127.5,108.6,123.9,120.0,10.1
648.75,127.1,108.9,122.5,119.5,9.4
649.5,125.8,107.8,121.1,118.2,9.3
650.25,126.7,106.5,122.6,118.6,10.7
651.0,122.8,106.2,121.3,116.8,9.2
651.75,123.2,105.7,120.0,116.3,9.3
652.5,124.0,104.8,121.0,116.6,10.3
653.25,121.6,104.1,118.2,114.6,9.3
654.0,121.6,104.5,119.3,115.1,9.3
654.75,120.1,103.8,118.7,114.2,9.0
655.5,119.8,102.4,117.9,113.3,9.6
656.25,118.0,102.6,116.7,112.4,8.6
657.0,116.2,102.9,115.9,111.7,7.6
657.75,116.7,101.8,114.9,111.1,8.1
658.5,114.0,100.4,112.9,109.1,7.6
659.25,114.6,98.8,111.7,108.3,8.4
660.0,113.2,97.6,113.8,108.2,9.2
660.75,112.8,97.0,113.6,107.8,9.4
661.5,110.2,95.3,111.9,105.8,9.1
662.25,110.1,94.3,115.0,106.5,10.9
663.0,108.8,95.0,112.1,105.3,9.1
663.75,107.7,95.4,112.8,105.3,8.9
664.5,107.7,93.8,109.9,103.8,8.8
665.25,107.8,92.8,109.5,103.4,9.2
666.0,107.2,91.4,108.7,102.4,9.6
666.75,107.2,91.8,107.9,102.3,9.1
667.5,104.3,90.5,107.1,100.6,8.9
668.25,102.9,90.0,104.8,99.2,8.0
669.0,102.1,89.2,106.0,99.1,8.8
669.75,102.8,89.3,105.6,99.2,8.7
670.5,100.9,87.7,104.5,97.7,8.9
671.25,101.2,88.0,105.3,98.2,9.1
672.0,103.0,86.3,104.4,97.9,10.1
672.75,101.6,85.5,104.4,97.1,10.2
673.5,98.7,85.5,100.8,95.0,8.3
674.25,99.1,84.3,100.8,94.8,9.1
675.0,97.5,84.0,101.8,94.4,9.3
675.75,97.3,84.5,101.2,94.3,8.7
676.5,95.6,84.4,100.6,93.5,8.3
677.25,93.9,83.0,100.7,92.5,8.9
678.0,95.0,82.2,100.9,92.7,9.6
678.75,93.0,82.5,99.7,91.7,8.7
679.5,93.2,81.2,100.2,91.5,9.6
680.25,92.7,80.2,97.7,90.2,9.0
681.0,90.9,79.9,98.1,89.6,9.2
681.75,91.8,78.1,99.7,89.8,10.9
682.5,90.8,78.3,98.0,89.0,10.0
683.25,91.0,77.4,96.2,88.2,9.7
684.0,89.7,78.0,96.9,88.2,9.5
684.75,88.7,77.4,96.0,87.4,9.3
685.5,88.5,76.8,95.5,86.9,9.4
686.25,88.9,76.7,94.0,86.6,8.9
687.0,86.2,74.7,93.6,84.9,9.5
687.75,86.4,74.7,92.3,84.4,9.0
688.5,85.3,74.2,91.1,83.5,8.6
689.25,86.2,73.5,92.6,84.1,9.8
690.0,83.5,73.4,91.7,82.9,9.2
690.75,84.4,72.7,91.5,82.9,9.5
691.5,82.8,73.2,90.2,82.1,8.5
692.25,82.9,71.2,89.5,81.2,9.2
693.0,83.0,72.0,89.2,81.4,8.7
693.75,82.1,70.1,89.1,80.4,9.6
694.5,81.6,70.9,88.9,80.5,9.1
695.25,81.0,71.5,87.6,80.0,8.1
696.0,79.9,70.3,88.0,79.4,8.9
696.75,79.7,68.1,87.2,78.3,9.6
697.5,79.7,68.3,86.7,78.2,9.3
698.25,78.6,67.0,86.7,77.5,9.9
699.0,77.9,66.7,86.4,77.0,9.9
699.75,77.9,66.5,83.7,76.0,8.7
700.5,76.0,65.5,83.9,75.1,9.3
701.25,76.3,65.6,84.5,75.5,9.5
702.0,76.4,64.5,83.0,74.7,9.4
702.75,76.8,65.5,82.4,74.9,8.6
703.5,75.5,64.5,82.5,74.2,9.1
704.25,74.1,62.6,82.4,73.0,10.0
705.0,73.9,62.8,80.6,72.4,8.9
705.75,74.3,62.6,82.5,73.1,10.0
706.5,72.6,62.0,81.1,71.9,9.6
707.25,73.5,61.5,79.7,71.6,9.3
708.0,72.6,61.7,79.3,71.2,8.8
708.75,71.7,61.6,80.1,71.1,9.3
709.5,71.7,61.3,80.8,71.2,9.8
710.25,69.5,61.3,78.7,69.8,8.7
711.0,68.6,61.1,79.5,69.7,9.3
711.75,69.5,60.2,78.3,69.3,9.0
712.5,67.8,59.7,78.0,68.5,9.2
713.25,69.4,58.5,77.4,68.4,9.5
714.0,68.2,58.7,78.1,68.3,9.7
714.75,67.7,58.2,77.3,67.7,9.6
715.5,67.2,57.6,75.7,66.8,9.1
716.25,65.4,57.7,75.6,66.2,9.0
717.0,65.3,57.5,75.7,66.1,9.1
717.75,65.1,56.3,76.7,66.0,10.2
718.5,64.8,56.6,77.0,66.1,10.3
719.25,64.8,55.6,74.3,64.9,9.3
720.0,63.7,54.2,73.5,63.8,9.7
720.75,63.0,54.1,74.1,63.7,10.0
721.5,63.3,53.8,72.7,63.3,9.5
722.25,62.9,54.6,73.8,63.8,9.6
723.0,61.8,53.4,72.7,62.6,9.6
723.75,61.1,53.4,71.8,62.1,9.2
724.5,60.0,52.5,72.2,61.6,9.9
725.25,60.0,52.6,71.7,61.5,9.6
726.0,60.1,52.1,71.9,61.4,9.9
726.75,58.9,52.1,70.7,60.6,9.4
727.5,59.2,51.4,70.3,60.3,9.5
728.25,59.4,51.7,70.4,60.5,9.4
729.0,57.4,51.4,70.7,59.8,9.9
729.75,57.0,51.2,70.5,59.5,9.9
730.5,56.9,50.5,70.5,59.3,10.2
731.25,56.3,49.7,69.0,58.3,9.8
732.0,55.4,48.9,70.8,58.4,11.3
732.75,56.1,48.5,69.4,58.0,10.6
733.5,55.8,47.7,68.2,57.3,10.3
734.25,55.9,47.9,68.4,57.4,10.3
735.0,54.6,47.1,68.9,56.9,11.0
735.75,55.8,47.5,67.7,57.0,10.1
736.5,54.3,46.6,67.4,56.1,10.5
737.25,54.4,46.5,66.9,56.0,10.3
738.0,53.7,46.4,66.6,55.6,10.3
738.75,53.8,46.1,66.6,55.5,10.3
739.5,53.6,45.6,65.2,54.8,9.9
740.25,52.8,45.3,65.2,54.4,10.1
741.0,52.0,44.9,63.8,53.6,9.6
741.75,52.6,44.5,64.5,53.9,10.1
742.5,51.2,44.2,64.3,53.3,10.2
743.25,51.5,44.4,63.7,53.2,9.8
744.0,51.4,43.4,63.5,52.8,10.1
744.75,50.9,42.3,63.7,52.3,10.8
745.5,50.4,42.4,63.2,52.0,10.5
746.25,50.7,42.1,62.7,51.8,10.4
747.0,49.9,41.8,62.5,51.4,10.4
747.75,49.3,41.4,62.3,51.0,10.5
748.5,49.3,41.6,62.0,51.0,10.3
749.25,48.3,40.7,60.6,49.9,10.1
750.0,48.4,40.6,61.4,50.1,10.5
750.75,47.4,40.1,59.9,49.1,10.0
751.5,46.9,39.8,59.9,48.9,10.2
752.25,46.3,40.7,59.7,48.9,9.8
753.0,46.0,40.6,58.7,48.4,9.3
753.75,45.7,39.6,59.4,48.3,10.1
754.5,44.8,38.9,59.3,47.6,10.5
755.25,44.6,39.2,58.9,47.6,10.2
756.0,44.3,39.5,58.1,47.3,9.6
756.75,44.2,38.6,58.5,47.1,10.3
757.5,43.5,39.1,57.1,46.6,9.4
758.25,43.8,38.6,57.9,46.7,10.0
759.0,43.0,38.5,57.4,46.3,9.9
759.75,42.0,38.8,56.6,45.8,9.5
760.5,41.5,38.7,56.7,45.6,9.7
761.25,41.4,38.9,56.8,45.7,9.7
762.0,41.4,38.3,56.5,45.4,9.7
762.75,41.1,38.8,55.6,45.2,9.1
763.5,40.3,38.2,55.8,44.7,9.6
764.25,40.5,37.6,55.1,44.4,9.4
765.0,40.9,38.1,54.7,44.5,8.9
765.75,40.8,38.0,54.6,44.5,8.9
766.5,40.0,38.5,54.0,44.2,8.5
767.25,39.2,37.7,54.4,43.8,9.2
768.0,39.3,37.5,54.4,43.7,9.3
768.75,38.1,37.4,54.1,43.2,9.4
769.5,38.7,37.4,53.4,43.1,8.9
770.25,37.4,37.8,53.1,42.8,8.9
771.0,38.2,37.3,52.6,42.7,8.6
771.75,38.7,37.1,52.9,42.9,8.7
772.5,38.1,37.6,52.3,42.7,8.3
773.25,38.5,37.8,52.1,42.8,8.0
774.0,37.9,36.9,51.8,42.2,8.3