File: 01_Data/Plywood/Cone/Plywood_Cone_HF35Scan_190308_R2.csv
Names,Time,Stack TC,Smoke TC,Exh Press,Smoke Comp,Smoke Meas,CO Meter,CO2 Meter,O2 Meter,Sample Mass,Ext Coeff,Start Test,Flame Verif
Chan Gain,,500,500,1,1,1,1,1,1,1,1,1,1
Offset,,0,0,0.120824,0,0,0,0,0,0,0,0,0
Gain,,1,1,25.011,13.3584,14.8895,1,1,1,1.00093,1.03656,1,1
Units,sec,C,C,Pa,%,%,%,%,%,g,/m,,
Baseline,,40.1397,41.4508,173.97,98.4101,95.2384,0.002395702,0.0714058,20.9192,-0.006047257,0.29792,,
9,2,40.9136,40.6002,172.213,98.2444,94.8395,0.002786192,0.0708461,20.9202,1022.64,0.320719,0,0
18,4.25,40.3567,40.2487,176.548,98.2465,95.5306,0.002593366,0.071493,20.92,1022.6,0.254887,0,0
27,6.5,39.8638,41.4275,174.143,98.2587,94.909,0.002415452,0.0728151,20.92,1022.58,0.315377,0,0
36,8.75,39.1917,41.702,175.988,98.2424,94.6255,0.00239522,0.0740281,20.9199,1022.59,0.341073,0,0
45,11,40.7693,40.561,171.794,98.2432,94.7795,0.002527379,0.07501097,20.9194,1022.56,0.326358,0,0
54,13.25,39.2134,42.2311,176.406,98.2579,94.924,0.002745723,0.0755246,20.9181,1022.54,0.313865,0,0
63,15.5,39.0783,42.2224,175.954,98.2632,95.3239,0.00273028,0.07565292,20.9173,1022.53,0.276133,0,0
72,17.75,39.5609,41.2831,172.117,98.2607,94.3442,0.002490845,0.0754861,20.9165,1022.49,0.369837,0,0
81,20,38.8962,42.1471,176.659,98.2864,95.3007,0.00235374,0.0755787,20.9153,1022.48,0.280494,0,0
90,22.25,39.7598,41.7127,170.055,98.2942,94.785,0.002264747,0.0757125,20.9153,1022.45,0.33055,0,0
99,24.5,39.6596,41.1825,174.709,98.2999,95.4047,0.002196366,0.0758181,20.9156,1022.44,0.271816,0,0
108,26.75,39.1036,42.2187,170.097,98.3056,95.2098,0.002398532,0.0758605,20.9158,1022.42,0.290941,0,0
117,29,41.3274,40.4423,170.543,98.3011,94.6914,0.002636775,0.0759681,20.9154,1022.41,0.340175,0,0
126,31.25,39.9581,41.312,173.348,98.3092,94.5114,0.002617077,0.0760358,20.9143,1022.38,0.358224,0,0
135,33.5,39.103,42.2835,179.347,98.3052,94.6491,0.002520052,0.0758784,20.9138,1022.38,0.34461,0,0
144,35.75,40.6275,41.3043,170.166,98.3153,94.1802,0.002407835,0.0757999,20.913,1022.34,0.390714,0,0
153,38,41.1846,40.5915,174.759,98.3084,94.5991,0.002245056,0.0758454,20.9119,1022.32,0.349715,0,0
162,40.25,39.4778,42.2639,175.369,98.2909,94.6818,0.002045074,0.0759225,20.9115,1022.29,0.340149,0,0
171,42.5,39.3724,42.3441,177.48,98.3043,94.01931,0.0020251,0.0758615,20.9113,1022.26,0.405238,0,0
180,44.75,39.6194,42.4736,168.165,98.2835,94.8354,0.002158334,0.0756957,20.9112,1022.23,0.324732,0,0
189,47,39.6045,42.2476,168.742,98.2884,94.4578,0.002058433,0.0754142,20.9107,1022.22,0.36146,0,0
198,49.25,40.9492,40.855,172.761,98.2815,93.7776,0.002286798,0.0750922,20.9116,1022.19,0.426535,0,0
207,51.5,39.4289,42.6556,174.582,98.2921,93.948,0.002405947,0.0747391,20.9119,1022.16,0.411009,0,0
216,53.75,39.3638,42.8002,176.942,98.2929,93.6508,0.002298026,0.0743337,20.9118,1022.12,0.439892,0,0
225,56,40.3768,41.9642,173.682,98.2917,94.1175,0.002339554,0.0739032,20.9117,1022.09,0.394583,0,0
234,58.25,41.0784,41.045,174.549,98.2958,93.9593,0.002477732,0.07367079,20.9117,1022.05,0.410249,0,0
243,60.5,40.6491,41.043,171.071,98.2999,94.042,0.002433394,0.0735862,20.9117,1022.05,0.402627,0,0
252,62.75,41.3698,41.0885,172.888,98.3019,93.9298,0.002398733,0.073585,20.9133,1022.02,0.413673,0,0
261,65,39.8064,42.326,172.798,98.286,93.7321,0.002395743,0.0736161,20.9148,1021.97,0.4313564,0,0
270,67.25,41.1928,40.8978,173.234,98.3003,93.5613,0.002343311,0.0736165,20.9154,1021.96,0.449265,0,0
279,69.5,39.7336,42.8912,176.071,98.2954,92.8397,0.002454699,0.0737859,20.9157,1021.92,0.519209,0,0
288,71.75,40.7615,41.3409,172.576,98.2803,93.4268,0.002791386,0.0738116,20.9158,1021.89,0.460498,0,0
297,74,39.6222,42.8287,171.71,98.2909,93.5163,0.003068437,0.0741625,20.9154,1021.87,0.452771,0,0
306,76.25,40.8848,41.2513,168.451,98.2884,92.4757,0.003245818,0.0745437,20.9152,1021.83,0.554285,0,0
315,78.5,40.1808,42.4141,175.816,98.2942,93.3854,0.00326416,0.075141,20.9151,1021.75,0.465805,0,0
324,80.75,40.3079,42.4666,171.423,98.2848,95.1489,0.003154153,0.076011,20.9151,1021.68,0.294835,0,1
333,83,41.6092,42.4875,170.307,98.2876,96.867,0.00298666,0.076855,20.915,1021.56,0.132384,0,1
342,85.25,42.4144,43.3042,164.989,98.2954,95.9341,0.003058046,0.0789702,20.9138,1021.41,0.221089,0,0
351,87.5,41.7481,45.3673,157.312,98.2791,96.3131,0.003541262,0.0898122,20.9123,1021.23,0.183734,0,0
360,89.75,44.2736,46.3645,167.026,98.2897,96.8025,0.003952764,0.119145,20.9082,1021.06,0.13863,0,0
369,92,45.5478,46.8589,162.54,98.2876,95.9327,0.004223862,0.155729,20.9009,1020.84,0.220502,0,0
378,94.25,45.1358,49.6062,162.558,98.2864,96.3808,0.004752664,0.201718,20.887,1020.68,0.178023,0,0
387,96.5,47.7922,49.2818,156.972,98.2758,96.4476,0.005239807,0.245643,20.8661,1020.45,0.170743,0,0
396,98.75,46.9306,52.0385,157.042,98.2729,96.0218,0.005451037,0.276441,20.8458,1020.25,0.210707,0,0
405,101,49.4,51.6091,162.047,98.2636,95.5851,0.005564029,0.293917,20.8238,1020.08,0.251283,0,0
414,103.25,48.5641,53.0851,161.176,98.2591,96.2263,0.005729858,0.302012,20.8041,1019.86,0.190082,0,0
423,105.5,48.4728,54.433,163.168,98.2354,96.0264,0.005876943,0.303452,20.789,1019.68,0.206805,0,0
432,107.75,50.2819,53.8446,165.702,98.2326,94.7382,0.006075131,0.300539,20.7736,1019.49,0.329345,0,0
441,110,49.4855,55.3184,162.042,98.2216,95.1176,0.006366979,0.295543,20.7611,1019.34,0.291984,0,0
450,112.25,50.525,54.8906,162.445,98.2077,96.0859,0.006542947,0.290023,20.751,1019.13,0.198605,0,0
459,114.5,51.1735,55.3953,157.831,98.1963,95.7528,0.006539931,0.284844,20.7421,1018.92,0.229122,0,0
468,116.75,51.5556,55.9873,165.199,98.2077,95.0449,0.006559318,0.281103,20.7364,1018.71,0.297653,0,0
477,119,51.5079,56.5594,157.801,98.2016,96.3294,0.006838889,0.279331,20.7322,1018.5,0.175021,0,0
486,121.25,51.4246,57.6125,162.181,98.191,94.8772,0.007019151,0.279841,20.7278,1018.29,0.31216,0,0
495,123.5,53.3064,56.5501,162.585,98.2045,95.9491,0.007087414,0.282469,20.7231,1018.04,0.211255,0,0
504,125.75,52.5238,58.9132,156.08,98.2028,96.3867,0.007071218,0.286095,20.7189,1017.82,0.169732,0,0
513,128,54.0958,57.7414,161.268,98.2012,96.1318,0.007021138,0.291035,20.714,1017.55,0.19366,0,0
522,130.25,52.7974,59.9193,160.585,98.1955,95.4902,0.006922158,0.297284,20.7084,1017.33,0.25402,0,0
531,132.5,53.8784,60.2373,157.414,98.2102,95.0621,0.007045198,0.305433,20.7036,1017.06,0.296227,0,0
540,134.75,55.8363,59.3744,159.321,98.2171,95.8419,0.007259268,0.312862,20.6971,1016.84,0.222593,0,0
549,137,54.8542,60.6712,160.985,98.2004,93.7149,0.007291026,0.319032,20.6905,1016.61,0.425109,0,0
558,139.25,54.5136,61.6033,163.192,98.2085,95.9582,0.00710222,0.323408,20.687,1016.38,0.210771,0,0
567,141.5,56.6831,60.8384,160.785,98.2126,94.7,0.006874671,0.325492,20.6835,1016.13,0.33116,0,0
576,143.75,56.152,60.4303,163.3,98.2134,95.661,0.006861553,0.324141,20.6785,1015.89,0.239426,0,0
585,146,56.1028,60.7174,164.093,98.1959,94.9131,0.006934924,0.319717,20.6753,1015.68,0.309173,0,0
594,148.25,56.1188,61.1172,156.19,98.1951,94.5873,0.007098762,0.314838,20.6739,1015.48,0.340363,0,0
603,150.5,56.9247,60.7296,162.535,98.1926,94.9631,0.0071768,0.309617,20.6734,1015.25,0.304085,0,0
612,152.75,55.2859,62.1364,164.6,98.1767,95.9423,0.007252072,0.303508,20.6732,1015.08,0.209334,0,0
621,155,55.8937,61.5366,159.929,98.1771,94.6273,0.007284191,0.29694,20.6731,1014.888,0.334859,0,0
630,157.25,56.3261,60.5021,164.966,98.1645,95.8287,0.007019145,0.289033,20.6733,1014.69,0.218973,0,0
639,159.5,55.0584,61.9327,167.34,98.1572,95.6092,0.006789717,0.280523,20.6765,1014.53,0.239141,0,0
648,161.75,54.9389,61.8453,162.583,98.1225,96.2567,0.006712783,0.273048,20.6784,1014.34,0.174559,0,0
657,164,55.7104,60.3372,165.644,98.1168,95.6574,0.006651503,0.267783,20.6803,1014.15,0.230823,0,0
666,166.25,54.5311,61.9221,163.164,98.1136,95.5433,0.0066572,0.262936,20.6841,1013.98,0.241369,0,0
675,168.5,55.4958,60.9047,165.81,98.0862,94.5141,0.006832316,0.257484,20.6872,1013.8,0.337314,0,0
684,170.75,55.071,60.4955,161.278,98.0769,95.118,0.00685838,0.252167,20.6921,1013.64,0.278534,0,0
693,173,56.0053,59.4112,161.357,98.0712,96.3844,0.006757867,0.246899,20.6969,1013.45,0.157744,0,0
702,175.25,54.9095,60.3916,160.214,98.0589,95.5615,0.006568699,0.242574,20.7006,1013.3,0.234575,0,0
711,177.5,53.9994,60.6891,162.713,98.043,95.7333,0.006341881,0.23807,20.705,1013.16,0.216772,0,0
720,179.75,54.8122,59.7628,164.584,98.0389,95.1716,0.006170327,0.233758,20.7095,1013,0.269893,0,0
729,182,54.1368,60.2716,165.519,98.0332,94.9454,0.006115309,0.230819,20.7141,1012.84,0.291008,0,0
738,184.25,53.9608,60.1877,166.107,98.012,95.3375,0.006055601,0.227784,20.7179,1012.72,0.251567,0,0
747,186.5,54.0001,59.6827,163.883,98.0063,95.4475,0.005849801,0.224769,20.7222,1012.58,0.240556,0,0
756,188.75,53.5705,59.568,164.278,97.9929,96.0886,0.00559421,0.222465,20.7267,1012.37,0.178434,0,0
765,191,53.9679,58.8596,163.159,97.9957,95.4129,0.005595272,0.220215,20.7313,1012.24,0.242862,0,0
774,193.25,54.3083,57.8259,163.197,97.9774,96.0064,0.005620697,0.218157,20.7344,1012.1,0.184783,0,0
783,195.5,54.5149,57.5002,162.171,97.9774,96.4099,0.005769349,0.216999,20.7371,1011.95,0.146648,0,0
792,197.75,55.0164,58.0407,164.411,97.9851,95.9009,0.005998116,0.216508,20.7402,1011.8,0.195491,0,0
801,200,54.9804,57.6993,164.119,97.9847,95.367,0.005931692,0.216652,20.7436,1011.61,0.246215,0,0
810,202.25,54.8135,57.9327,161.757,97.9737,96.3617,0.005382795,0.217441,20.7456,1011.45,0.150852,0,0
819,204.5,54.4464,58.1059,161.068,97.9811,95.97,0.004919398,0.218172,20.7473,1011.31,0.188567,0,0
828,206.75,54.0024,57.8656,165.199,97.9798,95.9555,0.004838402,0.218207,20.7483,1011.12,0.18983,0,0
837,209,53.4958,58.207,164.186,97.9794,96.0254,0.005017194,0.217701,20.7502,1010.97,0.183165,0,0
846,211.25,53.5523,58.2093,164.464,97.9697,96.0286,0.00529002,0.217705,20.7513,1010.83,0.181956,0,0
855,213.5,53.6172,58.3593,167.58,97.9697,95.3048,0.005521456,0.2174,20.7523,1010.69,0.250754,0,0
864,215.75,53.2217,58.6152,166.334,97.9639,95.8387,0.005624768,0.216807,20.7534,1010.55,0.199427,0,0
873,218,53.0227,58.6432,163.78,97.9688,94.4637,0.005623595,0.216122,20.7546,1010.41,0.331277,0,0
882,220.25,53.293,58.3928,164.481,97.979,95.646,0.005536873,0.215468,20.755,1010.23,0.219125,0,0
891,222.5,54.3497,57.9361,164.503,97.9749,96.4689,0.005521839,0.214649,20.7557,1010.07,0.140852,0,0
900,224.75,54.7842,57.1665,165.379,97.9676,95.1108,0.005423145,0.214138,20.7574,1009.94,0.269093,0,0
909,227,53.0222,58.222,169.426,97.9798,95.9509,0.005152282,0.213824,20.7581,1009.77,0.190261,0,0
918,229.25,53.3434,58.431,171.901,97.9745,95.9314,0.005042085,0.213399,20.7586,1009.61,0.191622,0,0
927,231.5,53.1211,58.2037,165.36,97.9994,95.7728,0.005128625,0.213174,20.7598,1009.48,0.208972,0,0
936,233.75,53.9457,56.8996,170.273,97.9831,95.4347,0.005177346,0.21312,20.7601,1009.33,0.239611,0,0
945,236,54.7148,56.4872,161.13,97.9851,95.8287,0.005110709,0.213046,20.7602,1009.18,0.202344,0,0
954,238.25,53.11306,58.3844,160.667,97.9823,95.636,0.005028407,0.213061,20.7613,1009.03,0.220378,0,0
963,240.5,54.1621,56.3178,163.993,97.9762,96.4667,0.00501405,0.212937,20.7609,1008.87,0.141179,0,0
972,242.75,53.6257,57.6086,164.677,97.9676,96.4598,0.00479562,0.212637,20.7605,1008.73,0.141028,0,0
981,245,53.7775,56.8458,166.332,97.9705,95.3589,0.004619533,0.21239,20.7604,1008.59,0.245671,0,0
990,247.25,54.4248,56.3731,166.857,97.9652,97.2073,0.004619333,0.21205,20.7617,1008.41,0.0706135,0,0
999,249.5,54.8185,56.9939,159.792,97.9562,96.3081,0.004788827,0.211686,20.7612,1008.25,0.154285,0,0
1008,251.75,53.5068,57.5965,162.212,97.9493,96.7261,0.004999128,0.211685,20.7621,1008.1,0.114259,0,0
1017,254,54.7449,56.5846,171.941,97.9517,96.3176,0.005092464,0.212278,20.7621,1007.96,0.152968,0,0
1026,256.25,53.4543,58.0235,162.442,97.9395,96.6866,0.005140916,0.212434,20.7618,1007.82,0.117068,0,0
1035,258.5,54.7911,56.7477,168.489,97.9334,94.9358,0.005184737,0.2126275,20.7607,1007.66,0.282655,0,0
1044,260.75,53.2256,57.8886,164.313,97.9411,95.5665,0.005441702,0.213321,20.7609,1007.49,0.223168,0,0
1053,263,53.9671,57.6686,166.085,97.9387,94.8363,0.005693578,0.214064,20.7613,1007.34,0.292683,0,0
1062,265.25,53.6109,57.7331,165.889,97.933,95.6201,0.005798388,0.21401,20.7615,1007.2,0.217312,0,0
1071,267.5,53.6342,58.0813,166.85,97.937,96.2167,0.005809639,0.213746,20.7615,1007.06,0.161134,0,0
1080,269.75,53.6191,57.6425,159.402,97.9285,96.0995,0.005670746,0.2135434,20.7616,1006.85,0.171424,0,0
1089,272,53.9074,57.35,161.569,97.9387,95.9055,0.005485665,0.213238,20.7616,1006.74,0.190746,0,0
1098,274.25,53.3493,58.0102,160.14,97.9183,96.2045,0.005255958,0.212715,20.7616,1006.58,0.160551,0,0
1107,276.5,54.3161,56.521,163.416,97.9293,95.5538,0.005069846,0.212176,20.7616,1006.41,0.223281,0,0
1116,278.75,53.966,58.3294,162.51,97.9281,95.5033,0.005057524,0.212023,20.7637,1006.26,0.227967,0,0
1125,281,54.4569,56.5716,166.979,97.9215,95.1467,0.005244606,0.212259,20.7645,1006.11,0.261386,0,0
1134,283.25,53.5089,57.8382,159.682,97.9325,94.9844,0.005454479,0.212614,20.7648,1005.96,0.277923,0,0
1143,285.5,53.2093,58.2347,166.409,97.9228,96.5185,0.005623907,0.212656,20.7649,1005.78,0.131342,0,0
1152,287.75,55.1969,57.2397,163.549,97.9199,96.4644,0.005590845,0.212933,20.7649,1005.59,0.136171,0,0
1161,290,53.6149,58.6518,167.276,97.915,95.8369,0.00561705,0.213816,20.765,1005.43,0.195058,0,0
1170,292.25,53.9564,58.4636,161.992,97.9203,96.6325,0.005765153,0.214667,20.765,1005.28,0.120376,0,0
1179,294.5,55.2092,57.0497,164.896,97.9199,96.3335,0.005848966,0.215655,20.765,1005.12,0.148514,0,0
1188,296.75,54.2507,57.8091,172.126,97.9105,94.9295,0.005989806,0.216897,20.765,1004.96,0.281145,0,0
1197,299,54.275,57.8587,165.354,97.9097,96.4217,0.006162718,0.218118,20.7643,1004.79,0.139252,0,0
1206,301.25,53.9485,58.7744,173.35,97.915,96.015,0.006191944,0.219046,20.7625,1004.65,0.178175,0,0
1215,303.5,54.9608,56.8227,161.125,97.9146,95.9532,0.006111077,0.219687,20.7615,1004.49,0.183991,0,0
1224,305.75,55.3134,56.8975,164.137,97.895,96.2331,0.006040225,0.220604,20.7599,1004.31,0.155688,0,0
1233,308,53.8139,58.5881,165.423,97.8987,96.0182,0.00608747,0.221253,20.7591,1004.15,0.176359,0,0
1242,310.25,55.2511,57.0061,161.273,97.8946,96.0127,0.006101736,0.221218,20.7577,1004.01,0.176497,0,0
1251,312.5,54.7257,57.9771,167.253,97.8918,96.2149,0.005953403,0.220764,20.7568,1003.84,0.157103,0,0
1260,314.75,53.7504,58.7029,166.721,97.8779,95.1616,0.005990183,0.220372,20.7564,1003.7,0.255902,0,0
1269,317,54.5709,57.8706,166.334,97.8816,95.7192,0.006412663,0.219667,20.7563,1003.53,0.203126,0,0
1278,319.25,53.5333,58.4029,164.615,97.884,95.4038,0.00669695,0.217766,20.7562,1003.37,0.233359,0,0
1287,321.5,54.2627,58.0471,166.882,97.8718,95.0371,0.006602726,0.216002,20.7562,1003.23,0.267238,0,0
1296,323.75,53.6751,58.4888,166.332,97.88,95.7955,0.006517599,0.214448,20.7567,1003.1,0.195725,0,0
1305,326,55.1249,56.7962,164.618,97.8689,95.5661,0.006412462,0.212952,20.7574,1002.95,0.21651,0,0
1314,328.25,55.3241,56.9515,166.09,97.8653,94.9381,0.006373297,0.211588,20.7583,1002.79,0.276115,0,0
1323,330.5,54.6731,57.7374,162.773,97.8673,95.6588,0.006417039,0.210176,20.7595,1002.66,0.207543,0,0
1332,332.75,54.2113,57.145,162.697,97.8681,95.6042,0.006568513,0.208706,20.76,1002.52,0.212804,0,0
1341,335,54.1436,57.8894,163.946,97.8738,95.0326,0.006654345,0.207137,20.7601,1002.38,0.267862,0,0
1350,337.25,53.942,57.2347,170.17,97.8575,96.2063,0.006860255,0.205062,20.7609,1002.26,0.154738,0,0
1359,339.5,54.6444,56.4619,163.32,97.8637,96.0786,0.006987672,0.203267,20.7619,1002.12,0.167381,0,0
1368,341.75,54.5921,56.9943,166.43,97.8681,95.9446,0.006955475,0.201451,20.764,1002.02,0.180493,0,0
1377,344,53.1893,56.9761,169.068,97.8628,94.1497,0.006753355,0.199387,20.7661,1001.9,0.351707,0,0
1386,346.25,54.0583,56.4542,160.548,97.8641,95.5247,0.00662951,0.197667,20.7665,1001.74,0.21999,0,0
1395,348.5,54.0502,55.9287,168.148,97.8714,96.4889,0.006732292,0.196205,20.7662,1001.6,0.129353,0,0
1404,350.75,54.4812,55.7679,167.814,97.8734,96.0395,0.006831683,0.194488,20.7673,1001.48,0.171989,0,0
1413,353,53.5302,56.3923,167.707,97.8653,96.558,0.006630434,0.19271,20.7693,1001.37,0.122278,0,0
1422,355.25,53.7756,55.554,174.734,97.8722,95.8859,0.006451572,0.190899,20.7708,1001.22,0.186428,0,0
1431,357.5,53.8205,55.3602,164.254,97.8714,95.826,0.00646634,0.189085,20.7726,1001.11,0.192041,0,0
1440,359.75,53.6312,56.1316,164.654,97.871,96.5475,0.006674795,0.187654,20.7743,1001,0.123792,0,0
1449,362,54.0948,55.5831,167.441,97.8637,95.2484,0.006782878,0.186102,20.7762,1000.86,0.246287,0,0
1458,364.25,53.4529,55.2964,165.756,97.8645,95.2275,0.006802944,0.184973,20.7782,1000.75,0.248359,0,0
1467,366.5,52.0155,56.4919,168.13,97.8767,95.2307,0.006513085,0.184006,20.7798,1000.63,0.249192,0,0
1476,368.75,52.0278,56.5881,165.87,97.8673,95.9991,0.006127445,0.183366,20.7819,1000.49,0.17525,0,0
1485,371,53.0634,55.2335,163.506,97.8702,95.9605,0.005892933,0.18281,20.7835,1000.4,0.179175,0,0
1494,373.25,53.4204,54.4575,163,97.873,95.8578,0.005783653,0.181835,20.7855,1000.27,0.189175,0,0
1503,375.5,52.2372,55.0593,171.044,97.8726,95.2489,0.005807051,0.180991,20.7874,1000.14,0.247077,0,0
1512,377.75,52.7082,55.3624,174.695,97.8612,95.2203,0.005908622,0.18016,20.7888,1000.03,0.24875,0,0
1521,380,51.6779,56.1662,163.483,97.8804,95.5965,0.006227715,0.179377,20.7905,999.894,0.214674,0,0
1530,382.25,52.2001,55.3451,162.318,97.8828,95.6551,0.00649512,0.178805,20.7923,999.774,0.209328,0,0
1539,384.5,51.6738,55.5965,166.024,97.8808,94.9517,0.006695592,0.178267,20.7936,999.714,0.276247,0,0
1548,386.75,53.2086,53.9423,172.515,97.8738,95.761,0.006673531,0.177679,20.7941,999.584,0.198436,0,0
1557,389,52.3973,54.6302,168.355,97.8816,94.894,0.006487995,0.17682,20.7943,999.494,0.281851,0,0
1566,391.25,53.2773,54.7337,168.847,97.893,94.9417,0.006369821,0.176278,20.7946,999.374,0.278341,0,0
1575,393.5,53.1924,53.9983,163.084,97.8955,94.6564,0.006404512,0.176359,20.7961,999.264,0.305939,0,0
1584,395.75,52.4833,53.9709,166.395,97.895,94.685,0.006395977,0.176106,20.798,999.163,0.30315,0,0
1593,398,51.2907,55.395,167.997,97.9044,95.4538,0.00636457,0.175582,20.7987,999.043,0.230489,0,0
1602,400.25,51.486,55.0971,167,97.9109,95.9091,0.00636354,0.175391,20.7994,998.933,0.187828,0,0
1611,402.5,52.369,53.7335,168.724,97.9093,95.4184,0.006519198,0.175698,20.7994,998.813,0.234319,0,0
1620,404.75,53.0765,53.7232,169.003,97.922,95.7096,0.006703502,0.17578,20.7992,998.713,0.207781,0,0
1629,407,53.3442,53.9246,166.079,97.9285,96.2154,0.006656868,0.1757994,20.7992,998.603,0.160468,0,0
1638,409.25,52.2583,54.4585,170.045,97.937,95.0808,0.006603787,0.176426,20.8005,998.503,0.269124,0,0
1647,411.5,53.1322,54.0134,165.621,97.9476,96.0959,0.006423944,0.177127,20.8009,998.393,0.173547,0,0
1656,413.75,52.8494,53.7052,171.354,97.9635,95.8614,0.005995051,0.17737,20.8007,998.293,0.197235,0,0
1665,416,52.3797,53.5953,164.844,97.9758,94.461,0.005581262,0.177425,20.8002,998.152,0.332183,0,0
1674,418.25,52.6628,54.2839,170.19,97.9855,95.9836,0.005479263,0.177802,20.7998,998.052,0.18769,0,0
1683,420.5,52.7735,53.7406,166.068,98.0063,95.2684,0.005857584,0.178312,20.7996,997.922,0.257626,0,0
1692,422.75,53.0271,53.8422,162.809,98.0178,95.5924,0.006236839,0.178824,20.8001,997.822,0.227817,0,0
1701,425,51.0594,55.2156,170.367,98.032,96.543,0.006282893,0.179327,20.7994,997.742,0.139169,0,0
1710,427.25,51.0589,55.0004,170.116,98.0345,94.8181,0.006017112,0.17977,20.7985,997.622,0.303314,0,0
1719,429.5,51.1425,54.914,167.401,98.0703,95.1121,0.005640863,0.180196,20.7992,997.512,0.278493,0,0
1728,431.75,50.9462,54.9602,163.39,98.074,95.6401,0.005452444,0.180428,20.7999,997.382,0.228497,0,0
1737,434,51.2998,54.8169,171.166,98.085,95.0808,0.005509722,0.180686,20.8002,997.292,0.282851,0,0
1746,436.25,52.3649,53.4,166.776,98.1091,96.0027,0.005777105,0.181395,20.7996,997.192,0.197339,0,0
1755,438.5,52.3747,54.2772,168.904,98.1184,96.1822,0.005853504,0.182537,20.7997,997.072,0.181225,0,0
1764,440.75,52.7551,53.9477,166.073,98.1242,95.8396,0.006049475,0.183452,20.7994,996.921,0.214199,0,0
1773,443,51.6116,55.1187,169.329,98.1409,95.6924,0.006059654,0.184265,20.7988,996.811,0.229726,0,0
1782,445.25,52.8959,53.8554,164.267,98.1657,96.05,0.005651592,0.184941,20.7986,996.691,0.198114,0,0
1791,447.5,52.8302,53.6559,163.447,98.2061,96.1527,0.005342195,0.185493,20.7991,996.601,0.192136,0,0
1800,449.75,51.817,55.1043,164.47,98.2301,95.8287,0.00526611,0.186325,20.7985,996.441,0.225051,0,0
1809,452,51.6755,55.3251,163.673,98.284,96.0105,0.00525384,0.187294,20.797,996.341,0.2128,0,0
1818,454.25,52.501,54.0862,165.513,98.3594,96.5793,0.005231355,0.189112,20.7964,996.271,0.166057,0,0
1827,456.5,53.2437,53.9489,166.484,98.4291,96.8861,0.005100226,0.190913,20.7972,996.141,0.143669,0,0
1836,458.75,52.7011,54.301,167.93,98.5045,96.7915,0.004934718,0.19244,20.797,995.991,0.159507,0,0
1845,461,52.0299,55.336,166.037,98.5877,96.4698,0.004861818,0.194193,20.796,995.85,0.197452,0,0
1854,463.25,53.0833,54.5595,167.636,98.6627,95.5779,0.005000287,0.195914,20.7946,995.73,0.28883,0,0
1863,465.5,53.4342,54.3181,166.181,98.7479,96.8138,0.005168619,0.197501,20.7934,995.61,0.179854,0,0
1872,467.75,52.7997,54.9658,162.778,98.8372,96.7788,0.005183296,0.199591,20.7922,995.48,0.191358,0,0
1881,470,53.878,55.0979,164.432,98.9118,96.483,0.005125725,0.20168,20.7917,995.38,0.226052,0,0
1890,472.25,54.0834,55.3961,170.324,98.9815,96.3817,0.005103381,0.20372,20.7906,995.24,0.242013,0,0
1899,474.5,53.9868,54.6644,164.554,99.0451,96.9769,0.004957564,0.20555,20.7882,995.1,0.191869,0,0
1908,476.75,54.2044,55.4089,163.143,99.0993,96.1618,0.00470324,0.207519,20.7871,994.94,0.273601,0,0
1917,479,54.2668,55.2701,162.948,99.1543,96.707,0.004598457,0.209533,20.7851,994.839,0.227236,0,0
1926,481.25,54.2168,55.9465,167.454,99.2037,97.2809,0.004587107,0.211237,20.7829,994.719,0.177959,0,0
1935,483.5,54.4653,55.8796,167.545,99.2293,96.3808,0.004615784,0.212849,20.7808,994.579,0.264839,0,0
1944,485.75,52.6527,57.1249,161.758,99.2619,96.3644,0.004858301,0.215025,20.7795,994.409,0.269371,0,0
1953,488,53.839,55.5813,167.537,99.2746,96.7243,0.005073396,0.217188,20.7785,994.259,0.236634,0,0
1962,490.25,54.4352,56.0175,163.415,99.264,97.4032,0.00502877,0.219787,20.7769,994.109,0.172071,0,0
1971,492.5,53.0405,57.7552,163.452,99.246,96.673,0.004781188,0.222533,20.7747,993.989,0.238849,0,0
1980,494.75,54.7947,56.7783,165.134,99.2155,97.3059,0.004612216,0.225092,20.7731,993.788,0.176707,0,0
1989,497,55.3851,56.9975,162.6,99.1816,97.1028,0.004695032,0.227498,20.7713,993.618,0.192605,0,0
1998,499.25,54.0699,57.5913,160.858,99.129,97.0187,0.004835765,0.230465,20.7686,993.488,0.195657,0,0
2007,501.5,54.4878,57.1016,162.523,99.0981,97.3055,0.004912811,0.234578,20.7676,993.308,0.165984,0,0
2016,503.75,55.3107,56.9907,162.343,99.0675,97.6772,0.004766667,0.238671,20.765,993.138,0.128511,0,0
2025,506,54.1652,59.0186,165.387,99.0235,96.6302,0.004561013,0.241549,20.7619,992.968,0.222451,0,0
2034,508.25,54.7401,58.8206,164.261,98.9937,97.7403,0.004561292,0.245139,20.7602,992.768,0.115859,0,0
2043,510.5,54.7707,59.6603,162.471,98.9635,96.6611,0.004699558,0.249062,20.756,992.537,0.21404,0,0
2052,512.75,55.9312,59.303,160.481,98.9411,95.2639,0.004662406,0.25289,20.7511,992.417,0.344373,0,0
2061,515,56.0697,58.6528,159.946,98.9207,96.9669,0.004729711,0.256956,20.7472,992.287,0.181385,0,0
2070,517.25,56.0121,59.8621,160.939,99.0487,95.6783,0.005013342,0.260718,20.7443,992.027,0.31479,0,0
2079,519.5,56.4852,59.8493,163.741,99.2265,96.085,0.005291666,0.264383,20.7402,991.867,0.292527,0,0
2088,521.75,55.8257,61.0017,159.658,99.3781,97.1919,0.005480689,0.269135,20.7375,991.697,0.202265,0,0
2097,524,57.1783,60.1473,164.042,99.4911,97.7962,0.005544898,0.273545,20.7345,991.496,0.156228,0,0
2106,526.25,57.6071,60.0475,158.31,99.6191,96.8461,0.005451549,0.278295,20.7296,991.256,0.256689,0,0
2115,528.5,57.0499,61.8889,154.364,99.701,96.5743,0.005381209,0.282344,20.7245,991.036,0.289713,0,0
2124,530.75,56.8472,62.0915,164.897,99.7838,96.6216,0.005333608,0.285459,20.721,990.886,0.292809,0,0
2133,533,58.702,61.0563,163.487,99.8025,97.24,0.005373315,0.2885966,20.7186,990.666,0.236506,0,0
2142,535.25,57.1013,62.7872,159.393,99.7903,97.41,0.005562766,0.292296,20.7138,990.405,0.219514,0,0
2151,537.5,58.7988,61.7067,158.499,99.7463,97.2977,0.005748317,0.296063,20.7106,990.185,0.225985,0,0
2160,539.75,58.1857,63.1703,159.895,99.6843,96.4703,0.005984668,0.299533,20.7064,989.995,0.297991,0,0
2169,542,58.3847,63.8377,163.037,99.5795,96.9442,0.006071517,0.303265,20.7018,989.795,0.243869,0,0
2178,544.25,59.0043,62.729,162.561,99.4197,97.3132,0.005919917,0.307438,20.6973,989.555,0.194726,0,0
2187,546.5,60.2063,63.7304,160.447,99.2028,96.2127,0.005846434,0.311384,20.6927,989.354,0.278285,0,0
2196,548.75,60.245,63.772,164.744,99.224,94.9799,0.005989123,0.314319,20.6878,989.094,0.397483,0,0
2205,551,58.9088,64.8296,166.624,99.3027,96.1563,0.006031599,0.317046,20.6847,988.884,0.292761,0,0
2214,553.25,60.9889,64.1547,161.062,99.3985,96.0659,0.005960397,0.320093,20.6824,988.564,0.310084,0,0
2223,555.5,61.04,64.6463,155.399,99.4878,96.8947,0.005998644,0.323324,20.6798,988.404,0.240137,0,0
2232,557.75,60.5628,64.9864,152.706,99.5905,96.1722,0.006086127,0.32564,20.6765,988.183,0.317573,0,0
2241,560,60.203,66.4398,157.202,99.6916,96.1145,0.006046651,0.328409,20.673,987.913,0.332257,0,0
2250,562.25,61.701,65.6756,156.732,99.7797,96.2622,0.006048642,0.332572,20.6687,987.673,0.326324,0,0
2259,564.5,61.0618,66.658,159.261,99.8494,95.3948,0.006004586,0.337222,20.6634,987.443,0.41498,0,0
2268,566.75,61.6402,65.7535,152.757,99.8987,96.0586,0.005980984,0.341175,20.6595,987.192,0.356414,0,0
2277,569,60.9923,67.3867,158.042,99.9093,96.663,0.006027689,0.345393,20.6553,986.912,0.300353,0,0
2286,571.25,62.1602,67.0192,160.556,99.8902,95.2062,0.006151116,0.34894,20.6508,986.732,0.436684,0,0
2295,573.5,62.023,67.7958,160.26,99.8266,95.2184,0.006275445,0.351651,20.6468,986.452,0.429721,0,0
2304,575.75,62.6774,66.6117,162.939,99.7014,95.5129,0.006444955,0.353915,20.642,986.161,0.390241,0,0
2313,578,61.9684,68.1929,157.973,99.5538,96.9251,0.006543319,0.356784,20.6397,985.911,0.243314,0,0
2322,580.25,61.9985,68.7051,156.814,99.3789,95.3639,0.006495354,0.360099,20.6356,985.661,0.374984,0,0
2331,582.5,62.4958,69.3776,161.202,99.1665,95.0821,0.006698885,0.363066,20.6306,985.391,0.382431,0,0
2340,584.75,62.8119,69.64,157.939,98.9273,95.0639,0.007046436,0.365334,20.6266,985.11,0.362203,0,0
2349,587,63.5805,68.076,161.096,98.6822,95.497,0.00730547,0.368221,20.6233,984.87,0.298331,0,0
2358,589.25,63.7546,68.9082,158.452,98.4629,95.0058,0.007382865,0.37118,20.6191,984.64,0.3249892,0,0
2367,591.5,64.6666,68.6701,155.106,98.2542,93.3341,0.007344229,0.373292,20.6154,984.37,0.467109,0,0
2376,593.75,63.8627,69.9263,152.388,98.0887,92.9124,0.007406882,0.37587,20.6129,984.069,0.492952,0,0
2385,596,63.4593,70.4009,157.036,97.9774,93.0587,0.00743843,0.378962,20.6097,983.819,0.468323,0,0
2394,598.25,64.0096,70.24,160.408,97.9272,93.3586,0.00743873,0.382191,20.6065,983.539,0.434413,0,0
2403,600.5,64.6146,71.2907,161.115,97.9325,93.4831,0.007518076,0.385177,20.6041,983.289,0.422787,0,0
2412,602.75,65.6476,69.7666,159.875,98.0014,93.1628,0.007760141,0.387344,20.6005,983.029,0.460393,0,0
2421,605,65.6766,70.7868,155.497,98.129,93.8566,0.007703826,0.39005,20.5959,982.718,0.404756,0,0
2430,607.25,64.9816,71.5804,157.005,98.3076,93.7349,0.007493614,0.392645,20.5918,982.458,0.433091,0,0
2439,609.5,65.8125,71.325,155.69,98.5127,94.1547,0.007586478,0.394679,20.5891,982.198,0.411401,0,0
2448,611.75,65.5308,72.4153,161.542,98.7116,95.2507,0.007906389,0.396841,20.5855,981.917,0.324514,0,0
2457,614,66.1762,71.0045,154.397,98.9179,94.5805,0.008073051,0.398818,20.583,981.657,0.407702,0,0
2466,616.25,66.8248,71.898,154.691,99.0862,93.0419,0.00805269,0.400456,20.58,981.387,0.572292,0,0
2475,618.5,65.3955,72.905,153.056,99.2065,95.7419,0.008116887,0.401994,20.577,981.137,0.323218,0,0
2484,620.75,66.6877,72.3756,153.33,99.2831,94.6873,0.008113352,0.40158,20.5739,980.857,0.430955,0,0
2493,623,65.8184,73.2561,156.35,99.2872,94.1315,0.008032446,0.400897,20.5712,980.576,0.48485,0,0
2502,625.25,66.835,72.7545,154.617,99.255,94.9435,0.008017853,0.40011,20.5698,980.346,0.403802,0,0
2511,627.5,66.613,73.1784,159.34,99.1515,94.7395,0.007946414,0.399799,20.5688,980.096,0.413871,0,0
2520,629.75,67.2064,72.1998,157.675,99.0691,93.8616,0.007893284,0.399132,20.5662,979.796,0.490964,0,0
2529,632,66.5376,73.6875,156.864,98.9847,94.2574,0.007839434,0.397453,20.5649,979.595,0.444957,0,0
2538,634.25,67.262,71.8911,162.326,98.9183,93.868,0.007751448,0.395365,20.5644,979.305,0.476493,0,0
2547,636.5,66.8323,72.6898,156.616,99.0581,94.7713,0.00786454,0.392895,20.5643,979.075,0.402255,0,0
2556,638.75,67.7501,72.2398,168.165,99.4368,94.6555,0.008008274,0.389345,20.5642,978.815,0.448075,0,0
2565,641,66.4505,73.3747,158.282,99.6676,94.6423,0.008114653,0.385267,20.563,978.624,0.470414,0,0
2574,643.25,67.454,71.9862,159.615,99.7829,95.2225,0.008279459,0.383681,20.5632,978.404,0.425357,0,0
2583,645.5,67.0783,72.6344,158.895,99.7858,95.223,0.007969602,0.38205,20.5638,978.144,0.425573,0,0
2592,647.75,65.8251,73.1991,161.669,99.6158,95.7564,0.007502086,0.379075,20.5653,977.934,0.359274,0,0
2601,650,66.1402,73.1622,157.577,99.3431,94.1038,0.007070125,0.376207,20.5675,977.724,0.492641,0,0
2610,652.25,66.8262,72.4854,154.849,99.2208,93.7071,0.006954636,0.371657,20.5704,977.453,0.519851,0,0
2619,654.5,66.8759,71.4767,154.21,99.3602,94.959,0.00724726,0.365893,20.5725,977.263,0.411953,0,0
2628,656.75,66.0446,72.9724,155.885,99.5379,94.2133,0.007564554,0.3619,20.5746,977.053,0.499884,0,0
2637,659,66.6007,71.5148,160.835,99.6928,96.468,0.007517392,0.358558,20.5769,976.833,0.298986,0,0
2646,661.25,66.9001,71.0536,157.19,99.8274,95.3457,0.00719215,0.354822,20.5805,976.603,0.417655,0,0
2655,663.5,66.8755,71.7561,156.575,99.9048,95.4915,0.006946763,0.35068,20.5827,976.382,0.410807,0,0
2664,665.75,66.2309,70.7703,160.448,99.8918,96.0359,0.00680063,0.346857,20.5842,976.192,0.357934,0,0
2673,668,67.0445,70.9576,156.581,99.7785,96.2999,0.006680925,0.342943,20.5862,976.002,0.322651,0,0
2682,670.25,66.4788,71.127,158.761,99.5877,95.6301,0.006645674,0.338919,20.5888,975.822,0.368709,0,0
2691,672.5,66.548,70.1604,154.081,99.3215,96.229,0.006656978,0.335224,20.5929,975.642,0.287606,0,0
2700,674.75,65.7369,70.1046,156.522,99.0067,96.339,0.00673478,0.33127,20.5976,975.452,0.248364,0,0
2709,677,66.2459,69.6368,158.454,98.6537,95.7105,0.006782295,0.326814,20.6016,975.261,0.27539,0,0
2718,679.25,64.6284,71.2069,162.857,98.372,94.7831,0.006724406,0.322555,20.6053,975.111,0.337924,0,0
2727,681.5,65.5906,70.2212,159.622,98.1286,94.6282,0.006555649,0.318963,20.6095,974.931,0.330278,0,0
2736,683.75,64.7239,70.6665,160.672,97.9741,96.2785,0.006455236,0.315327,20.6125,974.791,0.158738,0,0
2745,686,65.9025,69.0658,156.148,97.9366,96.9501,0.006169698,0.311447,20.6165,974.621,0.0920527,0,0
2754,688.25,65.2473,70.4557,162.161,97.9982,96.1036,0.005741391,0.307036,20.6209,974.431,0.177507,0,0
2763,690.5,65.3437,68.4373,158.196,98.1417,96.2481,0.005555614,0.303416,20.624,974.27,0.17715,0,0
2772,692.75,64.0577,69.6002,155.398,98.3406,97.0415,0.005466095,0.300234,20.6273,974.09,0.120921,0,0
2781,695,64.9948,67.8606,164.273,98.5754,97.0496,0.005350704,0.296223,20.6322,973.94,0.141841,0,0
2790,697.25,64.4804,68.6448,161.649,98.8009,97.4995,0.005387508,0.292005,20.6369,973.8,0.120562,0,0
2799,699.5,64.4081,67.5708,158.268,99.008,96.3331,0.005520608,0.287736,20.641,973.66,0.249035,0,0
2808,701.75,64.3606,68.0149,156.579,99.182,97.2491,0.005604998,0.283234,20.6452,973.53,0.178953,0,0
2817,704,64.2032,67.05,157.18,99.2636,97.7435,0.005595665,0.278441,20.6497,973.37,0.140317,0,0
2826,706.25,63.2981,67.5305,155.881,99.284,98.999,0.005371351,0.273833,20.6544,973.249,0.0261369,0,0
2835,708.5,62.7943,68.1704,165.483,99.2159,98.1197,0.005062456,0.269455,20.6582,973.129,0.101015,0,0
2844,710.75,63.0603,66.4852,158.798,99.0777,97.3464,0.004798033,0.265182,20.664,972.989,0.160292,0,0
2853,713,62.4553,66.5985,163.399,98.9721,97.8598,0.004831382,0.260927,20.6669,972.859,0.102764,0,0
2862,715.25,62.5349,66.0937,157.345,98.8877,98.6873,0.004932038,0.256874,20.6718,972.709,0.0184491,0,0
2871,717.5,63.5056,65.5303,161.23,98.9052,98.2079,0.00488791,0.252555,20.6768,972.579,0.0643367,0,0
2880,719.75,61.4601,66.5093,161.981,99.3243,98.8018,0.004765819,0.248569,20.6795,972.449,0.04796252,0,0
2889,722,62.0796,64.8139,157.396,99.6081,98.7209,0.004861651,0.244382,20.6836,972.339,0.0813464,0,0
2898,724.25,62.5984,64.8614,163.119,99.7422,99.7228,0.00515153,0.240328,20.6885,972.279,0.001764452,0,0
2907,726.5,60.8381,65.1984,162.206,99.7601,99.6824,0.005155157,0.236745,20.6927,972.138,0.007087165,0,0
2916,728.75,60.6001,65.54,163.679,99.6378,99.1439,0.004869506,0.232782,20.6965,972.068,0.0451814,0,0
2925,731,62.0342,63.9453,163.989,99.4177,98.834,0.004849511,0.228154,20.702,971.958,0.0535363,0,0
2934,733.25,60.5786,63.8917,162.435,99.1637,99.2325,0.005080118,0.223783,20.7057,971.868,-0.006308983,0,0
2943,735.5,60.9341,62.8486,164.395,99.2644,98.5873,0.005431494,0.220044,20.7104,971.778,0.0622345,0,0
2952,737.75,59.4791,63.6107,169.132,99.4209,98.7313,0.00575886,0.215792,20.7149,971.678,0.0632873,0,0
2961,740,60.371,62.1625,163.202,99.5644,99.0099,0.006051934,0.211496,20.7196,971.568,0.05078486,0,0
2970,742.25,59.5658,62.6418,158.927,99.712,99.2125,0.006161738,0.207458,20.7241,971.498,0.0456602,0,0
2979,744.5,58.9534,62.9289,164.61,99.8107,98.9949,0.006195194,0.204153,20.7286,971.408,0.0746212,0,0
2988,746.75,58.9493,62.215,168.778,99.8718,100.049,0.006074548,0.201262,20.7349,971.338,-0.0161241,0,0
2997,749,58.4426,62.3768,165.571,99.8755,98.6714,0.006160193,0.199245,20.7386,971.238,0.110288,0,0
3006,751.25,58.632,61.1897,168.681,99.8539,99.7733,0.00627385,0.196595,20.7426,971.188,0.007343851,0,0
3015,753.5,58.1749,61.6951,166.217,99.7442,98.2751,0.006348616,0.193869,20.7466,971.117,0.134916,0,0
3024,755.75,58.1268,61.2576,167.988,99.5571,99.2189,0.006464913,0.191491,20.7496,971.037,0.0309399,0,0
3033,758,57.9992,60.4553,166.766,99.3895,98.4064,0.006592324,0.189595,20.7536,970.967,0.0903851,0,0
3042,760.25,58.4982,59.9327,167.023,99.1543,98.9972,0.006913053,0.187541,20.7576,970.897,0.0144242,0,0
3051,762.5,58.5166,59.2902,166.162,98.9232,97.9698,0.007235377,0.185208,20.7611,970.827,0.088057,0,0
3060,764.75,57.8462,58.6786,168.272,98.6912,97.4491,0.007371986,0.182942,20.764,970.747,0.115169,0,0
3069,767,58.0233,58.4769,162.587,98.4588,97.6422,0.007402935,0.180727,20.7667,970.697,0.0757338,0,0
3078,769.25,57.131,59.2795,164.541,98.2807,97.6317,0.00746532,0.178015,20.7704,970.627,0.0602405,0,0
3087,771.5,56.6998,59.3129,170.393,98.1258,97.9584,0.00757839,0.175094,20.7736,970.537,0.0155215,0,0
3096,773.75,57.5417,58.0465,162.71,98.0161,98.4255,0.007774414,0.172166,20.7764,970.517,-0.0379007,0,0
3105,776,57.1145,57.7527,170.326,97.9603,97.2659,0.007968165,0.169476,20.7793,970.447,0.0646779,0,0
3114,778.25,56.3344,57.5246,163.673,97.9431,97.4491,0.008061738,0.167593,20.7833,970.417,0.0459859,0,0
3123,780.5,57.0291,57.3933,164.751,97.9758,97.7221,0.008220033,0.165685,20.7867,970.327,0.0235675,0,0
3132,782.75,56.8676,57.2019,172.231,98.0606,97.3318,0.008601583,0.163338,20.7897,970.267,0.0678242,0,0
3141,785,56.1651,56.3211,165.491,98.1445,96.9388,0.009005696,0.160686,20.7925,970.227,0.112401,0,0
3150,787.25,54.7561,57.4339,164.218,98.2705,97.6553,0.009302272,0.1585,20.795,970.157,0.05709691,0,0
3159,789.5,55.0401,56.9695,168.128,98.4071,98.2947,0.009653823,0.156571,20.7969,970.137,0.0103921,0,0
3168,791.75,54.3485,57.321,166.32,98.5571,97.8126,0.0100182,0.15436,20.7984,970.087,0.0689484,0,0
3177,794,55.2735,56.4633,168.391,98.6884,98.1029,0.0101957,0.152298,20.8021,970.026,0.0540998,0,0
3186,796.25,54.917,55.2593,170.198,98.827,98.3706,0.0102764,0.150261,20.8048,969.977,0.0420897,0,0
3195,798.5,54.6345,55.693,170.8,98.9595,98.7413,0.0104333,0.148294,20.8073,969.936,0.020064,0,0
3204,800.75,54.9288,55.3327,165.95,99.0659,97.9743,0.0106936,0.146336,20.8105,969.886,0.10074,0,0
3213,803,53.5902,55.4742,168.735,99.1539,99.1944,0.0109803,0.144346,20.813,969.836,-0.00370885,0,0
3222,805.25,53.689,55.6298,166.992,99.2175,98.2438,0.01139384,0.142873,20.814,969.816,0.0896768,0,0
3231,807.5,53.7611,54.3112,167.049,99.2579,98.55,0.0119368,0.141524,20.8165,969.776,0.0650728,0,0
3240,809.75,53.4287,54.7304,171.903,99.2856,98.9835,0.0124059,0.139846,20.8185,969.746,0.027705,0,0
3249,812,52.9098,55.1314,167.136,99.2693,98.7045,0.0128118,0.13798,20.8217,969.696,0.05187669,0,0
3258,814.25,52.9535,54.0783,168.102,99.2534,98.7559,0.0128995,0.136218,20.824,969.656,0.0456915,0,0
3267,816.5,53.3061,53.8384,166.376,99.2016,98.3537,0.0127353,0.134854,20.8259,969.636,0.0780478,0,0
3276,818.75,52.1032,54.5368,170.017,99.1237,98.8481,0.0126494,0.133938,20.8281,969.576,0.0253187,0,0
3285,821,52.2735,54.2125,166.919,99.0532,98.6432,0.0128016,0.132749,20.8297,969.566,0.03771691,0,0
3294,823.25,53.2142,52.7297,172.866,98.9643,98.3074,0.012954,0.131544,20.8321,969.536,0.06056032,0,0
3303,825.5,51.9638,54.1723,167.112,98.9056,98.6423,0.0131465,0.13049,20.8348,969.506,0.02424423,0,0
3312,827.75,51.7778,53.4019,167.083,98.8539,97.9339,0.0135986,0.12912,20.8367,969.456,0.0850175,0,0
3321,830,51.8227,53.5069,165.473,98.8111,97.7626,0.01381792,0.1281,20.838,969.446,0.0969968,0,0
3330,832.25,51.9722,52.0851,172.502,98.8021,98.0452,0.0135296,0.127181,20.8394,969.396,0.069923,0,0
3339,834.5,51.5476,53.2698,163.657,98.8922,97.9798,0.0133885,0.127373,20.841,969.376,0.0842819,0,0
3348,836.75,51.3865,52.6966,166.456,99.1217,98.1111,0.0138118,0.128485,20.8422,969.336,0.0931804,0,0
3357,839,52.2037,51.4701,167.293,99.3202,98.0552,0.0144396,0.129068,20.8426,969.306,0.116556,0,0
3366,841.25,51.9523,51.9493,172.037,99.4633,98.7513,0.015029,0.128546,20.8428,969.286,0.0653225,0,0
3375,843.5,50.816,52.6703,168.046,99.5738,98.6009,0.01521528,0.127424,20.8435,969.246,0.0892754,0,0
3384,845.75,51.1315,52.2839,171.927,99.6594,99.333,0.015201,0.127156,20.8446,969.226,0.0298347,0,0
3393,848,51.2834,50.982,169.084,99.7067,99.3402,0.0152533,0.127786,20.8451,969.196,0.03348238,0,0
3402,850.25,51.4849,51.078,172.613,99.7197,98.5905,0.0152235,0.128337,20.8452,969.166,0.103557,0,0
3411,852.5,51.4084,51.3963,171.011,99.7083,99.5243,0.0151208,0.128406,20.8453,969.156,0.0168026,0,0
3420,854.75,50.4894,51.8127,170.931,99.6843,98.6814,0.0150392,0.128496,20.8453,969.116,0.0919443,0,0
3429,857,50.4807,51.6218,169.962,99.615,98.9445,0.0150642,0.129224,20.8453,969.096,0.0614109,0,0
3438,859.25,50.6722,50.6948,176.308,99.5057,98.2615,0.0153281,0.129926,20.8449,969.056,0.114411,0,0
3447,861.5,50.6667,51.1446,165.36,99.3688,99.2752,0.0156309,0.129952,20.8461,969.036,0.00856003,0,0
3456,863.75,50.9556,50.5078,170.378,99.2094,98.8804,0.01562842,0.129774,20.8467,969.006,0.0302009,0,0
3465,866,50.8181,50.2857,169.125,99.1576,98.5032,0.0156111,0.129142,20.8469,968.976,0.0602018,0,0
3474,868.25,50.2222,50.3776,170.103,99.2045,99.1285,0.0159,0.127838,20.847,968.956,0.006966943,0,0
3483,870.5,50.2573,50.6343,167.7,99.2624,98.2233,0.0163132,0.126793,20.847,968.945,0.0956777,0,0
3492,872.75,50.5642,49.9759,170.272,99.3284,99.1017,0.0165957,0.12516,20.847,968.895,0.0207778,0,0
3501,875,50.6701,49.9023,172.94,99.372,99.6206,0.0168088,0.123699,20.847,968.885,-0.0227154,0,0
3510,877.25,49.0375,51.2899,168.195,99.4503,99.0726,0.0168525,0.122002,20.8484,968.855,0.0345979,0,0
3519,879.5,49.6618,50.3015,170.559,99.5249,100.027,0.0168992,0.120248,20.849,968.835,-0.0457812,0,0
3528,881.75,49.1975,50.8557,171.107,99.5983,98.6668,0.01691829,0.119474,20.8492,968.805,0.0854342,0,0
3537,884,49.4025,50.896,167.186,99.6496,100.165,0.016989,0.119593,20.8496,968.785,-0.0468979,0,0
3546,886.25,49.4361,50.2797,171.358,99.7083,99.4588,0.0171041,0.120214,20.8509,968.765,0.0227826,0,0
3555,888.5,50.5342,49.8779,169.419,99.7569,99.7805,0.0172403,0.120597,20.8514,968.735,-0.002157801,0,0
3564,890.75,48.5952,50.6118,164.551,99.7882,99.2662,0.0171332,0.120667,20.8531,968.715,0.0476962,0,0
3573,893,49.543,49.1731,173.501,99.8257,100.17,0.0170827,0.120496,20.8537,968.695,-0.0312967,0,0
3582,895.25,49.4723,49.0435,167.557,99.8624,99.716,0.0173816,0.119982,20.854,968.655,0.013343,0,0
3591,897.5,49.3732,49.3385,169.731,99.8783,99.467,0.0176415,0.119353,20.854,968.625,0.0375248,0,0
3600,899.75,49.9499,49.2601,171.322,99.8828,99.3861,0.0177371,0.118996,20.8555,968.605,0.0453291,0,0
3609,902,48.9821,49.3143,168.729,99.891,99.8391,0.0177049,0.119614,20.8561,968.565,0.004719252,0,0
3618,904.25,49.8812,49.4903,167.291,99.884,98.9449,0.0175826,0.120631,20.8563,968.585,0.0858959,0,0
3627,906.5,49.7325,49.6585,165.976,99.8702,99.1376,0.0173335,0.121184,20.8564,968.535,0.0669463,0,0
3636,908.75,48.419,50.3228,168.122,99.8302,99.6179,0.01727901,0.12153,20.8555,968.525,0.0193631,0,0
3645,911,48.885,48.5889,166.669,99.8156,99.6283,0.0177332,0.121842,20.8546,968.515,0.0170731,0,0
3654,913.25,49.5626,49.2607,170.161,99.7813,99.2516,0.01837942,0.122447,20.8543,968.475,0.048397,0,0
3663,915.5,48.6426,48.9266,162.462,99.743,99.0621,0.0187394,0.122814,20.8542,968.455,0.06227969,0,0
3672,917.75,47.7978,49.7375,170.154,99.6973,99.2675,0.0190141,0.122542,20.8541,968.445,0.03928519,0,0
3681,920,48.6632,48.6919,167.885,99.6419,99.6474,0.019503,0.122297,20.8541,968.445,-0.000501869,0,0
3690,922.25,47.9745,49.7357,173.225,99.586,99.0635,0.0197416,0.12213,20.8541,968.405,0.0478353,0,0
3699,924.5,47.8561,49.7866,172.275,99.5224,98.9117,0.019788,0.122328,20.8541,968.445,0.055968,0,0
3708,926.75,48.3332,47.9689,174.108,99.4593,98.6777,0.0196788,0.122284,20.8541,968.535,0.0717299,0,0
3717,929,47.5814,49.1938,175.12,99.4083,98.7977,0.0194237,0.121662,20.8541,968.475,0.0560229,0,0
3726,931.25,47.9896,47.5996,170.928,99.3365,98.296,0.0179526,0.120368,20.8541,968.445,0.0957442,0,0
3735,933.5,46.4267,47.6129,169.019,99.2501,98.0457,0.0157094,0.114761,20.8557,968.445,0.111019,0,0
3744,935.75,46.7489,46.7414,171.999,99.1894,98.4237,0.0141525,0.108098,20.8586,-0.0500463,0.0704597,0,0
3753,938,45.6271,47.3211,167.318,99.1258,98.9199,0.0132338,0.103979,20.8608,0.0700648,0.0189034,0,0
3762,940.25,46.0081,46.4412,171.815,99.0569,98.1111,0.0124892,0.101989,20.8639,0.0200185,0.0872326,0,0
3771,942.5,46.1019,45.6369,172.221,98.9864,98.3169,0.0117967,0.100476,20.8665,-0.0100093,0.0617005,0,0
3780,944.75,45.8055,46.2644,170.954,98.9179,98.0675,0.0101865,0.0994617,20.8689,0,0.0785078,0,0
3789,947,45.1463,46.6624,170.4,98.8588,98.3724,0.007880107,0.0961613,20.8708,0,0.044847,0,0
3798,949.25,45.14,46.2064,172.645,98.7797,97.8648,0.006003886,0.090828,20.8736,0,0.0846052,0,0
3807,951.5,44.5887,46.0601,173.995,98.7063,98.1052,0.004844686,0.0860938,20.876,0,0.0555425,0,0
3816,953.75,45.6844,45.3147,173.544,98.6488,97.5345,0.00427781,0.0825123,20.8793,0,0.103295,0,0
3825,956,44.3666,45.8776,170.165,98.575,97.7971,0.003846226,0.0798295,20.8834,0,0.0720396,0,0
3834,958.25,44.4076,45.1793,174.759,98.5163,98.0329,0.003393044,0.0773495,20.888,0,0.0447241,0,0
3843,960.5,44.3921,45.1744,171.87,98.4646,98.5305,0.002982981,0.0754313,20.8921,-0.0100093,-0.006087712,0,0
3852,962.75,44.6535,45.04,164.868,98.4128,98.0438,0.002547885,0.0740999,20.8958,0,0.0341508,0,0
3861,965,44.6509,44.8162,177.462,98.3696,97.539,0.0022026,0.073198,20.899,-0.0200185,0.0770967,0,0
3870,967.25,45.336,44.3036,175.448,98.3398,97.5372,0.002230044,0.0724019,20.9021,-0.0200185,0.0745137,0,0
3879,969.5,45.1435,43.8241,171.489,98.3011,97.1255,0.002507212,0.0719149,20.9046,-0.0300278,0.109391,0,0
3888,971.75,44.0553,43.7336,170.408,98.2656,97.2318,0.002641333,0.0715964,20.9055,-0.040037,0.09616138,0,0
3897,974,43.6,44.5056,168.367,98.2285,98.0838,0.002688948,0.071466,20.9077,-0.0300278,0.0134026,0,0
3906,976.25,44.1989,44.6493,170.759,98.2036,97.7008,0.002643415,0.0712668,20.9096,-0.0200185,0.0466793,0,0
3915,978.5,43.5511,44.114,175.113,98.202,97.9366,0.002508618,0.0711419,20.9106,-0.0300278,0.02460745,0,0
3924,980.75,43.3647,44.818,171.794,98.1767,97.4627,0.002502676,0.0710526,20.9124,-0.0200185,0.0663739,0,0
3933,983,43.2182,44.432,175.655,98.1771,97.0174,0.00268508,0.0708895,20.9143,-0.0200185,0.10805,0,0
3942,985.25,43.2013,44.5608,174.314,98.4156,97.6285,0.002784116,0.0709495,20.9151,-0.0200185,0.0730127,0,0
3951,987.5,43.6931,43.0875,170.983,98.4299,97.7912,0.002818661,0.0709714,20.9163,-0.0100093,0.0591928,0,0
3960,989.75,44.1489,43.0532,172.013,98.4107,97.753,0.002645626,0.0710203,20.9173,-0.0300278,0.0609727,0,0
3969,992,43.9974,43.2113,172.115,98.394,97.634,0.002504071,0.0711785,20.9176,-0.0200185,0.07050813,0,0
3978,994.25,44.1321,43.431,172.619,98.3736,97.9189,0.002603147,0.0714838,20.9178,-0.0200185,0.0421296,0,0
3987,996.5,44.3066,43.0228,178.802,98.341,97.9502,0.002652785,0.0717419,20.9179,-0.0100093,0.0362034,0,0
3996,998.75,43.2885,43.4024,174.613,98.3357,97.7598,0.002579435,0.0721755,20.9181,-0.0200185,0.0534048,0,0
4005,1001,44.0431,43.3436,176.46,98.3219,98.137,0.002719028,0.0724805,20.9184,-0.0200185,0.0171131,0,0
4014,1003.25,43.2127,43.2658,170.448,98.2917,97.773,0.00293257,0.072575,20.9185,-0.0200185,0.048107,0,0
4023,1005.5,42.5198,44.0697,171.371,98.286,97.3504,0.002979398,0.0725361,20.9198,-0.0100093,0.08696311,0,0
4032,1007.75,43.3454,43.0266,174.936,98.2591,97.3709,0.002999447,0.0724177,20.9194,-0.0100093,0.0825646,0,0
4041,1010,42.9554,43.1922,176.481,98.2546,97.8739,0.003073153,0.0726555,20.9189,-0.0200185,0.0352997,0,0
4050,1012.25,43.4184,43.1801,174.292,98.2403,97.4431,0.003091651,0.0727459,20.9187,0,0.0740847,0,0
4059,1014.5,43.3339,42.1326,168.179,98.2167,97.2591,0.003038257,0.0727394,20.9186,0,0.0890843,0,0
4068,1016.75,42.8166,42.8029,172.979,98.2081,97.6049,0.002705145,0.0727988,20.9175,0,0.0560219,0,0
4077,1019,43.5221,43.0713,170.964,98.1971,97.9312,0.002314122,0.072974,20.9179,0,0.0246604,0,0
4086,1021.25,43.37,42.1718,174.501,98.1771,97.5254,0.002261986,0.073323,20.9183,0,0.0605636,0,0
4095,1023.5,43.1447,42.1028,170.957,98.1608,97.5454,0.002608684,0.0733999,20.9185,0,0.0571895,0,0
4104,1025.75,43.3942,43.1058,171.232,98.1584,97.7689,0.002897256,0.0733993,20.9177,0,0.0361473,0,0
4113,1028,43.4111,42.6291,172.906,98.136,97.6858,0.003067878,0.0733988,20.9168,0,0.041807,0,0
4122,1030.25,43.0163,42.1794,173.585,98.1017,97.1828,0.003082268,0.0733988,20.9171,-0.0100093,0.0855748,0,0
4131,1032.5,43.2162,42.9353,177.377,98.1005,97.2632,0.003070314,0.0732386,20.918,0,0.0779393,0,0
4140,1034.75,42.0769,43.5226,168.501,98.0871,97.3409,,0.0732202,,0,0.0694314,0,0
4149,1037,43.0016,41.9003,173.318,98.0695,96.6939,,,,0.0100093,0.128449,0,0
4158,1039.25,42.0347,42.9522,170.504,98.0663,97.5113,,,,0,0.0516019,0,0
4167,1041.5,41.8473,43.477,170.57,98.0593,98.1147,,,,0,-0.005135442,0,0
4176,1043.75,43.4207,42.4413,172.854,98.0463,97.0015,,,,0.0100093,0.097414,0,0