File: 01_Data/Plywood/Cone/Plywood_Cone_HF35Scan_190311_R3.csv
Names,Time,Stack TC,Smoke TC,Exh Press,Smoke Comp,Smoke Meas,CO Meter,CO2 Meter,O2 Meter,Sample Mass,Ext Coeff,Start Test,Flame Verif
Chan Gain,,500,500,1,1,1,1,1,1,1,1,1,1
Offset,,0,0,0.120824,0,0,0,0,0,0,0,0,0
Gain,,1,1,25.011,13.3584,14.8895,1,1,1,1.00093,1.03656,1,1
Units,sec,C,C,Pa,%,%,%,%,%,g,/m,,
Baseline,,36.9342,38.0627,174.382,99.7043,96.715,0.007865127,0.0582086,20.9653,-0.188924,0.276834,,
9,2,36.0309,39.5533,179.189,99.6117,96.4598,0.008167651,0.0592457,20.9627,1024.61,0.292355,0,0
18,4.25,38.9997,36.6046,178.498,99.6048,96.9501,0.007828117,0.0591474,20.9615,1024.62,0.245624,0,0
27,6.5,35.9676,39.8934,177.866,99.5991,96.5503,0.007754266,0.0593852,20.961,1024.62,0.282682,0,0
36,8.75,38.9848,36.7285,174.717,99.5979,95.7201,0.007757683,0.0597265,20.9608,1024.6,0.36109,0,0
45,11,36.7917,40.2787,173.259,99.5811,96.628,0.007788126,0.0603198,20.9607,1024.57,0.273729,0,0
54,13.25,36.2791,38.8285,177.378,99.5636,96.164,0.007813875,0.0605763,20.9607,1024.56,0.315889,0,0
63,15.5,38.604,35.9001,167.524,99.5375,96.4121,0.007796887,0.0605755,20.9607,1024.53,0.290078,0,0
72,17.75,37.0381,38.4124,177.957,99.5371,96.398,0.007970969,0.06037144,20.9607,1024.52,0.29137,0,0
81,20,34.8595,39.4063,170.628,99.5192,95.8314,0.008127956,0.0600934,20.9607,1024.5,0.343334,0,0
90,22.25,38.6721,35.8189,177.71,99.5021,96.8156,0.008111561,0.0597903,20.9607,1024.49,0.248863,0,0
99,24.5,37.6607,38.4864,176.77,99.4825,96.2417,0.007968489,0.0594736,20.9619,1024.46,0.301134,0,0
108,26.75,34.7799,39.2722,170.404,99.4515,95.99,0.007755306,0.0594783,20.9626,1024.45,0.322116,0,0
117,29,35.5739,39.9922,175.826,99.423,95.9796,0.007751389,0.0595718,20.9615,1024.43,0.320496,0,0
126,31.25,35.8918,39.0219,171.578,99.4311,96.0318,0.007754289,0.0598001,20.961,1024.41,0.316293,0,0
135,33.5,35.5706,39.1536,173.476,99.3936,96.0759,0.007769483,0.0600992,20.9602,1024.39,0.30869,0,0
144,35.75,36.2731,40.3516,178.27,99.3855,96.0759,0.00773224,0.0602873,20.9593,1024.37,0.307944,0,0
153,38,39.1294,36.3915,163.785,99.3683,96.0913,0.007748662,0.0604553,20.9604,1024.36,0.304916,0,0
162,40.25,39.312,36.7375,171.202,99.3557,96.0354,0.007799641,0.0605059,20.9608,1024.34,0.309049,0,0
171,42.5,35.2196,40.0589,172.401,99.3353,95.651,0.007758348,0.0602111,20.9609,1024.32,0.343653,0,0
180,44.75,37.442,38.8053,173.503,99.3003,95.293,0.007750052,0.0600869,20.961,1024.31,0.374544,0,0
189,47,35.3731,40.0766,176.74,99.2868,95.5324,0.007630985,0.060321,20.961,1024.29,0.350491,0,0
198,49.25,38.1495,39.0068,171.077,99.2872,95.7701,0.007547019,0.0606157,20.9603,1024.27,0.327939,0,0
207,51.5,38.3094,37.3069,172.199,99.2648,95.3284,0.007561301,0.061003,20.9608,1024.25,0.367916,0,0
216,53.75,39.0525,38.0703,173.391,99.2477,95.3252,0.007687507,0.0618337,20.9609,1024.22,0.36665,0,0
225,56,39.4431,36.5045,174.372,99.2416,94.6882,0.00797833,0.062847,20.9605,1024.21,0.427059,0,0
234,58.25,37.0198,39.2726,171.612,99.2407,95.1444,0.008055611,0.0634469,20.9588,1024.18,0.383281,0,0
243,60.5,35.3077,39.7802,172.877,99.2151,94.1097,0.007942408,0.063115,20.9575,1024.17,0.480347,0,0
252,62.75,35.3952,40.1077,170.624,99.2138,94.3737,0.008076012,0.0626054,20.9568,1024.13,0.454763,0,0
261,65,37.3219,40.9004,171.927,99.2045,93.6967,0.008327243,0.0618593,20.9565,1024.12,0.51937,0,0
270,67.25,35.2919,39.7294,172.707,99.1922,94.4087,0.008599998,0.0612733,20.9564,1024.11,0.449413,0,0
279,69.5,38.51,37.5518,172.566,99.1543,94.2052,0.008812599,0.061021,20.9563,1024.07,0.465563,0,0
288,71.75,39.046,36.965,172.64,99.1796,93.8562,0.008751579,0.061108,20.9577,1024.04,0.501626,0,0
297,74,38.465,38.1969,176.412,99.1759,93.295,0.008609808,0.0609914,20.9583,1024,0.555817,0,0
306,76.25,38.4198,38.5203,174.246,99.1633,95.7414,0.008713713,0.060567,20.9585,1023.94,0.319301,0,1
315,78.5,36.8588,39.9777,167.604,99.136,96.2972,0.008924949,0.0604529,20.9586,1023.86,0.264171,0,1
324,80.75,36.5283,41.1367,169.274,99.1429,96.981,0.009032439,0.0621784,20.9586,1023.77,0.200464,0,0
333,83,39.9365,39.9197,162.1,99.1229,96.5984,0.008937237,0.0736974,20.9591,1023.65,0.234574,0,0
342,85.25,41.8056,40.2842,163.129,99.1095,96.6089,0.008861346,0.0955707,20.9565,1023.5,0.232356,0,0
351,87.5,41.8299,44.159,162.513,99.1017,97.2255,0.0089251,0.132692,20.9502,1023.32,0.173796,0,0
360,89.75,39.8137,45.2403,168.216,99.1209,96.4289,0.009303637,0.174605,20.9362,1023.15,0.250354,0,0
369,92,44.6309,44.4112,160.278,99.1148,97.2841,0.00975192,0.209008,20.9161,1022.98,0.169512,0,0
378,94.25,44.3238,47.3933,164.322,99.0981,97.0442,0.0101297,0.232363,20.8964,1022.78,0.19043,0,0
387,96.5,42.4499,48.4908,158.937,99.0948,97.2559,0.0103846,0.2482,20.8767,1022.59,0.170313,0,0
396,98.75,44.8821,48.6446,167.954,99.0977,95.7987,0.0107199,0.259415,20.8556,1022.38,0.307844,0,0
405,101,47.7901,47.8218,163.316,99.0805,97.3614,0.0110736,0.26909,20.839,1022.19,0.159154,0,0
414,103.25,47.6645,48.1902,160.598,99.0785,97.7303,0.0111565,0.275858,20.8209,1022.02,0.124574,0,0
423,105.5,47.7336,49.3596,161.696,99.0777,97.3064,0.0109309,0.277036,20.806,1021.83,0.164027,0,0
432,107.75,49.2982,49.9392,161.813,99.0659,97.4304,0.0108151,0.275215,20.7942,1021.64,0.151359,0,0
441,110,46.1548,52.6523,160.925,99.0544,96.7452,0.0108161,0.272189,20.7829,1021.45,0.214484,0,0
450,112.25,48.9867,51.626,163.763,99.0614,96.398,0.0108023,0.271094,20.7745,1021.24,0.247806,0,0
459,114.5,46.3354,53.5818,166.901,99.054,95.8732,0.010907,0.271556,20.7672,1021.05,0.296772,0,0
468,116.75,48.5456,55.1876,160.469,99.0406,97.2891,0.0111937,0.269946,20.7622,1020.85,0.162237,0,0
477,119,48.3128,55.5593,158.076,99.0406,98.1165,0.0114996,0.266656,20.7591,1020.62,0.0852312,0,0
486,121.25,49.6478,55.4492,157.72,99.05,97.2832,0.0117373,0.265641,20.7558,1020.44,0.163649,0,0
495,123.5,51.346,54.2438,157.169,99.0434,98.1215,0.0118854,0.269794,20.7523,1020.23,0.0850293,0,0
504,125.75,51.2017,54.8821,163.933,99.0451,96.9819,0.0118007,0.277751,20.7487,1020,0.191401,0,0
513,128,51.6423,54.1669,159.488,99.0548,96.7947,0.0114904,0.283999,20.7456,1019.81,0.209868,0,0
522,130.25,52.2779,54.3927,163.28,99.0544,97.6167,0.0111025,0.285569,20.7414,1019.61,0.132941,0,0
531,132.5,52.9316,54.4567,164.034,99.0642,98.1315,0.01086847,0.283376,20.7366,1019.38,0.0860108,0,0
540,134.75,51.6474,57.1759,159.47,99.0703,96.8052,0.0108863,0.279032,20.734,1019.19,0.210309,0,0
549,137,52.378,55.2835,165.553,99.0797,97.1319,0.0113054,0.273675,20.733,1019.01,0.180534,0,0
558,139.25,49.6929,57.5275,167.833,99.0883,97.3336,0.0117847,0.268441,20.7323,1018.8,0.162454,0,0
567,141.5,51.4548,57.8991,166.07,99.0866,96.1045,0.0118491,0.263401,20.7322,1018.63,0.277856,0,0
576,143.75,53.0245,54.9171,173.169,99.1038,97.1755,0.0117082,0.259101,20.7344,1018.45,0.178658,0,0
585,146,51.1842,57.7125,164.714,99.1229,96.8065,0.0115599,0.254212,20.7369,1018.28,0.215006,0,0
594,148.25,51.99,55.9811,161.03,99.1258,97.0792,0.0114554,0.24757,20.7394,1018.1,0.189696,0,0
603,150.5,51.7921,56.1602,170.224,99.1229,96.448,0.011452,0.240586,20.7416,1017.93,0.248742,0,0
612,152.75,51.3573,56.9233,165.191,99.1356,97.1187,0.0112986,0.234836,20.7451,1017.76,0.186892,0,0
621,155,51.891,54.5696,164.722,99.1417,95.9627,0.0109557,0.229859,20.7495,1017.59,0.296328,0,0
630,157.25,51.6456,55.467,166.998,99.1466,96.6448,0.0107321,0.225018,20.7551,1017.44,0.232381,0,0
639,159.5,51.434,54.734,166.206,99.1576,96.8979,0.0106334,0.219963,20.7598,1017.28,0.20961,0,0
648,161.75,51.1795,55.4558,164.12,99.1723,96.8801,0.010689,0.214389,20.7644,1017.15,0.212618,0,0
657,164,49.3793,55.4463,166.68,99.1857,96.976,0.01088257,0.208389,20.7701,1016.98,0.204858,0,0
666,166.25,51.6842,52.7615,164.012,99.1947,96.3549,0.0111063,0.20351,20.7758,1016.85,0.264107,0,0
675,168.5,48.712,55.9485,161.598,99.2196,96.3944,0.0111715,0.198687,20.7814,1016.72,0.262657,0,0
684,170.75,49.0034,56.1,167.19,99.2322,96.4526,0.0108723,0.19391,20.7856,1016.6,0.25833,0,0
693,173,51.2999,52.4754,165.98,99.2297,95.9873,0.0107383,0.189524,20.7905,1016.47,0.302075,0,0
702,175.25,47.8829,54.9104,165.579,99.2367,97.8803,0.0109293,0.185592,20.7957,1016.34,0.125139,0,0
711,177.5,49.9065,53.8004,168.066,99.2477,96.7479,0.0111536,0.182253,20.7998,1016.2,0.231949,0,0
720,179.75,50.0242,53.4939,162.316,99.2607,96.6743,0.0113052,0.179092,20.8047,1016.11,0.240064,0,0
729,182,50.2516,52.3885,169.36,99.2628,96.319,0.0113224,0.175473,20.8103,1015.96,0.273734,0,0
738,184.25,48.5121,54.8183,166.725,99.2652,96.4376,0.0111944,0.172122,20.8154,1015.86,0.262769,0,0
747,186.5,48.4442,54.0511,168.768,99.2783,97.3205,0.0112772,0.169396,20.8195,1015.72,0.1811,0,0
756,188.75,49.7318,51.5581,164.483,99.295,96.4621,0.0114052,0.166582,20.8234,1015.61,0.263181,0,0
765,191,50.0886,51.5606,168.729,99.2929,96.3158,0.0113644,0.164524,20.8255,1015.51,0.276797,0,0
774,193.25,49.6332,50.259,167.543,99.3068,98.3047,0.0112032,0.162726,20.8296,1015.4,0.0922212,0,0
783,195.5,49.9107,50.1911,164.685,99.328,96.6557,0.0111315,0.160935,20.8338,1015.3,0.247976,0,0
792,197.75,49.4069,50.6418,168.613,99.3251,96.5044,0.0111614,0.159402,20.8364,1015.17,0.261961,0,0
801,200,46.8975,52.022,172.186,99.3284,97.0905,0.0112693,0.158365,20.8381,1015.08,0.207197,0,0
810,202.25,46.4911,52.692,165.416,99.3427,97.5795,0.0112671,0.157284,20.8403,1014.95,0.162831,0,0
819,204.5,46.6892,52.6122,164.346,99.3443,97.5022,0.01128104,0.155683,20.8421,1014.85,0.170181,0,0
828,206.75,47.6163,52.0364,171.384,99.3463,97.181,0.0112956,0.154575,20.844,1014.74,0.200375,0,0
837,209,46.2426,52.1004,169.172,99.3598,96.5162,0.0114188,0.153577,20.8457,1014.65,0.264019,0,0
846,211.25,47.4618,51.9939,173.669,99.3618,97.0624,0.0115726,0.153062,20.8485,1014.53,0.212897,0,0
855,213.5,48.7864,49.4036,170.592,99.3557,96.1381,0.0113646,0.152242,20.8498,1014.42,0.299331,0,0
864,215.75,48.3166,50.1122,166.102,99.3561,96.8015,0.0110793,0.151212,20.852,1014.31,0.23684,0,0
873,218,47.8932,50.3304,174.445,99.3712,96.7093,0.0109513,0.150258,20.8545,1014.21,0.246888,0,0
882,220.25,47.1214,51.5661,170.159,99.3659,96.4276,0.0108926,0.148915,20.8557,1014.12,0.272929,0,0
891,222.5,48.555,49.3655,165.007,99.3626,96.204,0.0110802,0.147843,20.8579,1014,0.293736,0,0
900,224.75,48.5106,48.9952,167.774,99.3496,95.9018,0.0112455,0.147534,20.8596,1013.89,0.321147,0,0
909,227,47.0292,51.2213,171.495,99.35,97.0269,0.0111892,0.147203,20.8606,1013.78,0.215135,0,0
918,229.25,46.8182,51.4283,164.016,99.3419,96.6139,0.0112108,0.146513,20.862,1013.69,0.253179,0,0
927,231.5,47.6938,48.8793,171.578,99.3349,96.6398,0.0113174,0.145839,20.863,1013.56,0.250107,0,0
936,233.75,46.855,49.3353,166.863,99.3382,96.872,0.0113392,0.145415,20.8634,1013.46,0.228586,0,0
945,236,47.3156,48.8276,171.736,99.3349,97.0265,0.011302,0.144767,20.8654,1013.37,0.213797,0,0
954,238.25,48.3538,48.1439,163.027,99.3219,96.7856,0.01145342,0.144846,20.8663,1013.26,0.235199,0,0
963,240.5,46.1187,49.5016,173.742,99.3227,97.1651,0.0116587,0.144849,20.8681,1013.14,0.199699,0,0
972,242.75,45.4525,49.8122,171.676,99.328,96.5307,0.0117876,0.144741,20.8688,1013.04,0.25974,0,0
981,245,46.4024,50.7809,169.957,99.3243,96.8084,0.0118188,0.144725,20.8687,1012.92,0.233289,0,0
990,247.25,45.9807,50.9485,168.358,99.3174,96.9015,0.01178116,0.144761,20.8678,1012.81,0.22391,0,0
999,249.5,47.8418,48.5381,169.661,99.3329,97.2755,0.01165529,0.144929,20.8675,1012.69,0.190305,0,0
1008,251.75,47.2867,48.9421,167.646,99.3329,96.6952,0.0114747,0.145189,20.8673,1012.61,0.244707,0,0
1017,254,48.3845,47.5748,162.53,99.339,96.8043,0.0114268,0.145669,20.8673,1012.5,0.235017,0,0
1026,256.25,48.2239,48.0638,169.505,99.3447,96.5644,0.0116884,0.145899,20.8672,1012.39,0.258102,0,0
1035,258.5,45.6572,49.5606,168.562,99.352,96.8334,0.0118583,0.145915,20.8672,1012.27,0.233479,0,0
1044,260.75,47.9639,48.4895,172.3,99.3516,96.862,0.0120059,0.145936,20.8672,1012.15,0.230754,0,0
1053,263,48.2052,48.5359,165.741,99.3683,96.5194,0.0122506,0.146223,20.8672,1012.05,0.264503,0,0
1062,265.25,47.8165,48.8464,168.842,99.3981,97.2282,0.0120829,0.146822,20.8672,1011.94,0.200692,0,0
1071,267.5,46.9518,49.7758,164.118,99.3993,97.4068,0.0117893,0.147444,20.8672,1011.82,0.18412,0,0
1080,269.75,48.3785,47.9193,163.397,99.412,96.8293,0.0118312,0.147764,20.8681,1011.71,0.239346,0,0
1089,272,45.639,50.4954,165.357,99.4307,97.0528,0.0119614,0.147615,20.8686,1011.57,0.220093,0,0
1098,274.25,47.8973,48.9966,169.844,99.4328,96.8915,0.0121362,0.147744,20.8673,1011.47,0.235404,0,0
1107,276.5,46.7288,49.7827,172.688,99.4425,95.6783,0.0123322,0.148044,20.8669,1011.38,0.35087,0,0
1116,278.75,47.1904,49.3969,170.883,99.4601,96.8193,0.0125933,0.147964,20.8667,1011.25,0.244684,0,0
1125,281,46.8615,49.464,167.767,99.4719,97.8821,0.01279955,0.148453,20.8666,1011.11,0.146497,0,0
1134,283.25,46.2304,50.7377,167.211,99.5074,97.2318,0.0128455,0.148912,20.8666,1011.02,0.210341,0,0
1143,285.5,46.9482,49.377,167.691,99.5294,96.1313,0.0127175,0.148647,20.8666,1010.92,0.315855,0,0
1152,287.75,46.1358,49.947,168.682,99.5383,97.2205,0.0126671,0.148123,20.8666,1010.8,0.214235,0,0
1161,290,46.2958,50.744,168.058,99.5693,97.3514,0.0126535,0.147836,20.8671,1010.68,0.204832,0,0
1170,292.25,45.6171,50.4404,161.991,99.5816,97.225,0.012632,0.147918,20.8666,1010.6,0.217755,0,0
1179,294.5,48.2155,48.575,167.846,99.5975,97.5008,0.0125811,0.148068,20.8655,1010.46,0.193449,0,0
1188,296.75,48.3844,48.9747,170.358,99.6276,97.7394,0.0125126,0.148406,20.8651,1010.37,0.173983,0,0
1197,299,47.6465,49.2863,170.269,99.6317,96.8506,0.01250522,0.148794,20.8645,1010.26,0.257416,0,0
1206,301.25,46.2378,50.9018,168.907,99.6513,96.6134,0.01257751,0.149013,20.8642,1010.15,0.281498,0,0
1215,303.5,47.0087,49.039,166.198,99.6549,96.488,0.0126453,0.148922,20.864,1010.03,0.293643,0,0
1224,305.75,48.0791,48.3132,170.604,99.6712,96.6157,0.0126902,0.148823,20.8626,1009.91,0.283106,0,0
1233,308,46.9864,49.8736,168.254,99.6839,96.6539,0.0127264,0.148793,20.862,1009.8,0.280668,0,0
1242,310.25,48.0181,49.0026,167.746,99.6818,97.2269,0.0126317,0.149006,20.8617,1009.67,0.226738,0,0
1251,312.5,46.1013,50.9119,166.704,99.6961,97.7367,0.01248096,0.150028,20.8607,1009.55,0.180485,0,0
1260,314.75,46.2937,50.1467,166.679,99.7051,96.8888,0.0123519,0.151068,20.8603,1009.44,0.260528,0,0
1269,317,47.3438,49.2965,173.875,99.7055,96.757,0.0124516,0.151315,20.8631,1009.33,0.272941,0,0
1278,319.25,46.8842,49.9421,164.416,99.6965,97.1233,0.0123895,0.151673,20.8639,1009.24,0.237771,0,0
1287,321.5,48.0859,48.5435,165.943,99.6961,97.1387,0.01213192,0.151867,20.8631,1009.11,0.236287,0,0
1296,323.75,46.0309,50.331,170.633,99.6937,97.4245,0.0121283,0.152077,20.8622,1008.98,0.20935,0,0
1305,326,46.1108,50.569,169.938,99.6908,97.0083,0.0123059,0.1524,20.8618,1008.88,0.248019,0,0
1314,328.25,46.8072,49.7356,166.111,99.6721,97.1419,0.0125227,0.152662,20.8617,1008.77,0.233795,0,0
1323,330.5,48.7536,48.3369,167.252,99.679,97.2827,0.0128368,0.152589,20.8616,1008.67,0.221252,0,0
1332,332.75,47.6496,50.03,167.29,99.6696,96.2513,0.0131213,0.152758,20.8616,1008.53,0.317319,0,0
1341,335,46.4825,51.2299,165.074,99.648,96.5071,0.0130861,0.153045,20.8616,1008.43,0.291213,0,0
1350,337.25,46.2181,51.2136,167.569,99.6447,96.5916,0.0128623,0.153204,20.8616,1008.3,0.282956,0,0
1359,339.5,46.7177,51.1508,169.123,99.6252,97.1687,0.0125982,0.15376,20.8622,1008.19,0.227009,0,0
1368,341.75,46.532,51.3093,170.204,99.6187,97.2955,0.0123863,0.15454,20.8628,1008.09,0.214558,0,0
1377,344,47.2796,51.0944,167.232,99.6019,98.6473,0.0122895,0.155406,20.863,1007.99,0.0875707,0,0
1386,346.25,47.5157,50.4423,167.978,99.5917,97.7071,0.0122982,0.155947,20.8628,1007.88,0.17371,0,0
1395,348.5,46.5727,51.2579,164.209,99.5816,96.4312,0.01225865,0.156255,20.8616,1007.77,0.2923,0,0
1404,350.75,48.9592,48.7992,168.305,99.5591,97.3305,0.0122757,0.156524,20.8611,1007.64,0.205855,0,0
1413,353,48.9736,49.5319,163.418,99.5693,96.7893,0.0124889,0.156599,20.8614,1007.51,0.257483,0,0
1422,355.25,46.5134,51.1477,168.807,99.5498,96.9483,0.0124885,0.156886,20.8615,1007.4,0.240768,0,0
1431,357.5,46.593,51.4166,162.704,99.5367,96.9192,0.0123323,0.157114,20.8616,1007.28,0.242305,0,0
1440,359.75,48.7727,49.4608,171.428,99.5326,96.8765,0.0120065,0.157039,20.8616,1007.15,0.24594,0,0
1449,362,48.8841,49.0561,163.619,99.5114,96.9856,0.0117961,0.157544,20.8612,1007.05,0.233773,0,0
1458,364.25,47.4363,50.8122,166.227,99.4906,96.8102,0.0117094,0.157817,20.8601,1006.93,0.2483325,0,0
1467,366.5,47.8741,50.2828,168.676,99.467,96.3335,0.0115739,0.158635,20.8597,1006.82,0.29105,0,0
1476,368.75,47.5557,50.7444,166.113,99.4674,96.6239,0.0115015,0.159603,20.8583,1006.68,0.263723,0,0
1485,371,49.2628,49.5314,166.061,99.4474,97.0705,0.0116482,0.160398,20.8575,1006.57,0.219961,0,0
1494,373.25,48.9357,49.9631,166.23,99.4275,97.1814,0.0118105,0.160973,20.8577,1006.46,0.2077557,0,0
1503,375.5,47.4473,50.781,168.615,99.3989,96.9933,0.0116822,0.1618,20.8578,1006.32,0.222763,0,0
1512,377.75,47.3301,51.2954,166.583,99.3728,96.3649,0.0116341,0.16301,20.8567,1006.23,0.279479,0,0
1521,380,48.621,50.0393,167.514,99.3647,97.574,0.0116989,0.164067,20.856,1006.08,0.165354,0,0
1530,382.25,48.6817,49.8949,158.386,99.3451,97.1446,0.0114914,0.164526,20.8555,1005.93,0.203665,0,0
1539,384.5,46.8587,51.6284,170.277,99.3206,97.3414,0.0113156,0.165274,20.8542,1005.81,0.183029,0,0
1548,386.75,48.6574,51.108,166.295,99.297,97.21,0.0114151,0.165889,20.852,1005.69,0.19314,0,0
1557,389,49.4976,49.923,164.58,99.2742,96.7293,0.0113585,0.166834,20.8512,1005.58,0.236128,0,0
1566,391.25,49.5293,49.5836,164.095,99.2367,96.0473,0.0110233,0.167462,20.8508,1005.49,0.29703,0,0
1575,393.5,49.7977,49.7132,164.583,99.2163,96.3599,0.0109865,0.16732,20.8495,1005.37,0.265615,0,0
1584,395.75,49.9457,49.9849,162.719,99.1735,96.8293,0.011155,0.166619,20.8493,1005.21,0.217508,0,0
1593,398,49.3789,50.1225,171.738,99.1388,97.175,0.0114102,0.166416,20.8492,1005.1,0.181918,0,0
1602,400.25,48.4169,51.2281,163.908,99.1042,97.8875,0.0115683,0.167064,20.8491,1004.99,0.112315,0,0
1611,402.5,49.0903,51.0746,164.364,99.074,96.2163,0.0114903,0.167794,20.8485,1004.84,0.266127,0,0
1620,404.75,49.2128,50.1827,164.799,99.0357,96.3576,0.0115395,0.168398,20.8475,1004.72,0.249264,0,0
1629,407,48.1327,52.1507,170.516,98.9921,96.8388,0.0115724,0.169553,20.847,1004.55,0.199964,0,0
1638,409.25,49.0289,50.7843,173.463,98.9529,97.3068,0.01150216,0.170531,20.8475,1004.48,0.152531,0,0
1647,411.5,49.533,50.9531,165.57,98.9215,95.8919,0.0115554,0.171409,20.8477,1004.34,0.282834,0,0
1656,413.75,50.2307,50.6648,169.249,98.8718,96.8224,0.01154446,0.172043,20.8466,1004.23,0.190448,0,0
1665,416,48.1615,52.199,164.923,98.8086,95.9205,0.0113516,0.17273,20.8456,1004.11,0.269735,0,0
1674,418.25,48.2767,52.5575,170.032,98.7732,96.6371,0.0111739,0.1736781,20.845,1003.96,0.198797,0,0
1683,420.5,48.9599,52.3311,166.124,98.7124,96.657,0.0111487,0.175355,20.8436,1003.83,0.191323,0,0
1692,422.75,49.9094,51.1995,169.658,98.6647,96.3571,0.0111702,0.176543,20.843,1003.69,0.215184,0,0
1701,425,48.9238,51.9986,164.976,98.6305,96.2495,0.0112167,0.177048,20.8417,1003.6,0.222195,0,0
1710,427.25,49.362,51.1756,168.626,98.5962,97.2673,0.0112633,0.177792,20.8413,1003.43,0.123388,0,0
1719,429.5,50.2639,51.3548,164.475,98.5526,96.7597,0.0112228,0.178385,20.8406,1003.3,0.166935,0,0
1728,431.75,49.6898,52.2118,160.466,98.5098,96.0145,0.0112776,0.180138,20.8395,1003.18,0.233283,0,0
1737,434,48.803,53.3117,166.827,98.4727,96.5934,0.0115301,0.181842,20.8378,1003.01,0.175201,0,0
1746,436.25,49.7903,51.8155,171.032,98.4283,95.9068,0.0117146,0.183566,20.8364,1002.89,0.235959,0,0
1755,438.5,48.6042,53.5932,165.108,98.3887,95.4147,0.0116662,0.184842,20.8348,1002.76,0.27908,0,0
1764,440.75,50.6959,51.9475,163.813,98.3321,95.9132,0.0115556,0.186287,20.8338,1002.63,0.226464,0,0
1773,443,49.3064,52.3726,169.212,98.3007,95.7692,0.0114483,0.187495,20.8334,1002.49,0.237227,0,0
1782,445.25,49.9021,52.6718,159.168,98.2615,96.4267,0.01134,0.189607,20.8333,1002.31,0.171393,0,0
1791,447.5,50.4513,52.7234,168.829,98.2032,95.7583,0.0111848,0.190919,20.8317,1002.21,0.229245,0,0
1800,449.75,49.2322,53.984,168.365,98.1649,95.4238,0.0112474,0.1921,20.8305,1002.06,0.257507,0,0
1809,452,49.3227,54.0245,166.856,98.1233,96.3826,0.0111091,0.193866,20.8292,1001.91,0.162754,0,0
1818,454.25,50.0696,53.7619,164.529,98.0911,95.5411,0.0104737,0.195258,20.8283,1001.76,0.239507,0,0
1827,456.5,49.6251,54.2865,165.136,98.0504,95.7614,0.0100859,0.196315,20.826,1001.61,0.214777,0,0
1836,458.75,50.1159,54.2451,168.906,98.0149,95.9082,0.0101026,0.198161,20.8227,1001.49,0.197563,0,0
1845,461,51.6019,53.1816,167.024,97.9697,95.1626,0.0101075,0.200226,20.8209,1001.29,0.264332,0,0
1854,463.25,51.6594,52.8948,163.454,97.9256,95.497,0.0101234,0.201662,20.8202,1001.18,0.228347,0,0
1863,465.5,50.152,54.8441,167.707,97.8771,95.377,0.010241,0.203313,20.819,1001,0.23527,0,0
1872,467.75,50.2856,55.0042,164.415,97.8433,95.8114,0.0105497,0.205515,20.8174,1000.86,0.190808,0,0
1881,470,50.211,54.978,161.089,97.7915,95.6656,0.0105981,0.208112,20.8151,1000.69,0.199848,0,0
1890,472.25,50.6117,55.0708,164.241,97.7634,95.7033,0.0103292,0.210376,20.8142,1000.54,0.193648,0,0
1899,474.5,50.8136,54.9357,161.3,97.7418,95.9014,0.0101782,0.2132774,20.8121,1000.38,0.172835,0,0
1908,476.75,52.6545,53.9653,166.372,97.7181,95.6392,0.0100077,0.2162662,20.8097,1000.21,0.195528,0,0
1917,479,51.7653,54.907,163.737,97.6977,95.5483,0.009810241,0.218589,20.8081,1000.06,0.202275,0,0
1926,481.25,50.7239,55.88,164.374,97.6684,94.3347,0.009823476,0.220014,20.8076,999.874,0.315779,0,0
1935,483.5,52.8288,54.3542,158.04,97.6663,95.6801,0.0100155,0.221986,20.8058,999.704,0.186822,0,0
1944,485.75,51.707,55.5496,160.663,97.6386,96.1022,0.00994276,0.22454,20.8032,999.544,0.144214,0,0
1953,488,52.4346,55.8773,164.112,97.6248,96.3026,0.009826374,0.228129,20.801,999.374,0.123984,0,0
1962,490.25,52.3431,55.855,162.822,97.6239,93.918,0.0100342,0.23157,20.7971,999.183,0.351892,0,0
1971,492.5,52.626,56.0576,162.756,97.6113,95.5797,0.010474,0.233971,20.7943,999.003,0.191245,0,0
1980,494.75,53.3241,55.9755,162.881,97.6109,94.7159,0.0108674,0.235608,20.791,998.853,0.273755,0,0
1989,497,52.6955,56.3997,163.938,97.595,96.4817,0.0109301,0.237316,20.7894,998.663,0.104323,0,0
1998,499.25,52.5186,57.0266,167.769,97.5954,94.3083,0.0107949,0.239962,20.7864,998.503,0.311523,0,0
2007,501.5,52.5024,57.7847,166.195,97.5852,95.0985,0.0107482,0.242245,20.7835,998.323,0.234707,0,0
2016,503.75,54.1583,56.2306,162.607,97.5848,95.4824,0.0110157,0.243991,20.7799,998.142,0.198031,0,0
2025,506,52.7281,58.2052,162.9263,97.5942,95.4456,0.0112635,0.245165,20.777,997.922,0.20241,0,0
2034,508.25,53.808,57.4335,160.882,97.5966,94.8009,0.0113764,0.245941,20.7741,997.792,0.264272,0,0
2043,510.5,52.955,57.8549,158.68,97.6089,94.9944,0.0112794,0.246603,20.7717,997.592,0.246864,0,0
2052,512.75,54.0908,57.1792,167.659,97.6215,94.8218,0.0112457,0.248085,20.7708,997.402,0.264584,0,0
2061,515,53.5205,58.4806,164.731,97.6382,95.6501,0.011316,0.24981,20.7681,997.212,0.187053,0,0
2070,517.25,53.8734,58.8439,166.117,97.661,95.1985,0.0113498,0.251639,20.7657,997.062,0.232216,0,0
2079,519.5,53.9193,58.7011,166.208,97.6782,94.8499,0.01132,0.252615,20.7641,996.841,0.267159,0,0
2088,521.75,53.667,58.7685,167.884,97.7059,95.1866,0.0113276,0.253113,20.7623,996.661,0.2375184,0,0
2097,524,54.8063,58.3101,160.584,97.7418,95.2221,0.0112568,0.252744,20.7609,996.471,0.237471,0,0
2106,526.25,55.6701,58.0044,159.424,97.7776,95.2475,0.0114231,0.252429,20.7606,996.301,0.238379,0,0
2115,528.5,55.4389,58.0462,159.093,97.8127,96.0191,0.0118794,0.253956,20.7597,996.091,0.168281,0,0
2124,530.75,54.2601,59.1226,165.586,97.8494,96.0591,0.0123388,0.256432,20.7579,995.88,0.167905,0,0
2133,533,55.4253,57.8605,156.864,97.9069,95.1594,0.0126629,0.258334,20.7562,995.7,0.258807,0,0
2142,535.25,55.4755,58.1919,161.873,97.9464,95.4643,0.0128187,0.259623,20.7546,995.51,0.233393,0,0
2151,537.5,55.709,58.8436,159.601,97.9974,95.9146,0.0127618,0.259579,20.7533,995.32,0.195333,0,0
2160,539.75,55.7393,58.4789,158.879,98.0475,95.1607,0.0126604,0.259688,20.7515,995.12,0.27173,0,0
2169,542,54.8195,60.0561,164.192,98.0985,95.7605,0.0126362,0.260874,20.7514,994.919,0.219324,0,0
2178,544.25,55.6906,58.7983,164.68,98.1527,95.2939,0.0128555,0.262794,20.7502,994.729,0.268766,0,0
2187,546.5,54.6792,60.2869,157.722,98.2081,94.675,0.0131358,0.265025,20.7494,994.519,0.333144,0,0
2196,548.75,56.3138,59.7217,159.048,98.2648,95.736,0.0132868,0.266971,20.7493,994.339,0.237057,0,0
2205,551,54.9891,60.4937,159.544,98.3247,95.3652,0.0132775,0.26861,20.7478,994.099,0.277884,0,0
2214,553.25,55.8492,59.6232,160.791,98.3789,96.5793,0.0131881,0.270319,20.7455,993.919,0.167866,0,0
2223,555.5,55.5766,60.2989,159.667,98.4458,95.4538,0.0130933,0.272805,20.7433,993.708,0.28063,0,0
2232,557.75,57.223,59.8409,164.557,98.4882,95.1344,0.0132209,0.275627,20.7401,993.488,0.315024,0,0
2241,560,57.1684,60.3048,163.509,98.5375,94.9295,0.0134311,0.27842,20.7381,993.268,0.339184,0,0
2250,562.25,56.73,60.7234,162.893,98.5836,94.8022,0.0135508,0.28061,20.7366,993.038,0.355628,0,0
2259,564.5,56.2674,61.5672,161.487,98.6403,94.7763,0.0134658,0.282487,20.7345,992.808,0.363338,0,0
2268,566.75,57.3842,60.3512,154.237,98.69,95.2225,0.01328376,0.285467,20.7315,992.667,0.325214,0,0
2277,569,56.9565,61.3745,167.165,98.7303,94.5441,0.0132278,0.288465,20.7295,992.407,0.393942,0,0
2286,571.25,58.1677,61.0341,160.766,98.7727,94.5537,0.01313168,0.291227,20.7273,992.177,0.396928,0,0
2295,573.5,58.144,61.391,156.818,98.8261,95.3529,0.0128873,0.294274,20.7247,991.977,0.325306,0,0
2304,575.75,57.1963,62.8091,160.3,98.8453,95.0394,0.0127103,0.296646,20.7225,991.727,0.357016,0,0
2313,578,57.5964,61.9507,161.041,98.8946,95.3052,0.0127088,0.298169,20.7192,991.506,0.336155,0,0
2322,580.25,57.3496,63.4517,163.571,98.9313,94.8172,0.0127158,0.301559,20.7158,991.306,0.386206,0,0
2331,582.5,59.2266,62.1798,157.638,98.9562,94.9508,0.0126824,0.305092,20.7123,991.036,0.37569,0,0
2340,584.75,58.4352,63.0007,157.498,98.9937,94.4224,0.0126837,0.307487,20.7096,990.826,0.429882,0,0
2349,587,58.9439,62.8102,159.296,99.0349,95.0839,0.0126089,0.310018,20.707,990.576,0.370176,0,0
2358,589.25,58.8998,63.4307,159.035,99.0675,95.6188,0.0126386,0.312801,20.7033,990.365,0.322171,0,0
2367,591.5,58.8528,64.1627,160.151,99.0989,95.3997,0.0127868,0.315653,20.7002,990.075,0.345901,0,0
2376,593.75,59.9002,63.8243,156.226,99.1197,94.9372,0.0128456,0.318154,20.698,989.855,0.392004,0,0
2385,596,59.0022,64.9318,155.076,99.1331,95.2462,0.0128254,0.320811,20.6965,989.645,0.363694,0,0
2394,598.25,60.5409,64.3854,159.773,99.1515,96.1822,0.0129338,0.32383,20.6939,989.424,0.276453,0,0
2403,600.5,59.6685,65.5383,152.686,99.1596,95.1198,0.0129276,0.327018,20.6897,989.164,0.378191,0,0
2412,602.75,59.6759,65.4266,156.059,99.1747,94.2947,0.0128911,0.32969,20.6869,988.904,0.458797,0,0
2421,605,60.4163,65.1792,158.42,99.1784,95.8437,0.0127696,0.332143,20.6842,988.654,0.31098,0,0
2430,607.25,60.5805,65.1166,152.852,99.1735,95.6092,0.0125806,0.334855,20.6807,988.414,0.332802,0,0
2439,609.5,61.5121,65.4604,159.439,99.18,95.6583,0.0125513,0.337201,20.6765,988.153,0.328734,0,0
2448,611.75,61.4568,65.896,158.712,99.1739,93.958,0.01246352,0.339404,20.6724,987.923,0.491248,0,0
2457,614,61.7538,65.9452,156.11,99.1735,95.7673,0.0123175,0.341564,20.6699,987.653,0.317776,0,0
2466,616.25,61.1075,67.0013,156.69,99.1665,95.8578,0.0122609,0.343381,20.6674,987.433,0.308558,0,0
2475,618.5,61.1091,67.2581,156.731,99.1653,96.478,0.0124381,0.344161,20.6652,987.172,0.249803,0,0
2484,620.75,60.9688,67.328,154.033,99.1539,95.6188,0.0126711,0.344519,20.6641,986.932,0.3301,0,0
2493,623,61.5151,67.0994,158.461,99.1429,94.7477,0.01268,0.345723,20.662,986.692,0.412302,0,0
2502,625.25,61.4334,68.1552,156.156,99.1401,94.685,0.0125679,0.345898,20.659,986.442,0.41806,0,0
2511,627.5,62.0736,66.7778,154.517,99.1388,94.6196,0.0124944,0.34574,20.657,986.171,0.424233,0,0
2520,629.75,62.4552,66.9426,160.433,99.1254,93.8789,0.0124552,0.346449,20.6553,985.941,0.494452,0,0
2529,632,63.2228,67.3912,154.712,99.1172,94.2238,0.0125433,0.347746,20.6535,985.701,0.460363,0,0
2538,634.25,63.2046,67.1355,154.045,99.1168,95.0421,0.0126598,0.348289,20.6524,985.451,0.381694,0,0
2547,636.5,62.0476,68.5346,156.139,99.1172,94.441,0.0126201,0.347208,20.651,985.211,0.439427,0,0
2556,638.75,63.4708,67.5018,153.271,99.0989,93.6399,0.0125618,0.346241,20.6506,984.97,0.515201,0,0
2565,641,62.5273,67.7894,157.658,99.0964,95.4306,0.0126066,0.346957,20.6497,984.71,0.342733,0,0
2574,643.25,62.6299,68.0726,155.632,99.0956,94.6405,0.01259116,0.34746,20.6477,984.46,0.41826,0,0
2583,645.5,63.8194,67.6132,158.869,99.0944,95.6946,0.0125278,0.346119,20.6461,984.26,0.317428,0,0
2592,647.75,62.7912,68.9229,157.782,99.0838,94.9581,0.0124441,0.345435,20.6455,984.009,0.386711,0,0
2601,650,62.5961,68.9868,159.817,99.0797,95.3429,0.01219487,0.346023,20.6452,983.749,0.349559,0,0
2610,652.25,62.7535,69.0826,158.336,99.061,95.1662,0.0119417,0.345662,20.6451,983.519,0.364711,0,0
2619,654.5,63.1949,67.9674,161.372,99.0634,93.9275,0.0119974,0.344945,20.6449,983.289,0.484061,0,0
2628,656.75,63.8409,68.1644,159.92,99.0394,93.3873,0.0122795,0.344006,20.6445,983.049,0.534303,0,0
2637,659,63.8634,68.0266,158.121,99.0345,94.6227,0.0125045,0.342983,20.6443,982.798,0.414351,0,0
2646,661.25,63.0683,68.3191,156.774,99.0365,93.7998,0.0126811,0.342387,20.6443,982.568,0.493958,0,0
2655,663.5,63.3175,68.2172,156.372,99.0161,93.2773,0.0127846,0.341954,20.6442,982.338,0.542882,0,0
2664,665.75,63.3015,67.949,158.66,99.0076,94.242,0.0127416,0.340773,20.6443,982.148,0.448544,0,0
2673,668,63.254,68.6583,156.724,98.9876,94.1484,0.0125537,0.339373,20.6449,981.928,0.455745,0,0
2682,670.25,63.21,69.4241,159.762,98.9754,94.6995,0.0126146,0.337959,20.6451,981.707,0.401545,0,0
2691,672.5,63.2695,68.8473,159.752,98.9582,94.8381,0.0127076,0.336618,20.6462,981.437,0.386676,0,0
2700,674.75,63.3499,68.865,164.219,98.948,94.6264,0.0125989,0.336303,20.647,981.237,0.406063,0,0
2709,677,63.6001,68.6248,160.439,98.9374,93.23,0.0123286,0.335831,20.6482,980.987,0.540262,0,0
2718,679.25,64.2381,68.5885,154.335,98.924,94.4614,0.0121053,0.334776,20.6493,980.766,0.419715,0,0
2727,681.5,64.3005,68.038,160.524,98.9118,93.7771,0.0119364,0.333475,20.6498,980.556,0.484701,0,0
2736,683.75,64.2902,68.2176,159.753,98.9044,95.0044,0.0119504,0.332543,20.6507,980.336,0.3658,0,0
2745,686,63.1627,68.5585,162.507,98.8926,95.1412,0.0120044,0.330657,20.6518,980.136,0.351632,0,0
2754,688.25,63.3321,68.1933,162.475,98.8808,96.2267,0.0118891,0.327498,20.6521,979.936,0.247387,0,0
2763,690.5,63.3796,67.7776,157.66,98.8694,95.0508,0.0116046,0.324002,20.6522,979.746,0.358141,0,0
2772,692.75,63.1951,68.5004,160.583,98.8685,95.4902,0.0113041,0.319838,20.6537,979.515,0.31613,0,0
2781,695,62.4708,69.0401,157.55,98.8628,96.7979,0.0110262,0.315983,20.6568,979.335,0.191927,0,0
2790,697.25,63.3455,67.4185,161.415,98.8571,95.592,0.0110436,0.312269,20.6599,979.175,0.305393,0,0
2799,699.5,63.5161,67.2501,156.118,98.8465,95.6038,0.0112856,0.307427,20.6629,978.965,0.303295,0,0
2808,701.75,62.784,67.2316,159.247,98.8396,96.8897,0.0113955,0.303445,20.666,978.815,0.181172,0,0
2817,704,62.0027,68.1058,160.52,98.8282,97.6853,0.0112489,0.299209,20.6689,978.634,0.10576,0,0
2826,706.25,62.1588,67.626,154.997,98.8323,96.6039,0.0108562,0.294577,20.6722,978.444,0.207358,0,0
2835,708.5,62.4252,66.7688,160.486,98.9061,96.0273,0.0105204,0.288951,20.6757,978.284,0.26858,0,0
2844,710.75,61.6616,66.9232,157.025,98.9546,96.613,0.0104312,0.28256,20.6782,978.114,0.217748,0,0
2853,713,62.6946,65.9585,166.063,99.0084,97.0069,0.010656,0.275443,20.6832,977.984,0.185689,0,0
2862,715.25,62.1892,65.9213,163.597,99.0699,96.6693,0.0107844,0.269162,20.6896,977.834,0.223041,0,0
2871,717.5,61.6297,66.153,168.085,99.1299,95.9505,0.0108543,0.265202,20.6955,977.654,0.296406,0,0
2880,719.75,61.7597,64.9503,155.968,99.1686,96.7556,0.0107374,0.26104,20.7012,977.523,0.223974,0,0
2889,722,61.8627,65.0011,161.467,99.2069,96.9865,0.0102811,0.25708,20.7069,977.373,0.205821,0,0
2898,724.25,60.8158,65.2724,159.248,99.2407,97.2282,0.009890681,0.253461,20.7115,977.213,0.186286,0,0
2907,726.5,61.396,64.4612,163.561,99.2713,96.5566,0.009896835,0.249643,20.717,977.083,0.252112,0,0
2916,728.75,60.5997,65.0437,159.875,99.2986,96.8933,0.010031,0.246259,20.721,976.933,0.222962,0,0
2925,731,60.2412,64.8384,163.155,99.341,97.5726,0.0101857,0.2434147,20.7241,976.813,0.163316,0,0
2934,733.25,60.6767,63.6426,161.537,99.3622,97.2582,0.01007383,0.240624,20.7291,976.683,0.194606,0,0
2943,735.5,60.1105,63.8048,161.589,99.3863,97.4418,0.009801852,0.237929,20.7314,976.523,0.179661,0,0
2952,737.75,59.7127,63.8788,168.078,99.4059,96.9692,0.009605091,0.235537,20.7337,976.402,0.225655,0,0
2961,740,60.0488,63.499,160.053,99.4242,97.7394,0.009634577,0.232034,20.7384,976.292,0.155398,0,0
2970,742.25,59.6815,62.7454,160.248,99.4544,95.6169,0.009872301,0.228761,20.7428,976.182,0.357783,0,0
2979,744.5,59.0957,63.431,160.577,99.4756,97.4518,0.0102183,0.225842,20.7472,976.042,0.186893,0,0
2988,746.75,59.3402,63.3424,164.804,99.4947,97.3036,0.0105505,0.222879,20.7513,975.922,0.202475,0,0
2997,749,59.7969,62.2985,157.88,99.5184,97.7253,0.0105108,0.219404,20.7559,975.802,0.165318,0,0
3006,751.25,59.1153,61.9958,162.918,99.5343,98.0107,0.0101477,0.216246,20.7587,975.682,0.140258,0,0
3015,753.5,58.4566,62.6542,165.36,99.5445,97.5458,0.0102133,0.213803,20.7609,975.572,0.184415,0,0
3024,755.75,58.9436,61.4232,161.359,99.5783,96.7475,0.01065651,0.210915,20.7648,975.472,0.26223,0,0
3033,758,58.1704,61.2892,165.269,99.5958,98.2865,0.0109333,0.207903,20.7669,975.381,0.120328,0,0
3042,760.25,58.7459,60.5886,164.977,99.6085,97.4045,0.011032,0.205561,20.7707,975.241,0.203442,0,0
3051,762.5,58.693,60.4372,165.568,99.6276,98.1992,0.0109378,0.202317,20.7758,975.131,0.131304,0,0
3060,764.75,57.684,60.4921,167.652,99.6456,97.7817,0.0109518,0.199896,20.7793,975.021,0.17169,0,0
3069,767,57.8977,59.7194,164.725,99.6562,97.0574,0.0111905,0.197954,20.7826,974.931,0.240259,0,0
3078,769.25,57.9802,59.6703,165.009,99.6525,98.6064,0.0111265,0.194791,20.785,974.831,0.0959544,0,0
3087,771.5,56.8533,60.0446,165.744,99.6594,98.1874,0.0110442,0.191863,20.7878,974.761,0.1353,0,0
3096,773.75,56.9916,59.2395,166.84,99.6668,98.7132,0.0112184,0.189936,20.7909,974.661,0.0874151,0,0
3105,776,57.407,59.1966,162.787,99.6627,96.8047,0.0112632,0.188349,20.7944,974.561,0.264553,0,0
3114,778.25,56.8334,58.6419,163.404,99.6517,97.1073,0.0111241,0.186832,20.7979,974.481,0.235169,0,0
3123,780.5,56.7389,58.4249,160.168,99.6435,97.8094,0.0110417,0.186069,20.8001,974.37,0.168927,0,0
3132,782.75,56.2652,58.4009,161.259,99.6146,97.9752,0.0111721,0.185822,20.8024,974.28,0.15088,0,0
3141,785,56.4773,58.0874,168.433,99.5991,97.5272,0.01140213,0.185134,20.8038,974.17,0.19114,0,0
3150,787.25,55.8818,58.0377,162.916,99.5832,97.6294,0.01177965,0.183041,20.8063,974.11,0.180162,0,0
3159,789.5,55.7319,58.2968,168.911,99.5428,97.3718,0.0121877,0.180513,20.8097,974.03,0.200503,0,0
3168,791.75,55.5232,58.2816,163.271,99.5123,97.4141,0.012406,0.177863,20.812,973.91,0.193765,0,0
3177,794,55.2939,57.9525,174.051,99.4723,97.6903,0.01250273,0.175627,20.8141,973.84,0.164363,0,0
3186,796.25,55.5469,56.9636,167.505,99.4324,97.4372,0.0124748,0.173323,20.8171,973.78,0.184298,0,0
3195,798.5,54.8073,57.5705,165.46,99.3887,97.5417,0.0124602,0.170346,20.8192,973.7,0.17056,0,0
3204,800.75,55.3038,56.5979,166.702,99.3292,97.1664,0.012596,0.167567,20.8215,973.62,0.200169,0,0
3213,803,54.5587,57.1323,162.79,99.2811,97.8048,0.0128528,0.165754,20.8228,973.55,0.136218,0,0
3222,805.25,54.7723,56.1271,166.694,99.2273,96.4712,0.013078,0.163608,20.8241,973.47,0.256126,0,0
3231,807.5,54.7072,56.203,170.668,99.1613,96.1963,0.01326653,0.161322,20.8251,973.4,0.276019,0,0
3240,809.75,53.927,56.3612,165.848,99.0915,97.0174,0.0133306,0.159521,20.8281,973.34,0.192344,0,0
3249,812,54.0903,55.6021,166.076,99.0214,97.4204,0.0132753,0.157651,20.8302,973.269,0.148213,0,0
3258,814.25,53.7019,55.5743,168.884,98.9835,96.2626,0.0133141,0.155277,20.833,973.199,0.253438,0,0
3267,816.5,53.97,55.1758,161.379,98.9957,95.9836,0.0134423,0.15338,20.8355,973.149,0.280952,0,0
3276,818.75,53.3798,55.8123,164.622,99.0088,97.9198,0.0136586,0.151406,20.8372,973.069,0.100562,0,0
3285,821,53.2683,55.182,166.797,99.0373,97.8071,0.0138855,0.14925,20.8391,972.989,0.113653,0,0
3294,823.25,52.965,55.0429,167.809,99.0565,96.7434,0.0142376,0.147586,20.8413,972.939,0.214843,0,0
3303,825.5,52.8359,54.7038,171.736,99.083,97.3704,0.0145906,0.146243,20.8445,972.869,0.15853,0,0
3312,827.75,52.6098,54.5997,167.291,99.1144,95.9691,0.0149452,0.144994,20.8463,972.819,0.293219,0,0
3321,830,52.4813,54.572,168.763,99.1421,97.35,0.0152414,0.143919,20.8478,972.759,0.165861,0,0
3330,832.25,52.3108,54.1751,168.681,99.1674,97.1905,0.0152435,0.14285,20.8492,972.699,0.183088,0,0
3339,834.5,52.247,54.0499,167.115,99.202,96.603,0.01525213,0.14151,20.8508,972.649,0.241397,0,0
3348,836.75,52.2276,53.7916,168.585,99.2359,96.6543,0.0153614,0.140079,20.8527,972.589,0.239667,0,0
3357,839,52.1716,53.9731,167.605,99.2884,97.0219,0.0153927,0.138722,20.8543,972.539,0.209969,0,0
3366,841.25,52.5163,53.0819,168.292,99.3113,97.9621,0.0154661,0.137907,20.8569,972.489,0.124376,0,0
3375,843.5,52.0199,52.9708,169.942,99.3471,97.1941,0.0156789,0.137138,20.858,972.439,0.199217,0,0
3384,845.75,52.1063,52.7052,167.028,99.3806,97.7371,0.0159121,0.135982,20.8595,972.369,0.15162,0,0
3393,848,51.8946,52.5161,167.572,99.403,97.2132,0.0160861,0.134333,20.8613,972.319,0.202543,0,0
3402,850.25,51.9221,52.4834,165.225,99.4401,97.3677,0.0162656,0.133376,20.862,972.269,0.191497,0,0
3411,852.5,51.6116,52.5538,172.25,99.4699,97.3109,0.0163455,0.132643,20.8634,972.219,0.199523,0,0
3420,854.75,51.4564,52.3777,167.402,99.5008,96.9556,0.0163772,0.131852,20.8662,972.169,0.235617,0,0
3429,857,51.1132,52.6773,166.551,99.5139,98.4637,0.016493,0.131117,20.8678,972.108,0.0964649,0,0
3438,859.25,50.9792,52.2877,169.472,99.5445,96.6425,0.0166142,0.130112,20.8685,972.068,0.26901,0,0
3447,861.5,51.2477,52.1195,171.939,99.5669,97.3882,0.016767,0.129314,20.8701,972.008,0.201173,0,0
3456,863.75,50.7924,52.2321,164.104,99.5864,97.3904,0.0168885,0.128767,20.8709,971.958,0.202747,0,0
3465,866,50.8047,51.6724,164.083,99.5966,97.2655,0.0171407,0.127742,20.8711,971.918,0.215352,0,0
3474,868.25,51.0295,51.5416,167.478,99.6125,97.0951,0.0172734,0.127015,20.8726,971.868,0.232746,0,0
3483,870.5,50.5106,51.9251,169.795,99.6284,96.5289,0.0172794,0.126365,20.8733,971.838,0.287372,0,0
3492,872.75,50.8089,51.3227,165.713,99.6382,96.8842,0.0173952,0.125801,20.8748,971.778,0.254856,0,0
3501,875,49.9747,51.5812,164.526,99.6496,96.8574,0.0175973,0.124839,20.8755,971.748,0.258414,0,0
3510,877.25,50.0736,50.9268,167.371,99.6659,96.7811,0.0178319,0.123844,20.8753,971.698,0.26707,0,0
3519,879.5,49.8779,51.0115,164.262,99.6708,96.7107,0.0182276,0.122797,20.8766,971.648,0.274136,0,0
3528,881.75,49.9729,50.6846,166.286,99.6672,97.6354,0.0186619,0.121171,20.8782,971.598,0.187277,0,0
3537,884,50.2034,50.9179,162.9,99.679,98.0229,0.0190334,0.119538,20.8793,971.548,0.152331,0,0
3546,886.25,49.8668,50.5664,170.178,99.6823,97.5267,0.019277,0.118703,20.881,971.508,0.198773,0,0
3555,888.5,49.3715,50.9277,168.63,99.6757,96.6943,0.0195899,0.117831,20.8818,971.478,0.276121,0,0
3564,890.75,49.2969,50.5005,169.28,99.681,98.1179,0.0200404,0.117032,20.8826,971.448,0.143711,0,0
3573,893,49.3063,50.1827,172.644,99.6712,96.8088,0.0201628,0.116332,20.8839,971.408,0.26495,0,0
3582,895.25,49.6846,50.2351,166.294,99.6721,96.8801,0.0202712,0.115922,20.8844,971.368,0.258327,0,0
3591,897.5,48.9682,50.3727,167.397,99.6574,97.22,0.0204613,0.115463,20.8846,971.328,0.225143,0,0
3600,899.75,48.8939,50.312,167.555,99.6594,97.0596,0.0205357,0.114709,20.8856,971.278,0.240344,0,0
3609,902,49.1977,50.026,170.041,99.6533,96.7611,0.0205935,0.114204,20.8865,971.248,0.267797,0,0
3618,904.25,48.8613,49.9403,171.159,99.6341,97.9375,0.0206272,0.113737,20.8868,971.198,0.156167,0,0
3627,906.5,48.8629,49.2961,165.681,99.6215,97.0306,0.0204634,0.113326,20.8879,971.168,0.239609,0,0
3636,908.75,48.6063,49.8589,168.96,99.6036,97.4463,0.0202137,0.112988,20.8889,971.138,0.199095,0,0
3645,911,48.7105,49.4229,173.02,99.5934,96.5007,0.0200682,0.112492,20.8892,971.117,0.286826,0,0
3654,913.25,48.7738,49.4802,171.885,99.5657,97.5704,0.0201852,0.111806,20.8894,971.077,0.184066,0,0
3663,915.5,48.5326,49.5696,174.754,99.5453,97.5322,0.0203156,0.11141,20.8909,971.037,0.185761,0,0
3672,917.75,48.4075,49.5005,167.836,99.5318,97.3532,0.0203875,0.111003,20.8914,971.007,0.201238,0,0
3681,920,48.8135,49.1291,168.698,99.5008,97.7485,0.0205722,0.110714,20.8917,970.957,0.161561,0,0
3690,922.25,48.3588,49.2738,170.462,99.4682,96.7856,0.0206217,0.110656,20.8919,970.927,0.248588,0,0
3699,924.5,48.3568,49.0076,166.437,99.4393,98.6564,0.0206053,0.110546,20.8931,970.877,0.0718718,0,0
3708,926.75,48.3785,48.8828,162.413,99.4103,97.1873,0.0208311,0.110147,20.8943,970.847,0.205637,0,0
3717,929,48.2273,49.2027,169.442,99.3565,97.0951,0.0211732,0.109767,20.8948,970.837,0.209347,0,0
3726,931.25,48.1034,49.0201,161.98,99.3268,97.5545,0.0213552,0.109299,20.8945,970.787,0.163705,0,0
3735,933.5,48.3395,48.6234,168.856,99.2823,97.5013,0.0214697,0.108515,20.8954,970.767,0.164593,0,0
3744,935.75,47.8778,48.8339,175.268,99.2285,97.1782,0.021642,0.10796,20.8962,970.727,0.189841,0,0
3753,938,47.69,48.9438,174.31,99.1665,96.7266,0.0217028,0.107658,20.8965,970.697,0.22652,0,0
3762,940.25,47.7344,48.8522,166.538,99.1209,96.8961,0.0217129,0.107416,20.8979,970.667,0.206415,0,0
3771,942.5,47.964,48.31,172.992,99.0634,97.1614,0.0216516,0.107081,20.8992,970.627,0.176273,0,0
3780,944.75,48.0741,48.2267,167.94,99.0039,96.3744,0.0215599,0.106596,20.8998,970.587,0.244758,0,0
3789,947,47.5698,48.4899,165.539,98.9599,96.3753,0.0213918,0.106158,20.901,970.567,0.240627,0,0
3798,949.25,47.4326,48.5115,169.091,98.9199,96.1727,0.021372,0.105895,20.9014,970.537,0.256096,0,0
3807,951.5,47.7959,48.3383,164.701,98.8596,96.4103,0.0215457,0.10557,20.9016,970.507,0.228109,0,0
3816,953.75,47.1075,48.371,167.12,98.8192,95.4815,0.0217054,0.105609,20.9016,970.487,0.312414,0,0
3825,956,47.6046,48.1667,167.24,98.7776,96.1318,0.0220217,0.105139,20.9017,970.447,0.246877,0,0
3834,958.25,47.3852,48.0759,167.907,98.7303,95.8819,0.0220632,0.104755,20.9017,970.407,0.26619,0,0
3843,960.5,47.1395,48.3954,167.679,98.6835,95.8255,0.0219006,0.104527,20.9017,970.397,0.267218,0,0
3852,962.75,46.8708,48.2342,167.254,98.6488,96.2413,0.0219839,0.104082,20.9012,970.377,0.224659,0,0
3861,965,46.815,48.0743,165.238,98.6044,96.6757,0.0221816,0.103402,20.901,970.327,0.179614,0,0
3870,967.25,47.3845,47.8621,171.509,98.553,95.5711,0.0222653,0.103008,20.9009,970.287,0.279366,0,0
3879,969.5,47.0572,48.0866,172.011,98.5167,96.4017,0.02205812,0.103471,20.9029,970.267,0.197334,0,0
3888,971.75,47.2624,47.7733,167.788,98.4825,95.6179,0.0218313,0.105098,20.904,970.237,0.268406,0,0
3897,974,47.1514,47.8408,170.829,98.4593,95.5565,0.0216817,0.107565,20.905,970.207,0.272096,0,0
3906,976.25,47.1386,47.6995,173.339,98.4173,95.6151,0.02154,0.109806,20.9053,970.177,0.262641,0,0
3915,978.5,46.8198,47.4338,171.478,98.3769,95.1703,0.0215503,0.110634,20.9055,970.137,0.301314,0,0
3924,980.75,46.7274,47.4004,176.567,98.3296,95.8069,0.0215626,0.110168,20.9055,970.137,0.236323,0,0
3933,983,46.7708,47.4256,170.681,98.2921,95.6937,0.0215529,0.10893,20.9056,970.097,0.243598,0,0
3942,985.25,46.9226,47.4095,163.059,98.2534,95.9305,0.0216945,0.107625,20.9056,970.067,0.217549,0,0
3951,987.5,46.5936,47.6627,169.285,98.202,95.3838,0.0219084,0.107035,20.9056,970.047,0.264754,0,0
3960,989.75,46.3903,47.3659,166.024,98.169,95.8823,0.02199682,0.107551,20.9056,970.016,0.214303,0,0
3969,992,46.5745,47.8084,162.954,98.1294,95.8092,0.0218757,0.109192,20.9044,969.987,0.21758,0,0
3978,994.25,46.6164,47.3137,170.912,98.0732,95.7692,0.02174788,0.110984,20.902,969.936,0.216162,0,0
3987,996.5,46.6155,47.4851,169.345,98.0345,95.4865,0.0219134,0.111876,20.9008,969.916,0.239443,0,0
3996,998.75,46.3709,47.6096,171.351,97.9876,95.5642,0.0221144,0.111487,20.9003,969.906,0.227698,0,0
4005,1001,46.3731,47.1703,169.084,97.9505,95.5765,0.021934,0.109896,20.9001,969.886,0.223087,0,0
4014,1003.25,46.3556,47.1075,169.066,97.9109,95.0212,0.021837,0.107699,20.9,969.846,0.272395,0,0
4023,1005.5,46.4929,47.3187,167.497,97.88,95.4166,0.0220521,0.106329,20.9,969.816,0.231768,0,0
4032,1007.75,46.3179,47.4251,166.12,97.8449,94.9858,0.0220254,0.105209,20.9006,969.806,0.2696518,0,0
4041,1010,46.3921,47.3662,167.368,97.8131,95.5792,0.021834,0.104228,20.9017,969.766,0.210066,0,0
4050,1012.25,46.1837,46.9811,170.511,97.7732,94.9036,0.0217227,0.103566,20.9021,969.746,0.270858,0,0
4059,1014.5,45.9367,46.9233,171.039,97.7454,94.4605,0.0217599,0.102671,20.9022,969.866,0.310824,0,0
4068,1016.75,45.696,46.4287,178.76,97.7157,94.7654,0.0216972,0.101872,20.9023,969.816,0.278756,0,0
4077,1019,45.011,46.1316,172.776,97.7022,94.3646,0.0207388,0.0996623,20.9031,969.826,0.316038,0,0
4086,1021.25,44.9855,45.646,174.047,97.6765,95.6247,0.0187877,0.092498,20.9048,-0.330305,0.19304,0,0
4095,1023.5,44.4012,45.0044,170.327,97.6598,95.602,0.0173897,0.0847467,20.907,0.560518,0.193645,0,0
4104,1025.75,44.1847,44.888,172.815,97.6419,95.3888,0.01688746,0.0812371,20.9094,-0.300278,0.212266,0,0
4113,1028,44.1976,44.8706,167.895,97.6235,95.1439,0.0165153,0.0802357,20.9124,-0.27025,0.233934,0,0
4122,1030.25,43.996,44.8327,170.949,97.6068,95.1848,0.0154263,0.0806013,20.9156,-0.280259,0.228469,0,0
4131,1032.5,43.8682,44.5293,174.582,97.593,94.8031,0.0136008,0.0789088,20.9179,-0.290268,0.263712,0,0
4140,1034.75,43.7944,44.3267,173.661,97.5869,94.9145,0.0118929,0.0749438,20.9201,-0.300278,0.252471,0,0
4149,1037,43.6047,44.1628,171.073,97.5962,94.8867,0.0107568,0.0710259,20.9243,-0.310287,0.256,0,0
4158,1039.25,43.5006,43.9587,177.7,97.5901,94.3556,0.009981505,0.0678581,20.9278,-0.300278,0.306474,0,0
4167,1041.5,43.3507,43.5646,173.597,97.5954,95.0649,0.009181669,0.0656192,20.9324,-0.290268,0.238872,0,0
4176,1043.75,43.1768,43.8368,170.053,97.5958,95.3957,0.008655557,0.0636863,20.9363,-0.290268,0.207326,0,0
4185,1046,43.1217,43.3705,169.384,97.6121,95.0771,0.008438403,0.0622153,20.9404,-0.290268,0.239255,0,0
4194,1048.25,42.8236,43.6142,169.937,97.6207,95.1294,0.008307708,0.0612157,20.9426,-0.300278,0.235058,0,0
4203,1050.5,42.9409,43.1154,174.991,97.6288,95.069,0.008239644,0.0603814,20.9459,-0.310287,0.241595,0,0
4212,1052.75,42.7334,43.1447,173.156,97.6529,94.9535,0.008031137,0.0596549,20.949,-0.300278,0.25488,0,0
4221,1055,42.6737,43.0425,172.319,97.6692,95.2035,0.007701907,0.0591821,20.9513,-0.320296,0.232498,0,0
4230,1057.25,42.6056,42.8804,173.198,97.692,95.3584,0.007484585,0.0589368,20.9526,-0.310287,0.219836,0,0
4239,1059.5,42.4658,42.8104,177.825,97.725,95.6569,0.007424738,0.0587326,20.9544,-0.300278,0.194487,0,0
4248,1061.75,42.2761,42.7574,171.178,97.7442,95.1548,0.007374234,0.0584583,20.9552,-0.300278,0.244123,0,0
4257,1064,42.1799,42.6674,165.605,97.7662,95.3702,0.007340705,0.0582754,20.9552,-0.300278,0.225613,0,0
4266,1066.25,41.849,42.2712,173.705,97.7972,95.0608,0.007325166,0.0583408,20.9563,-0.310287,0.258043,0,0
4275,1068.5,42.1087,42.3062,174.532,97.8396,95.9936,0.007376004,0.0581706,20.9571,-0.310287,0.173191,0,0
4284,1070.75,41.9352,42.1691,179.288,97.8726,95.2766,0.00766733,0.058157,20.9574,-0.310287,0.244431,0,0
4293,1073,42.1759,42.2351,171.652,97.9126,95.0639,0.007814395,0.0582801,20.9577,-0.310287,0.268461,0,0
4302,1075.25,41.9524,41.9843,171.649,97.9472,94.7359,0.007574875,0.05847989,20.9591,-0.320296,0.3031106,0,0
4311,1077.5,41.5198,42.2232,172.574,97.9941,95.7115,0.007468027,0.0585354,20.9596,-0.310287,0.214307,0,0
4320,1079.75,41.6634,42.0356,171.457,98.0451,95.2584,0.007583691,0.0584776,20.9598,-0.310287,0.262174,0,0
4329,1082,41.7483,41.9777,168.402,98.0805,95.7224,0.007561572,0.058412,20.9599,-0.320296,0.221285,0,0
4338,1084.25,41.6122,41.6015,168.652,98.1409,95.641,0.007500084,0.058358,20.9606,-0.310287,0.234607,0,0
4347,1086.5,41.3327,41.9314,173.101,98.1857,95.7369,0.007518141,0.0583515,20.9616,-0.310287,0.229649,0,0
4356,1088.75,41.6072,41.8093,173.137,98.2411,95.5029,0.00759196,0.0586541,20.9619,-0.320296,0.257035,0,0
4365,1091,41.2758,41.7803,175.723,98.2884,95.8291,0.007791811,0.0588456,20.9616,-0.330305,0.230403,0,0
4374,1093.25,41.3877,41.7448,175.781,98.3586,95.746,0.007937369,0.0592957,20.9615,-0.320296,0.24478,0,0
4383,1095.5,41.3932,41.5634,173.472,98.4071,95.4788,0.007983799,0.0596259,20.9615,-0.320296,0.274672,0,0
4392,1097.75,41.807,41.7144,175.025,98.4556,95.3411,0.00792926,0.0596989,20.9615,-0.320296,0.292273,0,0
4401,1100,41.3138,41.5508,171.508,98.5049,95.5692,0.007927044,0.0593689,20.9618,-0.330305,0.275101,0,0
4410,1102.25,41.0297,41.8231,168.298,98.5542,95.3961,0.007878453,0.0591853,20.9621,-0.330305,0.296138,0,0
4419,1104.5,41.1667,41.5512,176.254,98.6032,95.92,0.007685002,0.0588371,20.9622,-0.330305,0.250851,0,0
4428,1106.75,41.3575,41.5231,174.243,98.6472,95.9423,0.007731381,0.0586939,20.9633,-0.330305,0.2528,0,0
4437,1109,41.1231,41.4302,170.785,98.6782,95.7642,0.007961016,0.0586669,20.9632,-0.320296,0.272551,0,0
4446,1111.25,41.2585,41.4895,172.735,98.7422,96.6389,0.008107573,0.0584464,20.9633,-0.330305,0.195773,0,0
4455,1113.5,41.1249,41.5414,169.812,98.7891,96,0.00813889,0.0582687,20.9632,-0.330305,0.260399,0,0
4464,1115.75,40.9385,41.3428,172.625,98.8347,96.2276,0.008112451,0.0581829,20.9643,-0.330305,0.243065,0,0
4473,1118,40.8001,41.6027,174.214,98.8836,95.2889,0.008180545,0.0580898,20.965,-0.320296,0.336704,0,0
4482,1120.25,41.1231,41.2964,175.667,98.9399,97.0478,0.00821688,0.0580469,20.9653,-0.330305,0.175565,0,0
4491,1122.5,40.5989,41.5263,173.788,98.9631,96.6489,,0.0580951,,-0.330305,0.215157,0,0
4500,1124.75,40.8866,41.332,174.872,98.9917,96.498,,,,-0.330305,0.231981,0,0
4509,1127,40.9196,41.1871,170.18,99.019,96.0345,,,,-0.330305,0.278267,0,0
4518,1129.25,41.1658,41.3254,173.314,99.0296,96.2136,,,,-0.330305,0.262305,0,0
4527,1131.5,40.8196,41.341,173.604,99.0695,95.9673,,,,-0.330305,0.289276,0,0
4529,1132,41.0403,41.2121,170.743,99.0512,96.3558,,,,-0.330305,0.250858,0,0