File: 01_Data/Plywood/MCC/Plywood_MCC_30K_min_211006_R1.txt
Sample ID:	C:\MCC\MCC Cal\Test\Ext_Plywood_MCC_30K_min_211006_R1.txt
Sample Weight (mg):	4.75
Heating Rate (C/s):	0.5
Combustor Temp (C):	900
N2 Flow Rate (cc/min):	80
O2 Flow Rate (cc/min):	20
Calibration File:	C:\MCC\MCC Cal\Coeff1 JN10440_30_210304.txt.txt
T Correction Coefficients:	0	1.024463	0
Time Shift (s):	14
*
Time (s)	Temperature (C)	N2 flow rate (cc/min)	O2 flow rate (cc/min)	Flow Rate (cc/min)	Oxygen (%)	HRR (W/g)	Heating rate (C/s)
0.000	110.050	79.998	19.996	100.698	20.125	-0.091	-0.020
2.000	110.098	79.999	19.995	100.699	20.126	-0.136	0.001
4.000	110.007	79.998	19.996	100.691	20.123	0.014	-0.039
6.000	110.007	79.997	19.995	100.691	20.128	-0.270	-0.015
8.000	110.020	79.998	19.995	100.698	20.125	-0.057	-0.036
10.000	110.003	79.998	19.996	100.694	20.126	-0.164	-0.007
12.000	109.967	79.998	19.997	100.701	20.126	-0.179	-0.023
14.000	109.986	79.998	19.996	100.711	20.125	-0.118	0.016
16.000	109.987	79.999	19.995	100.724	20.118	0.345	-0.006
18.000	109.986	79.999	19.995	100.733	20.117	0.437	0.011
20.000	109.985	79.999	19.995	100.740	20.115	0.593	0.003
22.000	110.044	79.999	19.996	100.771	20.112	0.802	0.026
24.000	110.052	79.997	19.994	100.800	20.104	1.329	0.013
26.000	110.144	79.998	19.995	100.840	20.102	1.459	0.029
28.000	110.291	79.998	19.995	100.860	20.097	1.771	0.065
30.000	110.405	79.998	19.996	100.884	20.089	2.290	0.064
32.000	110.600	79.998	19.996	100.898	20.091	2.146	0.119
34.000	110.853	79.997	19.995	100.900	20.086	2.506	0.108
35.999	111.082	79.997	19.995	100.902	20.087	2.412	0.117
37.999	111.398	79.997	19.994	100.909	20.086	2.529	0.156
39.999	111.691	79.999	19.995	100.910	20.081	2.853	0.177
41.999	112.026	80.000	19.996	100.924	20.081	2.832	0.191
43.999	112.403	80.001	19.995	100.921	20.081	2.860	0.169
46.000	112.797	80.000	19.995	100.922	20.078	3.011	0.208
47.999	113.268	80.000	19.995	100.922	20.075	3.226	0.216
49.999	113.730	79.999	19.996	100.931	20.074	3.262	0.248
51.999	114.219	79.999	19.996	100.935	20.075	3.240	0.262
53.999	114.717	79.998	19.995	100.933	20.074	3.309	0.250
55.999	115.211	79.999	19.995	100.943	20.071	3.516	0.254
57.999	115.804	79.998	19.996	100.942	20.069	3.602	0.276
59.999	116.356	79.999	19.995	100.940	20.071	3.480	0.281
61.999	116.989	80.000	19.996	100.934	20.076	3.178	0.277
63.999	117.652	80.001	19.996	100.950	20.073	3.349	0.349
66.000	118.261	80.002	19.995	100.943	20.072	3.427	0.318
68.000	118.951	80.002	19.995	100.937	20.072	3.449	0.318
70.000	119.622	80.002	19.995	100.938	20.070	3.542	0.354
71.999	120.345	80.000	19.995	100.941	20.073	3.338	0.356
74.000	121.040	79.999	19.996	100.964	20.072	3.395	0.346
75.999	121.828	79.999	19.995	100.954	20.076	3.183	0.383
77.999	122.607	79.997	19.996	100.963	20.068	3.680	0.378
79.999	123.362	79.998	19.996	100.957	20.070	3.558	0.380
81.999	124.126	79.996	19.997	100.969	20.072	3.422	0.376
83.999	124.935	79.996	19.996	100.968	20.070	3.553	0.350
85.999	125.821	79.996	19.996	100.955	20.070	3.582	0.432
87.999	126.676	79.997	19.996	100.952	20.066	3.845	0.426
89.999	127.471	79.997	19.996	100.955	20.066	3.834	0.400
91.999	128.314	79.998	19.997	100.972	20.069	3.624	0.426
93.999	129.203	79.998	19.995	100.972	20.068	3.718	0.432
95.999	130.064	79.998	19.995	100.967	20.067	3.779	0.420
97.999	130.967	79.999	19.994	100.966	20.068	3.669	0.420
99.999	131.831	79.998	19.995	100.964	20.071	3.514	0.411
101.999	132.778	79.998	19.995	100.955	20.069	3.606	0.455
104.000	133.682	79.999	19.994	100.959	20.068	3.703	0.490
106.000	134.621	79.998	19.994	100.965	20.069	3.617	0.449
107.999	135.541	79.998	19.996	100.960	20.072	3.432	0.477
109.999	136.490	79.997	19.996	100.966	20.067	3.753	0.481
111.999	137.434	79.997	19.995	100.964	20.066	3.810	0.489
114.001	138.365	79.997	19.997	100.956	20.067	3.724	0.458
116.000	139.377	79.997	19.996	100.965	20.068	3.703	0.514
117.999	140.350	79.998	19.996	100.955	20.065	3.887	0.503
120.000	141.345	79.999	19.996	100.951	20.065	3.908	0.504
122.000	142.311	80.001	19.995	100.939	20.064	3.932	0.518
123.999	143.290	79.999	19.995	100.941	20.066	3.840	0.493
125.999	144.298	79.999	19.995	100.947	20.069	3.613	0.497
128.000	145.312	80.001	19.995	100.944	20.070	3.573	0.500
130.000	146.299	80.000	19.995	100.939	20.067	3.767	0.525
132.000	147.297	80.000	19.995	100.937	20.067	3.787	0.503
134.000	148.285	79.999	19.997	100.935	20.068	3.672	0.490
136.000	149.308	79.999	19.996	100.934	20.062	4.062	0.518
138.000	150.337	80.000	19.995	100.936	20.068	3.699	0.489
140.000	151.347	79.999	19.995	100.936	20.066	3.846	0.512
142.000	152.355	79.999	19.996	100.935	20.065	3.871	0.515
144.000	153.335	79.999	19.996	100.932	20.062	4.107	0.485
146.000	154.362	79.998	19.998	100.935	20.066	3.842	0.520
148.000	155.395	80.002	19.997	100.935	20.067	3.770	0.515
150.000	156.350	80.000	19.996	100.932	20.065	3.856	0.488
152.000	157.404	80.000	19.996	100.932	20.067	3.727	0.522
154.000	158.407	80.000	19.995	100.934	20.062	4.078	0.492
156.000	159.442	79.998	19.996	100.934	20.064	3.967	0.501
158.000	160.423	79.997	19.996	100.934	20.061	4.160	0.495
160.000	161.437	79.996	19.996	100.934	20.065	3.913	0.498
162.000	162.478	79.997	19.996	100.929	20.067	3.733	0.488
164.000	163.483	79.997	19.996	100.913	20.065	3.893	0.521
166.000	164.510	79.997	19.996	100.920	20.064	3.962	0.506
168.000	165.531	79.997	19.996	100.913	20.059	4.272	0.512
170.000	166.555	79.997	19.997	100.903	20.063	4.011	0.517
172.000	167.568	79.997	19.995	100.900	20.056	4.503	0.498
174.000	168.548	79.998	19.996	100.896	20.056	4.489	0.494
176.000	169.623	79.998	19.997	100.894	20.056	4.480	0.534
178.000	170.594	79.997	19.996	100.896	20.058	4.351	0.504
180.000	171.569	79.998	19.997	100.895	20.059	4.286	0.512
182.000	172.567	79.998	19.996	100.895	20.057	4.439	0.511
184.000	173.577	79.999	19.998	100.895	20.057	4.442	0.496
186.000	174.547	79.999	19.996	100.894	20.055	4.533	0.495
188.000	175.536	79.999	19.996	100.894	20.052	4.775	0.462
190.000	176.512	79.998	19.995	100.895	20.057	4.414	0.496
192.000	177.529	79.998	19.995	100.893	20.050	4.861	0.516
194.000	178.541	79.997	19.995	100.894	20.052	4.748	0.518
196.000	179.549	79.998	19.995	100.894	20.050	4.859	0.490
198.000	180.511	79.997	19.996	100.892	20.048	5.015	0.512
200.000	181.515	79.998	19.995	100.893	20.047	5.047	0.480
202.000	182.482	79.999	19.995	100.893	20.044	5.253	0.480
204.000	183.486	79.998	19.997	100.893	20.044	5.293	0.481
206.000	184.462	80.000	19.996	100.891	20.045	5.191	0.467
208.000	185.528	80.000	19.994	100.894	20.046	5.142	0.520
210.000	186.497	79.999	19.996	100.897	20.042	5.402	0.511
212.000	187.442	79.999	19.995	100.896	20.042	5.396	0.461
214.000	188.423	80.000	19.996	100.893	20.040	5.558	0.476
216.000	189.395	79.998	19.995	100.896	20.042	5.439	0.505
218.000	190.357	79.999	19.995	100.896	20.040	5.543	0.479
220.000	191.386	80.000	19.996	100.894	20.039	5.582	0.474
222.000	192.339	80.000	19.994	100.889	20.035	5.887	0.473
224.000	193.314	79.999	19.995	100.887	20.033	6.014	0.451
226.000	194.324	80.000	19.996	100.895	20.034	5.932	0.505
228.000	195.349	80.000	19.995	100.887	20.032	6.064	0.524
230.000	196.238	80.002	19.996	100.890	20.032	6.085	0.461
232.000	197.244	80.001	19.995	100.889	20.030	6.195	0.468
234.000	198.249	80.001	19.996	100.891	20.032	6.059	0.511
236.000	199.206	80.000	19.995	100.889	20.030	6.240	0.489
238.000	200.200	80.000	19.997	100.892	20.030	6.216	0.520
240.000	201.192	79.999	19.996	100.883	20.024	6.589	0.490
242.000	202.161	79.998	19.996	100.885	20.025	6.558	0.477
244.000	203.150	79.998	19.996	100.893	20.023	6.669	0.497
246.000	204.117	79.997	19.997	100.892	20.019	6.906	0.463
248.000	205.145	79.998	19.996	100.889	20.021	6.773	0.519
250.000	206.142	79.998	19.996	100.889	20.021	6.795	0.489
252.000	207.085	79.999	19.995	100.889	20.019	6.945	0.484
254.000	208.115	79.999	19.997	100.889	20.018	7.011	0.502
256.000	209.051	79.998	19.997	100.890	20.018	6.977	0.457
258.000	210.037	79.999	19.997	100.891	20.014	7.253	0.462
260.000	211.049	79.999	19.997	100.885	20.011	7.495	0.493
262.000	212.010	79.998	19.997	100.894	20.013	7.325	0.480
264.000	213.008	79.999	19.997	100.886	20.008	7.670	0.471
266.000	213.999	79.998	19.996	100.888	20.003	7.987	0.465
268.000	214.986	79.997	19.997	100.891	20.007	7.702	0.474
270.000	215.955	79.996	19.996	100.884	20.003	7.996	0.460
272.000	216.944	79.998	19.997	100.896	20.005	7.887	0.504
274.000	217.901	79.997	19.997	100.890	20.003	7.976	0.491
276.000	218.923	79.998	19.996	100.890	20.005	7.869	0.491
278.000	219.895	79.998	19.996	100.888	20.006	7.803	0.484
280.000	220.855	80.000	19.996	100.878	20.000	8.216	0.458
282.000	221.875	80.000	19.995	100.896	19.999	8.266	0.503
284.000	222.849	80.000	19.995	100.896	19.998	8.325	0.488
286.000	223.855	79.999	19.995	100.893	20.004	7.944	0.514
288.000	224.869	80.000	19.995	100.894	19.999	8.286	0.478
290.000	225.840	80.000	19.997	100.890	19.999	8.288	0.484
292.000	226.807	79.999	19.996	100.894	20.000	8.180	0.474
294.000	227.786	80.000	19.996	100.891	19.997	8.410	0.500
296.000	228.775	79.998	19.996	100.896	19.999	8.291	0.496
298.000	229.811	80.000	19.996	100.894	19.998	8.351	0.513
300.000	230.804	79.999	19.997	100.893	19.996	8.475	0.467
302.000	231.794	80.000	19.995	100.893	19.996	8.476	0.495
304.000	232.805	80.000	19.996	100.892	19.996	8.475	0.501
306.000	233.800	80.001	19.995	100.893	19.994	8.591	0.510
308.000	234.807	80.001	19.994	100.890	19.994	8.572	0.491
310.000	235.770	80.000	19.994	100.881	19.991	8.768	0.485
312.000	236.771	80.000	19.995	100.885	19.991	8.762	0.498
314.000	237.770	80.000	19.995	100.888	19.986	9.097	0.511
316.000	238.741	80.000	19.995	100.886	19.991	8.818	0.474
318.000	239.745	80.000	19.995	100.892	19.989	8.925	0.491
320.000	240.716	79.998	19.995	100.890	19.989	8.900	0.474
322.000	241.693	79.998	19.996	100.890	19.986	9.119	0.488
324.000	242.706	79.998	19.996	100.891	19.992	8.750	0.485
326.000	243.706	79.998	19.997	100.891	19.986	9.151	0.500
328.000	244.722	79.996	19.995	100.892	19.983	9.345	0.500
330.000	245.737	79.997	19.996	100.891	19.979	9.594	0.527
332.000	246.694	79.998	19.997	100.890	19.979	9.567	0.465
334.000	247.716	79.998	19.995	100.897	19.971	10.088	0.509
336.000	248.676	79.998	19.997	100.897	19.973	9.988	0.493
338.000	249.761	80.000	19.997	100.896	19.972	10.018	0.563
340.000	250.752	79.998	19.996	100.897	19.970	10.205	0.495
342.000	251.785	79.995	19.996	100.896	19.966	10.457	0.470
344.000	252.766	79.998	19.996	100.897	19.960	10.856	0.483
346.000	253.762	79.998	19.997	100.898	19.961	10.788	0.487
348.000	254.742	79.997	19.995	100.893	19.953	11.286	0.505
350.000	255.748	79.997	19.995	100.898	19.947	11.708	0.493
352.000	256.757	79.998	19.997	100.899	19.943	11.949	0.504
354.000	257.730	79.997	19.997	100.899	19.939	12.271	0.516
356.000	258.720	79.996	19.997	100.907	19.933	12.605	0.505
358.000	259.724	79.996	19.995	100.923	19.929	12.881	0.535
360.000	260.688	79.998	19.997	100.912	19.927	13.062	0.507
362.000	261.677	79.998	19.997	100.919	19.923	13.274	0.484
364.000	262.648	79.999	19.997	100.925	19.918	13.627	0.508
366.000	263.667	80.000	19.996	100.907	19.914	13.885	0.524
368.000	264.622	79.999	19.997	100.920	19.909	14.238	0.494
370.000	265.612	80.000	19.995	100.930	19.903	14.634	0.513
372.000	266.645	79.999	19.994	100.924	19.896	15.101	0.508
374.000	267.634	79.998	19.995	100.931	19.890	15.477	0.493
376.000	268.587	80.000	19.996	100.933	19.881	16.086	0.487
378.000	269.637	79.999	19.996	100.933	19.876	16.427	0.470
380.000	270.638	79.998	19.994	100.933	19.872	16.688	0.515
382.000	271.625	79.999	19.997	100.933	19.864	17.188	0.486
384.000	272.640	80.000	19.997	100.933	19.856	17.755	0.480
386.000	273.582	80.000	19.995	100.933	19.853	17.915	0.499
388.000	274.577	80.000	19.995	100.932	19.844	18.519	0.468
390.000	275.567	80.001	19.996	100.950	19.835	19.165	0.490
392.000	276.572	80.001	19.996	100.948	19.832	19.361	0.491
394.000	277.567	80.002	19.995	100.958	19.820	20.137	0.510
396.000	278.567	80.000	19.995	100.946	19.811	20.729	0.507
398.000	279.528	80.001	19.995	100.946	19.799	21.520	0.492
400.000	280.500	79.999	19.994	100.959	19.795	21.775	0.491
402.000	281.529	79.999	19.995	100.963	19.783	22.585	0.508
404.000	282.532	79.998	19.995	100.974	19.777	22.980	0.528
406.000	283.495	79.999	19.995	100.974	19.768	23.558	0.482
408.000	284.502	79.998	19.996	100.979	19.758	24.250	0.524
410.000	285.467	79.997	19.995	100.976	19.754	24.542	0.500
412.000	286.436	79.999	19.995	100.981	19.737	25.634	0.481
414.000	287.478	79.998	19.995	100.983	19.730	26.124	0.509
416.000	288.476	79.998	19.995	100.979	19.719	26.866	0.497
418.000	289.490	79.996	19.995	100.989	19.713	27.257	0.492
420.000	290.513	79.998	19.996	101.001	19.703	27.885	0.499
422.000	291.536	79.997	19.997	101.001	19.689	28.835	0.509
424.000	292.520	79.998	19.997	101.000	19.681	29.384	0.513
426.000	293.590	79.998	19.995	101.003	19.672	29.991	0.509
428.000	294.558	80.000	19.997	101.009	19.659	30.815	0.500
430.000	295.531	79.999	19.997	101.010	19.645	31.793	0.518
432.000	296.542	79.996	19.996	101.012	19.643	31.879	0.489
434.000	297.536	79.998	19.996	101.015	19.625	33.093	0.488
436.000	298.565	79.996	19.995	101.014	19.617	33.642	0.469
438.000	299.569	79.998	19.996	101.011	19.611	34.047	0.509
440.000	300.525	79.998	19.997	101.029	19.601	34.711	0.464
442.000	301.643	80.000	19.996	101.029	19.588	35.522	0.543
444.000	302.491	79.998	19.996	101.024	19.573	36.568	0.521
446.000	303.808	79.999	19.996	101.039	19.567	36.976	0.582
448.000	304.349	79.998	19.996	101.040	19.555	37.742	0.538
450.000	305.502	80.000	19.997	101.039	19.547	38.258	0.754
452.000	306.674	79.998	19.997	101.047	19.533	39.192	0.456
454.000	307.558	79.999	19.996	101.049	19.519	40.163	0.491
456.000	308.538	79.999	19.997	101.049	19.515	40.415	0.417
458.000	309.588	79.998	19.996	101.057	19.500	41.415	0.513
460.000	310.602	79.999	19.996	101.061	19.490	42.077	0.499
462.000	311.601	80.000	19.996	101.060	19.481	42.696	0.494
464.000	312.650	80.000	19.996	101.069	19.465	43.708	0.545
466.000	313.673	80.001	19.995	101.064	19.457	44.256	0.545
468.000	314.661	79.999	19.994	101.061	19.441	45.361	0.515
470.000	315.653	80.000	19.995	101.069	19.434	45.788	0.487
472.000	316.671	80.001	19.995	101.083	19.420	46.748	0.494
474.000	317.688	80.001	19.995	101.091	19.413	47.191	0.518
476.000	318.690	80.001	19.996	101.088	19.397	48.229	0.545
478.000	319.694	80.001	19.994	101.089	19.384	49.093	0.493
480.000	320.689	79.999	19.995	101.092	19.373	49.846	0.508
482.000	321.711	79.998	19.995	101.093	19.366	50.332	0.523
484.000	322.718	79.998	19.995	101.091	19.358	50.876	0.501
486.000	323.706	79.998	19.996	101.093	19.349	51.430	0.509
488.000	324.739	79.999	19.997	101.102	19.335	52.335	0.517
490.000	325.726	80.000	19.996	101.093	19.327	52.930	0.507
492.000	326.738	79.998	19.996	101.094	19.321	53.300	0.497
494.000	327.733	79.998	19.995	101.092	19.309	54.093	0.492
496.000	328.757	80.000	19.997	101.097	19.304	54.409	0.510
498.000	329.792	80.001	19.995	101.091	19.296	54.938	0.515
500.000	330.800	80.000	19.997	101.092	19.290	55.375	0.512
502.000	331.848	79.998	19.995	101.096	19.286	55.648	0.528
504.000	332.850	79.999	19.995	101.095	19.279	56.117	0.526
506.000	333.838	79.999	19.996	101.095	19.268	56.844	0.535
508.000	334.869	79.997	19.995	101.093	19.269	56.748	0.507
510.000	335.927	79.999	19.997	101.096	19.260	57.362	0.534
512.000	336.920	79.997	19.997	101.094	19.260	57.333	0.486
514.000	337.909	79.999	19.996	101.091	19.260	57.309	0.480
516.000	338.920	79.998	19.998	101.090	19.258	57.481	0.523
518.000	339.939	79.998	19.995	101.088	19.260	57.305	0.533
520.000	340.939	79.998	19.997	101.084	19.258	57.487	0.521
522.000	341.899	79.999	19.997	101.090	19.262	57.163	0.505
524.000	342.888	79.999	19.996	101.088	19.267	56.890	0.481
526.000	343.895	79.999	19.997	101.068	19.267	56.866	0.513
528.000	344.910	79.999	19.996	101.064	19.273	56.452	0.514
530.000	345.871	80.000	19.996	101.054	19.282	55.834	0.479
532.000	346.893	80.000	19.996	101.053	19.288	55.462	0.490
534.000	347.867	79.999	19.995	101.052	19.303	54.447	0.478
536.000	348.890	79.998	19.996	101.041	19.312	53.852	0.502
538.000	349.904	79.998	19.996	101.027	19.325	52.948	0.523
540.000	350.942	79.998	19.997	101.022	19.338	52.092	0.491
542.000	351.961	79.998	19.998	101.015	19.352	51.168	0.499
544.000	352.937	79.997	19.997	101.005	19.366	50.234	0.532
546.000	353.968	79.997	19.997	100.994	19.387	48.819	0.482
548.000	355.009	79.996	19.997	100.981	19.403	47.802	0.502
550.000	356.026	79.997	19.995	100.980	19.424	46.393	0.527
552.000	357.017	80.001	19.995	100.975	19.443	45.134	0.523
554.000	358.044	80.000	19.994	100.953	19.462	43.854	0.523
556.000	359.052	80.001	19.995	100.943	19.485	42.323	0.523
558.000	359.995	79.999	19.995	100.943	19.506	40.961	0.439
560.000	361.060	80.000	19.996	100.931	19.529	39.381	0.519
562.000	362.075	80.000	19.995	100.929	19.552	37.856	0.518
564.000	363.056	79.997	19.996	100.928	19.577	36.243	0.508
566.000	364.078	80.001	19.995	100.904	19.603	34.484	0.506
568.000	365.084	80.000	19.995	100.899	19.629	32.759	0.517
570.000	366.113	79.998	19.996	100.893	19.650	31.358	0.511
572.000	367.101	80.000	19.995	100.892	19.672	29.910	0.501
574.000	368.118	79.999	19.996	100.883	19.690	28.695	0.520
576.000	369.150	79.999	19.995	100.876	19.719	26.777	0.527
578.000	370.136	80.001	19.995	100.866	19.735	25.748	0.493
580.000	371.186	79.998	19.997	100.857	19.756	24.330	0.505
582.000	372.252	79.998	19.996	100.859	19.778	22.868	0.518
584.000	373.265	79.998	19.995	100.850	19.794	21.822	0.510
586.000	374.275	80.000	19.995	100.846	19.813	20.574	0.513
588.000	375.280	79.998	19.996	100.846	19.831	19.397	0.500
590.000	376.313	80.000	19.995	100.837	19.847	18.336	0.503
592.000	377.350	79.997	19.994	100.837	19.856	17.703	0.509
594.000	378.353	79.997	19.996	100.835	19.873	16.623	0.519
596.000	379.360	79.998	19.996	100.836	19.884	15.861	0.486
598.000	380.407	79.998	19.995	100.825	19.893	15.243	0.548
600.000	381.434	79.997	19.994	100.822	19.904	14.547	0.536
602.000	382.463	79.997	19.996	100.827	19.914	13.896	0.527
604.000	383.454	79.998	19.997	100.822	19.920	13.489	0.486
606.000	384.500	79.999	19.996	100.819	19.924	13.216	0.543
608.000	385.469	79.998	19.996	100.825	19.937	12.375	0.516
610.000	386.510	79.999	19.996	100.822	19.937	12.385	0.538
612.000	387.543	79.998	19.995	100.825	19.948	11.627	0.512
614.000	388.551	79.999	19.995	100.820	19.947	11.693	0.485
616.000	389.507	79.998	19.994	100.821	19.953	11.321	0.492
618.000	390.532	79.998	19.996	100.818	19.955	11.191	0.520
620.000	391.558	79.999	19.996	100.822	19.960	10.810	0.481
622.000	392.552	79.999	19.995	100.820	19.962	10.713	0.499
624.000	393.567	80.000	19.996	100.816	19.966	10.437	0.492
626.000	394.555	79.999	19.996	100.815	19.963	10.668	0.479
628.000	395.588	79.999	19.996	100.816	19.969	10.242	0.471
630.000	396.664	79.998	19.997	100.819	19.972	10.026	0.517
632.000	397.637	80.000	19.997	100.817	19.972	10.056	0.462
634.000	398.621	80.000	19.996	100.813	19.973	9.980	0.498
636.000	399.672	80.000	19.997	100.812	19.978	9.649	0.531
638.000	400.689	80.001	19.997	100.812	19.977	9.682	0.532
640.000	401.682	79.999	19.996	100.813	19.978	9.652	0.503
642.000	402.708	79.998	19.997	100.813	19.975	9.836	0.497
644.000	403.711	80.000	19.995	100.815	19.979	9.550	0.505
646.000	404.665	79.999	19.995	100.815	19.977	9.717	0.471
648.000	405.687	80.000	19.996	100.816	19.980	9.535	0.491
650.000	406.677	79.999	19.996	100.814	19.979	9.579	0.503
652.000	407.697	79.998	19.996	100.816	19.980	9.482	0.498
654.000	408.697	79.999	19.996	100.816	19.982	9.382	0.513
656.000	409.713	79.998	19.997	100.815	19.982	9.387	0.492
658.000	410.731	79.999	19.995	100.821	19.990	8.867	0.507
660.000	411.710	79.998	19.994	100.823	19.987	9.028	0.467
662.000	412.697	80.000	19.997	100.819	19.987	9.053	0.496
664.000	413.669	80.000	19.996	100.814	19.989	8.940	0.487
666.000	414.650	80.000	19.995	100.811	19.989	8.903	0.498
668.000	415.659	79.998	19.996	100.815	19.995	8.505	0.493
670.000	416.646	79.999	19.996	100.815	19.991	8.806	0.524
672.000	417.662	79.998	19.996	100.816	19.996	8.434	0.511
674.000	418.699	79.997	19.994	100.819	19.999	8.235	0.490
676.000	419.697	79.999	19.995	100.817	20.001	8.147	0.521
678.000	420.729	79.998	19.995	100.816	20.005	7.873	0.499
680.000	421.743	79.997	19.995	100.819	20.010	7.535	0.487
682.000	422.783	80.000	19.995	100.818	20.010	7.508	0.500
684.000	423.781	80.000	19.995	100.817	20.011	7.478	0.506
686.000	424.786	80.003	19.996	100.811	20.012	7.403	0.520
688.000	425.816	79.999	19.996	100.809	20.010	7.504	0.529
690.000	426.897	80.001	19.996	100.814	20.009	7.619	0.527
692.000	427.876	79.999	19.996	100.808	20.013	7.307	0.525
694.000	428.931	80.000	19.996	100.805	20.016	7.127	0.517
696.000	429.932	79.999	19.997	100.814	20.018	7.010	0.526
698.000	430.937	80.000	19.997	100.806	20.013	7.333	0.495
700.000	431.995	79.999	19.996	100.802	20.021	6.805	0.519
702.000	432.968	79.999	19.997	100.796	20.025	6.560	0.496
704.000	434.033	79.999	19.995	100.798	20.025	6.520	0.539
706.000	434.996	80.000	19.996	100.797	20.026	6.499	0.505
708.000	436.040	80.001	19.996	100.799	20.030	6.211	0.520
710.000	437.074	80.000	19.996	100.807	20.029	6.249	0.526
712.000	438.018	80.001	19.995	100.803	20.027	6.383	0.471
714.000	439.023	80.002	19.995	100.806	20.026	6.463	0.493
716.000	440.085	80.003	19.996	100.802	20.030	6.225	0.533
718.000	441.103	80.000	19.996	100.810	20.030	6.171	0.528
720.000	442.077	79.999	19.998	100.808	20.028	6.318	0.491
722.000	443.113	80.000	19.997	100.813	20.031	6.164	0.496
724.000	444.110	80.000	19.997	100.803	20.031	6.143	0.498
726.000	445.059	79.997	19.997	100.800	20.029	6.263	0.471
728.000	446.135	79.997	19.996	100.793	20.035	5.873	0.527
730.000	447.120	79.998	19.997	100.795	20.034	5.927	0.511
732.000	448.107	79.999	19.996	100.797	20.039	5.601	0.492
734.000	449.099	79.998	19.996	100.793	20.038	5.654	0.496
736.000	450.101	80.000	19.996	100.797	20.039	5.622	0.489
738.000	451.142	79.999	19.996	100.805	20.042	5.391	0.514
740.000	452.169	79.999	19.996	100.810	20.043	5.318	0.509
742.000	453.159	80.000	19.996	100.812	20.042	5.417	0.496
744.000	454.191	80.000	19.995	100.795	20.044	5.300	0.515
746.000	455.217	79.999	19.996	100.787	20.045	5.186	0.525
748.000	456.270	79.999	19.996	100.789	20.044	5.293	0.524
750.000	457.243	79.998	19.997	100.795	20.048	5.031	0.495
752.000	458.298	80.000	19.997	100.802	20.042	5.392	0.540
754.000	459.339	79.999	19.996	100.802	20.050	4.900	0.517
756.000	460.342	80.001	19.998	100.805	20.045	5.211	0.498
758.000	461.351	79.998	19.996	100.806	20.041	5.441	0.504
760.000	462.362	79.998	19.997	100.785	20.043	5.353	0.523
762.000	463.379	79.999	19.996	100.778	20.045	5.226	0.486
764.000	464.387	80.000	19.995	100.778	20.040	5.535	0.505
766.000	465.387	80.000	19.995	100.777	20.041	5.485	0.515
768.000	466.433	80.000	19.995	100.780	20.043	5.373	0.486
770.000	467.496	80.000	19.995	100.781	20.043	5.337	0.532
772.000	468.459	80.000	19.995	100.778	20.038	5.652	0.499
774.000	469.486	80.000	19.995	100.777	20.042	5.421	0.492
776.000	470.550	80.001	19.996	100.783	20.042	5.419	0.548
778.000	471.563	79.999	19.996	100.782	20.045	5.235	0.514
780.000	472.554	80.000	19.996	100.781	20.040	5.534	0.490
782.000	473.630	80.001	19.995	100.786	20.046	5.125	0.547
784.000	474.672	80.000	19.997	100.789	20.057	4.415	0.499
786.000	475.693	79.999	19.995	100.783	20.052	4.748	0.507
788.000	476.730	79.999	19.996	100.781	20.048	4.993	0.519
790.000	477.733	80.001	19.996	100.793	20.058	4.373	0.528
792.000	478.766	80.002	19.997	100.796	20.058	4.334	0.503
794.000	479.786	80.001	19.994	100.793	20.055	4.531	0.529
796.000	480.806	80.002	19.996	100.793	20.053	4.683	0.496
798.000	481.903	80.000	19.996	100.783	20.056	4.488	0.536
800.000	482.924	80.001	19.997	100.789	20.056	4.468	0.505
802.000	483.883	79.997	19.996	100.794	20.061	4.124	0.489
804.000	484.969	79.998	20.000	100.796	20.064	3.964	0.493
806.000	486.011	79.999	19.999	100.795	20.061	4.153	0.521
808.000	487.058	79.999	19.999	100.795	20.064	3.953	0.518
810.000	488.077	79.999	19.999	100.799	20.063	3.992	0.526
812.000	489.083	79.998	19.998	100.786	20.067	3.770	0.522
814.000	490.137	79.996	19.996	100.785	20.062	4.108	0.521
816.000	491.143	79.998	19.998	100.798	20.065	3.886	0.502
818.000	492.167	79.998	19.997	100.789	20.067	3.727	0.528
820.000	493.234	79.996	19.995	100.793	20.070	3.541	0.550
822.000	494.255	80.000	19.997	100.780	20.070	3.538	0.535
824.000	495.341	79.997	19.997	100.798	20.072	3.423	0.518
826.000	496.361	79.999	19.997	100.779	20.068	3.704	0.518
828.000	497.412	80.001	19.997	100.777	20.068	3.682	0.533
830.000	498.469	79.999	19.997	100.779	20.067	3.725	0.534
832.000	499.538	79.996	19.997	100.783	20.069	3.609	0.530
834.000	500.564	79.999	19.998	100.787	20.066	3.820	0.516
836.000	501.564	79.996	19.997	100.783	20.067	3.749	0.521
838.000	502.576	79.998	19.997	100.779	20.065	3.894	0.487
840.000	503.619	79.997	19.996	100.777	20.070	3.556	0.509
842.000	504.618	79.998	19.996	100.783	20.071	3.468	0.493
844.000	505.630	80.001	19.996	100.784	20.070	3.581	0.506
846.000	506.669	79.999	19.996	100.783	20.071	3.486	0.539
848.000	507.625	80.000	19.996	100.790	20.074	3.314	0.498
850.000	508.673	80.000	19.996	100.801	20.070	3.581	0.495
852.000	509.678	79.999	19.997	100.786	20.072	3.426	0.535
854.000	510.673	80.001	19.996	100.786	20.071	3.456	0.518
856.000	511.693	79.998	19.995	100.782	20.069	3.651	0.495
858.000	512.693	80.000	19.996	100.781	20.073	3.363	0.518
860.000	513.752	79.999	19.996	100.785	20.071	3.497	0.553
862.000	514.777	80.019	20.003	100.794	20.078	2.999	0.549
864.000	515.771	80.001	19.998	100.807	20.072	3.439	0.502
866.000	516.806	80.001	19.996	100.791	20.077	3.098	0.521
868.000	517.829	80.000	19.997	100.797	20.071	3.489	0.504
870.000	518.889	80.000	19.998	100.801	20.068	3.653	0.550
872.000	519.853	80.000	19.997	100.782	20.073	3.363	0.488
874.000	520.860	80.004	19.996	100.783	20.066	3.822	0.497
876.000	521.872	80.003	19.998	100.782	20.075	3.241	0.527
878.000	522.895	80.002	19.996	100.785	20.073	3.357	0.489
880.000	523.902	80.019	20.004	100.795	20.069	3.648	0.512
882.000	524.908	80.019	20.001	100.787	20.075	3.219	0.503
884.000	525.894	80.018	20.003	100.793	20.076	3.180	0.482
886.000	526.938	80.018	20.002	100.792	20.070	3.554	0.495
888.000	527.973	80.019	20.002	100.806	20.075	3.209	0.505
890.000	528.981	80.019	20.003	100.781	20.075	3.241	0.533
892.000	530.021	80.003	20.001	100.781	20.071	3.466	0.523
894.000	530.954	79.998	19.998	100.778	20.074	3.298	0.480
896.000	532.043	79.998	19.998	100.780	20.073	3.380	0.511
898.000	533.052	80.000	20.001	100.785	20.075	3.248	0.502
900.000	534.017	79.996	19.998	100.785	20.081	2.802	0.505
902.000	535.029	80.003	20.000	100.777	20.075	3.234	0.492
904.000	536.096	80.004	19.999	100.786	20.077	3.071	0.523
906.000	537.106	80.009	20.001	100.794	20.073	3.366	0.499
908.000	538.131	79.995	19.998	100.776	20.074	3.287	0.522
910.000	539.121	79.998	20.000	100.778	20.072	3.396	0.515
912.000	540.176	79.998	20.001	100.782	20.076	3.137	0.526
914.000	541.194	79.999	20.002	100.787	20.078	3.019	0.510
916.000	542.227	79.998	20.003	100.795	20.079	2.928	0.528
918.000	543.242	79.999	19.998	100.792	20.078	3.006	0.512
920.000	544.223	79.998	19.998	100.779	20.077	3.114	0.492
922.000	545.247	80.001	19.997	100.781	20.080	2.867	0.480
924.000	546.280	79.998	19.996	100.779	20.083	2.661	0.508
926.000	547.317	79.999	19.997	100.779	20.080	2.895	0.532
928.000	548.335	79.997	19.997	100.782	20.079	2.985	0.518
930.000	549.354	79.999	19.997	100.780	20.081	2.803	0.522
932.000	550.369	80.000	19.996	100.783	20.080	2.858	0.513
934.000	551.400	79.998	19.997	100.784	20.081	2.836	0.518
936.000	552.449	80.001	19.996	100.780	20.079	2.940	0.514
938.000	553.514	79.999	19.995	100.779	20.077	3.085	0.531
940.000	554.544	80.002	19.997	100.784	20.080	2.879	0.530
942.000	555.581	80.001	19.995	100.777	20.078	3.055	0.540
944.000	556.584	79.999	19.996	100.774	20.077	3.076	0.490
946.000	557.612	79.999	19.995	100.774	20.079	2.983	0.497
948.000	558.648	80.000	19.996	100.773	20.079	2.979	0.514
950.000	559.687	80.000	19.995	100.776	20.079	2.971	0.526
952.000	560.696	79.999	19.995	100.775	20.080	2.883	0.487
954.000	561.736	80.002	19.996	100.779	20.080	2.895	0.521
956.000	562.743	80.000	19.995	100.773	20.080	2.881	0.512
958.000	563.791	80.001	19.995	100.774	20.083	2.691	0.499
960.000	564.794	80.001	19.996	100.776	20.082	2.759	0.478
962.000	565.829	80.000	19.997	100.777	20.084	2.658	0.516
964.000	566.889	80.000	19.995	100.775	20.075	3.221	0.544
966.000	567.913	80.000	19.996	100.775	20.079	2.987	0.502
968.000	568.967	79.999	19.995	100.775	20.077	3.069	0.514
970.000	570.002	79.997	19.995	100.773	20.080	2.917	0.494
972.000	571.003	80.000	19.996	100.776	20.075	3.223	0.507
974.000	572.029	79.999	19.996	100.777	20.079	2.942	0.533
976.000	573.084	79.998	19.997	100.778	20.080	2.883	0.534
978.000	574.129	79.999	19.997	100.776	20.083	2.715	0.557
980.000	575.150	79.998	19.996	100.779	20.081	2.845	0.510
982.000	576.189	79.998	19.996	100.780	20.081	2.802	0.504
984.000	577.202	79.999	19.996	100.773	20.082	2.767	0.510
986.000	578.275	79.997	19.997	100.779	20.081	2.847	0.540
988.000	579.249	79.999	19.997	100.780	20.081	2.822	0.539
990.000	580.281	79.998	19.996	100.781	20.081	2.845	0.555
992.000	581.317	79.996	19.996	100.778	20.083	2.663	0.511
994.000	582.362	79.997	19.996	100.778	20.081	2.810	0.546
996.000	583.369	79.996	19.997	100.783	20.076	3.174	0.480
998.000	584.404	79.995	19.996	100.784	20.077	3.108	0.509
1000.000	585.432	79.997	19.996	100.781	20.082	2.736	0.521
1002.000	586.435	79.998	19.996	100.777	20.077	3.106	0.497
1004.000	587.479	79.996	19.997	100.779	20.081	2.835	0.530
1006.000	588.529	79.999	19.998	100.776	20.080	2.861	0.524
1008.000	589.530	79.999	19.997	100.776	20.080	2.870	0.523
1010.000	590.532	79.998	19.996	100.779	20.076	3.148	0.526
1012.000	591.549	79.998	19.995	100.774	20.081	2.802	0.506
1014.000	592.615	79.999	19.994	100.776	20.081	2.849	0.532
1016.000	593.632	80.002	19.995	100.778	20.076	3.142	0.528
1018.000	594.704	80.000	19.994	100.773	20.075	3.237	0.533
1020.000	595.700	79.999	19.995	100.777	20.074	3.262	0.515
1022.000	596.729	79.998	19.996	100.771	20.080	2.917	0.523
1024.000	597.733	79.998	19.996	100.777	20.078	3.021	0.515
1025.999	598.780	80.001	19.997	100.776	20.078	3.053	0.524
1027.999	599.797	80.000	19.995	100.776	20.080	2.919	0.544
1029.999	600.843	79.999	19.995	100.778	20.074	3.300	0.502
1032.000	601.844	80.000	19.997	100.783	20.076	3.151	0.539
1033.999	602.820	80.000	19.996	100.777	20.077	3.092	0.476
1035.999	603.854	80.000	19.996	100.773	20.081	2.854	0.473
1037.999	604.885	80.002	19.996	100.774	20.077	3.083	0.499
1039.999	605.867	80.000	19.995	100.774	20.079	2.971	0.496
1042.000	606.902	79.998	19.995	100.776	20.082	2.785	0.488
1043.999	607.862	79.999	19.995	100.779	20.081	2.849	0.468
1045.999	608.928	79.998	19.993	100.776	20.075	3.201	0.538
1047.999	609.962	79.997	19.996	100.780	20.078	3.053	0.532
1049.999	610.975	79.997	19.995	100.782	20.079	2.938	0.503
1051.999	611.986	79.999	19.995	100.782	20.076	3.157	0.523
1053.999	612.997	79.999	19.996	100.790	20.078	3.026	0.493
1055.999	614.107	79.997	19.994	100.772	20.072	3.400	0.575
1057.999	615.081	79.997	19.997	100.779	20.079	2.960	0.532
1059.999	616.154	79.998	19.995	100.780	20.079	2.969	0.524
1061.999	617.178	79.997	19.996	100.780	20.078	3.040	0.540
1063.999	618.227	79.999	19.996	100.777	20.080	2.877	0.527
1065.999	619.239	79.997	19.997	100.779	20.077	3.105	0.520
1067.999	620.296	79.998	19.996	100.773	20.080	2.917	0.515
1069.999	621.302	79.998	19.995	100.771	20.079	2.972	0.503
1071.999	622.335	79.999	19.996	100.767	20.074	3.283	0.532
1074.000	623.352	79.999	19.996	100.764	20.076	3.140	0.526
1075.999	624.429	80.000	19.997	100.770	20.076	3.135	0.521
1078.000	625.442	79.996	19.997	100.768	20.079	2.958	0.500
1079.999	626.454	79.997	19.998	100.768	20.079	2.970	0.525
1081.999	627.468	79.994	19.996	100.771	20.077	3.078	0.501
1084.000	628.496	79.996	19.997	100.762	20.078	3.054	0.518
1085.999	629.526	79.997	19.996	100.771	20.075	3.212	0.523
1087.999	630.531	79.999	19.996	100.774	20.073	3.323	0.516
1090.001	631.555	79.998	19.997	100.767	20.075	3.233	0.523
1091.999	632.592	79.998	19.997	100.772	20.074	3.314	0.524
1093.999	633.606	79.998	19.995	100.774	20.070	3.561	0.511
1095.999	634.595	79.999	19.998	100.771	20.069	3.611	0.484
1097.999	635.659	80.001	19.996	100.766	20.074	3.287	0.526
1099.999	636.678	80.000	19.996	100.771	20.076	3.174	0.489
1101.999	637.668	79.998	19.995	100.774	20.075	3.208	0.489
1104.001	638.669	79.998	19.996	100.776	20.066	3.816	0.508
1106.000	639.710	79.999	19.995	100.777	20.071	3.455	0.516
1107.999	640.679	79.998	19.995	100.775	20.064	3.956	0.491
1109.999	641.713	79.999	19.995	100.778	20.073	3.350	0.533
1111.999	642.754	79.998	19.996	100.775	20.074	3.275	0.527
1113.999	643.746	80.000	19.996	100.777	20.070	3.548	0.498
1115.999	644.746	79.998	19.995	100.777	20.081	2.833	0.503
1117.999	645.742	80.000	19.996	100.775	20.079	2.971	0.494
1119.999	646.772	80.000	19.994	100.780	20.075	3.217	0.509
1121.999	647.791	80.002	19.995	100.777	20.072	3.419	0.496
1123.999	648.768	79.998	19.995	100.778	20.073	3.344	0.472
1125.999	649.841	79.998	19.995	100.780	20.067	3.741	0.533
1127.999	650.886	79.997	19.995	100.778	20.070	3.536	0.519
1129.999	651.859	79.999	19.996	100.777	20.070	3.521	0.497
1132.000	652.884	79.999	19.996	100.776	20.067	3.770	0.501
1133.999	653.917	79.999	19.996	100.776	20.069	3.605	0.526
1135.999	654.940	80.000	19.994	100.773	20.069	3.643	0.522
1137.999	655.939	79.999	19.994	100.777	20.070	3.537	0.504
1139.999	656.931	80.000	19.996	100.778	20.066	3.795	0.529
1141.999	657.972	79.999	19.994	100.777	20.064	3.942	0.516
1144.000	658.987	79.997	19.994	100.777	20.066	3.831	0.509
1145.999	659.959	79.998	19.994	100.777	20.062	4.079	0.514
1147.999	661.011	80.000	19.995	100.777	20.066	3.834	0.496
1149.999	662.014	79.998	19.996	100.776	20.065	3.909	0.516
1151.999	663.104	79.998	19.996	100.775	20.061	4.147	0.534
1153.999	664.094	79.996	19.995	100.776	20.066	3.841	0.521
1155.999	665.060	79.998	19.996	100.774	20.064	3.936	0.471
1157.999	666.128	79.999	19.995	100.771	20.068	3.709	0.525
1159.999	667.109	79.999	19.997	100.767	20.064	3.981	0.495
1161.999	668.188	79.999	19.997	100.765	20.059	4.260	0.551
1163.999	669.182	79.998	19.997	100.774	20.059	4.260	0.498
1166.000	670.186	79.999	19.995	100.772	20.065	3.895	0.498
1168.000	671.213	79.998	19.997	100.776	20.064	3.949	0.498
1169.999	672.260	79.998	19.996	100.773	20.066	3.807	0.523
1171.999	673.315	80.001	19.995	100.779	20.064	3.976	0.466
1174.000	674.306	79.999	19.996	100.777	20.066	3.797	0.515
1175.999	675.315	80.002	19.997	100.776	20.062	4.051	0.481
1177.999	676.358	79.997	19.995	100.774	20.064	3.927	0.488
1179.999	677.387	79.997	19.996	100.775	20.066	3.840	0.502
1181.999	678.418	80.000	19.997	100.778	20.064	3.958	0.501
1183.999	679.475	79.998	19.998	100.777	20.061	4.138	0.542
1185.999	680.451	79.999	19.998	100.776	20.062	4.088	0.494
1187.999	681.480	79.999	19.997	100.776	20.064	3.961	0.514
1190.000	682.509	80.000	19.996	100.777	20.065	3.913	0.502
1191.999	683.535	80.002	19.996	100.778	20.061	4.135	0.516
1193.999	684.535	79.999	19.995	100.780	20.064	3.958	0.520
1195.999	685.563	80.000	19.998	100.775	20.060	4.213	0.526
1197.999	686.553	80.000	19.995	100.778	20.064	3.933	0.496
1199.999	687.558	79.999	19.995	100.772	20.065	3.886	0.489
1202.001	688.595	80.000	19.994	100.772	20.065	3.874	0.499
1203.999	689.589	80.000	19.995	100.775	20.069	3.593	0.484
1206.000	690.610	79.997	19.997	100.774	20.064	3.968	0.508
1207.999	691.644	79.998	19.997	100.775	20.062	4.079	0.516
1209.999	692.621	79.999	19.997	100.776	20.069	3.638	0.487
1211.999	693.643	79.997	19.996	100.777	20.068	3.659	0.485
1213.999	694.686	80.000	19.996	100.774	20.068	3.668	0.532
1216.000	695.720	79.998	19.997	100.773	20.069	3.646	0.542
1217.999	696.725	79.998	19.996	100.776	20.065	3.861	0.522
1219.999	697.723	79.996	19.995	100.778	20.066	3.825	0.497
1221.999	698.717	80.000	19.996	100.777	20.060	4.226	0.496
1224.000	699.771	80.001	19.996	100.778	20.059	4.292	0.536
1225.999	700.794	79.998	19.995	100.777	20.059	4.276	0.523
1228.000	701.790	80.000	19.995	100.775	20.054	4.611	0.548
1229.999	702.808	79.999	19.996	100.778	20.057	4.435	0.495
1231.999	703.795	79.998	19.996	100.779	20.055	4.568	0.514
1233.999	704.788	79.998	19.994	100.778	20.060	4.192	0.529
1235.999	705.781	79.996	19.996	100.781	20.057	4.405	0.502
1237.999	706.775	79.997	19.995	100.779	20.057	4.396	0.505
1239.999	707.772	79.997	19.995	100.783	20.054	4.598	0.537
1241.999	708.752	79.998	19.995	100.782	20.056	4.505	0.466
1243.999	709.754	79.997	19.994	100.779	20.058	4.337	0.505
1246.000	710.808	79.998	19.996	100.780	20.054	4.612	0.521
1247.999	711.858	79.997	19.995	100.780	20.057	4.408	0.528
1249.999	712.847	79.998	19.997	100.780	20.054	4.602	0.483
1251.999	713.879	79.998	19.996	100.779	20.052	4.725	0.505
1253.999	714.873	79.999	19.994	100.779	20.058	4.328	0.527
1255.999	715.940	79.999	19.997	100.780	20.051	4.803	0.530
1257.999	716.970	79.998	19.996	100.779	20.050	4.907	0.521
1260.000	717.977	79.997	19.994	100.784	20.055	4.517	0.529
1262.000	719.013	79.999	19.995	100.779	20.055	4.537	0.493
1263.999	719.990	79.998	19.997	100.777	20.056	4.458	0.521
1265.999	721.025	79.998	19.996	100.773	20.056	4.469	0.541
1267.999	722.031	79.997	19.994	100.774	20.056	4.492	0.483
1269.999	723.031	79.998	19.996	100.773	20.056	4.455	0.483
1271.999	724.045	79.998	19.997	100.776	20.055	4.569	0.493
1273.999	725.071	80.000	20.000	100.775	20.057	4.433	0.518
1275.999	726.034	79.999	19.997	100.774	20.057	4.444	0.444
1278.001	727.126	79.999	19.997	100.773	20.054	4.591	0.497
1279.999	728.136	80.001	19.997	100.772	20.054	4.618	0.505
1281.999	729.184	79.999	19.998	100.774	20.057	4.417	0.546
1283.999	730.163	80.001	19.996	100.771	20.058	4.321	0.531
1285.999	731.178	80.000	19.996	100.774	20.055	4.519	0.471
1287.999	732.230	80.001	19.995	100.773	20.056	4.475	0.530
1289.999	733.231	79.999	19.997	100.773	20.054	4.580	0.506
1291.999	734.226	79.999	19.996	100.777	20.054	4.594	0.483
1293.999	735.258	79.999	19.997	100.778	20.052	4.730	0.515
1296.000	736.267	79.999	19.995	100.777	20.052	4.716	0.515
1297.999	737.289	79.999	19.996	100.773	20.049	4.920	0.514
1300.000	738.277	80.000	19.996	100.783	20.046	5.123	0.483
1301.999	739.246	79.997	19.997	100.779	20.050	4.885	0.481
1304.000	740.249	79.997	19.996	100.778	20.049	4.939	0.481
1306.000	741.213	80.000	19.995	100.779	20.051	4.788	0.470
1308.000	742.239	79.999	19.996	100.780	20.050	4.874	0.479
1309.999	743.261	79.999	19.996	100.787	20.051	4.799	0.492
1310.499	743.476	79.999	19.995	100.790	20.053	4.695	0.502