File: 01_Data/Plywood/MCC/Plywood_MCC_30K_min_211006_R2.txt
Sample ID:	C:\MCC\MCC Cal\Test\Ext_Plywood_MCC_30K_min_211006_R2.txt
Sample Weight (mg):	4.55
Heating Rate (C/s):	0.5
Combustor Temp (C):	900
N2 Flow Rate (cc/min):	80
O2 Flow Rate (cc/min):	20
Calibration File:	C:\MCC\MCC Cal\Coeff1 JN10440_30_210304.txt.txt
T Correction Coefficients:	0	1.024463	0
Time Shift (s):	14
*
Time (s)	Temperature (C)	N2 flow rate (cc/min)	O2 flow rate (cc/min)	Flow Rate (cc/min)	Oxygen (%)	HRR (W/g)	Heating rate (C/s)
0.000	108.794	79.997	19.996	100.738	20.056	0.119	-0.030
2.000	108.748	79.999	19.994	100.738	20.053	0.273	-0.024
4.000	108.787	79.997	19.994	100.739	20.057	0.045	0.015
6.001	108.770	79.999	19.995	100.738	20.055	0.146	-0.018
8.000	108.754	79.997	19.995	100.746	20.051	0.450	-0.003
10.000	108.733	79.998	19.996	100.762	20.049	0.570	-0.007
12.001	108.753	79.999	19.996	100.770	20.048	0.622	0.008
14.000	108.788	80.000	19.996	100.777	20.046	0.821	0.045
16.000	108.784	79.999	19.996	100.788	20.042	1.056	0.015
18.000	108.792	80.000	19.996	100.801	20.039	1.296	0.002
20.000	108.896	79.998	19.997	100.832	20.037	1.380	0.052
22.000	108.947	80.002	19.995	100.853	20.033	1.685	-0.004
24.000	109.010	79.999	19.996	100.881	20.027	2.125	0.063
26.000	109.159	79.999	19.995	100.928	20.025	2.215	0.081
28.000	109.361	80.001	19.995	100.936	20.019	2.673	0.092
30.001	109.572	80.000	19.995	100.944	20.016	2.836	0.098
32.000	109.818	79.998	19.996	100.949	20.016	2.841	0.128
34.000	110.129	79.997	19.996	100.965	20.010	3.256	0.156
36.000	110.453	79.998	19.995	100.961	20.012	3.144	0.133
38.000	110.843	79.999	19.995	100.972	20.009	3.367	0.186
40.000	111.182	79.998	19.995	100.974	20.007	3.477	0.192
42.000	111.638	80.000	19.996	100.974	20.006	3.539	0.221
44.001	112.063	80.000	19.997	100.966	20.007	3.464	0.230
46.000	112.542	79.999	19.996	100.962	20.006	3.537	0.229
48.000	113.021	80.001	19.996	100.954	20.011	3.182	0.261
50.000	113.532	80.001	19.996	100.970	20.010	3.277	0.279
52.000	114.044	80.001	19.995	100.962	20.004	3.668	0.245
54.000	114.535	79.998	19.995	100.967	20.010	3.275	0.250
56.000	115.073	80.001	19.996	100.972	20.008	3.433	0.212
58.000	115.726	79.999	19.996	100.967	20.008	3.421	0.324
60.000	116.255	80.000	19.995	100.958	20.010	3.249	0.309
62.001	116.902	79.999	19.994	100.960	20.010	3.274	0.344
64.000	117.505	79.997	19.994	100.957	20.008	3.395	0.333
66.000	118.186	80.000	19.995	100.960	20.004	3.709	0.340
68.000	118.757	79.999	19.995	100.972	20.004	3.687	0.297
70.000	119.414	80.000	19.996	100.972	20.007	3.504	0.326
72.000	120.096	79.999	19.995	100.971	20.006	3.558	0.306
74.000	120.785	79.996	19.995	100.971	20.005	3.618	0.350
76.000	121.489	79.999	19.996	100.972	20.005	3.657	0.336
78.001	122.218	79.997	19.995	100.971	20.003	3.766	0.343
80.000	122.936	79.999	19.996	100.972	20.006	3.565	0.403
82.000	123.674	79.999	19.996	100.972	20.004	3.672	0.372
84.000	124.398	79.999	19.995	100.972	20.004	3.713	0.394
86.000	125.145	80.000	19.997	100.971	20.004	3.713	0.373
88.000	125.905	79.999	19.995	100.973	20.000	3.949	0.363
90.000	126.672	79.999	19.996	100.973	20.002	3.865	0.395
92.000	127.436	79.999	19.995	100.974	19.996	4.263	0.374
94.000	128.248	80.000	19.995	100.975	20.001	3.893	0.419
96.001	129.047	79.999	19.995	100.977	20.000	3.955	0.388
98.000	129.836	79.999	19.996	100.980	20.000	4.004	0.373
100.000	130.682	80.000	19.996	100.983	19.999	4.050	0.407
102.000	131.502	79.999	19.995	100.980	20.003	3.775	0.379
104.001	132.333	80.000	19.995	100.979	19.999	4.020	0.418
106.000	133.137	80.001	19.996	100.984	20.002	3.837	0.376
108.000	134.041	79.999	19.995	100.989	20.002	3.811	0.449
110.000	134.960	79.999	19.995	100.979	19.999	4.056	0.439
112.000	135.779	80.000	19.996	100.984	19.999	4.024	0.429
114.000	136.645	79.998	19.995	100.981	20.002	3.839	0.440
116.000	137.578	79.999	19.996	100.981	19.997	4.209	0.434
118.000	138.475	79.999	19.995	100.982	19.999	4.063	0.391
120.000	139.366	79.999	19.996	100.982	19.993	4.458	0.466
122.000	140.309	80.001	19.995	100.983	19.998	4.080	0.476
124.000	141.196	80.000	19.997	100.983	19.995	4.291	0.438
126.001	142.088	80.004	19.995	100.982	19.995	4.349	0.406
128.000	143.049	80.002	19.995	100.984	19.995	4.344	0.486
130.000	143.973	80.001	19.996	100.980	19.994	4.392	0.455
132.000	144.918	80.001	19.995	100.978	19.994	4.387	0.453
134.000	145.866	80.001	19.994	100.985	19.991	4.594	0.453
136.000	146.787	80.000	19.996	100.971	19.994	4.409	0.441
138.000	147.733	80.001	19.997	100.978	19.996	4.261	0.446
140.000	148.742	79.998	19.997	100.976	19.995	4.314	0.500
142.000	149.728	79.998	19.997	100.975	19.990	4.637	0.503
144.000	150.704	79.998	19.996	100.975	19.996	4.241	0.459
146.000	151.694	79.999	19.997	100.973	19.995	4.353	0.489
148.000	152.675	79.998	19.996	100.974	19.992	4.512	0.501
150.000	153.640	79.998	19.997	100.973	19.992	4.553	0.496
152.000	154.599	79.998	19.996	100.973	19.991	4.592	0.458
154.000	155.526	79.999	19.996	100.972	19.989	4.710	0.463
156.000	156.520	79.998	19.996	100.973	19.991	4.576	0.504
158.000	157.543	80.000	19.996	100.975	19.989	4.731	0.501
160.000	158.561	79.998	19.995	100.974	19.989	4.710	0.491
162.000	159.504	79.999	19.996	100.975	19.987	4.888	0.518
164.000	160.490	79.999	19.996	100.976	19.987	4.849	0.505
166.000	161.482	79.998	19.995	100.975	19.986	4.955	0.506
168.000	162.457	79.998	19.995	100.974	19.988	4.796	0.502
170.000	163.524	79.998	19.996	100.975	19.987	4.880	0.491
172.000	164.532	79.999	19.996	100.975	19.988	4.824	0.480
174.000	165.532	79.999	19.996	100.974	19.988	4.776	0.534
176.000	166.550	79.998	19.995	100.976	19.988	4.807	0.486
178.000	167.537	79.998	19.996	100.976	19.985	5.015	0.494
180.000	168.507	79.998	19.995	100.969	19.987	4.874	0.486
182.000	169.548	79.999	19.996	100.960	19.985	5.019	0.548
184.000	170.525	79.999	19.996	100.969	19.983	5.160	0.494
186.000	171.548	79.999	19.995	100.969	19.986	4.971	0.527
188.000	172.584	80.001	19.995	100.960	19.978	5.517	0.496
190.000	173.590	80.001	19.996	100.960	19.984	5.077	0.530
192.000	174.626	80.000	19.996	100.941	19.979	5.432	0.531
194.000	175.614	80.001	19.993	100.946	19.977	5.558	0.474
196.000	176.635	80.001	19.996	100.951	19.976	5.659	0.491
198.000	177.591	80.000	19.996	100.947	19.979	5.408	0.493
200.000	178.653	79.999	19.996	100.944	19.976	5.613	0.539
202.000	179.621	80.000	19.995	100.942	19.974	5.793	0.461
204.000	180.627	80.000	19.994	100.942	19.971	5.956	0.481
206.000	181.648	80.000	19.995	100.940	19.975	5.727	0.492
208.000	182.584	80.001	19.995	100.937	19.973	5.846	0.458
210.000	183.584	80.000	19.996	100.937	19.972	5.890	0.456
212.000	184.632	80.003	19.997	100.937	19.966	6.309	0.513
214.001	185.610	80.002	19.997	100.933	19.969	6.083	0.484
216.000	186.614	80.001	19.996	100.933	19.968	6.163	0.460
218.000	187.652	80.001	19.995	100.932	19.964	6.476	0.495
220.000	188.681	80.000	19.995	100.937	19.968	6.219	0.548
222.000	189.651	79.999	19.996	100.933	19.966	6.317	0.492
224.000	190.654	79.999	19.995	100.938	19.965	6.382	0.518
226.000	191.626	79.999	19.996	100.936	19.968	6.219	0.471
228.000	192.678	79.996	19.995	100.937	19.964	6.455	0.495
230.000	193.615	79.999	19.997	100.936	19.962	6.614	0.504
232.000	194.661	79.997	19.998	100.937	19.961	6.646	0.515
234.001	195.621	79.998	19.997	100.937	19.960	6.709	0.469
236.000	196.612	79.999	19.997	100.934	19.961	6.657	0.511
238.000	197.638	79.998	19.996	100.934	19.958	6.908	0.495
240.000	198.613	79.998	19.995	100.936	19.957	6.956	0.493
242.000	199.594	79.998	19.995	100.935	19.954	7.123	0.482
244.000	200.606	79.999	19.998	100.935	19.955	7.108	0.500
246.000	201.562	79.997	19.997	100.936	19.954	7.134	0.476
248.000	202.597	80.000	19.995	100.939	19.952	7.293	0.485
250.000	203.576	79.998	19.997	100.936	19.953	7.246	0.488
252.000	204.575	79.998	19.996	100.937	19.953	7.208	0.519
254.000	205.549	79.999	19.998	100.936	19.947	7.627	0.495
256.000	206.506	79.999	19.995	100.933	19.951	7.392	0.475
258.000	207.522	79.998	19.993	100.934	19.945	7.747	0.503
260.000	208.494	79.999	19.998	100.934	19.943	7.915	0.474
262.000	209.503	79.999	19.996	100.933	19.947	7.633	0.475
264.000	210.502	80.000	19.996	100.934	19.942	7.995	0.473
266.000	211.478	79.999	19.997	100.934	19.942	7.966	0.491
268.000	212.483	80.001	19.997	100.933	19.942	7.967	0.539
270.000	213.463	80.001	19.996	100.933	19.940	8.143	0.516
272.000	214.433	80.001	19.995	100.932	19.939	8.170	0.516
274.000	215.417	79.999	19.996	100.931	19.938	8.246	0.495
276.000	216.390	79.999	19.996	100.931	19.937	8.308	0.467
278.000	217.338	80.000	19.995	100.931	19.937	8.362	0.463
280.000	218.370	80.000	19.996	100.932	19.936	8.435	0.538
282.000	219.311	80.001	19.995	100.933	19.936	8.383	0.497
284.000	220.298	80.000	19.995	100.934	19.938	8.267	0.461
286.000	221.300	79.999	19.995	100.933	19.929	8.899	0.479
288.000	222.292	79.999	19.995	100.935	19.930	8.835	0.496
290.000	223.295	79.999	19.998	100.935	19.933	8.603	0.491
292.000	224.271	80.001	19.995	100.934	19.932	8.695	0.496
294.000	225.249	80.001	19.994	100.934	19.928	8.979	0.482
296.000	226.264	80.001	19.994	100.934	19.929	8.863	0.471
298.000	227.228	80.000	19.996	100.933	19.924	9.260	0.482
300.000	228.227	80.002	19.996	100.933	19.925	9.174	0.522
302.000	229.202	79.999	19.996	100.932	19.928	8.923	0.475
304.000	230.224	80.000	19.994	100.934	19.929	8.886	0.488
306.000	231.208	79.998	19.997	100.935	19.922	9.350	0.491
308.000	232.204	79.998	19.995	100.935	19.924	9.219	0.498
310.000	233.200	79.997	19.996	100.937	19.925	9.148	0.490
312.000	234.158	79.998	19.994	100.937	19.924	9.217	0.486
314.000	235.161	79.999	19.995	100.937	19.921	9.451	0.494
316.000	236.122	79.999	19.997	100.937	19.921	9.456	0.466
318.000	237.130	79.998	19.996	100.937	19.922	9.398	0.469
320.000	238.107	79.997	19.995	100.935	19.917	9.740	0.473
322.000	239.095	79.998	19.997	100.934	19.920	9.503	0.499
324.000	240.088	79.998	19.998	100.935	19.922	9.395	0.475
326.000	241.090	79.998	19.997	100.933	19.915	9.846	0.527
328.000	242.053	79.999	19.997	100.935	19.911	10.131	0.469
330.001	243.072	79.996	19.998	100.935	19.913	9.974	0.507
332.000	244.082	79.997	19.995	100.935	19.912	10.042	0.504
334.000	245.067	79.997	19.996	100.937	19.910	10.189	0.493
336.000	246.096	79.998	19.996	100.942	19.907	10.401	0.540
338.000	247.089	79.998	19.996	100.935	19.907	10.407	0.505
340.000	248.031	79.998	19.995	100.936	19.905	10.517	0.498
342.000	249.061	79.999	19.995	100.936	19.905	10.582	0.482
344.000	250.113	79.998	19.995	100.936	19.901	10.824	0.560
346.000	251.081	80.001	19.997	100.937	19.903	10.672	0.475
348.000	252.145	80.000	19.996	100.940	19.893	11.346	0.525
350.000	253.128	80.000	19.997	100.950	19.897	11.073	0.537
352.000	254.090	80.001	19.995	100.952	19.897	11.094	0.502
354.000	255.140	80.000	19.994	100.953	19.888	11.728	0.542
356.000	256.125	80.000	19.995	100.950	19.888	11.741	0.490
358.000	257.152	80.000	19.995	100.965	19.882	12.116	0.539
360.000	258.132	79.998	19.994	100.963	19.876	12.533	0.522
362.000	259.100	79.999	19.996	100.968	19.875	12.618	0.469
364.000	260.081	79.999	19.995	100.968	19.871	12.919	0.443
366.000	261.199	79.998	19.995	100.959	19.865	13.345	0.521
368.000	262.003	79.999	19.994	100.970	19.863	13.482	0.494
370.000	263.144	80.000	19.995	100.971	19.858	13.781	0.456
372.000	264.076	79.999	19.997	100.975	19.854	14.109	0.492
374.000	265.089	79.999	19.995	100.976	19.851	14.320	0.546
376.000	266.063	80.002	19.995	100.976	19.850	14.378	0.449
378.000	267.105	80.001	19.994	100.975	19.844	14.750	0.507
380.000	268.073	80.000	19.993	100.976	19.840	15.045	0.480
382.000	269.112	80.000	19.994	100.978	19.830	15.725	0.531
384.000	270.155	80.000	19.993	100.978	19.824	16.137	0.520
386.000	271.199	80.000	19.997	100.974	19.819	16.537	0.555
388.000	272.199	79.998	19.993	100.982	19.811	17.060	0.511
390.000	273.192	79.999	19.996	100.980	19.809	17.201	0.487
392.000	274.223	79.999	19.997	100.986	19.801	17.725	0.480
394.000	275.195	79.998	19.998	100.989	19.793	18.290	0.489
396.000	276.224	79.998	19.996	100.995	19.787	18.700	0.531
398.000	277.237	79.999	19.996	100.997	19.781	19.172	0.528
400.000	278.245	79.999	19.996	101.006	19.777	19.411	0.525
402.000	279.210	80.001	19.995	101.010	19.764	20.310	0.466
404.000	280.216	80.001	19.996	101.010	19.756	20.852	0.511
406.000	281.239	79.999	19.997	101.010	19.751	21.238	0.504
408.000	282.256	79.999	19.995	101.010	19.740	21.982	0.506
410.000	283.252	79.999	19.998	101.011	19.731	22.578	0.486
412.001	284.271	79.998	19.997	101.014	19.729	22.781	0.500
414.000	285.287	79.999	19.997	101.018	19.711	23.981	0.493
416.000	286.237	79.997	19.997	101.015	19.712	23.900	0.504
418.000	287.251	79.999	19.997	101.016	19.699	24.820	0.515
420.000	288.295	79.997	19.997	101.015	19.693	25.282	0.529
422.000	289.286	79.997	19.998	101.021	19.678	26.322	0.478
424.000	290.291	79.997	19.998	101.041	19.671	26.792	0.524
426.000	291.322	79.998	19.997	101.045	19.664	27.277	0.513
428.000	292.333	79.997	19.996	101.050	19.653	28.002	0.497
430.000	293.346	79.999	19.996	101.051	19.648	28.356	0.506
432.000	294.353	80.000	19.996	101.055	19.633	29.400	0.461
434.000	295.339	80.000	19.996	101.056	19.626	29.925	0.538
436.000	296.340	79.999	19.996	101.054	19.615	30.624	0.455
438.000	297.356	80.000	19.995	101.055	19.611	30.931	0.523
440.000	298.363	80.000	19.995	101.056	19.598	31.849	0.499
442.000	299.374	79.999	19.995	101.055	19.590	32.369	0.495
444.000	300.396	79.999	19.995	101.055	19.579	33.171	0.525
446.000	301.361	79.998	19.995	101.061	19.570	33.814	0.504
448.000	302.349	80.000	19.996	101.060	19.558	34.590	0.491
450.000	303.417	80.000	19.996	101.064	19.552	35.033	0.527
452.000	304.392	80.000	19.995	101.067	19.544	35.571	0.498
454.000	305.409	80.001	19.996	101.084	19.530	36.534	0.510
456.000	306.412	80.000	19.996	101.082	19.521	37.159	0.497
458.000	307.415	80.000	19.995	101.082	19.514	37.653	0.503
460.000	308.423	80.001	19.996	101.086	19.508	38.084	0.512
462.000	309.392	80.000	19.995	101.087	19.493	39.093	0.482
464.000	310.442	80.001	19.995	101.089	19.477	40.235	0.501
466.000	311.470	80.001	19.994	101.089	19.473	40.490	0.469
468.000	312.494	80.001	19.996	101.089	19.462	41.289	0.546
470.000	313.531	79.999	19.998	101.091	19.463	41.239	0.511
472.000	314.512	79.999	19.995	101.093	19.439	42.875	0.515
474.000	315.524	79.999	19.996	101.097	19.431	43.431	0.490
476.000	316.550	80.000	19.996	101.102	19.415	44.527	0.512
478.000	317.528	79.999	19.995	101.102	19.406	45.184	0.477
480.000	318.521	80.000	19.996	101.107	19.399	45.676	0.498
482.000	319.524	79.998	19.996	101.120	19.394	45.979	0.528
484.000	320.511	79.998	19.996	101.120	19.381	46.884	0.486
486.000	321.493	79.999	19.995	101.125	19.384	46.697	0.521
488.000	322.550	80.001	19.997	101.125	19.374	47.370	0.531
490.000	323.553	79.998	19.996	101.131	19.346	49.328	0.508
492.000	324.546	79.998	19.996	101.131	19.346	49.313	0.514
494.000	325.566	79.999	19.996	101.130	19.334	50.183	0.535
496.000	326.574	79.996	19.996	101.132	19.330	50.425	0.504
498.000	327.553	80.001	19.996	101.133	19.315	51.466	0.431
500.000	328.614	80.000	19.996	101.133	19.307	52.066	0.497
502.000	329.611	79.999	19.996	101.137	19.300	52.537	0.490
504.000	330.656	79.998	19.996	101.139	19.292	53.075	0.506
506.001	331.635	79.994	19.996	101.138	19.284	53.619	0.470
508.000	332.717	79.996	19.996	101.140	19.274	54.353	0.515
510.000	333.751	80.000	19.999	101.136	19.269	54.667	0.528
512.000	334.812	79.998	19.997	101.137	19.275	54.259	0.522
514.000	335.808	80.001	19.997	101.144	19.256	55.581	0.495
516.000	336.844	80.001	19.997	101.130	19.250	55.967	0.521
518.000	337.900	80.000	19.996	101.129	19.248	56.096	0.504
520.000	338.861	79.999	19.996	101.129	19.247	56.195	0.466
522.000	339.863	80.001	19.996	101.126	19.239	56.759	0.502
524.000	340.882	79.998	19.996	101.127	19.233	57.162	0.489
526.000	341.806	80.001	19.996	101.127	19.247	56.199	0.459
528.000	342.843	80.000	19.995	101.128	19.240	56.647	0.513
530.000	343.848	80.000	19.994	101.127	19.240	56.641	0.501
532.000	344.869	80.001	19.994	101.123	19.244	56.387	0.528
534.000	345.969	80.001	19.996	101.118	19.248	56.089	0.522
536.001	346.914	80.001	19.995	101.119	19.255	55.622	0.478
538.000	347.900	80.000	19.994	101.112	19.262	55.144	0.516
540.000	348.922	80.002	19.996	101.091	19.266	54.808	0.491
542.000	349.938	80.003	19.996	101.090	19.273	54.341	0.520
544.000	350.950	80.002	19.996	101.088	19.287	53.353	0.516
546.000	351.941	80.001	19.995	101.084	19.289	53.220	0.479
548.000	352.988	80.001	19.995	101.076	19.308	51.933	0.525
550.000	354.035	80.000	19.996	101.065	19.319	51.136	0.518
552.000	355.009	80.000	19.996	101.053	19.336	49.976	0.468
554.000	356.031	79.999	19.995	101.053	19.346	49.284	0.520
556.000	357.044	79.999	19.995	101.037	19.361	48.202	0.496
558.000	358.055	80.000	19.996	101.024	19.386	46.480	0.506
560.000	359.045	79.998	19.996	101.016	19.408	44.932	0.532
562.000	360.029	80.000	19.997	101.014	19.427	43.628	0.483
564.000	360.980	79.999	19.997	101.010	19.439	42.790	0.481
566.000	362.035	80.000	19.996	100.986	19.464	41.055	0.495
568.000	363.050	80.000	19.997	100.978	19.491	39.185	0.491
570.000	364.047	80.001	19.996	100.976	19.510	37.887	0.532
572.000	365.080	79.999	19.996	100.976	19.535	36.135	0.547
574.000	366.062	79.996	19.997	100.968	19.555	34.787	0.485
576.000	367.084	79.999	19.996	100.959	19.579	33.069	0.491
578.000	368.071	79.999	19.997	100.941	19.597	31.875	0.466
580.000	369.094	79.996	19.996	100.934	19.614	30.669	0.511
582.000	370.093	80.000	19.997	100.930	19.638	29.045	0.483
584.000	371.088	79.999	19.996	100.921	19.661	27.421	0.496
586.000	372.079	79.999	19.998	100.914	19.689	25.486	0.510
588.000	373.118	80.000	19.997	100.907	19.702	24.599	0.540
590.000	374.084	79.999	19.996	100.895	19.725	23.002	0.495
592.000	375.141	79.998	19.998	100.895	19.740	21.969	0.525
594.000	376.161	80.000	19.996	100.895	19.762	20.447	0.522
596.000	377.170	79.997	19.995	100.894	19.774	19.591	0.479
598.000	378.117	80.000	19.997	100.890	19.793	18.281	0.476
600.000	379.172	80.002	19.997	100.892	19.809	17.178	0.525
602.000	380.223	80.002	19.997	100.893	19.818	16.585	0.531
604.000	381.274	80.001	19.997	100.890	19.830	15.761	0.561
606.000	382.285	80.000	19.996	100.885	19.841	14.953	0.522
608.000	383.253	79.996	19.997	100.885	19.849	14.409	0.472
610.000	384.305	79.999	19.998	100.885	19.857	13.864	0.479
612.000	385.330	80.000	19.997	100.887	19.864	13.390	0.540
614.000	386.319	79.998	19.997	100.883	19.869	13.001	0.516
616.000	387.351	80.001	19.996	100.887	19.879	12.327	0.521
618.000	388.376	80.001	19.997	100.890	19.885	11.904	0.496
620.000	389.417	80.002	19.996	100.882	19.883	12.030	0.500
622.000	390.427	80.002	19.995	100.885	19.893	11.399	0.529
624.000	391.441	80.005	19.996	100.889	19.894	11.314	0.532
626.000	392.461	80.001	19.995	100.883	19.900	10.920	0.501
628.000	393.463	80.002	19.995	100.868	19.897	11.109	0.521
630.000	394.512	80.001	19.996	100.878	19.895	11.214	0.525
632.000	395.540	80.000	19.997	100.884	19.898	11.020	0.502
634.000	396.570	79.997	19.995	100.880	19.909	10.237	0.518
636.000	397.531	80.001	19.997	100.868	19.908	10.351	0.483
638.000	398.578	79.999	19.998	100.882	19.913	9.979	0.514
640.000	399.614	80.000	19.995	100.875	19.912	10.035	0.520
642.000	400.611	79.999	19.995	100.874	19.911	10.132	0.490
644.000	401.600	79.998	19.994	100.875	19.907	10.404	0.510
646.000	402.598	80.000	19.996	100.870	19.915	9.872	0.522
648.000	403.636	79.999	19.996	100.870	19.915	9.882	0.512
650.000	404.612	80.004	19.997	100.872	19.917	9.689	0.501
652.000	405.655	80.002	19.997	100.880	19.917	9.712	0.526
654.000	406.628	80.000	19.996	100.879	19.920	9.496	0.505
656.000	407.648	80.001	19.997	100.871	19.917	9.715	0.524
658.000	408.652	79.999	19.996	100.872	19.918	9.662	0.482
660.000	409.668	80.001	19.997	100.874	19.919	9.555	0.534
662.000	410.671	79.999	19.996	100.868	19.921	9.457	0.508
664.000	411.652	79.998	19.996	100.876	19.917	9.676	0.495
666.000	412.672	79.999	19.996	100.871	19.923	9.289	0.495
668.000	413.692	79.998	19.997	100.868	19.927	9.015	0.489
670.000	414.652	80.000	19.995	100.871	19.926	9.067	0.486
672.000	415.652	80.001	19.996	100.868	19.927	9.036	0.497
674.000	416.698	80.002	19.996	100.863	19.929	8.901	0.493
676.000	417.710	80.000	19.996	100.863	19.931	8.773	0.532
678.000	418.728	80.002	19.997	100.869	19.930	8.820	0.518
680.000	419.729	80.000	19.997	100.875	19.924	9.215	0.507
682.000	420.793	80.000	19.996	100.868	19.933	8.635	0.529
684.000	421.766	80.003	19.996	100.864	19.936	8.392	0.479
686.000	422.773	80.001	19.996	100.882	19.937	8.327	0.502
688.000	423.779	79.999	19.995	100.878	19.936	8.424	0.508
690.000	424.813	80.001	19.997	100.872	19.932	8.695	0.555
692.000	425.801	80.000	19.998	100.868	19.937	8.329	0.520
694.000	426.817	79.998	19.996	100.865	19.943	7.924	0.511
696.000	427.834	80.000	19.998	100.862	19.945	7.774	0.526
698.000	428.822	80.001	19.996	100.864	19.946	7.677	0.511
700.000	429.858	80.000	19.996	100.866	19.948	7.592	0.518
702.000	430.851	80.001	19.996	100.867	19.955	7.091	0.499
704.000	431.842	80.001	19.996	100.878	19.953	7.228	0.471
706.001	432.917	80.001	19.996	100.872	19.949	7.474	0.528
708.000	433.953	80.001	19.996	100.863	19.950	7.405	0.534
710.000	434.973	80.001	19.995	100.855	19.956	7.001	0.500
712.000	435.978	80.002	19.996	100.858	19.954	7.158	0.518
714.000	437.005	80.001	19.996	100.859	19.956	7.022	0.492
716.000	438.015	79.998	19.996	100.857	19.957	6.949	0.489
718.000	439.025	80.002	19.995	100.856	19.958	6.882	0.484
720.000	440.013	79.999	19.994	100.859	19.963	6.510	0.498
722.000	441.004	80.001	19.996	100.858	19.959	6.820	0.479
724.000	442.072	79.998	19.996	100.856	19.961	6.646	0.519
726.000	443.055	79.999	19.996	100.857	19.963	6.517	0.514
728.000	444.044	79.999	19.996	100.856	19.965	6.392	0.532
730.000	445.042	80.000	19.996	100.856	19.962	6.581	0.528
732.000	446.067	80.000	19.997	100.858	19.966	6.353	0.504
734.000	447.082	80.000	19.996	100.857	19.966	6.297	0.507
736.000	448.080	79.999	19.996	100.856	19.968	6.168	0.502
738.000	449.089	80.000	19.996	100.856	19.967	6.219	0.517
740.000	450.118	79.999	19.996	100.859	19.966	6.349	0.501
742.001	451.104	79.999	19.995	100.860	19.965	6.362	0.507
744.000	452.070	80.000	19.997	100.859	19.969	6.114	0.470
746.000	453.108	79.999	19.994	100.860	19.969	6.108	0.499
748.000	454.139	80.000	19.995	100.860	19.973	5.862	0.522
750.000	455.144	79.999	19.995	100.862	19.973	5.852	0.515
752.000	456.173	80.001	19.994	100.858	19.970	6.024	0.508
754.000	457.143	80.001	19.995	100.858	19.974	5.783	0.487
756.000	458.160	80.000	19.995	100.858	19.983	5.166	0.512
758.000	459.156	80.001	19.996	100.860	19.978	5.520	0.500
760.000	460.172	80.000	19.996	100.860	19.980	5.320	0.464
762.000	461.234	79.999	19.996	100.859	19.979	5.413	0.471
764.000	462.244	80.000	19.995	100.857	19.979	5.448	0.487
766.000	463.236	80.000	19.994	100.856	19.983	5.155	0.466
768.000	464.270	79.999	19.994	100.857	19.981	5.316	0.521
770.000	465.279	80.001	19.996	100.861	19.980	5.327	0.512
772.000	466.273	80.000	19.997	100.858	19.984	5.090	0.512
774.000	467.280	80.000	19.996	100.856	19.977	5.560	0.480
776.000	468.356	80.001	19.996	100.856	19.978	5.510	0.514
778.000	469.349	79.999	19.995	100.856	19.980	5.327	0.491
780.000	470.394	80.000	19.996	100.855	19.987	4.862	0.513
782.000	471.364	80.002	19.996	100.856	19.991	4.579	0.487
784.000	472.429	80.002	19.997	100.854	19.990	4.656	0.497
786.000	473.460	80.002	19.996	100.858	19.991	4.600	0.520
788.000	474.490	80.002	19.996	100.857	19.993	4.438	0.506
790.000	475.529	80.002	19.996	100.853	19.993	4.456	0.520
792.000	476.528	80.001	19.996	100.853	19.989	4.725	0.497
794.000	477.567	79.999	19.996	100.854	19.990	4.656	0.511
796.000	478.664	80.000	19.997	100.854	19.992	4.535	0.514
798.000	479.660	79.999	19.996	100.856	19.989	4.707	0.530
800.000	480.670	80.000	19.996	100.853	19.992	4.509	0.513
802.000	481.720	79.999	19.995	100.853	19.993	4.447	0.507
804.000	482.747	79.999	19.995	100.853	19.994	4.410	0.507
806.000	483.749	80.000	19.996	100.855	19.998	4.087	0.533
808.000	484.757	79.999	19.995	100.855	19.995	4.311	0.524
810.000	485.804	79.998	19.995	100.857	19.989	4.701	0.519
812.000	486.793	80.000	19.995	100.862	19.994	4.380	0.494
814.000	487.884	80.000	19.996	100.866	20.000	3.991	0.515
816.000	488.926	80.000	19.995	100.860	19.994	4.396	0.535
818.000	489.930	80.000	19.994	100.860	19.999	4.060	0.536
820.000	490.968	80.000	19.995	100.859	19.995	4.300	0.537
822.000	491.995	80.000	19.996	100.859	19.996	4.236	0.498
824.000	493.012	79.998	19.995	100.852	19.995	4.322	0.542
826.000	494.029	79.997	19.996	100.861	19.995	4.316	0.531
828.000	495.087	79.997	19.995	100.865	20.000	3.957	0.532
830.000	496.100	79.998	19.998	100.859	19.996	4.245	0.526
832.000	497.121	79.998	19.995	100.860	19.997	4.167	0.509
834.000	498.132	79.998	19.996	100.862	19.999	4.006	0.522
836.000	499.150	80.000	19.995	100.860	19.998	4.131	0.503
838.000	500.191	80.001	19.995	100.859	20.000	3.969	0.515
840.000	501.231	80.001	19.995	100.858	19.995	4.309	0.535
842.000	502.243	80.000	19.995	100.855	19.998	4.090	0.535
844.000	503.246	80.002	19.995	100.855	19.996	4.255	0.501
846.000	504.242	80.000	19.995	100.855	19.996	4.228	0.511
848.000	505.298	80.001	19.994	100.858	19.995	4.337	0.524
850.000	506.328	80.002	19.995	100.855	19.999	4.008	0.544
852.000	507.324	80.001	19.995	100.855	20.000	3.983	0.524
854.000	508.325	80.001	19.996	100.856	19.999	4.066	0.478
856.000	509.369	80.000	19.997	100.856	20.001	3.886	0.501
858.000	510.437	80.000	19.995	100.856	20.001	3.886	0.517
860.000	511.412	80.002	19.995	100.856	20.001	3.894	0.500
862.000	512.369	80.001	19.997	100.854	19.994	4.413	0.487
864.000	513.458	80.002	19.996	100.853	20.002	3.823	0.528
866.000	514.489	80.001	19.996	100.856	20.008	3.445	0.531
868.000	515.510	80.002	19.995	100.856	19.998	4.107	0.537
870.000	516.555	80.002	19.996	100.853	19.999	4.051	0.541
872.000	517.627	80.003	19.995	100.853	20.004	3.720	0.536
874.000	518.599	80.001	19.995	100.857	20.004	3.726	0.508
876.000	519.602	80.000	19.995	100.856	20.001	3.877	0.487
878.000	520.684	80.001	19.996	100.856	20.002	3.821	0.538
880.000	521.730	80.000	19.995	100.857	20.002	3.825	0.540
882.000	522.712	79.999	19.996	100.856	20.000	3.952	0.506
884.000	523.786	79.998	19.997	100.856	20.000	3.961	0.546
886.001	524.789	79.999	19.997	100.857	20.001	3.881	0.505
888.000	525.745	79.999	19.997	100.857	19.999	4.017	0.487
890.000	526.831	79.999	19.997	100.857	20.000	3.946	0.546
892.000	527.842	79.998	19.996	100.859	20.007	3.509	0.534
894.000	528.835	79.999	19.995	100.860	20.005	3.615	0.483
896.000	529.898	79.999	19.997	100.858	20.011	3.188	0.519
898.000	530.897	80.001	19.996	100.858	20.003	3.771	0.521
900.000	531.928	79.999	19.997	100.859	20.003	3.746	0.516
902.000	532.925	80.000	19.995	100.857	20.005	3.623	0.501
904.000	533.948	80.000	19.996	100.855	20.003	3.784	0.490
906.000	535.002	80.000	19.995	100.855	20.003	3.731	0.521
908.000	536.058	80.000	19.995	100.855	20.001	3.905	0.531
910.000	537.090	80.001	19.996	100.855	20.004	3.679	0.516
912.000	538.070	80.000	19.996	100.854	20.005	3.630	0.524
914.000	539.113	79.999	19.996	100.855	20.005	3.604	0.520
916.000	540.104	79.999	19.996	100.855	20.002	3.817	0.508
918.000	541.102	79.999	19.996	100.856	20.002	3.830	0.484
920.000	542.127	80.000	19.996	100.855	20.003	3.763	0.487
922.000	543.151	80.001	19.997	100.855	20.004	3.666	0.510
924.000	544.196	80.001	19.996	100.854	20.002	3.827	0.527
926.000	545.214	80.001	19.995	100.855	20.003	3.782	0.532
928.000	546.209	80.002	19.995	100.855	20.001	3.890	0.481
930.000	547.229	80.001	19.995	100.852	19.996	4.273	0.483
932.000	548.266	80.001	19.995	100.856	20.000	3.997	0.514
934.000	549.287	80.000	19.996	100.856	20.001	3.929	0.520
936.000	550.317	80.001	19.996	100.856	20.002	3.855	0.487
938.000	551.354	79.999	19.995	100.859	20.003	3.737	0.526
940.000	552.342	80.000	19.995	100.857	20.000	3.952	0.515
942.000	553.348	80.001	19.995	100.856	20.006	3.576	0.499
944.000	554.383	80.000	19.996	100.856	20.007	3.503	0.510
946.000	555.410	80.001	19.997	100.856	20.006	3.543	0.471
948.000	556.444	80.000	19.995	100.855	20.005	3.629	0.536
950.000	557.459	80.002	19.996	100.853	20.005	3.612	0.532
952.000	558.545	80.001	19.997	100.856	20.004	3.666	0.545
954.000	559.555	80.002	19.995	100.857	20.008	3.438	0.520
956.000	560.580	80.001	19.995	100.855	20.006	3.559	0.533
958.000	561.612	79.999	19.995	100.857	20.005	3.589	0.503
960.000	562.625	80.001	19.995	100.857	20.005	3.627	0.521
962.000	563.634	80.001	19.995	100.856	20.005	3.640	0.519
964.000	564.640	80.000	19.995	100.858	20.003	3.731	0.516
966.000	565.651	80.000	19.996	100.857	20.005	3.653	0.512
968.000	566.682	80.000	19.996	100.858	20.004	3.698	0.514
970.000	567.723	80.001	19.997	100.854	20.007	3.516	0.524
972.000	568.714	79.999	19.996	100.853	20.005	3.606	0.497
974.000	569.702	79.999	19.996	100.854	20.008	3.440	0.497
976.000	570.752	79.999	19.996	100.854	20.009	3.320	0.525
978.000	571.699	79.999	19.997	100.850	20.007	3.492	0.482
980.000	572.730	79.999	19.997	100.852	20.005	3.597	0.518
982.000	573.809	79.999	19.997	100.853	20.007	3.492	0.555
984.000	574.843	80.001	19.997	100.853	20.007	3.496	0.524
986.000	575.814	79.999	19.997	100.852	20.009	3.348	0.485
988.000	576.857	79.999	19.996	100.853	20.007	3.505	0.488
990.000	577.890	80.000	19.996	100.853	20.008	3.389	0.525
992.000	578.866	80.000	19.996	100.857	20.008	3.406	0.483
994.000	579.885	79.999	19.996	100.861	20.011	3.193	0.520
996.000	580.916	80.000	19.996	100.856	20.009	3.374	0.503
998.000	581.915	80.000	19.995	100.855	20.009	3.362	0.508
1000.000	582.925	80.000	19.996	100.855	20.004	3.666	0.495
1002.000	583.892	80.001	19.995	100.856	20.002	3.862	0.487
1004.000	584.906	80.001	19.995	100.857	20.006	3.582	0.495
1006.000	585.970	80.000	19.995	100.856	20.007	3.490	0.535
1008.000	586.955	80.001	19.996	100.857	20.009	3.337	0.494
1010.000	587.953	80.002	19.997	100.861	20.007	3.513	0.496
1012.000	588.962	80.002	19.997	100.866	20.007	3.460	0.526
1014.000	589.948	80.001	19.997	100.858	20.010	3.259	0.493
1016.000	590.980	80.001	19.996	100.858	20.006	3.535	0.512
1018.000	591.963	80.001	19.996	100.858	20.011	3.225	0.503
1020.000	593.002	80.001	19.995	100.858	20.008	3.406	0.505
1022.000	594.008	80.001	19.995	100.858	20.011	3.192	0.494
1024.000	595.096	80.000	19.995	100.859	20.006	3.558	0.547
1026.000	596.099	80.001	19.995	100.860	20.006	3.563	0.510
1028.000	597.100	80.001	19.994	100.862	20.009	3.324	0.529
1030.001	598.104	80.002	19.994	100.859	20.010	3.305	0.499
1032.000	599.173	80.003	19.995	100.864	20.009	3.335	0.547
1034.001	600.236	80.004	19.995	100.861	20.010	3.257	0.530
1036.000	601.223	80.003	19.995	100.857	20.006	3.522	0.489
1038.000	602.271	80.001	19.995	100.861	20.004	3.707	0.506
1040.000	603.278	80.000	19.996	100.854	20.009	3.378	0.499
1042.000	604.322	80.000	19.997	100.854	20.008	3.386	0.535
1044.001	605.369	80.000	19.997	100.854	20.010	3.268	0.511
1046.001	606.380	79.999	19.996	100.855	20.009	3.333	0.501
1048.000	607.361	79.999	19.995	100.855	20.009	3.350	0.527
1050.000	608.387	80.000	19.996	100.853	20.004	3.685	0.516
1052.000	609.355	80.001	19.997	100.854	20.005	3.599	0.499
1054.000	610.405	80.000	19.996	100.855	20.007	3.460	0.524
1056.000	611.358	80.001	19.996	100.856	20.010	3.305	0.463
1058.000	612.451	80.000	19.996	100.855	20.009	3.343	0.513
1060.001	613.418	79.999	19.996	100.854	20.007	3.483	0.490
1062.001	614.446	79.999	19.996	100.858	20.006	3.560	0.510
1064.001	615.461	80.001	19.996	100.857	20.005	3.619	0.508
1066.001	616.479	80.000	19.997	100.855	20.004	3.670	0.529
1068.000	617.531	79.999	19.997	100.862	20.005	3.640	0.514
1070.000	618.534	79.999	19.998	100.862	20.002	3.832	0.528
1072.000	619.570	79.999	19.998	100.860	20.002	3.804	0.529
1074.000	620.569	79.999	19.996	100.859	20.004	3.724	0.522
1076.001	621.604	79.998	19.998	100.862	20.005	3.651	0.486
1078.000	622.596	79.999	19.997	100.859	20.001	3.930	0.517
1080.001	623.629	79.999	19.996	100.856	20.002	3.819	0.538
1082.000	624.634	79.999	19.996	100.866	20.001	3.913	0.518
1084.000	625.645	80.000	19.997	100.858	20.001	3.868	0.518
1086.000	626.663	80.001	19.996	100.858	20.002	3.845	0.527
1088.000	627.701	80.000	19.996	100.859	20.005	3.621	0.508
1090.000	628.719	80.000	19.996	100.862	20.001	3.898	0.551
1092.001	629.716	80.000	19.994	100.858	20.002	3.857	0.492
1094.000	630.728	80.001	19.996	100.859	20.005	3.619	0.513
1096.000	631.756	80.002	19.995	100.857	20.003	3.789	0.496
1098.001	632.770	80.001	19.995	100.857	20.008	3.410	0.530
1100.000	633.778	80.000	19.996	100.856	20.007	3.487	0.524
1102.000	634.873	80.002	19.996	100.859	20.001	3.914	0.533
1104.000	635.901	79.999	19.995	100.857	20.003	3.750	0.515
1106.000	636.851	80.001	19.996	100.853	20.000	3.989	0.502
1108.000	637.947	80.001	19.995	100.860	20.006	3.548	0.529
1110.000	638.962	80.001	19.995	100.856	20.006	3.587	0.502
1112.000	639.978	80.004	19.996	100.854	20.005	3.651	0.529
1114.000	641.035	80.004	19.997	100.856	20.006	3.586	0.517
1116.000	642.020	80.004	19.996	100.854	20.002	3.819	0.499
1118.000	643.033	80.003	19.995	100.853	20.005	3.629	0.486
1120.000	644.065	80.003	19.995	100.853	20.001	3.915	0.499
1122.001	645.105	80.002	19.994	100.854	20.000	3.978	0.495
1124.000	646.104	80.002	19.996	100.855	20.004	3.724	0.532
1126.000	647.143	80.001	19.995	100.854	20.004	3.673	0.510
1128.000	648.152	80.000	19.995	100.854	20.006	3.559	0.500
1130.000	649.186	80.000	19.995	100.856	20.004	3.701	0.498
1132.001	650.213	80.000	19.996	100.862	20.007	3.481	0.515
1134.000	651.244	80.000	19.997	100.857	20.004	3.703	0.519
1136.001	652.258	80.000	19.996	100.857	20.008	3.442	0.512
1138.000	653.279	80.000	19.996	100.857	20.005	3.593	0.507
1140.001	654.352	80.000	19.996	100.858	20.007	3.460	0.522
1142.000	655.390	80.001	19.996	100.858	20.005	3.621	0.543
1144.000	656.380	79.999	19.997	100.858	20.004	3.688	0.502
1146.001	657.416	80.000	19.996	100.858	20.007	3.475	0.477
1148.000	658.452	79.999	19.997	100.859	20.007	3.457	0.507
1150.000	659.448	80.000	19.994	100.858	20.006	3.571	0.500
1152.001	660.495	80.001	19.995	100.857	20.004	3.694	0.524
1154.001	661.526	79.999	19.997	100.857	20.005	3.657	0.517
1156.000	662.560	79.999	19.996	100.859	20.003	3.795	0.521
1158.000	663.576	79.999	19.996	100.859	20.000	4.000	0.540
1160.000	664.586	79.998	19.996	100.859	20.002	3.827	0.489
1162.000	665.602	79.999	19.996	100.858	20.001	3.868	0.524
1164.000	666.625	80.000	19.997	100.855	20.002	3.840	0.527
1166.000	667.601	80.001	19.997	100.860	20.002	3.847	0.505
1168.000	668.616	80.000	19.997	100.863	20.005	3.645	0.490
1170.000	669.627	80.001	19.996	100.853	20.004	3.660	0.520
1172.001	670.668	80.002	19.997	100.853	20.004	3.675	0.501
1174.001	671.658	80.002	19.997	100.852	20.004	3.726	0.483
1176.000	672.704	80.003	19.997	100.858	20.000	4.002	0.556
1178.000	673.743	80.003	19.996	100.855	19.999	4.012	0.531
1180.001	674.777	80.002	19.996	100.852	20.000	3.971	0.503
1182.001	675.835	80.002	19.995	100.853	19.998	4.118	0.522
1184.000	676.824	80.002	19.996	100.856	19.997	4.200	0.498
1186.000	677.830	80.001	19.996	100.854	20.002	3.799	0.490
1188.000	678.907	80.001	19.994	100.857	20.002	3.855	0.491
1190.000	679.824	80.002	19.995	100.855	20.001	3.933	0.466
1192.000	680.794	80.003	19.996	100.857	19.999	4.012	0.494
1194.000	681.816	80.001	19.996	100.855	20.002	3.819	0.507
1196.000	682.811	80.003	19.996	100.856	20.002	3.844	0.475
1198.000	683.841	80.003	19.996	100.857	20.001	3.931	0.514
1200.000	684.860	80.002	19.995	100.866	20.000	3.954	0.520
1202.001	685.853	80.002	19.995	100.859	20.001	3.903	0.487
1204.001	686.855	80.001	19.995	100.857	20.007	3.509	0.514
1206.000	687.857	80.003	19.995	100.860	20.005	3.603	0.479
1208.000	688.921	80.000	19.996	100.863	20.001	3.900	0.524
1210.001	689.922	80.000	19.995	100.858	20.004	3.704	0.534
1212.000	690.955	80.002	19.996	100.860	20.003	3.779	0.527
1214.000	691.940	80.001	19.996	100.860	20.000	3.967	0.521
1216.001	692.940	80.001	19.996	100.859	20.001	3.918	0.495
1218.001	693.973	80.001	19.996	100.860	19.998	4.088	0.483
1220.000	694.958	80.001	19.995	100.862	20.001	3.868	0.543
1222.000	696.013	80.001	19.995	100.865	19.998	4.101	0.520
1224.000	696.967	80.002	19.995	100.868	19.999	4.058	0.467
1226.001	697.984	80.000	19.996	100.860	20.003	3.787	0.490
1228.000	698.955	80.001	19.996	100.862	19.999	4.013	0.478
1230.000	700.030	80.003	19.997	100.855	19.999	4.053	0.522
1232.000	701.017	80.001	19.996	100.854	20.000	3.991	0.525
1234.001	701.997	80.001	19.996	100.858	19.999	4.044	0.493
1236.000	703.017	80.000	19.995	100.857	19.999	4.047	0.499
1238.000	704.009	80.000	19.996	100.855	20.001	3.929	0.502
1240.000	705.015	80.001	19.996	100.855	19.998	4.081	0.487
1242.000	706.012	80.001	19.996	100.857	19.999	4.051	0.498
1244.000	707.001	80.000	19.995	100.863	19.999	4.008	0.511
1246.001	708.023	80.000	19.997	100.859	19.999	4.036	0.504
1248.000	709.029	80.003	19.996	100.856	19.997	4.142	0.478
1250.000	710.072	80.001	19.996	100.856	20.002	3.812	0.522
1252.000	711.055	80.002	19.997	100.857	19.999	4.010	0.497
1254.000	712.052	80.002	19.997	100.856	20.001	3.883	0.504
1256.000	713.069	80.002	19.997	100.862	20.000	3.991	0.496
1258.001	714.138	80.001	19.996	100.857	19.999	4.051	0.499
1260.000	715.145	80.001	19.997	100.852	19.997	4.180	0.503
1262.001	716.191	79.999	19.996	100.855	19.997	4.155	0.510
1264.000	717.224	80.001	19.997	100.853	20.001	3.913	0.517
1266.000	718.210	80.000	19.996	100.857	20.000	3.956	0.507
1268.000	719.234	80.001	19.996	100.858	19.998	4.079	0.506
1270.000	720.223	80.000	19.996	100.857	19.998	4.114	0.486
1272.000	721.252	80.002	19.995	100.856	19.997	4.167	0.483
1274.001	722.277	80.003	19.995	100.857	20.000	3.999	0.482
1276.000	723.273	80.001	19.995	100.861	19.999	4.029	0.514
1278.000	724.302	80.003	19.996	100.868	19.998	4.109	0.529
1280.000	725.285	80.002	19.995	100.861	19.998	4.115	0.499
1282.001	726.331	80.003	19.994	100.859	19.997	4.182	0.514
1284.000	727.339	80.002	19.995	100.857	19.999	4.056	0.517
1286.000	728.359	80.001	19.994	100.858	19.998	4.135	0.509
1288.000	729.377	80.000	19.996	100.864	19.998	4.077	0.527
1290.000	730.360	80.001	19.996	100.864	19.997	4.198	0.504
1292.001	731.389	80.001	19.996	100.861	19.998	4.085	0.504
1294.000	732.396	80.001	19.996	100.861	19.994	4.406	0.489
1296.001	733.395	80.001	19.995	100.855	20.001	3.903	0.498
1298.000	734.426	80.001	19.996	100.855	20.001	3.875	0.486
1300.001	735.422	80.001	19.996	100.855	20.000	3.961	0.513
1302.000	736.414	80.001	19.995	100.858	19.996	4.223	0.484
1304.001	737.430	80.002	19.995	100.870	19.998	4.075	0.507
1306.000	738.413	80.001	19.994	100.863	19.998	4.087	0.469
1308.001	739.407	80.002	19.994	100.855	19.997	4.172	0.514
1310.001	740.447	80.003	19.995	100.859	20.000	3.980	0.522
1312.000	741.511	80.002	19.995	100.861	19.998	4.103	0.538
1314.000	742.481	80.001	19.995	100.856	19.997	4.186	0.491
1316.000	743.517	80.001	19.997	100.861	19.997	4.163	0.526