File: 01_Data/Plywood/MCC/Plywood_MCC_30K_min_211007_R3.txt
Sample ID:	C:\MCC\MCC Cal\Test\Ext_Plywood_MCC_30K_min_211007_R3.txt
Sample Weight (mg):	4.4
Heating Rate (C/s):	0.5
Combustor Temp (C):	900
N2 Flow Rate (cc/min):	80
O2 Flow Rate (cc/min):	20
Calibration File:	C:\MCC\MCC Cal\Coeff1 JN10440_30_210304.txt.txt
T Correction Coefficients:	0	1.024463	0
Time Shift (s):	14
*
Time (s)	Temperature (C)	N2 flow rate (cc/min)	O2 flow rate (cc/min)	Flow Rate (cc/min)	Oxygen (%)	HRR (W/g)	Heating rate (C/s)
0.000	106.181	79.997	19.995	100.694	19.985	-0.165	0.013
2.000	106.170	79.997	19.997	100.685	19.982	0.084	0.035
4.000	106.169	79.996	19.995	100.686	19.983	-0.034	-0.010
6.000	106.155	79.996	19.996	100.672	19.982	0.059	-0.011
8.001	106.186	79.996	19.996	100.671	19.983	-0.025	-0.011
10.000	106.170	79.997	19.996	100.689	19.980	0.167	0.016
12.000	106.184	79.997	19.995	100.687	19.979	0.251	0.005
14.001	106.152	79.997	19.996	100.691	19.983	-0.036	0.003
16.001	106.155	79.997	19.996	100.703	19.980	0.218	0.018
18.000	106.151	79.998	19.995	100.696	19.977	0.389	-0.000
20.000	106.186	79.998	19.996	100.708	19.977	0.397	-0.004
22.000	106.154	79.997	19.996	100.713	19.973	0.669	-0.036
24.000	106.156	79.996	19.995	100.736	19.973	0.690	-0.012
26.001	106.239	79.996	19.995	100.726	19.970	0.884	0.008
28.000	106.308	79.998	19.997	100.749	19.972	0.775	0.048
30.001	106.365	79.996	19.996	100.757	19.963	1.411	0.041
32.000	106.406	79.996	19.997	100.715	19.965	1.254	0.000
34.000	106.496	79.996	19.996	100.825	19.964	1.331	0.027
36.000	106.594	79.996	19.995	100.792	19.965	1.281	0.068
38.001	106.731	79.998	19.996	100.790	19.959	1.711	0.089
40.000	106.848	79.997	19.996	100.821	19.955	1.968	0.050
42.000	107.029	79.999	19.996	100.832	19.954	2.084	0.067
44.000	107.226	79.998	19.996	100.841	19.953	2.103	0.094
46.001	107.442	79.999	19.996	100.852	19.955	2.003	0.112
48.000	107.660	79.997	19.996	100.864	19.948	2.458	0.101
50.001	107.918	79.998	19.996	100.872	19.946	2.667	0.123
52.000	108.178	79.997	19.997	100.877	19.943	2.854	0.155
54.000	108.539	79.996	19.996	100.884	19.943	2.827	0.153
56.000	108.843	79.998	19.997	100.890	19.941	2.969	0.176
58.000	109.214	79.997	19.997	100.891	19.940	3.046	0.169
60.000	109.624	79.999	19.996	100.902	19.936	3.326	0.199
62.000	109.984	79.996	19.996	100.903	19.939	3.157	0.178
64.000	110.441	79.998	19.997	100.901	19.943	2.880	0.192
66.001	110.844	79.999	19.996	100.902	19.938	3.235	0.206
68.000	111.308	80.000	19.996	100.898	19.938	3.183	0.216
70.001	111.798	80.000	19.997	100.918	19.939	3.152	0.257
72.000	112.280	79.999	19.996	100.908	19.933	3.548	0.272
74.000	112.799	79.999	19.995	100.927	19.936	3.385	0.275
76.001	113.351	79.999	19.995	100.938	19.934	3.488	0.295
78.000	113.920	79.998	19.995	100.940	19.932	3.667	0.281
80.000	114.524	79.998	19.995	100.940	19.932	3.638	0.285
82.000	115.141	79.998	19.995	100.941	19.933	3.562	0.318
84.001	115.780	79.998	19.995	100.941	19.931	3.717	0.317
86.000	116.412	79.997	19.996	100.943	19.930	3.811	0.321
88.000	117.103	79.998	19.996	100.943	19.927	4.021	0.342
90.000	117.744	79.999	19.995	100.944	19.924	4.196	0.319
92.000	118.426	79.997	19.996	100.951	19.927	4.004	0.357
94.001	119.194	79.999	19.996	100.954	19.927	4.028	0.397
96.000	119.886	79.998	19.997	100.955	19.924	4.209	0.355
98.000	120.649	79.998	19.996	100.956	19.924	4.209	0.352
100.000	121.420	79.999	19.996	100.964	19.922	4.338	0.396
102.000	122.171	79.997	19.996	100.967	19.921	4.403	0.383
104.000	122.982	79.998	19.996	100.969	19.925	4.132	0.397
106.000	123.831	79.997	19.995	100.961	19.922	4.336	0.419
108.000	124.677	79.996	19.997	100.966	19.923	4.307	0.428
110.000	125.461	79.997	19.996	100.960	19.927	3.973	0.381
112.000	126.349	79.997	19.996	100.956	19.926	4.034	0.421
114.000	127.181	79.998	19.995	100.955	19.924	4.234	0.420
116.001	128.065	79.997	19.996	100.965	19.924	4.227	0.443
118.001	128.982	79.998	19.995	100.958	19.924	4.240	0.397
120.000	129.840	79.998	19.995	100.977	19.925	4.163	0.424
122.000	130.743	79.999	19.995	100.975	19.923	4.265	0.443
124.000	131.726	79.997	19.995	100.959	19.923	4.259	0.488
126.001	132.608	79.998	19.997	100.968	19.924	4.213	0.445
128.000	133.527	79.998	19.996	100.973	19.929	3.854	0.472
130.000	134.484	79.997	19.996	100.972	19.919	4.549	0.485
132.000	135.399	79.997	19.996	100.977	19.925	4.132	0.450
134.000	136.401	79.999	19.997	100.965	19.921	4.419	0.465
136.000	137.370	79.998	19.996	100.968	19.922	4.380	0.501
138.000	138.348	79.996	19.996	100.965	19.919	4.543	0.476
140.000	139.344	79.997	19.996	100.966	19.920	4.464	0.502
142.000	140.331	79.998	19.996	100.968	19.922	4.320	0.491
144.000	141.257	79.998	19.996	100.962	19.924	4.218	0.437
146.000	142.289	80.000	19.996	100.968	19.925	4.143	0.500
148.000	143.307	80.001	19.996	100.954	19.924	4.231	0.487
150.000	144.326	80.000	19.997	100.943	19.919	4.537	0.509
152.000	145.360	79.998	19.997	100.947	19.924	4.195	0.514
154.000	146.344	79.999	19.998	100.943	19.922	4.341	0.499
156.000	147.385	79.997	19.997	100.945	19.923	4.274	0.496
158.000	148.423	79.997	19.997	100.950	19.920	4.475	0.513
160.000	149.446	79.998	19.997	100.950	19.922	4.350	0.519
162.000	150.466	79.997	19.997	100.949	19.926	4.087	0.468
164.000	151.508	79.996	19.997	100.940	19.922	4.352	0.528
166.000	152.534	79.997	19.996	100.941	19.925	4.135	0.521
168.000	153.544	79.996	19.998	100.945	19.923	4.299	0.509
170.000	154.540	79.997	19.996	100.946	19.922	4.335	0.514
172.000	155.505	79.998	19.996	100.943	19.924	4.218	0.485
174.000	156.545	79.996	19.996	100.941	19.922	4.388	0.493
176.000	157.593	79.998	19.996	100.943	19.921	4.414	0.527
178.000	158.618	79.999	19.996	100.943	19.923	4.310	0.475
180.000	159.649	79.997	19.995	100.942	19.921	4.457	0.512
182.000	160.702	79.998	19.996	100.941	19.918	4.638	0.515
184.000	161.670	79.996	19.997	100.933	19.921	4.450	0.505
186.000	162.673	79.995	19.997	100.942	19.921	4.445	0.492
188.000	163.694	79.997	19.997	100.940	19.921	4.421	0.478
190.000	164.706	79.995	19.997	100.927	19.918	4.635	0.486
192.000	165.734	79.997	19.997	100.938	19.917	4.687	0.503
194.000	166.771	79.996	19.996	100.934	19.916	4.757	0.534
196.000	167.775	79.997	19.996	100.924	19.919	4.533	0.507
198.000	168.776	79.998	19.996	100.918	19.917	4.731	0.528
200.000	169.798	79.998	19.997	100.923	19.918	4.665	0.519
202.000	170.739	79.998	19.996	100.912	19.919	4.591	0.502
204.000	171.761	79.999	19.996	100.909	19.914	4.936	0.500
206.000	172.722	80.001	19.996	100.906	19.913	5.003	0.521
208.000	173.692	79.999	19.997	100.914	19.913	5.005	0.493
210.000	174.704	79.998	19.997	100.907	19.913	4.994	0.501
212.000	175.714	79.998	19.997	100.910	19.913	4.970	0.503
214.000	176.672	79.998	19.997	100.914	19.912	5.103	0.488
216.000	177.609	79.997	19.997	100.903	19.911	5.170	0.453
218.000	178.627	79.997	19.997	100.900	19.910	5.235	0.516
220.000	179.603	79.997	19.997	100.912	19.909	5.285	0.493
222.000	180.559	79.999	19.996	100.909	19.909	5.310	0.503
224.000	181.541	79.999	19.996	100.906	19.910	5.245	0.491
226.000	182.522	80.000	19.997	100.910	19.906	5.504	0.490
228.000	183.506	80.000	19.997	100.906	19.907	5.453	0.507
230.000	184.485	80.000	19.996	100.908	19.904	5.646	0.491
232.000	185.448	79.997	19.996	100.906	19.902	5.805	0.485
234.000	186.503	79.999	19.996	100.908	19.904	5.621	0.530
236.000	187.475	79.997	19.996	100.909	19.903	5.684	0.484
238.000	188.459	79.996	19.997	100.913	19.903	5.740	0.490
240.000	189.403	79.997	19.997	100.908	19.898	6.038	0.480
242.000	190.401	79.995	19.996	100.906	19.892	6.467	0.495
244.000	191.359	79.997	19.997	100.905	19.894	6.364	0.470
246.000	192.380	79.996	19.996	100.905	19.895	6.274	0.497
248.000	193.353	79.995	19.997	100.905	19.894	6.352	0.496
250.000	194.323	79.996	19.997	100.913	19.891	6.563	0.448
252.000	195.309	79.996	19.996	100.908	19.891	6.556	0.504
254.000	196.290	79.995	19.997	100.905	19.891	6.594	0.456
256.000	197.231	79.997	19.995	100.914	19.890	6.671	0.477
258.000	198.198	79.998	19.995	100.912	19.887	6.841	0.487
260.000	199.233	79.997	19.996	100.906	19.885	7.028	0.506
262.000	200.215	79.997	19.995	100.907	19.881	7.271	0.483
264.000	201.164	79.997	19.996	100.903	19.879	7.417	0.482
266.001	202.193	79.997	19.996	100.901	19.879	7.402	0.526
268.000	203.156	79.996	19.996	100.901	19.878	7.534	0.501
270.000	204.143	79.998	19.996	100.902	19.880	7.392	0.483
272.000	205.125	79.996	19.996	100.904	19.877	7.551	0.478
274.000	206.093	79.996	19.996	100.903	19.877	7.559	0.481
276.000	207.042	79.996	19.996	100.901	19.873	7.872	0.490
278.000	208.034	79.998	19.996	100.902	19.869	8.133	0.483
280.000	208.986	79.997	19.996	100.900	19.868	8.202	0.499
282.000	209.992	79.998	19.996	100.900	19.872	7.935	0.510
284.000	210.957	79.999	19.996	100.900	19.870	8.072	0.499
286.000	211.934	79.998	19.995	100.900	19.868	8.242	0.477
288.000	212.915	79.997	19.997	100.901	19.866	8.392	0.475
290.000	213.854	79.998	19.996	100.902	19.864	8.511	0.465
292.001	214.844	79.996	19.996	100.902	19.864	8.507	0.493
294.000	215.809	79.997	19.996	100.902	19.865	8.438	0.495
296.000	216.808	79.998	19.995	100.903	19.860	8.776	0.505
298.000	217.772	79.997	19.995	100.904	19.861	8.684	0.475
300.000	218.753	79.996	19.995	100.905	19.862	8.663	0.503
302.000	219.753	79.996	19.996	100.905	19.862	8.663	0.525
304.000	220.736	79.998	19.995	100.904	19.863	8.597	0.500
306.000	221.708	79.999	19.997	100.903	19.861	8.694	0.481
308.000	222.746	79.999	19.995	100.902	19.859	8.844	0.538
310.000	223.710	79.999	19.994	100.901	19.857	8.978	0.508
312.000	224.666	79.998	19.996	100.901	19.856	9.097	0.506
314.000	225.689	79.997	19.996	100.903	19.853	9.256	0.523
316.000	226.688	79.996	19.997	100.906	19.853	9.318	0.485
318.000	227.679	79.996	19.995	100.911	19.853	9.293	0.473
320.000	228.687	79.995	19.996	100.910	19.852	9.344	0.505
322.000	229.733	79.996	19.995	100.910	19.850	9.490	0.478
324.000	230.746	79.996	19.996	100.906	19.852	9.357	0.510
326.000	231.697	79.997	19.998	100.903	19.849	9.580	0.504
328.000	232.736	79.997	19.997	100.912	19.853	9.275	0.510
330.000	233.677	79.996	19.997	100.900	19.847	9.729	0.455
332.000	234.688	79.996	19.997	100.906	19.850	9.469	0.520
334.001	235.695	79.996	19.997	100.903	19.845	9.833	0.506
336.000	236.637	79.996	19.998	100.903	19.847	9.741	0.479
338.000	237.660	79.997	19.998	100.904	19.847	9.740	0.491
340.000	238.626	79.996	19.996	100.914	19.842	10.103	0.472
342.000	239.648	79.997	19.997	100.916	19.844	9.912	0.470
344.000	240.656	79.996	19.997	100.904	19.839	10.307	0.501
346.000	241.667	79.997	19.996	100.902	19.839	10.306	0.539
348.000	242.627	79.996	19.997	100.907	19.838	10.368	0.466
350.000	243.649	79.995	19.996	100.909	19.838	10.381	0.472
352.000	244.693	79.996	19.997	100.918	19.836	10.527	0.517
354.000	245.666	79.997	19.996	100.917	19.835	10.614	0.485
356.000	246.668	79.998	19.996	100.914	19.834	10.632	0.534
358.000	247.638	79.998	19.996	100.907	19.831	10.854	0.439
360.000	248.678	79.997	19.995	100.921	19.828	11.077	0.531
362.000	249.737	79.998	19.995	100.921	19.826	11.213	0.572
364.000	250.758	79.998	19.996	100.925	19.824	11.386	0.497
366.000	251.761	79.997	19.995	100.929	19.823	11.460	0.477
368.000	252.804	79.997	19.995	100.921	19.822	11.482	0.543
370.000	253.785	80.000	19.995	100.919	19.820	11.679	0.515
372.000	254.777	79.997	19.996	100.929	19.816	11.913	0.531
374.000	255.756	79.997	19.996	100.914	19.813	12.175	0.488
376.000	256.786	79.998	19.995	100.929	19.811	12.322	0.542
378.000	257.795	79.995	19.995	100.932	19.807	12.559	0.534
380.000	258.804	79.998	19.995	100.942	19.803	12.885	0.520
382.000	259.817	79.999	19.995	100.927	19.801	13.027	0.503
384.000	260.786	79.999	19.995	100.941	19.799	13.182	0.499
386.000	261.795	79.999	19.994	100.934	19.791	13.705	0.497
388.000	262.782	80.000	19.997	100.935	19.788	13.968	0.494
390.000	263.768	80.000	19.995	100.939	19.787	14.001	0.476
392.000	264.735	80.000	19.995	100.936	19.780	14.514	0.482
394.000	265.746	79.999	19.995	100.932	19.775	14.862	0.503
396.000	266.773	79.997	19.996	100.938	19.770	15.249	0.506
398.000	267.759	79.997	19.997	100.940	19.767	15.477	0.515
400.000	268.732	79.997	19.997	100.939	19.763	15.729	0.482
402.001	269.719	79.996	19.997	100.942	19.757	16.160	0.482
404.000	270.729	79.996	19.997	100.947	19.751	16.614	0.517
406.000	271.754	79.999	19.997	100.946	19.745	17.051	0.504
408.000	272.771	79.997	19.996	100.943	19.740	17.407	0.506
410.000	273.729	79.998	19.996	100.957	19.733	17.868	0.478
412.000	274.708	79.996	19.996	100.953	19.733	17.920	0.474
414.000	275.706	79.998	19.996	100.947	19.719	18.889	0.486
416.000	276.700	79.997	19.998	100.963	19.716	19.113	0.478
418.000	277.663	79.997	19.996	100.965	19.707	19.736	0.514
420.000	278.671	79.996	19.996	100.963	19.701	20.196	0.508
422.000	279.678	79.998	19.996	100.972	19.694	20.709	0.497
424.000	280.632	79.995	19.997	100.980	19.687	21.211	0.501
426.000	281.667	79.996	19.997	100.983	19.682	21.568	0.490
428.000	282.626	79.994	19.998	100.982	19.675	22.068	0.477
430.000	283.622	79.994	19.997	100.990	19.666	22.684	0.506
432.000	284.643	79.995	19.996	100.987	19.659	23.193	0.487
434.000	285.619	79.995	19.996	100.982	19.652	23.726	0.475
436.000	286.653	79.996	19.996	100.983	19.642	24.410	0.516
438.000	287.658	80.000	19.996	101.002	19.628	25.416	0.472
440.000	288.678	79.997	19.996	100.997	19.622	25.857	0.486
442.000	289.626	79.998	19.995	101.004	19.614	26.425	0.475
444.000	290.691	79.998	19.995	101.014	19.605	27.067	0.530
446.000	291.707	79.998	19.995	101.018	19.595	27.775	0.528
448.000	292.721	79.998	19.997	101.017	19.584	28.557	0.508
450.000	293.750	80.000	19.996	101.021	19.578	29.001	0.527
452.000	294.708	79.998	19.996	101.020	19.568	29.714	0.493
454.000	295.690	79.998	19.996	101.018	19.561	30.252	0.502
456.000	296.676	79.997	19.996	101.021	19.554	30.692	0.506
458.000	297.693	79.998	19.996	101.020	19.543	31.534	0.504
460.000	298.721	79.999	19.996	101.030	19.534	32.183	0.517
462.000	299.689	79.999	19.996	101.039	19.523	32.980	0.502
464.000	300.742	79.999	19.996	101.027	19.513	33.637	0.511
466.000	301.697	80.000	19.995	101.043	19.501	34.549	0.512
468.000	302.750	80.000	19.995	101.044	19.491	35.210	0.531
470.000	303.773	80.000	19.995	101.048	19.485	35.645	0.499
472.000	304.735	80.000	19.996	101.052	19.473	36.564	0.488
474.000	305.740	80.001	19.995	101.055	19.464	37.212	0.491
476.000	306.765	79.999	19.995	101.057	19.452	38.015	0.506
478.000	307.734	79.998	19.996	101.049	19.445	38.533	0.483
480.000	308.704	79.997	19.996	101.057	19.437	39.095	0.486
482.000	309.741	79.996	19.995	101.056	19.424	40.025	0.507
484.000	310.779	79.997	19.996	101.058	19.406	41.349	0.501
486.000	311.762	79.996	19.996	101.059	19.405	41.454	0.473
488.000	312.746	79.997	19.996	101.060	19.398	41.909	0.470
490.000	313.793	79.997	19.996	101.066	19.385	42.824	0.501
492.000	314.742	79.996	19.996	101.070	19.375	43.588	0.527
494.000	315.732	79.995	19.997	101.076	19.362	44.507	0.458
496.000	316.841	79.996	19.997	101.084	19.351	45.323	0.532
498.000	317.590	79.996	19.996	101.097	19.340	46.081	0.594
500.000	318.713	79.998	19.996	101.091	19.329	46.867	0.554
502.000	319.641	79.997	19.997	101.098	19.321	47.466	0.488
504.000	320.746	79.996	19.996	101.099	19.308	48.371	0.478
506.000	321.700	79.997	19.996	101.099	19.300	48.971	0.464
508.000	322.646	79.995	19.996	101.101	19.292	49.538	0.445
510.000	323.688	79.995	19.996	101.106	19.281	50.342	0.573
512.000	324.669	79.995	19.996	101.103	19.268	51.236	0.502
514.000	325.646	79.995	19.995	101.102	19.260	51.860	0.506
516.000	326.656	79.996	19.996	101.101	19.254	52.275	0.480
518.000	327.646	79.995	19.996	101.101	19.244	52.982	0.473
520.000	328.688	79.998	19.997	101.116	19.234	53.671	0.525
522.000	329.684	79.996	19.997	101.105	19.224	54.407	0.529
524.000	330.702	79.998	19.996	101.110	19.219	54.811	0.526
526.000	331.716	79.995	19.996	101.113	19.208	55.568	0.548
528.000	332.712	79.998	19.997	101.130	19.196	56.399	0.486
530.000	333.766	79.999	19.996	101.132	19.192	56.679	0.549
532.000	334.820	79.999	19.997	101.132	19.181	57.468	0.524
534.000	335.830	79.998	19.996	101.133	19.178	57.698	0.508
536.000	336.876	79.998	19.996	101.135	19.169	58.380	0.509
538.000	337.882	79.999	19.995	101.135	19.164	58.748	0.540
540.000	338.909	79.998	19.996	101.134	19.157	59.214	0.505
542.000	339.976	79.996	19.995	101.134	19.157	59.217	0.560
544.000	341.014	79.997	19.995	101.135	19.151	59.626	0.543
546.000	342.041	79.999	19.995	101.132	19.148	59.863	0.513
548.000	343.083	80.001	19.996	101.133	19.150	59.725	0.501
550.000	344.128	80.001	19.995	101.133	19.145	60.043	0.526
552.000	345.163	80.001	19.995	101.127	19.147	59.919	0.526
554.000	346.207	79.998	19.995	101.116	19.144	60.095	0.524
556.000	347.281	79.998	19.995	101.103	19.149	59.796	0.548
558.000	348.299	79.996	19.994	101.106	19.149	59.763	0.508
560.001	349.290	79.994	19.995	101.098	19.155	59.344	0.501
562.000	350.405	79.996	19.996	101.099	19.156	59.249	0.569
564.000	351.392	79.997	19.996	101.096	19.165	58.634	0.480
566.000	352.442	79.999	19.995	101.081	19.176	57.830	0.499
568.000	353.538	79.996	19.995	101.075	19.184	57.205	0.515
570.000	354.575	80.000	19.995	101.078	19.194	56.505	0.532
572.000	355.585	79.998	19.995	101.060	19.205	55.686	0.487
574.000	356.605	79.998	19.995	101.057	19.221	54.552	0.539
576.000	357.645	79.997	19.994	101.049	19.235	53.572	0.511
578.000	358.674	79.998	19.996	101.033	19.252	52.302	0.516
580.000	359.703	79.999	19.995	101.023	19.272	50.925	0.497
582.000	360.749	79.997	19.996	101.018	19.285	49.980	0.531
584.000	361.786	79.997	19.996	101.011	19.310	48.159	0.520
586.000	362.773	79.995	19.997	100.989	19.325	47.093	0.504
588.000	363.873	79.996	19.997	100.991	19.349	45.371	0.532
590.001	364.861	79.999	19.999	100.979	19.372	43.702	0.502
592.000	365.888	79.996	19.996	100.975	19.395	42.081	0.497
594.000	366.926	79.996	19.997	100.965	19.420	40.249	0.520
596.000	367.953	79.997	19.996	100.943	19.441	38.765	0.512
598.000	369.051	79.998	19.996	100.951	19.465	37.055	0.536
600.000	370.018	79.999	19.995	100.939	19.489	35.359	0.520
602.000	371.060	79.999	19.995	100.935	19.507	34.026	0.504
604.000	372.110	79.999	19.996	100.911	19.528	32.513	0.544
606.000	373.164	79.998	19.996	100.913	19.554	30.696	0.513
608.001	374.203	79.999	19.996	100.913	19.573	29.302	0.518
610.000	375.236	79.999	19.996	100.899	19.592	27.951	0.507
612.000	376.217	79.998	19.996	100.899	19.615	26.299	0.499
614.000	377.232	79.999	19.997	100.891	19.632	25.129	0.509
616.000	378.264	79.998	19.996	100.889	19.650	23.782	0.535
618.000	379.217	79.996	19.996	100.896	19.666	22.687	0.492
620.000	380.260	79.999	19.996	100.875	19.682	21.545	0.517
622.000	381.277	80.000	19.995	100.878	19.701	20.192	0.498
624.000	382.288	80.001	19.995	100.889	19.711	19.478	0.497
626.000	383.307	80.000	19.995	100.872	19.724	18.484	0.484
628.000	384.327	80.000	19.995	100.876	19.735	17.744	0.512
630.000	385.362	80.000	19.995	100.866	19.745	17.023	0.525
632.000	386.332	80.001	19.995	100.868	19.754	16.358	0.494
634.000	387.301	79.997	19.995	100.874	19.761	15.897	0.499
636.000	388.368	79.999	19.994	100.867	19.768	15.331	0.474
638.000	389.360	79.997	19.994	100.868	19.772	15.061	0.494
640.000	390.342	79.995	19.994	100.873	19.781	14.470	0.480
642.000	391.371	79.996	19.995	100.870	19.783	14.318	0.500
644.000	392.349	79.996	19.995	100.865	19.784	14.255	0.475
646.000	393.404	79.996	19.995	100.865	19.786	14.095	0.512
648.000	394.411	79.998	19.996	100.863	19.793	13.549	0.489
650.000	395.426	79.997	19.995	100.862	19.790	13.820	0.505
652.000	396.433	80.000	19.995	100.864	19.793	13.563	0.495
654.000	397.463	79.998	19.995	100.863	19.796	13.344	0.513
656.000	398.404	79.998	19.994	100.865	19.798	13.250	0.479
658.000	399.406	79.999	19.996	100.867	19.797	13.265	0.483
660.000	400.434	79.998	19.994	100.862	19.802	12.964	0.510
662.000	401.445	79.999	19.996	100.869	19.803	12.863	0.488
664.000	402.437	79.998	19.995	100.871	19.808	12.512	0.499
666.000	403.450	79.999	19.995	100.864	19.805	12.737	0.513
668.000	404.451	79.996	19.995	100.862	19.807	12.605	0.494
670.000	405.442	79.997	19.996	100.864	19.806	12.651	0.504
672.000	406.479	79.999	19.997	100.867	19.808	12.473	0.515
674.000	407.477	79.997	19.996	100.868	19.810	12.386	0.516
676.000	408.499	79.996	19.996	100.868	19.812	12.232	0.513
678.000	409.497	79.996	19.996	100.868	19.814	12.086	0.500
680.000	410.500	79.997	19.996	100.862	19.816	11.930	0.509
682.000	411.524	79.997	19.996	100.865	19.812	12.199	0.492
684.000	412.520	79.997	19.996	100.859	19.815	11.984	0.514
686.000	413.554	79.999	19.995	100.861	19.815	11.980	0.534
688.001	414.548	79.997	19.995	100.867	19.819	11.729	0.492
690.000	415.557	79.998	19.995	100.863	19.818	11.780	0.516
692.000	416.553	79.997	19.995	100.865	19.822	11.503	0.486
694.000	417.617	79.998	19.996	100.863	19.819	11.744	0.536
696.000	418.619	79.997	19.997	100.864	19.822	11.529	0.487
698.000	419.611	79.997	19.996	100.865	19.822	11.537	0.502
700.000	420.636	79.996	19.996	100.864	19.825	11.268	0.530
702.000	421.643	79.999	19.996	100.864	19.824	11.325	0.511
704.000	422.675	79.999	19.996	100.868	19.824	11.364	0.489
706.000	423.677	79.999	19.997	100.865	19.826	11.243	0.489
708.000	424.710	79.996	19.997	100.864	19.826	11.224	0.507
710.000	425.723	80.000	19.996	100.862	19.826	11.214	0.507
712.000	426.738	80.000	19.995	100.861	19.829	11.011	0.489
714.000	427.756	79.999	19.995	100.858	19.829	10.980	0.502
716.000	428.766	79.999	19.994	100.858	19.829	10.976	0.509
718.000	429.763	79.997	19.994	100.860	19.829	11.034	0.532
720.000	430.760	79.997	19.996	100.858	19.832	10.809	0.482
722.000	431.803	79.997	19.996	100.860	19.832	10.813	0.505
724.000	432.813	79.999	19.995	100.861	19.832	10.792	0.496
726.000	433.821	79.996	19.996	100.861	19.831	10.878	0.528
728.000	434.827	79.999	19.995	100.861	19.833	10.698	0.484
730.000	435.864	79.997	19.995	100.858	19.835	10.606	0.474
732.000	436.875	79.998	19.995	100.860	19.834	10.635	0.476
734.000	437.920	79.999	19.996	100.856	19.837	10.453	0.528
736.000	438.909	79.998	19.994	100.860	19.839	10.311	0.517
738.000	439.944	79.997	19.995	100.860	19.845	9.860	0.528
740.000	440.957	79.996	19.996	100.860	19.842	10.067	0.525
742.000	441.976	79.996	19.995	100.861	19.842	10.087	0.525
744.000	442.958	79.999	19.995	100.860	19.845	9.864	0.486
746.000	444.012	79.995	19.995	100.863	19.847	9.747	0.536
748.000	444.976	79.997	19.995	100.863	19.847	9.681	0.471
750.000	446.062	79.996	19.995	100.864	19.847	9.699	0.536
752.000	447.075	79.997	19.995	100.863	19.852	9.353	0.505
754.000	448.099	79.997	19.996	100.864	19.851	9.404	0.551
756.000	449.069	79.996	19.996	100.865	19.854	9.242	0.513
758.000	450.107	79.996	19.995	100.862	19.851	9.419	0.499
760.000	451.151	79.998	19.996	100.859	19.851	9.442	0.537
762.000	452.132	79.998	19.995	100.856	19.856	9.056	0.487
764.000	453.155	79.999	19.996	100.860	19.856	9.086	0.492
766.000	454.149	79.998	19.995	100.865	19.854	9.186	0.504
768.000	455.181	79.997	19.996	100.862	19.857	8.974	0.469
770.000	456.244	79.998	19.996	100.862	19.852	9.323	0.513
772.000	457.233	79.997	19.996	100.860	19.857	8.975	0.492
774.000	458.202	79.998	19.995	100.860	19.855	9.123	0.497
776.000	459.271	79.999	19.996	100.855	19.856	9.034	0.543
778.000	460.282	79.998	19.995	100.855	19.861	8.716	0.503
780.000	461.319	79.998	19.995	100.858	19.860	8.751	0.513
782.000	462.321	79.998	19.996	100.859	19.859	8.832	0.486
784.000	463.305	79.997	19.995	100.856	19.857	9.014	0.500
786.000	464.323	79.998	19.995	100.849	19.863	8.595	0.517
788.000	465.323	79.998	19.995	100.855	19.859	8.832	0.500
790.000	466.337	80.002	19.995	100.855	19.863	8.559	0.473
792.000	467.361	80.000	19.997	100.851	19.864	8.476	0.511
794.000	468.375	79.999	19.997	100.838	19.862	8.612	0.523
796.000	469.422	79.999	19.996	100.849	19.863	8.590	0.529
798.000	470.409	79.998	19.995	100.854	19.864	8.485	0.505
800.000	471.464	79.997	19.996	100.856	19.866	8.347	0.493
802.000	472.473	79.996	19.995	100.857	19.868	8.206	0.514
804.001	473.523	79.998	19.996	100.854	19.869	8.160	0.499
806.001	474.571	79.998	19.996	100.856	19.868	8.216	0.549
808.000	475.568	79.998	19.996	100.861	19.868	8.210	0.521
810.001	476.597	79.998	19.996	100.862	19.869	8.162	0.518
812.000	477.587	79.998	19.996	100.862	19.871	8.021	0.524
814.000	478.631	79.999	19.995	100.860	19.867	8.260	0.504
816.000	479.691	79.997	19.995	100.857	19.869	8.124	0.517
818.000	480.663	79.996	19.995	100.857	19.870	8.097	0.503
820.000	481.670	79.998	19.995	100.863	19.875	7.736	0.498
822.000	482.736	79.996	19.995	100.849	19.873	7.839	0.511
824.000	483.707	79.999	19.996	100.853	19.868	8.202	0.493
826.000	484.745	79.997	19.996	100.860	19.873	7.819	0.515
828.000	485.756	79.997	19.996	100.860	19.876	7.637	0.514
830.000	486.755	79.996	19.996	100.852	19.875	7.694	0.502
832.000	487.790	79.995	19.995	100.859	19.869	8.123	0.498
834.000	488.803	79.996	19.995	100.846	19.872	7.945	0.499
836.000	489.796	79.999	19.996	100.858	19.872	7.901	0.491
838.000	490.816	79.998	19.994	100.865	19.878	7.498	0.493
840.000	491.826	79.999	19.995	100.861	19.877	7.600	0.500
842.000	492.864	79.999	19.996	100.856	19.870	8.084	0.512
844.000	493.871	79.999	19.997	100.852	19.876	7.669	0.507
846.000	494.885	80.000	19.996	100.860	19.870	8.089	0.530
848.000	495.914	80.001	19.995	100.860	19.874	7.789	0.516
850.000	496.964	80.001	19.996	100.848	19.876	7.622	0.528
852.000	497.989	79.999	19.996	100.856	19.874	7.780	0.557
854.000	498.966	79.998	19.997	100.846	19.874	7.772	0.520
856.000	500.025	79.999	19.994	100.861	19.875	7.680	0.543
858.000	501.003	79.997	19.997	100.846	19.877	7.584	0.501
860.000	502.055	79.999	19.996	100.844	19.875	7.687	0.539
862.000	503.076	79.998	19.997	100.853	19.878	7.490	0.527
864.000	504.120	79.998	19.996	100.853	19.876	7.609	0.534
866.000	505.134	80.001	19.995	100.848	19.875	7.745	0.495
868.000	506.152	79.999	19.996	100.853	19.874	7.776	0.493
870.001	507.178	80.000	19.997	100.841	19.875	7.713	0.524
872.000	508.168	80.001	19.995	100.850	19.878	7.492	0.487
874.000	509.243	80.000	19.994	100.841	19.878	7.506	0.516
876.000	510.288	80.000	19.997	100.848	19.879	7.439	0.512
878.000	511.270	79.999	19.996	100.846	19.875	7.700	0.482
880.000	512.305	79.998	19.997	100.853	19.874	7.759	0.511
882.000	513.358	79.996	19.997	100.845	19.876	7.656	0.537
884.000	514.451	79.997	19.997	100.856	19.879	7.437	0.556
886.000	515.422	79.997	19.996	100.851	19.878	7.482	0.520
888.000	516.458	79.998	19.997	100.863	19.879	7.394	0.515
890.000	517.483	79.996	19.996	100.856	19.877	7.598	0.508
892.000	518.525	79.995	19.996	100.862	19.879	7.408	0.484
894.000	519.525	79.996	19.996	100.857	19.880	7.365	0.491
896.000	520.531	79.997	19.996	100.853	19.877	7.590	0.485
898.000	521.588	79.998	19.996	100.840	19.880	7.366	0.530
900.000	522.638	79.999	19.996	100.861	19.874	7.813	0.524
902.000	523.671	79.998	19.996	100.864	19.876	7.654	0.518
904.000	524.664	79.998	19.995	100.853	19.876	7.625	0.491
906.000	525.708	79.997	19.995	100.857	19.874	7.782	0.498
908.000	526.677	79.998	19.997	100.854	19.873	7.880	0.493
910.000	527.698	79.997	19.995	100.857	19.875	7.738	0.507
912.000	528.748	79.999	19.996	100.860	19.873	7.858	0.527
914.000	529.753	79.997	19.996	100.856	19.876	7.610	0.523
916.000	530.795	79.998	19.996	100.854	19.874	7.773	0.515
918.000	531.822	79.997	19.995	100.852	19.871	7.976	0.517
920.000	532.846	79.997	19.996	100.858	19.876	7.632	0.517
922.000	533.862	79.998	19.995	100.850	19.875	7.675	0.515
924.000	534.935	79.998	19.995	100.851	19.875	7.725	0.541
926.000	535.908	79.998	19.995	100.860	19.874	7.816	0.499
928.000	536.945	80.000	19.996	100.857	19.875	7.726	0.506
930.001	537.919	80.001	19.994	100.857	19.871	7.973	0.480
932.000	538.929	79.999	19.995	100.846	19.874	7.763	0.472
934.000	539.993	79.999	19.996	100.832	19.870	8.070	0.515
936.000	540.994	80.001	19.995	100.839	19.870	8.033	0.519
938.000	541.996	79.999	19.995	100.854	19.871	7.970	0.502
940.000	543.049	80.000	19.994	100.846	19.873	7.870	0.527
942.000	544.075	80.000	19.995	100.852	19.874	7.747	0.524
944.000	545.065	79.997	19.995	100.850	19.878	7.524	0.503
946.000	546.079	79.999	19.995	100.854	19.877	7.584	0.501
948.000	547.098	79.999	19.996	100.859	19.877	7.592	0.498
950.001	548.100	79.998	19.996	100.852	19.877	7.560	0.504
952.000	549.157	79.999	19.997	100.852	19.877	7.566	0.524
954.000	550.157	79.998	19.996	100.850	19.878	7.523	0.522
956.000	551.160	79.998	19.994	100.851	19.875	7.725	0.514
958.000	552.188	79.997	19.996	100.856	19.877	7.558	0.515
960.000	553.200	80.000	19.996	100.857	19.875	7.677	0.480
962.000	554.232	79.998	19.997	100.860	19.870	8.091	0.515
964.000	555.240	79.997	19.996	100.860	19.871	7.970	0.529
966.000	556.237	79.997	19.996	100.860	19.873	7.886	0.485
968.000	557.295	79.999	19.996	100.859	19.873	7.876	0.508
970.000	558.268	79.997	19.995	100.859	19.875	7.691	0.503
972.000	559.279	79.997	19.997	100.857	19.871	7.989	0.512
974.000	560.281	79.999	19.995	100.843	19.872	7.941	0.477
976.000	561.283	79.997	19.996	100.856	19.874	7.767	0.524
978.000	562.301	79.995	19.996	100.857	19.873	7.874	0.509
980.000	563.315	79.996	19.996	100.846	19.874	7.801	0.511
982.000	564.295	79.995	19.997	100.850	19.871	7.997	0.490
984.000	565.341	79.998	19.997	100.856	19.868	8.185	0.509
986.000	566.412	79.998	19.996	100.856	19.874	7.755	0.519
988.000	567.414	79.998	19.996	100.860	19.871	7.984	0.531
990.000	568.455	79.997	19.996	100.858	19.870	8.076	0.545
992.000	569.489	79.997	19.997	100.859	19.872	7.905	0.539
994.000	570.533	80.000	19.996	100.859	19.872	7.918	0.492
996.000	571.601	79.997	19.996	100.856	19.871	7.970	0.521
998.000	572.619	79.998	19.996	100.861	19.872	7.933	0.514
1000.000	573.721	79.998	19.997	100.860	19.874	7.790	0.554
1002.000	574.821	79.998	19.996	100.857	19.872	7.892	0.569
1004.000	575.861	79.998	19.996	100.858	19.871	7.963	0.517
1006.000	576.928	79.999	19.996	100.857	19.871	7.995	0.521
1008.000	577.979	79.998	19.997	100.858	19.873	7.827	0.507
1010.000	579.012	79.999	19.996	100.855	19.875	7.741	0.534
1012.000	580.061	80.000	19.997	100.862	19.870	8.061	0.543
1014.000	581.090	79.998	19.996	100.863	19.873	7.858	0.509
1016.000	582.146	79.998	19.996	100.859	19.870	8.055	0.513
1018.000	583.184	79.998	19.997	100.857	19.871	7.967	0.500
1020.000	584.259	79.998	19.995	100.864	19.873	7.867	0.524
1022.000	585.310	79.999	19.995	100.864	19.873	7.850	0.544
1024.000	586.374	79.997	19.996	100.865	19.873	7.836	0.526
1026.000	587.390	79.998	19.995	100.865	19.871	8.026	0.523
1028.000	588.414	79.998	19.995	100.865	19.867	8.312	0.502
1030.000	589.452	80.001	19.995	100.864	19.869	8.126	0.539
1032.000	590.487	80.000	19.995	100.866	19.869	8.120	0.530
1034.001	591.577	80.002	19.996	100.863	19.875	7.717	0.519
1036.000	592.591	80.000	19.996	100.863	19.868	8.196	0.496
1038.000	593.630	80.001	19.997	100.861	19.874	7.813	0.503
1040.000	594.684	80.000	19.996	100.861	19.870	8.093	0.512
1042.000	595.717	80.000	19.996	100.860	19.870	8.086	0.506
1044.001	596.674	79.996	19.996	100.861	19.865	8.442	0.473
1046.000	597.758	79.998	19.996	100.861	19.865	8.398	0.525
1048.001	598.747	79.997	19.996	100.855	19.867	8.284	0.500
1050.001	599.819	79.997	19.996	100.861	19.867	8.316	0.516
1052.000	600.831	79.997	19.996	100.862	19.867	8.273	0.526
1054.000	601.823	79.998	19.997	100.861	19.868	8.214	0.493
1056.000	602.844	79.997	19.996	100.861	19.870	8.083	0.484
1058.001	603.873	79.997	19.995	100.854	19.866	8.365	0.495
1060.001	604.851	79.999	19.996	100.859	19.867	8.254	0.500
1062.000	605.890	79.999	19.996	100.856	19.866	8.360	0.522
1064.001	606.916	80.000	19.997	100.850	19.869	8.171	0.525
1066.000	607.966	79.997	19.997	100.859	19.869	8.163	0.534
1068.000	608.937	79.999	19.998	100.851	19.868	8.207	0.521
1070.000	609.955	79.999	19.998	100.848	19.866	8.319	0.496
1072.001	610.919	79.998	19.998	100.857	19.870	8.095	0.495
1074.000	611.912	79.998	19.998	100.860	19.864	8.522	0.512
1076.001	612.936	79.997	19.997	100.852	19.868	8.214	0.514
1078.000	613.969	79.997	19.998	100.854	19.869	8.124	0.515
1080.000	614.999	79.996	19.997	100.850	19.867	8.285	0.513
1082.000	616.046	79.998	19.996	100.855	19.864	8.505	0.517
1084.000	617.008	79.999	19.996	100.859	19.868	8.196	0.494
1086.001	618.072	79.998	19.996	100.846	19.869	8.175	0.517
1088.000	619.066	79.997	19.995	100.853	19.867	8.265	0.516
1090.000	620.076	79.999	19.995	100.859	19.866	8.384	0.509
1092.000	621.072	79.999	19.995	100.855	19.868	8.224	0.505
1094.000	622.071	79.999	19.995	100.850	19.861	8.724	0.490
1096.000	623.116	79.999	19.994	100.848	19.858	8.928	0.499
1098.000	624.133	79.998	19.994	100.858	19.860	8.750	0.532
1100.000	625.159	80.000	19.997	100.848	19.860	8.758	0.513
1102.000	626.123	80.000	19.996	100.838	19.862	8.658	0.485
1104.000	627.147	80.000	19.998	100.853	19.863	8.577	0.500
1106.001	628.165	80.000	19.995	100.851	19.866	8.325	0.498
1108.000	629.146	79.998	19.997	100.846	19.862	8.662	0.515
1110.000	630.144	80.000	19.996	100.855	19.864	8.508	0.497
1112.001	631.123	80.001	19.995	100.853	19.866	8.332	0.475
1114.001	632.139	80.000	19.996	100.845	19.865	8.426	0.515
1116.000	633.204	80.001	19.996	100.840	19.862	8.641	0.539
1118.000	634.217	80.001	19.995	100.841	19.869	8.148	0.537
1120.000	635.286	80.001	19.996	100.851	19.867	8.261	0.521
1122.001	636.293	80.001	19.995	100.842	19.864	8.527	0.522
1124.000	637.290	79.998	19.995	100.847	19.866	8.334	0.512
1126.000	638.317	80.000	19.996	100.848	19.864	8.479	0.502
1128.000	639.343	79.998	19.996	100.849	19.862	8.652	0.501
1130.000	640.423	79.997	19.995	100.856	19.862	8.621	0.536
1132.000	641.450	79.998	19.998	100.840	19.868	8.224	0.532
1134.000	642.450	79.999	19.996	100.854	19.867	8.280	0.520
1136.001	643.492	79.998	19.996	100.844	19.863	8.539	0.504
1138.000	644.499	80.001	19.998	100.840	19.869	8.140	0.503
1140.000	645.503	79.998	19.995	100.852	19.865	8.437	0.501
1142.001	646.550	79.997	19.995	100.840	19.864	8.507	0.513
1144.000	647.565	79.998	19.996	100.849	19.863	8.583	0.499
1146.001	648.628	79.998	19.996	100.848	19.857	8.969	0.530
1148.001	649.638	79.997	19.995	100.846	19.858	8.950	0.515
1150.001	650.685	79.999	19.995	100.847	19.863	8.543	0.504
1152.000	651.665	79.999	19.996	100.848	19.865	8.407	0.519
1154.000	652.654	79.998	19.997	100.840	19.860	8.777	0.506
1156.000	653.648	79.998	19.995	100.841	19.859	8.856	0.512
1158.000	654.713	79.997	19.995	100.854	19.862	8.644	0.544
1160.000	655.722	79.997	19.995	100.849	19.858	8.915	0.517
1162.000	656.693	79.998	19.996	100.856	19.864	8.506	0.490
1164.000	657.776	79.998	19.997	100.848	19.859	8.875	0.534
1166.001	658.786	79.998	19.997	100.844	19.857	8.971	0.510
1168.000	659.777	79.998	19.997	100.842	19.858	8.909	0.519
1170.001	660.818	79.998	19.997	100.845	19.862	8.632	0.533
1172.000	661.792	79.999	19.998	100.839	19.860	8.766	0.492
1174.000	662.791	80.000	19.995	100.847	19.860	8.815	0.511
1176.001	663.820	79.999	19.997	100.843	19.861	8.707	0.499
1178.001	664.822	79.998	19.997	100.838	19.859	8.835	0.505
1180.000	665.819	79.999	19.996	100.842	19.856	9.082	0.484
1182.000	666.837	79.999	19.995	100.839	19.856	9.074	0.515
1184.000	667.806	80.001	19.996	100.841	19.862	8.667	0.486
1186.000	668.880	79.999	19.995	100.848	19.861	8.723	0.539
1188.000	669.887	79.999	19.995	100.834	19.863	8.600	0.505
1190.000	670.892	79.999	19.996	100.843	19.860	8.766	0.481
1192.000	671.894	80.001	19.995	100.851	19.858	8.891	0.502
1194.001	672.893	80.001	19.996	100.842	19.857	9.000	0.505
1196.001	673.959	80.002	19.996	100.849	19.858	8.927	0.553
1198.000	674.925	80.002	19.996	100.842	19.856	9.077	0.497
1200.000	675.988	80.001	19.995	100.836	19.861	8.735	0.537
1202.000	676.991	80.002	19.996	100.830	19.856	9.053	0.546
1204.000	678.036	80.001	19.995	100.838	19.853	9.300	0.520
1206.000	679.047	80.000	19.995	100.833	19.861	8.738	0.517
1208.000	680.042	79.997	19.996	100.835	19.855	9.125	0.465
1210.001	681.081	79.998	19.996	100.844	19.859	8.860	0.528
1212.000	682.122	79.999	19.996	100.843	19.857	9.009	0.510
1214.000	683.127	79.997	19.995	100.840	19.858	8.918	0.495
1216.000	684.133	79.999	19.996	100.844	19.858	8.903	0.463
1218.000	685.135	79.998	19.996	100.844	19.850	9.527	0.518
1220.000	686.156	79.996	19.995	100.835	19.858	8.955	0.504
1222.001	687.156	79.997	19.996	100.850	19.854	9.199	0.509
1224.001	688.151	79.999	19.995	100.840	19.855	9.174	0.510
1226.001	689.215	80.000	19.997	100.846	19.861	8.726	0.512
1228.000	690.174	79.996	19.995	100.843	19.859	8.856	0.483
1230.000	691.202	79.998	19.996	100.850	19.855	9.138	0.511
1232.001	692.204	79.998	19.996	100.851	19.857	8.977	0.483
1234.001	693.240	79.998	19.997	100.851	19.858	8.900	0.552
1236.000	694.251	79.998	19.996	100.858	19.852	9.325	0.513
1238.000	695.280	79.997	19.998	100.856	19.856	9.102	0.524
1240.001	696.355	79.997	19.996	100.850	19.857	9.001	0.513
1242.000	697.350	79.999	19.997	100.855	19.854	9.180	0.513
1244.000	698.345	79.996	19.996	100.854	19.856	9.055	0.520
1246.001	699.365	79.998	19.997	100.860	19.854	9.244	0.495
1248.000	700.409	79.999	19.998	100.857	19.851	9.448	0.523
1250.000	701.377	79.998	19.997	100.857	19.856	9.063	0.490
1252.000	702.356	80.001	19.997	100.860	19.856	9.088	0.498
1254.000	703.355	80.000	19.997	100.853	19.856	9.090	0.506
1256.000	704.401	80.000	19.996	100.842	19.850	9.504	0.487
1258.000	705.398	80.000	19.997	100.845	19.853	9.263	0.530
1260.000	706.352	79.999	19.997	100.853	19.854	9.215	0.456
1262.000	707.401	80.000	19.999	100.850	19.850	9.510	0.510
1264.000	708.435	79.999	19.998	100.859	19.857	9.033	0.505
1266.000	709.446	79.999	19.997	100.852	19.853	9.259	0.529
1268.000	710.386	80.000	19.997	100.859	19.852	9.372	0.501
1270.000	711.393	79.999	19.996	100.859	19.857	9.027	0.517
1272.000	712.440	80.000	19.995	100.859	19.859	8.851	0.484
1274.000	713.429	79.999	19.995	100.857	19.854	9.222	0.505
1276.000	714.457	80.000	19.995	100.860	19.852	9.356	0.516
1278.001	715.493	80.001	19.995	100.861	19.854	9.210	0.545
1280.000	716.491	80.000	19.995	100.856	19.848	9.660	0.533
1282.001	717.512	80.000	19.994	100.864	19.852	9.392	0.513
1284.000	718.503	80.000	19.995	100.850	19.853	9.300	0.500
1286.001	719.518	79.999	19.996	100.863	19.855	9.150	0.496
1288.000	720.515	79.999	19.996	100.863	19.851	9.416	0.515
1290.000	721.497	79.999	19.995	100.861	19.852	9.366	0.480
1292.000	722.564	79.998	19.996	100.858	19.852	9.388	0.545
1294.001	723.513	79.998	19.996	100.859	19.853	9.272	0.485
1296.000	724.531	79.998	19.996	100.851	19.852	9.367	0.523
1298.000	725.547	79.997	19.996	100.859	19.854	9.217	0.499
1300.000	726.554	79.997	19.996	100.852	19.851	9.417	0.498
1302.000	727.582	79.999	19.996	100.843	19.854	9.242	0.499
1304.000	728.587	79.998	19.997	100.849	19.856	9.083	0.535
1306.001	729.586	79.999	19.995	100.859	19.850	9.534	0.513
1308.000	730.604	79.999	19.995	100.857	19.850	9.484	0.502
1310.000	731.621	79.999	19.995	100.862	19.850	9.471	0.493
1312.000	732.656	80.000	19.995	100.862	19.850	9.497	0.509
1314.001	733.670	79.999	19.996	100.860	19.850	9.525	0.505
1316.000	734.682	79.997	19.996	100.860	19.851	9.397	0.514
1318.000	735.703	79.997	19.995	100.862	19.851	9.439	0.505
1320.000	736.666	79.998	19.997	100.861	19.853	9.315	0.486
1322.000	737.665	79.997	19.996	100.861	19.849	9.546	0.507
1324.000	738.682	79.998	19.996	100.857	19.846	9.792	0.512
1326.000	739.676	79.997	19.997	100.848	19.842	10.101	0.482
1328.001	740.716	79.997	19.996	100.853	19.846	9.817	0.469
1330.000	741.734	79.997	19.996	100.857	19.843	9.971	0.517
1332.000	742.755	79.998	19.996	100.864	19.846	9.768	0.520
1334.001	743.776	79.999	19.995	100.861	19.845	9.869	0.522
1336.001	744.812	79.999	19.996	100.855	19.841	10.156	0.517
1336.501	745.053	80.000	19.995	100.854	19.841	10.130	0.512