File: 01_Data/Cotton_Sheet/FTIR/IS/Cotton_Sheet_IS_T_220826_R4.dpt
7497.03,0.02507
7491.25,0.02214
7485.46,0.02265
7479.67,0.02093
7473.89,0.02374
7468.1,0.02598
7462.32,0.02672
7456.53,0.02634
7450.74,0.02355
7444.96,0.02734
7439.17,0.02841
7433.38,0.02151
7427.6,0.02331
7421.81,0.02499
7416.03,0.02896
7410.24,0.03044
7404.45,0.02958
7398.67,0.02369
7392.88,0.02564
7387.09,0.02941
7381.31,0.02284
7375.52,0.02029
7369.74,0.02583
7363.95,0.02727
7358.16,0.03050
7352.38,0.01988
7346.59,0.01867
7340.8,0.02420
7335.02,0.02767
7329.23,0.01848
7323.45,0.01863
7317.66,0.02929
7311.87,0.01864
7306.09,0.02709
7300.3,0.02572
7294.51,0.01792
7288.73,0.02211
7282.94,0.02600
7277.16,0.02777
7271.37,0.02369
7265.58,0.03062
7259.8,0.01936
7254.01,0.02496
7248.22,0.02649
7242.44,0.02686
7236.65,0.02990
7230.87,0.02343
7225.08,0.02333
7219.29,0.02200
7213.51,0.02333
7207.72,0.02991
7201.93,0.02882
7196.15,0.01890
7190.36,0.02254
7184.58,0.02044
7178.79,0.02472
7173,0.02124
7167.22,0.02518
7161.43,0.02446
7155.65,0.02137
7149.86,0.02514
7144.07,0.02370
7138.29,0.02842
7132.5,0.01969
7126.71,0.02366
7120.93,0.02672
7115.14,0.02834
7109.36,0.02315
7103.57,0.02039
7097.78,0.02359
7092,0.03089
7086.21,0.02533
7080.42,0.02712
7074.64,0.02009
7068.85,0.02638
7063.07,0.02584
7057.28,0.02077
7051.49,0.02181
7045.71,0.02535
7039.92,0.02468
7034.13,0.02182
7028.35,0.02539
7022.56,0.02243
7016.78,0.02202
7010.99,0.03070
7005.2,0.02085
6999.42,0.02396
6993.63,0.02795
6987.84,0.02398
6982.06,0.02282
6976.27,0.02567
6970.49,0.02219
6964.7,0.02172
6958.91,0.02747
6953.13,0.02773
6947.34,0.02701
6941.55,0.02090
6935.77,0.01833
6929.98,0.02827
6924.2,0.02317
6918.41,0.02569
6912.62,0.02395
6906.84,0.02585
6901.05,0.02344
6895.26,0.02070
6889.48,0.02416
6883.69,0.02674
6877.91,0.02339
6872.12,0.02472
6866.33,0.02198
6860.55,0.02495
6854.76,0.02568
6848.97,0.02155
6843.19,0.01951
6837.4,0.02481
6831.62,0.02720
6825.83,0.02317
6820.04,0.02572
6814.26,0.02497
6808.47,0.02568
6802.68,0.02267
6796.9,0.02475
6791.11,0.02052
6785.33,0.02292
6779.54,0.01950
6773.75,0.02245
6767.97,0.02394
6762.18,0.02732
6756.39,0.02306
6750.61,0.02411
6744.82,0.02269
6739.04,0.02317
6733.25,0.01770
6727.46,0.01797
6721.68,0.02048
6715.89,0.01758
6710.1,0.02249
6704.32,0.02445
6698.53,0.02417
6692.75,0.02366
6686.96,0.02133
6681.17,0.02217
6675.39,0.02496
6669.6,0.02545
6663.82,0.02404
6658.03,0.01961
6652.24,0.02424
6646.46,0.01815
6640.67,0.02263
6634.88,0.02382
6629.1,0.02164
6623.31,0.01935
6617.53,0.01907
6611.74,0.02207
6605.95,0.02342
6600.17,0.02114
6594.38,0.01947
6588.59,0.02315
6582.81,0.02330
6577.02,0.02556
6571.24,0.02322
6565.45,0.01981
6559.66,0.02412
6553.88,0.02377
6548.09,0.02530
6542.3,0.02215
6536.52,0.01803
6530.73,0.02877
6524.95,0.02537
6519.16,0.02293
6513.37,0.02270
6507.59,0.02291
6501.8,0.02687
6496.01,0.02587
6490.23,0.02409
6484.44,0.02121
6478.66,0.02347
6472.87,0.02166
6467.08,0.02102
6461.3,0.02501
6455.51,0.02466
6449.72,0.02459
6443.94,0.02202
6438.15,0.02377
6432.37,0.02066
6426.58,0.02351
6420.79,0.02418
6415.01,0.02286
6409.22,0.02603
6403.43,0.02369
6397.65,0.02024
6391.86,0.02222
6386.08,0.02179
6380.29,0.01859
6374.5,0.02395
6368.72,0.02274
6362.93,0.01984
6357.14,0.02045
6351.36,0.01961
6345.57,0.02408
6339.79,0.02189
6334,0.02281
6328.21,0.02272
6322.43,0.02214
6316.64,0.02481
6310.85,0.02175
6305.07,0.02165
6299.28,0.02383
6293.5,0.02412
6287.71,0.02340
6281.92,0.02208
6276.14,0.02304
6270.35,0.02544
6264.56,0.02347
6258.78,0.02256
6252.99,0.02194
6247.21,0.02209
6241.42,0.02115
6235.63,0.02363
6229.85,0.01942
6224.06,0.01838
6218.27,0.02071
6212.49,0.02213
6206.7,0.02371
6200.92,0.02359
6195.13,0.02274
6189.34,0.01997
6183.56,0.02191
6177.77,0.01727
6171.98,0.02291
6166.2,0.02209
6160.41,0.02342
6154.63,0.02004
6148.84,0.02219
6143.05,0.02314
6137.27,0.02275
6131.48,0.01927
6125.7,0.02001
6119.91,0.02148
6114.12,0.02224
6108.34,0.02397
6102.55,0.02180
6096.76,0.02183
6090.98,0.02280
6085.19,0.02352
6079.41,0.02393
6073.62,0.02441
6067.83,0.02321
6062.05,0.02142
6056.26,0.01961
6050.47,0.02015
6044.69,0.02250
6038.9,0.02255
6033.12,0.02222
6027.33,0.02029
6021.54,0.01863
6015.76,0.02203
6009.97,0.02223
6004.18,0.02064
5998.4,0.01969
5992.61,0.02013
5986.83,0.02142
5981.04,0.02253
5975.25,0.02181
5969.47,0.02303
5963.68,0.02316
5957.89,0.02115
5952.11,0.01917
5946.32,0.02110
5940.54,0.02097
5934.75,0.02100
5928.96,0.02316
5923.18,0.02228
5917.39,0.02252
5911.6,0.02364
5905.82,0.01885
5900.03,0.02024
5894.25,0.02151
5888.46,0.02381
5882.67,0.02202
5876.89,0.02221
5871.1,0.01961
5865.31,0.02420
5859.53,0.02352
5853.74,0.02087
5847.96,0.02186
5842.17,0.01965
5836.38,0.02225
5830.6,0.01995
5824.81,0.02221
5819.02,0.02091
5813.24,0.01838
5807.45,0.02172
5801.67,0.02194
5795.88,0.02174
5790.09,0.02171
5784.31,0.02209
5778.52,0.02471
5772.73,0.02338
5766.95,0.02177
5761.16,0.01968
5755.38,0.02188
5749.59,0.02197
5743.8,0.02103
5738.02,0.02149
5732.23,0.01990
5726.44,0.02150
5720.66,0.02157
5714.87,0.02110
5709.09,0.02158
5703.3,0.01838
5697.51,0.02124
5691.73,0.01909
5685.94,0.01992
5680.15,0.02107
5674.37,0.02143
5668.58,0.02161
5662.8,0.02315
5657.01,0.02199
5651.22,0.02178
5645.44,0.02306
5639.65,0.02314
5633.87,0.02021
5628.08,0.02095
5622.29,0.02097
5616.51,0.02316
5610.72,0.02298
5604.93,0.02387
5599.15,0.02229
5593.36,0.02220
5587.58,0.02157
5581.79,0.02108
5576,0.02140
5570.22,0.02140
5564.43,0.02157
5558.64,0.02100
5552.86,0.02033
5547.07,0.02204
5541.29,0.02258
5535.5,0.02230
5529.71,0.02247
5523.93,0.02011
5518.14,0.02288
5512.35,0.01984
5506.57,0.02201
5500.78,0.02107
5495,0.02304
5489.21,0.02353
5483.42,0.02180
5477.64,0.02258
5471.85,0.02270
5466.06,0.02361
5460.28,0.02171
5454.49,0.02211
5448.71,0.02233
5442.92,0.02283
5437.13,0.02214
5431.35,0.02273
5425.56,0.02157
5419.77,0.02179
5413.99,0.02278
5408.2,0.02219
5402.42,0.02310
5396.63,0.02187
5390.84,0.02228
5385.06,0.02119
5379.27,0.02088
5373.48,0.02105
5367.7,0.02224
5361.91,0.02161
5356.13,0.02255
5350.34,0.02373
5344.55,0.02337
5338.77,0.02164
5332.98,0.02348
5327.19,0.02161
5321.41,0.02372
5315.62,0.02271
5309.84,0.02320
5304.05,0.02210
5298.26,0.02076
5292.48,0.02182
5286.69,0.02249
5280.9,0.02301
5275.12,0.02162
5269.33,0.02191
5263.55,0.02146
5257.76,0.02164
5251.97,0.02219
5246.19,0.02281
5240.4,0.02215
5234.61,0.02206
5228.83,0.02282
5223.04,0.02238
5217.26,0.02139
5211.47,0.02087
5205.68,0.02252
5199.9,0.02296
5194.11,0.02253
5188.32,0.02201
5182.54,0.02177
5176.75,0.02225
5170.97,0.02201
5165.18,0.02118
5159.39,0.02231
5153.61,0.02195
5147.82,0.02067
5142.03,0.02108
5136.25,0.02271
5130.46,0.02037
5124.68,0.02101
5118.89,0.02272
5113.1,0.02237
5107.32,0.02143
5101.53,0.02204
5095.75,0.02192
5089.96,0.02168
5084.17,0.02191
5078.39,0.02123
5072.6,0.02264
5066.81,0.02190
5061.03,0.02165
5055.24,0.02357
5049.46,0.02212
5043.67,0.02246
5037.88,0.02235
5032.1,0.02281
5026.31,0.02155
5020.52,0.02207
5014.74,0.02315
5008.95,0.02333
5003.17,0.02179
4997.38,0.02246
4991.59,0.02298
4985.81,0.02312
4980.02,0.02270
4974.23,0.02260
4968.45,0.02134
4962.66,0.02239
4956.88,0.02281
4951.09,0.02134
4945.3,0.02258
4939.52,0.02265
4933.73,0.02249
4927.94,0.02160
4922.16,0.02128
4916.37,0.02211
4910.59,0.02173
4904.8,0.02209
4899.01,0.02182
4893.23,0.02230
4887.44,0.02086
4881.65,0.02180
4875.87,0.02234
4870.08,0.02216
4864.3,0.02241
4858.51,0.02255
4852.72,0.02273
4846.94,0.02195
4841.15,0.02203
4835.36,0.02130
4829.58,0.02199
4823.79,0.02232
4818.01,0.02188
4812.22,0.02161
4806.43,0.02116
4800.65,0.02236
4794.86,0.02279
4789.07,0.02197
4783.29,0.02191
4777.5,0.02184
4771.72,0.02164
4765.93,0.02263
4760.14,0.02270
4754.36,0.02277
4748.57,0.02254
4742.78,0.02174
4737,0.02219
4731.21,0.02325
4725.43,0.02272
4719.64,0.02340
4713.85,0.02381
4708.07,0.02295
4702.28,0.02268
4696.49,0.02180
4690.71,0.02201
4684.92,0.02176
4679.14,0.02248
4673.35,0.02181
4667.56,0.02195
4661.78,0.02218
4655.99,0.02154
4650.2,0.02208
4644.42,0.02338
4638.63,0.02182
4632.85,0.02328
4627.06,0.02308
4621.27,0.02255
4615.49,0.02294
4609.7,0.02272
4603.92,0.02230
4598.13,0.02203
4592.34,0.02215
4586.56,0.02247
4580.77,0.02237
4574.98,0.02262
4569.2,0.02237
4563.41,0.02223
4557.63,0.02242
4551.84,0.02276
4546.05,0.02268
4540.27,0.02246
4534.48,0.02233
4528.69,0.02179
4522.91,0.02264
4517.12,0.02297
4511.34,0.02181
4505.55,0.02246
4499.76,0.02284
4493.98,0.02267
4488.19,0.02257
4482.4,0.02181
4476.62,0.02166
4470.83,0.02215
4465.05,0.02273
4459.26,0.02181
4453.47,0.02162
4447.69,0.02253
4441.9,0.02244
4436.11,0.02216
4430.33,0.02221
4424.54,0.02167
4418.76,0.02191
4412.97,0.02240
4407.18,0.02216
4401.4,0.02261
4395.61,0.02187
4389.82,0.02133
4384.04,0.02261
4378.25,0.02166
4372.47,0.02286
4366.68,0.02215
4360.89,0.02224
4355.11,0.02291
4349.32,0.02205
4343.53,0.02236
4337.75,0.02147
4331.96,0.02219
4326.18,0.02255
4320.39,0.02276
4314.6,0.02219
4308.82,0.02228
4303.03,0.02292
4297.24,0.02210
4291.46,0.02300
4285.67,0.02198
4279.89,0.02125
4274.1,0.02205
4268.31,0.02231
4262.53,0.02247
4256.74,0.02241
4250.95,0.02279
4245.17,0.02228
4239.38,0.02190
4233.6,0.02168
4227.81,0.02198
4222.02,0.02228
4216.24,0.02203
4210.45,0.02209
4204.66,0.02256
4198.88,0.02213
4193.09,0.02293
4187.31,0.02232
4181.52,0.02275
4175.73,0.02235
4169.95,0.02198
4164.16,0.02241
4158.37,0.02267
4152.59,0.02204
4146.8,0.02249
4141.02,0.02198
4135.23,0.02134
4129.44,0.02193
4123.66,0.02262
4117.87,0.02274
4112.09,0.02266
4106.3,0.02245
4100.51,0.02235
4094.73,0.02218
4088.94,0.02198
4083.15,0.02193
4077.37,0.02172
4071.58,0.02183
4065.8,0.02252
4060.01,0.02206
4054.22,0.02222
4048.44,0.02269
4042.65,0.02255
4036.86,0.02297
4031.08,0.02236
4025.29,0.02277
4019.51,0.02232
4013.72,0.02229
4007.93,0.02240
4002.15,0.02318
3996.36,0.02298
3990.57,0.02271
3984.79,0.02260
3979,0.02154
3973.22,0.02207
3967.43,0.02178
3961.64,0.02262
3955.86,0.02296
3950.07,0.02289
3944.28,0.02287
3938.5,0.02205
3932.71,0.02214
3926.93,0.02251
3921.14,0.02261
3915.35,0.02285
3909.57,0.02255
3903.78,0.02263
3897.99,0.02206
3892.21,0.02272
3886.42,0.02313
3880.64,0.02164
3874.85,0.02192
3869.06,0.02286
3863.28,0.02229
3857.49,0.02221
3851.7,0.02262
3845.92,0.02218
3840.13,0.02252
3834.35,0.02283
3828.56,0.02252
3822.77,0.02227
3816.99,0.02271
3811.2,0.02239
3805.41,0.02276
3799.63,0.02214
3793.84,0.02192
3788.06,0.02256
3782.27,0.02283
3776.48,0.02202
3770.7,0.02239
3764.91,0.02227
3759.12,0.02210
3753.34,0.02289
3747.55,0.02307
3741.77,0.02244
3735.98,0.02249
3730.19,0.02273
3724.41,0.02303
3718.62,0.02236
3712.83,0.02241
3707.05,0.02263
3701.26,0.02210
3695.48,0.02265
3689.69,0.02242
3683.9,0.02195
3678.12,0.02168
3672.33,0.02233
3666.54,0.02127
3660.76,0.02185
3654.97,0.02227
3649.19,0.02282
3643.4,0.02159
3637.61,0.02156
3631.83,0.02216
3626.04,0.02210
3620.25,0.02203
3614.47,0.02174
3608.68,0.02137
3602.9,0.02180
3597.11,0.02171
3591.32,0.02137
3585.54,0.02207
3579.75,0.02151
3573.97,0.02253
3568.18,0.02147
3562.39,0.02124
3556.61,0.02104
3550.82,0.02133
3545.03,0.02146
3539.25,0.02143
3533.46,0.02076
3527.68,0.02120
3521.89,0.02149
3516.1,0.02044
3510.32,0.02085
3504.53,0.02085
3498.74,0.02131
3492.96,0.02101
3487.17,0.02086
3481.39,0.02094
3475.6,0.01991
3469.81,0.02053
3464.03,0.02043
3458.24,0.02091
3452.45,0.02089
3446.67,0.02072
3440.88,0.02055
3435.1,0.02041
3429.31,0.02021
3423.52,0.02024
3417.74,0.02111
3411.95,0.02092
3406.16,0.02048
3400.38,0.02033
3394.59,0.02026
3388.81,0.02064
3383.02,0.02043
3377.23,0.01990
3371.45,0.02021
3365.66,0.02057
3359.87,0.02065
3354.09,0.02044
3348.3,0.01997
3342.52,0.01978
3336.73,0.01914
3330.94,0.01985
3325.16,0.02045
3319.37,0.02033
3313.58,0.01963
3307.8,0.01986
3302.01,0.01995
3296.23,0.01997
3290.44,0.01994
3284.65,0.02089
3278.87,0.02108
3273.08,0.02029
3267.29,0.02004
3261.51,0.02021
3255.72,0.02053
3249.94,0.02034
3244.15,0.02127
3238.36,0.02065
3232.58,0.02135
3226.79,0.01955
3221,0.02052
3215.22,0.02002
3209.43,0.02047
3203.65,0.01986
3197.86,0.02072
3192.07,0.02098
3186.29,0.02095
3180.5,0.02066
3174.71,0.02131
3168.93,0.02112
3163.14,0.02048
3157.36,0.02078
3151.57,0.02039
3145.78,0.02056
3140,0.02007
3134.21,0.02003
3128.42,0.02084
3122.64,0.02089
3116.85,0.02057
3111.07,0.02156
3105.28,0.02048
3099.49,0.02023
3093.71,0.02041
3087.92,0.02070
3082.14,0.02078
3076.35,0.02031
3070.56,0.02034
3064.78,0.02030
3058.99,0.02057
3053.2,0.02002
3047.42,0.02029
3041.63,0.02075
3035.85,0.02075
3030.06,0.02046
3024.27,0.02028
3018.49,0.02018
3012.7,0.02015
3006.91,0.01996
3001.13,0.01974
2995.34,0.01976
2989.56,0.01980
2983.77,0.01955
2977.98,0.01923
2972.2,0.01933
2966.41,0.01922
2960.62,0.01899
2954.84,0.01978
2949.05,0.01903
2943.27,0.01927
2937.48,0.01985
2931.69,0.01934
2925.91,0.01998
2920.12,0.01971
2914.33,0.01963
2908.55,0.01986
2902.76,0.01997
2896.98,0.02002
2891.19,0.02014
2885.4,0.02047
2879.62,0.02051
2873.83,0.02028
2868.04,0.01969
2862.26,0.01991
2856.47,0.02017
2850.69,0.02067
2844.9,0.02057
2839.11,0.02063
2833.33,0.02118
2827.54,0.02146
2821.75,0.02113
2815.97,0.02082
2810.18,0.02071
2804.4,0.02084
2798.61,0.02107
2792.82,0.02095
2787.04,0.02142
2781.25,0.02076
2775.46,0.02102
2769.68,0.02062
2763.89,0.02092
2758.11,0.02065
2752.32,0.02063
2746.53,0.02054
2740.75,0.02081
2734.96,0.02064
2729.17,0.02099
2723.39,0.02094
2717.6,0.02136
2711.82,0.02099
2706.03,0.02111
2700.24,0.02049
2694.46,0.02101
2688.67,0.02102
2682.88,0.02132
2677.1,0.02070
2671.31,0.02105
2665.53,0.02085
2659.74,0.02113
2653.95,0.02113
2648.17,0.02073
2642.38,0.02079
2636.59,0.02079
2630.81,0.02094
2625.02,0.02091
2619.24,0.02102
2613.45,0.02069
2607.66,0.02113
2601.88,0.02090
2596.09,0.02107
2590.3,0.02106
2584.52,0.02123
2578.73,0.02119
2572.95,0.02061
2567.16,0.02088
2561.37,0.02093
2555.59,0.02097
2549.8,0.02127
2544.02,0.02095
2538.23,0.02078
2532.44,0.02053
2526.66,0.02089
2520.87,0.02088
2515.08,0.02064
2509.3,0.02119
2503.51,0.02132
2497.73,0.02106
2491.94,0.02067
2486.15,0.02102
2480.37,0.02087
2474.58,0.02087
2468.79,0.02058
2463.01,0.02102
2457.22,0.02082
2451.44,0.02037
2445.65,0.02087
2439.86,0.02051
2434.08,0.02095
2428.29,0.02061
2422.5,0.02110
2416.72,0.02107
2410.93,0.02109
2405.15,0.02100
2399.36,0.02092
2393.57,0.02092
2387.79,0.02082
2382,0.02064
2376.21,0.02070
2370.43,0.02068
2364.64,0.02119
2358.86,0.02120
2353.07,0.02062
2347.28,0.02084
2341.5,0.02035
2335.71,0.02070
2329.92,0.02089
2324.14,0.02086
2318.35,0.02104
2312.57,0.02082
2306.78,0.02045
2300.99,0.02085
2295.21,0.02099
2289.42,0.02093
2283.63,0.02120
2277.85,0.02104
2272.06,0.02096
2266.28,0.02080
2260.49,0.02087
2254.7,0.02099
2248.92,0.02082
2243.13,0.02095
2237.34,0.02093
2231.56,0.02103
2225.77,0.02092
2219.99,0.02074
2214.2,0.02087
2208.41,0.02092
2202.63,0.02098
2196.84,0.02076
2191.05,0.02072
2185.27,0.02058
2179.48,0.02077
2173.7,0.02102
2167.91,0.02048
2162.12,0.02103
2156.34,0.02075
2150.55,0.02074
2144.76,0.02045
2138.98,0.02056
2133.19,0.02094
2127.41,0.02062
2121.62,0.02049
2115.83,0.02030
2110.05,0.02046
2104.26,0.02058
2098.47,0.02064
2092.69,0.02106
2086.9,0.02059
2081.12,0.02093
2075.33,0.02102
2069.54,0.02040
2063.76,0.02072
2057.97,0.02062
2052.19,0.02059
2046.4,0.02053
2040.61,0.02117
2034.83,0.02046
2029.04,0.02081
2023.25,0.02089
2017.47,0.02048
2011.68,0.02077
2005.9,0.02050
2000.11,0.02045
1994.32,0.02047
1988.54,0.02054
1982.75,0.02000
1976.96,0.02066
1971.18,0.02073
1965.39,0.02068
1959.61,0.02085
1953.82,0.02031
1948.03,0.02010
1942.25,0.02047
1936.46,0.02052
1930.67,0.02039
1924.89,0.02064
1919.1,0.02022
1913.32,0.02022
1907.53,0.02069
1901.74,0.01998
1895.96,0.01996
1890.17,0.02010
1884.38,0.02012
1878.6,0.01995
1872.81,0.02009
1867.03,0.02001
1861.24,0.02012
1855.45,0.02022
1849.67,0.01982
1843.88,0.02008
1838.09,0.02016
1832.31,0.02018
1826.52,0.02025
1820.74,0.01966
1814.95,0.01928
1809.16,0.01944
1803.38,0.01949
1797.59,0.01948
1791.8,0.01913
1786.02,0.01900
1780.23,0.01874
1774.45,0.01889
1768.66,0.01845
1762.87,0.01767
1757.09,0.01716
1751.3,0.01707
1745.51,0.01735
1739.73,0.01849
1733.94,0.01906
1728.16,0.01994
1722.37,0.02034
1716.58,0.02057
1710.8,0.02014
1705.01,0.01978
1699.22,0.01955
1693.44,0.01911
1687.65,0.01866
1681.87,0.01868
1676.08,0.01866
1670.29,0.01832
1664.51,0.01832
1658.72,0.01843
1652.93,0.01835
1647.15,0.01824
1641.36,0.01844
1635.58,0.01832
1629.79,0.01833
1624,0.01833
1618.22,0.01866
1612.43,0.01851
1606.64,0.01868
1600.86,0.01845
1595.07,0.01846
1589.29,0.01833
1583.5,0.01814
1577.71,0.01815
1571.93,0.01828
1566.14,0.01792
1560.35,0.01812
1554.57,0.01774
1548.78,0.01778
1543,0.01801
1537.21,0.01834
1531.42,0.01873
1525.64,0.01830
1519.85,0.01818
1514.07,0.01865
1508.28,0.01853
1502.49,0.01851
1496.71,0.01856
1490.92,0.01851
1485.13,0.01847
1479.35,0.01807
1473.56,0.01796
1467.78,0.01787
1461.99,0.01817
1456.2,0.01815
1450.42,0.01812
1444.63,0.01866
1438.84,0.01859
1433.06,0.01835
1427.27,0.01809
1421.49,0.01826
1415.7,0.01822
1409.91,0.01825
1404.13,0.01818
1398.34,0.01801
1392.55,0.01805
1386.77,0.01810
1380.98,0.01772
1375.2,0.01817
1369.41,0.01813
1363.62,0.01769
1357.84,0.01799
1352.05,0.01779
1346.26,0.01779
1340.48,0.01755
1334.69,0.01740
1328.91,0.01749
1323.12,0.01684
1317.33,0.01668
1311.55,0.01658
1305.76,0.01662
1299.97,0.01719
1294.19,0.01774
1288.4,0.01843
1282.62,0.01848
1276.83,0.01849
1271.04,0.01901
1265.26,0.01928
1259.47,0.01969
1253.68,0.01959
1247.9,0.01968
1242.11,0.01951
1236.33,0.01990
1230.54,0.01946
1224.75,0.01880
1218.97,0.01893
1213.18,0.01840
1207.39,0.01836
1201.61,0.01858
1195.82,0.01795
1190.04,0.01786
1184.25,0.01815
1178.46,0.01784
1172.68,0.01774
1166.89,0.01733
1161.1,0.01713
1155.32,0.01747
1149.53,0.01723
1143.75,0.01791
1137.96,0.01789
1132.17,0.01788
1126.39,0.01790
1120.6,0.01789
1114.81,0.01776
1109.03,0.01839
1103.24,0.01849
1097.46,0.01815
1091.67,0.01819
1085.88,0.01780
1080.1,0.01819
1074.31,0.01863
1068.52,0.01963
1062.74,0.01877
1056.95,0.01956
1051.17,0.01899
1045.38,0.01872
1039.59,0.01881
1033.81,0.01858
1028.02,0.01874
1022.24,0.01814
1016.45,0.01913
1010.66,0.01974
1004.88,0.02046
999.09,0.02045
993.304,0.02047
987.518,0.02062
981.731,0.02011
975.945,0.02014
970.159,0.02022
964.373,0.01974
958.586,0.01940
952.8,0.01950
947.014,0.01908
941.228,0.01927
935.441,0.01972
929.655,0.01893
923.869,0.01973
918.083,0.01960
912.297,0.01958
906.51,0.01914
900.724,0.01878
894.938,0.01922
889.152,0.01929
883.365,0.01933
877.579,0.01930
871.793,0.01885
866.007,0.01845
860.22,0.01916
854.434,0.01919
848.648,0.01873
842.862,0.01884
837.075,0.01822
831.289,0.01977
825.503,0.01865
819.717,0.01889
813.931,0.01881
808.144,0.01875
802.358,0.01841
796.572,0.01955
790.786,0.01912
784.999,0.01922
779.213,0.01849
773.427,0.01835
767.641,0.01842
761.854,0.01869
756.068,0.01771
750.282,0.01763
744.496,0.01818
738.709,0.01789
732.923,0.01855
727.137,0.01808
721.351,0.01739
715.565,0.01811
709.778,0.01840
703.992,0.01798
698.206,0.01746
692.42,0.01819
686.633,0.01710
680.847,0.01796
675.061,0.01796
669.275,0.01648
663.488,0.01704
657.702,0.01760
651.916,0.01716
646.13,0.01731
640.343,0.01612
634.557,0.01565
628.771,0.01676
622.985,0.01861
617.198,0.01621
611.412,0.01486
605.626,0.01558
599.84,0.01676