File: 01_Data/Cotton_Sheet/FTIR/IS/Cotton_Sheet_IS_S_220826_R7.dpt
7497.03,0.61955
7491.25,0.61618
7485.46,0.60254
7479.67,0.60812
7473.89,0.61970
7468.1,0.62004
7462.32,0.61605
7456.53,0.60985
7450.74,0.61216
7444.96,0.61398
7439.17,0.62234
7433.38,0.61454
7427.6,0.62462
7421.81,0.62070
7416.03,0.61948
7410.24,0.61794
7404.45,0.62196
7398.67,0.61124
7392.88,0.60739
7387.09,0.61224
7381.31,0.61559
7375.52,0.61092
7369.74,0.61103
7363.95,0.60823
7358.16,0.61523
7352.38,0.60491
7346.59,0.60489
7340.8,0.62014
7335.02,0.60846
7329.23,0.60799
7323.45,0.60811
7317.66,0.60677
7311.87,0.60290
7306.09,0.60489
7300.3,0.61210
7294.51,0.60289
7288.73,0.59888
7282.94,0.60383
7277.16,0.60935
7271.37,0.60663
7265.58,0.59739
7259.8,0.61139
7254.01,0.61165
7248.22,0.60304
7242.44,0.60071
7236.65,0.60871
7230.87,0.60099
7225.08,0.60556
7219.29,0.60758
7213.51,0.60237
7207.72,0.60072
7201.93,0.60854
7196.15,0.60228
7190.36,0.60238
7184.58,0.60407
7178.79,0.60031
7173,0.60312
7167.22,0.60995
7161.43,0.60105
7155.65,0.60243
7149.86,0.59955
7144.07,0.60594
7138.29,0.60406
7132.5,0.60751
7126.71,0.60725
7120.93,0.59880
7115.14,0.60066
7109.36,0.60120
7103.57,0.59729
7097.78,0.59322
7092,0.58595
7086.21,0.59640
7080.42,0.59172
7074.64,0.59166
7068.85,0.58896
7063.07,0.58281
7057.28,0.57770
7051.49,0.57875
7045.71,0.57549
7039.92,0.57201
7034.13,0.57253
7028.35,0.56942
7022.56,0.57273
7016.78,0.57295
7010.99,0.57322
7005.2,0.57031
6999.42,0.56406
6993.63,0.56245
6987.84,0.56705
6982.06,0.56178
6976.27,0.56623
6970.49,0.55760
6964.7,0.55739
6958.91,0.54604
6953.13,0.55160
6947.34,0.55907
6941.55,0.55983
6935.77,0.55653
6929.98,0.55586
6924.2,0.55299
6918.41,0.55278
6912.62,0.55575
6906.84,0.55486
6901.05,0.55296
6895.26,0.55320
6889.48,0.54794
6883.69,0.54814
6877.91,0.54265
6872.12,0.54592
6866.33,0.54636
6860.55,0.54221
6854.76,0.53963
6848.97,0.54282
6843.19,0.54308
6837.4,0.54369
6831.62,0.54659
6825.83,0.54041
6820.04,0.53845
6814.26,0.54251
6808.47,0.53734
6802.68,0.53631
6796.9,0.53082
6791.11,0.53073
6785.33,0.53425
6779.54,0.53551
6773.75,0.53188
6767.97,0.53324
6762.18,0.52452
6756.39,0.52454
6750.61,0.52541
6744.82,0.52591
6739.04,0.52171
6733.25,0.52538
6727.46,0.52635
6721.68,0.52686
6715.89,0.52289
6710.1,0.52870
6704.32,0.52591
6698.53,0.52002
6692.75,0.52318
6686.96,0.52622
6681.17,0.52790
6675.39,0.52134
6669.6,0.52474
6663.82,0.52567
6658.03,0.52336
6652.24,0.52433
6646.46,0.52295
6640.67,0.52606
6634.88,0.52590
6629.1,0.52850
6623.31,0.53553
6617.53,0.53154
6611.74,0.52995
6605.95,0.53315
6600.17,0.53134
6594.38,0.52809
6588.59,0.53367
6582.81,0.53251
6577.02,0.53024
6571.24,0.53542
6565.45,0.53338
6559.66,0.53200
6553.88,0.53265
6548.09,0.53255
6542.3,0.53456
6536.52,0.53354
6530.73,0.53406
6524.95,0.53327
6519.16,0.53315
6513.37,0.53189
6507.59,0.53076
6501.8,0.53538
6496.01,0.52980
6490.23,0.53148
6484.44,0.52663
6478.66,0.52828
6472.87,0.53313
6467.08,0.53284
6461.3,0.53330
6455.51,0.53109
6449.72,0.53410
6443.94,0.53334
6438.15,0.53746
6432.37,0.53440
6426.58,0.53245
6420.79,0.53353
6415.01,0.53602
6409.22,0.53583
6403.43,0.53291
6397.65,0.53533
6391.86,0.53870
6386.08,0.54009
6380.29,0.54037
6374.5,0.53649
6368.72,0.53780
6362.93,0.53818
6357.14,0.53770
6351.36,0.53649
6345.57,0.53726
6339.79,0.53900
6334,0.53972
6328.21,0.54187
6322.43,0.53661
6316.64,0.53555
6310.85,0.53785
6305.07,0.54136
6299.28,0.54269
6293.5,0.54022
6287.71,0.53717
6281.92,0.54091
6276.14,0.54217
6270.35,0.54349
6264.56,0.54430
6258.78,0.54681
6252.99,0.54801
6247.21,0.54748
6241.42,0.55205
6235.63,0.55571
6229.85,0.55330
6224.06,0.55375
6218.27,0.55582
6212.49,0.55448
6206.7,0.55881
6200.92,0.55942
6195.13,0.55669
6189.34,0.56073
6183.56,0.56282
6177.77,0.56623
6171.98,0.56581
6166.2,0.56430
6160.41,0.56758
6154.63,0.56762
6148.84,0.56925
6143.05,0.56798
6137.27,0.57022
6131.48,0.57434
6125.7,0.57094
6119.91,0.57369
6114.12,0.57528
6108.34,0.57626
6102.55,0.57450
6096.76,0.57724
6090.98,0.57801
6085.19,0.57713
6079.41,0.57883
6073.62,0.58044
6067.83,0.58249
6062.05,0.58087
6056.26,0.58137
6050.47,0.58406
6044.69,0.58413
6038.9,0.58273
6033.12,0.58179
6027.33,0.58674
6021.54,0.58597
6015.76,0.58746
6009.97,0.58664
6004.18,0.59060
5998.4,0.58797
5992.61,0.58585
5986.83,0.58752
5981.04,0.58614
5975.25,0.58914
5969.47,0.58886
5963.68,0.58748
5957.89,0.58897
5952.11,0.59140
5946.32,0.58954
5940.54,0.58751
5934.75,0.58978
5928.96,0.58560
5923.18,0.58696
5917.39,0.58567
5911.6,0.58800
5905.82,0.58626
5900.03,0.58562
5894.25,0.58453
5888.46,0.58457
5882.67,0.57993
5876.89,0.58043
5871.1,0.57750
5865.31,0.57680
5859.53,0.57904
5853.74,0.57838
5847.96,0.57891
5842.17,0.57944
5836.38,0.57884
5830.6,0.57800
5824.81,0.57858
5819.02,0.58006
5813.24,0.57926
5807.45,0.57899
5801.67,0.57610
5795.88,0.57835
5790.09,0.57738
5784.31,0.57718
5778.52,0.57891
5772.73,0.57780
5766.95,0.57694
5761.16,0.57638
5755.38,0.57638
5749.59,0.57586
5743.8,0.57470
5738.02,0.57667
5732.23,0.57584
5726.44,0.57481
5720.66,0.57808
5714.87,0.57275
5709.09,0.57622
5703.3,0.57560
5697.51,0.57369
5691.73,0.57382
5685.94,0.57326
5680.15,0.57406
5674.37,0.57133
5668.58,0.57116
5662.8,0.57177
5657.01,0.57344
5651.22,0.57236
5645.44,0.57345
5639.65,0.57159
5633.87,0.57293
5628.08,0.57060
5622.29,0.57172
5616.51,0.57058
5610.72,0.57225
5604.93,0.57298
5599.15,0.57142
5593.36,0.57058
5587.58,0.57019
5581.79,0.57142
5576,0.57246
5570.22,0.57358
5564.43,0.57389
5558.64,0.57158
5552.86,0.57354
5547.07,0.57452
5541.29,0.57330
5535.5,0.57253
5529.71,0.57116
5523.93,0.57222
5518.14,0.57062
5512.35,0.57320
5506.57,0.57196
5500.78,0.57192
5495,0.57196
5489.21,0.57271
5483.42,0.57131
5477.64,0.57213
5471.85,0.57217
5466.06,0.57300
5460.28,0.57134
5454.49,0.57450
5448.71,0.57328
5442.92,0.57455
5437.13,0.57668
5431.35,0.57558
5425.56,0.57547
5419.77,0.57730
5413.99,0.57738
5408.2,0.57686
5402.42,0.57951
5396.63,0.57998
5390.84,0.57870
5385.06,0.58010
5379.27,0.57901
5373.48,0.58026
5367.7,0.57990
5361.91,0.58113
5356.13,0.58160
5350.34,0.58154
5344.55,0.58178
5338.77,0.57997
5332.98,0.58108
5327.19,0.58206
5321.41,0.58066
5315.62,0.57998
5309.84,0.57742
5304.05,0.57778
5298.26,0.57665
5292.48,0.57550
5286.69,0.57429
5280.9,0.57351
5275.12,0.57301
5269.33,0.57105
5263.55,0.56943
5257.76,0.56540
5251.97,0.56492
5246.19,0.56156
5240.4,0.55965
5234.61,0.55748
5228.83,0.55578
5223.04,0.55462
5217.26,0.55333
5211.47,0.55140
5205.68,0.55188
5199.9,0.55096
5194.11,0.55035
5188.32,0.55174
5182.54,0.55113
5176.75,0.55158
5170.97,0.55036
5165.18,0.55037
5159.39,0.55030
5153.61,0.55292
5147.82,0.55222
5142.03,0.55212
5136.25,0.55471
5130.46,0.55416
5124.68,0.55415
5118.89,0.55483
5113.1,0.55650
5107.32,0.55665
5101.53,0.55636
5095.75,0.55695
5089.96,0.55849
5084.17,0.55882
5078.39,0.55958
5072.6,0.56000
5066.81,0.55932
5061.03,0.55988
5055.24,0.56042
5049.46,0.56032
5043.67,0.56013
5037.88,0.55990
5032.1,0.55995
5026.31,0.55976
5020.52,0.55954
5014.74,0.55900
5008.95,0.55749
5003.17,0.55727
4997.38,0.55683
4991.59,0.55643
4985.81,0.55542
4980.02,0.55317
4974.23,0.55118
4968.45,0.54924
4962.66,0.54850
4956.88,0.54498
4951.09,0.54203
4945.3,0.53938
4939.52,0.53507
4933.73,0.53134
4927.94,0.52824
4922.16,0.52254
4916.37,0.51797
4910.59,0.51188
4904.8,0.50719
4899.01,0.50255
4893.23,0.49631
4887.44,0.49096
4881.65,0.48596
4875.87,0.48008
4870.08,0.47433
4864.3,0.46996
4858.51,0.46650
4852.72,0.46196
4846.94,0.45630
4841.15,0.45284
4835.36,0.44766
4829.58,0.44346
4823.79,0.43827
4818.01,0.43462
4812.22,0.43160
4806.43,0.42896
4800.65,0.42594
4794.86,0.42350
4789.07,0.42266
4783.29,0.42128
4777.5,0.41922
4771.72,0.41692
4765.93,0.41634
4760.14,0.41584
4754.36,0.41529
4748.57,0.41574
4742.78,0.41674
4737,0.41744
4731.21,0.41854
4725.43,0.42006
4719.64,0.42384
4713.85,0.42603
4708.07,0.42783
4702.28,0.42930
4696.49,0.43224
4690.71,0.43540
4684.92,0.43851
4679.14,0.44044
4673.35,0.44188
4667.56,0.44490
4661.78,0.44717
4655.99,0.44929
4650.2,0.45269
4644.42,0.45345
4638.63,0.45554
4632.85,0.45881
4627.06,0.46097
4621.27,0.46230
4615.49,0.46395
4609.7,0.46773
4603.92,0.46984
4598.13,0.47130
4592.34,0.47300
4586.56,0.47609
4580.77,0.47800
4574.98,0.48047
4569.2,0.48304
4563.41,0.48468
4557.63,0.48699
4551.84,0.48845
4546.05,0.49014
4540.27,0.49262
4534.48,0.49334
4528.69,0.49445
4522.91,0.49614
4517.12,0.49730
4511.34,0.49818
4505.55,0.49801
4499.76,0.49943
4493.98,0.49977
4488.19,0.49980
4482.4,0.49971
4476.62,0.49897
4470.83,0.49912
4465.05,0.49617
4459.26,0.49459
4453.47,0.49081
4447.69,0.48548
4441.9,0.47919
4436.11,0.47292
4430.33,0.46573
4424.54,0.45679
4418.76,0.44757
4412.97,0.43791
4407.18,0.43027
4401.4,0.42412
4395.61,0.42327
4389.82,0.42567
4384.04,0.42889
4378.25,0.43288
4372.47,0.43615
4366.68,0.43799
4360.89,0.43793
4355.11,0.43708
4349.32,0.43453
4343.53,0.43284
4337.75,0.42994
4331.96,0.42672
4326.18,0.42270
4320.39,0.41857
4314.6,0.41651
4308.82,0.41304
4303.03,0.41021
4297.24,0.40689
4291.46,0.40525
4285.67,0.40146
4279.89,0.39949
4274.1,0.39884
4268.31,0.39867
4262.53,0.39959
4256.74,0.40016
4250.95,0.40134
4245.17,0.40142
4239.38,0.40262
4233.6,0.40431
4227.81,0.40518
4222.02,0.40582
4216.24,0.40686
4210.45,0.40861
4204.66,0.41155
4198.88,0.41393
4193.09,0.41543
4187.31,0.41495
4181.52,0.41527
4175.73,0.41610
4169.95,0.41841
4164.16,0.41986
4158.37,0.42060
4152.59,0.41962
4146.8,0.41751
4141.02,0.41655
4135.23,0.41592
4129.44,0.41421
4123.66,0.41199
4117.87,0.40728
4112.09,0.40325
4106.3,0.39757
4100.51,0.39163
4094.73,0.38397
4088.94,0.37743
4083.15,0.37197
4077.37,0.36515
4071.58,0.35888
4065.8,0.35138
4060.01,0.34350
4054.22,0.33558
4048.44,0.32793
4042.65,0.32132
4036.86,0.31581
4031.08,0.31237
4025.29,0.31027
4019.51,0.31110
4013.72,0.31199
4007.93,0.31435
4002.15,0.31817
3996.36,0.32205
3990.57,0.32475
3984.79,0.32707
3979,0.32996
3973.22,0.33160
3967.43,0.33435
3961.64,0.33710
3955.86,0.34018
3950.07,0.34293
3944.28,0.34566
3938.5,0.34932
3932.71,0.35352
3926.93,0.35641
3921.14,0.35995
3915.35,0.36212
3909.57,0.36406
3903.78,0.36662
3897.99,0.36880
3892.21,0.37050
3886.42,0.37319
3880.64,0.37474
3874.85,0.37610
3869.06,0.37890
3863.28,0.38365
3857.49,0.38847
3851.7,0.39245
3845.92,0.39542
3840.13,0.39925
3834.35,0.40116
3828.56,0.40242
3822.77,0.40366
3816.99,0.40354
3811.2,0.40337
3805.41,0.40401
3799.63,0.40530
3793.84,0.40691
3788.06,0.40761
3782.27,0.40830
3776.48,0.40821
3770.7,0.40813
3764.91,0.40806
3759.12,0.40737
3753.34,0.40687
3747.55,0.40563
3741.77,0.40445
3735.98,0.40192
3730.19,0.39992
3724.41,0.39678
3718.62,0.39313
3712.83,0.38837
3707.05,0.38286
3701.26,0.37790
3695.48,0.37125
3689.69,0.36345
3683.9,0.35484
3678.12,0.34352
3672.33,0.33211
3666.54,0.31913
3660.76,0.30510
3654.97,0.28942
3649.19,0.27463
3643.4,0.25948
3637.61,0.24355
3631.83,0.22814
3626.04,0.21184
3620.25,0.19559
3614.47,0.17846
3608.68,0.16300
3602.9,0.14819
3597.11,0.13485
3591.32,0.12227
3585.54,0.11184
3579.75,0.10166
3573.97,0.09348
3568.18,0.08577
3562.39,0.07880
3556.61,0.07296
3550.82,0.06708
3545.03,0.06234
3539.25,0.05809
3533.46,0.05393
3527.68,0.05060
3521.89,0.04701
3516.1,0.04444
3510.32,0.04159
3504.53,0.03876
3498.74,0.03755
3492.96,0.03543
3487.17,0.03408
3481.39,0.03215
3475.6,0.03200
3469.81,0.03115
3464.03,0.03075
3458.24,0.03087
3452.45,0.03037
3446.67,0.03032
3440.88,0.03026
3435.1,0.02962
3429.31,0.02971
3423.52,0.02971
3417.74,0.02958
3411.95,0.02968
3406.16,0.03024
3400.38,0.03059
3394.59,0.03076
3388.81,0.03132
3383.02,0.03113
3377.23,0.03104
3371.45,0.03163
3365.66,0.03154
3359.87,0.03247
3354.09,0.03365
3348.3,0.03540
3342.52,0.03742
3336.73,0.03910
3330.94,0.03961
3325.16,0.04004
3319.37,0.03956
3313.58,0.03880
3307.8,0.03888
3302.01,0.03979
3296.23,0.03967
3290.44,0.04097
3284.65,0.04080
3278.87,0.04238
3273.08,0.04274
3267.29,0.04419
3261.51,0.04531
3255.72,0.04618
3249.94,0.04784
3244.15,0.04836
3238.36,0.05040
3232.58,0.05204
3226.79,0.05384
3221,0.05574
3215.22,0.05759
3209.43,0.06016
3203.65,0.06183
3197.86,0.06476
3192.07,0.06748
3186.29,0.06966
3180.5,0.07231
3174.71,0.07543
3168.93,0.07786
3163.14,0.08101
3157.36,0.08352
3151.57,0.08729
3145.78,0.09022
3140,0.09421
3134.21,0.09713
3128.42,0.09964
3122.64,0.10346
3116.85,0.10729
3111.07,0.11134
3105.28,0.11538
3099.49,0.11922
3093.71,0.12237
3087.92,0.12619
3082.14,0.12994
3076.35,0.13433
3070.56,0.13791
3064.78,0.14156
3058.99,0.14440
3053.2,0.14696
3047.42,0.14947
3041.63,0.15253
3035.85,0.15519
3030.06,0.15708
3024.27,0.15898
3018.49,0.16086
3012.7,0.16172
3006.91,0.16276
3001.13,0.16055
2995.34,0.15707
2989.56,0.15041
2983.77,0.14025
2977.98,0.12249
2972.2,0.10234
2966.41,0.09152
2960.62,0.09106
2954.84,0.08554
2949.05,0.07835
2943.27,0.07385
2937.48,0.07365
2931.69,0.07192
2925.91,0.06778
2920.12,0.06349
2914.33,0.05876
2908.55,0.05589
2902.76,0.05470
2896.98,0.05607
2891.19,0.05898
2885.4,0.06183
2879.62,0.06367
2873.83,0.06521
2868.04,0.06569
2862.26,0.06825
2856.47,0.07080
2850.69,0.07492
2844.9,0.08260
2839.11,0.09082
2833.33,0.09839
2827.54,0.10416
2821.75,0.10980
2815.97,0.11700
2810.18,0.12339
2804.4,0.12858
2798.61,0.13348
2792.82,0.13678
2787.04,0.13834
2781.25,0.13966
2775.46,0.14044
2769.68,0.14107
2763.89,0.14201
2758.11,0.14252
2752.32,0.14298
2746.53,0.14272
2740.75,0.14174
2734.96,0.14168
2729.17,0.14371
2723.39,0.14488
2717.6,0.14660
2711.82,0.14919
2706.03,0.15323
2700.24,0.15755
2694.46,0.16172
2688.67,0.16657
2682.88,0.17068
2677.1,0.17384
2671.31,0.17658
2665.53,0.17768
2659.74,0.17918
2653.95,0.18184
2648.17,0.18434
2642.38,0.18728
2636.59,0.18964
2630.81,0.19230
2625.02,0.19463
2619.24,0.19718
2613.45,0.19883
2607.66,0.20040
2601.88,0.20263
2596.09,0.20479
2590.3,0.20619
2584.52,0.20740
2578.73,0.20752
2572.95,0.20794
2567.16,0.20656
2561.37,0.20529
2555.59,0.20385
2549.8,0.20287
2544.02,0.20169
2538.23,0.20175
2532.44,0.20223
2526.66,0.20394
2520.87,0.20489
2515.08,0.20594
2509.3,0.20948
2503.51,0.21437
2497.73,0.21955
2491.94,0.22379
2486.15,0.22701
2480.37,0.22971
2474.58,0.23302
2468.79,0.23581
2463.01,0.23773
2457.22,0.23879
2451.44,0.24156
2445.65,0.24429
2439.86,0.24779
2434.08,0.25175
2428.29,0.25564
2422.5,0.25956
2416.72,0.26335
2410.93,0.26626
2405.15,0.26941
2399.36,0.27198
2393.57,0.27492
2387.79,0.27784
2382,0.28072
2376.21,0.28480
2370.43,0.28857
2364.64,0.29167
2358.86,0.29418
2353.07,0.29655
2347.28,0.29965
2341.5,0.30239
2335.71,0.30499
2329.92,0.30720
2324.14,0.30951
2318.35,0.31133
2312.57,0.31259
2306.78,0.31271
2300.99,0.31152
2295.21,0.30958
2289.42,0.30845
2283.63,0.30800
2277.85,0.30660
2272.06,0.30371
2266.28,0.29854
2260.49,0.29353
2254.7,0.28970
2248.92,0.28785
2243.13,0.28643
2237.34,0.28497
2231.56,0.28486
2225.77,0.28659
2219.99,0.28950
2214.2,0.29345
2208.41,0.29566
2202.63,0.29646
2196.84,0.29495
2191.05,0.29198
2185.27,0.28728
2179.48,0.28148
2173.7,0.27475
2167.91,0.26810
2162.12,0.26287
2156.34,0.25894
2150.55,0.25579
2144.76,0.25268
2138.98,0.25060
2133.19,0.24950
2127.41,0.25204
2121.62,0.25573
2115.83,0.25892
2110.05,0.26303
2104.26,0.26648
2098.47,0.26938
2092.69,0.27195
2086.9,0.27417
2081.12,0.27540
2075.33,0.27485
2069.54,0.27341
2063.76,0.27331
2057.97,0.27361
2052.19,0.27336
2046.4,0.27349
2040.61,0.27559
2034.83,0.27910
2029.04,0.28510
2023.25,0.29202
2017.47,0.29850
2011.68,0.30398
2005.9,0.30742
2000.11,0.30905
1994.32,0.31145
1988.54,0.31591
1982.75,0.31933
1976.96,0.32128
1971.18,0.32239
1965.39,0.32374
1959.61,0.32541
1953.82,0.32832
1948.03,0.33279
1942.25,0.33814
1936.46,0.34276
1930.67,0.34675
1924.89,0.34951
1919.1,0.35126
1913.32,0.35297
1907.53,0.35395
1901.74,0.35422
1895.96,0.35338
1890.17,0.35237
1884.38,0.35112
1878.6,0.35055
1872.81,0.34927
1867.03,0.34803
1861.24,0.34600
1855.45,0.34347
1849.67,0.33965
1843.88,0.33536
1838.09,0.33166
1832.31,0.32965
1826.52,0.32716
1820.74,0.32414
1814.95,0.32098
1809.16,0.31739
1803.38,0.31385
1797.59,0.31008
1791.8,0.30723
1786.02,0.30364
1780.23,0.29987
1774.45,0.29545
1768.66,0.29042
1762.87,0.28608
1757.09,0.28214
1751.3,0.27785
1745.51,0.27158
1739.73,0.26432
1733.94,0.25976
1728.16,0.25652
1722.37,0.25530
1716.58,0.25371
1710.8,0.24949
1705.01,0.24370
1699.22,0.23388
1693.44,0.22048
1687.65,0.20483
1681.87,0.18692
1676.08,0.17341
1670.29,0.16519
1664.51,0.16138
1658.72,0.16110
1652.93,0.16439
1647.15,0.16631
1641.36,0.16742
1635.58,0.16723
1629.79,0.16830
1624,0.17133
1618.22,0.17423
1612.43,0.17576
1606.64,0.17653
1600.86,0.17717
1595.07,0.17799
1589.29,0.17858
1583.5,0.17747
1577.71,0.17616
1571.93,0.17718
1566.14,0.17804
1560.35,0.17826
1554.57,0.17687
1548.78,0.17438
1543,0.17106
1537.21,0.16893
1531.42,0.16830
1525.64,0.16526
1519.85,0.16076
1514.07,0.15521
1508.28,0.14875
1502.49,0.14064
1496.71,0.13067
1490.92,0.11611
1485.13,0.09510
1479.35,0.08299
1473.56,0.07625
1467.78,0.06619
1461.99,0.05705
1456.2,0.05198
1450.42,0.04939
1444.63,0.04701
1438.84,0.04314
1433.06,0.04027
1427.27,0.04181
1421.49,0.04704
1415.7,0.05372
1409.91,0.05575
1404.13,0.05553
1398.34,0.05486
1392.55,0.05245
1386.77,0.04631
1380.98,0.03947
1375.2,0.03627
1369.41,0.03642
1363.62,0.03798
1357.84,0.03842
1352.05,0.04040
1346.26,0.04047
1340.48,0.03826
1334.69,0.03857
1328.91,0.04011
1323.12,0.03901
1317.33,0.03936
1311.55,0.04339
1305.76,0.04834
1299.97,0.05171
1294.19,0.05132
1288.4,0.04850
1282.62,0.04531
1276.83,0.04897
1271.04,0.05190
1265.26,0.05273
1259.47,0.05176
1253.68,0.05000
1247.9,0.04823
1242.11,0.04823
1236.33,0.04640
1230.54,0.04825
1224.75,0.05036
1218.97,0.05035
1213.18,0.04456
1207.39,0.03662
1201.61,0.03585
1195.82,0.03626
1190.04,0.03569
1184.25,0.03393
1178.46,0.03434
1172.68,0.04220
1166.89,0.05142
1161.1,0.04886
1155.32,0.04165
1149.53,0.03692
1143.75,0.03203
1137.96,0.02694
1132.17,0.02445
1126.39,0.02616
1120.6,0.03014
1114.81,0.03573
1109.03,0.03934
1103.24,0.03750
1097.46,0.03532
1091.67,0.03338
1085.88,0.03471
1080.1,0.04426
1074.31,0.05568
1068.52,0.06777
1062.74,0.08325
1056.95,0.08043
1051.17,0.06956
1045.38,0.06023
1039.59,0.06487
1033.81,0.07338
1028.02,0.07054
1022.24,0.06730
1016.45,0.06758
1010.66,0.06845
1004.88,0.06674
999.09,0.06821
993.304,0.07105
987.518,0.07302
981.731,0.08339
975.945,0.09938
970.159,0.10987
964.373,0.11875
958.586,0.13132
952.8,0.14332
947.014,0.15177
941.228,0.15587
935.441,0.15618
929.655,0.15663
923.869,0.15806
918.083,0.15365
912.297,0.14114
906.51,0.13076
900.724,0.12226
894.938,0.12216
889.152,0.13415
883.365,0.14922
877.579,0.16301
871.793,0.17463
866.007,0.18071
860.22,0.18225
854.434,0.18106
848.648,0.17991
842.862,0.17634
837.075,0.17167
831.289,0.16755
825.503,0.16337
819.717,0.15832
813.931,0.15321
808.144,0.14780
802.358,0.14210
796.572,0.13676
790.786,0.13203
784.999,0.12696
779.213,0.12065
773.427,0.11467
767.641,0.10839
761.854,0.10077
756.068,0.09470
750.282,0.08850
744.496,0.08206
738.709,0.07641
732.923,0.07134
727.137,0.06374
721.351,0.05884
715.565,0.05519
709.778,0.05449
703.992,0.05424
698.206,0.05478
692.42,0.05553
686.633,0.05463
680.847,0.05269
675.061,0.05037
669.275,0.05022
663.488,0.05106
657.702,0.05332
651.916,0.05288
646.13,0.04969
640.343,0.04715
634.557,0.04212
628.771,0.04255
622.985,0.04446
617.198,0.04806
611.412,0.04783
605.626,0.05068
599.84,0.05465