File: 01_Data/Cotton_Sheet/FTIR/IS/Cotton_Sheet_IS_S_220826_R5.dpt
7497.03,0.62377
7491.25,0.61569
7485.46,0.60639
7479.67,0.61434
7473.89,0.62077
7468.1,0.61574
7462.32,0.62031
7456.53,0.61748
7450.74,0.60961
7444.96,0.60723
7439.17,0.61996
7433.38,0.61535
7427.6,0.61438
7421.81,0.61793
7416.03,0.61097
7410.24,0.61018
7404.45,0.60877
7398.67,0.60841
7392.88,0.61176
7387.09,0.61658
7381.31,0.61500
7375.52,0.61769
7369.74,0.60951
7363.95,0.61137
7358.16,0.60028
7352.38,0.60988
7346.59,0.60637
7340.8,0.60749
7335.02,0.61116
7329.23,0.61077
7323.45,0.59978
7317.66,0.59924
7311.87,0.60282
7306.09,0.59327
7300.3,0.59464
7294.51,0.60480
7288.73,0.60984
7282.94,0.60177
7277.16,0.60536
7271.37,0.60227
7265.58,0.59971
7259.8,0.60713
7254.01,0.61192
7248.22,0.60547
7242.44,0.60585
7236.65,0.60951
7230.87,0.60355
7225.08,0.59416
7219.29,0.59883
7213.51,0.60012
7207.72,0.60665
7201.93,0.60199
7196.15,0.61066
7190.36,0.60075
7184.58,0.60686
7178.79,0.60202
7173,0.60617
7167.22,0.60606
7161.43,0.60453
7155.65,0.60084
7149.86,0.60215
7144.07,0.59874
7138.29,0.60419
7132.5,0.60401
7126.71,0.60202
7120.93,0.59575
7115.14,0.59666
7109.36,0.59710
7103.57,0.59257
7097.78,0.58940
7092,0.58985
7086.21,0.59292
7080.42,0.59218
7074.64,0.58998
7068.85,0.59038
7063.07,0.58034
7057.28,0.58515
7051.49,0.58156
7045.71,0.58039
7039.92,0.58125
7034.13,0.57799
7028.35,0.57333
7022.56,0.57495
7016.78,0.56882
7010.99,0.56428
7005.2,0.56539
6999.42,0.56508
6993.63,0.55978
6987.84,0.56222
6982.06,0.56457
6976.27,0.56138
6970.49,0.55732
6964.7,0.55425
6958.91,0.55882
6953.13,0.55423
6947.34,0.55396
6941.55,0.55864
6935.77,0.55873
6929.98,0.55568
6924.2,0.55906
6918.41,0.55128
6912.62,0.55083
6906.84,0.55348
6901.05,0.54757
6895.26,0.55672
6889.48,0.55250
6883.69,0.54625
6877.91,0.54829
6872.12,0.54910
6866.33,0.54651
6860.55,0.54259
6854.76,0.54813
6848.97,0.54623
6843.19,0.54539
6837.4,0.54138
6831.62,0.53695
6825.83,0.53952
6820.04,0.54376
6814.26,0.54139
6808.47,0.53833
6802.68,0.53386
6796.9,0.53775
6791.11,0.53422
6785.33,0.53351
6779.54,0.53175
6773.75,0.53537
6767.97,0.53447
6762.18,0.53000
6756.39,0.52305
6750.61,0.52753
6744.82,0.52389
6739.04,0.51941
6733.25,0.52101
6727.46,0.52145
6721.68,0.52342
6715.89,0.52618
6710.1,0.52607
6704.32,0.52679
6698.53,0.52605
6692.75,0.52890
6686.96,0.52747
6681.17,0.52048
6675.39,0.52374
6669.6,0.52482
6663.82,0.52601
6658.03,0.52897
6652.24,0.52529
6646.46,0.52972
6640.67,0.52676
6634.88,0.52688
6629.1,0.53042
6623.31,0.53123
6617.53,0.53133
6611.74,0.52738
6605.95,0.52868
6600.17,0.52868
6594.38,0.53186
6588.59,0.53581
6582.81,0.53069
6577.02,0.53598
6571.24,0.53485
6565.45,0.53636
6559.66,0.53378
6553.88,0.53276
6548.09,0.53370
6542.3,0.53711
6536.52,0.53326
6530.73,0.53377
6524.95,0.52958
6519.16,0.53507
6513.37,0.53651
6507.59,0.53420
6501.8,0.53121
6496.01,0.53212
6490.23,0.52997
6484.44,0.53140
6478.66,0.53075
6472.87,0.53111
6467.08,0.53251
6461.3,0.53575
6455.51,0.52943
6449.72,0.53285
6443.94,0.53235
6438.15,0.53347
6432.37,0.53464
6426.58,0.53458
6420.79,0.53583
6415.01,0.53718
6409.22,0.53339
6403.43,0.53315
6397.65,0.53652
6391.86,0.53703
6386.08,0.53674
6380.29,0.53621
6374.5,0.53675
6368.72,0.53643
6362.93,0.54041
6357.14,0.53820
6351.36,0.53588
6345.57,0.53672
6339.79,0.53576
6334,0.53536
6328.21,0.53732
6322.43,0.53921
6316.64,0.53858
6310.85,0.53673
6305.07,0.53777
6299.28,0.53875
6293.5,0.54121
6287.71,0.53883
6281.92,0.53842
6276.14,0.54121
6270.35,0.54482
6264.56,0.54181
6258.78,0.54636
6252.99,0.54494
6247.21,0.55016
6241.42,0.54812
6235.63,0.55078
6229.85,0.55482
6224.06,0.55075
6218.27,0.55424
6212.49,0.55727
6206.7,0.55484
6200.92,0.56032
6195.13,0.56350
6189.34,0.56334
6183.56,0.56447
6177.77,0.56410
6171.98,0.56482
6166.2,0.56584
6160.41,0.57010
6154.63,0.56952
6148.84,0.56994
6143.05,0.57235
6137.27,0.57078
6131.48,0.57203
6125.7,0.57331
6119.91,0.57561
6114.12,0.57606
6108.34,0.57469
6102.55,0.57566
6096.76,0.57649
6090.98,0.58080
6085.19,0.58094
6079.41,0.57957
6073.62,0.58035
6067.83,0.57902
6062.05,0.58115
6056.26,0.58138
6050.47,0.58335
6044.69,0.58366
6038.9,0.58335
6033.12,0.58149
6027.33,0.58411
6021.54,0.58357
6015.76,0.58743
6009.97,0.59014
6004.18,0.58721
5998.4,0.58792
5992.61,0.58779
5986.83,0.59034
5981.04,0.58942
5975.25,0.58913
5969.47,0.58949
5963.68,0.58737
5957.89,0.58927
5952.11,0.59170
5946.32,0.58994
5940.54,0.59043
5934.75,0.58840
5928.96,0.58815
5923.18,0.58776
5917.39,0.58569
5911.6,0.58826
5905.82,0.58626
5900.03,0.58937
5894.25,0.58436
5888.46,0.58332
5882.67,0.58106
5876.89,0.58031
5871.1,0.57894
5865.31,0.58246
5859.53,0.58088
5853.74,0.57762
5847.96,0.57983
5842.17,0.58063
5836.38,0.58289
5830.6,0.57763
5824.81,0.57987
5819.02,0.57848
5813.24,0.58086
5807.45,0.58068
5801.67,0.58052
5795.88,0.58219
5790.09,0.57944
5784.31,0.57510
5778.52,0.57823
5772.73,0.57549
5766.95,0.57570
5761.16,0.57649
5755.38,0.57455
5749.59,0.57483
5743.8,0.57486
5738.02,0.57665
5732.23,0.57585
5726.44,0.57580
5720.66,0.57394
5714.87,0.57444
5709.09,0.57488
5703.3,0.57720
5697.51,0.57348
5691.73,0.57482
5685.94,0.57280
5680.15,0.57302
5674.37,0.57173
5668.58,0.57174
5662.8,0.57282
5657.01,0.57080
5651.22,0.57245
5645.44,0.57175
5639.65,0.56997
5633.87,0.57146
5628.08,0.56849
5622.29,0.57164
5616.51,0.57392
5610.72,0.57341
5604.93,0.57260
5599.15,0.57192
5593.36,0.57258
5587.58,0.57207
5581.79,0.57118
5576,0.57275
5570.22,0.57146
5564.43,0.57087
5558.64,0.57036
5552.86,0.57193
5547.07,0.57291
5541.29,0.57344
5535.5,0.57176
5529.71,0.57220
5523.93,0.57122
5518.14,0.57146
5512.35,0.57207
5506.57,0.57105
5500.78,0.57178
5495,0.57190
5489.21,0.57274
5483.42,0.57183
5477.64,0.57136
5471.85,0.57140
5466.06,0.57130
5460.28,0.57213
5454.49,0.57453
5448.71,0.57295
5442.92,0.57197
5437.13,0.57412
5431.35,0.57401
5425.56,0.57586
5419.77,0.57575
5413.99,0.57565
5408.2,0.57922
5402.42,0.57869
5396.63,0.57747
5390.84,0.57976
5385.06,0.57977
5379.27,0.58080
5373.48,0.57974
5367.7,0.58084
5361.91,0.58056
5356.13,0.58077
5350.34,0.58089
5344.55,0.58001
5338.77,0.58107
5332.98,0.57919
5327.19,0.58110
5321.41,0.57955
5315.62,0.57985
5309.84,0.57925
5304.05,0.57682
5298.26,0.57673
5292.48,0.57590
5286.69,0.57576
5280.9,0.57351
5275.12,0.57274
5269.33,0.56983
5263.55,0.56660
5257.76,0.56419
5251.97,0.56120
5246.19,0.55994
5240.4,0.55776
5234.61,0.55645
5228.83,0.55360
5223.04,0.55172
5217.26,0.55130
5211.47,0.54948
5205.68,0.54884
5199.9,0.54831
5194.11,0.54857
5188.32,0.54638
5182.54,0.54770
5176.75,0.54795
5170.97,0.54837
5165.18,0.54918
5159.39,0.54877
5153.61,0.54901
5147.82,0.54959
5142.03,0.54919
5136.25,0.55064
5130.46,0.55285
5124.68,0.55286
5118.89,0.55279
5113.1,0.55486
5107.32,0.55410
5101.53,0.55535
5095.75,0.55465
5089.96,0.55708
5084.17,0.55810
5078.39,0.55718
5072.6,0.55704
5066.81,0.55734
5061.03,0.55805
5055.24,0.55901
5049.46,0.55971
5043.67,0.55897
5037.88,0.55870
5032.1,0.55892
5026.31,0.55892
5020.52,0.55830
5014.74,0.55885
5008.95,0.55712
5003.17,0.55725
4997.38,0.55574
4991.59,0.55601
4985.81,0.55495
4980.02,0.55236
4974.23,0.55109
4968.45,0.54908
4962.66,0.54713
4956.88,0.54413
4951.09,0.54175
4945.3,0.53815
4939.52,0.53417
4933.73,0.53090
4927.94,0.52787
4922.16,0.52310
4916.37,0.51817
4910.59,0.51334
4904.8,0.50743
4899.01,0.50348
4893.23,0.49661
4887.44,0.49232
4881.65,0.48646
4875.87,0.48085
4870.08,0.47488
4864.3,0.47066
4858.51,0.46529
4852.72,0.46155
4846.94,0.45689
4841.15,0.45256
4835.36,0.44800
4829.58,0.44281
4823.79,0.43993
4818.01,0.43525
4812.22,0.43119
4806.43,0.42839
4800.65,0.42580
4794.86,0.42359
4789.07,0.42281
4783.29,0.42054
4777.5,0.41828
4771.72,0.41831
4765.93,0.41634
4760.14,0.41594
4754.36,0.41546
4748.57,0.41498
4742.78,0.41587
4737,0.41703
4731.21,0.41917
4725.43,0.42070
4719.64,0.42295
4713.85,0.42444
4708.07,0.42775
4702.28,0.42940
4696.49,0.43161
4690.71,0.43382
4684.92,0.43769
4679.14,0.44061
4673.35,0.44307
4667.56,0.44489
4661.78,0.44740
4655.99,0.44951
4650.2,0.45195
4644.42,0.45461
4638.63,0.45677
4632.85,0.45863
4627.06,0.46094
4621.27,0.46250
4615.49,0.46481
4609.7,0.46741
4603.92,0.46890
4598.13,0.47129
4592.34,0.47300
4586.56,0.47539
4580.77,0.47863
4574.98,0.48137
4569.2,0.48305
4563.41,0.48432
4557.63,0.48670
4551.84,0.48877
4546.05,0.49079
4540.27,0.49173
4534.48,0.49291
4528.69,0.49500
4522.91,0.49659
4517.12,0.49665
4511.34,0.49735
4505.55,0.49869
4499.76,0.49835
4493.98,0.49913
4488.19,0.50005
4482.4,0.50026
4476.62,0.49960
4470.83,0.49868
4465.05,0.49752
4459.26,0.49466
4453.47,0.49146
4447.69,0.48500
4441.9,0.48008
4436.11,0.47318
4430.33,0.46498
4424.54,0.45554
4418.76,0.44706
4412.97,0.43751
4407.18,0.43024
4401.4,0.42518
4395.61,0.42305
4389.82,0.42553
4384.04,0.42927
4378.25,0.43196
4372.47,0.43470
4366.68,0.43737
4360.89,0.43889
4355.11,0.43715
4349.32,0.43513
4343.53,0.43221
4337.75,0.42973
4331.96,0.42659
4326.18,0.42208
4320.39,0.41768
4314.6,0.41655
4308.82,0.41361
4303.03,0.41010
4297.24,0.40683
4291.46,0.40405
4285.67,0.40081
4279.89,0.40009
4274.1,0.39866
4268.31,0.39892
4262.53,0.39966
4256.74,0.40039
4250.95,0.40158
4245.17,0.40210
4239.38,0.40299
4233.6,0.40499
4227.81,0.40601
4222.02,0.40652
4216.24,0.40694
4210.45,0.40794
4204.66,0.41080
4198.88,0.41384
4193.09,0.41481
4187.31,0.41542
4181.52,0.41482
4175.73,0.41570
4169.95,0.41852
4164.16,0.42017
4158.37,0.42056
4152.59,0.41971
4146.8,0.41780
4141.02,0.41689
4135.23,0.41599
4129.44,0.41486
4123.66,0.41147
4117.87,0.40790
4112.09,0.40374
4106.3,0.39810
4100.51,0.39112
4094.73,0.38442
4088.94,0.37759
4083.15,0.37106
4077.37,0.36490
4071.58,0.35887
4065.8,0.35191
4060.01,0.34388
4054.22,0.33561
4048.44,0.32761
4042.65,0.32097
4036.86,0.31580
4031.08,0.31264
4025.29,0.31069
4019.51,0.31117
4013.72,0.31199
4007.93,0.31465
4002.15,0.31797
3996.36,0.32152
3990.57,0.32457
3984.79,0.32759
3979,0.32970
3973.22,0.33205
3967.43,0.33411
3961.64,0.33724
3955.86,0.34015
3950.07,0.34285
3944.28,0.34589
3938.5,0.34947
3932.71,0.35248
3926.93,0.35642
3921.14,0.35932
3915.35,0.36245
3909.57,0.36412
3903.78,0.36653
3897.99,0.36842
3892.21,0.37117
3886.42,0.37305
3880.64,0.37445
3874.85,0.37588
3869.06,0.37870
3863.28,0.38328
3857.49,0.38828
3851.7,0.39161
3845.92,0.39495
3840.13,0.39834
3834.35,0.40092
3828.56,0.40184
3822.77,0.40260
3816.99,0.40273
3811.2,0.40334
3805.41,0.40310
3799.63,0.40418
3793.84,0.40624
3788.06,0.40740
3782.27,0.40736
3776.48,0.40684
3770.7,0.40729
3764.91,0.40710
3759.12,0.40662
3753.34,0.40567
3747.55,0.40498
3741.77,0.40272
3735.98,0.40084
3730.19,0.39805
3724.41,0.39568
3718.62,0.39133
3712.83,0.38695
3707.05,0.38184
3701.26,0.37552
3695.48,0.36903
3689.69,0.36123
3683.9,0.35169
3678.12,0.34083
3672.33,0.32864
3666.54,0.31487
3660.76,0.30074
3654.97,0.28518
3649.19,0.26936
3643.4,0.25407
3637.61,0.23881
3631.83,0.22385
3626.04,0.20770
3620.25,0.19103
3614.47,0.17496
3608.68,0.15949
3602.9,0.14532
3597.11,0.13267
3591.32,0.12070
3585.54,0.10982
3579.75,0.10024
3573.97,0.09260
3568.18,0.08503
3562.39,0.07777
3556.61,0.07229
3550.82,0.06677
3545.03,0.06180
3539.25,0.05758
3533.46,0.05354
3527.68,0.05050
3521.89,0.04708
3516.1,0.04405
3510.32,0.04100
3504.53,0.03920
3498.74,0.03735
3492.96,0.03541
3487.17,0.03448
3481.39,0.03366
3475.6,0.03235
3469.81,0.03186
3464.03,0.03100
3458.24,0.03046
3452.45,0.03043
3446.67,0.03026
3440.88,0.03020
3435.1,0.02966
3429.31,0.02973
3423.52,0.02982
3417.74,0.02948
3411.95,0.02988
3406.16,0.02978
3400.38,0.02941
3394.59,0.02988
3388.81,0.03006
3383.02,0.03080
3377.23,0.03073
3371.45,0.03167
3365.66,0.03228
3359.87,0.03330
3354.09,0.03413
3348.3,0.03567
3342.52,0.03673
3336.73,0.03849
3330.94,0.04026
3325.16,0.03952
3319.37,0.03944
3313.58,0.03824
3307.8,0.03934
3302.01,0.03907
3296.23,0.04026
3290.44,0.04084
3284.65,0.04106
3278.87,0.04174
3273.08,0.04249
3267.29,0.04445
3261.51,0.04572
3255.72,0.04736
3249.94,0.04825
3244.15,0.04924
3238.36,0.05028
3232.58,0.05193
3226.79,0.05365
3221,0.05577
3215.22,0.05724
3209.43,0.05986
3203.65,0.06240
3197.86,0.06389
3192.07,0.06631
3186.29,0.06913
3180.5,0.07136
3174.71,0.07455
3168.93,0.07744
3163.14,0.08045
3157.36,0.08378
3151.57,0.08608
3145.78,0.09025
3140,0.09307
3134.21,0.09626
3128.42,0.09971
3122.64,0.10321
3116.85,0.10609
3111.07,0.11011
3105.28,0.11425
3099.49,0.11767
3093.71,0.12153
3087.92,0.12515
3082.14,0.12943
3076.35,0.13273
3070.56,0.13609
3064.78,0.13974
3058.99,0.14243
3053.2,0.14587
3047.42,0.14901
3041.63,0.15128
3035.85,0.15351
3030.06,0.15603
3024.27,0.15833
3018.49,0.15938
3012.7,0.16084
3006.91,0.16139
3001.13,0.15987
2995.34,0.15628
2989.56,0.14946
2983.77,0.13923
2977.98,0.12325
2972.2,0.10220
2966.41,0.09127
2960.62,0.09056
2954.84,0.08549
2949.05,0.07861
2943.27,0.07402
2937.48,0.07357
2931.69,0.07174
2925.91,0.06738
2920.12,0.06283
2914.33,0.05856
2908.55,0.05615
2902.76,0.05463
2896.98,0.05633
2891.19,0.05862
2885.4,0.06166
2879.62,0.06423
2873.83,0.06477
2868.04,0.06626
2862.26,0.06800
2856.47,0.07079
2850.69,0.07427
2844.9,0.08215
2839.11,0.09033
2833.33,0.09805
2827.54,0.10397
2821.75,0.10978
2815.97,0.11684
2810.18,0.12285
2804.4,0.12805
2798.61,0.13338
2792.82,0.13628
2787.04,0.13806
2781.25,0.13903
2775.46,0.14033
2769.68,0.14091
2763.89,0.14168
2758.11,0.14261
2752.32,0.14296
2746.53,0.14230
2740.75,0.14195
2734.96,0.14198
2729.17,0.14330
2723.39,0.14450
2717.6,0.14634
2711.82,0.14913
2706.03,0.15262
2700.24,0.15700
2694.46,0.16158
2688.67,0.16599
2682.88,0.16995
2677.1,0.17383
2671.31,0.17630
2665.53,0.17770
2659.74,0.17911
2653.95,0.18147
2648.17,0.18388
2642.38,0.18718
2636.59,0.18963
2630.81,0.19188
2625.02,0.19408
2619.24,0.19653
2613.45,0.19850
2607.66,0.20032
2601.88,0.20243
2596.09,0.20448
2590.3,0.20621
2584.52,0.20695
2578.73,0.20779
2572.95,0.20736
2567.16,0.20638
2561.37,0.20533
2555.59,0.20415
2549.8,0.20284
2544.02,0.20164
2538.23,0.20121
2532.44,0.20217
2526.66,0.20363
2520.87,0.20447
2515.08,0.20565
2509.3,0.20901
2503.51,0.21455
2497.73,0.21899
2491.94,0.22336
2486.15,0.22657
2480.37,0.22994
2474.58,0.23315
2468.79,0.23595
2463.01,0.23742
2457.22,0.23902
2451.44,0.24090
2445.65,0.24396
2439.86,0.24743
2434.08,0.25108
2428.29,0.25548
2422.5,0.25941
2416.72,0.26298
2410.93,0.26623
2405.15,0.26872
2399.36,0.27185
2393.57,0.27481
2387.79,0.27793
2382,0.28122
2376.21,0.28476
2370.43,0.28801
2364.64,0.29169
2358.86,0.29386
2353.07,0.29611
2347.28,0.29937
2341.5,0.30217
2335.71,0.30512
2329.92,0.30685
2324.14,0.30935
2318.35,0.31104
2312.57,0.31218
2306.78,0.31229
2300.99,0.31074
2295.21,0.30903
2289.42,0.30809
2283.63,0.30753
2277.85,0.30615
2272.06,0.30305
2266.28,0.29835
2260.49,0.29278
2254.7,0.28955
2248.92,0.28693
2243.13,0.28547
2237.34,0.28443
2231.56,0.28433
2225.77,0.28582
2219.99,0.28937
2214.2,0.29283
2208.41,0.29487
2202.63,0.29552
2196.84,0.29428
2191.05,0.29142
2185.27,0.28654
2179.48,0.28095
2173.7,0.27407
2167.91,0.26775
2162.12,0.26200
2156.34,0.25832
2150.55,0.25490
2144.76,0.25203
2138.98,0.24936
2133.19,0.24879
2127.41,0.25129
2121.62,0.25488
2115.83,0.25851
2110.05,0.26212
2104.26,0.26564
2098.47,0.26852
2092.69,0.27104
2086.9,0.27337
2081.12,0.27470
2075.33,0.27391
2069.54,0.27287
2063.76,0.27267
2057.97,0.27296
2052.19,0.27270
2046.4,0.27317
2040.61,0.27466
2034.83,0.27838
2029.04,0.28414
2023.25,0.29105
2017.47,0.29774
2011.68,0.30312
2005.9,0.30635
2000.11,0.30791
1994.32,0.31023
1988.54,0.31462
1982.75,0.31833
1976.96,0.32025
1971.18,0.32122
1965.39,0.32269
1959.61,0.32453
1953.82,0.32748
1948.03,0.33155
1942.25,0.33719
1936.46,0.34220
1930.67,0.34597
1924.89,0.34839
1919.1,0.35014
1913.32,0.35188
1907.53,0.35292
1901.74,0.35330
1895.96,0.35232
1890.17,0.35127
1884.38,0.35034
1878.6,0.34941
1872.81,0.34855
1867.03,0.34739
1861.24,0.34491
1855.45,0.34246
1849.67,0.33886
1843.88,0.33430
1838.09,0.33064
1832.31,0.32869
1826.52,0.32647
1820.74,0.32354
1814.95,0.32006
1809.16,0.31665
1803.38,0.31300
1797.59,0.30958
1791.8,0.30641
1786.02,0.30313
1780.23,0.29929
1774.45,0.29459
1768.66,0.28943
1762.87,0.28501
1757.09,0.28152
1751.3,0.27677
1745.51,0.27055
1739.73,0.26379
1733.94,0.25887
1728.16,0.25540
1722.37,0.25424
1716.58,0.25204
1710.8,0.24807
1705.01,0.24177
1699.22,0.23218
1693.44,0.21830
1687.65,0.20247
1681.87,0.18487
1676.08,0.17110
1670.29,0.16255
1664.51,0.15846
1658.72,0.15853
1652.93,0.16096
1647.15,0.16316
1641.36,0.16351
1635.58,0.16428
1629.79,0.16544
1624,0.16852
1618.22,0.17177
1612.43,0.17392
1606.64,0.17476
1600.86,0.17582
1595.07,0.17647
1589.29,0.17689
1583.5,0.17638
1577.71,0.17543
1571.93,0.17621
1566.14,0.17730
1560.35,0.17728
1554.57,0.17627
1548.78,0.17344
1543,0.16994
1537.21,0.16816
1531.42,0.16743
1525.64,0.16482
1519.85,0.16003
1514.07,0.15448
1508.28,0.14825
1502.49,0.14039
1496.71,0.13025
1490.92,0.11551
1485.13,0.09525
1479.35,0.08258
1473.56,0.07606
1467.78,0.06607
1461.99,0.05704
1456.2,0.05198
1450.42,0.04907
1444.63,0.04652
1438.84,0.04292
1433.06,0.03999
1427.27,0.04172
1421.49,0.04744
1415.7,0.05345
1409.91,0.05590
1404.13,0.05552
1398.34,0.05526
1392.55,0.05252
1386.77,0.04658
1380.98,0.03940
1375.2,0.03591
1369.41,0.03680
1363.62,0.03795
1357.84,0.03879
1352.05,0.04062
1346.26,0.04028
1340.48,0.03821
1334.69,0.03801
1328.91,0.04000
1323.12,0.03927
1317.33,0.03933
1311.55,0.04299
1305.76,0.04842
1299.97,0.05192
1294.19,0.05103
1288.4,0.04813
1282.62,0.04480
1276.83,0.04857
1271.04,0.05212
1265.26,0.05258
1259.47,0.05182
1253.68,0.05020
1247.9,0.04850
1242.11,0.04824
1236.33,0.04691
1230.54,0.04872
1224.75,0.05043
1218.97,0.05001
1213.18,0.04476
1207.39,0.03685
1201.61,0.03623
1195.82,0.03628
1190.04,0.03581
1184.25,0.03369
1178.46,0.03418
1172.68,0.04250
1166.89,0.05167
1161.1,0.04840
1155.32,0.04160
1149.53,0.03666
1143.75,0.03225
1137.96,0.02756
1132.17,0.02485
1126.39,0.02613
1120.6,0.02969
1114.81,0.03594
1109.03,0.03908
1103.24,0.03744
1097.46,0.03507
1091.67,0.03253
1085.88,0.03583
1080.1,0.04476
1074.31,0.05530
1068.52,0.06824
1062.74,0.08347
1056.95,0.08043
1051.17,0.07011
1045.38,0.06021
1039.59,0.06535
1033.81,0.07445
1028.02,0.07134
1022.24,0.06724
1016.45,0.06739
1010.66,0.06788
1004.88,0.06606
999.09,0.06823
993.304,0.07118
987.518,0.07376
981.731,0.08356
975.945,0.09973
970.159,0.11009
964.373,0.11928
958.586,0.13168
952.8,0.14272
947.014,0.15175
941.228,0.15520
935.441,0.15578
929.655,0.15582
923.869,0.15815
918.083,0.15213
912.297,0.14129
906.51,0.13054
900.724,0.12286
894.938,0.12257
889.152,0.13443
883.365,0.15010
877.579,0.16213
871.793,0.17305
866.007,0.17975
860.22,0.18103
854.434,0.18031
848.648,0.17759
842.862,0.17514
837.075,0.17095
831.289,0.16679
825.503,0.16181
819.717,0.15674
813.931,0.15093
808.144,0.14653
802.358,0.14092
796.572,0.13521
790.786,0.13099
784.999,0.12497
779.213,0.12002
773.427,0.11353
767.641,0.10714
761.854,0.10052
756.068,0.09305
750.282,0.08715
744.496,0.08146
738.709,0.07561
732.923,0.06933
727.137,0.06301
721.351,0.05847
715.565,0.05578
709.778,0.05420
703.992,0.05398
698.206,0.05446
692.42,0.05439
686.633,0.05392
680.847,0.05230
675.061,0.05030
669.275,0.04951
663.488,0.05074
657.702,0.05291
651.916,0.05112
646.13,0.05089
640.343,0.04696
634.557,0.04387
628.771,0.04379
622.985,0.04526
617.198,0.04737
611.412,0.05003
605.626,0.05287
599.84,0.05082