File: 01_Data/Cotton_Sheet/FTIR/IS/Cotton_Sheet_IS_S_220826_R2.dpt
7497.03,0.61393
7491.25,0.62843
7485.46,0.62287
7479.67,0.62213
7473.89,0.60649
7468.1,0.61476
7462.32,0.62091
7456.53,0.61972
7450.74,0.62766
7444.96,0.61510
7439.17,0.62007
7433.38,0.61438
7427.6,0.61389
7421.81,0.61258
7416.03,0.61911
7410.24,0.61038
7404.45,0.61210
7398.67,0.61646
7392.88,0.60608
7387.09,0.61146
7381.31,0.61200
7375.52,0.61598
7369.74,0.61059
7363.95,0.61067
7358.16,0.61883
7352.38,0.60996
7346.59,0.60582
7340.8,0.60573
7335.02,0.60379
7329.23,0.60965
7323.45,0.61158
7317.66,0.61050
7311.87,0.60869
7306.09,0.60154
7300.3,0.60617
7294.51,0.60688
7288.73,0.60476
7282.94,0.60880
7277.16,0.59914
7271.37,0.60306
7265.58,0.61025
7259.8,0.60879
7254.01,0.60852
7248.22,0.61381
7242.44,0.61178
7236.65,0.60632
7230.87,0.60700
7225.08,0.60555
7219.29,0.59736
7213.51,0.60533
7207.72,0.60115
7201.93,0.60385
7196.15,0.60319
7190.36,0.60656
7184.58,0.60480
7178.79,0.59947
7173,0.60076
7167.22,0.60376
7161.43,0.60427
7155.65,0.59754
7149.86,0.60275
7144.07,0.59735
7138.29,0.60053
7132.5,0.59947
7126.71,0.60726
7120.93,0.60167
7115.14,0.59453
7109.36,0.59386
7103.57,0.59600
7097.78,0.59504
7092,0.59052
7086.21,0.59605
7080.42,0.59261
7074.64,0.58757
7068.85,0.58928
7063.07,0.59160
7057.28,0.59202
7051.49,0.58469
7045.71,0.57857
7039.92,0.57400
7034.13,0.57714
7028.35,0.57432
7022.56,0.57500
7016.78,0.57092
7010.99,0.56356
7005.2,0.56845
6999.42,0.56108
6993.63,0.56739
6987.84,0.55846
6982.06,0.56625
6976.27,0.55902
6970.49,0.56017
6964.7,0.55709
6958.91,0.55805
6953.13,0.55482
6947.34,0.55196
6941.55,0.55074
6935.77,0.55452
6929.98,0.55651
6924.2,0.55616
6918.41,0.55007
6912.62,0.55651
6906.84,0.54783
6901.05,0.55261
6895.26,0.55221
6889.48,0.55195
6883.69,0.54508
6877.91,0.55056
6872.12,0.54628
6866.33,0.54717
6860.55,0.54698
6854.76,0.54513
6848.97,0.54034
6843.19,0.54363
6837.4,0.54045
6831.62,0.54036
6825.83,0.53490
6820.04,0.54301
6814.26,0.53816
6808.47,0.53490
6802.68,0.53772
6796.9,0.53498
6791.11,0.53395
6785.33,0.53244
6779.54,0.53205
6773.75,0.52559
6767.97,0.53017
6762.18,0.53116
6756.39,0.52501
6750.61,0.52502
6744.82,0.52145
6739.04,0.52267
6733.25,0.52395
6727.46,0.52629
6721.68,0.51969
6715.89,0.52756
6710.1,0.52244
6704.32,0.52628
6698.53,0.52325
6692.75,0.52430
6686.96,0.52160
6681.17,0.52120
6675.39,0.52218
6669.6,0.52549
6663.82,0.52758
6658.03,0.52265
6652.24,0.52309
6646.46,0.53041
6640.67,0.52811
6634.88,0.52753
6629.1,0.53348
6623.31,0.52871
6617.53,0.53060
6611.74,0.53022
6605.95,0.53065
6600.17,0.53483
6594.38,0.52986
6588.59,0.52881
6582.81,0.52850
6577.02,0.53288
6571.24,0.53013
6565.45,0.53098
6559.66,0.53196
6553.88,0.52947
6548.09,0.53045
6542.3,0.53073
6536.52,0.52838
6530.73,0.53204
6524.95,0.52896
6519.16,0.52856
6513.37,0.52883
6507.59,0.53025
6501.8,0.53027
6496.01,0.53087
6490.23,0.52768
6484.44,0.53014
6478.66,0.53482
6472.87,0.53201
6467.08,0.52902
6461.3,0.53109
6455.51,0.53212
6449.72,0.53326
6443.94,0.53314
6438.15,0.53257
6432.37,0.53252
6426.58,0.53029
6420.79,0.53529
6415.01,0.53630
6409.22,0.53475
6403.43,0.53424
6397.65,0.53491
6391.86,0.53761
6386.08,0.53587
6380.29,0.53483
6374.5,0.53654
6368.72,0.53442
6362.93,0.53785
6357.14,0.53600
6351.36,0.53763
6345.57,0.53874
6339.79,0.53737
6334,0.53749
6328.21,0.53820
6322.43,0.53915
6316.64,0.53921
6310.85,0.53867
6305.07,0.54021
6299.28,0.53631
6293.5,0.53768
6287.71,0.53650
6281.92,0.53783
6276.14,0.54671
6270.35,0.54091
6264.56,0.54638
6258.78,0.54438
6252.99,0.54363
6247.21,0.54681
6241.42,0.54506
6235.63,0.54899
6229.85,0.55250
6224.06,0.55311
6218.27,0.55335
6212.49,0.55730
6206.7,0.55441
6200.92,0.56059
6195.13,0.55922
6189.34,0.56119
6183.56,0.56391
6177.77,0.56229
6171.98,0.56410
6166.2,0.56607
6160.41,0.56599
6154.63,0.56607
6148.84,0.56687
6143.05,0.56949
6137.27,0.56870
6131.48,0.57082
6125.7,0.57230
6119.91,0.57231
6114.12,0.57297
6108.34,0.57571
6102.55,0.57608
6096.76,0.57748
6090.98,0.57695
6085.19,0.57484
6079.41,0.57546
6073.62,0.57932
6067.83,0.57931
6062.05,0.57894
6056.26,0.58059
6050.47,0.58082
6044.69,0.58580
6038.9,0.58352
6033.12,0.58243
6027.33,0.58324
6021.54,0.58426
6015.76,0.58654
6009.97,0.58860
6004.18,0.58654
5998.4,0.58969
5992.61,0.58744
5986.83,0.58483
5981.04,0.58793
5975.25,0.58917
5969.47,0.58954
5963.68,0.58854
5957.89,0.58917
5952.11,0.58862
5946.32,0.58757
5940.54,0.58767
5934.75,0.58633
5928.96,0.58667
5923.18,0.58700
5917.39,0.58214
5911.6,0.58413
5905.82,0.58562
5900.03,0.58453
5894.25,0.58316
5888.46,0.58263
5882.67,0.58053
5876.89,0.58023
5871.1,0.57948
5865.31,0.57862
5859.53,0.57765
5853.74,0.57799
5847.96,0.58133
5842.17,0.58047
5836.38,0.57998
5830.6,0.57870
5824.81,0.57843
5819.02,0.57771
5813.24,0.57537
5807.45,0.57962
5801.67,0.57636
5795.88,0.57878
5790.09,0.57791
5784.31,0.57787
5778.52,0.57667
5772.73,0.57587
5766.95,0.57623
5761.16,0.57675
5755.38,0.57449
5749.59,0.57589
5743.8,0.57563
5738.02,0.57501
5732.23,0.57510
5726.44,0.57495
5720.66,0.57550
5714.87,0.57594
5709.09,0.57559
5703.3,0.57477
5697.51,0.57242
5691.73,0.57406
5685.94,0.57405
5680.15,0.57215
5674.37,0.57274
5668.58,0.57197
5662.8,0.57049
5657.01,0.57216
5651.22,0.57342
5645.44,0.57434
5639.65,0.57131
5633.87,0.57031
5628.08,0.57170
5622.29,0.57208
5616.51,0.57131
5610.72,0.57029
5604.93,0.57022
5599.15,0.57242
5593.36,0.57140
5587.58,0.56944
5581.79,0.57344
5576,0.57250
5570.22,0.57052
5564.43,0.57158
5558.64,0.57163
5552.86,0.57191
5547.07,0.57294
5541.29,0.57094
5535.5,0.57157
5529.71,0.57143
5523.93,0.56970
5518.14,0.57117
5512.35,0.57267
5506.57,0.57206
5500.78,0.57045
5495,0.57009
5489.21,0.57160
5483.42,0.57000
5477.64,0.57163
5471.85,0.57286
5466.06,0.57263
5460.28,0.57060
5454.49,0.57293
5448.71,0.57497
5442.92,0.57355
5437.13,0.57382
5431.35,0.57527
5425.56,0.57541
5419.77,0.57751
5413.99,0.57617
5408.2,0.57571
5402.42,0.57882
5396.63,0.57713
5390.84,0.57933
5385.06,0.57889
5379.27,0.57897
5373.48,0.57876
5367.7,0.57949
5361.91,0.57908
5356.13,0.58060
5350.34,0.58001
5344.55,0.58045
5338.77,0.58054
5332.98,0.57931
5327.19,0.57886
5321.41,0.57897
5315.62,0.57931
5309.84,0.57728
5304.05,0.57492
5298.26,0.57430
5292.48,0.57325
5286.69,0.57165
5280.9,0.57098
5275.12,0.56727
5269.33,0.56475
5263.55,0.56193
5257.76,0.55908
5251.97,0.55568
5246.19,0.55274
5240.4,0.54939
5234.61,0.54716
5228.83,0.54401
5223.04,0.53973
5217.26,0.53998
5211.47,0.53946
5205.68,0.53752
5199.9,0.53802
5194.11,0.53717
5188.32,0.53648
5182.54,0.53746
5176.75,0.53599
5170.97,0.53716
5165.18,0.53674
5159.39,0.53752
5153.61,0.53879
5147.82,0.53883
5142.03,0.53904
5136.25,0.54086
5130.46,0.54166
5124.68,0.54215
5118.89,0.54361
5113.1,0.54485
5107.32,0.54602
5101.53,0.54782
5095.75,0.54753
5089.96,0.54934
5084.17,0.55060
5078.39,0.54959
5072.6,0.55083
5066.81,0.55181
5061.03,0.55227
5055.24,0.55295
5049.46,0.55314
5043.67,0.55387
5037.88,0.55483
5032.1,0.55351
5026.31,0.55388
5020.52,0.55272
5014.74,0.55312
5008.95,0.55391
5003.17,0.55330
4997.38,0.55174
4991.59,0.55234
4985.81,0.55085
4980.02,0.54957
4974.23,0.54729
4968.45,0.54679
4962.66,0.54463
4956.88,0.54239
4951.09,0.53934
4945.3,0.53599
4939.52,0.53321
4933.73,0.52977
4927.94,0.52600
4922.16,0.52166
4916.37,0.51713
4910.59,0.51384
4904.8,0.50869
4899.01,0.50289
4893.23,0.49667
4887.44,0.49017
4881.65,0.48570
4875.87,0.47977
4870.08,0.47622
4864.3,0.47065
4858.51,0.46542
4852.72,0.45993
4846.94,0.45659
4841.15,0.45198
4835.36,0.44718
4829.58,0.44308
4823.79,0.43887
4818.01,0.43514
4812.22,0.43204
4806.43,0.42941
4800.65,0.42586
4794.86,0.42426
4789.07,0.42091
4783.29,0.42027
4777.5,0.41880
4771.72,0.41741
4765.93,0.41691
4760.14,0.41545
4754.36,0.41516
4748.57,0.41501
4742.78,0.41583
4737,0.41652
4731.21,0.41777
4725.43,0.42056
4719.64,0.42272
4713.85,0.42449
4708.07,0.42649
4702.28,0.42888
4696.49,0.43096
4690.71,0.43412
4684.92,0.43690
4679.14,0.44030
4673.35,0.44253
4667.56,0.44443
4661.78,0.44658
4655.99,0.44889
4650.2,0.45049
4644.42,0.45384
4638.63,0.45517
4632.85,0.45754
4627.06,0.45990
4621.27,0.46215
4615.49,0.46401
4609.7,0.46658
4603.92,0.46897
4598.13,0.47080
4592.34,0.47235
4586.56,0.47443
4580.77,0.47758
4574.98,0.47969
4569.2,0.48165
4563.41,0.48406
4557.63,0.48662
4551.84,0.48863
4546.05,0.49047
4540.27,0.49194
4534.48,0.49280
4528.69,0.49422
4522.91,0.49470
4517.12,0.49660
4511.34,0.49739
4505.55,0.49827
4499.76,0.49928
4493.98,0.49838
4488.19,0.49923
4482.4,0.50030
4476.62,0.49905
4470.83,0.49840
4465.05,0.49670
4459.26,0.49471
4453.47,0.49046
4447.69,0.48546
4441.9,0.47949
4436.11,0.47220
4430.33,0.46529
4424.54,0.45589
4418.76,0.44628
4412.97,0.43708
4407.18,0.42969
4401.4,0.42416
4395.61,0.42381
4389.82,0.42497
4384.04,0.42884
4378.25,0.43220
4372.47,0.43610
4366.68,0.43749
4360.89,0.43840
4355.11,0.43611
4349.32,0.43395
4343.53,0.43210
4337.75,0.42948
4331.96,0.42592
4326.18,0.42190
4320.39,0.41777
4314.6,0.41545
4308.82,0.41297
4303.03,0.40938
4297.24,0.40667
4291.46,0.40373
4285.67,0.40094
4279.89,0.39938
4274.1,0.39840
4268.31,0.39884
4262.53,0.39936
4256.74,0.39959
4250.95,0.40058
4245.17,0.40165
4239.38,0.40152
4233.6,0.40348
4227.81,0.40527
4222.02,0.40529
4216.24,0.40616
4210.45,0.40786
4204.66,0.41011
4198.88,0.41277
4193.09,0.41463
4187.31,0.41527
4181.52,0.41398
4175.73,0.41491
4169.95,0.41722
4164.16,0.41842
4158.37,0.41936
4152.59,0.41821
4146.8,0.41610
4141.02,0.41510
4135.23,0.41456
4129.44,0.41344
4123.66,0.41026
4117.87,0.40651
4112.09,0.40200
4106.3,0.39655
4100.51,0.38990
4094.73,0.38260
4088.94,0.37587
4083.15,0.37064
4077.37,0.36466
4071.58,0.35733
4065.8,0.35002
4060.01,0.34235
4054.22,0.33522
4048.44,0.32687
4042.65,0.31990
4036.86,0.31511
4031.08,0.31139
4025.29,0.30951
4019.51,0.31030
4013.72,0.31158
4007.93,0.31313
4002.15,0.31677
3996.36,0.31990
3990.57,0.32343
3984.79,0.32626
3979,0.32900
3973.22,0.33084
3967.43,0.33325
3961.64,0.33619
3955.86,0.33832
3950.07,0.34163
3944.28,0.34456
3938.5,0.34817
3932.71,0.35185
3926.93,0.35564
3921.14,0.35778
3915.35,0.36020
3909.57,0.36228
3903.78,0.36581
3897.99,0.36720
3892.21,0.36972
3886.42,0.37146
3880.64,0.37266
3874.85,0.37448
3869.06,0.37783
3863.28,0.38190
3857.49,0.38654
3851.7,0.39015
3845.92,0.39300
3840.13,0.39652
3834.35,0.39801
3828.56,0.39960
3822.77,0.40029
3816.99,0.40044
3811.2,0.39980
3805.41,0.40083
3799.63,0.40168
3793.84,0.40303
3788.06,0.40354
3782.27,0.40378
3776.48,0.40381
3770.7,0.40381
3764.91,0.40331
3759.12,0.40206
3753.34,0.40141
3747.55,0.40020
3741.77,0.39818
3735.98,0.39646
3730.19,0.39309
3724.41,0.38952
3718.62,0.38533
3712.83,0.38048
3707.05,0.37493
3701.26,0.36820
3695.48,0.36101
3689.69,0.35220
3683.9,0.34140
3678.12,0.32962
3672.33,0.31574
3666.54,0.30025
3660.76,0.28425
3654.97,0.26827
3649.19,0.25191
3643.4,0.23592
3637.61,0.21981
3631.83,0.20464
3626.04,0.18992
3620.25,0.17567
3614.47,0.16112
3608.68,0.14745
3602.9,0.13484
3597.11,0.12303
3591.32,0.11283
3585.54,0.10335
3579.75,0.09520
3573.97,0.08829
3568.18,0.08119
3562.39,0.07495
3556.61,0.07001
3550.82,0.06517
3545.03,0.06005
3539.25,0.05620
3533.46,0.05262
3527.68,0.04920
3521.89,0.04680
3516.1,0.04326
3510.32,0.04074
3504.53,0.03910
3498.74,0.03727
3492.96,0.03566
3487.17,0.03462
3481.39,0.03364
3475.6,0.03174
3469.81,0.03166
3464.03,0.03121
3458.24,0.03014
3452.45,0.02973
3446.67,0.02986
3440.88,0.03045
3435.1,0.02952
3429.31,0.02958
3423.52,0.02964
3417.74,0.02970
3411.95,0.02924
3406.16,0.03017
3400.38,0.03060
3394.59,0.03066
3388.81,0.03106
3383.02,0.03053
3377.23,0.03068
3371.45,0.03063
3365.66,0.03276
3359.87,0.03321
3354.09,0.03434
3348.3,0.03554
3342.52,0.03771
3336.73,0.03924
3330.94,0.03992
3325.16,0.04026
3319.37,0.03961
3313.58,0.03879
3307.8,0.03897
3302.01,0.03973
3296.23,0.03980
3290.44,0.04006
3284.65,0.04079
3278.87,0.04241
3273.08,0.04350
3267.29,0.04429
3261.51,0.04571
3255.72,0.04650
3249.94,0.04780
3244.15,0.04791
3238.36,0.04976
3232.58,0.05116
3226.79,0.05224
3221,0.05450
3215.22,0.05679
3209.43,0.05817
3203.65,0.06045
3197.86,0.06278
3192.07,0.06528
3186.29,0.06732
3180.5,0.06959
3174.71,0.07178
3168.93,0.07488
3163.14,0.07860
3157.36,0.08086
3151.57,0.08365
3145.78,0.08650
3140,0.08995
3134.21,0.09322
3128.42,0.09595
3122.64,0.09933
3116.85,0.10294
3111.07,0.10688
3105.28,0.11021
3099.49,0.11339
3093.71,0.11751
3087.92,0.12081
3082.14,0.12487
3076.35,0.12798
3070.56,0.13135
3064.78,0.13511
3058.99,0.13785
3053.2,0.14137
3047.42,0.14417
3041.63,0.14655
3035.85,0.14923
3030.06,0.15144
3024.27,0.15345
3018.49,0.15518
3012.7,0.15596
3006.91,0.15647
3001.13,0.15622
2995.34,0.15323
2989.56,0.14701
2983.77,0.13717
2977.98,0.12201
2972.2,0.10145
2966.41,0.09117
2960.62,0.09036
2954.84,0.08515
2949.05,0.07817
2943.27,0.07384
2937.48,0.07381
2931.69,0.07221
2925.91,0.06819
2920.12,0.06303
2914.33,0.05819
2908.55,0.05597
2902.76,0.05477
2896.98,0.05583
2891.19,0.05902
2885.4,0.06136
2879.62,0.06364
2873.83,0.06524
2868.04,0.06570
2862.26,0.06767
2856.47,0.07051
2850.69,0.07481
2844.9,0.08204
2839.11,0.09040
2833.33,0.09750
2827.54,0.10401
2821.75,0.10985
2815.97,0.11609
2810.18,0.12227
2804.4,0.12727
2798.61,0.13212
2792.82,0.13539
2787.04,0.13739
2781.25,0.13842
2775.46,0.13867
2769.68,0.14032
2763.89,0.14107
2758.11,0.14130
2752.32,0.14194
2746.53,0.14157
2740.75,0.14088
2734.96,0.14094
2729.17,0.14210
2723.39,0.14326
2717.6,0.14547
2711.82,0.14823
2706.03,0.15184
2700.24,0.15626
2694.46,0.16056
2688.67,0.16495
2682.88,0.16891
2677.1,0.17257
2671.31,0.17564
2665.53,0.17689
2659.74,0.17843
2653.95,0.18035
2648.17,0.18319
2642.38,0.18614
2636.59,0.18847
2630.81,0.19130
2625.02,0.19354
2619.24,0.19562
2613.45,0.19769
2607.66,0.19962
2601.88,0.20153
2596.09,0.20340
2590.3,0.20516
2584.52,0.20589
2578.73,0.20690
2572.95,0.20711
2567.16,0.20559
2561.37,0.20410
2555.59,0.20328
2549.8,0.20175
2544.02,0.20042
2538.23,0.20046
2532.44,0.20100
2526.66,0.20287
2520.87,0.20364
2515.08,0.20476
2509.3,0.20813
2503.51,0.21369
2497.73,0.21826
2491.94,0.22260
2486.15,0.22630
2480.37,0.22939
2474.58,0.23198
2468.79,0.23478
2463.01,0.23675
2457.22,0.23828
2451.44,0.24053
2445.65,0.24359
2439.86,0.24685
2434.08,0.25056
2428.29,0.25476
2422.5,0.25854
2416.72,0.26194
2410.93,0.26506
2405.15,0.26778
2399.36,0.27067
2393.57,0.27396
2387.79,0.27635
2382,0.28000
2376.21,0.28335
2370.43,0.28713
2364.64,0.29040
2358.86,0.29225
2353.07,0.29452
2347.28,0.29709
2341.5,0.30093
2335.71,0.30313
2329.92,0.30525
2324.14,0.30695
2318.35,0.30927
2312.57,0.30983
2306.78,0.31015
2300.99,0.30887
2295.21,0.30709
2289.42,0.30570
2283.63,0.30513
2277.85,0.30393
2272.06,0.30060
2266.28,0.29547
2260.49,0.29040
2254.7,0.28730
2248.92,0.28487
2243.13,0.28349
2237.34,0.28245
2231.56,0.28170
2225.77,0.28294
2219.99,0.28623
2214.2,0.28985
2208.41,0.29216
2202.63,0.29244
2196.84,0.29094
2191.05,0.28821
2185.27,0.28332
2179.48,0.27732
2173.7,0.27109
2167.91,0.26468
2162.12,0.25904
2156.34,0.25507
2150.55,0.25231
2144.76,0.24925
2138.98,0.24679
2133.19,0.24583
2127.41,0.24846
2121.62,0.25188
2115.83,0.25513
2110.05,0.25894
2104.26,0.26243
2098.47,0.26507
2092.69,0.26769
2086.9,0.26998
2081.12,0.27126
2075.33,0.27017
2069.54,0.26882
2063.76,0.26905
2057.97,0.26931
2052.19,0.26940
2046.4,0.26988
2040.61,0.27143
2034.83,0.27490
2029.04,0.28074
2023.25,0.28771
2017.47,0.29440
2011.68,0.29968
2005.9,0.30286
2000.11,0.30427
1994.32,0.30675
1988.54,0.31081
1982.75,0.31465
1976.96,0.31661
1971.18,0.31796
1965.39,0.31903
1959.61,0.32057
1953.82,0.32389
1948.03,0.32825
1942.25,0.33334
1936.46,0.33810
1930.67,0.34168
1924.89,0.34424
1919.1,0.34654
1913.32,0.34773
1907.53,0.34905
1901.74,0.34899
1895.96,0.34799
1890.17,0.34747
1884.38,0.34634
1878.6,0.34573
1872.81,0.34436
1867.03,0.34311
1861.24,0.34123
1855.45,0.33851
1849.67,0.33498
1843.88,0.33051
1838.09,0.32739
1832.31,0.32492
1826.52,0.32241
1820.74,0.31974
1814.95,0.31657
1809.16,0.31292
1803.38,0.30899
1797.59,0.30546
1791.8,0.30247
1786.02,0.29931
1780.23,0.29542
1774.45,0.29063
1768.66,0.28573
1762.87,0.28129
1757.09,0.27706
1751.3,0.27287
1745.51,0.26633
1739.73,0.25913
1733.94,0.25459
1728.16,0.25040
1722.37,0.24865
1716.58,0.24637
1710.8,0.24098
1705.01,0.23458
1699.22,0.22467
1693.44,0.21020
1687.65,0.19453
1681.87,0.17657
1676.08,0.16294
1670.29,0.15364
1664.51,0.14906
1658.72,0.14861
1652.93,0.14987
1647.15,0.15102
1641.36,0.15106
1635.58,0.15212
1629.79,0.15414
1624,0.15804
1618.22,0.16260
1612.43,0.16575
1606.64,0.16772
1600.86,0.16996
1595.07,0.17156
1589.29,0.17211
1583.5,0.17214
1577.71,0.17173
1571.93,0.17294
1566.14,0.17409
1560.35,0.17435
1554.57,0.17326
1548.78,0.17040
1543,0.16709
1537.21,0.16557
1531.42,0.16495
1525.64,0.16231
1519.85,0.15805
1514.07,0.15230
1508.28,0.14672
1502.49,0.13880
1496.71,0.12897
1490.92,0.11454
1485.13,0.09407
1479.35,0.08235
1473.56,0.07522
1467.78,0.06565
1461.99,0.05681
1456.2,0.05174
1450.42,0.04931
1444.63,0.04687
1438.84,0.04306
1433.06,0.03973
1427.27,0.04166
1421.49,0.04678
1415.7,0.05359
1409.91,0.05597
1404.13,0.05582
1398.34,0.05540
1392.55,0.05279
1386.77,0.04650
1380.98,0.03972
1375.2,0.03627
1369.41,0.03668
1363.62,0.03803
1357.84,0.03876
1352.05,0.04095
1346.26,0.04071
1340.48,0.03849
1334.69,0.03876
1328.91,0.04041
1323.12,0.03940
1317.33,0.03962
1311.55,0.04354
1305.76,0.04805
1299.97,0.05214
1294.19,0.05122
1288.4,0.04858
1282.62,0.04520
1276.83,0.04910
1271.04,0.05265
1265.26,0.05277
1259.47,0.05197
1253.68,0.05058
1247.9,0.04845
1242.11,0.04867
1236.33,0.04685
1230.54,0.04851
1224.75,0.05145
1218.97,0.05071
1213.18,0.04479
1207.39,0.03663
1201.61,0.03561
1195.82,0.03603
1190.04,0.03619
1184.25,0.03395
1178.46,0.03387
1172.68,0.04195
1166.89,0.05134
1161.1,0.04926
1155.32,0.04264
1149.53,0.03690
1143.75,0.03247
1137.96,0.02733
1132.17,0.02417
1126.39,0.02585
1120.6,0.03032
1114.81,0.03570
1109.03,0.03945
1103.24,0.03661
1097.46,0.03410
1091.67,0.03265
1085.88,0.03512
1080.1,0.04444
1074.31,0.05541
1068.52,0.06704
1062.74,0.08335
1056.95,0.08100
1051.17,0.07034
1045.38,0.06022
1039.59,0.06496
1033.81,0.07352
1028.02,0.07089
1022.24,0.06762
1016.45,0.06691
1010.66,0.06796
1004.88,0.06606
999.09,0.06838
993.304,0.07176
987.518,0.07400
981.731,0.08355
975.945,0.09964
970.159,0.10974
964.373,0.11985
958.586,0.13108
952.8,0.14275
947.014,0.15201
941.228,0.15580
935.441,0.15500
929.655,0.15465
923.869,0.15639
918.083,0.15175
912.297,0.13919
906.51,0.12922
900.724,0.12124
894.938,0.12102
889.152,0.13313
883.365,0.14801
877.579,0.16011
871.793,0.17048
866.007,0.17550
860.22,0.17584
854.434,0.17506
848.648,0.17302
842.862,0.16930
837.075,0.16498
831.289,0.16107
825.503,0.15644
819.717,0.15190
813.931,0.14604
808.144,0.14022
802.358,0.13492
796.572,0.13035
790.786,0.12601
784.999,0.12104
779.213,0.11559
773.427,0.10920
767.641,0.10292
761.854,0.09697
756.068,0.09016
750.282,0.08398
744.496,0.07993
738.709,0.07337
732.923,0.06696
727.137,0.06163
721.351,0.05774
715.565,0.05387
709.778,0.05291
703.992,0.05472
698.206,0.05400
692.42,0.05481
686.633,0.05380
680.847,0.05198
675.061,0.05020
669.275,0.04893
663.488,0.05043
657.702,0.05126
651.916,0.05123
646.13,0.04966
640.343,0.04801
634.557,0.04249
628.771,0.04314
622.985,0.04468
617.198,0.04675
611.412,0.04814
605.626,0.04951
599.84,0.05120