File: 01_Data/Cotton_Sheet/FTIR/IS/Cotton_Sheet_IS_S_220826_R1.dpt
7497.03,0.62250
7491.25,0.61574
7485.46,0.62051
7479.67,0.60712
7473.89,0.61327
7468.1,0.61575
7462.32,0.61876
7456.53,0.62066
7450.74,0.63012
7444.96,0.61922
7439.17,0.61580
7433.38,0.61312
7427.6,0.60662
7421.81,0.61215
7416.03,0.61686
7410.24,0.60265
7404.45,0.61231
7398.67,0.61002
7392.88,0.60626
7387.09,0.61124
7381.31,0.60883
7375.52,0.62194
7369.74,0.61176
7363.95,0.60772
7358.16,0.60965
7352.38,0.61044
7346.59,0.61212
7340.8,0.61888
7335.02,0.60171
7329.23,0.60398
7323.45,0.60594
7317.66,0.60221
7311.87,0.60511
7306.09,0.60356
7300.3,0.59771
7294.51,0.60920
7288.73,0.60053
7282.94,0.59798
7277.16,0.59834
7271.37,0.59895
7265.58,0.60676
7259.8,0.59786
7254.01,0.59810
7248.22,0.59895
7242.44,0.60989
7236.65,0.59845
7230.87,0.59878
7225.08,0.60166
7219.29,0.60103
7213.51,0.60956
7207.72,0.59941
7201.93,0.60517
7196.15,0.59998
7190.36,0.59672
7184.58,0.60460
7178.79,0.59818
7173,0.59434
7167.22,0.60187
7161.43,0.60158
7155.65,0.59676
7149.86,0.60578
7144.07,0.60300
7138.29,0.59807
7132.5,0.60530
7126.71,0.59968
7120.93,0.59229
7115.14,0.59963
7109.36,0.59979
7103.57,0.59876
7097.78,0.59617
7092,0.58884
7086.21,0.58851
7080.42,0.58968
7074.64,0.58839
7068.85,0.58146
7063.07,0.58640
7057.28,0.58114
7051.49,0.58149
7045.71,0.57481
7039.92,0.57980
7034.13,0.57271
7028.35,0.57105
7022.56,0.56656
7016.78,0.56765
7010.99,0.56864
7005.2,0.56078
6999.42,0.55905
6993.63,0.55653
6987.84,0.56075
6982.06,0.55570
6976.27,0.55522
6970.49,0.55956
6964.7,0.55310
6958.91,0.56170
6953.13,0.55579
6947.34,0.55607
6941.55,0.54899
6935.77,0.55353
6929.98,0.54928
6924.2,0.54980
6918.41,0.54393
6912.62,0.54962
6906.84,0.54894
6901.05,0.55382
6895.26,0.55040
6889.48,0.54993
6883.69,0.54410
6877.91,0.54541
6872.12,0.54698
6866.33,0.54655
6860.55,0.53904
6854.76,0.53670
6848.97,0.54133
6843.19,0.54322
6837.4,0.54063
6831.62,0.53946
6825.83,0.53830
6820.04,0.53882
6814.26,0.53452
6808.47,0.53143
6802.68,0.53317
6796.9,0.53683
6791.11,0.52991
6785.33,0.52861
6779.54,0.52768
6773.75,0.52738
6767.97,0.52360
6762.18,0.52552
6756.39,0.52335
6750.61,0.52076
6744.82,0.52841
6739.04,0.52094
6733.25,0.51858
6727.46,0.52257
6721.68,0.52050
6715.89,0.52084
6710.1,0.52407
6704.32,0.52318
6698.53,0.52361
6692.75,0.52207
6686.96,0.52125
6681.17,0.52348
6675.39,0.52660
6669.6,0.52140
6663.82,0.52470
6658.03,0.52078
6652.24,0.52032
6646.46,0.52272
6640.67,0.51787
6634.88,0.52615
6629.1,0.52510
6623.31,0.52557
6617.53,0.52642
6611.74,0.52603
6605.95,0.52382
6600.17,0.52794
6594.38,0.52780
6588.59,0.52619
6582.81,0.52583
6577.02,0.53016
6571.24,0.52561
6565.45,0.53063
6559.66,0.53032
6553.88,0.53015
6548.09,0.52909
6542.3,0.53019
6536.52,0.52736
6530.73,0.53015
6524.95,0.53200
6519.16,0.52987
6513.37,0.53282
6507.59,0.52918
6501.8,0.52870
6496.01,0.52627
6490.23,0.52781
6484.44,0.52797
6478.66,0.52632
6472.87,0.52522
6467.08,0.52699
6461.3,0.52784
6455.51,0.53462
6449.72,0.52979
6443.94,0.53260
6438.15,0.52808
6432.37,0.52657
6426.58,0.52813
6420.79,0.52839
6415.01,0.53616
6409.22,0.53208
6403.43,0.53229
6397.65,0.53021
6391.86,0.53067
6386.08,0.53006
6380.29,0.53182
6374.5,0.53276
6368.72,0.53294
6362.93,0.53575
6357.14,0.53537
6351.36,0.53524
6345.57,0.53336
6339.79,0.53535
6334,0.53630
6328.21,0.53361
6322.43,0.53543
6316.64,0.53520
6310.85,0.53550
6305.07,0.53598
6299.28,0.53565
6293.5,0.53485
6287.71,0.53815
6281.92,0.54027
6276.14,0.53880
6270.35,0.54116
6264.56,0.54299
6258.78,0.54179
6252.99,0.54468
6247.21,0.54453
6241.42,0.54405
6235.63,0.54969
6229.85,0.54727
6224.06,0.54892
6218.27,0.55129
6212.49,0.55274
6206.7,0.55385
6200.92,0.55467
6195.13,0.55859
6189.34,0.55753
6183.56,0.55726
6177.77,0.56032
6171.98,0.56082
6166.2,0.56548
6160.41,0.56796
6154.63,0.56862
6148.84,0.56878
6143.05,0.56864
6137.27,0.57022
6131.48,0.56775
6125.7,0.56938
6119.91,0.57131
6114.12,0.57317
6108.34,0.57169
6102.55,0.57629
6096.76,0.57710
6090.98,0.57379
6085.19,0.57543
6079.41,0.57755
6073.62,0.57591
6067.83,0.57846
6062.05,0.57533
6056.26,0.57842
6050.47,0.58085
6044.69,0.57996
6038.9,0.58256
6033.12,0.58437
6027.33,0.58271
6021.54,0.58441
6015.76,0.58157
6009.97,0.58275
6004.18,0.58165
5998.4,0.58436
5992.61,0.58490
5986.83,0.58712
5981.04,0.58718
5975.25,0.58607
5969.47,0.58660
5963.68,0.58470
5957.89,0.58651
5952.11,0.58676
5946.32,0.58588
5940.54,0.58520
5934.75,0.58305
5928.96,0.58728
5923.18,0.58316
5917.39,0.58517
5911.6,0.58309
5905.82,0.58205
5900.03,0.58148
5894.25,0.58284
5888.46,0.58133
5882.67,0.57777
5876.89,0.57618
5871.1,0.57624
5865.31,0.57594
5859.53,0.57579
5853.74,0.57867
5847.96,0.57745
5842.17,0.57682
5836.38,0.57827
5830.6,0.57665
5824.81,0.57485
5819.02,0.57613
5813.24,0.57688
5807.45,0.57700
5801.67,0.57630
5795.88,0.57494
5790.09,0.57304
5784.31,0.57431
5778.52,0.57208
5772.73,0.57316
5766.95,0.57456
5761.16,0.57312
5755.38,0.57491
5749.59,0.57430
5743.8,0.57240
5738.02,0.57631
5732.23,0.57344
5726.44,0.57294
5720.66,0.57262
5714.87,0.57288
5709.09,0.57299
5703.3,0.57105
5697.51,0.57140
5691.73,0.57012
5685.94,0.57304
5680.15,0.57258
5674.37,0.56997
5668.58,0.56924
5662.8,0.56919
5657.01,0.56839
5651.22,0.56792
5645.44,0.57050
5639.65,0.56797
5633.87,0.56931
5628.08,0.57033
5622.29,0.56845
5616.51,0.57010
5610.72,0.56926
5604.93,0.56735
5599.15,0.56787
5593.36,0.56870
5587.58,0.56811
5581.79,0.56713
5576,0.56762
5570.22,0.56807
5564.43,0.56966
5558.64,0.56889
5552.86,0.56863
5547.07,0.56923
5541.29,0.57007
5535.5,0.57053
5529.71,0.56986
5523.93,0.57006
5518.14,0.56904
5512.35,0.57012
5506.57,0.56989
5500.78,0.56726
5495,0.56753
5489.21,0.56723
5483.42,0.56872
5477.64,0.56928
5471.85,0.56825
5466.06,0.56936
5460.28,0.57250
5454.49,0.57174
5448.71,0.57165
5442.92,0.57068
5437.13,0.57268
5431.35,0.57287
5425.56,0.57297
5419.77,0.57319
5413.99,0.57431
5408.2,0.57618
5402.42,0.57533
5396.63,0.57588
5390.84,0.57662
5385.06,0.57657
5379.27,0.57787
5373.48,0.57687
5367.7,0.57749
5361.91,0.57795
5356.13,0.57711
5350.34,0.57611
5344.55,0.57847
5338.77,0.57818
5332.98,0.57576
5327.19,0.57637
5321.41,0.57590
5315.62,0.57388
5309.84,0.57327
5304.05,0.57239
5298.26,0.57006
5292.48,0.56897
5286.69,0.56643
5280.9,0.56273
5275.12,0.55857
5269.33,0.55709
5263.55,0.55348
5257.76,0.54937
5251.97,0.54479
5246.19,0.54195
5240.4,0.53823
5234.61,0.53407
5228.83,0.52936
5223.04,0.52646
5217.26,0.52400
5211.47,0.52155
5205.68,0.52106
5199.9,0.52029
5194.11,0.51866
5188.32,0.51933
5182.54,0.51955
5176.75,0.51822
5170.97,0.51955
5165.18,0.52101
5159.39,0.52089
5153.61,0.52079
5147.82,0.52302
5142.03,0.52359
5136.25,0.52446
5130.46,0.52612
5124.68,0.52775
5118.89,0.52901
5113.1,0.52988
5107.32,0.53183
5101.53,0.53318
5095.75,0.53417
5089.96,0.53480
5084.17,0.53643
5078.39,0.53839
5072.6,0.53769
5066.81,0.53927
5061.03,0.54040
5055.24,0.54128
5049.46,0.54205
5043.67,0.54231
5037.88,0.54208
5032.1,0.54359
5026.31,0.54342
5020.52,0.54511
5014.74,0.54418
5008.95,0.54458
5003.17,0.54515
4997.38,0.54451
4991.59,0.54408
4985.81,0.54302
4980.02,0.54291
4974.23,0.54114
4968.45,0.53999
4962.66,0.53813
4956.88,0.53743
4951.09,0.53493
4945.3,0.53214
4939.52,0.52934
4933.73,0.52638
4927.94,0.52230
4922.16,0.51778
4916.37,0.51327
4910.59,0.51043
4904.8,0.50514
4899.01,0.50009
4893.23,0.49562
4887.44,0.48865
4881.65,0.48381
4875.87,0.47793
4870.08,0.47325
4864.3,0.46735
4858.51,0.46218
4852.72,0.45941
4846.94,0.45569
4841.15,0.45023
4835.36,0.44711
4829.58,0.44136
4823.79,0.43707
4818.01,0.43368
4812.22,0.43052
4806.43,0.42729
4800.65,0.42409
4794.86,0.42181
4789.07,0.42005
4783.29,0.41797
4777.5,0.41693
4771.72,0.41522
4765.93,0.41436
4760.14,0.41351
4754.36,0.41434
4748.57,0.41298
4742.78,0.41322
4737,0.41413
4731.21,0.41609
4725.43,0.41810
4719.64,0.42014
4713.85,0.42182
4708.07,0.42383
4702.28,0.42751
4696.49,0.42965
4690.71,0.43219
4684.92,0.43494
4679.14,0.43755
4673.35,0.44007
4667.56,0.44163
4661.78,0.44408
4655.99,0.44611
4650.2,0.44817
4644.42,0.44990
4638.63,0.45315
4632.85,0.45564
4627.06,0.45789
4621.27,0.45933
4615.49,0.46163
4609.7,0.46412
4603.92,0.46599
4598.13,0.46795
4592.34,0.47029
4586.56,0.47180
4580.77,0.47565
4574.98,0.47718
4569.2,0.48010
4563.41,0.48210
4557.63,0.48415
4551.84,0.48537
4546.05,0.48750
4540.27,0.48982
4534.48,0.49120
4528.69,0.49097
4522.91,0.49220
4517.12,0.49340
4511.34,0.49431
4505.55,0.49569
4499.76,0.49575
4493.98,0.49675
4488.19,0.49676
4482.4,0.49694
4476.62,0.49634
4470.83,0.49650
4465.05,0.49406
4459.26,0.49056
4453.47,0.48773
4447.69,0.48421
4441.9,0.47672
4436.11,0.47102
4430.33,0.46177
4424.54,0.45319
4418.76,0.44381
4412.97,0.43545
4407.18,0.42738
4401.4,0.42178
4395.61,0.41990
4389.82,0.42272
4384.04,0.42648
4378.25,0.43090
4372.47,0.43395
4366.68,0.43613
4360.89,0.43686
4355.11,0.43540
4349.32,0.43211
4343.53,0.43022
4337.75,0.42728
4331.96,0.42420
4326.18,0.41952
4320.39,0.41633
4314.6,0.41307
4308.82,0.41083
4303.03,0.40777
4297.24,0.40515
4291.46,0.40182
4285.67,0.39901
4279.89,0.39736
4274.1,0.39580
4268.31,0.39523
4262.53,0.39586
4256.74,0.39727
4250.95,0.39743
4245.17,0.39810
4239.38,0.39993
4233.6,0.40118
4227.81,0.40233
4222.02,0.40307
4216.24,0.40287
4210.45,0.40471
4204.66,0.40724
4198.88,0.40979
4193.09,0.41176
4187.31,0.41111
4181.52,0.41086
4175.73,0.41198
4169.95,0.41354
4164.16,0.41587
4158.37,0.41686
4152.59,0.41491
4146.8,0.41375
4141.02,0.41204
4135.23,0.41120
4129.44,0.40874
4123.66,0.40683
4117.87,0.40339
4112.09,0.39872
4106.3,0.39316
4100.51,0.38744
4094.73,0.38001
4088.94,0.37387
4083.15,0.36699
4077.37,0.36119
4071.58,0.35478
4065.8,0.34820
4060.01,0.34008
4054.22,0.33261
4048.44,0.32476
4042.65,0.31798
4036.86,0.31255
4031.08,0.30899
4025.29,0.30776
4019.51,0.30725
4013.72,0.30928
4007.93,0.31148
4002.15,0.31427
3996.36,0.31810
3990.57,0.32116
3984.79,0.32353
3979,0.32550
3973.22,0.32833
3967.43,0.33050
3961.64,0.33365
3955.86,0.33593
3950.07,0.33851
3944.28,0.34141
3938.5,0.34513
3932.71,0.34892
3926.93,0.35216
3921.14,0.35435
3915.35,0.35780
3909.57,0.35921
3903.78,0.36223
3897.99,0.36371
3892.21,0.36585
3886.42,0.36816
3880.64,0.36995
3874.85,0.37042
3869.06,0.37388
3863.28,0.37798
3857.49,0.38198
3851.7,0.38640
3845.92,0.38868
3840.13,0.39199
3834.35,0.39427
3828.56,0.39462
3822.77,0.39542
3816.99,0.39604
3811.2,0.39474
3805.41,0.39512
3799.63,0.39673
3793.84,0.39691
3788.06,0.39685
3782.27,0.39713
3776.48,0.39723
3770.7,0.39663
3764.91,0.39543
3759.12,0.39499
3753.34,0.39371
3747.55,0.39327
3741.77,0.39084
3735.98,0.38816
3730.19,0.38396
3724.41,0.37959
3718.62,0.37548
3712.83,0.36989
3707.05,0.36360
3701.26,0.35579
3695.48,0.34756
3689.69,0.33839
3683.9,0.32673
3678.12,0.31369
3672.33,0.29817
3666.54,0.28166
3660.76,0.26415
3654.97,0.24640
3649.19,0.23072
3643.4,0.21287
3637.61,0.19797
3631.83,0.18432
3626.04,0.16959
3620.25,0.15651
3614.47,0.14324
3608.68,0.13166
3602.9,0.12081
3597.11,0.11107
3591.32,0.10249
3585.54,0.09477
3579.75,0.08767
3573.97,0.08179
3568.18,0.07577
3562.39,0.07087
3556.61,0.06584
3550.82,0.06157
3545.03,0.05760
3539.25,0.05397
3533.46,0.05037
3527.68,0.04691
3521.89,0.04581
3516.1,0.04271
3510.32,0.04075
3504.53,0.03777
3498.74,0.03678
3492.96,0.03474
3487.17,0.03430
3481.39,0.03294
3475.6,0.03253
3469.81,0.03105
3464.03,0.03093
3458.24,0.03005
3452.45,0.03033
3446.67,0.02966
3440.88,0.02952
3435.1,0.02997
3429.31,0.02976
3423.52,0.02935
3417.74,0.02963
3411.95,0.02937
3406.16,0.02956
3400.38,0.02970
3394.59,0.03012
3388.81,0.03048
3383.02,0.03052
3377.23,0.03042
3371.45,0.03121
3365.66,0.03220
3359.87,0.03232
3354.09,0.03380
3348.3,0.03567
3342.52,0.03635
3336.73,0.03797
3330.94,0.03926
3325.16,0.03971
3319.37,0.03936
3313.58,0.03904
3307.8,0.03939
3302.01,0.03976
3296.23,0.04028
3290.44,0.04031
3284.65,0.04057
3278.87,0.04134
3273.08,0.04262
3267.29,0.04417
3261.51,0.04523
3255.72,0.04633
3249.94,0.04762
3244.15,0.04834
3238.36,0.04906
3232.58,0.05062
3226.79,0.05172
3221,0.05360
3215.22,0.05489
3209.43,0.05649
3203.65,0.05870
3197.86,0.06109
3192.07,0.06284
3186.29,0.06493
3180.5,0.06733
3174.71,0.06935
3168.93,0.07233
3163.14,0.07376
3157.36,0.07716
3151.57,0.07998
3145.78,0.08251
3140,0.08491
3134.21,0.08868
3128.42,0.09191
3122.64,0.09434
3116.85,0.09813
3111.07,0.10077
3105.28,0.10411
3099.49,0.10723
3093.71,0.11072
3087.92,0.11424
3082.14,0.11800
3076.35,0.12156
3070.56,0.12451
3064.78,0.12765
3058.99,0.13065
3053.2,0.13368
3047.42,0.13665
3041.63,0.13955
3035.85,0.14171
3030.06,0.14434
3024.27,0.14727
3018.49,0.14828
3012.7,0.15025
3006.91,0.15058
3001.13,0.14986
2995.34,0.14746
2989.56,0.14215
2983.77,0.13260
2977.98,0.11847
2972.2,0.09919
2966.41,0.09009
2960.62,0.08993
2954.84,0.08460
2949.05,0.07755
2943.27,0.07343
2937.48,0.07278
2931.69,0.07132
2925.91,0.06757
2920.12,0.06302
2914.33,0.05810
2908.55,0.05540
2902.76,0.05472
2896.98,0.05592
2891.19,0.05909
2885.4,0.06157
2879.62,0.06346
2873.83,0.06451
2868.04,0.06585
2862.26,0.06785
2856.47,0.07027
2850.69,0.07396
2844.9,0.08109
2839.11,0.08942
2833.33,0.09645
2827.54,0.10238
2821.75,0.10888
2815.97,0.11453
2810.18,0.12123
2804.4,0.12652
2798.61,0.13080
2792.82,0.13407
2787.04,0.13532
2781.25,0.13693
2775.46,0.13738
2769.68,0.13821
2763.89,0.13875
2758.11,0.14017
2752.32,0.14043
2746.53,0.13960
2740.75,0.13891
2734.96,0.13901
2729.17,0.14015
2723.39,0.14163
2717.6,0.14361
2711.82,0.14630
2706.03,0.15011
2700.24,0.15453
2694.46,0.15870
2688.67,0.16333
2682.88,0.16748
2677.1,0.17052
2671.31,0.17333
2665.53,0.17516
2659.74,0.17622
2653.95,0.17808
2648.17,0.18127
2642.38,0.18423
2636.59,0.18700
2630.81,0.18943
2625.02,0.19189
2619.24,0.19422
2613.45,0.19595
2607.66,0.19785
2601.88,0.20020
2596.09,0.20238
2590.3,0.20370
2584.52,0.20438
2578.73,0.20458
2572.95,0.20485
2567.16,0.20361
2561.37,0.20260
2555.59,0.20113
2549.8,0.20001
2544.02,0.19875
2538.23,0.19870
2532.44,0.19945
2526.66,0.20054
2520.87,0.20186
2515.08,0.20269
2509.3,0.20607
2503.51,0.21143
2497.73,0.21651
2491.94,0.22058
2486.15,0.22414
2480.37,0.22691
2474.58,0.23031
2468.79,0.23357
2463.01,0.23451
2457.22,0.23623
2451.44,0.23807
2445.65,0.24116
2439.86,0.24468
2434.08,0.24865
2428.29,0.25249
2422.5,0.25671
2416.72,0.26010
2410.93,0.26296
2405.15,0.26527
2399.36,0.26808
2393.57,0.27155
2387.79,0.27394
2382,0.27669
2376.21,0.28022
2370.43,0.28421
2364.64,0.28707
2358.86,0.28873
2353.07,0.29118
2347.28,0.29396
2341.5,0.29726
2335.71,0.29929
2329.92,0.30085
2324.14,0.30308
2318.35,0.30494
2312.57,0.30551
2306.78,0.30581
2300.99,0.30427
2295.21,0.30191
2289.42,0.30098
2283.63,0.30027
2277.85,0.29942
2272.06,0.29584
2266.28,0.29089
2260.49,0.28581
2254.7,0.28207
2248.92,0.28016
2243.13,0.27800
2237.34,0.27691
2231.56,0.27654
2225.77,0.27787
2219.99,0.28090
2214.2,0.28450
2208.41,0.28608
2202.63,0.28616
2196.84,0.28462
2191.05,0.28166
2185.27,0.27718
2179.48,0.27161
2173.7,0.26521
2167.91,0.25913
2162.12,0.25346
2156.34,0.24973
2150.55,0.24679
2144.76,0.24417
2138.98,0.24110
2133.19,0.24050
2127.41,0.24275
2121.62,0.24620
2115.83,0.24966
2110.05,0.25357
2104.26,0.25675
2098.47,0.25944
2092.69,0.26154
2086.9,0.26376
2081.12,0.26491
2075.33,0.26479
2069.54,0.26288
2063.76,0.26284
2057.97,0.26326
2052.19,0.26325
2046.4,0.26360
2040.61,0.26539
2034.83,0.26886
2029.04,0.27450
2023.25,0.28130
2017.47,0.28769
2011.68,0.29315
2005.9,0.29603
2000.11,0.29748
1994.32,0.30007
1988.54,0.30401
1982.75,0.30748
1976.96,0.30953
1971.18,0.31092
1965.39,0.31225
1959.61,0.31378
1953.82,0.31667
1948.03,0.32103
1942.25,0.32624
1936.46,0.33088
1930.67,0.33431
1924.89,0.33690
1919.1,0.33894
1913.32,0.34046
1907.53,0.34122
1901.74,0.34169
1895.96,0.34087
1890.17,0.34001
1884.38,0.33901
1878.6,0.33798
1872.81,0.33728
1867.03,0.33637
1861.24,0.33375
1855.45,0.33096
1849.67,0.32749
1843.88,0.32384
1838.09,0.32028
1832.31,0.31784
1826.52,0.31545
1820.74,0.31250
1814.95,0.30950
1809.16,0.30618
1803.38,0.30232
1797.59,0.29903
1791.8,0.29606
1786.02,0.29230
1780.23,0.28831
1774.45,0.28398
1768.66,0.27870
1762.87,0.27388
1757.09,0.26962
1751.3,0.26571
1745.51,0.25899
1739.73,0.25188
1733.94,0.24700
1728.16,0.24182
1722.37,0.23965
1716.58,0.23662
1710.8,0.23031
1705.01,0.22266
1699.22,0.21277
1693.44,0.19751
1687.65,0.18141
1681.87,0.16476
1676.08,0.15083
1670.29,0.14199
1664.51,0.13694
1658.72,0.13504
1652.93,0.13634
1647.15,0.13593
1641.36,0.13612
1635.58,0.13756
1629.79,0.14017
1624,0.14495
1618.22,0.15057
1612.43,0.15480
1606.64,0.15825
1600.86,0.16121
1595.07,0.16318
1589.29,0.16492
1583.5,0.16540
1577.71,0.16598
1571.93,0.16675
1566.14,0.16851
1560.35,0.16936
1554.57,0.16784
1548.78,0.16550
1543,0.16299
1537.21,0.16102
1531.42,0.16055
1525.64,0.15824
1519.85,0.15431
1514.07,0.14855
1508.28,0.14352
1502.49,0.13551
1496.71,0.12660
1490.92,0.11262
1485.13,0.09293
1479.35,0.08123
1473.56,0.07487
1467.78,0.06525
1461.99,0.05624
1456.2,0.05145
1450.42,0.04917
1444.63,0.04692
1438.84,0.04353
1433.06,0.04031
1427.27,0.04173
1421.49,0.04716
1415.7,0.05355
1409.91,0.05606
1404.13,0.05610
1398.34,0.05577
1392.55,0.05282
1386.77,0.04702
1380.98,0.03965
1375.2,0.03606
1369.41,0.03689
1363.62,0.03804
1357.84,0.03878
1352.05,0.04118
1346.26,0.04066
1340.48,0.03850
1334.69,0.03873
1328.91,0.04024
1323.12,0.03916
1317.33,0.03965
1311.55,0.04334
1305.76,0.04840
1299.97,0.05227
1294.19,0.05107
1288.4,0.04824
1282.62,0.04537
1276.83,0.04878
1271.04,0.05221
1265.26,0.05215
1259.47,0.05171
1253.68,0.05080
1247.9,0.04863
1242.11,0.04839
1236.33,0.04687
1230.54,0.04875
1224.75,0.05124
1218.97,0.05080
1213.18,0.04511
1207.39,0.03710
1201.61,0.03577
1195.82,0.03656
1190.04,0.03650
1184.25,0.03440
1178.46,0.03412
1172.68,0.04166
1166.89,0.05174
1161.1,0.04930
1155.32,0.04224
1149.53,0.03747
1143.75,0.03298
1137.96,0.02763
1132.17,0.02392
1126.39,0.02629
1120.6,0.03048
1114.81,0.03576
1109.03,0.03917
1103.24,0.03758
1097.46,0.03418
1091.67,0.03258
1085.88,0.03531
1080.1,0.04435
1074.31,0.05589
1068.52,0.06923
1062.74,0.08368
1056.95,0.08124
1051.17,0.06961
1045.38,0.06014
1039.59,0.06499
1033.81,0.07429
1028.02,0.07062
1022.24,0.06807
1016.45,0.06739
1010.66,0.06819
1004.88,0.06671
999.09,0.06861
993.304,0.07162
987.518,0.07377
981.731,0.08436
975.945,0.10037
970.159,0.10992
964.373,0.11929
958.586,0.13090
952.8,0.14274
947.014,0.15133
941.228,0.15460
935.441,0.15411
929.655,0.15350
923.869,0.15430
918.083,0.14965
912.297,0.13774
906.51,0.12763
900.724,0.11942
894.938,0.11962
889.152,0.13083
883.365,0.14497
877.579,0.15631
871.793,0.16467
866.007,0.16872
860.22,0.16886
854.434,0.16636
848.648,0.16391
842.862,0.16094
837.075,0.15735
831.289,0.15218
825.503,0.14787
819.717,0.14279
813.931,0.13725
808.144,0.13223
802.358,0.12728
796.572,0.12255
790.786,0.11825
784.999,0.11339
779.213,0.10870
773.427,0.10290
767.641,0.09815
761.854,0.09164
756.068,0.08568
750.282,0.08071
744.496,0.07494
738.709,0.07200
732.923,0.06600
727.137,0.05994
721.351,0.05543
715.565,0.05312
709.778,0.05246
703.992,0.05222
698.206,0.05397
692.42,0.05376
686.633,0.05295
680.847,0.05313
675.061,0.05047
669.275,0.04827
663.488,0.05028
657.702,0.05080
651.916,0.04999
646.13,0.04930
640.343,0.04584
634.557,0.04318
628.771,0.04344
622.985,0.04353
617.198,0.04553
611.412,0.04937
605.626,0.05282
599.84,0.05533