File: 01_Data/Cotton_Sheet/FTIR/IS/Cotton_Sheet_IS_S_220826_R6.dpt
7497.03,0.61577
7491.25,0.61131
7485.46,0.61309
7479.67,0.61423
7473.89,0.62545
7468.1,0.62829
7462.32,0.61822
7456.53,0.61076
7450.74,0.61521
7444.96,0.61076
7439.17,0.60941
7433.38,0.60630
7427.6,0.61309
7421.81,0.62086
7416.03,0.61461
7410.24,0.62167
7404.45,0.61209
7398.67,0.60611
7392.88,0.61190
7387.09,0.60868
7381.31,0.61032
7375.52,0.61879
7369.74,0.61138
7363.95,0.60598
7358.16,0.60827
7352.38,0.61061
7346.59,0.60229
7340.8,0.60790
7335.02,0.60175
7329.23,0.60958
7323.45,0.60160
7317.66,0.59663
7311.87,0.59938
7306.09,0.60712
7300.3,0.60901
7294.51,0.60903
7288.73,0.60747
7282.94,0.60732
7277.16,0.60272
7271.37,0.60609
7265.58,0.60169
7259.8,0.60637
7254.01,0.60459
7248.22,0.60258
7242.44,0.59620
7236.65,0.59417
7230.87,0.59802
7225.08,0.61394
7219.29,0.60991
7213.51,0.60477
7207.72,0.60543
7201.93,0.60819
7196.15,0.60558
7190.36,0.60798
7184.58,0.60434
7178.79,0.59973
7173,0.60336
7167.22,0.60156
7161.43,0.59767
7155.65,0.60431
7149.86,0.60367
7144.07,0.60150
7138.29,0.59691
7132.5,0.60131
7126.71,0.59744
7120.93,0.59791
7115.14,0.59597
7109.36,0.59966
7103.57,0.59324
7097.78,0.58898
7092,0.59399
7086.21,0.59106
7080.42,0.59279
7074.64,0.59211
7068.85,0.58534
7063.07,0.59305
7057.28,0.58424
7051.49,0.58779
7045.71,0.58315
7039.92,0.57816
7034.13,0.57466
7028.35,0.57009
7022.56,0.57069
7016.78,0.56950
7010.99,0.56752
7005.2,0.56843
6999.42,0.56282
6993.63,0.56459
6987.84,0.55863
6982.06,0.56205
6976.27,0.55879
6970.49,0.55962
6964.7,0.55686
6958.91,0.55654
6953.13,0.55540
6947.34,0.55417
6941.55,0.55237
6935.77,0.55342
6929.98,0.55246
6924.2,0.55575
6918.41,0.55341
6912.62,0.55193
6906.84,0.54967
6901.05,0.54932
6895.26,0.55435
6889.48,0.55273
6883.69,0.54502
6877.91,0.54788
6872.12,0.54881
6866.33,0.54611
6860.55,0.54325
6854.76,0.54565
6848.97,0.54728
6843.19,0.54115
6837.4,0.53681
6831.62,0.54093
6825.83,0.54048
6820.04,0.53901
6814.26,0.53903
6808.47,0.53633
6802.68,0.53643
6796.9,0.53485
6791.11,0.53071
6785.33,0.52995
6779.54,0.52913
6773.75,0.52792
6767.97,0.53021
6762.18,0.52883
6756.39,0.52655
6750.61,0.52780
6744.82,0.52195
6739.04,0.52498
6733.25,0.52652
6727.46,0.51742
6721.68,0.52355
6715.89,0.52452
6710.1,0.52470
6704.32,0.52327
6698.53,0.52416
6692.75,0.52557
6686.96,0.52635
6681.17,0.52487
6675.39,0.52404
6669.6,0.52658
6663.82,0.52825
6658.03,0.52776
6652.24,0.52850
6646.46,0.52666
6640.67,0.53132
6634.88,0.52928
6629.1,0.52898
6623.31,0.52981
6617.53,0.52900
6611.74,0.52637
6605.95,0.52992
6600.17,0.53094
6594.38,0.52948
6588.59,0.53638
6582.81,0.53176
6577.02,0.52966
6571.24,0.53155
6565.45,0.53525
6559.66,0.53256
6553.88,0.53458
6548.09,0.53472
6542.3,0.53318
6536.52,0.53142
6530.73,0.53388
6524.95,0.53421
6519.16,0.53145
6513.37,0.53044
6507.59,0.53123
6501.8,0.52785
6496.01,0.52844
6490.23,0.53106
6484.44,0.52896
6478.66,0.53388
6472.87,0.53508
6467.08,0.53223
6461.3,0.53507
6455.51,0.53170
6449.72,0.52930
6443.94,0.53291
6438.15,0.53374
6432.37,0.53527
6426.58,0.53506
6420.79,0.53353
6415.01,0.53572
6409.22,0.53569
6403.43,0.53465
6397.65,0.53621
6391.86,0.53878
6386.08,0.53596
6380.29,0.53518
6374.5,0.53913
6368.72,0.53889
6362.93,0.53627
6357.14,0.53756
6351.36,0.53652
6345.57,0.53656
6339.79,0.54000
6334,0.53589
6328.21,0.53690
6322.43,0.53952
6316.64,0.53895
6310.85,0.53586
6305.07,0.53836
6299.28,0.54021
6293.5,0.53852
6287.71,0.53914
6281.92,0.54395
6276.14,0.54597
6270.35,0.54484
6264.56,0.54287
6258.78,0.54583
6252.99,0.54708
6247.21,0.54918
6241.42,0.54438
6235.63,0.55158
6229.85,0.55275
6224.06,0.55164
6218.27,0.55333
6212.49,0.55218
6206.7,0.55524
6200.92,0.55756
6195.13,0.55757
6189.34,0.55974
6183.56,0.56374
6177.77,0.56277
6171.98,0.56511
6166.2,0.56662
6160.41,0.56416
6154.63,0.56942
6148.84,0.56823
6143.05,0.57051
6137.27,0.57058
6131.48,0.57268
6125.7,0.57496
6119.91,0.57281
6114.12,0.57343
6108.34,0.57452
6102.55,0.57764
6096.76,0.57668
6090.98,0.57780
6085.19,0.57951
6079.41,0.57910
6073.62,0.58027
6067.83,0.57912
6062.05,0.57922
6056.26,0.58318
6050.47,0.58242
6044.69,0.58308
6038.9,0.58631
6033.12,0.58506
6027.33,0.58347
6021.54,0.58603
6015.76,0.58501
6009.97,0.58381
6004.18,0.58772
5998.4,0.58751
5992.61,0.58800
5986.83,0.58638
5981.04,0.58546
5975.25,0.58694
5969.47,0.58849
5963.68,0.58972
5957.89,0.58487
5952.11,0.58637
5946.32,0.58781
5940.54,0.58836
5934.75,0.58989
5928.96,0.58669
5923.18,0.58341
5917.39,0.58714
5911.6,0.58631
5905.82,0.58518
5900.03,0.58392
5894.25,0.58450
5888.46,0.58244
5882.67,0.58225
5876.89,0.58148
5871.1,0.57927
5865.31,0.57923
5859.53,0.57913
5853.74,0.57862
5847.96,0.58089
5842.17,0.57892
5836.38,0.58042
5830.6,0.57822
5824.81,0.57806
5819.02,0.57964
5813.24,0.57687
5807.45,0.57735
5801.67,0.57728
5795.88,0.57988
5790.09,0.57820
5784.31,0.57685
5778.52,0.57555
5772.73,0.57449
5766.95,0.57465
5761.16,0.57455
5755.38,0.57557
5749.59,0.57477
5743.8,0.57738
5738.02,0.57566
5732.23,0.57797
5726.44,0.57359
5720.66,0.57422
5714.87,0.57539
5709.09,0.57335
5703.3,0.57445
5697.51,0.57450
5691.73,0.57285
5685.94,0.57056
5680.15,0.57330
5674.37,0.57178
5668.58,0.57288
5662.8,0.57204
5657.01,0.57050
5651.22,0.57080
5645.44,0.57096
5639.65,0.56890
5633.87,0.57143
5628.08,0.57148
5622.29,0.57142
5616.51,0.57134
5610.72,0.56959
5604.93,0.57100
5599.15,0.57166
5593.36,0.57242
5587.58,0.56954
5581.79,0.57146
5576,0.57057
5570.22,0.57219
5564.43,0.57122
5558.64,0.57210
5552.86,0.57306
5547.07,0.57060
5541.29,0.57177
5535.5,0.57049
5529.71,0.57057
5523.93,0.57221
5518.14,0.57341
5512.35,0.57235
5506.57,0.57078
5500.78,0.56951
5495,0.57166
5489.21,0.57145
5483.42,0.56990
5477.64,0.56981
5471.85,0.57043
5466.06,0.57105
5460.28,0.57134
5454.49,0.57245
5448.71,0.57197
5442.92,0.57233
5437.13,0.57473
5431.35,0.57435
5425.56,0.57332
5419.77,0.57503
5413.99,0.57596
5408.2,0.57677
5402.42,0.57808
5396.63,0.57840
5390.84,0.57844
5385.06,0.57744
5379.27,0.57792
5373.48,0.57959
5367.7,0.57973
5361.91,0.57979
5356.13,0.57880
5350.34,0.57992
5344.55,0.57741
5338.77,0.57872
5332.98,0.58018
5327.19,0.57978
5321.41,0.57840
5315.62,0.57856
5309.84,0.57859
5304.05,0.57672
5298.26,0.57578
5292.48,0.57660
5286.69,0.57440
5280.9,0.57273
5275.12,0.57096
5269.33,0.56865
5263.55,0.56714
5257.76,0.56296
5251.97,0.56191
5246.19,0.56078
5240.4,0.55802
5234.61,0.55595
5228.83,0.55345
5223.04,0.55297
5217.26,0.55023
5211.47,0.55029
5205.68,0.54917
5199.9,0.54909
5194.11,0.54830
5188.32,0.54962
5182.54,0.54726
5176.75,0.54689
5170.97,0.54743
5165.18,0.54890
5159.39,0.54910
5153.61,0.54834
5147.82,0.54939
5142.03,0.55157
5136.25,0.55130
5130.46,0.55156
5124.68,0.55364
5118.89,0.55261
5113.1,0.55315
5107.32,0.55536
5101.53,0.55561
5095.75,0.55646
5089.96,0.55610
5084.17,0.55722
5078.39,0.55799
5072.6,0.55762
5066.81,0.55858
5061.03,0.55887
5055.24,0.55849
5049.46,0.56015
5043.67,0.56010
5037.88,0.55745
5032.1,0.55752
5026.31,0.55758
5020.52,0.55898
5014.74,0.55846
5008.95,0.55633
5003.17,0.55497
4997.38,0.55438
4991.59,0.55443
4985.81,0.55400
4980.02,0.55245
4974.23,0.55023
4968.45,0.54808
4962.66,0.54556
4956.88,0.54348
4951.09,0.53966
4945.3,0.53732
4939.52,0.53338
4933.73,0.53061
4927.94,0.52621
4922.16,0.52175
4916.37,0.51735
4910.59,0.51236
4904.8,0.50599
4899.01,0.50120
4893.23,0.49679
4887.44,0.49108
4881.65,0.48505
4875.87,0.47940
4870.08,0.47398
4864.3,0.46922
4858.51,0.46511
4852.72,0.46034
4846.94,0.45559
4841.15,0.45222
4835.36,0.44641
4829.58,0.44193
4823.79,0.43736
4818.01,0.43363
4812.22,0.43113
4806.43,0.42773
4800.65,0.42503
4794.86,0.42326
4789.07,0.42114
4783.29,0.41958
4777.5,0.41916
4771.72,0.41718
4765.93,0.41583
4760.14,0.41494
4754.36,0.41435
4748.57,0.41531
4742.78,0.41565
4737,0.41701
4731.21,0.41722
4725.43,0.41963
4719.64,0.42227
4713.85,0.42352
4708.07,0.42610
4702.28,0.42864
4696.49,0.43091
4690.71,0.43371
4684.92,0.43697
4679.14,0.43899
4673.35,0.44102
4667.56,0.44366
4661.78,0.44586
4655.99,0.44881
4650.2,0.45115
4644.42,0.45334
4638.63,0.45547
4632.85,0.45737
4627.06,0.45992
4621.27,0.46089
4615.49,0.46339
4609.7,0.46678
4603.92,0.46892
4598.13,0.47039
4592.34,0.47188
4586.56,0.47459
4580.77,0.47769
4574.98,0.47966
4569.2,0.48220
4563.41,0.48358
4557.63,0.48610
4551.84,0.48772
4546.05,0.48995
4540.27,0.49158
4534.48,0.49306
4528.69,0.49361
4522.91,0.49506
4517.12,0.49660
4511.34,0.49676
4505.55,0.49711
4499.76,0.49821
4493.98,0.49837
4488.19,0.49845
4482.4,0.49869
4476.62,0.49784
4470.83,0.49819
4465.05,0.49609
4459.26,0.49342
4453.47,0.49035
4447.69,0.48554
4441.9,0.47932
4436.11,0.47198
4430.33,0.46459
4424.54,0.45519
4418.76,0.44575
4412.97,0.43641
4407.18,0.42801
4401.4,0.42341
4395.61,0.42256
4389.82,0.42483
4384.04,0.42748
4378.25,0.43170
4372.47,0.43511
4366.68,0.43740
4360.89,0.43696
4355.11,0.43541
4349.32,0.43390
4343.53,0.43082
4337.75,0.42946
4331.96,0.42600
4326.18,0.42193
4320.39,0.41758
4314.6,0.41510
4308.82,0.41296
4303.03,0.40928
4297.24,0.40638
4291.46,0.40392
4285.67,0.40037
4279.89,0.39884
4274.1,0.39833
4268.31,0.39751
4262.53,0.39804
4256.74,0.39978
4250.95,0.39990
4245.17,0.40084
4239.38,0.40131
4233.6,0.40376
4227.81,0.40542
4222.02,0.40522
4216.24,0.40602
4210.45,0.40772
4204.66,0.41045
4198.88,0.41232
4193.09,0.41468
4187.31,0.41486
4181.52,0.41475
4175.73,0.41567
4169.95,0.41705
4164.16,0.41873
4158.37,0.42002
4152.59,0.41971
4146.8,0.41730
4141.02,0.41621
4135.23,0.41531
4129.44,0.41369
4123.66,0.41100
4117.87,0.40698
4112.09,0.40215
4106.3,0.39727
4100.51,0.39053
4094.73,0.38392
4088.94,0.37682
4083.15,0.37060
4077.37,0.36462
4071.58,0.35781
4065.8,0.35064
4060.01,0.34292
4054.22,0.33510
4048.44,0.32688
4042.65,0.32010
4036.86,0.31515
4031.08,0.31225
4025.29,0.30994
4019.51,0.31015
4013.72,0.31113
4007.93,0.31382
4002.15,0.31686
3996.36,0.32092
3990.57,0.32375
3984.79,0.32626
3979,0.32847
3973.22,0.33123
3967.43,0.33362
3961.64,0.33625
3955.86,0.33931
3950.07,0.34186
3944.28,0.34532
3938.5,0.34906
3932.71,0.35268
3926.93,0.35626
3921.14,0.35914
3915.35,0.36179
3909.57,0.36359
3903.78,0.36577
3897.99,0.36799
3892.21,0.37017
3886.42,0.37222
3880.64,0.37396
3874.85,0.37505
3869.06,0.37775
3863.28,0.38264
3857.49,0.38706
3851.7,0.39091
3845.92,0.39506
3840.13,0.39784
3834.35,0.40039
3828.56,0.40180
3822.77,0.40182
3816.99,0.40308
3811.2,0.40236
3805.41,0.40239
3799.63,0.40381
3793.84,0.40540
3788.06,0.40656
3782.27,0.40671
3776.48,0.40724
3770.7,0.40675
3764.91,0.40657
3759.12,0.40625
3753.34,0.40532
3747.55,0.40425
3741.77,0.40262
3735.98,0.40090
3730.19,0.39774
3724.41,0.39438
3718.62,0.39141
3712.83,0.38699
3707.05,0.38159
3701.26,0.37605
3695.48,0.36983
3689.69,0.36172
3683.9,0.35271
3678.12,0.34209
3672.33,0.32962
3666.54,0.31612
3660.76,0.30201
3654.97,0.28722
3649.19,0.27170
3643.4,0.25576
3637.61,0.24034
3631.83,0.22534
3626.04,0.20954
3620.25,0.19326
3614.47,0.17715
3608.68,0.16211
3602.9,0.14692
3597.11,0.13330
3591.32,0.12112
3585.54,0.11065
3579.75,0.10130
3573.97,0.09287
3568.18,0.08571
3562.39,0.07897
3556.61,0.07279
3550.82,0.06692
3545.03,0.06220
3539.25,0.05821
3533.46,0.05439
3527.68,0.05059
3521.89,0.04767
3516.1,0.04419
3510.32,0.04164
3504.53,0.03921
3498.74,0.03763
3492.96,0.03590
3487.17,0.03477
3481.39,0.03355
3475.6,0.03268
3469.81,0.03221
3464.03,0.03077
3458.24,0.03034
3452.45,0.03017
3446.67,0.02994
3440.88,0.03022
3435.1,0.02956
3429.31,0.03009
3423.52,0.02986
3417.74,0.03054
3411.95,0.03044
3406.16,0.03060
3400.38,0.03020
3394.59,0.03019
3388.81,0.03010
3383.02,0.03052
3377.23,0.03153
3371.45,0.03136
3365.66,0.03218
3359.87,0.03327
3354.09,0.03443
3348.3,0.03576
3342.52,0.03714
3336.73,0.03835
3330.94,0.03927
3325.16,0.03925
3319.37,0.03971
3313.58,0.03976
3307.8,0.03960
3302.01,0.04034
3296.23,0.03998
3290.44,0.04035
3284.65,0.04088
3278.87,0.04174
3273.08,0.04290
3267.29,0.04435
3261.51,0.04561
3255.72,0.04687
3249.94,0.04799
3244.15,0.04946
3238.36,0.04971
3232.58,0.05159
3226.79,0.05442
3221,0.05533
3215.22,0.05846
3209.43,0.06003
3203.65,0.06219
3197.86,0.06461
3192.07,0.06680
3186.29,0.06896
3180.5,0.07208
3174.71,0.07505
3168.93,0.07767
3163.14,0.08138
3157.36,0.08402
3151.57,0.08688
3145.78,0.09036
3140,0.09333
3134.21,0.09626
3128.42,0.10009
3122.64,0.10358
3116.85,0.10724
3111.07,0.11088
3105.28,0.11465
3099.49,0.11868
3093.71,0.12199
3087.92,0.12609
3082.14,0.12955
3076.35,0.13319
3070.56,0.13696
3064.78,0.13979
3058.99,0.14264
3053.2,0.14588
3047.42,0.14894
3041.63,0.15206
3035.85,0.15428
3030.06,0.15627
3024.27,0.15860
3018.49,0.16037
3012.7,0.16115
3006.91,0.16159
3001.13,0.16010
2995.34,0.15643
2989.56,0.15059
2983.77,0.13914
2977.98,0.12305
2972.2,0.10257
2966.41,0.09152
2960.62,0.09074
2954.84,0.08580
2949.05,0.07838
2943.27,0.07391
2937.48,0.07362
2931.69,0.07163
2925.91,0.06771
2920.12,0.06280
2914.33,0.05843
2908.55,0.05598
2902.76,0.05496
2896.98,0.05557
2891.19,0.05896
2885.4,0.06136
2879.62,0.06393
2873.83,0.06491
2868.04,0.06587
2862.26,0.06823
2856.47,0.07121
2850.69,0.07487
2844.9,0.08225
2839.11,0.09071
2833.33,0.09758
2827.54,0.10433
2821.75,0.11012
2815.97,0.11648
2810.18,0.12290
2804.4,0.12844
2798.61,0.13292
2792.82,0.13626
2787.04,0.13827
2781.25,0.13911
2775.46,0.14006
2769.68,0.14097
2763.89,0.14186
2758.11,0.14239
2752.32,0.14236
2746.53,0.14198
2740.75,0.14170
2734.96,0.14159
2729.17,0.14271
2723.39,0.14438
2717.6,0.14615
2711.82,0.14900
2706.03,0.15335
2700.24,0.15721
2694.46,0.16144
2688.67,0.16580
2682.88,0.17019
2677.1,0.17342
2671.31,0.17623
2665.53,0.17733
2659.74,0.17850
2653.95,0.18061
2648.17,0.18383
2642.38,0.18648
2636.59,0.18926
2630.81,0.19176
2625.02,0.19437
2619.24,0.19624
2613.45,0.19782
2607.66,0.20021
2601.88,0.20214
2596.09,0.20403
2590.3,0.20588
2584.52,0.20695
2578.73,0.20714
2572.95,0.20700
2567.16,0.20616
2561.37,0.20483
2555.59,0.20357
2549.8,0.20264
2544.02,0.20097
2538.23,0.20061
2532.44,0.20193
2526.66,0.20309
2520.87,0.20425
2515.08,0.20490
2509.3,0.20855
2503.51,0.21396
2497.73,0.21902
2491.94,0.22303
2486.15,0.22666
2480.37,0.22980
2474.58,0.23262
2468.79,0.23562
2463.01,0.23707
2457.22,0.23835
2451.44,0.24058
2445.65,0.24369
2439.86,0.24715
2434.08,0.25117
2428.29,0.25513
2422.5,0.25876
2416.72,0.26253
2410.93,0.26522
2405.15,0.26850
2399.36,0.27162
2393.57,0.27427
2387.79,0.27722
2382,0.28014
2376.21,0.28389
2370.43,0.28788
2364.64,0.29128
2358.86,0.29362
2353.07,0.29550
2347.28,0.29840
2341.5,0.30209
2335.71,0.30451
2329.92,0.30645
2324.14,0.30857
2318.35,0.31029
2312.57,0.31141
2306.78,0.31184
2300.99,0.31075
2295.21,0.30877
2289.42,0.30738
2283.63,0.30706
2277.85,0.30566
2272.06,0.30263
2266.28,0.29767
2260.49,0.29277
2254.7,0.28930
2248.92,0.28709
2243.13,0.28527
2237.34,0.28406
2231.56,0.28371
2225.77,0.28499
2219.99,0.28851
2214.2,0.29256
2208.41,0.29498
2202.63,0.29539
2196.84,0.29373
2191.05,0.29079
2185.27,0.28641
2179.48,0.28062
2173.7,0.27408
2167.91,0.26698
2162.12,0.26161
2156.34,0.25822
2150.55,0.25491
2144.76,0.25217
2138.98,0.24932
2133.19,0.24873
2127.41,0.25136
2121.62,0.25476
2115.83,0.25816
2110.05,0.26194
2104.26,0.26566
2098.47,0.26848
2092.69,0.27111
2086.9,0.27312
2081.12,0.27460
2075.33,0.27393
2069.54,0.27259
2063.76,0.27245
2057.97,0.27247
2052.19,0.27242
2046.4,0.27267
2040.61,0.27448
2034.83,0.27822
2029.04,0.28413
2023.25,0.29072
2017.47,0.29756
2011.68,0.30313
2005.9,0.30634
2000.11,0.30759
1994.32,0.31015
1988.54,0.31450
1982.75,0.31807
1976.96,0.31989
1971.18,0.32066
1965.39,0.32210
1959.61,0.32399
1953.82,0.32724
1948.03,0.33160
1942.25,0.33695
1936.46,0.34159
1930.67,0.34576
1924.89,0.34824
1919.1,0.35012
1913.32,0.35167
1907.53,0.35289
1901.74,0.35309
1895.96,0.35219
1890.17,0.35085
1884.38,0.35039
1878.6,0.34933
1872.81,0.34848
1867.03,0.34659
1861.24,0.34469
1855.45,0.34201
1849.67,0.33834
1843.88,0.33411
1838.09,0.33042
1832.31,0.32835
1826.52,0.32599
1820.74,0.32312
1814.95,0.31983
1809.16,0.31618
1803.38,0.31279
1797.59,0.30908
1791.8,0.30643
1786.02,0.30285
1780.23,0.29881
1774.45,0.29427
1768.66,0.28926
1762.87,0.28477
1757.09,0.28090
1751.3,0.27696
1745.51,0.27075
1739.73,0.26358
1733.94,0.25867
1728.16,0.25512
1722.37,0.25401
1716.58,0.25226
1710.8,0.24818
1705.01,0.24201
1699.22,0.23277
1693.44,0.21920
1687.65,0.20350
1681.87,0.18550
1676.08,0.17174
1670.29,0.16332
1664.51,0.15965
1658.72,0.15972
1652.93,0.16244
1647.15,0.16440
1641.36,0.16513
1635.58,0.16547
1629.79,0.16648
1624,0.16951
1618.22,0.17287
1612.43,0.17470
1606.64,0.17540
1600.86,0.17622
1595.07,0.17712
1589.29,0.17743
1583.5,0.17671
1577.71,0.17541
1571.93,0.17670
1566.14,0.17737
1560.35,0.17743
1554.57,0.17615
1548.78,0.17364
1543,0.16965
1537.21,0.16802
1531.42,0.16761
1525.64,0.16487
1519.85,0.16022
1514.07,0.15483
1508.28,0.14829
1502.49,0.14018
1496.71,0.13031
1490.92,0.11553
1485.13,0.09517
1479.35,0.08273
1473.56,0.07591
1467.78,0.06605
1461.99,0.05667
1456.2,0.05149
1450.42,0.04952
1444.63,0.04680
1438.84,0.04341
1433.06,0.04015
1427.27,0.04182
1421.49,0.04690
1415.7,0.05340
1409.91,0.05572
1404.13,0.05549
1398.34,0.05512
1392.55,0.05249
1386.77,0.04677
1380.98,0.03976
1375.2,0.03621
1369.41,0.03660
1363.62,0.03772
1357.84,0.03838
1352.05,0.04045
1346.26,0.04049
1340.48,0.03828
1334.69,0.03853
1328.91,0.03979
1323.12,0.03909
1317.33,0.03919
1311.55,0.04309
1305.76,0.04826
1299.97,0.05198
1294.19,0.05106
1288.4,0.04823
1282.62,0.04501
1276.83,0.04821
1271.04,0.05204
1265.26,0.05251
1259.47,0.05156
1253.68,0.05007
1247.9,0.04829
1242.11,0.04816
1236.33,0.04663
1230.54,0.04832
1224.75,0.05068
1218.97,0.05006
1213.18,0.04449
1207.39,0.03634
1201.61,0.03545
1195.82,0.03638
1190.04,0.03655
1184.25,0.03405
1178.46,0.03411
1172.68,0.04212
1166.89,0.05205
1161.1,0.04831
1155.32,0.04190
1149.53,0.03631
1143.75,0.03231
1137.96,0.02699
1132.17,0.02416
1126.39,0.02591
1120.6,0.03053
1114.81,0.03553
1109.03,0.03890
1103.24,0.03772
1097.46,0.03474
1091.67,0.03306
1085.88,0.03564
1080.1,0.04431
1074.31,0.05530
1068.52,0.06835
1062.74,0.08321
1056.95,0.08062
1051.17,0.07056
1045.38,0.06035
1039.59,0.06568
1033.81,0.07369
1028.02,0.07086
1022.24,0.06735
1016.45,0.06687
1010.66,0.06776
1004.88,0.06672
999.09,0.06806
993.304,0.07127
987.518,0.07373
981.731,0.08300
975.945,0.09944
970.159,0.10961
964.373,0.11937
958.586,0.13087
952.8,0.14262
947.014,0.15172
941.228,0.15517
935.441,0.15568
929.655,0.15538
923.869,0.15777
918.083,0.15334
912.297,0.14138
906.51,0.13025
900.724,0.12252
894.938,0.12221
889.152,0.13357
883.365,0.14932
877.579,0.16290
871.793,0.17342
866.007,0.17978
860.22,0.18143
854.434,0.18046
848.648,0.17902
842.862,0.17510
837.075,0.17114
831.289,0.16775
825.503,0.16239
819.717,0.15833
813.931,0.15341
808.144,0.14756
802.358,0.14081
796.572,0.13642
790.786,0.13115
784.999,0.12670
779.213,0.12059
773.427,0.11366
767.641,0.10765
761.854,0.10063
756.068,0.09405
750.282,0.08781
744.496,0.08179
738.709,0.07627
732.923,0.07078
727.137,0.06413
721.351,0.05845
715.565,0.05507
709.778,0.05520
703.992,0.05471
698.206,0.05496
692.42,0.05540
686.633,0.05469
680.847,0.05277
675.061,0.05023
669.275,0.04990
663.488,0.05184
657.702,0.05304
651.916,0.05275
646.13,0.04910
640.343,0.04720
634.557,0.04483
628.771,0.04443
622.985,0.04514
617.198,0.04664
611.412,0.04813
605.626,0.05346
599.84,0.05490