File: 01_Data/Cotton_Sheet/FTIR/IS/Cotton_Sheet_IS_S_220826_R3.dpt
7497.03,0.62013
7491.25,0.62691
7485.46,0.61822
7479.67,0.61401
7473.89,0.61869
7468.1,0.61104
7462.32,0.61092
7456.53,0.62105
7450.74,0.61129
7444.96,0.61388
7439.17,0.61705
7433.38,0.61156
7427.6,0.61298
7421.81,0.61290
7416.03,0.60993
7410.24,0.61220
7404.45,0.61133
7398.67,0.61663
7392.88,0.60497
7387.09,0.61251
7381.31,0.61781
7375.52,0.61224
7369.74,0.61318
7363.95,0.60597
7358.16,0.60907
7352.38,0.61351
7346.59,0.60186
7340.8,0.60173
7335.02,0.60461
7329.23,0.59893
7323.45,0.60721
7317.66,0.60804
7311.87,0.60181
7306.09,0.61361
7300.3,0.60443
7294.51,0.61055
7288.73,0.60614
7282.94,0.60416
7277.16,0.60337
7271.37,0.61553
7265.58,0.60736
7259.8,0.60630
7254.01,0.60995
7248.22,0.60333
7242.44,0.60551
7236.65,0.60310
7230.87,0.60355
7225.08,0.60925
7219.29,0.60206
7213.51,0.60645
7207.72,0.60237
7201.93,0.60755
7196.15,0.60097
7190.36,0.60176
7184.58,0.59149
7178.79,0.60107
7173,0.59771
7167.22,0.60209
7161.43,0.59817
7155.65,0.60835
7149.86,0.60205
7144.07,0.60025
7138.29,0.61011
7132.5,0.60682
7126.71,0.59836
7120.93,0.60540
7115.14,0.60326
7109.36,0.60452
7103.57,0.60223
7097.78,0.59439
7092,0.58936
7086.21,0.58678
7080.42,0.58828
7074.64,0.58775
7068.85,0.58631
7063.07,0.58131
7057.28,0.58095
7051.49,0.58641
7045.71,0.57589
7039.92,0.57047
7034.13,0.57266
7028.35,0.56991
7022.56,0.57377
7016.78,0.56724
7010.99,0.56825
7005.2,0.56367
6999.42,0.56584
6993.63,0.56541
6987.84,0.56700
6982.06,0.56097
6976.27,0.55799
6970.49,0.56110
6964.7,0.55373
6958.91,0.56211
6953.13,0.55621
6947.34,0.55614
6941.55,0.55614
6935.77,0.55365
6929.98,0.54999
6924.2,0.55405
6918.41,0.55136
6912.62,0.55082
6906.84,0.55007
6901.05,0.55010
6895.26,0.54685
6889.48,0.55153
6883.69,0.54838
6877.91,0.54830
6872.12,0.54780
6866.33,0.54833
6860.55,0.54151
6854.76,0.53924
6848.97,0.54193
6843.19,0.54155
6837.4,0.53993
6831.62,0.53809
6825.83,0.54141
6820.04,0.53352
6814.26,0.53786
6808.47,0.53783
6802.68,0.53013
6796.9,0.53339
6791.11,0.53519
6785.33,0.52883
6779.54,0.53159
6773.75,0.52832
6767.97,0.53015
6762.18,0.52661
6756.39,0.52513
6750.61,0.52458
6744.82,0.52564
6739.04,0.52254
6733.25,0.52387
6727.46,0.52326
6721.68,0.52105
6715.89,0.52044
6710.1,0.52363
6704.32,0.52089
6698.53,0.52170
6692.75,0.52178
6686.96,0.52552
6681.17,0.52279
6675.39,0.52502
6669.6,0.52422
6663.82,0.52501
6658.03,0.52263
6652.24,0.52078
6646.46,0.52257
6640.67,0.52877
6634.88,0.52864
6629.1,0.52756
6623.31,0.52647
6617.53,0.52273
6611.74,0.52694
6605.95,0.52989
6600.17,0.52898
6594.38,0.52694
6588.59,0.53007
6582.81,0.53054
6577.02,0.53391
6571.24,0.53219
6565.45,0.53472
6559.66,0.53314
6553.88,0.52846
6548.09,0.52922
6542.3,0.53106
6536.52,0.53203
6530.73,0.53113
6524.95,0.53391
6519.16,0.53211
6513.37,0.53423
6507.59,0.53550
6501.8,0.53009
6496.01,0.53194
6490.23,0.53147
6484.44,0.53605
6478.66,0.53193
6472.87,0.53130
6467.08,0.53116
6461.3,0.53423
6455.51,0.53440
6449.72,0.53482
6443.94,0.53229
6438.15,0.53361
6432.37,0.53359
6426.58,0.53574
6420.79,0.53560
6415.01,0.53346
6409.22,0.53552
6403.43,0.53702
6397.65,0.53291
6391.86,0.53755
6386.08,0.53379
6380.29,0.53547
6374.5,0.53616
6368.72,0.53330
6362.93,0.53601
6357.14,0.53355
6351.36,0.53428
6345.57,0.53639
6339.79,0.53631
6334,0.53819
6328.21,0.53633
6322.43,0.53408
6316.64,0.53702
6310.85,0.53734
6305.07,0.53551
6299.28,0.53661
6293.5,0.54084
6287.71,0.53754
6281.92,0.54009
6276.14,0.54267
6270.35,0.54208
6264.56,0.54326
6258.78,0.54433
6252.99,0.54747
6247.21,0.54731
6241.42,0.55061
6235.63,0.55014
6229.85,0.54790
6224.06,0.55163
6218.27,0.55677
6212.49,0.55303
6206.7,0.55476
6200.92,0.55804
6195.13,0.55863
6189.34,0.56111
6183.56,0.56259
6177.77,0.56471
6171.98,0.56553
6166.2,0.56437
6160.41,0.56689
6154.63,0.56842
6148.84,0.56885
6143.05,0.57017
6137.27,0.57104
6131.48,0.57027
6125.7,0.57329
6119.91,0.57494
6114.12,0.57548
6108.34,0.57347
6102.55,0.57324
6096.76,0.57722
6090.98,0.57812
6085.19,0.57719
6079.41,0.57975
6073.62,0.58259
6067.83,0.58074
6062.05,0.58029
6056.26,0.58265
6050.47,0.58469
6044.69,0.58231
6038.9,0.58207
6033.12,0.58337
6027.33,0.58396
6021.54,0.58353
6015.76,0.58503
6009.97,0.58670
6004.18,0.58677
5998.4,0.58615
5992.61,0.58587
5986.83,0.58754
5981.04,0.58742
5975.25,0.59097
5969.47,0.58979
5963.68,0.58851
5957.89,0.58642
5952.11,0.58705
5946.32,0.58800
5940.54,0.58888
5934.75,0.58792
5928.96,0.58701
5923.18,0.58688
5917.39,0.58723
5911.6,0.58570
5905.82,0.58438
5900.03,0.58359
5894.25,0.58396
5888.46,0.57920
5882.67,0.58047
5876.89,0.57974
5871.1,0.57890
5865.31,0.58069
5859.53,0.57960
5853.74,0.57796
5847.96,0.57642
5842.17,0.57809
5836.38,0.57989
5830.6,0.58105
5824.81,0.57731
5819.02,0.57885
5813.24,0.57687
5807.45,0.57839
5801.67,0.57891
5795.88,0.57774
5790.09,0.57725
5784.31,0.57598
5778.52,0.57529
5772.73,0.57608
5766.95,0.57462
5761.16,0.57486
5755.38,0.57513
5749.59,0.57404
5743.8,0.57412
5738.02,0.57568
5732.23,0.57619
5726.44,0.57496
5720.66,0.57520
5714.87,0.57529
5709.09,0.57494
5703.3,0.57434
5697.51,0.57466
5691.73,0.57318
5685.94,0.57313
5680.15,0.57328
5674.37,0.57132
5668.58,0.57415
5662.8,0.57238
5657.01,0.57232
5651.22,0.57140
5645.44,0.57178
5639.65,0.57049
5633.87,0.57072
5628.08,0.57050
5622.29,0.57101
5616.51,0.57051
5610.72,0.56933
5604.93,0.57194
5599.15,0.57155
5593.36,0.57262
5587.58,0.57159
5581.79,0.57207
5576,0.57315
5570.22,0.57126
5564.43,0.57025
5558.64,0.57347
5552.86,0.57188
5547.07,0.57244
5541.29,0.57203
5535.5,0.57133
5529.71,0.57152
5523.93,0.57262
5518.14,0.57247
5512.35,0.57099
5506.57,0.57130
5500.78,0.57159
5495,0.57165
5489.21,0.57050
5483.42,0.57008
5477.64,0.57115
5471.85,0.56983
5466.06,0.57025
5460.28,0.57197
5454.49,0.57113
5448.71,0.57272
5442.92,0.57181
5437.13,0.57578
5431.35,0.57382
5425.56,0.57451
5419.77,0.57551
5413.99,0.57654
5408.2,0.57754
5402.42,0.57877
5396.63,0.57778
5390.84,0.57805
5385.06,0.57904
5379.27,0.57885
5373.48,0.57852
5367.7,0.57865
5361.91,0.57956
5356.13,0.58092
5350.34,0.58004
5344.55,0.57945
5338.77,0.58028
5332.98,0.57840
5327.19,0.57848
5321.41,0.57844
5315.62,0.57799
5309.84,0.57616
5304.05,0.57644
5298.26,0.57529
5292.48,0.57222
5286.69,0.57342
5280.9,0.56975
5275.12,0.56965
5269.33,0.56716
5263.55,0.56505
5257.76,0.56040
5251.97,0.55985
5246.19,0.55701
5240.4,0.55170
5234.61,0.55011
5228.83,0.54897
5223.04,0.54723
5217.26,0.54352
5211.47,0.54339
5205.68,0.54369
5199.9,0.54156
5194.11,0.54122
5188.32,0.54067
5182.54,0.53992
5176.75,0.54139
5170.97,0.54175
5165.18,0.54152
5159.39,0.54254
5153.61,0.54496
5147.82,0.54369
5142.03,0.54291
5136.25,0.54596
5130.46,0.54604
5124.68,0.54745
5118.89,0.54848
5113.1,0.54948
5107.32,0.55077
5101.53,0.55082
5095.75,0.55145
5089.96,0.55136
5084.17,0.55256
5078.39,0.55255
5072.6,0.55380
5066.81,0.55528
5061.03,0.55398
5055.24,0.55549
5049.46,0.55518
5043.67,0.55610
5037.88,0.55550
5032.1,0.55643
5026.31,0.55439
5020.52,0.55452
5014.74,0.55430
5008.95,0.55355
5003.17,0.55337
4997.38,0.55442
4991.59,0.55300
4985.81,0.55083
4980.02,0.55010
4974.23,0.54945
4968.45,0.54726
4962.66,0.54553
4956.88,0.54185
4951.09,0.54041
4945.3,0.53721
4939.52,0.53316
4933.73,0.52954
4927.94,0.52638
4922.16,0.52250
4916.37,0.51778
4910.59,0.51211
4904.8,0.50721
4899.01,0.50150
4893.23,0.49699
4887.44,0.49101
4881.65,0.48444
4875.87,0.47879
4870.08,0.47511
4864.3,0.47012
4858.51,0.46526
4852.72,0.46038
4846.94,0.45737
4841.15,0.45150
4835.36,0.44655
4829.58,0.44250
4823.79,0.43834
4818.01,0.43401
4812.22,0.43100
4806.43,0.42831
4800.65,0.42433
4794.86,0.42299
4789.07,0.42082
4783.29,0.41991
4777.5,0.41875
4771.72,0.41726
4765.93,0.41600
4760.14,0.41482
4754.36,0.41492
4748.57,0.41554
4742.78,0.41464
4737,0.41704
4731.21,0.41870
4725.43,0.42000
4719.64,0.42238
4713.85,0.42325
4708.07,0.42536
4702.28,0.42887
4696.49,0.43113
4690.71,0.43453
4684.92,0.43737
4679.14,0.43969
4673.35,0.44149
4667.56,0.44307
4661.78,0.44624
4655.99,0.44854
4650.2,0.45121
4644.42,0.45331
4638.63,0.45458
4632.85,0.45712
4627.06,0.45974
4621.27,0.46205
4615.49,0.46462
4609.7,0.46574
4603.92,0.46812
4598.13,0.47057
4592.34,0.47225
4586.56,0.47394
4580.77,0.47694
4574.98,0.47912
4569.2,0.48146
4563.41,0.48311
4557.63,0.48501
4551.84,0.48736
4546.05,0.49014
4540.27,0.49146
4534.48,0.49326
4528.69,0.49381
4522.91,0.49564
4517.12,0.49620
4511.34,0.49674
4505.55,0.49626
4499.76,0.49758
4493.98,0.49867
4488.19,0.49825
4482.4,0.49946
4476.62,0.49846
4470.83,0.49840
4465.05,0.49623
4459.26,0.49390
4453.47,0.48997
4447.69,0.48548
4441.9,0.47925
4436.11,0.47233
4430.33,0.46474
4424.54,0.45536
4418.76,0.44664
4412.97,0.43694
4407.18,0.42897
4401.4,0.42350
4395.61,0.42172
4389.82,0.42466
4384.04,0.42793
4378.25,0.43179
4372.47,0.43506
4366.68,0.43622
4360.89,0.43633
4355.11,0.43614
4349.32,0.43347
4343.53,0.43182
4337.75,0.42966
4331.96,0.42708
4326.18,0.42169
4320.39,0.41790
4314.6,0.41493
4308.82,0.41215
4303.03,0.40925
4297.24,0.40581
4291.46,0.40293
4285.67,0.40076
4279.89,0.39893
4274.1,0.39750
4268.31,0.39738
4262.53,0.39834
4256.74,0.39969
4250.95,0.40014
4245.17,0.40113
4239.38,0.40272
4233.6,0.40357
4227.81,0.40470
4222.02,0.40588
4216.24,0.40554
4210.45,0.40761
4204.66,0.41033
4198.88,0.41249
4193.09,0.41428
4187.31,0.41386
4181.52,0.41449
4175.73,0.41494
4169.95,0.41691
4164.16,0.41907
4158.37,0.41925
4152.59,0.41779
4146.8,0.41654
4141.02,0.41517
4135.23,0.41448
4129.44,0.41278
4123.66,0.41075
4117.87,0.40653
4112.09,0.40150
4106.3,0.39654
4100.51,0.38993
4094.73,0.38330
4088.94,0.37584
4083.15,0.36980
4077.37,0.36361
4071.58,0.35756
4065.8,0.34979
4060.01,0.34258
4054.22,0.33464
4048.44,0.32715
4042.65,0.32006
4036.86,0.31497
4031.08,0.31170
4025.29,0.30953
4019.51,0.30968
4013.72,0.31138
4007.93,0.31340
4002.15,0.31730
3996.36,0.32137
3990.57,0.32376
3984.79,0.32642
3979,0.32891
3973.22,0.33056
3967.43,0.33328
3961.64,0.33629
3955.86,0.33887
3950.07,0.34175
3944.28,0.34476
3938.5,0.34855
3932.71,0.35163
3926.93,0.35504
3921.14,0.35837
3915.35,0.36121
3909.57,0.36264
3903.78,0.36449
3897.99,0.36754
3892.21,0.36942
3886.42,0.37216
3880.64,0.37290
3874.85,0.37416
3869.06,0.37751
3863.28,0.38232
3857.49,0.38629
3851.7,0.39019
3845.92,0.39394
3840.13,0.39710
3834.35,0.39901
3828.56,0.40038
3822.77,0.40072
3816.99,0.40085
3811.2,0.40079
3805.41,0.40168
3799.63,0.40258
3793.84,0.40373
3788.06,0.40424
3782.27,0.40480
3776.48,0.40433
3770.7,0.40477
3764.91,0.40474
3759.12,0.40382
3753.34,0.40298
3747.55,0.40191
3741.77,0.39978
3735.98,0.39770
3730.19,0.39501
3724.41,0.39123
3718.62,0.38755
3712.83,0.38241
3707.05,0.37737
3701.26,0.37087
3695.48,0.36477
3689.69,0.35657
3683.9,0.34628
3678.12,0.33457
3672.33,0.32183
3666.54,0.30721
3660.76,0.29224
3654.97,0.27642
3649.19,0.26079
3643.4,0.24428
3637.61,0.22885
3631.83,0.21387
3626.04,0.19856
3620.25,0.18301
3614.47,0.16788
3608.68,0.15332
3602.9,0.13973
3597.11,0.12808
3591.32,0.11697
3585.54,0.10662
3579.75,0.09776
3573.97,0.09024
3568.18,0.08253
3562.39,0.07675
3556.61,0.07095
3550.82,0.06626
3545.03,0.06086
3539.25,0.05673
3533.46,0.05314
3527.68,0.05010
3521.89,0.04657
3516.1,0.04356
3510.32,0.04181
3504.53,0.04019
3498.74,0.03750
3492.96,0.03522
3487.17,0.03404
3481.39,0.03317
3475.6,0.03277
3469.81,0.03131
3464.03,0.03098
3458.24,0.03072
3452.45,0.03102
3446.67,0.03010
3440.88,0.02998
3435.1,0.03018
3429.31,0.02966
3423.52,0.02937
3417.74,0.02936
3411.95,0.03049
3406.16,0.03006
3400.38,0.03042
3394.59,0.03064
3388.81,0.03035
3383.02,0.03063
3377.23,0.03109
3371.45,0.03103
3365.66,0.03200
3359.87,0.03280
3354.09,0.03419
3348.3,0.03574
3342.52,0.03772
3336.73,0.03853
3330.94,0.03952
3325.16,0.03990
3319.37,0.03986
3313.58,0.03880
3307.8,0.03944
3302.01,0.03987
3296.23,0.03999
3290.44,0.04047
3284.65,0.04049
3278.87,0.04185
3273.08,0.04294
3267.29,0.04328
3261.51,0.04472
3255.72,0.04650
3249.94,0.04753
3244.15,0.04890
3238.36,0.04929
3232.58,0.05211
3226.79,0.05345
3221,0.05521
3215.22,0.05698
3209.43,0.05903
3203.65,0.06105
3197.86,0.06404
3192.07,0.06555
3186.29,0.06840
3180.5,0.07119
3174.71,0.07381
3168.93,0.07635
3163.14,0.07911
3157.36,0.08254
3151.57,0.08555
3145.78,0.08826
3140,0.09095
3134.21,0.09436
3128.42,0.09792
3122.64,0.10140
3116.85,0.10462
3111.07,0.10806
3105.28,0.11256
3099.49,0.11609
3093.71,0.11945
3087.92,0.12328
3082.14,0.12670
3076.35,0.13019
3070.56,0.13384
3064.78,0.13709
3058.99,0.13991
3053.2,0.14363
3047.42,0.14602
3041.63,0.14862
3035.85,0.15158
3030.06,0.15352
3024.27,0.15590
3018.49,0.15728
3012.7,0.15849
3006.91,0.15902
3001.13,0.15831
2995.34,0.15410
2989.56,0.14853
2983.77,0.13773
2977.98,0.12186
2972.2,0.10081
2966.41,0.09109
2960.62,0.09055
2954.84,0.08566
2949.05,0.07782
2943.27,0.07354
2937.48,0.07312
2931.69,0.07149
2925.91,0.06741
2920.12,0.06248
2914.33,0.05792
2908.55,0.05512
2902.76,0.05432
2896.98,0.05564
2891.19,0.05859
2885.4,0.06196
2879.62,0.06390
2873.83,0.06438
2868.04,0.06614
2862.26,0.06830
2856.47,0.07060
2850.69,0.07479
2844.9,0.08194
2839.11,0.09086
2833.33,0.09789
2827.54,0.10352
2821.75,0.10940
2815.97,0.11616
2810.18,0.12227
2804.4,0.12807
2798.61,0.13291
2792.82,0.13577
2787.04,0.13772
2781.25,0.13870
2775.46,0.13966
2769.68,0.13999
2763.89,0.14089
2758.11,0.14165
2752.32,0.14219
2746.53,0.14210
2740.75,0.14071
2734.96,0.14141
2729.17,0.14241
2723.39,0.14353
2717.6,0.14535
2711.82,0.14805
2706.03,0.15220
2700.24,0.15691
2694.46,0.16111
2688.67,0.16553
2682.88,0.16971
2677.1,0.17299
2671.31,0.17531
2665.53,0.17716
2659.74,0.17866
2653.95,0.18069
2648.17,0.18331
2642.38,0.18638
2636.59,0.18857
2630.81,0.19116
2625.02,0.19392
2619.24,0.19609
2613.45,0.19794
2607.66,0.19974
2601.88,0.20178
2596.09,0.20378
2590.3,0.20571
2584.52,0.20592
2578.73,0.20698
2572.95,0.20691
2567.16,0.20567
2561.37,0.20446
2555.59,0.20284
2549.8,0.20182
2544.02,0.20034
2538.23,0.20045
2532.44,0.20106
2526.66,0.20232
2520.87,0.20375
2515.08,0.20499
2509.3,0.20812
2503.51,0.21320
2497.73,0.21825
2491.94,0.22271
2486.15,0.22605
2480.37,0.22882
2474.58,0.23246
2468.79,0.23517
2463.01,0.23668
2457.22,0.23805
2451.44,0.24064
2445.65,0.24369
2439.86,0.24629
2434.08,0.25050
2428.29,0.25462
2422.5,0.25853
2416.72,0.26227
2410.93,0.26533
2405.15,0.26795
2399.36,0.27087
2393.57,0.27380
2387.79,0.27659
2382,0.27986
2376.21,0.28377
2370.43,0.28735
2364.64,0.29038
2358.86,0.29248
2353.07,0.29522
2347.28,0.29825
2341.5,0.30134
2335.71,0.30389
2329.92,0.30571
2324.14,0.30777
2318.35,0.30968
2312.57,0.31056
2306.78,0.31075
2300.99,0.30944
2295.21,0.30748
2289.42,0.30624
2283.63,0.30585
2277.85,0.30468
2272.06,0.30157
2266.28,0.29656
2260.49,0.29142
2254.7,0.28790
2248.92,0.28570
2243.13,0.28416
2237.34,0.28284
2231.56,0.28257
2225.77,0.28408
2219.99,0.28740
2214.2,0.29134
2208.41,0.29308
2202.63,0.29354
2196.84,0.29206
2191.05,0.28908
2185.27,0.28460
2179.48,0.27869
2173.7,0.27211
2167.91,0.26578
2162.12,0.25997
2156.34,0.25660
2150.55,0.25336
2144.76,0.25101
2138.98,0.24818
2133.19,0.24736
2127.41,0.24969
2121.62,0.25310
2115.83,0.25657
2110.05,0.26010
2104.26,0.26376
2098.47,0.26675
2092.69,0.26892
2086.9,0.27117
2081.12,0.27246
2075.33,0.27179
2069.54,0.27062
2063.76,0.27044
2057.97,0.27096
2052.19,0.27072
2046.4,0.27106
2040.61,0.27241
2034.83,0.27607
2029.04,0.28223
2023.25,0.28871
2017.47,0.29563
2011.68,0.30117
2005.9,0.30432
2000.11,0.30536
1994.32,0.30837
1988.54,0.31220
1982.75,0.31602
1976.96,0.31837
1971.18,0.31926
1965.39,0.32054
1959.61,0.32245
1953.82,0.32508
1948.03,0.32936
1942.25,0.33495
1936.46,0.33946
1930.67,0.34327
1924.89,0.34571
1919.1,0.34785
1913.32,0.34907
1907.53,0.35016
1901.74,0.35051
1895.96,0.34982
1890.17,0.34885
1884.38,0.34806
1878.6,0.34666
1872.81,0.34591
1867.03,0.34480
1861.24,0.34284
1855.45,0.33990
1849.67,0.33617
1843.88,0.33216
1838.09,0.32847
1832.31,0.32611
1826.52,0.32388
1820.74,0.32074
1814.95,0.31822
1809.16,0.31470
1803.38,0.31063
1797.59,0.30712
1791.8,0.30379
1786.02,0.30074
1780.23,0.29674
1774.45,0.29233
1768.66,0.28698
1762.87,0.28264
1757.09,0.27887
1751.3,0.27431
1745.51,0.26819
1739.73,0.26097
1733.94,0.25582
1728.16,0.25254
1722.37,0.25110
1716.58,0.24884
1710.8,0.24410
1705.01,0.23775
1699.22,0.22769
1693.44,0.21407
1687.65,0.19843
1681.87,0.18098
1676.08,0.16664
1670.29,0.15809
1664.51,0.15383
1658.72,0.15356
1652.93,0.15518
1647.15,0.15658
1641.36,0.15742
1635.58,0.15816
1629.79,0.15969
1624,0.16329
1618.22,0.16683
1612.43,0.16976
1606.64,0.17157
1600.86,0.17219
1595.07,0.17403
1589.29,0.17472
1583.5,0.17433
1577.71,0.17296
1571.93,0.17438
1566.14,0.17542
1560.35,0.17531
1554.57,0.17412
1548.78,0.17195
1543,0.16851
1537.21,0.16652
1531.42,0.16609
1525.64,0.16342
1519.85,0.15906
1514.07,0.15343
1508.28,0.14730
1502.49,0.13927
1496.71,0.12956
1490.92,0.11465
1485.13,0.09437
1479.35,0.08202
1473.56,0.07573
1467.78,0.06567
1461.99,0.05701
1456.2,0.05180
1450.42,0.04914
1444.63,0.04676
1438.84,0.04275
1433.06,0.03981
1427.27,0.04180
1421.49,0.04690
1415.7,0.05351
1409.91,0.05593
1404.13,0.05580
1398.34,0.05550
1392.55,0.05234
1386.77,0.04646
1380.98,0.03955
1375.2,0.03628
1369.41,0.03661
1363.62,0.03776
1357.84,0.03852
1352.05,0.04055
1346.26,0.04048
1340.48,0.03812
1334.69,0.03861
1328.91,0.04005
1323.12,0.03892
1317.33,0.03938
1311.55,0.04314
1305.76,0.04881
1299.97,0.05234
1294.19,0.05116
1288.4,0.04817
1282.62,0.04467
1276.83,0.04882
1271.04,0.05211
1265.26,0.05271
1259.47,0.05186
1253.68,0.05021
1247.9,0.04819
1242.11,0.04854
1236.33,0.04668
1230.54,0.04797
1224.75,0.05070
1218.97,0.05047
1213.18,0.04473
1207.39,0.03610
1201.61,0.03583
1195.82,0.03646
1190.04,0.03621
1184.25,0.03425
1178.46,0.03428
1172.68,0.04174
1166.89,0.05161
1161.1,0.04889
1155.32,0.04222
1149.53,0.03677
1143.75,0.03260
1137.96,0.02735
1132.17,0.02440
1126.39,0.02541
1120.6,0.03015
1114.81,0.03543
1109.03,0.03862
1103.24,0.03749
1097.46,0.03445
1091.67,0.03227
1085.88,0.03519
1080.1,0.04457
1074.31,0.05538
1068.52,0.06783
1062.74,0.08303
1056.95,0.08106
1051.17,0.06970
1045.38,0.06017
1039.59,0.06541
1033.81,0.07329
1028.02,0.07066
1022.24,0.06774
1016.45,0.06733
1010.66,0.06841
1004.88,0.06612
999.09,0.06780
993.304,0.07163
987.518,0.07367
981.731,0.08346
975.945,0.09979
970.159,0.10977
964.373,0.11952
958.586,0.13029
952.8,0.14239
947.014,0.15206
941.228,0.15576
935.441,0.15587
929.655,0.15509
923.869,0.15710
918.083,0.15251
912.297,0.14053
906.51,0.12995
900.724,0.12178
894.938,0.12182
889.152,0.13353
883.365,0.14860
877.579,0.16086
871.793,0.17165
866.007,0.17780
860.22,0.17879
854.434,0.17747
848.648,0.17584
842.862,0.17176
837.075,0.16815
831.289,0.16349
825.503,0.15928
819.717,0.15384
813.931,0.14842
808.144,0.14349
802.358,0.13789
796.572,0.13207
790.786,0.12787
784.999,0.12304
779.213,0.11688
773.427,0.11141
767.641,0.10549
761.854,0.09890
756.068,0.09199
750.282,0.08597
744.496,0.08064
738.709,0.07476
732.923,0.06865
727.137,0.06202
721.351,0.05905
715.565,0.05519
709.778,0.05468
703.992,0.05412
698.206,0.05388
692.42,0.05428
686.633,0.05411
680.847,0.05199
675.061,0.05035
669.275,0.04965
663.488,0.05040
657.702,0.05391
651.916,0.05242
646.13,0.04879
640.343,0.04764
634.557,0.04370
628.771,0.04423
622.985,0.04344
617.198,0.04610
611.412,0.05118
605.626,0.05311
599.84,0.05289