File: 01_Data/Cotton_Sheet/FTIR/IS/Cotton_Sheet_IS_S_220826_R4.dpt
7497.03,0.61958
7491.25,0.62002
7485.46,0.61791
7479.67,0.61231
7473.89,0.60564
7468.1,0.61742
7462.32,0.61443
7456.53,0.61264
7450.74,0.61738
7444.96,0.61677
7439.17,0.60402
7433.38,0.61796
7427.6,0.61136
7421.81,0.61856
7416.03,0.61038
7410.24,0.60832
7404.45,0.61010
7398.67,0.62059
7392.88,0.60451
7387.09,0.60656
7381.31,0.60355
7375.52,0.61011
7369.74,0.61331
7363.95,0.60111
7358.16,0.60713
7352.38,0.61191
7346.59,0.61125
7340.8,0.61140
7335.02,0.60478
7329.23,0.61025
7323.45,0.61236
7317.66,0.61008
7311.87,0.60201
7306.09,0.59949
7300.3,0.59797
7294.51,0.60040
7288.73,0.60549
7282.94,0.60074
7277.16,0.60089
7271.37,0.60995
7265.58,0.60997
7259.8,0.61088
7254.01,0.60864
7248.22,0.60460
7242.44,0.60974
7236.65,0.60589
7230.87,0.60309
7225.08,0.60853
7219.29,0.60594
7213.51,0.60268
7207.72,0.60834
7201.93,0.60304
7196.15,0.59598
7190.36,0.60172
7184.58,0.60458
7178.79,0.60271
7173,0.60284
7167.22,0.60872
7161.43,0.60575
7155.65,0.59537
7149.86,0.59810
7144.07,0.61117
7138.29,0.59971
7132.5,0.60407
7126.71,0.60081
7120.93,0.59862
7115.14,0.59968
7109.36,0.59919
7103.57,0.59908
7097.78,0.59201
7092,0.58958
7086.21,0.59114
7080.42,0.58720
7074.64,0.58503
7068.85,0.58181
7063.07,0.59003
7057.28,0.58771
7051.49,0.58141
7045.71,0.57811
7039.92,0.57764
7034.13,0.57621
7028.35,0.57193
7022.56,0.56800
7016.78,0.57298
7010.99,0.56564
7005.2,0.56260
6999.42,0.56344
6993.63,0.56404
6987.84,0.56007
6982.06,0.55994
6976.27,0.55777
6970.49,0.55450
6964.7,0.55702
6958.91,0.56132
6953.13,0.55583
6947.34,0.55547
6941.55,0.55606
6935.77,0.55203
6929.98,0.55414
6924.2,0.55711
6918.41,0.55006
6912.62,0.55778
6906.84,0.55465
6901.05,0.54926
6895.26,0.54703
6889.48,0.55171
6883.69,0.54378
6877.91,0.54604
6872.12,0.55260
6866.33,0.54799
6860.55,0.54786
6854.76,0.54576
6848.97,0.54401
6843.19,0.53921
6837.4,0.54423
6831.62,0.54284
6825.83,0.54066
6820.04,0.54342
6814.26,0.53887
6808.47,0.54103
6802.68,0.54113
6796.9,0.53642
6791.11,0.53482
6785.33,0.53135
6779.54,0.52878
6773.75,0.53305
6767.97,0.52669
6762.18,0.52383
6756.39,0.52482
6750.61,0.52499
6744.82,0.52614
6739.04,0.53199
6733.25,0.52450
6727.46,0.52815
6721.68,0.52514
6715.89,0.52462
6710.1,0.52308
6704.32,0.52017
6698.53,0.52192
6692.75,0.52463
6686.96,0.52300
6681.17,0.52510
6675.39,0.52217
6669.6,0.52792
6663.82,0.52584
6658.03,0.52678
6652.24,0.52620
6646.46,0.52783
6640.67,0.52775
6634.88,0.52878
6629.1,0.52450
6623.31,0.52495
6617.53,0.53473
6611.74,0.52912
6605.95,0.53077
6600.17,0.53137
6594.38,0.53262
6588.59,0.53300
6582.81,0.53355
6577.02,0.53174
6571.24,0.53391
6565.45,0.53579
6559.66,0.53322
6553.88,0.53321
6548.09,0.53055
6542.3,0.53019
6536.52,0.53031
6530.73,0.53186
6524.95,0.53440
6519.16,0.53133
6513.37,0.53239
6507.59,0.52994
6501.8,0.53263
6496.01,0.53451
6490.23,0.53198
6484.44,0.52901
6478.66,0.53356
6472.87,0.53272
6467.08,0.52746
6461.3,0.53142
6455.51,0.52939
6449.72,0.53272
6443.94,0.53226
6438.15,0.53258
6432.37,0.53831
6426.58,0.53507
6420.79,0.53706
6415.01,0.53456
6409.22,0.53539
6403.43,0.53683
6397.65,0.53356
6391.86,0.53622
6386.08,0.53462
6380.29,0.53657
6374.5,0.53752
6368.72,0.53906
6362.93,0.53740
6357.14,0.53652
6351.36,0.53771
6345.57,0.53428
6339.79,0.53755
6334,0.53952
6328.21,0.53971
6322.43,0.53563
6316.64,0.53495
6310.85,0.53840
6305.07,0.53465
6299.28,0.54023
6293.5,0.54070
6287.71,0.53895
6281.92,0.54062
6276.14,0.54416
6270.35,0.54225
6264.56,0.54701
6258.78,0.54555
6252.99,0.54954
6247.21,0.54718
6241.42,0.54382
6235.63,0.55149
6229.85,0.55260
6224.06,0.55425
6218.27,0.55485
6212.49,0.55523
6206.7,0.55901
6200.92,0.55775
6195.13,0.56138
6189.34,0.56104
6183.56,0.56372
6177.77,0.56278
6171.98,0.56454
6166.2,0.56744
6160.41,0.56651
6154.63,0.56899
6148.84,0.56849
6143.05,0.57158
6137.27,0.57446
6131.48,0.57397
6125.7,0.57407
6119.91,0.57659
6114.12,0.57289
6108.34,0.57655
6102.55,0.57717
6096.76,0.57901
6090.98,0.57800
6085.19,0.57942
6079.41,0.57938
6073.62,0.57899
6067.83,0.58030
6062.05,0.58045
6056.26,0.58048
6050.47,0.58181
6044.69,0.58539
6038.9,0.58665
6033.12,0.58667
6027.33,0.58406
6021.54,0.58544
6015.76,0.58443
6009.97,0.58542
6004.18,0.58437
5998.4,0.58666
5992.61,0.58784
5986.83,0.58883
5981.04,0.58815
5975.25,0.58910
5969.47,0.59012
5963.68,0.59024
5957.89,0.59101
5952.11,0.58962
5946.32,0.58985
5940.54,0.58811
5934.75,0.58715
5928.96,0.58934
5923.18,0.59000
5917.39,0.58702
5911.6,0.58514
5905.82,0.58367
5900.03,0.58579
5894.25,0.58412
5888.46,0.58213
5882.67,0.57988
5876.89,0.58141
5871.1,0.57879
5865.31,0.57869
5859.53,0.57753
5853.74,0.58022
5847.96,0.58031
5842.17,0.57903
5836.38,0.57891
5830.6,0.57967
5824.81,0.57694
5819.02,0.58037
5813.24,0.57934
5807.45,0.57918
5801.67,0.58137
5795.88,0.58056
5790.09,0.57741
5784.31,0.57770
5778.52,0.57741
5772.73,0.57556
5766.95,0.57587
5761.16,0.57655
5755.38,0.57597
5749.59,0.57650
5743.8,0.57824
5738.02,0.57677
5732.23,0.57604
5726.44,0.57692
5720.66,0.57898
5714.87,0.57523
5709.09,0.57653
5703.3,0.57552
5697.51,0.57595
5691.73,0.57392
5685.94,0.57518
5680.15,0.57480
5674.37,0.57346
5668.58,0.57180
5662.8,0.57041
5657.01,0.57075
5651.22,0.57045
5645.44,0.57276
5639.65,0.56976
5633.87,0.57000
5628.08,0.57041
5622.29,0.57304
5616.51,0.57167
5610.72,0.57257
5604.93,0.57326
5599.15,0.57421
5593.36,0.57066
5587.58,0.57089
5581.79,0.57238
5576,0.57116
5570.22,0.57117
5564.43,0.57193
5558.64,0.57321
5552.86,0.57418
5547.07,0.57263
5541.29,0.57217
5535.5,0.57318
5529.71,0.57274
5523.93,0.57317
5518.14,0.57131
5512.35,0.57171
5506.57,0.57369
5500.78,0.57257
5495,0.57332
5489.21,0.57264
5483.42,0.57184
5477.64,0.57031
5471.85,0.57149
5466.06,0.57241
5460.28,0.57270
5454.49,0.57424
5448.71,0.57417
5442.92,0.57666
5437.13,0.57401
5431.35,0.57493
5425.56,0.57672
5419.77,0.57834
5413.99,0.57802
5408.2,0.57869
5402.42,0.57742
5396.63,0.58060
5390.84,0.57994
5385.06,0.58049
5379.27,0.58003
5373.48,0.57984
5367.7,0.58119
5361.91,0.58055
5356.13,0.58118
5350.34,0.58065
5344.55,0.58076
5338.77,0.58052
5332.98,0.58088
5327.19,0.58032
5321.41,0.58000
5315.62,0.57911
5309.84,0.57864
5304.05,0.57770
5298.26,0.57679
5292.48,0.57566
5286.69,0.57441
5280.9,0.57336
5275.12,0.57137
5269.33,0.56941
5263.55,0.56748
5257.76,0.56355
5251.97,0.56217
5246.19,0.55874
5240.4,0.55592
5234.61,0.55514
5228.83,0.55310
5223.04,0.55019
5217.26,0.54917
5211.47,0.54806
5205.68,0.54652
5199.9,0.54639
5194.11,0.54670
5188.32,0.54619
5182.54,0.54646
5176.75,0.54683
5170.97,0.54532
5165.18,0.54741
5159.39,0.54761
5153.61,0.54702
5147.82,0.54797
5142.03,0.54878
5136.25,0.54869
5130.46,0.55079
5124.68,0.55220
5118.89,0.55130
5113.1,0.55306
5107.32,0.55309
5101.53,0.55444
5095.75,0.55462
5089.96,0.55521
5084.17,0.55661
5078.39,0.55684
5072.6,0.55687
5066.81,0.55726
5061.03,0.55761
5055.24,0.55831
5049.46,0.55858
5043.67,0.55824
5037.88,0.55879
5032.1,0.55797
5026.31,0.55791
5020.52,0.55737
5014.74,0.55692
5008.95,0.55732
5003.17,0.55500
4997.38,0.55574
4991.59,0.55518
4985.81,0.55334
4980.02,0.55205
4974.23,0.54958
4968.45,0.54846
4962.66,0.54698
4956.88,0.54395
4951.09,0.54060
4945.3,0.53871
4939.52,0.53527
4933.73,0.53192
4927.94,0.52736
4922.16,0.52322
4916.37,0.51932
4910.59,0.51309
4904.8,0.50780
4899.01,0.50153
4893.23,0.49681
4887.44,0.49260
4881.65,0.48587
4875.87,0.47992
4870.08,0.47430
4864.3,0.47000
4858.51,0.46482
4852.72,0.46054
4846.94,0.45681
4841.15,0.45190
4835.36,0.44749
4829.58,0.44425
4823.79,0.43922
4818.01,0.43497
4812.22,0.43191
4806.43,0.42815
4800.65,0.42609
4794.86,0.42379
4789.07,0.42259
4783.29,0.42018
4777.5,0.41877
4771.72,0.41661
4765.93,0.41571
4760.14,0.41485
4754.36,0.41545
4748.57,0.41599
4742.78,0.41597
4737,0.41767
4731.21,0.41921
4725.43,0.42035
4719.64,0.42344
4713.85,0.42434
4708.07,0.42645
4702.28,0.42931
4696.49,0.43260
4690.71,0.43533
4684.92,0.43769
4679.14,0.44064
4673.35,0.44246
4667.56,0.44511
4661.78,0.44727
4655.99,0.44928
4650.2,0.45063
4644.42,0.45345
4638.63,0.45548
4632.85,0.45847
4627.06,0.46023
4621.27,0.46263
4615.49,0.46456
4609.7,0.46709
4603.92,0.46865
4598.13,0.47122
4592.34,0.47435
4586.56,0.47583
4580.77,0.47777
4574.98,0.47995
4569.2,0.48193
4563.41,0.48484
4557.63,0.48624
4551.84,0.48830
4546.05,0.48989
4540.27,0.49222
4534.48,0.49354
4528.69,0.49579
4522.91,0.49577
4517.12,0.49661
4511.34,0.49765
4505.55,0.49760
4499.76,0.49854
4493.98,0.49984
4488.19,0.49944
4482.4,0.50008
4476.62,0.49841
4470.83,0.49852
4465.05,0.49650
4459.26,0.49443
4453.47,0.49092
4447.69,0.48588
4441.9,0.48074
4436.11,0.47391
4430.33,0.46507
4424.54,0.45628
4418.76,0.44740
4412.97,0.43810
4407.18,0.42906
4401.4,0.42418
4395.61,0.42329
4389.82,0.42536
4384.04,0.42931
4378.25,0.43297
4372.47,0.43587
4366.68,0.43718
4360.89,0.43845
4355.11,0.43647
4349.32,0.43419
4343.53,0.43221
4337.75,0.42967
4331.96,0.42592
4326.18,0.42224
4320.39,0.41832
4314.6,0.41547
4308.82,0.41301
4303.03,0.40972
4297.24,0.40762
4291.46,0.40418
4285.67,0.40114
4279.89,0.39948
4274.1,0.39879
4268.31,0.39842
4262.53,0.39929
4256.74,0.40012
4250.95,0.40096
4245.17,0.40107
4239.38,0.40252
4233.6,0.40410
4227.81,0.40590
4222.02,0.40702
4216.24,0.40653
4210.45,0.40781
4204.66,0.41125
4198.88,0.41349
4193.09,0.41500
4187.31,0.41533
4181.52,0.41463
4175.73,0.41521
4169.95,0.41805
4164.16,0.41985
4158.37,0.42031
4152.59,0.41923
4146.8,0.41734
4141.02,0.41585
4135.23,0.41515
4129.44,0.41366
4123.66,0.41099
4117.87,0.40683
4112.09,0.40276
4106.3,0.39731
4100.51,0.39089
4094.73,0.38387
4088.94,0.37693
4083.15,0.37021
4077.37,0.36461
4071.58,0.35798
4065.8,0.35099
4060.01,0.34360
4054.22,0.33553
4048.44,0.32688
4042.65,0.32058
4036.86,0.31530
4031.08,0.31236
4025.29,0.31070
4019.51,0.31038
4013.72,0.31166
4007.93,0.31372
4002.15,0.31712
3996.36,0.32112
3990.57,0.32382
3984.79,0.32730
3979,0.32946
3973.22,0.33170
3967.43,0.33425
3961.64,0.33709
3955.86,0.33912
3950.07,0.34252
3944.28,0.34542
3938.5,0.34897
3932.71,0.35237
3926.93,0.35615
3921.14,0.35918
3915.35,0.36171
3909.57,0.36403
3903.78,0.36615
3897.99,0.36826
3892.21,0.37077
3886.42,0.37259
3880.64,0.37349
3874.85,0.37611
3869.06,0.37909
3863.28,0.38350
3857.49,0.38800
3851.7,0.39208
3845.92,0.39485
3840.13,0.39810
3834.35,0.40044
3828.56,0.40198
3822.77,0.40221
3816.99,0.40225
3811.2,0.40248
3805.41,0.40272
3799.63,0.40433
3793.84,0.40536
3788.06,0.40643
3782.27,0.40693
3776.48,0.40699
3770.7,0.40666
3764.91,0.40684
3759.12,0.40591
3753.34,0.40480
3747.55,0.40339
3741.77,0.40166
3735.98,0.39971
3730.19,0.39741
3724.41,0.39454
3718.62,0.39041
3712.83,0.38592
3707.05,0.38050
3701.26,0.37436
3695.48,0.36760
3689.69,0.36038
3683.9,0.35032
3678.12,0.33895
3672.33,0.32667
3666.54,0.31227
3660.76,0.29755
3654.97,0.28210
3649.19,0.26634
3643.4,0.25121
3637.61,0.23633
3631.83,0.22067
3626.04,0.20475
3620.25,0.18874
3614.47,0.17380
3608.68,0.15773
3602.9,0.14376
3597.11,0.13027
3591.32,0.11923
3585.54,0.10879
3579.75,0.10000
3573.97,0.09139
3568.18,0.08461
3562.39,0.07804
3556.61,0.07178
3550.82,0.06692
3545.03,0.06184
3539.25,0.05729
3533.46,0.05368
3527.68,0.04990
3521.89,0.04679
3516.1,0.04363
3510.32,0.04174
3504.53,0.03942
3498.74,0.03803
3492.96,0.03562
3487.17,0.03408
3481.39,0.03291
3475.6,0.03177
3469.81,0.03176
3464.03,0.03143
3458.24,0.03059
3452.45,0.03010
3446.67,0.02996
3440.88,0.03013
3435.1,0.02952
3429.31,0.02935
3423.52,0.03045
3417.74,0.02964
3411.95,0.02955
3406.16,0.03010
3400.38,0.03067
3394.59,0.03013
3388.81,0.03050
3383.02,0.03093
3377.23,0.03093
3371.45,0.03199
3365.66,0.03249
3359.87,0.03282
3354.09,0.03396
3348.3,0.03582
3342.52,0.03663
3336.73,0.03786
3330.94,0.03929
3325.16,0.04000
3319.37,0.03924
3313.58,0.03934
3307.8,0.03918
3302.01,0.03928
3296.23,0.03940
3290.44,0.04040
3284.65,0.04040
3278.87,0.04145
3273.08,0.04313
3267.29,0.04371
3261.51,0.04473
3255.72,0.04604
3249.94,0.04764
3244.15,0.04939
3238.36,0.05004
3232.58,0.05133
3226.79,0.05371
3221,0.05536
3215.22,0.05765
3209.43,0.05917
3203.65,0.06178
3197.86,0.06483
3192.07,0.06566
3186.29,0.06840
3180.5,0.07199
3174.71,0.07399
3168.93,0.07724
3163.14,0.07996
3157.36,0.08347
3151.57,0.08656
3145.78,0.08916
3140,0.09284
3134.21,0.09570
3128.42,0.09915
3122.64,0.10319
3116.85,0.10637
3111.07,0.10970
3105.28,0.11365
3099.49,0.11725
3093.71,0.12105
3087.92,0.12433
3082.14,0.12916
3076.35,0.13211
3070.56,0.13542
3064.78,0.13905
3058.99,0.14144
3053.2,0.14507
3047.42,0.14793
3041.63,0.15107
3035.85,0.15282
3030.06,0.15571
3024.27,0.15706
3018.49,0.15894
3012.7,0.16053
3006.91,0.16092
3001.13,0.15925
2995.34,0.15642
2989.56,0.14939
2983.77,0.13930
2977.98,0.12239
2972.2,0.10137
2966.41,0.09158
2960.62,0.09101
2954.84,0.08574
2949.05,0.07799
2943.27,0.07412
2937.48,0.07362
2931.69,0.07151
2925.91,0.06757
2920.12,0.06302
2914.33,0.05803
2908.55,0.05564
2902.76,0.05427
2896.98,0.05594
2891.19,0.05883
2885.4,0.06139
2879.62,0.06345
2873.83,0.06491
2868.04,0.06574
2862.26,0.06829
2856.47,0.07042
2850.69,0.07460
2844.9,0.08185
2839.11,0.09056
2833.33,0.09772
2827.54,0.10403
2821.75,0.11010
2815.97,0.11680
2810.18,0.12341
2804.4,0.12820
2798.61,0.13278
2792.82,0.13622
2787.04,0.13795
2781.25,0.13918
2775.46,0.14025
2769.68,0.14063
2763.89,0.14142
2758.11,0.14226
2752.32,0.14242
2746.53,0.14246
2740.75,0.14146
2734.96,0.14227
2729.17,0.14239
2723.39,0.14424
2717.6,0.14603
2711.82,0.14882
2706.03,0.15273
2700.24,0.15714
2694.46,0.16142
2688.67,0.16554
2682.88,0.17003
2677.1,0.17344
2671.31,0.17622
2665.53,0.17765
2659.74,0.17929
2653.95,0.18102
2648.17,0.18418
2642.38,0.18666
2636.59,0.18911
2630.81,0.19184
2625.02,0.19421
2619.24,0.19645
2613.45,0.19833
2607.66,0.19993
2601.88,0.20254
2596.09,0.20455
2590.3,0.20548
2584.52,0.20647
2578.73,0.20751
2572.95,0.20738
2567.16,0.20605
2561.37,0.20447
2555.59,0.20368
2549.8,0.20240
2544.02,0.20130
2538.23,0.20118
2532.44,0.20161
2526.66,0.20317
2520.87,0.20412
2515.08,0.20543
2509.3,0.20884
2503.51,0.21401
2497.73,0.21923
2491.94,0.22312
2486.15,0.22631
2480.37,0.22970
2474.58,0.23243
2468.79,0.23585
2463.01,0.23705
2457.22,0.23828
2451.44,0.24055
2445.65,0.24378
2439.86,0.24722
2434.08,0.25102
2428.29,0.25498
2422.5,0.25913
2416.72,0.26270
2410.93,0.26574
2405.15,0.26876
2399.36,0.27122
2393.57,0.27443
2387.79,0.27783
2382,0.28050
2376.21,0.28442
2370.43,0.28831
2364.64,0.29130
2358.86,0.29355
2353.07,0.29576
2347.28,0.29888
2341.5,0.30193
2335.71,0.30441
2329.92,0.30649
2324.14,0.30852
2318.35,0.31040
2312.57,0.31186
2306.78,0.31151
2300.99,0.31016
2295.21,0.30857
2289.42,0.30752
2283.63,0.30692
2277.85,0.30592
2272.06,0.30273
2266.28,0.29741
2260.49,0.29259
2254.7,0.28902
2248.92,0.28662
2243.13,0.28504
2237.34,0.28407
2231.56,0.28405
2225.77,0.28529
2219.99,0.28848
2214.2,0.29235
2208.41,0.29441
2202.63,0.29466
2196.84,0.29351
2191.05,0.29110
2185.27,0.28621
2179.48,0.28054
2173.7,0.27361
2167.91,0.26714
2162.12,0.26156
2156.34,0.25738
2150.55,0.25487
2144.76,0.25162
2138.98,0.24892
2133.19,0.24821
2127.41,0.25087
2121.62,0.25423
2115.83,0.25804
2110.05,0.26180
2104.26,0.26528
2098.47,0.26803
2092.69,0.27046
2086.9,0.27300
2081.12,0.27385
2075.33,0.27320
2069.54,0.27213
2063.76,0.27207
2057.97,0.27210
2052.19,0.27214
2046.4,0.27251
2040.61,0.27412
2034.83,0.27789
2029.04,0.28353
2023.25,0.29063
2017.47,0.29727
2011.68,0.30291
2005.9,0.30596
2000.11,0.30731
1994.32,0.30933
1988.54,0.31416
1982.75,0.31769
1976.96,0.31945
1971.18,0.32059
1965.39,0.32219
1959.61,0.32402
1953.82,0.32701
1948.03,0.33133
1942.25,0.33646
1936.46,0.34150
1930.67,0.34506
1924.89,0.34778
1919.1,0.34957
1913.32,0.35117
1907.53,0.35239
1901.74,0.35233
1895.96,0.35154
1890.17,0.35050
1884.38,0.34987
1878.6,0.34882
1872.81,0.34799
1867.03,0.34658
1861.24,0.34469
1855.45,0.34148
1849.67,0.33782
1843.88,0.33364
1838.09,0.33042
1832.31,0.32783
1826.52,0.32559
1820.74,0.32293
1814.95,0.31951
1809.16,0.31610
1803.38,0.31240
1797.59,0.30909
1791.8,0.30589
1786.02,0.30239
1780.23,0.29821
1774.45,0.29383
1768.66,0.28870
1762.87,0.28440
1757.09,0.28076
1751.3,0.27613
1745.51,0.26992
1739.73,0.26284
1733.94,0.25779
1728.16,0.25428
1722.37,0.25318
1716.58,0.25149
1710.8,0.24704
1705.01,0.24066
1699.22,0.23098
1693.44,0.21689
1687.65,0.20113
1681.87,0.18353
1676.08,0.17015
1670.29,0.16168
1664.51,0.15758
1658.72,0.15748
1652.93,0.15983
1647.15,0.16095
1641.36,0.16158
1635.58,0.16271
1629.79,0.16360
1624,0.16714
1618.22,0.17033
1612.43,0.17286
1606.64,0.17396
1600.86,0.17460
1595.07,0.17579
1589.29,0.17636
1583.5,0.17595
1577.71,0.17457
1571.93,0.17572
1566.14,0.17711
1560.35,0.17689
1554.57,0.17535
1548.78,0.17299
1543,0.16939
1537.21,0.16802
1531.42,0.16728
1525.64,0.16465
1519.85,0.15996
1514.07,0.15434
1508.28,0.14771
1502.49,0.14008
1496.71,0.13029
1490.92,0.11540
1485.13,0.09511
1479.35,0.08272
1473.56,0.07515
1467.78,0.06578
1461.99,0.05672
1456.2,0.05166
1450.42,0.04938
1444.63,0.04696
1438.84,0.04295
1433.06,0.03971
1427.27,0.04167
1421.49,0.04687
1415.7,0.05357
1409.91,0.05588
1404.13,0.05537
1398.34,0.05522
1392.55,0.05245
1386.77,0.04637
1380.98,0.03942
1375.2,0.03598
1369.41,0.03620
1363.62,0.03746
1357.84,0.03840
1352.05,0.04063
1346.26,0.04033
1340.48,0.03861
1334.69,0.03833
1328.91,0.04008
1323.12,0.03917
1317.33,0.03905
1311.55,0.04329
1305.76,0.04852
1299.97,0.05197
1294.19,0.05115
1288.4,0.04827
1282.62,0.04482
1276.83,0.04842
1271.04,0.05221
1265.26,0.05260
1259.47,0.05134
1253.68,0.05012
1247.9,0.04868
1242.11,0.04819
1236.33,0.04660
1230.54,0.04812
1224.75,0.05113
1218.97,0.05038
1213.18,0.04468
1207.39,0.03625
1201.61,0.03515
1195.82,0.03622
1190.04,0.03597
1184.25,0.03405
1178.46,0.03423
1172.68,0.04170
1166.89,0.05088
1161.1,0.04879
1155.32,0.04237
1149.53,0.03695
1143.75,0.03251
1137.96,0.02730
1132.17,0.02365
1126.39,0.02508
1120.6,0.03040
1114.81,0.03512
1109.03,0.03910
1103.24,0.03728
1097.46,0.03435
1091.67,0.03205
1085.88,0.03525
1080.1,0.04486
1074.31,0.05571
1068.52,0.06810
1062.74,0.08293
1056.95,0.08013
1051.17,0.06849
1045.38,0.06048
1039.59,0.06484
1033.81,0.07359
1028.02,0.07070
1022.24,0.06747
1016.45,0.06613
1010.66,0.06817
1004.88,0.06605
999.09,0.06774
993.304,0.07162
987.518,0.07388
981.731,0.08326
975.945,0.09968
970.159,0.11003
964.373,0.11933
958.586,0.13103
952.8,0.14279
947.014,0.15162
941.228,0.15580
935.441,0.15623
929.655,0.15589
923.869,0.15730
918.083,0.15312
912.297,0.14064
906.51,0.12940
900.724,0.12198
894.938,0.12231
889.152,0.13392
883.365,0.14919
877.579,0.16207
871.793,0.17306
866.007,0.17927
860.22,0.17972
854.434,0.17940
848.648,0.17803
842.862,0.17418
837.075,0.17040
831.289,0.16561
825.503,0.16069
819.717,0.15609
813.931,0.15050
808.144,0.14526
802.358,0.13992
796.572,0.13458
790.786,0.13025
784.999,0.12523
779.213,0.11918
773.427,0.11246
767.641,0.10645
761.854,0.09937
756.068,0.09246
750.282,0.08672
744.496,0.08129
738.709,0.07500
732.923,0.06981
727.137,0.06412
721.351,0.05873
715.565,0.05547
709.778,0.05423
703.992,0.05412
698.206,0.05503
692.42,0.05452
686.633,0.05361
680.847,0.05245
675.061,0.04969
669.275,0.05023
663.488,0.05092
657.702,0.05327
651.916,0.05219
646.13,0.04926
640.343,0.04590
634.557,0.04451
628.771,0.04368
622.985,0.04430
617.198,0.04564
611.412,0.05105
605.626,0.05215
599.84,0.05071