File: 01_Data/Cotton_Sheet/FTIR/IS/Cotton_Sheet_IS_S_220826_R8.dpt
7497.03,0.61854
7491.25,0.61168
7485.46,0.61710
7479.67,0.61086
7473.89,0.60995
7468.1,0.61551
7462.32,0.61247
7456.53,0.60760
7450.74,0.61669
7444.96,0.61803
7439.17,0.61888
7433.38,0.61351
7427.6,0.61374
7421.81,0.61718
7416.03,0.61009
7410.24,0.61637
7404.45,0.61472
7398.67,0.61247
7392.88,0.61649
7387.09,0.61186
7381.31,0.61815
7375.52,0.61740
7369.74,0.61349
7363.95,0.60644
7358.16,0.61109
7352.38,0.60699
7346.59,0.60620
7340.8,0.60483
7335.02,0.60521
7329.23,0.61011
7323.45,0.59906
7317.66,0.60603
7311.87,0.60722
7306.09,0.60267
7300.3,0.60188
7294.51,0.61088
7288.73,0.60710
7282.94,0.60908
7277.16,0.60317
7271.37,0.59696
7265.58,0.60505
7259.8,0.60486
7254.01,0.60457
7248.22,0.60399
7242.44,0.60030
7236.65,0.60597
7230.87,0.60891
7225.08,0.61030
7219.29,0.60431
7213.51,0.60137
7207.72,0.59960
7201.93,0.60620
7196.15,0.60357
7190.36,0.60806
7184.58,0.60990
7178.79,0.60558
7173,0.61148
7167.22,0.60316
7161.43,0.60846
7155.65,0.60766
7149.86,0.60481
7144.07,0.59715
7138.29,0.60095
7132.5,0.60008
7126.71,0.60810
7120.93,0.60090
7115.14,0.59835
7109.36,0.60168
7103.57,0.59885
7097.78,0.59507
7092,0.59047
7086.21,0.59633
7080.42,0.58953
7074.64,0.58413
7068.85,0.58613
7063.07,0.58540
7057.28,0.58401
7051.49,0.58281
7045.71,0.57622
7039.92,0.57489
7034.13,0.57456
7028.35,0.57012
7022.56,0.56363
7016.78,0.56782
7010.99,0.56313
7005.2,0.56567
6999.42,0.56402
6993.63,0.56204
6987.84,0.55719
6982.06,0.55493
6976.27,0.55961
6970.49,0.55533
6964.7,0.55190
6958.91,0.55552
6953.13,0.55876
6947.34,0.55355
6941.55,0.55250
6935.77,0.55106
6929.98,0.55592
6924.2,0.55186
6918.41,0.55143
6912.62,0.55060
6906.84,0.55009
6901.05,0.55653
6895.26,0.55088
6889.48,0.55244
6883.69,0.54835
6877.91,0.54298
6872.12,0.55161
6866.33,0.54843
6860.55,0.54744
6854.76,0.54471
6848.97,0.54106
6843.19,0.54202
6837.4,0.53853
6831.62,0.54267
6825.83,0.54032
6820.04,0.53632
6814.26,0.54085
6808.47,0.54121
6802.68,0.53736
6796.9,0.53928
6791.11,0.53277
6785.33,0.53090
6779.54,0.52936
6773.75,0.53133
6767.97,0.52528
6762.18,0.52565
6756.39,0.52728
6750.61,0.52525
6744.82,0.52313
6739.04,0.52434
6733.25,0.52192
6727.46,0.52565
6721.68,0.52574
6715.89,0.52134
6710.1,0.52376
6704.32,0.52209
6698.53,0.52593
6692.75,0.52124
6686.96,0.52567
6681.17,0.52878
6675.39,0.52628
6669.6,0.52658
6663.82,0.52198
6658.03,0.52823
6652.24,0.52802
6646.46,0.53058
6640.67,0.52873
6634.88,0.52747
6629.1,0.53058
6623.31,0.52995
6617.53,0.52830
6611.74,0.53299
6605.95,0.53202
6600.17,0.53528
6594.38,0.53065
6588.59,0.53339
6582.81,0.53345
6577.02,0.52972
6571.24,0.53254
6565.45,0.53497
6559.66,0.53386
6553.88,0.53441
6548.09,0.53586
6542.3,0.53460
6536.52,0.53680
6530.73,0.53270
6524.95,0.52991
6519.16,0.53080
6513.37,0.53042
6507.59,0.53168
6501.8,0.53232
6496.01,0.53342
6490.23,0.53149
6484.44,0.52933
6478.66,0.53326
6472.87,0.53444
6467.08,0.53067
6461.3,0.53284
6455.51,0.53379
6449.72,0.53572
6443.94,0.53541
6438.15,0.53156
6432.37,0.53613
6426.58,0.53653
6420.79,0.53566
6415.01,0.53432
6409.22,0.53820
6403.43,0.54010
6397.65,0.53950
6391.86,0.53766
6386.08,0.53379
6380.29,0.53854
6374.5,0.53652
6368.72,0.53927
6362.93,0.53827
6357.14,0.53669
6351.36,0.53782
6345.57,0.53819
6339.79,0.53777
6334,0.54025
6328.21,0.53677
6322.43,0.53742
6316.64,0.54085
6310.85,0.53879
6305.07,0.53844
6299.28,0.53835
6293.5,0.53732
6287.71,0.54221
6281.92,0.54141
6276.14,0.54244
6270.35,0.54344
6264.56,0.54103
6258.78,0.54762
6252.99,0.54639
6247.21,0.55025
6241.42,0.54692
6235.63,0.54934
6229.85,0.55006
6224.06,0.55280
6218.27,0.55520
6212.49,0.55695
6206.7,0.55773
6200.92,0.55983
6195.13,0.55759
6189.34,0.55856
6183.56,0.56002
6177.77,0.56129
6171.98,0.56347
6166.2,0.56526
6160.41,0.56570
6154.63,0.57237
6148.84,0.57154
6143.05,0.57305
6137.27,0.56839
6131.48,0.57204
6125.7,0.57266
6119.91,0.57382
6114.12,0.57588
6108.34,0.57708
6102.55,0.57337
6096.76,0.57641
6090.98,0.57779
6085.19,0.57867
6079.41,0.57529
6073.62,0.58108
6067.83,0.58023
6062.05,0.57917
6056.26,0.58319
6050.47,0.58237
6044.69,0.58255
6038.9,0.58587
6033.12,0.58453
6027.33,0.58260
6021.54,0.58657
6015.76,0.58568
6009.97,0.58680
6004.18,0.58551
5998.4,0.58557
5992.61,0.58581
5986.83,0.58859
5981.04,0.58808
5975.25,0.58884
5969.47,0.58635
5963.68,0.58841
5957.89,0.58763
5952.11,0.58768
5946.32,0.59068
5940.54,0.58827
5934.75,0.58744
5928.96,0.58967
5923.18,0.58708
5917.39,0.58564
5911.6,0.58615
5905.82,0.58598
5900.03,0.58303
5894.25,0.58314
5888.46,0.58077
5882.67,0.57995
5876.89,0.57874
5871.1,0.57839
5865.31,0.57696
5859.53,0.57793
5853.74,0.57820
5847.96,0.57893
5842.17,0.57790
5836.38,0.57939
5830.6,0.57983
5824.81,0.57863
5819.02,0.57727
5813.24,0.57663
5807.45,0.57784
5801.67,0.57631
5795.88,0.57623
5790.09,0.57764
5784.31,0.57607
5778.52,0.57735
5772.73,0.57568
5766.95,0.57725
5761.16,0.57607
5755.38,0.57656
5749.59,0.57833
5743.8,0.57694
5738.02,0.57736
5732.23,0.57524
5726.44,0.57377
5720.66,0.57386
5714.87,0.57725
5709.09,0.57658
5703.3,0.57241
5697.51,0.57279
5691.73,0.57473
5685.94,0.57439
5680.15,0.57201
5674.37,0.57320
5668.58,0.57226
5662.8,0.57461
5657.01,0.57127
5651.22,0.57324
5645.44,0.56922
5639.65,0.57093
5633.87,0.57211
5628.08,0.57217
5622.29,0.57094
5616.51,0.57232
5610.72,0.57074
5604.93,0.57113
5599.15,0.56992
5593.36,0.57138
5587.58,0.57139
5581.79,0.57118
5576,0.57367
5570.22,0.57200
5564.43,0.57130
5558.64,0.57152
5552.86,0.57223
5547.07,0.57110
5541.29,0.57097
5535.5,0.57065
5529.71,0.57329
5523.93,0.57039
5518.14,0.57161
5512.35,0.57220
5506.57,0.57030
5500.78,0.57004
5495,0.56842
5489.21,0.57154
5483.42,0.57196
5477.64,0.57128
5471.85,0.57236
5466.06,0.57161
5460.28,0.57171
5454.49,0.57468
5448.71,0.57319
5442.92,0.57379
5437.13,0.57442
5431.35,0.57457
5425.56,0.57478
5419.77,0.57600
5413.99,0.57613
5408.2,0.57614
5402.42,0.57743
5396.63,0.57779
5390.84,0.57943
5385.06,0.57904
5379.27,0.58068
5373.48,0.57979
5367.7,0.58012
5361.91,0.58116
5356.13,0.58013
5350.34,0.58056
5344.55,0.57947
5338.77,0.57980
5332.98,0.57905
5327.19,0.58024
5321.41,0.58091
5315.62,0.57852
5309.84,0.57813
5304.05,0.57901
5298.26,0.57741
5292.48,0.57665
5286.69,0.57565
5280.9,0.57284
5275.12,0.57294
5269.33,0.57179
5263.55,0.56917
5257.76,0.56707
5251.97,0.56470
5246.19,0.56385
5240.4,0.56155
5234.61,0.56034
5228.83,0.55664
5223.04,0.55513
5217.26,0.55529
5211.47,0.55268
5205.68,0.55249
5199.9,0.55091
5194.11,0.55095
5188.32,0.55185
5182.54,0.55049
5176.75,0.54967
5170.97,0.55110
5165.18,0.55255
5159.39,0.55364
5153.61,0.55208
5147.82,0.55279
5142.03,0.55289
5136.25,0.55421
5130.46,0.55513
5124.68,0.55596
5118.89,0.55639
5113.1,0.55831
5107.32,0.55813
5101.53,0.55882
5095.75,0.55910
5089.96,0.55954
5084.17,0.55989
5078.39,0.56005
5072.6,0.56118
5066.81,0.56080
5061.03,0.56073
5055.24,0.56134
5049.46,0.56174
5043.67,0.56098
5037.88,0.56136
5032.1,0.56005
5026.31,0.55982
5020.52,0.56081
5014.74,0.55850
5008.95,0.55763
5003.17,0.55740
4997.38,0.55715
4991.59,0.55651
4985.81,0.55434
4980.02,0.55303
4974.23,0.55122
4968.45,0.54880
4962.66,0.54712
4956.88,0.54496
4951.09,0.54204
4945.3,0.53885
4939.52,0.53517
4933.73,0.53243
4927.94,0.52657
4922.16,0.52223
4916.37,0.51762
4910.59,0.51193
4904.8,0.50771
4899.01,0.50351
4893.23,0.49641
4887.44,0.49159
4881.65,0.48457
4875.87,0.47939
4870.08,0.47484
4864.3,0.47063
4858.51,0.46505
4852.72,0.46000
4846.94,0.45573
4841.15,0.45157
4835.36,0.44774
4829.58,0.44199
4823.79,0.43847
4818.01,0.43473
4812.22,0.43019
4806.43,0.42762
4800.65,0.42528
4794.86,0.42297
4789.07,0.42154
4783.29,0.41964
4777.5,0.41870
4771.72,0.41749
4765.93,0.41578
4760.14,0.41567
4754.36,0.41589
4748.57,0.41567
4742.78,0.41554
4737,0.41607
4731.21,0.41836
4725.43,0.42015
4719.64,0.42266
4713.85,0.42444
4708.07,0.42654
4702.28,0.42821
4696.49,0.43189
4690.71,0.43523
4684.92,0.43707
4679.14,0.44074
4673.35,0.44206
4667.56,0.44486
4661.78,0.44691
4655.99,0.44866
4650.2,0.45130
4644.42,0.45385
4638.63,0.45582
4632.85,0.45877
4627.06,0.46005
4621.27,0.46158
4615.49,0.46369
4609.7,0.46744
4603.92,0.46933
4598.13,0.47147
4592.34,0.47371
4586.56,0.47605
4580.77,0.47825
4574.98,0.48065
4569.2,0.48217
4563.41,0.48434
4557.63,0.48734
4551.84,0.48805
4546.05,0.49030
4540.27,0.49199
4534.48,0.49315
4528.69,0.49511
4522.91,0.49625
4517.12,0.49629
4511.34,0.49741
4505.55,0.49826
4499.76,0.49927
4493.98,0.49965
4488.19,0.49900
4482.4,0.49813
4476.62,0.49908
4470.83,0.49732
4465.05,0.49719
4459.26,0.49470
4453.47,0.49099
4447.69,0.48531
4441.9,0.47919
4436.11,0.47288
4430.33,0.46406
4424.54,0.45646
4418.76,0.44625
4412.97,0.43774
4407.18,0.42972
4401.4,0.42410
4395.61,0.42303
4389.82,0.42501
4384.04,0.42887
4378.25,0.43202
4372.47,0.43593
4366.68,0.43728
4360.89,0.43885
4355.11,0.43679
4349.32,0.43490
4343.53,0.43140
4337.75,0.42966
4331.96,0.42582
4326.18,0.42246
4320.39,0.41806
4314.6,0.41543
4308.82,0.41260
4303.03,0.40966
4297.24,0.40697
4291.46,0.40413
4285.67,0.40112
4279.89,0.39963
4274.1,0.39848
4268.31,0.39847
4262.53,0.39927
4256.74,0.39994
4250.95,0.40047
4245.17,0.40146
4239.38,0.40227
4233.6,0.40480
4227.81,0.40614
4222.02,0.40661
4216.24,0.40606
4210.45,0.40773
4204.66,0.41080
4198.88,0.41337
4193.09,0.41504
4187.31,0.41515
4181.52,0.41603
4175.73,0.41571
4169.95,0.41730
4164.16,0.42001
4158.37,0.42036
4152.59,0.41990
4146.8,0.41877
4141.02,0.41632
4135.23,0.41597
4129.44,0.41373
4123.66,0.41164
4117.87,0.40663
4112.09,0.40256
4106.3,0.39724
4100.51,0.39072
4094.73,0.38434
4088.94,0.37813
4083.15,0.37094
4077.37,0.36456
4071.58,0.35879
4065.8,0.35066
4060.01,0.34334
4054.22,0.33543
4048.44,0.32704
4042.65,0.32019
4036.86,0.31527
4031.08,0.31177
4025.29,0.31058
4019.51,0.31030
4013.72,0.31213
4007.93,0.31513
4002.15,0.31759
3996.36,0.32109
3990.57,0.32377
3984.79,0.32751
3979,0.32996
3973.22,0.33183
3967.43,0.33473
3961.64,0.33703
3955.86,0.33978
3950.07,0.34245
3944.28,0.34540
3938.5,0.34988
3932.71,0.35288
3926.93,0.35645
3921.14,0.36007
3915.35,0.36194
3909.57,0.36416
3903.78,0.36621
3897.99,0.36837
3892.21,0.37098
3886.42,0.37367
3880.64,0.37480
3874.85,0.37642
3869.06,0.37866
3863.28,0.38349
3857.49,0.38779
3851.7,0.39231
3845.92,0.39558
3840.13,0.39837
3834.35,0.40029
3828.56,0.40192
3822.77,0.40300
3816.99,0.40375
3811.2,0.40308
3805.41,0.40348
3799.63,0.40514
3793.84,0.40672
3788.06,0.40708
3782.27,0.40821
3776.48,0.40833
3770.7,0.40840
3764.91,0.40790
3759.12,0.40771
3753.34,0.40731
3747.55,0.40658
3741.77,0.40393
3735.98,0.40202
3730.19,0.39947
3724.41,0.39669
3718.62,0.39336
3712.83,0.38878
3707.05,0.38329
3701.26,0.37815
3695.48,0.37197
3689.69,0.36467
3683.9,0.35549
3678.12,0.34503
3672.33,0.33306
3666.54,0.32042
3660.76,0.30635
3654.97,0.29269
3649.19,0.27692
3643.4,0.26136
3637.61,0.24619
3631.83,0.23004
3626.04,0.21377
3620.25,0.19702
3614.47,0.18088
3608.68,0.16357
3602.9,0.14886
3597.11,0.13491
3591.32,0.12303
3585.54,0.11218
3579.75,0.10232
3573.97,0.09381
3568.18,0.08593
3562.39,0.07922
3556.61,0.07304
3550.82,0.06776
3545.03,0.06240
3539.25,0.05830
3533.46,0.05398
3527.68,0.05069
3521.89,0.04733
3516.1,0.04359
3510.32,0.04238
3504.53,0.03934
3498.74,0.03737
3492.96,0.03681
3487.17,0.03498
3481.39,0.03366
3475.6,0.03256
3469.81,0.03102
3464.03,0.03110
3458.24,0.03131
3452.45,0.03015
3446.67,0.03022
3440.88,0.03000
3435.1,0.02996
3429.31,0.02953
3423.52,0.02977
3417.74,0.03028
3411.95,0.03030
3406.16,0.02938
3400.38,0.02996
3394.59,0.03078
3388.81,0.02995
3383.02,0.03043
3377.23,0.03116
3371.45,0.03176
3365.66,0.03234
3359.87,0.03269
3354.09,0.03433
3348.3,0.03523
3342.52,0.03774
3336.73,0.03857
3330.94,0.03962
3325.16,0.03966
3319.37,0.03973
3313.58,0.03994
3307.8,0.03919
3302.01,0.03962
3296.23,0.04017
3290.44,0.04105
3284.65,0.04104
3278.87,0.04242
3273.08,0.04258
3267.29,0.04446
3261.51,0.04517
3255.72,0.04624
3249.94,0.04787
3244.15,0.04882
3238.36,0.05053
3232.58,0.05266
3226.79,0.05360
3221,0.05536
3215.22,0.05781
3209.43,0.06069
3203.65,0.06270
3197.86,0.06495
3192.07,0.06705
3186.29,0.07005
3180.5,0.07258
3174.71,0.07529
3168.93,0.07796
3163.14,0.08141
3157.36,0.08411
3151.57,0.08714
3145.78,0.09097
3140,0.09412
3134.21,0.09766
3128.42,0.10104
3122.64,0.10434
3116.85,0.10860
3111.07,0.11218
3105.28,0.11540
3099.49,0.11914
3093.71,0.12285
3087.92,0.12685
3082.14,0.13064
3076.35,0.13451
3070.56,0.13774
3064.78,0.14108
3058.99,0.14408
3053.2,0.14722
3047.42,0.15002
3041.63,0.15314
3035.85,0.15521
3030.06,0.15749
3024.27,0.15941
3018.49,0.16115
3012.7,0.16214
3006.91,0.16243
3001.13,0.16136
2995.34,0.15785
2989.56,0.15076
2983.77,0.13958
2977.98,0.12314
2972.2,0.10242
2966.41,0.09179
2960.62,0.09088
2954.84,0.08573
2949.05,0.07825
2943.27,0.07426
2937.48,0.07344
2931.69,0.07158
2925.91,0.06743
2920.12,0.06289
2914.33,0.05872
2908.55,0.05595
2902.76,0.05438
2896.98,0.05563
2891.19,0.05853
2885.4,0.06184
2879.62,0.06383
2873.83,0.06422
2868.04,0.06559
2862.26,0.06797
2856.47,0.07073
2850.69,0.07452
2844.9,0.08192
2839.11,0.09049
2833.33,0.09809
2827.54,0.10407
2821.75,0.10991
2815.97,0.11697
2810.18,0.12288
2804.4,0.12821
2798.61,0.13317
2792.82,0.13642
2787.04,0.13829
2781.25,0.13973
2775.46,0.14045
2769.68,0.14133
2763.89,0.14161
2758.11,0.14281
2752.32,0.14246
2746.53,0.14245
2740.75,0.14224
2734.96,0.14210
2729.17,0.14334
2723.39,0.14489
2717.6,0.14683
2711.82,0.14953
2706.03,0.15326
2700.24,0.15778
2694.46,0.16200
2688.67,0.16641
2682.88,0.17090
2677.1,0.17420
2671.31,0.17647
2665.53,0.17786
2659.74,0.17905
2653.95,0.18130
2648.17,0.18378
2642.38,0.18714
2636.59,0.18937
2630.81,0.19162
2625.02,0.19400
2619.24,0.19687
2613.45,0.19874
2607.66,0.20040
2601.88,0.20283
2596.09,0.20484
2590.3,0.20605
2584.52,0.20711
2578.73,0.20775
2572.95,0.20720
2567.16,0.20638
2561.37,0.20517
2555.59,0.20409
2549.8,0.20279
2544.02,0.20167
2538.23,0.20128
2532.44,0.20194
2526.66,0.20308
2520.87,0.20429
2515.08,0.20585
2509.3,0.20904
2503.51,0.21417
2497.73,0.21926
2491.94,0.22344
2486.15,0.22645
2480.37,0.22968
2474.58,0.23318
2468.79,0.23590
2463.01,0.23746
2457.22,0.23846
2451.44,0.24107
2445.65,0.24383
2439.86,0.24745
2434.08,0.25118
2428.29,0.25533
2422.5,0.25927
2416.72,0.26310
2410.93,0.26598
2405.15,0.26880
2399.36,0.27138
2393.57,0.27495
2387.79,0.27754
2382,0.28088
2376.21,0.28447
2370.43,0.28876
2364.64,0.29159
2358.86,0.29396
2353.07,0.29631
2347.28,0.29952
2341.5,0.30253
2335.71,0.30516
2329.92,0.30719
2324.14,0.30903
2318.35,0.31090
2312.57,0.31222
2306.78,0.31230
2300.99,0.31126
2295.21,0.30941
2289.42,0.30828
2283.63,0.30785
2277.85,0.30659
2272.06,0.30379
2266.28,0.29867
2260.49,0.29314
2254.7,0.29004
2248.92,0.28757
2243.13,0.28608
2237.34,0.28483
2231.56,0.28485
2225.77,0.28621
2219.99,0.28933
2214.2,0.29359
2208.41,0.29570
2202.63,0.29655
2196.84,0.29489
2191.05,0.29184
2185.27,0.28745
2179.48,0.28140
2173.7,0.27509
2167.91,0.26841
2162.12,0.26290
2156.34,0.25868
2150.55,0.25620
2144.76,0.25272
2138.98,0.25045
2133.19,0.24945
2127.41,0.25192
2121.62,0.25551
2115.83,0.25921
2110.05,0.26305
2104.26,0.26645
2098.47,0.26936
2092.69,0.27185
2086.9,0.27430
2081.12,0.27544
2075.33,0.27490
2069.54,0.27348
2063.76,0.27330
2057.97,0.27376
2052.19,0.27356
2046.4,0.27395
2040.61,0.27549
2034.83,0.27919
2029.04,0.28493
2023.25,0.29169
2017.47,0.29862
2011.68,0.30432
2005.9,0.30761
2000.11,0.30871
1994.32,0.31129
1988.54,0.31571
1982.75,0.31951
1976.96,0.32162
1971.18,0.32271
1965.39,0.32356
1959.61,0.32543
1953.82,0.32864
1948.03,0.33310
1942.25,0.33824
1936.46,0.34313
1930.67,0.34674
1924.89,0.34954
1919.1,0.35182
1913.32,0.35296
1907.53,0.35383
1901.74,0.35436
1895.96,0.35343
1890.17,0.35228
1884.38,0.35148
1878.6,0.35065
1872.81,0.34984
1867.03,0.34775
1861.24,0.34599
1855.45,0.34358
1849.67,0.33955
1843.88,0.33519
1838.09,0.33187
1832.31,0.32939
1826.52,0.32715
1820.74,0.32432
1814.95,0.32115
1809.16,0.31742
1803.38,0.31389
1797.59,0.31019
1791.8,0.30764
1786.02,0.30413
1780.23,0.30002
1774.45,0.29529
1768.66,0.29055
1762.87,0.28600
1757.09,0.28247
1751.3,0.27831
1745.51,0.27208
1739.73,0.26496
1733.94,0.26020
1728.16,0.25686
1722.37,0.25578
1716.58,0.25361
1710.8,0.24998
1705.01,0.24389
1699.22,0.23469
1693.44,0.22140
1687.65,0.20495
1681.87,0.18751
1676.08,0.17403
1670.29,0.16551
1664.51,0.16198
1658.72,0.16214
1652.93,0.16546
1647.15,0.16794
1641.36,0.16866
1635.58,0.16850
1629.79,0.16994
1624,0.17250
1618.22,0.17543
1612.43,0.17673
1606.64,0.17757
1600.86,0.17773
1595.07,0.17825
1589.29,0.17876
1583.5,0.17781
1577.71,0.17651
1571.93,0.17746
1566.14,0.17842
1560.35,0.17838
1554.57,0.17654
1548.78,0.17442
1543,0.17113
1537.21,0.16904
1531.42,0.16828
1525.64,0.16564
1519.85,0.16135
1514.07,0.15514
1508.28,0.14880
1502.49,0.14113
1496.71,0.13072
1490.92,0.11607
1485.13,0.09531
1479.35,0.08280
1473.56,0.07568
1467.78,0.06591
1461.99,0.05694
1456.2,0.05183
1450.42,0.04918
1444.63,0.04689
1438.84,0.04291
1433.06,0.03953
1427.27,0.04154
1421.49,0.04701
1415.7,0.05296
1409.91,0.05559
1404.13,0.05550
1398.34,0.05520
1392.55,0.05234
1386.77,0.04680
1380.98,0.03946
1375.2,0.03579
1369.41,0.03668
1363.62,0.03791
1357.84,0.03876
1352.05,0.04066
1346.26,0.04020
1340.48,0.03835
1334.69,0.03839
1328.91,0.03946
1323.12,0.03912
1317.33,0.03933
1311.55,0.04301
1305.76,0.04804
1299.97,0.05166
1294.19,0.05084
1288.4,0.04824
1282.62,0.04491
1276.83,0.04848
1271.04,0.05215
1265.26,0.05229
1259.47,0.05140
1253.68,0.04980
1247.9,0.04811
1242.11,0.04773
1236.33,0.04642
1230.54,0.04860
1224.75,0.05055
1218.97,0.05041
1213.18,0.04426
1207.39,0.03647
1201.61,0.03530
1195.82,0.03618
1190.04,0.03597
1184.25,0.03380
1178.46,0.03451
1172.68,0.04261
1166.89,0.05106
1161.1,0.04903
1155.32,0.04214
1149.53,0.03681
1143.75,0.03245
1137.96,0.02721
1132.17,0.02455
1126.39,0.02599
1120.6,0.03041
1114.81,0.03564
1109.03,0.03947
1103.24,0.03667
1097.46,0.03449
1091.67,0.03258
1085.88,0.03517
1080.1,0.04478
1074.31,0.05511
1068.52,0.06787
1062.74,0.08316
1056.95,0.08051
1051.17,0.06927
1045.38,0.06015
1039.59,0.06544
1033.81,0.07379
1028.02,0.07047
1022.24,0.06750
1016.45,0.06706
1010.66,0.06793
1004.88,0.06650
999.09,0.06762
993.304,0.07136
987.518,0.07338
981.731,0.08312
975.945,0.09925
970.159,0.10979
964.373,0.11850
958.586,0.13070
952.8,0.14304
947.014,0.15132
941.228,0.15578
935.441,0.15654
929.655,0.15611
923.869,0.15791
918.083,0.15384
912.297,0.14065
906.51,0.13069
900.724,0.12299
894.938,0.12325
889.152,0.13444
883.365,0.14933
877.579,0.16244
871.793,0.17475
866.007,0.18140
860.22,0.18236
854.434,0.18159
848.648,0.18018
842.862,0.17718
837.075,0.17279
831.289,0.16752
825.503,0.16276
819.717,0.15889
813.931,0.15354
808.144,0.14856
802.358,0.14179
796.572,0.13681
790.786,0.13227
784.999,0.12707
779.213,0.12130
773.427,0.11495
767.641,0.10854
761.854,0.10225
756.068,0.09463
750.282,0.08827
744.496,0.08175
738.709,0.07657
732.923,0.07057
727.137,0.06502
721.351,0.05854
715.565,0.05550
709.778,0.05398
703.992,0.05356
698.206,0.05541
692.42,0.05516
686.633,0.05548
680.847,0.05366
675.061,0.05157
669.275,0.05041
663.488,0.05081
657.702,0.05281
651.916,0.05143
646.13,0.04981
640.343,0.04840
634.557,0.04380
628.771,0.04534
622.985,0.04516
617.198,0.04661
611.412,0.04964
605.626,0.05072
599.84,0.05215