File: 01_Data/HIPS/FTIR/IS/HIPS_IS_S_220901_R6.dpt
7497.03,0.81930
7491.25,0.82660
7485.46,0.82467
7479.67,0.82472
7473.89,0.82781
7468.1,0.81295
7462.32,0.81346
7456.53,0.81469
7450.74,0.80577
7444.96,0.79416
7439.17,0.80650
7433.38,0.79464
7427.6,0.79593
7421.81,0.79492
7416.03,0.79906
7410.24,0.79424
7404.45,0.79277
7398.67,0.79964
7392.88,0.80376
7387.09,0.81283
7381.31,0.80562
7375.52,0.81080
7369.74,0.80676
7363.95,0.80877
7358.16,0.81875
7352.38,0.80564
7346.59,0.80069
7340.8,0.81032
7335.02,0.79961
7329.23,0.78697
7323.45,0.78255
7317.66,0.78409
7311.87,0.77704
7306.09,0.77520
7300.3,0.77365
7294.51,0.76298
7288.73,0.75796
7282.94,0.75658
7277.16,0.74908
7271.37,0.74544
7265.58,0.74352
7259.8,0.73837
7254.01,0.74437
7248.22,0.73645
7242.44,0.73077
7236.65,0.73085
7230.87,0.72086
7225.08,0.72052
7219.29,0.71959
7213.51,0.71280
7207.72,0.70874
7201.93,0.70669
7196.15,0.70670
7190.36,0.69916
7184.58,0.69142
7178.79,0.69184
7173,0.69588
7167.22,0.69205
7161.43,0.69815
7155.65,0.69694
7149.86,0.69570
7144.07,0.69830
7138.29,0.69812
7132.5,0.69350
7126.71,0.68654
7120.93,0.68723
7115.14,0.68280
7109.36,0.68670
7103.57,0.68447
7097.78,0.67695
7092,0.67073
7086.21,0.67564
7080.42,0.67674
7074.64,0.67065
7068.85,0.66676
7063.07,0.67344
7057.28,0.67432
7051.49,0.67689
7045.71,0.68121
7039.92,0.68679
7034.13,0.67869
7028.35,0.68533
7022.56,0.68745
7016.78,0.68397
7010.99,0.68529
7005.2,0.68098
6999.42,0.68538
6993.63,0.68755
6987.84,0.69042
6982.06,0.68892
6976.27,0.68178
6970.49,0.67776
6964.7,0.68881
6958.91,0.68594
6953.13,0.68735
6947.34,0.69142
6941.55,0.69412
6935.77,0.69983
6929.98,0.69917
6924.2,0.69971
6918.41,0.69666
6912.62,0.70216
6906.84,0.69711
6901.05,0.70552
6895.26,0.71246
6889.48,0.71135
6883.69,0.71332
6877.91,0.71186
6872.12,0.71308
6866.33,0.72404
6860.55,0.72336
6854.76,0.73200
6848.97,0.72877
6843.19,0.72622
6837.4,0.72898
6831.62,0.72583
6825.83,0.73366
6820.04,0.73153
6814.26,0.72826
6808.47,0.72862
6802.68,0.73365
6796.9,0.73491
6791.11,0.73298
6785.33,0.73856
6779.54,0.74058
6773.75,0.74015
6767.97,0.74179
6762.18,0.74272
6756.39,0.74516
6750.61,0.74097
6744.82,0.74252
6739.04,0.74358
6733.25,0.74284
6727.46,0.73994
6721.68,0.74312
6715.89,0.74776
6710.1,0.75018
6704.32,0.74804
6698.53,0.74847
6692.75,0.75048
6686.96,0.74972
6681.17,0.75014
6675.39,0.75759
6669.6,0.76474
6663.82,0.76320
6658.03,0.76246
6652.24,0.76651
6646.46,0.76863
6640.67,0.76509
6634.88,0.76743
6629.1,0.76324
6623.31,0.76918
6617.53,0.77032
6611.74,0.77622
6605.95,0.76558
6600.17,0.76855
6594.38,0.77294
6588.59,0.77496
6582.81,0.77409
6577.02,0.77525
6571.24,0.77713
6565.45,0.77885
6559.66,0.78090
6553.88,0.77582
6548.09,0.77571
6542.3,0.77752
6536.52,0.77524
6530.73,0.78251
6524.95,0.77850
6519.16,0.78465
6513.37,0.78750
6507.59,0.79113
6501.8,0.79202
6496.01,0.79448
6490.23,0.79063
6484.44,0.79298
6478.66,0.79664
6472.87,0.79379
6467.08,0.79703
6461.3,0.80006
6455.51,0.80501
6449.72,0.79786
6443.94,0.79706
6438.15,0.80050
6432.37,0.80160
6426.58,0.79846
6420.79,0.80389
6415.01,0.80023
6409.22,0.80138
6403.43,0.79418
6397.65,0.79563
6391.86,0.79565
6386.08,0.79440
6380.29,0.79397
6374.5,0.78967
6368.72,0.78537
6362.93,0.78355
6357.14,0.78210
6351.36,0.78501
6345.57,0.78401
6339.79,0.78214
6334,0.78340
6328.21,0.77894
6322.43,0.77875
6316.64,0.77693
6310.85,0.77579
6305.07,0.77028
6299.28,0.76744
6293.5,0.76286
6287.71,0.76371
6281.92,0.76459
6276.14,0.76310
6270.35,0.76051
6264.56,0.75577
6258.78,0.75089
6252.99,0.74590
6247.21,0.73945
6241.42,0.73287
6235.63,0.73193
6229.85,0.72581
6224.06,0.71994
6218.27,0.71235
6212.49,0.70894
6206.7,0.70227
6200.92,0.69271
6195.13,0.68189
6189.34,0.66739
6183.56,0.65691
6177.77,0.64321
6171.98,0.62609
6166.2,0.60411
6160.41,0.58145
6154.63,0.56017
6148.84,0.53414
6143.05,0.51036
6137.27,0.49808
6131.48,0.48405
6125.7,0.47268
6119.91,0.45049
6114.12,0.43342
6108.34,0.43126
6102.55,0.43257
6096.76,0.44037
6090.98,0.43771
6085.19,0.43081
6079.41,0.42308
6073.62,0.42202
6067.83,0.43378
6062.05,0.45646
6056.26,0.47113
6050.47,0.47506
6044.69,0.46413
6038.9,0.44350
6033.12,0.41849
6027.33,0.38947
6021.54,0.35982
6015.76,0.33077
6009.97,0.30542
6004.18,0.28167
5998.4,0.26148
5992.61,0.24478
5986.83,0.23219
5981.04,0.21469
5975.25,0.20220
5969.47,0.19627
5963.68,0.19398
5957.89,0.19356
5952.11,0.19155
5946.32,0.19024
5940.54,0.19410
5934.75,0.19432
5928.96,0.20350
5923.18,0.20544
5917.39,0.21116
5911.6,0.21189
5905.82,0.21608
5900.03,0.22105
5894.25,0.22777
5888.46,0.23642
5882.67,0.25013
5876.89,0.26557
5871.1,0.27722
5865.31,0.28470
5859.53,0.29042
5853.74,0.29324
5847.96,0.29216
5842.17,0.29348
5836.38,0.29569
5830.6,0.29794
5824.81,0.29995
5819.02,0.29998
5813.24,0.29851
5807.45,0.29691
5801.67,0.29568
5795.88,0.29786
5790.09,0.29971
5784.31,0.30381
5778.52,0.31477
5772.73,0.32909
5766.95,0.34365
5761.16,0.36057
5755.38,0.37585
5749.59,0.38741
5743.8,0.39625
5738.02,0.40258
5732.23,0.39814
5726.44,0.39173
5720.66,0.37668
5714.87,0.36295
5709.09,0.35140
5703.3,0.34368
5697.51,0.33671
5691.73,0.33649
5685.94,0.33212
5680.15,0.32654
5674.37,0.31850
5668.58,0.31742
5662.8,0.31813
5657.01,0.32519
5651.22,0.33552
5645.44,0.34583
5639.65,0.35581
5633.87,0.36357
5628.08,0.37179
5622.29,0.37902
5616.51,0.38162
5610.72,0.38229
5604.93,0.38251
5599.15,0.37930
5593.36,0.37754
5587.58,0.37385
5581.79,0.37653
5576,0.38175
5570.22,0.38492
5564.43,0.38671
5558.64,0.38646
5552.86,0.38896
5547.07,0.38850
5541.29,0.38676
5535.5,0.38716
5529.71,0.38728
5523.93,0.39006
5518.14,0.39096
5512.35,0.39226
5506.57,0.39203
5500.78,0.39587
5495,0.39891
5489.21,0.40541
5483.42,0.40845
5477.64,0.41262
5471.85,0.41291
5466.06,0.41280
5460.28,0.41450
5454.49,0.41299
5448.71,0.41461
5442.92,0.41413
5437.13,0.41198
5431.35,0.41154
5425.56,0.41143
5419.77,0.41125
5413.99,0.40939
5408.2,0.40973
5402.42,0.40707
5396.63,0.40499
5390.84,0.40460
5385.06,0.40357
5379.27,0.40112
5373.48,0.40144
5367.7,0.40464
5361.91,0.40677
5356.13,0.40917
5350.34,0.41380
5344.55,0.41735
5338.77,0.42302
5332.98,0.42621
5327.19,0.42799
5321.41,0.43028
5315.62,0.43286
5309.84,0.43453
5304.05,0.43412
5298.26,0.43462
5292.48,0.43534
5286.69,0.43729
5280.9,0.43733
5275.12,0.43615
5269.33,0.43644
5263.55,0.43648
5257.76,0.43661
5251.97,0.43575
5246.19,0.43866
5240.4,0.43643
5234.61,0.43501
5228.83,0.43584
5223.04,0.43752
5217.26,0.44072
5211.47,0.44381
5205.68,0.44431
5199.9,0.44538
5194.11,0.44783
5188.32,0.45016
5182.54,0.44994
5176.75,0.44923
5170.97,0.45047
5165.18,0.45248
5159.39,0.45270
5153.61,0.45316
5147.82,0.45120
5142.03,0.44836
5136.25,0.44839
5130.46,0.44681
5124.68,0.44643
5118.89,0.44643
5113.1,0.44848
5107.32,0.45092
5101.53,0.45152
5095.75,0.45196
5089.96,0.45292
5084.17,0.45245
5078.39,0.45392
5072.6,0.45398
5066.81,0.45478
5061.03,0.45380
5055.24,0.45412
5049.46,0.45204
5043.67,0.45154
5037.88,0.45221
5032.1,0.45089
5026.31,0.45379
5020.52,0.45536
5014.74,0.45440
5008.95,0.45572
5003.17,0.45337
4997.38,0.45063
4991.59,0.44737
4985.81,0.44411
4980.02,0.44426
4974.23,0.44257
4968.45,0.44439
4962.66,0.44510
4956.88,0.44591
4951.09,0.44471
4945.3,0.44396
4939.52,0.44268
4933.73,0.44254
4927.94,0.44372
4922.16,0.44480
4916.37,0.44407
4910.59,0.44228
4904.8,0.44244
4899.01,0.44204
4893.23,0.43983
4887.44,0.43682
4881.65,0.43338
4875.87,0.43017
4870.08,0.42849
4864.3,0.42722
4858.51,0.42771
4852.72,0.42494
4846.94,0.42085
4841.15,0.41674
4835.36,0.41246
4829.58,0.41198
4823.79,0.41223
4818.01,0.41480
4812.22,0.41474
4806.43,0.41721
4800.65,0.41592
4794.86,0.41319
4789.07,0.40911
4783.29,0.40487
4777.5,0.39718
4771.72,0.38601
4765.93,0.37454
4760.14,0.36967
4754.36,0.37015
4748.57,0.36835
4742.78,0.36496
4737,0.35809
4731.21,0.34796
4725.43,0.33368
4719.64,0.31619
4713.85,0.29674
4708.07,0.28379
4702.28,0.27791
4696.49,0.26749
4690.71,0.24934
4684.92,0.22026
4679.14,0.18298
4673.35,0.14881
4667.56,0.13047
4661.78,0.12762
4655.99,0.13627
4650.2,0.15083
4644.42,0.15907
4638.63,0.15425
4632.85,0.14277
4627.06,0.13324
4621.27,0.12901
4615.49,0.12917
4609.7,0.12591
4603.92,0.12786
4598.13,0.14142
4592.34,0.15873
4586.56,0.16834
4580.77,0.16558
4574.98,0.14837
4569.2,0.14455
4563.41,0.16446
4557.63,0.18721
4551.84,0.20315
4546.05,0.22106
4540.27,0.23234
4534.48,0.23238
4528.69,0.23538
4522.91,0.23791
4517.12,0.23508
4511.34,0.23369
4505.55,0.23046
4499.76,0.23315
4493.98,0.24402
4488.19,0.24660
4482.4,0.24532
4476.62,0.24851
4470.83,0.25524
4465.05,0.26225
4459.26,0.26530
4453.47,0.26244
4447.69,0.25233
4441.9,0.24126
4436.11,0.23900
4430.33,0.24071
4424.54,0.23624
4418.76,0.22900
4412.97,0.22123
4407.18,0.21286
4401.4,0.20489
4395.61,0.19504
4389.82,0.18473
4384.04,0.17592
4378.25,0.16696
4372.47,0.15782
4366.68,0.14890
4360.89,0.13985
4355.11,0.13297
4349.32,0.12778
4343.53,0.12377
4337.75,0.12042
4331.96,0.11836
4326.18,0.11901
4320.39,0.12358
4314.6,0.13102
4308.82,0.13527
4303.03,0.13722
4297.24,0.13545
4291.46,0.13283
4285.67,0.12916
4279.89,0.12446
4274.1,0.11887
4268.31,0.11355
4262.53,0.10827
4256.74,0.10460
4250.95,0.10314
4245.17,0.10386
4239.38,0.10433
4233.6,0.10627
4227.81,0.10703
4222.02,0.10769
4216.24,0.10802
4210.45,0.10703
4204.66,0.10765
4198.88,0.11000
4193.09,0.11321
4187.31,0.11569
4181.52,0.11746
4175.73,0.11906
4169.95,0.12162
4164.16,0.12297
4158.37,0.12286
4152.59,0.12308
4146.8,0.12298
4141.02,0.12207
4135.23,0.11991
4129.44,0.11733
4123.66,0.11508
4117.87,0.11355
4112.09,0.11099
4106.3,0.10873
4100.51,0.10733
4094.73,0.10582
4088.94,0.10249
4083.15,0.09846
4077.37,0.09411
4071.58,0.08904
4065.8,0.08472
4060.01,0.08240
4054.22,0.08114
4048.44,0.08174
4042.65,0.08216
4036.86,0.08009
4031.08,0.08274
4025.29,0.08692
4019.51,0.09397
4013.72,0.10301
4007.93,0.10696
4002.15,0.10705
3996.36,0.11000
3990.57,0.11647
3984.79,0.11947
3979,0.11876
3973.22,0.11927
3967.43,0.12089
3961.64,0.12131
3955.86,0.12277
3950.07,0.12363
3944.28,0.12240
3938.5,0.12058
3932.71,0.12027
3926.93,0.12177
3921.14,0.12267
3915.35,0.12434
3909.57,0.12522
3903.78,0.12572
3897.99,0.12607
3892.21,0.12722
3886.42,0.12853
3880.64,0.12926
3874.85,0.12897
3869.06,0.12865
3863.28,0.12853
3857.49,0.12841
3851.7,0.12884
3845.92,0.12752
3840.13,0.12571
3834.35,0.12424
3828.56,0.12229
3822.77,0.12088
3816.99,0.11981
3811.2,0.11994
3805.41,0.12025
3799.63,0.12067
3793.84,0.12275
3788.06,0.12632
3782.27,0.12872
3776.48,0.12881
3770.7,0.12876
3764.91,0.12737
3759.12,0.12866
3753.34,0.13112
3747.55,0.13329
3741.77,0.13328
3735.98,0.13264
3730.19,0.13007
3724.41,0.12526
3718.62,0.12408
3712.83,0.12746
3707.05,0.12454
3701.26,0.11862
3695.48,0.11884
3689.69,0.12161
3683.9,0.11928
3678.12,0.11654
3672.33,0.11563
3666.54,0.11568
3660.76,0.11211
3654.97,0.10439
3649.19,0.09801
3643.4,0.09887
3637.61,0.11017
3631.83,0.11774
3626.04,0.11496
3620.25,0.10920
3614.47,0.11886
3608.68,0.13129
3602.9,0.13712
3597.11,0.13761
3591.32,0.13808
3585.54,0.13795
3579.75,0.14143
3573.97,0.14626
3568.18,0.15016
3562.39,0.15038
3556.61,0.15066
3550.82,0.15031
3545.03,0.14979
3539.25,0.14800
3533.46,0.14701
3527.68,0.14540
3521.89,0.14487
3516.1,0.14357
3510.32,0.14227
3504.53,0.14140
3498.74,0.13915
3492.96,0.13691
3487.17,0.13393
3481.39,0.13278
3475.6,0.13089
3469.81,0.12896
3464.03,0.12808
3458.24,0.12774
3452.45,0.12597
3446.67,0.12390
3440.88,0.12168
3435.1,0.12360
3429.31,0.12840
3423.52,0.13115
3417.74,0.13477
3411.95,0.13614
3406.16,0.13542
3400.38,0.13585
3394.59,0.13697
3388.81,0.13618
3383.02,0.13640
3377.23,0.13827
3371.45,0.14117
3365.66,0.14204
3359.87,0.14209
3354.09,0.14159
3348.3,0.14005
3342.52,0.13808
3336.73,0.13712
3330.94,0.13526
3325.16,0.13287
3319.37,0.13089
3313.58,0.12586
3307.8,0.11640
3302.01,0.10650
3296.23,0.10702
3290.44,0.11291
3284.65,0.11781
3278.87,0.12052
3273.08,0.12079
3267.29,0.12149
3261.51,0.11934
3255.72,0.11895
3249.94,0.11824
3244.15,0.11717
3238.36,0.11613
3232.58,0.11426
3226.79,0.11245
3221,0.10973
3215.22,0.10758
3209.43,0.10437
3203.65,0.10043
3197.86,0.09842
3192.07,0.09725
3186.29,0.09573
3180.5,0.09464
3174.71,0.09262
3168.93,0.08691
3163.14,0.08107
3157.36,0.08252
3151.57,0.08537
3145.78,0.08479
3140,0.08322
3134.21,0.08125
3128.42,0.07900
3122.64,0.07577
3116.85,0.07159
3111.07,0.06856
3105.28,0.06673
3099.49,0.06656
3093.71,0.06596
3087.92,0.06457
3082.14,0.06493
3076.35,0.06547
3070.56,0.06501
3064.78,0.06442
3058.99,0.06529
3053.2,0.06559
3047.42,0.06580
3041.63,0.06492
3035.85,0.06445
3030.06,0.06402
3024.27,0.06617
3018.49,0.06795
3012.7,0.06794
3006.91,0.06759
3001.13,0.06661
2995.34,0.06721
2989.56,0.06756
2983.77,0.06713
2977.98,0.06648
2972.2,0.06648
2966.41,0.06579
2960.62,0.06558
2954.84,0.06449
2949.05,0.06367
2943.27,0.06384
2937.48,0.06337
2931.69,0.06402
2925.91,0.06572
2920.12,0.06763
2914.33,0.06910
2908.55,0.06932
2902.76,0.06901
2896.98,0.06953
2891.19,0.06867
2885.4,0.06857
2879.62,0.06827
2873.83,0.06803
2868.04,0.06805
2862.26,0.06808
2856.47,0.06790
2850.69,0.06822
2844.9,0.06913
2839.11,0.06902
2833.33,0.06934
2827.54,0.06946
2821.75,0.07024
2815.97,0.07087
2810.18,0.07121
2804.4,0.07139
2798.61,0.07174
2792.82,0.07201
2787.04,0.07289
2781.25,0.07288
2775.46,0.07354
2769.68,0.07468
2763.89,0.07541
2758.11,0.07599
2752.32,0.07607
2746.53,0.07648
2740.75,0.07619
2734.96,0.07557
2729.17,0.07462
2723.39,0.07503
2717.6,0.07418
2711.82,0.07500
2706.03,0.07529
2700.24,0.07516
2694.46,0.07519
2688.67,0.07472
2682.88,0.07454
2677.1,0.07447
2671.31,0.07435
2665.53,0.07462
2659.74,0.07454
2653.95,0.07480
2648.17,0.07420
2642.38,0.07447
2636.59,0.07337
2630.81,0.07290
2625.02,0.07417
2619.24,0.07497
2613.45,0.07530
2607.66,0.07381
2601.88,0.07329
2596.09,0.07453
2590.3,0.07540
2584.52,0.07484
2578.73,0.07454
2572.95,0.07634
2567.16,0.07589
2561.37,0.07570
2555.59,0.07579
2549.8,0.07587
2544.02,0.07571
2538.23,0.07626
2532.44,0.07628
2526.66,0.07602
2520.87,0.07558
2515.08,0.07520
2509.3,0.07525
2503.51,0.07566
2497.73,0.07603
2491.94,0.07651
2486.15,0.07710
2480.37,0.07783
2474.58,0.07856
2468.79,0.07968
2463.01,0.08051
2457.22,0.08065
2451.44,0.08045
2445.65,0.08074
2439.86,0.08087
2434.08,0.08110
2428.29,0.08199
2422.5,0.08243
2416.72,0.08206
2410.93,0.08123
2405.15,0.08032
2399.36,0.07962
2393.57,0.07963
2387.79,0.07898
2382,0.07881
2376.21,0.07848
2370.43,0.07778
2364.64,0.07635
2358.86,0.07582
2353.07,0.07593
2347.28,0.07505
2341.5,0.07239
2335.71,0.07150
2329.92,0.07426
2324.14,0.07663
2318.35,0.07554
2312.57,0.07341
2306.78,0.07431
2300.99,0.07722
2295.21,0.07746
2289.42,0.07782
2283.63,0.07911
2277.85,0.08021
2272.06,0.07942
2266.28,0.07891
2260.49,0.07753
2254.7,0.07695
2248.92,0.07759
2243.13,0.07888
2237.34,0.08030
2231.56,0.08050
2225.77,0.08062
2219.99,0.08129
2214.2,0.08118
2208.41,0.08095
2202.63,0.08201
2196.84,0.08203
2191.05,0.08120
2185.27,0.08018
2179.48,0.08146
2173.7,0.08306
2167.91,0.08399
2162.12,0.08421
2156.34,0.08436
2150.55,0.08407
2144.76,0.08430
2138.98,0.08510
2133.19,0.08596
2127.41,0.08620
2121.62,0.08643
2115.83,0.08620
2110.05,0.08677
2104.26,0.08713
2098.47,0.08771
2092.69,0.08813
2086.9,0.08855
2081.12,0.08826
2075.33,0.08699
2069.54,0.08664
2063.76,0.08592
2057.97,0.08564
2052.19,0.08550
2046.4,0.08484
2040.61,0.08445
2034.83,0.08263
2029.04,0.08177
2023.25,0.08182
2017.47,0.08112
2011.68,0.07944
2005.9,0.07800
2000.11,0.07680
1994.32,0.07459
1988.54,0.07174
1982.75,0.07054
1976.96,0.07024
1971.18,0.06862
1965.39,0.06704
1959.61,0.06645
1953.82,0.06634
1948.03,0.06645
1942.25,0.06614
1936.46,0.06668
1930.67,0.06752
1924.89,0.06827
1919.1,0.06939
1913.32,0.07021
1907.53,0.07029
1901.74,0.06867
1895.96,0.06742
1890.17,0.06663
1884.38,0.06649
1878.6,0.06621
1872.81,0.06616
1867.03,0.06632
1861.24,0.06683
1855.45,0.06756
1849.67,0.06898
1843.88,0.07010
1838.09,0.06949
1832.31,0.06839
1826.52,0.06710
1820.74,0.06641
1814.95,0.06599
1809.16,0.06597
1803.38,0.06541
1797.59,0.06575
1791.8,0.06625
1786.02,0.06744
1780.23,0.06742
1774.45,0.06714
1768.66,0.06724
1762.87,0.06666
1757.09,0.06595
1751.3,0.06559
1745.51,0.06548
1739.73,0.06582
1733.94,0.06624
1728.16,0.06650
1722.37,0.06741
1716.58,0.06763
1710.8,0.06700
1705.01,0.06686
1699.22,0.06697
1693.44,0.06619
1687.65,0.06605
1681.87,0.06545
1676.08,0.06532
1670.29,0.06507
1664.51,0.06541
1658.72,0.06526
1652.93,0.06564
1647.15,0.06589
1641.36,0.06545
1635.58,0.06532
1629.79,0.06553
1624,0.06496
1618.22,0.06476
1612.43,0.06385
1606.64,0.06283
1600.86,0.06465
1595.07,0.06608
1589.29,0.06557
1583.5,0.06543
1577.71,0.06636
1571.93,0.06595
1566.14,0.06562
1560.35,0.06583
1554.57,0.06492
1548.78,0.06456
1543,0.06444
1537.21,0.06447
1531.42,0.06443
1525.64,0.06424
1519.85,0.06393
1514.07,0.06337
1508.28,0.06223
1502.49,0.06046
1496.71,0.05892
1490.92,0.06806
1485.13,0.06773
1479.35,0.06581
1473.56,0.06465
1467.78,0.06366
1461.99,0.06153
1456.2,0.05933
1450.42,0.06776
1444.63,0.06922
1438.84,0.06878
1433.06,0.06813
1427.27,0.06716
1421.49,0.06674
1415.7,0.06613
1409.91,0.06618
1404.13,0.06587
1398.34,0.06549
1392.55,0.06537
1386.77,0.06473
1380.98,0.06452
1375.2,0.06499
1369.41,0.06505
1363.62,0.06525
1357.84,0.06557
1352.05,0.06541
1346.26,0.06544
1340.48,0.06533
1334.69,0.06504
1328.91,0.06479
1323.12,0.06490
1317.33,0.06489
1311.55,0.06499
1305.76,0.06534
1299.97,0.06524
1294.19,0.06530
1288.4,0.06522
1282.62,0.06550
1276.83,0.06530
1271.04,0.06512
1265.26,0.06563
1259.47,0.06582
1253.68,0.06556
1247.9,0.06538
1242.11,0.06522
1236.33,0.06508
1230.54,0.06512
1224.75,0.06434
1218.97,0.06452
1213.18,0.06441
1207.39,0.06449
1201.61,0.06449
1195.82,0.06376
1190.04,0.06440
1184.25,0.06403
1178.46,0.06467
1172.68,0.06509
1166.89,0.06481
1161.1,0.06458
1155.32,0.06468
1149.53,0.06628
1143.75,0.06623
1137.96,0.06613
1132.17,0.06559
1126.39,0.06590
1120.6,0.06539
1114.81,0.06439
1109.03,0.06436
1103.24,0.06416
1097.46,0.06393
1091.67,0.06346
1085.88,0.06352
1080.1,0.06230
1074.31,0.06273
1068.52,0.06330
1062.74,0.06420
1056.95,0.06421
1051.17,0.06373
1045.38,0.06404
1039.59,0.06323
1033.81,0.06297
1028.02,0.06589
1022.24,0.06730
1016.45,0.06693
1010.66,0.06577
1004.88,0.06462
999.09,0.06457
993.304,0.06429
987.518,0.06425
981.731,0.06380
975.945,0.06335
970.159,0.06337
964.373,0.06321
958.586,0.06399
952.8,0.06352
947.014,0.06317
941.228,0.06404
935.441,0.06418
929.655,0.06307
923.869,0.06278
918.083,0.06239
912.297,0.06238
906.51,0.06235
900.724,0.06348
894.938,0.06267
889.152,0.06270
883.365,0.06280
877.579,0.06188
871.793,0.06294
866.007,0.06224
860.22,0.06153
854.434,0.06039
848.648,0.06059
842.862,0.06118
837.075,0.06071
831.289,0.06164
825.503,0.06061
819.717,0.05946
813.931,0.05942
808.144,0.05909
802.358,0.05908
796.572,0.05804
790.786,0.05699
784.999,0.05450
779.213,0.05303
773.427,0.05129
767.641,0.05241
761.854,0.05557
756.068,0.06097
750.282,0.06438
744.496,0.06760
738.709,0.06596
732.923,0.06155
727.137,0.05868
721.351,0.05429
715.565,0.04920
709.778,0.04135
703.992,0.04867
698.206,0.11487
692.42,0.11264
686.633,0.08756
680.847,0.07967
675.061,0.07579
669.275,0.07461
663.488,0.07240
657.702,0.07243
651.916,0.07035
646.13,0.06887
640.343,0.06905
634.557,0.06926
628.771,0.06661
622.985,0.06587
617.198,0.06543
611.412,0.06682
605.626,0.06523
599.84,0.06778