File: 01_Data/HIPS/FTIR/IS/HIPS_IS_S_220901_R5.dpt
7497.03,0.83202
7491.25,0.83602
7485.46,0.82954
7479.67,0.82305
7473.89,0.83025
7468.1,0.81581
7462.32,0.80762
7456.53,0.80387
7450.74,0.80142
7444.96,0.80275
7439.17,0.80585
7433.38,0.80193
7427.6,0.79760
7421.81,0.80252
7416.03,0.80009
7410.24,0.79486
7404.45,0.79401
7398.67,0.79542
7392.88,0.79962
7387.09,0.79839
7381.31,0.79033
7375.52,0.79688
7369.74,0.80816
7363.95,0.80531
7358.16,0.80204
7352.38,0.80258
7346.59,0.79741
7340.8,0.80740
7335.02,0.79309
7329.23,0.78455
7323.45,0.78651
7317.66,0.78783
7311.87,0.77955
7306.09,0.77084
7300.3,0.76626
7294.51,0.76135
7288.73,0.75082
7282.94,0.74795
7277.16,0.75050
7271.37,0.74817
7265.58,0.74119
7259.8,0.74412
7254.01,0.73347
7248.22,0.73209
7242.44,0.72565
7236.65,0.72696
7230.87,0.71295
7225.08,0.71503
7219.29,0.71804
7213.51,0.71333
7207.72,0.70292
7201.93,0.70399
7196.15,0.70314
7190.36,0.69839
7184.58,0.69041
7178.79,0.68934
7173,0.69010
7167.22,0.68582
7161.43,0.69499
7155.65,0.69552
7149.86,0.69270
7144.07,0.69257
7138.29,0.69162
7132.5,0.69279
7126.71,0.69064
7120.93,0.68900
7115.14,0.68363
7109.36,0.68167
7103.57,0.68058
7097.78,0.67944
7092,0.67360
7086.21,0.66866
7080.42,0.67668
7074.64,0.66829
7068.85,0.67071
7063.07,0.66597
7057.28,0.67671
7051.49,0.67614
7045.71,0.68159
7039.92,0.67894
7034.13,0.67722
7028.35,0.68121
7022.56,0.68050
7016.78,0.68071
7010.99,0.68352
7005.2,0.68417
6999.42,0.68693
6993.63,0.68376
6987.84,0.68361
6982.06,0.68538
6976.27,0.68401
6970.49,0.68070
6964.7,0.68549
6958.91,0.68562
6953.13,0.69273
6947.34,0.68406
6941.55,0.68949
6935.77,0.69172
6929.98,0.69477
6924.2,0.69314
6918.41,0.69929
6912.62,0.70247
6906.84,0.70489
6901.05,0.70672
6895.26,0.70079
6889.48,0.70886
6883.69,0.71095
6877.91,0.71664
6872.12,0.71021
6866.33,0.71798
6860.55,0.71862
6854.76,0.72643
6848.97,0.72374
6843.19,0.72484
6837.4,0.72938
6831.62,0.72670
6825.83,0.72056
6820.04,0.73073
6814.26,0.73075
6808.47,0.73144
6802.68,0.73013
6796.9,0.72481
6791.11,0.72775
6785.33,0.73346
6779.54,0.73558
6773.75,0.73904
6767.97,0.73665
6762.18,0.74074
6756.39,0.73895
6750.61,0.74209
6744.82,0.73878
6739.04,0.73466
6733.25,0.74072
6727.46,0.74074
6721.68,0.73726
6715.89,0.74529
6710.1,0.74235
6704.32,0.74566
6698.53,0.74202
6692.75,0.75350
6686.96,0.75491
6681.17,0.75611
6675.39,0.74786
6669.6,0.75424
6663.82,0.75847
6658.03,0.75737
6652.24,0.76533
6646.46,0.76477
6640.67,0.76291
6634.88,0.76348
6629.1,0.76031
6623.31,0.76269
6617.53,0.76497
6611.74,0.76415
6605.95,0.76748
6600.17,0.76619
6594.38,0.76245
6588.59,0.76725
6582.81,0.76938
6577.02,0.77603
6571.24,0.77022
6565.45,0.77145
6559.66,0.77116
6553.88,0.77888
6548.09,0.77685
6542.3,0.77596
6536.52,0.77604
6530.73,0.77794
6524.95,0.77966
6519.16,0.78169
6513.37,0.78715
6507.59,0.78589
6501.8,0.78569
6496.01,0.78582
6490.23,0.78956
6484.44,0.79214
6478.66,0.79048
6472.87,0.79462
6467.08,0.79482
6461.3,0.79415
6455.51,0.79724
6449.72,0.79814
6443.94,0.79731
6438.15,0.79752
6432.37,0.79877
6426.58,0.79709
6420.79,0.79419
6415.01,0.79858
6409.22,0.79950
6403.43,0.79279
6397.65,0.79620
6391.86,0.79344
6386.08,0.78952
6380.29,0.78718
6374.5,0.78448
6368.72,0.77835
6362.93,0.77760
6357.14,0.77888
6351.36,0.77801
6345.57,0.77641
6339.79,0.77539
6334,0.77743
6328.21,0.77924
6322.43,0.77528
6316.64,0.77255
6310.85,0.76800
6305.07,0.76539
6299.28,0.76576
6293.5,0.76066
6287.71,0.76119
6281.92,0.76012
6276.14,0.75807
6270.35,0.75081
6264.56,0.75326
6258.78,0.74560
6252.99,0.74267
6247.21,0.73474
6241.42,0.73258
6235.63,0.72643
6229.85,0.72175
6224.06,0.71423
6218.27,0.70997
6212.49,0.70605
6206.7,0.69806
6200.92,0.68693
6195.13,0.67906
6189.34,0.66340
6183.56,0.65228
6177.77,0.64302
6171.98,0.62797
6166.2,0.60127
6160.41,0.57792
6154.63,0.55527
6148.84,0.53440
6143.05,0.50592
6137.27,0.49775
6131.48,0.48477
6125.7,0.46852
6119.91,0.44822
6114.12,0.43269
6108.34,0.42593
6102.55,0.42930
6096.76,0.43582
6090.98,0.43765
6085.19,0.42903
6079.41,0.42188
6073.62,0.41871
6067.83,0.42945
6062.05,0.45395
6056.26,0.46766
6050.47,0.47450
6044.69,0.46356
6038.9,0.44101
6033.12,0.41711
6027.33,0.38549
6021.54,0.35613
6015.76,0.32721
6009.97,0.30228
6004.18,0.27895
5998.4,0.25817
5992.61,0.24368
5986.83,0.23158
5981.04,0.21658
5975.25,0.20120
5969.47,0.19487
5963.68,0.19201
5957.89,0.19020
5952.11,0.19036
5946.32,0.18999
5940.54,0.19056
5934.75,0.19894
5928.96,0.20162
5923.18,0.20640
5917.39,0.20747
5911.6,0.20977
5905.82,0.21576
5900.03,0.22014
5894.25,0.22770
5888.46,0.23958
5882.67,0.24837
5876.89,0.26450
5871.1,0.27787
5865.31,0.28493
5859.53,0.28975
5853.74,0.29184
5847.96,0.29301
5842.17,0.29244
5836.38,0.29370
5830.6,0.29524
5824.81,0.29818
5819.02,0.29721
5813.24,0.29809
5807.45,0.29603
5801.67,0.29292
5795.88,0.29561
5790.09,0.29653
5784.31,0.30233
5778.52,0.31328
5772.73,0.32832
5766.95,0.34287
5761.16,0.35849
5755.38,0.37255
5749.59,0.38341
5743.8,0.39336
5738.02,0.40073
5732.23,0.39766
5726.44,0.38800
5720.66,0.37784
5714.87,0.36365
5709.09,0.35034
5703.3,0.34108
5697.51,0.33587
5691.73,0.33268
5685.94,0.32895
5680.15,0.32664
5674.37,0.32008
5668.58,0.31767
5662.8,0.32024
5657.01,0.32279
5651.22,0.33427
5645.44,0.34673
5639.65,0.35494
5633.87,0.36435
5628.08,0.37122
5622.29,0.37695
5616.51,0.37949
5610.72,0.38107
5604.93,0.37917
5599.15,0.38035
5593.36,0.37760
5587.58,0.37153
5581.79,0.37395
5576,0.38003
5570.22,0.38493
5564.43,0.38530
5558.64,0.38721
5552.86,0.38721
5547.07,0.38721
5541.29,0.38625
5535.5,0.38667
5529.71,0.38650
5523.93,0.38537
5518.14,0.38797
5512.35,0.38945
5506.57,0.38979
5500.78,0.39259
5495,0.39682
5489.21,0.40380
5483.42,0.40799
5477.64,0.41015
5471.85,0.40998
5466.06,0.41207
5460.28,0.41464
5454.49,0.41509
5448.71,0.41221
5442.92,0.41083
5437.13,0.41017
5431.35,0.41075
5425.56,0.40940
5419.77,0.40841
5413.99,0.40782
5408.2,0.40555
5402.42,0.40622
5396.63,0.40434
5390.84,0.40218
5385.06,0.40198
5379.27,0.40139
5373.48,0.40020
5367.7,0.40374
5361.91,0.40532
5356.13,0.40711
5350.34,0.41173
5344.55,0.41709
5338.77,0.42109
5332.98,0.42299
5327.19,0.42677
5321.41,0.42823
5315.62,0.42961
5309.84,0.43151
5304.05,0.43114
5298.26,0.43144
5292.48,0.43308
5286.69,0.43374
5280.9,0.43514
5275.12,0.43621
5269.33,0.43572
5263.55,0.43548
5257.76,0.43446
5251.97,0.43389
5246.19,0.43416
5240.4,0.43187
5234.61,0.43309
5228.83,0.43519
5223.04,0.43711
5217.26,0.43804
5211.47,0.44203
5205.68,0.44271
5199.9,0.44490
5194.11,0.44640
5188.32,0.44803
5182.54,0.44748
5176.75,0.44757
5170.97,0.44982
5165.18,0.44866
5159.39,0.45058
5153.61,0.45049
5147.82,0.44889
5142.03,0.44713
5136.25,0.44501
5130.46,0.44507
5124.68,0.44503
5118.89,0.44376
5113.1,0.44590
5107.32,0.44824
5101.53,0.44998
5095.75,0.44962
5089.96,0.45035
5084.17,0.45189
5078.39,0.45068
5072.6,0.45137
5066.81,0.45118
5061.03,0.45299
5055.24,0.45180
5049.46,0.45112
5043.67,0.44890
5037.88,0.44958
5032.1,0.45122
5026.31,0.45192
5020.52,0.45281
5014.74,0.45236
5008.95,0.45285
5003.17,0.45042
4997.38,0.44955
4991.59,0.44560
4985.81,0.44290
4980.02,0.44006
4974.23,0.44043
4968.45,0.44160
4962.66,0.44264
4956.88,0.44431
4951.09,0.44324
4945.3,0.44145
4939.52,0.44120
4933.73,0.44064
4927.94,0.44119
4922.16,0.44180
4916.37,0.44237
4910.59,0.44239
4904.8,0.44131
4899.01,0.43970
4893.23,0.43733
4887.44,0.43416
4881.65,0.43315
4875.87,0.42859
4870.08,0.42653
4864.3,0.42560
4858.51,0.42448
4852.72,0.42274
4846.94,0.41990
4841.15,0.41460
4835.36,0.41204
4829.58,0.41066
4823.79,0.41192
4818.01,0.41232
4812.22,0.41554
4806.43,0.41452
4800.65,0.41435
4794.86,0.41107
4789.07,0.40876
4783.29,0.40468
4777.5,0.39545
4771.72,0.38444
4765.93,0.37246
4760.14,0.36700
4754.36,0.36806
4748.57,0.36803
4742.78,0.36295
4737,0.35580
4731.21,0.34612
4725.43,0.33353
4719.64,0.31574
4713.85,0.29592
4708.07,0.28419
4702.28,0.27695
4696.49,0.26535
4690.71,0.24841
4684.92,0.21936
4679.14,0.18122
4673.35,0.14838
4667.56,0.13110
4661.78,0.12710
4655.99,0.13407
4650.2,0.14940
4644.42,0.15828
4638.63,0.15391
4632.85,0.14226
4627.06,0.13277
4621.27,0.12927
4615.49,0.12964
4609.7,0.12499
4603.92,0.12560
4598.13,0.13947
4592.34,0.15815
4586.56,0.16804
4580.77,0.16490
4574.98,0.14860
4569.2,0.14468
4563.41,0.16519
4557.63,0.18633
4551.84,0.20229
4546.05,0.22093
4540.27,0.23134
4534.48,0.23081
4528.69,0.23365
4522.91,0.23681
4517.12,0.23532
4511.34,0.23330
4505.55,0.22940
4499.76,0.23151
4493.98,0.24301
4488.19,0.24578
4482.4,0.24459
4476.62,0.24761
4470.83,0.25611
4465.05,0.26160
4459.26,0.26453
4453.47,0.26163
4447.69,0.25025
4441.9,0.24056
4436.11,0.23935
4430.33,0.24082
4424.54,0.23558
4418.76,0.22806
4412.97,0.22067
4407.18,0.21234
4401.4,0.20356
4395.61,0.19497
4389.82,0.18470
4384.04,0.17504
4378.25,0.16664
4372.47,0.15657
4366.68,0.14768
4360.89,0.13991
4355.11,0.13320
4349.32,0.12751
4343.53,0.12233
4337.75,0.11889
4331.96,0.11684
4326.18,0.11869
4320.39,0.12238
4314.6,0.12953
4308.82,0.13570
4303.03,0.13684
4297.24,0.13524
4291.46,0.13244
4285.67,0.12889
4279.89,0.12422
4274.1,0.11906
4268.31,0.11307
4262.53,0.10773
4256.74,0.10465
4250.95,0.10266
4245.17,0.10282
4239.38,0.10383
4233.6,0.10606
4227.81,0.10585
4222.02,0.10688
4216.24,0.10738
4210.45,0.10766
4204.66,0.10794
4198.88,0.10983
4193.09,0.11271
4187.31,0.11549
4181.52,0.11631
4175.73,0.11849
4169.95,0.12089
4164.16,0.12216
4158.37,0.12184
4152.59,0.12225
4146.8,0.12283
4141.02,0.12119
4135.23,0.11984
4129.44,0.11739
4123.66,0.11439
4117.87,0.11285
4112.09,0.11052
4106.3,0.10868
4100.51,0.10779
4094.73,0.10538
4088.94,0.10183
4083.15,0.09777
4077.37,0.09399
4071.58,0.08845
4065.8,0.08437
4060.01,0.08283
4054.22,0.08138
4048.44,0.08166
4042.65,0.08134
4036.86,0.08074
4031.08,0.08233
4025.29,0.08612
4019.51,0.09366
4013.72,0.10312
4007.93,0.10657
4002.15,0.10679
3996.36,0.10897
3990.57,0.11574
3984.79,0.11953
3979,0.11883
3973.22,0.11887
3967.43,0.12039
3961.64,0.12147
3955.86,0.12288
3950.07,0.12284
3944.28,0.12174
3938.5,0.11995
3932.71,0.12103
3926.93,0.12180
3921.14,0.12263
3915.35,0.12374
3909.57,0.12506
3903.78,0.12455
3897.99,0.12553
3892.21,0.12650
3886.42,0.12774
3880.64,0.12881
3874.85,0.12835
3869.06,0.12845
3863.28,0.12831
3857.49,0.12837
3851.7,0.12819
3845.92,0.12705
3840.13,0.12595
3834.35,0.12362
3828.56,0.12172
3822.77,0.12046
3816.99,0.11908
3811.2,0.11974
3805.41,0.11962
3799.63,0.12064
3793.84,0.12289
3788.06,0.12581
3782.27,0.12897
3776.48,0.12934
3770.7,0.12805
3764.91,0.12699
3759.12,0.12761
3753.34,0.13114
3747.55,0.13307
3741.77,0.13297
3735.98,0.13272
3730.19,0.12974
3724.41,0.12469
3718.62,0.12362
3712.83,0.12772
3707.05,0.12410
3701.26,0.11828
3695.48,0.11906
3689.69,0.12124
3683.9,0.11872
3678.12,0.11585
3672.33,0.11502
3666.54,0.11501
3660.76,0.11261
3654.97,0.10470
3649.19,0.09762
3643.4,0.09915
3637.61,0.11009
3631.83,0.11726
3626.04,0.11455
3620.25,0.10884
3614.47,0.11874
3608.68,0.13101
3602.9,0.13637
3597.11,0.13747
3591.32,0.13621
3585.54,0.13801
3579.75,0.14045
3573.97,0.14508
3568.18,0.14920
3562.39,0.15049
3556.61,0.15009
3550.82,0.14975
3545.03,0.14840
3539.25,0.14763
3533.46,0.14672
3527.68,0.14536
3521.89,0.14424
3516.1,0.14284
3510.32,0.14198
3504.53,0.13982
3498.74,0.13846
3492.96,0.13670
3487.17,0.13464
3481.39,0.13231
3475.6,0.13056
3469.81,0.12857
3464.03,0.12749
3458.24,0.12665
3452.45,0.12556
3446.67,0.12309
3440.88,0.12080
3435.1,0.12320
3429.31,0.12807
3423.52,0.13123
3417.74,0.13376
3411.95,0.13457
3406.16,0.13460
3400.38,0.13516
3394.59,0.13598
3388.81,0.13610
3383.02,0.13587
3377.23,0.13779
3371.45,0.14011
3365.66,0.14157
3359.87,0.14158
3354.09,0.14059
3348.3,0.13919
3342.52,0.13765
3336.73,0.13620
3330.94,0.13514
3325.16,0.13324
3319.37,0.13028
3313.58,0.12633
3307.8,0.11605
3302.01,0.10651
3296.23,0.10707
3290.44,0.11294
3284.65,0.11765
3278.87,0.12045
3273.08,0.12019
3267.29,0.12018
3261.51,0.11941
3255.72,0.11843
3249.94,0.11818
3244.15,0.11681
3238.36,0.11551
3232.58,0.11467
3226.79,0.11310
3221,0.11069
3215.22,0.10783
3209.43,0.10354
3203.65,0.09962
3197.86,0.09796
3192.07,0.09738
3186.29,0.09594
3180.5,0.09427
3174.71,0.09272
3168.93,0.08725
3163.14,0.08073
3157.36,0.08181
3151.57,0.08439
3145.78,0.08360
3140,0.08342
3134.21,0.08097
3128.42,0.07888
3122.64,0.07532
3116.85,0.07204
3111.07,0.06865
3105.28,0.06591
3099.49,0.06625
3093.71,0.06551
3087.92,0.06469
3082.14,0.06421
3076.35,0.06501
3070.56,0.06491
3064.78,0.06436
3058.99,0.06506
3053.2,0.06595
3047.42,0.06569
3041.63,0.06507
3035.85,0.06400
3030.06,0.06376
3024.27,0.06615
3018.49,0.06796
3012.7,0.06793
3006.91,0.06735
3001.13,0.06680
2995.34,0.06734
2989.56,0.06748
2983.77,0.06710
2977.98,0.06623
2972.2,0.06595
2966.41,0.06496
2960.62,0.06496
2954.84,0.06397
2949.05,0.06363
2943.27,0.06324
2937.48,0.06300
2931.69,0.06381
2925.91,0.06517
2920.12,0.06734
2914.33,0.06842
2908.55,0.06845
2902.76,0.06922
2896.98,0.06915
2891.19,0.06886
2885.4,0.06799
2879.62,0.06820
2873.83,0.06799
2868.04,0.06788
2862.26,0.06687
2856.47,0.06748
2850.69,0.06818
2844.9,0.06845
2839.11,0.06922
2833.33,0.06912
2827.54,0.06948
2821.75,0.07013
2815.97,0.07063
2810.18,0.07052
2804.4,0.07091
2798.61,0.07155
2792.82,0.07278
2787.04,0.07281
2781.25,0.07289
2775.46,0.07322
2769.68,0.07476
2763.89,0.07506
2758.11,0.07560
2752.32,0.07587
2746.53,0.07603
2740.75,0.07588
2734.96,0.07550
2729.17,0.07517
2723.39,0.07486
2717.6,0.07481
2711.82,0.07479
2706.03,0.07480
2700.24,0.07480
2694.46,0.07511
2688.67,0.07427
2682.88,0.07453
2677.1,0.07420
2671.31,0.07400
2665.53,0.07496
2659.74,0.07440
2653.95,0.07432
2648.17,0.07471
2642.38,0.07405
2636.59,0.07347
2630.81,0.07267
2625.02,0.07401
2619.24,0.07473
2613.45,0.07468
2607.66,0.07402
2601.88,0.07329
2596.09,0.07413
2590.3,0.07524
2584.52,0.07527
2578.73,0.07483
2572.95,0.07558
2567.16,0.07622
2561.37,0.07576
2555.59,0.07594
2549.8,0.07566
2544.02,0.07543
2538.23,0.07585
2532.44,0.07586
2526.66,0.07588
2520.87,0.07507
2515.08,0.07521
2509.3,0.07516
2503.51,0.07524
2497.73,0.07583
2491.94,0.07595
2486.15,0.07690
2480.37,0.07723
2474.58,0.07850
2468.79,0.07985
2463.01,0.08010
2457.22,0.08046
2451.44,0.07998
2445.65,0.08058
2439.86,0.08078
2434.08,0.08082
2428.29,0.08130
2422.5,0.08198
2416.72,0.08174
2410.93,0.08125
2405.15,0.08033
2399.36,0.07949
2393.57,0.07894
2387.79,0.07901
2382,0.07872
2376.21,0.07828
2370.43,0.07762
2364.64,0.07630
2358.86,0.07527
2353.07,0.07532
2347.28,0.07472
2341.5,0.07191
2335.71,0.07128
2329.92,0.07380
2324.14,0.07658
2318.35,0.07564
2312.57,0.07330
2306.78,0.07428
2300.99,0.07691
2295.21,0.07713
2289.42,0.07756
2283.63,0.07941
2277.85,0.08019
2272.06,0.07914
2266.28,0.07861
2260.49,0.07762
2254.7,0.07685
2248.92,0.07787
2243.13,0.07902
2237.34,0.07989
2231.56,0.08031
2225.77,0.08065
2219.99,0.08087
2214.2,0.08033
2208.41,0.08118
2202.63,0.08203
2196.84,0.08225
2191.05,0.08112
2185.27,0.08028
2179.48,0.08120
2173.7,0.08299
2167.91,0.08360
2162.12,0.08408
2156.34,0.08386
2150.55,0.08409
2144.76,0.08408
2138.98,0.08477
2133.19,0.08583
2127.41,0.08646
2121.62,0.08639
2115.83,0.08571
2110.05,0.08652
2104.26,0.08730
2098.47,0.08737
2092.69,0.08840
2086.9,0.08791
2081.12,0.08740
2075.33,0.08680
2069.54,0.08577
2063.76,0.08550
2057.97,0.08509
2052.19,0.08492
2046.4,0.08498
2040.61,0.08390
2034.83,0.08249
2029.04,0.08159
2023.25,0.08138
2017.47,0.08034
2011.68,0.07897
2005.9,0.07775
2000.11,0.07674
1994.32,0.07427
1988.54,0.07128
1982.75,0.07029
1976.96,0.06995
1971.18,0.06847
1965.39,0.06685
1959.61,0.06631
1953.82,0.06633
1948.03,0.06602
1942.25,0.06611
1936.46,0.06650
1930.67,0.06727
1924.89,0.06814
1919.1,0.06928
1913.32,0.07040
1907.53,0.06974
1901.74,0.06892
1895.96,0.06760
1890.17,0.06665
1884.38,0.06650
1878.6,0.06582
1872.81,0.06604
1867.03,0.06652
1861.24,0.06667
1855.45,0.06750
1849.67,0.06903
1843.88,0.06957
1838.09,0.06940
1832.31,0.06792
1826.52,0.06702
1820.74,0.06616
1814.95,0.06564
1809.16,0.06563
1803.38,0.06561
1797.59,0.06613
1791.8,0.06667
1786.02,0.06706
1780.23,0.06726
1774.45,0.06719
1768.66,0.06701
1762.87,0.06660
1757.09,0.06579
1751.3,0.06514
1745.51,0.06542
1739.73,0.06549
1733.94,0.06647
1728.16,0.06626
1722.37,0.06680
1716.58,0.06712
1710.8,0.06713
1705.01,0.06642
1699.22,0.06614
1693.44,0.06582
1687.65,0.06537
1681.87,0.06552
1676.08,0.06533
1670.29,0.06504
1664.51,0.06503
1658.72,0.06569
1652.93,0.06579
1647.15,0.06550
1641.36,0.06514
1635.58,0.06526
1629.79,0.06546
1624,0.06545
1618.22,0.06435
1612.43,0.06353
1606.64,0.06272
1600.86,0.06494
1595.07,0.06638
1589.29,0.06541
1583.5,0.06523
1577.71,0.06595
1571.93,0.06607
1566.14,0.06562
1560.35,0.06532
1554.57,0.06441
1548.78,0.06422
1543,0.06434
1537.21,0.06437
1531.42,0.06419
1525.64,0.06421
1519.85,0.06400
1514.07,0.06345
1508.28,0.06266
1502.49,0.06055
1496.71,0.05892
1490.92,0.06776
1485.13,0.06746
1479.35,0.06603
1473.56,0.06507
1467.78,0.06384
1461.99,0.06200
1456.2,0.05942
1450.42,0.06755
1444.63,0.06924
1438.84,0.06882
1433.06,0.06800
1427.27,0.06691
1421.49,0.06677
1415.7,0.06615
1409.91,0.06601
1404.13,0.06539
1398.34,0.06566
1392.55,0.06504
1386.77,0.06426
1380.98,0.06458
1375.2,0.06449
1369.41,0.06485
1363.62,0.06512
1357.84,0.06502
1352.05,0.06517
1346.26,0.06520
1340.48,0.06501
1334.69,0.06514
1328.91,0.06448
1323.12,0.06475
1317.33,0.06474
1311.55,0.06511
1305.76,0.06501
1299.97,0.06530
1294.19,0.06490
1288.4,0.06501
1282.62,0.06495
1276.83,0.06498
1271.04,0.06545
1265.26,0.06550
1259.47,0.06563
1253.68,0.06536
1247.9,0.06496
1242.11,0.06490
1236.33,0.06477
1230.54,0.06478
1224.75,0.06485
1218.97,0.06448
1213.18,0.06391
1207.39,0.06371
1201.61,0.06389
1195.82,0.06413
1190.04,0.06423
1184.25,0.06382
1178.46,0.06451
1172.68,0.06429
1166.89,0.06448
1161.1,0.06447
1155.32,0.06447
1149.53,0.06536
1143.75,0.06591
1137.96,0.06624
1132.17,0.06594
1126.39,0.06544
1120.6,0.06514
1114.81,0.06410
1109.03,0.06380
1103.24,0.06358
1097.46,0.06360
1091.67,0.06404
1085.88,0.06330
1080.1,0.06300
1074.31,0.06302
1068.52,0.06392
1062.74,0.06415
1056.95,0.06473
1051.17,0.06452
1045.38,0.06420
1039.59,0.06329
1033.81,0.06349
1028.02,0.06518
1022.24,0.06684
1016.45,0.06610
1010.66,0.06593
1004.88,0.06493
999.09,0.06522
993.304,0.06438
987.518,0.06409
981.731,0.06378
975.945,0.06269
970.159,0.06321
964.373,0.06330
958.586,0.06366
952.8,0.06389
947.014,0.06345
941.228,0.06348
935.441,0.06366
929.655,0.06361
923.869,0.06267
918.083,0.06219
912.297,0.06214
906.51,0.06221
900.724,0.06331
894.938,0.06365
889.152,0.06311
883.365,0.06285
877.579,0.06221
871.793,0.06176
866.007,0.06196
860.22,0.06196
854.434,0.06143
848.648,0.06137
842.862,0.06158
837.075,0.06114
831.289,0.06056
825.503,0.06064
819.717,0.05995
813.931,0.05980
808.144,0.05903
802.358,0.05883
796.572,0.05754
790.786,0.05624
784.999,0.05467
779.213,0.05372
773.427,0.05160
767.641,0.05179
761.854,0.05507
756.068,0.06062
750.282,0.06506
744.496,0.06724
738.709,0.06535
732.923,0.06229
727.137,0.05804
721.351,0.05450
715.565,0.04943
709.778,0.04086
703.992,0.04848
698.206,0.11534
692.42,0.11254
686.633,0.08804
680.847,0.07830
675.061,0.07548
669.275,0.07412
663.488,0.07221
657.702,0.07149
651.916,0.07075
646.13,0.07020
640.343,0.07038
634.557,0.06858
628.771,0.06865
622.985,0.06770
617.198,0.06817
611.412,0.06638
605.626,0.06649
599.84,0.06758