File: 01_Data/HIPS/FTIR/IS/HIPS_IS_T_220901_R5.dpt
7497.03,0.02438
7491.25,0.04006
7485.46,0.02076
7479.67,0.02919
7473.89,0.01465
7468.1,0.02873
7462.32,0.02935
7456.53,0.02264
7450.74,0.01463
7444.96,0.01700
7439.17,0.02791
7433.38,0.02016
7427.6,0.01843
7421.81,0.02673
7416.03,0.02026
7410.24,0.02992
7404.45,0.02028
7398.67,0.02484
7392.88,0.02779
7387.09,0.03176
7381.31,0.01993
7375.52,0.02096
7369.74,0.02394
7363.95,0.02530
7358.16,0.03190
7352.38,0.02527
7346.59,0.01836
7340.8,0.02500
7335.02,0.02480
7329.23,0.01853
7323.45,0.02635
7317.66,0.02606
7311.87,0.01843
7306.09,0.01659
7300.3,0.02584
7294.51,0.02872
7288.73,0.01853
7282.94,0.02797
7277.16,0.02117
7271.37,0.02147
7265.58,0.01934
7259.8,0.02135
7254.01,0.02450
7248.22,0.02746
7242.44,0.02279
7236.65,0.02517
7230.87,0.02043
7225.08,0.02470
7219.29,0.02352
7213.51,0.02447
7207.72,0.02859
7201.93,0.02898
7196.15,0.02809
7190.36,0.02867
7184.58,0.02220
7178.79,0.01997
7173,0.02454
7167.22,0.02136
7161.43,0.02456
7155.65,0.03186
7149.86,0.02479
7144.07,0.02565
7138.29,0.03076
7132.5,0.01887
7126.71,0.02144
7120.93,0.01879
7115.14,0.02401
7109.36,0.01867
7103.57,0.02146
7097.78,0.02838
7092,0.02129
7086.21,0.02440
7080.42,0.02008
7074.64,0.02886
7068.85,0.02454
7063.07,0.02375
7057.28,0.02716
7051.49,0.02492
7045.71,0.02681
7039.92,0.02840
7034.13,0.02293
7028.35,0.01901
7022.56,0.02054
7016.78,0.02370
7010.99,0.02102
7005.2,0.02449
6999.42,0.02313
6993.63,0.02316
6987.84,0.02143
6982.06,0.02298
6976.27,0.02584
6970.49,0.02521
6964.7,0.01778
6958.91,0.02111
6953.13,0.02929
6947.34,0.02334
6941.55,0.02387
6935.77,0.02506
6929.98,0.02605
6924.2,0.02954
6918.41,0.02699
6912.62,0.02353
6906.84,0.02503
6901.05,0.02435
6895.26,0.02665
6889.48,0.02743
6883.69,0.02580
6877.91,0.02906
6872.12,0.02268
6866.33,0.02603
6860.55,0.02732
6854.76,0.02575
6848.97,0.02704
6843.19,0.02133
6837.4,0.02420
6831.62,0.02580
6825.83,0.02207
6820.04,0.02678
6814.26,0.02161
6808.47,0.02209
6802.68,0.02136
6796.9,0.02432
6791.11,0.02866
6785.33,0.02690
6779.54,0.02140
6773.75,0.02312
6767.97,0.02436
6762.18,0.02552
6756.39,0.02135
6750.61,0.02073
6744.82,0.02298
6739.04,0.02536
6733.25,0.02051
6727.46,0.02484
6721.68,0.02564
6715.89,0.02072
6710.1,0.02480
6704.32,0.02123
6698.53,0.02282
6692.75,0.02163
6686.96,0.02403
6681.17,0.01503
6675.39,0.02146
6669.6,0.01820
6663.82,0.02243
6658.03,0.02046
6652.24,0.02204
6646.46,0.02142
6640.67,0.02440
6634.88,0.02678
6629.1,0.02474
6623.31,0.02247
6617.53,0.02641
6611.74,0.02341
6605.95,0.02434
6600.17,0.01841
6594.38,0.02186
6588.59,0.02477
6582.81,0.02278
6577.02,0.02291
6571.24,0.02284
6565.45,0.02337
6559.66,0.02465
6553.88,0.02564
6548.09,0.02246
6542.3,0.02064
6536.52,0.02538
6530.73,0.02554
6524.95,0.02151
6519.16,0.02257
6513.37,0.02708
6507.59,0.01952
6501.8,0.02217
6496.01,0.02374
6490.23,0.02373
6484.44,0.02137
6478.66,0.02149
6472.87,0.01967
6467.08,0.02119
6461.3,0.01805
6455.51,0.02116
6449.72,0.01954
6443.94,0.02280
6438.15,0.02710
6432.37,0.02111
6426.58,0.02163
6420.79,0.02299
6415.01,0.01972
6409.22,0.02118
6403.43,0.01995
6397.65,0.02226
6391.86,0.02352
6386.08,0.02233
6380.29,0.02432
6374.5,0.02236
6368.72,0.01767
6362.93,0.02083
6357.14,0.02209
6351.36,0.02200
6345.57,0.02558
6339.79,0.02254
6334,0.02120
6328.21,0.02071
6322.43,0.02035
6316.64,0.01891
6310.85,0.01940
6305.07,0.02100
6299.28,0.02118
6293.5,0.02183
6287.71,0.02121
6281.92,0.02185
6276.14,0.02237
6270.35,0.02367
6264.56,0.02282
6258.78,0.02317
6252.99,0.02009
6247.21,0.02108
6241.42,0.02180
6235.63,0.02215
6229.85,0.02447
6224.06,0.01977
6218.27,0.02431
6212.49,0.02174
6206.7,0.02295
6200.92,0.02022
6195.13,0.02162
6189.34,0.02173
6183.56,0.02364
6177.77,0.02332
6171.98,0.02273
6166.2,0.02062
6160.41,0.02148
6154.63,0.02673
6148.84,0.02278
6143.05,0.02011
6137.27,0.02203
6131.48,0.02197
6125.7,0.02419
6119.91,0.02081
6114.12,0.02012
6108.34,0.02112
6102.55,0.02650
6096.76,0.02302
6090.98,0.02343
6085.19,0.02084
6079.41,0.01885
6073.62,0.02101
6067.83,0.02059
6062.05,0.02186
6056.26,0.02385
6050.47,0.02069
6044.69,0.02138
6038.9,0.02067
6033.12,0.02284
6027.33,0.02210
6021.54,0.02191
6015.76,0.02085
6009.97,0.02250
6004.18,0.02148
5998.4,0.02380
5992.61,0.02126
5986.83,0.02163
5981.04,0.02246
5975.25,0.02274
5969.47,0.02356
5963.68,0.02231
5957.89,0.02087
5952.11,0.01988
5946.32,0.01901
5940.54,0.02058
5934.75,0.01978
5928.96,0.02327
5923.18,0.02152
5917.39,0.02140
5911.6,0.02065
5905.82,0.02297
5900.03,0.02233
5894.25,0.02271
5888.46,0.02086
5882.67,0.02195
5876.89,0.02162
5871.1,0.02151
5865.31,0.02168
5859.53,0.02143
5853.74,0.02281
5847.96,0.02227
5842.17,0.02388
5836.38,0.01940
5830.6,0.02238
5824.81,0.02316
5819.02,0.02167
5813.24,0.02135
5807.45,0.02289
5801.67,0.02167
5795.88,0.02097
5790.09,0.01926
5784.31,0.02073
5778.52,0.01980
5772.73,0.02028
5766.95,0.02286
5761.16,0.02337
5755.38,0.02062
5749.59,0.02249
5743.8,0.02213
5738.02,0.02175
5732.23,0.02282
5726.44,0.02223
5720.66,0.02204
5714.87,0.02161
5709.09,0.02150
5703.3,0.02169
5697.51,0.02295
5691.73,0.02021
5685.94,0.01995
5680.15,0.02263
5674.37,0.02107
5668.58,0.02243
5662.8,0.02349
5657.01,0.02308
5651.22,0.02220
5645.44,0.02257
5639.65,0.02101
5633.87,0.02124
5628.08,0.02069
5622.29,0.02293
5616.51,0.02121
5610.72,0.02126
5604.93,0.02350
5599.15,0.02258
5593.36,0.02341
5587.58,0.02284
5581.79,0.02046
5576,0.02115
5570.22,0.02186
5564.43,0.02163
5558.64,0.02195
5552.86,0.02270
5547.07,0.02200
5541.29,0.02199
5535.5,0.02364
5529.71,0.02202
5523.93,0.02053
5518.14,0.02193
5512.35,0.02106
5506.57,0.02119
5500.78,0.02051
5495,0.02130
5489.21,0.02084
5483.42,0.02078
5477.64,0.02201
5471.85,0.02267
5466.06,0.02305
5460.28,0.02249
5454.49,0.02361
5448.71,0.02424
5442.92,0.02173
5437.13,0.02113
5431.35,0.02168
5425.56,0.02272
5419.77,0.02168
5413.99,0.02096
5408.2,0.02200
5402.42,0.02265
5396.63,0.02077
5390.84,0.02306
5385.06,0.02217
5379.27,0.02195
5373.48,0.02227
5367.7,0.02199
5361.91,0.02292
5356.13,0.02134
5350.34,0.02282
5344.55,0.02379
5338.77,0.02289
5332.98,0.02136
5327.19,0.02235
5321.41,0.02318
5315.62,0.02194
5309.84,0.02181
5304.05,0.02132
5298.26,0.02054
5292.48,0.02273
5286.69,0.02241
5280.9,0.02199
5275.12,0.02239
5269.33,0.02188
5263.55,0.02128
5257.76,0.02223
5251.97,0.02144
5246.19,0.02308
5240.4,0.02177
5234.61,0.02253
5228.83,0.02301
5223.04,0.02123
5217.26,0.02079
5211.47,0.02234
5205.68,0.02414
5199.9,0.02364
5194.11,0.02186
5188.32,0.02263
5182.54,0.02182
5176.75,0.02198
5170.97,0.02244
5165.18,0.01986
5159.39,0.02260
5153.61,0.02225
5147.82,0.02182
5142.03,0.02146
5136.25,0.02193
5130.46,0.02328
5124.68,0.02138
5118.89,0.02178
5113.1,0.02189
5107.32,0.02102
5101.53,0.02221
5095.75,0.02253
5089.96,0.02137
5084.17,0.02203
5078.39,0.02263
5072.6,0.02274
5066.81,0.02291
5061.03,0.02145
5055.24,0.02151
5049.46,0.02248
5043.67,0.02149
5037.88,0.02273
5032.1,0.02308
5026.31,0.02218
5020.52,0.02224
5014.74,0.02309
5008.95,0.02311
5003.17,0.02192
4997.38,0.02330
4991.59,0.02199
4985.81,0.02154
4980.02,0.02118
4974.23,0.02138
4968.45,0.02068
4962.66,0.02104
4956.88,0.02133
4951.09,0.02325
4945.3,0.02261
4939.52,0.02109
4933.73,0.02262
4927.94,0.02215
4922.16,0.02163
4916.37,0.02293
4910.59,0.02157
4904.8,0.02189
4899.01,0.02274
4893.23,0.02224
4887.44,0.02207
4881.65,0.02211
4875.87,0.02124
4870.08,0.02251
4864.3,0.02237
4858.51,0.02267
4852.72,0.02300
4846.94,0.02220
4841.15,0.02144
4835.36,0.02225
4829.58,0.02250
4823.79,0.02179
4818.01,0.02266
4812.22,0.02190
4806.43,0.02131
4800.65,0.02165
4794.86,0.02275
4789.07,0.02179
4783.29,0.02230
4777.5,0.02288
4771.72,0.02185
4765.93,0.02302
4760.14,0.02146
4754.36,0.02228
4748.57,0.02145
4742.78,0.02303
4737,0.02145
4731.21,0.02143
4725.43,0.02213
4719.64,0.02207
4713.85,0.02285
4708.07,0.02241
4702.28,0.02200
4696.49,0.02146
4690.71,0.02134
4684.92,0.02149
4679.14,0.02210
4673.35,0.02144
4667.56,0.02258
4661.78,0.02158
4655.99,0.02243
4650.2,0.02218
4644.42,0.02350
4638.63,0.02295
4632.85,0.02248
4627.06,0.02244
4621.27,0.02209
4615.49,0.02189
4609.7,0.02266
4603.92,0.02196
4598.13,0.02229
4592.34,0.02189
4586.56,0.02254
4580.77,0.02078
4574.98,0.02136
4569.2,0.02159
4563.41,0.02215
4557.63,0.02255
4551.84,0.02189
4546.05,0.02255
4540.27,0.02256
4534.48,0.02226
4528.69,0.02131
4522.91,0.02166
4517.12,0.02215
4511.34,0.02262
4505.55,0.02276
4499.76,0.02304
4493.98,0.02258
4488.19,0.02193
4482.4,0.02209
4476.62,0.02205
4470.83,0.02263
4465.05,0.02177
4459.26,0.02207
4453.47,0.02234
4447.69,0.02220
4441.9,0.02285
4436.11,0.02237
4430.33,0.02241
4424.54,0.02286
4418.76,0.02267
4412.97,0.02345
4407.18,0.02253
4401.4,0.02181
4395.61,0.02192
4389.82,0.02225
4384.04,0.02174
4378.25,0.02216
4372.47,0.02226
4366.68,0.02224
4360.89,0.02115
4355.11,0.02197
4349.32,0.02209
4343.53,0.02147
4337.75,0.02202
4331.96,0.02187
4326.18,0.02151
4320.39,0.02185
4314.6,0.02158
4308.82,0.02199
4303.03,0.02230
4297.24,0.02228
4291.46,0.02234
4285.67,0.02217
4279.89,0.02228
4274.1,0.02217
4268.31,0.02145
4262.53,0.02182
4256.74,0.02232
4250.95,0.02174
4245.17,0.02231
4239.38,0.02166
4233.6,0.02231
4227.81,0.02306
4222.02,0.02228
4216.24,0.02209
4210.45,0.02094
4204.66,0.02217
4198.88,0.02276
4193.09,0.02287
4187.31,0.02240
4181.52,0.02273
4175.73,0.02206
4169.95,0.02205
4164.16,0.02237
4158.37,0.02176
4152.59,0.02161
4146.8,0.02289
4141.02,0.02247
4135.23,0.02247
4129.44,0.02259
4123.66,0.02205
4117.87,0.02293
4112.09,0.02251
4106.3,0.02208
4100.51,0.02203
4094.73,0.02247
4088.94,0.02249
4083.15,0.02218
4077.37,0.02212
4071.58,0.02210
4065.8,0.02256
4060.01,0.02263
4054.22,0.02191
4048.44,0.02239
4042.65,0.02269
4036.86,0.02339
4031.08,0.02236
4025.29,0.02156
4019.51,0.02226
4013.72,0.02244
4007.93,0.02262
4002.15,0.02235
3996.36,0.02326
3990.57,0.02245
3984.79,0.02249
3979,0.02237
3973.22,0.02236
3967.43,0.02277
3961.64,0.02256
3955.86,0.02177
3950.07,0.02268
3944.28,0.02233
3938.5,0.02257
3932.71,0.02283
3926.93,0.02198
3921.14,0.02279
3915.35,0.02217
3909.57,0.02240
3903.78,0.02244
3897.99,0.02259
3892.21,0.02232
3886.42,0.02227
3880.64,0.02288
3874.85,0.02226
3869.06,0.02230
3863.28,0.02260
3857.49,0.02261
3851.7,0.02234
3845.92,0.02206
3840.13,0.02154
3834.35,0.02309
3828.56,0.02206
3822.77,0.02208
3816.99,0.02247
3811.2,0.02277
3805.41,0.02228
3799.63,0.02271
3793.84,0.02173
3788.06,0.02227
3782.27,0.02272
3776.48,0.02205
3770.7,0.02201
3764.91,0.02283
3759.12,0.02231
3753.34,0.02228
3747.55,0.02187
3741.77,0.02172
3735.98,0.02163
3730.19,0.02281
3724.41,0.02223
3718.62,0.02246
3712.83,0.02263
3707.05,0.02230
3701.26,0.02144
3695.48,0.02189
3689.69,0.02190
3683.9,0.02185
3678.12,0.02198
3672.33,0.02277
3666.54,0.02148
3660.76,0.02176
3654.97,0.02115
3649.19,0.02185
3643.4,0.02145
3637.61,0.02278
3631.83,0.02198
3626.04,0.02217
3620.25,0.02185
3614.47,0.02172
3608.68,0.02168
3602.9,0.02190
3597.11,0.02158
3591.32,0.02167
3585.54,0.02154
3579.75,0.02168
3573.97,0.02143
3568.18,0.02151
3562.39,0.02131
3556.61,0.02138
3550.82,0.02075
3545.03,0.02057
3539.25,0.02119
3533.46,0.02146
3527.68,0.02118
3521.89,0.02121
3516.1,0.02136
3510.32,0.02092
3504.53,0.02069
3498.74,0.02052
3492.96,0.02137
3487.17,0.02079
3481.39,0.02063
3475.6,0.02132
3469.81,0.02071
3464.03,0.02059
3458.24,0.02057
3452.45,0.02080
3446.67,0.02033
3440.88,0.02029
3435.1,0.02086
3429.31,0.02057
3423.52,0.02072
3417.74,0.02082
3411.95,0.02020
3406.16,0.02107
3400.38,0.02022
3394.59,0.02067
3388.81,0.01980
3383.02,0.02017
3377.23,0.02023
3371.45,0.02035
3365.66,0.01973
3359.87,0.02021
3354.09,0.01989
3348.3,0.02023
3342.52,0.01987
3336.73,0.02040
3330.94,0.01989
3325.16,0.02026
3319.37,0.02010
3313.58,0.02062
3307.8,0.02097
3302.01,0.02061
3296.23,0.02046
3290.44,0.02020
3284.65,0.01950
3278.87,0.01956
3273.08,0.02072
3267.29,0.02079
3261.51,0.02029
3255.72,0.02043
3249.94,0.02070
3244.15,0.02070
3238.36,0.02077
3232.58,0.02112
3226.79,0.02034
3221,0.02070
3215.22,0.02009
3209.43,0.02076
3203.65,0.02068
3197.86,0.02060
3192.07,0.02035
3186.29,0.02103
3180.5,0.02032
3174.71,0.02044
3168.93,0.02086
3163.14,0.02069
3157.36,0.02088
3151.57,0.02099
3145.78,0.02031
3140,0.02074
3134.21,0.02119
3128.42,0.02109
3122.64,0.02110
3116.85,0.02095
3111.07,0.02079
3105.28,0.02087
3099.49,0.02076
3093.71,0.02012
3087.92,0.02059
3082.14,0.02054
3076.35,0.02038
3070.56,0.02055
3064.78,0.02053
3058.99,0.02001
3053.2,0.02056
3047.42,0.02065
3041.63,0.02038
3035.85,0.02028
3030.06,0.02015
3024.27,0.01997
3018.49,0.02013
3012.7,0.02030
3006.91,0.02049
3001.13,0.01977
2995.34,0.02011
2989.56,0.01971
2983.77,0.01960
2977.98,0.01957
2972.2,0.01975
2966.41,0.01943
2960.62,0.01924
2954.84,0.01955
2949.05,0.01982
2943.27,0.01974
2937.48,0.01983
2931.69,0.01962
2925.91,0.01948
2920.12,0.02014
2914.33,0.02038
2908.55,0.02081
2902.76,0.02089
2896.98,0.02065
2891.19,0.02049
2885.4,0.02037
2879.62,0.02054
2873.83,0.01988
2868.04,0.02009
2862.26,0.02048
2856.47,0.02085
2850.69,0.02036
2844.9,0.02102
2839.11,0.02105
2833.33,0.02076
2827.54,0.02058
2821.75,0.02162
2815.97,0.02033
2810.18,0.02104
2804.4,0.02130
2798.61,0.02112
2792.82,0.02074
2787.04,0.02125
2781.25,0.02088
2775.46,0.02131
2769.68,0.02060
2763.89,0.02068
2758.11,0.02121
2752.32,0.02084
2746.53,0.02096
2740.75,0.02094
2734.96,0.02119
2729.17,0.02096
2723.39,0.02096
2717.6,0.02122
2711.82,0.02110
2706.03,0.02163
2700.24,0.02140
2694.46,0.02124
2688.67,0.02087
2682.88,0.02110
2677.1,0.02152
2671.31,0.02112
2665.53,0.02064
2659.74,0.02102
2653.95,0.02102
2648.17,0.02168
2642.38,0.02099
2636.59,0.02076
2630.81,0.02087
2625.02,0.02148
2619.24,0.02154
2613.45,0.02128
2607.66,0.02093
2601.88,0.02099
2596.09,0.02097
2590.3,0.02163
2584.52,0.02099
2578.73,0.02110
2572.95,0.02082
2567.16,0.02113
2561.37,0.02075
2555.59,0.02113
2549.8,0.02083
2544.02,0.02093
2538.23,0.02094
2532.44,0.02091
2526.66,0.02106
2520.87,0.02133
2515.08,0.02150
2509.3,0.02120
2503.51,0.02096
2497.73,0.02094
2491.94,0.02106
2486.15,0.02169
2480.37,0.02082
2474.58,0.02099
2468.79,0.02076
2463.01,0.02116
2457.22,0.02098
2451.44,0.02139
2445.65,0.02113
2439.86,0.02101
2434.08,0.02086
2428.29,0.02093
2422.5,0.02057
2416.72,0.02109
2410.93,0.02085
2405.15,0.02082
2399.36,0.02054
2393.57,0.02070
2387.79,0.02143
2382,0.02094
2376.21,0.02079
2370.43,0.02061
2364.64,0.02111
2358.86,0.02087
2353.07,0.02099
2347.28,0.02048
2341.5,0.02084
2335.71,0.02073
2329.92,0.02111
2324.14,0.02090
2318.35,0.02119
2312.57,0.02093
2306.78,0.02115
2300.99,0.02109
2295.21,0.02101
2289.42,0.02104
2283.63,0.02091
2277.85,0.02097
2272.06,0.02074
2266.28,0.02097
2260.49,0.02044
2254.7,0.02065
2248.92,0.02076
2243.13,0.02098
2237.34,0.02101
2231.56,0.02099
2225.77,0.02087
2219.99,0.02099
2214.2,0.02106
2208.41,0.02056
2202.63,0.02061
2196.84,0.02071
2191.05,0.02082
2185.27,0.02070
2179.48,0.02073
2173.7,0.02075
2167.91,0.02072
2162.12,0.02072
2156.34,0.02094
2150.55,0.02104
2144.76,0.02065
2138.98,0.02047
2133.19,0.02074
2127.41,0.02025
2121.62,0.02041
2115.83,0.02083
2110.05,0.02095
2104.26,0.02075
2098.47,0.02053
2092.69,0.02086
2086.9,0.02064
2081.12,0.02097
2075.33,0.02088
2069.54,0.02056
2063.76,0.02105
2057.97,0.02096
2052.19,0.02069
2046.4,0.02062
2040.61,0.02027
2034.83,0.02068
2029.04,0.02067
2023.25,0.02065
2017.47,0.02086
2011.68,0.02096
2005.9,0.02070
2000.11,0.02030
1994.32,0.02048
1988.54,0.02040
1982.75,0.02039
1976.96,0.02061
1971.18,0.02030
1965.39,0.02057
1959.61,0.02052
1953.82,0.02055
1948.03,0.02048
1942.25,0.02082
1936.46,0.02033
1930.67,0.02041
1924.89,0.02091
1919.1,0.02071
1913.32,0.02061
1907.53,0.02042
1901.74,0.02053
1895.96,0.02010
1890.17,0.02035
1884.38,0.02009
1878.6,0.02005
1872.81,0.02057
1867.03,0.02022
1861.24,0.01984
1855.45,0.02021
1849.67,0.01994
1843.88,0.02005
1838.09,0.01998
1832.31,0.01989
1826.52,0.01972
1820.74,0.01998
1814.95,0.01940
1809.16,0.01969
1803.38,0.01983
1797.59,0.01928
1791.8,0.01923
1786.02,0.01914
1780.23,0.01889
1774.45,0.01861
1768.66,0.01863
1762.87,0.01833
1757.09,0.01736
1751.3,0.01731
1745.51,0.01768
1739.73,0.01849
1733.94,0.01939
1728.16,0.02029
1722.37,0.02092
1716.58,0.02101
1710.8,0.02068
1705.01,0.02024
1699.22,0.02028
1693.44,0.01916
1687.65,0.01935
1681.87,0.01881
1676.08,0.01900
1670.29,0.01852
1664.51,0.01871
1658.72,0.01853
1652.93,0.01866
1647.15,0.01876
1641.36,0.01836
1635.58,0.01890
1629.79,0.01867
1624,0.01894
1618.22,0.01892
1612.43,0.01917
1606.64,0.01902
1600.86,0.01881
1595.07,0.01855
1589.29,0.01861
1583.5,0.01878
1577.71,0.01835
1571.93,0.01818
1566.14,0.01779
1560.35,0.01815
1554.57,0.01782
1548.78,0.01810
1543,0.01853
1537.21,0.01844
1531.42,0.01804
1525.64,0.01834
1519.85,0.01824
1514.07,0.01849
1508.28,0.01859
1502.49,0.01848
1496.71,0.01885
1490.92,0.01868
1485.13,0.01886
1479.35,0.01863
1473.56,0.01837
1467.78,0.01826
1461.99,0.01852
1456.2,0.01876
1450.42,0.01835
1444.63,0.01863
1438.84,0.01878
1433.06,0.01883
1427.27,0.01850
1421.49,0.01839
1415.7,0.01832
1409.91,0.01810
1404.13,0.01835
1398.34,0.01839
1392.55,0.01789
1386.77,0.01763
1380.98,0.01789
1375.2,0.01776
1369.41,0.01815
1363.62,0.01811
1357.84,0.01805
1352.05,0.01809
1346.26,0.01789
1340.48,0.01765
1334.69,0.01755
1328.91,0.01753
1323.12,0.01731
1317.33,0.01696
1311.55,0.01683
1305.76,0.01697
1299.97,0.01772
1294.19,0.01810
1288.4,0.01848
1282.62,0.01849
1276.83,0.01896
1271.04,0.01935
1265.26,0.01972
1259.47,0.01990
1253.68,0.02024
1247.9,0.02044
1242.11,0.02033
1236.33,0.01987
1230.54,0.01981
1224.75,0.01953
1218.97,0.01915
1213.18,0.01879
1207.39,0.01872
1201.61,0.01895
1195.82,0.01837
1190.04,0.01855
1184.25,0.01843
1178.46,0.01836
1172.68,0.01772
1166.89,0.01770
1161.1,0.01782
1155.32,0.01746
1149.53,0.01732
1143.75,0.01737
1137.96,0.01793
1132.17,0.01786
1126.39,0.01805
1120.6,0.01889
1114.81,0.01880
1109.03,0.01858
1103.24,0.01904
1097.46,0.01862
1091.67,0.01855
1085.88,0.01803
1080.1,0.01906
1074.31,0.01940
1068.52,0.02013
1062.74,0.01938
1056.95,0.01912
1051.17,0.01989
1045.38,0.01913
1039.59,0.01979
1033.81,0.01972
1028.02,0.02000
1022.24,0.01918
1016.45,0.01969
1010.66,0.02046
1004.88,0.02060
999.09,0.02061
993.304,0.02104
987.518,0.02109
981.731,0.02032
975.945,0.02077
970.159,0.02031
964.373,0.02015
958.586,0.02023
952.8,0.02006
947.014,0.01963
941.228,0.01951
935.441,0.02002
929.655,0.01955
923.869,0.01936
918.083,0.01979
912.297,0.01942
906.51,0.01902
900.724,0.01902
894.938,0.01893
889.152,0.01892
883.365,0.01845
877.579,0.01972
871.793,0.01899
866.007,0.01949
860.22,0.01890
854.434,0.01871
848.648,0.01904
842.862,0.01938
837.075,0.01951
831.289,0.01845
825.503,0.01842
819.717,0.01905
813.931,0.01866
808.144,0.01844
802.358,0.01936
796.572,0.01840
790.786,0.01910
784.999,0.01850
779.213,0.01841
773.427,0.01848
767.641,0.01753
761.854,0.01872
756.068,0.01853
750.282,0.01834
744.496,0.01847
738.709,0.01868
732.923,0.01822
727.137,0.01883
721.351,0.01748
715.565,0.01849
709.778,0.01820
703.992,0.01795
698.206,0.01692
692.42,0.01825
686.633,0.01812
680.847,0.01776
675.061,0.01774
669.275,0.01665
663.488,0.01678
657.702,0.01577
651.916,0.01669
646.13,0.01632
640.343,0.01724
634.557,0.01753
628.771,0.01501
622.985,0.01541
617.198,0.01667
611.412,0.01616
605.626,0.01395
599.84,0.01328