File: 01_Data/HIPS/FTIR/IS/HIPS_IS_S_220901_R3.dpt
7497.03,0.82472
7491.25,0.81676
7485.46,0.81395
7479.67,0.82587
7473.89,0.81853
7468.1,0.80724
7462.32,0.80414
7456.53,0.81076
7450.74,0.81194
7444.96,0.79463
7439.17,0.80154
7433.38,0.79308
7427.6,0.79676
7421.81,0.80305
7416.03,0.79797
7410.24,0.80483
7404.45,0.79698
7398.67,0.79366
7392.88,0.80027
7387.09,0.79311
7381.31,0.80803
7375.52,0.80798
7369.74,0.80547
7363.95,0.79573
7358.16,0.80007
7352.38,0.79879
7346.59,0.80171
7340.8,0.80338
7335.02,0.79379
7329.23,0.79096
7323.45,0.79442
7317.66,0.78635
7311.87,0.77928
7306.09,0.77930
7300.3,0.76680
7294.51,0.75895
7288.73,0.75559
7282.94,0.76017
7277.16,0.75329
7271.37,0.74172
7265.58,0.74625
7259.8,0.74145
7254.01,0.73581
7248.22,0.72580
7242.44,0.72647
7236.65,0.72439
7230.87,0.72012
7225.08,0.71798
7219.29,0.72083
7213.51,0.71357
7207.72,0.70644
7201.93,0.70445
7196.15,0.69657
7190.36,0.69195
7184.58,0.69395
7178.79,0.68273
7173,0.69084
7167.22,0.69347
7161.43,0.70100
7155.65,0.69907
7149.86,0.69259
7144.07,0.68976
7138.29,0.68796
7132.5,0.69270
7126.71,0.69412
7120.93,0.68773
7115.14,0.68078
7109.36,0.68914
7103.57,0.67952
7097.78,0.67779
7092,0.67479
7086.21,0.66564
7080.42,0.66998
7074.64,0.66558
7068.85,0.66887
7063.07,0.66737
7057.28,0.67082
7051.49,0.67594
7045.71,0.68335
7039.92,0.68063
7034.13,0.67806
7028.35,0.68284
7022.56,0.68291
7016.78,0.68579
7010.99,0.68511
7005.2,0.68084
6999.42,0.68935
6993.63,0.68907
6987.84,0.68845
6982.06,0.68446
6976.27,0.68609
6970.49,0.68156
6964.7,0.68336
6958.91,0.68298
6953.13,0.69467
6947.34,0.68475
6941.55,0.69251
6935.77,0.69505
6929.98,0.69615
6924.2,0.69660
6918.41,0.70478
6912.62,0.70377
6906.84,0.70756
6901.05,0.70492
6895.26,0.71061
6889.48,0.71328
6883.69,0.71415
6877.91,0.71325
6872.12,0.71942
6866.33,0.71953
6860.55,0.71360
6854.76,0.71894
6848.97,0.72032
6843.19,0.72574
6837.4,0.72845
6831.62,0.71952
6825.83,0.72724
6820.04,0.72917
6814.26,0.73039
6808.47,0.73289
6802.68,0.72962
6796.9,0.72552
6791.11,0.73092
6785.33,0.73842
6779.54,0.74185
6773.75,0.73511
6767.97,0.73629
6762.18,0.73958
6756.39,0.74025
6750.61,0.73690
6744.82,0.74494
6739.04,0.74372
6733.25,0.74205
6727.46,0.73996
6721.68,0.74642
6715.89,0.74874
6710.1,0.74352
6704.32,0.74868
6698.53,0.74548
6692.75,0.74596
6686.96,0.75213
6681.17,0.76041
6675.39,0.75988
6669.6,0.75872
6663.82,0.75864
6658.03,0.76448
6652.24,0.76164
6646.46,0.76606
6640.67,0.77073
6634.88,0.76667
6629.1,0.76841
6623.31,0.76859
6617.53,0.76417
6611.74,0.76340
6605.95,0.76722
6600.17,0.76883
6594.38,0.76928
6588.59,0.77282
6582.81,0.76983
6577.02,0.76969
6571.24,0.77342
6565.45,0.77454
6559.66,0.77455
6553.88,0.77713
6548.09,0.77832
6542.3,0.78067
6536.52,0.78182
6530.73,0.77882
6524.95,0.78213
6519.16,0.78186
6513.37,0.78409
6507.59,0.78618
6501.8,0.78999
6496.01,0.79133
6490.23,0.79539
6484.44,0.79383
6478.66,0.79752
6472.87,0.79544
6467.08,0.79699
6461.3,0.79775
6455.51,0.79970
6449.72,0.80068
6443.94,0.79625
6438.15,0.79818
6432.37,0.79970
6426.58,0.80060
6420.79,0.80454
6415.01,0.80104
6409.22,0.79824
6403.43,0.79876
6397.65,0.79679
6391.86,0.79277
6386.08,0.79248
6380.29,0.79300
6374.5,0.78715
6368.72,0.78547
6362.93,0.78140
6357.14,0.77930
6351.36,0.78668
6345.57,0.78087
6339.79,0.78199
6334,0.78031
6328.21,0.77749
6322.43,0.77590
6316.64,0.77298
6310.85,0.76898
6305.07,0.76500
6299.28,0.76741
6293.5,0.76090
6287.71,0.75977
6281.92,0.76382
6276.14,0.76477
6270.35,0.75655
6264.56,0.75250
6258.78,0.75167
6252.99,0.74592
6247.21,0.73983
6241.42,0.73262
6235.63,0.73275
6229.85,0.72690
6224.06,0.71865
6218.27,0.71318
6212.49,0.70632
6206.7,0.70056
6200.92,0.69109
6195.13,0.68114
6189.34,0.66880
6183.56,0.65423
6177.77,0.64220
6171.98,0.62593
6166.2,0.60531
6160.41,0.58087
6154.63,0.55668
6148.84,0.53171
6143.05,0.50994
6137.27,0.49445
6131.48,0.48210
6125.7,0.46652
6119.91,0.44977
6114.12,0.43015
6108.34,0.42684
6102.55,0.43621
6096.76,0.43643
6090.98,0.43680
6085.19,0.43077
6079.41,0.42374
6073.62,0.42318
6067.83,0.43491
6062.05,0.45543
6056.26,0.47018
6050.47,0.47625
6044.69,0.46429
6038.9,0.44202
6033.12,0.41931
6027.33,0.38830
6021.54,0.35692
6015.76,0.32907
6009.97,0.30443
6004.18,0.28096
5998.4,0.26216
5992.61,0.24659
5986.83,0.23156
5981.04,0.21533
5975.25,0.20350
5969.47,0.19628
5963.68,0.19391
5957.89,0.19265
5952.11,0.19160
5946.32,0.18991
5940.54,0.19181
5934.75,0.19536
5928.96,0.20253
5923.18,0.20523
5917.39,0.20597
5911.6,0.21096
5905.82,0.21784
5900.03,0.21913
5894.25,0.22690
5888.46,0.23739
5882.67,0.24946
5876.89,0.26397
5871.1,0.28020
5865.31,0.28662
5859.53,0.28746
5853.74,0.29085
5847.96,0.29193
5842.17,0.29081
5836.38,0.29338
5830.6,0.29612
5824.81,0.29810
5819.02,0.30132
5813.24,0.30057
5807.45,0.29949
5801.67,0.29818
5795.88,0.29617
5790.09,0.29779
5784.31,0.30505
5778.52,0.31502
5772.73,0.32840
5766.95,0.34304
5761.16,0.35828
5755.38,0.37266
5749.59,0.38474
5743.8,0.39410
5738.02,0.39925
5732.23,0.39910
5726.44,0.39045
5720.66,0.37768
5714.87,0.36271
5709.09,0.35331
5703.3,0.34569
5697.51,0.33589
5691.73,0.33453
5685.94,0.32988
5680.15,0.32458
5674.37,0.31937
5668.58,0.31717
5662.8,0.31817
5657.01,0.32521
5651.22,0.33560
5645.44,0.34791
5639.65,0.35566
5633.87,0.36195
5628.08,0.37221
5622.29,0.37738
5616.51,0.38204
5610.72,0.37980
5604.93,0.38199
5599.15,0.38070
5593.36,0.37716
5587.58,0.37346
5581.79,0.37391
5576,0.38152
5570.22,0.38534
5564.43,0.38763
5558.64,0.38800
5552.86,0.38964
5547.07,0.38868
5541.29,0.38841
5535.5,0.38636
5529.71,0.38743
5523.93,0.38719
5518.14,0.38874
5512.35,0.39081
5506.57,0.39191
5500.78,0.39322
5495,0.39777
5489.21,0.40392
5483.42,0.40704
5477.64,0.41069
5471.85,0.41141
5466.06,0.41371
5460.28,0.41396
5454.49,0.41425
5448.71,0.41432
5442.92,0.41298
5437.13,0.41130
5431.35,0.41004
5425.56,0.41160
5419.77,0.40947
5413.99,0.40830
5408.2,0.40930
5402.42,0.40560
5396.63,0.40516
5390.84,0.40370
5385.06,0.40381
5379.27,0.40043
5373.48,0.40083
5367.7,0.40266
5361.91,0.40699
5356.13,0.40949
5350.34,0.41440
5344.55,0.41557
5338.77,0.42194
5332.98,0.42307
5327.19,0.42711
5321.41,0.42829
5315.62,0.43124
5309.84,0.43238
5304.05,0.43341
5298.26,0.43331
5292.48,0.43433
5286.69,0.43476
5280.9,0.43588
5275.12,0.43621
5269.33,0.43605
5263.55,0.43640
5257.76,0.43623
5251.97,0.43518
5246.19,0.43323
5240.4,0.43318
5234.61,0.43341
5228.83,0.43510
5223.04,0.43722
5217.26,0.43890
5211.47,0.44165
5205.68,0.44606
5199.9,0.44580
5194.11,0.44681
5188.32,0.44988
5182.54,0.44895
5176.75,0.44990
5170.97,0.44981
5165.18,0.45165
5159.39,0.45130
5153.61,0.45072
5147.82,0.45026
5142.03,0.44969
5136.25,0.44685
5130.46,0.44601
5124.68,0.44696
5118.89,0.44534
5113.1,0.44594
5107.32,0.44923
5101.53,0.45013
5095.75,0.45155
5089.96,0.45306
5084.17,0.45277
5078.39,0.45212
5072.6,0.45301
5066.81,0.45289
5061.03,0.45361
5055.24,0.45325
5049.46,0.45157
5043.67,0.45161
5037.88,0.45208
5032.1,0.45131
5026.31,0.45287
5020.52,0.45407
5014.74,0.45458
5008.95,0.45308
5003.17,0.45259
4997.38,0.45028
4991.59,0.44582
4985.81,0.44369
4980.02,0.44140
4974.23,0.44261
4968.45,0.44168
4962.66,0.44295
4956.88,0.44529
4951.09,0.44479
4945.3,0.44186
4939.52,0.44285
4933.73,0.44217
4927.94,0.44219
4922.16,0.44363
4916.37,0.44488
4910.59,0.44319
4904.8,0.44216
4899.01,0.44103
4893.23,0.43929
4887.44,0.43594
4881.65,0.43275
4875.87,0.42932
4870.08,0.42779
4864.3,0.42651
4858.51,0.42536
4852.72,0.42384
4846.94,0.42068
4841.15,0.41597
4835.36,0.41237
4829.58,0.41099
4823.79,0.41257
4818.01,0.41499
4812.22,0.41513
4806.43,0.41527
4800.65,0.41521
4794.86,0.41265
4789.07,0.41062
4783.29,0.40457
4777.5,0.39688
4771.72,0.38548
4765.93,0.37380
4760.14,0.36957
4754.36,0.36988
4748.57,0.36836
4742.78,0.36372
4737,0.35662
4731.21,0.34670
4725.43,0.33289
4719.64,0.31534
4713.85,0.29682
4708.07,0.28481
4702.28,0.27730
4696.49,0.26756
4690.71,0.25019
4684.92,0.21956
4679.14,0.18155
4673.35,0.14811
4667.56,0.13011
4661.78,0.12814
4655.99,0.13624
4650.2,0.15130
4644.42,0.15822
4638.63,0.15388
4632.85,0.14195
4627.06,0.13277
4621.27,0.13060
4615.49,0.12923
4609.7,0.12600
4603.92,0.12761
4598.13,0.14118
4592.34,0.15798
4586.56,0.16772
4580.77,0.16504
4574.98,0.14826
4569.2,0.14483
4563.41,0.16547
4557.63,0.18602
4551.84,0.20313
4546.05,0.22228
4540.27,0.23091
4534.48,0.23240
4528.69,0.23476
4522.91,0.23778
4517.12,0.23560
4511.34,0.23442
4505.55,0.23017
4499.76,0.23131
4493.98,0.24370
4488.19,0.24605
4482.4,0.24476
4476.62,0.24815
4470.83,0.25564
4465.05,0.26136
4459.26,0.26445
4453.47,0.26142
4447.69,0.25214
4441.9,0.24091
4436.11,0.23885
4430.33,0.24022
4424.54,0.23621
4418.76,0.22914
4412.97,0.22098
4407.18,0.21267
4401.4,0.20488
4395.61,0.19519
4389.82,0.18516
4384.04,0.17563
4378.25,0.16610
4372.47,0.15729
4366.68,0.14828
4360.89,0.13948
4355.11,0.13288
4349.32,0.12898
4343.53,0.12352
4337.75,0.12028
4331.96,0.11859
4326.18,0.11986
4320.39,0.12306
4314.6,0.13031
4308.82,0.13569
4303.03,0.13729
4297.24,0.13626
4291.46,0.13262
4285.67,0.12984
4279.89,0.12402
4274.1,0.11884
4268.31,0.11363
4262.53,0.10804
4256.74,0.10492
4250.95,0.10300
4245.17,0.10257
4239.38,0.10499
4233.6,0.10649
4227.81,0.10685
4222.02,0.10791
4216.24,0.10764
4210.45,0.10799
4204.66,0.10746
4198.88,0.11001
4193.09,0.11332
4187.31,0.11598
4181.52,0.11680
4175.73,0.11763
4169.95,0.12093
4164.16,0.12261
4158.37,0.12281
4152.59,0.12395
4146.8,0.12310
4141.02,0.12177
4135.23,0.12013
4129.44,0.11689
4123.66,0.11471
4117.87,0.11306
4112.09,0.11135
4106.3,0.10873
4100.51,0.10761
4094.73,0.10581
4088.94,0.10198
4083.15,0.09886
4077.37,0.09324
4071.58,0.08856
4065.8,0.08504
4060.01,0.08258
4054.22,0.08159
4048.44,0.08197
4042.65,0.08117
4036.86,0.08029
4031.08,0.08256
4025.29,0.08640
4019.51,0.09382
4013.72,0.10301
4007.93,0.10757
4002.15,0.10741
3996.36,0.10964
3990.57,0.11522
3984.79,0.11880
3979,0.11821
3973.22,0.11879
3967.43,0.12026
3961.64,0.12164
3955.86,0.12325
3950.07,0.12267
3944.28,0.12211
3938.5,0.12041
3932.71,0.12075
3926.93,0.12156
3921.14,0.12294
3915.35,0.12420
3909.57,0.12496
3903.78,0.12482
3897.99,0.12516
3892.21,0.12629
3886.42,0.12790
3880.64,0.12842
3874.85,0.12821
3869.06,0.12864
3863.28,0.12804
3857.49,0.12874
3851.7,0.12807
3845.92,0.12746
3840.13,0.12538
3834.35,0.12427
3828.56,0.12236
3822.77,0.12068
3816.99,0.11920
3811.2,0.11926
3805.41,0.11979
3799.63,0.12043
3793.84,0.12242
3788.06,0.12505
3782.27,0.12877
3776.48,0.12844
3770.7,0.12843
3764.91,0.12737
3759.12,0.12837
3753.34,0.13109
3747.55,0.13348
3741.77,0.13332
3735.98,0.13253
3730.19,0.12997
3724.41,0.12477
3718.62,0.12330
3712.83,0.12642
3707.05,0.12453
3701.26,0.11794
3695.48,0.11801
3689.69,0.12074
3683.9,0.11751
3678.12,0.11476
3672.33,0.11359
3666.54,0.11389
3660.76,0.11056
3654.97,0.10410
3649.19,0.09785
3643.4,0.09946
3637.61,0.11006
3631.83,0.11722
3626.04,0.11405
3620.25,0.10902
3614.47,0.11872
3608.68,0.13073
3602.9,0.13600
3597.11,0.13714
3591.32,0.13565
3585.54,0.13622
3579.75,0.13961
3573.97,0.14539
3568.18,0.14907
3562.39,0.14995
3556.61,0.14980
3550.82,0.14939
3545.03,0.14908
3539.25,0.14746
3533.46,0.14586
3527.68,0.14549
3521.89,0.14379
3516.1,0.14278
3510.32,0.14097
3504.53,0.14030
3498.74,0.13886
3492.96,0.13683
3487.17,0.13428
3481.39,0.13242
3475.6,0.13011
3469.81,0.12890
3464.03,0.12788
3458.24,0.12673
3452.45,0.12617
3446.67,0.12320
3440.88,0.12159
3435.1,0.12360
3429.31,0.12809
3423.52,0.13265
3417.74,0.13456
3411.95,0.13484
3406.16,0.13534
3400.38,0.13542
3394.59,0.13589
3388.81,0.13583
3383.02,0.13558
3377.23,0.13720
3371.45,0.13978
3365.66,0.14131
3359.87,0.14221
3354.09,0.14153
3348.3,0.13953
3342.52,0.13789
3336.73,0.13652
3330.94,0.13536
3325.16,0.13271
3319.37,0.13044
3313.58,0.12627
3307.8,0.11656
3302.01,0.10621
3296.23,0.10723
3290.44,0.11276
3284.65,0.11777
3278.87,0.12060
3273.08,0.12126
3267.29,0.12063
3261.51,0.11963
3255.72,0.11864
3249.94,0.11787
3244.15,0.11735
3238.36,0.11608
3232.58,0.11494
3226.79,0.11304
3221,0.10999
3215.22,0.10808
3209.43,0.10449
3203.65,0.09981
3197.86,0.09742
3192.07,0.09761
3186.29,0.09707
3180.5,0.09395
3174.71,0.09205
3168.93,0.08687
3163.14,0.08103
3157.36,0.08224
3151.57,0.08476
3145.78,0.08390
3140,0.08305
3134.21,0.08144
3128.42,0.07891
3122.64,0.07574
3116.85,0.07240
3111.07,0.06886
3105.28,0.06673
3099.49,0.06631
3093.71,0.06590
3087.92,0.06449
3082.14,0.06528
3076.35,0.06559
3070.56,0.06472
3064.78,0.06449
3058.99,0.06504
3053.2,0.06595
3047.42,0.06601
3041.63,0.06555
3035.85,0.06385
3030.06,0.06382
3024.27,0.06665
3018.49,0.06743
3012.7,0.06758
3006.91,0.06748
3001.13,0.06675
2995.34,0.06755
2989.56,0.06744
2983.77,0.06685
2977.98,0.06620
2972.2,0.06608
2966.41,0.06549
2960.62,0.06530
2954.84,0.06466
2949.05,0.06389
2943.27,0.06325
2937.48,0.06252
2931.69,0.06386
2925.91,0.06598
2920.12,0.06741
2914.33,0.06906
2908.55,0.06863
2902.76,0.06879
2896.98,0.06903
2891.19,0.06856
2885.4,0.06875
2879.62,0.06868
2873.83,0.06823
2868.04,0.06758
2862.26,0.06736
2856.47,0.06698
2850.69,0.06785
2844.9,0.06847
2839.11,0.06929
2833.33,0.06915
2827.54,0.06930
2821.75,0.07014
2815.97,0.07039
2810.18,0.07094
2804.4,0.07139
2798.61,0.07168
2792.82,0.07242
2787.04,0.07332
2781.25,0.07283
2775.46,0.07385
2769.68,0.07431
2763.89,0.07544
2758.11,0.07599
2752.32,0.07626
2746.53,0.07623
2740.75,0.07631
2734.96,0.07588
2729.17,0.07554
2723.39,0.07482
2717.6,0.07484
2711.82,0.07472
2706.03,0.07491
2700.24,0.07477
2694.46,0.07443
2688.67,0.07475
2682.88,0.07413
2677.1,0.07486
2671.31,0.07435
2665.53,0.07453
2659.74,0.07451
2653.95,0.07483
2648.17,0.07423
2642.38,0.07397
2636.59,0.07319
2630.81,0.07330
2625.02,0.07367
2619.24,0.07472
2613.45,0.07479
2607.66,0.07361
2601.88,0.07330
2596.09,0.07460
2590.3,0.07557
2584.52,0.07493
2578.73,0.07436
2572.95,0.07616
2567.16,0.07583
2561.37,0.07587
2555.59,0.07591
2549.8,0.07565
2544.02,0.07548
2538.23,0.07573
2532.44,0.07610
2526.66,0.07580
2520.87,0.07561
2515.08,0.07521
2509.3,0.07526
2503.51,0.07568
2497.73,0.07616
2491.94,0.07634
2486.15,0.07693
2480.37,0.07759
2474.58,0.07841
2468.79,0.07982
2463.01,0.08078
2457.22,0.08048
2451.44,0.08010
2445.65,0.08057
2439.86,0.08091
2434.08,0.08089
2428.29,0.08152
2422.5,0.08217
2416.72,0.08194
2410.93,0.08118
2405.15,0.08030
2399.36,0.07948
2393.57,0.07923
2387.79,0.07926
2382,0.07877
2376.21,0.07905
2370.43,0.07787
2364.64,0.07644
2358.86,0.07590
2353.07,0.07552
2347.28,0.07489
2341.5,0.07285
2335.71,0.07151
2329.92,0.07410
2324.14,0.07712
2318.35,0.07564
2312.57,0.07347
2306.78,0.07490
2300.99,0.07739
2295.21,0.07741
2289.42,0.07778
2283.63,0.07903
2277.85,0.07992
2272.06,0.07969
2266.28,0.07836
2260.49,0.07743
2254.7,0.07705
2248.92,0.07797
2243.13,0.07909
2237.34,0.07999
2231.56,0.08028
2225.77,0.08070
2219.99,0.08077
2214.2,0.08077
2208.41,0.08150
2202.63,0.08194
2196.84,0.08210
2191.05,0.08137
2185.27,0.08047
2179.48,0.08144
2173.7,0.08308
2167.91,0.08370
2162.12,0.08402
2156.34,0.08403
2150.55,0.08407
2144.76,0.08437
2138.98,0.08489
2133.19,0.08573
2127.41,0.08602
2121.62,0.08655
2115.83,0.08605
2110.05,0.08638
2104.26,0.08714
2098.47,0.08773
2092.69,0.08858
2086.9,0.08815
2081.12,0.08757
2075.33,0.08666
2069.54,0.08612
2063.76,0.08591
2057.97,0.08545
2052.19,0.08567
2046.4,0.08513
2040.61,0.08422
2034.83,0.08260
2029.04,0.08162
2023.25,0.08192
2017.47,0.08089
2011.68,0.07914
2005.9,0.07767
2000.11,0.07664
1994.32,0.07469
1988.54,0.07145
1982.75,0.07040
1976.96,0.06988
1971.18,0.06856
1965.39,0.06726
1959.61,0.06685
1953.82,0.06630
1948.03,0.06614
1942.25,0.06649
1936.46,0.06640
1930.67,0.06741
1924.89,0.06827
1919.1,0.06950
1913.32,0.07041
1907.53,0.06991
1901.74,0.06895
1895.96,0.06770
1890.17,0.06652
1884.38,0.06605
1878.6,0.06600
1872.81,0.06610
1867.03,0.06658
1861.24,0.06698
1855.45,0.06768
1849.67,0.06908
1843.88,0.06938
1838.09,0.06938
1832.31,0.06814
1826.52,0.06679
1820.74,0.06605
1814.95,0.06579
1809.16,0.06549
1803.38,0.06592
1797.59,0.06633
1791.8,0.06676
1786.02,0.06732
1780.23,0.06685
1774.45,0.06702
1768.66,0.06716
1762.87,0.06672
1757.09,0.06593
1751.3,0.06560
1745.51,0.06556
1739.73,0.06563
1733.94,0.06628
1728.16,0.06653
1722.37,0.06677
1716.58,0.06725
1710.8,0.06702
1705.01,0.06678
1699.22,0.06635
1693.44,0.06562
1687.65,0.06555
1681.87,0.06546
1676.08,0.06529
1670.29,0.06527
1664.51,0.06514
1658.72,0.06515
1652.93,0.06640
1647.15,0.06572
1641.36,0.06566
1635.58,0.06553
1629.79,0.06523
1624,0.06512
1618.22,0.06484
1612.43,0.06332
1606.64,0.06265
1600.86,0.06502
1595.07,0.06637
1589.29,0.06540
1583.5,0.06543
1577.71,0.06627
1571.93,0.06567
1566.14,0.06595
1560.35,0.06615
1554.57,0.06496
1548.78,0.06439
1543,0.06480
1537.21,0.06459
1531.42,0.06421
1525.64,0.06437
1519.85,0.06348
1514.07,0.06310
1508.28,0.06204
1502.49,0.06037
1496.71,0.05871
1490.92,0.06790
1485.13,0.06751
1479.35,0.06594
1473.56,0.06512
1467.78,0.06361
1461.99,0.06183
1456.2,0.05957
1450.42,0.06800
1444.63,0.06895
1438.84,0.06876
1433.06,0.06766
1427.27,0.06715
1421.49,0.06668
1415.7,0.06626
1409.91,0.06611
1404.13,0.06570
1398.34,0.06533
1392.55,0.06514
1386.77,0.06469
1380.98,0.06458
1375.2,0.06478
1369.41,0.06513
1363.62,0.06545
1357.84,0.06529
1352.05,0.06526
1346.26,0.06510
1340.48,0.06511
1334.69,0.06520
1328.91,0.06505
1323.12,0.06514
1317.33,0.06486
1311.55,0.06490
1305.76,0.06502
1299.97,0.06523
1294.19,0.06496
1288.4,0.06541
1282.62,0.06531
1276.83,0.06564
1271.04,0.06509
1265.26,0.06569
1259.47,0.06598
1253.68,0.06530
1247.9,0.06507
1242.11,0.06526
1236.33,0.06524
1230.54,0.06468
1224.75,0.06444
1218.97,0.06434
1213.18,0.06437
1207.39,0.06436
1201.61,0.06446
1195.82,0.06435
1190.04,0.06386
1184.25,0.06426
1178.46,0.06481
1172.68,0.06507
1166.89,0.06464
1161.1,0.06416
1155.32,0.06436
1149.53,0.06596
1143.75,0.06601
1137.96,0.06579
1132.17,0.06563
1126.39,0.06580
1120.6,0.06532
1114.81,0.06455
1109.03,0.06397
1103.24,0.06434
1097.46,0.06411
1091.67,0.06372
1085.88,0.06254
1080.1,0.06255
1074.31,0.06314
1068.52,0.06391
1062.74,0.06400
1056.95,0.06471
1051.17,0.06457
1045.38,0.06364
1039.59,0.06323
1033.81,0.06262
1028.02,0.06484
1022.24,0.06646
1016.45,0.06660
1010.66,0.06592
1004.88,0.06476
999.09,0.06511
993.304,0.06493
987.518,0.06432
981.731,0.06432
975.945,0.06363
970.159,0.06356
964.373,0.06341
958.586,0.06373
952.8,0.06364
947.014,0.06379
941.228,0.06349
935.441,0.06304
929.655,0.06328
923.869,0.06278
918.083,0.06226
912.297,0.06177
906.51,0.06243
900.724,0.06381
894.938,0.06373
889.152,0.06282
883.365,0.06317
877.579,0.06228
871.793,0.06185
866.007,0.06111
860.22,0.06165
854.434,0.06152
848.648,0.06048
842.862,0.06108
837.075,0.06103
831.289,0.06088
825.503,0.06061
819.717,0.06003
813.931,0.06029
808.144,0.05957
802.358,0.05868
796.572,0.05725
790.786,0.05719
784.999,0.05486
779.213,0.05370
773.427,0.05186
767.641,0.05280
761.854,0.05519
756.068,0.06146
750.282,0.06447
744.496,0.06714
738.709,0.06500
732.923,0.06233
727.137,0.05900
721.351,0.05446
715.565,0.05034
709.778,0.04045
703.992,0.04841
698.206,0.11437
692.42,0.11137
686.633,0.08661
680.847,0.07939
675.061,0.07623
669.275,0.07420
663.488,0.07291
657.702,0.07089
651.916,0.07017
646.13,0.06985
640.343,0.06915
634.557,0.06865
628.771,0.06751
622.985,0.06956
617.198,0.06983
611.412,0.06793
605.626,0.06714
599.84,0.06772