File: 01_Data/HIPS/FTIR/IS/HIPS_IS_T_220901_R8.dpt
7497.03,0.02436
7491.25,0.01674
7485.46,0.02292
7479.67,0.02094
7473.89,0.02735
7468.1,0.02241
7462.32,0.02841
7456.53,0.02512
7450.74,0.02601
7444.96,0.02087
7439.17,0.02928
7433.38,0.02652
7427.6,0.01640
7421.81,0.01977
7416.03,0.02300
7410.24,0.02085
7404.45,0.01590
7398.67,0.02455
7392.88,0.02548
7387.09,0.02141
7381.31,0.02047
7375.52,0.02788
7369.74,0.02346
7363.95,0.02183
7358.16,0.03025
7352.38,0.03125
7346.59,0.02440
7340.8,0.01521
7335.02,0.02991
7329.23,0.02134
7323.45,0.02978
7317.66,0.02590
7311.87,0.02894
7306.09,0.02582
7300.3,0.01835
7294.51,0.02735
7288.73,0.02542
7282.94,0.02313
7277.16,0.01737
7271.37,0.02560
7265.58,0.02509
7259.8,0.02454
7254.01,0.03047
7248.22,0.03077
7242.44,0.03002
7236.65,0.02523
7230.87,0.02238
7225.08,0.02281
7219.29,0.02460
7213.51,0.02442
7207.72,0.02330
7201.93,0.02036
7196.15,0.01751
7190.36,0.01838
7184.58,0.01969
7178.79,0.02894
7173,0.03218
7167.22,0.02806
7161.43,0.02599
7155.65,0.02138
7149.86,0.02537
7144.07,0.03028
7138.29,0.02417
7132.5,0.02507
7126.71,0.02707
7120.93,0.03052
7115.14,0.02564
7109.36,0.02580
7103.57,0.01578
7097.78,0.01888
7092,0.02396
7086.21,0.02372
7080.42,0.02435
7074.64,0.02445
7068.85,0.02876
7063.07,0.02169
7057.28,0.02461
7051.49,0.02210
7045.71,0.02623
7039.92,0.02731
7034.13,0.02412
7028.35,0.02400
7022.56,0.02119
7016.78,0.02319
7010.99,0.02502
7005.2,0.02370
6999.42,0.02415
6993.63,0.02507
6987.84,0.01875
6982.06,0.02031
6976.27,0.02755
6970.49,0.02614
6964.7,0.03174
6958.91,0.02605
6953.13,0.02652
6947.34,0.02929
6941.55,0.02399
6935.77,0.02102
6929.98,0.02189
6924.2,0.02651
6918.41,0.02427
6912.62,0.02291
6906.84,0.02334
6901.05,0.02427
6895.26,0.02607
6889.48,0.02262
6883.69,0.02641
6877.91,0.02108
6872.12,0.02021
6866.33,0.01880
6860.55,0.02488
6854.76,0.02434
6848.97,0.02055
6843.19,0.02990
6837.4,0.02440
6831.62,0.02350
6825.83,0.02676
6820.04,0.02455
6814.26,0.02280
6808.47,0.02683
6802.68,0.02018
6796.9,0.02181
6791.11,0.02180
6785.33,0.02416
6779.54,0.02656
6773.75,0.02548
6767.97,0.02596
6762.18,0.02445
6756.39,0.02536
6750.61,0.02398
6744.82,0.02409
6739.04,0.02442
6733.25,0.02038
6727.46,0.02156
6721.68,0.01998
6715.89,0.02391
6710.1,0.02202
6704.32,0.01976
6698.53,0.02506
6692.75,0.01852
6686.96,0.02656
6681.17,0.02078
6675.39,0.02721
6669.6,0.02153
6663.82,0.02791
6658.03,0.02498
6652.24,0.02222
6646.46,0.02273
6640.67,0.01711
6634.88,0.02214
6629.1,0.01963
6623.31,0.02135
6617.53,0.02244
6611.74,0.02328
6605.95,0.02185
6600.17,0.02416
6594.38,0.02320
6588.59,0.02190
6582.81,0.02022
6577.02,0.02257
6571.24,0.02687
6565.45,0.02358
6559.66,0.02014
6553.88,0.01893
6548.09,0.02448
6542.3,0.02708
6536.52,0.02192
6530.73,0.02615
6524.95,0.02193
6519.16,0.01993
6513.37,0.02374
6507.59,0.02008
6501.8,0.02298
6496.01,0.02305
6490.23,0.02441
6484.44,0.02389
6478.66,0.01883
6472.87,0.02371
6467.08,0.02164
6461.3,0.01895
6455.51,0.01937
6449.72,0.02100
6443.94,0.02314
6438.15,0.02232
6432.37,0.02107
6426.58,0.01980
6420.79,0.02249
6415.01,0.01908
6409.22,0.02490
6403.43,0.02547
6397.65,0.02274
6391.86,0.02697
6386.08,0.02749
6380.29,0.02532
6374.5,0.02174
6368.72,0.01830
6362.93,0.01912
6357.14,0.01954
6351.36,0.02102
6345.57,0.01849
6339.79,0.02246
6334,0.02322
6328.21,0.01941
6322.43,0.02274
6316.64,0.01904
6310.85,0.02397
6305.07,0.02198
6299.28,0.01973
6293.5,0.02112
6287.71,0.02135
6281.92,0.02502
6276.14,0.02249
6270.35,0.02366
6264.56,0.02287
6258.78,0.01968
6252.99,0.01783
6247.21,0.02205
6241.42,0.02175
6235.63,0.02041
6229.85,0.02183
6224.06,0.02334
6218.27,0.02532
6212.49,0.02342
6206.7,0.02216
6200.92,0.02167
6195.13,0.01942
6189.34,0.02450
6183.56,0.02451
6177.77,0.02491
6171.98,0.02315
6166.2,0.02057
6160.41,0.02249
6154.63,0.02450
6148.84,0.02102
6143.05,0.02160
6137.27,0.02171
6131.48,0.02319
6125.7,0.02291
6119.91,0.02165
6114.12,0.02135
6108.34,0.02192
6102.55,0.02301
6096.76,0.01904
6090.98,0.02162
6085.19,0.02330
6079.41,0.02646
6073.62,0.02211
6067.83,0.02168
6062.05,0.02148
6056.26,0.01954
6050.47,0.02118
6044.69,0.02437
6038.9,0.02184
6033.12,0.02410
6027.33,0.02109
6021.54,0.02022
6015.76,0.02164
6009.97,0.02075
6004.18,0.02175
5998.4,0.02399
5992.61,0.02414
5986.83,0.02066
5981.04,0.01995
5975.25,0.02226
5969.47,0.02494
5963.68,0.01933
5957.89,0.02129
5952.11,0.02256
5946.32,0.02109
5940.54,0.02304
5934.75,0.02198
5928.96,0.02277
5923.18,0.01901
5917.39,0.01972
5911.6,0.02314
5905.82,0.02216
5900.03,0.02169
5894.25,0.02208
5888.46,0.02282
5882.67,0.02028
5876.89,0.02047
5871.1,0.02240
5865.31,0.02042
5859.53,0.02020
5853.74,0.01960
5847.96,0.02078
5842.17,0.02232
5836.38,0.02128
5830.6,0.01946
5824.81,0.02188
5819.02,0.02229
5813.24,0.02453
5807.45,0.02093
5801.67,0.02094
5795.88,0.02326
5790.09,0.02163
5784.31,0.02334
5778.52,0.01955
5772.73,0.02164
5766.95,0.02152
5761.16,0.02115
5755.38,0.02201
5749.59,0.02182
5743.8,0.02247
5738.02,0.02178
5732.23,0.02120
5726.44,0.02254
5720.66,0.02365
5714.87,0.02031
5709.09,0.01924
5703.3,0.01950
5697.51,0.02310
5691.73,0.02156
5685.94,0.02049
5680.15,0.02048
5674.37,0.02195
5668.58,0.02332
5662.8,0.02102
5657.01,0.02039
5651.22,0.02179
5645.44,0.02283
5639.65,0.02127
5633.87,0.01903
5628.08,0.02070
5622.29,0.02386
5616.51,0.02095
5610.72,0.02178
5604.93,0.01997
5599.15,0.02154
5593.36,0.02089
5587.58,0.02030
5581.79,0.02126
5576,0.02091
5570.22,0.02055
5564.43,0.02232
5558.64,0.02172
5552.86,0.02188
5547.07,0.02092
5541.29,0.02044
5535.5,0.02142
5529.71,0.02242
5523.93,0.02247
5518.14,0.02277
5512.35,0.02184
5506.57,0.02341
5500.78,0.02069
5495,0.01957
5489.21,0.02108
5483.42,0.02102
5477.64,0.02185
5471.85,0.02188
5466.06,0.02188
5460.28,0.02264
5454.49,0.02188
5448.71,0.02191
5442.92,0.02047
5437.13,0.02166
5431.35,0.02365
5425.56,0.02298
5419.77,0.02356
5413.99,0.02062
5408.2,0.02191
5402.42,0.02101
5396.63,0.02208
5390.84,0.02125
5385.06,0.02223
5379.27,0.02191
5373.48,0.02246
5367.7,0.02256
5361.91,0.02111
5356.13,0.02126
5350.34,0.02120
5344.55,0.02240
5338.77,0.02202
5332.98,0.02224
5327.19,0.02273
5321.41,0.02300
5315.62,0.02231
5309.84,0.02225
5304.05,0.02112
5298.26,0.02334
5292.48,0.02208
5286.69,0.02161
5280.9,0.02284
5275.12,0.02199
5269.33,0.01995
5263.55,0.02117
5257.76,0.02081
5251.97,0.02093
5246.19,0.02301
5240.4,0.02247
5234.61,0.02250
5228.83,0.02116
5223.04,0.02155
5217.26,0.02115
5211.47,0.02145
5205.68,0.02131
5199.9,0.02258
5194.11,0.02089
5188.32,0.02216
5182.54,0.02256
5176.75,0.02234
5170.97,0.02346
5165.18,0.02209
5159.39,0.02262
5153.61,0.02170
5147.82,0.02081
5142.03,0.02183
5136.25,0.02268
5130.46,0.02237
5124.68,0.02283
5118.89,0.02217
5113.1,0.02062
5107.32,0.02137
5101.53,0.02333
5095.75,0.02347
5089.96,0.02204
5084.17,0.02266
5078.39,0.02283
5072.6,0.02319
5066.81,0.02173
5061.03,0.02236
5055.24,0.02284
5049.46,0.02224
5043.67,0.02153
5037.88,0.02189
5032.1,0.02183
5026.31,0.02330
5020.52,0.02214
5014.74,0.02193
5008.95,0.02208
5003.17,0.02259
4997.38,0.02219
4991.59,0.02156
4985.81,0.02128
4980.02,0.02166
4974.23,0.02307
4968.45,0.02248
4962.66,0.02151
4956.88,0.02233
4951.09,0.02312
4945.3,0.02129
4939.52,0.02201
4933.73,0.02247
4927.94,0.02277
4922.16,0.02186
4916.37,0.02314
4910.59,0.02205
4904.8,0.02232
4899.01,0.02235
4893.23,0.02198
4887.44,0.02303
4881.65,0.02133
4875.87,0.02201
4870.08,0.02260
4864.3,0.02254
4858.51,0.02179
4852.72,0.02337
4846.94,0.02241
4841.15,0.02204
4835.36,0.02189
4829.58,0.02294
4823.79,0.02257
4818.01,0.02226
4812.22,0.02253
4806.43,0.02204
4800.65,0.02275
4794.86,0.02236
4789.07,0.02280
4783.29,0.02240
4777.5,0.02216
4771.72,0.02195
4765.93,0.02243
4760.14,0.02291
4754.36,0.02252
4748.57,0.02300
4742.78,0.02206
4737,0.02194
4731.21,0.02090
4725.43,0.02191
4719.64,0.02170
4713.85,0.02148
4708.07,0.02136
4702.28,0.02308
4696.49,0.02285
4690.71,0.02143
4684.92,0.02214
4679.14,0.02258
4673.35,0.02259
4667.56,0.02244
4661.78,0.02152
4655.99,0.02178
4650.2,0.02167
4644.42,0.02214
4638.63,0.02212
4632.85,0.02150
4627.06,0.02216
4621.27,0.02177
4615.49,0.02192
4609.7,0.02100
4603.92,0.02221
4598.13,0.02267
4592.34,0.02338
4586.56,0.02286
4580.77,0.02236
4574.98,0.02301
4569.2,0.02250
4563.41,0.02217
4557.63,0.02151
4551.84,0.02245
4546.05,0.02255
4540.27,0.02191
4534.48,0.02171
4528.69,0.02199
4522.91,0.02290
4517.12,0.02205
4511.34,0.02177
4505.55,0.02259
4499.76,0.02225
4493.98,0.02159
4488.19,0.02274
4482.4,0.02194
4476.62,0.02197
4470.83,0.02214
4465.05,0.02235
4459.26,0.02226
4453.47,0.02232
4447.69,0.02233
4441.9,0.02237
4436.11,0.02236
4430.33,0.02193
4424.54,0.02207
4418.76,0.02223
4412.97,0.02207
4407.18,0.02224
4401.4,0.02215
4395.61,0.02194
4389.82,0.02215
4384.04,0.02223
4378.25,0.02275
4372.47,0.02222
4366.68,0.02241
4360.89,0.02236
4355.11,0.02222
4349.32,0.02163
4343.53,0.02194
4337.75,0.02161
4331.96,0.02205
4326.18,0.02196
4320.39,0.02237
4314.6,0.02119
4308.82,0.02210
4303.03,0.02209
4297.24,0.02184
4291.46,0.02140
4285.67,0.02265
4279.89,0.02208
4274.1,0.02185
4268.31,0.02195
4262.53,0.02223
4256.74,0.02246
4250.95,0.02215
4245.17,0.02205
4239.38,0.02256
4233.6,0.02275
4227.81,0.02294
4222.02,0.02223
4216.24,0.02221
4210.45,0.02317
4204.66,0.02251
4198.88,0.02213
4193.09,0.02221
4187.31,0.02152
4181.52,0.02226
4175.73,0.02199
4169.95,0.02161
4164.16,0.02225
4158.37,0.02263
4152.59,0.02199
4146.8,0.02217
4141.02,0.02194
4135.23,0.02270
4129.44,0.02235
4123.66,0.02301
4117.87,0.02232
4112.09,0.02198
4106.3,0.02223
4100.51,0.02238
4094.73,0.02278
4088.94,0.02270
4083.15,0.02243
4077.37,0.02172
4071.58,0.02195
4065.8,0.02292
4060.01,0.02181
4054.22,0.02261
4048.44,0.02217
4042.65,0.02202
4036.86,0.02206
4031.08,0.02144
4025.29,0.02208
4019.51,0.02285
4013.72,0.02203
4007.93,0.02249
4002.15,0.02247
3996.36,0.02219
3990.57,0.02242
3984.79,0.02293
3979,0.02269
3973.22,0.02227
3967.43,0.02272
3961.64,0.02220
3955.86,0.02245
3950.07,0.02215
3944.28,0.02211
3938.5,0.02275
3932.71,0.02268
3926.93,0.02233
3921.14,0.02225
3915.35,0.02242
3909.57,0.02239
3903.78,0.02240
3897.99,0.02174
3892.21,0.02278
3886.42,0.02205
3880.64,0.02231
3874.85,0.02271
3869.06,0.02252
3863.28,0.02329
3857.49,0.02267
3851.7,0.02205
3845.92,0.02259
3840.13,0.02178
3834.35,0.02259
3828.56,0.02279
3822.77,0.02316
3816.99,0.02229
3811.2,0.02245
3805.41,0.02235
3799.63,0.02237
3793.84,0.02270
3788.06,0.02210
3782.27,0.02235
3776.48,0.02282
3770.7,0.02251
3764.91,0.02255
3759.12,0.02280
3753.34,0.02249
3747.55,0.02255
3741.77,0.02201
3735.98,0.02235
3730.19,0.02139
3724.41,0.02206
3718.62,0.02259
3712.83,0.02224
3707.05,0.02241
3701.26,0.02200
3695.48,0.02166
3689.69,0.02239
3683.9,0.02254
3678.12,0.02308
3672.33,0.02164
3666.54,0.02173
3660.76,0.02229
3654.97,0.02231
3649.19,0.02204
3643.4,0.02182
3637.61,0.02150
3631.83,0.02162
3626.04,0.02208
3620.25,0.02183
3614.47,0.02199
3608.68,0.02182
3602.9,0.02198
3597.11,0.02171
3591.32,0.02204
3585.54,0.02102
3579.75,0.02108
3573.97,0.02136
3568.18,0.02177
3562.39,0.02139
3556.61,0.02129
3550.82,0.02069
3545.03,0.02127
3539.25,0.02098
3533.46,0.02122
3527.68,0.02075
3521.89,0.02132
3516.1,0.02104
3510.32,0.02062
3504.53,0.02031
3498.74,0.02095
3492.96,0.02128
3487.17,0.02151
3481.39,0.02109
3475.6,0.02050
3469.81,0.02094
3464.03,0.02049
3458.24,0.02030
3452.45,0.02038
3446.67,0.02104
3440.88,0.02155
3435.1,0.02093
3429.31,0.02111
3423.52,0.02099
3417.74,0.02122
3411.95,0.02060
3406.16,0.02099
3400.38,0.02061
3394.59,0.02008
3388.81,0.02047
3383.02,0.02028
3377.23,0.02030
3371.45,0.02020
3365.66,0.02071
3359.87,0.02008
3354.09,0.02025
3348.3,0.01984
3342.52,0.01985
3336.73,0.01991
3330.94,0.02025
3325.16,0.02010
3319.37,0.01932
3313.58,0.01971
3307.8,0.01987
3302.01,0.01978
3296.23,0.02005
3290.44,0.02017
3284.65,0.02048
3278.87,0.01985
3273.08,0.02067
3267.29,0.02022
3261.51,0.02045
3255.72,0.02086
3249.94,0.02053
3244.15,0.02015
3238.36,0.02069
3232.58,0.02087
3226.79,0.02079
3221,0.02076
3215.22,0.02074
3209.43,0.02017
3203.65,0.02009
3197.86,0.02046
3192.07,0.02083
3186.29,0.02041
3180.5,0.02028
3174.71,0.02156
3168.93,0.02039
3163.14,0.02049
3157.36,0.02046
3151.57,0.02041
3145.78,0.02070
3140,0.02108
3134.21,0.02079
3128.42,0.02062
3122.64,0.02127
3116.85,0.02061
3111.07,0.02056
3105.28,0.02083
3099.49,0.02135
3093.71,0.02077
3087.92,0.02042
3082.14,0.02060
3076.35,0.02051
3070.56,0.01994
3064.78,0.02061
3058.99,0.02041
3053.2,0.02098
3047.42,0.02082
3041.63,0.02080
3035.85,0.02044
3030.06,0.02043
3024.27,0.01995
3018.49,0.02027
3012.7,0.02065
3006.91,0.01970
3001.13,0.02022
2995.34,0.01998
2989.56,0.02012
2983.77,0.01967
2977.98,0.02013
2972.2,0.01967
2966.41,0.01903
2960.62,0.01934
2954.84,0.01928
2949.05,0.01956
2943.27,0.01928
2937.48,0.02012
2931.69,0.01980
2925.91,0.02001
2920.12,0.02046
2914.33,0.02013
2908.55,0.01991
2902.76,0.02023
2896.98,0.02083
2891.19,0.02069
2885.4,0.02061
2879.62,0.02059
2873.83,0.02035
2868.04,0.02003
2862.26,0.01981
2856.47,0.02063
2850.69,0.02058
2844.9,0.02111
2839.11,0.02101
2833.33,0.02151
2827.54,0.02102
2821.75,0.02061
2815.97,0.02104
2810.18,0.02091
2804.4,0.02166
2798.61,0.02081
2792.82,0.02138
2787.04,0.02114
2781.25,0.02098
2775.46,0.02091
2769.68,0.02083
2763.89,0.02103
2758.11,0.02107
2752.32,0.02119
2746.53,0.02119
2740.75,0.02112
2734.96,0.02113
2729.17,0.02077
2723.39,0.02121
2717.6,0.02151
2711.82,0.02124
2706.03,0.02117
2700.24,0.02121
2694.46,0.02139
2688.67,0.02138
2682.88,0.02097
2677.1,0.02100
2671.31,0.02117
2665.53,0.02134
2659.74,0.02138
2653.95,0.02096
2648.17,0.02075
2642.38,0.02105
2636.59,0.02112
2630.81,0.02115
2625.02,0.02127
2619.24,0.02094
2613.45,0.02130
2607.66,0.02124
2601.88,0.02139
2596.09,0.02127
2590.3,0.02118
2584.52,0.02098
2578.73,0.02107
2572.95,0.02119
2567.16,0.02075
2561.37,0.02112
2555.59,0.02140
2549.8,0.02108
2544.02,0.02080
2538.23,0.02096
2532.44,0.02116
2526.66,0.02114
2520.87,0.02097
2515.08,0.02082
2509.3,0.02065
2503.51,0.02129
2497.73,0.02108
2491.94,0.02068
2486.15,0.02097
2480.37,0.02097
2474.58,0.02105
2468.79,0.02104
2463.01,0.02082
2457.22,0.02116
2451.44,0.02112
2445.65,0.02104
2439.86,0.02102
2434.08,0.02112
2428.29,0.02083
2422.5,0.02101
2416.72,0.02086
2410.93,0.02091
2405.15,0.02103
2399.36,0.02103
2393.57,0.02085
2387.79,0.02081
2382,0.02154
2376.21,0.02114
2370.43,0.02110
2364.64,0.02110
2358.86,0.02091
2353.07,0.02137
2347.28,0.02110
2341.5,0.02109
2335.71,0.02104
2329.92,0.02094
2324.14,0.02075
2318.35,0.02054
2312.57,0.02020
2306.78,0.02110
2300.99,0.02114
2295.21,0.02111
2289.42,0.02069
2283.63,0.02074
2277.85,0.02056
2272.06,0.02106
2266.28,0.02094
2260.49,0.02092
2254.7,0.02049
2248.92,0.02070
2243.13,0.02074
2237.34,0.02066
2231.56,0.02107
2225.77,0.02064
2219.99,0.02056
2214.2,0.02089
2208.41,0.02088
2202.63,0.02101
2196.84,0.02073
2191.05,0.02055
2185.27,0.02066
2179.48,0.02102
2173.7,0.02077
2167.91,0.02134
2162.12,0.02067
2156.34,0.02064
2150.55,0.02067
2144.76,0.02083
2138.98,0.02043
2133.19,0.02054
2127.41,0.02062
2121.62,0.02072
2115.83,0.02048
2110.05,0.02093
2104.26,0.02110
2098.47,0.02059
2092.69,0.02053
2086.9,0.02062
2081.12,0.02066
2075.33,0.02046
2069.54,0.02080
2063.76,0.02065
2057.97,0.02053
2052.19,0.02067
2046.4,0.02045
2040.61,0.02055
2034.83,0.02075
2029.04,0.02071
2023.25,0.02053
2017.47,0.02073
2011.68,0.02060
2005.9,0.02051
2000.11,0.02065
1994.32,0.02061
1988.54,0.02038
1982.75,0.02091
1976.96,0.02094
1971.18,0.02067
1965.39,0.02063
1959.61,0.02054
1953.82,0.02040
1948.03,0.02057
1942.25,0.02062
1936.46,0.02009
1930.67,0.02040
1924.89,0.02074
1919.1,0.02050
1913.32,0.02052
1907.53,0.02049
1901.74,0.02007
1895.96,0.02042
1890.17,0.02009
1884.38,0.02010
1878.6,0.02023
1872.81,0.01984
1867.03,0.02029
1861.24,0.02047
1855.45,0.02046
1849.67,0.01988
1843.88,0.02044
1838.09,0.02037
1832.31,0.01979
1826.52,0.01984
1820.74,0.02006
1814.95,0.01959
1809.16,0.01968
1803.38,0.01995
1797.59,0.01974
1791.8,0.01917
1786.02,0.01962
1780.23,0.01916
1774.45,0.01910
1768.66,0.01843
1762.87,0.01802
1757.09,0.01735
1751.3,0.01697
1745.51,0.01757
1739.73,0.01836
1733.94,0.01976
1728.16,0.02054
1722.37,0.02078
1716.58,0.02089
1710.8,0.02037
1705.01,0.02034
1699.22,0.01998
1693.44,0.01911
1687.65,0.01914
1681.87,0.01881
1676.08,0.01874
1670.29,0.01895
1664.51,0.01865
1658.72,0.01862
1652.93,0.01887
1647.15,0.01836
1641.36,0.01855
1635.58,0.01897
1629.79,0.01851
1624,0.01867
1618.22,0.01872
1612.43,0.01869
1606.64,0.01879
1600.86,0.01899
1595.07,0.01891
1589.29,0.01845
1583.5,0.01850
1577.71,0.01835
1571.93,0.01851
1566.14,0.01823
1560.35,0.01850
1554.57,0.01813
1548.78,0.01817
1543,0.01801
1537.21,0.01836
1531.42,0.01890
1525.64,0.01886
1519.85,0.01839
1514.07,0.01870
1508.28,0.01859
1502.49,0.01903
1496.71,0.01867
1490.92,0.01876
1485.13,0.01884
1479.35,0.01846
1473.56,0.01803
1467.78,0.01825
1461.99,0.01869
1456.2,0.01859
1450.42,0.01859
1444.63,0.01853
1438.84,0.01866
1433.06,0.01871
1427.27,0.01868
1421.49,0.01851
1415.7,0.01854
1409.91,0.01834
1404.13,0.01810
1398.34,0.01857
1392.55,0.01809
1386.77,0.01811
1380.98,0.01800
1375.2,0.01807
1369.41,0.01799
1363.62,0.01811
1357.84,0.01793
1352.05,0.01807
1346.26,0.01765
1340.48,0.01762
1334.69,0.01786
1328.91,0.01730
1323.12,0.01736
1317.33,0.01696
1311.55,0.01651
1305.76,0.01729
1299.97,0.01726
1294.19,0.01797
1288.4,0.01835
1282.62,0.01884
1276.83,0.01894
1271.04,0.01939
1265.26,0.01922
1259.47,0.01975
1253.68,0.01990
1247.9,0.02050
1242.11,0.02013
1236.33,0.02009
1230.54,0.01967
1224.75,0.01945
1218.97,0.01873
1213.18,0.01881
1207.39,0.01837
1201.61,0.01845
1195.82,0.01854
1190.04,0.01813
1184.25,0.01794
1178.46,0.01839
1172.68,0.01790
1166.89,0.01785
1161.1,0.01766
1155.32,0.01745
1149.53,0.01806
1143.75,0.01738
1137.96,0.01805
1132.17,0.01837
1126.39,0.01802
1120.6,0.01895
1114.81,0.01872
1109.03,0.01886
1103.24,0.01883
1097.46,0.01840
1091.67,0.01810
1085.88,0.01835
1080.1,0.01819
1074.31,0.01974
1068.52,0.01992
1062.74,0.02054
1056.95,0.01954
1051.17,0.01998
1045.38,0.01915
1039.59,0.02003
1033.81,0.01980
1028.02,0.01954
1022.24,0.01908
1016.45,0.01926
1010.66,0.01984
1004.88,0.02039
999.09,0.02077
993.304,0.02097
987.518,0.02096
981.731,0.02063
975.945,0.02029
970.159,0.02078
964.373,0.02006
958.586,0.01958
952.8,0.01982
947.014,0.01971
941.228,0.01926
935.441,0.01948
929.655,0.01931
923.869,0.01913
918.083,0.01966
912.297,0.01931
906.51,0.01861
900.724,0.01912
894.938,0.01853
889.152,0.01865
883.365,0.01834
877.579,0.01934
871.793,0.01916
866.007,0.01858
860.22,0.01906
854.434,0.01941
848.648,0.01852
842.862,0.01980
837.075,0.01975
831.289,0.01933
825.503,0.01924
819.717,0.01926
813.931,0.01882
808.144,0.01949
802.358,0.01920
796.572,0.01880
790.786,0.01846
784.999,0.01844
779.213,0.01844
773.427,0.01870
767.641,0.01848
761.854,0.01893
756.068,0.01787
750.282,0.01759
744.496,0.01824
738.709,0.01873
732.923,0.01975
727.137,0.01878
721.351,0.01934
715.565,0.01862
709.778,0.01790
703.992,0.01691
698.206,0.01774
692.42,0.01882
686.633,0.01896
680.847,0.01765
675.061,0.01742
669.275,0.01747
663.488,0.01781
657.702,0.01636
651.916,0.01646
646.13,0.01736
640.343,0.01863
634.557,0.01819
628.771,0.01547
622.985,0.01456
617.198,0.01405
611.412,0.01393
605.626,0.01419
599.84,0.01564