File: 01_Data/HIPS/FTIR/IS/HIPS_IS_S_220901_R8.dpt
7497.03,0.83112
7491.25,0.82454
7485.46,0.82473
7479.67,0.81475
7473.89,0.81862
7468.1,0.81772
7462.32,0.80607
7456.53,0.81169
7450.74,0.81014
7444.96,0.80946
7439.17,0.79970
7433.38,0.80046
7427.6,0.80031
7421.81,0.79684
7416.03,0.79872
7410.24,0.78452
7404.45,0.80103
7398.67,0.80029
7392.88,0.79924
7387.09,0.79809
7381.31,0.80655
7375.52,0.81012
7369.74,0.80581
7363.95,0.80296
7358.16,0.80791
7352.38,0.80237
7346.59,0.79864
7340.8,0.80250
7335.02,0.78755
7329.23,0.79064
7323.45,0.77685
7317.66,0.77511
7311.87,0.77943
7306.09,0.77139
7300.3,0.77289
7294.51,0.76535
7288.73,0.75530
7282.94,0.75181
7277.16,0.75269
7271.37,0.75191
7265.58,0.73375
7259.8,0.74254
7254.01,0.72989
7248.22,0.72964
7242.44,0.72212
7236.65,0.72360
7230.87,0.71924
7225.08,0.71351
7219.29,0.72032
7213.51,0.71256
7207.72,0.70842
7201.93,0.70081
7196.15,0.69783
7190.36,0.69034
7184.58,0.68784
7178.79,0.69403
7173,0.69218
7167.22,0.68852
7161.43,0.68586
7155.65,0.69394
7149.86,0.69736
7144.07,0.69408
7138.29,0.69367
7132.5,0.68547
7126.71,0.68388
7120.93,0.69046
7115.14,0.68297
7109.36,0.67323
7103.57,0.68148
7097.78,0.67416
7092,0.67473
7086.21,0.67036
7080.42,0.66212
7074.64,0.66923
7068.85,0.66145
7063.07,0.66024
7057.28,0.66792
7051.49,0.67335
7045.71,0.67774
7039.92,0.67644
7034.13,0.67775
7028.35,0.67917
7022.56,0.68584
7016.78,0.68625
7010.99,0.68192
7005.2,0.69332
6999.42,0.68110
6993.63,0.68314
6987.84,0.68612
6982.06,0.67569
6976.27,0.68590
6970.49,0.67909
6964.7,0.68377
6958.91,0.69019
6953.13,0.68738
6947.34,0.68842
6941.55,0.68786
6935.77,0.69480
6929.98,0.69293
6924.2,0.70056
6918.41,0.69525
6912.62,0.69962
6906.84,0.70278
6901.05,0.70571
6895.26,0.70901
6889.48,0.71064
6883.69,0.70537
6877.91,0.71244
6872.12,0.71573
6866.33,0.71517
6860.55,0.71819
6854.76,0.71732
6848.97,0.72221
6843.19,0.72927
6837.4,0.72341
6831.62,0.72455
6825.83,0.72761
6820.04,0.72750
6814.26,0.73149
6808.47,0.73060
6802.68,0.72807
6796.9,0.73202
6791.11,0.73030
6785.33,0.73145
6779.54,0.72870
6773.75,0.73613
6767.97,0.73760
6762.18,0.74146
6756.39,0.73782
6750.61,0.73771
6744.82,0.73250
6739.04,0.73627
6733.25,0.73483
6727.46,0.73885
6721.68,0.74388
6715.89,0.74361
6710.1,0.74181
6704.32,0.74808
6698.53,0.74795
6692.75,0.74511
6686.96,0.74733
6681.17,0.75224
6675.39,0.75216
6669.6,0.75085
6663.82,0.75530
6658.03,0.75592
6652.24,0.76236
6646.46,0.76257
6640.67,0.76244
6634.88,0.76179
6629.1,0.76179
6623.31,0.76043
6617.53,0.76542
6611.74,0.76006
6605.95,0.76703
6600.17,0.76611
6594.38,0.76885
6588.59,0.76669
6582.81,0.77089
6577.02,0.77040
6571.24,0.76862
6565.45,0.77048
6559.66,0.77653
6553.88,0.77498
6548.09,0.77132
6542.3,0.77532
6536.52,0.77806
6530.73,0.77422
6524.95,0.77705
6519.16,0.77969
6513.37,0.77958
6507.59,0.78482
6501.8,0.78345
6496.01,0.78734
6490.23,0.79035
6484.44,0.79647
6478.66,0.79045
6472.87,0.79328
6467.08,0.79028
6461.3,0.79101
6455.51,0.79019
6449.72,0.79408
6443.94,0.79567
6438.15,0.79443
6432.37,0.79308
6426.58,0.79341
6420.79,0.79634
6415.01,0.79570
6409.22,0.79563
6403.43,0.79407
6397.65,0.79256
6391.86,0.79247
6386.08,0.79121
6380.29,0.78746
6374.5,0.78269
6368.72,0.77925
6362.93,0.77678
6357.14,0.77832
6351.36,0.77939
6345.57,0.77580
6339.79,0.78016
6334,0.77781
6328.21,0.77533
6322.43,0.77210
6316.64,0.77118
6310.85,0.76611
6305.07,0.76193
6299.28,0.76268
6293.5,0.75880
6287.71,0.76085
6281.92,0.75558
6276.14,0.75783
6270.35,0.75726
6264.56,0.75334
6258.78,0.74544
6252.99,0.74343
6247.21,0.73847
6241.42,0.73285
6235.63,0.72911
6229.85,0.72002
6224.06,0.71349
6218.27,0.70655
6212.49,0.70003
6206.7,0.69713
6200.92,0.68488
6195.13,0.67609
6189.34,0.66570
6183.56,0.65164
6177.77,0.64048
6171.98,0.61931
6166.2,0.59862
6160.41,0.57869
6154.63,0.55265
6148.84,0.53261
6143.05,0.50698
6137.27,0.49593
6131.48,0.48228
6125.7,0.46629
6119.91,0.44729
6114.12,0.42750
6108.34,0.42735
6102.55,0.42960
6096.76,0.43813
6090.98,0.43731
6085.19,0.42685
6079.41,0.42019
6073.62,0.41914
6067.83,0.43044
6062.05,0.45282
6056.26,0.47322
6050.47,0.47281
6044.69,0.46256
6038.9,0.44300
6033.12,0.41737
6027.33,0.38761
6021.54,0.35436
6015.76,0.32818
6009.97,0.30273
6004.18,0.27994
5998.4,0.25995
5992.61,0.24542
5986.83,0.23010
5981.04,0.21582
5975.25,0.20200
5969.47,0.19651
5963.68,0.19129
5957.89,0.19150
5952.11,0.19161
5946.32,0.18988
5940.54,0.19164
5934.75,0.19535
5928.96,0.19921
5923.18,0.20504
5917.39,0.20856
5911.6,0.21304
5905.82,0.21579
5900.03,0.22184
5894.25,0.22933
5888.46,0.23572
5882.67,0.25077
5876.89,0.26534
5871.1,0.27724
5865.31,0.28446
5859.53,0.29108
5853.74,0.29220
5847.96,0.29126
5842.17,0.29260
5836.38,0.29370
5830.6,0.29547
5824.81,0.29855
5819.02,0.29613
5813.24,0.29674
5807.45,0.29787
5801.67,0.29731
5795.88,0.29529
5790.09,0.29955
5784.31,0.30216
5778.52,0.31234
5772.73,0.32587
5766.95,0.34228
5761.16,0.35919
5755.38,0.37235
5749.59,0.38490
5743.8,0.39282
5738.02,0.39745
5732.23,0.39826
5726.44,0.38985
5720.66,0.37727
5714.87,0.36161
5709.09,0.34893
5703.3,0.34205
5697.51,0.33772
5691.73,0.33315
5685.94,0.32900
5680.15,0.32513
5674.37,0.31841
5668.58,0.31581
5662.8,0.31749
5657.01,0.32348
5651.22,0.33075
5645.44,0.34509
5639.65,0.35428
5633.87,0.36154
5628.08,0.36895
5622.29,0.37484
5616.51,0.37907
5610.72,0.37835
5604.93,0.37783
5599.15,0.37807
5593.36,0.37633
5587.58,0.37236
5581.79,0.37303
5576,0.37905
5570.22,0.38380
5564.43,0.38556
5558.64,0.38647
5552.86,0.38697
5547.07,0.38850
5541.29,0.38581
5535.5,0.38428
5529.71,0.38587
5523.93,0.38646
5518.14,0.38780
5512.35,0.38855
5506.57,0.39066
5500.78,0.39288
5495,0.39759
5489.21,0.40244
5483.42,0.40904
5477.64,0.40971
5471.85,0.41114
5466.06,0.41182
5460.28,0.41300
5454.49,0.41211
5448.71,0.41076
5442.92,0.41048
5437.13,0.40993
5431.35,0.40845
5425.56,0.40811
5419.77,0.40785
5413.99,0.40542
5408.2,0.40426
5402.42,0.40393
5396.63,0.40320
5390.84,0.40160
5385.06,0.40151
5379.27,0.40094
5373.48,0.40027
5367.7,0.40299
5361.91,0.40431
5356.13,0.40687
5350.34,0.41178
5344.55,0.41588
5338.77,0.41836
5332.98,0.42357
5327.19,0.42444
5321.41,0.42677
5315.62,0.43128
5309.84,0.43229
5304.05,0.43054
5298.26,0.43330
5292.48,0.43247
5286.69,0.43184
5280.9,0.43530
5275.12,0.43544
5269.33,0.43553
5263.55,0.43534
5257.76,0.43492
5251.97,0.43468
5246.19,0.43453
5240.4,0.43326
5234.61,0.43403
5228.83,0.43403
5223.04,0.43520
5217.26,0.43809
5211.47,0.44111
5205.68,0.44397
5199.9,0.44239
5194.11,0.44485
5188.32,0.44673
5182.54,0.44888
5176.75,0.44711
5170.97,0.44680
5165.18,0.45029
5159.39,0.45038
5153.61,0.44963
5147.82,0.44882
5142.03,0.44612
5136.25,0.44582
5130.46,0.44333
5124.68,0.44386
5118.89,0.44403
5113.1,0.44533
5107.32,0.44563
5101.53,0.44797
5095.75,0.44791
5089.96,0.44990
5084.17,0.45122
5078.39,0.45137
5072.6,0.45102
5066.81,0.45089
5061.03,0.45161
5055.24,0.45007
5049.46,0.45084
5043.67,0.44976
5037.88,0.44889
5032.1,0.45003
5026.31,0.45124
5020.52,0.45166
5014.74,0.45225
5008.95,0.45229
5003.17,0.45139
4997.38,0.44823
4991.59,0.44516
4985.81,0.44121
4980.02,0.43847
4974.23,0.43860
4968.45,0.44023
4962.66,0.44145
4956.88,0.44255
4951.09,0.44231
4945.3,0.44141
4939.52,0.43977
4933.73,0.43915
4927.94,0.44096
4922.16,0.44203
4916.37,0.44140
4910.59,0.44035
4904.8,0.43983
4899.01,0.43935
4893.23,0.43765
4887.44,0.43516
4881.65,0.43212
4875.87,0.42801
4870.08,0.42570
4864.3,0.42470
4858.51,0.42417
4852.72,0.42105
4846.94,0.41818
4841.15,0.41289
4835.36,0.41051
4829.58,0.40910
4823.79,0.41017
4818.01,0.41253
4812.22,0.41316
4806.43,0.41347
4800.65,0.41290
4794.86,0.41082
4789.07,0.40723
4783.29,0.40270
4777.5,0.39422
4771.72,0.38338
4765.93,0.37249
4760.14,0.36790
4754.36,0.36728
4748.57,0.36698
4742.78,0.36157
4737,0.35523
4731.21,0.34539
4725.43,0.33235
4719.64,0.31345
4713.85,0.29550
4708.07,0.28333
4702.28,0.27630
4696.49,0.26615
4690.71,0.24879
4684.92,0.21974
4679.14,0.18108
4673.35,0.14920
4667.56,0.13052
4661.78,0.12813
4655.99,0.13597
4650.2,0.14961
4644.42,0.15754
4638.63,0.15313
4632.85,0.14156
4627.06,0.13164
4621.27,0.12991
4615.49,0.12866
4609.7,0.12443
4603.92,0.12633
4598.13,0.13994
4592.34,0.15734
4586.56,0.16645
4580.77,0.16427
4574.98,0.14672
4569.2,0.14296
4563.41,0.16442
4557.63,0.18569
4551.84,0.20263
4546.05,0.22031
4540.27,0.22958
4534.48,0.23039
4528.69,0.23335
4522.91,0.23580
4517.12,0.23494
4511.34,0.23250
4505.55,0.22791
4499.76,0.23040
4493.98,0.24230
4488.19,0.24536
4482.4,0.24382
4476.62,0.24721
4470.83,0.25457
4465.05,0.26051
4459.26,0.26401
4453.47,0.26056
4447.69,0.25072
4441.9,0.23995
4436.11,0.23814
4430.33,0.23957
4424.54,0.23586
4418.76,0.22726
4412.97,0.21954
4407.18,0.21148
4401.4,0.20318
4395.61,0.19457
4389.82,0.18465
4384.04,0.17451
4378.25,0.16508
4372.47,0.15665
4366.68,0.14764
4360.89,0.13843
4355.11,0.13145
4349.32,0.12776
4343.53,0.12286
4337.75,0.11919
4331.96,0.11733
4326.18,0.11832
4320.39,0.12328
4314.6,0.12965
4308.82,0.13550
4303.03,0.13717
4297.24,0.13520
4291.46,0.13224
4285.67,0.12833
4279.89,0.12326
4274.1,0.11850
4268.31,0.11314
4262.53,0.10785
4256.74,0.10469
4250.95,0.10263
4245.17,0.10239
4239.38,0.10376
4233.6,0.10569
4227.81,0.10673
4222.02,0.10715
4216.24,0.10706
4210.45,0.10678
4204.66,0.10707
4198.88,0.10942
4193.09,0.11260
4187.31,0.11473
4181.52,0.11577
4175.73,0.11861
4169.95,0.12036
4164.16,0.12188
4158.37,0.12308
4152.59,0.12293
4146.8,0.12303
4141.02,0.12191
4135.23,0.11952
4129.44,0.11666
4123.66,0.11459
4117.87,0.11292
4112.09,0.11106
4106.3,0.10913
4100.51,0.10768
4094.73,0.10520
4088.94,0.10243
4083.15,0.09848
4077.37,0.09340
4071.58,0.08909
4065.8,0.08400
4060.01,0.08183
4054.22,0.08054
4048.44,0.08145
4042.65,0.08153
4036.86,0.08051
4031.08,0.08173
4025.29,0.08687
4019.51,0.09337
4013.72,0.10246
4007.93,0.10740
4002.15,0.10675
3996.36,0.10870
3990.57,0.11561
3984.79,0.11885
3979,0.11831
3973.22,0.11856
3967.43,0.12010
3961.64,0.12126
3955.86,0.12264
3950.07,0.12371
3944.28,0.12178
3938.5,0.12045
3932.71,0.12025
3926.93,0.12107
3921.14,0.12191
3915.35,0.12341
3909.57,0.12493
3903.78,0.12493
3897.99,0.12517
3892.21,0.12632
3886.42,0.12773
3880.64,0.12823
3874.85,0.12787
3869.06,0.12803
3863.28,0.12737
3857.49,0.12888
3851.7,0.12813
3845.92,0.12641
3840.13,0.12523
3834.35,0.12316
3828.56,0.12149
3822.77,0.12034
3816.99,0.11916
3811.2,0.11861
3805.41,0.11906
3799.63,0.12013
3793.84,0.12220
3788.06,0.12557
3782.27,0.12768
3776.48,0.12809
3770.7,0.12733
3764.91,0.12676
3759.12,0.12765
3753.34,0.13091
3747.55,0.13350
3741.77,0.13349
3735.98,0.13261
3730.19,0.13044
3724.41,0.12444
3718.62,0.12308
3712.83,0.12688
3707.05,0.12446
3701.26,0.11841
3695.48,0.11891
3689.69,0.12167
3683.9,0.11951
3678.12,0.11617
3672.33,0.11653
3666.54,0.11624
3660.76,0.11303
3654.97,0.10473
3649.19,0.09848
3643.4,0.09940
3637.61,0.10952
3631.83,0.11712
3626.04,0.11407
3620.25,0.10964
3614.47,0.11812
3608.68,0.13131
3602.9,0.13617
3597.11,0.13733
3591.32,0.13683
3585.54,0.13907
3579.75,0.14131
3573.97,0.14623
3568.18,0.14939
3562.39,0.15023
3556.61,0.15024
3550.82,0.14981
3545.03,0.14911
3539.25,0.14723
3533.46,0.14657
3527.68,0.14534
3521.89,0.14361
3516.1,0.14265
3510.32,0.14078
3504.53,0.13974
3498.74,0.13873
3492.96,0.13629
3487.17,0.13419
3481.39,0.13162
3475.6,0.12983
3469.81,0.12848
3464.03,0.12735
3458.24,0.12779
3452.45,0.12558
3446.67,0.12374
3440.88,0.12079
3435.1,0.12302
3429.31,0.12863
3423.52,0.13197
3417.74,0.13386
3411.95,0.13489
3406.16,0.13532
3400.38,0.13535
3394.59,0.13610
3388.81,0.13567
3383.02,0.13540
3377.23,0.13791
3371.45,0.13986
3365.66,0.14093
3359.87,0.14153
3354.09,0.14032
3348.3,0.13898
3342.52,0.13738
3336.73,0.13635
3330.94,0.13426
3325.16,0.13265
3319.37,0.12984
3313.58,0.12530
3307.8,0.11623
3302.01,0.10622
3296.23,0.10663
3290.44,0.11254
3284.65,0.11731
3278.87,0.11959
3273.08,0.12093
3267.29,0.12025
3261.51,0.12014
3255.72,0.11961
3249.94,0.11798
3244.15,0.11751
3238.36,0.11551
3232.58,0.11444
3226.79,0.11271
3221,0.11041
3215.22,0.10743
3209.43,0.10352
3203.65,0.09923
3197.86,0.09732
3192.07,0.09710
3186.29,0.09615
3180.5,0.09500
3174.71,0.09157
3168.93,0.08659
3163.14,0.08083
3157.36,0.08196
3151.57,0.08423
3145.78,0.08395
3140,0.08289
3134.21,0.08103
3128.42,0.07831
3122.64,0.07623
3116.85,0.07253
3111.07,0.06862
3105.28,0.06631
3099.49,0.06611
3093.71,0.06591
3087.92,0.06500
3082.14,0.06458
3076.35,0.06462
3070.56,0.06481
3064.78,0.06461
3058.99,0.06512
3053.2,0.06575
3047.42,0.06619
3041.63,0.06486
3035.85,0.06366
3030.06,0.06361
3024.27,0.06649
3018.49,0.06781
3012.7,0.06760
3006.91,0.06774
3001.13,0.06677
2995.34,0.06698
2989.56,0.06756
2983.77,0.06716
2977.98,0.06608
2972.2,0.06643
2966.41,0.06591
2960.62,0.06511
2954.84,0.06443
2949.05,0.06366
2943.27,0.06369
2937.48,0.06283
2931.69,0.06285
2925.91,0.06580
2920.12,0.06759
2914.33,0.06813
2908.55,0.06870
2902.76,0.06880
2896.98,0.06875
2891.19,0.06868
2885.4,0.06789
2879.62,0.06836
2873.83,0.06804
2868.04,0.06757
2862.26,0.06707
2856.47,0.06741
2850.69,0.06825
2844.9,0.06874
2839.11,0.06951
2833.33,0.06932
2827.54,0.06921
2821.75,0.07005
2815.97,0.07020
2810.18,0.07073
2804.4,0.07122
2798.61,0.07107
2792.82,0.07199
2787.04,0.07258
2781.25,0.07276
2775.46,0.07328
2769.68,0.07458
2763.89,0.07519
2758.11,0.07578
2752.32,0.07558
2746.53,0.07631
2740.75,0.07583
2734.96,0.07537
2729.17,0.07484
2723.39,0.07480
2717.6,0.07487
2711.82,0.07438
2706.03,0.07471
2700.24,0.07498
2694.46,0.07437
2688.67,0.07413
2682.88,0.07416
2677.1,0.07408
2671.31,0.07437
2665.53,0.07465
2659.74,0.07435
2653.95,0.07445
2648.17,0.07445
2642.38,0.07404
2636.59,0.07316
2630.81,0.07215
2625.02,0.07370
2619.24,0.07483
2613.45,0.07458
2607.66,0.07367
2601.88,0.07297
2596.09,0.07383
2590.3,0.07542
2584.52,0.07430
2578.73,0.07451
2572.95,0.07580
2567.16,0.07609
2561.37,0.07621
2555.59,0.07542
2549.8,0.07539
2544.02,0.07505
2538.23,0.07559
2532.44,0.07559
2526.66,0.07593
2520.87,0.07525
2515.08,0.07487
2509.3,0.07445
2503.51,0.07514
2497.73,0.07561
2491.94,0.07620
2486.15,0.07658
2480.37,0.07700
2474.58,0.07850
2468.79,0.07963
2463.01,0.08043
2457.22,0.08035
2451.44,0.07997
2445.65,0.08024
2439.86,0.08068
2434.08,0.08071
2428.29,0.08142
2422.5,0.08153
2416.72,0.08184
2410.93,0.08150
2405.15,0.08024
2399.36,0.07943
2393.57,0.07892
2387.79,0.07897
2382,0.07832
2376.21,0.07823
2370.43,0.07755
2364.64,0.07611
2358.86,0.07478
2353.07,0.07547
2347.28,0.07480
2341.5,0.07233
2335.71,0.07116
2329.92,0.07384
2324.14,0.07642
2318.35,0.07564
2312.57,0.07292
2306.78,0.07426
2300.99,0.07694
2295.21,0.07689
2289.42,0.07723
2283.63,0.07875
2277.85,0.07961
2272.06,0.07934
2266.28,0.07818
2260.49,0.07717
2254.7,0.07675
2248.92,0.07711
2243.13,0.07869
2237.34,0.07963
2231.56,0.07991
2225.77,0.08005
2219.99,0.08075
2214.2,0.08072
2208.41,0.08077
2202.63,0.08172
2196.84,0.08185
2191.05,0.08067
2185.27,0.07983
2179.48,0.08114
2173.7,0.08295
2167.91,0.08322
2162.12,0.08381
2156.34,0.08362
2150.55,0.08366
2144.76,0.08410
2138.98,0.08474
2133.19,0.08554
2127.41,0.08587
2121.62,0.08588
2115.83,0.08593
2110.05,0.08627
2104.26,0.08677
2098.47,0.08729
2092.69,0.08800
2086.9,0.08766
2081.12,0.08763
2075.33,0.08654
2069.54,0.08536
2063.76,0.08527
2057.97,0.08553
2052.19,0.08494
2046.4,0.08440
2040.61,0.08371
2034.83,0.08215
2029.04,0.08140
2023.25,0.08140
2017.47,0.08070
2011.68,0.07874
2005.9,0.07721
2000.11,0.07642
1994.32,0.07406
1988.54,0.07101
1982.75,0.07012
1976.96,0.06993
1971.18,0.06845
1965.39,0.06685
1959.61,0.06610
1953.82,0.06627
1948.03,0.06612
1942.25,0.06615
1936.46,0.06637
1930.67,0.06721
1924.89,0.06820
1919.1,0.06857
1913.32,0.07015
1907.53,0.06962
1901.74,0.06860
1895.96,0.06744
1890.17,0.06655
1884.38,0.06622
1878.6,0.06639
1872.81,0.06588
1867.03,0.06637
1861.24,0.06664
1855.45,0.06748
1849.67,0.06842
1843.88,0.06895
1838.09,0.06908
1832.31,0.06812
1826.52,0.06678
1820.74,0.06583
1814.95,0.06559
1809.16,0.06530
1803.38,0.06564
1797.59,0.06567
1791.8,0.06606
1786.02,0.06703
1780.23,0.06707
1774.45,0.06687
1768.66,0.06688
1762.87,0.06647
1757.09,0.06565
1751.3,0.06513
1745.51,0.06502
1739.73,0.06549
1733.94,0.06575
1728.16,0.06616
1722.37,0.06675
1716.58,0.06697
1710.8,0.06683
1705.01,0.06638
1699.22,0.06619
1693.44,0.06622
1687.65,0.06533
1681.87,0.06547
1676.08,0.06504
1670.29,0.06489
1664.51,0.06504
1658.72,0.06534
1652.93,0.06574
1647.15,0.06570
1641.36,0.06521
1635.58,0.06510
1629.79,0.06558
1624,0.06498
1618.22,0.06459
1612.43,0.06356
1606.64,0.06271
1600.86,0.06463
1595.07,0.06586
1589.29,0.06529
1583.5,0.06511
1577.71,0.06554
1571.93,0.06589
1566.14,0.06557
1560.35,0.06578
1554.57,0.06490
1548.78,0.06426
1543,0.06430
1537.21,0.06415
1531.42,0.06407
1525.64,0.06432
1519.85,0.06356
1514.07,0.06313
1508.28,0.06250
1502.49,0.06052
1496.71,0.05871
1490.92,0.06782
1485.13,0.06779
1479.35,0.06564
1473.56,0.06460
1467.78,0.06335
1461.99,0.06176
1456.2,0.05972
1450.42,0.06793
1444.63,0.06898
1438.84,0.06839
1433.06,0.06793
1427.27,0.06694
1421.49,0.06665
1415.7,0.06620
1409.91,0.06606
1404.13,0.06560
1398.34,0.06541
1392.55,0.06469
1386.77,0.06414
1380.98,0.06408
1375.2,0.06411
1369.41,0.06476
1363.62,0.06472
1357.84,0.06502
1352.05,0.06490
1346.26,0.06510
1340.48,0.06496
1334.69,0.06442
1328.91,0.06409
1323.12,0.06464
1317.33,0.06452
1311.55,0.06480
1305.76,0.06464
1299.97,0.06502
1294.19,0.06501
1288.4,0.06503
1282.62,0.06496
1276.83,0.06542
1271.04,0.06506
1265.26,0.06567
1259.47,0.06575
1253.68,0.06541
1247.9,0.06522
1242.11,0.06437
1236.33,0.06430
1230.54,0.06465
1224.75,0.06494
1218.97,0.06447
1213.18,0.06429
1207.39,0.06413
1201.61,0.06391
1195.82,0.06411
1190.04,0.06412
1184.25,0.06363
1178.46,0.06473
1172.68,0.06467
1166.89,0.06468
1161.1,0.06424
1155.32,0.06446
1149.53,0.06585
1143.75,0.06592
1137.96,0.06541
1132.17,0.06534
1126.39,0.06515
1120.6,0.06484
1114.81,0.06427
1109.03,0.06437
1103.24,0.06433
1097.46,0.06433
1091.67,0.06412
1085.88,0.06313
1080.1,0.06235
1074.31,0.06251
1068.52,0.06420
1062.74,0.06417
1056.95,0.06428
1051.17,0.06411
1045.38,0.06414
1039.59,0.06366
1033.81,0.06326
1028.02,0.06510
1022.24,0.06707
1016.45,0.06718
1010.66,0.06557
1004.88,0.06433
999.09,0.06467
993.304,0.06398
987.518,0.06345
981.731,0.06371
975.945,0.06347
970.159,0.06336
964.373,0.06305
958.586,0.06348
952.8,0.06318
947.014,0.06272
941.228,0.06282
935.441,0.06281
929.655,0.06286
923.869,0.06316
918.083,0.06214
912.297,0.06134
906.51,0.06250
900.724,0.06398
894.938,0.06368
889.152,0.06314
883.365,0.06266
877.579,0.06244
871.793,0.06241
866.007,0.06239
860.22,0.06182
854.434,0.06194
848.648,0.06043
842.862,0.06161
837.075,0.06171
831.289,0.06118
825.503,0.05963
819.717,0.06055
813.931,0.05998
808.144,0.05928
802.358,0.05896
796.572,0.05771
790.786,0.05620
784.999,0.05544
779.213,0.05248
773.427,0.05257
767.641,0.05305
761.854,0.05696
756.068,0.06095
750.282,0.06397
744.496,0.06677
738.709,0.06530
732.923,0.06262
727.137,0.05931
721.351,0.05379
715.565,0.04967
709.778,0.04069
703.992,0.04822
698.206,0.11480
692.42,0.11269
686.633,0.08723
680.847,0.07901
675.061,0.07591
669.275,0.07460
663.488,0.07314
657.702,0.07210
651.916,0.07100
646.13,0.07074
640.343,0.06940
634.557,0.06768
628.771,0.06727
622.985,0.06650
617.198,0.06834
611.412,0.06759
605.626,0.06863
599.84,0.06616