File: 01_Data/HIPS/FTIR/IS/HIPS_IS_T_220901_R4.dpt
7497.03,0.02567
7491.25,0.02691
7485.46,0.02983
7479.67,0.02262
7473.89,0.02334
7468.1,0.01943
7462.32,0.02475
7456.53,0.02459
7450.74,0.02339
7444.96,0.02187
7439.17,0.02722
7433.38,0.02009
7427.6,0.02548
7421.81,0.02048
7416.03,0.02433
7410.24,0.02822
7404.45,0.02022
7398.67,0.02631
7392.88,0.02540
7387.09,0.03155
7381.31,0.02912
7375.52,0.02075
7369.74,0.02703
7363.95,0.02608
7358.16,0.01631
7352.38,0.02704
7346.59,0.02498
7340.8,0.02170
7335.02,0.02799
7329.23,0.02303
7323.45,0.03011
7317.66,0.02041
7311.87,0.02391
7306.09,0.02281
7300.3,0.02795
7294.51,0.02464
7288.73,0.01842
7282.94,0.02397
7277.16,0.02826
7271.37,0.02681
7265.58,0.02367
7259.8,0.02379
7254.01,0.02706
7248.22,0.02453
7242.44,0.01914
7236.65,0.02529
7230.87,0.02794
7225.08,0.01880
7219.29,0.02628
7213.51,0.02601
7207.72,0.02207
7201.93,0.02066
7196.15,0.02323
7190.36,0.02404
7184.58,0.02367
7178.79,0.01887
7173,0.03312
7167.22,0.02472
7161.43,0.02728
7155.65,0.02790
7149.86,0.02253
7144.07,0.01843
7138.29,0.03236
7132.5,0.02242
7126.71,0.02370
7120.93,0.02583
7115.14,0.02411
7109.36,0.02082
7103.57,0.01663
7097.78,0.02335
7092,0.02663
7086.21,0.02333
7080.42,0.02093
7074.64,0.03096
7068.85,0.02918
7063.07,0.01839
7057.28,0.02934
7051.49,0.02347
7045.71,0.02542
7039.92,0.02475
7034.13,0.02340
7028.35,0.02023
7022.56,0.02258
7016.78,0.02925
7010.99,0.01696
7005.2,0.02380
6999.42,0.02391
6993.63,0.02589
6987.84,0.02012
6982.06,0.02529
6976.27,0.02548
6970.49,0.02115
6964.7,0.02501
6958.91,0.02353
6953.13,0.02260
6947.34,0.02017
6941.55,0.02978
6935.77,0.02139
6929.98,0.02373
6924.2,0.02089
6918.41,0.02548
6912.62,0.02385
6906.84,0.02384
6901.05,0.02320
6895.26,0.02084
6889.48,0.02354
6883.69,0.02807
6877.91,0.02064
6872.12,0.02084
6866.33,0.02068
6860.55,0.02263
6854.76,0.02264
6848.97,0.02339
6843.19,0.02247
6837.4,0.02288
6831.62,0.02508
6825.83,0.02646
6820.04,0.02236
6814.26,0.02181
6808.47,0.01860
6802.68,0.02134
6796.9,0.02161
6791.11,0.01722
6785.33,0.01621
6779.54,0.02063
6773.75,0.02708
6767.97,0.02592
6762.18,0.02526
6756.39,0.02577
6750.61,0.02196
6744.82,0.02275
6739.04,0.02150
6733.25,0.03092
6727.46,0.02425
6721.68,0.02283
6715.89,0.02148
6710.1,0.01836
6704.32,0.02225
6698.53,0.02232
6692.75,0.02090
6686.96,0.02393
6681.17,0.02377
6675.39,0.02543
6669.6,0.02699
6663.82,0.02362
6658.03,0.02299
6652.24,0.02172
6646.46,0.02705
6640.67,0.02191
6634.88,0.02024
6629.1,0.02305
6623.31,0.02013
6617.53,0.02561
6611.74,0.02229
6605.95,0.02466
6600.17,0.02691
6594.38,0.02306
6588.59,0.01970
6582.81,0.02360
6577.02,0.02011
6571.24,0.01843
6565.45,0.02546
6559.66,0.02444
6553.88,0.02291
6548.09,0.02337
6542.3,0.02439
6536.52,0.01939
6530.73,0.02389
6524.95,0.02586
6519.16,0.01931
6513.37,0.02589
6507.59,0.02369
6501.8,0.02072
6496.01,0.02474
6490.23,0.02511
6484.44,0.02392
6478.66,0.02571
6472.87,0.02500
6467.08,0.02556
6461.3,0.02208
6455.51,0.02471
6449.72,0.02277
6443.94,0.02441
6438.15,0.02033
6432.37,0.02286
6426.58,0.02255
6420.79,0.02150
6415.01,0.01900
6409.22,0.01794
6403.43,0.02227
6397.65,0.02153
6391.86,0.02362
6386.08,0.02382
6380.29,0.01951
6374.5,0.02011
6368.72,0.02334
6362.93,0.02202
6357.14,0.02285
6351.36,0.02415
6345.57,0.02228
6339.79,0.02607
6334,0.02351
6328.21,0.02186
6322.43,0.01929
6316.64,0.02219
6310.85,0.02273
6305.07,0.02457
6299.28,0.02343
6293.5,0.02140
6287.71,0.02602
6281.92,0.02329
6276.14,0.02253
6270.35,0.01938
6264.56,0.02083
6258.78,0.01883
6252.99,0.02091
6247.21,0.02098
6241.42,0.02122
6235.63,0.01902
6229.85,0.02051
6224.06,0.01887
6218.27,0.02142
6212.49,0.02180
6206.7,0.02394
6200.92,0.02454
6195.13,0.02182
6189.34,0.02105
6183.56,0.02132
6177.77,0.02098
6171.98,0.02503
6166.2,0.02025
6160.41,0.02488
6154.63,0.02479
6148.84,0.02255
6143.05,0.02150
6137.27,0.02284
6131.48,0.02231
6125.7,0.02124
6119.91,0.02160
6114.12,0.02326
6108.34,0.02256
6102.55,0.02307
6096.76,0.02075
6090.98,0.02226
6085.19,0.02419
6079.41,0.02011
6073.62,0.02232
6067.83,0.02156
6062.05,0.02072
6056.26,0.02042
6050.47,0.02269
6044.69,0.02242
6038.9,0.02209
6033.12,0.02311
6027.33,0.02027
6021.54,0.02290
6015.76,0.01939
6009.97,0.01964
6004.18,0.02306
5998.4,0.01859
5992.61,0.02156
5986.83,0.02306
5981.04,0.02184
5975.25,0.02032
5969.47,0.02250
5963.68,0.02341
5957.89,0.02293
5952.11,0.02185
5946.32,0.02164
5940.54,0.02264
5934.75,0.02172
5928.96,0.01941
5923.18,0.02051
5917.39,0.02096
5911.6,0.01936
5905.82,0.02035
5900.03,0.02041
5894.25,0.02095
5888.46,0.02284
5882.67,0.02161
5876.89,0.02221
5871.1,0.02339
5865.31,0.01951
5859.53,0.02156
5853.74,0.02361
5847.96,0.02124
5842.17,0.02310
5836.38,0.02151
5830.6,0.02106
5824.81,0.02184
5819.02,0.02082
5813.24,0.02124
5807.45,0.01876
5801.67,0.02009
5795.88,0.01906
5790.09,0.02089
5784.31,0.02105
5778.52,0.02117
5772.73,0.02299
5766.95,0.02165
5761.16,0.02023
5755.38,0.02452
5749.59,0.02357
5743.8,0.02084
5738.02,0.02146
5732.23,0.02098
5726.44,0.02193
5720.66,0.02131
5714.87,0.02235
5709.09,0.02264
5703.3,0.02422
5697.51,0.02193
5691.73,0.02122
5685.94,0.02170
5680.15,0.02053
5674.37,0.02101
5668.58,0.02262
5662.8,0.02244
5657.01,0.02222
5651.22,0.02087
5645.44,0.02095
5639.65,0.02213
5633.87,0.02118
5628.08,0.02011
5622.29,0.02236
5616.51,0.02089
5610.72,0.02019
5604.93,0.02249
5599.15,0.02381
5593.36,0.02084
5587.58,0.02146
5581.79,0.02214
5576,0.02322
5570.22,0.02334
5564.43,0.02085
5558.64,0.02187
5552.86,0.02240
5547.07,0.02408
5541.29,0.02141
5535.5,0.02248
5529.71,0.02193
5523.93,0.02227
5518.14,0.02199
5512.35,0.02217
5506.57,0.02175
5500.78,0.02230
5495,0.02179
5489.21,0.02280
5483.42,0.02044
5477.64,0.02246
5471.85,0.02224
5466.06,0.02267
5460.28,0.02254
5454.49,0.02124
5448.71,0.02301
5442.92,0.02168
5437.13,0.02175
5431.35,0.02297
5425.56,0.02223
5419.77,0.02236
5413.99,0.02269
5408.2,0.02071
5402.42,0.02309
5396.63,0.02204
5390.84,0.02177
5385.06,0.02094
5379.27,0.02095
5373.48,0.02244
5367.7,0.02097
5361.91,0.02098
5356.13,0.02003
5350.34,0.02068
5344.55,0.02187
5338.77,0.02251
5332.98,0.02277
5327.19,0.02360
5321.41,0.02237
5315.62,0.02164
5309.84,0.02205
5304.05,0.02105
5298.26,0.02305
5292.48,0.02448
5286.69,0.02090
5280.9,0.02209
5275.12,0.02269
5269.33,0.02222
5263.55,0.02131
5257.76,0.02179
5251.97,0.02212
5246.19,0.02135
5240.4,0.02164
5234.61,0.02201
5228.83,0.02328
5223.04,0.02233
5217.26,0.02231
5211.47,0.02184
5205.68,0.02372
5199.9,0.02237
5194.11,0.02283
5188.32,0.02246
5182.54,0.02314
5176.75,0.02048
5170.97,0.02335
5165.18,0.02288
5159.39,0.02238
5153.61,0.02133
5147.82,0.02189
5142.03,0.02260
5136.25,0.02205
5130.46,0.02259
5124.68,0.02135
5118.89,0.02157
5113.1,0.02168
5107.32,0.02228
5101.53,0.02258
5095.75,0.02002
5089.96,0.02184
5084.17,0.02128
5078.39,0.02202
5072.6,0.02279
5066.81,0.02308
5061.03,0.02258
5055.24,0.02213
5049.46,0.02215
5043.67,0.02271
5037.88,0.02246
5032.1,0.02136
5026.31,0.02226
5020.52,0.02207
5014.74,0.02244
5008.95,0.02105
5003.17,0.02267
4997.38,0.02180
4991.59,0.02161
4985.81,0.02346
4980.02,0.02210
4974.23,0.02219
4968.45,0.02183
4962.66,0.02205
4956.88,0.02300
4951.09,0.02306
4945.3,0.02231
4939.52,0.02213
4933.73,0.02188
4927.94,0.02237
4922.16,0.02325
4916.37,0.02348
4910.59,0.02238
4904.8,0.02168
4899.01,0.02294
4893.23,0.02227
4887.44,0.02286
4881.65,0.02193
4875.87,0.02142
4870.08,0.02201
4864.3,0.02165
4858.51,0.02362
4852.72,0.02226
4846.94,0.02304
4841.15,0.02260
4835.36,0.02233
4829.58,0.02272
4823.79,0.02302
4818.01,0.02248
4812.22,0.02089
4806.43,0.02177
4800.65,0.02257
4794.86,0.02214
4789.07,0.02294
4783.29,0.02277
4777.5,0.02268
4771.72,0.02282
4765.93,0.02251
4760.14,0.02298
4754.36,0.02319
4748.57,0.02215
4742.78,0.02294
4737,0.02224
4731.21,0.02244
4725.43,0.02280
4719.64,0.02180
4713.85,0.02199
4708.07,0.02173
4702.28,0.02180
4696.49,0.02269
4690.71,0.02278
4684.92,0.02252
4679.14,0.02298
4673.35,0.02233
4667.56,0.02283
4661.78,0.02214
4655.99,0.02242
4650.2,0.02304
4644.42,0.02214
4638.63,0.02288
4632.85,0.02173
4627.06,0.02254
4621.27,0.02225
4615.49,0.02268
4609.7,0.02262
4603.92,0.02194
4598.13,0.02280
4592.34,0.02219
4586.56,0.02178
4580.77,0.02229
4574.98,0.02230
4569.2,0.02219
4563.41,0.02285
4557.63,0.02188
4551.84,0.02201
4546.05,0.02333
4540.27,0.02215
4534.48,0.02262
4528.69,0.02269
4522.91,0.02258
4517.12,0.02211
4511.34,0.02220
4505.55,0.02208
4499.76,0.02183
4493.98,0.02216
4488.19,0.02299
4482.4,0.02204
4476.62,0.02241
4470.83,0.02234
4465.05,0.02267
4459.26,0.02257
4453.47,0.02313
4447.69,0.02229
4441.9,0.02238
4436.11,0.02245
4430.33,0.02240
4424.54,0.02297
4418.76,0.02260
4412.97,0.02226
4407.18,0.02268
4401.4,0.02227
4395.61,0.02213
4389.82,0.02249
4384.04,0.02192
4378.25,0.02214
4372.47,0.02252
4366.68,0.02272
4360.89,0.02239
4355.11,0.02246
4349.32,0.02221
4343.53,0.02226
4337.75,0.02222
4331.96,0.02248
4326.18,0.02297
4320.39,0.02239
4314.6,0.02256
4308.82,0.02198
4303.03,0.02206
4297.24,0.02262
4291.46,0.02180
4285.67,0.02280
4279.89,0.02174
4274.1,0.02306
4268.31,0.02280
4262.53,0.02291
4256.74,0.02277
4250.95,0.02201
4245.17,0.02246
4239.38,0.02278
4233.6,0.02236
4227.81,0.02325
4222.02,0.02236
4216.24,0.02269
4210.45,0.02254
4204.66,0.02266
4198.88,0.02274
4193.09,0.02271
4187.31,0.02270
4181.52,0.02367
4175.73,0.02336
4169.95,0.02264
4164.16,0.02280
4158.37,0.02319
4152.59,0.02251
4146.8,0.02221
4141.02,0.02290
4135.23,0.02245
4129.44,0.02254
4123.66,0.02253
4117.87,0.02247
4112.09,0.02264
4106.3,0.02324
4100.51,0.02238
4094.73,0.02268
4088.94,0.02219
4083.15,0.02253
4077.37,0.02275
4071.58,0.02302
4065.8,0.02295
4060.01,0.02171
4054.22,0.02264
4048.44,0.02185
4042.65,0.02284
4036.86,0.02309
4031.08,0.02289
4025.29,0.02343
4019.51,0.02259
4013.72,0.02200
4007.93,0.02258
4002.15,0.02265
3996.36,0.02257
3990.57,0.02219
3984.79,0.02282
3979,0.02239
3973.22,0.02218
3967.43,0.02244
3961.64,0.02237
3955.86,0.02257
3950.07,0.02322
3944.28,0.02277
3938.5,0.02305
3932.71,0.02298
3926.93,0.02288
3921.14,0.02304
3915.35,0.02236
3909.57,0.02208
3903.78,0.02265
3897.99,0.02258
3892.21,0.02226
3886.42,0.02261
3880.64,0.02287
3874.85,0.02287
3869.06,0.02269
3863.28,0.02235
3857.49,0.02293
3851.7,0.02220
3845.92,0.02315
3840.13,0.02287
3834.35,0.02236
3828.56,0.02299
3822.77,0.02267
3816.99,0.02341
3811.2,0.02307
3805.41,0.02235
3799.63,0.02295
3793.84,0.02273
3788.06,0.02279
3782.27,0.02244
3776.48,0.02288
3770.7,0.02245
3764.91,0.02262
3759.12,0.02210
3753.34,0.02254
3747.55,0.02208
3741.77,0.02209
3735.98,0.02297
3730.19,0.02235
3724.41,0.02315
3718.62,0.02285
3712.83,0.02228
3707.05,0.02210
3701.26,0.02242
3695.48,0.02247
3689.69,0.02240
3683.9,0.02244
3678.12,0.02231
3672.33,0.02196
3666.54,0.02249
3660.76,0.02229
3654.97,0.02255
3649.19,0.02288
3643.4,0.02205
3637.61,0.02213
3631.83,0.02206
3626.04,0.02172
3620.25,0.02153
3614.47,0.02205
3608.68,0.02193
3602.9,0.02144
3597.11,0.02214
3591.32,0.02185
3585.54,0.02200
3579.75,0.02176
3573.97,0.02242
3568.18,0.02195
3562.39,0.02099
3556.61,0.02210
3550.82,0.02192
3545.03,0.02178
3539.25,0.02159
3533.46,0.02171
3527.68,0.02132
3521.89,0.02093
3516.1,0.02105
3510.32,0.02113
3504.53,0.02161
3498.74,0.02167
3492.96,0.02059
3487.17,0.02177
3481.39,0.02080
3475.6,0.02055
3469.81,0.02110
3464.03,0.02053
3458.24,0.02141
3452.45,0.02114
3446.67,0.02134
3440.88,0.02078
3435.1,0.01995
3429.31,0.02043
3423.52,0.02072
3417.74,0.02027
3411.95,0.02066
3406.16,0.02024
3400.38,0.02081
3394.59,0.02080
3388.81,0.02073
3383.02,0.02092
3377.23,0.02103
3371.45,0.02063
3365.66,0.02011
3359.87,0.02061
3354.09,0.02072
3348.3,0.02051
3342.52,0.02047
3336.73,0.02004
3330.94,0.02007
3325.16,0.02031
3319.37,0.02066
3313.58,0.01989
3307.8,0.02036
3302.01,0.02031
3296.23,0.01991
3290.44,0.02086
3284.65,0.02071
3278.87,0.02055
3273.08,0.02080
3267.29,0.02029
3261.51,0.02132
3255.72,0.02082
3249.94,0.02121
3244.15,0.02124
3238.36,0.02071
3232.58,0.02097
3226.79,0.02010
3221,0.02048
3215.22,0.02058
3209.43,0.02082
3203.65,0.02069
3197.86,0.02054
3192.07,0.02114
3186.29,0.02140
3180.5,0.02040
3174.71,0.02117
3168.93,0.02085
3163.14,0.02128
3157.36,0.02153
3151.57,0.02115
3145.78,0.02104
3140,0.02136
3134.21,0.02112
3128.42,0.02051
3122.64,0.02147
3116.85,0.02119
3111.07,0.02076
3105.28,0.02102
3099.49,0.02038
3093.71,0.02072
3087.92,0.02130
3082.14,0.02090
3076.35,0.02100
3070.56,0.02055
3064.78,0.02072
3058.99,0.02017
3053.2,0.02121
3047.42,0.02072
3041.63,0.02055
3035.85,0.02084
3030.06,0.02061
3024.27,0.02051
3018.49,0.02081
3012.7,0.02056
3006.91,0.02034
3001.13,0.02054
2995.34,0.01988
2989.56,0.02037
2983.77,0.02061
2977.98,0.02038
2972.2,0.01991
2966.41,0.01928
2960.62,0.01936
2954.84,0.01949
2949.05,0.01972
2943.27,0.01996
2937.48,0.01975
2931.69,0.01990
2925.91,0.02027
2920.12,0.02034
2914.33,0.02051
2908.55,0.02059
2902.76,0.02090
2896.98,0.01999
2891.19,0.02073
2885.4,0.02070
2879.62,0.02048
2873.83,0.02090
2868.04,0.02077
2862.26,0.01981
2856.47,0.02026
2850.69,0.02068
2844.9,0.02111
2839.11,0.02093
2833.33,0.02152
2827.54,0.02170
2821.75,0.02142
2815.97,0.02160
2810.18,0.02133
2804.4,0.02119
2798.61,0.02100
2792.82,0.02127
2787.04,0.02133
2781.25,0.02147
2775.46,0.02123
2769.68,0.02153
2763.89,0.02143
2758.11,0.02125
2752.32,0.02179
2746.53,0.02162
2740.75,0.02100
2734.96,0.02133
2729.17,0.02134
2723.39,0.02157
2717.6,0.02135
2711.82,0.02126
2706.03,0.02070
2700.24,0.02127
2694.46,0.02175
2688.67,0.02124
2682.88,0.02168
2677.1,0.02176
2671.31,0.02091
2665.53,0.02111
2659.74,0.02176
2653.95,0.02154
2648.17,0.02192
2642.38,0.02200
2636.59,0.02165
2630.81,0.02141
2625.02,0.02156
2619.24,0.02104
2613.45,0.02161
2607.66,0.02155
2601.88,0.02144
2596.09,0.02108
2590.3,0.02131
2584.52,0.02143
2578.73,0.02134
2572.95,0.02117
2567.16,0.02128
2561.37,0.02153
2555.59,0.02150
2549.8,0.02139
2544.02,0.02090
2538.23,0.02144
2532.44,0.02159
2526.66,0.02141
2520.87,0.02132
2515.08,0.02101
2509.3,0.02118
2503.51,0.02129
2497.73,0.02146
2491.94,0.02142
2486.15,0.02104
2480.37,0.02137
2474.58,0.02170
2468.79,0.02124
2463.01,0.02094
2457.22,0.02132
2451.44,0.02092
2445.65,0.02108
2439.86,0.02130
2434.08,0.02139
2428.29,0.02150
2422.5,0.02072
2416.72,0.02086
2410.93,0.02138
2405.15,0.02123
2399.36,0.02142
2393.57,0.02178
2387.79,0.02142
2382,0.02179
2376.21,0.02186
2370.43,0.02127
2364.64,0.02116
2358.86,0.02126
2353.07,0.02118
2347.28,0.02115
2341.5,0.02124
2335.71,0.02095
2329.92,0.02091
2324.14,0.02135
2318.35,0.02120
2312.57,0.02133
2306.78,0.02119
2300.99,0.02088
2295.21,0.02123
2289.42,0.02112
2283.63,0.02113
2277.85,0.02142
2272.06,0.02126
2266.28,0.02110
2260.49,0.02156
2254.7,0.02147
2248.92,0.02100
2243.13,0.02085
2237.34,0.02094
2231.56,0.02137
2225.77,0.02152
2219.99,0.02133
2214.2,0.02146
2208.41,0.02135
2202.63,0.02096
2196.84,0.02116
2191.05,0.02094
2185.27,0.02092
2179.48,0.02091
2173.7,0.02099
2167.91,0.02110
2162.12,0.02096
2156.34,0.02066
2150.55,0.02082
2144.76,0.02130
2138.98,0.02128
2133.19,0.02080
2127.41,0.02104
2121.62,0.02092
2115.83,0.02106
2110.05,0.02054
2104.26,0.02084
2098.47,0.02108
2092.69,0.02086
2086.9,0.02084
2081.12,0.02090
2075.33,0.02103
2069.54,0.02087
2063.76,0.02064
2057.97,0.02107
2052.19,0.02063
2046.4,0.02096
2040.61,0.02084
2034.83,0.02114
2029.04,0.02100
2023.25,0.02125
2017.47,0.02117
2011.68,0.02117
2005.9,0.02109
2000.11,0.02074
1994.32,0.02111
1988.54,0.02079
1982.75,0.02029
1976.96,0.02086
1971.18,0.02100
1965.39,0.02070
1959.61,0.02088
1953.82,0.02073
1948.03,0.02127
1942.25,0.02111
1936.46,0.02070
1930.67,0.02061
1924.89,0.02076
1919.1,0.02055
1913.32,0.02073
1907.53,0.02073
1901.74,0.02073
1895.96,0.02026
1890.17,0.02074
1884.38,0.02004
1878.6,0.02065
1872.81,0.02054
1867.03,0.02053
1861.24,0.02048
1855.45,0.02051
1849.67,0.02028
1843.88,0.02032
1838.09,0.02041
1832.31,0.02040
1826.52,0.02019
1820.74,0.02040
1814.95,0.01985
1809.16,0.01952
1803.38,0.02009
1797.59,0.01990
1791.8,0.01960
1786.02,0.01930
1780.23,0.01931
1774.45,0.01891
1768.66,0.01880
1762.87,0.01826
1757.09,0.01746
1751.3,0.01738
1745.51,0.01741
1739.73,0.01863
1733.94,0.01979
1728.16,0.02097
1722.37,0.02088
1716.58,0.02108
1710.8,0.02093
1705.01,0.02003
1699.22,0.02005
1693.44,0.01945
1687.65,0.01911
1681.87,0.01953
1676.08,0.01910
1670.29,0.01923
1664.51,0.01908
1658.72,0.01867
1652.93,0.01891
1647.15,0.01883
1641.36,0.01873
1635.58,0.01895
1629.79,0.01854
1624,0.01911
1618.22,0.01926
1612.43,0.01932
1606.64,0.01887
1600.86,0.01879
1595.07,0.01913
1589.29,0.01896
1583.5,0.01870
1577.71,0.01897
1571.93,0.01865
1566.14,0.01856
1560.35,0.01883
1554.57,0.01792
1548.78,0.01816
1543,0.01867
1537.21,0.01846
1531.42,0.01875
1525.64,0.01879
1519.85,0.01873
1514.07,0.01873
1508.28,0.01890
1502.49,0.01920
1496.71,0.01875
1490.92,0.01896
1485.13,0.01884
1479.35,0.01888
1473.56,0.01862
1467.78,0.01850
1461.99,0.01866
1456.2,0.01893
1450.42,0.01894
1444.63,0.01895
1438.84,0.01937
1433.06,0.01904
1427.27,0.01895
1421.49,0.01855
1415.7,0.01879
1409.91,0.01826
1404.13,0.01844
1398.34,0.01832
1392.55,0.01823
1386.77,0.01807
1380.98,0.01853
1375.2,0.01844
1369.41,0.01850
1363.62,0.01825
1357.84,0.01850
1352.05,0.01826
1346.26,0.01788
1340.48,0.01811
1334.69,0.01771
1328.91,0.01751
1323.12,0.01719
1317.33,0.01726
1311.55,0.01713
1305.76,0.01706
1299.97,0.01759
1294.19,0.01804
1288.4,0.01897
1282.62,0.01906
1276.83,0.01916
1271.04,0.01974
1265.26,0.01978
1259.47,0.01986
1253.68,0.02039
1247.9,0.02021
1242.11,0.02067
1236.33,0.01998
1230.54,0.01967
1224.75,0.02003
1218.97,0.01932
1213.18,0.01890
1207.39,0.01916
1201.61,0.01850
1195.82,0.01853
1190.04,0.01832
1184.25,0.01887
1178.46,0.01826
1172.68,0.01826
1166.89,0.01790
1161.1,0.01852
1155.32,0.01780
1149.53,0.01774
1143.75,0.01794
1137.96,0.01812
1132.17,0.01821
1126.39,0.01869
1120.6,0.01874
1114.81,0.01909
1109.03,0.01883
1103.24,0.01872
1097.46,0.01814
1091.67,0.01808
1085.88,0.01798
1080.1,0.01858
1074.31,0.01925
1068.52,0.02023
1062.74,0.02001
1056.95,0.01992
1051.17,0.02039
1045.38,0.01921
1039.59,0.02002
1033.81,0.01949
1028.02,0.01942
1022.24,0.01900
1016.45,0.01973
1010.66,0.02029
1004.88,0.02070
999.09,0.02077
993.304,0.02067
987.518,0.02132
981.731,0.02100
975.945,0.02043
970.159,0.02033
964.373,0.02065
958.586,0.02094
952.8,0.02007
947.014,0.02063
941.228,0.02002
935.441,0.01933
929.655,0.01976
923.869,0.01977
918.083,0.01915
912.297,0.01920
906.51,0.01980
900.724,0.01945
894.938,0.01938
889.152,0.01936
883.365,0.01930
877.579,0.01893
871.793,0.01886
866.007,0.01910
860.22,0.01894
854.434,0.01879
848.648,0.01932
842.862,0.01897
837.075,0.01923
831.289,0.01868
825.503,0.01861
819.717,0.01847
813.931,0.01919
808.144,0.01948
802.358,0.01948
796.572,0.01920
790.786,0.01959
784.999,0.01902
779.213,0.01760
773.427,0.01752
767.641,0.01874
761.854,0.01863
756.068,0.01892
750.282,0.01806
744.496,0.01839
738.709,0.01805
732.923,0.01898
727.137,0.01867
721.351,0.01868
715.565,0.01837
709.778,0.01779
703.992,0.01757
698.206,0.01808
692.42,0.01751
686.633,0.01790
680.847,0.01820
675.061,0.01857
669.275,0.01715
663.488,0.01695
657.702,0.01599
651.916,0.01654
646.13,0.01751
640.343,0.01570
634.557,0.01437
628.771,0.01699
622.985,0.01451
617.198,0.01549
611.412,0.01546
605.626,0.01789
599.84,0.01364