File: 01_Data/Excelsior/FTIR/IS/Excelsior_IS_S_221109_R7.dpt
7497.03,0.66781
7491.25,0.66047
7485.46,0.65708
7479.67,0.64887
7473.89,0.65719
7468.1,0.65675
7462.32,0.65829
7456.53,0.65079
7450.74,0.64763
7444.96,0.64346
7439.17,0.64416
7433.38,0.65290
7427.6,0.65252
7421.81,0.63938
7416.03,0.63125
7410.24,0.62926
7404.45,0.64041
7398.67,0.63018
7392.88,0.62776
7387.09,0.62160
7381.31,0.62637
7375.52,0.62830
7369.74,0.62610
7363.95,0.61381
7358.16,0.61423
7352.38,0.63227
7346.59,0.62449
7340.8,0.61930
7335.02,0.61346
7329.23,0.60559
7323.45,0.61258
7317.66,0.60725
7311.87,0.61443
7306.09,0.60494
7300.3,0.61133
7294.51,0.61476
7288.73,0.60406
7282.94,0.59763
7277.16,0.61920
7271.37,0.60342
7265.58,0.60165
7259.8,0.61054
7254.01,0.60324
7248.22,0.59896
7242.44,0.60416
7236.65,0.60195
7230.87,0.60850
7225.08,0.60454
7219.29,0.60498
7213.51,0.60405
7207.72,0.60313
7201.93,0.60461
7196.15,0.60609
7190.36,0.59546
7184.58,0.60136
7178.79,0.59985
7173,0.60023
7167.22,0.59910
7161.43,0.59217
7155.65,0.59767
7149.86,0.58838
7144.07,0.58052
7138.29,0.58316
7132.5,0.58502
7126.71,0.58383
7120.93,0.57886
7115.14,0.57275
7109.36,0.57476
7103.57,0.55964
7097.78,0.56032
7092,0.55106
7086.21,0.54644
7080.42,0.53837
7074.64,0.53203
7068.85,0.53062
7063.07,0.51890
7057.28,0.52247
7051.49,0.51865
7045.71,0.51044
7039.92,0.49797
7034.13,0.50131
7028.35,0.49090
7022.56,0.48369
7016.78,0.47591
7010.99,0.47307
7005.2,0.47536
6999.42,0.47213
6993.63,0.46810
6987.84,0.46802
6982.06,0.46701
6976.27,0.46292
6970.49,0.45802
6964.7,0.45488
6958.91,0.45213
6953.13,0.45894
6947.34,0.45912
6941.55,0.45413
6935.77,0.45589
6929.98,0.45059
6924.2,0.45169
6918.41,0.45744
6912.62,0.45374
6906.84,0.45423
6901.05,0.45762
6895.26,0.45457
6889.48,0.45183
6883.69,0.44884
6877.91,0.45616
6872.12,0.45040
6866.33,0.45013
6860.55,0.45582
6854.76,0.45358
6848.97,0.44819
6843.19,0.45548
6837.4,0.44664
6831.62,0.45208
6825.83,0.45082
6820.04,0.45324
6814.26,0.45095
6808.47,0.45139
6802.68,0.45430
6796.9,0.45650
6791.11,0.45374
6785.33,0.44487
6779.54,0.45109
6773.75,0.45125
6767.97,0.45214
6762.18,0.45281
6756.39,0.45021
6750.61,0.45270
6744.82,0.45031
6739.04,0.46059
6733.25,0.45237
6727.46,0.45383
6721.68,0.45394
6715.89,0.45671
6710.1,0.45846
6704.32,0.44958
6698.53,0.45726
6692.75,0.46189
6686.96,0.46000
6681.17,0.46086
6675.39,0.46181
6669.6,0.45902
6663.82,0.45548
6658.03,0.46335
6652.24,0.45752
6646.46,0.46057
6640.67,0.46369
6634.88,0.46421
6629.1,0.46117
6623.31,0.46813
6617.53,0.46973
6611.74,0.47106
6605.95,0.46909
6600.17,0.47113
6594.38,0.47402
6588.59,0.47623
6582.81,0.47505
6577.02,0.47895
6571.24,0.47965
6565.45,0.47707
6559.66,0.48446
6553.88,0.47759
6548.09,0.47798
6542.3,0.48101
6536.52,0.48026
6530.73,0.48092
6524.95,0.48689
6519.16,0.48374
6513.37,0.47939
6507.59,0.47945
6501.8,0.48225
6496.01,0.48239
6490.23,0.48754
6484.44,0.48618
6478.66,0.48056
6472.87,0.48845
6467.08,0.48153
6461.3,0.48504
6455.51,0.48521
6449.72,0.48367
6443.94,0.48540
6438.15,0.48622
6432.37,0.48867
6426.58,0.48654
6420.79,0.48645
6415.01,0.48735
6409.22,0.48563
6403.43,0.48995
6397.65,0.48806
6391.86,0.49216
6386.08,0.49162
6380.29,0.49432
6374.5,0.49200
6368.72,0.49676
6362.93,0.49295
6357.14,0.49264
6351.36,0.49429
6345.57,0.49507
6339.79,0.49485
6334,0.49416
6328.21,0.49676
6322.43,0.49828
6316.64,0.49706
6310.85,0.49538
6305.07,0.49526
6299.28,0.49372
6293.5,0.49591
6287.71,0.50559
6281.92,0.49891
6276.14,0.50294
6270.35,0.50594
6264.56,0.50658
6258.78,0.50677
6252.99,0.51197
6247.21,0.51090
6241.42,0.51388
6235.63,0.51830
6229.85,0.52159
6224.06,0.52184
6218.27,0.52256
6212.49,0.52426
6206.7,0.52772
6200.92,0.52855
6195.13,0.52711
6189.34,0.53156
6183.56,0.53289
6177.77,0.53255
6171.98,0.53750
6166.2,0.54006
6160.41,0.54255
6154.63,0.54209
6148.84,0.54202
6143.05,0.54617
6137.27,0.54546
6131.48,0.54502
6125.7,0.54805
6119.91,0.55068
6114.12,0.54766
6108.34,0.54814
6102.55,0.55127
6096.76,0.54993
6090.98,0.54999
6085.19,0.55159
6079.41,0.55169
6073.62,0.54918
6067.83,0.55054
6062.05,0.55012
6056.26,0.54759
6050.47,0.54467
6044.69,0.54266
6038.9,0.54192
6033.12,0.54673
6027.33,0.54258
6021.54,0.54211
6015.76,0.54165
6009.97,0.53812
6004.18,0.54065
5998.4,0.53911
5992.61,0.53710
5986.83,0.53717
5981.04,0.53673
5975.25,0.53406
5969.47,0.53283
5963.68,0.53341
5957.89,0.52729
5952.11,0.52895
5946.32,0.52762
5940.54,0.52456
5934.75,0.52867
5928.96,0.52823
5923.18,0.53000
5917.39,0.52832
5911.6,0.52391
5905.82,0.52235
5900.03,0.52237
5894.25,0.52059
5888.46,0.51850
5882.67,0.51763
5876.89,0.51454
5871.1,0.51478
5865.31,0.51558
5859.53,0.51403
5853.74,0.51281
5847.96,0.51065
5842.17,0.51132
5836.38,0.50881
5830.6,0.50867
5824.81,0.50496
5819.02,0.50501
5813.24,0.50156
5807.45,0.50451
5801.67,0.50098
5795.88,0.50167
5790.09,0.50415
5784.31,0.50327
5778.52,0.50661
5772.73,0.50657
5766.95,0.50681
5761.16,0.51122
5755.38,0.51233
5749.59,0.51432
5743.8,0.51446
5738.02,0.51703
5732.23,0.51703
5726.44,0.51431
5720.66,0.51631
5714.87,0.51886
5709.09,0.51815
5703.3,0.51923
5697.51,0.51606
5691.73,0.51474
5685.94,0.51668
5680.15,0.51728
5674.37,0.51568
5668.58,0.51276
5662.8,0.51456
5657.01,0.51375
5651.22,0.51512
5645.44,0.51271
5639.65,0.51513
5633.87,0.51624
5628.08,0.51332
5622.29,0.51525
5616.51,0.51507
5610.72,0.51444
5604.93,0.51427
5599.15,0.51465
5593.36,0.51389
5587.58,0.51603
5581.79,0.51566
5576,0.51665
5570.22,0.51661
5564.43,0.51809
5558.64,0.51975
5552.86,0.51705
5547.07,0.52072
5541.29,0.51944
5535.5,0.51979
5529.71,0.52049
5523.93,0.52191
5518.14,0.51950
5512.35,0.51918
5506.57,0.52349
5500.78,0.52177
5495,0.52199
5489.21,0.52221
5483.42,0.52273
5477.64,0.52299
5471.85,0.52391
5466.06,0.52569
5460.28,0.52558
5454.49,0.52452
5448.71,0.52748
5442.92,0.52959
5437.13,0.52991
5431.35,0.53140
5425.56,0.53249
5419.77,0.53353
5413.99,0.53798
5408.2,0.53727
5402.42,0.53995
5396.63,0.54012
5390.84,0.54106
5385.06,0.54103
5379.27,0.54099
5373.48,0.53975
5367.7,0.54002
5361.91,0.53932
5356.13,0.54041
5350.34,0.53841
5344.55,0.53988
5338.77,0.54096
5332.98,0.53765
5327.19,0.53731
5321.41,0.53483
5315.62,0.53143
5309.84,0.52810
5304.05,0.52427
5298.26,0.51807
5292.48,0.51272
5286.69,0.50713
5280.9,0.49788
5275.12,0.48937
5269.33,0.47893
5263.55,0.47247
5257.76,0.46247
5251.97,0.45231
5246.19,0.44632
5240.4,0.44017
5234.61,0.43443
5228.83,0.43052
5223.04,0.42608
5217.26,0.42363
5211.47,0.42111
5205.68,0.41953
5199.9,0.41880
5194.11,0.41804
5188.32,0.42093
5182.54,0.42286
5176.75,0.42371
5170.97,0.42569
5165.18,0.42721
5159.39,0.42981
5153.61,0.43163
5147.82,0.43519
5142.03,0.43834
5136.25,0.44133
5130.46,0.44476
5124.68,0.44613
5118.89,0.44896
5113.1,0.45153
5107.32,0.45436
5101.53,0.45733
5095.75,0.45960
5089.96,0.46182
5084.17,0.46430
5078.39,0.46799
5072.6,0.46909
5066.81,0.46996
5061.03,0.47271
5055.24,0.47460
5049.46,0.47733
5043.67,0.47738
5037.88,0.47830
5032.1,0.47898
5026.31,0.47898
5020.52,0.47915
5014.74,0.47847
5008.95,0.47953
5003.17,0.47663
4997.38,0.47648
4991.59,0.47393
4985.81,0.47132
4980.02,0.46733
4974.23,0.46502
4968.45,0.46019
4962.66,0.45506
4956.88,0.45138
4951.09,0.44540
4945.3,0.43938
4939.52,0.43400
4933.73,0.42739
4927.94,0.42074
4922.16,0.41556
4916.37,0.41079
4910.59,0.40355
4904.8,0.39874
4899.01,0.39373
4893.23,0.38930
4887.44,0.38455
4881.65,0.37921
4875.87,0.37413
4870.08,0.37083
4864.3,0.36582
4858.51,0.36179
4852.72,0.35934
4846.94,0.35602
4841.15,0.35175
4835.36,0.34882
4829.58,0.34720
4823.79,0.34399
4818.01,0.33972
4812.22,0.33783
4806.43,0.33783
4800.65,0.33690
4794.86,0.33494
4789.07,0.33388
4783.29,0.33289
4777.5,0.33284
4771.72,0.33144
4765.93,0.33133
4760.14,0.33191
4754.36,0.33076
4748.57,0.33094
4742.78,0.33104
4737,0.33243
4731.21,0.33339
4725.43,0.33420
4719.64,0.33535
4713.85,0.33706
4708.07,0.33707
4702.28,0.33836
4696.49,0.34024
4690.71,0.34075
4684.92,0.34124
4679.14,0.34444
4673.35,0.34554
4667.56,0.34797
4661.78,0.35053
4655.99,0.35334
4650.2,0.35636
4644.42,0.35810
4638.63,0.36082
4632.85,0.36347
4627.06,0.36560
4621.27,0.36722
4615.49,0.37027
4609.7,0.37152
4603.92,0.37358
4598.13,0.37573
4592.34,0.37630
4586.56,0.37867
4580.77,0.37949
4574.98,0.38156
4569.2,0.38269
4563.41,0.38394
4557.63,0.38619
4551.84,0.38656
4546.05,0.38825
4540.27,0.38916
4534.48,0.38949
4528.69,0.38968
4522.91,0.39131
4517.12,0.39075
4511.34,0.38983
4505.55,0.38805
4499.76,0.38591
4493.98,0.38353
4488.19,0.37854
4482.4,0.37320
4476.62,0.36726
4470.83,0.36091
4465.05,0.35316
4459.26,0.34631
4453.47,0.33888
4447.69,0.33140
4441.9,0.32530
4436.11,0.31813
4430.33,0.31305
4424.54,0.30874
4418.76,0.30412
4412.97,0.29955
4407.18,0.29757
4401.4,0.29632
4395.61,0.29672
4389.82,0.29672
4384.04,0.29852
4378.25,0.30099
4372.47,0.30359
4366.68,0.30724
4360.89,0.30840
4355.11,0.30711
4349.32,0.30596
4343.53,0.30520
4337.75,0.30309
4331.96,0.30092
4326.18,0.29998
4320.39,0.29734
4314.6,0.29567
4308.82,0.29481
4303.03,0.29286
4297.24,0.29127
4291.46,0.29005
4285.67,0.28970
4279.89,0.28865
4274.1,0.28942
4268.31,0.29011
4262.53,0.29099
4256.74,0.29089
4250.95,0.29215
4245.17,0.29320
4239.38,0.29316
4233.6,0.29424
4227.81,0.29541
4222.02,0.29543
4216.24,0.29678
4210.45,0.29781
4204.66,0.29785
4198.88,0.29890
4193.09,0.29893
4187.31,0.29891
4181.52,0.30093
4175.73,0.30191
4169.95,0.30253
4164.16,0.30371
4158.37,0.30379
4152.59,0.30324
4146.8,0.30262
4141.02,0.30142
4135.23,0.29918
4129.44,0.29657
4123.66,0.29383
4117.87,0.29016
4112.09,0.28719
4106.3,0.28313
4100.51,0.27942
4094.73,0.27465
4088.94,0.26935
4083.15,0.26617
4077.37,0.26177
4071.58,0.25695
4065.8,0.25258
4060.01,0.24820
4054.22,0.24434
4048.44,0.24075
4042.65,0.23635
4036.86,0.23419
4031.08,0.23176
4025.29,0.23047
4019.51,0.22926
4013.72,0.22977
4007.93,0.23050
4002.15,0.23277
3996.36,0.23377
3990.57,0.23448
3984.79,0.23591
3979,0.23737
3973.22,0.23867
3967.43,0.24017
3961.64,0.24315
3955.86,0.24594
3950.07,0.24802
3944.28,0.24981
3938.5,0.25268
3932.71,0.25486
3926.93,0.25699
3921.14,0.25969
3915.35,0.26215
3909.57,0.26428
3903.78,0.26658
3897.99,0.26927
3892.21,0.27080
3886.42,0.27257
3880.64,0.27508
3874.85,0.27642
3869.06,0.27839
3863.28,0.28149
3857.49,0.28476
3851.7,0.28721
3845.92,0.28937
3840.13,0.29184
3834.35,0.29428
3828.56,0.29444
3822.77,0.29620
3816.99,0.29629
3811.2,0.29712
3805.41,0.29772
3799.63,0.29716
3793.84,0.29754
3788.06,0.29758
3782.27,0.29720
3776.48,0.29703
3770.7,0.29582
3764.91,0.29499
3759.12,0.29433
3753.34,0.29281
3747.55,0.29102
3741.77,0.28846
3735.98,0.28663
3730.19,0.28126
3724.41,0.27835
3718.62,0.27372
3712.83,0.26865
3707.05,0.26090
3701.26,0.25222
3695.48,0.24354
3689.69,0.23294
3683.9,0.22026
3678.12,0.20755
3672.33,0.19201
3666.54,0.17609
3660.76,0.16271
3654.97,0.14947
3649.19,0.13694
3643.4,0.12613
3637.61,0.11681
3631.83,0.10849
3626.04,0.09978
3620.25,0.09201
3614.47,0.08546
3608.68,0.07859
3602.9,0.07228
3597.11,0.06717
3591.32,0.06225
3585.54,0.05834
3579.75,0.05473
3573.97,0.05140
3568.18,0.04973
3562.39,0.04706
3556.61,0.04539
3550.82,0.04306
3545.03,0.04130
3539.25,0.03993
3533.46,0.03885
3527.68,0.03752
3521.89,0.03676
3516.1,0.03570
3510.32,0.03491
3504.53,0.03404
3498.74,0.03281
3492.96,0.03264
3487.17,0.03288
3481.39,0.03200
3475.6,0.03167
3469.81,0.03118
3464.03,0.03113
3458.24,0.03063
3452.45,0.03021
3446.67,0.03033
3440.88,0.02966
3435.1,0.03031
3429.31,0.03014
3423.52,0.02977
3417.74,0.02997
3411.95,0.03051
3406.16,0.03090
3400.38,0.03021
3394.59,0.03079
3388.81,0.03130
3383.02,0.03046
3377.23,0.03048
3371.45,0.03051
3365.66,0.03073
3359.87,0.03123
3354.09,0.03129
3348.3,0.03143
3342.52,0.03198
3336.73,0.03254
3330.94,0.03314
3325.16,0.03325
3319.37,0.03425
3313.58,0.03431
3307.8,0.03511
3302.01,0.03522
3296.23,0.03519
3290.44,0.03586
3284.65,0.03671
3278.87,0.03731
3273.08,0.03842
3267.29,0.03884
3261.51,0.03972
3255.72,0.04121
3249.94,0.04180
3244.15,0.04303
3238.36,0.04472
3232.58,0.04572
3226.79,0.04601
3221,0.04768
3215.22,0.04927
3209.43,0.05009
3203.65,0.05210
3197.86,0.05371
3192.07,0.05440
3186.29,0.05664
3180.5,0.05812
3174.71,0.05891
3168.93,0.06114
3163.14,0.06204
3157.36,0.06402
3151.57,0.06563
3145.78,0.06644
3140,0.06906
3134.21,0.07074
3128.42,0.07186
3122.64,0.07339
3116.85,0.07546
3111.07,0.07694
3105.28,0.07844
3099.49,0.08050
3093.71,0.08147
3087.92,0.08281
3082.14,0.08443
3076.35,0.08524
3070.56,0.08661
3064.78,0.08796
3058.99,0.08980
3053.2,0.09119
3047.42,0.09194
3041.63,0.09224
3035.85,0.09258
3030.06,0.09218
3024.27,0.09047
3018.49,0.08884
3012.7,0.08661
3006.91,0.08411
3001.13,0.08169
2995.34,0.07895
2989.56,0.07529
2983.77,0.07090
2977.98,0.06678
2972.2,0.06192
2966.41,0.05812
2960.62,0.05610
2954.84,0.05417
2949.05,0.05195
2943.27,0.05010
2937.48,0.04965
2931.69,0.04880
2925.91,0.04884
2920.12,0.04834
2914.33,0.04838
2908.55,0.04906
2902.76,0.04959
2896.98,0.05062
2891.19,0.05155
2885.4,0.05307
2879.62,0.05387
2873.83,0.05437
2868.04,0.05605
2862.26,0.05773
2856.47,0.05833
2850.69,0.05961
2844.9,0.06282
2839.11,0.06812
2833.33,0.07395
2827.54,0.07913
2821.75,0.08404
2815.97,0.08882
2810.18,0.09188
2804.4,0.09509
2798.61,0.09774
2792.82,0.10063
2787.04,0.10200
2781.25,0.10341
2775.46,0.10487
2769.68,0.10588
2763.89,0.10711
2758.11,0.10795
2752.32,0.10878
2746.53,0.10879
2740.75,0.10904
2734.96,0.10946
2729.17,0.11074
2723.39,0.11194
2717.6,0.11317
2711.82,0.11498
2706.03,0.11722
2700.24,0.11953
2694.46,0.12141
2688.67,0.12368
2682.88,0.12498
2677.1,0.12647
2671.31,0.12797
2665.53,0.12906
2659.74,0.13022
2653.95,0.13115
2648.17,0.13189
2642.38,0.13307
2636.59,0.13458
2630.81,0.13591
2625.02,0.13761
2619.24,0.13920
2613.45,0.14046
2607.66,0.14228
2601.88,0.14358
2596.09,0.14455
2590.3,0.14600
2584.52,0.14718
2578.73,0.14796
2572.95,0.14806
2567.16,0.14834
2561.37,0.14845
2555.59,0.14854
2549.8,0.14875
2544.02,0.14920
2538.23,0.14964
2532.44,0.15088
2526.66,0.15182
2520.87,0.15239
2515.08,0.15308
2509.3,0.15459
2503.51,0.15616
2497.73,0.15842
2491.94,0.16054
2486.15,0.16174
2480.37,0.16306
2474.58,0.16552
2468.79,0.16673
2463.01,0.16809
2457.22,0.16867
2451.44,0.17020
2445.65,0.17224
2439.86,0.17418
2434.08,0.17632
2428.29,0.17882
2422.5,0.18089
2416.72,0.18322
2410.93,0.18515
2405.15,0.18747
2399.36,0.18961
2393.57,0.19223
2387.79,0.19364
2382,0.19528
2376.21,0.19723
2370.43,0.19945
2364.64,0.20130
2358.86,0.20287
2353.07,0.20494
2347.28,0.20686
2341.5,0.20907
2335.71,0.21040
2329.92,0.21104
2324.14,0.21193
2318.35,0.21287
2312.57,0.21294
2306.78,0.21299
2300.99,0.21237
2295.21,0.21149
2289.42,0.21158
2283.63,0.21089
2277.85,0.21032
2272.06,0.20868
2266.28,0.20682
2260.49,0.20488
2254.7,0.20312
2248.92,0.20167
2243.13,0.20078
2237.34,0.20043
2231.56,0.20077
2225.77,0.20167
2219.99,0.20268
2214.2,0.20356
2208.41,0.20371
2202.63,0.20289
2196.84,0.20178
2191.05,0.19978
2185.27,0.19676
2179.48,0.19300
2173.7,0.18892
2167.91,0.18590
2162.12,0.18295
2156.34,0.18057
2150.55,0.17874
2144.76,0.17776
2138.98,0.17718
2133.19,0.17685
2127.41,0.17718
2121.62,0.17806
2115.83,0.17912
2110.05,0.18040
2104.26,0.18172
2098.47,0.18319
2092.69,0.18504
2086.9,0.18618
2081.12,0.18680
2075.33,0.18669
2069.54,0.18665
2063.76,0.18695
2057.97,0.18727
2052.19,0.18810
2046.4,0.18956
2040.61,0.19096
2034.83,0.19315
2029.04,0.19542
2023.25,0.19847
2017.47,0.20178
2011.68,0.20512
2005.9,0.20718
2000.11,0.20946
1994.32,0.21134
1988.54,0.21271
1982.75,0.21322
1976.96,0.21311
1971.18,0.21246
1965.39,0.21179
1959.61,0.21125
1953.82,0.21141
1948.03,0.21278
1942.25,0.21474
1936.46,0.21793
1930.67,0.22096
1924.89,0.22377
1919.1,0.22602
1913.32,0.22772
1907.53,0.22916
1901.74,0.23023
1895.96,0.23087
1890.17,0.23118
1884.38,0.23059
1878.6,0.23011
1872.81,0.22854
1867.03,0.22681
1861.24,0.22436
1855.45,0.22075
1849.67,0.21734
1843.88,0.21332
1838.09,0.20876
1832.31,0.20483
1826.52,0.19945
1820.74,0.19356
1814.95,0.18724
1809.16,0.17896
1803.38,0.16980
1797.59,0.15921
1791.8,0.14858
1786.02,0.13648
1780.23,0.12126
1774.45,0.10417
1768.66,0.08398
1762.87,0.06902
1757.09,0.06048
1751.3,0.05677
1745.51,0.05442
1739.73,0.05342
1733.94,0.05470
1728.16,0.05689
1722.37,0.05932
1716.58,0.06399
1710.8,0.06932
1705.01,0.07446
1699.22,0.07982
1693.44,0.08218
1687.65,0.08268
1681.87,0.08148
1676.08,0.07917
1670.29,0.07687
1664.51,0.07460
1658.72,0.07343
1652.93,0.07336
1647.15,0.07237
1641.36,0.07177
1635.58,0.07133
1629.79,0.07001
1624,0.06737
1618.22,0.06470
1612.43,0.05962
1606.64,0.05603
1600.86,0.05361
1595.07,0.05030
1589.29,0.05268
1583.5,0.06091
1577.71,0.07227
1571.93,0.08430
1566.14,0.09332
1560.35,0.09920
1554.57,0.10058
1548.78,0.10034
1543,0.09889
1537.21,0.09654
1531.42,0.09222
1525.64,0.08299
1519.85,0.06874
1514.07,0.05855
1508.28,0.05343
1502.49,0.05177
1496.71,0.05572
1490.92,0.05960
1485.13,0.05966
1479.35,0.05439
1473.56,0.04637
1467.78,0.04035
1461.99,0.03911
1456.2,0.03948
1450.42,0.04069
1444.63,0.04142
1438.84,0.04085
1433.06,0.03944
1427.27,0.03925
1421.49,0.04077
1415.7,0.04331
1409.91,0.04528
1404.13,0.04556
1398.34,0.04477
1392.55,0.04222
1386.77,0.03889
1380.98,0.03507
1375.2,0.03351
1369.41,0.03365
1363.62,0.03415
1357.84,0.03524
1352.05,0.03546
1346.26,0.03489
1340.48,0.03392
1334.69,0.03325
1328.91,0.03341
1323.12,0.03368
1317.33,0.03440
1311.55,0.03588
1305.76,0.03783
1299.97,0.03818
1294.19,0.03727
1288.4,0.03571
1282.62,0.03378
1276.83,0.03260
1271.04,0.03190
1265.26,0.03078
1259.47,0.03045
1253.68,0.03012
1247.9,0.02957
1242.11,0.02969
1236.33,0.03023
1230.54,0.03157
1224.75,0.03286
1218.97,0.03411
1213.18,0.03545
1207.39,0.03561
1201.61,0.03575
1195.82,0.03557
1190.04,0.03414
1184.25,0.03289
1178.46,0.03023
1172.68,0.02896
1166.89,0.02999
1161.1,0.03088
1155.32,0.03077
1149.53,0.03041
1143.75,0.02864
1137.96,0.02712
1132.17,0.02621
1126.39,0.02778
1120.6,0.02908
1114.81,0.03010
1109.03,0.03103
1103.24,0.03126
1097.46,0.03064
1091.67,0.03029
1085.88,0.03035
1080.1,0.03166
1074.31,0.03372
1068.52,0.03593
1062.74,0.04124
1056.95,0.04380
1051.17,0.04357
1045.38,0.04251
1039.59,0.04518
1033.81,0.04702
1028.02,0.04792
1022.24,0.04760
1016.45,0.04819
1010.66,0.04907
1004.88,0.04879
999.09,0.05000
993.304,0.05123
987.518,0.05392
981.731,0.05825
975.945,0.06184
970.159,0.06542
964.373,0.06946
958.586,0.07571
952.8,0.08169
947.014,0.08675
941.228,0.08877
935.441,0.08788
929.655,0.08655
923.869,0.08621
918.083,0.08506
912.297,0.08251
906.51,0.07948
900.724,0.07524
894.938,0.07707
889.152,0.08306
883.365,0.08753
877.579,0.09021
871.793,0.09276
866.007,0.09656
860.22,0.09817
854.434,0.09714
848.648,0.09574
842.862,0.09486
837.075,0.09377
831.289,0.09345
825.503,0.09526
819.717,0.09727
813.931,0.09791
808.144,0.09901
802.358,0.09854
796.572,0.09756
790.786,0.09736
784.999,0.09645
779.213,0.09264
773.427,0.08755
767.641,0.08574
761.854,0.08388
756.068,0.08017
750.282,0.07769
744.496,0.07594
738.709,0.07329
732.923,0.07059
727.137,0.06846
721.351,0.06595
715.565,0.06400
709.778,0.06371
703.992,0.06237
698.206,0.06222
692.42,0.06226
686.633,0.05912
680.847,0.05758
675.061,0.05511
669.275,0.05514
663.488,0.05617
657.702,0.05510
651.916,0.05592
646.13,0.05486
640.343,0.05331
634.557,0.05186
628.771,0.05273
622.985,0.04950
617.198,0.05130
611.412,0.04952
605.626,0.05184
599.84,0.05139