File: 01_Data/Excelsior/FTIR/IS/Excelsior_IS_T_221109_R6.dpt
7497.03,0.02154
7491.25,0.01431
7485.46,0.03132
7479.67,0.02450
7473.89,0.02404
7468.1,0.01943
7462.32,0.02948
7456.53,0.02568
7450.74,0.02763
7444.96,0.02766
7439.17,0.02848
7433.38,0.02413
7427.6,0.02358
7421.81,0.02518
7416.03,0.02133
7410.24,0.02017
7404.45,0.02830
7398.67,0.02348
7392.88,0.02144
7387.09,0.02343
7381.31,0.02313
7375.52,0.02176
7369.74,0.02673
7363.95,0.02460
7358.16,0.02030
7352.38,0.02680
7346.59,0.02521
7340.8,0.02594
7335.02,0.02905
7329.23,0.02553
7323.45,0.03088
7317.66,0.01930
7311.87,0.02132
7306.09,0.02818
7300.3,0.02753
7294.51,0.02919
7288.73,0.02909
7282.94,0.03224
7277.16,0.02512
7271.37,0.02292
7265.58,0.02294
7259.8,0.02459
7254.01,0.02868
7248.22,0.02459
7242.44,0.02253
7236.65,0.02463
7230.87,0.02334
7225.08,0.03352
7219.29,0.02632
7213.51,0.02770
7207.72,0.02548
7201.93,0.02360
7196.15,0.02858
7190.36,0.02122
7184.58,0.02216
7178.79,0.02729
7173,0.02226
7167.22,0.02516
7161.43,0.02392
7155.65,0.02242
7149.86,0.02230
7144.07,0.01635
7138.29,0.02408
7132.5,0.02118
7126.71,0.02356
7120.93,0.02057
7115.14,0.02623
7109.36,0.02391
7103.57,0.01838
7097.78,0.02404
7092,0.01886
7086.21,0.03036
7080.42,0.03037
7074.64,0.02321
7068.85,0.03269
7063.07,0.02690
7057.28,0.02767
7051.49,0.02599
7045.71,0.02652
7039.92,0.02017
7034.13,0.02740
7028.35,0.02705
7022.56,0.03065
7016.78,0.02149
7010.99,0.01608
7005.2,0.02494
6999.42,0.02903
6993.63,0.02563
6987.84,0.02568
6982.06,0.02395
6976.27,0.02139
6970.49,0.03034
6964.7,0.01544
6958.91,0.01714
6953.13,0.02498
6947.34,0.01793
6941.55,0.01990
6935.77,0.02448
6929.98,0.01766
6924.2,0.02152
6918.41,0.02258
6912.62,0.01632
6906.84,0.02671
6901.05,0.02418
6895.26,0.02931
6889.48,0.01981
6883.69,0.03062
6877.91,0.02160
6872.12,0.02465
6866.33,0.02300
6860.55,0.02526
6854.76,0.02426
6848.97,0.02722
6843.19,0.02009
6837.4,0.02304
6831.62,0.01596
6825.83,0.01779
6820.04,0.01802
6814.26,0.02086
6808.47,0.02538
6802.68,0.02189
6796.9,0.02142
6791.11,0.02260
6785.33,0.01978
6779.54,0.02590
6773.75,0.02329
6767.97,0.02029
6762.18,0.01252
6756.39,0.02188
6750.61,0.02023
6744.82,0.02405
6739.04,0.03105
6733.25,0.01897
6727.46,0.02130
6721.68,0.01850
6715.89,0.01697
6710.1,0.02361
6704.32,0.02189
6698.53,0.02187
6692.75,0.02253
6686.96,0.02103
6681.17,0.01889
6675.39,0.01899
6669.6,0.02519
6663.82,0.02214
6658.03,0.01907
6652.24,0.02360
6646.46,0.02239
6640.67,0.02318
6634.88,0.02126
6629.1,0.02263
6623.31,0.01808
6617.53,0.02289
6611.74,0.02177
6605.95,0.01455
6600.17,0.02136
6594.38,0.01934
6588.59,0.02243
6582.81,0.01856
6577.02,0.01792
6571.24,0.02169
6565.45,0.02204
6559.66,0.02493
6553.88,0.01977
6548.09,0.02260
6542.3,0.02723
6536.52,0.02004
6530.73,0.02078
6524.95,0.02333
6519.16,0.02228
6513.37,0.01995
6507.59,0.01961
6501.8,0.02820
6496.01,0.01906
6490.23,0.02343
6484.44,0.02817
6478.66,0.02847
6472.87,0.02143
6467.08,0.01980
6461.3,0.02378
6455.51,0.02221
6449.72,0.01994
6443.94,0.02150
6438.15,0.02130
6432.37,0.02417
6426.58,0.02052
6420.79,0.02117
6415.01,0.02200
6409.22,0.01994
6403.43,0.01908
6397.65,0.02463
6391.86,0.02028
6386.08,0.02004
6380.29,0.02026
6374.5,0.02465
6368.72,0.02732
6362.93,0.02421
6357.14,0.01969
6351.36,0.02210
6345.57,0.01882
6339.79,0.01925
6334,0.02587
6328.21,0.02282
6322.43,0.02095
6316.64,0.01895
6310.85,0.02181
6305.07,0.01906
6299.28,0.02070
6293.5,0.02190
6287.71,0.02056
6281.92,0.02028
6276.14,0.01511
6270.35,0.02115
6264.56,0.02728
6258.78,0.02119
6252.99,0.02277
6247.21,0.02051
6241.42,0.02204
6235.63,0.02320
6229.85,0.01924
6224.06,0.02287
6218.27,0.02338
6212.49,0.02176
6206.7,0.02075
6200.92,0.02187
6195.13,0.02069
6189.34,0.02035
6183.56,0.01983
6177.77,0.02197
6171.98,0.02285
6166.2,0.02402
6160.41,0.02321
6154.63,0.01987
6148.84,0.01821
6143.05,0.01818
6137.27,0.02256
6131.48,0.02325
6125.7,0.02697
6119.91,0.01962
6114.12,0.02105
6108.34,0.01828
6102.55,0.01987
6096.76,0.02000
6090.98,0.02125
6085.19,0.02135
6079.41,0.02015
6073.62,0.02063
6067.83,0.02131
6062.05,0.02096
6056.26,0.02130
6050.47,0.01742
6044.69,0.01992
6038.9,0.02280
6033.12,0.02375
6027.33,0.02077
6021.54,0.02085
6015.76,0.02239
6009.97,0.02144
6004.18,0.02043
5998.4,0.02064
5992.61,0.02156
5986.83,0.02016
5981.04,0.01930
5975.25,0.02337
5969.47,0.02012
5963.68,0.01790
5957.89,0.01992
5952.11,0.02307
5946.32,0.02139
5940.54,0.02132
5934.75,0.02066
5928.96,0.02220
5923.18,0.02161
5917.39,0.02396
5911.6,0.01841
5905.82,0.02029
5900.03,0.02034
5894.25,0.02481
5888.46,0.02277
5882.67,0.01946
5876.89,0.01959
5871.1,0.02075
5865.31,0.02322
5859.53,0.02173
5853.74,0.02118
5847.96,0.02110
5842.17,0.01956
5836.38,0.02177
5830.6,0.02046
5824.81,0.02222
5819.02,0.01896
5813.24,0.01982
5807.45,0.02239
5801.67,0.02297
5795.88,0.02198
5790.09,0.02035
5784.31,0.02233
5778.52,0.02626
5772.73,0.02196
5766.95,0.02029
5761.16,0.02378
5755.38,0.01955
5749.59,0.02147
5743.8,0.02121
5738.02,0.02210
5732.23,0.02272
5726.44,0.02367
5720.66,0.01972
5714.87,0.02297
5709.09,0.02132
5703.3,0.02224
5697.51,0.02017
5691.73,0.01979
5685.94,0.02222
5680.15,0.02304
5674.37,0.02213
5668.58,0.02091
5662.8,0.02025
5657.01,0.02208
5651.22,0.02302
5645.44,0.02282
5639.65,0.02195
5633.87,0.02229
5628.08,0.02131
5622.29,0.01994
5616.51,0.02103
5610.72,0.02265
5604.93,0.02427
5599.15,0.02041
5593.36,0.02269
5587.58,0.02056
5581.79,0.02186
5576,0.02166
5570.22,0.02121
5564.43,0.02251
5558.64,0.02302
5552.86,0.02003
5547.07,0.02047
5541.29,0.01988
5535.5,0.02222
5529.71,0.02057
5523.93,0.02205
5518.14,0.02341
5512.35,0.02215
5506.57,0.02178
5500.78,0.02192
5495,0.01963
5489.21,0.02206
5483.42,0.02319
5477.64,0.02100
5471.85,0.02216
5466.06,0.02261
5460.28,0.01964
5454.49,0.02093
5448.71,0.02024
5442.92,0.02075
5437.13,0.02109
5431.35,0.02184
5425.56,0.02174
5419.77,0.02146
5413.99,0.02053
5408.2,0.02197
5402.42,0.02246
5396.63,0.02371
5390.84,0.02221
5385.06,0.01949
5379.27,0.02123
5373.48,0.02249
5367.7,0.02219
5361.91,0.02223
5356.13,0.02336
5350.34,0.02282
5344.55,0.02225
5338.77,0.02122
5332.98,0.02095
5327.19,0.02202
5321.41,0.02214
5315.62,0.02030
5309.84,0.02206
5304.05,0.02098
5298.26,0.02298
5292.48,0.02255
5286.69,0.02150
5280.9,0.02215
5275.12,0.02206
5269.33,0.02310
5263.55,0.02238
5257.76,0.02316
5251.97,0.02142
5246.19,0.02203
5240.4,0.02155
5234.61,0.02106
5228.83,0.02181
5223.04,0.02366
5217.26,0.02116
5211.47,0.02179
5205.68,0.02152
5199.9,0.02030
5194.11,0.01971
5188.32,0.01966
5182.54,0.01917
5176.75,0.02198
5170.97,0.02254
5165.18,0.02283
5159.39,0.02154
5153.61,0.02187
5147.82,0.02191
5142.03,0.02202
5136.25,0.02184
5130.46,0.02115
5124.68,0.02259
5118.89,0.02156
5113.1,0.02103
5107.32,0.02091
5101.53,0.02113
5095.75,0.02216
5089.96,0.02117
5084.17,0.02125
5078.39,0.02249
5072.6,0.02208
5066.81,0.02210
5061.03,0.02195
5055.24,0.02246
5049.46,0.02135
5043.67,0.02160
5037.88,0.02300
5032.1,0.02132
5026.31,0.02168
5020.52,0.02133
5014.74,0.02257
5008.95,0.02194
5003.17,0.02258
4997.38,0.02235
4991.59,0.02128
4985.81,0.02162
4980.02,0.02142
4974.23,0.02280
4968.45,0.02151
4962.66,0.02296
4956.88,0.02196
4951.09,0.02205
4945.3,0.02232
4939.52,0.02121
4933.73,0.02134
4927.94,0.02163
4922.16,0.02321
4916.37,0.02204
4910.59,0.02213
4904.8,0.02186
4899.01,0.02244
4893.23,0.02196
4887.44,0.02157
4881.65,0.02140
4875.87,0.02156
4870.08,0.02209
4864.3,0.02251
4858.51,0.02188
4852.72,0.02210
4846.94,0.02141
4841.15,0.02206
4835.36,0.02247
4829.58,0.02207
4823.79,0.02204
4818.01,0.02161
4812.22,0.02173
4806.43,0.02256
4800.65,0.02242
4794.86,0.02246
4789.07,0.02255
4783.29,0.02280
4777.5,0.02140
4771.72,0.02170
4765.93,0.02252
4760.14,0.02125
4754.36,0.02148
4748.57,0.02183
4742.78,0.02241
4737,0.02252
4731.21,0.02254
4725.43,0.02237
4719.64,0.02143
4713.85,0.02206
4708.07,0.02157
4702.28,0.02128
4696.49,0.02214
4690.71,0.02216
4684.92,0.02218
4679.14,0.02252
4673.35,0.02222
4667.56,0.02153
4661.78,0.02194
4655.99,0.02172
4650.2,0.02227
4644.42,0.02263
4638.63,0.02275
4632.85,0.02161
4627.06,0.02283
4621.27,0.02226
4615.49,0.02176
4609.7,0.02233
4603.92,0.02271
4598.13,0.02277
4592.34,0.02171
4586.56,0.02216
4580.77,0.02108
4574.98,0.02186
4569.2,0.02174
4563.41,0.02232
4557.63,0.02278
4551.84,0.02286
4546.05,0.02252
4540.27,0.02263
4534.48,0.02136
4528.69,0.02190
4522.91,0.02196
4517.12,0.02153
4511.34,0.02219
4505.55,0.02261
4499.76,0.02276
4493.98,0.02300
4488.19,0.02132
4482.4,0.02232
4476.62,0.02196
4470.83,0.02192
4465.05,0.02129
4459.26,0.02190
4453.47,0.02198
4447.69,0.02230
4441.9,0.02134
4436.11,0.02212
4430.33,0.02260
4424.54,0.02156
4418.76,0.02242
4412.97,0.02238
4407.18,0.02195
4401.4,0.02164
4395.61,0.02271
4389.82,0.02223
4384.04,0.02223
4378.25,0.02175
4372.47,0.02263
4366.68,0.02288
4360.89,0.02209
4355.11,0.02254
4349.32,0.02194
4343.53,0.02101
4337.75,0.02195
4331.96,0.02201
4326.18,0.02215
4320.39,0.02261
4314.6,0.02233
4308.82,0.02266
4303.03,0.02268
4297.24,0.02252
4291.46,0.02231
4285.67,0.02185
4279.89,0.02239
4274.1,0.02228
4268.31,0.02260
4262.53,0.02250
4256.74,0.02229
4250.95,0.02269
4245.17,0.02164
4239.38,0.02237
4233.6,0.02223
4227.81,0.02265
4222.02,0.02175
4216.24,0.02303
4210.45,0.02253
4204.66,0.02246
4198.88,0.02223
4193.09,0.02255
4187.31,0.02195
4181.52,0.02208
4175.73,0.02222
4169.95,0.02257
4164.16,0.02208
4158.37,0.02225
4152.59,0.02210
4146.8,0.02276
4141.02,0.02237
4135.23,0.02191
4129.44,0.02288
4123.66,0.02200
4117.87,0.02220
4112.09,0.02324
4106.3,0.02296
4100.51,0.02263
4094.73,0.02299
4088.94,0.02281
4083.15,0.02250
4077.37,0.02245
4071.58,0.02274
4065.8,0.02252
4060.01,0.02236
4054.22,0.02251
4048.44,0.02266
4042.65,0.02203
4036.86,0.02196
4031.08,0.02218
4025.29,0.02237
4019.51,0.02220
4013.72,0.02249
4007.93,0.02262
4002.15,0.02237
3996.36,0.02317
3990.57,0.02214
3984.79,0.02278
3979,0.02172
3973.22,0.02239
3967.43,0.02210
3961.64,0.02229
3955.86,0.02224
3950.07,0.02253
3944.28,0.02269
3938.5,0.02216
3932.71,0.02206
3926.93,0.02246
3921.14,0.02254
3915.35,0.02217
3909.57,0.02332
3903.78,0.02269
3897.99,0.02290
3892.21,0.02236
3886.42,0.02270
3880.64,0.02305
3874.85,0.02307
3869.06,0.02228
3863.28,0.02203
3857.49,0.02359
3851.7,0.02273
3845.92,0.02241
3840.13,0.02235
3834.35,0.02172
3828.56,0.02287
3822.77,0.02283
3816.99,0.02281
3811.2,0.02223
3805.41,0.02232
3799.63,0.02220
3793.84,0.02229
3788.06,0.02267
3782.27,0.02248
3776.48,0.02223
3770.7,0.02265
3764.91,0.02225
3759.12,0.02296
3753.34,0.02336
3747.55,0.02263
3741.77,0.02204
3735.98,0.02221
3730.19,0.02267
3724.41,0.02234
3718.62,0.02277
3712.83,0.02303
3707.05,0.02267
3701.26,0.02243
3695.48,0.02206
3689.69,0.02235
3683.9,0.02231
3678.12,0.02245
3672.33,0.02270
3666.54,0.02206
3660.76,0.02194
3654.97,0.02249
3649.19,0.02182
3643.4,0.02165
3637.61,0.02199
3631.83,0.02246
3626.04,0.02175
3620.25,0.02198
3614.47,0.02203
3608.68,0.02192
3602.9,0.02174
3597.11,0.02118
3591.32,0.02203
3585.54,0.02114
3579.75,0.02186
3573.97,0.02167
3568.18,0.02141
3562.39,0.02166
3556.61,0.02145
3550.82,0.02073
3545.03,0.02197
3539.25,0.02091
3533.46,0.02052
3527.68,0.02061
3521.89,0.02088
3516.1,0.02092
3510.32,0.02148
3504.53,0.02172
3498.74,0.02121
3492.96,0.02081
3487.17,0.02161
3481.39,0.02110
3475.6,0.02098
3469.81,0.02023
3464.03,0.02138
3458.24,0.02095
3452.45,0.02023
3446.67,0.02056
3440.88,0.02102
3435.1,0.01998
3429.31,0.02090
3423.52,0.02046
3417.74,0.02065
3411.95,0.02059
3406.16,0.02028
3400.38,0.02063
3394.59,0.02064
3388.81,0.02081
3383.02,0.02047
3377.23,0.02047
3371.45,0.02137
3365.66,0.02080
3359.87,0.02016
3354.09,0.02052
3348.3,0.02025
3342.52,0.02009
3336.73,0.01999
3330.94,0.02018
3325.16,0.02081
3319.37,0.02028
3313.58,0.02050
3307.8,0.01972
3302.01,0.02042
3296.23,0.02004
3290.44,0.02040
3284.65,0.02031
3278.87,0.02062
3273.08,0.01985
3267.29,0.01994
3261.51,0.02135
3255.72,0.02114
3249.94,0.02126
3244.15,0.02115
3238.36,0.02112
3232.58,0.02072
3226.79,0.02094
3221,0.02057
3215.22,0.02070
3209.43,0.02008
3203.65,0.02115
3197.86,0.02097
3192.07,0.02106
3186.29,0.02056
3180.5,0.02078
3174.71,0.02078
3168.93,0.02086
3163.14,0.02097
3157.36,0.02091
3151.57,0.02084
3145.78,0.02116
3140,0.02085
3134.21,0.02120
3128.42,0.02085
3122.64,0.02110
3116.85,0.02037
3111.07,0.02130
3105.28,0.02145
3099.49,0.02141
3093.71,0.02089
3087.92,0.02072
3082.14,0.02069
3076.35,0.02135
3070.56,0.02052
3064.78,0.02085
3058.99,0.02115
3053.2,0.02097
3047.42,0.02139
3041.63,0.02079
3035.85,0.02019
3030.06,0.02061
3024.27,0.02021
3018.49,0.02064
3012.7,0.02036
3006.91,0.02070
3001.13,0.02019
2995.34,0.02004
2989.56,0.01995
2983.77,0.01981
2977.98,0.01974
2972.2,0.01969
2966.41,0.01953
2960.62,0.01919
2954.84,0.01985
2949.05,0.01977
2943.27,0.02011
2937.48,0.01957
2931.69,0.01957
2925.91,0.01972
2920.12,0.02070
2914.33,0.02082
2908.55,0.02062
2902.76,0.02085
2896.98,0.02040
2891.19,0.02077
2885.4,0.02077
2879.62,0.02039
2873.83,0.02060
2868.04,0.02015
2862.26,0.02063
2856.47,0.02022
2850.69,0.02064
2844.9,0.02085
2839.11,0.02103
2833.33,0.02142
2827.54,0.02126
2821.75,0.02118
2815.97,0.02158
2810.18,0.02133
2804.4,0.02159
2798.61,0.02152
2792.82,0.02169
2787.04,0.02147
2781.25,0.02136
2775.46,0.02205
2769.68,0.02138
2763.89,0.02160
2758.11,0.02151
2752.32,0.02146
2746.53,0.02172
2740.75,0.02115
2734.96,0.02156
2729.17,0.02110
2723.39,0.02150
2717.6,0.02157
2711.82,0.02141
2706.03,0.02182
2700.24,0.02175
2694.46,0.02168
2688.67,0.02151
2682.88,0.02160
2677.1,0.02144
2671.31,0.02150
2665.53,0.02144
2659.74,0.02114
2653.95,0.02148
2648.17,0.02148
2642.38,0.02204
2636.59,0.02147
2630.81,0.02148
2625.02,0.02117
2619.24,0.02134
2613.45,0.02142
2607.66,0.02145
2601.88,0.02161
2596.09,0.02102
2590.3,0.02125
2584.52,0.02126
2578.73,0.02157
2572.95,0.02141
2567.16,0.02142
2561.37,0.02149
2555.59,0.02156
2549.8,0.02126
2544.02,0.02145
2538.23,0.02158
2532.44,0.02154
2526.66,0.02179
2520.87,0.02153
2515.08,0.02133
2509.3,0.02113
2503.51,0.02155
2497.73,0.02145
2491.94,0.02178
2486.15,0.02161
2480.37,0.02155
2474.58,0.02125
2468.79,0.02127
2463.01,0.02154
2457.22,0.02127
2451.44,0.02117
2445.65,0.02132
2439.86,0.02164
2434.08,0.02187
2428.29,0.02132
2422.5,0.02144
2416.72,0.02175
2410.93,0.02138
2405.15,0.02134
2399.36,0.02169
2393.57,0.02173
2387.79,0.02132
2382,0.02138
2376.21,0.02179
2370.43,0.02177
2364.64,0.02193
2358.86,0.02149
2353.07,0.02161
2347.28,0.02133
2341.5,0.02137
2335.71,0.02171
2329.92,0.02130
2324.14,0.02134
2318.35,0.02157
2312.57,0.02105
2306.78,0.02168
2300.99,0.02143
2295.21,0.02141
2289.42,0.02118
2283.63,0.02127
2277.85,0.02102
2272.06,0.02136
2266.28,0.02117
2260.49,0.02130
2254.7,0.02128
2248.92,0.02151
2243.13,0.02108
2237.34,0.02130
2231.56,0.02154
2225.77,0.02143
2219.99,0.02158
2214.2,0.02128
2208.41,0.02120
2202.63,0.02117
2196.84,0.02112
2191.05,0.02108
2185.27,0.02121
2179.48,0.02121
2173.7,0.02137
2167.91,0.02147
2162.12,0.02121
2156.34,0.02129
2150.55,0.02120
2144.76,0.02157
2138.98,0.02117
2133.19,0.02117
2127.41,0.02131
2121.62,0.02154
2115.83,0.02132
2110.05,0.02153
2104.26,0.02147
2098.47,0.02088
2092.69,0.02111
2086.9,0.02133
2081.12,0.02130
2075.33,0.02100
2069.54,0.02128
2063.76,0.02096
2057.97,0.02106
2052.19,0.02138
2046.4,0.02123
2040.61,0.02131
2034.83,0.02143
2029.04,0.02126
2023.25,0.02118
2017.47,0.02102
2011.68,0.02159
2005.9,0.02130
2000.11,0.02181
1994.32,0.02110
1988.54,0.02113
1982.75,0.02131
1976.96,0.02125
1971.18,0.02091
1965.39,0.02089
1959.61,0.02129
1953.82,0.02089
1948.03,0.02101
1942.25,0.02095
1936.46,0.02116
1930.67,0.02154
1924.89,0.02109
1919.1,0.02111
1913.32,0.02089
1907.53,0.02082
1901.74,0.02105
1895.96,0.02091
1890.17,0.02084
1884.38,0.02077
1878.6,0.02083
1872.81,0.02077
1867.03,0.02094
1861.24,0.02099
1855.45,0.02092
1849.67,0.02085
1843.88,0.02066
1838.09,0.02070
1832.31,0.02041
1826.52,0.02036
1820.74,0.02013
1814.95,0.02055
1809.16,0.02015
1803.38,0.02005
1797.59,0.02009
1791.8,0.01979
1786.02,0.01983
1780.23,0.01961
1774.45,0.01917
1768.66,0.01857
1762.87,0.01846
1757.09,0.01797
1751.3,0.01783
1745.51,0.01761
1739.73,0.01867
1733.94,0.01959
1728.16,0.02092
1722.37,0.02097
1716.58,0.02125
1710.8,0.02046
1705.01,0.02025
1699.22,0.01970
1693.44,0.01922
1687.65,0.01918
1681.87,0.01954
1676.08,0.01964
1670.29,0.01897
1664.51,0.01872
1658.72,0.01875
1652.93,0.01864
1647.15,0.01878
1641.36,0.01879
1635.58,0.01865
1629.79,0.01858
1624,0.01883
1618.22,0.01863
1612.43,0.01880
1606.64,0.01869
1600.86,0.01867
1595.07,0.01960
1589.29,0.01883
1583.5,0.01895
1577.71,0.01913
1571.93,0.01875
1566.14,0.01819
1560.35,0.01853
1554.57,0.01843
1548.78,0.01891
1543,0.01900
1537.21,0.01902
1531.42,0.01887
1525.64,0.01886
1519.85,0.01912
1514.07,0.01909
1508.28,0.01932
1502.49,0.01947
1496.71,0.01917
1490.92,0.01899
1485.13,0.01932
1479.35,0.01899
1473.56,0.01873
1467.78,0.01877
1461.99,0.01891
1456.2,0.01877
1450.42,0.01883
1444.63,0.01882
1438.84,0.01942
1433.06,0.01956
1427.27,0.01894
1421.49,0.01845
1415.7,0.01870
1409.91,0.01866
1404.13,0.01848
1398.34,0.01840
1392.55,0.01823
1386.77,0.01845
1380.98,0.01826
1375.2,0.01854
1369.41,0.01884
1363.62,0.01812
1357.84,0.01840
1352.05,0.01815
1346.26,0.01791
1340.48,0.01841
1334.69,0.01827
1328.91,0.01773
1323.12,0.01758
1317.33,0.01739
1311.55,0.01691
1305.76,0.01759
1299.97,0.01796
1294.19,0.01860
1288.4,0.01849
1282.62,0.01886
1276.83,0.01945
1271.04,0.01979
1265.26,0.02015
1259.47,0.02034
1253.68,0.02049
1247.9,0.02048
1242.11,0.02070
1236.33,0.01976
1230.54,0.02019
1224.75,0.01977
1218.97,0.01968
1213.18,0.01949
1207.39,0.01900
1201.61,0.01887
1195.82,0.01839
1190.04,0.01834
1184.25,0.01820
1178.46,0.01815
1172.68,0.01813
1166.89,0.01763
1161.1,0.01781
1155.32,0.01823
1149.53,0.01768
1143.75,0.01759
1137.96,0.01830
1132.17,0.01841
1126.39,0.01840
1120.6,0.01932
1114.81,0.01924
1109.03,0.01938
1103.24,0.01803
1097.46,0.01832
1091.67,0.01795
1085.88,0.01824
1080.1,0.01890
1074.31,0.01928
1068.52,0.01982
1062.74,0.02019
1056.95,0.01986
1051.17,0.01976
1045.38,0.01952
1039.59,0.01994
1033.81,0.01970
1028.02,0.01883
1022.24,0.01943
1016.45,0.01911
1010.66,0.02031
1004.88,0.02121
999.09,0.02134
993.304,0.02131
987.518,0.02115
981.731,0.02111
975.945,0.02025
970.159,0.02011
964.373,0.02080
958.586,0.02024
952.8,0.01992
947.014,0.02049
941.228,0.02004
935.441,0.02001
929.655,0.01918
923.869,0.02004
918.083,0.01910
912.297,0.01936
906.51,0.01911
900.724,0.01908
894.938,0.01983
889.152,0.01890
883.365,0.01871
877.579,0.01857
871.793,0.01926
866.007,0.01909
860.22,0.01964
854.434,0.01957
848.648,0.01973
842.862,0.01906
837.075,0.01960
831.289,0.01870
825.503,0.01878
819.717,0.01934
813.931,0.01900
808.144,0.01879
802.358,0.01947
796.572,0.01981
790.786,0.01856
784.999,0.01857
779.213,0.01879
773.427,0.01841
767.641,0.01824
761.854,0.01860
756.068,0.01839
750.282,0.01786
744.496,0.01777
738.709,0.01925
732.923,0.01868
727.137,0.01801
721.351,0.01893
715.565,0.01828
709.778,0.01917
703.992,0.01900
698.206,0.01863
692.42,0.01850
686.633,0.01791
680.847,0.01835
675.061,0.01748
669.275,0.01832
663.488,0.01656
657.702,0.01851
651.916,0.01728
646.13,0.01765
640.343,0.01556
634.557,0.01327
628.771,0.01582
622.985,0.01584
617.198,0.01627
611.412,0.01597
605.626,0.01477
599.84,0.01610