File: 01_Data/Excelsior/FTIR/IS/Excelsior_IS_S_221109_R4.dpt
7497.03,0.66057
7491.25,0.66309
7485.46,0.64810
7479.67,0.64091
7473.89,0.64382
7468.1,0.64734
7462.32,0.65471
7456.53,0.64876
7450.74,0.63884
7444.96,0.64055
7439.17,0.63196
7433.38,0.63557
7427.6,0.63322
7421.81,0.63522
7416.03,0.63667
7410.24,0.63479
7404.45,0.62977
7398.67,0.62443
7392.88,0.61935
7387.09,0.62287
7381.31,0.62562
7375.52,0.62866
7369.74,0.61635
7363.95,0.62028
7358.16,0.60675
7352.38,0.61888
7346.59,0.60615
7340.8,0.61254
7335.02,0.61553
7329.23,0.60498
7323.45,0.61295
7317.66,0.60318
7311.87,0.60816
7306.09,0.60521
7300.3,0.61016
7294.51,0.60804
7288.73,0.60350
7282.94,0.59373
7277.16,0.59373
7271.37,0.59514
7265.58,0.60272
7259.8,0.60356
7254.01,0.59357
7248.22,0.60187
7242.44,0.60527
7236.65,0.60177
7230.87,0.60343
7225.08,0.60410
7219.29,0.60524
7213.51,0.59875
7207.72,0.60284
7201.93,0.59978
7196.15,0.59892
7190.36,0.59652
7184.58,0.59344
7178.79,0.59520
7173,0.59170
7167.22,0.58164
7161.43,0.58066
7155.65,0.58888
7149.86,0.58667
7144.07,0.57982
7138.29,0.57739
7132.5,0.56996
7126.71,0.57279
7120.93,0.57149
7115.14,0.56726
7109.36,0.55518
7103.57,0.55792
7097.78,0.55756
7092,0.55206
7086.21,0.54863
7080.42,0.53755
7074.64,0.52788
7068.85,0.51765
7063.07,0.51523
7057.28,0.51381
7051.49,0.50755
7045.71,0.50234
7039.92,0.49262
7034.13,0.49024
7028.35,0.48836
7022.56,0.48530
7016.78,0.47167
7010.99,0.47673
7005.2,0.46164
6999.42,0.46147
6993.63,0.46409
6987.84,0.46289
6982.06,0.46461
6976.27,0.45854
6970.49,0.45501
6964.7,0.46233
6958.91,0.45537
6953.13,0.45127
6947.34,0.45201
6941.55,0.44904
6935.77,0.45361
6929.98,0.45434
6924.2,0.45492
6918.41,0.45570
6912.62,0.45126
6906.84,0.45332
6901.05,0.45107
6895.26,0.45016
6889.48,0.44975
6883.69,0.44859
6877.91,0.45025
6872.12,0.45269
6866.33,0.44989
6860.55,0.44926
6854.76,0.45162
6848.97,0.44854
6843.19,0.45374
6837.4,0.45083
6831.62,0.44859
6825.83,0.45394
6820.04,0.44498
6814.26,0.45206
6808.47,0.45249
6802.68,0.45469
6796.9,0.45114
6791.11,0.44557
6785.33,0.44935
6779.54,0.44645
6773.75,0.44816
6767.97,0.45251
6762.18,0.44579
6756.39,0.45129
6750.61,0.45240
6744.82,0.44997
6739.04,0.44957
6733.25,0.45326
6727.46,0.45275
6721.68,0.45688
6715.89,0.45339
6710.1,0.45499
6704.32,0.45445
6698.53,0.44955
6692.75,0.45531
6686.96,0.46120
6681.17,0.45543
6675.39,0.45749
6669.6,0.45933
6663.82,0.46142
6658.03,0.45647
6652.24,0.45871
6646.46,0.45801
6640.67,0.45828
6634.88,0.45775
6629.1,0.46501
6623.31,0.46383
6617.53,0.46629
6611.74,0.47253
6605.95,0.47235
6600.17,0.47115
6594.38,0.47264
6588.59,0.47403
6582.81,0.47407
6577.02,0.47451
6571.24,0.47397
6565.45,0.47451
6559.66,0.47680
6553.88,0.47122
6548.09,0.47447
6542.3,0.47589
6536.52,0.47758
6530.73,0.47478
6524.95,0.47948
6519.16,0.47643
6513.37,0.47391
6507.59,0.47901
6501.8,0.48243
6496.01,0.48407
6490.23,0.47783
6484.44,0.47792
6478.66,0.48053
6472.87,0.47620
6467.08,0.48269
6461.3,0.48280
6455.51,0.48306
6449.72,0.48587
6443.94,0.48250
6438.15,0.48360
6432.37,0.48323
6426.58,0.48473
6420.79,0.48028
6415.01,0.48805
6409.22,0.48840
6403.43,0.48496
6397.65,0.48894
6391.86,0.48592
6386.08,0.48904
6380.29,0.48843
6374.5,0.48737
6368.72,0.48789
6362.93,0.48716
6357.14,0.49287
6351.36,0.48837
6345.57,0.49220
6339.79,0.49073
6334,0.49529
6328.21,0.49729
6322.43,0.49399
6316.64,0.49051
6310.85,0.49246
6305.07,0.49596
6299.28,0.48968
6293.5,0.49127
6287.71,0.49595
6281.92,0.49394
6276.14,0.50387
6270.35,0.50218
6264.56,0.50233
6258.78,0.50593
6252.99,0.50473
6247.21,0.50806
6241.42,0.51080
6235.63,0.51266
6229.85,0.51330
6224.06,0.51641
6218.27,0.51843
6212.49,0.52238
6206.7,0.52258
6200.92,0.52706
6195.13,0.52875
6189.34,0.52869
6183.56,0.53335
6177.77,0.53289
6171.98,0.53591
6166.2,0.53507
6160.41,0.53698
6154.63,0.53766
6148.84,0.53911
6143.05,0.54085
6137.27,0.54078
6131.48,0.54401
6125.7,0.54473
6119.91,0.54129
6114.12,0.54675
6108.34,0.54751
6102.55,0.54988
6096.76,0.54703
6090.98,0.54873
6085.19,0.54629
6079.41,0.54696
6073.62,0.54452
6067.83,0.54706
6062.05,0.54899
6056.26,0.54594
6050.47,0.54310
6044.69,0.54499
6038.9,0.54472
6033.12,0.54589
6027.33,0.54077
6021.54,0.54030
6015.76,0.54144
6009.97,0.53730
6004.18,0.53648
5998.4,0.53408
5992.61,0.53615
5986.83,0.53057
5981.04,0.53237
5975.25,0.53212
5969.47,0.52817
5963.68,0.53021
5957.89,0.52739
5952.11,0.52545
5946.32,0.52427
5940.54,0.52653
5934.75,0.52468
5928.96,0.52547
5923.18,0.52678
5917.39,0.52799
5911.6,0.52633
5905.82,0.52143
5900.03,0.51947
5894.25,0.51748
5888.46,0.51743
5882.67,0.51715
5876.89,0.51604
5871.1,0.51366
5865.31,0.51379
5859.53,0.51308
5853.74,0.51281
5847.96,0.51245
5842.17,0.51106
5836.38,0.50908
5830.6,0.50916
5824.81,0.50473
5819.02,0.50503
5813.24,0.50286
5807.45,0.50128
5801.67,0.49790
5795.88,0.50174
5790.09,0.50101
5784.31,0.50460
5778.52,0.50530
5772.73,0.50655
5766.95,0.50669
5761.16,0.51026
5755.38,0.51150
5749.59,0.51057
5743.8,0.51318
5738.02,0.51508
5732.23,0.51544
5726.44,0.51545
5720.66,0.51722
5714.87,0.51816
5709.09,0.51601
5703.3,0.51735
5697.51,0.51536
5691.73,0.51597
5685.94,0.51435
5680.15,0.51215
5674.37,0.51392
5668.58,0.51364
5662.8,0.51302
5657.01,0.51248
5651.22,0.51160
5645.44,0.51316
5639.65,0.51371
5633.87,0.51394
5628.08,0.51298
5622.29,0.51429
5616.51,0.51491
5610.72,0.51415
5604.93,0.51300
5599.15,0.51380
5593.36,0.51694
5587.58,0.51467
5581.79,0.51535
5576,0.51411
5570.22,0.51439
5564.43,0.51516
5558.64,0.51635
5552.86,0.51750
5547.07,0.51875
5541.29,0.51800
5535.5,0.51873
5529.71,0.51848
5523.93,0.51936
5518.14,0.51940
5512.35,0.51872
5506.57,0.52244
5500.78,0.52147
5495,0.52182
5489.21,0.52226
5483.42,0.52140
5477.64,0.52179
5471.85,0.52283
5466.06,0.52491
5460.28,0.52620
5454.49,0.52557
5448.71,0.52833
5442.92,0.52956
5437.13,0.53015
5431.35,0.52927
5425.56,0.53134
5419.77,0.53464
5413.99,0.53604
5408.2,0.53684
5402.42,0.53729
5396.63,0.53716
5390.84,0.53807
5385.06,0.53798
5379.27,0.53941
5373.48,0.53870
5367.7,0.53760
5361.91,0.53824
5356.13,0.53784
5350.34,0.53791
5344.55,0.53742
5338.77,0.53831
5332.98,0.53676
5327.19,0.53230
5321.41,0.53118
5315.62,0.52628
5309.84,0.52233
5304.05,0.51540
5298.26,0.50962
5292.48,0.50332
5286.69,0.49618
5280.9,0.48777
5275.12,0.47812
5269.33,0.46675
5263.55,0.45886
5257.76,0.44660
5251.97,0.43874
5246.19,0.43203
5240.4,0.42386
5234.61,0.41915
5228.83,0.41443
5223.04,0.41076
5217.26,0.40710
5211.47,0.40518
5205.68,0.40579
5199.9,0.40525
5194.11,0.40447
5188.32,0.40581
5182.54,0.40488
5176.75,0.40792
5170.97,0.41160
5165.18,0.41170
5159.39,0.41408
5153.61,0.41720
5147.82,0.42069
5142.03,0.42413
5136.25,0.42717
5130.46,0.42996
5124.68,0.43170
5118.89,0.43595
5113.1,0.43822
5107.32,0.44088
5101.53,0.44396
5095.75,0.44662
5089.96,0.44849
5084.17,0.45094
5078.39,0.45347
5072.6,0.45459
5066.81,0.45865
5061.03,0.45919
5055.24,0.46112
5049.46,0.46423
5043.67,0.46654
5037.88,0.46705
5032.1,0.47008
5026.31,0.46942
5020.52,0.46977
5014.74,0.47045
5008.95,0.46964
5003.17,0.46919
4997.38,0.46902
4991.59,0.46606
4985.81,0.46516
4980.02,0.46349
4974.23,0.45941
4968.45,0.45608
4962.66,0.45313
4956.88,0.44834
4951.09,0.44275
4945.3,0.43833
4939.52,0.43213
4933.73,0.42590
4927.94,0.42020
4922.16,0.41525
4916.37,0.40954
4910.59,0.40453
4904.8,0.39791
4899.01,0.39345
4893.23,0.38822
4887.44,0.38353
4881.65,0.37940
4875.87,0.37432
4870.08,0.37037
4864.3,0.36600
4858.51,0.36283
4852.72,0.35981
4846.94,0.35613
4841.15,0.35266
4835.36,0.34908
4829.58,0.34691
4823.79,0.34383
4818.01,0.34160
4812.22,0.33806
4806.43,0.33772
4800.65,0.33692
4794.86,0.33464
4789.07,0.33375
4783.29,0.33362
4777.5,0.33268
4771.72,0.33293
4765.93,0.33082
4760.14,0.33069
4754.36,0.33049
4748.57,0.33063
4742.78,0.33129
4737,0.33226
4731.21,0.33376
4725.43,0.33495
4719.64,0.33541
4713.85,0.33632
4708.07,0.33917
4702.28,0.33884
4696.49,0.33829
4690.71,0.34038
4684.92,0.34220
4679.14,0.34408
4673.35,0.34582
4667.56,0.34810
4661.78,0.35020
4655.99,0.35333
4650.2,0.35579
4644.42,0.35860
4638.63,0.36130
4632.85,0.36215
4627.06,0.36494
4621.27,0.36643
4615.49,0.36928
4609.7,0.37081
4603.92,0.37298
4598.13,0.37535
4592.34,0.37632
4586.56,0.37787
4580.77,0.38002
4574.98,0.38067
4569.2,0.38164
4563.41,0.38374
4557.63,0.38453
4551.84,0.38663
4546.05,0.38786
4540.27,0.38859
4534.48,0.38981
4528.69,0.39003
4522.91,0.39066
4517.12,0.38975
4511.34,0.38854
4505.55,0.38715
4499.76,0.38536
4493.98,0.38219
4488.19,0.37898
4482.4,0.37437
4476.62,0.36724
4470.83,0.36015
4465.05,0.35480
4459.26,0.34674
4453.47,0.33903
4447.69,0.33136
4441.9,0.32542
4436.11,0.31821
4430.33,0.31353
4424.54,0.30848
4418.76,0.30498
4412.97,0.30031
4407.18,0.29786
4401.4,0.29720
4395.61,0.29686
4389.82,0.29722
4384.04,0.29961
4378.25,0.30128
4372.47,0.30426
4366.68,0.30725
4360.89,0.30803
4355.11,0.30781
4349.32,0.30714
4343.53,0.30550
4337.75,0.30298
4331.96,0.30146
4326.18,0.29945
4320.39,0.29787
4314.6,0.29573
4308.82,0.29436
4303.03,0.29289
4297.24,0.29128
4291.46,0.29075
4285.67,0.28986
4279.89,0.28870
4274.1,0.28897
4268.31,0.28981
4262.53,0.29113
4256.74,0.29146
4250.95,0.29224
4245.17,0.29276
4239.38,0.29374
4233.6,0.29517
4227.81,0.29622
4222.02,0.29655
4216.24,0.29684
4210.45,0.29682
4204.66,0.29771
4198.88,0.29803
4193.09,0.29838
4187.31,0.29929
4181.52,0.30019
4175.73,0.30058
4169.95,0.30200
4164.16,0.30276
4158.37,0.30425
4152.59,0.30292
4146.8,0.30265
4141.02,0.30002
4135.23,0.29849
4129.44,0.29601
4123.66,0.29316
4117.87,0.28975
4112.09,0.28593
4106.3,0.28227
4100.51,0.27897
4094.73,0.27447
4088.94,0.27049
4083.15,0.26530
4077.37,0.26139
4071.58,0.25702
4065.8,0.25197
4060.01,0.24826
4054.22,0.24445
4048.44,0.23983
4042.65,0.23648
4036.86,0.23405
4031.08,0.23177
4025.29,0.23011
4019.51,0.22992
4013.72,0.22960
4007.93,0.23054
4002.15,0.23164
3996.36,0.23313
3990.57,0.23432
3984.79,0.23609
3979,0.23722
3973.22,0.23871
3967.43,0.24075
3961.64,0.24252
3955.86,0.24533
3950.07,0.24700
3944.28,0.24947
3938.5,0.25129
3932.71,0.25523
3926.93,0.25674
3921.14,0.25871
3915.35,0.26103
3909.57,0.26325
3903.78,0.26546
3897.99,0.26746
3892.21,0.26889
3886.42,0.27130
3880.64,0.27351
3874.85,0.27533
3869.06,0.27756
3863.28,0.28079
3857.49,0.28264
3851.7,0.28604
3845.92,0.28817
3840.13,0.29027
3834.35,0.29214
3828.56,0.29276
3822.77,0.29379
3816.99,0.29473
3811.2,0.29453
3805.41,0.29554
3799.63,0.29565
3793.84,0.29564
3788.06,0.29557
3782.27,0.29463
3776.48,0.29452
3770.7,0.29305
3764.91,0.29151
3759.12,0.29039
3753.34,0.28931
3747.55,0.28812
3741.77,0.28437
3735.98,0.28263
3730.19,0.27923
3724.41,0.27405
3718.62,0.26931
3712.83,0.26349
3707.05,0.25668
3701.26,0.24795
3695.48,0.23783
3689.69,0.22717
3683.9,0.21411
3678.12,0.19995
3672.33,0.18533
3666.54,0.16910
3660.76,0.15583
3654.97,0.14176
3649.19,0.13059
3643.4,0.11987
3637.61,0.11070
3631.83,0.10296
3626.04,0.09449
3620.25,0.08761
3614.47,0.08125
3608.68,0.07528
3602.9,0.07006
3597.11,0.06486
3591.32,0.06037
3585.54,0.05700
3579.75,0.05349
3573.97,0.05071
3568.18,0.04824
3562.39,0.04610
3556.61,0.04418
3550.82,0.04281
3545.03,0.04071
3539.25,0.03961
3533.46,0.03801
3527.68,0.03712
3521.89,0.03613
3516.1,0.03545
3510.32,0.03437
3504.53,0.03353
3498.74,0.03283
3492.96,0.03174
3487.17,0.03166
3481.39,0.03212
3475.6,0.03137
3469.81,0.03063
3464.03,0.03069
3458.24,0.03049
3452.45,0.03014
3446.67,0.03024
3440.88,0.03099
3435.1,0.03012
3429.31,0.02949
3423.52,0.02983
3417.74,0.02967
3411.95,0.02925
3406.16,0.02952
3400.38,0.02999
3394.59,0.02983
3388.81,0.03037
3383.02,0.02978
3377.23,0.03093
3371.45,0.03090
3365.66,0.03050
3359.87,0.03129
3354.09,0.03075
3348.3,0.03138
3342.52,0.03120
3336.73,0.03220
3330.94,0.03262
3325.16,0.03347
3319.37,0.03328
3313.58,0.03425
3307.8,0.03500
3302.01,0.03508
3296.23,0.03481
3290.44,0.03505
3284.65,0.03653
3278.87,0.03667
3273.08,0.03778
3267.29,0.03823
3261.51,0.03966
3255.72,0.04075
3249.94,0.04141
3244.15,0.04236
3238.36,0.04380
3232.58,0.04470
3226.79,0.04555
3221,0.04767
3215.22,0.04797
3209.43,0.04948
3203.65,0.05151
3197.86,0.05285
3192.07,0.05456
3186.29,0.05503
3180.5,0.05680
3174.71,0.05852
3168.93,0.06015
3163.14,0.06169
3157.36,0.06351
3151.57,0.06440
3145.78,0.06637
3140,0.06841
3134.21,0.06971
3128.42,0.07147
3122.64,0.07326
3116.85,0.07431
3111.07,0.07595
3105.28,0.07746
3099.49,0.07879
3093.71,0.07963
3087.92,0.08175
3082.14,0.08306
3076.35,0.08381
3070.56,0.08579
3064.78,0.08658
3058.99,0.08815
3053.2,0.08881
3047.42,0.09057
3041.63,0.09120
3035.85,0.09209
3030.06,0.09105
3024.27,0.08934
3018.49,0.08779
3012.7,0.08613
3006.91,0.08275
3001.13,0.08045
2995.34,0.07833
2989.56,0.07485
2983.77,0.07104
2977.98,0.06651
2972.2,0.06108
2966.41,0.05772
2960.62,0.05595
2954.84,0.05358
2949.05,0.05192
2943.27,0.05017
2937.48,0.04951
2931.69,0.04974
2925.91,0.04965
2920.12,0.04834
2914.33,0.04868
2908.55,0.04865
2902.76,0.04920
2896.98,0.05064
2891.19,0.05177
2885.4,0.05303
2879.62,0.05360
2873.83,0.05477
2868.04,0.05601
2862.26,0.05710
2856.47,0.05827
2850.69,0.05965
2844.9,0.06327
2839.11,0.06823
2833.33,0.07359
2827.54,0.07915
2821.75,0.08398
2815.97,0.08822
2810.18,0.09157
2804.4,0.09535
2798.61,0.09806
2792.82,0.10000
2787.04,0.10193
2781.25,0.10329
2775.46,0.10443
2769.68,0.10585
2763.89,0.10622
2758.11,0.10690
2752.32,0.10778
2746.53,0.10848
2740.75,0.10859
2734.96,0.10888
2729.17,0.10996
2723.39,0.11083
2717.6,0.11308
2711.82,0.11507
2706.03,0.11714
2700.24,0.11887
2694.46,0.12071
2688.67,0.12272
2682.88,0.12445
2677.1,0.12629
2671.31,0.12796
2665.53,0.12882
2659.74,0.12937
2653.95,0.13028
2648.17,0.13145
2642.38,0.13273
2636.59,0.13440
2630.81,0.13625
2625.02,0.13757
2619.24,0.13915
2613.45,0.14024
2607.66,0.14167
2601.88,0.14338
2596.09,0.14467
2590.3,0.14583
2584.52,0.14696
2578.73,0.14776
2572.95,0.14797
2567.16,0.14775
2561.37,0.14864
2555.59,0.14870
2549.8,0.14889
2544.02,0.14936
2538.23,0.14974
2532.44,0.15059
2526.66,0.15139
2520.87,0.15213
2515.08,0.15250
2509.3,0.15406
2503.51,0.15599
2497.73,0.15821
2491.94,0.16001
2486.15,0.16170
2480.37,0.16298
2474.58,0.16474
2468.79,0.16596
2463.01,0.16724
2457.22,0.16861
2451.44,0.17017
2445.65,0.17167
2439.86,0.17396
2434.08,0.17621
2428.29,0.17852
2422.5,0.18041
2416.72,0.18274
2410.93,0.18504
2405.15,0.18736
2399.36,0.18943
2393.57,0.19160
2387.79,0.19283
2382,0.19493
2376.21,0.19702
2370.43,0.19897
2364.64,0.20061
2358.86,0.20261
2353.07,0.20464
2347.28,0.20622
2341.5,0.20813
2335.71,0.20965
2329.92,0.21091
2324.14,0.21148
2318.35,0.21221
2312.57,0.21218
2306.78,0.21193
2300.99,0.21140
2295.21,0.21062
2289.42,0.20995
2283.63,0.21007
2277.85,0.20973
2272.06,0.20833
2266.28,0.20607
2260.49,0.20377
2254.7,0.20208
2248.92,0.20071
2243.13,0.19995
2237.34,0.19939
2231.56,0.19986
2225.77,0.20058
2219.99,0.20139
2214.2,0.20242
2208.41,0.20238
2202.63,0.20177
2196.84,0.20002
2191.05,0.19805
2185.27,0.19514
2179.48,0.19187
2173.7,0.18814
2167.91,0.18475
2162.12,0.18146
2156.34,0.17957
2150.55,0.17772
2144.76,0.17663
2138.98,0.17563
2133.19,0.17545
2127.41,0.17577
2121.62,0.17662
2115.83,0.17793
2110.05,0.17897
2104.26,0.18069
2098.47,0.18187
2092.69,0.18328
2086.9,0.18434
2081.12,0.18474
2075.33,0.18489
2069.54,0.18471
2063.76,0.18552
2057.97,0.18592
2052.19,0.18674
2046.4,0.18771
2040.61,0.18896
2034.83,0.19135
2029.04,0.19376
2023.25,0.19718
2017.47,0.20029
2011.68,0.20362
2005.9,0.20574
2000.11,0.20746
1994.32,0.20939
1988.54,0.21063
1982.75,0.21116
1976.96,0.21130
1971.18,0.21078
1965.39,0.21021
1959.61,0.20967
1953.82,0.20948
1948.03,0.21097
1942.25,0.21296
1936.46,0.21634
1930.67,0.21933
1924.89,0.22193
1919.1,0.22427
1913.32,0.22659
1907.53,0.22758
1901.74,0.22854
1895.96,0.22945
1890.17,0.22945
1884.38,0.22905
1878.6,0.22820
1872.81,0.22729
1867.03,0.22504
1861.24,0.22275
1855.45,0.21954
1849.67,0.21592
1843.88,0.21240
1838.09,0.20782
1832.31,0.20354
1826.52,0.19866
1820.74,0.19284
1814.95,0.18620
1809.16,0.17816
1803.38,0.16952
1797.59,0.15979
1791.8,0.14841
1786.02,0.13659
1780.23,0.12187
1774.45,0.10468
1768.66,0.08468
1762.87,0.06929
1757.09,0.06055
1751.3,0.05674
1745.51,0.05442
1739.73,0.05335
1733.94,0.05438
1728.16,0.05623
1722.37,0.05902
1716.58,0.06373
1710.8,0.06918
1705.01,0.07386
1699.22,0.07795
1693.44,0.08070
1687.65,0.08168
1681.87,0.08041
1676.08,0.07850
1670.29,0.07542
1664.51,0.07331
1658.72,0.07198
1652.93,0.07102
1647.15,0.07104
1641.36,0.06988
1635.58,0.06964
1629.79,0.06827
1624,0.06664
1618.22,0.06376
1612.43,0.05928
1606.64,0.05546
1600.86,0.05311
1595.07,0.05014
1589.29,0.05251
1583.5,0.06113
1577.71,0.07219
1571.93,0.08415
1566.14,0.09292
1560.35,0.09798
1554.57,0.09997
1548.78,0.09976
1543,0.09838
1537.21,0.09586
1531.42,0.09167
1525.64,0.08256
1519.85,0.06844
1514.07,0.05851
1508.28,0.05376
1502.49,0.05218
1496.71,0.05571
1490.92,0.05973
1485.13,0.05943
1479.35,0.05447
1473.56,0.04642
1467.78,0.03967
1461.99,0.03898
1456.2,0.03956
1450.42,0.04064
1444.63,0.04156
1438.84,0.04081
1433.06,0.03900
1427.27,0.03904
1421.49,0.04091
1415.7,0.04345
1409.91,0.04555
1404.13,0.04577
1398.34,0.04507
1392.55,0.04227
1386.77,0.03833
1380.98,0.03516
1375.2,0.03366
1369.41,0.03378
1363.62,0.03432
1357.84,0.03532
1352.05,0.03561
1346.26,0.03507
1340.48,0.03398
1334.69,0.03312
1328.91,0.03337
1323.12,0.03374
1317.33,0.03481
1311.55,0.03640
1305.76,0.03759
1299.97,0.03830
1294.19,0.03709
1288.4,0.03551
1282.62,0.03353
1276.83,0.03272
1271.04,0.03191
1265.26,0.03145
1259.47,0.03038
1253.68,0.02982
1247.9,0.02953
1242.11,0.02972
1236.33,0.03060
1230.54,0.03173
1224.75,0.03278
1218.97,0.03378
1213.18,0.03528
1207.39,0.03527
1201.61,0.03506
1195.82,0.03613
1190.04,0.03466
1184.25,0.03280
1178.46,0.03015
1172.68,0.02881
1166.89,0.02971
1161.1,0.03101
1155.32,0.03141
1149.53,0.03060
1143.75,0.02935
1137.96,0.02678
1132.17,0.02610
1126.39,0.02743
1120.6,0.02896
1114.81,0.03010
1109.03,0.03101
1103.24,0.03118
1097.46,0.03058
1091.67,0.03006
1085.88,0.03085
1080.1,0.03192
1074.31,0.03404
1068.52,0.03615
1062.74,0.04070
1056.95,0.04356
1051.17,0.04378
1045.38,0.04278
1039.59,0.04490
1033.81,0.04689
1028.02,0.04709
1022.24,0.04744
1016.45,0.04848
1010.66,0.04872
1004.88,0.04920
999.09,0.05014
993.304,0.05064
987.518,0.05284
981.731,0.05815
975.945,0.06262
970.159,0.06571
964.373,0.06952
958.586,0.07513
952.8,0.08235
947.014,0.08699
941.228,0.08849
935.441,0.08808
929.655,0.08700
923.869,0.08617
918.083,0.08460
912.297,0.08206
906.51,0.07818
900.724,0.07510
894.938,0.07650
889.152,0.08201
883.365,0.08801
877.579,0.09044
871.793,0.09225
866.007,0.09601
860.22,0.09756
854.434,0.09622
848.648,0.09560
842.862,0.09436
837.075,0.09258
831.289,0.09276
825.503,0.09465
819.717,0.09513
813.931,0.09692
808.144,0.09726
802.358,0.09664
796.572,0.09633
790.786,0.09572
784.999,0.09484
779.213,0.09032
773.427,0.08604
767.641,0.08339
761.854,0.08261
756.068,0.07935
750.282,0.07660
744.496,0.07392
738.709,0.07273
732.923,0.06964
727.137,0.06685
721.351,0.06469
715.565,0.06390
709.778,0.06296
703.992,0.06230
698.206,0.06193
692.42,0.06099
686.633,0.06013
680.847,0.05748
675.061,0.05462
669.275,0.05254
663.488,0.05497
657.702,0.05701
651.916,0.05582
646.13,0.05629
640.343,0.05223
634.557,0.05087
628.771,0.05100
622.985,0.05101
617.198,0.04866
611.412,0.04839
605.626,0.05152
599.84,0.05234