File: 01_Data/Excelsior/FTIR/IS/Excelsior_IS_S_221109_R3.dpt
7497.03,0.65392
7491.25,0.65578
7485.46,0.65524
7479.67,0.64590
7473.89,0.64366
7468.1,0.64576
7462.32,0.64761
7456.53,0.63460
7450.74,0.65185
7444.96,0.65036
7439.17,0.64296
7433.38,0.63232
7427.6,0.63569
7421.81,0.63715
7416.03,0.62807
7410.24,0.62387
7404.45,0.62875
7398.67,0.62579
7392.88,0.62705
7387.09,0.61346
7381.31,0.61484
7375.52,0.62201
7369.74,0.62005
7363.95,0.61211
7358.16,0.61378
7352.38,0.61994
7346.59,0.61817
7340.8,0.61354
7335.02,0.61235
7329.23,0.60320
7323.45,0.61896
7317.66,0.61161
7311.87,0.60320
7306.09,0.60065
7300.3,0.60228
7294.51,0.59898
7288.73,0.60524
7282.94,0.60381
7277.16,0.59908
7271.37,0.59991
7265.58,0.59644
7259.8,0.59320
7254.01,0.60814
7248.22,0.60407
7242.44,0.60428
7236.65,0.60097
7230.87,0.59494
7225.08,0.59405
7219.29,0.59787
7213.51,0.60130
7207.72,0.58841
7201.93,0.59053
7196.15,0.59369
7190.36,0.60093
7184.58,0.58723
7178.79,0.58671
7173,0.58472
7167.22,0.58049
7161.43,0.58124
7155.65,0.57646
7149.86,0.57060
7144.07,0.57365
7138.29,0.56979
7132.5,0.57871
7126.71,0.56979
7120.93,0.56569
7115.14,0.55620
7109.36,0.55598
7103.57,0.55520
7097.78,0.53826
7092,0.54324
7086.21,0.53189
7080.42,0.52934
7074.64,0.53383
7068.85,0.52511
7063.07,0.51943
7057.28,0.50868
7051.49,0.50465
7045.71,0.49950
7039.92,0.49636
7034.13,0.48538
7028.35,0.48017
7022.56,0.47861
7016.78,0.47814
7010.99,0.46960
7005.2,0.46853
6999.42,0.46291
6993.63,0.46323
6987.84,0.45977
6982.06,0.45720
6976.27,0.45934
6970.49,0.45267
6964.7,0.45113
6958.91,0.45866
6953.13,0.45535
6947.34,0.45158
6941.55,0.45380
6935.77,0.45721
6929.98,0.45121
6924.2,0.45243
6918.41,0.44771
6912.62,0.45005
6906.84,0.45002
6901.05,0.44994
6895.26,0.44655
6889.48,0.44895
6883.69,0.45094
6877.91,0.45482
6872.12,0.44930
6866.33,0.45556
6860.55,0.44545
6854.76,0.44986
6848.97,0.44654
6843.19,0.45283
6837.4,0.44714
6831.62,0.45197
6825.83,0.44470
6820.04,0.44322
6814.26,0.44724
6808.47,0.45227
6802.68,0.44797
6796.9,0.44564
6791.11,0.45086
6785.33,0.44761
6779.54,0.44376
6773.75,0.44488
6767.97,0.44925
6762.18,0.44806
6756.39,0.44862
6750.61,0.45108
6744.82,0.45410
6739.04,0.44505
6733.25,0.44777
6727.46,0.45413
6721.68,0.45177
6715.89,0.44892
6710.1,0.44999
6704.32,0.45468
6698.53,0.45489
6692.75,0.45485
6686.96,0.45374
6681.17,0.44984
6675.39,0.45419
6669.6,0.44934
6663.82,0.45260
6658.03,0.45375
6652.24,0.45459
6646.46,0.45437
6640.67,0.46144
6634.88,0.46309
6629.1,0.46481
6623.31,0.46945
6617.53,0.46157
6611.74,0.45998
6605.95,0.46483
6600.17,0.47244
6594.38,0.46708
6588.59,0.46957
6582.81,0.47019
6577.02,0.46711
6571.24,0.46575
6565.45,0.47137
6559.66,0.47676
6553.88,0.47365
6548.09,0.47527
6542.3,0.47137
6536.52,0.47675
6530.73,0.47647
6524.95,0.47122
6519.16,0.47518
6513.37,0.47645
6507.59,0.47523
6501.8,0.47291
6496.01,0.47937
6490.23,0.47834
6484.44,0.47524
6478.66,0.47582
6472.87,0.47616
6467.08,0.47690
6461.3,0.47648
6455.51,0.47678
6449.72,0.48104
6443.94,0.48232
6438.15,0.48061
6432.37,0.48462
6426.58,0.48453
6420.79,0.48231
6415.01,0.48260
6409.22,0.48708
6403.43,0.48817
6397.65,0.48769
6391.86,0.48462
6386.08,0.48308
6380.29,0.48613
6374.5,0.48669
6368.72,0.48916
6362.93,0.48694
6357.14,0.49175
6351.36,0.48995
6345.57,0.49006
6339.79,0.49345
6334,0.49241
6328.21,0.48803
6322.43,0.49197
6316.64,0.48895
6310.85,0.49280
6305.07,0.49472
6299.28,0.49620
6293.5,0.49321
6287.71,0.49262
6281.92,0.49418
6276.14,0.49650
6270.35,0.50163
6264.56,0.49823
6258.78,0.49981
6252.99,0.50236
6247.21,0.50717
6241.42,0.50875
6235.63,0.50998
6229.85,0.51650
6224.06,0.51461
6218.27,0.51636
6212.49,0.51678
6206.7,0.51697
6200.92,0.52027
6195.13,0.52392
6189.34,0.52600
6183.56,0.52927
6177.77,0.52743
6171.98,0.53006
6166.2,0.52969
6160.41,0.53096
6154.63,0.53637
6148.84,0.53830
6143.05,0.53701
6137.27,0.53668
6131.48,0.53719
6125.7,0.54112
6119.91,0.54193
6114.12,0.53847
6108.34,0.54402
6102.55,0.54337
6096.76,0.54501
6090.98,0.54233
6085.19,0.54457
6079.41,0.54303
6073.62,0.54490
6067.83,0.54313
6062.05,0.53986
6056.26,0.54411
6050.47,0.53853
6044.69,0.54306
6038.9,0.53847
6033.12,0.54051
6027.33,0.53852
6021.54,0.53697
6015.76,0.53598
6009.97,0.53499
6004.18,0.53120
5998.4,0.53003
5992.61,0.53376
5986.83,0.53126
5981.04,0.53094
5975.25,0.53157
5969.47,0.52790
5963.68,0.52525
5957.89,0.52360
5952.11,0.52110
5946.32,0.52277
5940.54,0.52347
5934.75,0.52531
5928.96,0.52330
5923.18,0.52407
5917.39,0.52198
5911.6,0.52077
5905.82,0.51833
5900.03,0.51715
5894.25,0.51515
5888.46,0.51559
5882.67,0.51395
5876.89,0.51230
5871.1,0.50897
5865.31,0.51122
5859.53,0.51044
5853.74,0.50984
5847.96,0.51025
5842.17,0.50938
5836.38,0.50626
5830.6,0.50468
5824.81,0.50329
5819.02,0.50173
5813.24,0.49891
5807.45,0.49555
5801.67,0.49850
5795.88,0.49818
5790.09,0.49694
5784.31,0.50029
5778.52,0.50280
5772.73,0.50447
5766.95,0.50526
5761.16,0.50654
5755.38,0.50836
5749.59,0.51033
5743.8,0.51095
5738.02,0.51148
5732.23,0.51270
5726.44,0.51013
5720.66,0.51078
5714.87,0.51138
5709.09,0.51304
5703.3,0.51093
5697.51,0.51061
5691.73,0.50851
5685.94,0.51449
5680.15,0.51036
5674.37,0.50876
5668.58,0.50978
5662.8,0.50760
5657.01,0.50911
5651.22,0.50896
5645.44,0.50848
5639.65,0.50680
5633.87,0.50831
5628.08,0.50874
5622.29,0.50936
5616.51,0.50907
5610.72,0.51204
5604.93,0.51093
5599.15,0.51095
5593.36,0.50894
5587.58,0.51065
5581.79,0.51036
5576,0.51033
5570.22,0.51010
5564.43,0.51102
5558.64,0.51167
5552.86,0.51482
5547.07,0.51487
5541.29,0.51496
5535.5,0.51652
5529.71,0.51496
5523.93,0.51465
5518.14,0.51281
5512.35,0.51275
5506.57,0.51536
5500.78,0.51576
5495,0.51643
5489.21,0.51655
5483.42,0.51728
5477.64,0.51753
5471.85,0.51771
5466.06,0.51836
5460.28,0.51952
5454.49,0.52140
5448.71,0.52211
5442.92,0.52339
5437.13,0.52511
5431.35,0.52763
5425.56,0.52931
5419.77,0.52905
5413.99,0.53059
5408.2,0.53116
5402.42,0.53219
5396.63,0.53290
5390.84,0.53325
5385.06,0.53355
5379.27,0.53477
5373.48,0.53513
5367.7,0.53508
5361.91,0.53412
5356.13,0.53377
5350.34,0.53357
5344.55,0.53418
5338.77,0.53040
5332.98,0.52861
5327.19,0.52724
5321.41,0.52244
5315.62,0.51744
5309.84,0.51494
5304.05,0.50986
5298.26,0.50327
5292.48,0.49519
5286.69,0.48690
5280.9,0.47788
5275.12,0.46773
5269.33,0.45631
5263.55,0.44880
5257.76,0.43926
5251.97,0.42860
5246.19,0.42303
5240.4,0.41541
5234.61,0.40905
5228.83,0.40578
5223.04,0.40107
5217.26,0.39699
5211.47,0.39507
5205.68,0.39648
5199.9,0.39442
5194.11,0.39437
5188.32,0.39399
5182.54,0.39668
5176.75,0.39723
5170.97,0.39898
5165.18,0.40142
5159.39,0.40445
5153.61,0.40689
5147.82,0.41139
5142.03,0.41193
5136.25,0.41660
5130.46,0.41966
5124.68,0.42284
5118.89,0.42568
5113.1,0.43002
5107.32,0.43153
5101.53,0.43387
5095.75,0.43478
5089.96,0.43792
5084.17,0.44137
5078.39,0.44407
5072.6,0.44487
5066.81,0.44931
5061.03,0.45180
5055.24,0.45235
5049.46,0.45688
5043.67,0.45773
5037.88,0.45916
5032.1,0.46107
5026.31,0.46000
5020.52,0.46244
5014.74,0.46366
5008.95,0.46306
5003.17,0.46248
4997.38,0.46187
4991.59,0.46081
4985.81,0.45962
4980.02,0.45757
4974.23,0.45477
4968.45,0.45094
4962.66,0.44723
4956.88,0.44214
4951.09,0.43966
4945.3,0.43360
4939.52,0.42833
4933.73,0.42316
4927.94,0.41589
4922.16,0.41163
4916.37,0.40775
4910.59,0.40120
4904.8,0.39595
4899.01,0.39028
4893.23,0.38716
4887.44,0.38162
4881.65,0.37856
4875.87,0.37319
4870.08,0.36868
4864.3,0.36439
4858.51,0.35999
4852.72,0.35702
4846.94,0.35387
4841.15,0.35052
4835.36,0.34717
4829.58,0.34476
4823.79,0.34160
4818.01,0.33848
4812.22,0.33716
4806.43,0.33578
4800.65,0.33403
4794.86,0.33282
4789.07,0.33204
4783.29,0.33148
4777.5,0.33064
4771.72,0.33007
4765.93,0.32965
4760.14,0.32969
4754.36,0.32892
4748.57,0.33024
4742.78,0.33030
4737,0.33125
4731.21,0.33125
4725.43,0.33163
4719.64,0.33316
4713.85,0.33417
4708.07,0.33376
4702.28,0.33480
4696.49,0.33601
4690.71,0.33841
4684.92,0.34066
4679.14,0.34205
4673.35,0.34390
4667.56,0.34557
4661.78,0.34832
4655.99,0.35172
4650.2,0.35394
4644.42,0.35605
4638.63,0.35849
4632.85,0.35909
4627.06,0.36181
4621.27,0.36393
4615.49,0.36705
4609.7,0.36922
4603.92,0.37054
4598.13,0.37321
4592.34,0.37391
4586.56,0.37586
4580.77,0.37749
4574.98,0.37929
4569.2,0.37979
4563.41,0.38167
4557.63,0.38202
4551.84,0.38249
4546.05,0.38515
4540.27,0.38578
4534.48,0.38641
4528.69,0.38767
4522.91,0.38754
4517.12,0.38752
4511.34,0.38627
4505.55,0.38509
4499.76,0.38362
4493.98,0.37993
4488.19,0.37537
4482.4,0.37072
4476.62,0.36566
4470.83,0.35895
4465.05,0.35092
4459.26,0.34374
4453.47,0.33698
4447.69,0.33018
4441.9,0.32294
4436.11,0.31704
4430.33,0.31194
4424.54,0.30729
4418.76,0.30326
4412.97,0.29900
4407.18,0.29685
4401.4,0.29468
4395.61,0.29525
4389.82,0.29677
4384.04,0.29803
4378.25,0.29987
4372.47,0.30319
4366.68,0.30487
4360.89,0.30639
4355.11,0.30682
4349.32,0.30527
4343.53,0.30455
4337.75,0.30202
4331.96,0.29948
4326.18,0.29716
4320.39,0.29557
4314.6,0.29492
4308.82,0.29380
4303.03,0.29156
4297.24,0.29040
4291.46,0.28908
4285.67,0.28747
4279.89,0.28734
4274.1,0.28801
4268.31,0.28844
4262.53,0.28926
4256.74,0.29021
4250.95,0.29118
4245.17,0.29165
4239.38,0.29219
4233.6,0.29265
4227.81,0.29357
4222.02,0.29426
4216.24,0.29462
4210.45,0.29491
4204.66,0.29562
4198.88,0.29640
4193.09,0.29709
4187.31,0.29698
4181.52,0.29686
4175.73,0.29861
4169.95,0.30020
4164.16,0.30202
4158.37,0.30075
4152.59,0.30098
4146.8,0.30016
4141.02,0.29828
4135.23,0.29631
4129.44,0.29383
4123.66,0.29105
4117.87,0.28741
4112.09,0.28424
4106.3,0.28011
4100.51,0.27721
4094.73,0.27264
4088.94,0.26756
4083.15,0.26394
4077.37,0.25902
4071.58,0.25539
4065.8,0.25067
4060.01,0.24630
4054.22,0.24235
4048.44,0.23882
4042.65,0.23574
4036.86,0.23321
4031.08,0.23034
4025.29,0.22925
4019.51,0.22815
4013.72,0.22945
4007.93,0.22967
4002.15,0.23085
3996.36,0.23129
3990.57,0.23282
3984.79,0.23395
3979,0.23493
3973.22,0.23709
3967.43,0.23808
3961.64,0.24100
3955.86,0.24353
3950.07,0.24555
3944.28,0.24748
3938.5,0.24961
3932.71,0.25188
3926.93,0.25469
3921.14,0.25708
3915.35,0.25871
3909.57,0.26105
3903.78,0.26440
3897.99,0.26557
3892.21,0.26740
3886.42,0.26966
3880.64,0.27127
3874.85,0.27215
3869.06,0.27516
3863.28,0.27793
3857.49,0.28148
3851.7,0.28306
3845.92,0.28616
3840.13,0.28767
3834.35,0.28890
3828.56,0.29005
3822.77,0.29121
3816.99,0.29165
3811.2,0.29172
3805.41,0.29210
3799.63,0.29200
3793.84,0.29184
3788.06,0.29190
3782.27,0.29162
3776.48,0.29007
3770.7,0.29038
3764.91,0.28829
3759.12,0.28677
3753.34,0.28533
3747.55,0.28332
3741.77,0.28057
3735.98,0.27829
3730.19,0.27438
3724.41,0.26984
3718.62,0.26512
3712.83,0.25900
3707.05,0.25173
3701.26,0.24341
3695.48,0.23385
3689.69,0.22274
3683.9,0.20849
3678.12,0.19558
3672.33,0.17908
3666.54,0.16342
3660.76,0.15007
3654.97,0.13669
3649.19,0.12636
3643.4,0.11585
3637.61,0.10710
3631.83,0.09933
3626.04,0.09147
3620.25,0.08538
3614.47,0.07951
3608.68,0.07376
3602.9,0.06818
3597.11,0.06424
3591.32,0.05964
3585.54,0.05530
3579.75,0.05342
3573.97,0.04977
3568.18,0.04701
3562.39,0.04581
3556.61,0.04425
3550.82,0.04192
3545.03,0.04078
3539.25,0.03888
3533.46,0.03896
3527.68,0.03695
3521.89,0.03625
3516.1,0.03525
3510.32,0.03404
3504.53,0.03417
3498.74,0.03330
3492.96,0.03257
3487.17,0.03195
3481.39,0.03183
3475.6,0.03117
3469.81,0.03075
3464.03,0.03092
3458.24,0.03039
3452.45,0.02988
3446.67,0.03007
3440.88,0.02996
3435.1,0.02970
3429.31,0.02995
3423.52,0.02986
3417.74,0.03003
3411.95,0.02944
3406.16,0.02992
3400.38,0.03051
3394.59,0.03060
3388.81,0.03124
3383.02,0.03070
3377.23,0.02969
3371.45,0.03044
3365.66,0.03027
3359.87,0.03128
3354.09,0.03121
3348.3,0.03132
3342.52,0.03129
3336.73,0.03230
3330.94,0.03314
3325.16,0.03307
3319.37,0.03384
3313.58,0.03388
3307.8,0.03440
3302.01,0.03491
3296.23,0.03508
3290.44,0.03556
3284.65,0.03643
3278.87,0.03640
3273.08,0.03800
3267.29,0.03839
3261.51,0.03959
3255.72,0.04011
3249.94,0.04213
3244.15,0.04225
3238.36,0.04308
3232.58,0.04505
3226.79,0.04569
3221,0.04638
3215.22,0.04761
3209.43,0.04911
3203.65,0.05042
3197.86,0.05179
3192.07,0.05298
3186.29,0.05550
3180.5,0.05655
3174.71,0.05731
3168.93,0.05906
3163.14,0.06096
3157.36,0.06258
3151.57,0.06453
3145.78,0.06592
3140,0.06694
3134.21,0.06887
3128.42,0.06966
3122.64,0.07131
3116.85,0.07300
3111.07,0.07484
3105.28,0.07639
3099.49,0.07757
3093.71,0.07949
3087.92,0.08004
3082.14,0.08113
3076.35,0.08291
3070.56,0.08402
3064.78,0.08548
3058.99,0.08703
3053.2,0.08865
3047.42,0.08940
3041.63,0.08980
3035.85,0.09028
3030.06,0.08987
3024.27,0.08923
3018.49,0.08686
3012.7,0.08518
3006.91,0.08249
3001.13,0.08013
2995.34,0.07761
2989.56,0.07443
2983.77,0.07078
2977.98,0.06625
2972.2,0.06130
2966.41,0.05815
2960.62,0.05579
2954.84,0.05381
2949.05,0.05162
2943.27,0.05023
2937.48,0.04987
2931.69,0.04940
2925.91,0.04909
2920.12,0.04884
2914.33,0.04845
2908.55,0.04891
2902.76,0.04975
2896.98,0.05049
2891.19,0.05216
2885.4,0.05281
2879.62,0.05390
2873.83,0.05442
2868.04,0.05624
2862.26,0.05724
2856.47,0.05795
2850.69,0.05921
2844.9,0.06302
2839.11,0.06749
2833.33,0.07320
2827.54,0.07896
2821.75,0.08412
2815.97,0.08752
2810.18,0.09188
2804.4,0.09467
2798.61,0.09751
2792.82,0.09976
2787.04,0.10119
2781.25,0.10218
2775.46,0.10383
2769.68,0.10508
2763.89,0.10612
2758.11,0.10635
2752.32,0.10786
2746.53,0.10765
2740.75,0.10798
2734.96,0.10864
2729.17,0.10928
2723.39,0.11066
2717.6,0.11181
2711.82,0.11403
2706.03,0.11643
2700.24,0.11768
2694.46,0.12043
2688.67,0.12207
2682.88,0.12393
2677.1,0.12550
2671.31,0.12664
2665.53,0.12767
2659.74,0.12895
2653.95,0.12934
2648.17,0.13106
2642.38,0.13221
2636.59,0.13354
2630.81,0.13512
2625.02,0.13663
2619.24,0.13859
2613.45,0.13975
2607.66,0.14111
2601.88,0.14216
2596.09,0.14387
2590.3,0.14472
2584.52,0.14578
2578.73,0.14673
2572.95,0.14685
2567.16,0.14682
2561.37,0.14696
2555.59,0.14714
2549.8,0.14762
2544.02,0.14771
2538.23,0.14853
2532.44,0.14893
2526.66,0.15038
2520.87,0.15105
2515.08,0.15195
2509.3,0.15343
2503.51,0.15523
2497.73,0.15716
2491.94,0.15892
2486.15,0.16020
2480.37,0.16176
2474.58,0.16326
2468.79,0.16473
2463.01,0.16616
2457.22,0.16741
2451.44,0.16885
2445.65,0.17064
2439.86,0.17255
2434.08,0.17493
2428.29,0.17680
2422.5,0.17883
2416.72,0.18150
2410.93,0.18394
2405.15,0.18620
2399.36,0.18847
2393.57,0.19000
2387.79,0.19159
2382,0.19366
2376.21,0.19563
2370.43,0.19709
2364.64,0.19909
2358.86,0.20076
2353.07,0.20294
2347.28,0.20443
2341.5,0.20606
2335.71,0.20755
2329.92,0.20876
2324.14,0.20977
2318.35,0.21036
2312.57,0.21027
2306.78,0.20969
2300.99,0.20916
2295.21,0.20875
2289.42,0.20836
2283.63,0.20828
2277.85,0.20745
2272.06,0.20615
2266.28,0.20439
2260.49,0.20200
2254.7,0.20020
2248.92,0.19875
2243.13,0.19760
2237.34,0.19755
2231.56,0.19791
2225.77,0.19853
2219.99,0.19915
2214.2,0.19994
2208.41,0.20006
2202.63,0.19939
2196.84,0.19830
2191.05,0.19578
2185.27,0.19268
2179.48,0.18965
2173.7,0.18583
2167.91,0.18256
2162.12,0.17950
2156.34,0.17725
2150.55,0.17600
2144.76,0.17459
2138.98,0.17411
2133.19,0.17334
2127.41,0.17395
2121.62,0.17488
2115.83,0.17576
2110.05,0.17679
2104.26,0.17817
2098.47,0.17975
2092.69,0.18137
2086.9,0.18240
2081.12,0.18293
2075.33,0.18302
2069.54,0.18243
2063.76,0.18311
2057.97,0.18364
2052.19,0.18429
2046.4,0.18571
2040.61,0.18691
2034.83,0.18897
2029.04,0.19145
2023.25,0.19475
2017.47,0.19794
2011.68,0.20074
2005.9,0.20328
2000.11,0.20484
1994.32,0.20677
1988.54,0.20817
1982.75,0.20897
1976.96,0.20891
1971.18,0.20854
1965.39,0.20739
1959.61,0.20699
1953.82,0.20711
1948.03,0.20825
1942.25,0.21073
1936.46,0.21374
1930.67,0.21693
1924.89,0.21959
1919.1,0.22230
1913.32,0.22398
1907.53,0.22548
1901.74,0.22607
1895.96,0.22673
1890.17,0.22695
1884.38,0.22646
1878.6,0.22607
1872.81,0.22461
1867.03,0.22264
1861.24,0.22012
1855.45,0.21711
1849.67,0.21360
1843.88,0.21017
1838.09,0.20591
1832.31,0.20124
1826.52,0.19637
1820.74,0.19072
1814.95,0.18432
1809.16,0.17679
1803.38,0.16812
1797.59,0.15815
1791.8,0.14800
1786.02,0.13614
1780.23,0.12161
1774.45,0.10503
1768.66,0.08477
1762.87,0.07007
1757.09,0.06105
1751.3,0.05716
1745.51,0.05445
1739.73,0.05405
1733.94,0.05467
1728.16,0.05622
1722.37,0.05906
1716.58,0.06345
1710.8,0.06849
1705.01,0.07335
1699.22,0.07740
1693.44,0.07962
1687.65,0.08095
1681.87,0.07969
1676.08,0.07739
1670.29,0.07456
1664.51,0.07211
1658.72,0.07076
1652.93,0.06994
1647.15,0.06922
1641.36,0.06899
1635.58,0.06891
1629.79,0.06735
1624,0.06564
1618.22,0.06277
1612.43,0.05872
1606.64,0.05515
1600.86,0.05285
1595.07,0.04970
1589.29,0.05232
1583.5,0.06087
1577.71,0.07191
1571.93,0.08348
1566.14,0.09197
1560.35,0.09712
1554.57,0.09913
1548.78,0.09867
1543,0.09750
1537.21,0.09492
1531.42,0.09061
1525.64,0.08215
1519.85,0.06807
1514.07,0.05832
1508.28,0.05381
1502.49,0.05161
1496.71,0.05608
1490.92,0.05997
1485.13,0.05948
1479.35,0.05440
1473.56,0.04633
1467.78,0.04032
1461.99,0.03894
1456.2,0.03960
1450.42,0.04051
1444.63,0.04119
1438.84,0.04067
1433.06,0.03934
1427.27,0.03893
1421.49,0.04070
1415.7,0.04330
1409.91,0.04522
1404.13,0.04585
1398.34,0.04488
1392.55,0.04207
1386.77,0.03836
1380.98,0.03517
1375.2,0.03339
1369.41,0.03365
1363.62,0.03442
1357.84,0.03529
1352.05,0.03540
1346.26,0.03491
1340.48,0.03371
1334.69,0.03333
1328.91,0.03350
1323.12,0.03389
1317.33,0.03410
1311.55,0.03563
1305.76,0.03762
1299.97,0.03814
1294.19,0.03720
1288.4,0.03554
1282.62,0.03373
1276.83,0.03291
1271.04,0.03122
1265.26,0.03090
1259.47,0.03009
1253.68,0.02950
1247.9,0.02914
1242.11,0.03009
1236.33,0.03038
1230.54,0.03121
1224.75,0.03280
1218.97,0.03405
1213.18,0.03510
1207.39,0.03512
1201.61,0.03556
1195.82,0.03559
1190.04,0.03532
1184.25,0.03271
1178.46,0.03054
1172.68,0.02885
1166.89,0.02908
1161.1,0.03098
1155.32,0.03113
1149.53,0.03068
1143.75,0.02878
1137.96,0.02667
1132.17,0.02628
1126.39,0.02730
1120.6,0.02865
1114.81,0.02961
1109.03,0.03105
1103.24,0.03128
1097.46,0.03081
1091.67,0.03081
1085.88,0.03106
1080.1,0.03164
1074.31,0.03297
1068.52,0.03604
1062.74,0.04095
1056.95,0.04365
1051.17,0.04304
1045.38,0.04318
1039.59,0.04390
1033.81,0.04617
1028.02,0.04741
1022.24,0.04661
1016.45,0.04811
1010.66,0.04950
1004.88,0.04920
999.09,0.05044
993.304,0.05142
987.518,0.05295
981.731,0.05809
975.945,0.06237
970.159,0.06510
964.373,0.06952
958.586,0.07586
952.8,0.08143
947.014,0.08663
941.228,0.08838
935.441,0.08721
929.655,0.08587
923.869,0.08474
918.083,0.08341
912.297,0.08155
906.51,0.07825
900.724,0.07475
894.938,0.07654
889.152,0.08197
883.365,0.08642
877.579,0.08933
871.793,0.09181
866.007,0.09422
860.22,0.09676
854.434,0.09566
848.648,0.09401
842.862,0.09289
837.075,0.09236
831.289,0.09166
825.503,0.09372
819.717,0.09509
813.931,0.09673
808.144,0.09637
802.358,0.09584
796.572,0.09493
790.786,0.09422
784.999,0.09296
779.213,0.08997
773.427,0.08530
767.641,0.08297
761.854,0.08075
756.068,0.07772
750.282,0.07665
744.496,0.07426
738.709,0.07222
732.923,0.06967
727.137,0.06671
721.351,0.06407
715.565,0.06258
709.778,0.06275
703.992,0.06166
698.206,0.06185
692.42,0.06074
686.633,0.05932
680.847,0.05675
675.061,0.05378
669.275,0.05470
663.488,0.05422
657.702,0.05615
651.916,0.05500
646.13,0.05445
640.343,0.05301
634.557,0.05100
628.771,0.05121
622.985,0.05115
617.198,0.04961
611.412,0.05104
605.626,0.05123
599.84,0.05240