File: 01_Data/Excelsior/FTIR/IS/Excelsior_IS_S_221109_R1.dpt
7497.03,0.65610
7491.25,0.65726
7485.46,0.65101
7479.67,0.64609
7473.89,0.63835
7468.1,0.62550
7462.32,0.64437
7456.53,0.63182
7450.74,0.64394
7444.96,0.64678
7439.17,0.63439
7433.38,0.63175
7427.6,0.63374
7421.81,0.62906
7416.03,0.62313
7410.24,0.61689
7404.45,0.62156
7398.67,0.61592
7392.88,0.61517
7387.09,0.62128
7381.31,0.61845
7375.52,0.62141
7369.74,0.62716
7363.95,0.61208
7358.16,0.61508
7352.38,0.62259
7346.59,0.62095
7340.8,0.61547
7335.02,0.59619
7329.23,0.59879
7323.45,0.60028
7317.66,0.59770
7311.87,0.60212
7306.09,0.59993
7300.3,0.59865
7294.51,0.59699
7288.73,0.59820
7282.94,0.60940
7277.16,0.60682
7271.37,0.60745
7265.58,0.59276
7259.8,0.59988
7254.01,0.60455
7248.22,0.59450
7242.44,0.59676
7236.65,0.59917
7230.87,0.59573
7225.08,0.60067
7219.29,0.59664
7213.51,0.59486
7207.72,0.58631
7201.93,0.58124
7196.15,0.58145
7190.36,0.58095
7184.58,0.58848
7178.79,0.58356
7173,0.57652
7167.22,0.57206
7161.43,0.57326
7155.65,0.57650
7149.86,0.57025
7144.07,0.56210
7138.29,0.56104
7132.5,0.56048
7126.71,0.54812
7120.93,0.55722
7115.14,0.54621
7109.36,0.53914
7103.57,0.54475
7097.78,0.53434
7092,0.53099
7086.21,0.52027
7080.42,0.52843
7074.64,0.52214
7068.85,0.50853
7063.07,0.51145
7057.28,0.49483
7051.49,0.50206
7045.71,0.49614
7039.92,0.48986
7034.13,0.48492
7028.35,0.48230
7022.56,0.48009
7016.78,0.47487
7010.99,0.46376
7005.2,0.46083
6999.42,0.45942
6993.63,0.45761
6987.84,0.45455
6982.06,0.45869
6976.27,0.44950
6970.49,0.45440
6964.7,0.44893
6958.91,0.44822
6953.13,0.44700
6947.34,0.45233
6941.55,0.45183
6935.77,0.44656
6929.98,0.44441
6924.2,0.45062
6918.41,0.44723
6912.62,0.44473
6906.84,0.44323
6901.05,0.44708
6895.26,0.44320
6889.48,0.44418
6883.69,0.44246
6877.91,0.43632
6872.12,0.44169
6866.33,0.44866
6860.55,0.44226
6854.76,0.44317
6848.97,0.44247
6843.19,0.44556
6837.4,0.43952
6831.62,0.44570
6825.83,0.44277
6820.04,0.44413
6814.26,0.44135
6808.47,0.43986
6802.68,0.44098
6796.9,0.44791
6791.11,0.44262
6785.33,0.44314
6779.54,0.44099
6773.75,0.43974
6767.97,0.44447
6762.18,0.44031
6756.39,0.44087
6750.61,0.44234
6744.82,0.43828
6739.04,0.44391
6733.25,0.44608
6727.46,0.44710
6721.68,0.44160
6715.89,0.44729
6710.1,0.44826
6704.32,0.44544
6698.53,0.44936
6692.75,0.45097
6686.96,0.45031
6681.17,0.44692
6675.39,0.45194
6669.6,0.45289
6663.82,0.44895
6658.03,0.45156
6652.24,0.44863
6646.46,0.44476
6640.67,0.45104
6634.88,0.44928
6629.1,0.45346
6623.31,0.46036
6617.53,0.46004
6611.74,0.45794
6605.95,0.45778
6600.17,0.46051
6594.38,0.46101
6588.59,0.45858
6582.81,0.46215
6577.02,0.46242
6571.24,0.45953
6565.45,0.46644
6559.66,0.46630
6553.88,0.46671
6548.09,0.46943
6542.3,0.46468
6536.52,0.46938
6530.73,0.47008
6524.95,0.47174
6519.16,0.46937
6513.37,0.46923
6507.59,0.46911
6501.8,0.46899
6496.01,0.47358
6490.23,0.47285
6484.44,0.47338
6478.66,0.46971
6472.87,0.46744
6467.08,0.47356
6461.3,0.47295
6455.51,0.47112
6449.72,0.47200
6443.94,0.47438
6438.15,0.47761
6432.37,0.47192
6426.58,0.47446
6420.79,0.48007
6415.01,0.47538
6409.22,0.47805
6403.43,0.47564
6397.65,0.48124
6391.86,0.47874
6386.08,0.47712
6380.29,0.47445
6374.5,0.47556
6368.72,0.47587
6362.93,0.48146
6357.14,0.48120
6351.36,0.47945
6345.57,0.48247
6339.79,0.48484
6334,0.48467
6328.21,0.48323
6322.43,0.48604
6316.64,0.48621
6310.85,0.48644
6305.07,0.48530
6299.28,0.48835
6293.5,0.49023
6287.71,0.49036
6281.92,0.48774
6276.14,0.49061
6270.35,0.49292
6264.56,0.49378
6258.78,0.49578
6252.99,0.49767
6247.21,0.49827
6241.42,0.50138
6235.63,0.50310
6229.85,0.51019
6224.06,0.50765
6218.27,0.50968
6212.49,0.51273
6206.7,0.51297
6200.92,0.51767
6195.13,0.51579
6189.34,0.52074
6183.56,0.52097
6177.77,0.52157
6171.98,0.52528
6166.2,0.52877
6160.41,0.52416
6154.63,0.53082
6148.84,0.53095
6143.05,0.53098
6137.27,0.53288
6131.48,0.53225
6125.7,0.53273
6119.91,0.53243
6114.12,0.53261
6108.34,0.53701
6102.55,0.53831
6096.76,0.53453
6090.98,0.53374
6085.19,0.53675
6079.41,0.53527
6073.62,0.53667
6067.83,0.53456
6062.05,0.53733
6056.26,0.53518
6050.47,0.53481
6044.69,0.53487
6038.9,0.53728
6033.12,0.53637
6027.33,0.52893
6021.54,0.53221
6015.76,0.53195
6009.97,0.52726
6004.18,0.52792
5998.4,0.52555
5992.61,0.52381
5986.83,0.52467
5981.04,0.52423
5975.25,0.52375
5969.47,0.52138
5963.68,0.52289
5957.89,0.52497
5952.11,0.52325
5946.32,0.51793
5940.54,0.51769
5934.75,0.51704
5928.96,0.51661
5923.18,0.51910
5917.39,0.51822
5911.6,0.51738
5905.82,0.51283
5900.03,0.51269
5894.25,0.50989
5888.46,0.50971
5882.67,0.50697
5876.89,0.50803
5871.1,0.50452
5865.31,0.50437
5859.53,0.50690
5853.74,0.50659
5847.96,0.50585
5842.17,0.50477
5836.38,0.50431
5830.6,0.50053
5824.81,0.49568
5819.02,0.49794
5813.24,0.49593
5807.45,0.49312
5801.67,0.49488
5795.88,0.49378
5790.09,0.49667
5784.31,0.49718
5778.52,0.49925
5772.73,0.50156
5766.95,0.50287
5761.16,0.50475
5755.38,0.50625
5749.59,0.50427
5743.8,0.50497
5738.02,0.50442
5732.23,0.50784
5726.44,0.50899
5720.66,0.50781
5714.87,0.50680
5709.09,0.50492
5703.3,0.50720
5697.51,0.50521
5691.73,0.50436
5685.94,0.50542
5680.15,0.50334
5674.37,0.50231
5668.58,0.50517
5662.8,0.50350
5657.01,0.50153
5651.22,0.50353
5645.44,0.50671
5639.65,0.50420
5633.87,0.50400
5628.08,0.50558
5622.29,0.50367
5616.51,0.50130
5610.72,0.50160
5604.93,0.50243
5599.15,0.50307
5593.36,0.50373
5587.58,0.50399
5581.79,0.50365
5576,0.50522
5570.22,0.50339
5564.43,0.50625
5558.64,0.50699
5552.86,0.50778
5547.07,0.50873
5541.29,0.50741
5535.5,0.50686
5529.71,0.50682
5523.93,0.50826
5518.14,0.50821
5512.35,0.50892
5506.57,0.51154
5500.78,0.51046
5495,0.51205
5489.21,0.51038
5483.42,0.51264
5477.64,0.51199
5471.85,0.51198
5466.06,0.51271
5460.28,0.51419
5454.49,0.51524
5448.71,0.51652
5442.92,0.51779
5437.13,0.51755
5431.35,0.52008
5425.56,0.52203
5419.77,0.52336
5413.99,0.52431
5408.2,0.52521
5402.42,0.52604
5396.63,0.52606
5390.84,0.52645
5385.06,0.52704
5379.27,0.52627
5373.48,0.52592
5367.7,0.52637
5361.91,0.52539
5356.13,0.52635
5350.34,0.52375
5344.55,0.52433
5338.77,0.52172
5332.98,0.51827
5327.19,0.51711
5321.41,0.51056
5315.62,0.50829
5309.84,0.50311
5304.05,0.49604
5298.26,0.48866
5292.48,0.48029
5286.69,0.47100
5280.9,0.46074
5275.12,0.45012
5269.33,0.43921
5263.55,0.42769
5257.76,0.41753
5251.97,0.40943
5246.19,0.39959
5240.4,0.39247
5234.61,0.38512
5228.83,0.38165
5223.04,0.37843
5217.26,0.37447
5211.47,0.37199
5205.68,0.37133
5199.9,0.37084
5194.11,0.36954
5188.32,0.37083
5182.54,0.37098
5176.75,0.37191
5170.97,0.37553
5165.18,0.37718
5159.39,0.38177
5153.61,0.38393
5147.82,0.38680
5142.03,0.38938
5136.25,0.39214
5130.46,0.39627
5124.68,0.40025
5118.89,0.40298
5113.1,0.40593
5107.32,0.40750
5101.53,0.41041
5095.75,0.41543
5089.96,0.41755
5084.17,0.41948
5078.39,0.42212
5072.6,0.42484
5066.81,0.42855
5061.03,0.43118
5055.24,0.43336
5049.46,0.43558
5043.67,0.43620
5037.88,0.44027
5032.1,0.44045
5026.31,0.44355
5020.52,0.44431
5014.74,0.44631
5008.95,0.44631
5003.17,0.44605
4997.38,0.44601
4991.59,0.44655
4985.81,0.44562
4980.02,0.44357
4974.23,0.44285
4968.45,0.44066
4962.66,0.43662
4956.88,0.43355
4951.09,0.42995
4945.3,0.42528
4939.52,0.42032
4933.73,0.41593
4927.94,0.41176
4922.16,0.40682
4916.37,0.40149
4910.59,0.39749
4904.8,0.39368
4899.01,0.38768
4893.23,0.38367
4887.44,0.37832
4881.65,0.37349
4875.87,0.36970
4870.08,0.36523
4864.3,0.36264
4858.51,0.35805
4852.72,0.35483
4846.94,0.35285
4841.15,0.34863
4835.36,0.34593
4829.58,0.34274
4823.79,0.33956
4818.01,0.33754
4812.22,0.33550
4806.43,0.33399
4800.65,0.33178
4794.86,0.33103
4789.07,0.32962
4783.29,0.33031
4777.5,0.32931
4771.72,0.32756
4765.93,0.32782
4760.14,0.32747
4754.36,0.32713
4748.57,0.32765
4742.78,0.32782
4737,0.32836
4731.21,0.32858
4725.43,0.33028
4719.64,0.33012
4713.85,0.33089
4708.07,0.33238
4702.28,0.33377
4696.49,0.33353
4690.71,0.33533
4684.92,0.33689
4679.14,0.33933
4673.35,0.34088
4667.56,0.34247
4661.78,0.34532
4655.99,0.34744
4650.2,0.35101
4644.42,0.35301
4638.63,0.35520
4632.85,0.35707
4627.06,0.35952
4621.27,0.36204
4615.49,0.36361
4609.7,0.36447
4603.92,0.36716
4598.13,0.36939
4592.34,0.37056
4586.56,0.37235
4580.77,0.37490
4574.98,0.37508
4569.2,0.37642
4563.41,0.37737
4557.63,0.37896
4551.84,0.37964
4546.05,0.38137
4540.27,0.38198
4534.48,0.38346
4528.69,0.38369
4522.91,0.38352
4517.12,0.38303
4511.34,0.38321
4505.55,0.38146
4499.76,0.37992
4493.98,0.37668
4488.19,0.37326
4482.4,0.36829
4476.62,0.36190
4470.83,0.35577
4465.05,0.34833
4459.26,0.34142
4453.47,0.33464
4447.69,0.32804
4441.9,0.32156
4436.11,0.31533
4430.33,0.30938
4424.54,0.30564
4418.76,0.30135
4412.97,0.29732
4407.18,0.29536
4401.4,0.29414
4395.61,0.29349
4389.82,0.29468
4384.04,0.29677
4378.25,0.29906
4372.47,0.30197
4366.68,0.30364
4360.89,0.30484
4355.11,0.30483
4349.32,0.30367
4343.53,0.30165
4337.75,0.30040
4331.96,0.29801
4326.18,0.29650
4320.39,0.29485
4314.6,0.29236
4308.82,0.29134
4303.03,0.28957
4297.24,0.28827
4291.46,0.28733
4285.67,0.28579
4279.89,0.28474
4274.1,0.28480
4268.31,0.28655
4262.53,0.28798
4256.74,0.28832
4250.95,0.28807
4245.17,0.28866
4239.38,0.28950
4233.6,0.29117
4227.81,0.29219
4222.02,0.29230
4216.24,0.29243
4210.45,0.29336
4204.66,0.29365
4198.88,0.29376
4193.09,0.29409
4187.31,0.29455
4181.52,0.29435
4175.73,0.29574
4169.95,0.29729
4164.16,0.29825
4158.37,0.29911
4152.59,0.29755
4146.8,0.29693
4141.02,0.29499
4135.23,0.29263
4129.44,0.29043
4123.66,0.28762
4117.87,0.28448
4112.09,0.28209
4106.3,0.27758
4100.51,0.27348
4094.73,0.26967
4088.94,0.26481
4083.15,0.26122
4077.37,0.25653
4071.58,0.25180
4065.8,0.24814
4060.01,0.24401
4054.22,0.24024
4048.44,0.23640
4042.65,0.23330
4036.86,0.23074
4031.08,0.22864
4025.29,0.22597
4019.51,0.22636
4013.72,0.22624
4007.93,0.22726
4002.15,0.22846
3996.36,0.22918
3990.57,0.23058
3984.79,0.23160
3979,0.23314
3973.22,0.23437
3967.43,0.23552
3961.64,0.23807
3955.86,0.24043
3950.07,0.24207
3944.28,0.24458
3938.5,0.24681
3932.71,0.24938
3926.93,0.25106
3921.14,0.25373
3915.35,0.25592
3909.57,0.25742
3903.78,0.26057
3897.99,0.26195
3892.21,0.26349
3886.42,0.26533
3880.64,0.26682
3874.85,0.26858
3869.06,0.27105
3863.28,0.27416
3857.49,0.27641
3851.7,0.27800
3845.92,0.28094
3840.13,0.28281
3834.35,0.28387
3828.56,0.28446
3822.77,0.28582
3816.99,0.28577
3811.2,0.28577
3805.41,0.28539
3799.63,0.28599
3793.84,0.28570
3788.06,0.28521
3782.27,0.28439
3776.48,0.28269
3770.7,0.28288
3764.91,0.28044
3759.12,0.27881
3753.34,0.27756
3747.55,0.27483
3741.77,0.27142
3735.98,0.26900
3730.19,0.26460
3724.41,0.26002
3718.62,0.25485
3712.83,0.24912
3707.05,0.24094
3701.26,0.23231
3695.48,0.22194
3689.69,0.20997
3683.9,0.19561
3678.12,0.18125
3672.33,0.16554
3666.54,0.15048
3660.76,0.13686
3654.97,0.12457
3649.19,0.11384
3643.4,0.10397
3637.61,0.09670
3631.83,0.09003
3626.04,0.08242
3620.25,0.07767
3614.47,0.07253
3608.68,0.06723
3602.9,0.06364
3597.11,0.05995
3591.32,0.05543
3585.54,0.05317
3579.75,0.05067
3573.97,0.04778
3568.18,0.04617
3562.39,0.04417
3556.61,0.04288
3550.82,0.04095
3545.03,0.04007
3539.25,0.03869
3533.46,0.03804
3527.68,0.03681
3521.89,0.03541
3516.1,0.03518
3510.32,0.03438
3504.53,0.03372
3498.74,0.03264
3492.96,0.03292
3487.17,0.03262
3481.39,0.03123
3475.6,0.03116
3469.81,0.03112
3464.03,0.03048
3458.24,0.02981
3452.45,0.03016
3446.67,0.02996
3440.88,0.02979
3435.1,0.02977
3429.31,0.02979
3423.52,0.02988
3417.74,0.02967
3411.95,0.02979
3406.16,0.03005
3400.38,0.02987
3394.59,0.02981
3388.81,0.03005
3383.02,0.03048
3377.23,0.03034
3371.45,0.03081
3365.66,0.03065
3359.87,0.03086
3354.09,0.03067
3348.3,0.03121
3342.52,0.03203
3336.73,0.03191
3330.94,0.03229
3325.16,0.03280
3319.37,0.03338
3313.58,0.03381
3307.8,0.03388
3302.01,0.03480
3296.23,0.03481
3290.44,0.03559
3284.65,0.03639
3278.87,0.03686
3273.08,0.03739
3267.29,0.03808
3261.51,0.03983
3255.72,0.04046
3249.94,0.04116
3244.15,0.04242
3238.36,0.04270
3232.58,0.04409
3226.79,0.04511
3221,0.04615
3215.22,0.04717
3209.43,0.04855
3203.65,0.05022
3197.86,0.05118
3192.07,0.05215
3186.29,0.05320
3180.5,0.05484
3174.71,0.05595
3168.93,0.05717
3163.14,0.05852
3157.36,0.05987
3151.57,0.06130
3145.78,0.06271
3140,0.06485
3134.21,0.06625
3128.42,0.06755
3122.64,0.06860
3116.85,0.07037
3111.07,0.07189
3105.28,0.07252
3099.49,0.07508
3093.71,0.07606
3087.92,0.07714
3082.14,0.07816
3076.35,0.07976
3070.56,0.08148
3064.78,0.08247
3058.99,0.08437
3053.2,0.08486
3047.42,0.08580
3041.63,0.08649
3035.85,0.08762
3030.06,0.08724
3024.27,0.08601
3018.49,0.08412
3012.7,0.08289
3006.91,0.08068
3001.13,0.07857
2995.34,0.07646
2989.56,0.07348
2983.77,0.07022
2977.98,0.06506
2972.2,0.06094
2966.41,0.05792
2960.62,0.05558
2954.84,0.05395
2949.05,0.05174
2943.27,0.05004
2937.48,0.04973
2931.69,0.04940
2925.91,0.04911
2920.12,0.04858
2914.33,0.04804
2908.55,0.04932
2902.76,0.04936
2896.98,0.05066
2891.19,0.05149
2885.4,0.05259
2879.62,0.05341
2873.83,0.05454
2868.04,0.05569
2862.26,0.05647
2856.47,0.05727
2850.69,0.05912
2844.9,0.06266
2839.11,0.06743
2833.33,0.07317
2827.54,0.07852
2821.75,0.08306
2815.97,0.08691
2810.18,0.09034
2804.4,0.09334
2798.61,0.09637
2792.82,0.09863
2787.04,0.10001
2781.25,0.10134
2775.46,0.10230
2769.68,0.10328
2763.89,0.10404
2758.11,0.10479
2752.32,0.10594
2746.53,0.10638
2740.75,0.10687
2734.96,0.10695
2729.17,0.10821
2723.39,0.10892
2717.6,0.11025
2711.82,0.11243
2706.03,0.11463
2700.24,0.11670
2694.46,0.11857
2688.67,0.12019
2682.88,0.12219
2677.1,0.12381
2671.31,0.12490
2665.53,0.12573
2659.74,0.12668
2653.95,0.12799
2648.17,0.12911
2642.38,0.13058
2636.59,0.13221
2630.81,0.13374
2625.02,0.13518
2619.24,0.13641
2613.45,0.13753
2607.66,0.13939
2601.88,0.14009
2596.09,0.14194
2590.3,0.14304
2584.52,0.14395
2578.73,0.14442
2572.95,0.14502
2567.16,0.14544
2561.37,0.14605
2555.59,0.14587
2549.8,0.14608
2544.02,0.14609
2538.23,0.14699
2532.44,0.14749
2526.66,0.14882
2520.87,0.14914
2515.08,0.15017
2509.3,0.15148
2503.51,0.15319
2497.73,0.15493
2491.94,0.15738
2486.15,0.15829
2480.37,0.16022
2474.58,0.16171
2468.79,0.16301
2463.01,0.16449
2457.22,0.16556
2451.44,0.16735
2445.65,0.16914
2439.86,0.17093
2434.08,0.17303
2428.29,0.17507
2422.5,0.17756
2416.72,0.17910
2410.93,0.18185
2405.15,0.18396
2399.36,0.18631
2393.57,0.18764
2387.79,0.18916
2382,0.19109
2376.21,0.19291
2370.43,0.19479
2364.64,0.19626
2358.86,0.19818
2353.07,0.19967
2347.28,0.20104
2341.5,0.20313
2335.71,0.20420
2329.92,0.20493
2324.14,0.20575
2318.35,0.20625
2312.57,0.20661
2306.78,0.20639
2300.99,0.20570
2295.21,0.20458
2289.42,0.20447
2283.63,0.20425
2277.85,0.20370
2272.06,0.20236
2266.28,0.20012
2260.49,0.19805
2254.7,0.19614
2248.92,0.19452
2243.13,0.19386
2237.34,0.19303
2231.56,0.19338
2225.77,0.19389
2219.99,0.19484
2214.2,0.19516
2208.41,0.19539
2202.63,0.19439
2196.84,0.19283
2191.05,0.19093
2185.27,0.18795
2179.48,0.18470
2173.7,0.18127
2167.91,0.17793
2162.12,0.17508
2156.34,0.17337
2150.55,0.17143
2144.76,0.17042
2138.98,0.16954
2133.19,0.16933
2127.41,0.16984
2121.62,0.17025
2115.83,0.17137
2110.05,0.17225
2104.26,0.17326
2098.47,0.17453
2092.69,0.17617
2086.9,0.17710
2081.12,0.17740
2075.33,0.17795
2069.54,0.17817
2063.76,0.17800
2057.97,0.17885
2052.19,0.17944
2046.4,0.18068
2040.61,0.18225
2034.83,0.18426
2029.04,0.18671
2023.25,0.18935
2017.47,0.19252
2011.68,0.19535
2005.9,0.19767
2000.11,0.19951
1994.32,0.20128
1988.54,0.20260
1982.75,0.20342
1976.96,0.20354
1971.18,0.20282
1965.39,0.20227
1959.61,0.20224
1953.82,0.20240
1948.03,0.20342
1942.25,0.20552
1936.46,0.20836
1930.67,0.21125
1924.89,0.21426
1919.1,0.21693
1913.32,0.21856
1907.53,0.21965
1901.74,0.22072
1895.96,0.22134
1890.17,0.22147
1884.38,0.22138
1878.6,0.22077
1872.81,0.21975
1867.03,0.21766
1861.24,0.21519
1855.45,0.21264
1849.67,0.20958
1843.88,0.20592
1838.09,0.20147
1832.31,0.19776
1826.52,0.19310
1820.74,0.18763
1814.95,0.18141
1809.16,0.17430
1803.38,0.16559
1797.59,0.15626
1791.8,0.14667
1786.02,0.13577
1780.23,0.12189
1774.45,0.10540
1768.66,0.08532
1762.87,0.07037
1757.09,0.06112
1751.3,0.05724
1745.51,0.05410
1739.73,0.05323
1733.94,0.05383
1728.16,0.05544
1722.37,0.05845
1716.58,0.06280
1710.8,0.06800
1705.01,0.07240
1699.22,0.07571
1693.44,0.07761
1687.65,0.07817
1681.87,0.07644
1676.08,0.07446
1670.29,0.07142
1664.51,0.06891
1658.72,0.06704
1652.93,0.06613
1647.15,0.06550
1641.36,0.06514
1635.58,0.06504
1629.79,0.06434
1624,0.06279
1618.22,0.06121
1612.43,0.05753
1606.64,0.05429
1600.86,0.05228
1595.07,0.04958
1589.29,0.05211
1583.5,0.06093
1577.71,0.07095
1571.93,0.08201
1566.14,0.08971
1560.35,0.09485
1554.57,0.09717
1548.78,0.09658
1543,0.09529
1537.21,0.09308
1531.42,0.08932
1525.64,0.08122
1519.85,0.06714
1514.07,0.05767
1508.28,0.05372
1502.49,0.05201
1496.71,0.05579
1490.92,0.05943
1485.13,0.05903
1479.35,0.05378
1473.56,0.04580
1467.78,0.04012
1461.99,0.03885
1456.2,0.03913
1450.42,0.04053
1444.63,0.04130
1438.84,0.04061
1433.06,0.03889
1427.27,0.03900
1421.49,0.04037
1415.7,0.04338
1409.91,0.04553
1404.13,0.04578
1398.34,0.04492
1392.55,0.04222
1386.77,0.03836
1380.98,0.03493
1375.2,0.03378
1369.41,0.03416
1363.62,0.03447
1357.84,0.03487
1352.05,0.03566
1346.26,0.03507
1340.48,0.03432
1334.69,0.03352
1328.91,0.03355
1323.12,0.03392
1317.33,0.03453
1311.55,0.03613
1305.76,0.03756
1299.97,0.03821
1294.19,0.03715
1288.4,0.03519
1282.62,0.03354
1276.83,0.03260
1271.04,0.03191
1265.26,0.03103
1259.47,0.03029
1253.68,0.02994
1247.9,0.02997
1242.11,0.02972
1236.33,0.03066
1230.54,0.03180
1224.75,0.03286
1218.97,0.03425
1213.18,0.03509
1207.39,0.03536
1201.61,0.03593
1195.82,0.03577
1190.04,0.03481
1184.25,0.03273
1178.46,0.03078
1172.68,0.02943
1166.89,0.02975
1161.1,0.03094
1155.32,0.03130
1149.53,0.03036
1143.75,0.02857
1137.96,0.02700
1132.17,0.02595
1126.39,0.02755
1120.6,0.02925
1114.81,0.02974
1109.03,0.03078
1103.24,0.03086
1097.46,0.03073
1091.67,0.02999
1085.88,0.03016
1080.1,0.03220
1074.31,0.03385
1068.52,0.03641
1062.74,0.03998
1056.95,0.04332
1051.17,0.04307
1045.38,0.04296
1039.59,0.04367
1033.81,0.04724
1028.02,0.04715
1022.24,0.04715
1016.45,0.04796
1010.66,0.04890
1004.88,0.04887
999.09,0.05013
993.304,0.05124
987.518,0.05375
981.731,0.05781
975.945,0.06244
970.159,0.06537
964.373,0.06975
958.586,0.07542
952.8,0.08131
947.014,0.08604
941.228,0.08723
935.441,0.08651
929.655,0.08598
923.869,0.08479
918.083,0.08314
912.297,0.08114
906.51,0.07764
900.724,0.07334
894.938,0.07499
889.152,0.08180
883.365,0.08612
877.579,0.08787
871.793,0.08953
866.007,0.09303
860.22,0.09499
854.434,0.09391
848.648,0.09251
842.862,0.09077
837.075,0.08945
831.289,0.08905
825.503,0.09034
819.717,0.09238
813.931,0.09282
808.144,0.09179
802.358,0.09219
796.572,0.09151
790.786,0.09144
784.999,0.08876
779.213,0.08608
773.427,0.08132
767.641,0.07996
761.854,0.07832
756.068,0.07556
750.282,0.07334
744.496,0.07122
738.709,0.06949
732.923,0.06762
727.137,0.06424
721.351,0.06299
715.565,0.06124
709.778,0.06115
703.992,0.06064
698.206,0.05954
692.42,0.05867
686.633,0.05710
680.847,0.05612
675.061,0.05509
669.275,0.05489
663.488,0.05410
657.702,0.05417
651.916,0.05555
646.13,0.05282
640.343,0.05251
634.557,0.05332
628.771,0.04959
622.985,0.05000
617.198,0.04988
611.412,0.04845
605.626,0.05104
599.84,0.05181