File: 01_Data/Excelsior/FTIR/IS/Excelsior_IS_S_221109_R6.dpt
7497.03,0.65813
7491.25,0.66171
7485.46,0.66108
7479.67,0.65774
7473.89,0.64902
7468.1,0.64655
7462.32,0.65171
7456.53,0.65196
7450.74,0.65147
7444.96,0.64111
7439.17,0.63702
7433.38,0.64241
7427.6,0.63813
7421.81,0.64141
7416.03,0.63773
7410.24,0.62875
7404.45,0.62841
7398.67,0.62890
7392.88,0.62992
7387.09,0.62733
7381.31,0.61897
7375.52,0.61927
7369.74,0.61846
7363.95,0.61835
7358.16,0.61696
7352.38,0.61436
7346.59,0.62848
7340.8,0.61948
7335.02,0.61084
7329.23,0.60169
7323.45,0.60156
7317.66,0.61281
7311.87,0.60841
7306.09,0.60194
7300.3,0.60589
7294.51,0.60799
7288.73,0.60140
7282.94,0.60078
7277.16,0.59678
7271.37,0.60143
7265.58,0.60219
7259.8,0.60350
7254.01,0.60406
7248.22,0.59307
7242.44,0.60356
7236.65,0.59867
7230.87,0.61255
7225.08,0.60307
7219.29,0.59843
7213.51,0.60541
7207.72,0.60554
7201.93,0.60002
7196.15,0.59898
7190.36,0.59711
7184.58,0.59740
7178.79,0.59380
7173,0.59730
7167.22,0.59222
7161.43,0.59341
7155.65,0.59078
7149.86,0.58898
7144.07,0.58507
7138.29,0.58742
7132.5,0.58269
7126.71,0.56864
7120.93,0.56806
7115.14,0.56671
7109.36,0.55809
7103.57,0.55781
7097.78,0.55343
7092,0.54838
7086.21,0.54297
7080.42,0.54288
7074.64,0.53672
7068.85,0.53447
7063.07,0.52590
7057.28,0.51034
7051.49,0.51211
7045.71,0.50169
7039.92,0.50164
7034.13,0.49438
7028.35,0.48338
7022.56,0.48428
7016.78,0.48074
7010.99,0.47726
7005.2,0.47481
6999.42,0.47337
6993.63,0.46606
6987.84,0.46588
6982.06,0.46288
6976.27,0.46417
6970.49,0.46217
6964.7,0.45157
6958.91,0.45221
6953.13,0.45368
6947.34,0.45668
6941.55,0.44954
6935.77,0.45596
6929.98,0.45685
6924.2,0.45501
6918.41,0.45280
6912.62,0.45462
6906.84,0.45260
6901.05,0.45384
6895.26,0.45352
6889.48,0.45053
6883.69,0.45197
6877.91,0.45801
6872.12,0.45232
6866.33,0.45568
6860.55,0.45687
6854.76,0.44772
6848.97,0.45580
6843.19,0.44712
6837.4,0.45452
6831.62,0.45254
6825.83,0.45581
6820.04,0.45242
6814.26,0.45565
6808.47,0.45273
6802.68,0.45158
6796.9,0.45224
6791.11,0.44748
6785.33,0.44928
6779.54,0.44762
6773.75,0.45546
6767.97,0.45455
6762.18,0.44832
6756.39,0.45332
6750.61,0.44891
6744.82,0.45014
6739.04,0.45298
6733.25,0.45349
6727.46,0.44659
6721.68,0.44953
6715.89,0.45163
6710.1,0.45850
6704.32,0.45612
6698.53,0.45706
6692.75,0.45876
6686.96,0.45839
6681.17,0.46210
6675.39,0.46208
6669.6,0.46294
6663.82,0.46095
6658.03,0.46159
6652.24,0.46419
6646.46,0.46203
6640.67,0.45639
6634.88,0.46289
6629.1,0.46707
6623.31,0.46369
6617.53,0.46885
6611.74,0.47146
6605.95,0.47138
6600.17,0.47207
6594.38,0.47216
6588.59,0.47254
6582.81,0.47143
6577.02,0.47502
6571.24,0.47552
6565.45,0.47521
6559.66,0.47489
6553.88,0.47806
6548.09,0.47664
6542.3,0.48625
6536.52,0.47870
6530.73,0.48271
6524.95,0.48257
6519.16,0.47968
6513.37,0.47730
6507.59,0.48330
6501.8,0.47557
6496.01,0.47641
6490.23,0.48082
6484.44,0.47842
6478.66,0.48362
6472.87,0.48391
6467.08,0.48313
6461.3,0.48573
6455.51,0.48136
6449.72,0.48494
6443.94,0.48630
6438.15,0.48254
6432.37,0.48664
6426.58,0.48668
6420.79,0.48386
6415.01,0.48763
6409.22,0.48930
6403.43,0.48775
6397.65,0.49221
6391.86,0.48900
6386.08,0.48950
6380.29,0.49250
6374.5,0.49257
6368.72,0.48810
6362.93,0.49170
6357.14,0.49532
6351.36,0.49642
6345.57,0.49297
6339.79,0.49485
6334,0.49365
6328.21,0.49231
6322.43,0.49902
6316.64,0.49668
6310.85,0.50085
6305.07,0.49664
6299.28,0.49883
6293.5,0.49948
6287.71,0.50176
6281.92,0.50268
6276.14,0.50187
6270.35,0.50370
6264.56,0.50548
6258.78,0.50402
6252.99,0.50940
6247.21,0.51403
6241.42,0.51695
6235.63,0.51704
6229.85,0.52151
6224.06,0.52063
6218.27,0.51885
6212.49,0.52179
6206.7,0.52527
6200.92,0.53038
6195.13,0.53191
6189.34,0.53304
6183.56,0.53630
6177.77,0.53244
6171.98,0.53792
6166.2,0.53757
6160.41,0.54034
6154.63,0.54074
6148.84,0.54024
6143.05,0.54696
6137.27,0.54663
6131.48,0.54492
6125.7,0.54482
6119.91,0.54926
6114.12,0.54607
6108.34,0.54928
6102.55,0.54804
6096.76,0.54742
6090.98,0.54806
6085.19,0.54780
6079.41,0.54899
6073.62,0.54659
6067.83,0.54706
6062.05,0.55009
6056.26,0.54891
6050.47,0.54584
6044.69,0.54561
6038.9,0.54551
6033.12,0.54711
6027.33,0.54269
6021.54,0.54233
6015.76,0.54063
6009.97,0.53919
6004.18,0.53870
5998.4,0.53561
5992.61,0.53677
5986.83,0.53477
5981.04,0.53464
5975.25,0.53359
5969.47,0.53102
5963.68,0.52711
5957.89,0.53103
5952.11,0.53050
5946.32,0.52799
5940.54,0.52581
5934.75,0.52672
5928.96,0.52853
5923.18,0.52394
5917.39,0.52545
5911.6,0.52742
5905.82,0.52211
5900.03,0.52040
5894.25,0.51836
5888.46,0.51546
5882.67,0.51643
5876.89,0.51557
5871.1,0.51559
5865.31,0.51003
5859.53,0.51279
5853.74,0.51487
5847.96,0.51240
5842.17,0.51276
5836.38,0.51025
5830.6,0.50990
5824.81,0.50857
5819.02,0.50435
5813.24,0.49859
5807.45,0.49985
5801.67,0.50017
5795.88,0.50112
5790.09,0.50208
5784.31,0.50390
5778.52,0.50431
5772.73,0.50591
5766.95,0.50777
5761.16,0.51259
5755.38,0.51351
5749.59,0.51539
5743.8,0.51477
5738.02,0.51598
5732.23,0.51622
5726.44,0.51704
5720.66,0.51396
5714.87,0.51644
5709.09,0.51454
5703.3,0.51647
5697.51,0.51513
5691.73,0.51573
5685.94,0.51574
5680.15,0.51305
5674.37,0.51295
5668.58,0.51486
5662.8,0.51336
5657.01,0.51204
5651.22,0.51663
5645.44,0.51084
5639.65,0.51417
5633.87,0.51197
5628.08,0.51506
5622.29,0.51441
5616.51,0.51472
5610.72,0.51354
5604.93,0.51373
5599.15,0.51622
5593.36,0.51424
5587.58,0.51669
5581.79,0.51576
5576,0.51544
5570.22,0.51674
5564.43,0.51868
5558.64,0.52018
5552.86,0.51965
5547.07,0.52164
5541.29,0.51893
5535.5,0.52058
5529.71,0.52111
5523.93,0.51916
5518.14,0.51973
5512.35,0.52201
5506.57,0.52388
5500.78,0.52131
5495,0.52067
5489.21,0.52343
5483.42,0.52365
5477.64,0.52314
5471.85,0.52292
5466.06,0.52547
5460.28,0.52453
5454.49,0.52604
5448.71,0.52696
5442.92,0.52851
5437.13,0.53020
5431.35,0.52964
5425.56,0.53315
5419.77,0.53434
5413.99,0.53529
5408.2,0.53871
5402.42,0.53900
5396.63,0.53722
5390.84,0.53992
5385.06,0.53939
5379.27,0.54152
5373.48,0.54031
5367.7,0.54071
5361.91,0.54075
5356.13,0.53961
5350.34,0.53833
5344.55,0.53954
5338.77,0.53910
5332.98,0.53679
5327.19,0.53645
5321.41,0.53462
5315.62,0.53056
5309.84,0.52776
5304.05,0.52273
5298.26,0.51860
5292.48,0.51171
5286.69,0.50260
5280.9,0.49653
5275.12,0.48770
5269.33,0.47877
5263.55,0.46696
5257.76,0.45944
5251.97,0.44907
5246.19,0.44333
5240.4,0.43745
5234.61,0.43092
5228.83,0.42657
5223.04,0.42322
5217.26,0.41984
5211.47,0.41933
5205.68,0.41738
5199.9,0.41570
5194.11,0.41739
5188.32,0.41701
5182.54,0.41814
5176.75,0.41933
5170.97,0.42089
5165.18,0.42391
5159.39,0.42748
5153.61,0.43097
5147.82,0.43276
5142.03,0.43588
5136.25,0.43857
5130.46,0.44043
5124.68,0.44404
5118.89,0.44753
5113.1,0.44767
5107.32,0.45147
5101.53,0.45418
5095.75,0.45662
5089.96,0.45823
5084.17,0.46049
5078.39,0.46400
5072.6,0.46697
5066.81,0.46666
5061.03,0.47026
5055.24,0.47217
5049.46,0.47474
5043.67,0.47508
5037.88,0.47673
5032.1,0.47708
5026.31,0.47740
5020.52,0.47845
5014.74,0.47732
5008.95,0.47662
5003.17,0.47629
4997.38,0.47469
4991.59,0.47309
4985.81,0.47121
4980.02,0.46774
4974.23,0.46420
4968.45,0.45970
4962.66,0.45553
4956.88,0.45025
4951.09,0.44474
4945.3,0.43777
4939.52,0.43351
4933.73,0.42770
4927.94,0.42132
4922.16,0.41375
4916.37,0.40963
4910.59,0.40380
4904.8,0.39922
4899.01,0.39342
4893.23,0.38935
4887.44,0.38344
4881.65,0.37891
4875.87,0.37518
4870.08,0.36999
4864.3,0.36659
4858.51,0.36266
4852.72,0.35958
4846.94,0.35585
4841.15,0.35195
4835.36,0.34954
4829.58,0.34690
4823.79,0.34268
4818.01,0.34060
4812.22,0.33935
4806.43,0.33675
4800.65,0.33602
4794.86,0.33563
4789.07,0.33364
4783.29,0.33361
4777.5,0.33316
4771.72,0.33226
4765.93,0.33028
4760.14,0.33183
4754.36,0.33093
4748.57,0.33226
4742.78,0.33212
4737,0.33325
4731.21,0.33296
4725.43,0.33473
4719.64,0.33467
4713.85,0.33605
4708.07,0.33739
4702.28,0.33770
4696.49,0.34017
4690.71,0.34022
4684.92,0.34244
4679.14,0.34412
4673.35,0.34626
4667.56,0.34871
4661.78,0.35041
4655.99,0.35288
4650.2,0.35587
4644.42,0.35771
4638.63,0.36013
4632.85,0.36322
4627.06,0.36531
4621.27,0.36729
4615.49,0.36894
4609.7,0.37170
4603.92,0.37324
4598.13,0.37580
4592.34,0.37622
4586.56,0.37932
4580.77,0.38072
4574.98,0.38180
4569.2,0.38231
4563.41,0.38399
4557.63,0.38571
4551.84,0.38775
4546.05,0.38842
4540.27,0.38970
4534.48,0.39004
4528.69,0.39027
4522.91,0.39041
4517.12,0.39022
4511.34,0.38909
4505.55,0.38925
4499.76,0.38568
4493.98,0.38250
4488.19,0.37839
4482.4,0.37309
4476.62,0.36781
4470.83,0.36160
4465.05,0.35450
4459.26,0.34666
4453.47,0.33865
4447.69,0.33196
4441.9,0.32443
4436.11,0.31943
4430.33,0.31352
4424.54,0.30889
4418.76,0.30421
4412.97,0.30043
4407.18,0.29696
4401.4,0.29702
4395.61,0.29716
4389.82,0.29772
4384.04,0.29919
4378.25,0.30148
4372.47,0.30410
4366.68,0.30636
4360.89,0.30721
4355.11,0.30735
4349.32,0.30614
4343.53,0.30470
4337.75,0.30323
4331.96,0.30101
4326.18,0.29952
4320.39,0.29804
4314.6,0.29684
4308.82,0.29456
4303.03,0.29335
4297.24,0.29089
4291.46,0.28984
4285.67,0.28944
4279.89,0.28847
4274.1,0.28862
4268.31,0.28949
4262.53,0.29101
4256.74,0.29178
4250.95,0.29257
4245.17,0.29294
4239.38,0.29412
4233.6,0.29433
4227.81,0.29511
4222.02,0.29683
4216.24,0.29624
4210.45,0.29710
4204.66,0.29829
4198.88,0.29884
4193.09,0.29896
4187.31,0.29907
4181.52,0.30077
4175.73,0.30119
4169.95,0.30214
4164.16,0.30314
4158.37,0.30398
4152.59,0.30385
4146.8,0.30278
4141.02,0.30091
4135.23,0.29892
4129.44,0.29644
4123.66,0.29318
4117.87,0.29043
4112.09,0.28725
4106.3,0.28381
4100.51,0.27880
4094.73,0.27514
4088.94,0.26964
4083.15,0.26575
4077.37,0.26144
4071.58,0.25669
4065.8,0.25208
4060.01,0.24823
4054.22,0.24423
4048.44,0.24042
4042.65,0.23701
4036.86,0.23393
4031.08,0.23228
4025.29,0.23099
4019.51,0.23071
4013.72,0.23020
4007.93,0.23100
4002.15,0.23163
3996.36,0.23344
3990.57,0.23490
3984.79,0.23621
3979,0.23698
3973.22,0.23868
3967.43,0.24011
3961.64,0.24247
3955.86,0.24580
3950.07,0.24750
3944.28,0.24982
3938.5,0.25290
3932.71,0.25492
3926.93,0.25651
3921.14,0.25918
3915.35,0.26208
3909.57,0.26433
3903.78,0.26657
3897.99,0.26798
3892.21,0.27066
3886.42,0.27298
3880.64,0.27363
3874.85,0.27603
3869.06,0.27852
3863.28,0.28109
3857.49,0.28465
3851.7,0.28714
3845.92,0.28968
3840.13,0.29157
3834.35,0.29308
3828.56,0.29444
3822.77,0.29575
3816.99,0.29610
3811.2,0.29540
3805.41,0.29676
3799.63,0.29699
3793.84,0.29691
3788.06,0.29699
3782.27,0.29730
3776.48,0.29603
3770.7,0.29569
3764.91,0.29445
3759.12,0.29362
3753.34,0.29240
3747.55,0.29042
3741.77,0.28720
3735.98,0.28591
3730.19,0.28133
3724.41,0.27786
3718.62,0.27305
3712.83,0.26714
3707.05,0.25980
3701.26,0.25209
3695.48,0.24238
3689.69,0.23194
3683.9,0.21911
3678.12,0.20554
3672.33,0.19089
3666.54,0.17523
3660.76,0.16159
3654.97,0.14859
3649.19,0.13733
3643.4,0.12557
3637.61,0.11598
3631.83,0.10742
3626.04,0.09836
3620.25,0.09206
3614.47,0.08481
3608.68,0.07801
3602.9,0.07178
3597.11,0.06718
3591.32,0.06209
3585.54,0.05776
3579.75,0.05462
3573.97,0.05113
3568.18,0.04931
3562.39,0.04650
3556.61,0.04436
3550.82,0.04273
3545.03,0.04109
3539.25,0.03940
3533.46,0.03827
3527.68,0.03721
3521.89,0.03644
3516.1,0.03567
3510.32,0.03394
3504.53,0.03424
3498.74,0.03320
3492.96,0.03279
3487.17,0.03180
3481.39,0.03194
3475.6,0.03138
3469.81,0.03103
3464.03,0.03063
3458.24,0.03095
3452.45,0.03010
3446.67,0.03031
3440.88,0.03056
3435.1,0.03024
3429.31,0.03044
3423.52,0.02945
3417.74,0.03003
3411.95,0.03020
3406.16,0.03073
3400.38,0.02982
3394.59,0.03028
3388.81,0.03056
3383.02,0.03021
3377.23,0.03052
3371.45,0.03008
3365.66,0.03058
3359.87,0.03096
3354.09,0.03156
3348.3,0.03177
3342.52,0.03165
3336.73,0.03210
3330.94,0.03256
3325.16,0.03371
3319.37,0.03392
3313.58,0.03397
3307.8,0.03447
3302.01,0.03509
3296.23,0.03558
3290.44,0.03569
3284.65,0.03623
3278.87,0.03726
3273.08,0.03827
3267.29,0.03886
3261.51,0.03963
3255.72,0.04000
3249.94,0.04168
3244.15,0.04334
3238.36,0.04428
3232.58,0.04512
3226.79,0.04592
3221,0.04732
3215.22,0.04910
3209.43,0.05025
3203.65,0.05191
3197.86,0.05312
3192.07,0.05471
3186.29,0.05608
3180.5,0.05764
3174.71,0.05925
3168.93,0.06059
3163.14,0.06184
3157.36,0.06336
3151.57,0.06499
3145.78,0.06726
3140,0.06891
3134.21,0.06993
3128.42,0.07190
3122.64,0.07315
3116.85,0.07517
3111.07,0.07679
3105.28,0.07862
3099.49,0.07975
3093.71,0.08093
3087.92,0.08248
3082.14,0.08428
3076.35,0.08507
3070.56,0.08647
3064.78,0.08813
3058.99,0.08946
3053.2,0.09023
3047.42,0.09125
3041.63,0.09223
3035.85,0.09231
3030.06,0.09159
3024.27,0.09032
3018.49,0.08827
3012.7,0.08667
3006.91,0.08386
3001.13,0.08144
2995.34,0.07853
2989.56,0.07593
2983.77,0.07166
2977.98,0.06664
2972.2,0.06141
2966.41,0.05830
2960.62,0.05615
2954.84,0.05425
2949.05,0.05175
2943.27,0.05039
2937.48,0.04956
2931.69,0.04979
2925.91,0.04939
2920.12,0.04892
2914.33,0.04846
2908.55,0.04949
2902.76,0.04980
2896.98,0.05063
2891.19,0.05172
2885.4,0.05269
2879.62,0.05386
2873.83,0.05475
2868.04,0.05542
2862.26,0.05701
2856.47,0.05862
2850.69,0.05968
2844.9,0.06303
2839.11,0.06849
2833.33,0.07397
2827.54,0.07943
2821.75,0.08382
2815.97,0.08876
2810.18,0.09203
2804.4,0.09558
2798.61,0.09835
2792.82,0.10014
2787.04,0.10204
2781.25,0.10358
2775.46,0.10485
2769.68,0.10585
2763.89,0.10688
2758.11,0.10802
2752.32,0.10798
2746.53,0.10862
2740.75,0.10927
2734.96,0.10965
2729.17,0.11026
2723.39,0.11164
2717.6,0.11347
2711.82,0.11500
2706.03,0.11765
2700.24,0.11946
2694.46,0.12131
2688.67,0.12321
2682.88,0.12465
2677.1,0.12647
2671.31,0.12809
2665.53,0.12923
2659.74,0.12990
2653.95,0.13083
2648.17,0.13187
2642.38,0.13321
2636.59,0.13443
2630.81,0.13654
2625.02,0.13834
2619.24,0.13960
2613.45,0.14075
2607.66,0.14198
2601.88,0.14338
2596.09,0.14497
2590.3,0.14623
2584.52,0.14733
2578.73,0.14769
2572.95,0.14827
2567.16,0.14847
2561.37,0.14840
2555.59,0.14869
2549.8,0.14886
2544.02,0.14921
2538.23,0.14953
2532.44,0.15031
2526.66,0.15151
2520.87,0.15199
2515.08,0.15271
2509.3,0.15432
2503.51,0.15650
2497.73,0.15798
2491.94,0.16030
2486.15,0.16188
2480.37,0.16343
2474.58,0.16511
2468.79,0.16643
2463.01,0.16773
2457.22,0.16849
2451.44,0.17052
2445.65,0.17247
2439.86,0.17422
2434.08,0.17618
2428.29,0.17844
2422.5,0.18052
2416.72,0.18333
2410.93,0.18536
2405.15,0.18766
2399.36,0.18976
2393.57,0.19194
2387.79,0.19368
2382,0.19547
2376.21,0.19745
2370.43,0.19918
2364.64,0.20118
2358.86,0.20261
2353.07,0.20505
2347.28,0.20675
2341.5,0.20877
2335.71,0.21027
2329.92,0.21125
2324.14,0.21249
2318.35,0.21273
2312.57,0.21289
2306.78,0.21326
2300.99,0.21193
2295.21,0.21137
2289.42,0.21126
2283.63,0.21090
2277.85,0.21045
2272.06,0.20919
2266.28,0.20705
2260.49,0.20518
2254.7,0.20310
2248.92,0.20127
2243.13,0.20110
2237.34,0.20068
2231.56,0.20061
2225.77,0.20136
2219.99,0.20276
2214.2,0.20346
2208.41,0.20371
2202.63,0.20293
2196.84,0.20160
2191.05,0.19910
2185.27,0.19639
2179.48,0.19285
2173.7,0.18930
2167.91,0.18567
2162.12,0.18291
2156.34,0.18065
2150.55,0.17909
2144.76,0.17730
2138.98,0.17640
2133.19,0.17624
2127.41,0.17736
2121.62,0.17794
2115.83,0.17906
2110.05,0.17994
2104.26,0.18142
2098.47,0.18296
2092.69,0.18475
2086.9,0.18595
2081.12,0.18633
2075.33,0.18621
2069.54,0.18637
2063.76,0.18676
2057.97,0.18710
2052.19,0.18778
2046.4,0.18913
2040.61,0.19075
2034.83,0.19299
2029.04,0.19558
2023.25,0.19822
2017.47,0.20169
2011.68,0.20474
2005.9,0.20764
2000.11,0.20941
1994.32,0.21070
1988.54,0.21199
1982.75,0.21262
1976.96,0.21270
1971.18,0.21241
1965.39,0.21171
1959.61,0.21080
1953.82,0.21108
1948.03,0.21237
1942.25,0.21445
1936.46,0.21783
1930.67,0.22082
1924.89,0.22367
1919.1,0.22623
1913.32,0.22785
1907.53,0.22917
1901.74,0.23000
1895.96,0.23048
1890.17,0.23050
1884.38,0.23057
1878.6,0.22999
1872.81,0.22861
1867.03,0.22649
1861.24,0.22339
1855.45,0.22047
1849.67,0.21728
1843.88,0.21322
1838.09,0.20924
1832.31,0.20443
1826.52,0.19924
1820.74,0.19318
1814.95,0.18636
1809.16,0.17886
1803.38,0.16972
1797.59,0.15988
1791.8,0.14852
1786.02,0.13658
1780.23,0.12159
1774.45,0.10419
1768.66,0.08393
1762.87,0.06932
1757.09,0.06085
1751.3,0.05635
1745.51,0.05437
1739.73,0.05377
1733.94,0.05480
1728.16,0.05656
1722.37,0.05928
1716.58,0.06375
1710.8,0.06920
1705.01,0.07410
1699.22,0.07866
1693.44,0.08151
1687.65,0.08212
1681.87,0.08128
1676.08,0.07934
1670.29,0.07658
1664.51,0.07412
1658.72,0.07316
1652.93,0.07256
1647.15,0.07216
1641.36,0.07171
1635.58,0.07115
1629.79,0.06960
1624,0.06743
1618.22,0.06409
1612.43,0.06010
1606.64,0.05577
1600.86,0.05348
1595.07,0.05033
1589.29,0.05281
1583.5,0.06125
1577.71,0.07274
1571.93,0.08432
1566.14,0.09309
1560.35,0.09843
1554.57,0.10028
1548.78,0.10007
1543,0.09895
1537.21,0.09631
1531.42,0.09224
1525.64,0.08312
1519.85,0.06813
1514.07,0.05846
1508.28,0.05372
1502.49,0.05188
1496.71,0.05518
1490.92,0.05939
1485.13,0.05913
1479.35,0.05438
1473.56,0.04647
1467.78,0.04038
1461.99,0.03937
1456.2,0.03966
1450.42,0.04088
1444.63,0.04181
1438.84,0.04089
1433.06,0.03904
1427.27,0.03909
1421.49,0.04063
1415.7,0.04329
1409.91,0.04522
1404.13,0.04558
1398.34,0.04453
1392.55,0.04197
1386.77,0.03842
1380.98,0.03450
1375.2,0.03336
1369.41,0.03378
1363.62,0.03403
1357.84,0.03516
1352.05,0.03543
1346.26,0.03512
1340.48,0.03404
1334.69,0.03333
1328.91,0.03308
1323.12,0.03374
1317.33,0.03422
1311.55,0.03637
1305.76,0.03740
1299.97,0.03817
1294.19,0.03755
1288.4,0.03558
1282.62,0.03383
1276.83,0.03233
1271.04,0.03178
1265.26,0.03083
1259.47,0.03015
1253.68,0.02942
1247.9,0.02963
1242.11,0.02993
1236.33,0.03047
1230.54,0.03114
1224.75,0.03288
1218.97,0.03345
1213.18,0.03490
1207.39,0.03534
1201.61,0.03519
1195.82,0.03573
1190.04,0.03468
1184.25,0.03224
1178.46,0.03013
1172.68,0.02890
1166.89,0.02948
1161.1,0.03086
1155.32,0.03103
1149.53,0.03109
1143.75,0.02901
1137.96,0.02673
1132.17,0.02610
1126.39,0.02755
1120.6,0.02906
1114.81,0.02963
1109.03,0.03064
1103.24,0.03153
1097.46,0.03053
1091.67,0.03008
1085.88,0.02949
1080.1,0.03160
1074.31,0.03357
1068.52,0.03593
1062.74,0.04100
1056.95,0.04324
1051.17,0.04301
1045.38,0.04353
1039.59,0.04432
1033.81,0.04661
1028.02,0.04694
1022.24,0.04689
1016.45,0.04799
1010.66,0.04906
1004.88,0.04896
999.09,0.05023
993.304,0.05168
987.518,0.05369
981.731,0.05772
975.945,0.06246
970.159,0.06571
964.373,0.06979
958.586,0.07529
952.8,0.08216
947.014,0.08740
941.228,0.08933
935.441,0.08828
929.655,0.08680
923.869,0.08621
918.083,0.08466
912.297,0.08274
906.51,0.07903
900.724,0.07545
894.938,0.07616
889.152,0.08272
883.365,0.08834
877.579,0.09031
871.793,0.09226
866.007,0.09582
860.22,0.09750
854.434,0.09653
848.648,0.09601
842.862,0.09455
837.075,0.09322
831.289,0.09285
825.503,0.09566
819.717,0.09726
813.931,0.09846
808.144,0.09801
802.358,0.09877
796.572,0.09756
790.786,0.09670
784.999,0.09566
779.213,0.09255
773.427,0.08796
767.641,0.08493
761.854,0.08273
756.068,0.08022
750.282,0.07693
744.496,0.07595
738.709,0.07385
732.923,0.07026
727.137,0.06785
721.351,0.06560
715.565,0.06412
709.778,0.06372
703.992,0.06231
698.206,0.06198
692.42,0.06102
686.633,0.06052
680.847,0.05772
675.061,0.05510
669.275,0.05425
663.488,0.05368
657.702,0.05572
651.916,0.05437
646.13,0.05406
640.343,0.05524
634.557,0.05285
628.771,0.05168
622.985,0.05028
617.198,0.05047
611.412,0.04974
605.626,0.05010
599.84,0.05595