File: 01_Data/Excelsior/FTIR/IS/Excelsior_IS_S_221109_R2.dpt
7497.03,0.65720
7491.25,0.65856
7485.46,0.65352
7479.67,0.64514
7473.89,0.64945
7468.1,0.64583
7462.32,0.63791
7456.53,0.65841
7450.74,0.63990
7444.96,0.64000
7439.17,0.63730
7433.38,0.63521
7427.6,0.62727
7421.81,0.63091
7416.03,0.63410
7410.24,0.63152
7404.45,0.62797
7398.67,0.62259
7392.88,0.62465
7387.09,0.62971
7381.31,0.61787
7375.52,0.61853
7369.74,0.61553
7363.95,0.62301
7358.16,0.61333
7352.38,0.61152
7346.59,0.60520
7340.8,0.60972
7335.02,0.60732
7329.23,0.60746
7323.45,0.60369
7317.66,0.60307
7311.87,0.60416
7306.09,0.59625
7300.3,0.61232
7294.51,0.60779
7288.73,0.59483
7282.94,0.60227
7277.16,0.60084
7271.37,0.59971
7265.58,0.60011
7259.8,0.60455
7254.01,0.60666
7248.22,0.60514
7242.44,0.59793
7236.65,0.59666
7230.87,0.60074
7225.08,0.60401
7219.29,0.59687
7213.51,0.59326
7207.72,0.58994
7201.93,0.59535
7196.15,0.59215
7190.36,0.59674
7184.58,0.58775
7178.79,0.58332
7173,0.58722
7167.22,0.58653
7161.43,0.57489
7155.65,0.57007
7149.86,0.57300
7144.07,0.57581
7138.29,0.57128
7132.5,0.56829
7126.71,0.56574
7120.93,0.55957
7115.14,0.56052
7109.36,0.55004
7103.57,0.54684
7097.78,0.53999
7092,0.53947
7086.21,0.53547
7080.42,0.52686
7074.64,0.52197
7068.85,0.51874
7063.07,0.51491
7057.28,0.50298
7051.49,0.50114
7045.71,0.49580
7039.92,0.48459
7034.13,0.48885
7028.35,0.48595
7022.56,0.47191
7016.78,0.47462
7010.99,0.47777
7005.2,0.46815
6999.42,0.46586
6993.63,0.46578
6987.84,0.45526
6982.06,0.45668
6976.27,0.45567
6970.49,0.45287
6964.7,0.45734
6958.91,0.45308
6953.13,0.44663
6947.34,0.45069
6941.55,0.45434
6935.77,0.44716
6929.98,0.45584
6924.2,0.44820
6918.41,0.44947
6912.62,0.44378
6906.84,0.44484
6901.05,0.44855
6895.26,0.44755
6889.48,0.44403
6883.69,0.44396
6877.91,0.45319
6872.12,0.45018
6866.33,0.44811
6860.55,0.44876
6854.76,0.44715
6848.97,0.44615
6843.19,0.44488
6837.4,0.44706
6831.62,0.44558
6825.83,0.44373
6820.04,0.44916
6814.26,0.44976
6808.47,0.44761
6802.68,0.44120
6796.9,0.44451
6791.11,0.44182
6785.33,0.44250
6779.54,0.43928
6773.75,0.44179
6767.97,0.44565
6762.18,0.44121
6756.39,0.44798
6750.61,0.44874
6744.82,0.44381
6739.04,0.44622
6733.25,0.44716
6727.46,0.44690
6721.68,0.44796
6715.89,0.44539
6710.1,0.44763
6704.32,0.45027
6698.53,0.44337
6692.75,0.44707
6686.96,0.45288
6681.17,0.44874
6675.39,0.45416
6669.6,0.45306
6663.82,0.45043
6658.03,0.45529
6652.24,0.45543
6646.46,0.45555
6640.67,0.45322
6634.88,0.45953
6629.1,0.45893
6623.31,0.45542
6617.53,0.46466
6611.74,0.46222
6605.95,0.45803
6600.17,0.46496
6594.38,0.46620
6588.59,0.46211
6582.81,0.46546
6577.02,0.46484
6571.24,0.46687
6565.45,0.47207
6559.66,0.46841
6553.88,0.46871
6548.09,0.46699
6542.3,0.46806
6536.52,0.46838
6530.73,0.47130
6524.95,0.47496
6519.16,0.47479
6513.37,0.47511
6507.59,0.47571
6501.8,0.47224
6496.01,0.47525
6490.23,0.47314
6484.44,0.47626
6478.66,0.47992
6472.87,0.47465
6467.08,0.47414
6461.3,0.47552
6455.51,0.47407
6449.72,0.47378
6443.94,0.47625
6438.15,0.47810
6432.37,0.47827
6426.58,0.48153
6420.79,0.48394
6415.01,0.47748
6409.22,0.48035
6403.43,0.48282
6397.65,0.48277
6391.86,0.48352
6386.08,0.48489
6380.29,0.48421
6374.5,0.48451
6368.72,0.48295
6362.93,0.48600
6357.14,0.48796
6351.36,0.48270
6345.57,0.48616
6339.79,0.48609
6334,0.49049
6328.21,0.48604
6322.43,0.48730
6316.64,0.48903
6310.85,0.49159
6305.07,0.48937
6299.28,0.49000
6293.5,0.49425
6287.71,0.49342
6281.92,0.49561
6276.14,0.49458
6270.35,0.49513
6264.56,0.49674
6258.78,0.50334
6252.99,0.50061
6247.21,0.50514
6241.42,0.50397
6235.63,0.50676
6229.85,0.50926
6224.06,0.51437
6218.27,0.51498
6212.49,0.51882
6206.7,0.51802
6200.92,0.51905
6195.13,0.52199
6189.34,0.52250
6183.56,0.52630
6177.77,0.52507
6171.98,0.52441
6166.2,0.52755
6160.41,0.53207
6154.63,0.53282
6148.84,0.53152
6143.05,0.53312
6137.27,0.53795
6131.48,0.53723
6125.7,0.53652
6119.91,0.53854
6114.12,0.54106
6108.34,0.54277
6102.55,0.53990
6096.76,0.53921
6090.98,0.53802
6085.19,0.54139
6079.41,0.53858
6073.62,0.54078
6067.83,0.54352
6062.05,0.53990
6056.26,0.54029
6050.47,0.53749
6044.69,0.53915
6038.9,0.53751
6033.12,0.53582
6027.33,0.53747
6021.54,0.53404
6015.76,0.53537
6009.97,0.53330
6004.18,0.53315
5998.4,0.53220
5992.61,0.52794
5986.83,0.52802
5981.04,0.52595
5975.25,0.52724
5969.47,0.52507
5963.68,0.52489
5957.89,0.52299
5952.11,0.52059
5946.32,0.52098
5940.54,0.52373
5934.75,0.52155
5928.96,0.52383
5923.18,0.52204
5917.39,0.52109
5911.6,0.51825
5905.82,0.51602
5900.03,0.51742
5894.25,0.51636
5888.46,0.51070
5882.67,0.51009
5876.89,0.51261
5871.1,0.50893
5865.31,0.50843
5859.53,0.50819
5853.74,0.50773
5847.96,0.50684
5842.17,0.50589
5836.38,0.50298
5830.6,0.50186
5824.81,0.50250
5819.02,0.50067
5813.24,0.49690
5807.45,0.49808
5801.67,0.49728
5795.88,0.49577
5790.09,0.49477
5784.31,0.49794
5778.52,0.50281
5772.73,0.50309
5766.95,0.50224
5761.16,0.50377
5755.38,0.50718
5749.59,0.50868
5743.8,0.50918
5738.02,0.51050
5732.23,0.51012
5726.44,0.51060
5720.66,0.51192
5714.87,0.51247
5709.09,0.51087
5703.3,0.51200
5697.51,0.51013
5691.73,0.50921
5685.94,0.50925
5680.15,0.50929
5674.37,0.50781
5668.58,0.50510
5662.8,0.50761
5657.01,0.50373
5651.22,0.50685
5645.44,0.50714
5639.65,0.50884
5633.87,0.50643
5628.08,0.50659
5622.29,0.50746
5616.51,0.50645
5610.72,0.50687
5604.93,0.50637
5599.15,0.50498
5593.36,0.50853
5587.58,0.50902
5581.79,0.50895
5576,0.50804
5570.22,0.50994
5564.43,0.51032
5558.64,0.51210
5552.86,0.51167
5547.07,0.51291
5541.29,0.51305
5535.5,0.51281
5529.71,0.51421
5523.93,0.51354
5518.14,0.51135
5512.35,0.51245
5506.57,0.51530
5500.78,0.51421
5495,0.51490
5489.21,0.51412
5483.42,0.51440
5477.64,0.51567
5471.85,0.51587
5466.06,0.51792
5460.28,0.51963
5454.49,0.52044
5448.71,0.52184
5442.92,0.52222
5437.13,0.52318
5431.35,0.52484
5425.56,0.52555
5419.77,0.52638
5413.99,0.52935
5408.2,0.52842
5402.42,0.53123
5396.63,0.53187
5390.84,0.53285
5385.06,0.53008
5379.27,0.53076
5373.48,0.53018
5367.7,0.52904
5361.91,0.52897
5356.13,0.53015
5350.34,0.53043
5344.55,0.52802
5338.77,0.52751
5332.98,0.52380
5327.19,0.52153
5321.41,0.51928
5315.62,0.51357
5309.84,0.50882
5304.05,0.50269
5298.26,0.49564
5292.48,0.48671
5286.69,0.47969
5280.9,0.46945
5275.12,0.45815
5269.33,0.44923
5263.55,0.43640
5257.76,0.42634
5251.97,0.41867
5246.19,0.40945
5240.4,0.40372
5234.61,0.39742
5228.83,0.39186
5223.04,0.38832
5217.26,0.38719
5211.47,0.38420
5205.68,0.38182
5199.9,0.38161
5194.11,0.38185
5188.32,0.38159
5182.54,0.38302
5176.75,0.38666
5170.97,0.38890
5165.18,0.39051
5159.39,0.39135
5153.61,0.39550
5147.82,0.39800
5142.03,0.40119
5136.25,0.40552
5130.46,0.40752
5124.68,0.41090
5118.89,0.41411
5113.1,0.41657
5107.32,0.41974
5101.53,0.42280
5095.75,0.42445
5089.96,0.42832
5084.17,0.43114
5078.39,0.43344
5072.6,0.43648
5066.81,0.43916
5061.03,0.43946
5055.24,0.44449
5049.46,0.44506
5043.67,0.44700
5037.88,0.44857
5032.1,0.45115
5026.31,0.45211
5020.52,0.45272
5014.74,0.45256
5008.95,0.45477
5003.17,0.45476
4997.38,0.45469
4991.59,0.45383
4985.81,0.45293
4980.02,0.45331
4974.23,0.44976
4968.45,0.44627
4962.66,0.44289
4956.88,0.43898
4951.09,0.43490
4945.3,0.42986
4939.52,0.42471
4933.73,0.42018
4927.94,0.41426
4922.16,0.40952
4916.37,0.40484
4910.59,0.39994
4904.8,0.39454
4899.01,0.39045
4893.23,0.38635
4887.44,0.38136
4881.65,0.37599
4875.87,0.37138
4870.08,0.36817
4864.3,0.36289
4858.51,0.36105
4852.72,0.35650
4846.94,0.35260
4841.15,0.34942
4835.36,0.34746
4829.58,0.34484
4823.79,0.34135
4818.01,0.33880
4812.22,0.33657
4806.43,0.33630
4800.65,0.33372
4794.86,0.33157
4789.07,0.33151
4783.29,0.33073
4777.5,0.33045
4771.72,0.33036
4765.93,0.32927
4760.14,0.32922
4754.36,0.32926
4748.57,0.32906
4742.78,0.33068
4737,0.33073
4731.21,0.33119
4725.43,0.33151
4719.64,0.33222
4713.85,0.33410
4708.07,0.33441
4702.28,0.33552
4696.49,0.33492
4690.71,0.33876
4684.92,0.33798
4679.14,0.34147
4673.35,0.34393
4667.56,0.34524
4661.78,0.34794
4655.99,0.34967
4650.2,0.35175
4644.42,0.35484
4638.63,0.35774
4632.85,0.35939
4627.06,0.36097
4621.27,0.36306
4615.49,0.36514
4609.7,0.36792
4603.92,0.36989
4598.13,0.37182
4592.34,0.37296
4586.56,0.37511
4580.77,0.37566
4574.98,0.37796
4569.2,0.37865
4563.41,0.38007
4557.63,0.38228
4551.84,0.38284
4546.05,0.38354
4540.27,0.38463
4534.48,0.38514
4528.69,0.38621
4522.91,0.38732
4517.12,0.38660
4511.34,0.38620
4505.55,0.38425
4499.76,0.38275
4493.98,0.37887
4488.19,0.37529
4482.4,0.36994
4476.62,0.36413
4470.83,0.35801
4465.05,0.35089
4459.26,0.34432
4453.47,0.33663
4447.69,0.32953
4441.9,0.32248
4436.11,0.31660
4430.33,0.31159
4424.54,0.30678
4418.76,0.30215
4412.97,0.29910
4407.18,0.29551
4401.4,0.29526
4395.61,0.29577
4389.82,0.29600
4384.04,0.29760
4378.25,0.30116
4372.47,0.30321
4366.68,0.30520
4360.89,0.30616
4355.11,0.30598
4349.32,0.30548
4343.53,0.30255
4337.75,0.30085
4331.96,0.29941
4326.18,0.29798
4320.39,0.29570
4314.6,0.29389
4308.82,0.29291
4303.03,0.29176
4297.24,0.28938
4291.46,0.28895
4285.67,0.28803
4279.89,0.28755
4274.1,0.28772
4268.31,0.28866
4262.53,0.28833
4256.74,0.28963
4250.95,0.29042
4245.17,0.29064
4239.38,0.29191
4233.6,0.29298
4227.81,0.29389
4222.02,0.29340
4216.24,0.29439
4210.45,0.29440
4204.66,0.29488
4198.88,0.29538
4193.09,0.29645
4187.31,0.29619
4181.52,0.29694
4175.73,0.29782
4169.95,0.29952
4164.16,0.29991
4158.37,0.30024
4152.59,0.29988
4146.8,0.29875
4141.02,0.29755
4135.23,0.29527
4129.44,0.29265
4123.66,0.29090
4117.87,0.28692
4112.09,0.28332
4106.3,0.27924
4100.51,0.27579
4094.73,0.27089
4088.94,0.26759
4083.15,0.26252
4077.37,0.25830
4071.58,0.25459
4065.8,0.24915
4060.01,0.24564
4054.22,0.24174
4048.44,0.23800
4042.65,0.23462
4036.86,0.23203
4031.08,0.23013
4025.29,0.22763
4019.51,0.22786
4013.72,0.22729
4007.93,0.22866
4002.15,0.22949
3996.36,0.23067
3990.57,0.23225
3984.79,0.23328
3979,0.23427
3973.22,0.23544
3967.43,0.23769
3961.64,0.24006
3955.86,0.24193
3950.07,0.24405
3944.28,0.24676
3938.5,0.24930
3932.71,0.25101
3926.93,0.25375
3921.14,0.25593
3915.35,0.25797
3909.57,0.26069
3903.78,0.26224
3897.99,0.26414
3892.21,0.26597
3886.42,0.26827
3880.64,0.26928
3874.85,0.27173
3869.06,0.27401
3863.28,0.27680
3857.49,0.27893
3851.7,0.28167
3845.92,0.28400
3840.13,0.28602
3834.35,0.28744
3828.56,0.28846
3822.77,0.28906
3816.99,0.28954
3811.2,0.28948
3805.41,0.28922
3799.63,0.28919
3793.84,0.28903
3788.06,0.28816
3782.27,0.28863
3776.48,0.28763
3770.7,0.28615
3764.91,0.28454
3759.12,0.28288
3753.34,0.28178
3747.55,0.27984
3741.77,0.27673
3735.98,0.27373
3730.19,0.26975
3724.41,0.26553
3718.62,0.26024
3712.83,0.25437
3707.05,0.24635
3701.26,0.23822
3695.48,0.22793
3689.69,0.21698
3683.9,0.20293
3678.12,0.18908
3672.33,0.17253
3666.54,0.15721
3660.76,0.14373
3654.97,0.13146
3649.19,0.12032
3643.4,0.10992
3637.61,0.10164
3631.83,0.09474
3626.04,0.08772
3620.25,0.08152
3614.47,0.07510
3608.68,0.07010
3602.9,0.06528
3597.11,0.06147
3591.32,0.05717
3585.54,0.05420
3579.75,0.05122
3573.97,0.04949
3568.18,0.04758
3562.39,0.04483
3556.61,0.04323
3550.82,0.04193
3545.03,0.04045
3539.25,0.03881
3533.46,0.03768
3527.68,0.03697
3521.89,0.03608
3516.1,0.03562
3510.32,0.03415
3504.53,0.03336
3498.74,0.03354
3492.96,0.03275
3487.17,0.03213
3481.39,0.03203
3475.6,0.03151
3469.81,0.03080
3464.03,0.02955
3458.24,0.03039
3452.45,0.03051
3446.67,0.02931
3440.88,0.03000
3435.1,0.02983
3429.31,0.02970
3423.52,0.02968
3417.74,0.02985
3411.95,0.03004
3406.16,0.03017
3400.38,0.03034
3394.59,0.02971
3388.81,0.03045
3383.02,0.03111
3377.23,0.03091
3371.45,0.03004
3365.66,0.03060
3359.87,0.03065
3354.09,0.03136
3348.3,0.03142
3342.52,0.03164
3336.73,0.03200
3330.94,0.03231
3325.16,0.03262
3319.37,0.03324
3313.58,0.03353
3307.8,0.03415
3302.01,0.03487
3296.23,0.03487
3290.44,0.03520
3284.65,0.03622
3278.87,0.03711
3273.08,0.03715
3267.29,0.03904
3261.51,0.03940
3255.72,0.04030
3249.94,0.04123
3244.15,0.04142
3238.36,0.04296
3232.58,0.04381
3226.79,0.04517
3221,0.04641
3215.22,0.04745
3209.43,0.04930
3203.65,0.05027
3197.86,0.05167
3192.07,0.05248
3186.29,0.05484
3180.5,0.05564
3174.71,0.05707
3168.93,0.05839
3163.14,0.06013
3157.36,0.06155
3151.57,0.06327
3145.78,0.06433
3140,0.06597
3134.21,0.06765
3128.42,0.06913
3122.64,0.07065
3116.85,0.07195
3111.07,0.07317
3105.28,0.07488
3099.49,0.07601
3093.71,0.07791
3087.92,0.07940
3082.14,0.08056
3076.35,0.08129
3070.56,0.08245
3064.78,0.08421
3058.99,0.08542
3053.2,0.08710
3047.42,0.08820
3041.63,0.08878
3035.85,0.08876
3030.06,0.08880
3024.27,0.08743
3018.49,0.08610
3012.7,0.08403
3006.91,0.08202
3001.13,0.07915
2995.34,0.07731
2989.56,0.07481
2983.77,0.07051
2977.98,0.06592
2972.2,0.06137
2966.41,0.05789
2960.62,0.05570
2954.84,0.05368
2949.05,0.05193
2943.27,0.05036
2937.48,0.04968
2931.69,0.04929
2925.91,0.04877
2920.12,0.04819
2914.33,0.04835
2908.55,0.04927
2902.76,0.04985
2896.98,0.04998
2891.19,0.05130
2885.4,0.05265
2879.62,0.05418
2873.83,0.05411
2868.04,0.05556
2862.26,0.05723
2856.47,0.05781
2850.69,0.05976
2844.9,0.06339
2839.11,0.06760
2833.33,0.07320
2827.54,0.07913
2821.75,0.08398
2815.97,0.08748
2810.18,0.09111
2804.4,0.09453
2798.61,0.09687
2792.82,0.09897
2787.04,0.10061
2781.25,0.10188
2775.46,0.10269
2769.68,0.10416
2763.89,0.10502
2758.11,0.10611
2752.32,0.10716
2746.53,0.10711
2740.75,0.10702
2734.96,0.10786
2729.17,0.10888
2723.39,0.11039
2717.6,0.11140
2711.82,0.11288
2706.03,0.11502
2700.24,0.11779
2694.46,0.11972
2688.67,0.12174
2682.88,0.12320
2677.1,0.12490
2671.31,0.12598
2665.53,0.12686
2659.74,0.12773
2653.95,0.12873
2648.17,0.12967
2642.38,0.13111
2636.59,0.13329
2630.81,0.13465
2625.02,0.13629
2619.24,0.13777
2613.45,0.13917
2607.66,0.14020
2601.88,0.14202
2596.09,0.14314
2590.3,0.14446
2584.52,0.14539
2578.73,0.14576
2572.95,0.14650
2567.16,0.14657
2561.37,0.14707
2555.59,0.14681
2549.8,0.14748
2544.02,0.14756
2538.23,0.14747
2532.44,0.14866
2526.66,0.14986
2520.87,0.15014
2515.08,0.15119
2509.3,0.15228
2503.51,0.15424
2497.73,0.15692
2491.94,0.15844
2486.15,0.16002
2480.37,0.16137
2474.58,0.16289
2468.79,0.16457
2463.01,0.16566
2457.22,0.16697
2451.44,0.16833
2445.65,0.17020
2439.86,0.17218
2434.08,0.17433
2428.29,0.17637
2422.5,0.17851
2416.72,0.18084
2410.93,0.18290
2405.15,0.18537
2399.36,0.18780
2393.57,0.18955
2387.79,0.19143
2382,0.19259
2376.21,0.19468
2370.43,0.19632
2364.64,0.19774
2358.86,0.19966
2353.07,0.20127
2347.28,0.20335
2341.5,0.20497
2335.71,0.20585
2329.92,0.20727
2324.14,0.20794
2318.35,0.20822
2312.57,0.20902
2306.78,0.20873
2300.99,0.20798
2295.21,0.20712
2289.42,0.20731
2283.63,0.20701
2277.85,0.20599
2272.06,0.20495
2266.28,0.20294
2260.49,0.20077
2254.7,0.19866
2248.92,0.19735
2243.13,0.19633
2237.34,0.19545
2231.56,0.19605
2225.77,0.19656
2219.99,0.19761
2214.2,0.19808
2208.41,0.19830
2202.63,0.19775
2196.84,0.19606
2191.05,0.19367
2185.27,0.19136
2179.48,0.18776
2173.7,0.18410
2167.91,0.18079
2162.12,0.17804
2156.34,0.17545
2150.55,0.17412
2144.76,0.17281
2138.98,0.17210
2133.19,0.17179
2127.41,0.17202
2121.62,0.17302
2115.83,0.17414
2110.05,0.17522
2104.26,0.17614
2098.47,0.17756
2092.69,0.17913
2086.9,0.18007
2081.12,0.18085
2075.33,0.18119
2069.54,0.18064
2063.76,0.18123
2057.97,0.18174
2052.19,0.18247
2046.4,0.18390
2040.61,0.18498
2034.83,0.18721
2029.04,0.18957
2023.25,0.19251
2017.47,0.19576
2011.68,0.19855
2005.9,0.20119
2000.11,0.20319
1994.32,0.20447
1988.54,0.20574
1982.75,0.20641
1976.96,0.20679
1971.18,0.20625
1965.39,0.20566
1959.61,0.20501
1953.82,0.20522
1948.03,0.20629
1942.25,0.20882
1936.46,0.21165
1930.67,0.21474
1924.89,0.21778
1919.1,0.21965
1913.32,0.22171
1907.53,0.22299
1901.74,0.22438
1895.96,0.22481
1890.17,0.22514
1884.38,0.22462
1878.6,0.22386
1872.81,0.22289
1867.03,0.22053
1861.24,0.21800
1855.45,0.21519
1849.67,0.21239
1843.88,0.20834
1838.09,0.20435
1832.31,0.20010
1826.52,0.19536
1820.74,0.18968
1814.95,0.18318
1809.16,0.17576
1803.38,0.16720
1797.59,0.15785
1791.8,0.14750
1786.02,0.13595
1780.23,0.12199
1774.45,0.10507
1768.66,0.08515
1762.87,0.06999
1757.09,0.06115
1751.3,0.05694
1745.51,0.05413
1739.73,0.05371
1733.94,0.05446
1728.16,0.05587
1722.37,0.05886
1716.58,0.06341
1710.8,0.06844
1705.01,0.07292
1699.22,0.07702
1693.44,0.07893
1687.65,0.07945
1681.87,0.07844
1676.08,0.07584
1670.29,0.07284
1664.51,0.07081
1658.72,0.06941
1652.93,0.06863
1647.15,0.06752
1641.36,0.06731
1635.58,0.06686
1629.79,0.06608
1624,0.06462
1618.22,0.06236
1612.43,0.05810
1606.64,0.05516
1600.86,0.05263
1595.07,0.04958
1589.29,0.05249
1583.5,0.06067
1577.71,0.07163
1571.93,0.08310
1566.14,0.09148
1560.35,0.09653
1554.57,0.09799
1548.78,0.09816
1543,0.09662
1537.21,0.09438
1531.42,0.09032
1525.64,0.08155
1519.85,0.06820
1514.07,0.05843
1508.28,0.05358
1502.49,0.05164
1496.71,0.05619
1490.92,0.05956
1485.13,0.05934
1479.35,0.05427
1473.56,0.04635
1467.78,0.04023
1461.99,0.03871
1456.2,0.03950
1450.42,0.04071
1444.63,0.04188
1438.84,0.04095
1433.06,0.03914
1427.27,0.03847
1421.49,0.04085
1415.7,0.04322
1409.91,0.04514
1404.13,0.04596
1398.34,0.04481
1392.55,0.04254
1386.77,0.03872
1380.98,0.03507
1375.2,0.03376
1369.41,0.03402
1363.62,0.03422
1357.84,0.03538
1352.05,0.03555
1346.26,0.03525
1340.48,0.03412
1334.69,0.03320
1328.91,0.03352
1323.12,0.03379
1317.33,0.03456
1311.55,0.03593
1305.76,0.03747
1299.97,0.03797
1294.19,0.03713
1288.4,0.03539
1282.62,0.03396
1276.83,0.03278
1271.04,0.03183
1265.26,0.03086
1259.47,0.03033
1253.68,0.02972
1247.9,0.02928
1242.11,0.02991
1236.33,0.03054
1230.54,0.03190
1224.75,0.03304
1218.97,0.03388
1213.18,0.03516
1207.39,0.03561
1201.61,0.03559
1195.82,0.03542
1190.04,0.03469
1184.25,0.03257
1178.46,0.03069
1172.68,0.02863
1166.89,0.02891
1161.1,0.03084
1155.32,0.03098
1149.53,0.03039
1143.75,0.02863
1137.96,0.02622
1132.17,0.02605
1126.39,0.02716
1120.6,0.02876
1114.81,0.02978
1109.03,0.03140
1103.24,0.03103
1097.46,0.03098
1091.67,0.03039
1085.88,0.02975
1080.1,0.03150
1074.31,0.03396
1068.52,0.03645
1062.74,0.04049
1056.95,0.04341
1051.17,0.04367
1045.38,0.04298
1039.59,0.04475
1033.81,0.04707
1028.02,0.04750
1022.24,0.04791
1016.45,0.04845
1010.66,0.04908
1004.88,0.04946
999.09,0.05018
993.304,0.05167
987.518,0.05386
981.731,0.05859
975.945,0.06276
970.159,0.06561
964.373,0.06931
958.586,0.07533
952.8,0.08137
947.014,0.08646
941.228,0.08821
935.441,0.08687
929.655,0.08635
923.869,0.08527
918.083,0.08417
912.297,0.08152
906.51,0.07824
900.724,0.07385
894.938,0.07556
889.152,0.08234
883.365,0.08684
877.579,0.08936
871.793,0.09111
866.007,0.09364
860.22,0.09557
854.434,0.09458
848.648,0.09300
842.862,0.09211
837.075,0.09078
831.289,0.09070
825.503,0.09217
819.717,0.09394
813.931,0.09419
808.144,0.09400
802.358,0.09426
796.572,0.09342
790.786,0.09239
784.999,0.09124
779.213,0.08779
773.427,0.08403
767.641,0.08185
761.854,0.07979
756.068,0.07726
750.282,0.07521
744.496,0.07271
738.709,0.07120
732.923,0.06868
727.137,0.06644
721.351,0.06327
715.565,0.06296
709.778,0.06231
703.992,0.06124
698.206,0.05987
692.42,0.06000
686.633,0.05910
680.847,0.05552
675.061,0.05341
669.275,0.05392
663.488,0.05538
657.702,0.05618
651.916,0.05524
646.13,0.05499
640.343,0.05324
634.557,0.05280
628.771,0.05194
622.985,0.04802
617.198,0.05092
611.412,0.04722
605.626,0.05220
599.84,0.05322