File: 01_Data/Excelsior/FTIR/IS/Excelsior_IS_S_221109_R5.dpt
7497.03,0.65549
7491.25,0.66029
7485.46,0.65143
7479.67,0.64894
7473.89,0.65063
7468.1,0.65389
7462.32,0.65308
7456.53,0.63673
7450.74,0.64204
7444.96,0.64151
7439.17,0.64622
7433.38,0.63503
7427.6,0.63393
7421.81,0.65067
7416.03,0.62826
7410.24,0.63894
7404.45,0.63401
7398.67,0.63493
7392.88,0.63071
7387.09,0.62533
7381.31,0.62850
7375.52,0.61565
7369.74,0.62314
7363.95,0.62305
7358.16,0.61432
7352.38,0.61823
7346.59,0.61673
7340.8,0.61413
7335.02,0.61426
7329.23,0.61077
7323.45,0.60346
7317.66,0.59896
7311.87,0.61388
7306.09,0.60147
7300.3,0.61392
7294.51,0.61375
7288.73,0.61021
7282.94,0.60217
7277.16,0.60759
7271.37,0.60304
7265.58,0.60795
7259.8,0.61286
7254.01,0.60379
7248.22,0.60938
7242.44,0.60919
7236.65,0.60734
7230.87,0.60302
7225.08,0.60705
7219.29,0.60936
7213.51,0.60454
7207.72,0.59276
7201.93,0.60057
7196.15,0.59922
7190.36,0.59529
7184.58,0.59383
7178.79,0.59477
7173,0.59668
7167.22,0.58803
7161.43,0.58836
7155.65,0.58807
7149.86,0.58546
7144.07,0.58194
7138.29,0.57846
7132.5,0.57420
7126.71,0.57065
7120.93,0.57003
7115.14,0.57200
7109.36,0.56509
7103.57,0.55589
7097.78,0.54819
7092,0.54267
7086.21,0.54706
7080.42,0.53814
7074.64,0.53517
7068.85,0.52345
7063.07,0.51619
7057.28,0.52386
7051.49,0.51327
7045.71,0.50219
7039.92,0.49729
7034.13,0.49346
7028.35,0.49233
7022.56,0.49186
7016.78,0.47850
7010.99,0.47790
7005.2,0.47054
6999.42,0.47191
6993.63,0.46658
6987.84,0.46548
6982.06,0.45954
6976.27,0.46539
6970.49,0.46095
6964.7,0.45837
6958.91,0.45219
6953.13,0.45279
6947.34,0.45768
6941.55,0.45534
6935.77,0.45406
6929.98,0.45086
6924.2,0.45278
6918.41,0.45911
6912.62,0.45122
6906.84,0.45836
6901.05,0.45519
6895.26,0.45066
6889.48,0.45479
6883.69,0.45331
6877.91,0.45636
6872.12,0.45379
6866.33,0.45123
6860.55,0.45125
6854.76,0.45095
6848.97,0.45373
6843.19,0.45425
6837.4,0.45070
6831.62,0.45175
6825.83,0.45292
6820.04,0.45152
6814.26,0.44955
6808.47,0.45609
6802.68,0.45701
6796.9,0.45269
6791.11,0.45099
6785.33,0.44858
6779.54,0.44646
6773.75,0.44741
6767.97,0.44764
6762.18,0.44930
6756.39,0.45219
6750.61,0.45046
6744.82,0.45072
6739.04,0.45052
6733.25,0.45303
6727.46,0.44886
6721.68,0.45313
6715.89,0.45480
6710.1,0.45397
6704.32,0.45464
6698.53,0.45323
6692.75,0.45361
6686.96,0.45888
6681.17,0.45406
6675.39,0.46132
6669.6,0.45681
6663.82,0.45827
6658.03,0.46364
6652.24,0.46367
6646.46,0.45771
6640.67,0.45820
6634.88,0.45897
6629.1,0.46551
6623.31,0.46444
6617.53,0.46903
6611.74,0.46116
6605.95,0.47227
6600.17,0.46916
6594.38,0.47363
6588.59,0.47795
6582.81,0.47604
6577.02,0.47143
6571.24,0.47605
6565.45,0.47334
6559.66,0.47190
6553.88,0.47522
6548.09,0.47993
6542.3,0.47744
6536.52,0.47412
6530.73,0.47829
6524.95,0.48021
6519.16,0.47891
6513.37,0.48177
6507.59,0.48294
6501.8,0.48462
6496.01,0.47964
6490.23,0.47980
6484.44,0.48576
6478.66,0.48529
6472.87,0.48358
6467.08,0.48304
6461.3,0.48129
6455.51,0.48246
6449.72,0.48454
6443.94,0.48428
6438.15,0.48426
6432.37,0.48838
6426.58,0.48397
6420.79,0.48600
6415.01,0.48903
6409.22,0.49151
6403.43,0.49076
6397.65,0.48907
6391.86,0.49115
6386.08,0.48913
6380.29,0.49299
6374.5,0.49069
6368.72,0.49427
6362.93,0.49276
6357.14,0.49417
6351.36,0.49255
6345.57,0.49160
6339.79,0.49049
6334,0.49616
6328.21,0.49554
6322.43,0.49577
6316.64,0.49561
6310.85,0.49443
6305.07,0.49386
6299.28,0.50105
6293.5,0.50024
6287.71,0.49987
6281.92,0.49957
6276.14,0.50041
6270.35,0.50304
6264.56,0.50244
6258.78,0.50897
6252.99,0.50755
6247.21,0.51250
6241.42,0.51280
6235.63,0.51675
6229.85,0.51353
6224.06,0.51502
6218.27,0.52343
6212.49,0.52194
6206.7,0.51907
6200.92,0.52371
6195.13,0.52848
6189.34,0.53105
6183.56,0.52995
6177.77,0.53431
6171.98,0.53635
6166.2,0.53553
6160.41,0.54068
6154.63,0.54080
6148.84,0.54184
6143.05,0.54278
6137.27,0.54366
6131.48,0.54169
6125.7,0.54629
6119.91,0.54456
6114.12,0.54806
6108.34,0.54208
6102.55,0.54618
6096.76,0.54806
6090.98,0.54976
6085.19,0.54716
6079.41,0.55059
6073.62,0.54598
6067.83,0.55045
6062.05,0.54247
6056.26,0.54579
6050.47,0.54425
6044.69,0.54242
6038.9,0.54255
6033.12,0.54240
6027.33,0.54078
6021.54,0.53834
6015.76,0.53877
6009.97,0.53921
6004.18,0.53586
5998.4,0.53591
5992.61,0.53851
5986.83,0.53494
5981.04,0.53420
5975.25,0.53272
5969.47,0.53112
5963.68,0.52966
5957.89,0.52672
5952.11,0.52717
5946.32,0.52769
5940.54,0.52328
5934.75,0.52590
5928.96,0.52662
5923.18,0.52656
5917.39,0.52590
5911.6,0.52275
5905.82,0.52144
5900.03,0.51749
5894.25,0.51561
5888.46,0.51575
5882.67,0.51329
5876.89,0.51374
5871.1,0.51546
5865.31,0.51278
5859.53,0.51106
5853.74,0.51433
5847.96,0.51320
5842.17,0.51068
5836.38,0.50753
5830.6,0.50723
5824.81,0.50445
5819.02,0.50384
5813.24,0.50345
5807.45,0.49975
5801.67,0.50007
5795.88,0.49862
5790.09,0.49969
5784.31,0.50379
5778.52,0.50605
5772.73,0.50619
5766.95,0.50880
5761.16,0.50863
5755.38,0.51120
5749.59,0.51078
5743.8,0.51235
5738.02,0.51668
5732.23,0.51476
5726.44,0.51631
5720.66,0.51578
5714.87,0.51649
5709.09,0.51514
5703.3,0.51422
5697.51,0.51453
5691.73,0.51554
5685.94,0.51154
5680.15,0.51147
5674.37,0.51375
5668.58,0.51166
5662.8,0.51311
5657.01,0.51398
5651.22,0.51250
5645.44,0.50994
5639.65,0.51256
5633.87,0.51335
5628.08,0.51255
5622.29,0.51136
5616.51,0.51260
5610.72,0.51218
5604.93,0.51442
5599.15,0.51294
5593.36,0.51378
5587.58,0.51262
5581.79,0.51455
5576,0.51464
5570.22,0.51665
5564.43,0.51590
5558.64,0.51702
5552.86,0.51538
5547.07,0.51504
5541.29,0.51763
5535.5,0.51658
5529.71,0.51868
5523.93,0.51873
5518.14,0.51921
5512.35,0.51879
5506.57,0.51941
5500.78,0.52003
5495,0.52049
5489.21,0.52019
5483.42,0.51935
5477.64,0.52111
5471.85,0.52411
5466.06,0.52387
5460.28,0.52431
5454.49,0.52476
5448.71,0.52590
5442.92,0.52639
5437.13,0.52988
5431.35,0.53067
5425.56,0.53366
5419.77,0.53475
5413.99,0.53456
5408.2,0.53510
5402.42,0.53735
5396.63,0.53791
5390.84,0.53785
5385.06,0.53902
5379.27,0.53699
5373.48,0.53792
5367.7,0.53674
5361.91,0.53794
5356.13,0.53883
5350.34,0.53656
5344.55,0.53782
5338.77,0.53670
5332.98,0.53645
5327.19,0.53433
5321.41,0.53158
5315.62,0.52997
5309.84,0.52422
5304.05,0.51874
5298.26,0.51256
5292.48,0.50925
5286.69,0.50054
5280.9,0.49156
5275.12,0.48233
5269.33,0.47304
5263.55,0.46273
5257.76,0.45424
5251.97,0.44692
5246.19,0.44106
5240.4,0.43238
5234.61,0.42875
5228.83,0.42417
5223.04,0.41943
5217.26,0.41712
5211.47,0.41281
5205.68,0.41184
5199.9,0.41388
5194.11,0.41285
5188.32,0.41296
5182.54,0.41432
5176.75,0.41734
5170.97,0.41912
5165.18,0.42078
5159.39,0.42241
5153.61,0.42539
5147.82,0.42950
5142.03,0.43247
5136.25,0.43423
5130.46,0.43655
5124.68,0.44086
5118.89,0.44363
5113.1,0.44491
5107.32,0.44933
5101.53,0.45228
5095.75,0.45395
5089.96,0.45472
5084.17,0.45666
5078.39,0.46038
5072.6,0.46339
5066.81,0.46481
5061.03,0.46640
5055.24,0.46821
5049.46,0.47168
5043.67,0.47235
5037.88,0.47341
5032.1,0.47347
5026.31,0.47287
5020.52,0.47563
5014.74,0.47482
5008.95,0.47483
5003.17,0.47445
4997.38,0.47218
4991.59,0.46989
4985.81,0.46902
4980.02,0.46522
4974.23,0.46168
4968.45,0.45853
4962.66,0.45308
4956.88,0.44917
4951.09,0.44366
4945.3,0.43847
4939.52,0.43305
4933.73,0.42723
4927.94,0.42207
4922.16,0.41474
4916.37,0.40933
4910.59,0.40356
4904.8,0.39807
4899.01,0.39289
4893.23,0.38745
4887.44,0.38276
4881.65,0.37897
4875.87,0.37355
4870.08,0.36929
4864.3,0.36578
4858.51,0.36156
4852.72,0.35759
4846.94,0.35626
4841.15,0.35144
4835.36,0.34824
4829.58,0.34514
4823.79,0.34229
4818.01,0.34020
4812.22,0.33829
4806.43,0.33688
4800.65,0.33532
4794.86,0.33540
4789.07,0.33264
4783.29,0.33156
4777.5,0.33229
4771.72,0.33158
4765.93,0.33069
4760.14,0.33094
4754.36,0.33055
4748.57,0.33096
4742.78,0.33177
4737,0.33149
4731.21,0.33310
4725.43,0.33479
4719.64,0.33403
4713.85,0.33518
4708.07,0.33593
4702.28,0.33716
4696.49,0.33750
4690.71,0.34046
4684.92,0.34106
4679.14,0.34292
4673.35,0.34635
4667.56,0.34756
4661.78,0.35030
4655.99,0.35211
4650.2,0.35504
4644.42,0.35747
4638.63,0.36002
4632.85,0.36216
4627.06,0.36354
4621.27,0.36611
4615.49,0.36829
4609.7,0.37056
4603.92,0.37322
4598.13,0.37399
4592.34,0.37610
4586.56,0.37856
4580.77,0.37871
4574.98,0.37999
4569.2,0.38205
4563.41,0.38286
4557.63,0.38542
4551.84,0.38595
4546.05,0.38689
4540.27,0.38740
4534.48,0.38814
4528.69,0.38947
4522.91,0.38946
4517.12,0.39085
4511.34,0.38825
4505.55,0.38706
4499.76,0.38480
4493.98,0.38239
4488.19,0.37790
4482.4,0.37299
4476.62,0.36722
4470.83,0.35991
4465.05,0.35344
4459.26,0.34582
4453.47,0.33894
4447.69,0.33134
4441.9,0.32487
4436.11,0.31855
4430.33,0.31313
4424.54,0.30828
4418.76,0.30314
4412.97,0.30024
4407.18,0.29676
4401.4,0.29598
4395.61,0.29589
4389.82,0.29720
4384.04,0.29895
4378.25,0.30086
4372.47,0.30404
4366.68,0.30662
4360.89,0.30781
4355.11,0.30685
4349.32,0.30606
4343.53,0.30449
4337.75,0.30236
4331.96,0.30067
4326.18,0.29833
4320.39,0.29703
4314.6,0.29597
4308.82,0.29503
4303.03,0.29348
4297.24,0.29098
4291.46,0.29019
4285.67,0.28924
4279.89,0.28815
4274.1,0.28854
4268.31,0.28905
4262.53,0.29077
4256.74,0.29095
4250.95,0.29240
4245.17,0.29236
4239.38,0.29277
4233.6,0.29401
4227.81,0.29470
4222.02,0.29499
4216.24,0.29579
4210.45,0.29673
4204.66,0.29680
4198.88,0.29799
4193.09,0.29810
4187.31,0.29921
4181.52,0.29874
4175.73,0.30059
4169.95,0.30177
4164.16,0.30271
4158.37,0.30384
4152.59,0.30190
4146.8,0.30198
4141.02,0.29999
4135.23,0.29850
4129.44,0.29624
4123.66,0.29344
4117.87,0.28939
4112.09,0.28599
4106.3,0.28236
4100.51,0.27796
4094.73,0.27429
4088.94,0.26981
4083.15,0.26493
4077.37,0.26092
4071.58,0.25661
4065.8,0.25184
4060.01,0.24760
4054.22,0.24346
4048.44,0.23968
4042.65,0.23693
4036.86,0.23448
4031.08,0.23184
4025.29,0.22987
4019.51,0.22964
4013.72,0.22971
4007.93,0.23030
4002.15,0.23120
3996.36,0.23326
3990.57,0.23443
3984.79,0.23586
3979,0.23774
3973.22,0.23821
3967.43,0.24007
3961.64,0.24232
3955.86,0.24522
3950.07,0.24717
3944.28,0.24922
3938.5,0.25148
3932.71,0.25419
3926.93,0.25619
3921.14,0.25888
3915.35,0.26160
3909.57,0.26380
3903.78,0.26599
3897.99,0.26726
3892.21,0.26955
3886.42,0.27188
3880.64,0.27357
3874.85,0.27536
3869.06,0.27801
3863.28,0.27977
3857.49,0.28318
3851.7,0.28605
3845.92,0.28889
3840.13,0.29147
3834.35,0.29242
3828.56,0.29370
3822.77,0.29529
3816.99,0.29528
3811.2,0.29601
3805.41,0.29578
3799.63,0.29595
3793.84,0.29610
3788.06,0.29676
3782.27,0.29576
3776.48,0.29503
3770.7,0.29496
3764.91,0.29370
3759.12,0.29205
3753.34,0.29055
3747.55,0.28898
3741.77,0.28653
3735.98,0.28300
3730.19,0.28026
3724.41,0.27622
3718.62,0.27114
3712.83,0.26651
3707.05,0.25886
3701.26,0.25047
3695.48,0.24113
3689.69,0.23084
3683.9,0.21712
3678.12,0.20418
3672.33,0.18897
3666.54,0.17353
3660.76,0.15985
3654.97,0.14706
3649.19,0.13487
3643.4,0.12402
3637.61,0.11466
3631.83,0.10622
3626.04,0.09808
3620.25,0.09138
3614.47,0.08428
3608.68,0.07780
3602.9,0.07157
3597.11,0.06700
3591.32,0.06195
3585.54,0.05729
3579.75,0.05446
3573.97,0.05190
3568.18,0.04943
3562.39,0.04646
3556.61,0.04415
3550.82,0.04257
3545.03,0.04117
3539.25,0.03958
3533.46,0.03876
3527.68,0.03794
3521.89,0.03632
3516.1,0.03529
3510.32,0.03435
3504.53,0.03392
3498.74,0.03423
3492.96,0.03287
3487.17,0.03220
3481.39,0.03210
3475.6,0.03154
3469.81,0.03140
3464.03,0.03098
3458.24,0.03075
3452.45,0.02990
3446.67,0.02932
3440.88,0.02990
3435.1,0.03003
3429.31,0.03028
3423.52,0.02975
3417.74,0.02993
3411.95,0.03064
3406.16,0.03028
3400.38,0.02996
3394.59,0.03113
3388.81,0.03040
3383.02,0.03041
3377.23,0.03090
3371.45,0.03060
3365.66,0.03063
3359.87,0.03102
3354.09,0.03136
3348.3,0.03151
3342.52,0.03121
3336.73,0.03277
3330.94,0.03303
3325.16,0.03317
3319.37,0.03418
3313.58,0.03458
3307.8,0.03476
3302.01,0.03526
3296.23,0.03551
3290.44,0.03630
3284.65,0.03640
3278.87,0.03622
3273.08,0.03819
3267.29,0.03890
3261.51,0.03906
3255.72,0.04074
3249.94,0.04202
3244.15,0.04297
3238.36,0.04418
3232.58,0.04494
3226.79,0.04604
3221,0.04762
3215.22,0.04845
3209.43,0.05004
3203.65,0.05141
3197.86,0.05321
3192.07,0.05435
3186.29,0.05593
3180.5,0.05761
3174.71,0.05854
3168.93,0.06024
3163.14,0.06227
3157.36,0.06451
3151.57,0.06561
3145.78,0.06716
3140,0.06867
3134.21,0.07027
3128.42,0.07242
3122.64,0.07370
3116.85,0.07497
3111.07,0.07656
3105.28,0.07795
3099.49,0.07973
3093.71,0.08072
3087.92,0.08215
3082.14,0.08350
3076.35,0.08489
3070.56,0.08624
3064.78,0.08735
3058.99,0.08896
3053.2,0.09012
3047.42,0.09159
3041.63,0.09183
3035.85,0.09201
3030.06,0.09153
3024.27,0.09010
3018.49,0.08817
3012.7,0.08602
3006.91,0.08305
3001.13,0.08050
2995.34,0.07838
2989.56,0.07577
2983.77,0.07166
2977.98,0.06600
2972.2,0.06171
2966.41,0.05786
2960.62,0.05563
2954.84,0.05387
2949.05,0.05207
2943.27,0.05016
2937.48,0.04955
2931.69,0.04992
2925.91,0.04911
2920.12,0.04868
2914.33,0.04890
2908.55,0.04900
2902.76,0.04920
2896.98,0.05034
2891.19,0.05187
2885.4,0.05289
2879.62,0.05420
2873.83,0.05474
2868.04,0.05595
2862.26,0.05706
2856.47,0.05885
2850.69,0.05942
2844.9,0.06355
2839.11,0.06783
2833.33,0.07305
2827.54,0.07934
2821.75,0.08427
2815.97,0.08803
2810.18,0.09189
2804.4,0.09538
2798.61,0.09793
2792.82,0.09988
2787.04,0.10164
2781.25,0.10361
2775.46,0.10414
2769.68,0.10526
2763.89,0.10658
2758.11,0.10793
2752.32,0.10803
2746.53,0.10833
2740.75,0.10873
2734.96,0.10951
2729.17,0.11022
2723.39,0.11131
2717.6,0.11277
2711.82,0.11444
2706.03,0.11676
2700.24,0.11902
2694.46,0.12092
2688.67,0.12313
2682.88,0.12451
2677.1,0.12619
2671.31,0.12740
2665.53,0.12898
2659.74,0.12921
2653.95,0.13085
2648.17,0.13195
2642.38,0.13293
2636.59,0.13433
2630.81,0.13541
2625.02,0.13744
2619.24,0.13907
2613.45,0.14076
2607.66,0.14146
2601.88,0.14306
2596.09,0.14467
2590.3,0.14571
2584.52,0.14662
2578.73,0.14722
2572.95,0.14748
2567.16,0.14782
2561.37,0.14836
2555.59,0.14834
2549.8,0.14872
2544.02,0.14902
2538.23,0.14945
2532.44,0.15020
2526.66,0.15142
2520.87,0.15223
2515.08,0.15296
2509.3,0.15408
2503.51,0.15615
2497.73,0.15799
2491.94,0.15976
2486.15,0.16101
2480.37,0.16306
2474.58,0.16442
2468.79,0.16593
2463.01,0.16724
2457.22,0.16845
2451.44,0.17022
2445.65,0.17182
2439.86,0.17403
2434.08,0.17584
2428.29,0.17762
2422.5,0.18031
2416.72,0.18270
2410.93,0.18513
2405.15,0.18727
2399.36,0.18927
2393.57,0.19147
2387.79,0.19314
2382,0.19478
2376.21,0.19655
2370.43,0.19847
2364.64,0.20042
2358.86,0.20248
2353.07,0.20422
2347.28,0.20621
2341.5,0.20826
2335.71,0.20960
2329.92,0.21016
2324.14,0.21148
2318.35,0.21223
2312.57,0.21234
2306.78,0.21211
2300.99,0.21137
2295.21,0.21073
2289.42,0.21051
2283.63,0.21029
2277.85,0.20979
2272.06,0.20845
2266.28,0.20627
2260.49,0.20405
2254.7,0.20262
2248.92,0.20068
2243.13,0.19996
2237.34,0.19987
2231.56,0.19985
2225.77,0.20087
2219.99,0.20194
2214.2,0.20273
2208.41,0.20276
2202.63,0.20227
2196.84,0.20088
2191.05,0.19860
2185.27,0.19551
2179.48,0.19229
2173.7,0.18841
2167.91,0.18527
2162.12,0.18228
2156.34,0.18004
2150.55,0.17845
2144.76,0.17701
2138.98,0.17607
2133.19,0.17626
2127.41,0.17651
2121.62,0.17708
2115.83,0.17833
2110.05,0.17947
2104.26,0.18086
2098.47,0.18231
2092.69,0.18371
2086.9,0.18507
2081.12,0.18566
2075.33,0.18572
2069.54,0.18553
2063.76,0.18577
2057.97,0.18662
2052.19,0.18738
2046.4,0.18843
2040.61,0.18984
2034.83,0.19224
2029.04,0.19466
2023.25,0.19799
2017.47,0.20093
2011.68,0.20391
2005.9,0.20674
2000.11,0.20856
1994.32,0.20989
1988.54,0.21131
1982.75,0.21218
1976.96,0.21201
1971.18,0.21151
1965.39,0.21075
1959.61,0.21003
1953.82,0.21046
1948.03,0.21149
1942.25,0.21404
1936.46,0.21677
1930.67,0.21974
1924.89,0.22260
1919.1,0.22485
1913.32,0.22676
1907.53,0.22819
1901.74,0.22945
1895.96,0.22997
1890.17,0.23022
1884.38,0.22987
1878.6,0.22861
1872.81,0.22736
1867.03,0.22561
1861.24,0.22234
1855.45,0.21938
1849.67,0.21655
1843.88,0.21232
1838.09,0.20831
1832.31,0.20380
1826.52,0.19862
1820.74,0.19287
1814.95,0.18625
1809.16,0.17809
1803.38,0.16968
1797.59,0.15928
1791.8,0.14825
1786.02,0.13624
1780.23,0.12129
1774.45,0.10383
1768.66,0.08395
1762.87,0.06922
1757.09,0.06057
1751.3,0.05688
1745.51,0.05426
1739.73,0.05383
1733.94,0.05474
1728.16,0.05616
1722.37,0.05954
1716.58,0.06375
1710.8,0.06909
1705.01,0.07425
1699.22,0.07896
1693.44,0.08099
1687.65,0.08235
1681.87,0.08138
1676.08,0.07897
1670.29,0.07626
1664.51,0.07411
1658.72,0.07240
1652.93,0.07184
1647.15,0.07186
1641.36,0.07112
1635.58,0.07049
1629.79,0.06923
1624,0.06692
1618.22,0.06416
1612.43,0.05985
1606.64,0.05588
1600.86,0.05331
1595.07,0.05034
1589.29,0.05273
1583.5,0.06100
1577.71,0.07253
1571.93,0.08406
1566.14,0.09317
1560.35,0.09760
1554.57,0.10033
1548.78,0.10002
1543,0.09863
1537.21,0.09559
1531.42,0.09182
1525.64,0.08297
1519.85,0.06868
1514.07,0.05852
1508.28,0.05374
1502.49,0.05199
1496.71,0.05547
1490.92,0.05937
1485.13,0.05947
1479.35,0.05432
1473.56,0.04622
1467.78,0.03998
1461.99,0.03860
1456.2,0.03970
1450.42,0.04111
1444.63,0.04172
1438.84,0.04118
1433.06,0.03939
1427.27,0.03901
1421.49,0.04045
1415.7,0.04291
1409.91,0.04539
1404.13,0.04569
1398.34,0.04517
1392.55,0.04196
1386.77,0.03819
1380.98,0.03469
1375.2,0.03345
1369.41,0.03394
1363.62,0.03422
1357.84,0.03514
1352.05,0.03527
1346.26,0.03465
1340.48,0.03398
1334.69,0.03312
1328.91,0.03310
1323.12,0.03353
1317.33,0.03450
1311.55,0.03594
1305.76,0.03793
1299.97,0.03791
1294.19,0.03721
1288.4,0.03528
1282.62,0.03388
1276.83,0.03272
1271.04,0.03145
1265.26,0.03094
1259.47,0.03002
1253.68,0.03000
1247.9,0.02923
1242.11,0.02933
1236.33,0.03031
1230.54,0.03150
1224.75,0.03264
1218.97,0.03407
1213.18,0.03512
1207.39,0.03550
1201.61,0.03559
1195.82,0.03601
1190.04,0.03444
1184.25,0.03280
1178.46,0.03006
1172.68,0.02829
1166.89,0.02942
1161.1,0.03096
1155.32,0.03081
1149.53,0.03071
1143.75,0.02937
1137.96,0.02685
1132.17,0.02620
1126.39,0.02772
1120.6,0.02919
1114.81,0.02973
1109.03,0.03073
1103.24,0.03125
1097.46,0.03115
1091.67,0.03007
1085.88,0.03027
1080.1,0.03102
1074.31,0.03363
1068.52,0.03660
1062.74,0.04076
1056.95,0.04293
1051.17,0.04372
1045.38,0.04282
1039.59,0.04458
1033.81,0.04666
1028.02,0.04666
1022.24,0.04660
1016.45,0.04740
1010.66,0.04926
1004.88,0.04928
999.09,0.05018
993.304,0.05050
987.518,0.05354
981.731,0.05835
975.945,0.06259
970.159,0.06543
964.373,0.06971
958.586,0.07516
952.8,0.08198
947.014,0.08715
941.228,0.08877
935.441,0.08813
929.655,0.08684
923.869,0.08605
918.083,0.08413
912.297,0.08244
906.51,0.07938
900.724,0.07525
894.938,0.07670
889.152,0.08240
883.365,0.08801
877.579,0.08978
871.793,0.09211
866.007,0.09576
860.22,0.09729
854.434,0.09619
848.648,0.09545
842.862,0.09440
837.075,0.09356
831.289,0.09347
825.503,0.09521
819.717,0.09741
813.931,0.09855
808.144,0.09827
802.358,0.09773
796.572,0.09757
790.786,0.09647
784.999,0.09489
779.213,0.09195
773.427,0.08648
767.641,0.08463
761.854,0.08307
756.068,0.07981
750.282,0.07685
744.496,0.07521
738.709,0.07298
732.923,0.07031
727.137,0.06731
721.351,0.06505
715.565,0.06453
709.778,0.06331
703.992,0.06205
698.206,0.06210
692.42,0.06027
686.633,0.06052
680.847,0.05786
675.061,0.05500
669.275,0.05534
663.488,0.05504
657.702,0.05588
651.916,0.05563
646.13,0.05612
640.343,0.05413
634.557,0.05255
628.771,0.04935
622.985,0.05074
617.198,0.04781
611.412,0.04995
605.626,0.05309
599.84,0.05118