File: 01_Data/Excelsior/FTIR/IS/Excelsior_IS_S_221109_R8.dpt
7497.03,0.66658
7491.25,0.65016
7485.46,0.65319
7479.67,0.65599
7473.89,0.66517
7468.1,0.65554
7462.32,0.65157
7456.53,0.65242
7450.74,0.65092
7444.96,0.65028
7439.17,0.63524
7433.38,0.63592
7427.6,0.64510
7421.81,0.64040
7416.03,0.63970
7410.24,0.63795
7404.45,0.63585
7398.67,0.63216
7392.88,0.63329
7387.09,0.63457
7381.31,0.62926
7375.52,0.62974
7369.74,0.62017
7363.95,0.62177
7358.16,0.61938
7352.38,0.62235
7346.59,0.61691
7340.8,0.61265
7335.02,0.61404
7329.23,0.60899
7323.45,0.61064
7317.66,0.61351
7311.87,0.61726
7306.09,0.60890
7300.3,0.60167
7294.51,0.60301
7288.73,0.60433
7282.94,0.60742
7277.16,0.59833
7271.37,0.60448
7265.58,0.60639
7259.8,0.60850
7254.01,0.60134
7248.22,0.60350
7242.44,0.59629
7236.65,0.60781
7230.87,0.60539
7225.08,0.60978
7219.29,0.60031
7213.51,0.61321
7207.72,0.61462
7201.93,0.60407
7196.15,0.60560
7190.36,0.60349
7184.58,0.60368
7178.79,0.60317
7173,0.59821
7167.22,0.60164
7161.43,0.58979
7155.65,0.59353
7149.86,0.58962
7144.07,0.59162
7138.29,0.58881
7132.5,0.58870
7126.71,0.57911
7120.93,0.57290
7115.14,0.57365
7109.36,0.56082
7103.57,0.55928
7097.78,0.55362
7092,0.55000
7086.21,0.53792
7080.42,0.53544
7074.64,0.54000
7068.85,0.53292
7063.07,0.52394
7057.28,0.51766
7051.49,0.51435
7045.71,0.50845
7039.92,0.50308
7034.13,0.49418
7028.35,0.49006
7022.56,0.48050
7016.78,0.48068
7010.99,0.48063
7005.2,0.47738
6999.42,0.46323
6993.63,0.47184
6987.84,0.46637
6982.06,0.46701
6976.27,0.46439
6970.49,0.46395
6964.7,0.46056
6958.91,0.46340
6953.13,0.46640
6947.34,0.45325
6941.55,0.45860
6935.77,0.45220
6929.98,0.44728
6924.2,0.44787
6918.41,0.45707
6912.62,0.45781
6906.84,0.45541
6901.05,0.45049
6895.26,0.44811
6889.48,0.45433
6883.69,0.45956
6877.91,0.45361
6872.12,0.44875
6866.33,0.46139
6860.55,0.45955
6854.76,0.45713
6848.97,0.45086
6843.19,0.45119
6837.4,0.45899
6831.62,0.45165
6825.83,0.45777
6820.04,0.45677
6814.26,0.45687
6808.47,0.45766
6802.68,0.46022
6796.9,0.45313
6791.11,0.45413
6785.33,0.45442
6779.54,0.45583
6773.75,0.45944
6767.97,0.45402
6762.18,0.45279
6756.39,0.45821
6750.61,0.45432
6744.82,0.45902
6739.04,0.46013
6733.25,0.45124
6727.46,0.45508
6721.68,0.45226
6715.89,0.46048
6710.1,0.45866
6704.32,0.45813
6698.53,0.45946
6692.75,0.46010
6686.96,0.46131
6681.17,0.46213
6675.39,0.46213
6669.6,0.45756
6663.82,0.46323
6658.03,0.46518
6652.24,0.46146
6646.46,0.46617
6640.67,0.46800
6634.88,0.46157
6629.1,0.46917
6623.31,0.46688
6617.53,0.47262
6611.74,0.47165
6605.95,0.46776
6600.17,0.46864
6594.38,0.47599
6588.59,0.47684
6582.81,0.47492
6577.02,0.47934
6571.24,0.47372
6565.45,0.48002
6559.66,0.47414
6553.88,0.47908
6548.09,0.47833
6542.3,0.48592
6536.52,0.47960
6530.73,0.48151
6524.95,0.48156
6519.16,0.48204
6513.37,0.48051
6507.59,0.47967
6501.8,0.48390
6496.01,0.48520
6490.23,0.48286
6484.44,0.48491
6478.66,0.48299
6472.87,0.48937
6467.08,0.48716
6461.3,0.48750
6455.51,0.48197
6449.72,0.48557
6443.94,0.48447
6438.15,0.48864
6432.37,0.49159
6426.58,0.49099
6420.79,0.48804
6415.01,0.48605
6409.22,0.49249
6403.43,0.48902
6397.65,0.49188
6391.86,0.48919
6386.08,0.49030
6380.29,0.49483
6374.5,0.49230
6368.72,0.49164
6362.93,0.49338
6357.14,0.49998
6351.36,0.49737
6345.57,0.49472
6339.79,0.49758
6334,0.49854
6328.21,0.50032
6322.43,0.49543
6316.64,0.49910
6310.85,0.49915
6305.07,0.49998
6299.28,0.49874
6293.5,0.50149
6287.71,0.50327
6281.92,0.50438
6276.14,0.50417
6270.35,0.51067
6264.56,0.50993
6258.78,0.50506
6252.99,0.51071
6247.21,0.51738
6241.42,0.51728
6235.63,0.51946
6229.85,0.52255
6224.06,0.52218
6218.27,0.52745
6212.49,0.52882
6206.7,0.52999
6200.92,0.52765
6195.13,0.53300
6189.34,0.53323
6183.56,0.53407
6177.77,0.53784
6171.98,0.53750
6166.2,0.54011
6160.41,0.54037
6154.63,0.54122
6148.84,0.54452
6143.05,0.54474
6137.27,0.54351
6131.48,0.55034
6125.7,0.54993
6119.91,0.54867
6114.12,0.55011
6108.34,0.55103
6102.55,0.55176
6096.76,0.55034
6090.98,0.55370
6085.19,0.55356
6079.41,0.55058
6073.62,0.54776
6067.83,0.54864
6062.05,0.55072
6056.26,0.54797
6050.47,0.55076
6044.69,0.54907
6038.9,0.54744
6033.12,0.54881
6027.33,0.54551
6021.54,0.54257
6015.76,0.54239
6009.97,0.54090
6004.18,0.53916
5998.4,0.53983
5992.61,0.53773
5986.83,0.53964
5981.04,0.53689
5975.25,0.53652
5969.47,0.53468
5963.68,0.53599
5957.89,0.53210
5952.11,0.52909
5946.32,0.52740
5940.54,0.52800
5934.75,0.52764
5928.96,0.52881
5923.18,0.52736
5917.39,0.52766
5911.6,0.52706
5905.82,0.52673
5900.03,0.52326
5894.25,0.52206
5888.46,0.52133
5882.67,0.52050
5876.89,0.51905
5871.1,0.51491
5865.31,0.51469
5859.53,0.51378
5853.74,0.51169
5847.96,0.51179
5842.17,0.51511
5836.38,0.51231
5830.6,0.51073
5824.81,0.50891
5819.02,0.50264
5813.24,0.50340
5807.45,0.50443
5801.67,0.50486
5795.88,0.50315
5790.09,0.50488
5784.31,0.50752
5778.52,0.50622
5772.73,0.51178
5766.95,0.51021
5761.16,0.51076
5755.38,0.51390
5749.59,0.51468
5743.8,0.51671
5738.02,0.51855
5732.23,0.51731
5726.44,0.51685
5720.66,0.51894
5714.87,0.52006
5709.09,0.52054
5703.3,0.51929
5697.51,0.51905
5691.73,0.51797
5685.94,0.51646
5680.15,0.51623
5674.37,0.51412
5668.58,0.51405
5662.8,0.51666
5657.01,0.51644
5651.22,0.51658
5645.44,0.51810
5639.65,0.51588
5633.87,0.51379
5628.08,0.51788
5622.29,0.51694
5616.51,0.51622
5610.72,0.51623
5604.93,0.51755
5599.15,0.52002
5593.36,0.51749
5587.58,0.51581
5581.79,0.51583
5576,0.51855
5570.22,0.51944
5564.43,0.51912
5558.64,0.51918
5552.86,0.51954
5547.07,0.52205
5541.29,0.52213
5535.5,0.52141
5529.71,0.52309
5523.93,0.52179
5518.14,0.52252
5512.35,0.52310
5506.57,0.52595
5500.78,0.52698
5495,0.52509
5489.21,0.52534
5483.42,0.52511
5477.64,0.52532
5471.85,0.52497
5466.06,0.52595
5460.28,0.52712
5454.49,0.53004
5448.71,0.52974
5442.92,0.52969
5437.13,0.53279
5431.35,0.53685
5425.56,0.53649
5419.77,0.53724
5413.99,0.53947
5408.2,0.54054
5402.42,0.54099
5396.63,0.54026
5390.84,0.54216
5385.06,0.54314
5379.27,0.54225
5373.48,0.54297
5367.7,0.54246
5361.91,0.54410
5356.13,0.54254
5350.34,0.54450
5344.55,0.54416
5338.77,0.54172
5332.98,0.54179
5327.19,0.54040
5321.41,0.53650
5315.62,0.53379
5309.84,0.52908
5304.05,0.52546
5298.26,0.52032
5292.48,0.51409
5286.69,0.50960
5280.9,0.49981
5275.12,0.49095
5269.33,0.48369
5263.55,0.47263
5257.76,0.46344
5251.97,0.45624
5246.19,0.44951
5240.4,0.44199
5234.61,0.43731
5228.83,0.43211
5223.04,0.42932
5217.26,0.42533
5211.47,0.42301
5205.68,0.42320
5199.9,0.42254
5194.11,0.42208
5188.32,0.42253
5182.54,0.42615
5176.75,0.42647
5170.97,0.42792
5165.18,0.42891
5159.39,0.43375
5153.61,0.43600
5147.82,0.43880
5142.03,0.44222
5136.25,0.44482
5130.46,0.44711
5124.68,0.44987
5118.89,0.45508
5113.1,0.45557
5107.32,0.45810
5101.53,0.46007
5095.75,0.46262
5089.96,0.46515
5084.17,0.46715
5078.39,0.46936
5072.6,0.47189
5066.81,0.47418
5061.03,0.47647
5055.24,0.47685
5049.46,0.47822
5043.67,0.47925
5037.88,0.48086
5032.1,0.48178
5026.31,0.48164
5020.52,0.48280
5014.74,0.48268
5008.95,0.48141
5003.17,0.48076
4997.38,0.47794
4991.59,0.47668
4985.81,0.47296
4980.02,0.47065
4974.23,0.46775
4968.45,0.46274
4962.66,0.45805
4956.88,0.45291
4951.09,0.44757
4945.3,0.44311
4939.52,0.43545
4933.73,0.42945
4927.94,0.42385
4922.16,0.41678
4916.37,0.41126
4910.59,0.40551
4904.8,0.40027
4899.01,0.39511
4893.23,0.39046
4887.44,0.38506
4881.65,0.38112
4875.87,0.37536
4870.08,0.37173
4864.3,0.36860
4858.51,0.36434
4852.72,0.36114
4846.94,0.35588
4841.15,0.35338
4835.36,0.35041
4829.58,0.34790
4823.79,0.34581
4818.01,0.34201
4812.22,0.34033
4806.43,0.33935
4800.65,0.33753
4794.86,0.33677
4789.07,0.33484
4783.29,0.33350
4777.5,0.33323
4771.72,0.33346
4765.93,0.33333
4760.14,0.33208
4754.36,0.33318
4748.57,0.33152
4742.78,0.33217
4737,0.33431
4731.21,0.33458
4725.43,0.33542
4719.64,0.33577
4713.85,0.33742
4708.07,0.33832
4702.28,0.33886
4696.49,0.34114
4690.71,0.34169
4684.92,0.34322
4679.14,0.34500
4673.35,0.34738
4667.56,0.34885
4661.78,0.35228
4655.99,0.35512
4650.2,0.35661
4644.42,0.35977
4638.63,0.36230
4632.85,0.36398
4627.06,0.36546
4621.27,0.36877
4615.49,0.37075
4609.7,0.37312
4603.92,0.37461
4598.13,0.37654
4592.34,0.37861
4586.56,0.37990
4580.77,0.38168
4574.98,0.38198
4569.2,0.38365
4563.41,0.38601
4557.63,0.38684
4551.84,0.38882
4546.05,0.38951
4540.27,0.39010
4534.48,0.39141
4528.69,0.39123
4522.91,0.39237
4517.12,0.39253
4511.34,0.39090
4505.55,0.38919
4499.76,0.38732
4493.98,0.38420
4488.19,0.38086
4482.4,0.37511
4476.62,0.36975
4470.83,0.36195
4465.05,0.35507
4459.26,0.34807
4453.47,0.34042
4447.69,0.33264
4441.9,0.32667
4436.11,0.32032
4430.33,0.31375
4424.54,0.30986
4418.76,0.30544
4412.97,0.30146
4407.18,0.29781
4401.4,0.29708
4395.61,0.29716
4389.82,0.29750
4384.04,0.30026
4378.25,0.30265
4372.47,0.30536
4366.68,0.30735
4360.89,0.30882
4355.11,0.30852
4349.32,0.30784
4343.53,0.30694
4337.75,0.30386
4331.96,0.30183
4326.18,0.29983
4320.39,0.29827
4314.6,0.29761
4308.82,0.29588
4303.03,0.29411
4297.24,0.29274
4291.46,0.29142
4285.67,0.29120
4279.89,0.28975
4274.1,0.29021
4268.31,0.29064
4262.53,0.29174
4256.74,0.29276
4250.95,0.29308
4245.17,0.29354
4239.38,0.29513
4233.6,0.29638
4227.81,0.29701
4222.02,0.29733
4216.24,0.29750
4210.45,0.29825
4204.66,0.29915
4198.88,0.30014
4193.09,0.30090
4187.31,0.30051
4181.52,0.30018
4175.73,0.30271
4169.95,0.30387
4164.16,0.30528
4158.37,0.30588
4152.59,0.30495
4146.8,0.30423
4141.02,0.30258
4135.23,0.29965
4129.44,0.29780
4123.66,0.29447
4117.87,0.29187
4112.09,0.28830
4106.3,0.28495
4100.51,0.27994
4094.73,0.27615
4088.94,0.27143
4083.15,0.26590
4077.37,0.26229
4071.58,0.25739
4065.8,0.25321
4060.01,0.24890
4054.22,0.24590
4048.44,0.24112
4042.65,0.23870
4036.86,0.23472
4031.08,0.23290
4025.29,0.23107
4019.51,0.22941
4013.72,0.23082
4007.93,0.23197
4002.15,0.23264
3996.36,0.23454
3990.57,0.23512
3984.79,0.23682
3979,0.23792
3973.22,0.23963
3967.43,0.24185
3961.64,0.24366
3955.86,0.24610
3950.07,0.24852
3944.28,0.25086
3938.5,0.25364
3932.71,0.25590
3926.93,0.25845
3921.14,0.26090
3915.35,0.26394
3909.57,0.26522
3903.78,0.26814
3897.99,0.26955
3892.21,0.27179
3886.42,0.27343
3880.64,0.27554
3874.85,0.27698
3869.06,0.27982
3863.28,0.28305
3857.49,0.28616
3851.7,0.28859
3845.92,0.29157
3840.13,0.29363
3834.35,0.29488
3828.56,0.29561
3822.77,0.29720
3816.99,0.29721
3811.2,0.29729
3805.41,0.29796
3799.63,0.29837
3793.84,0.29852
3788.06,0.29882
3782.27,0.29891
3776.48,0.29847
3770.7,0.29728
3764.91,0.29597
3759.12,0.29505
3753.34,0.29357
3747.55,0.29171
3741.77,0.28957
3735.98,0.28720
3730.19,0.28326
3724.41,0.28006
3718.62,0.27452
3712.83,0.26942
3707.05,0.26137
3701.26,0.25427
3695.48,0.24483
3689.69,0.23495
3683.9,0.22177
3678.12,0.20792
3672.33,0.19247
3666.54,0.17789
3660.76,0.16389
3654.97,0.15042
3649.19,0.13889
3643.4,0.12729
3637.61,0.11810
3631.83,0.10925
3626.04,0.09999
3620.25,0.09202
3614.47,0.08568
3608.68,0.07933
3602.9,0.07233
3597.11,0.06778
3591.32,0.06298
3585.54,0.05836
3579.75,0.05510
3573.97,0.05170
3568.18,0.04940
3562.39,0.04641
3556.61,0.04459
3550.82,0.04289
3545.03,0.04092
3539.25,0.04020
3533.46,0.03833
3527.68,0.03697
3521.89,0.03684
3516.1,0.03506
3510.32,0.03456
3504.53,0.03341
3498.74,0.03310
3492.96,0.03281
3487.17,0.03216
3481.39,0.03141
3475.6,0.03079
3469.81,0.03105
3464.03,0.03101
3458.24,0.03068
3452.45,0.03057
3446.67,0.03072
3440.88,0.03020
3435.1,0.03016
3429.31,0.03008
3423.52,0.02973
3417.74,0.03027
3411.95,0.02964
3406.16,0.03044
3400.38,0.03040
3394.59,0.03002
3388.81,0.03010
3383.02,0.03096
3377.23,0.03120
3371.45,0.03046
3365.66,0.03066
3359.87,0.03106
3354.09,0.03116
3348.3,0.03170
3342.52,0.03246
3336.73,0.03214
3330.94,0.03303
3325.16,0.03335
3319.37,0.03319
3313.58,0.03357
3307.8,0.03423
3302.01,0.03520
3296.23,0.03591
3290.44,0.03583
3284.65,0.03710
3278.87,0.03784
3273.08,0.03815
3267.29,0.03877
3261.51,0.04014
3255.72,0.04116
3249.94,0.04136
3244.15,0.04305
3238.36,0.04347
3232.58,0.04529
3226.79,0.04704
3221,0.04773
3215.22,0.04957
3209.43,0.04979
3203.65,0.05211
3197.86,0.05380
3192.07,0.05449
3186.29,0.05600
3180.5,0.05718
3174.71,0.05921
3168.93,0.06065
3163.14,0.06220
3157.36,0.06439
3151.57,0.06611
3145.78,0.06742
3140,0.06910
3134.21,0.07119
3128.42,0.07248
3122.64,0.07439
3116.85,0.07569
3111.07,0.07725
3105.28,0.07866
3099.49,0.08017
3093.71,0.08187
3087.92,0.08296
3082.14,0.08433
3076.35,0.08602
3070.56,0.08686
3064.78,0.08798
3058.99,0.08964
3053.2,0.09113
3047.42,0.09198
3041.63,0.09287
3035.85,0.09272
3030.06,0.09254
3024.27,0.09105
3018.49,0.08914
3012.7,0.08611
3006.91,0.08403
3001.13,0.08116
2995.34,0.07849
2989.56,0.07561
2983.77,0.07156
2977.98,0.06641
2972.2,0.06161
2966.41,0.05828
2960.62,0.05697
2954.84,0.05403
2949.05,0.05257
2943.27,0.05115
2937.48,0.04963
2931.69,0.04953
2925.91,0.04912
2920.12,0.04833
2914.33,0.04885
2908.55,0.04941
2902.76,0.04961
2896.98,0.05032
2891.19,0.05148
2885.4,0.05314
2879.62,0.05389
2873.83,0.05510
2868.04,0.05653
2862.26,0.05709
2856.47,0.05898
2850.69,0.05996
2844.9,0.06348
2839.11,0.06852
2833.33,0.07397
2827.54,0.07942
2821.75,0.08435
2815.97,0.08827
2810.18,0.09238
2804.4,0.09606
2798.61,0.09818
2792.82,0.10100
2787.04,0.10261
2781.25,0.10373
2775.46,0.10484
2769.68,0.10592
2763.89,0.10734
2758.11,0.10771
2752.32,0.10859
2746.53,0.10881
2740.75,0.10922
2734.96,0.10953
2729.17,0.11045
2723.39,0.11167
2717.6,0.11323
2711.82,0.11559
2706.03,0.11740
2700.24,0.11944
2694.46,0.12173
2688.67,0.12343
2682.88,0.12506
2677.1,0.12696
2671.31,0.12853
2665.53,0.12918
2659.74,0.12994
2653.95,0.13095
2648.17,0.13243
2642.38,0.13341
2636.59,0.13502
2630.81,0.13660
2625.02,0.13813
2619.24,0.13975
2613.45,0.14145
2607.66,0.14289
2601.88,0.14397
2596.09,0.14525
2590.3,0.14639
2584.52,0.14739
2578.73,0.14853
2572.95,0.14917
2567.16,0.14909
2561.37,0.14908
2555.59,0.14949
2549.8,0.14965
2544.02,0.14972
2538.23,0.15012
2532.44,0.15136
2526.66,0.15204
2520.87,0.15292
2515.08,0.15342
2509.3,0.15480
2503.51,0.15662
2497.73,0.15905
2491.94,0.16083
2486.15,0.16241
2480.37,0.16436
2474.58,0.16546
2468.79,0.16705
2463.01,0.16797
2457.22,0.16907
2451.44,0.17090
2445.65,0.17279
2439.86,0.17517
2434.08,0.17717
2428.29,0.17929
2422.5,0.18121
2416.72,0.18371
2410.93,0.18608
2405.15,0.18888
2399.36,0.19094
2393.57,0.19261
2387.79,0.19456
2382,0.19647
2376.21,0.19792
2370.43,0.20018
2364.64,0.20204
2358.86,0.20380
2353.07,0.20574
2347.28,0.20759
2341.5,0.20939
2335.71,0.21077
2329.92,0.21229
2324.14,0.21280
2318.35,0.21354
2312.57,0.21372
2306.78,0.21346
2300.99,0.21293
2295.21,0.21251
2289.42,0.21258
2283.63,0.21216
2277.85,0.21120
2272.06,0.20972
2266.28,0.20812
2260.49,0.20590
2254.7,0.20389
2248.92,0.20234
2243.13,0.20141
2237.34,0.20103
2231.56,0.20182
2225.77,0.20286
2219.99,0.20359
2214.2,0.20458
2208.41,0.20434
2202.63,0.20383
2196.84,0.20260
2191.05,0.20046
2185.27,0.19731
2179.48,0.19383
2173.7,0.19041
2167.91,0.18642
2162.12,0.18381
2156.34,0.18139
2150.55,0.17984
2144.76,0.17839
2138.98,0.17758
2133.19,0.17742
2127.41,0.17763
2121.62,0.17858
2115.83,0.17981
2110.05,0.18112
2104.26,0.18224
2098.47,0.18401
2092.69,0.18542
2086.9,0.18656
2081.12,0.18710
2075.33,0.18742
2069.54,0.18723
2063.76,0.18802
2057.97,0.18803
2052.19,0.18900
2046.4,0.19032
2040.61,0.19191
2034.83,0.19385
2029.04,0.19635
2023.25,0.19948
2017.47,0.20259
2011.68,0.20589
2005.9,0.20863
2000.11,0.21019
1994.32,0.21179
1988.54,0.21326
1982.75,0.21415
1976.96,0.21418
1971.18,0.21361
1965.39,0.21265
1959.61,0.21197
1953.82,0.21221
1948.03,0.21342
1942.25,0.21578
1936.46,0.21838
1930.67,0.22172
1924.89,0.22484
1919.1,0.22727
1913.32,0.22906
1907.53,0.23037
1901.74,0.23145
1895.96,0.23181
1890.17,0.23221
1884.38,0.23198
1878.6,0.23111
1872.81,0.22953
1867.03,0.22768
1861.24,0.22468
1855.45,0.22178
1849.67,0.21793
1843.88,0.21387
1838.09,0.20965
1832.31,0.20572
1826.52,0.20025
1820.74,0.19417
1814.95,0.18752
1809.16,0.17937
1803.38,0.17020
1797.59,0.16015
1791.8,0.14919
1786.02,0.13721
1780.23,0.12144
1774.45,0.10419
1768.66,0.08406
1762.87,0.06957
1757.09,0.06107
1751.3,0.05667
1745.51,0.05455
1739.73,0.05386
1733.94,0.05482
1728.16,0.05658
1722.37,0.05942
1716.58,0.06450
1710.8,0.06948
1705.01,0.07478
1699.22,0.07904
1693.44,0.08166
1687.65,0.08280
1681.87,0.08189
1676.08,0.07961
1670.29,0.07686
1664.51,0.07528
1658.72,0.07392
1652.93,0.07289
1647.15,0.07247
1641.36,0.07207
1635.58,0.07184
1629.79,0.07035
1624,0.06828
1618.22,0.06474
1612.43,0.05998
1606.64,0.05649
1600.86,0.05333
1595.07,0.05006
1589.29,0.05251
1583.5,0.06127
1577.71,0.07232
1571.93,0.08407
1566.14,0.09360
1560.35,0.09923
1554.57,0.10067
1548.78,0.10073
1543,0.09956
1537.21,0.09647
1531.42,0.09261
1525.64,0.08333
1519.85,0.06860
1514.07,0.05871
1508.28,0.05417
1502.49,0.05220
1496.71,0.05585
1490.92,0.05995
1485.13,0.05955
1479.35,0.05445
1473.56,0.04658
1467.78,0.04037
1461.99,0.03918
1456.2,0.03974
1450.42,0.04093
1444.63,0.04184
1438.84,0.04110
1433.06,0.03932
1427.27,0.03938
1421.49,0.04104
1415.7,0.04322
1409.91,0.04514
1404.13,0.04572
1398.34,0.04482
1392.55,0.04223
1386.77,0.03830
1380.98,0.03507
1375.2,0.03401
1369.41,0.03383
1363.62,0.03441
1357.84,0.03509
1352.05,0.03547
1346.26,0.03480
1340.48,0.03422
1334.69,0.03339
1328.91,0.03328
1323.12,0.03393
1317.33,0.03456
1311.55,0.03609
1305.76,0.03772
1299.97,0.03820
1294.19,0.03748
1288.4,0.03558
1282.62,0.03375
1276.83,0.03255
1271.04,0.03209
1265.26,0.03100
1259.47,0.03018
1253.68,0.02975
1247.9,0.02930
1242.11,0.02980
1236.33,0.03062
1230.54,0.03104
1224.75,0.03241
1218.97,0.03377
1213.18,0.03513
1207.39,0.03477
1201.61,0.03550
1195.82,0.03560
1190.04,0.03478
1184.25,0.03270
1178.46,0.03088
1172.68,0.02912
1166.89,0.02927
1161.1,0.03112
1155.32,0.03108
1149.53,0.03032
1143.75,0.02919
1137.96,0.02673
1132.17,0.02589
1126.39,0.02736
1120.6,0.02877
1114.81,0.02951
1109.03,0.03096
1103.24,0.03134
1097.46,0.03115
1091.67,0.03009
1085.88,0.03051
1080.1,0.03227
1074.31,0.03449
1068.52,0.03692
1062.74,0.04127
1056.95,0.04390
1051.17,0.04401
1045.38,0.04318
1039.59,0.04455
1033.81,0.04654
1028.02,0.04727
1022.24,0.04741
1016.45,0.04857
1010.66,0.04893
1004.88,0.04894
999.09,0.05008
993.304,0.05167
987.518,0.05345
981.731,0.05838
975.945,0.06266
970.159,0.06548
964.373,0.06987
958.586,0.07570
952.8,0.08197
947.014,0.08684
941.228,0.08900
935.441,0.08817
929.655,0.08685
923.869,0.08597
918.083,0.08528
912.297,0.08287
906.51,0.07902
900.724,0.07495
894.938,0.07637
889.152,0.08310
883.365,0.08835
877.579,0.09066
871.793,0.09215
866.007,0.09650
860.22,0.09867
854.434,0.09756
848.648,0.09624
842.862,0.09474
837.075,0.09368
831.289,0.09389
825.503,0.09586
819.717,0.09697
813.931,0.09904
808.144,0.09948
802.358,0.09922
796.572,0.09776
790.786,0.09768
784.999,0.09617
779.213,0.09274
773.427,0.08804
767.641,0.08552
761.854,0.08401
756.068,0.08086
750.282,0.07859
744.496,0.07596
738.709,0.07382
732.923,0.07003
727.137,0.06763
721.351,0.06523
715.565,0.06423
709.778,0.06268
703.992,0.06258
698.206,0.06125
692.42,0.06156
686.633,0.06005
680.847,0.05774
675.061,0.05582
669.275,0.05526
663.488,0.05623
657.702,0.05678
651.916,0.05661
646.13,0.05571
640.343,0.05479
634.557,0.05182
628.771,0.05126
622.985,0.04903
617.198,0.05102
611.412,0.05122
605.626,0.05304
599.84,0.05354