File: 01_Data/Cotton_Felt/MCC/Deprecated/Cotton_Felt_MCC_60K_min_210709_3.txt
Sample ID:	C:\MCC\MCC Cal\Test\Cotton_Felt\Cotton_Felt_MCC_30K_min_21_07_09_R3.txt
Sample Weight (mg):	4.15
Heating Rate (C/s):	1
Combustor Temp (C):	900
N2 Flow Rate (cc/min):	80
O2 Flow Rate (cc/min):	20
Calibration File:	C:\MCC\MCC Cal\Coeff1 JN10440_30_210304.txt.txt
T Correction Coefficients:	0	1.024463	0
Time Shift (s):	14
*
Time (s)	Temperature (C)	N2 flow rate (cc/min)	O2 flow rate (cc/min)	Flow Rate (cc/min)	Oxygen (%)	HRR (W/g)	Heating rate (C/s)
0.000	105.454	79.996	19.996	99.951	20.071	0.417	-0.034
1.000	105.456	79.996	19.996	99.949	20.072	0.376	0.006
2.000	105.411	79.997	19.996	99.948	20.069	0.556	-0.031
3.000	105.428	79.997	19.996	99.957	20.070	0.510	0.019
4.000	105.449	79.998	19.996	99.965	20.071	0.436	-0.013
5.000	105.421	79.998	19.997	99.956	20.071	0.457	0.012
6.000	105.445	79.997	19.995	99.946	20.069	0.592	0.002
7.000	105.415	79.998	19.996	99.950	20.068	0.664	-0.001
8.000	105.402	79.997	19.996	99.958	20.071	0.397	-0.012
9.000	105.436	79.998	19.996	99.972	20.068	0.625	-0.007
10.001	105.410	79.997	19.996	99.974	20.066	0.776	-0.016
11.000	105.420	79.998	19.996	99.979	20.066	0.811	0.018
12.000	105.382	79.997	19.996	99.990	20.061	1.217	-0.021
13.000	105.412	79.997	19.996	100.006	20.060	1.265	0.005
14.001	105.448	79.997	19.995	100.036	20.059	1.315	0.040
15.000	105.442	79.996	19.996	100.068	20.051	1.961	-0.009
16.000	105.461	79.996	19.999	100.100	20.053	1.773	0.035
17.000	105.520	79.996	19.996	100.131	20.043	2.506	0.034
18.000	105.577	79.996	19.996	100.156	20.043	2.547	0.060
19.000	105.635	79.997	19.997	100.174	20.040	2.742	0.067
20.000	105.725	79.998	19.997	100.180	20.039	2.871	0.078
21.000	105.799	79.996	19.996	100.188	20.035	3.149	0.071
22.000	105.954	79.996	19.996	100.200	20.033	3.321	0.132
23.000	106.033	79.997	19.997	100.205	20.031	3.474	0.082
24.000	106.153	79.997	19.996	100.213	20.029	3.570	0.134
25.000	106.316	79.998	19.996	100.213	20.025	3.918	0.154
26.000	106.465	79.997	19.996	100.225	20.023	4.074	0.152
27.000	106.633	79.998	19.997	100.243	20.019	4.327	0.148
28.000	106.812	79.998	19.996	100.253	20.020	4.263	0.190
29.000	106.987	79.999	19.996	100.252	20.018	4.458	0.154
30.000	107.225	79.998	19.996	100.255	20.014	4.736	0.237
31.000	107.388	79.998	19.996	100.264	20.012	4.912	0.174
32.000	107.581	79.997	19.995	100.279	20.012	4.888	0.206
33.000	107.850	79.997	19.995	100.287	20.012	4.909	0.246
34.001	108.110	79.997	19.995	100.292	20.008	5.162	0.261
35.001	108.371	79.997	19.996	100.292	20.006	5.347	0.254
36.000	108.627	79.997	19.997	100.301	20.004	5.506	0.259
37.000	108.911	79.996	19.996	100.312	20.006	5.310	0.277
38.000	109.229	79.996	19.996	100.315	20.004	5.501	0.304
39.000	109.528	79.996	19.996	100.311	20.001	5.698	0.308
40.001	109.852	79.994	19.996	100.318	20.004	5.467	0.318
41.000	110.184	79.996	19.996	100.328	19.999	5.831	0.335
42.000	110.539	79.995	19.997	100.336	19.997	5.999	0.342
43.000	110.895	79.994	19.996	100.340	20.000	5.802	0.351
44.000	111.231	79.995	19.999	100.347	19.995	6.163	0.362
45.000	111.630	79.996	19.997	100.351	19.997	6.027	0.384
46.000	112.039	79.993	19.998	100.356	19.994	6.251	0.395
47.000	112.394	79.994	19.998	100.360	19.995	6.197	0.376
48.000	112.848	79.994	19.998	100.365	19.993	6.289	0.436
49.000	113.279	79.994	19.997	100.366	19.991	6.438	0.441
50.000	113.689	79.995	19.997	100.367	19.988	6.700	0.421
51.001	114.147	79.994	19.998	100.367	19.993	6.297	0.441
52.000	114.642	79.993	19.997	100.371	19.992	6.378	0.490
53.000	115.150	79.994	19.997	100.373	19.990	6.554	0.488
54.000	115.639	79.995	19.997	100.373	19.988	6.706	0.471
55.000	116.144	79.993	19.997	100.386	19.985	6.895	0.503
56.000	116.598	79.995	19.997	100.395	19.987	6.789	0.478
57.000	117.127	79.994	19.996	100.401	19.985	6.934	0.512
58.000	117.681	79.995	19.997	100.404	19.984	7.018	0.549
59.000	118.221	79.996	19.995	100.405	19.982	7.152	0.536
60.000	118.776	79.995	19.996	100.406	19.980	7.310	0.551
61.000	119.339	79.995	19.996	100.406	19.984	7.001	0.580
62.000	119.916	79.995	19.996	100.405	19.980	7.301	0.573
63.000	120.497	79.996	19.997	100.405	19.983	7.048	0.579
64.000	121.094	79.997	19.996	100.407	19.982	7.187	0.589
65.000	121.737	79.996	19.997	100.413	19.981	7.233	0.635
66.000	122.372	79.995	19.996	100.417	19.979	7.347	0.618
67.000	123.004	79.995	19.997	100.416	19.980	7.270	0.639
68.000	123.651	79.995	19.997	100.411	19.978	7.455	0.640
69.001	124.289	79.994	19.996	100.414	19.976	7.588	0.643
70.001	124.928	79.994	19.997	100.412	19.976	7.600	0.642
71.000	125.609	79.994	19.996	100.413	19.978	7.486	0.670
72.000	126.304	79.994	19.996	100.419	19.978	7.447	0.704
73.001	126.995	79.995	19.997	100.429	19.979	7.362	0.670
74.000	127.643	79.994	19.996	100.429	19.978	7.422	0.663
75.000	128.379	79.994	19.996	100.434	19.976	7.609	0.715
76.000	129.068	79.994	19.997	100.437	19.973	7.819	0.714
77.000	129.849	79.993	19.996	100.439	19.975	7.652	0.753
78.000	130.555	79.995	19.996	100.437	19.977	7.528	0.735
79.000	131.262	79.994	19.996	100.438	19.974	7.778	0.708
80.000	132.014	79.995	19.996	100.438	19.976	7.612	0.739
81.000	132.771	79.995	19.996	100.442	19.977	7.510	0.763
82.001	133.580	79.996	19.996	100.443	19.979	7.409	0.778
83.000	134.352	79.995	19.996	100.446	19.977	7.529	0.775
84.000	135.138	79.996	19.997	100.442	19.978	7.463	0.781
85.000	135.932	79.996	19.996	100.440	19.978	7.453	0.802
86.001	136.743	79.995	19.996	100.442	19.978	7.492	0.794
87.000	137.557	79.996	19.996	100.445	19.979	7.401	0.817
88.000	138.357	79.997	19.996	100.444	19.980	7.286	0.812
89.002	139.162	79.997	19.996	100.443	19.977	7.496	0.815
90.000	139.951	79.996	19.996	100.436	19.976	7.568	0.787
91.001	140.827	79.996	19.996	100.430	19.978	7.424	0.862
92.000	141.680	79.996	19.995	100.431	19.980	7.318	0.846
93.000	142.523	79.995	19.996	100.436	19.980	7.322	0.843
94.001	143.397	79.995	19.997	100.429	19.980	7.297	0.858
95.000	144.285	79.996	19.996	100.433	19.978	7.490	0.900
96.001	145.144	79.997	19.996	100.441	19.974	7.727	0.862
97.000	146.039	79.996	19.995	100.438	19.976	7.611	0.905
98.000	146.927	79.995	19.997	100.437	19.977	7.518	0.865
99.000	147.813	79.996	19.995	100.432	19.978	7.424	0.869
100.000	148.692	79.996	19.997	100.428	19.978	7.450	0.914
101.000	149.644	79.995	19.997	100.418	19.980	7.330	0.924
102.000	150.544	79.996	19.996	100.413	19.975	7.645	0.909
103.000	151.461	79.995	19.996	100.415	19.976	7.618	0.899
104.000	152.349	79.996	19.996	100.415	19.978	7.477	0.904
105.000	153.293	79.996	19.996	100.413	19.978	7.421	0.939
106.001	154.155	79.997	19.996	100.409	19.980	7.306	0.870
107.001	155.054	79.997	19.996	100.412	19.981	7.201	0.907
108.001	156.001	79.997	19.995	100.413	19.980	7.301	0.917
109.000	156.947	79.997	19.996	100.417	19.978	7.485	0.946
110.000	157.858	79.998	19.997	100.410	19.986	6.865	0.924
111.000	158.810	79.998	19.996	100.403	19.982	7.159	0.953
112.000	159.733	79.998	19.996	100.400	19.982	7.128	0.927
113.001	160.685	79.998	19.995	100.404	19.978	7.462	0.956
114.000	161.655	79.998	19.996	100.403	19.981	7.234	0.951
115.001	162.596	79.998	19.996	100.403	19.981	7.193	0.957
116.001	163.517	79.998	19.995	100.396	19.980	7.276	0.924
117.000	164.498	79.997	19.996	100.395	19.982	7.160	0.971
118.000	165.477	79.997	19.996	100.395	19.986	6.840	0.969
119.000	166.503	79.997	19.996	100.401	19.983	7.075	0.990
120.000	167.439	79.996	19.996	100.396	19.983	7.045	0.972
121.001	168.409	79.996	19.996	100.394	19.985	6.946	0.965
122.000	169.425	79.995	19.995	100.387	19.984	7.001	1.009
123.000	170.354	79.997	19.997	100.392	19.985	6.903	0.948
124.000	171.394	79.997	19.996	100.395	19.985	6.938	1.012
125.000	172.364	79.997	19.997	100.400	19.984	6.977	0.989
126.001	173.356	79.995	19.996	100.403	19.986	6.821	0.983
127.001	174.342	79.996	19.996	100.402	19.987	6.803	0.988
128.000	175.322	79.995	19.996	100.402	19.986	6.840	0.995
129.000	176.316	79.995	19.997	100.402	19.989	6.639	0.966
130.000	177.337	79.994	19.996	100.402	19.988	6.699	1.035
131.000	178.322	79.994	19.997	100.399	19.986	6.823	0.995
132.000	179.376	79.994	19.997	100.397	19.986	6.834	1.034
133.000	180.340	79.994	19.997	100.387	19.985	6.954	0.982
134.000	181.348	79.996	19.997	100.378	19.987	6.736	1.000
135.000	182.419	79.995	19.998	100.370	19.985	6.952	1.046
136.000	183.407	79.994	19.997	100.370	19.985	6.923	1.025
137.000	184.410	79.995	19.997	100.368	19.985	6.954	0.974
138.000	185.462	79.995	19.997	100.367	19.988	6.705	1.043
139.000	186.513	79.995	19.997	100.364	19.987	6.771	1.058
140.000	187.524	79.995	19.997	100.365	19.987	6.788	1.041
141.000	188.558	79.995	19.996	100.366	19.990	6.564	1.025
142.000	189.621	79.996	19.996	100.365	19.988	6.665	1.053
143.000	190.671	79.995	19.997	100.366	19.987	6.791	1.035
144.000	191.643	79.994	19.997	100.368	19.990	6.549	0.980
145.000	192.683	79.994	19.996	100.368	19.989	6.626	1.047
146.000	193.698	79.995	19.996	100.367	19.990	6.508	1.010
147.000	194.747	79.995	19.997	100.366	19.988	6.662	1.064
148.000	195.767	79.995	19.996	100.361	19.991	6.493	1.027
149.000	196.789	79.994	19.996	100.360	19.988	6.666	1.011
150.000	197.823	79.995	19.995	100.364	19.991	6.463	1.023
151.000	198.824	79.993	19.995	100.367	19.991	6.494	1.032
152.000	199.874	79.996	19.997	100.363	19.991	6.440	1.036
153.000	200.946	79.994	19.996	100.350	19.995	6.147	1.047
154.000	201.997	79.994	19.996	100.350	19.992	6.371	1.060
155.000	203.020	79.994	19.997	100.356	19.993	6.305	1.017
156.000	204.073	79.995	19.996	100.366	19.991	6.502	1.058
157.000	205.100	79.995	19.997	100.367	19.989	6.606	1.025
158.000	206.141	79.995	19.997	100.365	19.995	6.149	1.045
159.000	207.229	79.994	19.996	100.353	19.997	5.979	1.068
160.000	208.279	79.996	19.996	100.342	19.995	6.182	1.044
161.000	209.240	79.994	19.997	100.337	19.997	6.050	1.010
162.000	210.355	79.995	19.996	100.333	19.994	6.222	1.091
163.000	211.360	79.996	19.995	100.333	19.996	6.093	1.016
164.000	212.390	79.996	19.995	100.332	19.996	6.070	1.027
165.000	213.442	79.996	19.995	100.331	19.994	6.230	1.050
166.000	214.468	79.996	19.995	100.332	19.995	6.180	1.022
167.000	215.522	79.996	19.996	100.333	19.995	6.143	1.066
168.000	216.509	79.995	19.996	100.332	19.996	6.118	0.996
169.001	217.563	79.997	19.996	100.330	19.993	6.292	1.040
170.000	218.587	79.997	19.996	100.329	19.994	6.255	1.026
171.000	219.632	79.997	19.996	100.328	19.996	6.058	1.044
172.001	220.662	79.997	19.995	100.328	19.994	6.215	1.001
173.000	221.719	79.998	19.997	100.328	19.990	6.516	1.068
174.000	222.700	79.998	19.996	100.328	19.993	6.329	1.007
175.000	223.747	79.997	19.996	100.325	19.993	6.342	1.027
176.000	224.745	79.997	19.996	100.325	19.989	6.615	1.038
177.000	225.867	79.997	19.997	100.326	19.989	6.640	1.048
178.000	226.817	79.996	19.996	100.327	19.985	6.920	1.003
179.000	227.856	79.997	19.995	100.327	19.982	7.165	1.021
180.000	228.890	79.997	19.996	100.326	19.983	7.095	1.039
181.000	229.937	79.997	19.997	100.325	19.984	7.008	1.047
182.000	230.961	79.996	19.995	100.325	19.980	7.300	1.025
183.000	231.964	79.998	19.995	100.326	19.981	7.196	1.011
184.000	232.965	79.997	19.996	100.319	19.977	7.535	1.004
185.000	233.985	79.998	19.997	100.317	19.975	7.688	1.022
186.000	235.020	79.997	19.996	100.321	19.976	7.601	1.032
187.000	236.037	79.997	19.995	100.325	19.975	7.678	1.026
188.000	237.062	79.997	19.996	100.325	19.971	8.006	1.001
189.000	238.067	79.999	19.995	100.326	19.970	8.058	1.012
190.000	239.066	79.998	19.996	100.328	19.972	7.911	1.006
191.000	240.014	80.000	19.997	100.334	19.966	8.337	0.974
192.000	241.058	79.999	19.996	100.335	19.962	8.680	1.009
193.000	242.070	79.997	19.996	100.330	19.963	8.612	1.023
194.000	243.054	79.998	19.996	100.335	19.960	8.830	0.982
195.000	244.056	79.998	19.997	100.342	19.956	9.112	1.012
196.000	245.051	79.998	19.996	100.338	19.959	8.878	0.981
197.001	246.059	79.998	19.997	100.339	19.953	9.307	1.018
198.000	247.053	79.998	19.996	100.340	19.950	9.560	0.986
199.000	248.036	79.997	19.996	100.349	19.945	9.973	0.994
200.000	249.062	79.997	19.996	100.354	19.947	9.761	1.004
201.000	250.049	79.997	19.997	100.353	19.941	10.251	1.008
202.000	251.059	79.996	19.997	100.347	19.939	10.419	1.010
203.000	252.050	79.995	19.996	100.349	19.935	10.661	0.980
204.000	253.055	79.995	19.997	100.358	19.934	10.759	1.017
205.000	253.989	79.994	19.998	100.358	19.931	11.029	0.950
206.000	255.036	79.995	19.996	100.358	19.928	11.232	1.020
207.000	256.022	79.995	19.997	100.363	19.922	11.676	0.974
208.000	257.021	79.996	19.997	100.364	19.920	11.831	0.997
209.000	257.973	79.996	19.996	100.367	19.917	12.062	0.974
210.000	259.010	79.997	19.997	100.364	19.913	12.360	1.025
211.000	259.999	79.997	19.997	100.364	19.910	12.594	0.998
212.000	260.922	79.996	19.997	100.368	19.905	12.939	0.929
213.000	261.921	79.995	19.996	100.369	19.901	13.253	1.004
214.000	262.947	79.996	19.997	100.369	19.896	13.630	0.981
215.000	263.894	79.995	19.997	100.370	19.895	13.683	0.985
216.000	264.884	79.995	19.996	100.370	19.888	14.244	0.974
217.000	265.856	79.994	19.998	100.370	19.884	14.576	0.987
218.000	266.825	79.996	19.996	100.372	19.880	14.860	0.979
219.000	267.830	79.996	19.997	100.374	19.877	15.088	0.990
220.000	268.790	79.994	19.997	100.375	19.870	15.636	0.972
221.000	269.782	79.994	19.996	100.372	19.869	15.679	0.963
222.000	270.779	79.996	19.997	100.372	19.861	16.287	1.008
223.000	271.766	79.996	19.998	100.380	19.862	16.244	0.996
224.000	272.755	79.996	19.997	100.383	19.854	16.792	0.996
225.000	273.764	79.996	19.997	100.392	19.850	17.111	0.990
226.000	274.690	79.995	19.998	100.405	19.843	17.675	0.941
227.000	275.676	79.994	19.997	100.409	19.836	18.204	1.006
228.000	276.653	79.995	19.997	100.409	19.830	18.602	0.953
229.000	277.628	79.994	19.997	100.410	19.825	18.995	0.969
230.000	278.584	79.995	19.997	100.410	19.819	19.439	0.972
231.001	279.610	79.994	19.998	100.409	19.811	20.079	1.017
232.000	280.573	79.995	19.997	100.409	19.804	20.607	0.966
233.000	281.516	79.996	19.998	100.410	19.797	21.139	0.941
234.000	282.544	79.995	19.998	100.415	19.790	21.698	1.014
235.000	283.526	79.994	19.997	100.427	19.776	22.698	0.978
236.000	284.484	79.995	19.997	100.439	19.771	23.099	0.984
237.000	285.465	79.996	19.997	100.446	19.762	23.790	0.978
238.000	286.463	79.994	19.997	100.447	19.751	24.613	0.976
239.000	287.490	79.995	19.997	100.447	19.743	25.198	1.013
240.000	288.435	79.996	19.996	100.450	19.732	26.031	0.963
241.000	289.418	79.995	19.997	100.461	19.724	26.705	0.988
242.000	290.405	79.997	19.997	100.473	19.711	27.654	0.983
243.000	291.388	79.996	19.996	100.478	19.700	28.472	0.992
244.000	292.395	79.997	19.996	100.488	19.691	29.183	1.001
245.000	293.412	79.998	19.996	100.501	19.673	30.498	1.010
246.000	294.358	79.997	19.997	100.510	19.662	31.366	0.973
247.000	295.371	79.997	19.997	100.517	19.645	32.655	0.999
248.000	296.343	79.997	19.996	100.519	19.633	33.587	0.988
249.000	297.319	79.998	19.997	100.539	19.615	34.918	0.971
250.000	298.324	79.999	19.997	100.549	19.599	36.111	0.998
251.000	299.284	79.998	19.996	100.558	19.584	37.319	0.966
252.001	300.289	79.999	19.997	100.563	19.565	38.692	0.991
253.000	301.266	79.997	19.996	100.569	19.552	39.726	0.992
254.000	302.273	79.997	19.996	100.580	19.533	41.117	0.975
255.000	303.286	79.997	19.997	100.584	19.515	42.527	1.045
256.000	304.267	79.997	19.997	100.590	19.494	44.139	0.964
257.000	305.235	79.998	19.997	100.600	19.471	45.879	0.974
258.000	306.254	79.997	19.996	100.607	19.451	47.376	1.024
259.000	307.309	79.998	19.998	100.610	19.428	49.141	1.028
260.000	308.255	79.996	19.997	100.620	19.409	50.571	0.972
261.000	309.220	79.996	19.997	100.635	19.382	52.590	0.977
262.000	310.223	79.999	19.997	100.655	19.365	53.944	0.974
263.000	311.227	79.996	19.996	100.661	19.336	56.103	1.026
264.000	312.249	79.998	19.997	100.666	19.313	57.891	1.024
265.000	313.252	79.996	19.996	100.672	19.290	59.642	1.002
266.000	314.271	79.998	19.996	100.681	19.266	61.456	0.991
267.000	315.273	79.998	19.996	100.691	19.243	63.215	1.004
268.000	316.236	79.999	19.995	100.698	19.216	65.255	0.994
269.000	317.263	79.998	19.996	100.706	19.192	67.097	1.008
270.000	318.270	79.996	19.996	100.715	19.165	69.095	1.002
271.000	319.244	79.998	19.996	100.725	19.137	71.280	0.989
272.000	320.213	79.998	19.996	100.739	19.109	73.359	0.953
273.000	321.221	79.998	19.995	100.753	19.081	75.526	1.025
274.000	322.247	80.000	19.996	100.761	19.052	77.732	1.014
275.000	323.204	80.000	19.995	100.775	19.023	79.911	0.977
276.000	324.258	79.997	19.996	100.783	18.998	81.819	1.021
277.000	325.241	79.998	19.996	100.788	18.966	84.223	1.010
278.000	326.229	79.998	19.995	100.794	18.938	86.344	0.975
279.000	327.230	79.998	19.995	100.811	18.903	89.059	1.017
280.000	328.269	79.997	19.996	100.823	18.874	91.266	1.016
281.000	329.251	79.996	19.996	100.833	18.846	93.405	0.975
282.000	330.227	79.995	19.996	100.839	18.815	95.724	1.009
283.000	331.311	79.995	19.996	100.850	18.782	98.289	1.066
284.000	332.296	79.996	19.997	100.865	18.742	101.333	0.999
285.000	333.315	79.995	19.996	100.877	18.715	103.369	1.006
286.000	334.346	79.995	19.997	100.880	18.673	106.498	1.028
287.000	335.341	79.996	19.997	100.881	18.645	108.654	0.999
288.000	336.358	79.996	19.996	100.888	18.609	111.393	1.015
289.001	337.358	79.997	19.997	100.898	18.574	114.067	1.005
290.000	338.385	79.996	19.996	100.911	18.538	116.775	1.020
291.000	339.401	79.997	19.997	100.916	18.506	119.203	1.014
292.000	340.411	79.995	19.995	100.926	18.471	121.796	1.007
293.000	341.392	79.997	19.996	100.934	18.438	124.295	1.025
294.000	342.405	79.996	19.997	100.939	18.408	126.528	0.998
295.000	343.434	79.996	19.996	100.947	18.370	129.393	1.034
296.000	344.529	79.997	19.997	100.946	18.341	131.566	1.034
297.000	345.438	79.995	19.995	100.948	18.307	134.119	0.978
298.000	346.415	79.995	19.997	100.952	18.279	136.213	0.949
299.000	347.603	79.995	19.997	100.943	18.251	138.274	1.114
300.000	348.427	79.998	19.996	100.935	18.226	140.132	0.866
301.000	349.593	79.996	19.996	100.932	18.204	141.713	1.067
302.000	350.563	79.996	19.997	100.928	18.180	143.474	1.133
303.000	351.620	79.995	19.996	100.907	18.163	144.655	0.963
304.000	352.647	79.998	19.997	100.889	18.149	145.610	1.019
305.000	353.582	79.994	19.997	100.872	18.133	146.780	1.010
306.000	354.677	79.995	19.997	100.854	18.128	147.005	1.083
307.000	355.715	79.995	19.997	100.830	18.130	146.807	0.981
308.000	356.714	79.995	19.996	100.809	18.132	146.558	1.038
309.000	357.722	79.996	19.997	100.777	18.147	145.370	1.023
310.000	358.740	79.995	19.997	100.741	18.163	144.153	1.026
311.000	359.717	79.996	19.997	100.698	18.190	142.042	0.964
312.000	360.766	79.996	19.997	100.652	18.227	139.244	1.056
313.000	361.795	79.994	19.997	100.600	18.264	136.490	1.004
314.000	362.798	79.994	19.997	100.547	18.318	132.403	1.027
315.000	363.816	79.992	19.997	100.487	18.379	127.770	1.015
316.000	364.825	79.994	19.997	100.424	18.438	123.381	1.009
317.000	365.823	79.994	19.998	100.365	18.514	117.657	0.991
318.001	366.833	79.995	19.998	100.310	18.594	111.675	1.018
319.000	367.840	79.995	19.997	100.264	18.681	105.184	0.986
320.000	368.845	79.997	19.998	100.216	18.770	98.470	1.035
321.000	369.886	79.995	19.998	100.178	18.860	91.734	1.019
322.000	370.873	79.996	19.997	100.149	18.951	84.881	0.985
323.000	371.860	79.995	19.997	100.134	19.041	78.057	1.028
324.000	372.862	79.995	19.998	100.132	19.129	71.492	0.993
325.000	373.905	79.997	19.997	100.134	19.209	65.434	1.014
326.000	374.935	79.998	19.996	100.133	19.291	59.261	1.055
327.000	375.936	79.999	19.996	100.147	19.359	54.137	0.994
328.000	376.957	79.998	19.997	100.172	19.428	48.883	1.019
329.000	377.974	79.997	19.996	100.201	19.490	44.239	1.026
330.000	378.972	79.999	19.995	100.227	19.543	40.196	0.995
331.000	379.997	79.996	19.996	100.244	19.595	36.298	1.006
332.000	380.973	79.998	19.996	100.258	19.638	33.055	0.998
333.000	382.010	79.997	19.997	100.274	19.673	30.449	1.010
334.000	383.011	79.995	19.996	100.289	19.712	27.523	0.993
335.000	384.005	79.996	19.996	100.289	19.740	25.346	1.012
336.000	384.999	79.995	19.996	100.289	19.762	23.733	0.996
337.000	386.035	79.998	19.996	100.286	19.780	22.371	1.020
338.000	387.001	79.996	19.997	100.281	19.803	20.645	0.985
339.000	388.020	79.996	19.996	100.267	19.816	19.627	1.004
340.000	389.003	79.994	19.996	100.259	19.838	18.004	0.995
341.000	390.008	79.995	19.995	100.247	19.846	17.375	1.006
342.000	391.046	79.996	19.996	100.245	19.860	16.301	1.026
343.000	392.030	79.996	19.996	100.246	19.869	15.646	0.987
344.000	393.019	79.996	19.996	100.244	19.876	15.143	1.013
345.000	394.039	79.996	19.996	100.237	19.883	14.587	1.029
346.000	395.063	79.997	19.996	100.223	19.887	14.278	0.984
347.001	396.039	79.996	19.996	100.217	19.896	13.614	1.001
348.000	397.078	79.998	19.996	100.216	19.901	13.208	1.019
349.000	398.078	79.996	19.996	100.219	19.905	12.945	1.009
350.000	399.047	79.997	19.995	100.221	19.907	12.775	0.975
351.000	400.050	79.997	19.995	100.220	19.912	12.435	1.010
352.000	401.061	79.999	19.995	100.214	19.916	12.080	0.971
353.000	402.044	79.996	19.995	100.213	19.915	12.165	1.013
354.000	403.105	79.998	19.995	100.213	19.921	11.739	1.045
355.000	404.056	79.999	19.995	100.213	19.925	11.435	0.985
356.000	405.061	79.997	19.997	100.214	19.927	11.261	0.985
357.000	406.065	79.999	19.997	100.214	19.927	11.291	1.016
358.000	407.065	79.998	19.996	100.213	19.930	11.020	0.983
359.000	408.040	79.998	19.996	100.212	19.929	11.142	0.993
360.000	409.092	79.998	19.996	100.212	19.934	10.741	1.020
361.000	410.038	79.998	19.996	100.212	19.934	10.770	0.967
362.000	411.052	79.996	19.995	100.211	19.938	10.485	1.009
363.000	412.070	79.996	19.995	100.203	19.937	10.518	1.015
364.000	413.041	79.997	19.996	100.201	19.934	10.783	0.987
365.000	414.026	79.995	19.996	100.206	19.936	10.605	0.993
366.000	415.044	79.996	19.996	100.211	19.939	10.389	0.999
367.000	415.987	79.997	19.996	100.210	19.934	10.761	0.969
368.000	417.039	79.995	19.995	100.215	19.937	10.540	1.033
369.000	418.008	79.996	19.997	100.221	19.935	10.693	0.974
370.000	419.067	79.997	19.996	100.216	19.933	10.832	1.047
371.000	420.060	79.996	19.995	100.204	19.935	10.671	0.984
372.000	421.050	79.997	19.996	100.204	19.935	10.645	1.011
373.000	422.031	79.996	19.996	100.208	19.935	10.703	0.983
374.000	423.040	79.997	19.996	100.208	19.938	10.472	0.990
375.000	424.024	79.998	19.997	100.210	19.939	10.350	1.020
376.000	425.055	79.993	19.997	100.207	19.934	10.786	1.006
377.001	426.084	79.995	19.996	100.204	19.935	10.687	1.015
378.001	427.086	79.992	19.995	100.199	19.935	10.677	1.007
379.000	428.057	79.993	19.996	100.196	19.933	10.811	0.984
380.000	429.072	79.997	19.997	100.201	19.934	10.719	1.007
381.000	430.076	79.995	19.996	100.205	19.937	10.550	1.001
382.000	431.081	79.994	19.996	100.205	19.933	10.819	1.015
383.000	432.078	79.997	19.996	100.199	19.934	10.786	1.007
384.000	433.101	79.995	19.997	100.195	19.938	10.463	1.015
385.000	434.132	79.995	19.997	100.201	19.938	10.455	1.027
386.000	435.132	79.994	19.996	100.200	19.935	10.661	1.001
387.000	436.148	79.995	19.997	100.201	19.938	10.485	1.003
388.000	437.191	79.996	19.996	100.204	19.934	10.761	1.043
389.000	438.207	79.997	19.996	100.204	19.937	10.522	1.036
390.001	439.191	79.993	19.998	100.198	19.939	10.373	0.984
391.000	440.196	79.994	19.997	100.192	19.937	10.522	0.999
392.000	441.217	79.995	19.998	100.197	19.940	10.283	1.016
393.000	442.237	79.995	19.996	100.198	19.944	9.985	1.032
394.000	443.268	79.994	19.997	100.194	19.935	10.681	1.015
395.000	444.311	79.994	19.996	100.195	19.935	10.645	1.038
396.000	445.302	79.995	19.997	100.198	19.938	10.444	1.011
397.000	446.324	79.994	19.996	100.188	19.940	10.283	1.014
398.000	447.322	79.994	19.998	100.188	19.940	10.306	1.004
399.000	448.365	79.994	19.997	100.200	19.940	10.293	1.045
400.000	449.386	79.995	19.997	100.204	19.940	10.323	1.034
401.000	450.398	79.995	19.998	100.207	19.939	10.379	0.984
402.000	451.430	79.993	19.997	100.145	19.942	10.122	1.030
403.000	452.441	79.995	19.997	100.111	19.938	10.413	1.024
404.000	453.451	79.995	19.998	100.116	19.941	10.248	1.011
405.000	454.476	79.994	19.997	100.165	19.941	10.179	1.015
406.000	455.528	79.997	19.998	100.176	19.939	10.353	1.040
407.000	456.529	79.995	19.997	100.248	19.942	10.142	1.014
408.000	457.580	79.995	19.997	100.261	19.944	9.997	1.044
409.000	458.603	79.994	19.997	100.217	19.946	9.857	1.009
410.000	459.611	79.996	19.997	100.174	19.944	9.997	1.024
411.001	460.667	79.998	19.998	100.179	19.946	9.883	1.051
412.000	461.641	79.995	19.996	100.180	19.942	10.154	0.980
413.000	462.633	79.996	19.996	100.179	19.945	9.887	1.011
414.000	463.657	79.996	19.997	100.157	19.944	10.026	1.030
415.000	464.663	79.995	19.996	100.116	19.945	9.918	0.984
416.000	465.684	79.995	19.996	100.094	19.950	9.564	1.022
417.000	466.691	79.996	19.996	100.150	19.951	9.483	1.009
418.000	467.690	79.996	19.997	100.239	19.948	9.674	1.003
419.000	468.691	79.995	19.997	100.256	19.949	9.587	0.993
420.000	469.730	79.995	19.995	100.205	19.951	9.488	1.033
421.000	470.720	79.996	19.996	100.176	19.953	9.314	1.005
422.000	471.748	79.997	19.997	100.174	19.956	9.061	1.009
423.000	472.761	79.995	19.996	100.173	19.954	9.220	1.030
424.000	473.813	79.998	19.996	100.174	19.957	9.020	1.023
425.000	474.774	79.995	19.997	100.171	19.958	8.906	1.002
426.000	475.836	79.996	19.995	100.171	19.960	8.791	1.037
427.000	476.833	79.997	19.996	100.171	19.964	8.475	1.010
428.000	477.806	79.996	19.995	100.168	19.960	8.812	0.982
429.000	478.837	79.998	19.995	100.167	19.961	8.748	1.025
430.000	479.866	79.998	19.995	100.167	19.963	8.555	1.018
431.000	480.850	79.995	19.997	100.168	19.964	8.487	0.997
432.000	481.900	79.997	19.995	100.166	19.965	8.384	1.030
433.000	482.897	79.996	19.997	100.166	19.968	8.191	1.003
434.000	483.927	79.997	19.996	100.166	19.967	8.261	1.025
435.000	484.925	79.999	19.996	100.165	19.971	7.972	1.004
436.000	485.947	79.999	19.996	100.162	19.968	8.174	1.011
437.001	486.938	79.997	19.996	100.159	19.970	8.001	1.001
438.000	487.951	79.996	19.997	100.158	19.972	7.852	1.015
439.000	488.973	79.998	19.996	100.161	19.974	7.756	1.023
440.000	489.913	79.997	19.996	100.159	19.971	7.954	0.969
441.000	490.950	79.996	19.997	100.153	19.971	7.983	1.017
442.000	491.960	79.996	19.995	100.157	19.974	7.730	1.019
443.000	492.973	79.995	19.996	100.157	19.972	7.849	0.995
444.000	494.000	79.995	19.996	100.157	19.971	7.962	1.002
445.000	494.990	79.996	19.996	100.154	19.971	7.935	1.023
446.000	496.023	79.996	19.995	100.153	19.972	7.908	1.013
447.001	497.033	79.996	19.996	100.149	19.976	7.608	1.007
448.001	498.061	79.996	19.996	100.152	19.977	7.505	1.031
449.000	499.038	79.996	19.996	100.154	19.978	7.443	1.003
450.000	499.993	79.996	19.995	100.149	19.979	7.368	0.960
451.000	501.042	79.997	19.996	100.140	19.981	7.182	1.042
452.000	502.041	79.997	19.997	100.137	19.980	7.264	0.992
453.000	503.056	79.996	19.996	100.136	19.978	7.429	1.026
454.000	504.090	79.997	19.997	100.146	19.982	7.166	1.023
455.000	505.049	79.997	19.997	100.160	19.978	7.466	0.970
456.000	506.084	79.996	19.997	100.161	19.983	7.054	1.019
457.000	507.100	79.996	19.996	100.156	19.984	6.951	1.027
458.000	508.107	79.996	19.996	100.156	19.986	6.814	0.987
459.000	509.155	79.996	19.996	100.163	19.988	6.678	1.050
460.000	510.122	79.996	19.996	100.160	19.987	6.719	1.001
461.000	511.182	79.996	19.996	100.153	19.985	6.920	1.022
462.000	512.202	79.998	19.996	100.158	19.988	6.643	1.041
463.000	513.196	79.994	19.996	100.154	19.988	6.700	1.003
464.000	514.246	79.995	19.997	100.150	19.987	6.777	1.027
465.000	515.293	79.994	19.996	100.145	19.988	6.652	1.029
466.000	516.322	79.994	19.998	100.140	19.987	6.791	1.051
467.000	517.343	79.996	19.997	100.138	19.986	6.849	1.005
468.000	518.360	79.995	19.997	100.140	19.986	6.817	1.031
469.000	519.388	79.995	19.997	100.138	19.985	6.939	1.034
470.000	520.493	79.994	19.997	100.139	19.987	6.720	1.072
471.000	521.524	79.995	19.997	100.138	19.990	6.512	1.051
472.000	522.543	79.995	19.996	100.141	19.990	6.535	1.009
473.000	523.577	79.995	19.998	100.088	19.991	6.442	1.038
474.000	524.624	79.996	19.997	100.067	19.993	6.268	1.043
475.001	525.596	79.995	19.998	100.137	19.992	6.361	1.013
476.000	526.697	79.997	19.996	100.213	19.997	6.011	1.043
477.000	527.700	79.995	19.996	100.228	19.998	5.891	1.026
478.001	528.717	79.991	19.996	100.163	19.996	6.055	1.031
479.000	529.785	79.995	19.996	100.158	19.996	6.050	1.059
480.000	530.780	79.997	19.997	100.157	19.996	6.059	1.005
481.000	531.850	79.996	19.996	100.148	19.995	6.166	1.053
482.000	532.873	79.994	19.997	100.142	19.996	6.075	1.031
483.000	533.901	79.996	19.997	100.148	19.996	6.098	1.031
484.000	534.977	79.993	19.996	100.148	20.000	5.771	1.068
485.000	536.028	79.996	19.997	100.144	19.999	5.827	1.040
486.000	537.037	79.994	19.996	100.137	20.002	5.662	1.035
487.000	538.115	79.997	19.996	100.133	20.001	5.707	1.063
488.000	539.138	79.997	19.996	100.132	20.003	5.575	1.038
489.000	540.124	79.997	19.998	100.133	19.999	5.854	0.992
490.000	541.194	79.997	19.998	100.132	20.003	5.515	1.057
491.000	542.233	79.995	19.997	100.131	20.001	5.719	1.021
492.000	543.279	79.997	19.998	100.131	20.001	5.697	1.053
493.000	544.276	79.995	19.997	100.131	20.000	5.806	1.013
494.000	545.295	79.996	19.997	100.130	19.999	5.854	1.010
495.000	546.321	79.997	19.998	100.130	20.002	5.647	1.027
496.000	547.353	79.994	19.998	100.133	20.006	5.312	1.046
497.000	548.408	79.996	19.997	100.136	20.007	5.220	1.036
498.001	549.400	79.996	19.997	100.137	20.005	5.371	1.011
499.000	550.448	79.996	19.998	100.137	20.008	5.148	1.026
500.000	551.477	79.995	19.996	100.134	20.009	5.080	1.044
501.000	552.506	79.998	19.997	100.130	20.006	5.302	1.021
502.000	553.509	79.997	19.997	100.128	20.011	4.968	1.022
503.000	554.565	79.995	19.997	100.131	20.009	5.123	1.035
504.000	555.609	79.996	19.996	100.134	20.012	4.883	1.038
505.000	556.630	79.995	19.996	100.133	20.013	4.782	1.017
506.000	557.634	79.997	19.998	100.131	20.008	5.157	1.030
507.000	558.708	79.996	19.998	100.131	20.012	4.840	1.039
508.000	559.704	79.997	19.996	100.120	20.014	4.708	1.020
509.000	560.698	79.997	19.996	100.118	20.013	4.803	0.995
510.000	561.726	80.000	19.995	100.120	20.010	5.006	1.031
511.000	562.758	79.998	19.996	100.133	20.012	4.853	1.036
512.000	563.760	79.997	19.996	100.136	20.017	4.530	1.007
513.000	564.770	79.998	19.996	100.130	20.012	4.848	1.011
514.000	565.759	79.999	19.996	100.122	20.012	4.856	0.977
515.000	566.791	80.000	19.997	100.123	20.018	4.449	1.054
516.000	567.835	79.998	19.996	100.131	20.015	4.625	1.006
517.000	568.843	79.998	19.996	100.128	20.019	4.375	1.015
518.000	569.830	79.999	19.995	100.127	20.015	4.650	1.006
519.000	570.872	79.997	19.996	100.128	20.022	4.089	1.024
520.000	571.856	79.997	19.996	100.129	20.016	4.605	0.997
521.000	572.854	79.999	19.996	100.130	20.018	4.456	0.995
522.000	573.892	79.997	19.996	100.129	20.013	4.803	1.018
523.000	574.928	79.996	19.997	100.128	20.010	5.060	1.051
524.000	575.944	79.996	19.996	100.123	20.017	4.489	1.018
525.000	576.938	79.995	19.996	100.116	20.019	4.371	1.020
526.000	577.942	79.995	19.996	100.123	20.015	4.613	0.991
527.000	578.958	79.995	19.997	100.131	20.012	4.865	0.989
528.001	579.934	79.995	19.996	100.133	20.015	4.617	1.015
529.000	580.946	79.995	19.996	100.131	20.016	4.607	0.993
530.001	581.935	79.995	19.997	100.133	20.018	4.431	1.020
531.000	582.991	79.995	19.996	100.134	20.017	4.468	1.026
532.000	583.962	79.997	19.997	100.134	20.017	4.501	0.969
533.000	584.956	79.994	19.996	100.135	20.013	4.822	1.008
534.000	585.973	79.996	19.996	100.135	20.017	4.493	0.998
535.000	586.981	79.996	19.996	100.134	20.018	4.417	1.019
536.000	587.959	79.997	19.996	100.133	20.019	4.384	0.979
537.000	588.927	79.994	19.996	100.136	20.021	4.206	0.973
538.000	589.973	79.996	19.996	100.136	20.025	3.893	1.030
539.000	590.959	79.997	19.996	100.137	20.017	4.526	0.979
540.000	591.955	79.994	19.995	100.136	20.021	4.224	1.011
541.000	592.939	79.996	19.996	100.134	20.020	4.292	0.976
542.000	593.963	79.995	19.995	100.133	20.018	4.452	1.019
543.000	594.979	79.995	19.994	100.132	20.021	4.191	1.010
544.000	595.966	79.996	19.996	100.133	20.025	3.872	1.015
545.000	596.957	79.995	19.996	100.136	20.024	3.988	0.980
546.000	597.969	79.996	19.996	100.138	20.030	3.500	1.010
547.000	599.005	79.995	19.997	100.140	20.025	3.887	1.013
548.000	599.892	79.995	19.996	100.138	20.027	3.737	0.977
549.000	600.988	79.995	19.996	100.132	20.022	4.119	1.037
550.000	601.968	79.996	19.996	100.132	20.025	3.903	0.955
551.000	602.980	79.994	19.995	100.134	20.029	3.569	1.025
552.000	603.954	79.996	19.998	100.133	20.023	4.061	0.976
553.000	604.934	79.996	19.995	100.135	20.027	3.769	0.981
554.000	605.940	79.996	19.997	100.134	20.023	4.073	1.025
555.000	606.917	79.996	19.997	100.134	20.024	3.951	0.980
556.000	607.931	79.995	19.997	100.125	20.023	4.040	0.989
557.000	608.911	79.994	19.997	100.077	20.022	4.143	0.997
558.000	609.940	79.996	19.998	100.043	20.024	3.934	1.024
559.000	610.983	79.995	19.996	100.054	20.022	4.133	1.020
560.000	611.963	79.995	19.998	100.106	20.027	3.731	0.986
561.000	612.944	79.994	19.996	100.125	20.030	3.541	0.986
562.000	613.937	79.996	19.998	100.151	20.024	4.004	0.996
563.000	614.927	79.996	19.997	100.195	20.026	3.832	0.996
564.000	615.954	79.996	19.997	100.195	20.023	4.009	1.007
565.000	616.947	79.996	19.997	100.141	20.023	4.023	1.010
566.000	617.896	79.997	19.998	100.132	20.023	4.008	0.948
567.000	618.906	79.998	19.997	100.133	20.024	3.994	0.996
568.000	619.915	79.998	19.997	100.132	20.027	3.781	1.005
569.000	620.894	79.997	19.997	100.128	20.024	3.957	1.008
570.000	621.892	79.995	19.994	100.127	20.026	3.847	0.979
571.000	622.867	79.997	19.996	100.124	20.032	3.378	0.985
572.001	623.883	79.997	19.995	100.118	20.020	4.253	1.021
573.000	624.852	79.998	19.997	100.118	20.026	3.833	0.967
574.000	625.853	79.997	19.996	100.119	20.023	4.021	0.994
575.000	626.867	79.997	19.995	100.126	20.031	3.467	0.998
576.000	627.828	79.997	19.998	100.130	20.028	3.657	0.985
577.000	628.864	79.997	19.997	100.125	20.026	3.806	1.013
578.000	629.866	79.996	19.997	100.121	20.030	3.545	1.034
579.000	630.793	79.997	19.997	100.123	20.028	3.705	0.930
580.000	631.825	79.996	19.998	100.128	20.031	3.450	1.006
581.000	632.852	79.997	19.998	100.129	20.030	3.535	1.024
582.001	633.839	79.997	19.996	100.128	20.030	3.551	0.987
583.000	634.835	79.997	19.998	100.127	20.031	3.432	1.018
584.000	635.867	79.996	19.997	100.125	20.030	3.494	1.018
585.000	636.878	79.996	19.997	100.126	20.035	3.144	0.990
586.000	637.833	79.994	19.999	100.124	20.025	3.858	1.005
587.000	638.868	79.996	19.997	100.126	20.030	3.541	1.003
588.000	639.907	79.999	19.999	100.130	20.028	3.694	1.027
589.000	640.916	79.996	19.997	100.131	20.030	3.504	1.006
590.000	641.888	79.997	19.996	100.127	20.030	3.529	1.005
591.000	642.888	79.998	19.998	100.123	20.027	3.781	0.985
592.000	643.922	79.997	19.996	100.125	20.029	3.558	1.037
593.000	644.922	79.999	19.995	100.128	20.024	3.972	0.999
594.000	645.951	79.999	19.996	100.131	20.026	3.850	1.000
595.001	646.911	80.000	19.996	100.131	20.031	3.438	0.984
596.000	647.941	79.997	19.995	100.132	20.032	3.353	1.037
597.000	648.973	80.000	19.996	100.131	20.027	3.756	1.007
598.000	650.027	79.998	19.996	100.127	20.029	3.612	1.067
599.000	650.991	79.997	19.996	100.128	20.031	3.406	0.993
600.000	652.066	79.998	19.995	100.131	20.023	4.019	1.037
601.000	653.055	79.996	19.995	100.132	20.026	3.839	1.026
602.000	654.122	79.997	19.995	100.132	20.029	3.591	1.047
603.000	655.192	79.997	19.996	100.136	20.025	3.870	1.037
604.000	656.200	79.995	19.996	100.136	20.027	3.711	1.021
605.000	657.223	79.997	19.997	100.134	20.034	3.243	1.041
606.001	658.277	79.996	19.997	100.131	20.029	3.585	1.047
607.000	659.329	79.995	19.996	100.129	20.028	3.686	1.051
608.000	660.368	79.996	19.996	100.133	20.028	3.655	1.044
609.000	661.406	79.996	19.997	100.129	20.027	3.746	1.040
610.000	662.458	79.994	19.996	100.122	20.030	3.538	1.041
611.000	663.501	79.994	19.996	100.122	20.031	3.474	1.055
612.000	664.630	79.995	19.996	100.132	20.031	3.447	1.084
613.000	665.554	79.997	19.997	100.135	20.027	3.705	0.977
614.000	666.553	79.997	19.997	100.130	20.028	3.685	1.040
615.000	667.586	79.996	19.996	100.129	20.028	3.686	1.007
616.000	668.732	79.997	19.996	100.128	20.025	3.891	1.103
617.001	669.746	79.997	19.997	100.126	20.029	3.572	1.024
618.000	670.857	79.996	19.997	100.121	20.031	3.456	1.109
619.000	671.866	79.996	19.996	100.127	20.037	2.980	0.996
620.000	672.843	79.997	19.997	100.124	20.028	3.688	1.000
621.000	673.936	79.997	19.996	100.110	20.030	3.481	1.118
622.000	674.980	79.998	19.996	100.098	20.030	3.480	1.014
623.000	676.016	79.997	19.996	100.096	20.028	3.654	1.032
624.000	677.067	79.996	19.997	100.095	20.030	3.495	1.066
625.001	678.108	79.996	19.996	100.104	20.032	3.352	1.019
626.000	679.127	79.997	19.995	100.119	20.031	3.416	1.037
627.000	680.144	79.996	19.995	100.123	20.032	3.360	1.021
628.000	681.195	79.997	19.996	100.121	20.030	3.544	1.033
629.000	682.223	79.996	19.995	100.116	20.032	3.400	1.041
630.000	683.253	79.996	19.995	100.121	20.030	3.514	1.021
631.000	684.311	79.997	19.996	100.129	20.031	3.468	1.065
632.000	685.312	79.997	19.995	100.120	20.035	3.150	1.007
633.000	686.417	79.995	19.995	100.104	20.033	3.321	1.033
634.000	687.406	79.997	19.995	100.095	20.036	3.067	1.042
635.000	688.427	79.997	19.996	100.107	20.030	3.515	1.017
636.000	689.451	79.996	19.995	100.108	20.029	3.581	1.029
637.000	690.479	79.996	19.996	100.104	20.028	3.677	1.043
638.000	691.513	79.995	19.996	100.099	20.032	3.373	1.021
639.000	692.541	79.995	19.995	100.101	20.035	3.176	1.027
640.000	693.603	79.996	19.995	100.104	20.035	3.139	1.060
641.000	694.633	79.997	19.997	100.108	20.034	3.243	1.045
642.000	695.633	79.996	19.998	100.110	20.034	3.251	1.022
643.000	696.689	79.996	19.995	100.114	20.034	3.209	1.057
644.000	697.766	79.997	19.997	100.109	20.033	3.263	1.032
645.000	698.762	79.995	19.996	100.103	20.032	3.354	1.025
646.000	699.832	79.997	19.997	100.099	20.035	3.145	1.070
647.000	700.804	79.997	19.997	100.097	20.041	2.690	0.960
648.000	701.816	79.997	19.996	100.101	20.039	2.843	1.036
649.000	702.834	79.998	19.997	100.105	20.035	3.112	1.000
650.000	703.857	79.999	19.997	100.104	20.035	3.104	1.040
651.000	704.868	79.998	19.995	100.104	20.038	2.934	1.001
652.000	705.890	79.998	19.997	100.105	20.037	2.963	1.017
653.000	706.899	79.998	19.996	100.102	20.038	2.947	1.015
654.000	707.927	79.999	19.996	100.101	20.035	3.174	1.026
655.000	708.925	79.997	19.997	100.101	20.035	3.128	0.993
656.000	709.925	79.997	19.995	100.102	20.035	3.124	1.007
657.000	710.905	79.997	19.996	100.102	20.036	3.043	0.979
658.000	711.945	79.995	19.996	100.097	20.041	2.676	1.029
659.000	712.913	79.997	19.996	100.096	20.041	2.705	0.968
660.000	713.940	79.995	19.996	100.098	20.039	2.851	1.025
661.000	714.930	79.996	19.995	100.094	20.039	2.845	1.005
662.000	715.934	79.995	19.996	100.095	20.037	3.013	0.994
663.000	716.958	79.996	19.997	100.097	20.038	2.914	1.024
664.000	717.921	79.995	19.996	100.097	20.035	3.144	0.981
665.000	718.923	79.996	19.995	100.095	20.041	2.678	0.988
666.000	719.895	79.997	19.996	100.094	20.039	2.838	0.992
667.001	720.920	79.995	19.997	100.087	20.035	3.121	0.998
668.000	721.882	79.998	19.997	100.087	20.040	2.745	0.969
669.000	722.824	79.998	19.997	100.094	20.041	2.678	0.966
670.000	723.866	79.996	19.996	100.097	20.036	3.085	1.004
671.000	724.835	79.996	19.997	100.097	20.032	3.399	1.001
672.000	725.866	79.995	19.996	100.101	20.035	3.168	1.028
673.000	726.869	79.997	19.996	100.110	20.036	3.050	0.985
674.000	727.846	79.998	19.997	100.113	20.032	3.348	0.984
675.000	728.831	79.998	19.997	100.116	20.039	2.851	0.999
676.000	729.878	79.999	19.997	100.122	20.031	3.416	1.034
677.000	730.899	79.999	19.996	100.121	20.038	2.909	1.025
678.000	731.911	79.999	19.996	100.125	20.035	3.160	1.005
679.000	732.925	79.998	19.996	100.122	20.035	3.143	0.996
680.000	733.946	79.998	19.996	100.114	20.033	3.327	1.018
681.000	734.938	79.997	19.996	100.099	20.031	3.408	0.996
682.000	735.932	79.998	19.997	100.096	20.037	2.982	1.009
683.001	736.961	79.997	19.995	100.097	20.034	3.228	1.028
684.000	737.943	79.996	19.996	100.099	20.037	3.025	0.984
685.000	738.967	79.994	19.995	100.096	20.034	3.249	1.046
686.000	739.983	79.995	19.994	100.093	20.033	3.274	1.006
686.500	740.492	79.996	19.996	100.093	20.033	3.282	1.002