File: 01_Data/Memory_Foam_Carpet_Pad/FTIR/IS/Memory_Foam_Carpet_Pad_IS_S_221003_R7.dpt
7497.03,0.72325
7491.25,0.72433
7485.46,0.72044
7479.67,0.71097
7473.89,0.73001
7468.1,0.72127
7462.32,0.71508
7456.53,0.71768
7450.74,0.71257
7444.96,0.70962
7439.17,0.70868
7433.38,0.71204
7427.6,0.70551
7421.81,0.71285
7416.03,0.69998
7410.24,0.69720
7404.45,0.69016
7398.67,0.68262
7392.88,0.67739
7387.09,0.67009
7381.31,0.66839
7375.52,0.66207
7369.74,0.66630
7363.95,0.66747
7358.16,0.66232
7352.38,0.67186
7346.59,0.66845
7340.8,0.67044
7335.02,0.66382
7329.23,0.66268
7323.45,0.66243
7317.66,0.66445
7311.87,0.66064
7306.09,0.64917
7300.3,0.64808
7294.51,0.64323
7288.73,0.64422
7282.94,0.62948
7277.16,0.63156
7271.37,0.62787
7265.58,0.62558
7259.8,0.62503
7254.01,0.63032
7248.22,0.61906
7242.44,0.62917
7236.65,0.62603
7230.87,0.62412
7225.08,0.62080
7219.29,0.61583
7213.51,0.61829
7207.72,0.61530
7201.93,0.61401
7196.15,0.61212
7190.36,0.60775
7184.58,0.60939
7178.79,0.61667
7173,0.61677
7167.22,0.61424
7161.43,0.61696
7155.65,0.61698
7149.86,0.61158
7144.07,0.62073
7138.29,0.61971
7132.5,0.62010
7126.71,0.62129
7120.93,0.62248
7115.14,0.62364
7109.36,0.62379
7103.57,0.62133
7097.78,0.62194
7092,0.62640
7086.21,0.62785
7080.42,0.62438
7074.64,0.63073
7068.85,0.61997
7063.07,0.62610
7057.28,0.62841
7051.49,0.62183
7045.71,0.62305
7039.92,0.63028
7034.13,0.62218
7028.35,0.62510
7022.56,0.61901
7016.78,0.62942
7010.99,0.62344
7005.2,0.62355
6999.42,0.62153
6993.63,0.62056
6987.84,0.62074
6982.06,0.61963
6976.27,0.61687
6970.49,0.61902
6964.7,0.62488
6958.91,0.62516
6953.13,0.62278
6947.34,0.62640
6941.55,0.62522
6935.77,0.63252
6929.98,0.63152
6924.2,0.63181
6918.41,0.63563
6912.62,0.63495
6906.84,0.62975
6901.05,0.63332
6895.26,0.63521
6889.48,0.63603
6883.69,0.63676
6877.91,0.63880
6872.12,0.63412
6866.33,0.63296
6860.55,0.63590
6854.76,0.63462
6848.97,0.63420
6843.19,0.63922
6837.4,0.64244
6831.62,0.63824
6825.83,0.64460
6820.04,0.64274
6814.26,0.63691
6808.47,0.63800
6802.68,0.63582
6796.9,0.63533
6791.11,0.63131
6785.33,0.63048
6779.54,0.62264
6773.75,0.62154
6767.97,0.61632
6762.18,0.61602
6756.39,0.61523
6750.61,0.61613
6744.82,0.61155
6739.04,0.61057
6733.25,0.61116
6727.46,0.60999
6721.68,0.60787
6715.89,0.60461
6710.1,0.60202
6704.32,0.59768
6698.53,0.59925
6692.75,0.60185
6686.96,0.59785
6681.17,0.59362
6675.39,0.59044
6669.6,0.59387
6663.82,0.59608
6658.03,0.60055
6652.24,0.59308
6646.46,0.60098
6640.67,0.59343
6634.88,0.59813
6629.1,0.59781
6623.31,0.60044
6617.53,0.60152
6611.74,0.59808
6605.95,0.59697
6600.17,0.59812
6594.38,0.60394
6588.59,0.60309
6582.81,0.60289
6577.02,0.61028
6571.24,0.60941
6565.45,0.61182
6559.66,0.61572
6553.88,0.61131
6548.09,0.61913
6542.3,0.61764
6536.52,0.61883
6530.73,0.62425
6524.95,0.62500
6519.16,0.62666
6513.37,0.63092
6507.59,0.63100
6501.8,0.63494
6496.01,0.63421
6490.23,0.63871
6484.44,0.63799
6478.66,0.63641
6472.87,0.64361
6467.08,0.64463
6461.3,0.64210
6455.51,0.64772
6449.72,0.64695
6443.94,0.64489
6438.15,0.64479
6432.37,0.64738
6426.58,0.64938
6420.79,0.64712
6415.01,0.65042
6409.22,0.64688
6403.43,0.65290
6397.65,0.65116
6391.86,0.65222
6386.08,0.65173
6380.29,0.65418
6374.5,0.64897
6368.72,0.65441
6362.93,0.65477
6357.14,0.65452
6351.36,0.65411
6345.57,0.65660
6339.79,0.65618
6334,0.65647
6328.21,0.65701
6322.43,0.65425
6316.64,0.65201
6310.85,0.65492
6305.07,0.65579
6299.28,0.65348
6293.5,0.65514
6287.71,0.65335
6281.92,0.65396
6276.14,0.65519
6270.35,0.65348
6264.56,0.65569
6258.78,0.65580
6252.99,0.65794
6247.21,0.65401
6241.42,0.65337
6235.63,0.65279
6229.85,0.65236
6224.06,0.65463
6218.27,0.65347
6212.49,0.65244
6206.7,0.65376
6200.92,0.65129
6195.13,0.64944
6189.34,0.64858
6183.56,0.64986
6177.77,0.64692
6171.98,0.64171
6166.2,0.64047
6160.41,0.64184
6154.63,0.63705
6148.84,0.63324
6143.05,0.63227
6137.27,0.62859
6131.48,0.62784
6125.7,0.62020
6119.91,0.61728
6114.12,0.61096
6108.34,0.60662
6102.55,0.59991
6096.76,0.59508
6090.98,0.59328
6085.19,0.58616
6079.41,0.58276
6073.62,0.58419
6067.83,0.58066
6062.05,0.57904
6056.26,0.57825
6050.47,0.57885
6044.69,0.57902
6038.9,0.57439
6033.12,0.57021
6027.33,0.56812
6021.54,0.56505
6015.76,0.55506
6009.97,0.54287
6004.18,0.53825
5998.4,0.53204
5992.61,0.52421
5986.83,0.51407
5981.04,0.50124
5975.25,0.48601
5969.47,0.47479
5963.68,0.45773
5957.89,0.43837
5952.11,0.42894
5946.32,0.41736
5940.54,0.41449
5934.75,0.41382
5928.96,0.41569
5923.18,0.41879
5917.39,0.41548
5911.6,0.40539
5905.82,0.39916
5900.03,0.39739
5894.25,0.40250
5888.46,0.40890
5882.67,0.41766
5876.89,0.42647
5871.1,0.42902
5865.31,0.42643
5859.53,0.42806
5853.74,0.42673
5847.96,0.42206
5842.17,0.41762
5836.38,0.41334
5830.6,0.40837
5824.81,0.40457
5819.02,0.40207
5813.24,0.39701
5807.45,0.39244
5801.67,0.38864
5795.88,0.38354
5790.09,0.38126
5784.31,0.37733
5778.52,0.37696
5772.73,0.37601
5766.95,0.37890
5761.16,0.38185
5755.38,0.38779
5749.59,0.39235
5743.8,0.39696
5738.02,0.40097
5732.23,0.40983
5726.44,0.41688
5720.66,0.42182
5714.87,0.42828
5709.09,0.43086
5703.3,0.43375
5697.51,0.43537
5691.73,0.43959
5685.94,0.43792
5680.15,0.43655
5674.37,0.43584
5668.58,0.43573
5662.8,0.43661
5657.01,0.44034
5651.22,0.44100
5645.44,0.44547
5639.65,0.45108
5633.87,0.45651
5628.08,0.45975
5622.29,0.46382
5616.51,0.46730
5610.72,0.46836
5604.93,0.47159
5599.15,0.47140
5593.36,0.47169
5587.58,0.47178
5581.79,0.47162
5576,0.47266
5570.22,0.47354
5564.43,0.47327
5558.64,0.47160
5552.86,0.47248
5547.07,0.47144
5541.29,0.47302
5535.5,0.47352
5529.71,0.47175
5523.93,0.47354
5518.14,0.47636
5512.35,0.47684
5506.57,0.47974
5500.78,0.48165
5495,0.48230
5489.21,0.48516
5483.42,0.48762
5477.64,0.48624
5471.85,0.48709
5466.06,0.48943
5460.28,0.48945
5454.49,0.48887
5448.71,0.49079
5442.92,0.49346
5437.13,0.49545
5431.35,0.49696
5425.56,0.50195
5419.77,0.50538
5413.99,0.51144
5408.2,0.51749
5402.42,0.52058
5396.63,0.52467
5390.84,0.52691
5385.06,0.53053
5379.27,0.53255
5373.48,0.53424
5367.7,0.53397
5361.91,0.53690
5356.13,0.53868
5350.34,0.53771
5344.55,0.53850
5338.77,0.53969
5332.98,0.54106
5327.19,0.54147
5321.41,0.54309
5315.62,0.54399
5309.84,0.54476
5304.05,0.54444
5298.26,0.54422
5292.48,0.54180
5286.69,0.54044
5280.9,0.53801
5275.12,0.53635
5269.33,0.53376
5263.55,0.53123
5257.76,0.52867
5251.97,0.52766
5246.19,0.52477
5240.4,0.52325
5234.61,0.52087
5228.83,0.52038
5223.04,0.51911
5217.26,0.51724
5211.47,0.51538
5205.68,0.51631
5199.9,0.51503
5194.11,0.51741
5188.32,0.51621
5182.54,0.51792
5176.75,0.51806
5170.97,0.51731
5165.18,0.51805
5159.39,0.51741
5153.61,0.51775
5147.82,0.51717
5142.03,0.51910
5136.25,0.51920
5130.46,0.51775
5124.68,0.51693
5118.89,0.51892
5113.1,0.51755
5107.32,0.51741
5101.53,0.51627
5095.75,0.51415
5089.96,0.51301
5084.17,0.51160
5078.39,0.50944
5072.6,0.50905
5066.81,0.50563
5061.03,0.50225
5055.24,0.50015
5049.46,0.49778
5043.67,0.49467
5037.88,0.49269
5032.1,0.49017
5026.31,0.48848
5020.52,0.48386
5014.74,0.47958
5008.95,0.47383
5003.17,0.46890
4997.38,0.46216
4991.59,0.45605
4985.81,0.44904
4980.02,0.44037
4974.23,0.43248
4968.45,0.42465
4962.66,0.41705
4956.88,0.41059
4951.09,0.40623
4945.3,0.39923
4939.52,0.39366
4933.73,0.38795
4927.94,0.38451
4922.16,0.37862
4916.37,0.37443
4910.59,0.37016
4904.8,0.36620
4899.01,0.36406
4893.23,0.36220
4887.44,0.36233
4881.65,0.36045
4875.87,0.35907
4870.08,0.36041
4864.3,0.36053
4858.51,0.35972
4852.72,0.36146
4846.94,0.36338
4841.15,0.36533
4835.36,0.36751
4829.58,0.37168
4823.79,0.37657
4818.01,0.38051
4812.22,0.38615
4806.43,0.39165
4800.65,0.39686
4794.86,0.39879
4789.07,0.40270
4783.29,0.40685
4777.5,0.41097
4771.72,0.41284
4765.93,0.41528
4760.14,0.41629
4754.36,0.41713
4748.57,0.41967
4742.78,0.41709
4737,0.41475
4731.21,0.41315
4725.43,0.40933
4719.64,0.40430
4713.85,0.39965
4708.07,0.39547
4702.28,0.39248
4696.49,0.39005
4690.71,0.38685
4684.92,0.38262
4679.14,0.37875
4673.35,0.37493
4667.56,0.37171
4661.78,0.36966
4655.99,0.36678
4650.2,0.36342
4644.42,0.35753
4638.63,0.35313
4632.85,0.35000
4627.06,0.34780
4621.27,0.34903
4615.49,0.35122
4609.7,0.35254
4603.92,0.35516
4598.13,0.35819
4592.34,0.36000
4586.56,0.35903
4580.77,0.35885
4574.98,0.35710
4569.2,0.35799
4563.41,0.35910
4557.63,0.35996
4551.84,0.36157
4546.05,0.36098
4540.27,0.36052
4534.48,0.36025
4528.69,0.35901
4522.91,0.35824
4517.12,0.35736
4511.34,0.35597
4505.55,0.35511
4499.76,0.35446
4493.98,0.35236
4488.19,0.34999
4482.4,0.34440
4476.62,0.33710
4470.83,0.32899
4465.05,0.31871
4459.26,0.30640
4453.47,0.29125
4447.69,0.27263
4441.9,0.25312
4436.11,0.23392
4430.33,0.21555
4424.54,0.19999
4418.76,0.18845
4412.97,0.18229
4407.18,0.18287
4401.4,0.18732
4395.61,0.19047
4389.82,0.18851
4384.04,0.18491
4378.25,0.17838
4372.47,0.17114
4366.68,0.16332
4360.89,0.15478
4355.11,0.14756
4349.32,0.13935
4343.53,0.13398
4337.75,0.13299
4331.96,0.13175
4326.18,0.13334
4320.39,0.13722
4314.6,0.14309
4308.82,0.15159
4303.03,0.15937
4297.24,0.16649
4291.46,0.16978
4285.67,0.17184
4279.89,0.17153
4274.1,0.17139
4268.31,0.17184
4262.53,0.17445
4256.74,0.17813
4250.95,0.18056
4245.17,0.18194
4239.38,0.18322
4233.6,0.18463
4227.81,0.18638
4222.02,0.18954
4216.24,0.19281
4210.45,0.19643
4204.66,0.20010
4198.88,0.20258
4193.09,0.20473
4187.31,0.20447
4181.52,0.20276
4175.73,0.20176
4169.95,0.19976
4164.16,0.19760
4158.37,0.19595
4152.59,0.19431
4146.8,0.19414
4141.02,0.19284
4135.23,0.19305
4129.44,0.19235
4123.66,0.19073
4117.87,0.18897
4112.09,0.18665
4106.3,0.18320
4100.51,0.18066
4094.73,0.17660
4088.94,0.17239
4083.15,0.16798
4077.37,0.16324
4071.58,0.15814
4065.8,0.15466
4060.01,0.15080
4054.22,0.14843
4048.44,0.14779
4042.65,0.14705
4036.86,0.14710
4031.08,0.14700
4025.29,0.14732
4019.51,0.14912
4013.72,0.14933
4007.93,0.15057
4002.15,0.15220
3996.36,0.15440
3990.57,0.15599
3984.79,0.15913
3979,0.16225
3973.22,0.16569
3967.43,0.16902
3961.64,0.17389
3955.86,0.17780
3950.07,0.18242
3944.28,0.18804
3938.5,0.19465
3932.71,0.19964
3926.93,0.20525
3921.14,0.21031
3915.35,0.21504
3909.57,0.21915
3903.78,0.22286
3897.99,0.22448
3892.21,0.22660
3886.42,0.22877
3880.64,0.23045
3874.85,0.23154
3869.06,0.23220
3863.28,0.23299
3857.49,0.23357
3851.7,0.23448
3845.92,0.23623
3840.13,0.23812
3834.35,0.24086
3828.56,0.24284
3822.77,0.24554
3816.99,0.24701
3811.2,0.24739
3805.41,0.24830
3799.63,0.24963
3793.84,0.25150
3788.06,0.25294
3782.27,0.25646
3776.48,0.25985
3770.7,0.26450
3764.91,0.27058
3759.12,0.27590
3753.34,0.28070
3747.55,0.28545
3741.77,0.28919
3735.98,0.29295
3730.19,0.29543
3724.41,0.29774
3718.62,0.29994
3712.83,0.30232
3707.05,0.30145
3701.26,0.30082
3695.48,0.29875
3689.69,0.29628
3683.9,0.29178
3678.12,0.28691
3672.33,0.28000
3666.54,0.27311
3660.76,0.26751
3654.97,0.25954
3649.19,0.25251
3643.4,0.24390
3637.61,0.23757
3631.83,0.23152
3626.04,0.22319
3620.25,0.21615
3614.47,0.20989
3608.68,0.20161
3602.9,0.19380
3597.11,0.18616
3591.32,0.17833
3585.54,0.17285
3579.75,0.16733
3573.97,0.16211
3568.18,0.15803
3562.39,0.15296
3556.61,0.14845
3550.82,0.14341
3545.03,0.13867
3539.25,0.13317
3533.46,0.12900
3527.68,0.12451
3521.89,0.11982
3516.1,0.11646
3510.32,0.11250
3504.53,0.11050
3498.74,0.10818
3492.96,0.10570
3487.17,0.10186
3481.39,0.09854
3475.6,0.09514
3469.81,0.08940
3464.03,0.08152
3458.24,0.07644
3452.45,0.07330
3446.67,0.07140
3440.88,0.06892
3435.1,0.06562
3429.31,0.06196
3423.52,0.05682
3417.74,0.05178
3411.95,0.04859
3406.16,0.04523
3400.38,0.04151
3394.59,0.03880
3388.81,0.03695
3383.02,0.03479
3377.23,0.03365
3371.45,0.03262
3365.66,0.03157
3359.87,0.03072
3354.09,0.02952
3348.3,0.02933
3342.52,0.02924
3336.73,0.02908
3330.94,0.02914
3325.16,0.02865
3319.37,0.02779
3313.58,0.02813
3307.8,0.02851
3302.01,0.02818
3296.23,0.02887
3290.44,0.02874
3284.65,0.02778
3278.87,0.02821
3273.08,0.02966
3267.29,0.02979
3261.51,0.02985
3255.72,0.03089
3249.94,0.03141
3244.15,0.03252
3238.36,0.03329
3232.58,0.03417
3226.79,0.03486
3221,0.03587
3215.22,0.03735
3209.43,0.03705
3203.65,0.03829
3197.86,0.03891
3192.07,0.03853
3186.29,0.03954
3180.5,0.04168
3174.71,0.04354
3168.93,0.04538
3163.14,0.04633
3157.36,0.04728
3151.57,0.04732
3145.78,0.04732
3140,0.04594
3134.21,0.04547
3128.42,0.04512
3122.64,0.04516
3116.85,0.04572
3111.07,0.04635
3105.28,0.04698
3099.49,0.04788
3093.71,0.04789
3087.92,0.04705
3082.14,0.04603
3076.35,0.04524
3070.56,0.04394
3064.78,0.04313
3058.99,0.04248
3053.2,0.04254
3047.42,0.04259
3041.63,0.04247
3035.85,0.04175
3030.06,0.04032
3024.27,0.04021
3018.49,0.04122
3012.7,0.03978
3006.91,0.03768
3001.13,0.03417
2995.34,0.03118
2989.56,0.02859
2983.77,0.02798
2977.98,0.02665
2972.2,0.02678
2966.41,0.02708
2960.62,0.02750
2954.84,0.02735
2949.05,0.02726
2943.27,0.02626
2937.48,0.02561
2931.69,0.02559
2925.91,0.02590
2920.12,0.02548
2914.33,0.02632
2908.55,0.02633
2902.76,0.02659
2896.98,0.02685
2891.19,0.02695
2885.4,0.02786
2879.62,0.02734
2873.83,0.02683
2868.04,0.02699
2862.26,0.02758
2856.47,0.02816
2850.69,0.02920
2844.9,0.03065
2839.11,0.03239
2833.33,0.03447
2827.54,0.03639
2821.75,0.03770
2815.97,0.03918
2810.18,0.04039
2804.4,0.04107
2798.61,0.04182
2792.82,0.04270
2787.04,0.04398
2781.25,0.04506
2775.46,0.04609
2769.68,0.04754
2763.89,0.04884
2758.11,0.05090
2752.32,0.05222
2746.53,0.05350
2740.75,0.05493
2734.96,0.05667
2729.17,0.05817
2723.39,0.06144
2717.6,0.06477
2711.82,0.06859
2706.03,0.07189
2700.24,0.07564
2694.46,0.07881
2688.67,0.08260
2682.88,0.08529
2677.1,0.08727
2671.31,0.08819
2665.53,0.09006
2659.74,0.09316
2653.95,0.09601
2648.17,0.09696
2642.38,0.09773
2636.59,0.09965
2630.81,0.10291
2625.02,0.10732
2619.24,0.11039
2613.45,0.11132
2607.66,0.11018
2601.88,0.10934
2596.09,0.10808
2590.3,0.10857
2584.52,0.11043
2578.73,0.11363
2572.95,0.11970
2567.16,0.12606
2561.37,0.13194
2555.59,0.13569
2549.8,0.13819
2544.02,0.14046
2538.23,0.14174
2532.44,0.14195
2526.66,0.14187
2520.87,0.14197
2515.08,0.14260
2509.3,0.14331
2503.51,0.14509
2497.73,0.14755
2491.94,0.14983
2486.15,0.15262
2480.37,0.15520
2474.58,0.15778
2468.79,0.16003
2463.01,0.16201
2457.22,0.16387
2451.44,0.16614
2445.65,0.16915
2439.86,0.17185
2434.08,0.17498
2428.29,0.17747
2422.5,0.17919
2416.72,0.17987
2410.93,0.17908
2405.15,0.17812
2399.36,0.17726
2393.57,0.17553
2387.79,0.17436
2382,0.17311
2376.21,0.17205
2370.43,0.17161
2364.64,0.17049
2358.86,0.17095
2353.07,0.17061
2347.28,0.16987
2341.5,0.16907
2335.71,0.16869
2329.92,0.16775
2324.14,0.16526
2318.35,0.16072
2312.57,0.15474
2306.78,0.14766
2300.99,0.14033
2295.21,0.13265
2289.42,0.12521
2283.63,0.11681
2277.85,0.11057
2272.06,0.10741
2266.28,0.10921
2260.49,0.11489
2254.7,0.11974
2248.92,0.12183
2243.13,0.11953
2237.34,0.11800
2231.56,0.12549
2225.77,0.13297
2219.99,0.13605
2214.2,0.13834
2208.41,0.13997
2202.63,0.14190
2196.84,0.14277
2191.05,0.14325
2185.27,0.14389
2179.48,0.14448
2173.7,0.14428
2167.91,0.14407
2162.12,0.14393
2156.34,0.14422
2150.55,0.14440
2144.76,0.14530
2138.98,0.14615
2133.19,0.14675
2127.41,0.14831
2121.62,0.14906
2115.83,0.15013
2110.05,0.15038
2104.26,0.14991
2098.47,0.14870
2092.69,0.14712
2086.9,0.14581
2081.12,0.14445
2075.33,0.14314
2069.54,0.14254
2063.76,0.14212
2057.97,0.14126
2052.19,0.14018
2046.4,0.13758
2040.61,0.13466
2034.83,0.13156
2029.04,0.12879
2023.25,0.12675
2017.47,0.12534
2011.68,0.12481
2005.9,0.12533
2000.11,0.12553
1994.32,0.12559
1988.54,0.12572
1982.75,0.12509
1976.96,0.12470
1971.18,0.12372
1965.39,0.12305
1959.61,0.12201
1953.82,0.12180
1948.03,0.12159
1942.25,0.12272
1936.46,0.12237
1930.67,0.12156
1924.89,0.12030
1919.1,0.11890
1913.32,0.11768
1907.53,0.11750
1901.74,0.11776
1895.96,0.11882
1890.17,0.12089
1884.38,0.12313
1878.6,0.12516
1872.81,0.12686
1867.03,0.12854
1861.24,0.12944
1855.45,0.12909
1849.67,0.12730
1843.88,0.12419
1838.09,0.12069
1832.31,0.11677
1826.52,0.11223
1820.74,0.10740
1814.95,0.10300
1809.16,0.09761
1803.38,0.09090
1797.59,0.08457
1791.8,0.08115
1786.02,0.07875
1780.23,0.07574
1774.45,0.07219
1768.66,0.06659
1762.87,0.05928
1757.09,0.04866
1751.3,0.03732
1745.51,0.02882
1739.73,0.02555
1733.94,0.02457
1728.16,0.02471
1722.37,0.02534
1716.58,0.02596
1710.8,0.02614
1705.01,0.02634
1699.22,0.02631
1693.44,0.02670
1687.65,0.02675
1681.87,0.02708
1676.08,0.02688
1670.29,0.02698
1664.51,0.02707
1658.72,0.02709
1652.93,0.02717
1647.15,0.02766
1641.36,0.02782
1635.58,0.02781
1629.79,0.02849
1624,0.02789
1618.22,0.02639
1612.43,0.02504
1606.64,0.02489
1600.86,0.02475
1595.07,0.02535
1589.29,0.02614
1583.5,0.02783
1577.71,0.02887
1571.93,0.02802
1566.14,0.02602
1560.35,0.02519
1554.57,0.02359
1548.78,0.02345
1543,0.02415
1537.21,0.02551
1531.42,0.02669
1525.64,0.02723
1519.85,0.02739
1514.07,0.02704
1508.28,0.02836
1502.49,0.02891
1496.71,0.02952
1490.92,0.02998
1485.13,0.02927
1479.35,0.02842
1473.56,0.02794
1467.78,0.02780
1461.99,0.02754
1456.2,0.02679
1450.42,0.02713
1444.63,0.02840
1438.84,0.02938
1433.06,0.03040
1427.27,0.03010
1421.49,0.02888
1415.7,0.02738
1409.91,0.02765
1404.13,0.02841
1398.34,0.02873
1392.55,0.02826
1386.77,0.02731
1380.98,0.02599
1375.2,0.02596
1369.41,0.02749
1363.62,0.02908
1357.84,0.02919
1352.05,0.02779
1346.26,0.02722
1340.48,0.02736
1334.69,0.02774
1328.91,0.02694
1323.12,0.02596
1317.33,0.02512
1311.55,0.02533
1305.76,0.02551
1299.97,0.02551
1294.19,0.02605
1288.4,0.02618
1282.62,0.02570
1276.83,0.02580
1271.04,0.02561
1265.26,0.02547
1259.47,0.02495
1253.68,0.02462
1247.9,0.02373
1242.11,0.02360
1236.33,0.02368
1230.54,0.02450
1224.75,0.02547
1218.97,0.02659
1213.18,0.02657
1207.39,0.02659
1201.61,0.02701
1195.82,0.02650
1190.04,0.02658
1184.25,0.02490
1178.46,0.02472
1172.68,0.02394
1166.89,0.02372
1161.1,0.02292
1155.32,0.02367
1149.53,0.02350
1143.75,0.02305
1137.96,0.02320
1132.17,0.02330
1126.39,0.02345
1120.6,0.02502
1114.81,0.02556
1109.03,0.02762
1103.24,0.02798
1097.46,0.02917
1091.67,0.03007
1085.88,0.03041
1080.1,0.03087
1074.31,0.03125
1068.52,0.03146
1062.74,0.03171
1056.95,0.03227
1051.17,0.03271
1045.38,0.03272
1039.59,0.03253
1033.81,0.03345
1028.02,0.03322
1022.24,0.03322
1016.45,0.03301
1010.66,0.03416
1004.88,0.03443
999.09,0.03590
993.304,0.03797
987.518,0.04074
981.731,0.04164
975.945,0.04152
970.159,0.04075
964.373,0.04130
958.586,0.04117
952.8,0.04061
947.014,0.03904
941.228,0.03676
935.441,0.03523
929.655,0.03454
923.869,0.03543
918.083,0.03608
912.297,0.03692
906.51,0.03843
900.724,0.04076
894.938,0.04275
889.152,0.04274
883.365,0.04165
877.579,0.03964
871.793,0.03841
866.007,0.03799
860.22,0.03756
854.434,0.03798
848.648,0.03764
842.862,0.03761
837.075,0.03782
831.289,0.03657
825.503,0.03477
819.717,0.03452
813.931,0.03484
808.144,0.03653
802.358,0.03887
796.572,0.04076
790.786,0.04055
784.999,0.04079
779.213,0.03972
773.427,0.03766
767.641,0.03600
761.854,0.03540
756.068,0.03665
750.282,0.03920
744.496,0.04180
738.709,0.04320
732.923,0.04270
727.137,0.04349
721.351,0.04031
715.565,0.03874
709.778,0.03648
703.992,0.03625
698.206,0.03642
692.42,0.03718
686.633,0.03638
680.847,0.03589
675.061,0.03490
669.275,0.03532
663.488,0.03570
657.702,0.03653
651.916,0.03823
646.13,0.03761
640.343,0.03686
634.557,0.03813
628.771,0.03733
622.985,0.03719
617.198,0.03772
611.412,0.03667
605.626,0.03826
599.84,0.03622