File: 01_Data/Memory_Foam_Carpet_Pad/FTIR/IS/Memory_Foam_Carpet_Pad_IS_S_221003_R1.dpt
7497.03,0.71369
7491.25,0.72052
7485.46,0.71287
7479.67,0.72465
7473.89,0.71427
7468.1,0.70963
7462.32,0.70672
7456.53,0.71088
7450.74,0.69449
7444.96,0.70600
7439.17,0.70990
7433.38,0.71447
7427.6,0.70118
7421.81,0.69761
7416.03,0.70659
7410.24,0.69538
7404.45,0.68185
7398.67,0.67645
7392.88,0.67560
7387.09,0.67161
7381.31,0.66117
7375.52,0.66251
7369.74,0.66209
7363.95,0.65459
7358.16,0.65465
7352.38,0.66713
7346.59,0.65379
7340.8,0.66892
7335.02,0.65935
7329.23,0.64856
7323.45,0.65679
7317.66,0.65791
7311.87,0.65404
7306.09,0.64109
7300.3,0.64620
7294.51,0.64063
7288.73,0.63199
7282.94,0.62889
7277.16,0.63772
7271.37,0.62530
7265.58,0.62136
7259.8,0.61812
7254.01,0.61843
7248.22,0.61621
7242.44,0.61288
7236.65,0.61083
7230.87,0.61693
7225.08,0.61024
7219.29,0.61586
7213.51,0.61206
7207.72,0.61002
7201.93,0.60307
7196.15,0.60770
7190.36,0.60427
7184.58,0.60209
7178.79,0.61007
7173,0.60901
7167.22,0.60867
7161.43,0.61231
7155.65,0.60556
7149.86,0.60835
7144.07,0.61057
7138.29,0.61301
7132.5,0.60920
7126.71,0.61620
7120.93,0.60931
7115.14,0.61069
7109.36,0.60748
7103.57,0.60963
7097.78,0.60916
7092,0.60408
7086.21,0.60226
7080.42,0.61456
7074.64,0.60378
7068.85,0.60807
7063.07,0.61239
7057.28,0.61522
7051.49,0.60992
7045.71,0.61917
7039.92,0.61544
7034.13,0.61286
7028.35,0.61221
7022.56,0.60834
7016.78,0.60918
7010.99,0.61609
7005.2,0.60968
6999.42,0.60816
6993.63,0.60546
6987.84,0.60818
6982.06,0.60190
6976.27,0.60910
6970.49,0.60786
6964.7,0.60865
6958.91,0.61037
6953.13,0.61092
6947.34,0.61294
6941.55,0.61575
6935.77,0.61273
6929.98,0.61309
6924.2,0.62281
6918.41,0.61999
6912.62,0.61690
6906.84,0.61701
6901.05,0.62274
6895.26,0.62472
6889.48,0.62295
6883.69,0.62279
6877.91,0.62470
6872.12,0.62693
6866.33,0.62027
6860.55,0.62057
6854.76,0.62684
6848.97,0.62471
6843.19,0.62735
6837.4,0.62669
6831.62,0.62543
6825.83,0.62608
6820.04,0.62442
6814.26,0.62598
6808.47,0.62661
6802.68,0.62534
6796.9,0.62382
6791.11,0.62197
6785.33,0.61715
6779.54,0.61394
6773.75,0.61466
6767.97,0.61034
6762.18,0.60861
6756.39,0.60744
6750.61,0.61019
6744.82,0.60709
6739.04,0.60249
6733.25,0.60226
6727.46,0.60191
6721.68,0.59623
6715.89,0.59789
6710.1,0.59804
6704.32,0.59701
6698.53,0.59743
6692.75,0.59362
6686.96,0.59001
6681.17,0.58873
6675.39,0.58881
6669.6,0.58840
6663.82,0.58535
6658.03,0.59093
6652.24,0.59119
6646.46,0.59329
6640.67,0.58958
6634.88,0.58698
6629.1,0.58827
6623.31,0.58967
6617.53,0.59183
6611.74,0.60039
6605.95,0.59349
6600.17,0.59813
6594.38,0.59467
6588.59,0.59434
6582.81,0.60284
6577.02,0.60161
6571.24,0.60276
6565.45,0.60521
6559.66,0.60723
6553.88,0.60874
6548.09,0.61378
6542.3,0.61711
6536.52,0.62029
6530.73,0.61904
6524.95,0.62205
6519.16,0.61940
6513.37,0.62457
6507.59,0.62869
6501.8,0.63054
6496.01,0.63012
6490.23,0.63305
6484.44,0.63319
6478.66,0.63463
6472.87,0.63350
6467.08,0.63610
6461.3,0.63697
6455.51,0.63668
6449.72,0.63750
6443.94,0.63749
6438.15,0.63844
6432.37,0.64129
6426.58,0.64286
6420.79,0.64061
6415.01,0.64473
6409.22,0.64453
6403.43,0.64293
6397.65,0.64474
6391.86,0.64792
6386.08,0.64476
6380.29,0.64887
6374.5,0.64831
6368.72,0.64695
6362.93,0.65038
6357.14,0.64849
6351.36,0.64710
6345.57,0.64825
6339.79,0.64567
6334,0.65053
6328.21,0.64990
6322.43,0.65158
6316.64,0.64921
6310.85,0.65291
6305.07,0.65284
6299.28,0.65202
6293.5,0.64763
6287.71,0.64716
6281.92,0.64973
6276.14,0.65101
6270.35,0.65012
6264.56,0.65079
6258.78,0.64944
6252.99,0.64967
6247.21,0.64965
6241.42,0.65095
6235.63,0.65036
6229.85,0.64951
6224.06,0.64965
6218.27,0.65237
6212.49,0.64919
6206.7,0.64733
6200.92,0.64556
6195.13,0.64889
6189.34,0.64715
6183.56,0.63999
6177.77,0.64127
6171.98,0.64190
6166.2,0.64013
6160.41,0.63720
6154.63,0.63433
6148.84,0.62646
6143.05,0.62632
6137.27,0.62091
6131.48,0.61897
6125.7,0.61451
6119.91,0.61088
6114.12,0.60830
6108.34,0.60484
6102.55,0.59854
6096.76,0.59421
6090.98,0.58829
6085.19,0.58413
6079.41,0.58116
6073.62,0.57929
6067.83,0.57889
6062.05,0.57796
6056.26,0.57857
6050.47,0.57533
6044.69,0.57546
6038.9,0.57415
6033.12,0.56814
6027.33,0.56488
6021.54,0.55867
6015.76,0.55154
6009.97,0.54519
6004.18,0.53725
5998.4,0.53085
5992.61,0.52096
5986.83,0.51093
5981.04,0.49794
5975.25,0.48498
5969.47,0.46901
5963.68,0.45198
5957.89,0.44026
5952.11,0.42371
5946.32,0.41347
5940.54,0.41075
5934.75,0.41344
5928.96,0.41701
5923.18,0.41814
5917.39,0.41342
5911.6,0.40469
5905.82,0.39592
5900.03,0.39438
5894.25,0.40015
5888.46,0.40780
5882.67,0.41609
5876.89,0.42110
5871.1,0.42492
5865.31,0.42431
5859.53,0.42497
5853.74,0.42370
5847.96,0.42099
5842.17,0.41782
5836.38,0.41187
5830.6,0.40639
5824.81,0.40379
5819.02,0.39863
5813.24,0.39398
5807.45,0.39006
5801.67,0.38818
5795.88,0.38342
5790.09,0.37753
5784.31,0.37492
5778.52,0.37311
5772.73,0.37457
5766.95,0.37475
5761.16,0.38054
5755.38,0.38460
5749.59,0.39129
5743.8,0.39707
5738.02,0.40430
5732.23,0.40683
5726.44,0.41678
5720.66,0.42217
5714.87,0.42627
5709.09,0.43158
5703.3,0.43300
5697.51,0.43369
5691.73,0.43572
5685.94,0.43610
5680.15,0.43555
5674.37,0.43354
5668.58,0.43437
5662.8,0.43439
5657.01,0.43464
5651.22,0.43843
5645.44,0.44262
5639.65,0.44763
5633.87,0.45255
5628.08,0.45593
5622.29,0.45882
5616.51,0.46368
5610.72,0.46693
5604.93,0.46897
5599.15,0.46789
5593.36,0.46858
5587.58,0.46949
5581.79,0.46938
5576,0.47065
5570.22,0.46966
5564.43,0.46871
5558.64,0.46845
5552.86,0.46850
5547.07,0.46928
5541.29,0.46964
5535.5,0.46819
5529.71,0.47092
5523.93,0.47207
5518.14,0.47345
5512.35,0.47423
5506.57,0.47501
5500.78,0.47752
5495,0.47923
5489.21,0.48148
5483.42,0.48048
5477.64,0.48449
5471.85,0.48594
5466.06,0.48733
5460.28,0.48584
5454.49,0.48771
5448.71,0.48803
5442.92,0.49056
5437.13,0.49173
5431.35,0.49558
5425.56,0.49771
5419.77,0.50320
5413.99,0.50776
5408.2,0.51252
5402.42,0.51628
5396.63,0.51899
5390.84,0.52297
5385.06,0.52661
5379.27,0.52818
5373.48,0.52955
5367.7,0.52985
5361.91,0.53174
5356.13,0.53355
5350.34,0.53263
5344.55,0.53316
5338.77,0.53430
5332.98,0.53467
5327.19,0.53635
5321.41,0.53505
5315.62,0.53561
5309.84,0.53425
5304.05,0.53290
5298.26,0.53077
5292.48,0.52495
5286.69,0.51977
5280.9,0.51561
5275.12,0.50979
5269.33,0.50481
5263.55,0.50091
5257.76,0.49739
5251.97,0.49212
5246.19,0.49009
5240.4,0.48459
5234.61,0.48283
5228.83,0.48014
5223.04,0.47732
5217.26,0.47452
5211.47,0.47206
5205.68,0.47272
5199.9,0.47365
5194.11,0.47361
5188.32,0.47478
5182.54,0.47708
5176.75,0.47770
5170.97,0.47921
5165.18,0.48093
5159.39,0.48240
5153.61,0.48299
5147.82,0.48291
5142.03,0.48563
5136.25,0.48508
5130.46,0.48599
5124.68,0.48822
5118.89,0.48939
5113.1,0.49104
5107.32,0.49065
5101.53,0.49242
5095.75,0.49217
5089.96,0.49212
5084.17,0.49199
5078.39,0.49037
5072.6,0.48938
5066.81,0.48700
5061.03,0.48671
5055.24,0.48563
5049.46,0.48486
5043.67,0.48289
5037.88,0.48218
5032.1,0.47954
5026.31,0.47610
5020.52,0.47335
5014.74,0.47049
5008.95,0.46764
5003.17,0.46362
4997.38,0.45774
4991.59,0.45034
4985.81,0.44324
4980.02,0.43582
4974.23,0.42801
4968.45,0.42087
4962.66,0.41430
4956.88,0.40854
4951.09,0.40192
4945.3,0.39502
4939.52,0.38981
4933.73,0.38520
4927.94,0.38091
4922.16,0.37507
4916.37,0.36999
4910.59,0.36661
4904.8,0.36397
4899.01,0.36026
4893.23,0.35826
4887.44,0.35787
4881.65,0.35756
4875.87,0.35737
4870.08,0.35676
4864.3,0.35644
4858.51,0.35748
4852.72,0.35698
4846.94,0.35901
4841.15,0.36224
4835.36,0.36451
4829.58,0.36840
4823.79,0.37245
4818.01,0.37737
4812.22,0.38097
4806.43,0.38618
4800.65,0.39060
4794.86,0.39553
4789.07,0.39977
4783.29,0.40300
4777.5,0.40621
4771.72,0.40845
4765.93,0.41123
4760.14,0.41342
4754.36,0.41276
4748.57,0.41382
4742.78,0.41324
4737,0.41141
4731.21,0.40918
4725.43,0.40470
4719.64,0.39971
4713.85,0.39538
4708.07,0.39171
4702.28,0.38863
4696.49,0.38626
4690.71,0.38247
4684.92,0.38063
4679.14,0.37573
4673.35,0.37173
4667.56,0.36852
4661.78,0.36566
4655.99,0.36367
4650.2,0.35988
4644.42,0.35473
4638.63,0.34948
4632.85,0.34644
4627.06,0.34470
4621.27,0.34596
4615.49,0.34727
4609.7,0.34943
4603.92,0.35223
4598.13,0.35393
4592.34,0.35547
4586.56,0.35595
4580.77,0.35599
4574.98,0.35480
4569.2,0.35383
4563.41,0.35607
4557.63,0.35594
4551.84,0.35699
4546.05,0.35767
4540.27,0.35632
4534.48,0.35633
4528.69,0.35572
4522.91,0.35537
4517.12,0.35375
4511.34,0.35307
4505.55,0.35231
4499.76,0.35041
4493.98,0.34857
4488.19,0.34557
4482.4,0.34074
4476.62,0.33469
4470.83,0.32734
4465.05,0.31669
4459.26,0.30387
4453.47,0.28839
4447.69,0.27052
4441.9,0.25135
4436.11,0.23303
4430.33,0.21459
4424.54,0.19868
4418.76,0.18725
4412.97,0.18092
4407.18,0.18129
4401.4,0.18574
4395.61,0.18893
4389.82,0.18776
4384.04,0.18456
4378.25,0.17751
4372.47,0.17010
4366.68,0.16226
4360.89,0.15349
4355.11,0.14608
4349.32,0.13905
4343.53,0.13398
4337.75,0.13177
4331.96,0.13086
4326.18,0.13276
4320.39,0.13682
4314.6,0.14231
4308.82,0.15004
4303.03,0.15845
4297.24,0.16563
4291.46,0.16914
4285.67,0.17043
4279.89,0.17034
4274.1,0.17063
4268.31,0.17119
4262.53,0.17331
4256.74,0.17655
4250.95,0.17962
4245.17,0.18107
4239.38,0.18251
4233.6,0.18327
4227.81,0.18525
4222.02,0.18823
4216.24,0.19178
4210.45,0.19524
4204.66,0.19901
4198.88,0.20125
4193.09,0.20300
4187.31,0.20222
4181.52,0.20056
4175.73,0.20011
4169.95,0.19741
4164.16,0.19573
4158.37,0.19389
4152.59,0.19179
4146.8,0.19141
4141.02,0.19215
4135.23,0.19110
4129.44,0.19066
4123.66,0.18880
4117.87,0.18764
4112.09,0.18459
4106.3,0.18112
4100.51,0.17880
4094.73,0.17492
4088.94,0.17082
4083.15,0.16644
4077.37,0.16121
4071.58,0.15629
4065.8,0.15345
4060.01,0.14998
4054.22,0.14697
4048.44,0.14651
4042.65,0.14649
4036.86,0.14583
4031.08,0.14613
4025.29,0.14603
4019.51,0.14682
4013.72,0.14750
4007.93,0.14846
4002.15,0.15022
3996.36,0.15174
3990.57,0.15424
3984.79,0.15700
3979,0.16001
3973.22,0.16367
3967.43,0.16708
3961.64,0.17119
3955.86,0.17495
3950.07,0.18010
3944.28,0.18570
3938.5,0.19190
3932.71,0.19707
3926.93,0.20345
3921.14,0.20787
3915.35,0.21230
3909.57,0.21555
3903.78,0.21919
3897.99,0.22027
3892.21,0.22330
3886.42,0.22484
3880.64,0.22635
3874.85,0.22736
3869.06,0.22838
3863.28,0.22860
3857.49,0.22978
3851.7,0.22984
3845.92,0.23134
3840.13,0.23516
3834.35,0.23648
3828.56,0.23822
3822.77,0.24002
3816.99,0.24139
3811.2,0.24201
3805.41,0.24325
3799.63,0.24404
3793.84,0.24525
3788.06,0.24681
3782.27,0.25060
3776.48,0.25307
3770.7,0.25798
3764.91,0.26186
3759.12,0.26700
3753.34,0.27187
3747.55,0.27595
3741.77,0.27812
3735.98,0.28121
3730.19,0.28145
3724.41,0.28385
3718.62,0.28361
3712.83,0.28376
3707.05,0.28018
3701.26,0.27572
3695.48,0.26678
3689.69,0.25599
3683.9,0.24201
3678.12,0.23209
3672.33,0.21964
3666.54,0.20772
3660.76,0.19771
3654.97,0.18687
3649.19,0.17694
3643.4,0.16700
3637.61,0.15915
3631.83,0.15117
3626.04,0.14257
3620.25,0.13575
3614.47,0.12980
3608.68,0.12349
3602.9,0.11701
3597.11,0.11231
3591.32,0.10770
3585.54,0.10357
3579.75,0.10092
3573.97,0.09895
3568.18,0.09678
3562.39,0.09313
3556.61,0.09100
3550.82,0.08887
3545.03,0.08639
3539.25,0.08337
3533.46,0.08049
3527.68,0.07802
3521.89,0.07587
3516.1,0.07438
3510.32,0.07351
3504.53,0.07303
3498.74,0.07227
3492.96,0.07116
3487.17,0.07120
3481.39,0.07014
3475.6,0.06845
3469.81,0.06629
3464.03,0.06389
3458.24,0.06115
3452.45,0.06007
3446.67,0.05852
3440.88,0.05759
3435.1,0.05535
3429.31,0.05326
3423.52,0.05093
3417.74,0.04828
3411.95,0.04457
3406.16,0.04334
3400.38,0.04100
3394.59,0.03849
3388.81,0.03572
3383.02,0.03414
3377.23,0.03272
3371.45,0.03166
3365.66,0.03041
3359.87,0.03056
3354.09,0.02980
3348.3,0.02895
3342.52,0.02954
3336.73,0.02866
3330.94,0.02861
3325.16,0.02843
3319.37,0.02802
3313.58,0.02878
3307.8,0.02859
3302.01,0.02797
3296.23,0.02813
3290.44,0.02872
3284.65,0.02883
3278.87,0.02787
3273.08,0.02881
3267.29,0.02981
3261.51,0.03020
3255.72,0.03081
3249.94,0.03148
3244.15,0.03207
3238.36,0.03300
3232.58,0.03355
3226.79,0.03426
3221,0.03528
3215.22,0.03693
3209.43,0.03679
3203.65,0.03688
3197.86,0.03739
3192.07,0.03792
3186.29,0.03846
3180.5,0.04037
3174.71,0.04208
3168.93,0.04362
3163.14,0.04418
3157.36,0.04493
3151.57,0.04568
3145.78,0.04581
3140,0.04569
3134.21,0.04389
3128.42,0.04360
3122.64,0.04372
3116.85,0.04469
3111.07,0.04547
3105.28,0.04590
3099.49,0.04661
3093.71,0.04657
3087.92,0.04527
3082.14,0.04494
3076.35,0.04422
3070.56,0.04261
3064.78,0.04217
3058.99,0.04199
3053.2,0.04216
3047.42,0.04231
3041.63,0.04190
3035.85,0.04072
3030.06,0.04000
3024.27,0.04055
3018.49,0.04056
3012.7,0.03958
3006.91,0.03700
3001.13,0.03392
2995.34,0.03054
2989.56,0.02873
2983.77,0.02670
2977.98,0.02647
2972.2,0.02645
2966.41,0.02667
2960.62,0.02687
2954.84,0.02742
2949.05,0.02715
2943.27,0.02699
2937.48,0.02579
2931.69,0.02563
2925.91,0.02565
2920.12,0.02635
2914.33,0.02621
2908.55,0.02644
2902.76,0.02640
2896.98,0.02642
2891.19,0.02678
2885.4,0.02688
2879.62,0.02724
2873.83,0.02712
2868.04,0.02730
2862.26,0.02732
2856.47,0.02843
2850.69,0.02927
2844.9,0.03040
2839.11,0.03231
2833.33,0.03389
2827.54,0.03619
2821.75,0.03801
2815.97,0.03904
2810.18,0.04007
2804.4,0.04095
2798.61,0.04201
2792.82,0.04277
2787.04,0.04388
2781.25,0.04473
2775.46,0.04616
2769.68,0.04746
2763.89,0.04883
2758.11,0.05040
2752.32,0.05191
2746.53,0.05382
2740.75,0.05487
2734.96,0.05616
2729.17,0.05813
2723.39,0.06158
2717.6,0.06454
2711.82,0.06835
2706.03,0.07152
2700.24,0.07426
2694.46,0.07852
2688.67,0.08233
2682.88,0.08492
2677.1,0.08711
2671.31,0.08840
2665.53,0.09025
2659.74,0.09260
2653.95,0.09508
2648.17,0.09606
2642.38,0.09737
2636.59,0.09934
2630.81,0.10202
2625.02,0.10617
2619.24,0.10970
2613.45,0.11040
2607.66,0.10983
2601.88,0.10864
2596.09,0.10732
2590.3,0.10769
2584.52,0.10897
2578.73,0.11295
2572.95,0.11953
2567.16,0.12544
2561.37,0.13060
2555.59,0.13458
2549.8,0.13719
2544.02,0.13942
2538.23,0.14043
2532.44,0.14141
2526.66,0.14105
2520.87,0.14115
2515.08,0.14130
2509.3,0.14265
2503.51,0.14400
2497.73,0.14623
2491.94,0.14870
2486.15,0.15139
2480.37,0.15396
2474.58,0.15641
2468.79,0.15885
2463.01,0.16123
2457.22,0.16281
2451.44,0.16530
2445.65,0.16788
2439.86,0.17084
2434.08,0.17341
2428.29,0.17576
2422.5,0.17745
2416.72,0.17772
2410.93,0.17770
2405.15,0.17639
2399.36,0.17546
2393.57,0.17409
2387.79,0.17273
2382,0.17148
2376.21,0.17051
2370.43,0.17015
2364.64,0.17030
2358.86,0.16993
2353.07,0.16922
2347.28,0.16826
2341.5,0.16770
2335.71,0.16732
2329.92,0.16692
2324.14,0.16424
2318.35,0.15922
2312.57,0.15310
2306.78,0.14654
2300.99,0.13894
2295.21,0.13130
2289.42,0.12377
2283.63,0.11611
2277.85,0.10919
2272.06,0.10662
2266.28,0.10834
2260.49,0.11416
2254.7,0.11869
2248.92,0.12066
2243.13,0.11797
2237.34,0.11694
2231.56,0.12411
2225.77,0.13148
2219.99,0.13405
2214.2,0.13582
2208.41,0.13767
2202.63,0.13946
2196.84,0.14013
2191.05,0.14110
2185.27,0.14126
2179.48,0.14178
2173.7,0.14178
2167.91,0.14148
2162.12,0.14155
2156.34,0.14141
2150.55,0.14191
2144.76,0.14238
2138.98,0.14319
2133.19,0.14359
2127.41,0.14453
2121.62,0.14609
2115.83,0.14641
2110.05,0.14655
2104.26,0.14594
2098.47,0.14503
2092.69,0.14386
2086.9,0.14235
2081.12,0.14104
2075.33,0.14012
2069.54,0.13945
2063.76,0.13878
2057.97,0.13820
2052.19,0.13682
2046.4,0.13475
2040.61,0.13174
2034.83,0.12889
2029.04,0.12589
2023.25,0.12394
2017.47,0.12286
2011.68,0.12267
2005.9,0.12277
2000.11,0.12294
1994.32,0.12325
1988.54,0.12286
1982.75,0.12268
1976.96,0.12208
1971.18,0.12205
1965.39,0.12104
1959.61,0.12016
1953.82,0.11980
1948.03,0.11998
1942.25,0.12052
1936.46,0.12063
1930.67,0.11981
1924.89,0.11901
1919.1,0.11743
1913.32,0.11617
1907.53,0.11564
1901.74,0.11626
1895.96,0.11739
1890.17,0.11961
1884.38,0.12149
1878.6,0.12347
1872.81,0.12531
1867.03,0.12728
1861.24,0.12786
1855.45,0.12736
1849.67,0.12546
1843.88,0.12304
1838.09,0.11917
1832.31,0.11552
1826.52,0.11114
1820.74,0.10640
1814.95,0.10215
1809.16,0.09652
1803.38,0.08981
1797.59,0.08388
1791.8,0.08031
1786.02,0.07797
1780.23,0.07499
1774.45,0.07189
1768.66,0.06624
1762.87,0.05951
1757.09,0.04903
1751.3,0.03797
1745.51,0.02909
1739.73,0.02510
1733.94,0.02438
1728.16,0.02460
1722.37,0.02526
1716.58,0.02567
1710.8,0.02617
1705.01,0.02641
1699.22,0.02689
1693.44,0.02705
1687.65,0.02695
1681.87,0.02667
1676.08,0.02671
1670.29,0.02648
1664.51,0.02666
1658.72,0.02665
1652.93,0.02662
1647.15,0.02733
1641.36,0.02721
1635.58,0.02797
1629.79,0.02818
1624,0.02724
1618.22,0.02581
1612.43,0.02479
1606.64,0.02417
1600.86,0.02471
1595.07,0.02593
1589.29,0.02592
1583.5,0.02747
1577.71,0.02890
1571.93,0.02803
1566.14,0.02630
1560.35,0.02513
1554.57,0.02392
1548.78,0.02356
1543,0.02466
1537.21,0.02481
1531.42,0.02642
1525.64,0.02701
1519.85,0.02696
1514.07,0.02725
1508.28,0.02863
1502.49,0.02916
1496.71,0.02982
1490.92,0.02982
1485.13,0.02929
1479.35,0.02848
1473.56,0.02811
1467.78,0.02747
1461.99,0.02725
1456.2,0.02657
1450.42,0.02726
1444.63,0.02824
1438.84,0.02909
1433.06,0.02990
1427.27,0.03013
1421.49,0.02908
1415.7,0.02714
1409.91,0.02759
1404.13,0.02867
1398.34,0.02921
1392.55,0.02847
1386.77,0.02741
1380.98,0.02614
1375.2,0.02588
1369.41,0.02738
1363.62,0.02879
1357.84,0.02883
1352.05,0.02794
1346.26,0.02723
1340.48,0.02719
1334.69,0.02768
1328.91,0.02726
1323.12,0.02577
1317.33,0.02528
1311.55,0.02515
1305.76,0.02528
1299.97,0.02582
1294.19,0.02620
1288.4,0.02614
1282.62,0.02611
1276.83,0.02563
1271.04,0.02523
1265.26,0.02493
1259.47,0.02501
1253.68,0.02458
1247.9,0.02408
1242.11,0.02377
1236.33,0.02403
1230.54,0.02431
1224.75,0.02551
1218.97,0.02625
1213.18,0.02673
1207.39,0.02688
1201.61,0.02681
1195.82,0.02685
1190.04,0.02638
1184.25,0.02566
1178.46,0.02477
1172.68,0.02383
1166.89,0.02300
1161.1,0.02326
1155.32,0.02310
1149.53,0.02240
1143.75,0.02282
1137.96,0.02303
1132.17,0.02275
1126.39,0.02359
1120.6,0.02460
1114.81,0.02584
1109.03,0.02710
1103.24,0.02849
1097.46,0.02890
1091.67,0.02977
1085.88,0.03064
1080.1,0.03092
1074.31,0.03193
1068.52,0.03205
1062.74,0.03264
1056.95,0.03177
1051.17,0.03267
1045.38,0.03247
1039.59,0.03350
1033.81,0.03345
1028.02,0.03356
1022.24,0.03267
1016.45,0.03194
1010.66,0.03337
1004.88,0.03406
999.09,0.03537
993.304,0.03781
987.518,0.04069
981.731,0.04160
975.945,0.04153
970.159,0.04000
964.373,0.04017
958.586,0.04017
952.8,0.04082
947.014,0.03887
941.228,0.03624
935.441,0.03470
929.655,0.03484
923.869,0.03558
918.083,0.03613
912.297,0.03651
906.51,0.03799
900.724,0.04037
894.938,0.04207
889.152,0.04242
883.365,0.04071
877.579,0.04002
871.793,0.03755
866.007,0.03729
860.22,0.03731
854.434,0.03780
848.648,0.03751
842.862,0.03790
837.075,0.03715
831.289,0.03632
825.503,0.03406
819.717,0.03394
813.931,0.03390
808.144,0.03592
802.358,0.03946
796.572,0.04011
790.786,0.04043
784.999,0.03981
779.213,0.03872
773.427,0.03732
767.641,0.03585
761.854,0.03588
756.068,0.03674
750.282,0.03812
744.496,0.04098
738.709,0.04180
732.923,0.04129
727.137,0.04175
721.351,0.04071
715.565,0.03846
709.778,0.03579
703.992,0.03541
698.206,0.03653
692.42,0.03767
686.633,0.03538
680.847,0.03539
675.061,0.03419
669.275,0.03402
663.488,0.03557
657.702,0.03551
651.916,0.03594
646.13,0.03653
640.343,0.03653
634.557,0.03679
628.771,0.03837
622.985,0.03951
617.198,0.03773
611.412,0.03555
605.626,0.03600
599.84,0.03676