File: 01_Data/Memory_Foam_Carpet_Pad/FTIR/IS/Memory_Foam_Carpet_Pad_IS_S_221003_R3.dpt
7497.03,0.71635
7491.25,0.71729
7485.46,0.71578
7479.67,0.71503
7473.89,0.71767
7468.1,0.70767
7462.32,0.71413
7456.53,0.70886
7450.74,0.70820
7444.96,0.70920
7439.17,0.70999
7433.38,0.70413
7427.6,0.69861
7421.81,0.69454
7416.03,0.70400
7410.24,0.68727
7404.45,0.68504
7398.67,0.68105
7392.88,0.68551
7387.09,0.67376
7381.31,0.66671
7375.52,0.66923
7369.74,0.66864
7363.95,0.66995
7358.16,0.65908
7352.38,0.66892
7346.59,0.66539
7340.8,0.66116
7335.02,0.66112
7329.23,0.65390
7323.45,0.65964
7317.66,0.65242
7311.87,0.65437
7306.09,0.64465
7300.3,0.64861
7294.51,0.64901
7288.73,0.63497
7282.94,0.63256
7277.16,0.62349
7271.37,0.63343
7265.58,0.62928
7259.8,0.62289
7254.01,0.61929
7248.22,0.61122
7242.44,0.61460
7236.65,0.62251
7230.87,0.61359
7225.08,0.62239
7219.29,0.61887
7213.51,0.60320
7207.72,0.60492
7201.93,0.60097
7196.15,0.61031
7190.36,0.61329
7184.58,0.60782
7178.79,0.60776
7173,0.61553
7167.22,0.61032
7161.43,0.61167
7155.65,0.61471
7149.86,0.62052
7144.07,0.61682
7138.29,0.61396
7132.5,0.61237
7126.71,0.61176
7120.93,0.61688
7115.14,0.62394
7109.36,0.62340
7103.57,0.61549
7097.78,0.61877
7092,0.62368
7086.21,0.61939
7080.42,0.61767
7074.64,0.61427
7068.85,0.61529
7063.07,0.61911
7057.28,0.62496
7051.49,0.62719
7045.71,0.62693
7039.92,0.62477
7034.13,0.62223
7028.35,0.62064
7022.56,0.62381
7016.78,0.62630
7010.99,0.62262
7005.2,0.61621
6999.42,0.61471
6993.63,0.61086
6987.84,0.61884
6982.06,0.61402
6976.27,0.61115
6970.49,0.60891
6964.7,0.62062
6958.91,0.62210
6953.13,0.62043
6947.34,0.62196
6941.55,0.62497
6935.77,0.62351
6929.98,0.62315
6924.2,0.63004
6918.41,0.62430
6912.62,0.62634
6906.84,0.63125
6901.05,0.62787
6895.26,0.63282
6889.48,0.62925
6883.69,0.63122
6877.91,0.63130
6872.12,0.63502
6866.33,0.63223
6860.55,0.62715
6854.76,0.63746
6848.97,0.63151
6843.19,0.63040
6837.4,0.63579
6831.62,0.63384
6825.83,0.63573
6820.04,0.63622
6814.26,0.63376
6808.47,0.63138
6802.68,0.62275
6796.9,0.61972
6791.11,0.62441
6785.33,0.62752
6779.54,0.61878
6773.75,0.61981
6767.97,0.61444
6762.18,0.61726
6756.39,0.61224
6750.61,0.60973
6744.82,0.60570
6739.04,0.60928
6733.25,0.60865
6727.46,0.60131
6721.68,0.60626
6715.89,0.60349
6710.1,0.59585
6704.32,0.60084
6698.53,0.59630
6692.75,0.59522
6686.96,0.59161
6681.17,0.59533
6675.39,0.59581
6669.6,0.59137
6663.82,0.59037
6658.03,0.59644
6652.24,0.59431
6646.46,0.58986
6640.67,0.59141
6634.88,0.59133
6629.1,0.59431
6623.31,0.59792
6617.53,0.59474
6611.74,0.59853
6605.95,0.60026
6600.17,0.59582
6594.38,0.60173
6588.59,0.60043
6582.81,0.60166
6577.02,0.60025
6571.24,0.60679
6565.45,0.60430
6559.66,0.60688
6553.88,0.61099
6548.09,0.61203
6542.3,0.61116
6536.52,0.61816
6530.73,0.62182
6524.95,0.62172
6519.16,0.62550
6513.37,0.62982
6507.59,0.62930
6501.8,0.63098
6496.01,0.63297
6490.23,0.63691
6484.44,0.63289
6478.66,0.63294
6472.87,0.64091
6467.08,0.63732
6461.3,0.64056
6455.51,0.64271
6449.72,0.64603
6443.94,0.64180
6438.15,0.64630
6432.37,0.64681
6426.58,0.64822
6420.79,0.64277
6415.01,0.64595
6409.22,0.64631
6403.43,0.64864
6397.65,0.65328
6391.86,0.65114
6386.08,0.64682
6380.29,0.65015
6374.5,0.65104
6368.72,0.65160
6362.93,0.65135
6357.14,0.64890
6351.36,0.65017
6345.57,0.65028
6339.79,0.65662
6334,0.64786
6328.21,0.65083
6322.43,0.65111
6316.64,0.65384
6310.85,0.65159
6305.07,0.65148
6299.28,0.65097
6293.5,0.64906
6287.71,0.65088
6281.92,0.64755
6276.14,0.64917
6270.35,0.65036
6264.56,0.64981
6258.78,0.65044
6252.99,0.65107
6247.21,0.65595
6241.42,0.65656
6235.63,0.65131
6229.85,0.65364
6224.06,0.64832
6218.27,0.64834
6212.49,0.65032
6206.7,0.64745
6200.92,0.64789
6195.13,0.64660
6189.34,0.64513
6183.56,0.64499
6177.77,0.64342
6171.98,0.64077
6166.2,0.63959
6160.41,0.63866
6154.63,0.63182
6148.84,0.63170
6143.05,0.63105
6137.27,0.62665
6131.48,0.62253
6125.7,0.61728
6119.91,0.61471
6114.12,0.60916
6108.34,0.60425
6102.55,0.59759
6096.76,0.59401
6090.98,0.59180
6085.19,0.58516
6079.41,0.58037
6073.62,0.58016
6067.83,0.57815
6062.05,0.57730
6056.26,0.57669
6050.47,0.57681
6044.69,0.57355
6038.9,0.57244
6033.12,0.56818
6027.33,0.56458
6021.54,0.55833
6015.76,0.55203
6009.97,0.54882
6004.18,0.54107
5998.4,0.53066
5992.61,0.52274
5986.83,0.51140
5981.04,0.49857
5975.25,0.48730
5969.47,0.46978
5963.68,0.45392
5957.89,0.43867
5952.11,0.42436
5946.32,0.41475
5940.54,0.41105
5934.75,0.41113
5928.96,0.41720
5923.18,0.41816
5917.39,0.41480
5911.6,0.40405
5905.82,0.39612
5900.03,0.39499
5894.25,0.39963
5888.46,0.40871
5882.67,0.41781
5876.89,0.42452
5871.1,0.42769
5865.31,0.42669
5859.53,0.42518
5853.74,0.42349
5847.96,0.42153
5842.17,0.41809
5836.38,0.41218
5830.6,0.40771
5824.81,0.40356
5819.02,0.39964
5813.24,0.39367
5807.45,0.38790
5801.67,0.38689
5795.88,0.38248
5790.09,0.38023
5784.31,0.37678
5778.52,0.37585
5772.73,0.37414
5766.95,0.37467
5761.16,0.38271
5755.38,0.38652
5749.59,0.39204
5743.8,0.39641
5738.02,0.40241
5732.23,0.41019
5726.44,0.41389
5720.66,0.41884
5714.87,0.42552
5709.09,0.42890
5703.3,0.43422
5697.51,0.43467
5691.73,0.43785
5685.94,0.43564
5680.15,0.43513
5674.37,0.43353
5668.58,0.43331
5662.8,0.43489
5657.01,0.43583
5651.22,0.43991
5645.44,0.44433
5639.65,0.44920
5633.87,0.45402
5628.08,0.45826
5622.29,0.46180
5616.51,0.46593
5610.72,0.46793
5604.93,0.46849
5599.15,0.47017
5593.36,0.47032
5587.58,0.46931
5581.79,0.47032
5576,0.47094
5570.22,0.47035
5564.43,0.46942
5558.64,0.47131
5552.86,0.47100
5547.07,0.46966
5541.29,0.47154
5535.5,0.47160
5529.71,0.47189
5523.93,0.47276
5518.14,0.47494
5512.35,0.47581
5506.57,0.47820
5500.78,0.47825
5495,0.48144
5489.21,0.48246
5483.42,0.48579
5477.64,0.48391
5471.85,0.48637
5466.06,0.48683
5460.28,0.48636
5454.49,0.48838
5448.71,0.48796
5442.92,0.48992
5437.13,0.49288
5431.35,0.49550
5425.56,0.49852
5419.77,0.50342
5413.99,0.50831
5408.2,0.51280
5402.42,0.51850
5396.63,0.52198
5390.84,0.52513
5385.06,0.52692
5379.27,0.52938
5373.48,0.53132
5367.7,0.53057
5361.91,0.53515
5356.13,0.53566
5350.34,0.53608
5344.55,0.53599
5338.77,0.53739
5332.98,0.53727
5327.19,0.53900
5321.41,0.54127
5315.62,0.54002
5309.84,0.54004
5304.05,0.53898
5298.26,0.53884
5292.48,0.53565
5286.69,0.53235
5280.9,0.52842
5275.12,0.52618
5269.33,0.52415
5263.55,0.52099
5257.76,0.51612
5251.97,0.51441
5246.19,0.51177
5240.4,0.50815
5234.61,0.50791
5228.83,0.50523
5223.04,0.50317
5217.26,0.50187
5211.47,0.50124
5205.68,0.49936
5199.9,0.49948
5194.11,0.50070
5188.32,0.50181
5182.54,0.50440
5176.75,0.50495
5170.97,0.50381
5165.18,0.50666
5159.39,0.50664
5153.61,0.50543
5147.82,0.50540
5142.03,0.50590
5136.25,0.50724
5130.46,0.50868
5124.68,0.50825
5118.89,0.50766
5113.1,0.50909
5107.32,0.50823
5101.53,0.50727
5095.75,0.50737
5089.96,0.50587
5084.17,0.50362
5078.39,0.50108
5072.6,0.50026
5066.81,0.49775
5061.03,0.49619
5055.24,0.49601
5049.46,0.49426
5043.67,0.49077
5037.88,0.48806
5032.1,0.48540
5026.31,0.48289
5020.52,0.47837
5014.74,0.47660
5008.95,0.47229
5003.17,0.46576
4997.38,0.45999
4991.59,0.45242
4985.81,0.44442
4980.02,0.43673
4974.23,0.43042
4968.45,0.42295
4962.66,0.41671
4956.88,0.40887
4951.09,0.40324
4945.3,0.39748
4939.52,0.39171
4933.73,0.38601
4927.94,0.38190
4922.16,0.37712
4916.37,0.37194
4910.59,0.36761
4904.8,0.36491
4899.01,0.36232
4893.23,0.35970
4887.44,0.35991
4881.65,0.35918
4875.87,0.35813
4870.08,0.35763
4864.3,0.35698
4858.51,0.35802
4852.72,0.35894
4846.94,0.36025
4841.15,0.36369
4835.36,0.36651
4829.58,0.36896
4823.79,0.37325
4818.01,0.37954
4812.22,0.38368
4806.43,0.38786
4800.65,0.39358
4794.86,0.39639
4789.07,0.40152
4783.29,0.40528
4777.5,0.40825
4771.72,0.41057
4765.93,0.41268
4760.14,0.41449
4754.36,0.41532
4748.57,0.41586
4742.78,0.41391
4737,0.41332
4731.21,0.41083
4725.43,0.40696
4719.64,0.40184
4713.85,0.39663
4708.07,0.39243
4702.28,0.39069
4696.49,0.38722
4690.71,0.38529
4684.92,0.38087
4679.14,0.37706
4673.35,0.37246
4667.56,0.36852
4661.78,0.36599
4655.99,0.36321
4650.2,0.36075
4644.42,0.35633
4638.63,0.35166
4632.85,0.34774
4627.06,0.34567
4621.27,0.34763
4615.49,0.34961
4609.7,0.35090
4603.92,0.35385
4598.13,0.35534
4592.34,0.35763
4586.56,0.35743
4580.77,0.35662
4574.98,0.35579
4569.2,0.35691
4563.41,0.35752
4557.63,0.35716
4551.84,0.35912
4546.05,0.35947
4540.27,0.35905
4534.48,0.35869
4528.69,0.35739
4522.91,0.35644
4517.12,0.35482
4511.34,0.35405
4505.55,0.35274
4499.76,0.35236
4493.98,0.35073
4488.19,0.34772
4482.4,0.34176
4476.62,0.33588
4470.83,0.32746
4465.05,0.31795
4459.26,0.30532
4453.47,0.28984
4447.69,0.27226
4441.9,0.25278
4436.11,0.23277
4430.33,0.21487
4424.54,0.19933
4418.76,0.18732
4412.97,0.18146
4407.18,0.18206
4401.4,0.18638
4395.61,0.18928
4389.82,0.18917
4384.04,0.18436
4378.25,0.17769
4372.47,0.17026
4366.68,0.16335
4360.89,0.15403
4355.11,0.14637
4349.32,0.13990
4343.53,0.13451
4337.75,0.13189
4331.96,0.13062
4326.18,0.13293
4320.39,0.13717
4314.6,0.14285
4308.82,0.15065
4303.03,0.15868
4297.24,0.16515
4291.46,0.17010
4285.67,0.17120
4279.89,0.17146
4274.1,0.17068
4268.31,0.17150
4262.53,0.17494
4256.74,0.17765
4250.95,0.17985
4245.17,0.18189
4239.38,0.18263
4233.6,0.18431
4227.81,0.18578
4222.02,0.18889
4216.24,0.19213
4210.45,0.19529
4204.66,0.19903
4198.88,0.20219
4193.09,0.20294
4187.31,0.20297
4181.52,0.20266
4175.73,0.20110
4169.95,0.19885
4164.16,0.19618
4158.37,0.19481
4152.59,0.19350
4146.8,0.19273
4141.02,0.19256
4135.23,0.19237
4129.44,0.19122
4123.66,0.19019
4117.87,0.18768
4112.09,0.18534
4106.3,0.18292
4100.51,0.17934
4094.73,0.17547
4088.94,0.17145
4083.15,0.16666
4077.37,0.16235
4071.58,0.15792
4065.8,0.15327
4060.01,0.15010
4054.22,0.14828
4048.44,0.14706
4042.65,0.14678
4036.86,0.14639
4031.08,0.14617
4025.29,0.14695
4019.51,0.14798
4013.72,0.14900
4007.93,0.15016
4002.15,0.15119
3996.36,0.15248
3990.57,0.15508
3984.79,0.15821
3979,0.16132
3973.22,0.16502
3967.43,0.16830
3961.64,0.17241
3955.86,0.17707
3950.07,0.18185
3944.28,0.18688
3938.5,0.19292
3932.71,0.19844
3926.93,0.20370
3921.14,0.20880
3915.35,0.21386
3909.57,0.21790
3903.78,0.22107
3897.99,0.22248
3892.21,0.22512
3886.42,0.22643
3880.64,0.22859
3874.85,0.22998
3869.06,0.23072
3863.28,0.23069
3857.49,0.23124
3851.7,0.23189
3845.92,0.23476
3840.13,0.23656
3834.35,0.23832
3828.56,0.24044
3822.77,0.24312
3816.99,0.24392
3811.2,0.24492
3805.41,0.24662
3799.63,0.24674
3793.84,0.24857
3788.06,0.25057
3782.27,0.25449
3776.48,0.25764
3770.7,0.26163
3764.91,0.26635
3759.12,0.27225
3753.34,0.27714
3747.55,0.28152
3741.77,0.28484
3735.98,0.28858
3730.19,0.28998
3724.41,0.29240
3718.62,0.29434
3712.83,0.29494
3707.05,0.29388
3701.26,0.29138
3695.48,0.28702
3689.69,0.28163
3683.9,0.27341
3678.12,0.26548
3672.33,0.25677
3666.54,0.24750
3660.76,0.23986
3654.97,0.23092
3649.19,0.22168
3643.4,0.21290
3637.61,0.20551
3631.83,0.19753
3626.04,0.18913
3620.25,0.18197
3614.47,0.17493
3608.68,0.16746
3602.9,0.16064
3597.11,0.15409
3591.32,0.14786
3585.54,0.14311
3579.75,0.13826
3573.97,0.13421
3568.18,0.13168
3562.39,0.12748
3556.61,0.12409
3550.82,0.11992
3545.03,0.11654
3539.25,0.11194
3533.46,0.10743
3527.68,0.10372
3521.89,0.10064
3516.1,0.09837
3510.32,0.09551
3504.53,0.09402
3498.74,0.09227
3492.96,0.09070
3487.17,0.08892
3481.39,0.08666
3475.6,0.08375
3469.81,0.08027
3464.03,0.07385
3458.24,0.07017
3452.45,0.06781
3446.67,0.06642
3440.88,0.06501
3435.1,0.06202
3429.31,0.05877
3423.52,0.05511
3417.74,0.05016
3411.95,0.04725
3406.16,0.04446
3400.38,0.04138
3394.59,0.03924
3388.81,0.03661
3383.02,0.03418
3377.23,0.03299
3371.45,0.03227
3365.66,0.03132
3359.87,0.03042
3354.09,0.02972
3348.3,0.02957
3342.52,0.02916
3336.73,0.02916
3330.94,0.02875
3325.16,0.02868
3319.37,0.02840
3313.58,0.02834
3307.8,0.02831
3302.01,0.02835
3296.23,0.02855
3290.44,0.02844
3284.65,0.02857
3278.87,0.02828
3273.08,0.02898
3267.29,0.02982
3261.51,0.03033
3255.72,0.03070
3249.94,0.03120
3244.15,0.03243
3238.36,0.03311
3232.58,0.03420
3226.79,0.03580
3221,0.03612
3215.22,0.03691
3209.43,0.03669
3203.65,0.03744
3197.86,0.03742
3192.07,0.03779
3186.29,0.03974
3180.5,0.04125
3174.71,0.04264
3168.93,0.04432
3163.14,0.04545
3157.36,0.04598
3151.57,0.04688
3145.78,0.04624
3140,0.04599
3134.21,0.04458
3128.42,0.04479
3122.64,0.04430
3116.85,0.04553
3111.07,0.04596
3105.28,0.04699
3099.49,0.04757
3093.71,0.04721
3087.92,0.04685
3082.14,0.04574
3076.35,0.04429
3070.56,0.04416
3064.78,0.04278
3058.99,0.04266
3053.2,0.04315
3047.42,0.04296
3041.63,0.04180
3035.85,0.04116
3030.06,0.04013
3024.27,0.04062
3018.49,0.04105
3012.7,0.04052
3006.91,0.03745
3001.13,0.03373
2995.34,0.03098
2989.56,0.02850
2983.77,0.02691
2977.98,0.02625
2972.2,0.02618
2966.41,0.02664
2960.62,0.02700
2954.84,0.02710
2949.05,0.02652
2943.27,0.02648
2937.48,0.02621
2931.69,0.02550
2925.91,0.02570
2920.12,0.02584
2914.33,0.02653
2908.55,0.02664
2902.76,0.02671
2896.98,0.02629
2891.19,0.02651
2885.4,0.02714
2879.62,0.02659
2873.83,0.02738
2868.04,0.02736
2862.26,0.02764
2856.47,0.02757
2850.69,0.02867
2844.9,0.03058
2839.11,0.03235
2833.33,0.03458
2827.54,0.03674
2821.75,0.03834
2815.97,0.03937
2810.18,0.03981
2804.4,0.04114
2798.61,0.04206
2792.82,0.04294
2787.04,0.04347
2781.25,0.04468
2775.46,0.04612
2769.68,0.04764
2763.89,0.04912
2758.11,0.05053
2752.32,0.05215
2746.53,0.05356
2740.75,0.05463
2734.96,0.05601
2729.17,0.05842
2723.39,0.06114
2717.6,0.06483
2711.82,0.06823
2706.03,0.07148
2700.24,0.07490
2694.46,0.07831
2688.67,0.08223
2682.88,0.08519
2677.1,0.08670
2671.31,0.08871
2665.53,0.09015
2659.74,0.09274
2653.95,0.09566
2648.17,0.09618
2642.38,0.09726
2636.59,0.09932
2630.81,0.10269
2625.02,0.10636
2619.24,0.10973
2613.45,0.11065
2607.66,0.11022
2601.88,0.10891
2596.09,0.10772
2590.3,0.10800
2584.52,0.10958
2578.73,0.11348
2572.95,0.11937
2567.16,0.12560
2561.37,0.13123
2555.59,0.13466
2549.8,0.13747
2544.02,0.13983
2538.23,0.14144
2532.44,0.14159
2526.66,0.14156
2520.87,0.14220
2515.08,0.14212
2509.3,0.14266
2503.51,0.14431
2497.73,0.14649
2491.94,0.14913
2486.15,0.15180
2480.37,0.15458
2474.58,0.15698
2468.79,0.15944
2463.01,0.16138
2457.22,0.16347
2451.44,0.16567
2445.65,0.16843
2439.86,0.17181
2434.08,0.17426
2428.29,0.17624
2422.5,0.17810
2416.72,0.17910
2410.93,0.17867
2405.15,0.17709
2399.36,0.17627
2393.57,0.17495
2387.79,0.17320
2382,0.17222
2376.21,0.17136
2370.43,0.17059
2364.64,0.17023
2358.86,0.16999
2353.07,0.16925
2347.28,0.16870
2341.5,0.16768
2335.71,0.16718
2329.92,0.16712
2324.14,0.16490
2318.35,0.15997
2312.57,0.15372
2306.78,0.14726
2300.99,0.13948
2295.21,0.13214
2289.42,0.12431
2283.63,0.11687
2277.85,0.11008
2272.06,0.10680
2266.28,0.10912
2260.49,0.11445
2254.7,0.11957
2248.92,0.12115
2243.13,0.11850
2237.34,0.11734
2231.56,0.12473
2225.77,0.13192
2219.99,0.13532
2214.2,0.13739
2208.41,0.13894
2202.63,0.14061
2196.84,0.14166
2191.05,0.14222
2185.27,0.14284
2179.48,0.14312
2173.7,0.14344
2167.91,0.14273
2162.12,0.14262
2156.34,0.14272
2150.55,0.14323
2144.76,0.14439
2138.98,0.14496
2133.19,0.14531
2127.41,0.14664
2121.62,0.14804
2115.83,0.14876
2110.05,0.14886
2104.26,0.14834
2098.47,0.14711
2092.69,0.14600
2086.9,0.14454
2081.12,0.14312
2075.33,0.14217
2069.54,0.14132
2063.76,0.14087
2057.97,0.14008
2052.19,0.13876
2046.4,0.13645
2040.61,0.13369
2034.83,0.13059
2029.04,0.12783
2023.25,0.12572
2017.47,0.12443
2011.68,0.12390
2005.9,0.12414
2000.11,0.12407
1994.32,0.12456
1988.54,0.12467
1982.75,0.12450
1976.96,0.12377
1971.18,0.12291
1965.39,0.12208
1959.61,0.12135
1953.82,0.12110
1948.03,0.12130
1942.25,0.12159
1936.46,0.12147
1930.67,0.12080
1924.89,0.11928
1919.1,0.11785
1913.32,0.11723
1907.53,0.11683
1901.74,0.11682
1895.96,0.11806
1890.17,0.12012
1884.38,0.12211
1878.6,0.12391
1872.81,0.12612
1867.03,0.12801
1861.24,0.12892
1855.45,0.12812
1849.67,0.12641
1843.88,0.12355
1838.09,0.11976
1832.31,0.11604
1826.52,0.11125
1820.74,0.10691
1814.95,0.10231
1809.16,0.09679
1803.38,0.09018
1797.59,0.08423
1791.8,0.08059
1786.02,0.07828
1780.23,0.07518
1774.45,0.07198
1768.66,0.06611
1762.87,0.05915
1757.09,0.04883
1751.3,0.03795
1745.51,0.02925
1739.73,0.02497
1733.94,0.02409
1728.16,0.02483
1722.37,0.02522
1716.58,0.02618
1710.8,0.02632
1705.01,0.02665
1699.22,0.02675
1693.44,0.02704
1687.65,0.02696
1681.87,0.02689
1676.08,0.02664
1670.29,0.02698
1664.51,0.02651
1658.72,0.02701
1652.93,0.02749
1647.15,0.02751
1641.36,0.02750
1635.58,0.02841
1629.79,0.02853
1624,0.02752
1618.22,0.02613
1612.43,0.02511
1606.64,0.02421
1600.86,0.02477
1595.07,0.02561
1589.29,0.02636
1583.5,0.02804
1577.71,0.02919
1571.93,0.02812
1566.14,0.02617
1560.35,0.02502
1554.57,0.02393
1548.78,0.02333
1543,0.02422
1537.21,0.02508
1531.42,0.02618
1525.64,0.02672
1519.85,0.02729
1514.07,0.02733
1508.28,0.02827
1502.49,0.02899
1496.71,0.02978
1490.92,0.02952
1485.13,0.02948
1479.35,0.02853
1473.56,0.02764
1467.78,0.02732
1461.99,0.02715
1456.2,0.02720
1450.42,0.02725
1444.63,0.02795
1438.84,0.02898
1433.06,0.03036
1427.27,0.03027
1421.49,0.02942
1415.7,0.02733
1409.91,0.02758
1404.13,0.02835
1398.34,0.02880
1392.55,0.02832
1386.77,0.02737
1380.98,0.02596
1375.2,0.02563
1369.41,0.02708
1363.62,0.02867
1357.84,0.02900
1352.05,0.02798
1346.26,0.02745
1340.48,0.02750
1334.69,0.02747
1328.91,0.02724
1323.12,0.02639
1317.33,0.02524
1311.55,0.02519
1305.76,0.02516
1299.97,0.02559
1294.19,0.02610
1288.4,0.02642
1282.62,0.02576
1276.83,0.02581
1271.04,0.02545
1265.26,0.02557
1259.47,0.02499
1253.68,0.02456
1247.9,0.02387
1242.11,0.02375
1236.33,0.02371
1230.54,0.02441
1224.75,0.02582
1218.97,0.02661
1213.18,0.02687
1207.39,0.02668
1201.61,0.02633
1195.82,0.02645
1190.04,0.02648
1184.25,0.02567
1178.46,0.02496
1172.68,0.02416
1166.89,0.02362
1161.1,0.02356
1155.32,0.02245
1149.53,0.02273
1143.75,0.02293
1137.96,0.02288
1132.17,0.02305
1126.39,0.02369
1120.6,0.02462
1114.81,0.02564
1109.03,0.02749
1103.24,0.02890
1097.46,0.02892
1091.67,0.03006
1085.88,0.03071
1080.1,0.03094
1074.31,0.03172
1068.52,0.03215
1062.74,0.03248
1056.95,0.03213
1051.17,0.03272
1045.38,0.03211
1039.59,0.03287
1033.81,0.03314
1028.02,0.03421
1022.24,0.03260
1016.45,0.03254
1010.66,0.03356
1004.88,0.03494
999.09,0.03528
993.304,0.03834
987.518,0.04056
981.731,0.04163
975.945,0.04155
970.159,0.04036
964.373,0.04054
958.586,0.04044
952.8,0.04056
947.014,0.03864
941.228,0.03610
935.441,0.03513
929.655,0.03470
923.869,0.03486
918.083,0.03634
912.297,0.03718
906.51,0.03847
900.724,0.04040
894.938,0.04246
889.152,0.04355
883.365,0.04094
877.579,0.03958
871.793,0.03859
866.007,0.03774
860.22,0.03761
854.434,0.03754
848.648,0.03815
842.862,0.03791
837.075,0.03688
831.289,0.03590
825.503,0.03477
819.717,0.03363
813.931,0.03412
808.144,0.03669
802.358,0.03895
796.572,0.04005
790.786,0.04119
784.999,0.04053
779.213,0.03909
773.427,0.03715
767.641,0.03599
761.854,0.03625
756.068,0.03607
750.282,0.03867
744.496,0.04108
738.709,0.04247
732.923,0.04159
727.137,0.04241
721.351,0.04091
715.565,0.03791
709.778,0.03640
703.992,0.03686
698.206,0.03728
692.42,0.03688
686.633,0.03662
680.847,0.03579
675.061,0.03440
669.275,0.03586
663.488,0.03597
657.702,0.03627
651.916,0.03768
646.13,0.03732
640.343,0.03673
634.557,0.03590
628.771,0.03910
622.985,0.03752
617.198,0.03851
611.412,0.03808
605.626,0.03801
599.84,0.03888