File: 01_Data/Memory_Foam_Carpet_Pad/FTIR/IS/Memory_Foam_Carpet_Pad_IS_S_221003_R2.dpt
7497.03,0.71614
7491.25,0.72373
7485.46,0.71056
7479.67,0.71684
7473.89,0.71113
7468.1,0.71784
7462.32,0.71123
7456.53,0.71467
7450.74,0.71146
7444.96,0.71192
7439.17,0.70836
7433.38,0.70479
7427.6,0.70281
7421.81,0.70032
7416.03,0.68908
7410.24,0.68637
7404.45,0.69122
7398.67,0.68725
7392.88,0.67625
7387.09,0.67175
7381.31,0.67007
7375.52,0.66859
7369.74,0.66312
7363.95,0.66625
7358.16,0.65443
7352.38,0.65886
7346.59,0.65896
7340.8,0.66056
7335.02,0.66238
7329.23,0.64675
7323.45,0.65805
7317.66,0.65509
7311.87,0.65735
7306.09,0.64628
7300.3,0.64665
7294.51,0.63807
7288.73,0.64231
7282.94,0.63005
7277.16,0.62496
7271.37,0.62232
7265.58,0.62578
7259.8,0.62398
7254.01,0.61611
7248.22,0.61901
7242.44,0.61674
7236.65,0.61806
7230.87,0.62071
7225.08,0.60501
7219.29,0.61222
7213.51,0.60590
7207.72,0.60168
7201.93,0.60609
7196.15,0.60876
7190.36,0.61092
7184.58,0.61167
7178.79,0.60827
7173,0.61124
7167.22,0.60233
7161.43,0.60889
7155.65,0.61515
7149.86,0.61048
7144.07,0.61551
7138.29,0.61442
7132.5,0.62031
7126.71,0.62097
7120.93,0.61771
7115.14,0.60651
7109.36,0.62383
7103.57,0.61025
7097.78,0.61033
7092,0.61883
7086.21,0.61588
7080.42,0.61261
7074.64,0.61267
7068.85,0.61651
7063.07,0.61474
7057.28,0.62474
7051.49,0.62247
7045.71,0.61676
7039.92,0.61001
7034.13,0.61641
7028.35,0.62066
7022.56,0.61245
7016.78,0.61070
7010.99,0.61160
7005.2,0.60801
6999.42,0.61190
6993.63,0.61377
6987.84,0.60718
6982.06,0.61561
6976.27,0.61746
6970.49,0.61199
6964.7,0.61652
6958.91,0.61697
6953.13,0.61891
6947.34,0.61644
6941.55,0.61309
6935.77,0.61475
6929.98,0.62390
6924.2,0.62055
6918.41,0.62021
6912.62,0.62242
6906.84,0.62084
6901.05,0.62659
6895.26,0.62243
6889.48,0.62921
6883.69,0.63133
6877.91,0.62489
6872.12,0.62655
6866.33,0.62767
6860.55,0.62673
6854.76,0.62908
6848.97,0.62886
6843.19,0.62784
6837.4,0.63276
6831.62,0.63190
6825.83,0.63451
6820.04,0.63250
6814.26,0.63114
6808.47,0.63016
6802.68,0.63065
6796.9,0.62505
6791.11,0.61824
6785.33,0.61881
6779.54,0.61612
6773.75,0.61379
6767.97,0.60840
6762.18,0.61365
6756.39,0.61083
6750.61,0.60719
6744.82,0.61041
6739.04,0.60703
6733.25,0.60478
6727.46,0.60103
6721.68,0.60315
6715.89,0.59617
6710.1,0.60146
6704.32,0.59609
6698.53,0.59798
6692.75,0.59462
6686.96,0.59675
6681.17,0.58909
6675.39,0.59115
6669.6,0.59210
6663.82,0.58913
6658.03,0.59214
6652.24,0.59143
6646.46,0.59340
6640.67,0.58991
6634.88,0.59252
6629.1,0.58930
6623.31,0.58856
6617.53,0.59587
6611.74,0.59539
6605.95,0.59849
6600.17,0.59822
6594.38,0.59871
6588.59,0.59720
6582.81,0.59788
6577.02,0.60473
6571.24,0.60739
6565.45,0.60614
6559.66,0.60661
6553.88,0.61064
6548.09,0.61429
6542.3,0.61283
6536.52,0.61422
6530.73,0.62139
6524.95,0.62126
6519.16,0.62132
6513.37,0.62665
6507.59,0.62856
6501.8,0.62679
6496.01,0.63222
6490.23,0.63139
6484.44,0.63146
6478.66,0.63693
6472.87,0.63721
6467.08,0.64021
6461.3,0.63842
6455.51,0.63977
6449.72,0.64521
6443.94,0.63914
6438.15,0.64042
6432.37,0.64410
6426.58,0.64233
6420.79,0.64168
6415.01,0.64645
6409.22,0.64940
6403.43,0.64566
6397.65,0.64468
6391.86,0.64443
6386.08,0.64847
6380.29,0.64875
6374.5,0.65053
6368.72,0.64925
6362.93,0.64717
6357.14,0.64909
6351.36,0.65077
6345.57,0.65229
6339.79,0.64872
6334,0.65038
6328.21,0.65290
6322.43,0.64916
6316.64,0.65036
6310.85,0.65277
6305.07,0.64726
6299.28,0.64709
6293.5,0.64995
6287.71,0.65077
6281.92,0.65316
6276.14,0.65055
6270.35,0.64970
6264.56,0.64996
6258.78,0.65093
6252.99,0.64892
6247.21,0.64962
6241.42,0.65172
6235.63,0.64612
6229.85,0.64936
6224.06,0.64984
6218.27,0.64855
6212.49,0.65078
6206.7,0.64993
6200.92,0.64927
6195.13,0.64296
6189.34,0.64519
6183.56,0.64506
6177.77,0.63855
6171.98,0.63766
6166.2,0.63804
6160.41,0.63456
6154.63,0.63457
6148.84,0.63223
6143.05,0.62841
6137.27,0.62634
6131.48,0.61879
6125.7,0.61737
6119.91,0.61120
6114.12,0.60507
6108.34,0.60493
6102.55,0.59705
6096.76,0.59010
6090.98,0.58708
6085.19,0.58305
6079.41,0.57970
6073.62,0.57771
6067.83,0.57828
6062.05,0.57748
6056.26,0.57870
6050.47,0.57683
6044.69,0.57507
6038.9,0.57349
6033.12,0.57176
6027.33,0.56281
6021.54,0.55923
6015.76,0.55238
6009.97,0.54593
6004.18,0.53899
5998.4,0.53226
5992.61,0.52025
5986.83,0.51088
5981.04,0.49924
5975.25,0.48340
5969.47,0.46938
5963.68,0.45341
5957.89,0.43669
5952.11,0.42436
5946.32,0.41448
5940.54,0.40998
5934.75,0.41133
5928.96,0.41626
5923.18,0.41699
5917.39,0.41236
5911.6,0.40419
5905.82,0.39874
5900.03,0.39496
5894.25,0.39821
5888.46,0.40978
5882.67,0.41855
5876.89,0.42354
5871.1,0.42595
5865.31,0.42552
5859.53,0.42433
5853.74,0.42275
5847.96,0.41793
5842.17,0.41742
5836.38,0.41257
5830.6,0.40672
5824.81,0.40385
5819.02,0.39986
5813.24,0.39588
5807.45,0.39027
5801.67,0.38621
5795.88,0.38142
5790.09,0.37790
5784.31,0.37618
5778.52,0.37354
5772.73,0.37408
5766.95,0.37627
5761.16,0.37989
5755.38,0.38599
5749.59,0.39081
5743.8,0.39562
5738.02,0.40252
5732.23,0.40965
5726.44,0.41295
5720.66,0.41912
5714.87,0.42350
5709.09,0.42944
5703.3,0.43358
5697.51,0.43623
5691.73,0.43722
5685.94,0.43693
5680.15,0.43510
5674.37,0.43404
5668.58,0.43368
5662.8,0.43312
5657.01,0.43501
5651.22,0.43824
5645.44,0.44365
5639.65,0.44677
5633.87,0.45135
5628.08,0.45766
5622.29,0.46087
5616.51,0.46310
5610.72,0.46794
5604.93,0.46549
5599.15,0.46939
5593.36,0.46977
5587.58,0.46998
5581.79,0.46924
5576,0.46906
5570.22,0.46949
5564.43,0.46909
5558.64,0.46787
5552.86,0.46897
5547.07,0.46951
5541.29,0.47045
5535.5,0.47006
5529.71,0.47147
5523.93,0.47219
5518.14,0.47200
5512.35,0.47398
5506.57,0.47612
5500.78,0.47789
5495,0.48061
5489.21,0.48275
5483.42,0.48352
5477.64,0.48398
5471.85,0.48506
5466.06,0.48524
5460.28,0.48559
5454.49,0.48619
5448.71,0.48910
5442.92,0.48924
5437.13,0.49184
5431.35,0.49458
5425.56,0.49861
5419.77,0.50386
5413.99,0.50635
5408.2,0.51221
5402.42,0.51665
5396.63,0.52238
5390.84,0.52505
5385.06,0.52710
5379.27,0.52869
5373.48,0.52993
5367.7,0.53104
5361.91,0.53192
5356.13,0.53241
5350.34,0.53472
5344.55,0.53665
5338.77,0.53567
5332.98,0.53568
5327.19,0.53704
5321.41,0.53702
5315.62,0.53796
5309.84,0.53714
5304.05,0.53608
5298.26,0.53500
5292.48,0.53096
5286.69,0.52735
5280.9,0.52278
5275.12,0.52021
5269.33,0.51553
5263.55,0.51309
5257.76,0.50818
5251.97,0.50491
5246.19,0.50303
5240.4,0.49886
5234.61,0.49622
5228.83,0.49350
5223.04,0.49106
5217.26,0.49059
5211.47,0.48848
5205.68,0.49004
5199.9,0.48897
5194.11,0.48904
5188.32,0.49108
5182.54,0.49186
5176.75,0.49290
5170.97,0.49230
5165.18,0.49549
5159.39,0.49507
5153.61,0.49546
5147.82,0.49687
5142.03,0.49662
5136.25,0.49865
5130.46,0.49928
5124.68,0.49853
5118.89,0.50004
5113.1,0.50069
5107.32,0.50182
5101.53,0.50168
5095.75,0.50031
5089.96,0.50026
5084.17,0.49915
5078.39,0.49743
5072.6,0.49496
5066.81,0.49334
5061.03,0.49298
5055.24,0.49198
5049.46,0.48932
5043.67,0.48817
5037.88,0.48463
5032.1,0.48230
5026.31,0.48091
5020.52,0.47600
5014.74,0.47507
5008.95,0.46835
5003.17,0.46389
4997.38,0.45915
4991.59,0.45283
4985.81,0.44544
4980.02,0.43561
4974.23,0.42919
4968.45,0.42120
4962.66,0.41541
4956.88,0.40835
4951.09,0.40186
4945.3,0.39615
4939.52,0.38973
4933.73,0.38571
4927.94,0.38111
4922.16,0.37579
4916.37,0.37235
4910.59,0.36865
4904.8,0.36377
4899.01,0.35957
4893.23,0.35820
4887.44,0.35607
4881.65,0.35714
4875.87,0.35766
4870.08,0.35760
4864.3,0.35807
4858.51,0.35766
4852.72,0.35884
4846.94,0.35964
4841.15,0.36189
4835.36,0.36603
4829.58,0.36873
4823.79,0.37341
4818.01,0.37862
4812.22,0.38271
4806.43,0.38749
4800.65,0.39283
4794.86,0.39596
4789.07,0.40018
4783.29,0.40302
4777.5,0.40729
4771.72,0.40931
4765.93,0.41271
4760.14,0.41306
4754.36,0.41341
4748.57,0.41428
4742.78,0.41352
4737,0.41210
4731.21,0.40952
4725.43,0.40677
4719.64,0.40082
4713.85,0.39518
4708.07,0.39251
4702.28,0.38939
4696.49,0.38665
4690.71,0.38457
4684.92,0.37989
4679.14,0.37637
4673.35,0.37133
4667.56,0.36878
4661.78,0.36666
4655.99,0.36360
4650.2,0.35965
4644.42,0.35532
4638.63,0.35031
4632.85,0.34606
4627.06,0.34489
4621.27,0.34648
4615.49,0.34825
4609.7,0.35010
4603.92,0.35248
4598.13,0.35540
4592.34,0.35628
4586.56,0.35651
4580.77,0.35532
4574.98,0.35564
4569.2,0.35571
4563.41,0.35660
4557.63,0.35730
4551.84,0.35762
4546.05,0.35828
4540.27,0.35817
4534.48,0.35733
4528.69,0.35715
4522.91,0.35464
4517.12,0.35442
4511.34,0.35322
4505.55,0.35271
4499.76,0.35126
4493.98,0.34933
4488.19,0.34559
4482.4,0.34171
4476.62,0.33466
4470.83,0.32722
4465.05,0.31666
4459.26,0.30450
4453.47,0.28969
4447.69,0.27190
4441.9,0.25249
4436.11,0.23304
4430.33,0.21424
4424.54,0.19861
4418.76,0.18725
4412.97,0.18114
4407.18,0.18288
4401.4,0.18634
4395.61,0.18958
4389.82,0.18896
4384.04,0.18351
4378.25,0.17811
4372.47,0.17069
4366.68,0.16261
4360.89,0.15402
4355.11,0.14574
4349.32,0.13963
4343.53,0.13484
4337.75,0.13205
4331.96,0.13093
4326.18,0.13298
4320.39,0.13691
4314.6,0.14226
4308.82,0.14989
4303.03,0.15761
4297.24,0.16474
4291.46,0.16942
4285.67,0.17164
4279.89,0.17139
4274.1,0.16973
4268.31,0.17126
4262.53,0.17363
4256.74,0.17719
4250.95,0.18016
4245.17,0.18094
4239.38,0.18199
4233.6,0.18406
4227.81,0.18556
4222.02,0.18833
4216.24,0.19168
4210.45,0.19536
4204.66,0.19835
4198.88,0.20130
4193.09,0.20298
4187.31,0.20261
4181.52,0.20197
4175.73,0.20013
4169.95,0.19782
4164.16,0.19634
4158.37,0.19492
4152.59,0.19340
4146.8,0.19229
4141.02,0.19182
4135.23,0.19188
4129.44,0.19075
4123.66,0.18963
4117.87,0.18723
4112.09,0.18497
4106.3,0.18205
4100.51,0.17932
4094.73,0.17528
4088.94,0.17154
4083.15,0.16629
4077.37,0.16208
4071.58,0.15717
4065.8,0.15285
4060.01,0.14958
4054.22,0.14729
4048.44,0.14668
4042.65,0.14612
4036.86,0.14619
4031.08,0.14598
4025.29,0.14606
4019.51,0.14637
4013.72,0.14828
4007.93,0.14910
4002.15,0.15053
3996.36,0.15278
3990.57,0.15473
3984.79,0.15717
3979,0.16116
3973.22,0.16421
3967.43,0.16795
3961.64,0.17232
3955.86,0.17618
3950.07,0.18121
3944.28,0.18640
3938.5,0.19218
3932.71,0.19756
3926.93,0.20301
3921.14,0.20812
3915.35,0.21266
3909.57,0.21740
3903.78,0.21921
3897.99,0.22219
3892.21,0.22423
3886.42,0.22596
3880.64,0.22774
3874.85,0.22899
3869.06,0.22952
3863.28,0.23018
3857.49,0.23093
3851.7,0.23138
3845.92,0.23292
3840.13,0.23506
3834.35,0.23726
3828.56,0.23952
3822.77,0.24181
3816.99,0.24205
3811.2,0.24340
3805.41,0.24490
3799.63,0.24558
3793.84,0.24664
3788.06,0.24914
3782.27,0.25167
3776.48,0.25532
3770.7,0.25967
3764.91,0.26469
3759.12,0.27001
3753.34,0.27503
3747.55,0.27891
3741.77,0.28144
3735.98,0.28448
3730.19,0.28642
3724.41,0.28886
3718.62,0.29021
3712.83,0.29048
3707.05,0.28798
3701.26,0.28478
3695.48,0.27873
3689.69,0.27019
3683.9,0.26019
3678.12,0.25128
3672.33,0.23956
3666.54,0.22938
3660.76,0.22028
3654.97,0.20993
3649.19,0.20106
3643.4,0.19149
3637.61,0.18300
3631.83,0.17609
3626.04,0.16717
3620.25,0.15977
3614.47,0.15284
3608.68,0.14591
3602.9,0.13961
3597.11,0.13374
3591.32,0.12882
3585.54,0.12400
3579.75,0.12059
3573.97,0.11723
3568.18,0.11493
3562.39,0.11174
3556.61,0.10830
3550.82,0.10503
3545.03,0.10200
3539.25,0.09771
3533.46,0.09451
3527.68,0.09116
3521.89,0.08903
3516.1,0.08689
3510.32,0.08471
3504.53,0.08345
3498.74,0.08258
3492.96,0.08175
3487.17,0.08073
3481.39,0.07906
3475.6,0.07676
3469.81,0.07371
3464.03,0.06893
3458.24,0.06635
3452.45,0.06500
3446.67,0.06319
3440.88,0.06181
3435.1,0.05945
3429.31,0.05687
3423.52,0.05337
3417.74,0.04931
3411.95,0.04652
3406.16,0.04393
3400.38,0.04074
3394.59,0.03858
3388.81,0.03609
3383.02,0.03443
3377.23,0.03257
3371.45,0.03200
3365.66,0.03125
3359.87,0.02944
3354.09,0.02940
3348.3,0.02928
3342.52,0.02925
3336.73,0.02966
3330.94,0.02923
3325.16,0.02799
3319.37,0.02776
3313.58,0.02838
3307.8,0.02860
3302.01,0.02801
3296.23,0.02807
3290.44,0.02828
3284.65,0.02856
3278.87,0.02864
3273.08,0.02899
3267.29,0.02939
3261.51,0.03006
3255.72,0.03018
3249.94,0.03089
3244.15,0.03201
3238.36,0.03294
3232.58,0.03396
3226.79,0.03469
3221,0.03563
3215.22,0.03672
3209.43,0.03709
3203.65,0.03720
3197.86,0.03758
3192.07,0.03832
3186.29,0.03871
3180.5,0.04079
3174.71,0.04255
3168.93,0.04381
3163.14,0.04516
3157.36,0.04609
3151.57,0.04628
3145.78,0.04629
3140,0.04550
3134.21,0.04516
3128.42,0.04439
3122.64,0.04445
3116.85,0.04514
3111.07,0.04609
3105.28,0.04678
3099.49,0.04700
3093.71,0.04687
3087.92,0.04630
3082.14,0.04534
3076.35,0.04457
3070.56,0.04327
3064.78,0.04267
3058.99,0.04272
3053.2,0.04280
3047.42,0.04271
3041.63,0.04188
3035.85,0.04081
3030.06,0.04002
3024.27,0.04018
3018.49,0.04106
3012.7,0.03956
3006.91,0.03747
3001.13,0.03404
2995.34,0.03055
2989.56,0.02868
2983.77,0.02749
2977.98,0.02641
2972.2,0.02611
2966.41,0.02635
2960.62,0.02720
2954.84,0.02759
2949.05,0.02721
2943.27,0.02580
2937.48,0.02596
2931.69,0.02531
2925.91,0.02575
2920.12,0.02581
2914.33,0.02579
2908.55,0.02607
2902.76,0.02655
2896.98,0.02710
2891.19,0.02723
2885.4,0.02704
2879.62,0.02717
2873.83,0.02688
2868.04,0.02740
2862.26,0.02769
2856.47,0.02816
2850.69,0.02889
2844.9,0.03039
2839.11,0.03214
2833.33,0.03403
2827.54,0.03626
2821.75,0.03835
2815.97,0.04011
2810.18,0.04035
2804.4,0.04080
2798.61,0.04140
2792.82,0.04277
2787.04,0.04420
2781.25,0.04546
2775.46,0.04614
2769.68,0.04733
2763.89,0.04901
2758.11,0.05081
2752.32,0.05210
2746.53,0.05370
2740.75,0.05472
2734.96,0.05619
2729.17,0.05849
2723.39,0.06152
2717.6,0.06474
2711.82,0.06861
2706.03,0.07144
2700.24,0.07474
2694.46,0.07858
2688.67,0.08218
2682.88,0.08476
2677.1,0.08667
2671.31,0.08818
2665.53,0.09009
2659.74,0.09265
2653.95,0.09497
2648.17,0.09639
2642.38,0.09772
2636.59,0.09929
2630.81,0.10225
2625.02,0.10663
2619.24,0.10954
2613.45,0.11072
2607.66,0.11044
2601.88,0.10854
2596.09,0.10765
2590.3,0.10825
2584.52,0.10985
2578.73,0.11354
2572.95,0.11897
2567.16,0.12544
2561.37,0.13100
2555.59,0.13452
2549.8,0.13716
2544.02,0.13953
2538.23,0.14160
2532.44,0.14154
2526.66,0.14106
2520.87,0.14139
2515.08,0.14163
2509.3,0.14279
2503.51,0.14420
2497.73,0.14651
2491.94,0.14886
2486.15,0.15194
2480.37,0.15444
2474.58,0.15665
2468.79,0.15897
2463.01,0.16133
2457.22,0.16314
2451.44,0.16529
2445.65,0.16824
2439.86,0.17123
2434.08,0.17390
2428.29,0.17579
2422.5,0.17803
2416.72,0.17824
2410.93,0.17779
2405.15,0.17699
2399.36,0.17589
2393.57,0.17452
2387.79,0.17290
2382,0.17172
2376.21,0.17100
2370.43,0.17005
2364.64,0.17001
2358.86,0.16941
2353.07,0.16924
2347.28,0.16838
2341.5,0.16744
2335.71,0.16708
2329.92,0.16665
2324.14,0.16420
2318.35,0.15982
2312.57,0.15337
2306.78,0.14680
2300.99,0.13907
2295.21,0.13187
2289.42,0.12446
2283.63,0.11620
2277.85,0.10965
2272.06,0.10599
2266.28,0.10810
2260.49,0.11405
2254.7,0.11932
2248.92,0.12088
2243.13,0.11871
2237.34,0.11699
2231.56,0.12453
2225.77,0.13185
2219.99,0.13509
2214.2,0.13681
2208.41,0.13824
2202.63,0.13996
2196.84,0.14148
2191.05,0.14190
2185.27,0.14256
2179.48,0.14260
2173.7,0.14227
2167.91,0.14194
2162.12,0.14193
2156.34,0.14184
2150.55,0.14240
2144.76,0.14343
2138.98,0.14389
2133.19,0.14494
2127.41,0.14555
2121.62,0.14704
2115.83,0.14770
2110.05,0.14780
2104.26,0.14691
2098.47,0.14606
2092.69,0.14524
2086.9,0.14346
2081.12,0.14203
2075.33,0.14145
2069.54,0.14041
2063.76,0.13996
2057.97,0.13927
2052.19,0.13822
2046.4,0.13581
2040.61,0.13277
2034.83,0.12972
2029.04,0.12693
2023.25,0.12499
2017.47,0.12371
2011.68,0.12334
2005.9,0.12328
2000.11,0.12349
1994.32,0.12427
1988.54,0.12399
1982.75,0.12341
1976.96,0.12299
1971.18,0.12237
1965.39,0.12166
1959.61,0.12079
1953.82,0.12048
1948.03,0.12062
1942.25,0.12129
1936.46,0.12099
1930.67,0.12006
1924.89,0.11935
1919.1,0.11757
1913.32,0.11693
1907.53,0.11633
1901.74,0.11624
1895.96,0.11746
1890.17,0.12007
1884.38,0.12177
1878.6,0.12367
1872.81,0.12572
1867.03,0.12755
1861.24,0.12862
1855.45,0.12784
1849.67,0.12617
1843.88,0.12330
1838.09,0.11953
1832.31,0.11565
1826.52,0.11130
1820.74,0.10697
1814.95,0.10230
1809.16,0.09650
1803.38,0.09039
1797.59,0.08423
1791.8,0.08065
1786.02,0.07798
1780.23,0.07527
1774.45,0.07181
1768.66,0.06626
1762.87,0.05900
1757.09,0.04898
1751.3,0.03764
1745.51,0.02907
1739.73,0.02530
1733.94,0.02486
1728.16,0.02457
1722.37,0.02528
1716.58,0.02591
1710.8,0.02589
1705.01,0.02645
1699.22,0.02723
1693.44,0.02658
1687.65,0.02697
1681.87,0.02730
1676.08,0.02726
1670.29,0.02686
1664.51,0.02674
1658.72,0.02690
1652.93,0.02701
1647.15,0.02725
1641.36,0.02725
1635.58,0.02822
1629.79,0.02847
1624,0.02766
1618.22,0.02661
1612.43,0.02558
1606.64,0.02471
1600.86,0.02491
1595.07,0.02531
1589.29,0.02624
1583.5,0.02780
1577.71,0.02843
1571.93,0.02804
1566.14,0.02627
1560.35,0.02556
1554.57,0.02370
1548.78,0.02393
1543,0.02417
1537.21,0.02499
1531.42,0.02597
1525.64,0.02725
1519.85,0.02727
1514.07,0.02714
1508.28,0.02831
1502.49,0.02866
1496.71,0.02965
1490.92,0.03002
1485.13,0.02922
1479.35,0.02883
1473.56,0.02821
1467.78,0.02752
1461.99,0.02731
1456.2,0.02700
1450.42,0.02737
1444.63,0.02822
1438.84,0.02934
1433.06,0.03026
1427.27,0.03037
1421.49,0.02920
1415.7,0.02758
1409.91,0.02771
1404.13,0.02858
1398.34,0.02898
1392.55,0.02818
1386.77,0.02734
1380.98,0.02607
1375.2,0.02604
1369.41,0.02746
1363.62,0.02874
1357.84,0.02892
1352.05,0.02807
1346.26,0.02742
1340.48,0.02745
1334.69,0.02737
1328.91,0.02686
1323.12,0.02614
1317.33,0.02533
1311.55,0.02499
1305.76,0.02566
1299.97,0.02560
1294.19,0.02606
1288.4,0.02625
1282.62,0.02581
1276.83,0.02615
1271.04,0.02557
1265.26,0.02535
1259.47,0.02486
1253.68,0.02460
1247.9,0.02407
1242.11,0.02358
1236.33,0.02387
1230.54,0.02472
1224.75,0.02512
1218.97,0.02681
1213.18,0.02713
1207.39,0.02633
1201.61,0.02638
1195.82,0.02660
1190.04,0.02607
1184.25,0.02563
1178.46,0.02467
1172.68,0.02378
1166.89,0.02357
1161.1,0.02344
1155.32,0.02297
1149.53,0.02295
1143.75,0.02279
1137.96,0.02276
1132.17,0.02278
1126.39,0.02364
1120.6,0.02435
1114.81,0.02629
1109.03,0.02722
1103.24,0.02890
1097.46,0.02890
1091.67,0.03044
1085.88,0.03049
1080.1,0.03098
1074.31,0.03203
1068.52,0.03174
1062.74,0.03228
1056.95,0.03319
1051.17,0.03304
1045.38,0.03281
1039.59,0.03259
1033.81,0.03362
1028.02,0.03390
1022.24,0.03311
1016.45,0.03337
1010.66,0.03430
1004.88,0.03488
999.09,0.03609
993.304,0.03802
987.518,0.04019
981.731,0.04190
975.945,0.04143
970.159,0.04030
964.373,0.04017
958.586,0.04125
952.8,0.04119
947.014,0.03873
941.228,0.03592
935.441,0.03488
929.655,0.03461
923.869,0.03491
918.083,0.03623
912.297,0.03815
906.51,0.03784
900.724,0.04075
894.938,0.04307
889.152,0.04243
883.365,0.04100
877.579,0.03928
871.793,0.03827
866.007,0.03755
860.22,0.03796
854.434,0.03714
848.648,0.03730
842.862,0.03822
837.075,0.03683
831.289,0.03547
825.503,0.03448
819.717,0.03402
813.931,0.03435
808.144,0.03586
802.358,0.03912
796.572,0.04041
790.786,0.04089
784.999,0.04003
779.213,0.03951
773.427,0.03644
767.641,0.03571
761.854,0.03597
756.068,0.03762
750.282,0.03939
744.496,0.04132
738.709,0.04232
732.923,0.04214
727.137,0.04257
721.351,0.04095
715.565,0.03719
709.778,0.03682
703.992,0.03632
698.206,0.03723
692.42,0.03732
686.633,0.03639
680.847,0.03602
675.061,0.03595
669.275,0.03512
663.488,0.03591
657.702,0.03636
651.916,0.03674
646.13,0.03665
640.343,0.03668
634.557,0.03662
628.771,0.03734
622.985,0.03757
617.198,0.03824
611.412,0.03616
605.626,0.03898
599.84,0.03902