File: 01_Data/Memory_Foam_Carpet_Pad/FTIR/IS/Memory_Foam_Carpet_Pad_IS_S_221003_R6.dpt
7497.03,0.71914
7491.25,0.71889
7485.46,0.70903
7479.67,0.71283
7473.89,0.71395
7468.1,0.71551
7462.32,0.71300
7456.53,0.71362
7450.74,0.70942
7444.96,0.71509
7439.17,0.70377
7433.38,0.70776
7427.6,0.70461
7421.81,0.71081
7416.03,0.69253
7410.24,0.68725
7404.45,0.70236
7398.67,0.68317
7392.88,0.67879
7387.09,0.67910
7381.31,0.67143
7375.52,0.67513
7369.74,0.66995
7363.95,0.65809
7358.16,0.66371
7352.38,0.66728
7346.59,0.65635
7340.8,0.66697
7335.02,0.66104
7329.23,0.66282
7323.45,0.64797
7317.66,0.65196
7311.87,0.65928
7306.09,0.65121
7300.3,0.64093
7294.51,0.64243
7288.73,0.63636
7282.94,0.63616
7277.16,0.63042
7271.37,0.61918
7265.58,0.62223
7259.8,0.62802
7254.01,0.62755
7248.22,0.61335
7242.44,0.62043
7236.65,0.61503
7230.87,0.61469
7225.08,0.61856
7219.29,0.61866
7213.51,0.61715
7207.72,0.61509
7201.93,0.61194
7196.15,0.60849
7190.36,0.61340
7184.58,0.60525
7178.79,0.60647
7173,0.61298
7167.22,0.60996
7161.43,0.61331
7155.65,0.60573
7149.86,0.61766
7144.07,0.61345
7138.29,0.61569
7132.5,0.62179
7126.71,0.61920
7120.93,0.61940
7115.14,0.62087
7109.36,0.62263
7103.57,0.61945
7097.78,0.62564
7092,0.60945
7086.21,0.61832
7080.42,0.61303
7074.64,0.62248
7068.85,0.62505
7063.07,0.61816
7057.28,0.62186
7051.49,0.62096
7045.71,0.62596
7039.92,0.62456
7034.13,0.61890
7028.35,0.62369
7022.56,0.62565
7016.78,0.62191
7010.99,0.61852
7005.2,0.61558
6999.42,0.61836
6993.63,0.61616
6987.84,0.61414
6982.06,0.61457
6976.27,0.61679
6970.49,0.61806
6964.7,0.61802
6958.91,0.61245
6953.13,0.62010
6947.34,0.62318
6941.55,0.62160
6935.77,0.62797
6929.98,0.62806
6924.2,0.63238
6918.41,0.62470
6912.62,0.62260
6906.84,0.62707
6901.05,0.62971
6895.26,0.62668
6889.48,0.62962
6883.69,0.63483
6877.91,0.63279
6872.12,0.63656
6866.33,0.63914
6860.55,0.63063
6854.76,0.63134
6848.97,0.63581
6843.19,0.63411
6837.4,0.63803
6831.62,0.64123
6825.83,0.63633
6820.04,0.63494
6814.26,0.63825
6808.47,0.63235
6802.68,0.62696
6796.9,0.62728
6791.11,0.62450
6785.33,0.62059
6779.54,0.62242
6773.75,0.61418
6767.97,0.62322
6762.18,0.61603
6756.39,0.61397
6750.61,0.60846
6744.82,0.60495
6739.04,0.60523
6733.25,0.60814
6727.46,0.60368
6721.68,0.60267
6715.89,0.60320
6710.1,0.60258
6704.32,0.59763
6698.53,0.59177
6692.75,0.59143
6686.96,0.59348
6681.17,0.59489
6675.39,0.59252
6669.6,0.59271
6663.82,0.58930
6658.03,0.59115
6652.24,0.59473
6646.46,0.60001
6640.67,0.59393
6634.88,0.59429
6629.1,0.58612
6623.31,0.59743
6617.53,0.59950
6611.74,0.59177
6605.95,0.59266
6600.17,0.59736
6594.38,0.59753
6588.59,0.60249
6582.81,0.60278
6577.02,0.59681
6571.24,0.60044
6565.45,0.60557
6559.66,0.60692
6553.88,0.60956
6548.09,0.61205
6542.3,0.61292
6536.52,0.61120
6530.73,0.61941
6524.95,0.62470
6519.16,0.62809
6513.37,0.62949
6507.59,0.63171
6501.8,0.63261
6496.01,0.63473
6490.23,0.63240
6484.44,0.63427
6478.66,0.63457
6472.87,0.63733
6467.08,0.63634
6461.3,0.63972
6455.51,0.64047
6449.72,0.64097
6443.94,0.64393
6438.15,0.64512
6432.37,0.64172
6426.58,0.64485
6420.79,0.64208
6415.01,0.64617
6409.22,0.64771
6403.43,0.64436
6397.65,0.64853
6391.86,0.64871
6386.08,0.64910
6380.29,0.64800
6374.5,0.64492
6368.72,0.64721
6362.93,0.65082
6357.14,0.65435
6351.36,0.64818
6345.57,0.64994
6339.79,0.64311
6334,0.64911
6328.21,0.64826
6322.43,0.65352
6316.64,0.64956
6310.85,0.65201
6305.07,0.65064
6299.28,0.64981
6293.5,0.64861
6287.71,0.65006
6281.92,0.64979
6276.14,0.65133
6270.35,0.64783
6264.56,0.65010
6258.78,0.65196
6252.99,0.64856
6247.21,0.65343
6241.42,0.65103
6235.63,0.65216
6229.85,0.64859
6224.06,0.64810
6218.27,0.65061
6212.49,0.64927
6206.7,0.64776
6200.92,0.64629
6195.13,0.64364
6189.34,0.64224
6183.56,0.64126
6177.77,0.64180
6171.98,0.63947
6166.2,0.63470
6160.41,0.63634
6154.63,0.63472
6148.84,0.62994
6143.05,0.62620
6137.27,0.62228
6131.48,0.62232
6125.7,0.61608
6119.91,0.60854
6114.12,0.60677
6108.34,0.60116
6102.55,0.59668
6096.76,0.59076
6090.98,0.58620
6085.19,0.58351
6079.41,0.57936
6073.62,0.58005
6067.83,0.57868
6062.05,0.57715
6056.26,0.57773
6050.47,0.57282
6044.69,0.57357
6038.9,0.57204
6033.12,0.56975
6027.33,0.56345
6021.54,0.55612
6015.76,0.54805
6009.97,0.54389
6004.18,0.53759
5998.4,0.52728
5992.61,0.51909
5986.83,0.50765
5981.04,0.49836
5975.25,0.48402
5969.47,0.46949
5963.68,0.45277
5957.89,0.43828
5952.11,0.42415
5946.32,0.41425
5940.54,0.41039
5934.75,0.40950
5928.96,0.41564
5923.18,0.41532
5917.39,0.41196
5911.6,0.40452
5905.82,0.39756
5900.03,0.39226
5894.25,0.39747
5888.46,0.40557
5882.67,0.41600
5876.89,0.42209
5871.1,0.42481
5865.31,0.42406
5859.53,0.42271
5853.74,0.42195
5847.96,0.42064
5842.17,0.41546
5836.38,0.41007
5830.6,0.40650
5824.81,0.40069
5819.02,0.39737
5813.24,0.39270
5807.45,0.38836
5801.67,0.38669
5795.88,0.38128
5790.09,0.37916
5784.31,0.37331
5778.52,0.37446
5772.73,0.37426
5766.95,0.37509
5761.16,0.37983
5755.38,0.38424
5749.59,0.38869
5743.8,0.39373
5738.02,0.40100
5732.23,0.40725
5726.44,0.41371
5720.66,0.41780
5714.87,0.42610
5709.09,0.43002
5703.3,0.43211
5697.51,0.43286
5691.73,0.43442
5685.94,0.43543
5680.15,0.43220
5674.37,0.43218
5668.58,0.43255
5662.8,0.43451
5657.01,0.43533
5651.22,0.43823
5645.44,0.44301
5639.65,0.44569
5633.87,0.45269
5628.08,0.45581
5622.29,0.45812
5616.51,0.46407
5610.72,0.46546
5604.93,0.46842
5599.15,0.46947
5593.36,0.46830
5587.58,0.46782
5581.79,0.46985
5576,0.46800
5570.22,0.46904
5564.43,0.46968
5558.64,0.47006
5552.86,0.46901
5547.07,0.46936
5541.29,0.46950
5535.5,0.46996
5529.71,0.47079
5523.93,0.47164
5518.14,0.47305
5512.35,0.47184
5506.57,0.47457
5500.78,0.47759
5495,0.48025
5489.21,0.48308
5483.42,0.48240
5477.64,0.48329
5471.85,0.48281
5466.06,0.48505
5460.28,0.48589
5454.49,0.48573
5448.71,0.48857
5442.92,0.48765
5437.13,0.49237
5431.35,0.49368
5425.56,0.49702
5419.77,0.50264
5413.99,0.50848
5408.2,0.51172
5402.42,0.51765
5396.63,0.52045
5390.84,0.52352
5385.06,0.52447
5379.27,0.52731
5373.48,0.52955
5367.7,0.53244
5361.91,0.53100
5356.13,0.53288
5350.34,0.53456
5344.55,0.53286
5338.77,0.53503
5332.98,0.53628
5327.19,0.53791
5321.41,0.53894
5315.62,0.54080
5309.84,0.54085
5304.05,0.54165
5298.26,0.53953
5292.48,0.53689
5286.69,0.53409
5280.9,0.53312
5275.12,0.53064
5269.33,0.52865
5263.55,0.52497
5257.76,0.52357
5251.97,0.52222
5246.19,0.52080
5240.4,0.51750
5234.61,0.51569
5228.83,0.51351
5223.04,0.51366
5217.26,0.51159
5211.47,0.51038
5205.68,0.51149
5199.9,0.51040
5194.11,0.51072
5188.32,0.51141
5182.54,0.51121
5176.75,0.51238
5170.97,0.51305
5165.18,0.51198
5159.39,0.51222
5153.61,0.51258
5147.82,0.51309
5142.03,0.51172
5136.25,0.51292
5130.46,0.51315
5124.68,0.51292
5118.89,0.51237
5113.1,0.51462
5107.32,0.51101
5101.53,0.51054
5095.75,0.51100
5089.96,0.50929
5084.17,0.50752
5078.39,0.50614
5072.6,0.50336
5066.81,0.50021
5061.03,0.49856
5055.24,0.49562
5049.46,0.49403
5043.67,0.49057
5037.88,0.48921
5032.1,0.48598
5026.31,0.48398
5020.52,0.47857
5014.74,0.47620
5008.95,0.47281
5003.17,0.46670
4997.38,0.46005
4991.59,0.45144
4985.81,0.44490
4980.02,0.43680
4974.23,0.42938
4968.45,0.42230
4962.66,0.41588
4956.88,0.40894
4951.09,0.40166
4945.3,0.39549
4939.52,0.39030
4933.73,0.38393
4927.94,0.37957
4922.16,0.37544
4916.37,0.37107
4910.59,0.36754
4904.8,0.36333
4899.01,0.36119
4893.23,0.35952
4887.44,0.35705
4881.65,0.35783
4875.87,0.35679
4870.08,0.35592
4864.3,0.35671
4858.51,0.35673
4852.72,0.35884
4846.94,0.36017
4841.15,0.36267
4835.36,0.36565
4829.58,0.36824
4823.79,0.37288
4818.01,0.37757
4812.22,0.38306
4806.43,0.38715
4800.65,0.39248
4794.86,0.39612
4789.07,0.39993
4783.29,0.40377
4777.5,0.40700
4771.72,0.40963
4765.93,0.41180
4760.14,0.41436
4754.36,0.41480
4748.57,0.41406
4742.78,0.41460
4737,0.41109
4731.21,0.40767
4725.43,0.40594
4719.64,0.40163
4713.85,0.39624
4708.07,0.39331
4702.28,0.38962
4696.49,0.38652
4690.71,0.38358
4684.92,0.38011
4679.14,0.37675
4673.35,0.37213
4667.56,0.36816
4661.78,0.36602
4655.99,0.36337
4650.2,0.35885
4644.42,0.35431
4638.63,0.35106
4632.85,0.34633
4627.06,0.34479
4621.27,0.34590
4615.49,0.34770
4609.7,0.35053
4603.92,0.35230
4598.13,0.35482
4592.34,0.35596
4586.56,0.35690
4580.77,0.35605
4574.98,0.35515
4569.2,0.35573
4563.41,0.35648
4557.63,0.35710
4551.84,0.35739
4546.05,0.35778
4540.27,0.35766
4534.48,0.35617
4528.69,0.35561
4522.91,0.35520
4517.12,0.35337
4511.34,0.35265
4505.55,0.35268
4499.76,0.35123
4493.98,0.34992
4488.19,0.34628
4482.4,0.34107
4476.62,0.33444
4470.83,0.32748
4465.05,0.31666
4459.26,0.30416
4453.47,0.28839
4447.69,0.27091
4441.9,0.25145
4436.11,0.23295
4430.33,0.21448
4424.54,0.19883
4418.76,0.18679
4412.97,0.18072
4407.18,0.18202
4401.4,0.18602
4395.61,0.18961
4389.82,0.18807
4384.04,0.18369
4378.25,0.17771
4372.47,0.17012
4366.68,0.16191
4360.89,0.15421
4355.11,0.14569
4349.32,0.13832
4343.53,0.13388
4337.75,0.13123
4331.96,0.13073
4326.18,0.13208
4320.39,0.13628
4314.6,0.14167
4308.82,0.14903
4303.03,0.15845
4297.24,0.16540
4291.46,0.16954
4285.67,0.17027
4279.89,0.16979
4274.1,0.16903
4268.31,0.17002
4262.53,0.17318
4256.74,0.17661
4250.95,0.17938
4245.17,0.18097
4239.38,0.18124
4233.6,0.18364
4227.81,0.18545
4222.02,0.18779
4216.24,0.19099
4210.45,0.19535
4204.66,0.19898
4198.88,0.20021
4193.09,0.20193
4187.31,0.20252
4181.52,0.20196
4175.73,0.19989
4169.95,0.19742
4164.16,0.19582
4158.37,0.19474
4152.59,0.19282
4146.8,0.19246
4141.02,0.19269
4135.23,0.19124
4129.44,0.19094
4123.66,0.18969
4117.87,0.18751
4112.09,0.18493
4106.3,0.18176
4100.51,0.17890
4094.73,0.17520
4088.94,0.17091
4083.15,0.16667
4077.37,0.16248
4071.58,0.15766
4065.8,0.15298
4060.01,0.14945
4054.22,0.14813
4048.44,0.14758
4042.65,0.14657
4036.86,0.14650
4031.08,0.14610
4025.29,0.14653
4019.51,0.14766
4013.72,0.14816
4007.93,0.14917
4002.15,0.15129
3996.36,0.15286
3990.57,0.15496
3984.79,0.15734
3979,0.16064
3973.22,0.16449
3967.43,0.16789
3961.64,0.17245
3955.86,0.17647
3950.07,0.18215
3944.28,0.18740
3938.5,0.19265
3932.71,0.19835
3926.93,0.20381
3921.14,0.20885
3915.35,0.21373
3909.57,0.21718
3903.78,0.22078
3897.99,0.22297
3892.21,0.22543
3886.42,0.22749
3880.64,0.22858
3874.85,0.23002
3869.06,0.23055
3863.28,0.23135
3857.49,0.23222
3851.7,0.23247
3845.92,0.23343
3840.13,0.23670
3834.35,0.23864
3828.56,0.24101
3822.77,0.24346
3816.99,0.24480
3811.2,0.24454
3805.41,0.24685
3799.63,0.24805
3793.84,0.24886
3788.06,0.25112
3782.27,0.25369
3776.48,0.25780
3770.7,0.26226
3764.91,0.26733
3759.12,0.27392
3753.34,0.27919
3747.55,0.28280
3741.77,0.28600
3735.98,0.29021
3730.19,0.29250
3724.41,0.29510
3718.62,0.29717
3712.83,0.29892
3707.05,0.29806
3701.26,0.29766
3695.48,0.29464
3689.69,0.29252
3683.9,0.28678
3678.12,0.28201
3672.33,0.27426
3666.54,0.26724
3660.76,0.26085
3654.97,0.25283
3649.19,0.24581
3643.4,0.23673
3637.61,0.22964
3631.83,0.22462
3626.04,0.21563
3620.25,0.20931
3614.47,0.20273
3608.68,0.19434
3602.9,0.18728
3597.11,0.17876
3591.32,0.17168
3585.54,0.16653
3579.75,0.16133
3573.97,0.15754
3568.18,0.15283
3562.39,0.14803
3556.61,0.14309
3550.82,0.13866
3545.03,0.13418
3539.25,0.12845
3533.46,0.12360
3527.68,0.11912
3521.89,0.11527
3516.1,0.11238
3510.32,0.10964
3504.53,0.10682
3498.74,0.10416
3492.96,0.10180
3487.17,0.09945
3481.39,0.09657
3475.6,0.09269
3469.81,0.08722
3464.03,0.08015
3458.24,0.07498
3452.45,0.07203
3446.67,0.06989
3440.88,0.06714
3435.1,0.06422
3429.31,0.06078
3423.52,0.05613
3417.74,0.05223
3411.95,0.04831
3406.16,0.04489
3400.38,0.04184
3394.59,0.03926
3388.81,0.03665
3383.02,0.03464
3377.23,0.03352
3371.45,0.03178
3365.66,0.03124
3359.87,0.03122
3354.09,0.03043
3348.3,0.03047
3342.52,0.02945
3336.73,0.02822
3330.94,0.02871
3325.16,0.02838
3319.37,0.02856
3313.58,0.02838
3307.8,0.02815
3302.01,0.02865
3296.23,0.02859
3290.44,0.02870
3284.65,0.02872
3278.87,0.02916
3273.08,0.02906
3267.29,0.02905
3261.51,0.03014
3255.72,0.03082
3249.94,0.03125
3244.15,0.03239
3238.36,0.03274
3232.58,0.03457
3226.79,0.03576
3221,0.03628
3215.22,0.03751
3209.43,0.03812
3203.65,0.03870
3197.86,0.03784
3192.07,0.03858
3186.29,0.03919
3180.5,0.04093
3174.71,0.04371
3168.93,0.04432
3163.14,0.04617
3157.36,0.04660
3151.57,0.04714
3145.78,0.04711
3140,0.04613
3134.21,0.04530
3128.42,0.04439
3122.64,0.04504
3116.85,0.04640
3111.07,0.04647
3105.28,0.04660
3099.49,0.04797
3093.71,0.04778
3087.92,0.04638
3082.14,0.04574
3076.35,0.04447
3070.56,0.04397
3064.78,0.04331
3058.99,0.04270
3053.2,0.04256
3047.42,0.04290
3041.63,0.04223
3035.85,0.04127
3030.06,0.04057
3024.27,0.04051
3018.49,0.04114
3012.7,0.04011
3006.91,0.03695
3001.13,0.03410
2995.34,0.03070
2989.56,0.02866
2983.77,0.02695
2977.98,0.02702
2972.2,0.02648
2966.41,0.02706
2960.62,0.02730
2954.84,0.02761
2949.05,0.02701
2943.27,0.02647
2937.48,0.02587
2931.69,0.02586
2925.91,0.02598
2920.12,0.02636
2914.33,0.02633
2908.55,0.02661
2902.76,0.02671
2896.98,0.02688
2891.19,0.02722
2885.4,0.02681
2879.62,0.02676
2873.83,0.02718
2868.04,0.02750
2862.26,0.02760
2856.47,0.02787
2850.69,0.02821
2844.9,0.03011
2839.11,0.03240
2833.33,0.03436
2827.54,0.03640
2821.75,0.03774
2815.97,0.03884
2810.18,0.04046
2804.4,0.04071
2798.61,0.04179
2792.82,0.04265
2787.04,0.04388
2781.25,0.04472
2775.46,0.04601
2769.68,0.04709
2763.89,0.04882
2758.11,0.05022
2752.32,0.05188
2746.53,0.05365
2740.75,0.05461
2734.96,0.05599
2729.17,0.05758
2723.39,0.06087
2717.6,0.06442
2711.82,0.06866
2706.03,0.07147
2700.24,0.07464
2694.46,0.07846
2688.67,0.08182
2682.88,0.08462
2677.1,0.08687
2671.31,0.08775
2665.53,0.09013
2659.74,0.09301
2653.95,0.09508
2648.17,0.09610
2642.38,0.09725
2636.59,0.09933
2630.81,0.10226
2625.02,0.10627
2619.24,0.10914
2613.45,0.11057
2607.66,0.10976
2601.88,0.10808
2596.09,0.10750
2590.3,0.10767
2584.52,0.10939
2578.73,0.11296
2572.95,0.11892
2567.16,0.12539
2561.37,0.13037
2555.59,0.13439
2549.8,0.13740
2544.02,0.13972
2538.23,0.14141
2532.44,0.14083
2526.66,0.14083
2520.87,0.14151
2515.08,0.14133
2509.3,0.14234
2503.51,0.14396
2497.73,0.14620
2491.94,0.14883
2486.15,0.15161
2480.37,0.15421
2474.58,0.15637
2468.79,0.15885
2463.01,0.16097
2457.22,0.16280
2451.44,0.16510
2445.65,0.16811
2439.86,0.17083
2434.08,0.17340
2428.29,0.17559
2422.5,0.17750
2416.72,0.17840
2410.93,0.17752
2405.15,0.17660
2399.36,0.17603
2393.57,0.17428
2387.79,0.17335
2382,0.17191
2376.21,0.17128
2370.43,0.17069
2364.64,0.17044
2358.86,0.16985
2353.07,0.16964
2347.28,0.16903
2341.5,0.16831
2335.71,0.16787
2329.92,0.16693
2324.14,0.16436
2318.35,0.15984
2312.57,0.15356
2306.78,0.14678
2300.99,0.13912
2295.21,0.13210
2289.42,0.12413
2283.63,0.11625
2277.85,0.10973
2272.06,0.10650
2266.28,0.10887
2260.49,0.11418
2254.7,0.11927
2248.92,0.12111
2243.13,0.11867
2237.34,0.11752
2231.56,0.12466
2225.77,0.13188
2219.99,0.13561
2214.2,0.13722
2208.41,0.13902
2202.63,0.14039
2196.84,0.14155
2191.05,0.14239
2185.27,0.14290
2179.48,0.14296
2173.7,0.14285
2167.91,0.14272
2162.12,0.14264
2156.34,0.14293
2150.55,0.14371
2144.76,0.14429
2138.98,0.14480
2133.19,0.14570
2127.41,0.14659
2121.62,0.14796
2115.83,0.14897
2110.05,0.14905
2104.26,0.14863
2098.47,0.14789
2092.69,0.14641
2086.9,0.14463
2081.12,0.14383
2075.33,0.14228
2069.54,0.14170
2063.76,0.14106
2057.97,0.14011
2052.19,0.13932
2046.4,0.13685
2040.61,0.13376
2034.83,0.13064
2029.04,0.12771
2023.25,0.12540
2017.47,0.12443
2011.68,0.12407
2005.9,0.12406
2000.11,0.12438
1994.32,0.12462
1988.54,0.12453
1982.75,0.12445
1976.96,0.12359
1971.18,0.12308
1965.39,0.12210
1959.61,0.12111
1953.82,0.12071
1948.03,0.12077
1942.25,0.12148
1936.46,0.12146
1930.67,0.12042
1924.89,0.11985
1919.1,0.11851
1913.32,0.11691
1907.53,0.11633
1901.74,0.11683
1895.96,0.11781
1890.17,0.11988
1884.38,0.12220
1878.6,0.12396
1872.81,0.12609
1867.03,0.12817
1861.24,0.12856
1855.45,0.12836
1849.67,0.12631
1843.88,0.12350
1838.09,0.11969
1832.31,0.11577
1826.52,0.11153
1820.74,0.10686
1814.95,0.10227
1809.16,0.09661
1803.38,0.09004
1797.59,0.08384
1791.8,0.08027
1786.02,0.07804
1780.23,0.07518
1774.45,0.07193
1768.66,0.06609
1762.87,0.05891
1757.09,0.04852
1751.3,0.03781
1745.51,0.02890
1739.73,0.02527
1733.94,0.02498
1728.16,0.02458
1722.37,0.02559
1716.58,0.02657
1710.8,0.02592
1705.01,0.02664
1699.22,0.02728
1693.44,0.02699
1687.65,0.02757
1681.87,0.02675
1676.08,0.02727
1670.29,0.02755
1664.51,0.02682
1658.72,0.02687
1652.93,0.02725
1647.15,0.02766
1641.36,0.02796
1635.58,0.02852
1629.79,0.02876
1624,0.02798
1618.22,0.02638
1612.43,0.02553
1606.64,0.02470
1600.86,0.02446
1595.07,0.02534
1589.29,0.02622
1583.5,0.02765
1577.71,0.02875
1571.93,0.02783
1566.14,0.02650
1560.35,0.02562
1554.57,0.02371
1548.78,0.02413
1543,0.02449
1537.21,0.02482
1531.42,0.02604
1525.64,0.02715
1519.85,0.02690
1514.07,0.02722
1508.28,0.02818
1502.49,0.02907
1496.71,0.02963
1490.92,0.03001
1485.13,0.02940
1479.35,0.02856
1473.56,0.02843
1467.78,0.02769
1461.99,0.02741
1456.2,0.02687
1450.42,0.02720
1444.63,0.02809
1438.84,0.02910
1433.06,0.03039
1427.27,0.03048
1421.49,0.02891
1415.7,0.02749
1409.91,0.02744
1404.13,0.02872
1398.34,0.02930
1392.55,0.02807
1386.77,0.02737
1380.98,0.02619
1375.2,0.02586
1369.41,0.02715
1363.62,0.02861
1357.84,0.02883
1352.05,0.02788
1346.26,0.02740
1340.48,0.02737
1334.69,0.02740
1328.91,0.02713
1323.12,0.02615
1317.33,0.02560
1311.55,0.02520
1305.76,0.02562
1299.97,0.02597
1294.19,0.02604
1288.4,0.02618
1282.62,0.02592
1276.83,0.02582
1271.04,0.02552
1265.26,0.02507
1259.47,0.02483
1253.68,0.02427
1247.9,0.02416
1242.11,0.02411
1236.33,0.02373
1230.54,0.02454
1224.75,0.02585
1218.97,0.02646
1213.18,0.02684
1207.39,0.02660
1201.61,0.02692
1195.82,0.02688
1190.04,0.02636
1184.25,0.02602
1178.46,0.02476
1172.68,0.02406
1166.89,0.02359
1161.1,0.02321
1155.32,0.02289
1149.53,0.02250
1143.75,0.02278
1137.96,0.02315
1132.17,0.02374
1126.39,0.02374
1120.6,0.02400
1114.81,0.02574
1109.03,0.02754
1103.24,0.02843
1097.46,0.02984
1091.67,0.03012
1085.88,0.03123
1080.1,0.03158
1074.31,0.03205
1068.52,0.03235
1062.74,0.03242
1056.95,0.03226
1051.17,0.03260
1045.38,0.03280
1039.59,0.03308
1033.81,0.03374
1028.02,0.03363
1022.24,0.03303
1016.45,0.03328
1010.66,0.03364
1004.88,0.03411
999.09,0.03586
993.304,0.03817
987.518,0.04015
981.731,0.04166
975.945,0.04190
970.159,0.04059
964.373,0.04045
958.586,0.04058
952.8,0.04071
947.014,0.03893
941.228,0.03606
935.441,0.03511
929.655,0.03489
923.869,0.03494
918.083,0.03606
912.297,0.03691
906.51,0.03832
900.724,0.04075
894.938,0.04260
889.152,0.04285
883.365,0.04157
877.579,0.03952
871.793,0.03843
866.007,0.03796
860.22,0.03804
854.434,0.03823
848.648,0.03805
842.862,0.03798
837.075,0.03758
831.289,0.03640
825.503,0.03537
819.717,0.03382
813.931,0.03462
808.144,0.03671
802.358,0.03920
796.572,0.04005
790.786,0.04028
784.999,0.04050
779.213,0.03952
773.427,0.03700
767.641,0.03559
761.854,0.03656
756.068,0.03724
750.282,0.03856
744.496,0.04129
738.709,0.04324
732.923,0.04213
727.137,0.04302
721.351,0.04110
715.565,0.03850
709.778,0.03619
703.992,0.03621
698.206,0.03825
692.42,0.03828
686.633,0.03686
680.847,0.03568
675.061,0.03552
669.275,0.03501
663.488,0.03440
657.702,0.03523
651.916,0.03652
646.13,0.03769
640.343,0.03714
634.557,0.03760
628.771,0.03927
622.985,0.03870
617.198,0.03834
611.412,0.03816
605.626,0.03856
599.84,0.03856