File: 01_Data/Memory_Foam_Carpet_Pad/FTIR/IS/Memory_Foam_Carpet_Pad_IS_S_221003_R5.dpt
7497.03,0.71708
7491.25,0.72342
7485.46,0.72483
7479.67,0.71498
7473.89,0.71858
7468.1,0.72301
7462.32,0.72305
7456.53,0.71795
7450.74,0.71453
7444.96,0.71080
7439.17,0.70561
7433.38,0.70669
7427.6,0.71050
7421.81,0.71114
7416.03,0.69726
7410.24,0.69489
7404.45,0.70099
7398.67,0.69305
7392.88,0.67996
7387.09,0.67853
7381.31,0.67327
7375.52,0.67207
7369.74,0.66911
7363.95,0.66822
7358.16,0.67185
7352.38,0.66914
7346.59,0.66181
7340.8,0.66740
7335.02,0.65985
7329.23,0.65517
7323.45,0.65150
7317.66,0.65187
7311.87,0.66324
7306.09,0.65129
7300.3,0.65030
7294.51,0.64979
7288.73,0.63957
7282.94,0.63241
7277.16,0.62577
7271.37,0.62283
7265.58,0.62836
7259.8,0.62802
7254.01,0.61707
7248.22,0.61726
7242.44,0.62287
7236.65,0.61986
7230.87,0.61434
7225.08,0.61861
7219.29,0.61159
7213.51,0.61557
7207.72,0.61035
7201.93,0.61878
7196.15,0.60778
7190.36,0.61648
7184.58,0.61005
7178.79,0.60775
7173,0.61177
7167.22,0.61092
7161.43,0.60948
7155.65,0.61048
7149.86,0.61959
7144.07,0.61475
7138.29,0.61591
7132.5,0.62442
7126.71,0.62902
7120.93,0.62420
7115.14,0.62543
7109.36,0.62372
7103.57,0.62063
7097.78,0.62178
7092,0.60926
7086.21,0.62302
7080.42,0.61821
7074.64,0.61894
7068.85,0.61923
7063.07,0.62088
7057.28,0.62158
7051.49,0.62285
7045.71,0.62948
7039.92,0.62872
7034.13,0.62212
7028.35,0.62710
7022.56,0.62617
7016.78,0.62599
7010.99,0.61873
7005.2,0.61541
6999.42,0.61435
6993.63,0.62273
6987.84,0.62055
6982.06,0.62170
6976.27,0.61503
6970.49,0.61797
6964.7,0.61879
6958.91,0.61755
6953.13,0.62223
6947.34,0.62240
6941.55,0.62548
6935.77,0.63459
6929.98,0.62667
6924.2,0.63152
6918.41,0.63007
6912.62,0.62749
6906.84,0.63029
6901.05,0.62938
6895.26,0.63200
6889.48,0.63475
6883.69,0.63234
6877.91,0.63255
6872.12,0.64165
6866.33,0.63816
6860.55,0.63541
6854.76,0.63640
6848.97,0.63846
6843.19,0.63570
6837.4,0.63547
6831.62,0.63906
6825.83,0.64097
6820.04,0.63965
6814.26,0.64173
6808.47,0.63353
6802.68,0.63197
6796.9,0.62544
6791.11,0.62696
6785.33,0.62100
6779.54,0.61901
6773.75,0.62053
6767.97,0.61705
6762.18,0.61857
6756.39,0.61373
6750.61,0.61155
6744.82,0.61427
6739.04,0.61068
6733.25,0.61089
6727.46,0.60898
6721.68,0.60868
6715.89,0.60445
6710.1,0.59892
6704.32,0.59907
6698.53,0.59598
6692.75,0.59718
6686.96,0.59733
6681.17,0.59743
6675.39,0.59498
6669.6,0.59392
6663.82,0.59148
6658.03,0.59425
6652.24,0.59667
6646.46,0.59576
6640.67,0.59547
6634.88,0.59788
6629.1,0.59583
6623.31,0.59797
6617.53,0.59810
6611.74,0.59474
6605.95,0.59573
6600.17,0.59895
6594.38,0.60279
6588.59,0.60211
6582.81,0.60480
6577.02,0.60497
6571.24,0.60423
6565.45,0.60681
6559.66,0.61232
6553.88,0.61358
6548.09,0.61164
6542.3,0.61958
6536.52,0.62011
6530.73,0.62347
6524.95,0.62914
6519.16,0.62939
6513.37,0.63063
6507.59,0.63165
6501.8,0.63525
6496.01,0.63371
6490.23,0.63616
6484.44,0.64345
6478.66,0.63847
6472.87,0.64395
6467.08,0.63951
6461.3,0.64147
6455.51,0.64476
6449.72,0.64758
6443.94,0.64768
6438.15,0.64907
6432.37,0.64912
6426.58,0.64562
6420.79,0.64439
6415.01,0.64771
6409.22,0.64795
6403.43,0.64751
6397.65,0.65207
6391.86,0.65152
6386.08,0.65456
6380.29,0.64963
6374.5,0.65239
6368.72,0.65642
6362.93,0.65390
6357.14,0.65551
6351.36,0.65204
6345.57,0.65186
6339.79,0.65079
6334,0.65682
6328.21,0.65310
6322.43,0.65745
6316.64,0.65294
6310.85,0.65272
6305.07,0.65515
6299.28,0.65078
6293.5,0.65236
6287.71,0.65265
6281.92,0.65256
6276.14,0.65336
6270.35,0.65014
6264.56,0.65501
6258.78,0.65348
6252.99,0.65458
6247.21,0.65127
6241.42,0.65160
6235.63,0.65335
6229.85,0.65339
6224.06,0.65097
6218.27,0.65386
6212.49,0.65277
6206.7,0.64957
6200.92,0.65251
6195.13,0.65010
6189.34,0.64694
6183.56,0.64553
6177.77,0.64302
6171.98,0.64309
6166.2,0.63756
6160.41,0.63977
6154.63,0.63489
6148.84,0.62978
6143.05,0.63231
6137.27,0.62833
6131.48,0.62140
6125.7,0.61826
6119.91,0.61319
6114.12,0.60958
6108.34,0.60313
6102.55,0.59878
6096.76,0.59744
6090.98,0.58932
6085.19,0.59043
6079.41,0.58400
6073.62,0.58315
6067.83,0.57946
6062.05,0.58150
6056.26,0.57944
6050.47,0.57751
6044.69,0.57798
6038.9,0.57507
6033.12,0.57273
6027.33,0.56474
6021.54,0.55958
6015.76,0.55464
6009.97,0.54891
6004.18,0.54027
5998.4,0.53150
5992.61,0.52333
5986.83,0.51411
5981.04,0.50056
5975.25,0.48710
5969.47,0.47234
5963.68,0.45570
5957.89,0.44074
5952.11,0.42590
5946.32,0.41666
5940.54,0.41018
5934.75,0.41440
5928.96,0.41764
5923.18,0.41929
5917.39,0.41285
5911.6,0.40524
5905.82,0.39890
5900.03,0.39441
5894.25,0.40306
5888.46,0.41127
5882.67,0.41752
5876.89,0.42395
5871.1,0.42550
5865.31,0.42670
5859.53,0.42646
5853.74,0.42466
5847.96,0.42229
5842.17,0.41718
5836.38,0.41431
5830.6,0.40947
5824.81,0.40231
5819.02,0.40168
5813.24,0.39535
5807.45,0.39147
5801.67,0.38829
5795.88,0.38510
5790.09,0.38099
5784.31,0.37887
5778.52,0.37612
5772.73,0.37513
5766.95,0.37670
5761.16,0.38418
5755.38,0.38774
5749.59,0.39083
5743.8,0.39725
5738.02,0.40216
5732.23,0.40935
5726.44,0.41656
5720.66,0.42242
5714.87,0.42797
5709.09,0.43129
5703.3,0.43456
5697.51,0.43573
5691.73,0.43585
5685.94,0.43877
5680.15,0.43563
5674.37,0.43530
5668.58,0.43698
5662.8,0.43453
5657.01,0.43827
5651.22,0.44142
5645.44,0.44445
5639.65,0.44975
5633.87,0.45372
5628.08,0.45860
5622.29,0.46255
5616.51,0.46484
5610.72,0.46779
5604.93,0.46951
5599.15,0.47198
5593.36,0.47201
5587.58,0.47172
5581.79,0.47101
5576,0.47062
5570.22,0.47193
5564.43,0.47033
5558.64,0.47227
5552.86,0.47085
5547.07,0.47184
5541.29,0.47122
5535.5,0.47133
5529.71,0.47292
5523.93,0.47347
5518.14,0.47350
5512.35,0.47548
5506.57,0.47866
5500.78,0.48104
5495,0.48234
5489.21,0.48357
5483.42,0.48370
5477.64,0.48538
5471.85,0.48762
5466.06,0.48814
5460.28,0.48729
5454.49,0.48919
5448.71,0.49221
5442.92,0.49289
5437.13,0.49331
5431.35,0.49730
5425.56,0.49914
5419.77,0.50605
5413.99,0.51125
5408.2,0.51617
5402.42,0.51923
5396.63,0.52366
5390.84,0.52666
5385.06,0.52833
5379.27,0.53061
5373.48,0.53165
5367.7,0.53370
5361.91,0.53503
5356.13,0.53714
5350.34,0.53592
5344.55,0.53825
5338.77,0.53787
5332.98,0.53915
5327.19,0.54072
5321.41,0.54251
5315.62,0.54191
5309.84,0.54284
5304.05,0.54306
5298.26,0.54287
5292.48,0.54046
5286.69,0.53754
5280.9,0.53558
5275.12,0.53243
5269.33,0.53092
5263.55,0.52677
5257.76,0.52471
5251.97,0.52242
5246.19,0.52072
5240.4,0.51797
5234.61,0.51551
5228.83,0.51574
5223.04,0.51345
5217.26,0.51168
5211.47,0.51207
5205.68,0.51114
5199.9,0.51228
5194.11,0.51100
5188.32,0.51207
5182.54,0.51169
5176.75,0.51194
5170.97,0.51249
5165.18,0.51333
5159.39,0.51467
5153.61,0.51336
5147.82,0.51338
5142.03,0.51387
5136.25,0.51218
5130.46,0.51331
5124.68,0.51590
5118.89,0.51400
5113.1,0.51512
5107.32,0.51363
5101.53,0.51323
5095.75,0.51198
5089.96,0.51288
5084.17,0.51017
5078.39,0.50560
5072.6,0.50462
5066.81,0.50267
5061.03,0.49965
5055.24,0.49815
5049.46,0.49564
5043.67,0.49336
5037.88,0.49109
5032.1,0.48824
5026.31,0.48644
5020.52,0.48350
5014.74,0.47939
5008.95,0.47441
5003.17,0.46971
4997.38,0.46246
4991.59,0.45553
4985.81,0.44715
4980.02,0.43852
4974.23,0.43243
4968.45,0.42410
4962.66,0.41805
4956.88,0.41027
4951.09,0.40413
4945.3,0.39862
4939.52,0.39282
4933.73,0.38763
4927.94,0.38126
4922.16,0.37747
4916.37,0.37372
4910.59,0.36874
4904.8,0.36627
4899.01,0.36360
4893.23,0.36120
4887.44,0.36014
4881.65,0.35957
4875.87,0.35789
4870.08,0.35851
4864.3,0.35861
4858.51,0.35944
4852.72,0.35990
4846.94,0.36200
4841.15,0.36461
4835.36,0.36786
4829.58,0.37075
4823.79,0.37471
4818.01,0.37946
4812.22,0.38480
4806.43,0.38872
4800.65,0.39367
4794.86,0.39846
4789.07,0.40319
4783.29,0.40609
4777.5,0.40874
4771.72,0.41084
4765.93,0.41269
4760.14,0.41634
4754.36,0.41716
4748.57,0.41694
4742.78,0.41570
4737,0.41513
4731.21,0.41140
4725.43,0.40753
4719.64,0.40315
4713.85,0.39850
4708.07,0.39532
4702.28,0.39160
4696.49,0.38912
4690.71,0.38682
4684.92,0.38186
4679.14,0.37925
4673.35,0.37352
4667.56,0.37064
4661.78,0.36872
4655.99,0.36646
4650.2,0.36206
4644.42,0.35751
4638.63,0.35248
4632.85,0.34801
4627.06,0.34706
4621.27,0.34830
4615.49,0.34949
4609.7,0.35208
4603.92,0.35471
4598.13,0.35731
4592.34,0.35787
4586.56,0.35856
4580.77,0.35740
4574.98,0.35720
4569.2,0.35736
4563.41,0.35851
4557.63,0.35894
4551.84,0.35955
4546.05,0.36015
4540.27,0.36024
4534.48,0.35965
4528.69,0.35936
4522.91,0.35726
4517.12,0.35612
4511.34,0.35620
4505.55,0.35563
4499.76,0.35352
4493.98,0.35052
4488.19,0.34861
4482.4,0.34315
4476.62,0.33646
4470.83,0.32895
4465.05,0.31857
4459.26,0.30538
4453.47,0.29010
4447.69,0.27225
4441.9,0.25359
4436.11,0.23354
4430.33,0.21505
4424.54,0.20029
4418.76,0.18872
4412.97,0.18084
4407.18,0.18199
4401.4,0.18690
4395.61,0.19015
4389.82,0.18900
4384.04,0.18477
4378.25,0.17824
4372.47,0.17143
4366.68,0.16352
4360.89,0.15475
4355.11,0.14704
4349.32,0.13924
4343.53,0.13573
4337.75,0.13273
4331.96,0.13203
4326.18,0.13335
4320.39,0.13643
4314.6,0.14297
4308.82,0.15076
4303.03,0.15861
4297.24,0.16639
4291.46,0.16942
4285.67,0.17147
4279.89,0.17075
4274.1,0.17096
4268.31,0.17197
4262.53,0.17509
4256.74,0.17707
4250.95,0.17991
4245.17,0.18168
4239.38,0.18270
4233.6,0.18442
4227.81,0.18641
4222.02,0.18878
4216.24,0.19248
4210.45,0.19592
4204.66,0.19923
4198.88,0.20274
4193.09,0.20348
4187.31,0.20369
4181.52,0.20281
4175.73,0.20085
4169.95,0.19926
4164.16,0.19697
4158.37,0.19561
4152.59,0.19458
4146.8,0.19294
4141.02,0.19313
4135.23,0.19234
4129.44,0.19244
4123.66,0.19040
4117.87,0.18881
4112.09,0.18556
4106.3,0.18241
4100.51,0.18007
4094.73,0.17637
4088.94,0.17176
4083.15,0.16728
4077.37,0.16351
4071.58,0.15804
4065.8,0.15387
4060.01,0.15063
4054.22,0.14829
4048.44,0.14767
4042.65,0.14749
4036.86,0.14713
4031.08,0.14674
4025.29,0.14734
4019.51,0.14818
4013.72,0.14934
4007.93,0.15021
4002.15,0.15214
3996.36,0.15262
3990.57,0.15559
3984.79,0.15845
3979,0.16223
3973.22,0.16537
3967.43,0.16893
3961.64,0.17293
3955.86,0.17712
3950.07,0.18262
3944.28,0.18742
3938.5,0.19334
3932.71,0.19941
3926.93,0.20460
3921.14,0.21016
3915.35,0.21472
3909.57,0.21873
3903.78,0.22194
3897.99,0.22452
3892.21,0.22571
3886.42,0.22762
3880.64,0.22967
3874.85,0.23082
3869.06,0.23150
3863.28,0.23186
3857.49,0.23219
3851.7,0.23380
3845.92,0.23500
3840.13,0.23753
3834.35,0.23925
3828.56,0.24211
3822.77,0.24350
3816.99,0.24615
3811.2,0.24685
3805.41,0.24731
3799.63,0.24822
3793.84,0.25032
3788.06,0.25295
3782.27,0.25571
3776.48,0.25895
3770.7,0.26421
3764.91,0.26931
3759.12,0.27463
3753.34,0.27950
3747.55,0.28420
3741.77,0.28728
3735.98,0.29151
3730.19,0.29383
3724.41,0.29600
3718.62,0.29838
3712.83,0.29941
3707.05,0.29841
3701.26,0.29751
3695.48,0.29457
3689.69,0.29081
3683.9,0.28479
3678.12,0.27966
3672.33,0.27185
3666.54,0.26458
3660.76,0.25713
3654.97,0.24922
3649.19,0.24104
3643.4,0.23252
3637.61,0.22494
3631.83,0.21864
3626.04,0.21054
3620.25,0.20356
3614.47,0.19593
3608.68,0.18873
3602.9,0.18150
3597.11,0.17326
3591.32,0.16698
3585.54,0.16107
3579.75,0.15660
3573.97,0.15218
3568.18,0.14781
3562.39,0.14349
3556.61,0.13932
3550.82,0.13420
3545.03,0.13039
3539.25,0.12531
3533.46,0.12020
3527.68,0.11669
3521.89,0.11276
3516.1,0.10932
3510.32,0.10669
3504.53,0.10413
3498.74,0.10181
3492.96,0.09935
3487.17,0.09760
3481.39,0.09467
3475.6,0.09082
3469.81,0.08580
3464.03,0.07890
3458.24,0.07393
3452.45,0.07150
3446.67,0.06975
3440.88,0.06728
3435.1,0.06451
3429.31,0.06077
3423.52,0.05643
3417.74,0.05237
3411.95,0.04880
3406.16,0.04561
3400.38,0.04206
3394.59,0.03892
3388.81,0.03681
3383.02,0.03420
3377.23,0.03275
3371.45,0.03189
3365.66,0.03067
3359.87,0.03074
3354.09,0.03056
3348.3,0.02898
3342.52,0.02899
3336.73,0.02957
3330.94,0.02878
3325.16,0.02846
3319.37,0.02808
3313.58,0.02855
3307.8,0.02848
3302.01,0.02780
3296.23,0.02797
3290.44,0.02751
3284.65,0.02865
3278.87,0.02927
3273.08,0.02894
3267.29,0.02917
3261.51,0.03023
3255.72,0.03127
3249.94,0.03172
3244.15,0.03302
3238.36,0.03370
3232.58,0.03443
3226.79,0.03525
3221,0.03648
3215.22,0.03679
3209.43,0.03766
3203.65,0.03835
3197.86,0.03813
3192.07,0.03838
3186.29,0.03926
3180.5,0.04102
3174.71,0.04302
3168.93,0.04449
3163.14,0.04611
3157.36,0.04660
3151.57,0.04753
3145.78,0.04744
3140,0.04695
3134.21,0.04568
3128.42,0.04489
3122.64,0.04474
3116.85,0.04595
3111.07,0.04710
3105.28,0.04685
3099.49,0.04755
3093.71,0.04785
3087.92,0.04672
3082.14,0.04570
3076.35,0.04503
3070.56,0.04364
3064.78,0.04247
3058.99,0.04220
3053.2,0.04294
3047.42,0.04255
3041.63,0.04236
3035.85,0.04162
3030.06,0.04043
3024.27,0.04047
3018.49,0.04100
3012.7,0.04057
3006.91,0.03766
3001.13,0.03417
2995.34,0.03055
2989.56,0.02826
2983.77,0.02728
2977.98,0.02637
2972.2,0.02662
2966.41,0.02722
2960.62,0.02761
2954.84,0.02756
2949.05,0.02742
2943.27,0.02638
2937.48,0.02590
2931.69,0.02547
2925.91,0.02542
2920.12,0.02590
2914.33,0.02636
2908.55,0.02593
2902.76,0.02674
2896.98,0.02694
2891.19,0.02712
2885.4,0.02701
2879.62,0.02703
2873.83,0.02708
2868.04,0.02714
2862.26,0.02768
2856.47,0.02819
2850.69,0.02893
2844.9,0.03054
2839.11,0.03217
2833.33,0.03401
2827.54,0.03653
2821.75,0.03804
2815.97,0.03963
2810.18,0.04036
2804.4,0.04099
2798.61,0.04172
2792.82,0.04229
2787.04,0.04377
2781.25,0.04483
2775.46,0.04613
2769.68,0.04806
2763.89,0.04936
2758.11,0.05044
2752.32,0.05234
2746.53,0.05334
2740.75,0.05460
2734.96,0.05627
2729.17,0.05853
2723.39,0.06144
2717.6,0.06533
2711.82,0.06846
2706.03,0.07153
2700.24,0.07452
2694.46,0.07839
2688.67,0.08227
2682.88,0.08487
2677.1,0.08687
2671.31,0.08820
2665.53,0.09036
2659.74,0.09321
2653.95,0.09566
2648.17,0.09693
2642.38,0.09767
2636.59,0.09958
2630.81,0.10265
2625.02,0.10703
2619.24,0.10980
2613.45,0.11105
2607.66,0.11034
2601.88,0.10891
2596.09,0.10828
2590.3,0.10797
2584.52,0.10986
2578.73,0.11347
2572.95,0.11906
2567.16,0.12601
2561.37,0.13148
2555.59,0.13522
2549.8,0.13780
2544.02,0.14023
2538.23,0.14191
2532.44,0.14166
2526.66,0.14164
2520.87,0.14196
2515.08,0.14236
2509.3,0.14302
2503.51,0.14496
2497.73,0.14689
2491.94,0.14939
2486.15,0.15216
2480.37,0.15475
2474.58,0.15715
2468.79,0.15959
2463.01,0.16223
2457.22,0.16337
2451.44,0.16603
2445.65,0.16884
2439.86,0.17161
2434.08,0.17433
2428.29,0.17680
2422.5,0.17801
2416.72,0.17931
2410.93,0.17858
2405.15,0.17792
2399.36,0.17675
2393.57,0.17540
2387.79,0.17379
2382,0.17278
2376.21,0.17189
2370.43,0.17147
2364.64,0.17079
2358.86,0.17027
2353.07,0.16991
2347.28,0.16955
2341.5,0.16854
2335.71,0.16840
2329.92,0.16750
2324.14,0.16502
2318.35,0.16064
2312.57,0.15430
2306.78,0.14750
2300.99,0.14011
2295.21,0.13246
2289.42,0.12496
2283.63,0.11684
2277.85,0.11030
2272.06,0.10707
2266.28,0.10925
2260.49,0.11470
2254.7,0.11945
2248.92,0.12138
2243.13,0.11905
2237.34,0.11773
2231.56,0.12554
2225.77,0.13290
2219.99,0.13581
2214.2,0.13776
2208.41,0.13948
2202.63,0.14101
2196.84,0.14176
2191.05,0.14278
2185.27,0.14327
2179.48,0.14377
2173.7,0.14373
2167.91,0.14346
2162.12,0.14328
2156.34,0.14362
2150.55,0.14412
2144.76,0.14501
2138.98,0.14574
2133.19,0.14632
2127.41,0.14740
2121.62,0.14863
2115.83,0.14966
2110.05,0.14968
2104.26,0.14905
2098.47,0.14803
2092.69,0.14673
2086.9,0.14543
2081.12,0.14377
2075.33,0.14255
2069.54,0.14209
2063.76,0.14159
2057.97,0.14050
2052.19,0.13938
2046.4,0.13722
2040.61,0.13428
2034.83,0.13150
2029.04,0.12824
2023.25,0.12645
2017.47,0.12531
2011.68,0.12434
2005.9,0.12462
2000.11,0.12502
1994.32,0.12522
1988.54,0.12520
1982.75,0.12472
1976.96,0.12415
1971.18,0.12333
1965.39,0.12267
1959.61,0.12179
1953.82,0.12155
1948.03,0.12166
1942.25,0.12198
1936.46,0.12184
1930.67,0.12111
1924.89,0.11980
1919.1,0.11904
1913.32,0.11740
1907.53,0.11688
1901.74,0.11765
1895.96,0.11880
1890.17,0.12092
1884.38,0.12284
1878.6,0.12467
1872.81,0.12638
1867.03,0.12843
1861.24,0.12936
1855.45,0.12874
1849.67,0.12684
1843.88,0.12412
1838.09,0.12056
1832.31,0.11634
1826.52,0.11217
1820.74,0.10766
1814.95,0.10264
1809.16,0.09695
1803.38,0.09041
1797.59,0.08444
1791.8,0.08096
1786.02,0.07892
1780.23,0.07528
1774.45,0.07199
1768.66,0.06647
1762.87,0.05914
1757.09,0.04909
1751.3,0.03758
1745.51,0.02880
1739.73,0.02504
1733.94,0.02453
1728.16,0.02499
1722.37,0.02523
1716.58,0.02575
1710.8,0.02632
1705.01,0.02703
1699.22,0.02639
1693.44,0.02664
1687.65,0.02708
1681.87,0.02695
1676.08,0.02702
1670.29,0.02689
1664.51,0.02697
1658.72,0.02662
1652.93,0.02737
1647.15,0.02744
1641.36,0.02790
1635.58,0.02856
1629.79,0.02841
1624,0.02759
1618.22,0.02634
1612.43,0.02520
1606.64,0.02499
1600.86,0.02485
1595.07,0.02505
1589.29,0.02648
1583.5,0.02770
1577.71,0.02855
1571.93,0.02805
1566.14,0.02642
1560.35,0.02473
1554.57,0.02348
1548.78,0.02322
1543,0.02449
1537.21,0.02516
1531.42,0.02618
1525.64,0.02669
1519.85,0.02660
1514.07,0.02724
1508.28,0.02866
1502.49,0.02886
1496.71,0.02963
1490.92,0.03004
1485.13,0.02925
1479.35,0.02880
1473.56,0.02826
1467.78,0.02769
1461.99,0.02710
1456.2,0.02657
1450.42,0.02732
1444.63,0.02823
1438.84,0.02878
1433.06,0.03001
1427.27,0.03020
1421.49,0.02924
1415.7,0.02739
1409.91,0.02752
1404.13,0.02846
1398.34,0.02920
1392.55,0.02828
1386.77,0.02696
1380.98,0.02566
1375.2,0.02576
1369.41,0.02699
1363.62,0.02879
1357.84,0.02901
1352.05,0.02797
1346.26,0.02723
1340.48,0.02728
1334.69,0.02762
1328.91,0.02683
1323.12,0.02629
1317.33,0.02541
1311.55,0.02506
1305.76,0.02497
1299.97,0.02538
1294.19,0.02583
1288.4,0.02581
1282.62,0.02591
1276.83,0.02556
1271.04,0.02549
1265.26,0.02505
1259.47,0.02505
1253.68,0.02464
1247.9,0.02349
1242.11,0.02368
1236.33,0.02397
1230.54,0.02469
1224.75,0.02575
1218.97,0.02674
1213.18,0.02677
1207.39,0.02648
1201.61,0.02679
1195.82,0.02663
1190.04,0.02600
1184.25,0.02529
1178.46,0.02495
1172.68,0.02435
1166.89,0.02355
1161.1,0.02368
1155.32,0.02322
1149.53,0.02273
1143.75,0.02229
1137.96,0.02265
1132.17,0.02323
1126.39,0.02361
1120.6,0.02469
1114.81,0.02583
1109.03,0.02695
1103.24,0.02830
1097.46,0.02860
1091.67,0.03018
1085.88,0.03065
1080.1,0.03100
1074.31,0.03156
1068.52,0.03199
1062.74,0.03197
1056.95,0.03236
1051.17,0.03297
1045.38,0.03232
1039.59,0.03246
1033.81,0.03341
1028.02,0.03356
1022.24,0.03271
1016.45,0.03233
1010.66,0.03431
1004.88,0.03451
999.09,0.03535
993.304,0.03820
987.518,0.04050
981.731,0.04209
975.945,0.04145
970.159,0.04021
964.373,0.04048
958.586,0.04063
952.8,0.04053
947.014,0.03909
941.228,0.03673
935.441,0.03502
929.655,0.03400
923.869,0.03526
918.083,0.03612
912.297,0.03635
906.51,0.03744
900.724,0.04102
894.938,0.04253
889.152,0.04295
883.365,0.04111
877.579,0.03981
871.793,0.03831
866.007,0.03853
860.22,0.03782
854.434,0.03778
848.648,0.03779
842.862,0.03838
837.075,0.03741
831.289,0.03613
825.503,0.03485
819.717,0.03439
813.931,0.03428
808.144,0.03636
802.358,0.03894
796.572,0.04048
790.786,0.04201
784.999,0.04086
779.213,0.03926
773.427,0.03750
767.641,0.03545
761.854,0.03585
756.068,0.03622
750.282,0.03937
744.496,0.04107
738.709,0.04258
732.923,0.04209
727.137,0.04341
721.351,0.04136
715.565,0.03880
709.778,0.03684
703.992,0.03700
698.206,0.03685
692.42,0.03726
686.633,0.03724
680.847,0.03696
675.061,0.03565
669.275,0.03509
663.488,0.03456
657.702,0.03580
651.916,0.03638
646.13,0.03797
640.343,0.03557
634.557,0.03767
628.771,0.03838
622.985,0.03911
617.198,0.03973
611.412,0.03655
605.626,0.03708
599.84,0.04037