File: 01_Data/Memory_Foam_Carpet_Pad/FTIR/IS/Memory_Foam_Carpet_Pad_IS_S_221003_R8.dpt
7497.03,0.71843
7491.25,0.72305
7485.46,0.71579
7479.67,0.71527
7473.89,0.72693
7468.1,0.71809
7462.32,0.71181
7456.53,0.70652
7450.74,0.71343
7444.96,0.70113
7439.17,0.71052
7433.38,0.70222
7427.6,0.70458
7421.81,0.70808
7416.03,0.69479
7410.24,0.68792
7404.45,0.68891
7398.67,0.68363
7392.88,0.68268
7387.09,0.67492
7381.31,0.67372
7375.52,0.66466
7369.74,0.66193
7363.95,0.66347
7358.16,0.66191
7352.38,0.66501
7346.59,0.66684
7340.8,0.66779
7335.02,0.66042
7329.23,0.64802
7323.45,0.65563
7317.66,0.65114
7311.87,0.65421
7306.09,0.65563
7300.3,0.64976
7294.51,0.64740
7288.73,0.64044
7282.94,0.63327
7277.16,0.63143
7271.37,0.62798
7265.58,0.63083
7259.8,0.63170
7254.01,0.61906
7248.22,0.61938
7242.44,0.62173
7236.65,0.61605
7230.87,0.60924
7225.08,0.61930
7219.29,0.61365
7213.51,0.60973
7207.72,0.60619
7201.93,0.61110
7196.15,0.60404
7190.36,0.61430
7184.58,0.60892
7178.79,0.61321
7173,0.61109
7167.22,0.61262
7161.43,0.60879
7155.65,0.61166
7149.86,0.62078
7144.07,0.61759
7138.29,0.61524
7132.5,0.62569
7126.71,0.62556
7120.93,0.62695
7115.14,0.62106
7109.36,0.62136
7103.57,0.62353
7097.78,0.62012
7092,0.62003
7086.21,0.62416
7080.42,0.62187
7074.64,0.62424
7068.85,0.61623
7063.07,0.62246
7057.28,0.62140
7051.49,0.62110
7045.71,0.62377
7039.92,0.62284
7034.13,0.62496
7028.35,0.62131
7022.56,0.61878
7016.78,0.61856
7010.99,0.62117
7005.2,0.62632
6999.42,0.62093
6993.63,0.62216
6987.84,0.61978
6982.06,0.61554
6976.27,0.61730
6970.49,0.62082
6964.7,0.61612
6958.91,0.61910
6953.13,0.62272
6947.34,0.62458
6941.55,0.62373
6935.77,0.63028
6929.98,0.63113
6924.2,0.63677
6918.41,0.62603
6912.62,0.62865
6906.84,0.63540
6901.05,0.63395
6895.26,0.63329
6889.48,0.63255
6883.69,0.63493
6877.91,0.63789
6872.12,0.63716
6866.33,0.63519
6860.55,0.63230
6854.76,0.63658
6848.97,0.64364
6843.19,0.64021
6837.4,0.63871
6831.62,0.63827
6825.83,0.63465
6820.04,0.63234
6814.26,0.63949
6808.47,0.64031
6802.68,0.63533
6796.9,0.63051
6791.11,0.62412
6785.33,0.62745
6779.54,0.62758
6773.75,0.61460
6767.97,0.61329
6762.18,0.61343
6756.39,0.61936
6750.61,0.61555
6744.82,0.60742
6739.04,0.61122
6733.25,0.61194
6727.46,0.60863
6721.68,0.60551
6715.89,0.60451
6710.1,0.59916
6704.32,0.59811
6698.53,0.59666
6692.75,0.59796
6686.96,0.59366
6681.17,0.59295
6675.39,0.59294
6669.6,0.59165
6663.82,0.59754
6658.03,0.59861
6652.24,0.59194
6646.46,0.59034
6640.67,0.59286
6634.88,0.59704
6629.1,0.59472
6623.31,0.59838
6617.53,0.59648
6611.74,0.59864
6605.95,0.59804
6600.17,0.59760
6594.38,0.59468
6588.59,0.60244
6582.81,0.60287
6577.02,0.60346
6571.24,0.60591
6565.45,0.60808
6559.66,0.61104
6553.88,0.60886
6548.09,0.61632
6542.3,0.61583
6536.52,0.61832
6530.73,0.62099
6524.95,0.62349
6519.16,0.62447
6513.37,0.62831
6507.59,0.63359
6501.8,0.63566
6496.01,0.63845
6490.23,0.63756
6484.44,0.63521
6478.66,0.63905
6472.87,0.63933
6467.08,0.64183
6461.3,0.63931
6455.51,0.64632
6449.72,0.64242
6443.94,0.64505
6438.15,0.64710
6432.37,0.64657
6426.58,0.64922
6420.79,0.64836
6415.01,0.64614
6409.22,0.64900
6403.43,0.64497
6397.65,0.65005
6391.86,0.64861
6386.08,0.64949
6380.29,0.65255
6374.5,0.64863
6368.72,0.64926
6362.93,0.65277
6357.14,0.65561
6351.36,0.65125
6345.57,0.65420
6339.79,0.65403
6334,0.65485
6328.21,0.65565
6322.43,0.65232
6316.64,0.65101
6310.85,0.65555
6305.07,0.64988
6299.28,0.65235
6293.5,0.65261
6287.71,0.65279
6281.92,0.65217
6276.14,0.65322
6270.35,0.65421
6264.56,0.65043
6258.78,0.65220
6252.99,0.65258
6247.21,0.65360
6241.42,0.65304
6235.63,0.65123
6229.85,0.65481
6224.06,0.64992
6218.27,0.65168
6212.49,0.64881
6206.7,0.65014
6200.92,0.64755
6195.13,0.64912
6189.34,0.64822
6183.56,0.64504
6177.77,0.63987
6171.98,0.64157
6166.2,0.63909
6160.41,0.63492
6154.63,0.63381
6148.84,0.63095
6143.05,0.62570
6137.27,0.62618
6131.48,0.62209
6125.7,0.62058
6119.91,0.61129
6114.12,0.60945
6108.34,0.60408
6102.55,0.60122
6096.76,0.59513
6090.98,0.58659
6085.19,0.58580
6079.41,0.58248
6073.62,0.58195
6067.83,0.57963
6062.05,0.57815
6056.26,0.57852
6050.47,0.57568
6044.69,0.57209
6038.9,0.57237
6033.12,0.56882
6027.33,0.56187
6021.54,0.55957
6015.76,0.55188
6009.97,0.54504
6004.18,0.53915
5998.4,0.53099
5992.61,0.52128
5986.83,0.51098
5981.04,0.49784
5975.25,0.48849
5969.47,0.47298
5963.68,0.45612
5957.89,0.43866
5952.11,0.42658
5946.32,0.41460
5940.54,0.41287
5934.75,0.41278
5928.96,0.41581
5923.18,0.41995
5917.39,0.41349
5911.6,0.40442
5905.82,0.39570
5900.03,0.39452
5894.25,0.39925
5888.46,0.40988
5882.67,0.41903
5876.89,0.42480
5871.1,0.42431
5865.31,0.42643
5859.53,0.42614
5853.74,0.42320
5847.96,0.42061
5842.17,0.41503
5836.38,0.41052
5830.6,0.40871
5824.81,0.40390
5819.02,0.39911
5813.24,0.39235
5807.45,0.39209
5801.67,0.38597
5795.88,0.38082
5790.09,0.37628
5784.31,0.37697
5778.52,0.37447
5772.73,0.37361
5766.95,0.37609
5761.16,0.37977
5755.38,0.38557
5749.59,0.38934
5743.8,0.39567
5738.02,0.40199
5732.23,0.40762
5726.44,0.41574
5720.66,0.42091
5714.87,0.42629
5709.09,0.42793
5703.3,0.43287
5697.51,0.43707
5691.73,0.43748
5685.94,0.43750
5680.15,0.43503
5674.37,0.43458
5668.58,0.43324
5662.8,0.43681
5657.01,0.43556
5651.22,0.44081
5645.44,0.44565
5639.65,0.44969
5633.87,0.45311
5628.08,0.45786
5622.29,0.46265
5616.51,0.46415
5610.72,0.46809
5604.93,0.46886
5599.15,0.46758
5593.36,0.46967
5587.58,0.46947
5581.79,0.46970
5576,0.47169
5570.22,0.46951
5564.43,0.47103
5558.64,0.47099
5552.86,0.47042
5547.07,0.47030
5541.29,0.47101
5535.5,0.47057
5529.71,0.47045
5523.93,0.47384
5518.14,0.47301
5512.35,0.47725
5506.57,0.47726
5500.78,0.48062
5495,0.48192
5489.21,0.48556
5483.42,0.48456
5477.64,0.48659
5471.85,0.48657
5466.06,0.48562
5460.28,0.48732
5454.49,0.48585
5448.71,0.48834
5442.92,0.48942
5437.13,0.49153
5431.35,0.49579
5425.56,0.49928
5419.77,0.50384
5413.99,0.50916
5408.2,0.51419
5402.42,0.51861
5396.63,0.52327
5390.84,0.52541
5385.06,0.52668
5379.27,0.52865
5373.48,0.53176
5367.7,0.53296
5361.91,0.53528
5356.13,0.53470
5350.34,0.53681
5344.55,0.53663
5338.77,0.53847
5332.98,0.53953
5327.19,0.54119
5321.41,0.54001
5315.62,0.54345
5309.84,0.54439
5304.05,0.54281
5298.26,0.54178
5292.48,0.54081
5286.69,0.53997
5280.9,0.53701
5275.12,0.53289
5269.33,0.53176
5263.55,0.52962
5257.76,0.52614
5251.97,0.52513
5246.19,0.52238
5240.4,0.52275
5234.61,0.52052
5228.83,0.51783
5223.04,0.51632
5217.26,0.51564
5211.47,0.51451
5205.68,0.51683
5199.9,0.51571
5194.11,0.51493
5188.32,0.51707
5182.54,0.51732
5176.75,0.51730
5170.97,0.51595
5165.18,0.51608
5159.39,0.51664
5153.61,0.51602
5147.82,0.51659
5142.03,0.51568
5136.25,0.51603
5130.46,0.51557
5124.68,0.51735
5118.89,0.51641
5113.1,0.51737
5107.32,0.51563
5101.53,0.51430
5095.75,0.51352
5089.96,0.51099
5084.17,0.50973
5078.39,0.50775
5072.6,0.50499
5066.81,0.50260
5061.03,0.50138
5055.24,0.49871
5049.46,0.49582
5043.67,0.49350
5037.88,0.49053
5032.1,0.48730
5026.31,0.48513
5020.52,0.48209
5014.74,0.47858
5008.95,0.47364
5003.17,0.46881
4997.38,0.46237
4991.59,0.45536
4985.81,0.44734
4980.02,0.43944
4974.23,0.43063
4968.45,0.42280
4962.66,0.41569
4956.88,0.40941
4951.09,0.40356
4945.3,0.39671
4939.52,0.39310
4933.73,0.38669
4927.94,0.38134
4922.16,0.37732
4916.37,0.37159
4910.59,0.36774
4904.8,0.36406
4899.01,0.36158
4893.23,0.36046
4887.44,0.35877
4881.65,0.35943
4875.87,0.35866
4870.08,0.35870
4864.3,0.35862
4858.51,0.35822
4852.72,0.35941
4846.94,0.36093
4841.15,0.36429
4835.36,0.36695
4829.58,0.37003
4823.79,0.37452
4818.01,0.37994
4812.22,0.38483
4806.43,0.39018
4800.65,0.39313
4794.86,0.39773
4789.07,0.40210
4783.29,0.40532
4777.5,0.40866
4771.72,0.41127
4765.93,0.41440
4760.14,0.41532
4754.36,0.41606
4748.57,0.41722
4742.78,0.41523
4737,0.41296
4731.21,0.41126
4725.43,0.40751
4719.64,0.40198
4713.85,0.39861
4708.07,0.39397
4702.28,0.39100
4696.49,0.38908
4690.71,0.38475
4684.92,0.38068
4679.14,0.37792
4673.35,0.37306
4667.56,0.36934
4661.78,0.36571
4655.99,0.36475
4650.2,0.36085
4644.42,0.35632
4638.63,0.35182
4632.85,0.34861
4627.06,0.34673
4621.27,0.34841
4615.49,0.34990
4609.7,0.35137
4603.92,0.35408
4598.13,0.35583
4592.34,0.35711
4586.56,0.35776
4580.77,0.35737
4574.98,0.35669
4569.2,0.35655
4563.41,0.35797
4557.63,0.35861
4551.84,0.35876
4546.05,0.35856
4540.27,0.35838
4534.48,0.35772
4528.69,0.35725
4522.91,0.35640
4517.12,0.35593
4511.34,0.35459
4505.55,0.35352
4499.76,0.35301
4493.98,0.35025
4488.19,0.34760
4482.4,0.34315
4476.62,0.33662
4470.83,0.32820
4465.05,0.31857
4459.26,0.30511
4453.47,0.29040
4447.69,0.27233
4441.9,0.25271
4436.11,0.23250
4430.33,0.21577
4424.54,0.19995
4418.76,0.18780
4412.97,0.18153
4407.18,0.18142
4401.4,0.18618
4395.61,0.19002
4389.82,0.18910
4384.04,0.18456
4378.25,0.17765
4372.47,0.17019
4366.68,0.16278
4360.89,0.15452
4355.11,0.14680
4349.32,0.13964
4343.53,0.13445
4337.75,0.13149
4331.96,0.13102
4326.18,0.13257
4320.39,0.13661
4314.6,0.14281
4308.82,0.14976
4303.03,0.15784
4297.24,0.16475
4291.46,0.16905
4285.67,0.17110
4279.89,0.17064
4274.1,0.17013
4268.31,0.17206
4262.53,0.17394
4256.74,0.17637
4250.95,0.17929
4245.17,0.18093
4239.38,0.18272
4233.6,0.18460
4227.81,0.18561
4222.02,0.18853
4216.24,0.19183
4210.45,0.19542
4204.66,0.19907
4198.88,0.20197
4193.09,0.20362
4187.31,0.20419
4181.52,0.20305
4175.73,0.20084
4169.95,0.19824
4164.16,0.19734
4158.37,0.19526
4152.59,0.19417
4146.8,0.19338
4141.02,0.19271
4135.23,0.19258
4129.44,0.19231
4123.66,0.19039
4117.87,0.18818
4112.09,0.18578
4106.3,0.18249
4100.51,0.17982
4094.73,0.17551
4088.94,0.17179
4083.15,0.16694
4077.37,0.16225
4071.58,0.15734
4065.8,0.15356
4060.01,0.14979
4054.22,0.14838
4048.44,0.14754
4042.65,0.14673
4036.86,0.14727
4031.08,0.14711
4025.29,0.14683
4019.51,0.14828
4013.72,0.14952
4007.93,0.14993
4002.15,0.15161
3996.36,0.15282
3990.57,0.15522
3984.79,0.15848
3979,0.16152
3973.22,0.16536
3967.43,0.16936
3961.64,0.17276
3955.86,0.17660
3950.07,0.18201
3944.28,0.18712
3938.5,0.19304
3932.71,0.19912
3926.93,0.20538
3921.14,0.21025
3915.35,0.21472
3909.57,0.21801
3903.78,0.22135
3897.99,0.22296
3892.21,0.22645
3886.42,0.22824
3880.64,0.22914
3874.85,0.23008
3869.06,0.23080
3863.28,0.23113
3857.49,0.23279
3851.7,0.23295
3845.92,0.23457
3840.13,0.23702
3834.35,0.23935
3828.56,0.24160
3822.77,0.24456
3816.99,0.24572
3811.2,0.24592
3805.41,0.24729
3799.63,0.24890
3793.84,0.25011
3788.06,0.25214
3782.27,0.25550
3776.48,0.25897
3770.7,0.26367
3764.91,0.26912
3759.12,0.27446
3753.34,0.28005
3747.55,0.28377
3741.77,0.28785
3735.98,0.29176
3730.19,0.29415
3724.41,0.29672
3718.62,0.29927
3712.83,0.30109
3707.05,0.30108
3701.26,0.29998
3695.48,0.29806
3689.69,0.29614
3683.9,0.29103
3678.12,0.28695
3672.33,0.27947
3666.54,0.27375
3660.76,0.26821
3654.97,0.26147
3649.19,0.25345
3643.4,0.24619
3637.61,0.23985
3631.83,0.23389
3626.04,0.22453
3620.25,0.21818
3614.47,0.21220
3608.68,0.20451
3602.9,0.19692
3597.11,0.18844
3591.32,0.18119
3585.54,0.17528
3579.75,0.17022
3573.97,0.16546
3568.18,0.16111
3562.39,0.15526
3556.61,0.15055
3550.82,0.14604
3545.03,0.14064
3539.25,0.13481
3533.46,0.13012
3527.68,0.12508
3521.89,0.12127
3516.1,0.11731
3510.32,0.11449
3504.53,0.11180
3498.74,0.10947
3492.96,0.10591
3487.17,0.10303
3481.39,0.09983
3475.6,0.09556
3469.81,0.08995
3464.03,0.08222
3458.24,0.07648
3452.45,0.07326
3446.67,0.07044
3440.88,0.06878
3435.1,0.06569
3429.31,0.06145
3423.52,0.05668
3417.74,0.05215
3411.95,0.04857
3406.16,0.04547
3400.38,0.04265
3394.59,0.03933
3388.81,0.03611
3383.02,0.03468
3377.23,0.03348
3371.45,0.03190
3365.66,0.03072
3359.87,0.03065
3354.09,0.02977
3348.3,0.02957
3342.52,0.02911
3336.73,0.02880
3330.94,0.02911
3325.16,0.02805
3319.37,0.02879
3313.58,0.02857
3307.8,0.02808
3302.01,0.02842
3296.23,0.02813
3290.44,0.02783
3284.65,0.02938
3278.87,0.02918
3273.08,0.02935
3267.29,0.02975
3261.51,0.03032
3255.72,0.03122
3249.94,0.03152
3244.15,0.03287
3238.36,0.03339
3232.58,0.03522
3226.79,0.03495
3221,0.03598
3215.22,0.03667
3209.43,0.03782
3203.65,0.03789
3197.86,0.03831
3192.07,0.03871
3186.29,0.03965
3180.5,0.04160
3174.71,0.04312
3168.93,0.04509
3163.14,0.04604
3157.36,0.04658
3151.57,0.04655
3145.78,0.04744
3140,0.04689
3134.21,0.04543
3128.42,0.04491
3122.64,0.04547
3116.85,0.04609
3111.07,0.04695
3105.28,0.04701
3099.49,0.04811
3093.71,0.04771
3087.92,0.04713
3082.14,0.04590
3076.35,0.04457
3070.56,0.04378
3064.78,0.04326
3058.99,0.04282
3053.2,0.04343
3047.42,0.04325
3041.63,0.04281
3035.85,0.04172
3030.06,0.04033
3024.27,0.04067
3018.49,0.04133
3012.7,0.03997
3006.91,0.03775
3001.13,0.03446
2995.34,0.03058
2989.56,0.02854
2983.77,0.02742
2977.98,0.02681
2972.2,0.02655
2966.41,0.02704
2960.62,0.02737
2954.84,0.02780
2949.05,0.02714
2943.27,0.02661
2937.48,0.02632
2931.69,0.02610
2925.91,0.02616
2920.12,0.02628
2914.33,0.02665
2908.55,0.02626
2902.76,0.02700
2896.98,0.02722
2891.19,0.02690
2885.4,0.02679
2879.62,0.02628
2873.83,0.02711
2868.04,0.02785
2862.26,0.02782
2856.47,0.02804
2850.69,0.02896
2844.9,0.03049
2839.11,0.03247
2833.33,0.03408
2827.54,0.03623
2821.75,0.03807
2815.97,0.03907
2810.18,0.04040
2804.4,0.04090
2798.61,0.04211
2792.82,0.04296
2787.04,0.04394
2781.25,0.04490
2775.46,0.04633
2769.68,0.04755
2763.89,0.04934
2758.11,0.05050
2752.32,0.05175
2746.53,0.05334
2740.75,0.05455
2734.96,0.05635
2729.17,0.05830
2723.39,0.06110
2717.6,0.06520
2711.82,0.06839
2706.03,0.07128
2700.24,0.07442
2694.46,0.07831
2688.67,0.08184
2682.88,0.08533
2677.1,0.08703
2671.31,0.08839
2665.53,0.09056
2659.74,0.09335
2653.95,0.09512
2648.17,0.09653
2642.38,0.09737
2636.59,0.09914
2630.81,0.10249
2625.02,0.10679
2619.24,0.10957
2613.45,0.11060
2607.66,0.11011
2601.88,0.10883
2596.09,0.10824
2590.3,0.10848
2584.52,0.10980
2578.73,0.11304
2572.95,0.11906
2567.16,0.12572
2561.37,0.13078
2555.59,0.13492
2549.8,0.13726
2544.02,0.14020
2538.23,0.14167
2532.44,0.14115
2526.66,0.14165
2520.87,0.14170
2515.08,0.14231
2509.3,0.14254
2503.51,0.14434
2497.73,0.14632
2491.94,0.14934
2486.15,0.15232
2480.37,0.15432
2474.58,0.15697
2468.79,0.15932
2463.01,0.16141
2457.22,0.16377
2451.44,0.16588
2445.65,0.16861
2439.86,0.17173
2434.08,0.17449
2428.29,0.17673
2422.5,0.17840
2416.72,0.17902
2410.93,0.17812
2405.15,0.17731
2399.36,0.17654
2393.57,0.17494
2387.79,0.17370
2382,0.17220
2376.21,0.17131
2370.43,0.17052
2364.64,0.16989
2358.86,0.17021
2353.07,0.16946
2347.28,0.16888
2341.5,0.16811
2335.71,0.16749
2329.92,0.16710
2324.14,0.16456
2318.35,0.16016
2312.57,0.15380
2306.78,0.14729
2300.99,0.13981
2295.21,0.13236
2289.42,0.12458
2283.63,0.11686
2277.85,0.11004
2272.06,0.10674
2266.28,0.10937
2260.49,0.11425
2254.7,0.11956
2248.92,0.12169
2243.13,0.11938
2237.34,0.11721
2231.56,0.12545
2225.77,0.13253
2219.99,0.13543
2214.2,0.13798
2208.41,0.13950
2202.63,0.14097
2196.84,0.14199
2191.05,0.14275
2185.27,0.14342
2179.48,0.14392
2173.7,0.14377
2167.91,0.14341
2162.12,0.14313
2156.34,0.14320
2150.55,0.14415
2144.76,0.14440
2138.98,0.14565
2133.19,0.14630
2127.41,0.14710
2121.62,0.14854
2115.83,0.14935
2110.05,0.14962
2104.26,0.14898
2098.47,0.14824
2092.69,0.14680
2086.9,0.14528
2081.12,0.14390
2075.33,0.14270
2069.54,0.14194
2063.76,0.14167
2057.97,0.14116
2052.19,0.13989
2046.4,0.13738
2040.61,0.13422
2034.83,0.13098
2029.04,0.12853
2023.25,0.12650
2017.47,0.12494
2011.68,0.12438
2005.9,0.12437
2000.11,0.12484
1994.32,0.12539
1988.54,0.12539
1982.75,0.12504
1976.96,0.12397
1971.18,0.12342
1965.39,0.12258
1959.61,0.12157
1953.82,0.12156
1948.03,0.12146
1942.25,0.12159
1936.46,0.12198
1930.67,0.12106
1924.89,0.12021
1919.1,0.11880
1913.32,0.11783
1907.53,0.11699
1901.74,0.11731
1895.96,0.11832
1890.17,0.12055
1884.38,0.12275
1878.6,0.12424
1872.81,0.12639
1867.03,0.12835
1861.24,0.12916
1855.45,0.12843
1849.67,0.12646
1843.88,0.12342
1838.09,0.11998
1832.31,0.11607
1826.52,0.11189
1820.74,0.10743
1814.95,0.10232
1809.16,0.09678
1803.38,0.09032
1797.59,0.08429
1791.8,0.08080
1786.02,0.07816
1780.23,0.07496
1774.45,0.07181
1768.66,0.06615
1762.87,0.05901
1757.09,0.04876
1751.3,0.03743
1745.51,0.02852
1739.73,0.02533
1733.94,0.02484
1728.16,0.02479
1722.37,0.02564
1716.58,0.02615
1710.8,0.02609
1705.01,0.02702
1699.22,0.02651
1693.44,0.02630
1687.65,0.02694
1681.87,0.02658
1676.08,0.02716
1670.29,0.02660
1664.51,0.02705
1658.72,0.02705
1652.93,0.02744
1647.15,0.02755
1641.36,0.02800
1635.58,0.02830
1629.79,0.02856
1624,0.02797
1618.22,0.02603
1612.43,0.02523
1606.64,0.02448
1600.86,0.02480
1595.07,0.02546
1589.29,0.02639
1583.5,0.02774
1577.71,0.02876
1571.93,0.02814
1566.14,0.02692
1560.35,0.02535
1554.57,0.02373
1548.78,0.02372
1543,0.02447
1537.21,0.02529
1531.42,0.02590
1525.64,0.02696
1519.85,0.02713
1514.07,0.02718
1508.28,0.02808
1502.49,0.02894
1496.71,0.02955
1490.92,0.03007
1485.13,0.02952
1479.35,0.02875
1473.56,0.02802
1467.78,0.02763
1461.99,0.02748
1456.2,0.02703
1450.42,0.02726
1444.63,0.02802
1438.84,0.02893
1433.06,0.03044
1427.27,0.03017
1421.49,0.02913
1415.7,0.02709
1409.91,0.02756
1404.13,0.02848
1398.34,0.02881
1392.55,0.02799
1386.77,0.02755
1380.98,0.02623
1375.2,0.02591
1369.41,0.02711
1363.62,0.02867
1357.84,0.02877
1352.05,0.02817
1346.26,0.02713
1340.48,0.02732
1334.69,0.02728
1328.91,0.02680
1323.12,0.02634
1317.33,0.02502
1311.55,0.02497
1305.76,0.02515
1299.97,0.02575
1294.19,0.02600
1288.4,0.02623
1282.62,0.02567
1276.83,0.02545
1271.04,0.02564
1265.26,0.02521
1259.47,0.02496
1253.68,0.02432
1247.9,0.02389
1242.11,0.02378
1236.33,0.02416
1230.54,0.02485
1224.75,0.02565
1218.97,0.02641
1213.18,0.02707
1207.39,0.02676
1201.61,0.02664
1195.82,0.02665
1190.04,0.02602
1184.25,0.02577
1178.46,0.02521
1172.68,0.02413
1166.89,0.02359
1161.1,0.02287
1155.32,0.02303
1149.53,0.02306
1143.75,0.02243
1137.96,0.02284
1132.17,0.02315
1126.39,0.02372
1120.6,0.02420
1114.81,0.02559
1109.03,0.02679
1103.24,0.02771
1097.46,0.02928
1091.67,0.02984
1085.88,0.03058
1080.1,0.03051
1074.31,0.03189
1068.52,0.03234
1062.74,0.03212
1056.95,0.03233
1051.17,0.03246
1045.38,0.03288
1039.59,0.03356
1033.81,0.03369
1028.02,0.03411
1022.24,0.03360
1016.45,0.03206
1010.66,0.03427
1004.88,0.03461
999.09,0.03562
993.304,0.03853
987.518,0.04086
981.731,0.04216
975.945,0.04187
970.159,0.04049
964.373,0.04062
958.586,0.04077
952.8,0.04155
947.014,0.03831
941.228,0.03667
935.441,0.03513
929.655,0.03403
923.869,0.03503
918.083,0.03635
912.297,0.03680
906.51,0.03830
900.724,0.04006
894.938,0.04275
889.152,0.04275
883.365,0.04192
877.579,0.03993
871.793,0.03798
866.007,0.03829
860.22,0.03795
854.434,0.03739
848.648,0.03817
842.862,0.03874
837.075,0.03698
831.289,0.03691
825.503,0.03507
819.717,0.03406
813.931,0.03486
808.144,0.03667
802.358,0.03898
796.572,0.04078
790.786,0.04159
784.999,0.04163
779.213,0.03996
773.427,0.03784
767.641,0.03591
761.854,0.03623
756.068,0.03766
750.282,0.03969
744.496,0.04233
738.709,0.04362
732.923,0.04341
727.137,0.04226
721.351,0.04107
715.565,0.03799
709.778,0.03635
703.992,0.03552
698.206,0.03635
692.42,0.03861
686.633,0.03688
680.847,0.03706
675.061,0.03566
669.275,0.03552
663.488,0.03597
657.702,0.03794
651.916,0.03742
646.13,0.03760
640.343,0.03857
634.557,0.03885
628.771,0.03937
622.985,0.03922
617.198,0.03882
611.412,0.03889
605.626,0.03864
599.84,0.03643