File: 01_Data/Memory_Foam_Carpet_Pad/FTIR/IS/Memory_Foam_Carpet_Pad_IS_S_221003_R4.dpt
7497.03,0.71575
7491.25,0.72051
7485.46,0.71144
7479.67,0.70976
7473.89,0.71553
7468.1,0.70812
7462.32,0.71028
7456.53,0.70568
7450.74,0.70337
7444.96,0.71270
7439.17,0.70176
7433.38,0.71197
7427.6,0.70538
7421.81,0.70518
7416.03,0.68807
7410.24,0.69102
7404.45,0.69395
7398.67,0.68530
7392.88,0.67415
7387.09,0.67799
7381.31,0.67639
7375.52,0.66109
7369.74,0.66250
7363.95,0.66196
7358.16,0.66019
7352.38,0.67078
7346.59,0.67224
7340.8,0.66595
7335.02,0.65557
7329.23,0.65285
7323.45,0.66368
7317.66,0.65652
7311.87,0.65475
7306.09,0.64824
7300.3,0.66116
7294.51,0.64560
7288.73,0.63014
7282.94,0.63712
7277.16,0.62380
7271.37,0.62261
7265.58,0.62697
7259.8,0.62296
7254.01,0.62099
7248.22,0.61912
7242.44,0.62508
7236.65,0.60927
7230.87,0.61712
7225.08,0.61903
7219.29,0.62315
7213.51,0.61200
7207.72,0.61089
7201.93,0.60703
7196.15,0.60873
7190.36,0.60895
7184.58,0.60186
7178.79,0.60333
7173,0.60827
7167.22,0.60701
7161.43,0.60889
7155.65,0.61276
7149.86,0.61273
7144.07,0.61562
7138.29,0.62177
7132.5,0.61403
7126.71,0.62088
7120.93,0.62378
7115.14,0.62247
7109.36,0.62275
7103.57,0.62264
7097.78,0.61887
7092,0.61779
7086.21,0.62531
7080.42,0.62257
7074.64,0.61987
7068.85,0.62635
7063.07,0.61946
7057.28,0.62116
7051.49,0.61839
7045.71,0.62275
7039.92,0.62737
7034.13,0.62467
7028.35,0.62451
7022.56,0.61535
7016.78,0.61866
7010.99,0.61727
7005.2,0.62249
6999.42,0.62178
6993.63,0.61843
6987.84,0.61351
6982.06,0.61473
6976.27,0.61530
6970.49,0.61932
6964.7,0.61843
6958.91,0.62566
6953.13,0.62473
6947.34,0.62472
6941.55,0.62456
6935.77,0.62382
6929.98,0.62558
6924.2,0.63434
6918.41,0.62789
6912.62,0.63171
6906.84,0.62363
6901.05,0.63033
6895.26,0.62828
6889.48,0.63370
6883.69,0.63231
6877.91,0.63281
6872.12,0.63375
6866.33,0.63432
6860.55,0.62868
6854.76,0.63030
6848.97,0.63296
6843.19,0.63788
6837.4,0.63859
6831.62,0.63824
6825.83,0.64106
6820.04,0.63811
6814.26,0.63272
6808.47,0.63674
6802.68,0.63570
6796.9,0.62670
6791.11,0.62941
6785.33,0.62499
6779.54,0.61944
6773.75,0.61836
6767.97,0.61410
6762.18,0.61439
6756.39,0.61102
6750.61,0.61382
6744.82,0.60572
6739.04,0.60574
6733.25,0.60490
6727.46,0.60145
6721.68,0.60803
6715.89,0.60385
6710.1,0.60296
6704.32,0.60039
6698.53,0.59893
6692.75,0.59629
6686.96,0.58966
6681.17,0.59161
6675.39,0.59537
6669.6,0.59702
6663.82,0.59236
6658.03,0.59772
6652.24,0.59566
6646.46,0.59613
6640.67,0.59501
6634.88,0.59334
6629.1,0.59115
6623.31,0.59194
6617.53,0.59802
6611.74,0.59649
6605.95,0.59685
6600.17,0.60014
6594.38,0.59438
6588.59,0.60247
6582.81,0.60264
6577.02,0.60723
6571.24,0.60717
6565.45,0.61143
6559.66,0.61076
6553.88,0.61291
6548.09,0.61337
6542.3,0.61638
6536.52,0.61954
6530.73,0.62325
6524.95,0.62203
6519.16,0.62430
6513.37,0.63370
6507.59,0.63164
6501.8,0.62991
6496.01,0.63506
6490.23,0.63571
6484.44,0.63267
6478.66,0.63613
6472.87,0.63997
6467.08,0.64093
6461.3,0.63871
6455.51,0.64250
6449.72,0.64262
6443.94,0.64940
6438.15,0.64595
6432.37,0.64547
6426.58,0.64798
6420.79,0.64895
6415.01,0.64943
6409.22,0.64229
6403.43,0.64485
6397.65,0.65284
6391.86,0.65078
6386.08,0.64873
6380.29,0.64898
6374.5,0.65102
6368.72,0.64959
6362.93,0.65016
6357.14,0.65408
6351.36,0.65127
6345.57,0.64809
6339.79,0.65194
6334,0.65215
6328.21,0.65155
6322.43,0.64991
6316.64,0.65124
6310.85,0.65380
6305.07,0.65101
6299.28,0.65448
6293.5,0.65714
6287.71,0.65042
6281.92,0.64789
6276.14,0.64900
6270.35,0.65240
6264.56,0.65090
6258.78,0.65133
6252.99,0.65189
6247.21,0.65442
6241.42,0.65153
6235.63,0.65487
6229.85,0.65538
6224.06,0.64914
6218.27,0.65010
6212.49,0.65279
6206.7,0.65039
6200.92,0.64908
6195.13,0.64928
6189.34,0.64637
6183.56,0.64580
6177.77,0.64350
6171.98,0.63860
6166.2,0.63927
6160.41,0.63402
6154.63,0.63474
6148.84,0.63224
6143.05,0.62844
6137.27,0.62563
6131.48,0.62454
6125.7,0.61740
6119.91,0.61242
6114.12,0.60416
6108.34,0.60224
6102.55,0.60097
6096.76,0.59725
6090.98,0.59185
6085.19,0.58845
6079.41,0.58498
6073.62,0.57881
6067.83,0.57877
6062.05,0.57806
6056.26,0.57630
6050.47,0.57733
6044.69,0.57866
6038.9,0.57392
6033.12,0.56996
6027.33,0.56594
6021.54,0.55839
6015.76,0.55344
6009.97,0.54670
6004.18,0.53688
5998.4,0.52957
5992.61,0.52250
5986.83,0.51434
5981.04,0.49912
5975.25,0.48625
5969.47,0.47110
5963.68,0.45501
5957.89,0.43701
5952.11,0.42405
5946.32,0.41595
5940.54,0.41212
5934.75,0.41186
5928.96,0.41500
5923.18,0.41878
5917.39,0.41308
5911.6,0.40733
5905.82,0.39672
5900.03,0.39663
5894.25,0.40078
5888.46,0.40863
5882.67,0.41677
5876.89,0.42474
5871.1,0.42683
5865.31,0.42960
5859.53,0.42579
5853.74,0.42324
5847.96,0.41968
5842.17,0.41569
5836.38,0.41223
5830.6,0.40876
5824.81,0.40454
5819.02,0.40111
5813.24,0.39697
5807.45,0.39083
5801.67,0.38625
5795.88,0.38354
5790.09,0.37898
5784.31,0.37737
5778.52,0.37462
5772.73,0.37632
5766.95,0.37675
5761.16,0.38075
5755.38,0.38596
5749.59,0.38931
5743.8,0.39595
5738.02,0.40226
5732.23,0.41057
5726.44,0.41646
5720.66,0.42215
5714.87,0.42635
5709.09,0.42894
5703.3,0.43303
5697.51,0.43603
5691.73,0.43690
5685.94,0.43757
5680.15,0.43385
5674.37,0.43483
5668.58,0.43434
5662.8,0.43466
5657.01,0.43657
5651.22,0.44146
5645.44,0.44327
5639.65,0.44914
5633.87,0.45302
5628.08,0.45844
5622.29,0.46228
5616.51,0.46741
5610.72,0.46787
5604.93,0.46899
5599.15,0.47061
5593.36,0.47055
5587.58,0.46959
5581.79,0.47250
5576,0.47236
5570.22,0.47153
5564.43,0.47021
5558.64,0.47049
5552.86,0.47100
5547.07,0.47060
5541.29,0.47140
5535.5,0.47078
5529.71,0.47234
5523.93,0.47399
5518.14,0.47658
5512.35,0.47638
5506.57,0.47735
5500.78,0.48273
5495,0.48255
5489.21,0.48461
5483.42,0.48498
5477.64,0.48529
5471.85,0.48685
5466.06,0.48733
5460.28,0.48794
5454.49,0.48917
5448.71,0.48988
5442.92,0.49025
5437.13,0.49351
5431.35,0.49572
5425.56,0.49911
5419.77,0.50546
5413.99,0.51091
5408.2,0.51318
5402.42,0.51852
5396.63,0.52069
5390.84,0.52302
5385.06,0.52719
5379.27,0.53101
5373.48,0.53301
5367.7,0.53403
5361.91,0.53386
5356.13,0.53522
5350.34,0.53695
5344.55,0.53656
5338.77,0.53797
5332.98,0.53884
5327.19,0.54049
5321.41,0.54017
5315.62,0.54267
5309.84,0.54333
5304.05,0.54138
5298.26,0.54124
5292.48,0.53821
5286.69,0.53510
5280.9,0.53289
5275.12,0.52938
5269.33,0.52702
5263.55,0.52444
5257.76,0.52063
5251.97,0.51917
5246.19,0.51774
5240.4,0.51498
5234.61,0.51380
5228.83,0.51132
5223.04,0.50896
5217.26,0.50916
5211.47,0.50722
5205.68,0.50719
5199.9,0.50587
5194.11,0.50636
5188.32,0.50946
5182.54,0.50848
5176.75,0.51009
5170.97,0.51201
5165.18,0.50978
5159.39,0.51061
5153.61,0.51094
5147.82,0.51151
5142.03,0.51089
5136.25,0.51042
5130.46,0.51162
5124.68,0.51108
5118.89,0.51182
5113.1,0.51152
5107.32,0.51256
5101.53,0.51169
5095.75,0.51100
5089.96,0.50949
5084.17,0.50633
5078.39,0.50424
5072.6,0.50260
5066.81,0.50070
5061.03,0.49842
5055.24,0.49737
5049.46,0.49594
5043.67,0.49201
5037.88,0.48939
5032.1,0.48710
5026.31,0.48411
5020.52,0.48122
5014.74,0.47787
5008.95,0.47256
5003.17,0.46737
4997.38,0.46258
4991.59,0.45473
4985.81,0.44626
4980.02,0.43863
4974.23,0.43043
4968.45,0.42348
4962.66,0.41557
4956.88,0.41002
4951.09,0.40360
4945.3,0.39890
4939.52,0.39228
4933.73,0.38680
4927.94,0.38272
4922.16,0.37756
4916.37,0.37360
4910.59,0.36715
4904.8,0.36466
4899.01,0.36287
4893.23,0.36045
4887.44,0.35945
4881.65,0.35938
4875.87,0.35871
4870.08,0.35758
4864.3,0.35777
4858.51,0.35804
4852.72,0.36078
4846.94,0.36174
4841.15,0.36352
4835.36,0.36680
4829.58,0.36961
4823.79,0.37456
4818.01,0.37933
4812.22,0.38374
4806.43,0.38912
4800.65,0.39354
4794.86,0.39735
4789.07,0.40130
4783.29,0.40603
4777.5,0.40859
4771.72,0.41073
4765.93,0.41265
4760.14,0.41488
4754.36,0.41683
4748.57,0.41688
4742.78,0.41626
4737,0.41484
4731.21,0.41158
4725.43,0.40838
4719.64,0.40201
4713.85,0.39726
4708.07,0.39402
4702.28,0.39147
4696.49,0.38845
4690.71,0.38572
4684.92,0.38162
4679.14,0.37748
4673.35,0.37321
4667.56,0.36934
4661.78,0.36712
4655.99,0.36482
4650.2,0.36144
4644.42,0.35653
4638.63,0.35142
4632.85,0.34760
4627.06,0.34670
4621.27,0.34712
4615.49,0.34910
4609.7,0.35199
4603.92,0.35433
4598.13,0.35696
4592.34,0.35825
4586.56,0.35808
4580.77,0.35790
4574.98,0.35669
4569.2,0.35667
4563.41,0.35759
4557.63,0.35795
4551.84,0.35856
4546.05,0.35951
4540.27,0.36020
4534.48,0.35872
4528.69,0.35749
4522.91,0.35640
4517.12,0.35625
4511.34,0.35378
4505.55,0.35356
4499.76,0.35264
4493.98,0.35038
4488.19,0.34772
4482.4,0.34288
4476.62,0.33663
4470.83,0.32846
4465.05,0.31841
4459.26,0.30543
4453.47,0.28983
4447.69,0.27162
4441.9,0.25352
4436.11,0.23347
4430.33,0.21495
4424.54,0.19997
4418.76,0.18811
4412.97,0.18187
4407.18,0.18265
4401.4,0.18660
4395.61,0.19032
4389.82,0.18873
4384.04,0.18389
4378.25,0.17770
4372.47,0.17123
4366.68,0.16323
4360.89,0.15420
4355.11,0.14645
4349.32,0.13941
4343.53,0.13448
4337.75,0.13160
4331.96,0.13091
4326.18,0.13330
4320.39,0.13696
4314.6,0.14285
4308.82,0.15125
4303.03,0.15878
4297.24,0.16604
4291.46,0.16888
4285.67,0.17070
4279.89,0.17085
4274.1,0.17065
4268.31,0.17103
4262.53,0.17413
4256.74,0.17692
4250.95,0.17894
4245.17,0.18171
4239.38,0.18220
4233.6,0.18415
4227.81,0.18592
4222.02,0.18828
4216.24,0.19174
4210.45,0.19539
4204.66,0.19924
4198.88,0.20219
4193.09,0.20337
4187.31,0.20404
4181.52,0.20287
4175.73,0.20137
4169.95,0.19935
4164.16,0.19634
4158.37,0.19452
4152.59,0.19336
4146.8,0.19300
4141.02,0.19312
4135.23,0.19233
4129.44,0.19196
4123.66,0.19045
4117.87,0.18742
4112.09,0.18572
4106.3,0.18311
4100.51,0.17946
4094.73,0.17552
4088.94,0.17214
4083.15,0.16802
4077.37,0.16305
4071.58,0.15788
4065.8,0.15415
4060.01,0.15092
4054.22,0.14853
4048.44,0.14778
4042.65,0.14727
4036.86,0.14622
4031.08,0.14682
4025.29,0.14670
4019.51,0.14827
4013.72,0.14904
4007.93,0.15019
4002.15,0.15106
3996.36,0.15302
3990.57,0.15528
3984.79,0.15859
3979,0.16129
3973.22,0.16517
3967.43,0.16922
3961.64,0.17316
3955.86,0.17728
3950.07,0.18186
3944.28,0.18711
3938.5,0.19365
3932.71,0.19870
3926.93,0.20491
3921.14,0.21007
3915.35,0.21470
3909.57,0.21807
3903.78,0.22171
3897.99,0.22330
3892.21,0.22568
3886.42,0.22777
3880.64,0.22902
3874.85,0.23023
3869.06,0.23048
3863.28,0.23137
3857.49,0.23161
3851.7,0.23268
3845.92,0.23467
3840.13,0.23743
3834.35,0.23883
3828.56,0.24130
3822.77,0.24345
3816.99,0.24465
3811.2,0.24574
3805.41,0.24692
3799.63,0.24738
3793.84,0.24909
3788.06,0.25162
3782.27,0.25448
3776.48,0.25831
3770.7,0.26265
3764.91,0.26853
3759.12,0.27359
3753.34,0.27820
3747.55,0.28309
3741.77,0.28663
3735.98,0.29024
3730.19,0.29239
3724.41,0.29452
3718.62,0.29627
3712.83,0.29702
3707.05,0.29724
3701.26,0.29485
3695.48,0.29189
3689.69,0.28725
3683.9,0.28062
3678.12,0.27431
3672.33,0.26518
3666.54,0.25733
3660.76,0.25071
3654.97,0.24274
3649.19,0.23342
3643.4,0.22461
3637.61,0.21770
3631.83,0.21032
3626.04,0.20253
3620.25,0.19519
3614.47,0.18755
3608.68,0.18060
3602.9,0.17311
3597.11,0.16578
3591.32,0.15933
3585.54,0.15385
3579.75,0.15005
3573.97,0.14570
3568.18,0.14170
3562.39,0.13761
3556.61,0.13319
3550.82,0.12965
3545.03,0.12421
3539.25,0.11986
3533.46,0.11502
3527.68,0.11139
3521.89,0.10773
3516.1,0.10498
3510.32,0.10210
3504.53,0.10041
3498.74,0.09841
3492.96,0.09633
3487.17,0.09464
3481.39,0.09179
3475.6,0.08840
3469.81,0.08351
3464.03,0.07824
3458.24,0.07238
3452.45,0.07047
3446.67,0.06841
3440.88,0.06604
3435.1,0.06312
3429.31,0.06011
3423.52,0.05574
3417.74,0.05124
3411.95,0.04760
3406.16,0.04465
3400.38,0.04164
3394.59,0.03890
3388.81,0.03618
3383.02,0.03403
3377.23,0.03283
3371.45,0.03077
3365.66,0.03133
3359.87,0.03060
3354.09,0.02986
3348.3,0.02944
3342.52,0.02951
3336.73,0.02863
3330.94,0.02893
3325.16,0.02900
3319.37,0.02771
3313.58,0.02846
3307.8,0.02874
3302.01,0.02833
3296.23,0.02791
3290.44,0.02877
3284.65,0.02891
3278.87,0.02874
3273.08,0.02925
3267.29,0.02941
3261.51,0.03008
3255.72,0.03071
3249.94,0.03125
3244.15,0.03203
3238.36,0.03350
3232.58,0.03435
3226.79,0.03580
3221,0.03595
3215.22,0.03632
3209.43,0.03735
3203.65,0.03862
3197.86,0.03814
3192.07,0.03835
3186.29,0.03975
3180.5,0.04075
3174.71,0.04286
3168.93,0.04450
3163.14,0.04591
3157.36,0.04641
3151.57,0.04669
3145.78,0.04662
3140,0.04607
3134.21,0.04544
3128.42,0.04468
3122.64,0.04481
3116.85,0.04538
3111.07,0.04636
3105.28,0.04732
3099.49,0.04745
3093.71,0.04758
3087.92,0.04661
3082.14,0.04601
3076.35,0.04469
3070.56,0.04381
3064.78,0.04303
3058.99,0.04269
3053.2,0.04274
3047.42,0.04266
3041.63,0.04292
3035.85,0.04114
3030.06,0.04037
3024.27,0.04054
3018.49,0.04108
3012.7,0.03972
3006.91,0.03757
3001.13,0.03395
2995.34,0.03075
2989.56,0.02885
2983.77,0.02774
2977.98,0.02632
2972.2,0.02595
2966.41,0.02627
2960.62,0.02737
2954.84,0.02771
2949.05,0.02696
2943.27,0.02555
2937.48,0.02615
2931.69,0.02577
2925.91,0.02560
2920.12,0.02600
2914.33,0.02581
2908.55,0.02671
2902.76,0.02676
2896.98,0.02688
2891.19,0.02677
2885.4,0.02716
2879.62,0.02715
2873.83,0.02660
2868.04,0.02709
2862.26,0.02761
2856.47,0.02815
2850.69,0.02916
2844.9,0.03011
2839.11,0.03185
2833.33,0.03419
2827.54,0.03582
2821.75,0.03773
2815.97,0.03920
2810.18,0.04054
2804.4,0.04100
2798.61,0.04191
2792.82,0.04263
2787.04,0.04391
2781.25,0.04508
2775.46,0.04609
2769.68,0.04775
2763.89,0.04905
2758.11,0.05060
2752.32,0.05182
2746.53,0.05368
2740.75,0.05487
2734.96,0.05636
2729.17,0.05823
2723.39,0.06125
2717.6,0.06505
2711.82,0.06827
2706.03,0.07128
2700.24,0.07510
2694.46,0.07892
2688.67,0.08228
2682.88,0.08508
2677.1,0.08687
2671.31,0.08833
2665.53,0.09049
2659.74,0.09314
2653.95,0.09537
2648.17,0.09643
2642.38,0.09763
2636.59,0.09956
2630.81,0.10250
2625.02,0.10648
2619.24,0.10980
2613.45,0.11074
2607.66,0.11041
2601.88,0.10909
2596.09,0.10778
2590.3,0.10828
2584.52,0.11014
2578.73,0.11360
2572.95,0.11887
2567.16,0.12561
2561.37,0.13119
2555.59,0.13518
2549.8,0.13786
2544.02,0.14009
2538.23,0.14197
2532.44,0.14200
2526.66,0.14189
2520.87,0.14161
2515.08,0.14228
2509.3,0.14287
2503.51,0.14450
2497.73,0.14692
2491.94,0.14958
2486.15,0.15189
2480.37,0.15445
2474.58,0.15694
2468.79,0.15924
2463.01,0.16134
2457.22,0.16322
2451.44,0.16598
2445.65,0.16855
2439.86,0.17150
2434.08,0.17460
2428.29,0.17664
2422.5,0.17832
2416.72,0.17929
2410.93,0.17866
2405.15,0.17712
2399.36,0.17656
2393.57,0.17511
2387.79,0.17363
2382,0.17289
2376.21,0.17165
2370.43,0.17092
2364.64,0.17009
2358.86,0.17042
2353.07,0.16958
2347.28,0.16904
2341.5,0.16823
2335.71,0.16786
2329.92,0.16725
2324.14,0.16507
2318.35,0.16032
2312.57,0.15387
2306.78,0.14734
2300.99,0.13954
2295.21,0.13187
2289.42,0.12437
2283.63,0.11636
2277.85,0.10997
2272.06,0.10683
2266.28,0.10858
2260.49,0.11460
2254.7,0.11942
2248.92,0.12192
2243.13,0.11927
2237.34,0.11756
2231.56,0.12499
2225.77,0.13241
2219.99,0.13556
2214.2,0.13750
2208.41,0.13941
2202.63,0.14058
2196.84,0.14189
2191.05,0.14257
2185.27,0.14317
2179.48,0.14377
2173.7,0.14352
2167.91,0.14331
2162.12,0.14275
2156.34,0.14328
2150.55,0.14414
2144.76,0.14504
2138.98,0.14535
2133.19,0.14614
2127.41,0.14708
2121.62,0.14837
2115.83,0.14927
2110.05,0.14926
2104.26,0.14890
2098.47,0.14777
2092.69,0.14673
2086.9,0.14466
2081.12,0.14402
2075.33,0.14282
2069.54,0.14153
2063.76,0.14129
2057.97,0.14090
2052.19,0.13943
2046.4,0.13688
2040.61,0.13417
2034.83,0.13085
2029.04,0.12829
2023.25,0.12637
2017.47,0.12480
2011.68,0.12439
2005.9,0.12453
2000.11,0.12461
1994.32,0.12483
1988.54,0.12479
1982.75,0.12430
1976.96,0.12390
1971.18,0.12328
1965.39,0.12232
1959.61,0.12174
1953.82,0.12127
1948.03,0.12136
1942.25,0.12153
1936.46,0.12164
1930.67,0.12102
1924.89,0.12000
1919.1,0.11893
1913.32,0.11771
1907.53,0.11699
1901.74,0.11757
1895.96,0.11817
1890.17,0.12070
1884.38,0.12278
1878.6,0.12416
1872.81,0.12660
1867.03,0.12832
1861.24,0.12925
1855.45,0.12845
1849.67,0.12631
1843.88,0.12364
1838.09,0.12014
1832.31,0.11647
1826.52,0.11192
1820.74,0.10726
1814.95,0.10253
1809.16,0.09691
1803.38,0.09014
1797.59,0.08433
1791.8,0.08082
1786.02,0.07859
1780.23,0.07519
1774.45,0.07172
1768.66,0.06627
1762.87,0.05901
1757.09,0.04849
1751.3,0.03749
1745.51,0.02926
1739.73,0.02519
1733.94,0.02444
1728.16,0.02472
1722.37,0.02555
1716.58,0.02592
1710.8,0.02617
1705.01,0.02631
1699.22,0.02710
1693.44,0.02627
1687.65,0.02701
1681.87,0.02697
1676.08,0.02712
1670.29,0.02704
1664.51,0.02680
1658.72,0.02687
1652.93,0.02729
1647.15,0.02722
1641.36,0.02739
1635.58,0.02858
1629.79,0.02855
1624,0.02792
1618.22,0.02598
1612.43,0.02504
1606.64,0.02501
1600.86,0.02484
1595.07,0.02567
1589.29,0.02666
1583.5,0.02795
1577.71,0.02848
1571.93,0.02810
1566.14,0.02613
1560.35,0.02490
1554.57,0.02383
1548.78,0.02352
1543,0.02439
1537.21,0.02518
1531.42,0.02606
1525.64,0.02719
1519.85,0.02711
1514.07,0.02727
1508.28,0.02824
1502.49,0.02893
1496.71,0.02963
1490.92,0.02986
1485.13,0.02929
1479.35,0.02889
1473.56,0.02799
1467.78,0.02764
1461.99,0.02695
1456.2,0.02691
1450.42,0.02745
1444.63,0.02825
1438.84,0.02907
1433.06,0.03021
1427.27,0.03032
1421.49,0.02938
1415.7,0.02696
1409.91,0.02720
1404.13,0.02864
1398.34,0.02867
1392.55,0.02834
1386.77,0.02702
1380.98,0.02608
1375.2,0.02559
1369.41,0.02697
1363.62,0.02906
1357.84,0.02924
1352.05,0.02823
1346.26,0.02723
1340.48,0.02691
1334.69,0.02716
1328.91,0.02721
1323.12,0.02621
1317.33,0.02569
1311.55,0.02529
1305.76,0.02534
1299.97,0.02576
1294.19,0.02604
1288.4,0.02636
1282.62,0.02611
1276.83,0.02607
1271.04,0.02558
1265.26,0.02510
1259.47,0.02487
1253.68,0.02416
1247.9,0.02383
1242.11,0.02381
1236.33,0.02354
1230.54,0.02484
1224.75,0.02570
1218.97,0.02610
1213.18,0.02647
1207.39,0.02675
1201.61,0.02632
1195.82,0.02685
1190.04,0.02613
1184.25,0.02572
1178.46,0.02510
1172.68,0.02412
1166.89,0.02332
1161.1,0.02322
1155.32,0.02323
1149.53,0.02294
1143.75,0.02328
1137.96,0.02294
1132.17,0.02307
1126.39,0.02347
1120.6,0.02419
1114.81,0.02585
1109.03,0.02733
1103.24,0.02870
1097.46,0.02908
1091.67,0.03005
1085.88,0.03026
1080.1,0.03118
1074.31,0.03148
1068.52,0.03211
1062.74,0.03206
1056.95,0.03226
1051.17,0.03277
1045.38,0.03334
1039.59,0.03352
1033.81,0.03304
1028.02,0.03385
1022.24,0.03265
1016.45,0.03261
1010.66,0.03398
1004.88,0.03478
999.09,0.03506
993.304,0.03785
987.518,0.04061
981.731,0.04170
975.945,0.04111
970.159,0.04016
964.373,0.04053
958.586,0.04081
952.8,0.04071
947.014,0.03821
941.228,0.03577
935.441,0.03516
929.655,0.03431
923.869,0.03530
918.083,0.03628
912.297,0.03690
906.51,0.03865
900.724,0.04097
894.938,0.04289
889.152,0.04288
883.365,0.04157
877.579,0.03960
871.793,0.03803
866.007,0.03721
860.22,0.03756
854.434,0.03751
848.648,0.03831
842.862,0.03770
837.075,0.03736
831.289,0.03615
825.503,0.03538
819.717,0.03345
813.931,0.03433
808.144,0.03703
802.358,0.03984
796.572,0.04047
790.786,0.04139
784.999,0.04076
779.213,0.03927
773.427,0.03722
767.641,0.03524
761.854,0.03522
756.068,0.03672
750.282,0.03860
744.496,0.04111
738.709,0.04234
732.923,0.04219
727.137,0.04289
721.351,0.04080
715.565,0.03745
709.778,0.03711
703.992,0.03615
698.206,0.03673
692.42,0.03724
686.633,0.03705
680.847,0.03601
675.061,0.03604
669.275,0.03560
663.488,0.03530
657.702,0.03611
651.916,0.03593
646.13,0.03698
640.343,0.03725
634.557,0.03825
628.771,0.03916
622.985,0.03769
617.198,0.03690
611.412,0.03865
605.626,0.03798
599.84,0.03917