File: 01_Data/Engineered_Wood_Table/Cone/Engineered_Wood_Table_Cone_HF25Scan_230626_R4.csv
Names,Time,Stack TC,Smoke TC,Exh Press,Smoke Comp,Smoke Meas,CO Meter,CO2 Meter,O2 Meter,Sample Mass,Ext Coeff,Start Test,Flame Verif
Chan Gain,,500,500,1,1,1,1,1,1,1,1,1.0,1.0
Offset,,0,0,0.21304,0,0,0,0,0,0,0,0.0,0.0
Gain,,1,1,25.011,13.8152,15.2192,1,1,1,1.0009,1.0389,1.0,1.0
Units,sec,C,C,Pa,%,%,%,%,%,g,/m,,
Baseline,,43.2629,44.4403,161.611,99.7125,99.7424,0.000352759,0.0444263,20.9694,-445.299,-0.00272179,,
8,1.75,43.1493,43.3092,158.068,99.7207,99.6231,0.000342991,0.0456509,20.9689,435.583,0.00892455,0.0,0.0
16,3.75,42.4937,43.9752,163.408,99.7304,99.8442,0.000474942,0.0466796,20.9681,435.523,-0.0103906,0.0,0.0
24,5.75,42.8785,43.8392,159.154,99.762,99.8033,0.000547812,0.0489804,20.9672,435.513,-0.00376942,0.0,0.0
32,7.75,43.0901,43.9928,159.437,99.7764,99.3844,0.00054557,0.0513077,20.966,435.493,0.0358742,0.0,0.0
40,9.75,43.0919,44.5955,155.256,99.7848,99.8038,0.00047469,0.0529865,20.9647,435.513,-0.00173293,0.0,0.0
48,11.75,43.0723,44.646,157.486,99.7928,100.088,0.000405258,0.0533313,20.9633,435.493,-0.0268769,0.0,0.0
56,13.75,43.005,44.6913,158.412,99.8215,100.193,0.000302223,0.0526889,20.9626,435.473,-0.0338965,0.0,0.0
64,15.75,42.9208,45.0452,157.91,99.8278,99.8298,0.000282715,0.0516904,20.9623,435.453,-0.000180883,0.0,0.0
72,17.75,42.8166,44.7297,158.634,99.8523,99.9784,0.00042929,0.0509056,20.9631,435.413,-0.0115071,0.0,0.0
80,19.75,43.1947,44.9751,161.059,99.8556,99.7978,0.00058667,0.049723,20.9639,435.363,0.00528477,0.0,0.0
88,21.75,42.9207,44.5463,159.823,99.8611,99.9557,0.000622966,0.0485519,20.9646,435.373,-0.00862393,0.0,0.0
96,23.75,43.4789,44.1988,160.222,99.9096,99.9041,0.000560382,0.0478162,20.9658,435.353,0.000500806,0.0,0.0
104,25.75,43.4212,44.8925,156.988,99.9104,99.7959,0.000555797,0.0471536,20.9664,435.343,0.0104547,0.0,0.0
112,27.75,42.7896,45.1179,162.946,99.9442,99.6519,0.000559941,0.0466535,20.9679,435.343,0.0266879,0.0,0.0
120,29.75,43.311,44.8174,160.665,99.964,99.7137,0.000573976,0.0464364,20.9686,435.313,0.0228482,0.0,0.0
128,31.75,43.3996,44.369,163.649,99.9842,99.7439,0.000600893,0.0465418,20.9685,435.323,0.0219336,0.0,0.0
136,33.75,43.6154,45.085,159.808,100.007,99.6607,0.000535124,0.0469543,20.9682,435.283,0.0316075,0.0,0.0
144,35.75,43.147,44.7677,160.8,100.003,99.8702,0.000324812,0.0472429,20.968,435.303,0.0121278,0.0,0.0
152,37.75,43.0835,45.0358,161.926,100.054,99.7903,0.000200602,0.0469225,20.9679,435.323,0.0240293,0.0,0.0
160,39.75,43.7719,45.0984,159.315,100.059,99.4977,0.000237131,0.0464827,20.9679,435.293,0.0512899,0.0,0.0
168,41.75,43.3766,45.2874,161.308,100.066,99.801,0.000386245,0.0461308,20.9679,435.273,0.024129,0.0,0.0
176,43.75,44.0834,44.9839,159.658,100.064,99.4085,0.000556571,0.0458037,20.9679,435.293,0.0598838,0.0,0.0
184,45.75,43.6075,45.3143,163.344,100.083,99.9222,0.000648578,0.0456506,20.9679,435.263,0.0146792,0.0,0.0
192,47.75,43.7457,45.6013,159.394,100.064,99.8228,0.000606461,0.0455847,20.9679,435.263,0.0219824,0.0,0.0
200,49.75,43.7696,45.496,158.648,100.07,99.6626,0.000488344,0.0454557,20.9679,435.263,0.0371608,0.0,0.0
208,51.75,43.9679,45.7639,157.713,100.065,99.4596,0.000422079,0.0455458,20.9679,435.223,0.0553163,0.0,0.0
216,53.75,43.5665,45.6108,157.232,100.066,99.5567,0.000433032,0.0457879,20.9671,435.213,0.0465419,0.0,0.0
224,55.75,43.8094,45.034,165.376,100.056,99.5748,0.000589465,0.0461146,20.967,435.193,0.0439237,0.0,0.0
232,57.75,43.4664,45.6006,161.314,100.049,99.6431,0.000708683,0.0463686,20.9671,435.143,0.0370244,0.0,0.0
240,59.75,43.9587,45.8581,158.011,100.048,99.4824,0.000665747,0.0468644,20.9671,435.153,0.051695,0.0,0.0
248,61.75,44.2851,45.1034,160.712,100.034,99.6668,0.00059494,0.0474032,20.9672,435.113,0.0335528,0.0,0.0
256,63.75,43.6596,45.1535,161.963,100.047,99.1745,0.000502383,0.047658,20.9667,435.083,0.0798713,0.0,0.0
264,65.75,44.2641,45.4868,163.518,100.025,99.193,0.000410361,0.047642,20.9656,435.063,0.0761283,0.0,0.0
272,67.75,43.7738,45.8331,164.474,100.032,99.4559,0.000293417,0.0477184,20.9652,435.063,0.0526228,0.0,0.0
280,69.75,43.9329,45.6758,160.528,100.032,99.4016,0.000271044,0.0478038,20.965,435.083,0.0576418,0.0,0.0
288,71.75,44.5736,46.077,160.447,100.027,99.3426,0.000357383,0.0480116,20.9649,435.053,0.0625513,0.0,0.0
296,73.75,44.3891,45.7485,161.479,100.033,99.5469,0.000493589,0.0478847,20.9644,435.053,0.0443626,0.0,0.0
304,75.75,43.9159,46.0751,158.261,100.047,99.3421,0.000599037,0.0478963,20.9642,435.033,0.0644004,0.0,0.0
312,77.75,44.3878,45.9158,162.92,100.032,99.343,0.000617885,0.0479331,20.9646,435.003,0.0630098,0.0,0.0
320,79.75,45.0144,45.811,160.205,100.04,99.4058,0.000484943,0.0479401,20.9672,434.983,0.0579495,0.0,0.0
328,81.75,44.2667,45.8845,157.431,100.053,99.3036,0.000381732,0.0480985,20.9683,434.973,0.0685515,0.0,0.0
336,83.75,44.5867,46.1905,164.877,100.044,99.0035,0.000397078,0.0482964,20.969,434.943,0.095245,0.0,0.0
344,85.75,44.191,46.0946,157.322,100.045,99.1745,0.000469369,0.0484142,20.9696,434.883,0.0796786,0.0,0.0
352,87.75,44.4379,46.0464,157.622,100.056,99.2311,0.000531099,0.0487118,20.9699,434.893,0.0754722,0.0,0.0
360,89.75,44.3086,45.9644,160.803,100.037,99.1907,0.000524362,0.0490353,20.97,434.823,0.0773779,0.0,0.0
368,91.75,44.3552,46.4803,162.565,100.059,99.2655,0.000505964,0.0493241,20.97,434.823,0.0725465,0.0,0.0
376,93.75,44.3721,45.8393,161.343,100.041,98.756,0.000590089,0.0496796,20.9699,434.813,0.117829,0.0,0.0
384,95.75,44.2631,45.8186,164.506,100.031,98.6691,0.000672877,0.0501393,20.9695,434.773,0.124964,0.0,0.0
392,97.75,44.4865,46.1922,160.113,100.07,98.4815,0.000792013,0.0507269,20.9685,434.723,0.145806,0.0,0.0
400,99.75,44.5923,46.3131,158.271,100.04,98.945,0.00090734,0.0512259,20.9675,434.653,0.100326,0.0,0.0
408,101.75,44.3453,46.3991,161.687,100.04,98.1977,0.000874723,0.0516061,20.968,434.562,0.169378,0.0,0.0
416,103.75,44.5602,46.2232,160.258,100.062,98.7198,0.000796785,0.0519874,20.9685,434.542,0.123055,0.0,0.0
424,105.75,44.5941,46.1522,160.831,100.045,98.58,0.000845215,0.0524412,20.9687,434.502,0.134433,0.0,0.0
432,107.75,44.7675,46.485,163.362,100.042,98.0347,0.00106447,0.0529791,20.9683,434.492,0.184673,0.0,0.0
440,109.75,44.9135,46.5138,158.095,100.037,97.8605,0.00130005,0.053567,20.9673,434.462,0.200417,0.0,0.0
448,111.75,44.616,46.2911,159.092,100.071,97.73,0.00132643,0.0541343,20.9668,434.372,0.215728,0.0,0.0
456,113.75,44.7252,46.2133,159.023,100.05,97.2762,0.00126401,0.0548781,20.9666,434.372,0.256259,0.0,0.0
464,115.75,44.7091,46.9839,151.525,100.05,99.2961,0.00122839,0.0558972,20.9664,434.232,0.0688879,0.0,1.0
472,117.75,46.2968,50.4077,151.841,100.048,98.6385,0.00132385,0.0568869,20.9656,433.912,0.129333,0.0,1.0
480,119.75,47.3491,53.6692,142.586,100.048,98.7007,0.00152314,0.0576308,20.9639,433.562,0.123584,0.0,1.0
488,121.75,48.8657,56.0882,148.694,100.064,98.6343,0.00168012,0.0610163,20.9624,433.311,0.13114,0.0,0.0
496,123.75,50.2735,57.4205,147.548,100.05,98.3909,0.0018361,0.0855763,20.959,433.041,0.152347,0.0,0.0
504,125.75,50.945,58.7887,146.142,100.063,98.0565,0.00220932,0.1823,20.9673,432.841,0.184642,0.0,0.0
512,127.75,51.581,60.0156,147.563,100.053,98.4703,0.00265249,0.283582,20.9121,432.551,0.14534,0.0,0.0
520,129.75,52.9348,61.6015,140.419,100.061,98.6324,0.00298618,0.344236,20.7822,432.26,0.131081,0.0,0.0
528,131.75,53.9683,63.8375,146.447,100.063,97.8498,0.0032058,0.36311,20.6763,431.99,0.203871,0.0,0.0
536,133.75,55.1769,65.5828,145.013,100.056,98.4299,0.00337246,0.359456,20.607,431.67,0.14935,0.0,0.0
544,135.75,55.7336,66.2862,145.933,100.061,98.553,0.00354569,0.357969,20.5766,431.35,0.138384,0.0,0.0
552,137.75,56.5892,67.4672,143.441,100.061,98.3491,0.00371098,0.362941,20.5643,431.089,0.157257,0.0,0.0
560,139.75,57.9676,68.137,145.012,100.065,98.1666,0.00380158,0.375005,20.5571,430.789,0.174571,0.0,0.0
568,141.75,58.5174,69.4686,137.973,100.05,98.0937,0.00377208,0.386744,20.5421,430.519,0.179999,0.0,0.0
576,143.75,59.313,70.0039,147.078,100.052,97.8201,0.00367368,0.394683,20.5215,430.178,0.205602,0.0,0.0
584,145.75,60.0458,70.5396,144.91,100.057,98.2051,0.0034983,0.398609,20.5065,429.938,0.170225,0.0,0.0
592,147.75,60.4574,71.087,142.727,100.057,98.2395,0.00333492,0.399823,20.5192,429.668,0.167036,0.0,0.0
600,149.75,60.3625,71.7503,144.808,100.065,97.4574,0.00323979,0.399243,20.5478,429.328,0.240611,0.0,0.0
608,151.75,61.8646,72.1801,152.721,100.063,97.8531,0.00334509,0.397749,20.5572,429.118,0.20353,0.0,0.0
616,153.75,61.8592,71.8274,149.139,100.065,97.7472,0.00352913,0.395189,20.5599,428.847,0.213589,0.0,0.0
624,155.75,62.3299,72.2155,145.478,100.069,97.8085,0.00358591,0.390802,20.5611,428.617,0.208259,0.0,0.0
632,157.75,63.0002,72.5153,147.961,100.061,97.7783,0.0036334,0.386861,20.5629,428.367,0.210266,0.0,0.0
640,159.75,62.797,72.4649,145.734,100.07,97.5707,0.0037269,0.382375,20.5639,428.117,0.230519,0.0,0.0
648,161.75,63.4096,72.7034,148.513,100.057,98.2325,0.00386461,0.376617,20.5666,427.856,0.167682,0.0,0.0
656,163.75,63.1314,72.3681,157.603,100.055,97.9836,0.00401531,0.369861,20.5685,427.616,0.190653,0.0,0.0
664,165.75,63.655,72.3582,147.516,100.027,98.3282,0.00412574,0.364198,20.5734,427.336,0.156122,0.0,0.0
672,167.75,63.7967,72.0997,150.51,100.023,97.8066,0.00410622,0.35843,20.578,427.066,0.204169,0.0,0.0
680,169.75,63.5481,72.1213,144.311,100.028,98.2962,0.00402908,0.350696,20.581,426.815,0.159208,0.0,0.0
688,171.75,63.658,72.1919,146.87,100.03,98.4188,0.00401074,0.343976,20.5993,426.575,0.147963,0.0,0.0
696,173.75,63.7386,72.321,146.234,100.02,97.9971,0.00397851,0.339378,20.6116,426.315,0.186174,0.0,0.0
704,175.75,64.3273,71.57,152.448,99.9914,98.5614,0.00390225,0.335975,20.6202,426.035,0.131272,0.0,0.0
712,177.75,64.2133,71.9466,145.422,99.9872,98.3812,0.00386572,0.332838,20.6253,425.764,0.147566,0.0,0.0
720,179.75,64.6636,71.9681,148.472,99.9884,98.88,0.00384346,0.329224,20.6275,425.534,0.101592,0.0,0.0
728,181.75,64.6174,72.1062,145.851,99.9859,98.945,0.00381673,0.325282,20.6291,425.294,0.0953697,0.0,0.0
736,183.75,64.2092,72.4677,148.791,99.9804,98.8795,0.00366394,0.322026,20.6312,425.094,0.100905,0.0,0.0
744,185.75,64.6165,72.6261,153.052,99.9766,99.0179,0.00344509,0.320462,20.6339,424.904,0.08781,0.0,0.0
752,187.75,65.1693,72.49,146.834,99.9636,98.9938,0.00332907,0.31964,20.6366,424.673,0.0888428,0.0,0.0
760,189.75,65.0181,72.2877,145.324,99.9589,99.2562,0.0032997,0.31818,20.6392,424.433,0.0642947,0.0,0.0
768,191.75,65.0058,71.7606,144.883,99.953,98.6937,0.00321473,0.316089,20.6405,424.213,0.115545,0.0,0.0
776,193.75,64.7963,71.7958,148.883,99.9535,99.0277,0.00306033,0.312856,20.6446,424.013,0.0847989,0.0,0.0
784,195.75,64.3391,71.2922,150.632,99.9463,99.1443,0.00282941,0.308578,20.6497,423.813,0.0734238,0.0,0.0
792,197.75,65.0337,71.4944,149.357,99.9395,99.115,0.0026634,0.304368,20.6547,423.623,0.0754981,0.0,0.0
800,199.75,65.0342,70.9499,152.109,99.9417,99.2497,0.0026543,0.300121,20.6588,423.372,0.0633152,0.0,0.0
808,201.75,64.6755,70.9791,150.108,99.9438,99.4824,0.00272438,0.295006,20.664,423.132,0.0421656,0.0,0.0
816,203.75,64.7044,70.9128,148.469,99.9442,99.4671,0.00283852,0.289746,20.6701,422.942,0.043608,0.0,0.0
824,205.75,64.814,70.713,149.349,99.9551,99.2116,0.00290802,0.284359,20.6767,422.712,0.0680425,0.0,0.0
832,207.75,64.5696,70.4357,145.333,99.9518,99.5943,0.00291178,0.279978,20.682,422.552,0.032649,0.0,0.0
840,209.75,63.8987,70.489,151.28,99.9657,99.239,0.00288091,0.276723,20.6877,422.341,0.0664875,0.0,0.0
848,211.75,63.9554,70.3849,148.66,99.9809,99.246,0.00280676,0.274344,20.6933,422.141,0.0672306,0.0,0.0
856,213.75,64.2105,70.3488,148.188,99.9775,99.3691,0.00269517,0.271952,20.6976,421.881,0.0556283,0.0,0.0
864,215.75,64.4957,69.7586,147.975,99.9661,99.3338,0.00262253,0.269171,20.7004,421.681,0.0578286,0.0,0.0
872,217.75,64.3784,69.6716,151.632,99.9758,99.3273,0.00260466,0.264959,20.7009,421.521,0.0593096,0.0,0.0
880,219.75,64.509,69.5711,151.323,99.9931,99.4067,0.00254194,0.261967,20.7031,421.361,0.0536014,0.0,0.0
888,221.75,64.2159,68.9447,150.181,99.9965,99.3886,0.00239826,0.259308,20.7065,421.21,0.05557,0.0,0.0
896,223.75,63.7532,69.3824,151.741,100.007,99.4322,0.00225974,0.257352,20.7091,421.04,0.0525656,0.0,0.0
904,225.75,64.083,69.2736,149.886,100.023,99.6148,0.00230832,0.255624,20.7121,420.83,0.0372733,0.0,0.0
912,227.75,64.068,69.0399,150.229,100.037,99.3542,0.002393,0.253268,20.7148,420.65,0.06241,0.0,0.0
920,229.75,63.8462,69.066,148.053,100.062,99.533,0.00232178,0.250725,20.7168,420.51,0.0483262,0.0,0.0
928,231.75,63.7111,68.4524,149.694,100.054,99.6714,0.00215172,0.2477,20.72,420.33,0.0348949,0.0,0.0
936,233.75,63.9851,68.0286,148.572,100.057,99.7193,0.0020288,0.245639,20.724,420.129,0.030828,0.0,0.0
944,235.75,63.9706,68.4995,152.322,100.073,99.5739,0.00208491,0.243419,20.7274,419.999,0.0455453,0.0,0.0
952,237.75,63.3023,68.407,151.741,100.077,99.4866,0.00215765,0.240342,20.7313,419.849,0.0539621,0.0,0.0
960,239.75,63.1141,67.6121,154.736,100.074,99.5535,0.00216371,0.237582,20.7339,419.659,0.0474919,0.0,0.0
968,241.75,63.4184,67.5996,153.709,100.082,99.6737,0.00220319,0.235087,20.7347,419.499,0.0372549,0.0,0.0
976,243.75,62.806,67.6494,149.661,100.064,99.6965,0.0022704,0.232279,20.7374,419.379,0.0335615,0.0,0.0
984,245.75,63.0268,67.5581,152.57,100.055,99.4633,0.00229613,0.229461,20.7411,419.169,0.0540928,0.0,0.0
992,247.75,63.1231,67.2085,153.375,100.046,99.6157,0.00234393,0.22731,20.7447,419.038,0.0392628,0.0,0.0
1000,249.75,62.6037,66.9667,151.883,100.032,99.4666,0.00224835,0.225132,20.7477,418.808,0.0516442,0.0,0.0
1008,251.75,62.9445,66.5656,152.866,100.017,99.5822,0.00214684,0.221461,20.7508,418.698,0.0396716,0.0,0.0
1016,253.75,62.4033,66.2244,150.389,99.9834,99.592,0.00216532,0.218338,20.7549,418.538,0.0357444,0.0,0.0
1024,255.75,62.2396,66.109,154.94,99.9703,99.4555,0.00219344,0.215349,20.7601,418.398,0.0470553,0.0,0.0
1032,257.75,62.353,66.1042,149.702,99.9438,99.5386,0.0021775,0.212872,20.7656,418.258,0.037019,0.0,0.0
1040,259.75,61.7272,65.9237,153.342,99.9054,99.7569,0.00206935,0.210718,20.7703,418.098,0.0135566,0.0,0.0
1048,261.75,61.8744,66.0255,150.487,99.8628,99.5808,0.00190137,0.209583,20.7731,418.027,0.0257671,0.0,0.0
1056,263.75,62.2515,65.172,149.335,99.8055,99.383,0.00181493,0.208611,20.7716,417.877,0.038657,0.0,0.0
1064,265.75,61.8927,65.5589,149.054,99.7405,99.0876,0.00183758,0.207277,20.772,417.757,0.0598546,0.0,0.0
1072,267.75,61.8056,65.3782,152.899,99.7114,99.2771,0.00189215,0.20516,20.7741,417.597,0.0397841,0.0,0.0
1080,269.75,61.8288,65.4908,153.657,99.6322,98.997,0.00194773,0.202973,20.7754,417.467,0.058282,0.0,0.0
1088,271.75,61.7032,65.5716,151.441,99.6482,99.1368,0.00201023,0.200687,20.7782,417.337,0.0468877,0.0,0.0
1096,273.75,61.6194,64.8596,149.349,99.6731,99.1698,0.0021097,0.199124,20.7826,417.227,0.0461322,0.0,0.0
1104,275.75,61.3872,65.0492,155.356,99.703,99.0105,0.00222029,0.197691,20.7869,417.097,0.0635191,0.0,0.0
1112,277.75,61.6098,64.5126,152.898,99.706,99.2822,0.00219455,0.195721,20.7903,416.947,0.0388149,0.0,0.0
1120,279.75,61.2601,64.5164,154.039,99.7561,99.2074,0.00200682,0.193517,20.7933,416.816,0.0502657,0.0,0.0
1128,281.75,61.1665,64.2347,155.691,99.7684,99.5632,0.00180233,0.19193,20.7965,416.706,0.0187598,0.0,0.0
1136,283.75,61.0876,64.6461,153.533,99.784,99.5567,0.00175254,0.191372,20.7988,416.566,0.0207793,0.0,0.0
1144,285.75,61.0584,64.1524,152.202,99.824,99.4248,0.00179148,0.190051,20.7996,416.426,0.0365191,0.0,0.0
1152,287.75,60.5932,63.7782,151.996,99.8354,99.3287,0.001743,0.188138,20.7967,416.266,0.0463754,0.0,0.0
1160,289.75,60.5722,63.7199,149.778,99.8556,99.2646,0.00174608,0.186503,20.7959,416.106,0.0541046,0.0,0.0
1168,291.75,60.6882,63.7056,155.823,99.8906,99.3194,0.00189995,0.185088,20.798,415.976,0.0522675,0.0,0.0
1176,293.75,60.3158,63.1847,154.572,99.9155,99.304,0.00214925,0.184193,20.8004,415.866,0.0559436,0.0,0.0
1184,295.75,59.9976,62.8373,155.156,99.953,99.5144,0.00228275,0.182629,20.8028,415.725,0.0400772,0.0,0.0
1192,297.75,60.3575,63.2546,153.437,99.9678,99.5776,0.00221628,0.181322,20.8039,415.625,0.0356394,0.0,0.0
1200,299.75,60.1409,63.3527,155.798,99.9758,99.4935,0.00206111,0.18089,20.8063,415.525,0.0440664,0.0,0.0
1208,301.75,60.1753,63.1956,150.545,100.017,99.5223,0.00200155,0.179994,20.8079,415.425,0.045194,0.0,0.0
1216,303.75,59.7279,62.8855,149.208,100.056,99.5103,0.00205562,0.178285,20.809,415.285,0.0498335,0.0,0.0
1224,305.75,60.03,62.6094,150.981,100.098,99.6008,0.00211005,0.177439,20.8106,415.165,0.0453831,0.0,0.0
1232,307.75,59.6754,62.5623,152.828,100.101,99.6157,0.00206174,0.17682,20.8127,415.045,0.0443302,0.0,0.0
1240,309.75,59.588,62.14,153.504,100.107,99.3695,0.00200031,0.174965,20.8118,414.955,0.067415,0.0,0.0
1248,311.75,59.9221,62.1067,151.764,100.112,99.4364,0.00200153,0.172828,20.8107,414.845,0.0617431,0.0,0.0
1256,313.75,59.2127,61.6069,151.65,100.122,99.7434,0.00207579,0.170957,20.8135,414.755,0.0345334,0.0,0.0
1264,315.75,59.4676,61.6082,152.93,100.123,99.5999,0.00219327,0.168987,20.8177,414.604,0.0477329,0.0,0.0
1272,317.75,58.908,62.0861,155.247,100.137,99.527,0.00229877,0.167933,20.8215,414.504,0.0556726,0.0,0.0
1280,319.75,58.9115,61.6194,156.842,100.153,99.5279,0.00233121,0.166903,20.8235,414.404,0.0570848,0.0,0.0
1288,321.75,58.2989,61.5656,151.905,100.166,99.559,0.00220652,0.166144,20.825,414.284,0.0554253,0.0,0.0
1296,323.75,59.0337,61.3355,156.51,100.188,99.7903,0.00212179,0.165945,20.827,414.134,0.0362335,0.0,0.0
1304,325.75,58.853,61.3289,155.874,100.2,99.638,0.00218918,0.16548,20.8286,414.014,0.0512294,0.0,0.0
1312,327.75,58.4056,60.9649,155.466,100.208,99.807,0.00226623,0.164271,20.8293,413.914,0.0365462,0.0,0.0
1320,329.75,58.1492,60.7437,156.02,100.236,99.8911,0.00226242,0.1628,20.8305,413.784,0.0313661,0.0,0.0
1328,331.75,58.7376,61.2168,154.95,100.262,99.6886,0.00228598,0.161159,20.8319,413.684,0.0522739,0.0,0.0
1336,333.75,58.5531,61.0402,150.315,100.288,99.768,0.00235888,0.159966,20.8297,413.573,0.0473914,0.0,0.0
1344,335.75,58.1021,60.6578,148.554,100.317,99.8725,0.00230826,0.159353,20.8298,413.483,0.0404947,0.0,0.0
1352,337.75,58.0764,60.683,153.233,100.336,99.8814,0.0021878,0.158188,20.8304,413.373,0.041374,0.0,0.0
1360,339.75,58.0736,59.9396,154.195,100.346,99.9742,0.0021693,0.157037,20.8316,413.283,0.0338602,0.0,0.0
1368,341.75,58.1418,60.453,154.365,100.379,99.873,0.00221307,0.15628,20.8339,413.193,0.0460425,0.0,0.0
1376,343.75,58.2597,59.9889,154.863,100.394,99.8242,0.00222961,0.155926,20.8352,413.103,0.0519088,0.0,0.0
1384,345.75,58.2559,60.7062,158.169,100.418,99.8818,0.0022919,0.155383,20.8373,412.993,0.0487952,0.0,0.0
1392,347.75,57.544,59.966,159.909,100.435,99.8586,0.00235694,0.154826,20.8384,412.873,0.0524068,0.0,0.0
1400,349.75,57.4901,60.4326,155.527,100.447,99.9612,0.0023017,0.154017,20.84,412.823,0.0441918,0.0,0.0
1408,351.75,58.3114,60.3134,157.465,100.472,99.9115,0.00220897,0.154023,20.8407,412.713,0.0509809,0.0,0.0
1416,353.75,57.608,60.0944,151.77,100.467,100.058,0.00222613,0.153656,20.841,412.623,0.0371478,0.0,0.0
1424,355.75,57.7542,60.2851,153.361,100.481,100.188,0.00233612,0.15265,20.8406,412.553,0.026611,0.0,0.0
1432,357.75,57.367,59.8735,149.617,100.488,100.129,0.00247753,0.152295,20.8398,412.392,0.0325483,0.0,0.0
1440,359.75,57.3368,59.8043,152.96,100.493,99.9529,0.00256612,0.152487,20.8403,412.262,0.0490837,0.0,0.0
1448,361.75,57.4716,59.7918,154.012,100.492,99.8749,0.00247377,0.152045,20.8405,412.142,0.056125,0.0,0.0
1456,363.75,57.4747,59.8684,152.614,100.49,99.9979,0.00231441,0.151108,20.8418,412.052,0.0447486,0.0,0.0
1464,365.75,57.6734,60.0876,153.381,100.494,99.9873,0.00223626,0.149744,20.842,411.962,0.0460274,0.0,0.0
1472,367.75,57.3958,59.317,153.571,100.507,99.8688,0.00230304,0.148817,20.8421,411.832,0.0580143,0.0,0.0
1480,369.75,57.2555,59.7877,157.759,100.501,100.044,0.00241948,0.148401,20.8435,411.732,0.0414713,0.0,0.0
1488,371.75,57.1636,58.8525,155.025,100.533,99.9413,0.00244512,0.148142,20.8454,411.672,0.053812,0.0,0.0
1496,373.75,56.9777,59.257,158.235,100.529,100.165,0.00243413,0.148297,20.8462,411.572,0.0330019,0.0,0.0
1504,375.75,57.1153,59.3493,153.072,100.534,99.9074,0.00248231,0.147808,20.8472,411.502,0.0569812,0.0,0.0
1512,377.75,56.9532,59.102,154.76,100.556,99.9371,0.00252129,0.146419,20.8489,411.382,0.0562956,0.0,0.0
1520,379.75,57.2479,59.0208,157.2,100.553,100.061,0.00247898,0.145642,20.8474,411.301,0.0446502,0.0,0.0
1528,381.75,56.8902,59.4982,156.813,100.549,99.8089,0.00248471,0.145318,20.8471,411.211,0.067305,0.0,0.0
1536,383.75,56.818,59.1621,160.19,100.558,100.011,0.00256861,0.145204,20.8483,411.141,0.0497168,0.0,0.0
1544,385.75,56.8273,59.2435,154.401,100.556,100.082,0.00261337,0.145177,20.8494,411.021,0.0430955,0.0,0.0
1552,387.75,56.8639,58.9017,150.352,100.555,100.049,0.00250574,0.145104,20.8498,410.921,0.0459798,0.0,0.0
1560,389.75,56.5314,58.7936,159.899,100.565,100.248,0.00226383,0.144672,20.85,410.821,0.0287652,0.0,0.0
1568,391.75,56.7526,58.4166,152.531,100.557,99.9794,0.0021632,0.144384,20.8501,410.741,0.0524803,0.0,0.0
1576,393.75,57.3632,58.804,154.935,100.555,99.8971,0.00224709,0.144232,20.8502,410.661,0.0598244,0.0,0.0
1584,395.75,56.5885,58.8835,157.68,100.57,100.023,0.00233014,0.143565,20.851,410.551,0.0497665,0.0,0.0
1592,397.75,56.245,58.6956,152.799,100.574,99.938,0.00229061,0.142793,20.8519,410.401,0.0578534,0.0,0.0
1600,399.75,56.2371,58.6787,154.085,100.542,99.8163,0.00225195,0.142555,20.8523,410.28,0.0660151,0.0,0.0
1608,401.75,56.2797,58.3773,157.212,100.553,100.062,0.00230079,0.142353,20.8519,410.18,0.0446426,0.0,0.0
1616,403.75,56.4939,58.5429,159.749,100.547,99.9287,0.00240289,0.142095,20.851,410.1,0.0562178,0.0,0.0
1624,405.75,55.6111,58.769,154.092,100.551,99.9533,0.00255493,0.141466,20.8515,409.99,0.0543552,0.0,0.0
1632,407.75,56.4409,58.2001,151.722,100.552,100.057,0.00270829,0.141129,20.8517,409.93,0.0449507,0.0,0.0
1640,409.75,56.384,58.3491,151.842,100.558,100.073,0.00285389,0.141048,20.8518,409.86,0.0440091,0.0,0.0
1648,411.75,56.4286,58.0842,156.498,100.564,99.9738,0.00301291,0.140629,20.8519,409.72,0.0536003,0.0,0.0
1656,413.75,55.6781,58.3373,154.429,100.556,99.9747,0.00308084,0.140242,20.8531,409.67,0.0528281,0.0,0.0
1664,415.75,56.0253,57.952,157.163,100.556,99.9074,0.00302503,0.140093,20.8538,409.57,0.0590063,0.0,0.0
1672,417.75,55.383,58.399,150.839,100.566,100.106,0.00293508,0.139892,20.8541,409.51,0.041733,0.0,0.0
1680,419.75,55.8565,57.9443,152.636,100.565,100.066,0.00292817,0.139939,20.8542,409.4,0.0452934,0.0,0.0
1688,421.75,55.8645,57.7359,153.615,100.562,100.037,0.00290169,0.139918,20.8542,409.3,0.0476907,0.0,0.0
1696,423.75,55.9034,57.6064,153.172,100.555,100.035,0.00278923,0.139316,20.8551,409.24,0.047253,0.0,0.0
1704,425.75,56.1109,57.8752,153.109,100.561,99.7838,0.00278124,0.138908,20.8554,409.119,0.0706646,0.0,0.0
1712,427.75,55.7116,58.0912,151.657,100.558,99.9882,0.00282424,0.138783,20.8565,409.019,0.0518289,0.0,0.0
1720,429.75,55.5935,57.1826,157.862,100.577,100.122,0.00286587,0.138647,20.8569,408.939,0.0413653,0.0,0.0
1728,431.75,55.729,57.996,154.887,100.558,99.8776,0.00284182,0.138443,20.8558,408.859,0.0618715,0.0,0.0
1736,433.75,55.7077,57.9987,155.182,100.554,100.036,0.00278478,0.137919,20.8552,408.789,0.0470066,0.0,0.0
1744,435.75,55.1829,57.2,152.563,100.542,99.8637,0.00282395,0.137672,20.8561,408.609,0.0616903,0.0,0.0
1752,437.75,55.7437,57.8182,156.947,100.551,99.9636,0.00280526,0.137763,20.8567,408.529,0.0534232,0.0,0.0
1760,439.75,55.5403,57.74,155.427,100.543,100.014,0.00260308,0.137527,20.8574,408.409,0.048083,0.0,0.0
1768,441.75,55.5634,57.4127,154.478,100.534,99.9445,0.0024866,0.137489,20.8578,408.329,0.0535549,0.0,0.0
1776,443.75,55.493,57.5921,152.102,100.54,100.153,0.00250669,0.137347,20.8579,408.239,0.0351751,0.0,0.0
1784,445.75,55.6609,57.6063,156.527,100.527,100.173,0.00263225,0.13769,20.858,408.159,0.0321683,0.0,0.0
1792,447.75,55.8957,57.5325,154.811,100.533,99.8679,0.0027725,0.137356,20.858,408.059,0.0604687,0.0,0.0
1800,449.75,55.3688,57.4982,150.638,100.537,100,0.00290987,0.136698,20.8584,408.008,0.04878,0.0,0.0
1808,451.75,55.1758,57.6469,156.036,100.538,100.212,0.00303519,0.136201,20.8586,407.938,0.0296565,0.0,0.0
1816,453.75,55.2129,57.0704,153.313,100.525,99.7899,0.00310102,0.135489,20.8587,407.868,0.066865,0.0,0.0
1824,455.75,54.9683,57.9284,157.205,100.509,100.214,0.00310804,0.134975,20.8587,407.738,0.0267659,0.0,0.0
1832,457.75,55.3045,57.5949,155.034,100.502,99.9204,0.00314345,0.134984,20.8597,407.678,0.0528907,0.0,0.0
1840,459.75,55.171,57.3369,157.461,100.482,99.9032,0.00325285,0.135181,20.8605,407.588,0.0526228,0.0,0.0
1848,461.75,55.2005,57.2129,152.286,100.47,99.8159,0.00333545,0.135537,20.8608,407.468,0.05952,0.0,0.0
1856,463.75,54.83,57.4252,153.26,100.444,99.8651,0.0033412,0.13577,20.861,407.388,0.052693,0.0,0.0
1864,465.75,55.3036,57.6572,153.112,100.422,99.8461,0.00332398,0.135209,20.861,407.328,0.0524046,0.0,0.0
1872,467.75,55.2715,57.4026,152.269,100.397,99.6292,0.00329243,0.134724,20.8611,407.238,0.0699261,0.0,0.0
1880,469.75,55.3369,56.8678,156.482,100.362,99.6366,0.00324156,0.134615,20.8611,407.088,0.0661456,0.0,0.0
1888,471.75,54.8845,57.5787,157.64,100.34,99.7211,0.00326962,0.134664,20.8596,406.998,0.0563884,0.0,0.0
1896,473.75,55.0107,57.2025,158.048,100.312,99.7522,0.00327674,0.135062,20.8591,406.867,0.0510176,0.0,0.0
1904,475.75,55.0888,57.3857,153.266,100.262,99.4968,0.0031369,0.134938,20.8595,406.817,0.0698259,0.0,0.0
1912,477.75,54.7852,57.418,153.767,100.248,99.6175,0.00306087,0.134359,20.8596,406.677,0.0574691,0.0,0.0
1920,479.75,55.0195,57.2489,153.553,100.232,99.6909,0.00312039,0.133874,20.8596,406.597,0.0493019,0.0,0.0
1928,481.75,55.0332,57.1122,155.902,100.214,99.5154,0.00325688,0.133017,20.8592,406.577,0.0637542,0.0,0.0
1936,483.75,55.1739,56.6133,158.725,100.193,99.4945,0.00331332,0.132134,20.8598,406.467,0.0637143,0.0,0.0
1944,485.75,55.126,56.889,150.297,100.168,99.3561,0.00337091,0.131764,20.8606,406.387,0.074176,0.0,0.0
1952,487.75,54.7606,57.0131,152.119,100.141,99.4601,0.00341165,0.131808,20.861,406.317,0.0621834,0.0,0.0
1960,489.75,54.4707,56.8457,154.608,100.105,99.3756,0.00341924,0.131848,20.8611,406.217,0.0666698,0.0,0.0
1968,491.75,54.6481,56.9249,155.445,100.079,99.3347,0.00343034,0.131434,20.8607,406.097,0.0680382,0.0,0.0
1976,493.75,54.8188,56.9087,154.886,100.039,99.4006,0.00345981,0.131383,20.8607,406.057,0.0583424,0.0,0.0
1984,495.75,55.267,57.0974,155.401,100.018,99.3765,0.0034498,0.131893,20.8625,405.967,0.058636,0.0,0.0
1992,497.75,54.7043,57.0351,151.035,99.9922,99.3398,0.003466,0.131843,20.864,405.897,0.0596582,0.0,0.0
2000,499.75,54.6149,56.6707,151.568,99.9745,99.4058,0.0035572,0.131556,20.8634,405.766,0.0519953,0.0,0.0
2008,501.75,54.6978,56.7037,154.666,99.9463,99.2316,0.00360578,0.131571,20.863,405.696,0.0654014,0.0,0.0
2016,503.75,54.6026,56.8209,153.424,99.9417,99.2181,0.00367717,0.13145,20.8629,405.646,0.0662157,0.0,0.0
2024,505.75,54.7643,56.8739,152.663,99.9007,99.4355,0.00373001,0.131394,20.8628,405.546,0.0425419,0.0,0.0
2032,507.75,54.5553,57.2265,157.061,99.8527,99.1266,0.00370482,0.131353,20.8628,405.436,0.066508,0.0,0.0
2040,509.75,54.8543,56.6117,153.838,99.8308,99.1791,0.00365861,0.13114,20.8628,405.326,0.059683,0.0,0.0
2048,511.75,55.019,56.4135,153.441,99.7979,99.3705,0.00358482,0.130734,20.8627,405.206,0.0391156,0.0,0.0
2056,513.75,54.5937,56.7623,155.157,99.7604,99.1981,0.00355306,0.130047,20.8623,405.126,0.0515038,0.0,0.0
2064,515.75,54.4024,56.7655,156.074,99.738,98.9966,0.00354959,0.129635,20.8627,405.056,0.0680005,0.0,0.0
2072,517.75,54.3664,56.6062,157.68,99.687,99.0096,0.00361369,0.129941,20.8655,404.956,0.0621402,0.0,0.0
2080,519.75,54.5768,56.7139,154.522,99.6516,99.285,0.00369077,0.130221,20.8668,404.896,0.0335864,0.0,0.0
2088,521.75,54.5122,56.7924,155.956,99.6145,99.0537,0.00367836,0.130179,20.8663,404.806,0.0514476,0.0,0.0
2096,523.75,54.5263,56.4678,156.648,99.5951,98.9692,0.00364263,0.12978,20.8663,404.735,0.057454,0.0,0.0
2104,525.75,54.1956,56.4448,154.766,99.5673,98.8814,0.0037018,0.129679,20.8663,404.665,0.0629936,0.0,0.0
2112,527.75,54.6242,56.4361,156.667,99.5272,98.8837,0.0037998,0.129686,20.8671,404.575,0.0591131,0.0,0.0
2120,529.75,54.2878,56.8106,154.131,99.4897,99.023,0.00383115,0.129682,20.8667,404.455,0.0428447,0.0,0.0
2128,531.75,54.2168,56.2673,156.461,99.5015,98.73,0.00376862,0.129455,20.8665,404.335,0.0709384,0.0,0.0
2136,533.75,54.343,56.1419,153.628,99.4551,98.6663,0.00368616,0.128551,20.8664,404.325,0.0725638,0.0,0.0
2144,535.75,54.6392,56.6513,153.779,99.4121,98.9947,0.0037105,0.128041,20.8664,404.235,0.0383433,0.0,0.0
2152,537.75,54.6015,56.4286,152.761,99.3889,98.7007,0.00383196,0.127511,20.8663,404.155,0.0633227,0.0,0.0
2160,539.75,54.1892,56.4339,155.206,99.3611,98.7773,0.00395725,0.127275,20.8663,404.075,0.0536986,0.0,0.0
2168,541.75,54.1948,56.9526,158.325,99.3383,98.7843,0.00401783,0.127813,20.8674,404.005,0.0509679,0.0,0.0
2176,543.75,54.2513,56.6238,153.704,99.3396,98.5479,0.00401173,0.128113,20.8678,403.885,0.0729184,0.0,0.0
2184,545.75,53.8987,56.6122,155.958,99.316,98.9664,0.00408997,0.127083,20.868,403.755,0.0321369,0.0,0.0
2192,547.75,54.5309,56.1639,154.382,99.2856,98.6557,0.00429573,0.124809,20.8681,403.665,0.0580078,0.0,0.0
2200,549.75,53.804,56.3356,153.618,99.2654,98.5247,0.00440774,0.124277,20.8683,403.604,0.0682571,0.0,0.0
2208,551.75,54.4384,55.7388,159.965,99.2527,98.4917,0.00423541,0.124758,20.8696,403.484,0.0701461,0.0,0.0
2216,553.75,54.0842,56.0868,158.005,99.2355,98.442,0.00398343,0.125129,20.8701,403.424,0.0731587,0.0,0.0
2224,555.75,53.6866,55.8797,155.469,99.2241,98.7708,0.0038386,0.125086,20.8703,403.334,0.0417222,0.0,0.0
2232,557.75,54.4848,56.2774,158.44,99.2064,98.6584,0.00390268,0.124537,20.8704,403.264,0.0504721,0.0,0.0
2240,559.75,54.3387,56.4297,155.404,99.192,98.2971,0.00406931,0.124815,20.8705,403.194,0.0825944,0.0,0.0
2248,561.75,54.0783,55.8611,151.742,99.1613,98.9162,0.00424134,0.124918,20.8703,403.114,0.022547,0.0,0.0
2256,563.75,54.2819,56.2586,157.939,99.1296,98.2971,0.004364,0.123602,20.8706,403.034,0.0768598,0.0,0.0
2264,565.75,53.8761,55.8957,153.705,99.1157,98.4369,0.00450021,0.122704,20.871,402.964,0.062629,0.0,0.0
2272,567.75,54.0799,55.8311,157.772,99.1056,98.4699,0.00463019,0.121724,20.8725,402.884,0.0586458,0.0,0.0
2280,569.75,53.833,55.6795,158.085,99.0643,98.1327,0.00467518,0.120731,20.8736,402.814,0.0861066,0.0,0.0
2288,571.75,53.9386,55.3135,154.865,99.0344,98.6691,0.0047469,0.119932,20.875,402.704,0.0336708,0.0,0.0
2296,573.75,53.109,55.5368,154.684,99.0137,98.3877,0.00495818,0.118398,20.8756,402.614,0.0578016,0.0,0.0
2304,575.75,53.8077,55.5864,156.22,98.9774,98.2172,0.00518076,0.117905,20.8775,402.513,0.0702657,0.0,0.0
2312,577.75,53.7916,55.037,156.517,98.9606,98.3719,0.0052408,0.118886,20.8781,402.433,0.0543735,0.0,0.0
2320,579.75,53.5127,55.1217,160.514,98.9433,98.1266,0.00521499,0.118581,20.877,402.383,0.0755282,0.0,0.0
2328,581.75,52.9892,55.586,154.318,98.9117,98.2237,0.00516262,0.118266,20.8756,402.313,0.0636054,0.0,0.0
2336,583.75,53.1963,54.8781,153.539,98.9016,97.7342,0.00506098,0.117733,20.875,402.193,0.108206,0.0,0.0
2344,585.75,53.2969,54.8082,157.365,98.8657,97.8419,0.0049686,0.117113,20.8747,402.063,0.0948612,0.0,0.0
2352,587.75,53.0783,54.9396,155.046,98.8611,97.6836,0.00506168,0.116101,20.8782,401.983,0.109196,0.0,0.0
2360,589.75,53.6008,54.9942,154.353,98.8472,97.9381,0.00525709,0.115101,20.8797,401.913,0.0842005,0.0,0.0
2368,591.75,53.6031,54.8472,152.345,98.8514,98.2042,0.00543385,0.113845,20.8804,401.833,0.0598589,0.0,0.0
2376,593.75,53.2535,54.9081,156.223,98.8404,98.0045,0.00562706,0.11117,20.8816,401.753,0.0774006,0.0,0.0
2384,595.75,53.5617,54.8496,155.629,98.8235,97.9255,0.00586829,0.109662,20.8825,401.653,0.0831897,0.0,0.0
2392,597.75,53.2891,54.7477,159.802,98.8391,97.9594,0.00613264,0.110055,20.8839,401.613,0.0814736,0.0,0.0
2400,599.75,52.8797,54.7369,153.235,98.8311,98.0115,0.00626008,0.111758,20.8849,401.593,0.0758978,0.0,0.0
2408,601.75,52.333,54.853,159.349,98.84,97.9534,0.00616429,0.11229,20.8839,401.483,0.0821131,0.0,0.0
2416,603.75,53.104,54.4286,157.173,98.832,97.488,0.00597026,0.111504,20.8822,401.433,0.124776,0.0,0.0
2424,605.75,52.7076,54.2273,154.737,98.8467,97.9599,0.00585001,0.110714,20.8814,401.282,0.0821304,0.0,0.0
2432,607.75,52.9223,54.4252,151.791,98.8543,97.155,0.00580282,0.109318,20.8811,401.242,0.158018,0.0,0.0
2440,609.75,51.9991,53.7175,153.121,98.8425,96.7881,0.00588755,0.108194,20.8839,400.622,0.191414,0.0,0.0
2448,611.75,52.5252,53.6182,158.723,98.8585,96.8782,0.00610649,0.106811,20.8883,400.952,0.18441,0.0,0.0
2456,613.75,52.0592,53.1859,157.449,98.8703,96.6357,0.00625416,0.105118,20.8901,400.982,0.208332,0.0,0.0
2464,615.75,51.9277,53.2025,158.585,98.8682,96.9818,0.00638704,0.103098,20.891,400.922,0.175566,0.0,0.0
2472,617.75,51.8685,53.0755,156.716,98.8851,96.953,0.006699,0.0990243,20.8913,400.852,0.179827,0.0,0.0
2480,619.75,52.1413,52.6081,155.876,98.8889,96.711,0.00723599,0.0948769,20.8921,400.782,0.202951,0.0,0.0
2488,621.75,51.7381,52.8153,157.768,98.891,96.7472,0.00764638,0.0920617,20.895,400.712,0.199732,0.0,0.0
2496,623.75,51.4154,52.8644,157.961,98.9159,96.5038,0.00788563,0.0903788,20.8981,400.592,0.224976,0.0,0.0
2504,625.75,51.3181,52.1359,158.245,98.9117,96.8643,0.00810009,0.0893488,20.8998,400.492,0.190617,0.0,0.0
2512,627.75,51.7055,52.0259,160.814,98.9467,96.8861,0.00829502,0.0888623,20.9005,400.402,0.191787,0.0,0.0
2520,629.75,50.8103,51.8688,158.047,98.9564,97.1244,0.00837996,0.0882561,20.9008,400.342,0.170295,0.0,0.0
2528,631.75,51.0713,52.0902,156.157,98.9817,97.0579,0.00833864,0.0879018,20.901,400.281,0.178859,0.0,0.0
2536,633.75,51.0732,51.7521,155.557,99.0154,97.3487,0.00821662,0.0876787,20.9106,400.181,0.154705,0.0,0.0
2544,635.75,51.1701,51.6827,157.688,99.0386,97.246,0.00815219,0.0871426,20.9147,400.141,0.166453,0.0,0.0
2552,637.75,51.1506,51.6178,159.055,99.0622,97.3696,0.00818148,0.0867132,20.9165,400.051,0.157055,0.0,0.0
2560,639.75,50.7475,51.6338,156.407,99.0845,97.2446,0.00820691,0.086814,20.9167,399.961,0.170812,0.0,0.0
2568,641.75,50.6903,51.5796,162.158,99.0997,97.1206,0.00824088,0.086966,20.9165,399.861,0.183836,0.0,0.0
2576,643.75,50.5133,51.4557,158.893,99.1334,97.5131,0.00836004,0.0870465,20.9159,399.831,0.150186,0.0,0.0
2584,645.75,50.9144,51.6145,156.798,99.1596,97.4811,0.00840068,0.0866705,20.9157,399.721,0.155583,0.0,0.0
2592,647.75,50.6916,51.7684,163.865,99.1773,97.6134,0.00829532,0.0862538,20.9156,399.711,0.144844,0.0,0.0
2600,649.75,50.7295,51.3013,157.229,99.2173,97.5475,0.00819945,0.0863531,20.9155,399.651,0.154683,0.0,0.0
2608,651.75,49.8942,51.2289,156.413,99.2258,97.6367,0.00818296,0.0865691,20.9148,399.571,0.14713,0.0,0.0
2616,653.75,50.3337,51.4728,157.192,99.2418,97.7045,0.00806995,0.086787,20.9138,399.491,0.142274,0.0,0.0
2624,655.75,50.5832,51.2655,157.739,99.2498,97.6562,0.00790129,0.086773,20.9148,399.451,0.147517,0.0,0.0
2632,657.75,50.505,51.5532,160.969,99.2818,97.7291,0.00783465,0.0868879,20.9157,399.361,0.143656,0.0,0.0
2640,659.75,50.3442,50.9827,158.764,99.2907,97.6961,0.00784253,0.0866912,20.9161,399.281,0.147544,0.0,0.0
2648,661.75,50.2295,51.4368,157.632,99.2924,97.5962,0.00788856,0.0867852,20.9163,399.18,0.157019,0.0,0.0
2656,663.75,50.0994,51.2659,163.017,99.2911,97.521,0.00797874,0.0869189,20.9164,399.04,0.16393,0.0,0.0
2664,665.75,49.9518,51.1427,158.609,99.3198,97.5846,0.00799678,0.087092,20.9164,399,0.160618,0.0,0.0
2672,667.75,49.5828,50.883,157.899,99.2928,97.9441,0.00789717,0.0874547,20.9164,398.9,0.124631,0.0,0.0
2680,669.75,50.2358,51.2026,157.985,99.2839,97.5038,0.00786391,0.0880791,20.9151,398.84,0.164879,0.0,0.0
2688,671.75,49.7272,50.7142,157.09,99.2814,97.6678,0.00785832,0.0889945,20.9132,398.81,0.149336,0.0,0.0
2696,673.75,50.4112,50.8258,158.032,99.2683,97.4109,0.00786243,0.0898651,20.9123,398.73,0.172133,0.0,0.0
2704,675.75,50.2015,50.704,153.753,99.2734,97.7732,0.00792556,0.0900363,20.912,398.7,0.138769,0.0,0.0
2712,677.75,49.9192,50.6351,158.245,99.2764,97.6343,0.00795398,0.0896845,20.9109,398.62,0.151992,0.0,0.0
2720,679.75,49.6971,50.9352,156.774,99.289,97.8935,0.00792934,0.088793,20.9108,398.55,0.128995,0.0,0.0
2728,681.75,49.916,50.5668,156.255,99.2785,97.5693,0.00787243,0.0881376,20.9117,398.47,0.158258,0.0,0.0
2736,683.75,49.6856,51.2776,157.679,99.2957,97.5688,0.00779187,0.0878194,20.9125,398.37,0.159888,0.0,0.0
2744,685.75,49.1985,50.4795,156.787,99.2941,97.789,0.00772145,0.0872589,20.9128,398.31,0.139192,0.0,0.0
2752,687.75,49.4489,50.7871,157.818,99.2856,97.521,0.00781021,0.0870848,20.9132,398.25,0.163428,0.0,0.0
2760,689.75,49.6261,50.5572,155.908,99.2941,97.4922,0.00796857,0.0871107,20.9144,398.2,0.166893,0.0,0.0
2768,691.75,49.509,50.7458,158.534,99.3004,97.7941,0.00800683,0.0869741,20.915,398.12,0.139297,0.0,0.0
2776,693.75,49.8477,49.9219,159.915,99.3084,97.9608,0.00791629,0.0868465,20.9152,398.029,0.124507,0.0,0.0
2784,695.75,49.6726,50.3266,159.273,99.3101,97.8331,0.00776596,0.086759,20.9153,397.949,0.136553,0.0,0.0
2792,697.75,49.1312,50.4487,156.675,99.3358,97.737,0.00763798,0.0865601,20.9154,397.879,0.147872,0.0,0.0
2800,699.75,48.9062,50.4297,157.281,99.3522,97.6492,0.00761484,0.0869425,20.914,397.819,0.157569,0.0,0.0
2808,701.75,49.6973,50.4572,157.615,99.3594,98.0119,0.00777329,0.087381,20.9139,397.719,0.124436,0.0,0.0
2816,703.75,49.1637,50.3631,160.534,99.3729,97.6027,0.00793087,0.0875835,20.9142,397.579,0.163799,0.0,0.0
2824,705.75,49.5826,50.6544,155.052,99.3775,97.7797,0.00797884,0.0877528,20.9143,397.519,0.147717,0.0,0.0
2832,707.75,49.463,50.0748,165.488,99.3695,97.8735,0.00788997,0.0882058,20.9143,397.459,0.138242,0.0,0.0
2840,709.75,49.2649,50.8136,155.346,99.4003,97.8182,0.007827,0.0886378,20.9139,397.399,0.146213,0.0,0.0
2848,711.75,49.4146,50.5258,157.505,99.4214,97.6654,0.00784438,0.0886927,20.9128,397.349,0.162392,0.0,0.0
2856,713.75,49.4705,50.4955,156.059,99.456,98.0068,0.00790976,0.0886905,20.9124,397.309,0.133762,0.0,0.0
2864,715.75,48.8373,50.4881,163.619,99.4791,98.0742,0.00797895,0.0888874,20.9122,397.239,0.129627,0.0,0.0
2872,717.75,49.1317,50.216,157.268,99.4593,98.1945,0.0079673,0.0888273,20.9121,397.179,0.11664,0.0,0.0
2880,719.75,49.4204,50.6906,160.927,99.4707,98.057,0.00791461,0.0884689,20.912,397.099,0.130451,0.0,0.0
2888,721.75,49.2739,50.753,156.013,99.4859,97.991,0.00784927,0.0880779,20.912,397.019,0.137973,0.0,0.0
2896,723.75,49.6517,50.8884,159.87,99.4943,97.9655,0.00785211,0.0880016,20.9119,396.948,0.141121,0.0,0.0
2904,725.75,49.7206,50.8119,157.831,99.5125,98.0533,0.00789934,0.0878969,20.9116,396.898,0.13462,0.0,0.0
2912,727.75,49.7328,51.1584,159.296,99.534,98.2311,0.00782226,0.0876951,20.9114,396.778,0.120071,0.0,0.0
2920,729.75,49.1326,50.2563,161.268,99.5656,98.5182,0.0077874,0.0876552,20.9127,396.718,0.0963749,0.0,0.0
2928,731.75,49.3484,50.5596,158.282,99.5647,97.7885,0.00778582,0.0872888,20.9133,396.668,0.164045,0.0,0.0
2936,733.75,49.3983,50.275,158.382,99.5879,98.2116,0.00775165,0.087073,20.9135,396.578,0.12682,0.0,0.0
2944,735.75,49.1075,50.3704,155.738,99.6204,97.9497,0.00771771,0.086998,20.9136,396.508,0.154129,0.0,0.0
2952,737.75,49.137,50.2864,159.415,99.6432,98.1991,0.00776908,0.0871953,20.9139,396.448,0.133036,0.0,0.0
2960,739.75,49.1706,50.6499,157.215,99.6874,98.5451,0.00788065,0.0872677,20.9151,396.328,0.105028,0.0,0.0
2968,741.75,48.6806,50.3981,158.523,99.6828,98.2794,0.00793856,0.0874499,20.9157,396.198,0.129207,0.0,0.0
2976,743.75,49.1233,50.5436,159.983,99.7161,98.2451,0.00800027,0.0875175,20.9149,396.168,0.135438,0.0,0.0
2984,745.75,49.3683,50.2526,164.5,99.7414,98.3333,0.00803585,0.0873048,20.9142,396.088,0.129568,0.0,0.0
2992,747.75,49.5358,50.6439,154.505,99.762,98.5145,0.00790764,0.0870576,20.9143,396.058,0.114684,0.0,0.0
3000,749.75,49.4781,50.6559,155.089,99.7654,98.3552,0.00780943,0.0873351,20.9143,395.988,0.129741,0.0,0.0
3008,751.75,49.0921,50.5443,160.691,99.7979,98.4587,0.00785714,0.087636,20.9144,395.948,0.123115,0.0,0.0
3016,753.75,49.1597,50.5028,159.818,99.8312,98.494,0.00795213,0.0880063,20.9144,395.877,0.122889,0.0,0.0
3024,755.75,49.4761,50.7901,161.114,99.859,98.2586,0.00814184,0.0882023,20.9144,395.797,0.147242,0.0,0.0
3032,757.75,48.9796,50.4047,162.148,99.8704,98.5916,0.00820547,0.0881302,20.9144,395.727,0.117447,0.0,0.0
3040,759.75,49.5052,50.3228,154.034,99.9016,98.7137,0.00805927,0.0880484,20.9144,395.687,0.10901,0.0,0.0
3048,761.75,48.828,50.2013,160.816,99.9341,98.6152,0.00786271,0.0881006,20.9144,395.567,0.121065,0.0,0.0
3056,763.75,48.6931,50.0196,157.113,99.9653,98.5479,0.00770528,0.0879551,20.9144,395.487,0.130135,0.0,0.0
3064,765.75,48.8667,49.9539,161.82,99.9876,98.6036,0.00759383,0.0876949,20.9144,395.417,0.127019,0.0,0.0
3072,767.75,48.9436,50.0852,158.009,100.011,98.6989,0.00756738,0.0877418,20.9144,395.367,0.120376,0.0,0.0
3080,769.75,48.6248,49.735,160.993,100.027,98.6208,0.00766435,0.0878034,20.9142,395.327,0.129043,0.0,0.0
3088,771.75,48.8063,50.3369,157.926,100.022,98.5591,0.0078345,0.0878871,20.9136,395.247,0.134254,0.0,0.0
3096,773.75,48.5845,49.8173,163.578,100.028,98.71,0.00804729,0.0877761,20.9133,395.157,0.120883,0.0,0.0
3104,775.75,48.8166,49.6162,155.531,100.054,98.4954,0.0081433,0.0876671,20.9131,395.057,0.143096,0.0,0.0
3112,777.75,48.576,50.11,160.744,100.073,98.9367,0.00812349,0.0873187,20.9131,394.987,0.104091,0.0,0.0
3120,779.75,48.5291,49.7832,155.288,100.066,98.5238,0.00808366,0.0870019,20.9133,394.837,0.141512,0.0,0.0
3128,781.75,48.3554,49.9926,158.793,100.071,98.6269,0.00797657,0.0870122,20.9145,394.797,0.13244,0.0,0.0
3136,783.75,48.2308,50.1028,158.39,100.073,98.6315,0.00779288,0.0869832,20.915,394.726,0.132242,0.0,0.0
3144,785.75,48.234,49.8927,156.453,100.078,98.6106,0.00782169,0.0866714,20.9152,394.696,0.134596,0.0,0.0
3152,787.75,48.3963,49.7428,155.763,100.076,98.605,0.00807345,0.0869243,20.9141,394.646,0.134957,0.0,0.0
3160,789.75,48.6968,50.2503,156.914,100.092,98.8916,0.00830082,0.0876151,20.9135,394.576,0.109932,0.0,0.0
3168,791.75,48.709,49.7388,158.745,100.082,98.4225,0.00840011,0.0878269,20.9133,394.496,0.152342,0.0,0.0
3176,793.75,48.3656,49.7198,157.574,100.097,98.8312,0.00841481,0.0879005,20.9126,394.426,0.115958,0.0,0.0
3184,795.75,48.9049,49.7908,159.162,100.099,98.7486,0.00837894,0.0880237,20.9121,394.326,0.123813,0.0,0.0
3192,797.75,48.7806,49.9678,158.136,100.086,98.3733,0.00833456,0.0881812,20.9119,394.286,0.157323,0.0,0.0
3200,799.75,48.2665,49.9251,155.779,100.129,98.7309,0.00826243,0.0878857,20.9118,394.216,0.128168,0.0,0.0
3208,801.75,48.5306,50.104,161.701,100.081,98.8345,0.00815866,0.0875013,20.9127,394.176,0.114237,0.0,0.0
3216,803.75,48.2973,49.6652,157.406,100.093,98.6956,0.00809026,0.0871672,20.9135,394.086,0.128126,0.0,0.0
3224,805.75,48.1765,49.6565,155.558,100.088,98.4889,0.00808598,0.0870477,20.9138,394.016,0.146807,0.0,0.0
3232,807.75,48.5299,49.4327,163.407,100.082,98.5456,0.00812771,0.0870235,20.914,393.936,0.140991,0.0,0.0
3240,809.75,48.4897,49.1366,159.959,100.09,98.325,0.0081993,0.0874333,20.914,393.816,0.162184,0.0,0.0
3248,811.75,48.5056,50.0715,160.501,100.084,98.8154,0.00817847,0.0874015,20.914,393.746,0.116224,0.0,0.0
3256,813.75,48.3416,49.4445,157.417,100.08,98.7741,0.00809399,0.0871529,20.9141,393.676,0.119691,0.0,0.0
3264,815.75,47.9859,49.5389,155.641,100.078,98.5465,0.00802849,0.0870076,20.9132,393.625,0.140521,0.0,0.0
3272,817.75,48.4137,49.5862,160.485,100.081,98.7899,0.00811879,0.0872099,20.9116,393.505,0.118311,0.0,0.0
3280,819.75,48.0605,50.1477,158.335,100.081,98.4931,0.00826007,0.087157,20.912,393.435,0.14573,0.0,0.0
3288,821.75,48.2923,49.9917,158.559,100.101,98.8461,0.00828545,0.0868788,20.9124,393.355,0.115009,0.0,0.0
3296,823.75,48.4575,49.8313,155.965,100.088,98.6306,0.00825564,0.0870266,20.9126,393.285,0.133634,0.0,0.0
3304,825.75,48.6676,49.7021,160.108,100.095,98.4536,0.00819297,0.0869425,20.9127,393.215,0.150689,0.0,0.0
3312,827.75,48.3288,49.9645,156.738,100.107,98.5038,0.00814186,0.0872918,20.9133,393.165,0.14716,0.0,0.0
3320,829.75,48.5631,50.2151,160.492,100.12,98.9859,0.00816532,0.0878094,20.9131,393.125,0.103857,0.0,0.0
3328,831.75,48.3973,50.1177,159.753,100.105,98.9729,0.00828138,0.0878593,20.9129,393.045,0.103672,0.0,0.0
3336,833.75,48.937,49.7124,161.717,100.113,98.8024,0.00839528,0.0878715,20.9128,392.995,0.120071,0.0,0.0
3344,835.75,48.1698,50.0858,161.073,100.125,98.6296,0.00838794,0.0880936,20.9128,392.935,0.137135,0.0,0.0
3352,837.75,48.6812,49.8761,164.492,100.108,98.6984,0.00833005,0.0883689,20.9127,392.845,0.129251,0.0,0.0
3360,839.75,48.6986,49.7421,155.047,100.112,98.5191,0.00829285,0.0881269,20.9126,392.735,0.146202,0.0,0.0
3368,841.75,48.5558,49.6858,155.336,100.109,98.815,0.00835343,0.0876298,20.9111,392.645,0.118569,0.0,0.0
3376,843.75,48.3832,49.7252,155.86,100.111,98.8414,0.00841203,0.0872911,20.9105,392.574,0.116321,0.0,0.0
3384,845.75,48.6636,50.1355,158.417,100.109,98.5623,0.00828152,0.0875909,20.9112,392.534,0.141901,0.0,0.0
3392,847.75,48.152,50.1225,159.478,100.124,98.6185,0.00811469,0.0877737,20.9114,392.474,0.138088,0.0,0.0
3400,849.75,48.5977,50.6189,156.618,100.111,98.5549,0.00797586,0.0877894,20.9114,392.404,0.14278,0.0,0.0
3408,851.75,48.2361,49.9295,154.889,100.109,98.8215,0.00793308,0.0879692,20.9124,392.334,0.118007,0.0,0.0
3416,853.75,48.5768,49.4054,158.024,100.105,98.6826,0.00807795,0.0878443,20.9119,392.254,0.130402,0.0,0.0
3424,855.75,48.3766,50.0048,162.51,100.107,98.5121,0.00831003,0.0878458,20.9117,392.174,0.146386,0.0,0.0
3432,857.75,48.2394,49.9207,160.615,100.104,98.8679,0.00836584,0.0877548,20.912,392.064,0.113189,0.0,0.0
3440,859.75,48.3649,49.8629,158.79,100.098,98.4662,0.00816971,0.087616,20.9122,391.984,0.149835,0.0,0.0
3448,861.75,48.6568,49.8109,158.158,100.098,98.6705,0.0080252,0.0875539,20.9123,391.914,0.130864,0.0,0.0
3456,863.75,48.4376,49.3209,157.284,100.11,98.3835,0.00794239,0.0873073,20.9124,391.844,0.158527,0.0,0.0
3464,865.75,48.1946,49.5853,160.731,100.115,98.6649,0.00785126,0.0870256,20.9135,391.784,0.132991,0.0,0.0
3472,867.75,49.0046,49.7663,157.012,100.114,98.6004,0.00777711,0.0867522,20.9141,391.724,0.138803,0.0,0.0
3480,869.75,48.5266,49.593,162.228,100.115,98.815,0.00783707,0.0871654,20.9143,391.684,0.119069,0.0,0.0
3488,871.75,48.6215,49.9421,157.555,100.116,98.5851,0.00793737,0.087582,20.9144,391.594,0.14045,0.0,0.0
3496,873.75,48.3677,49.9278,158.099,100.099,98.6334,0.00797473,0.0878108,20.9144,391.524,0.13445,0.0,0.0
3504,875.75,48.4523,49.9684,158.875,100.097,98.4838,0.00799593,0.0878778,20.9131,391.464,0.148049,0.0,0.0
3512,877.75,48.0909,49.8254,159.88,100.094,98.6403,0.00806389,0.0879051,20.9123,391.363,0.133346,0.0,0.0
3520,879.75,48.1682,49.7058,158.922,100.098,98.808,0.00812472,0.0878159,20.9116,391.293,0.118253,0.0,0.0
3523,880.5,47.76,49.483,159.35,100.094,98.8396,0.00814379,0.0878567,20.9115,391.243,0.114918,0.0,0.0