File: 01_Data/Engineered_Wood_Table/Cone/Engineered_Wood_Table_HRRPUA_75.csv
Time after Ignition,Engineered_Wood_Table_R1,Engineered_Wood_Table_R2,Engineered_Wood_Table_R3,Mean,Std. Dev.
0.0,2.5,-0.9,8.2,3.2,4.6
2.5,4.0,-0.1,7.6,3.8,3.9
5.0,5.1,1.0,8.7,5.0,3.8
7.5,4.9,1.6,21.4,9.3,10.6
10.0,10.0,5.1,36.3,17.1,16.8
12.5,47.2,37.4,78.2,54.3,21.3
15.0,66.4,59.4,193.5,106.4,75.5
17.5,86.1,102.0,284.6,157.6,110.3
20.0,146.7,172.8,321.2,213.6,94.1
22.5,223.3,232.0,338.9,264.7,64.3
25.0,261.2,282.8,358.4,300.8,51.0
27.5,290.4,307.2,383.1,326.9,49.4
30.0,316.6,344.2,398.4,353.1,41.6
32.5,336.6,375.9,407.2,373.2,35.4
35.0,361.5,397.9,411.0,390.1,25.6
37.5,381.1,398.8,417.1,399.0,18.0
40.0,395.7,411.5,393.1,400.1,9.9
42.5,372.3,411.6,390.0,391.3,19.7
45.0,377.5,394.6,371.7,381.3,11.9
47.5,370.0,392.1,356.1,372.7,18.1
50.0,345.7,371.4,346.1,354.4,14.7
52.5,344.0,365.9,332.3,347.4,17.1
55.0,336.1,342.7,320.0,332.9,11.6
57.5,317.9,326.6,308.0,317.5,9.3
60.0,317.7,322.0,302.7,314.1,10.1
62.5,313.7,310.3,292.4,305.5,11.4
65.0,297.9,293.7,279.5,290.4,9.6
67.5,289.6,287.8,266.2,281.2,13.0
70.0,290.0,284.7,253.5,276.1,19.7
72.5,279.4,282.4,245.7,269.2,20.3
75.0,271.6,273.5,233.9,259.7,22.3
77.5,262.0,256.8,233.1,250.7,15.4
80.0,255.2,252.3,227.1,244.8,15.4
82.5,247.7,245.5,225.4,239.5,12.3
85.0,242.0,236.4,220.1,232.8,11.4
87.5,234.5,229.8,214.0,226.1,10.7
90.0,228.0,217.8,208.7,218.2,9.7
92.5,216.3,217.1,209.9,214.4,3.9
95.0,209.7,215.6,203.4,209.5,6.1
97.5,200.7,212.4,201.3,204.8,6.6
100.0,200.1,210.0,195.4,201.8,7.5
102.5,197.8,208.1,190.5,198.8,8.9
105.0,193.1,205.7,192.8,197.2,7.4
107.5,189.1,199.7,193.8,194.2,5.3
110.0,191.7,195.3,190.2,192.4,2.7
112.5,185.4,192.6,185.1,187.7,4.3
115.0,181.2,189.7,186.5,185.8,4.3
117.5,177.0,193.6,183.8,184.8,8.3
120.0,178.3,192.8,181.2,184.1,7.7
122.5,174.9,188.6,178.4,180.7,7.1
125.0,173.1,187.2,181.2,180.5,7.1
127.5,170.7,189.1,182.1,180.6,9.3
130.0,171.1,178.9,179.0,176.3,4.5
132.5,173.8,181.3,178.7,177.9,3.8
135.0,167.2,177.9,175.0,173.4,5.6
137.5,164.0,174.4,175.2,171.2,6.2
140.0,166.1,177.2,177.3,173.5,6.4
142.5,163.1,174.1,177.6,171.6,7.6
145.0,163.3,174.3,172.6,170.1,5.9
147.5,159.5,170.4,172.8,167.6,7.1
150.0,162.0,170.3,168.5,166.9,4.3
152.5,158.7,170.4,171.1,166.7,7.0
155.0,156.6,169.6,166.6,164.3,6.8
157.5,159.1,166.1,169.9,165.0,5.5
160.0,156.0,165.6,167.6,163.1,6.2
162.5,158.6,166.4,166.4,163.8,4.5
165.0,154.8,163.0,166.1,161.3,5.8
167.5,154.3,161.7,165.0,160.3,5.5
170.0,149.6,161.3,164.3,158.4,7.8
172.5,151.5,163.9,162.8,159.4,6.8
175.0,150.2,162.2,161.3,157.9,6.7
177.5,146.5,160.3,160.6,155.8,8.1
180.0,151.4,161.2,160.3,157.7,5.4
182.5,144.9,156.3,160.9,154.0,8.3
185.0,144.9,156.0,159.3,153.4,7.6
187.5,144.6,155.5,157.6,152.5,7.0
190.0,145.8,153.6,156.9,152.1,5.7
192.5,144.0,152.0,158.1,151.4,7.1
195.0,144.1,154.1,156.5,151.6,6.5
197.5,144.5,153.1,156.0,151.2,6.0
200.0,140.8,150.8,154.1,148.6,6.9
202.5,141.5,150.1,152.2,147.9,5.7
205.0,139.0,145.2,151.5,145.2,6.2
207.5,139.2,145.3,154.4,146.3,7.7
210.0,141.1,146.5,151.4,146.3,5.1
212.5,138.5,146.6,152.8,146.0,7.2
215.0,140.4,143.0,152.4,145.3,6.3
217.5,137.5,146.8,153.6,146.0,8.1
220.0,137.7,147.3,151.5,145.5,7.1
222.5,136.6,146.3,149.9,144.3,6.9
225.0,134.5,147.1,151.1,144.2,8.7
227.5,135.5,146.3,151.9,144.6,8.4
230.0,137.8,146.8,148.5,144.4,5.7
232.5,134.9,144.3,149.4,142.9,7.3
235.0,135.7,140.6,147.0,141.1,5.7
237.5,137.0,144.0,144.3,141.8,4.1
240.0,135.2,141.4,144.9,140.5,4.9
242.5,134.6,138.6,145.2,139.5,5.4
245.0,133.0,139.5,143.5,138.7,5.3
247.5,133.6,134.9,141.2,136.6,4.1
250.0,134.1,136.6,142.5,137.7,4.3
252.5,132.0,136.2,145.0,137.8,6.6
255.0,133.1,135.4,141.1,136.5,4.1
257.5,132.7,138.6,140.5,137.3,4.1
260.0,129.6,137.0,140.9,135.8,5.7
262.5,131.1,134.1,138.0,134.4,3.4
265.0,130.2,132.4,139.8,134.1,5.0
267.5,128.5,135.0,136.4,133.3,4.2
270.0,128.9,137.1,137.0,134.3,4.7
272.5,128.1,133.4,138.2,133.2,5.0
275.0,128.0,133.2,137.8,133.0,4.9
277.5,128.9,133.6,135.9,132.8,3.6
280.0,125.9,132.1,135.7,131.2,5.0
282.5,126.3,132.9,135.2,131.5,4.6
285.0,128.1,128.6,134.1,130.3,3.4
287.5,123.7,129.6,133.7,129.0,5.0
290.0,127.6,128.7,134.0,130.1,3.4
292.5,123.4,128.0,134.2,128.6,5.4
295.0,122.0,128.7,138.3,129.6,8.2
297.5,122.5,127.6,134.1,128.1,5.8
300.0,121.0,126.8,134.6,127.5,6.8
302.5,120.9,124.6,133.3,126.3,6.3
305.0,122.0,124.5,131.3,125.9,4.8
307.5,120.2,122.7,130.4,124.4,5.3
310.0,121.9,121.3,130.0,124.4,4.8
312.5,120.1,121.3,129.5,123.7,5.1
315.0,117.8,122.0,131.4,123.7,7.0
317.5,116.2,120.5,127.8,121.5,5.9
320.0,117.5,121.2,130.1,122.9,6.4
322.5,117.8,119.6,130.0,122.4,6.6
325.0,114.8,117.0,130.2,120.7,8.3
327.5,115.4,116.3,129.1,120.3,7.6
330.0,116.0,115.2,130.1,120.4,8.4
332.5,114.4,116.1,126.3,119.0,6.4
335.0,112.8,117.6,128.6,119.7,8.1
337.5,112.6,116.5,127.2,118.8,7.5
340.0,112.9,115.4,125.6,117.9,6.7
342.5,113.6,116.4,126.1,118.7,6.6
345.0,112.5,115.4,122.6,116.8,5.2
347.5,111.7,113.1,124.7,116.5,7.2
350.0,111.6,114.2,123.6,116.5,6.3
352.5,111.7,112.6,121.8,115.4,5.6
355.0,110.2,112.9,123.0,115.4,6.7
357.5,110.2,114.4,124.0,116.2,7.0
360.0,109.2,112.1,122.0,114.5,6.7
362.5,109.3,110.6,119.1,113.0,5.3
365.0,107.8,110.3,121.1,113.1,7.1
367.5,107.5,110.5,120.6,112.9,6.9
370.0,107.8,109.3,119.6,112.2,6.4
372.5,109.2,110.6,119.7,113.2,5.7
375.0,107.5,109.1,121.3,112.6,7.5
377.5,106.0,108.0,119.4,111.1,7.2
380.0,105.5,106.4,118.5,110.1,7.3
382.5,104.0,107.9,118.4,110.1,7.5
385.0,104.0,105.4,120.6,110.0,9.2
387.5,104.1,107.4,117.9,109.8,7.2
390.0,103.0,106.2,115.4,108.2,6.5
392.5,101.5,105.0,118.6,108.4,9.1
395.0,101.0,104.5,115.5,107.0,7.6
397.5,100.4,105.1,118.0,107.9,9.1
400.0,100.2,106.2,115.4,107.3,7.7
402.5,100.2,103.6,117.6,107.2,9.2
405.0,102.1,102.3,116.9,107.1,8.5
407.5,103.1,103.2,115.2,107.2,7.0
410.0,101.8,103.7,115.2,106.9,7.3
412.5,99.6,103.8,114.3,105.9,7.6
415.0,100.4,100.2,112.6,104.4,7.1
417.5,98.8,100.1,117.8,105.6,10.6
420.0,96.1,103.2,114.6,104.6,9.4
422.5,98.0,100.2,113.6,103.9,8.4
425.0,97.3,98.8,112.2,102.8,8.2
427.5,97.3,99.2,112.6,103.0,8.3
430.0,95.8,99.3,113.1,102.7,9.1
432.5,96.2,99.5,113.7,103.1,9.3
435.0,98.3,95.8,114.1,102.7,10.0
437.5,97.6,97.6,113.5,102.9,9.2
440.0,95.8,96.7,110.4,101.0,8.2
442.5,96.2,95.9,112.8,101.6,9.7
445.0,96.0,95.4,111.5,101.0,9.2
447.5,95.4,95.2,110.4,100.3,8.7
450.0,94.9,94.4,112.8,100.7,10.5
452.5,95.3,95.5,109.2,100.0,8.0
455.0,94.4,95.0,109.5,99.7,8.5
457.5,92.9,94.9,110.7,99.5,9.7
460.0,93.2,95.4,109.4,99.4,8.8
462.5,92.0,95.1,108.8,98.6,8.9
465.0,92.9,95.9,110.0,99.6,9.1
467.5,91.9,94.5,108.6,98.3,9.0
470.0,91.2,94.3,109.2,98.2,9.6
472.5,90.7,93.3,108.8,97.6,9.8
475.0,91.2,92.2,106.7,96.7,8.7
477.5,91.2,91.9,105.1,96.1,7.9
480.0,90.9,91.5,105.4,96.0,8.2
482.5,89.6,89.9,104.3,94.6,8.4
485.0,90.9,91.2,106.9,96.3,9.2
487.5,91.0,91.1,105.2,95.8,8.2
490.0,91.1,90.8,104.7,95.5,8.0
492.5,90.0,89.7,102.2,93.9,7.1
495.0,89.7,92.7,103.0,95.1,7.0
497.5,89.2,91.8,104.2,95.1,8.0
500.0,90.1,90.0,104.5,94.9,8.3
502.5,90.9,89.5,106.2,95.5,9.2
505.0,89.4,88.9,103.5,94.0,8.3
507.5,91.7,89.2,103.2,94.7,7.5
510.0,88.1,89.8,101.0,93.0,7.0
512.5,89.8,89.6,102.5,94.0,7.4
515.0,87.7,91.1,102.4,93.7,7.7
517.5,86.5,90.8,103.0,93.4,8.6
520.0,85.4,90.7,101.8,92.7,8.3
522.5,87.2,88.8,101.2,92.4,7.6
525.0,85.3,90.0,103.0,92.8,9.2
527.5,85.8,88.6,100.6,91.7,7.9
530.0,86.4,90.0,101.8,92.7,8.1
532.5,85.6,87.7,99.8,91.0,7.7
535.0,86.4,88.2,99.5,91.3,7.1
537.5,86.9,89.3,101.6,92.6,7.9
540.0,84.9,90.5,99.6,91.7,7.4
542.5,84.1,90.0,99.1,91.1,7.5
545.0,84.1,88.4,99.3,90.6,7.8
547.5,83.3,87.4,98.3,89.7,7.7
550.0,83.3,89.2,100.1,90.9,8.6
552.5,84.1,89.3,99.2,90.8,7.7
555.0,83.6,87.9,99.7,90.4,8.3
557.5,82.8,88.7,98.3,89.9,7.8
560.0,82.8,87.7,98.8,89.8,8.2
562.5,83.9,88.9,98.4,90.4,7.4
565.0,83.2,86.9,98.6,89.6,8.0
567.5,84.3,87.2,98.7,90.0,7.6
570.0,82.5,88.0,99.5,90.0,8.7
572.5,82.8,86.4,96.7,88.7,7.2
575.0,83.1,87.6,100.0,90.2,8.8
577.5,82.7,87.9,98.5,89.7,8.0
580.0,82.9,87.6,97.5,89.3,7.5
582.5,81.3,88.3,98.1,89.3,8.4
585.0,81.5,86.7,95.7,88.0,7.2
587.5,81.8,87.5,97.8,89.1,8.1
590.0,80.0,85.9,98.3,88.1,9.3
592.5,80.2,86.5,97.3,88.0,8.6
595.0,80.4,85.8,96.0,87.4,7.9
597.5,80.8,86.3,96.7,87.9,8.0
600.0,81.3,87.3,96.0,88.2,7.4
602.5,80.6,86.9,97.4,88.3,8.5
605.0,80.0,86.4,97.3,87.9,8.8
607.5,80.6,85.3,96.4,87.4,8.1
610.0,79.8,85.8,95.4,87.0,7.8
612.5,78.8,85.6,98.1,87.5,9.8
615.0,78.9,90.3,98.2,89.1,9.7
617.5,79.9,86.6,96.5,87.7,8.3
620.0,79.4,86.7,96.3,87.5,8.5
622.5,78.4,86.0,95.4,86.6,8.5
625.0,79.0,86.8,96.5,87.4,8.8
627.5,78.0,86.4,93.7,86.0,7.8
630.0,78.0,87.2,95.3,86.9,8.6
632.5,78.6,87.5,96.0,87.4,8.7
635.0,78.9,87.4,96.0,87.4,8.6
637.5,79.0,86.8,95.6,87.1,8.3
640.0,78.5,87.3,96.1,87.3,8.8
642.5,77.4,88.7,95.9,87.3,9.3
645.0,78.0,88.9,95.8,87.6,8.9
647.5,79.1,88.3,95.9,87.8,8.4
650.0,77.2,89.4,93.6,86.7,8.5
652.5,78.0,87.6,91.7,85.7,7.0
655.0,78.1,87.7,93.2,86.3,7.6
657.5,79.0,87.2,97.4,87.8,9.2
660.0,79.4,88.2,95.3,87.6,8.0
662.5,79.5,88.2,97.6,88.4,9.0
665.0,79.5,88.1,97.0,88.2,8.8
667.5,80.7,89.5,96.3,88.8,7.8
670.0,78.5,88.2,96.0,87.6,8.7
672.5,79.0,89.1,93.7,87.3,7.5
675.0,78.6,89.2,95.7,87.9,8.6
677.5,80.5,87.2,93.4,87.0,6.5
680.0,79.9,88.3,93.9,87.3,7.1
682.5,80.0,87.2,95.4,87.5,7.7
685.0,80.8,87.0,96.4,88.1,7.8
687.5,82.5,88.5,95.4,88.8,6.5
690.0,81.6,89.7,94.7,88.7,6.6
692.5,81.6,89.1,94.0,88.2,6.2
695.0,81.3,88.2,95.3,88.3,7.0
697.5,81.7,88.0,95.8,88.5,7.1
700.0,82.7,87.0,97.5,89.1,7.6
702.5,82.4,85.1,97.1,88.2,7.8
705.0,83.2,87.3,96.3,88.9,6.7
707.5,83.2,87.1,97.4,89.2,7.3
710.0,82.7,88.5,97.0,89.4,7.2
712.5,80.9,89.1,96.5,88.8,7.8
715.0,83.6,88.3,96.8,89.6,6.7
717.5,84.2,88.6,94.5,89.1,5.2
720.0,82.4,89.7,95.8,89.3,6.7
722.5,80.5,89.0,97.0,88.9,8.3
725.0,82.2,88.5,95.8,88.8,6.8
727.5,82.6,89.5,96.1,89.4,6.8
730.0,82.7,88.6,96.9,89.4,7.2
732.5,83.2,88.6,95.7,89.2,6.3
735.0,82.1,90.0,95.2,89.1,6.6
737.5,83.4,89.0,96.0,89.4,6.3
740.0,83.2,89.5,95.2,89.3,6.0
742.5,83.4,89.5,95.4,89.4,6.0
745.0,84.6,90.4,97.4,90.8,6.4
747.5,82.8,90.0,96.2,89.6,6.7
750.0,82.5,90.6,95.9,89.7,6.8
752.5,81.8,89.8,96.6,89.4,7.4
755.0,83.2,91.8,96.1,90.4,6.6
757.5,84.1,90.9,95.8,90.3,5.8
760.0,83.4,90.3,96.6,90.1,6.6
762.5,81.9,90.6,96.7,89.7,7.5
765.0,83.2,91.3,95.2,89.9,6.1
767.5,84.2,90.9,94.0,89.7,5.0
770.0,83.8,90.5,96.2,90.2,6.2
772.5,83.9,90.6,96.1,90.2,6.1
775.0,83.9,89.3,94.6,89.3,5.3
777.5,83.3,91.6,97.5,90.8,7.2
780.0,83.4,92.1,98.0,91.2,7.3
782.5,83.4,91.3,96.9,90.6,6.8
785.0,83.5,93.1,96.7,91.1,6.8
787.5,85.6,89.6,98.8,91.3,6.7
790.0,85.3,90.6,96.5,90.8,5.6
792.5,87.2,91.8,95.5,91.5,4.2
795.0,86.0,92.1,96.9,91.7,5.4
797.5,86.8,90.9,97.7,91.8,5.5
800.0,84.7,90.9,96.9,90.9,6.1
802.5,85.3,91.1,97.0,91.1,5.8
805.0,84.9,91.2,95.6,90.5,5.3
807.5,86.1,92.3,96.5,91.6,5.2
810.0,85.2,92.2,96.4,91.3,5.7
812.5,87.0,93.3,96.1,92.1,4.7
815.0,87.0,92.8,96.0,91.9,4.6
817.5,87.8,93.7,97.1,92.8,4.7
820.0,86.1,94.3,97.1,92.5,5.7
822.5,87.6,93.0,98.4,93.0,5.4
825.0,87.7,91.7,98.2,92.5,5.3
827.5,89.7,93.3,96.7,93.2,3.5
830.0,87.4,92.6,97.1,92.4,4.9
832.5,88.3,91.8,98.4,92.8,5.1
835.0,89.3,94.0,97.7,93.7,4.3
837.5,88.8,93.1,96.8,92.9,4.0
840.0,88.8,91.3,97.6,92.5,4.5
842.5,88.6,92.2,99.0,93.3,5.3
845.0,89.4,92.6,98.2,93.4,4.5
847.5,90.2,91.6,98.5,93.4,4.4
850.0,90.8,91.8,98.8,93.8,4.3
852.5,89.4,94.7,99.7,94.6,5.2
855.0,89.4,94.5,98.6,94.2,4.6
857.5,89.3,93.9,98.7,93.9,4.7
860.0,90.5,94.3,99.3,94.7,4.4
862.5,89.5,95.0,100.4,95.0,5.5
865.0,91.2,95.1,97.5,94.6,3.2
867.5,91.6,95.6,98.6,95.2,3.5
870.0,92.8,93.1,99.6,95.2,3.8
872.5,92.3,93.7,100.8,95.6,4.5
875.0,92.1,96.0,100.5,96.2,4.2
877.5,92.6,97.2,99.6,96.5,3.5
880.0,94.0,97.3,99.3,96.9,2.7
882.5,92.9,97.2,98.6,96.2,3.0
885.0,92.7,97.7,100.0,96.8,3.7
887.5,92.8,96.8,99.4,96.3,3.3
890.0,92.1,97.6,102.8,97.5,5.4
892.5,92.8,98.3,102.9,98.0,5.0
895.0,93.4,97.7,104.7,98.6,5.7
897.5,93.1,97.5,102.6,97.7,4.7
900.0,94.9,96.8,104.5,98.7,5.1
902.5,93.8,96.6,102.3,97.6,4.4
905.0,94.4,98.8,101.5,98.3,3.6
907.5,95.6,98.4,101.8,98.6,3.1
910.0,96.3,99.4,101.8,99.2,2.7
912.5,97.4,96.0,101.7,98.4,3.0
915.0,95.7,99.0,103.1,99.2,3.7
917.5,96.1,97.3,102.3,98.6,3.3
920.0,98.1,98.3,104.2,100.2,3.5
922.5,95.7,98.8,103.2,99.2,3.7
925.0,96.4,100.3,105.3,100.7,4.5
927.5,97.7,99.4,102.7,99.9,2.6
930.0,97.5,100.0,105.8,101.1,4.2
932.5,99.1,102.3,104.3,101.9,2.6
935.0,98.6,100.9,104.2,101.3,2.8
937.5,99.7,100.6,105.5,101.9,3.1
940.0,99.8,100.9,105.4,102.0,2.9
942.5,98.8,101.0,108.1,102.6,4.9
945.0,99.5,103.2,106.8,103.2,3.7
947.5,100.6,103.0,107.0,103.5,3.2
950.0,101.1,104.6,108.3,104.6,3.6
952.5,100.9,104.8,109.7,105.1,4.4
955.0,102.6,106.9,108.0,105.8,2.8
957.5,102.6,107.6,111.5,107.2,4.4
960.0,103.5,107.6,112.4,107.8,4.5
962.5,103.4,109.0,113.3,108.6,5.0
965.0,103.4,110.7,114.4,109.5,5.6
967.5,106.1,109.9,116.2,110.7,5.1
970.0,104.1,109.3,114.9,109.5,5.4
972.5,104.7,108.1,116.5,109.8,6.1
975.0,107.3,110.6,116.2,111.4,4.5
977.5,108.7,114.2,119.9,114.3,5.6
980.0,111.6,113.1,122.4,115.7,5.8
982.5,111.9,113.2,121.3,115.5,5.1
985.0,110.3,115.0,123.1,116.1,6.5
987.5,111.5,115.3,127.2,118.0,8.2
990.0,113.4,118.0,127.9,119.8,7.4
992.5,114.5,117.1,126.5,119.4,6.3
995.0,114.1,117.8,127.8,119.9,7.1
997.5,113.7,118.7,124.1,118.8,5.2
1000.0,114.6,118.9,123.0,118.9,4.2
1002.5,115.8,116.8,119.5,117.4,1.9
1005.0,116.0,117.8,116.4,116.7,0.9
1007.5,115.8,118.0,112.7,115.5,2.6
1010.0,114.3,116.2,115.5,115.3,0.9
1012.5,113.5,118.3,107.5,113.1,5.4
1015.0,113.5,113.8,106.9,111.4,3.9
1017.5,111.3,112.3,103.0,108.9,5.1
1020.0,109.5,111.8,101.2,107.5,5.6
1022.5,108.5,110.3,98.8,105.9,6.2
1025.0,106.3,107.6,96.6,103.5,6.0
1027.5,103.5,104.6,96.7,101.6,4.3
1030.0,101.6,106.4,93.3,100.5,6.6
1032.5,102.1,103.3,95.2,100.2,4.4
1035.0,99.7,101.5,93.9,98.4,3.9
1037.5,98.9,100.7,96.0,98.6,2.4
1040.0,98.6,100.7,95.8,98.3,2.5
1042.5,97.8,100.9,95.1,97.9,2.9
1045.0,95.8,101.3,94.1,97.1,3.8
1047.5,94.5,101.3,95.1,97.0,3.8
1050.0,95.4,102.8,96.0,98.0,4.1
1052.5,96.1,104.6,96.7,99.1,4.8
1055.0,94.6,104.8,97.5,98.9,5.2
1057.5,96.0,105.8,98.6,100.2,5.1
1060.0,98.5,105.6,98.5,100.8,4.1
1062.5,97.3,105.8,98.6,100.6,4.6
1065.0,97.7,107.6,99.4,101.6,5.3
1067.5,98.0,107.2,99.6,101.6,4.9
1070.0,98.7,109.7,99.4,102.6,6.2
1072.5,100.9,110.8,100.1,103.9,5.9
1075.0,101.6,109.2,99.4,103.4,5.1
1077.5,102.5,111.9,102.3,105.6,5.5
1080.0,104.4,111.9,100.4,105.6,5.8
1082.5,107.6,113.6,101.9,107.7,5.8
1085.0,105.6,114.2,104.4,108.1,5.3
1087.5,106.8,112.3,102.6,107.2,4.8
1090.0,105.8,112.5,101.9,106.8,5.4
1092.5,107.4,115.2,104.0,108.9,5.7
1095.0,107.7,113.3,103.2,108.0,5.1
1097.5,109.7,115.4,106.4,110.5,4.6
1100.0,110.4,117.1,107.0,111.5,5.1
1102.5,110.5,115.3,106.1,110.6,4.6
1105.0,111.9,113.8,105.6,110.4,4.3
1107.5,112.6,115.0,106.1,111.2,4.6
1110.0,112.5,113.8,108.7,111.6,2.7
1112.5,112.9,114.3,110.0,112.4,2.2
1115.0,114.0,111.6,109.4,111.7,2.3
1117.5,112.9,112.4,109.8,111.7,1.7
1120.0,113.4,112.7,110.1,112.1,1.7
1122.5,113.4,113.3,112.5,113.0,0.5
1125.0,113.4,114.0,110.9,112.8,1.6
1127.5,111.3,115.2,110.7,112.4,2.4
1130.0,113.9,113.2,110.5,112.5,1.8
1132.5,114.3,113.1,111.4,112.9,1.5
1135.0,113.3,112.0,112.4,112.6,0.6
1137.5,113.8,112.4,112.0,112.7,0.9
1140.0,113.4,112.6,112.6,112.9,0.5
1142.5,113.4,113.0,113.3,113.2,0.2
1145.0,111.2,113.7,114.3,113.0,1.6
1147.5,113.0,113.3,111.6,112.6,0.9
1150.0,111.0,112.6,113.5,112.4,1.2
1152.5,112.9,113.4,111.4,112.5,1.0
1155.0,111.1,112.5,110.3,111.3,1.1
1157.5,112.8,108.9,112.8,111.5,2.3
1160.0,110.4,110.6,112.4,111.1,1.1
1162.5,112.1,111.7,111.8,111.9,0.2
1165.0,110.3,110.3,112.1,110.9,1.0
1167.5,109.4,112.2,110.6,110.7,1.4
1170.0,108.9,110.7,111.6,110.4,1.4
1172.5,108.0,110.6,110.2,109.6,1.4
1175.0,108.0,109.1,109.9,109.0,1.0
1177.5,108.0,110.6,108.7,109.1,1.4
1180.0,107.2,109.0,109.4,108.5,1.2
1182.5,107.8,109.0,108.7,108.5,0.6
1185.0,104.2,107.1,109.8,107.0,2.8
1187.5,106.4,106.6,107.2,106.7,0.4
1190.0,105.2,107.2,107.2,106.5,1.1
1192.5,103.5,105.8,107.3,105.5,1.9
1195.0,104.7,105.7,106.5,105.6,0.9
1197.5,103.9,104.8,106.4,105.0,1.3
1200.0,104.2,105.3,107.2,105.6,1.5
1202.5,104.1,104.0,108.4,105.5,2.5
1205.0,103.0,107.1,109.1,106.4,3.1
1207.5,102.7,105.1,107.7,105.2,2.5
1210.0,101.4,104.1,105.7,103.7,2.2
1212.5,103.7,103.8,107.1,104.9,1.9
1215.0,101.1,102.0,104.4,102.5,1.7
1217.5,100.4,102.6,104.4,102.4,2.0
1220.0,99.1,102.3,107.1,102.8,4.0
1222.5,99.0,102.6,103.3,101.6,2.3
1225.0,100.0,102.0,105.8,102.6,3.0
1227.5,96.7,102.9,105.7,101.8,4.6
1230.0,97.3,101.3,106.6,101.7,4.6
1232.5,97.6,101.2,103.9,100.9,3.2
1235.0,94.7,104.5,104.6,101.3,5.7
1237.5,96.7,104.5,104.5,101.9,4.5
1240.0,95.2,101.9,104.6,100.6,4.8
1242.5,94.1,101.1,103.3,99.5,4.8
1245.0,93.9,101.6,102.2,99.2,4.7
1247.5,95.2,102.1,103.7,100.4,4.5
1250.0,94.0,100.7,101.4,98.7,4.1
1252.5,94.0,101.0,103.3,99.4,4.8
1255.0,92.8,103.4,102.2,99.5,5.8
1257.5,93.3,100.0,102.7,98.7,4.9
1260.0,93.0,97.2,103.3,97.8,5.2
1262.5,91.9,101.6,102.5,98.7,5.9
1265.0,93.3,100.7,102.1,98.7,4.7
1267.5,91.3,99.1,102.5,97.7,5.8
1270.0,91.0,100.1,99.9,97.0,5.2
1272.5,90.5,97.1,100.6,96.1,5.1
1275.0,89.9,97.9,101.6,96.5,6.0
1277.5,91.0,97.0,100.5,96.2,4.8
1280.0,89.3,96.9,100.1,95.4,5.6
1282.5,88.4,95.5,99.7,94.6,5.7
1285.0,89.5,95.6,100.8,95.3,5.7
1287.5,88.7,95.0,99.7,94.5,5.5
1290.0,87.6,98.0,101.1,95.6,7.1
1292.5,87.4,98.1,100.8,95.4,7.1
1295.0,88.7,99.1,101.2,96.3,6.7
1297.5,87.4,94.6,101.7,94.6,7.1
1300.0,85.9,96.9,99.2,94.0,7.1
1302.5,86.9,95.3,100.3,94.2,6.8
1305.0,87.1,95.5,98.9,93.8,6.0
1307.5,86.2,97.1,101.5,95.0,7.9
1310.0,85.2,96.1,99.0,93.4,7.3
1312.5,86.7,93.8,98.8,93.1,6.0
1315.0,86.9,93.5,99.9,93.5,6.5
1317.5,85.8,95.1,99.6,93.5,7.0
1320.0,84.5,94.5,99.6,92.9,7.7
1322.5,85.4,92.6,99.3,92.4,7.0
1325.0,85.3,94.7,99.2,93.1,7.0
1327.5,85.4,93.8,97.9,92.3,6.4
1330.0,84.5,95.1,99.2,92.9,7.6
1332.5,84.4,93.8,98.1,92.1,7.0
1335.0,83.9,91.3,97.5,90.9,6.8
1337.5,82.4,92.5,97.7,90.9,7.7
1340.0,84.1,90.7,96.8,90.5,6.4
1342.5,84.0,90.3,97.5,90.6,6.8
1345.0,83.9,90.5,98.4,90.9,7.2
1347.5,81.7,90.7,97.9,90.1,8.1
1350.0,82.3,90.7,97.3,90.1,7.6
1352.5,82.0,90.4,96.3,89.6,7.2
1355.0,82.5,90.3,96.3,89.7,6.9
1357.5,81.6,87.9,97.2,88.9,7.8
1360.0,80.8,85.5,94.9,87.1,7.2
1362.5,79.5,84.8,95.1,86.5,8.0
1365.0,80.7,85.7,93.9,86.8,6.7
1367.5,80.9,86.8,95.0,87.6,7.1
1370.0,80.5,87.4,94.7,87.6,7.1
1372.5,80.0,85.6,94.5,86.7,7.3
1375.0,80.2,85.6,93.6,86.5,6.7
1377.5,78.7,86.2,94.5,86.5,7.9
1380.0,78.6,86.2,94.7,86.5,8.1
1382.5,79.1,83.1,95.2,85.8,8.4
1385.0,80.9,82.6,94.9,86.2,7.6
1387.5,79.5,82.6,94.5,85.5,7.9
1390.0,79.8,83.0,96.0,86.3,8.6
1392.5,80.4,83.5,95.4,86.4,8.0
1395.0,78.9,83.7,94.1,85.6,7.8
1397.5,77.6,85.7,93.5,85.6,7.9
1400.0,78.1,85.0,93.9,85.7,7.9
1402.5,80.1,84.4,95.0,86.5,7.7
1405.0,78.8,82.9,93.1,85.0,7.4
1407.5,78.5,84.8,92.2,85.2,6.8
1410.0,76.9,83.8,92.2,84.3,7.7
1412.5,76.5,84.3,93.3,84.7,8.4
1415.0,75.7,82.1,92.4,83.4,8.4
1417.5,74.4,82.7,92.6,83.2,9.1
1420.0,77.1,82.3,92.8,84.1,8.0
1422.5,75.0,82.4,93.1,83.5,9.1
1425.0,75.0,83.4,93.5,84.0,9.3
1427.5,73.9,80.8,93.3,82.7,9.8
1430.0,74.4,80.8,93.1,82.8,9.5
1432.5,75.1,80.8,91.7,82.5,8.5
1435.0,74.2,81.6,92.0,82.6,9.0
1437.5,72.9,81.1,90.6,81.5,8.9
1440.0,74.6,78.2,92.2,81.7,9.3
1442.5,74.1,77.3,93.3,81.6,10.3
1445.0,75.0,78.7,91.5,81.7,8.6
1447.5,73.3,78.5,93.1,81.7,10.3
1450.0,74.0,77.5,91.0,80.8,9.0
1452.5,73.1,77.5,90.3,80.3,8.9
1455.0,71.9,78.0,89.8,79.9,9.1
1457.5,71.7,78.4,90.1,80.1,9.3
1460.0,72.6,78.0,90.9,80.5,9.4
1462.5,72.0,75.7,90.6,79.4,9.8
1465.0,74.0,76.1,89.7,80.0,8.5
1467.5,73.8,75.9,90.4,80.0,9.0
1470.0,73.0,75.3,89.7,79.4,9.1
1472.5,72.6,76.5,88.2,79.1,8.1
1475.0,69.7,76.0,88.5,78.1,9.5
1477.5,71.0,75.5,88.5,78.4,9.1
1480.0,71.5,73.8,87.8,77.7,8.9
1482.5,70.7,74.6,88.0,77.8,9.1
1485.0,71.5,74.4,85.9,77.3,7.7
1487.5,71.4,74.7,86.6,77.5,8.0
1490.0,70.9,74.9,86.0,77.3,7.8
1492.5,70.3,74.8,87.9,77.7,9.2
1495.0,69.0,74.9,87.9,77.3,9.7
1497.5,69.0,75.4,88.8,77.8,10.1
1500.0,68.7,74.3,87.2,76.8,9.5
1502.5,68.9,74.1,86.2,76.4,8.9
1505.0,68.5,75.2,86.5,76.7,9.1
1507.5,69.0,74.9,86.4,76.8,8.8
1510.0,67.9,76.4,85.5,76.6,8.8
1512.5,69.1,75.0,86.5,76.9,8.8
1515.0,70.6,76.2,87.6,78.1,8.6
1517.5,68.0,75.7,86.3,76.6,9.2
1520.0,68.2,75.0,87.0,76.7,9.5
1522.5,67.2,75.9,86.3,76.5,9.6
1525.0,67.7,77.0,85.9,76.9,9.1
1527.5,67.3,76.7,84.9,76.3,8.8
1530.0,67.7,76.1,83.4,75.7,7.9
1532.5,68.0,76.4,85.6,76.7,8.8
1535.0,68.3,75.7,84.4,76.1,8.0
1537.5,68.8,75.5,84.7,76.3,8.0
1540.0,67.8,75.8,86.8,76.8,9.5
1542.5,67.4,75.2,85.4,76.0,9.0
1545.0,68.0,74.5,86.2,76.2,9.2
1547.5,66.8,74.4,87.7,76.3,10.6
1550.0,65.6,75.2,89.3,76.7,11.9
1552.5,66.5,75.3,86.7,76.2,10.1
1555.0,64.8,74.8,87.2,75.6,11.2
1557.5,64.5,73.6,88.7,75.6,12.2
1560.0,63.2,72.4,89.4,75.0,13.3
1562.5,64.0,74.0,86.6,74.9,11.3
1565.0,64.1,73.7,86.2,74.7,11.1
1567.5,65.1,74.4,84.7,74.7,9.8
1570.0,65.4,73.2,86.0,74.9,10.4
1572.5,65.4,72.8,85.7,74.6,10.2
1575.0,65.4,74.0,86.7,75.4,10.7
1577.5,64.3,72.4,84.1,73.6,10.0
1580.0,65.1,74.0,83.7,74.3,9.3
1582.5,65.6,74.3,83.0,74.3,8.7
1585.0,64.1,74.6,83.7,74.1,9.8
1587.5,63.4,74.2,83.4,73.7,10.0
1590.0,63.0,74.3,83.7,73.7,10.3
1592.5,61.8,74.8,84.9,73.8,11.6
1595.0,62.9,75.3,87.2,75.1,12.1
1597.5,63.4,74.5,84.6,74.2,10.6
1600.0,62.9,73.7,85.7,74.1,11.4
1602.5,63.8,75.0,84.8,74.5,10.5
1605.0,63.9,73.4,85.9,74.4,11.0
1607.5,63.8,73.0,86.3,74.4,11.3
1610.0,62.7,72.8,86.5,74.0,12.0
1612.5,63.0,72.1,84.0,73.0,10.5
1615.0,63.4,71.3,84.1,72.9,10.4
1617.5,62.2,70.6,83.0,71.9,10.5
1620.0,61.2,69.1,83.3,71.2,11.2
1622.5,62.0,70.7,85.4,72.7,11.8
1625.0,62.4,69.6,84.2,72.1,11.1
1627.5,63.6,71.0,83.5,72.7,10.1
1630.0,64.0,72.3,83.0,73.1,9.5
1632.5,62.7,71.5,84.3,72.8,10.8
1635.0,64.1,71.7,82.6,72.8,9.3
1637.5,63.2,70.2,82.9,72.1,10.0
1640.0,63.0,70.8,83.4,72.4,10.3
1642.5,63.0,69.8,84.0,72.3,10.7
1645.0,61.0,69.3,83.3,71.2,11.3
1647.5,62.6,68.8,86.1,72.5,12.2
1650.0,61.6,69.0,87.0,72.5,13.1
1652.5,62.2,68.9,83.1,71.4,10.7
1655.0,62.1,68.5,84.0,71.5,11.2
1657.5,61.9,68.4,83.6,71.3,11.2
1660.0,61.8,70.0,83.1,71.6,10.7
1662.5,61.6,69.7,84.9,72.1,11.8
1665.0,61.9,69.2,84.9,72.0,11.8
1667.5,62.3,69.3,86.1,72.6,12.2
1670.0,62.0,69.4,85.6,72.3,12.1
1672.5,62.9,69.3,85.4,72.5,11.6
1675.0,62.7,69.0,84.8,72.2,11.4
1677.5,62.8,69.4,84.0,72.1,10.8
1680.0,63.0,69.1,85.6,72.6,11.7
1682.5,62.9,70.8,86.3,73.3,11.9
1685.0,62.2,70.9,86.1,73.0,12.1
1687.5,61.8,70.4,85.0,72.4,11.7
1690.0,61.0,70.2,86.2,72.5,12.8
1692.5,61.4,70.5,86.6,72.8,12.7
1695.0,61.8,72.3,87.2,73.8,12.8
1697.5,61.0,68.3,86.3,71.9,13.0
1700.0,62.7,68.6,85.3,72.2,11.7
1702.5,61.4,69.0,85.5,72.0,12.3
1705.0,62.6,69.4,84.4,72.1,11.1
1707.5,62.0,66.9,84.2,71.0,11.7
1710.0,62.0,67.6,84.0,71.2,11.4
1712.5,61.5,68.2,85.7,71.8,12.5
1715.0,60.7,68.8,84.5,71.4,12.1
1717.5,61.3,68.2,85.0,71.5,12.2
1720.0,61.4,68.8,85.6,71.9,12.4
1722.5,61.1,67.4,87.1,71.9,13.5
1725.0,61.0,69.2,87.1,72.4,13.3
1727.5,61.7,68.4,86.2,72.1,12.7
1730.0,61.1,68.7,85.9,71.9,12.7
1732.5,62.6,67.7,83.9,71.4,11.1
1735.0,62.5,67.8,84.4,71.6,11.4
1737.5,62.1,69.0,84.0,71.7,11.2
1740.0,62.0,68.1,84.6,71.6,11.7
1742.5,62.7,68.4,86.1,72.4,12.2
1745.0,62.2,70.2,86.1,72.9,12.2
1747.5,60.7,70.4,86.7,72.6,13.1
1750.0,60.5,69.0,85.6,71.7,12.8
1752.5,60.7,68.8,86.1,71.9,13.0
1755.0,60.3,68.7,85.9,71.6,13.1
1757.5,60.9,68.8,87.4,72.4,13.6
1760.0,60.1,69.1,86.4,71.9,13.4
1762.5,60.8,67.6,85.7,71.4,12.9
1765.0,60.6,67.6,84.5,70.9,12.3
1767.5,60.4,68.6,82.5,70.5,11.2
1770.0,61.4,69.1,86.4,72.3,12.8
1772.5,61.3,69.1,87.3,72.6,13.4
1775.0,63.0,69.2,87.7,73.3,12.8
1777.5,61.1,70.1,88.1,73.1,13.7
1780.0,60.5,70.3,87.8,72.9,13.8
1782.5,60.8,70.6,86.7,72.7,13.0
1785.0,61.9,70.4,85.9,72.7,12.1
1787.5,62.1,70.0,87.1,73.1,12.8
1790.0,61.5,70.2,86.0,72.6,12.4
1792.5,60.1,70.4,85.7,72.1,12.9
1795.0,60.8,68.8,85.6,71.7,12.7
1797.5,60.5,69.9,85.3,71.9,12.5
1800.0,61.2,69.2,87.6,72.7,13.5
1802.5,61.2,69.1,87.0,72.4,13.2
1805.0,61.1,69.6,88.4,73.0,14.0
1807.5,61.4,69.3,88.4,73.0,13.9
1810.0,60.5,70.0,87.0,72.5,13.4
1812.5,61.1,69.5,88.5,73.1,14.0
1815.0,61.5,70.9,86.2,72.9,12.4
1817.5,61.2,69.9,88.2,73.1,13.8
1820.0,61.5,69.9,87.4,72.9,13.2
1822.5,61.6,70.4,85.8,72.6,12.3
1825.0,60.2,69.9,87.6,72.5,13.9
1827.5,60.0,70.1,87.4,72.5,13.9
1830.0,60.9,69.9,88.7,73.2,14.2
1832.5,59.5,71.0,89.6,73.4,15.2
1835.0,60.6,70.8,87.1,72.8,13.4
1837.5,61.4,71.6,88.5,73.9,13.7
1840.0,61.4,71.9,87.6,73.7,13.2
1842.5,60.3,72.4,87.2,73.3,13.4
1845.0,60.4,72.6,86.4,73.1,13.0
1847.5,61.6,72.0,88.3,74.0,13.5
1850.0,60.2,72.3,88.2,73.6,14.1
1852.5,60.3,71.8,90.1,74.1,15.0
1855.0,60.3,70.0,87.2,72.5,13.6
1857.5,60.3,70.5,87.2,72.7,13.6
1860.0,61.3,70.7,87.0,73.0,13.0
1862.5,61.5,71.0,88.7,73.7,13.8
1865.0,60.5,72.0,87.6,73.4,13.6
1867.5,62.0,72.3,88.1,74.1,13.2
1870.0,62.2,71.8,88.7,74.2,13.4
1872.5,63.2,72.2,87.8,74.4,12.5
1875.0,63.0,71.3,89.1,74.5,13.3
1877.5,62.7,70.6,89.1,74.1,13.6
1880.0,63.3,70.8,89.8,74.7,13.6
1882.5,63.0,71.3,90.4,74.9,14.0
1885.0,62.9,74.2,90.3,75.8,13.8
1887.5,63.6,73.3,88.8,75.2,12.7
1890.0,63.3,72.0,89.8,75.1,13.5
1892.5,61.6,71.9,89.0,74.2,13.8
1895.0,62.3,73.2,89.7,75.1,13.8
1897.5,62.8,73.2,88.2,74.7,12.8
1900.0,64.3,74.1,90.2,76.2,13.1
1902.5,64.5,72.7,89.1,75.4,12.5
1905.0,63.7,72.4,90.8,75.7,13.8
1907.5,64.1,72.7,91.0,75.9,13.7
1910.0,63.8,70.3,89.7,74.6,13.5
1912.5,64.4,71.2,89.6,75.1,13.0
1915.0,65.4,73.3,89.1,75.9,12.1
1917.5,64.9,73.3,88.1,75.4,11.8
1920.0,64.1,73.4,87.4,75.0,11.7
1922.5,64.0,72.9,86.8,74.6,11.5
1925.0,63.8,71.9,86.9,74.2,11.7
1927.5,64.3,71.8,88.4,74.9,12.3
1930.0,65.5,73.3,92.0,76.9,13.7
1932.5,67.0,73.4,91.6,77.4,12.8
1935.0,65.0,74.0,93.2,77.4,14.4
1937.5,65.4,73.4,92.7,77.2,14.0
1940.0,66.5,73.8,90.0,76.7,12.0
1942.5,66.5,73.7,89.4,76.5,11.7
1945.0,66.6,74.9,91.0,77.5,12.4
1947.5,67.1,73.7,90.7,77.2,12.2
1950.0,66.7,75.5,90.9,77.7,12.2
1952.5,66.5,73.7,91.2,77.1,12.7
1955.0,65.6,72.4,91.8,76.6,13.6
1957.5,65.0,71.6,90.1,75.6,13.0
1960.0,65.6,73.1,91.0,76.6,13.1
1962.5,65.6,73.7,91.4,76.9,13.2
1965.0,66.6,74.4,90.0,77.0,11.9
1967.5,66.1,74.0,91.7,77.3,13.1
1970.0,66.5,73.0,91.8,77.1,13.2
1972.5,64.6,72.8,91.7,76.4,13.9
1975.0,65.9,73.4,91.6,76.9,13.2
1977.5,66.6,74.3,91.7,77.5,12.9
1980.0,65.4,75.4,92.2,77.7,13.5
1982.5,68.1,74.2,91.5,77.9,12.2
1985.0,69.1,74.0,92.2,78.4,12.2
1987.5,69.1,74.1,91.2,78.1,11.6
1990.0,67.5,72.7,91.3,77.1,12.5
1992.5,67.8,72.7,92.4,77.6,13.0
1995.0,68.2,72.0,91.6,77.3,12.6
1997.5,66.4,73.0,91.4,76.9,12.9
2000.0,65.9,74.3,92.6,77.6,13.7
2002.5,67.0,74.9,93.3,78.4,13.5
2005.0,67.9,74.1,94.5,78.8,13.9
2007.5,68.2,74.4,91.4,78.0,12.0
2010.0,66.7,75.1,92.8,78.2,13.3
2012.5,67.2,76.2,94.0,79.1,13.6
2015.0,68.0,75.5,92.0,78.5,12.3
2017.5,68.5,75.1,93.0,78.9,12.7
2020.0,68.7,73.7,92.3,78.2,12.5
2022.5,68.0,73.9,92.3,78.1,12.7
2025.0,67.8,76.3,93.8,79.3,13.3
2027.5,67.0,73.2,94.0,78.1,14.1
2030.0,65.8,73.7,93.0,77.5,14.0
2032.5,64.9,75.5,93.6,78.0,14.5
2035.0,66.3,74.8,95.5,78.9,15.0
2037.5,65.6,75.8,95.5,78.9,15.2
2040.0,66.9,74.0,93.8,78.2,14.0
2042.5,65.9,74.6,94.6,78.4,14.7
2045.0,66.6,73.8,94.4,78.3,14.5
2047.5,65.8,73.0,94.2,77.7,14.8
2050.0,66.7,72.5,95.1,78.1,15.0
2052.5,67.0,73.6,95.3,78.6,14.8
2055.0,67.2,75.2,94.3,78.9,14.0
2057.5,66.7,74.9,94.1,78.6,14.1
2060.0,67.0,75.3,95.8,79.4,14.8
2062.5,69.0,75.0,94.6,79.5,13.4
2065.0,68.6,76.7,95.5,80.2,13.8
2067.5,68.4,75.9,95.0,79.8,13.7
2070.0,67.7,75.7,95.4,79.6,14.2
2072.5,68.0,75.8,94.6,79.5,13.7
2075.0,69.6,75.6,95.8,80.3,13.8
2077.5,70.7,77.0,96.2,81.3,13.3
2080.0,69.3,76.6,96.8,80.9,14.3
2082.5,70.1,76.1,96.5,80.9,13.9
2085.0,71.0,77.3,95.8,81.4,12.9
2087.5,69.2,77.1,96.5,81.0,14.0
2090.0,71.2,75.9,95.6,80.9,13.0
2092.5,71.0,76.4,98.4,81.9,14.5
2095.0,70.7,76.0,95.3,80.7,13.0
2097.5,70.6,76.0,96.6,81.1,13.7
2100.0,71.7,74.7,97.4,81.2,14.0
2102.5,71.4,75.8,97.7,81.6,14.1
2105.0,71.9,75.8,96.8,81.5,13.4
2107.5,72.1,76.6,97.9,82.2,13.8
2110.0,72.3,76.6,95.8,81.5,12.5
2112.5,72.4,76.0,94.9,81.1,12.1
2115.0,71.4,76.0,96.5,81.3,13.4
2117.5,69.5,76.7,96.3,80.8,13.9
2120.0,69.0,77.3,95.0,80.5,13.3
2122.5,70.2,76.5,97.3,81.3,14.2
2125.0,69.3,77.8,94.8,80.6,13.0
2127.5,70.4,76.5,98.5,81.8,14.8
2130.0,71.4,76.5,98.2,82.1,14.2
2132.5,71.5,77.1,97.2,81.9,13.5
2135.0,71.6,77.8,99.8,83.1,14.8
2137.5,70.6,76.9,98.9,82.1,14.8
2140.0,73.3,77.5,99.0,83.3,13.8
2142.5,72.4,75.8,97.2,81.8,13.4
2145.0,72.8,76.4,98.8,82.7,14.1
2147.5,71.8,74.5,99.1,81.8,15.1
2150.0,72.0,76.1,97.3,81.8,13.6
2152.5,73.2,76.4,98.1,82.6,13.6
2155.0,72.3,76.1,100.1,82.8,15.1
2157.5,72.0,76.7,100.7,83.1,15.4
2160.0,73.0,76.9,100.4,83.5,14.8
2162.5,72.6,76.9,99.2,82.9,14.3
2165.0,73.2,77.8,99.8,83.6,14.3
2167.5,74.4,77.4,100.5,84.1,14.3
2170.0,74.0,77.5,99.9,83.8,14.1
2172.5,72.8,77.3,100.4,83.5,14.8
2175.0,73.4,78.4,100.6,84.1,14.5
2177.5,72.5,80.2,100.0,84.2,14.1
2180.0,72.5,78.3,100.9,83.9,15.0
2182.5,72.0,77.6,99.9,83.2,14.8
2185.0,74.5,78.6,101.0,84.7,14.3
2187.5,73.1,78.0,102.9,84.7,16.0
2190.0,72.6,78.1,102.8,84.5,16.0
2192.5,73.3,80.5,103.4,85.7,15.7
2195.0,74.4,81.2,102.0,85.9,14.4
2197.5,75.0,80.9,100.9,85.6,13.6
2200.0,74.7,80.3,101.0,85.3,13.9
2202.5,73.4,80.6,102.8,85.6,15.3
2205.0,74.6,77.7,101.3,84.5,14.6
2207.5,74.1,79.8,103.0,85.7,15.3
2210.0,76.4,80.5,101.3,86.1,13.4
2212.5,76.3,80.4,102.1,86.3,13.9
2215.0,77.3,82.3,102.1,87.2,13.1
2217.5,76.1,82.0,101.3,86.5,13.2
2220.0,75.8,81.1,102.2,86.4,14.0
2222.5,75.2,80.4,101.9,85.8,14.1
2225.0,76.9,80.2,102.1,86.4,13.7
2227.5,76.4,80.5,102.8,86.6,14.2
2230.0,76.9,79.7,102.3,86.3,13.9
2232.5,76.2,78.4,102.1,85.6,14.4
2235.0,75.3,79.9,104.2,86.5,15.5
2237.5,75.2,79.6,101.4,85.4,14.0
2240.0,75.1,80.5,103.4,86.3,15.0
2242.5,74.4,80.5,105.1,86.7,16.2
2245.0,74.0,79.8,105.0,86.3,16.5
2247.5,74.1,80.1,104.0,86.0,15.8
2250.0,75.1,80.5,103.5,86.4,15.1
2252.5,74.9,80.5,103.0,86.2,14.9
2255.0,75.6,79.9,102.3,85.9,14.3
2257.5,74.6,80.7,103.5,86.3,15.2
2260.0,73.4,81.0,103.8,86.1,15.8
2262.5,74.1,81.7,104.0,86.6,15.5
2265.0,75.2,81.4,105.6,87.4,16.0
2267.5,76.4,81.5,104.9,87.6,15.2
2270.0,77.2,82.7,104.9,88.3,14.6
2272.5,76.7,82.5,104.7,88.0,14.8
2275.0,77.1,83.0,105.2,88.4,14.8
2277.5,78.9,83.2,105.0,89.1,14.0
2280.0,77.4,82.3,106.4,88.7,15.5
2282.5,77.0,82.6,103.7,87.8,14.1
2285.0,76.7,84.0,103.9,88.2,14.1
2287.5,76.9,84.0,106.6,89.1,15.5
2290.0,77.1,83.9,106.2,89.1,15.2
2292.5,77.1,85.2,108.6,90.3,16.3
2295.0,76.3,83.5,107.7,89.2,16.5
2297.5,77.9,84.9,107.9,90.2,15.7
2300.0,77.3,84.0,107.7,89.7,15.9
2302.5,78.2,85.6,104.9,89.6,13.8
2305.0,77.1,87.6,108.4,91.0,15.9
2307.5,77.3,85.7,107.2,90.0,15.4
2310.0,77.5,85.4,109.3,90.7,16.6
2312.5,76.6,84.2,109.3,90.0,17.1
2315.0,75.8,83.0,108.5,89.1,17.2
2317.5,75.6,82.9,109.1,89.2,17.6
2320.0,77.5,84.2,107.4,89.7,15.7
2322.5,78.8,84.9,109.0,90.9,16.0
2325.0,77.7,85.8,106.3,89.9,14.7
2327.5,77.9,86.1,107.2,90.4,15.1
2330.0,78.8,85.6,107.8,90.7,15.2
2332.5,79.4,83.8,108.7,90.6,15.8
2335.0,79.9,83.5,107.5,90.3,15.0
2337.5,80.3,86.2,109.6,92.0,15.5
2340.0,80.8,85.2,109.3,91.8,15.3
2342.5,78.6,84.9,110.6,91.4,17.0
2345.0,79.7,84.5,108.9,91.0,15.6
2347.5,79.1,85.3,109.7,91.3,16.2
2350.0,79.5,86.5,111.2,92.4,16.7
2352.5,79.2,86.2,109.9,91.8,16.1
2355.0,79.6,85.2,109.8,91.5,16.0
2357.5,80.0,86.1,113.7,93.3,18.0
2360.0,81.6,86.5,113.2,93.8,17.0
2362.5,80.9,86.9,116.0,94.6,18.8
2365.0,81.0,87.3,112.7,93.7,16.8
2367.5,79.4,86.8,115.2,93.8,18.9
2370.0,79.1,86.2,116.2,93.8,19.7
2372.5,79.5,87.6,116.7,94.6,19.6
2375.0,80.8,88.0,118.7,95.8,20.1
2377.5,81.3,87.6,117.1,95.4,19.1
2380.0,82.3,90.3,120.5,97.7,20.2
2382.5,83.6,90.2,118.4,97.4,18.5
2385.0,82.7,87.7,116.2,95.5,18.1
2387.5,83.4,89.3,116.2,96.3,17.5
2390.0,82.1,89.2,117.2,96.2,18.5
2392.5,83.0,89.8,120.7,97.8,20.1
2395.0,80.8,89.8,118.3,96.3,19.6
2397.5,82.9,90.1,120.9,98.0,20.2
2400.0,84.0,89.5,118.1,97.2,18.3
2402.5,82.8,90.2,121.9,98.3,20.8
2405.0,83.0,90.3,119.7,97.7,19.4
2407.5,81.4,91.4,120.8,97.9,20.5
2410.0,82.1,91.2,122.0,98.4,20.9
2412.5,82.4,91.4,123.8,99.2,21.8
2415.0,83.8,92.2,124.7,100.3,21.6
2417.5,83.6,90.4,121.8,98.6,20.4
2420.0,83.2,91.9,124.4,99.8,21.7
2422.5,82.5,89.7,123.4,98.5,21.8
2425.0,84.1,93.0,123.9,100.3,20.9
2427.5,84.4,92.0,124.7,100.4,21.4
2430.0,85.1,93.1,125.3,101.2,21.3
2432.5,84.1,92.0,123.2,99.8,20.7
2435.0,83.9,93.4,123.3,100.2,20.6
2437.5,85.2,92.9,121.7,99.9,19.3
2440.0,84.2,92.9,120.8,99.3,19.1
2442.5,85.0,93.3,123.7,100.6,20.4
2445.0,85.3,94.3,122.9,100.8,19.6
2447.5,84.6,93.8,121.3,99.9,19.1
2450.0,85.5,94.0,119.3,99.6,17.6
2452.5,84.8,95.1,120.9,100.3,18.6
2455.0,84.6,95.3,119.9,99.9,18.1
2457.5,84.2,91.9,120.6,98.9,19.2
2460.0,84.7,93.5,120.7,99.6,18.8
2462.5,86.5,92.6,117.6,98.9,16.5
2465.0,85.5,93.5,118.3,99.1,17.1
2467.5,85.6,92.9,119.0,99.2,17.5
2470.0,86.1,94.3,119.9,100.1,17.6
2472.5,84.6,94.9,117.3,98.9,16.7
2475.0,84.6,92.8,115.6,97.7,16.1
2477.5,86.0,92.8,114.8,97.9,15.1
2480.0,85.2,92.8,113.2,97.1,14.4
2482.5,87.0,94.5,113.3,98.3,13.5
2485.0,85.0,94.8,112.1,97.3,13.7
2487.5,85.7,96.9,110.7,97.8,12.5
2490.0,85.5,96.9,111.5,98.0,13.1
2492.5,86.0,96.8,110.2,97.7,12.1
2495.0,88.2,97.2,110.7,98.7,11.3
2497.5,87.8,98.6,108.6,98.3,10.4
2500.0,87.1,97.2,108.3,97.6,10.6
2502.5,89.2,99.2,111.6,100.0,11.2
2505.0,88.4,97.0,109.9,98.4,10.8
2507.5,88.2,99.0,106.9,98.0,9.4
2510.0,88.5,98.5,108.7,98.6,10.1
2512.5,87.1,98.1,108.3,97.8,10.6
2515.0,87.9,98.2,107.2,97.8,9.7
2517.5,88.5,98.2,107.0,97.9,9.3
2520.0,87.3,97.9,108.7,98.0,10.7
2522.5,89.4,97.0,108.0,98.1,9.3
2525.0,89.6,97.6,108.8,98.7,9.7
2527.5,90.7,97.2,108.4,98.8,8.9
2530.0,90.1,98.1,106.8,98.3,8.4
2532.5,90.2,97.4,105.7,97.8,7.7
2535.0,88.8,99.1,107.5,98.5,9.3
2537.5,89.1,98.9,106.8,98.3,8.9
2540.0,91.4,101.1,109.5,100.7,9.1
2542.5,89.8,100.0,108.9,99.5,9.6
2545.0,89.1,96.6,109.8,98.5,10.5
2547.5,90.3,97.3,107.1,98.2,8.4
2550.0,92.4,99.9,107.5,99.9,7.5
2552.5,89.9,99.9,108.1,99.3,9.1
2555.0,88.4,99.0,107.2,98.2,9.4
2557.5,88.3,101.9,107.8,99.3,10.0
2560.0,90.4,102.1,107.6,100.1,8.8
2562.5,89.1,101.7,109.8,100.2,10.4
2565.0,89.1,101.6,108.6,99.8,9.9
2567.5,90.4,102.9,108.9,100.7,9.4
2570.0,91.8,104.0,110.3,102.0,9.4
2572.5,92.4,102.7,111.4,102.2,9.5
2575.0,90.4,102.4,110.4,101.1,10.0
2577.5,93.1,103.7,109.8,102.2,8.5
2580.0,91.1,103.0,111.4,101.9,10.2
2582.5,91.3,103.0,110.8,101.7,9.8
2585.0,93.6,101.5,112.7,102.6,9.6
2587.5,93.3,102.4,111.1,102.3,8.9
2590.0,92.8,101.8,113.0,102.5,10.1
2592.5,93.3,99.8,111.0,101.3,9.0
2595.0,92.5,100.7,109.7,100.9,8.6
2597.5,90.6,100.4,111.1,100.7,10.2
2600.0,92.0,102.6,111.4,102.0,9.7
2602.5,91.0,101.5,113.0,101.8,11.0
2605.0,93.5,101.7,113.8,103.0,10.2
2607.5,93.4,102.8,116.1,104.1,11.4
2610.0,94.2,102.0,115.4,103.9,10.7
2612.5,93.7,102.0,114.2,103.3,10.3
2615.0,94.0,104.4,110.9,103.1,8.5
2617.5,93.3,101.7,111.1,102.0,8.9
2620.0,96.0,103.8,111.3,103.7,7.7
2622.5,94.7,103.8,112.2,103.6,8.8
2625.0,94.9,103.8,111.5,103.4,8.3
2627.5,94.2,106.7,112.4,104.5,9.3
2630.0,95.5,106.1,110.9,104.2,7.9
2632.5,95.8,105.5,109.9,103.7,7.2
2635.0,94.8,104.0,110.7,103.2,8.0
2637.5,96.7,104.5,111.4,104.2,7.4
2640.0,95.8,104.5,110.2,103.5,7.3
2642.5,94.8,104.0,110.5,103.1,7.9
2645.0,96.3,104.5,109.3,103.4,6.6
2647.5,95.1,104.3,110.1,103.2,7.5
2650.0,95.4,105.7,108.9,103.3,7.1
2652.5,94.7,106.8,110.2,103.9,8.2
2655.0,95.7,104.9,110.0,103.5,7.2
2657.5,96.3,105.3,110.1,103.9,7.0
2660.0,96.4,105.4,107.6,103.1,5.9
2662.5,96.8,106.6,111.0,104.8,7.2
2665.0,96.6,105.5,106.8,103.0,5.6
2667.5,95.6,106.2,109.5,103.8,7.3
2670.0,95.9,106.2,107.8,103.3,6.4
2672.5,96.1,107.1,108.1,103.8,6.7
2675.0,95.7,106.5,109.0,103.7,7.1
2677.5,96.6,107.5,108.5,104.2,6.6
2680.0,96.8,105.7,106.9,103.2,5.5
2682.5,97.4,105.4,105.9,102.9,4.8
2685.0,95.0,106.9,106.4,102.8,6.7
2687.5,96.9,104.9,105.7,102.5,4.9
2690.0,96.5,107.5,107.9,103.9,6.5
2692.5,94.6,106.4,107.8,103.0,7.2
2695.0,97.7,106.2,106.9,103.6,5.1
2697.5,98.5,105.5,106.7,103.6,4.4
2700.0,98.7,104.9,107.9,103.8,4.7
2702.5,97.7,104.7,106.1,102.8,4.5
2705.0,97.3,104.2,107.2,102.9,5.1
2707.5,97.8,103.0,107.0,102.6,4.6
2710.0,99.8,101.7,106.6,102.7,3.5
2712.5,99.0,103.3,106.6,103.0,3.8
2715.0,97.8,106.3,105.8,103.3,4.7
2717.5,97.1,105.1,105.4,102.5,4.7
2720.0,99.0,104.6,106.6,103.4,3.9
2722.5,98.9,103.6,107.3,103.3,4.2
2725.0,100.7,105.2,107.9,104.6,3.6
2727.5,98.4,105.0,106.9,103.5,4.5
2730.0,99.0,104.2,106.5,103.2,3.8
2732.5,99.4,102.6,106.3,102.7,3.5
2735.0,100.4,104.5,105.3,103.4,2.6
2737.5,99.3,105.1,105.3,103.2,3.4
2740.0,99.7,104.1,103.0,102.2,2.3
2742.5,99.9,105.6,102.0,102.5,2.9
2745.0,99.6,106.3,103.5,103.2,3.4
2747.5,100.5,103.8,106.1,103.5,2.8
2750.0,100.2,103.9,105.3,103.1,2.6
2752.5,100.1,104.2,106.8,103.7,3.3
2755.0,98.4,105.3,107.1,103.6,4.6
2757.5,97.4,104.0,109.0,103.5,5.8
2760.0,96.9,102.5,107.1,102.2,5.1
2762.5,97.0,103.6,107.3,102.6,5.2
2765.0,95.8,103.3,106.1,101.8,5.3
2767.5,96.2,99.7,106.2,100.7,5.1
2770.0,94.9,104.7,106.9,102.1,6.4
2772.5,96.5,106.7,108.7,104.0,6.5
2775.0,97.2,105.5,107.0,103.3,5.3
2777.5,96.1,103.9,105.8,101.9,5.2
2780.0,97.0,106.5,107.2,103.6,5.7
2782.5,97.4,106.1,107.3,103.6,5.4
2785.0,99.1,104.7,105.8,103.2,3.6
2787.5,98.3,104.4,104.5,102.4,3.5
2790.0,96.9,105.5,107.2,103.2,5.6
2792.5,96.8,103.3,107.7,102.6,5.5
2795.0,98.7,102.2,106.0,102.3,3.7
2797.5,98.2,102.1,108.6,103.0,5.3
2800.0,98.2,100.9,108.3,102.5,5.2
2802.5,98.3,101.8,109.7,103.2,5.8
2805.0,97.7,101.4,109.3,102.8,5.9
2807.5,97.1,103.4,109.4,103.3,6.1
2810.0,97.2,104.4,109.3,103.6,6.1
2812.5,97.0,104.2,109.3,103.5,6.2
2815.0,97.1,105.1,109.6,103.9,6.4
2817.5,96.4,104.7,110.3,103.8,7.0
2820.0,96.9,103.6,109.6,103.4,6.4
2822.5,96.5,103.5,108.0,102.6,5.8
2825.0,96.7,103.2,109.2,103.0,6.3
2827.5,98.0,103.6,108.0,103.2,5.0
2830.0,97.3,104.2,109.0,103.5,5.9
2832.5,98.8,104.0,109.6,104.1,5.4
2835.0,98.7,104.5,108.4,103.8,4.9
2837.5,96.9,107.5,107.5,104.0,6.1
2840.0,97.7,105.7,104.6,102.7,4.4
2842.5,97.9,106.8,106.5,103.7,5.1
2845.0,98.4,107.9,108.5,105.0,5.7
2847.5,97.6,105.8,107.5,103.6,5.3
2850.0,98.6,106.8,109.2,104.8,5.6
2852.5,98.5,106.5,110.0,105.0,5.9
2855.0,98.4,108.7,108.8,105.3,6.0
2857.5,98.9,105.8,108.3,104.4,4.9
2860.0,98.3,109.1,108.5,105.3,6.1
2862.5,97.4,105.6,108.3,103.8,5.6
2865.0,98.5,108.3,109.1,105.3,5.9
2867.5,100.7,108.3,108.7,105.9,4.5
2870.0,99.1,107.2,111.0,105.8,6.1
2872.5,98.8,108.8,111.5,106.3,6.7
2875.0,99.9,108.2,109.8,106.0,5.3
2877.5,98.2,108.4,109.8,105.5,6.3
2880.0,97.5,107.4,110.5,105.1,6.8
2882.5,99.5,108.8,109.8,106.0,5.7
2885.0,98.5,109.3,110.7,106.2,6.7
2887.5,100.0,107.7,110.0,105.9,5.3
2890.0,99.9,107.3,110.2,105.8,5.3
2892.5,101.1,108.4,113.3,107.6,6.1
2895.0,99.9,107.5,112.9,106.7,6.5
2897.5,100.7,110.4,112.1,107.7,6.2
2900.0,102.4,110.5,111.8,108.2,5.1
2902.5,105.2,110.6,111.9,109.3,3.6
2905.0,104.2,110.1,110.8,108.3,3.6
2907.5,104.0,110.7,112.5,109.1,4.5
2910.0,102.8,108.2,112.1,107.7,4.7
2912.5,104.1,110.8,113.9,109.6,5.0
2915.0,104.2,109.7,113.7,109.2,4.7
2917.5,105.0,110.5,114.4,110.0,4.7
2920.0,105.6,110.5,115.4,110.5,4.9
2922.5,105.6,111.2,116.9,111.2,5.7
2925.0,105.0,111.7,115.8,110.8,5.4
2927.5,107.4,109.7,114.4,110.5,3.6
2930.0,108.2,108.5,113.6,110.1,3.0
2932.5,107.1,108.6,114.4,110.0,3.8
2935.0,106.0,110.5,115.7,110.8,4.9
2937.5,105.9,112.3,115.9,111.4,5.1
2940.0,105.0,109.1,117.0,110.4,6.1
2942.5,106.0,113.0,115.3,111.4,4.8
2945.0,107.0,111.3,116.1,111.4,4.6
2947.5,106.0,111.5,116.5,111.3,5.2
2950.0,107.9,110.7,114.9,111.2,3.5
2952.5,107.4,111.2,117.5,112.1,5.1
2955.0,109.6,110.6,117.3,112.5,4.2
2957.5,108.4,112.8,117.0,112.7,4.3
2960.0,109.1,111.6,118.9,113.2,5.1
2962.5,108.0,111.6,117.1,112.2,4.6
2965.0,107.8,112.2,117.0,112.3,4.6
2967.5,107.6,112.2,118.9,112.9,5.7
2970.0,108.8,114.7,119.5,114.3,5.4
2972.5,111.1,111.9,118.4,113.8,4.0
2975.0,109.4,111.1,118.0,112.9,4.6
2977.5,111.3,113.7,117.1,114.0,2.9
2980.0,111.6,115.2,118.1,115.0,3.3
2982.5,112.2,114.2,119.4,115.3,3.7
2985.0,111.5,113.8,119.0,114.8,3.8
2987.5,111.1,114.6,119.6,115.1,4.2
2990.0,110.6,114.4,120.6,115.2,5.1
2992.5,109.0,114.9,120.8,114.9,5.9
2995.0,108.3,114.7,123.3,115.4,7.5
2997.5,108.1,114.7,119.8,114.2,5.8
3000.0,109.8,115.8,121.8,115.8,6.0
3002.5,109.6,116.3,124.5,116.8,7.4
3005.0,110.0,116.7,123.0,116.6,6.5
3007.5,113.2,118.1,121.9,117.8,4.4
3010.0,111.2,118.8,121.0,117.0,5.1
3012.5,109.9,116.6,125.3,117.2,7.7
3015.0,109.1,119.0,125.8,118.0,8.4
3017.5,109.9,117.6,125.0,117.5,7.6
3020.0,110.7,119.2,124.8,118.3,7.1
3022.5,111.3,118.1,122.6,117.3,5.7
3025.0,110.7,119.1,122.6,117.5,6.1
3027.5,112.7,120.0,123.2,118.7,5.4
3030.0,110.8,118.8,123.5,117.7,6.4
3032.5,110.9,118.0,123.9,117.6,6.5
3035.0,111.9,116.4,126.5,118.3,7.5
3037.5,114.0,117.0,122.6,117.9,4.4
3040.0,111.0,117.0,125.8,117.9,7.4
3042.5,109.6,114.3,123.9,115.9,7.3
3045.0,109.0,116.3,125.3,116.9,8.2
3047.5,109.7,116.2,124.5,116.8,7.4
3050.0,110.7,117.9,121.0,116.5,5.3
3052.5,109.1,116.6,120.1,115.3,5.6
3055.0,107.9,116.8,123.5,116.1,7.8
3057.5,108.1,115.7,121.0,115.0,6.5
3060.0,107.5,113.3,117.5,112.8,5.0
3062.5,107.4,115.7,117.2,113.4,5.3
3065.0,107.2,115.2,114.2,112.2,4.4
3067.5,107.1,118.9,109.3,111.8,6.3
3070.0,107.5,115.1,103.6,108.7,5.9
3072.5,106.5,115.1,102.0,107.9,6.7
3075.0,108.7,113.0,97.4,106.4,8.1
3077.5,106.7,113.9,92.8,104.5,10.7
3080.0,108.3,111.9,86.5,102.2,13.7
3082.5,108.2,113.5,81.4,101.0,17.2
3085.0,106.2,114.9,78.1,99.7,19.2
3087.5,107.0,115.0,76.9,99.6,20.1
3090.0,108.2,112.1,73.9,98.0,21.0
3092.5,107.2,111.6,74.7,97.8,20.1
3095.0,107.5,110.4,71.4,96.4,21.7
3097.5,106.7,110.3,70.5,95.8,22.0
3100.0,106.6,111.7,69.6,96.0,23.0
3102.5,106.0,109.6,67.4,94.3,23.4
3105.0,106.1,111.3,68.1,95.1,23.6
3107.5,103.4,110.7,67.2,93.8,23.2
3110.0,104.4,108.0,65.7,92.7,23.5
3112.5,104.6,108.3,65.7,92.9,23.6
3115.0,104.4,106.3,64.1,91.6,23.9
3117.5,105.3,106.7,62.9,91.6,24.9
3120.0,103.5,106.8,60.9,90.4,25.6
3122.5,106.5,108.2,60.7,91.8,27.0
3125.0,105.7,108.2,60.5,91.5,26.8
3127.5,106.9,107.9,61.4,92.0,26.6
3130.0,106.2,106.7,60.9,91.3,26.3
3132.5,108.5,105.7,59.9,91.4,27.3
3135.0,106.8,104.2,59.5,90.2,26.6
3137.5,106.9,105.9,59.5,90.8,27.1
3140.0,106.5,105.8,58.8,90.4,27.4
3142.5,107.3,103.5,58.8,89.9,26.9
3145.0,108.1,104.4,58.8,90.4,27.5
3147.5,105.6,102.9,59.4,89.3,26.0
3150.0,106.0,102.2,59.0,89.1,26.1
3152.5,105.4,103.4,59.7,89.5,25.8
3155.0,106.2,103.5,59.3,89.7,26.3
3157.5,106.2,102.6,59.2,89.3,26.1
3160.0,105.6,104.3,59.4,89.8,26.3
3162.5,105.7,103.5,59.0,89.4,26.4
3165.0,106.8,104.2,57.7,89.6,27.6
3167.5,105.5,103.1,56.9,88.5,27.4
3170.0,106.6,103.4,56.0,88.7,28.3
3172.5,104.4,103.7,55.9,88.0,27.8
3175.0,104.7,103.5,56.6,88.3,27.4
3177.5,104.5,103.7,56.8,88.3,27.3
3180.0,107.1,104.8,56.7,89.5,28.5
3182.5,107.1,105.8,55.9,89.6,29.2
3185.0,106.6,105.2,54.1,88.6,30.0
3187.5,105.4,104.0,55.0,88.1,28.7
3190.0,104.9,103.5,54.4,87.6,28.7
3192.5,105.3,107.1,53.5,88.6,30.4
3195.0,103.2,104.0,54.5,87.2,28.3
3197.5,103.3,103.6,56.1,87.7,27.3
3200.0,104.1,104.2,54.4,87.6,28.7
3202.5,103.4,104.3,52.9,86.8,29.4
3205.0,104.8,100.8,51.8,85.8,29.5
3207.5,104.6,100.0,52.2,85.6,29.0
3210.0,102.5,97.6,52.8,84.3,27.4
3212.5,103.2,96.5,52.9,84.2,27.3
3215.0,101.4,94.6,50.6,82.2,27.6
3217.5,98.0,92.3,51.8,80.7,25.2
3220.0,97.0,90.1,52.2,79.8,24.1
3222.5,98.4,86.9,52.4,79.2,23.9
3225.0,99.4,85.5,51.6,78.8,24.6
3227.5,100.6,83.7,50.7,78.4,25.4
3230.0,97.7,76.7,51.0,75.2,23.4
3232.5,98.3,73.7,51.6,74.5,23.4
3235.0,99.2,69.4,52.1,73.5,23.8
3237.5,98.7,68.1,51.5,72.8,23.9
3240.0,95.8,66.5,52.1,71.4,22.3
3242.5,95.4,65.2,50.7,70.4,22.8
3245.0,93.6,64.5,50.4,69.5,22.0
3247.5,93.5,61.2,51.2,68.6,22.1
3250.0,92.8,59.5,50.5,67.6,22.3
3252.5,90.4,58.4,51.6,66.8,20.7
3255.0,90.7,58.4,51.1,66.7,21.0
3257.5,88.8,57.2,50.6,65.5,20.4
3260.0,88.7,55.6,50.8,65.0,20.7
3262.5,89.5,55.1,51.3,65.3,21.1
3265.0,88.7,53.5,50.6,64.3,21.2
3267.5,87.5,54.1,51.1,64.2,20.2
3270.0,84.3,53.2,51.3,63.0,18.5
3272.5,81.2,52.1,52.2,61.8,16.8
3275.0,80.1,51.0,50.4,60.5,17.0
3277.5,76.3,51.6,49.8,59.2,14.8
3280.0,75.0,51.5,50.0,58.8,14.0
3282.5,71.4,52.0,49.4,57.6,12.0
3285.0,66.8,52.0,48.9,55.9,9.5
3287.5,63.6,51.6,49.0,54.7,7.8
3290.0,61.5,50.6,48.7,53.6,6.9
3292.5,60.0,48.6,48.2,52.3,6.7
3295.0,58.5,48.5,49.1,52.1,5.6
3297.5,56.3,47.2,49.4,51.0,4.8
3300.0,53.9,46.3,49.3,49.8,3.8
3302.5,53.3,45.9,47.6,49.0,3.9
3305.0,54.9,47.9,48.6,50.5,3.9
3307.5,54.4,47.0,48.0,49.8,4.0
3310.0,52.9,45.2,49.0,49.0,3.9
3312.5,51.8,44.7,48.6,48.4,3.6
3315.0,51.6,45.9,48.3,48.6,2.8
3317.5,50.5,46.8,47.7,48.3,1.9
3320.0,50.3,46.1,48.0,48.1,2.1
3322.5,51.2,46.8,47.8,48.6,2.3
3325.0,49.6,45.7,48.1,47.8,2.0
3327.5,50.0,45.3,48.5,47.9,2.4
3330.0,49.5,44.8,47.2,47.2,2.3
3332.5,48.1,45.6,48.0,47.2,1.4
3335.0,47.4,45.9,47.8,47.0,1.0
3337.5,47.9,45.8,47.8,47.2,1.2
3340.0,46.4,46.0,47.9,46.8,1.0
3342.5,45.8,47.0,48.2,47.0,1.2
3345.0,45.2,46.6,46.9,46.2,0.9
3347.5,45.8,44.9,46.9,45.9,1.0
3350.0,45.3,44.8,47.0,45.7,1.1
3352.5,45.7,44.0,46.6,45.5,1.3
3355.0,45.5,43.7,47.2,45.4,1.7
3357.5,45.1,43.8,47.6,45.5,2.0
3360.0,44.6,43.1,47.9,45.2,2.5
3362.5,44.3,42.2,47.1,44.5,2.4
3365.0,43.4,42.4,47.2,44.3,2.5
3367.5,42.7,42.4,46.7,43.9,2.4
3370.0,42.0,42.4,46.2,43.5,2.3
3372.5,42.2,43.3,46.9,44.1,2.4
3375.0,42.2,42.1,47.2,43.9,2.9
3377.5,41.4,42.8,46.4,43.5,2.6
3380.0,41.4,43.3,46.6,43.8,2.6
3382.5,41.9,44.0,46.6,44.2,2.4
3385.0,41.4,44.0,46.6,44.0,2.6
3387.5,41.5,42.6,45.6,43.3,2.1
3390.0,41.0,42.5,45.6,43.0,2.3
3392.5,40.9,43.4,45.2,43.2,2.2
3395.0,41.4,43.3,44.9,43.2,1.7
3397.5,41.7,43.7,45.0,43.5,1.7
3400.0,41.7,43.7,44.4,43.3,1.4
3402.5,42.0,43.0,43.6,42.8,0.8
3405.0,41.4,42.5,44.1,42.7,1.4
3407.5,41.9,42.8,44.9,43.2,1.5
3410.0,42.0,42.0,45.5,43.1,2.0
3412.5,41.7,,44.5,43.1,2.0
3415.0,41.6,,44.3,42.9,1.9
3417.5,41.3,,45.2,43.2,2.8
3420.0,41.5,,46.0,43.8,3.2
3422.5,40.8,,45.0,42.9,3.0
3425.0,40.5,,45.4,42.9,3.4
3427.5,40.2,,44.6,42.4,3.2
3430.0,39.9,,46.8,43.3,4.9
3432.5,40.1,,46.0,43.0,4.2
3435.0,39.1,,45.6,42.3,4.6
3437.5,39.8,,45.1,42.4,3.7
3440.0,39.0,,46.3,42.7,5.2
3442.5,39.2,,44.5,41.8,3.7
3445.0,39.7,,44.6,42.2,3.5
3447.5,38.8,,44.6,41.7,4.1
3450.0,38.8,,44.3,41.5,3.9
3452.5,38.3,,43.9,41.1,4.0
3455.0,39.0,,44.3,41.6,3.7
3457.5,38.6,,44.2,41.4,3.9
3460.0,37.7,,44.0,40.8,4.5
3462.5,38.3,,43.9,41.1,4.0
3465.0,38.4,,44.9,41.7,4.6
3467.5,39.3,,43.6,41.5,3.1
3470.0,39.5,,44.2,41.9,3.3
3472.5,40.5,,44.7,42.6,3.0
3475.0,39.7,,42.9,41.3,2.2
3477.5,39.1,,43.8,41.4,3.3
3480.0,38.5,,44.7,41.6,4.4
3482.5,38.5,,43.5,41.0,3.6
3485.0,37.4,,43.2,40.3,4.1
3486.0,37.1,,43.6,40.4,4.6