File: 01_Data/Engineered_Wood_Table/Cone/Engineered_Wood_Table_Cone_HF75Scan_230626_R1.csv
Names,Time,Stack TC,Smoke TC,Exh Press,Smoke Comp,Smoke Meas,CO Meter,CO2 Meter,O2 Meter,Sample Mass,Ext Coeff,Start Test,Flame Verif
Chan Gain,,500,500,1,1,1,1,1,1,1,1,1.0,1.0
Offset,,0,0,0.135513,0,0,0,0,0,0,0,0.0,0.0
Gain,,1,1,25.011,12.9031,38.5876,1,1,1,1.00084,0.895081,1.0,1.0
Units,sec,C,C,Pa,%,%,%,%,%,g,/m,,
Baseline,,52.5107,55.3408,163.102,99.9875,99.9754,0.000970122,0.0541174,20.9356,-444.588,0.000963855,,
31,7.5,54.2935,59.0839,153.551,100.384,99.0891,0.000835506,0.0632354,20.9268,417.019,0.101932,0.0,1.0
62,15.25,59.3624,71.532,139.31,100.202,94.6284,0.00166835,0.167203,20.8643,415.768,0.449383,0.0,0.0
93,23,67.7232,87.2386,133.98,100.019,89.129,0.00431621,0.443152,20.6768,413.996,0.905087,0.0,0.0
124,30.75,77.4772,100.501,133.011,100.195,88.7899,0.00643472,0.655571,20.3121,411.845,0.948795,0.0,0.0
155,38.5,84.5509,108.042,131.704,100.415,92.2402,0.00806463,0.784096,20.1338,409.783,0.666693,0.0,0.0
186,46.25,88.6041,110.975,130.195,100.658,92.8102,0.00826189,0.773067,20.0952,407.891,0.637362,0.0,0.0
217,54,91.1366,111.323,136.639,100.8,95.2855,0.00720086,0.701947,20.163,406.14,0.441717,0.0,0.0
248,61.75,92.6794,110.692,141.246,100.873,94.9452,0.00591726,0.636879,20.235,404.558,0.475545,0.0,0.0
279,69.5,93.146,109.298,136.202,100.893,94.9051,0.00585117,0.587629,20.2879,403.087,0.480358,0.0,0.0
310,77.25,93.2299,107.738,142.685,100.808,96.6174,0.00546932,0.539579,20.3384,401.836,0.333375,0.0,0.0
341,85,92.7012,105.833,145.638,100.658,97.2521,0.00525646,0.49033,20.3934,400.615,0.270269,0.0,0.0
372,92.75,91.995,103.378,145.077,100.443,97.0766,0.00459587,0.443223,20.4449,399.534,0.26769,0.0,0.0
403,100.5,90.5627,102.121,143.137,100.152,96.3842,0.0043484,0.410704,20.4954,398.393,0.301114,0.0,0.0
434,108.25,90.709,100.241,143.137,99.8181,96.0557,0.00424426,0.391106,20.5239,397.362,0.301672,0.0,0.0
465,116,89.7507,98.8746,146.441,99.4539,95.8861,0.00430474,0.376749,20.5395,396.322,0.286842,0.0,0.0
496,123.75,89.2064,97.3002,146.501,99.1668,95.7165,0.00372894,0.364318,20.5593,395.341,0.278044,0.0,0.0
527,131.5,88.6191,96.7562,148.193,99.0199,95.7895,0.0035487,0.357033,20.5699,394.38,0.26042,0.0,0.0
558,139.25,88.1877,96.2038,146.474,99.0306,95.9497,0.00393744,0.348184,20.5793,393.439,0.248147,0.0,0.0
589,147,87.7987,95.6235,138.939,99.1955,96.2853,0.00359078,0.340514,20.5894,392.468,0.233801,0.0,0.0
620,154.75,87.3504,94.9691,147.628,99.4802,97.2439,0.00340169,0.333003,20.6003,391.518,0.178525,0.0,0.0
651,162.5,87.0793,94.2072,144.494,99.8039,97.3757,0.0031436,0.330519,20.6055,390.597,0.193387,0.0,0.0
682,170.25,86.9065,93.7939,144.537,100.059,97.9233,0.00319559,0.323873,20.6123,389.676,0.169375,0.0,0.0
713,178,86.4234,93.5861,148.026,100.223,97.7538,0.00298211,0.319678,20.6188,388.805,0.195858,0.0,0.0
744,185.75,86.138,93.8471,147.048,100.252,98.5486,0.00264056,0.314474,20.6258,387.904,0.134554,0.0,0.0
775,193.5,85.6346,93.5135,146.61,100.129,97.9857,0.00262974,0.309292,20.6328,387.034,0.169871,0.0,0.0
806,201.25,85.6786,92.8193,150.692,99.9028,98.0305,0.00272476,0.306804,20.6368,386.193,0.148542,0.0,0.0
837,209,85.5858,92.7386,144.639,99.7165,97.888,0.00258282,0.302692,20.6409,385.352,0.145312,0.0,0.0
868,216.75,85.404,92.1683,145.844,99.6653,97.835,0.00231622,0.29995,20.6429,384.562,0.145531,0.0,0.0
899,224.5,85.3121,92.1456,149.176,100.155,98.6216,0.00265181,0.294591,20.6486,383.731,0.121149,0.0,0.0
930,232.25,85.1565,92.5144,146.682,100.421,98.9078,0.00243467,0.294514,20.6491,382.91,0.11924,0.0,0.0
961,240,84.9375,91.8116,142.241,100.403,98.9914,0.00233755,0.292505,20.6505,382.04,0.111158,0.0,0.0
992,247.75,85.0052,91.9967,145.202,100.178,99.1845,0.00228749,0.289921,20.6521,381.269,0.0782222,0.0,0.0
1023,255.5,84.8772,91.9186,145.927,100.006,98.9102,0.00240912,0.289768,20.6557,380.548,0.0865053,0.0,0.0
1054,263.25,85.0285,91.7998,148.723,100.158,99.5084,0.00224578,0.285539,20.6587,379.808,0.0510543,0.0,0.0
1085,271,84.8584,91.8385,147.792,100.3,99.4519,0.00190129,0.280889,20.6642,378.947,0.0666818,0.0,0.0
1116,278.75,85.6852,92.0782,148.562,100.441,98.9726,0.00213607,0.278324,20.6691,378.206,0.115639,0.0,0.0
1147,286.5,84.5702,91.8093,148.399,100.53,100.038,0.0024068,0.275929,20.6729,377.446,0.0384997,0.0,0.0
1178,294.25,84.7946,91.2995,144.135,100.605,99.287,0.00269013,0.272025,20.6759,376.665,0.103562,0.0,0.0
1209,302,84.9034,91.2789,145.089,100.661,99.7663,0.00246993,0.268767,20.6798,375.904,0.0700824,0.0,0.0
1240,309.75,84.7178,90.5886,148.988,100.717,100.153,0.00204429,0.267264,20.6805,375.224,0.0441653,0.0,0.0
1271,317.5,84.1422,90.4593,147.295,100.745,99.5249,0.00185812,0.262454,20.6876,374.463,0.0956443,0.0,0.0
1302,325.25,84.1072,89.4859,154.603,100.766,100.481,0.00175418,0.26031,20.6918,373.763,0.0222252,0.0,0.0
1333,333,83.629,90.0499,152.352,100.772,99.9135,0.00198539,0.255691,20.6949,373.042,0.0671941,0.0,0.0
1364,340.75,83.9331,90.0422,148.243,100.819,100.357,0.00224788,0.254498,20.6989,372.371,0.0360339,0.0,0.0
1395,348.5,83.9933,89.5809,145.973,100.81,100.482,0.00192275,0.252039,20.7013,371.671,0.0255379,0.0,0.0
1426,356.25,83.3812,89.4446,150.809,100.802,99.8805,0.001837,0.248736,20.7057,370.97,0.0720859,0.0,0.0
1457,364,82.9959,88.7061,144.226,100.782,100.58,0.00188021,0.245618,20.7082,370.25,0.0157573,0.0,0.0
1488,371.75,83.3356,88.7909,146.013,100.806,100.022,0.0020962,0.242753,20.7122,369.589,0.0612925,0.0,0.0
1519,379.5,82.4394,88.43,148.34,100.82,100.344,0.00213991,0.240294,20.7132,369.009,0.037109,0.0,0.0
1550,387.25,83.0402,88.1877,147.569,100.854,100.697,0.00168165,0.236485,20.7213,368.328,0.0122425,0.0,0.0
1581,395,82.5167,87.708,148.934,100.779,99.6626,0.00171851,0.234219,20.7234,367.678,0.0874828,0.0,0.0
1612,402.75,82.2955,87.7943,143.471,100.641,99.6615,0.00181664,0.232703,20.7271,367.087,0.0767995,0.0,0.0
1643,410.5,82.1682,87.7629,151.048,100.394,99.3565,0.00178179,0.23205,20.7249,366.376,0.0815492,0.0,0.0
1674,418.25,82.0622,86.9575,149.392,100.073,99.499,0.00181117,0.227656,20.7292,365.776,0.045189,0.0,0.0
1705,426,81.7305,86.9852,144.464,99.7311,99.559,0.00154503,0.224492,20.7341,365.145,0.0135582,0.0,0.0
1736,433.75,81.8821,86.6384,144.011,99.4046,98.9396,0.00153493,0.224313,20.7344,364.565,0.0368184,0.0,0.0
1767,441.5,82.0877,86.301,147.714,99.1637,98.8689,0.00157303,0.221209,20.7359,363.944,0.0233694,0.0,0.0
1798,449.25,81.2239,86.4035,149.501,99.0365,99.0585,0.00164428,0.220067,20.7379,363.364,-0.00174908,0.0,0.0
1829,457,81.2176,86.4194,150.715,99.0124,98.3531,0.00163473,0.218068,20.7401,362.753,0.0524565,0.0,0.0
1860,464.75,81.0754,86.0497,150.9,99.0944,98.896,0.00169808,0.214708,20.7449,362.203,0.0157303,0.0,0.0
1891,472.5,81.1368,86.1609,148.716,99.2263,98.8254,0.00186596,0.214302,20.7467,361.633,0.0317861,0.0,0.0
1922,480.25,81.228,86.4799,147.448,99.4031,99.2246,0.0015508,0.212576,20.7474,361.022,0.0141113,0.0,0.0
1953,488,80.812,85.803,152.745,99.6161,99.1622,0.00135385,0.211997,20.7476,360.381,0.0358597,0.0,0.0
1984,495.75,80.7581,86.1567,143.696,99.8035,99.3859,0.00157348,0.21003,20.7495,359.851,0.0329233,0.0,0.0
2015,503.5,81.2623,86.1772,148.982,99.9579,99.2046,0.00164848,0.210012,20.7512,359.281,0.0593968,0.0,0.0
2046,511.25,81.035,86.052,154.274,100.11,100.034,0.00159057,0.209169,20.7498,358.74,0.00601699,0.0,0.0
2077,519,80.8089,85.8499,150.311,100.191,100.11,0.00194763,0.20576,20.7544,358.16,0.00630879,0.0,0.0
2108,526.75,80.573,85.7031,152.252,100.245,100.302,0.00145857,0.203857,20.7593,357.609,-0.0045043,0.0,0.0
2139,534.5,80.8513,85.7233,150.453,100.271,100.352,0.00149519,0.203011,20.7589,357.039,-0.00634009,0.0,0.0
2170,542.25,80.451,85.312,147.348,100.265,100.26,0.00151309,0.20192,20.76,356.488,0.000418373,0.0,0.0
2201,550,79.98,85.4776,153.423,100.2,99.8675,0.00164263,0.200759,20.7626,355.948,0.0261293,0.0,0.0
2232,557.75,80.2749,84.9011,149.461,100.112,99.8004,0.00152319,0.198349,20.7646,355.477,0.0244938,0.0,0.0
2263,565.5,79.771,84.6719,149.822,99.9685,99.6992,0.00170671,0.198815,20.7641,354.897,0.0211854,0.0,0.0
2294,573.25,80.412,84.6657,150.305,99.8256,99.1963,0.00114221,0.197646,20.7647,354.346,0.0496509,0.0,0.0
2325,581,79.8537,84.4367,150.127,99.6677,99.1257,0.00162001,0.196506,20.7669,353.816,0.0428156,0.0,0.0
2356,588.75,79.3474,84.5246,149.533,99.6169,99.1445,0.00161405,0.194306,20.7684,353.296,0.0373205,0.0,0.0
2387,596.5,79.8006,84.3617,151,100.01,99.917,0.00135401,0.194811,20.7702,352.775,0.00732438,0.0,0.0
2418,604.25,79.4258,84.759,151.265,100.306,99.9335,0.00153642,0.194511,20.769,352.295,0.0291802,0.0,0.0
2449,612,79.772,84.5568,154.96,100.394,100.211,0.00160939,0.193784,20.7699,351.744,0.0142776,0.0,0.0
2480,619.75,79.3384,84.7984,153.026,100.208,99.4754,0.00133294,0.193932,20.7728,351.264,0.0576066,0.0,0.0
2511,627.5,79.8754,84.7366,151.828,100.041,99.6332,0.0012741,0.192974,20.7743,350.673,0.0320378,0.0,0.0
2542,635.25,79.7145,84.2069,146.037,100.316,100.804,0.0016213,0.193085,20.7755,350.203,-0.0380649,0.0,0.0
2573,643,79.6433,84.392,147.636,100.621,100.466,0.00152024,0.192374,20.7744,349.693,0.0121527,0.0,0.0
2604,650.75,79.7797,84.7238,146.948,100.836,100.322,0.00152863,0.19139,20.7769,349.172,0.0401174,0.0,0.0
2635,658.5,79.6714,84.4596,149.798,100.86,100.748,0.00148373,0.194043,20.7747,348.652,0.0086942,0.0,0.0
2666,666.25,79.4568,84.4621,148.596,100.652,100.539,0.00154113,0.194665,20.7719,348.161,0.00887558,0.0,0.0
2697,674,79.466,84.4594,147.125,100.244,99.8134,0.00171645,0.193789,20.7741,347.641,0.0338134,0.0,0.0
2728,681.75,79.4721,84.6436,149.775,99.7811,99.7145,0.00128601,0.196322,20.7713,347.1,0.00524443,0.0,0.0
2759,689.5,79.9815,84.8162,152.256,99.3357,99.2046,0.00150642,0.19772,20.7696,346.55,0.0103751,0.0,0.0
2790,697.25,80.01,85.0992,150.434,99.0991,99.3035,0.0015922,0.19957,20.7683,346.019,-0.0161778,0.0,0.0
2821,705,79.6213,84.8115,152.37,99.114,98.6487,0.00163885,0.200385,20.7662,345.479,0.0369479,0.0,0.0
2852,712.75,80.534,85.6971,145.059,99.3586,99.7698,0.00136696,0.200293,20.765,344.939,-0.0324303,0.0,0.0
2883,720.5,80.317,85.0951,146.166,99.7657,99.7769,0.00175746,0.202447,20.7636,344.398,-0.000876596,0.0,0.0
2914,728.25,80.4983,85.8424,144.437,100.098,99.9347,0.00189017,0.201695,20.7669,343.838,0.0127966,0.0,0.0
2945,736,80.4622,85.9665,149.08,100.28,100.19,0.00148922,0.20339,20.7644,343.297,0.00706348,0.0,0.0
2976,743.75,80.8214,86.2779,149.639,100.273,100.256,0.00146617,0.203494,20.7646,342.727,0.00134208,0.0,0.0
3007,751.5,80.405,85.7874,148.186,100.082,100.017,0.00175246,0.203631,20.765,342.146,0.00511815,0.0,0.0
3038,759.25,80.4675,86.0646,151.611,99.7614,100.112,0.00162135,0.204732,20.7633,341.606,-0.0275836,0.0,0.0
3069,767,80.8969,85.981,147.955,99.5992,98.9608,0.00172893,0.205609,20.7638,341.045,0.0504861,0.0,0.0
3100,774.75,81.3324,86.3481,148.952,100.066,99.5519,0.00140751,0.206634,20.7623,340.465,0.040421,0.0,0.0
3131,782.5,80.4691,85.7089,148.889,100.348,100.382,0.00156327,0.206859,20.7618,339.884,-0.00269375,0.0,0.0
3162,790.25,80.9366,86.2429,147.515,100.281,99.7474,0.0014304,0.207973,20.7604,339.324,0.0419014,0.0,0.0
3193,798,81.0679,85.6636,147.416,99.9402,99.7121,0.00132082,0.208703,20.758,338.743,0.0179382,0.0,0.0
3224,805.75,80.7829,86.463,149.118,100.155,99.7851,0.00153749,0.208106,20.76,338.123,0.0290636,0.0,0.0
3255,813.5,81.2994,86.8017,148.009,100.433,100.122,0.00146355,0.210884,20.7572,337.582,0.0243707,0.0,0.0
3286,821.25,81.8862,87.1183,150.382,100.661,100.661,0.00172491,0.212801,20.7553,337.022,-3.74394e-05,0.0,0.0
3317,829,81.7236,88.057,148.496,100.791,100.481,0.0017575,0.214853,20.7525,336.331,0.0241887,0.0,0.0
3348,836.75,82.1645,87.7267,147.603,100.818,100.771,0.00156325,0.213562,20.7528,335.821,0.00370094,0.0,0.0
3379,844.5,82.1117,88.2781,147.295,100.836,100.095,0.00178267,0.215187,20.752,335.19,0.0579243,0.0,0.0
3410,852.25,82.3561,88.3411,147.853,100.806,100.057,0.00180685,0.217089,20.7486,334.55,0.0585199,0.0,0.0
3441,860,82.5412,88.4417,145.853,100.786,100.067,0.00161976,0.217669,20.7487,333.989,0.0562778,0.0,0.0
3472,867.75,82.548,88.4999,147.844,100.8,100.698,0.00169947,0.21961,20.7468,333.369,0.0079808,0.0,0.0
3503,875.5,82.6685,88.6364,147.739,100.816,101.31,0.00142403,0.220767,20.7441,332.558,-0.0384242,0.0,0.0
3534,883.25,82.847,88.9629,146.078,100.829,100.986,0.00182926,0.222586,20.7412,332.088,-0.0122747,0.0,0.0
3565,891,83.1243,88.9354,146.143,100.817,100.87,0.00185642,0.224008,20.7445,331.437,-0.00406368,0.0,0.0
3596,898.75,83.0959,89.5243,147.226,100.804,100.68,0.00175835,0.224983,20.7413,330.737,0.00969546,0.0,0.0
3627,906.5,83.5099,89.6742,148.609,100.742,99.8746,0.00140837,0.227029,20.7407,330.086,0.0678854,0.0,0.0
3658,914.25,83.8931,89.757,149.621,100.655,100.216,0.00148685,0.229522,20.7367,329.426,0.0342989,0.0,0.0
3689,922,83.9228,90.1963,146.837,100.615,100.446,0.00134856,0.231454,20.7334,328.725,0.0131956,0.0,0.0
3720,929.75,84.3208,90.1307,146.11,100.526,100.156,0.00144182,0.232154,20.7337,328.044,0.0289862,0.0,0.0
3751,937.5,84.06,89.9588,142.618,100.418,99.9841,0.00153242,0.234364,20.73,327.394,0.0340137,0.0,0.0
3782,945.25,84.3527,90.2258,145.03,100.341,99.8346,0.00156564,0.23578,20.7275,326.663,0.0397607,0.0,0.0
3813,953,84.0996,90.4153,146.308,100.359,99.267,0.00157536,0.2372,20.7255,326.023,0.0859137,0.0,0.0
3844,960.75,84.4068,91.1654,143.608,100.408,99.9665,0.00166873,0.243285,20.7225,325.282,0.0345701,0.0,0.0
3875,968.5,84.5467,90.7822,150.736,100.454,99.2399,0.00174499,0.243824,20.719,324.521,0.0955084,0.0,0.0
3906,976.25,84.7319,91.3074,145.709,100.559,99.8369,0.00145087,0.251223,20.716,323.771,0.0565659,0.0,0.0
3937,984,84.8325,91.2759,143.978,100.665,99.7086,0.00160325,0.257103,20.7043,322.97,0.0749326,0.0,0.0
3968,991.75,84.9738,91.9116,143.136,100.759,99.6615,0.00176586,0.260901,20.7014,322.26,0.08601,0.0,0.0
3999,999.5,85.3106,91.6033,149.38,100.83,99.811,0.00210393,0.26431,20.695,321.549,0.0797585,0.0,0.0
4030,1007.25,85.7619,92.234,142.736,100.848,100.376,0.00165935,0.263319,20.6926,320.808,0.0367988,0.0,0.0
4061,1015,85.2651,91.8926,143.7,100.76,100.43,0.00176236,0.257152,20.6966,320.088,0.0257534,0.0,0.0
4092,1022.75,85.6293,91.4338,140.535,100.543,99.5284,0.00209733,0.246334,20.7071,319.417,0.0796371,0.0,0.0
4123,1030.5,85.034,91.4153,148.85,100.218,99.9806,0.0012046,0.235906,20.7178,318.757,0.0186348,0.0,0.0
4154,1038.25,84.8353,90.5182,151.601,99.8504,99.0432,0.00179786,0.228968,20.7265,318.106,0.0637281,0.0,0.0
4185,1046,84.9342,90.4995,146.076,99.5114,98.9537,0.00170039,0.224781,20.7348,317.476,0.0441215,0.0,0.0
4216,1053.75,84.8411,90.6885,147.216,99.2385,98.5757,0.00154776,0.226688,20.7367,316.805,0.0526118,0.0,0.0
4247,1061.5,84.6367,90.894,147.846,99.1125,98.4403,0.00163967,0.227969,20.7336,316.114,0.0534299,0.0,0.0
4278,1069.25,84.821,90.9517,145.299,99.1251,98.2637,0.00167884,0.233981,20.7299,315.424,0.0685294,0.0,0.0
4309,1077,84.9966,91.4396,145.038,99.2853,98.0058,0.00174495,0.24055,20.7242,314.703,0.101847,0.0,0.0
4340,1084.75,85.3983,91.5748,143.227,99.5503,98.6782,0.00146372,0.245211,20.7172,313.973,0.0690916,0.0,0.0
4371,1092.5,85.6363,91.6992,145.868,99.8685,98.6181,0.00182378,0.246375,20.7135,313.232,0.0989252,0.0,0.0
4402,1100.25,85.8464,92.5005,139.544,100.176,99.2399,0.00173528,0.252913,20.7079,312.481,0.0736884,0.0,0.0
4433,1108,86.4211,93.1181,145.555,100.324,98.9749,0.00184085,0.257389,20.7032,311.721,0.106306,0.0,0.0
4464,1115.75,86.4933,93.0066,143.794,100.309,99.1845,0.00180129,0.258178,20.6973,310.93,0.0884926,0.0,0.0
4495,1123.5,86.4449,93.1874,144.082,100.13,98.3496,0.00191097,0.25997,20.6972,310.199,0.140892,0.0,0.0
4526,1131.25,86.7315,93.0022,139.782,99.8441,98.6899,0.0020159,0.260321,20.6965,309.469,0.091288,0.0,0.0
4557,1139,86.9498,93.0764,146.497,99.6381,98.352,0.00182206,0.257984,20.6973,308.718,0.102012,0.0,0.0
4588,1146.75,87.1273,93.4604,150.863,99.863,99.1327,0.00195883,0.256088,20.6997,308.018,0.057627,0.0,0.0
4619,1154.5,86.579,93.3374,141.241,100.253,98.8454,0.00179266,0.253587,20.7013,307.327,0.111008,0.0,0.0
4650,1162.25,86.7199,92.9261,141.84,100.365,99.0962,0.00187659,0.251519,20.7023,306.606,0.0999243,0.0,0.0
4681,1170,86.7666,93.4175,143.823,100.18,98.8159,0.00175401,0.2483,20.7038,305.956,0.107608,0.0,0.0
4712,1177.75,87.0088,93.0796,149.286,100.039,99.3459,0.00148976,0.24488,20.7088,305.245,0.0546207,0.0,0.0
4743,1185.5,86.9057,93.0266,146.98,100.3,99.5979,0.00161741,0.241193,20.7094,304.605,0.0551616,0.0,0.0
4774,1193.25,86.7457,92.2209,145.628,100.608,99.6662,0.00150594,0.236568,20.7142,303.964,0.0738784,0.0,0.0
4805,1201,86.6541,92.4057,146.058,100.815,100.162,0.00149393,0.23611,20.7176,303.344,0.051005,0.0,0.0
4836,1208.75,86.0909,92.4541,145.832,100.871,100.122,0.00169601,0.232531,20.7194,302.743,0.0585282,0.0,0.0
4867,1216.5,85.9334,92.1282,146.776,100.771,99.9559,0.00126857,0.230114,20.7229,302.113,0.0637718,0.0,0.0
4898,1224.25,85.9496,91.4412,144.125,100.517,99.3223,0.00166964,0.226797,20.7272,301.532,0.0938817,0.0,0.0
4929,1232,85.7632,91.1803,146.585,100.155,99.7145,0.00157221,0.224499,20.731,300.932,0.0346251,0.0,0.0
4960,1239.75,85.5438,90.9568,145.878,99.7397,98.9938,0.00157845,0.220176,20.7355,300.361,0.0589444,0.0,0.0
4991,1247.5,85.5346,90.8418,146.796,99.4141,98.8407,0.00183298,0.219054,20.7375,299.801,0.0454189,0.0,0.0
5022,1255.25,85.2349,90.5119,146.18,99.2231,99.221,0.00165024,0.216957,20.7396,299.26,0.000163795,0.0,0.0
5053,1263,84.9989,90.4629,146.914,99.1617,98.3272,0.00129073,0.214922,20.7426,298.73,0.0663495,0.0,0.0
5084,1270.75,85.0476,90.3515,147.663,99.2349,98.6723,0.00161278,0.213038,20.7437,298.159,0.0446437,0.0,0.0
5115,1278.5,84.7819,90.082,147.682,99.4176,98.7924,0.00142612,0.211021,20.7466,297.629,0.0495347,0.0,0.0
5146,1286.25,84.2791,89.8621,144.598,99.6515,98.6629,0.00183496,0.208567,20.7497,297.089,0.078287,0.0,0.0
5177,1294,84.3744,89.5048,148.86,99.9146,99.5001,0.00161176,0.207409,20.7521,296.578,0.0326353,0.0,0.0
5208,1301.75,84.1983,89.2615,146.906,100.114,99.6815,0.00143537,0.204351,20.753,296.068,0.0340109,0.0,0.0
5239,1309.5,84.1678,88.9681,145.382,100.252,99.5284,0.001614,0.20301,20.7545,295.547,0.0568493,0.0,0.0
5270,1317.25,84.1209,89.2929,150.398,100.368,99.8499,0.00157612,0.201824,20.7551,295.037,0.0406212,0.0,0.0
5301,1325,84.0474,88.817,149.408,100.387,99.9347,0.00167869,0.199586,20.7577,294.526,0.0354963,0.0,0.0
5332,1332.75,83.9476,88.8644,146.751,100.335,99.8051,0.0013966,0.198149,20.7603,294.046,0.0415523,0.0,0.0
5363,1340.5,83.1936,88.8968,146.571,100.198,99.5284,0.00153374,0.197141,20.7619,293.586,0.0526536,0.0,0.0
5394,1348.25,83.0371,88.7377,146.498,100.012,99.8275,0.00167766,0.194281,20.7626,293.095,0.0145149,0.0,0.0
5425,1356,83.2805,88.1385,147.057,99.8338,99.201,0.00144466,0.194592,20.7647,292.545,0.0499272,0.0,0.0
5456,1363.75,83.04,88.2352,147.509,99.6909,99.214,0.00146008,0.191504,20.7677,292.154,0.037653,0.0,0.0
5487,1371.5,83.1675,88.0785,145.301,99.6244,98.8607,0.0014714,0.192234,20.7676,291.674,0.0604186,0.0,0.0
5518,1379.25,83.099,88.0986,147.926,99.7366,99.1292,0.00151638,0.190613,20.771,290.913,0.0479627,0.0,0.0
5549,1387,83.1746,88.3224,150.085,99.8134,99.9029,0.00141804,0.189139,20.7705,290.753,-0.00703659,0.0,0.0
5580,1394.75,83.0458,88.2895,146.213,99.837,99.7957,0.00164088,0.187929,20.7708,290.283,0.00324719,0.0,0.0
5611,1402.5,83.1429,88.51,146.156,99.852,99.7227,0.00139668,0.186925,20.7729,289.883,0.0101713,0.0,0.0
5642,1410.25,82.7254,87.4348,146.242,99.8531,99.4401,0.0013952,0.184936,20.7721,289.432,0.0325467,0.0,0.0
5673,1418,82.5959,87.2424,149.827,99.8142,99.5567,0.0015222,0.182254,20.7795,288.932,0.0202818,0.0,0.0
5704,1425.75,82.4613,88.0711,146.53,99.7094,99.307,0.00172274,0.182645,20.7793,288.501,0.0317516,0.0,0.0
5735,1433.5,82.5025,87.3595,146.168,99.609,98.9137,0.00144251,0.181392,20.7828,288.081,0.0549999,0.0,0.0
5766,1441.25,81.8879,87.3093,145.045,99.6598,99.2152,0.0013171,0.180087,20.7832,287.651,0.0351096,0.0,0.0
5797,1449,82.2971,87.2193,148.167,99.7279,98.9737,0.00121649,0.180392,20.7819,287.24,0.0596021,0.0,0.0
5828,1456.75,82.3194,87.1563,151.556,99.8551,99.6568,0.00130699,0.178429,20.7852,286.77,0.0156126,0.0,0.0
5859,1464.5,81.9033,86.9868,152.392,99.9697,99.8899,0.00154459,0.177508,20.7866,286.4,0.00626857,0.0,0.0
5890,1472.25,81.8072,86.5982,149.322,100.173,99.7828,0.00133641,0.176009,20.7856,285.939,0.0306683,0.0,0.0
5921,1480,81.7406,86.7625,146.119,100.28,99.8146,0.00142746,0.173791,20.7886,285.529,0.036497,0.0,0.0
5952,1487.75,81.9869,86.3761,149.356,100.365,100.315,0.00143524,0.174253,20.7883,285.149,0.0039133,0.0,0.0
5983,1495.5,81.5358,85.8363,149.108,100.382,99.6685,0.00150566,0.171641,20.7902,284.698,0.055972,0.0,0.0
6014,1503.25,81.3269,85.8763,152.539,100.367,100.047,0.00164243,0.171072,20.7939,284.288,0.0251106,0.0,0.0
6045,1511,81.1215,85.6655,144.74,100.381,99.7981,0.00181603,0.171296,20.7949,283.887,0.0457129,0.0,0.0
6076,1518.75,81.0138,85.7023,159.138,100.364,99.8334,0.00153125,0.16966,20.7949,283.477,0.0416398,0.0,0.0
6107,1526.5,80.6054,85.3125,146.458,100.371,100.018,0.00152718,0.168895,20.7962,283.097,0.0276059,0.0,0.0
6138,1534.25,80.3638,84.3709,147.965,100.384,99.7215,0.00176129,0.168359,20.797,282.737,0.0519526,0.0,0.0
6169,1542,79.823,84.1022,150.356,100.378,100.198,0.00172862,0.169378,20.7954,282.276,0.01403,0.0,0.0
6200,1549.75,80.1743,84.7176,147.954,100.383,99.7886,0.00123562,0.166187,20.7983,281.896,0.0466081,0.0,0.0
6231,1557.5,80.0277,84.3785,145.006,100.38,99.7569,0.00123638,0.16624,20.8008,281.465,0.0488641,0.0,0.0
6262,1565.25,79.754,84.5928,151.51,100.363,99.9029,0.0013186,0.164066,20.8045,281.085,0.0360553,0.0,0.0
6293,1573,80.1667,84.5527,150.982,100.331,100.014,0.00137917,0.164231,20.8011,280.715,0.0248643,0.0,0.0
6324,1580.75,79.6848,84.1351,150.09,100.295,99.6744,0.00157808,0.164519,20.8022,280.314,0.0486985,0.0,0.0
6355,1588.5,80.2745,84.2376,151.314,100.252,99.9099,0.00132954,0.162827,20.8035,279.914,0.0268383,0.0,0.0
6386,1596.25,79.5406,83.9972,144.027,100.235,99.9806,0.00160733,0.162795,20.8064,279.534,0.0199308,0.0,0.0
6417,1604,79.5904,84.1454,149.867,100.253,99.804,0.00159872,0.162388,20.8054,279.113,0.0352643,0.0,0.0
6448,1611.75,79.7113,84.0128,151.121,100.258,99.8452,0.00155326,0.162003,20.8066,278.703,0.0323612,0.0,0.0
6479,1619.5,79.3779,83.7378,151.332,100.261,100.168,0.00163023,0.160573,20.8075,278.383,0.00727576,0.0,0.0
6510,1627.25,79.8357,84.1842,147.859,100.244,99.8593,0.00149279,0.161748,20.8081,277.932,0.0302012,0.0,0.0
6541,1635,79.8224,84.1415,154.923,100.196,99.7133,0.00151416,0.163528,20.8055,277.572,0.0378971,0.0,0.0
6572,1642.75,79.4485,84.0688,148.019,100.137,99.7969,0.00130688,0.162141,20.8064,277.182,0.026717,0.0,0.0
6603,1650.5,79.2969,84.2251,146.357,100.078,99.5308,0.00148661,0.161242,20.8091,276.812,0.0430195,0.0,0.0
6634,1658.25,79.1269,83.7052,152.458,99.9819,99.5496,0.0016522,0.160126,20.8088,276.421,0.034024,0.0,0.0
6665,1666,79.2917,83.8976,148.314,99.8413,99.519,0.00152662,0.15974,20.8083,276.031,0.0253914,0.0,0.0
6696,1673.75,79.0469,83.6358,146.03,99.726,99.4778,0.00164568,0.161398,20.8069,275.631,0.0195657,0.0,0.0
6727,1681.5,78.8537,83.4298,149.606,99.6212,99.1822,0.00163797,0.16105,20.8087,275.26,0.0346782,0.0,0.0
6758,1689.25,78.778,83.269,152.294,99.7941,99.1374,0.00143402,0.158915,20.8079,274.9,0.0518345,0.0,0.0
6789,1697,79.2066,83.5066,152.553,99.9484,99.3435,0.00130856,0.159636,20.8093,274.53,0.047665,0.0,0.0
6820,1704.75,79.0129,83.577,147.174,100.167,99.4789,0.00140109,0.159265,20.8089,274.109,0.0541178,0.0,0.0
6851,1712.5,78.9075,83.7515,149.963,100.313,100.137,0.00151931,0.159754,20.8094,273.759,0.0137768,0.0,0.0
6882,1720.25,78.8809,83.6515,146.727,100.362,99.8098,0.00153452,0.159622,20.8095,273.389,0.0433387,0.0,0.0
6913,1728,78.8006,83.9763,150.633,100.289,99.97,0.00139597,0.159517,20.8095,272.998,0.0249883,0.0,0.0
6944,1735.75,79.1742,83.489,145.01,100.069,99.6886,0.00165955,0.159429,20.809,272.628,0.0299019,0.0,0.0
6975,1743.5,79.032,83.1807,150.086,100.056,99.1881,0.00164172,0.159852,20.8081,272.218,0.068431,0.0,0.0
7006,1751.25,78.7813,83.7714,146.558,100.196,99.7898,0.00145659,0.159136,20.8099,271.857,0.0318719,0.0,0.0
7037,1759,78.9696,83.8785,148.926,100.311,99.5837,0.0016848,0.159029,20.8116,271.467,0.0571699,0.0,0.0
7068,1766.75,78.945,84.0379,147.077,100.521,100.295,0.00130658,0.159446,20.8125,271.067,0.0176393,0.0,0.0
7099,1774.5,78.7965,83.5437,152.343,100.696,100.349,0.0017125,0.160889,20.8108,270.676,0.0271051,0.0,0.0
7130,1782.25,79.0343,83.9388,149.938,100.823,100.657,0.00141376,0.159759,20.8108,270.286,0.0129741,0.0,0.0
7161,1790,78.8183,83.4154,146.369,100.886,100.134,0.00176098,0.162495,20.8092,269.856,0.0588004,0.0,0.0
7192,1797.75,79.0834,83.9759,150.543,100.87,100.442,0.00168285,0.161071,20.8107,269.485,0.0333576,0.0,0.0
7223,1805.5,78.8924,83.5187,146.352,100.846,100.332,0.00172244,0.160744,20.8108,269.105,0.040177,0.0,0.0
7254,1813.25,79.2864,84.2695,148.213,100.693,100.276,0.00162177,0.160575,20.8103,268.715,0.0326045,0.0,0.0
7285,1821,79.1008,83.7708,154.683,100.509,99.8687,0.00130292,0.161187,20.8084,268.344,0.0501904,0.0,0.0
7316,1828.75,79.1281,83.6286,147.557,100.291,100.149,0.00152868,0.159934,20.8114,267.984,0.0110957,0.0,0.0
7347,1836.5,79.3392,83.8644,148.991,100.005,99.3918,0.00160546,0.160485,20.812,267.564,0.0483031,0.0,0.0
7378,1844.25,79.2151,83.4622,148.836,99.7441,98.942,0.00138064,0.160809,20.8099,267.194,0.0633957,0.0,0.0
7409,1852,78.7482,83.758,151.739,99.4913,99.0197,0.0015452,0.161286,20.8118,266.813,0.0373056,0.0,0.0
7440,1859.75,79.1276,84.0098,151.765,99.3322,98.8807,0.00165827,0.160755,20.8121,266.413,0.0357674,0.0,0.0
7471,1867.5,79.0927,83.9058,150.577,99.2704,98.9502,0.00180595,0.161254,20.8105,266.003,0.0253643,0.0,0.0
7502,1875.25,79.1423,84.1806,148.828,99.2223,99.3435,0.00162937,0.163473,20.8069,265.672,-0.00958375,0.0,0.0
7533,1883,79.2474,84.6635,149.456,99.2192,98.8195,0.00147634,0.163128,20.8054,265.262,0.0316938,0.0,0.0
7564,1890.75,79.5683,84.1048,144.527,99.1928,98.9443,0.00156496,0.164281,20.8057,264.822,0.0196936,0.0,0.0
7595,1898.5,79.259,84.3277,150.168,99.1967,98.14,0.00119903,0.164373,20.8071,264.461,0.0840906,0.0,0.0
7626,1906.25,79.2686,84.7704,151.433,99.1959,98.8583,0.00171689,0.165105,20.8041,264.031,0.0267674,0.0,0.0
7657,1914,79.6617,84.8472,150.196,99.2219,98.5863,0.00152909,0.166499,20.8044,263.721,0.0504592,0.0,0.0
7688,1921.75,79.8979,84.9327,156.752,99.2755,99.0844,0.00161055,0.167104,20.8032,263.31,0.015124,0.0,0.0
7719,1929.5,79.6878,84.4729,148.674,99.3751,99.0774,0.00162741,0.168771,20.8049,262.91,0.0235588,0.0,0.0
7750,1937.25,79.6238,84.9672,150.337,99.5555,98.8666,0.00126681,0.168392,20.802,262.51,0.0545175,0.0,0.0
7781,1945,80.2236,85.1651,147.409,99.7756,98.7806,0.00174542,0.169765,20.8008,262.109,0.0786883,0.0,0.0
7812,1952.75,79.7277,85.293,149.05,100.007,99.3883,0.00145333,0.169695,20.798,261.659,0.0487366,0.0,0.0
7843,1960.5,79.8622,84.9488,150.977,100.255,99.705,0.00145887,0.168997,20.8016,261.229,0.0431731,0.0,0.0
7874,1968.25,79.7919,85.2068,151.471,100.47,99.8146,0.00186295,0.168419,20.7996,260.798,0.0513733,0.0,0.0
7905,1976,80.0949,85.0868,144.895,100.673,99.6956,0.0013056,0.169058,20.8012,260.378,0.0766281,0.0,0.0
7936,1983.75,79.9526,85.1699,149.004,100.825,100.271,0.00128434,0.175129,20.801,259.987,0.0432224,0.0,0.0
7967,1991.5,79.9578,85.0722,149.839,100.874,100.014,0.00168498,0.174405,20.7943,259.577,0.0672748,0.0,0.0
7998,1999.25,79.9891,85.2125,152.758,100.82,99.9594,0.00153207,0.172859,20.7979,259.097,0.0673277,0.0,0.0
8029,2007,80.1069,84.5115,147.316,100.715,100.385,0.00179788,0.172851,20.7969,258.676,0.0258149,0.0,0.0
8060,2014.75,80.1624,85.375,148.199,100.632,100.016,0.00166288,0.172829,20.7975,258.236,0.0481869,0.0,0.0
8091,2022.5,79.7729,84.8378,146.038,100.579,99.7957,0.00154297,0.174345,20.7943,257.826,0.0614058,0.0,0.0
8122,2030.25,80.146,84.9433,150.356,100.505,99.6179,0.00136736,0.17148,20.7985,257.405,0.0695963,0.0,0.0
8153,2038,79.9263,84.776,148.894,100.407,99.7545,0.00137142,0.172622,20.8,256.965,0.051205,0.0,0.0
8184,2045.75,79.8365,84.738,150.74,100.352,99.6414,0.00126215,0.171631,20.7992,256.565,0.0557648,0.0,0.0
8215,2053.5,80.0412,84.5682,146.056,100.327,99.5637,0.00155914,0.172143,20.7989,256.104,0.0599811,0.0,0.0
8246,2061.25,79.6962,84.9058,148.961,100.328,99.705,0.00117057,0.173937,20.7984,255.684,0.0488762,0.0,0.0
8277,2069,80.0474,84.907,148.887,100.374,99.5743,0.00162353,0.175283,20.7946,255.203,0.0627811,0.0,0.0
8308,2076.75,79.8851,86.2671,149.456,100.432,99.5437,0.00168592,0.177282,20.7942,254.783,0.0697531,0.0,0.0
8339,2084.5,80.1809,85.9925,146.366,100.496,99.8346,0.00153757,0.177941,20.7913,254.353,0.0518298,0.0,0.0
8370,2092.25,81.2193,85.7319,146.393,100.571,99.9794,0.00116027,0.179007,20.7912,253.902,0.0463206,0.0,0.0
8401,2100,80.4668,86.8632,148.438,100.641,100.598,0.0014581,0.178858,20.7904,253.462,0.00341933,0.0,0.0
8432,2107.75,80.5507,85.8859,149.376,100.71,100.102,0.0014967,0.180089,20.7883,253.032,0.0475831,0.0,0.0
8463,2115.5,80.7808,85.5724,146.003,100.774,99.6002,0.00165988,0.180362,20.7877,252.591,0.0919717,0.0,0.0
8494,2123.25,80.9754,86.2476,146.996,100.845,99.8675,0.00159471,0.179132,20.793,252.161,0.0764779,0.0,0.0
8525,2131,81.155,86.221,149.818,100.885,100.529,0.00112153,0.181668,20.7903,251.731,0.0277141,0.0,0.0
8556,2138.75,81.7557,86.1479,150.141,100.907,100.724,0.00145002,0.182792,20.7884,251.28,0.0143,0.0,0.0
8587,2146.5,81.3472,86.6098,152.597,100.876,100.46,0.00173488,0.182928,20.7854,250.79,0.0324377,0.0,0.0
8618,2154.25,81.0129,87.2811,148.582,100.792,100.458,0.00141752,0.183158,20.7859,250.319,0.0260594,0.0,0.0
8649,2162,81.2825,86.6337,150.053,100.666,100.48,0.00155184,0.184075,20.7857,249.839,0.0145513,0.0,0.0
8680,2169.75,80.9957,86.402,149.245,100.493,100.018,0.00174757,0.184661,20.784,249.369,0.0372106,0.0,0.0
8711,2177.5,81.0915,86.7533,149.137,100.313,99.8982,0.00130697,0.183443,20.7848,248.958,0.0325113,0.0,0.0
8742,2185.25,81.3502,86.0846,145.643,100.11,99.5178,0.00155789,0.184034,20.7857,248.548,0.0466053,0.0,0.0
8773,2193,81.9507,86.6147,147.592,99.9134,99.6744,0.00148186,0.184942,20.7845,248.007,0.0188019,0.0,0.0
8804,2200.75,81.4815,86.7895,145.484,99.7464,98.644,0.00155047,0.187042,20.783,247.567,0.0872607,0.0,0.0
8835,2208.5,81.8069,87.5523,150.325,99.5633,99.0903,0.00138238,0.186729,20.7809,247.097,0.0373894,0.0,0.0
8866,2216.25,81.7446,87.8166,148.854,99.4046,98.6146,0.00152223,0.189612,20.778,246.606,0.062653,0.0,0.0
8897,2224,81.7742,88.0254,148.643,99.303,98.982,0.00145171,0.190121,20.7794,246.156,0.0254259,0.0,0.0
8928,2231.75,81.438,87.2477,144.311,99.2215,98.4344,0.00163856,0.189648,20.7755,245.686,0.062535,0.0,0.0
8959,2239.5,81.7645,87.3319,145.626,99.1967,98.8689,0.00165827,0.188377,20.7803,245.215,0.0259885,0.0,0.0
8990,2247.25,82.0107,87.3143,147.308,99.2184,98.4591,0.00157942,0.187738,20.7818,244.705,0.0603136,0.0,0.0
9021,2255,81.627,86.889,148.771,99.2676,98.3437,0.00119862,0.190614,20.78,244.264,0.0734157,0.0,0.0
9052,2262.75,81.6753,87.3609,144.191,99.3468,98.949,0.00112156,0.188418,20.7819,243.784,0.0314971,0.0,0.0
9083,2270.5,81.7603,87.4367,147.474,99.4602,98.8018,0.00152254,0.192212,20.7784,243.294,0.0521432,0.0,0.0
9114,2278.25,82.0853,87.33,147.483,99.6027,98.3849,0.00142478,0.193814,20.7762,242.823,0.0965865,0.0,0.0
9145,2286,81.7048,87.6049,146.833,99.7189,99.015,0.00144026,0.191706,20.7763,242.353,0.0556207,0.0,0.0
9176,2293.75,82.1364,87.8913,149.518,99.8606,99.5508,0.0010737,0.190857,20.7768,241.862,0.0244005,0.0,0.0
9207,2301.5,81.9237,87.4953,151.338,99.987,99.2281,0.00151326,0.192472,20.7756,241.372,0.0598222,0.0,0.0
9238,2309.25,82.0515,87.8684,150.685,100.085,99.645,0.00112907,0.193068,20.7754,240.912,0.0346325,0.0,0.0
9269,2317,82.4807,87.8172,148.522,100.141,99.6226,0.00139844,0.191822,20.7768,240.431,0.040719,0.0,0.0
9300,2324.75,82.1327,87.4686,146.784,100.235,99.7474,0.00154449,0.195515,20.7726,239.971,0.0383246,0.0,0.0
9331,2332.5,82.5302,88.2621,147.952,100.325,99.4919,0.00120417,0.195709,20.7723,239.43,0.0654947,0.0,0.0
9362,2340.25,82.5611,88.4723,146.858,100.393,100.164,0.00149691,0.196547,20.7698,238.91,0.0179074,0.0,0.0
9393,2348,82.8046,88.1345,150.031,100.438,99.6038,0.00153876,0.198338,20.7709,238.429,0.0655105,0.0,0.0
9424,2355.75,82.3799,88.884,150.007,100.422,99.5484,0.00142033,0.198288,20.7707,237.949,0.0686119,0.0,0.0
9455,2363.5,82.8381,88.3561,147.096,100.384,99.7251,0.0016615,0.197944,20.7695,237.449,0.0516745,0.0,0.0
9486,2371.25,82.8387,88.7169,146.335,100.295,99.1963,0.00157738,0.196325,20.7701,236.968,0.0864507,0.0,0.0
9517,2379,82.7848,89.1893,146.877,100.257,99.413,0.00138427,0.199655,20.7688,236.438,0.0663588,0.0,0.0
9548,2386.75,82.7324,88.8503,153.984,100.221,99.8628,0.00128648,0.201551,20.7626,235.797,0.0280732,0.0,0.0
9579,2394.5,83.0221,88.7734,144.901,100.221,99.7616,0.00147137,0.202566,20.7645,235.447,0.0360404,0.0,0.0
9610,2402.25,83.3186,89.5951,143.597,100.247,99.7934,0.00173202,0.205724,20.7617,234.896,0.0356044,0.0,0.0
9641,2410,83.4201,89.4938,147.547,100.272,99.9806,0.00139981,0.203028,20.7661,234.356,0.0228291,0.0,0.0
9672,2417.75,83.4164,89.3034,143.221,100.312,99.7851,0.0014436,0.205655,20.7629,233.836,0.0413409,0.0,0.0
9703,2425.5,83.6187,89.6597,148.995,100.354,99.9959,0.0012951,0.205111,20.7616,233.325,0.0280387,0.0,0.0
9734,2433.25,84.2995,89.8905,148.182,100.394,100.088,0.00170174,0.207555,20.7591,232.795,0.0239713,0.0,0.0
9765,2441,83.901,90.0837,151.258,100.409,99.8464,0.00113598,0.206039,20.7591,232.334,0.0441011,0.0,0.0
9796,2448.75,84.0156,89.7013,148.514,100.379,100.08,0.00144828,0.206906,20.7587,231.714,0.0234478,0.0,0.0
9827,2456.5,84.0146,90.3924,148.375,100.3,99.778,0.00178737,0.206014,20.7587,231.283,0.0409713,0.0,0.0
9858,2464.25,84.1645,90.2173,142.844,100.177,100.122,0.0016324,0.20812,20.7592,230.713,0.00430527,0.0,0.0
9889,2472,84.2544,90.4804,150.94,100.061,99.8887,0.00191136,0.208131,20.7584,230.223,0.0135021,0.0,0.0
9920,2479.75,84.661,90.6907,147.793,99.9004,99.4942,0.00130208,0.210457,20.7569,229.602,0.0319865,0.0,0.0
9951,2487.5,84.4419,90.2046,149.03,99.6799,99.2293,0.00122547,0.21049,20.756,229.062,0.0355736,0.0,0.0
9982,2495.25,84.5448,90.2823,146.44,99.3968,98.7182,0.00135899,0.209618,20.7569,228.551,0.053785,0.0,0.0
10013,2503,85.0135,90.7471,152.151,99.181,98.3626,0.00153059,0.212095,20.7528,228.021,0.0650575,0.0,0.0
10044,2510.75,84.5407,90.7439,148.534,99.1633,99.0468,0.00136805,0.21197,20.7518,227.44,0.0092299,0.0,0.0
10075,2518.5,84.7102,90.7413,147.06,99.2259,98.6252,0.00203612,0.212596,20.753,226.89,0.0476761,0.0,0.0
10106,2526.25,84.8414,90.7722,149.76,99.309,99.0114,0.00149387,0.216389,20.7507,226.359,0.0235579,0.0,0.0
10137,2534,84.6172,90.8366,142.937,99.3814,98.6499,0.0013826,0.216293,20.7484,225.779,0.0580051,0.0,0.0
10168,2541.75,84.7652,90.4933,148.63,99.4208,99.0644,0.00159033,0.217799,20.7483,225.258,0.0281935,0.0,0.0
10199,2549.5,84.701,90.7836,148.998,99.4326,98.9879,0.00125537,0.214525,20.7488,224.708,0.0351963,0.0,0.0
10230,2557.25,84.7093,90.6405,146.856,99.4298,98.6664,0.00153487,0.217839,20.7479,224.137,0.0605189,0.0,0.0
10261,2565,84.515,90.6701,144.899,99.4078,98.6723,0.00144871,0.215175,20.7484,223.617,0.058309,0.0,0.0
10292,2572.75,84.8191,90.5061,152.283,99.372,98.7559,0.00154528,0.217868,20.7446,223.037,0.0488278,0.0,0.0
10323,2580.5,85.6059,90.8551,145.416,99.3393,98.8419,0.00142837,0.219637,20.7436,222.476,0.0394134,0.0,0.0
10354,2588.25,85.1237,90.8864,146.268,99.3003,98.9219,0.0017254,0.218171,20.7432,221.906,0.0299737,0.0,0.0
10385,2596,85.0632,90.9187,151.759,99.2708,98.3885,0.00168586,0.219484,20.7412,221.325,0.0700935,0.0,0.0
10416,2603.75,85.2122,91.2099,149.063,99.2798,98.7229,0.00135901,0.218946,20.7449,220.765,0.0441662,0.0,0.0
10447,2611.5,85.0203,90.967,147.403,99.2908,98.9537,0.00134313,0.222985,20.7412,220.204,0.026703,0.0,0.0
10478,2619.25,84.8173,91.2256,146.692,99.2826,97.7749,0.00135959,0.223631,20.742,219.634,0.120143,0.0,0.0
10509,2627,85.4168,91.6078,146.918,99.2708,98.8701,0.00179243,0.223658,20.7358,219.043,0.0317516,0.0,0.0
10540,2634.75,85.3938,91.5114,146.664,99.268,98.4886,0.00132343,0.225145,20.7355,218.513,0.0618915,0.0,0.0
10571,2642.5,85.109,92.0307,141.102,99.2526,98.803,0.0016465,0.226177,20.7335,217.892,0.0356519,0.0,0.0
10602,2650.25,85.6534,92.0392,147.664,99.2125,98.8101,0.00156129,0.225379,20.7375,217.362,0.0319119,0.0,0.0
10633,2658,86.038,92.1586,150.999,99.1995,99.1104,0.00164681,0.22798,20.7371,216.771,0.00705787,0.0,0.0
10664,2665.75,85.8809,92.4761,143.691,99.2085,98.518,0.00185313,0.228076,20.7335,216.221,0.054841,0.0,0.0
10695,2673.5,86.1967,92.1688,144.807,99.2318,98.3814,0.00164866,0.22784,20.734,215.6,0.0675736,0.0,0.0
10726,2681.25,86.2885,92.3821,146.364,99.3066,98.5322,0.00179895,0.228404,20.7332,215.01,0.0614708,0.0,0.0
10757,2689,86.1498,92.8457,147.109,99.4042,98.4968,0.00138198,0.229118,20.7333,214.489,0.0720034,0.0,0.0
10788,2696.75,86.4052,92.7644,146.02,99.5594,99.2305,0.00142399,0.228971,20.7322,213.919,0.0259838,0.0,0.0
10819,2704.5,86.4208,93.539,147.525,99.7531,98.7029,0.00167464,0.230157,20.7307,213.308,0.0831025,0.0,0.0
10850,2712.25,86.9614,93.249,143.886,99.9618,99.161,0.00165481,0.23252,20.7283,212.748,0.0631553,0.0,0.0
10881,2720,86.7189,93.0568,147.382,100.123,99.5708,0.00137719,0.230188,20.7285,212.157,0.0434449,0.0,0.0
10912,2727.75,86.8401,93.3644,145.268,100.267,99.214,0.00143548,0.231523,20.7287,211.597,0.0828941,0.0,0.0
10943,2735.5,87.2287,93.1561,144.562,100.359,99.8534,0.00180837,0.231112,20.7264,210.986,0.0396648,0.0,0.0
10974,2743.25,87.0319,93.4265,144.929,100.422,99.6132,0.00140142,0.230516,20.7258,210.446,0.0634747,0.0,0.0
11005,2751,86.7454,93.189,147.222,100.44,99.6803,0.00132176,0.230594,20.7262,209.876,0.0596021,0.0,0.0
11036,2758.75,86.6448,92.9198,146.589,100.393,99.6038,0.00158727,0.229971,20.7294,209.305,0.0619389,0.0,0.0
11067,2766.5,86.6397,93.333,145.302,100.312,99.3624,0.00158802,0.228226,20.7317,208.715,0.0746758,0.0,0.0
11098,2774.25,87.0216,93.2357,150.83,100.191,99.393,0.00161152,0.228531,20.733,208.164,0.0627885,0.0,0.0
11129,2782,86.9214,93.2413,140.772,100.077,99.1092,0.00184337,0.22803,20.7322,207.624,0.076286,0.0,0.0
11160,2789.75,86.5823,93.035,143.964,99.9425,99.2352,0.00149078,0.228326,20.7295,207.063,0.0557676,0.0,0.0
11191,2797.5,86.9317,93.0051,141.443,99.839,98.7924,0.00171944,0.227893,20.731,206.503,0.0827395,0.0,0.0
11222,2805.25,86.9902,93.4716,147.699,99.6795,98.4568,0.00142748,0.228118,20.7297,205.942,0.0969063,0.0,0.0
11253,2813,86.8232,92.9422,146.04,99.6492,98.8265,0.00161485,0.226859,20.7322,205.342,0.0650854,0.0,0.0
11284,2820.75,87.2307,92.8,148.673,99.8638,98.6523,0.00167371,0.227717,20.7315,204.801,0.0958357,0.0,0.0
11315,2828.5,87.1226,93.2382,148.78,100.012,98.7053,0.00158476,0.228821,20.7313,204.261,0.103251,0.0,0.0
11346,2836.25,86.8985,92.8105,146.963,100.191,99.1739,0.00173787,0.230743,20.7287,203.69,0.0800791,0.0,0.0
11377,2844,87.0104,93.1982,153.319,100.313,98.9632,0.00152298,0.228563,20.7314,203.12,0.106407,0.0,0.0
11408,2851.75,87.0854,92.9471,148.824,100.36,99.3706,0.00152431,0.229708,20.7295,202.569,0.0777829,0.0,0.0
11439,2859.5,86.8333,92.8451,146.604,100.363,99.3659,0.00135602,0.230998,20.7282,201.959,0.0783714,0.0,0.0
11470,2867.25,86.8994,92.4898,145.265,100.266,99.4907,0.00171736,0.231288,20.7296,201.418,0.0609628,0.0,0.0
11501,2875,87.1815,92.5247,147.38,100.081,98.8642,0.00143551,0.23229,20.726,200.828,0.0960234,0.0,0.0
11532,2882.75,87.0821,93.3462,143.959,99.9484,99.0385,0.00157679,0.232889,20.728,200.278,0.0718077,0.0,0.0
11563,2890.5,87.013,93.3651,143.876,100.004,98.7582,0.00158926,0.23536,20.7246,199.667,0.0983873,0.0,0.0
11594,2898.25,87.3638,94.1879,145.861,100.026,99.347,0.00173018,0.237637,20.7219,199.016,0.0534773,0.0,0.0
11625,2906,88.0465,94.5713,147.439,99.9981,99.1092,0.00176256,0.241585,20.718,198.526,0.0701047,0.0,0.0
11656,2913.75,87.9238,94.2126,141.761,99.9776,98.8124,0.00168161,0.241986,20.7161,197.876,0.092042,0.0,0.0
11687,2921.5,88.1467,94.388,146.377,99.9516,98.5286,0.00172522,0.243286,20.712,197.335,0.112583,0.0,0.0
11718,2929.25,88.1687,94.4041,148.405,100.074,99.0691,0.00178165,0.245748,20.7136,196.665,0.0792739,0.0,0.0
11749,2937,88.0779,94.5132,149.549,100.121,98.8065,0.00154319,0.243783,20.7112,196.044,0.103727,0.0,0.0
11780,2944.75,87.6062,95.0257,144.253,100.246,98.7889,0.00174115,0.245416,20.7118,195.443,0.114944,0.0,0.0
11811,2952.5,88.3211,95.1273,152.536,100.314,98.9455,0.0019234,0.248554,20.7082,194.823,0.107871,0.0,0.0
11842,2960.25,88.304,95.1395,145.736,100.337,99.4636,0.00167254,0.248923,20.7075,194.252,0.0686491,0.0,0.0
11873,2968,88.9178,95.237,141.746,100.272,98.5439,0.00147714,0.2496,20.7068,193.512,0.136503,0.0,0.0
11904,2975.75,88.9497,96.0555,143.166,100.125,98.571,0.00186369,0.24995,20.7038,192.931,0.122804,0.0,0.0
11935,2983.5,89.0753,95.7803,139.358,99.9347,98.2825,0.0019072,0.251953,20.7001,192.311,0.13089,0.0,0.0
11966,2991.25,88.8038,95.6267,150.563,99.7409,98.8348,0.0020408,0.249917,20.705,191.75,0.0716565,0.0,0.0
11997,2999,89.0322,95.9926,144.687,99.6448,98.5686,0.00175421,0.250859,20.7042,191.08,0.085261,0.0,0.0
12028,3006.75,89.3299,95.9375,143.3,99.772,98.2884,0.00175158,0.250944,20.7025,190.499,0.117632,0.0,0.0
12059,3014.5,89.1747,95.4804,142.063,99.9421,98.2319,0.00185137,0.250215,20.7018,189.829,0.135525,0.0,0.0
12090,3022.25,89.3533,95.8451,144.954,100.038,98.3473,0.00203313,0.250288,20.7039,189.198,0.13382,0.0,0.0
12121,3030,89.2825,95.6894,143.981,100.094,97.6619,0.00178179,0.25185,20.6982,188.558,0.193114,0.0,0.0
12152,3037.75,89.0821,95.3572,148.916,100.098,98.246,0.001791,0.250116,20.7007,187.937,0.146605,0.0,0.0
12183,3045.5,89.2861,95.3878,144.754,100.05,98.6334,0.00156006,0.24769,20.7024,187.337,0.111935,0.0,0.0
12214,3053.25,89.2846,95.285,144.455,99.9862,98.4415,0.00174222,0.248366,20.7037,186.746,0.122252,0.0,0.0
12245,3061,88.9564,95.3433,148.953,99.915,98.4721,0.00172898,0.248995,20.7072,186.156,0.114211,0.0,0.0
12276,3068.75,88.6721,95.0037,143.063,99.8346,97.835,0.00161825,0.246277,20.7074,185.455,0.158859,0.0,0.0
12307,3076.5,88.71,94.7304,145.097,99.7153,97.8786,0.00172533,0.245599,20.7095,184.915,0.145974,0.0,0.0
12338,3084.25,88.6971,95.0522,139.238,99.6322,96.8706,0.00142523,0.242578,20.7075,184.324,0.22071,0.0,0.0
12369,3092,88.8228,94.8562,145.913,99.7575,98.0717,0.00145565,0.242253,20.7097,183.764,0.133814,0.0,0.0
12400,3099.75,88.717,94.714,145.146,99.9039,97.5218,0.00165677,0.242696,20.7097,183.173,0.189486,0.0,0.0
12431,3107.5,88.8152,94.8957,145.52,99.9977,98.0199,0.00169204,0.24066,20.7125,182.523,0.156846,0.0,0.0
12462,3115.25,88.5755,94.3805,146.25,100.194,97.8232,0.00133619,0.241329,20.7142,181.982,0.187997,0.0,0.0
12493,3123,88.4453,95.0666,145.865,100.3,98.1506,0.00154466,0.238445,20.7144,181.412,0.170061,0.0,0.0
12524,3130.75,88.7934,94.7052,141.985,100.359,98.2931,0.00162071,0.241302,20.7116,180.781,0.163292,0.0,0.0
12555,3138.5,88.5904,94.9678,146.269,100.342,97.9245,0.00164562,0.239837,20.7107,180.191,0.191466,0.0,0.0
12586,3146.25,88.41,94.5704,147.151,100.272,97.8821,0.00221642,0.240383,20.7104,179.58,0.18941,0.0,0.0
12617,3154,88.2335,94.155,149.233,100.12,98.1353,0.00171125,0.238599,20.7115,179.02,0.157217,0.0,0.0
12648,3161.75,88.2707,94.0909,142.747,99.9583,98.0811,0.00183234,0.239021,20.7113,178.469,0.14885,0.0,0.0
12679,3169.5,88.7569,94.2167,144.604,100.057,97.3216,0.0016736,0.237059,20.7128,177.889,0.217619,0.0,0.0
12710,3177.25,88.2712,94.2088,144.45,100.191,98.4956,0.00183495,0.236024,20.7133,177.348,0.134026,0.0,0.0
12741,3185,88.4517,94.3096,146.347,100.338,98.0882,0.00173342,0.236177,20.7114,176.818,0.178075,0.0,0.0
12772,3192.75,88.1036,94.0459,150.053,100.478,97.7231,0.00148317,0.233152,20.7146,176.247,0.218313,0.0,0.0
12803,3200.5,88.1841,94.0661,147.077,100.596,98.246,0.00177947,0.229208,20.7188,175.757,0.18558,0.0,0.0
12834,3208.25,88.0971,93.5785,145.188,100.709,98.6888,0.0017127,0.229163,20.7175,175.227,0.159121,0.0,0.0
12865,3216,87.7223,93.3996,145.635,100.752,98.1353,0.00174955,0.225267,20.7206,174.696,0.206623,0.0,0.0
12896,3223.75,87.5349,93.0775,142.653,100.803,98.4827,0.00150303,0.222313,20.7292,174.196,0.182867,0.0,0.0
12927,3231.5,87.4165,93.3425,152.194,100.87,98.6346,0.00161348,0.221714,20.7283,173.755,0.175978,0.0,0.0
12958,3239.25,87.0799,92.2915,150.322,100.893,98.6087,0.00171315,0.216015,20.7284,173.325,0.179818,0.0,0.0
12989,3247,86.8554,92.2437,143.062,100.896,98.2519,0.00180711,0.209277,20.7384,172.865,0.208495,0.0,0.0
13020,3254.75,86.4207,91.2723,149.431,100.843,98.5274,0.00160119,0.204965,20.7434,172.474,0.182428,0.0,0.0
13051,3262.5,85.8535,91.119,149.653,100.708,99.3529,0.00162856,0.198063,20.7487,172.094,0.106395,0.0,0.0
13082,3270.25,85.6154,90.1306,145.771,100.537,100.071,0.00170952,0.188806,20.7533,171.774,0.0364345,0.0,0.0
13113,3278,84.8997,89.6615,147.606,100.345,99.2081,0.00171772,0.173923,20.7697,171.473,0.0894939,0.0,0.0
13144,3285.75,84.3971,87.928,151.03,100.12,99.1245,0.00168263,0.157506,20.788,171.263,0.0784399,0.0,0.0
13175,3293.5,83.5309,86.763,151.861,99.8587,99.373,0.00144277,0.144112,20.8085,171.073,0.0382827,0.0,0.0
13206,3301.25,82.95,86.3905,146.334,99.6267,99.1374,0.00168823,0.135883,20.8182,170.883,0.0386562,0.0,0.0
13237,3309,82.0328,85.7457,150.54,99.455,99.141,0.00187799,0.132149,20.824,170.733,0.0248344,0.0,0.0
13268,3316.75,81.4639,84.8127,149.563,99.3267,98.969,0.00206802,0.127952,20.8286,170.563,0.0283213,0.0,0.0
13299,3324.5,81.4854,83.9902,153.455,99.2617,99.1798,0.00239447,0.126087,20.8326,170.403,0.006479,0.0,0.0
13330,3332.25,80.9273,83.7807,150.377,99.2739,98.8642,0.00243519,0.123967,20.8352,170.302,0.0324694,0.0,0.0
13361,3340,80.5826,83.3451,148.979,99.3668,98.9372,0.00246918,0.120988,20.838,170.212,0.0340184,0.0,0.0
13392,3347.75,79.9894,83.2866,150.48,99.5137,99.035,0.00244997,0.119501,20.8425,170.062,0.0378636,0.0,0.0
13423,3355.5,79.4734,83.3154,153.906,99.6748,98.9219,0.0027516,0.119354,20.8427,169.962,0.0595269,0.0,0.0
13454,3363.25,79.4131,82.9813,152.357,99.8819,99.1975,0.00263617,0.118022,20.8438,169.822,0.0539849,0.0,0.0
13485,3371,79.2738,82.6211,150.498,100.081,99.8251,0.00274357,0.115089,20.8484,169.732,0.0201091,0.0,0.0
13516,3378.75,78.722,82.2295,154.038,100.237,99.9759,0.00256416,0.113925,20.8504,169.642,0.0205161,0.0,0.0
13547,3386.5,78.7683,82.3864,156.796,100.347,99.6886,0.00283588,0.112432,20.8507,169.452,0.0516541,0.0,0.0
13578,3394.25,78.5229,82.1033,151.791,100.423,99.957,0.00288938,0.113061,20.8522,169.282,0.0365407,0.0,0.0
13609,3402,78.3922,81.9507,152.315,100.456,100.188,0.00289643,0.112997,20.8509,169.212,0.0210174,0.0,0.0
13640,3409.75,78.5138,82.3981,150.604,100.446,99.8829,0.00313432,0.113398,20.8505,169.131,0.044156,0.0,0.0
13671,3417.5,78.5174,81.8278,154.823,100.443,100.47,0.00324613,0.113687,20.8504,168.931,-0.0021156,0.0,0.0
13702,3425.25,78.2035,81.308,148.928,100.437,100.399,0.00338414,0.112376,20.8524,168.831,0.00297679,0.0,0.0
13733,3433,78.4022,81.6112,156.888,100.406,100.186,0.00333245,0.110917,20.8546,168.701,0.0172611,0.0,0.0
13764,3440.75,77.7169,81.218,151.896,100.36,100.478,0.00328251,0.111237,20.8561,168.601,-0.00922671,0.0,0.0
13795,3448.5,78.1264,81.6487,153.817,100.316,100.234,0.00309281,0.111387,20.8551,168.511,0.00645562,0.0,0.0
13826,3456.25,78.1528,81.5882,148.389,100.291,100.078,0.00336192,0.112186,20.857,168.481,0.016668,0.0,0.0
13857,3464,77.3065,81.3427,152.295,100.253,99.5037,0.00344873,0.110381,20.8586,168.291,0.058923,0.0,0.0
13888,3471.75,77.4584,81.4885,149.786,100.185,100.165,0.00367484,0.11162,20.8561,168.181,0.00150585,0.0,0.0
13919,3479.5,77.7559,81.2128,152.872,100.058,99.6014,0.00412198,0.109873,20.8553,168.051,0.0359342,0.0,0.0
13950,3487.25,77.3718,80.9181,153.906,99.8945,99.0338,0.0036602,0.108895,20.8586,168.001,0.067942,0.0,0.0
13981,3495,76.7957,80.8023,150.231,99.6787,98.9949,0.0036949,0.109722,20.8589,167.71,0.0540444,0.0,0.0
14012,3502.75,76.8657,80.1077,150.834,99.4357,98.9455,0.0038282,0.108214,20.8606,167.72,0.0388071,0.0,0.0
14043,3510.5,76.7166,80.7693,151.798,99.27,98.5663,0.00368293,0.110745,20.8599,167.71,0.055854,0.0,0.0
14074,3518.25,76.4162,79.956,147.035,99.2393,98.8583,0.00412415,0.110742,20.8577,167.55,0.0301947,0.0,0.0
14105,3526,76.0979,79.894,153.516,99.4251,99.1987,0.00393004,0.1085,20.8594,167.44,0.0179027,0.0,0.0
14136,3533.75,76.3878,79.8231,150.86,99.8075,99.4589,0.00391593,0.10875,20.8605,167.31,0.027467,0.0,0.0
14167,3541.5,76.0281,79.6559,148.511,100.195,99.9064,0.00402364,0.10751,20.8605,167.21,0.0226116,0.0,0.0
14198,3549.25,74.9933,79.0812,154.684,100.482,99.4283,0.00394068,0.105718,20.8616,167.09,0.0828006,0.0,0.0
14229,3557,75.575,79.3959,151.376,100.658,100.297,0.00386573,0.1065,20.8623,166.97,0.0281814,0.0,0.0
14260,3564.75,75.3004,79.0792,154.017,100.761,100.374,0.00396902,0.106703,20.8602,166.86,0.0302348,0.0,0.0
14291,3572.5,75.3788,78.8975,149.929,100.85,100.682,0.00434416,0.10623,20.8603,166.82,0.0130695,0.0,0.0
14322,3580.25,74.7579,77.9394,155.529,100.862,100.4,0.0038251,0.104361,20.8635,166.669,0.0360908,0.0,0.0
14353,3588,74.6166,78.1265,149.879,100.898,100.435,0.00379218,0.103405,20.8647,166.609,0.0360861,0.0,0.0
14384,3595.75,74.9287,78.447,150.988,100.901,100.542,0.0040454,0.104659,20.8634,166.519,0.0279893,0.0,0.0
14415,3603.5,74.5114,78.0529,156.183,100.893,100.688,0.00403304,0.104476,20.8624,166.469,0.0159199,0.0,0.0
14439,3609.5,74.8546,78.6037,153.464,100.877,99.8899,0.00389658,0.103516,20.8645,166.299,0.0772324,0.0,0.0