File: 01_Data/Engineered_Wood_Table/Cone/Engineered_Wood_Table_Cone_HF25Scan_230626_R5.csv
Names,Time,Stack TC,Smoke TC,Exh Press,Smoke Comp,Smoke Meas,CO Meter,CO2 Meter,O2 Meter,Sample Mass,Ext Coeff,Start Test,Flame Verif
Chan Gain,,500,500,1,1,1,1,1,1,1,1,1.0,1.0
Offset,,0,0,0.21304,0,0,0,0,0,0,0,0.0,0.0
Gain,,1,1,25.011,13.8152,15.2192,1,1,1,1.0009,1.0389,1.0,1.0
Units,sec,C,C,Pa,%,%,%,%,%,g,/m,,
Baseline,,45.3505,46.7614,160.204,100.139,99.662,0.000320955,0.0463979,20.9625,-445.788,0.0435329,,
8,1.75,44.368,44.3178,160.071,100.189,99.7495,0.000276164,0.0467187,20.9644,421.26,0.0400426,0.0,0.0
16,3.75,43.9255,45.4058,158.951,100.182,99.6236,0.000282863,0.0470034,20.9644,421.23,0.0509744,0.0,0.0
24,5.75,44.1219,44.9298,164.948,100.179,99.788,0.000243252,0.0479981,20.9644,421.2,0.0356784,0.0,0.0
32,7.75,44.3574,45.404,158.039,100.179,99.7337,0.000185907,0.0497276,20.9644,421.19,0.0406418,0.0,0.0
40,9.75,44.3572,46.0087,159.389,100.182,99.6816,2.96178e-05,0.0509612,20.9635,421.15,0.0456653,0.0,0.0
48,11.75,44.479,45.9176,160.286,100.184,99.6055,-6.93288e-05,0.0519745,20.9613,421.1,0.0528237,0.0,0.0
56,13.75,44.6455,45.9487,157.032,100.167,99.612,9.20311e-06,0.052733,20.9594,421.11,0.0506179,0.0,0.0
64,15.75,44.8568,46.026,157.763,100.172,99.6584,0.000194953,0.0535812,20.9582,421.1,0.0468294,0.0,0.0
72,17.75,44.8667,45.7502,160.316,100.178,99.5358,0.000407328,0.0543103,20.9577,421.16,0.0586242,0.0,0.0
80,19.75,44.8506,46.1429,160.876,100.164,99.6733,0.000547293,0.0548656,20.9571,421.14,0.0447421,0.0,0.0
88,21.75,45.0125,46.329,162.614,100.155,99.7416,0.000528276,0.0553146,20.9568,421.14,0.0376963,0.0,0.0
96,23.75,45.1317,46.3751,160.995,100.155,99.5158,0.00042918,0.055403,20.9567,421.12,0.0583435,0.0,0.0
104,25.75,44.8539,46.5048,161.483,100.143,99.7792,0.00040346,0.0549459,20.9567,421.12,0.0331848,0.0,0.0
112,27.75,45.0574,46.7597,157.828,100.134,99.638,0.000413895,0.0539822,20.9566,421.12,0.0452459,0.0,0.0
120,29.75,45.1372,46.2651,159.789,100.141,99.4643,0.000449382,0.0527128,20.9573,421.09,0.0617615,0.0,0.0
128,31.75,44.7417,46.0114,159.969,100.142,99.3556,0.000568914,0.0512659,20.9594,421.06,0.0718783,0.0,0.0
136,33.75,44.828,46.6492,160.729,100.145,99.4898,0.00063321,0.0497945,20.9605,421.06,0.0598039,0.0,0.0
144,35.75,44.8901,46.2964,158.45,100.109,99.2845,0.000521484,0.0485328,20.961,421.05,0.0753278,0.0,0.0
152,37.75,44.7307,46.6081,159.112,100.101,99.0291,0.000320723,0.0474333,20.963,421.04,0.098115,0.0,0.0
160,39.75,44.5734,46.5073,160.559,100.106,99.4294,0.000227513,0.0467625,20.9643,421,0.0618446,0.0,0.0
168,41.75,44.1625,46.562,163.514,100.094,99.2065,0.000223202,0.0462053,20.9664,420.98,0.0811495,0.0,0.0
176,43.75,44.8271,46.9976,158.233,100.087,99.1954,0.000342493,0.0458428,20.9675,420.96,0.081521,0.0,0.0
184,45.75,45.1409,46.6259,162.317,100.088,99.1898,0.000435146,0.045679,20.9674,420.92,0.0821487,0.0,0.0
192,47.75,45.4486,46.9849,160.572,100.064,99.1201,0.000517595,0.0456871,20.9672,420.91,0.0863627,0.0,0.0
200,49.75,45.5738,46.3991,155.359,100.045,99.2427,0.000653607,0.0456515,20.9658,420.89,0.07333,0.0,0.0
208,51.75,44.695,46.2945,157.822,100.052,99.076,0.000803476,0.0456931,20.9652,420.86,0.0893463,0.0,0.0
216,53.75,45.3009,47.0181,158.138,100.018,99.0161,0.000840839,0.0458832,20.9635,420.91,0.0917095,0.0,0.0
224,55.75,45.0698,47.0682,156.705,100.012,98.8071,0.000734212,0.0461676,20.9629,420.89,0.110428,0.0,0.0
232,57.75,45.16,46.9746,158.114,99.9884,99.2599,0.000612493,0.0461576,20.9626,420.9,0.0666439,0.0,0.0
240,59.75,45.4118,46.6535,157.507,99.9699,98.5683,0.000562852,0.0461405,20.9606,420.88,0.128668,0.0,0.0
248,61.75,44.8504,46.6609,161.293,99.9513,99.1624,0.000570749,0.0463743,20.9597,420.88,0.0722211,0.0,0.0
256,63.75,45.2736,46.8056,160.877,99.9244,98.6942,0.000577413,0.0464872,20.9594,420.86,0.112887,0.0,0.0
264,65.75,44.955,46.4964,162.207,99.9067,98.4926,0.000479614,0.046627,20.9631,420.84,0.129904,0.0,0.0
272,67.75,45.3776,46.8851,164.323,99.8919,98.716,0.000405542,0.0467365,20.9642,420.84,0.10791,0.0,0.0
280,69.75,45.2021,46.9999,156.882,99.886,98.8331,0.000432587,0.0468484,20.9646,420.84,0.0965727,0.0,0.0
288,71.75,45.736,47.032,159.892,99.8721,98.8075,0.000490725,0.0470765,20.9648,420.82,0.0976604,0.0,0.0
296,73.75,45.3461,46.9903,161.695,99.8472,98.5005,0.000460522,0.0473635,20.9649,420.75,0.123749,0.0,0.0
304,75.75,45.0756,46.5865,160.405,99.8354,98.7105,0.000324071,0.0475773,20.9649,420.71,0.10327,0.0,0.0
312,77.75,44.8815,46.6327,157,99.8489,98.6854,0.000136323,0.0476894,20.9638,420.69,0.106816,0.0,0.0
320,79.75,45.036,46.6107,160.482,99.8527,98.5307,0.000139336,0.0477517,20.9634,420.63,0.121456,0.0,0.0
328,81.75,45.0931,46.9259,159.802,99.8434,98.5098,0.000293359,0.0479378,20.9643,420.64,0.122543,0.0,0.0
336,83.75,45.1626,46.7266,156.07,99.832,98.1856,0.000534086,0.0482731,20.964,420.63,0.151545,0.0,0.0
344,85.75,45.4972,47.0501,159.939,99.8451,98.2985,0.000656996,0.0484919,20.9632,420.62,0.142269,0.0,0.0
352,87.75,45.2639,46.9068,159.296,99.8421,98.5437,0.000621911,0.0487934,20.9633,420.6,0.119292,0.0,0.0
360,89.75,45.4603,47.074,163.695,99.832,98.1215,0.000551107,0.0491567,20.9634,420.58,0.157496,0.0,0.0
368,91.75,44.7528,47.5384,161.755,99.8472,98.0324,0.000598516,0.0497354,20.9635,420.52,0.167167,0.0,0.0
376,93.75,45.401,47.1059,159.774,99.8472,97.9418,0.000694666,0.050289,20.9636,420.48,0.17559,0.0,0.0
384,95.75,45.4984,47.0498,163.295,99.84,98.3143,0.00079133,0.0508436,20.9636,420.45,0.140343,0.0,0.0
392,97.75,45.3917,47.895,157.389,99.8295,97.612,0.000919621,0.0514592,20.9629,420.43,0.204709,0.0,0.0
400,99.75,45.8102,47.3521,160.758,99.8042,97.6529,0.00100695,0.0522087,20.962,420.37,0.198585,0.0,0.0
408,101.75,45.9944,47.0593,156.5,99.8084,97.2953,0.00116116,0.0529058,20.9616,420.32,0.232405,0.0,0.0
416,103.75,45.2778,47.2912,158.197,99.7852,98.1578,0.00142669,0.0536566,20.9614,420.3,0.14986,0.0,0.0
424,105.75,45.6107,47.6492,158.774,99.7713,96.9799,0.00167115,0.0545087,20.9613,420.26,0.258604,0.0,0.0
432,107.75,45.914,47.8034,158.986,99.765,97.0106,0.00191137,0.055748,20.9604,420.199,0.255147,0.0,0.0
440,109.75,45.5325,47.4421,157,99.7578,96.8127,0.00201375,0.056363,20.9596,420.149,0.273097,0.0,0.0
448,111.75,45.5029,47.0422,162.076,99.7591,96.8838,0.00186227,0.0572942,20.9619,420.069,0.266526,0.0,0.0
456,113.75,45.8285,46.9042,159.844,99.7515,96.8308,0.00175661,0.0590007,20.9622,419.969,0.270815,0.0,0.0
464,115.75,46.289,46.8207,162.748,99.7574,96.4676,0.0019083,0.0600855,20.9602,419.869,0.305601,0.0,0.0
472,117.75,46.7671,49.0326,148.296,99.7494,97.946,0.00213646,0.0606608,20.9592,419.719,0.166269,0.0,1.0
480,119.75,47.0547,51.2973,143.121,99.7633,97.6055,0.00229241,0.060952,20.9588,419.459,0.199272,0.0,1.0
488,121.75,48.6665,54.7242,142.42,99.7827,98.3482,0.0022919,0.0612637,20.9578,419.118,0.131965,0.0,0.0
496,123.75,50.181,58.4483,140.301,99.7903,98.6863,0.00231374,0.0631422,20.9573,418.738,0.101381,0.0,0.0
504,125.75,52.2085,61.4268,144.036,99.7962,98.5312,0.00267727,0.0844102,20.9468,418.418,0.116256,0.0,0.0
512,127.75,53.4757,63.5775,147.314,99.7987,98.1183,0.00352483,0.140748,20.9135,418.078,0.154757,0.0,0.0
520,129.75,54.6957,65.7742,143.416,99.8042,98.475,0.00449505,0.237367,20.8484,417.777,0.122188,0.0,0.0
528,131.75,55.6684,66.7907,142.64,99.819,97.7407,0.00498464,0.324927,20.7536,417.447,0.191743,0.0,0.0
536,133.75,57.2746,68.0838,141.551,99.8287,98.1513,0.00494826,0.40282,20.6767,417.147,0.154428,0.0,0.0
544,135.75,57.8013,68.3587,146.378,99.8421,97.9845,0.00470738,0.444235,20.605,416.886,0.171153,0.0,0.0
552,137.75,58.343,70.0867,141.424,99.8472,98.063,0.00444495,0.456134,20.5394,416.556,0.164318,0.0,0.0
560,139.75,59.1372,70.1426,142.342,99.8371,97.6404,0.00409345,0.451109,20.5,416.296,0.202757,0.0,0.0
568,141.75,59.733,70.7103,146.691,99.8738,97.9622,0.00388749,0.441929,20.4849,415.996,0.176114,0.0,0.0
576,143.75,60.2359,70.6022,144.687,99.8704,97.8034,0.00378176,0.431368,20.4768,415.715,0.190594,0.0,0.0
584,145.75,60.6857,70.9041,144.502,99.8746,97.7379,0.00381705,0.420652,20.4747,415.425,0.197083,0.0,0.0
592,147.75,61.5141,71.5987,143.741,99.8826,98.3533,0.00385032,0.412262,20.4782,415.115,0.140613,0.0,0.0
600,149.75,61.8307,71.7257,148.008,99.8666,97.6687,0.00375431,0.405843,20.4843,414.815,0.202807,0.0,0.0
608,151.75,61.9839,72.2928,148.358,99.9007,98.0635,0.00359369,0.399368,20.4883,414.564,0.169161,0.0,0.0
616,153.75,62.6842,72.7588,145.647,99.8898,98.3431,0.00357927,0.39384,20.4907,414.334,0.142214,0.0,0.0
624,155.75,63.4233,72.6222,147.341,99.9058,98.2168,0.00365477,0.386771,20.4942,414.074,0.15539,0.0,0.0
632,157.75,63.0467,72.7577,146.81,99.9265,98.1796,0.00372049,0.379294,20.5318,413.824,0.160721,0.0,0.0
640,159.75,63.5455,73.2064,142.782,99.9239,98.7653,0.00375375,0.37244,20.5544,413.583,0.106289,0.0,0.0
648,161.75,63.7723,72.3888,145.072,99.9492,98.0858,0.00386125,0.366602,20.5681,413.303,0.171511,0.0,0.0
656,163.75,64.1404,73.1618,148.078,99.9615,98.3733,0.0039226,0.361365,20.5776,412.973,0.145954,0.0,0.0
664,165.75,64.8424,73.1916,145.318,99.9783,98.2507,0.00391029,0.35832,20.5835,412.753,0.158857,0.0,0.0
672,167.75,64.9286,73.3306,140.914,99.9889,98.4731,0.00392176,0.356363,20.588,412.492,0.139205,0.0,0.0
680,169.75,64.3925,73.2136,148.013,100.006,98.8856,0.00393182,0.353267,20.5902,412.232,0.102691,0.0,0.0
688,171.75,65.159,73.4184,144.59,100.007,99.1303,0.00388102,0.3499,20.5912,411.982,0.0801998,0.0,0.0
696,173.75,65.5357,73.5198,145.237,99.9943,99.3848,0.00379331,0.34793,20.5925,411.732,0.0557179,0.0,0.0
704,175.75,65.3248,73.5326,150.315,100.02,98.9873,0.00363897,0.3461,20.5937,411.532,0.0945903,0.0,0.0
712,177.75,65.2338,73.8102,149.134,100.004,99.1684,0.00342269,0.344312,20.5949,411.311,0.0764311,0.0,0.0
720,179.75,65.5883,73.5262,148.006,99.9965,98.9269,0.00327696,0.341534,20.5991,411.021,0.097999,0.0,0.0
728,181.75,65.8355,73.2276,148.216,99.9969,99.2441,0.00322559,0.33756,20.6063,410.761,0.068862,0.0,0.0
736,183.75,65.4439,73.0773,146.176,99.9775,99.3328,0.00323976,0.334046,20.6119,410.541,0.0589523,0.0,0.0
744,185.75,65.4567,72.9905,146.554,99.9931,99.1429,0.00322833,0.329326,20.617,410.331,0.0778185,0.0,0.0
752,187.75,66.251,72.5194,148.895,99.9901,99.2896,0.00313904,0.324203,20.6214,410.15,0.0640682,0.0,0.0
760,189.75,65.7636,72.4587,148.888,99.9804,99.1001,0.00299297,0.318909,20.628,409.89,0.0805939,0.0,0.0
768,191.75,65.4684,72.4355,147.337,99.9998,99.1159,0.0028647,0.314632,20.6333,409.7,0.0809094,0.0,0.0
776,193.75,65.3119,72.5602,147.363,100.006,99.3115,0.00282752,0.310212,20.6384,409.5,0.0635255,0.0,0.0
784,195.75,65.86,72.1496,147.016,99.9855,99.3222,0.0028974,0.305408,20.6442,409.31,0.0606619,0.0,0.0
792,197.75,65.7707,72.4451,147.137,99.9846,99.2999,0.00298807,0.3,20.651,409.099,0.0626311,0.0,0.0
800,199.75,65.5245,72.3295,146.531,99.9779,99.4225,0.00292701,0.296115,20.6571,408.899,0.0507702,0.0,0.0
808,201.75,65.5681,71.8177,145.935,99.9838,99.2506,0.00280984,0.293709,20.6629,408.709,0.0670731,0.0,0.0
816,203.75,66.1945,71.5295,147.385,100.003,99.4383,0.0027173,0.290598,20.6621,408.529,0.0515902,0.0,0.0
824,205.75,65.3611,71.0521,148.759,100.004,99.5507,0.00264613,0.286089,20.6634,408.319,0.0413718,0.0,0.0
832,207.75,65.3689,71.4978,150.593,100.028,99.3835,0.0025573,0.281625,20.6686,408.038,0.0589188,0.0,0.0
840,209.75,65.4672,71.058,144.939,100.026,99.4643,0.00244227,0.27738,20.6763,407.888,0.0513579,0.0,0.0
848,211.75,66.0241,70.6408,147.833,100.042,99.5906,0.00230792,0.273712,20.6818,407.718,0.0411728,0.0,0.0
856,213.75,65.4118,70.2153,150.46,100.052,99.455,0.00223416,0.270439,20.6868,407.538,0.0545128,0.0,0.0
864,215.75,65.184,70.5563,150.046,100.051,99.566,0.0021861,0.266892,20.6912,407.418,0.0443086,0.0,0.0
872,217.75,64.9515,70.0675,150.932,100.063,99.4912,0.00213375,0.263235,20.696,407.238,0.0522696,0.0,0.0
880,219.75,64.9362,69.8649,150.784,100.066,99.6909,0.00210166,0.259235,20.7019,407.028,0.0342249,0.0,0.0
888,221.75,64.8533,69.305,151.103,100.08,99.5767,0.00208082,0.25567,20.7071,406.857,0.0459031,0.0,0.0
896,223.75,64.8664,69.162,150.287,100.091,99.6343,0.00206892,0.252665,20.7136,406.697,0.0417092,0.0,0.0
904,225.75,65.2189,69.983,151.185,100.114,99.5771,0.00205365,0.249302,20.7145,406.517,0.0490091,0.0,0.0
912,227.75,64.5301,69.3819,148.329,100.112,99.5423,0.00204243,0.245169,20.7129,406.467,0.052005,0.0,0.0
920,229.75,64.1341,69.1705,151.123,100.147,99.4731,0.0020601,0.241918,20.7171,406.327,0.0614895,0.0,0.0
928,231.75,63.9496,69.329,148.522,100.159,99.5846,0.00212376,0.238822,20.7227,406.137,0.0524349,0.0,0.0
936,233.75,64.3187,68.832,149.345,100.171,99.6148,0.00221282,0.236303,20.7283,406.017,0.0507465,0.0,0.0
944,235.75,64.1975,68.9911,146.935,100.169,99.9348,0.00225742,0.233646,20.7326,405.836,0.0213635,0.0,0.0
952,237.75,64.5205,67.4846,152.599,100.188,99.6245,0.00220918,0.231372,20.7365,405.656,0.051426,0.0,0.0
960,239.75,64.1397,68.2354,150.216,100.183,99.7388,0.00224649,0.228704,20.7412,405.536,0.0405196,0.0,0.0
968,241.75,63.8368,68.1496,149.631,100.207,100.114,0.00234507,0.225978,20.7456,405.386,0.00852406,0.0,0.0
976,243.75,63.6331,67.5505,154.027,100.239,99.814,0.00233458,0.223949,20.7504,405.246,0.0387478,0.0,0.0
984,245.75,63.423,67.7284,149.84,100.24,99.6891,0.00221952,0.222564,20.7541,405.066,0.0502376,0.0,0.0
992,247.75,63.224,66.9685,152.174,100.257,99.8428,0.00204443,0.221086,20.7561,404.896,0.0377288,0.0,0.0
1000,249.75,63.1777,66.6629,149.13,100.284,99.8019,0.00180876,0.219569,20.7508,404.725,0.043874,0.0,0.0
1008,251.75,63.3243,66.7524,152.547,100.278,99.5785,0.00156273,0.217663,20.7493,404.525,0.0637596,0.0,0.0
1016,253.75,63.1161,65.963,155.415,100.288,99.8702,0.00146894,0.215463,20.7497,404.255,0.0380631,0.0,0.0
1024,255.75,62.659,66.0742,155.543,100.322,99.9245,0.00157208,0.213276,20.7526,404.135,0.0361328,0.0,0.0
1032,257.75,63.2219,65.9733,152.451,100.337,99.742,0.0017286,0.211282,20.7556,404.025,0.0542105,0.0,0.0
1040,259.75,62.6785,65.7938,149.278,100.366,99.7002,0.00167926,0.208781,20.7609,403.995,0.0606349,0.0,0.0
1048,261.75,62.3499,65.5273,147.192,100.383,100.045,0.00157049,0.205371,20.7647,403.905,0.0307533,0.0,0.0
1056,263.75,62.3359,65.3566,151.622,100.419,99.8447,0.00154232,0.20218,20.77,403.755,0.0522631,0.0,0.0
1064,265.75,61.9525,65.9458,151.759,100.441,99.9724,0.00160431,0.200563,20.7768,403.564,0.0426403,0.0,0.0
1072,267.75,61.7147,64.9716,148.951,100.444,100.005,0.00167387,0.199427,20.781,403.384,0.039902,0.0,0.0
1080,269.75,61.8021,64.7258,154.941,100.47,99.8442,0.00178515,0.1984,20.7837,403.294,0.0569337,0.0,0.0
1088,271.75,61.5877,65.4868,149.597,100.498,99.8396,0.00188912,0.197175,20.7835,403.174,0.0599194,0.0,0.0
1096,273.75,61.6311,65.2823,154.561,100.527,99.9877,0.00194835,0.195462,20.7804,403.024,0.0490059,0.0,0.0
1104,275.75,61.7527,64.4375,150.177,100.548,100.124,0.00203676,0.193609,20.7801,402.954,0.0384796,0.0,0.0
1112,277.75,61.9912,64.526,150.649,100.568,99.9756,0.00209227,0.192083,20.7826,402.874,0.053813,0.0,0.0
1120,279.75,61.7214,65.0275,151.276,100.585,100.008,0.00200832,0.190505,20.787,402.744,0.0523776,0.0,0.0
1128,281.75,61.3373,64.4893,147.087,100.603,100.056,0.00197163,0.189029,20.7895,402.634,0.0497417,0.0,0.0
1136,283.75,61.1821,64.3121,151.482,100.632,100.015,0.00209132,0.188296,20.793,402.503,0.056058,0.0,0.0
1144,285.75,61.3527,64.6525,155.169,100.631,99.9947,0.00225036,0.188657,20.7948,402.383,0.0578059,0.0,0.0
1152,287.75,61.0283,63.972,155.488,100.665,99.8772,0.00232699,0.188309,20.7966,402.243,0.0716132,0.0,0.0
1160,289.75,61.0085,64.3123,151.587,100.661,99.9752,0.0023266,0.187358,20.7977,402.093,0.0622934,0.0,0.0
1168,291.75,61.2344,63.7247,152.361,100.667,100.101,0.00233343,0.185452,20.7997,401.973,0.0514001,0.0,0.0
1176,293.75,60.983,64.3108,156.352,100.669,99.9036,0.0023511,0.183346,20.8021,401.893,0.0695413,0.0,0.0
1184,295.75,60.6692,63.7589,152.396,100.702,100.057,0.00231781,0.181094,20.7976,401.733,0.0585054,0.0,0.0
1192,297.75,60.8207,64.161,151.976,100.69,100.127,0.0022717,0.179203,20.7972,401.643,0.0510554,0.0,0.0
1200,299.75,60.3649,63.6468,151.333,100.693,99.9696,0.00224361,0.177547,20.7993,401.533,0.0657023,0.0,0.0
1208,301.75,60.3053,62.8351,154.942,100.698,100.063,0.00222045,0.176008,20.8029,401.412,0.0576926,0.0,0.0
1216,303.75,60.4339,63.3253,151.404,100.686,100.181,0.00223266,0.173923,20.8054,401.322,0.0458101,0.0,0.0
1224,305.75,60.1428,62.6506,149.707,100.689,99.997,0.00227378,0.172357,20.809,401.222,0.062862,0.0,0.0
1232,307.75,61.0463,62.9478,154.433,100.685,99.9185,0.00225558,0.171644,20.8117,401.142,0.0695984,0.0,0.0
1240,309.75,59.9584,63.2729,152.87,100.668,100.202,0.00227724,0.170263,20.813,401.012,0.0423018,0.0,0.0
1248,311.75,60.1237,62.9607,154.463,100.649,99.9431,0.002393,0.168256,20.8143,400.862,0.0641092,0.0,0.0
1256,313.75,59.5591,62.8854,154.856,100.639,99.9849,0.00249132,0.166913,20.8175,400.772,0.0594207,0.0,0.0
1264,315.75,59.8989,63.0192,153.084,100.626,99.9343,0.00247817,0.166248,20.8203,400.692,0.0628523,0.0,0.0
1272,317.75,59.5461,62.8304,155.196,100.607,99.8716,0.00234186,0.16586,20.8215,400.562,0.0668154,0.0,0.0
1280,319.75,59.5358,61.5853,159.739,100.569,99.9589,0.00223788,0.165379,20.818,400.452,0.0554901,0.0,0.0
1288,321.75,59.7544,61.6207,152.401,100.523,99.8275,0.00231425,0.164436,20.8175,400.311,0.0633152,0.0,0.0
1296,323.75,59.498,61.8186,151.799,100.486,99.8331,0.00240738,0.163636,20.8185,400.151,0.0594045,0.0,0.0
1304,325.75,58.8791,61.5276,151.196,100.432,99.6389,0.00243366,0.162557,20.8203,400.021,0.0722103,0.0,0.0
1312,327.75,58.9759,61.7665,151.23,100.385,99.6635,0.00239049,0.161239,20.8226,399.941,0.065711,0.0,0.0
1320,329.75,59.0269,61.1613,150.616,100.33,99.7541,0.00237067,0.160028,20.8241,399.831,0.0524943,0.0,0.0
1328,331.75,59.0263,61.6012,153.533,100.288,99.6552,0.00233693,0.159416,20.8256,399.781,0.0576688,0.0,0.0
1336,333.75,59.1117,61.5411,156.536,100.231,99.5079,0.00228261,0.159086,20.8267,399.691,0.0659688,0.0,0.0
1344,335.75,58.8484,61.5137,150.132,100.187,99.5233,0.00223586,0.15857,20.828,399.641,0.0605388,0.0,0.0
1352,337.75,58.8311,61.5428,151.132,100.148,99.4652,0.00220766,0.157994,20.8304,399.551,0.062328,0.0,0.0
1360,339.75,58.5524,61.3517,151.347,100.11,99.3096,0.00217016,0.15754,20.8315,399.451,0.0731425,0.0,0.0
1368,341.75,58.7711,61.2911,149.924,100.064,99.39,0.00216815,0.156989,20.8293,399.321,0.0616255,0.0,0.0
1376,343.75,59.1837,61.4421,150.102,100.067,99.2855,0.00227959,0.156172,20.8279,399.18,0.0714429,0.0,0.0
1384,345.75,58.9351,61.2435,152.367,100.087,99.3774,0.00252164,0.155617,20.8285,399.12,0.0648103,0.0,0.0
1392,347.75,58.6279,61.3416,155.445,100.073,99.2994,0.00274458,0.155204,20.829,398.97,0.07074,0.0,0.0
1400,349.75,58.2164,61.1454,153.829,100.048,99.4397,0.00284454,0.154903,20.8303,398.85,0.0555722,0.0,0.0
1408,351.75,58.7699,61.0547,153.127,100.003,99.2399,0.00279963,0.154789,20.8308,398.74,0.0697838,0.0,0.0
1416,353.75,58.6182,60.7489,150.931,99.964,99.2896,0.00266793,0.154248,20.8322,398.67,0.0616859,0.0,0.0
1424,355.75,58.2184,60.8327,150.721,99.9332,99.39,0.00253159,0.153526,20.833,398.51,0.0496758,0.0,0.0
1432,357.75,58.324,60.5588,155.581,99.8847,98.9283,0.00247424,0.152723,20.8345,398.43,0.087683,0.0,0.0
1440,359.75,58.1239,60.9078,156.131,99.8325,99.1275,0.00255875,0.152034,20.8354,398.35,0.0645752,0.0,0.0
1448,361.75,57.997,60.5713,156.693,99.8038,99.1503,0.00275732,0.151405,20.8358,398.24,0.0598654,0.0,0.0
1456,363.75,57.9284,61.0861,153.294,99.7667,99.0156,0.00283767,0.151126,20.8354,398.13,0.0688663,0.0,0.0
1464,365.75,57.8482,60.8713,152.526,99.7283,98.9854,0.00279464,0.150687,20.836,398.009,0.0681396,0.0,0.0
1472,367.75,57.9489,60.6509,154.205,99.7043,98.9534,0.00274185,0.150431,20.8369,397.939,0.0688944,0.0,0.0
1480,369.75,58.1984,60.558,156.067,99.6516,98.8633,0.00276359,0.150418,20.8379,397.859,0.0723773,0.0,0.0
1488,371.75,58.3042,60.7535,153.465,99.5968,98.893,0.00277809,0.150158,20.8384,397.799,0.0646248,0.0,0.0
1496,373.75,57.8048,60.5206,157.462,99.5592,98.756,0.00260496,0.149582,20.8381,397.659,0.0738258,0.0,0.0
1504,375.75,57.8004,60.6437,150.436,99.5015,98.7146,0.00246941,0.148771,20.838,397.579,0.0723526,0.0,0.0
1512,377.75,57.4578,59.78,152.049,99.4737,98.6603,0.00253566,0.148274,20.8386,397.479,0.0748214,0.0,0.0
1520,379.75,57.8535,60.4118,152.685,99.4281,98.7188,0.00267438,0.147962,20.8395,397.389,0.065245,0.0,0.0
1528,381.75,57.5031,60.4417,156.011,99.3834,98.619,0.00280933,0.147548,20.8402,397.289,0.0703714,0.0,0.0
1536,383.75,57.4904,60.2146,156.362,99.3337,98.6152,0.00290009,0.147177,20.8414,397.179,0.0661521,0.0,0.0
1544,385.75,57.4502,60.2044,153.748,99.2945,98.4727,0.00288023,0.146759,20.8426,397.089,0.0757405,0.0,0.0
1552,387.75,57.595,60.3083,153.705,99.2599,98.631,0.00271634,0.146236,20.8417,396.968,0.0579204,0.0,0.0
1560,389.75,57.9048,60.1151,154.809,99.332,98.6055,0.00266424,0.145621,20.8425,396.868,0.0668984,0.0,0.0
1568,391.75,57.4246,59.8129,155.959,99.4673,98.7773,0.00264959,0.145266,20.8429,396.778,0.0634371,0.0,0.0
1576,393.75,57.4032,59.685,152.004,99.4707,98.7026,0.00262848,0.144923,20.8431,396.718,0.0706473,0.0,0.0
1584,395.75,57.1462,59.5382,155.687,99.4222,98.7365,0.00260344,0.144282,20.8432,396.598,0.0630756,0.0,0.0
1592,397.75,57.4751,59.29,158.512,99.4033,98.6482,0.00260107,0.14379,20.8438,396.458,0.0694841,0.0,0.0
1600,399.75,57.1183,59.0089,154.039,99.3565,98.3984,0.00266383,0.143306,20.8448,396.318,0.088306,0.0,0.0
1608,401.75,57.3439,59.1936,152.997,99.3063,98.5405,0.00284975,0.142668,20.8453,396.178,0.0705503,0.0,0.0
1616,403.75,56.8998,59.1151,153.805,99.2839,98.6849,0.00306111,0.14253,20.8456,396.108,0.05515,0.0,0.0
1624,405.75,57.5776,59.1552,156.879,99.2489,98.429,0.00313133,0.142173,20.8465,396.008,0.0756004,0.0,0.0
1632,407.75,56.9091,59.2205,151.122,99.2237,98.3607,0.00309807,0.141447,20.8468,395.938,0.0796021,0.0,0.0
1640,409.75,56.8638,58.944,153.558,99.1912,98.566,0.00293313,0.140804,20.8464,395.847,0.0576192,0.0,0.0
1648,411.75,56.3289,58.9705,153.979,99.1866,98.252,0.00278349,0.140658,20.8466,395.747,0.0862691,0.0,0.0
1656,413.75,56.8808,58.9941,154.556,99.1528,98.5386,0.00280633,0.140986,20.847,395.727,0.056627,0.0,0.0
1664,415.75,56.7522,58.7171,152.273,99.1427,98.318,0.00296918,0.141034,20.8472,395.637,0.076124,0.0,0.0
1672,417.75,56.6671,59.2794,159.228,99.1199,98.3375,0.00301515,0.140337,20.8473,395.557,0.0722232,0.0,0.0
1680,419.75,57.0026,58.8138,152.541,99.1132,98.3347,0.00299957,0.139236,20.8473,395.477,0.07186,0.0,0.0
1688,421.75,56.8541,59.1581,153.604,99.0938,98.2688,0.00308466,0.13869,20.8481,395.447,0.0761919,0.0,0.0
1696,423.75,56.54,58.9438,154.131,99.1069,98.3305,0.0032402,0.139148,20.8492,395.337,0.071666,0.0,0.0
1704,425.75,57.0355,59.4172,155.058,99.0727,98.2646,0.00335499,0.139611,20.85,395.217,0.0746404,0.0,0.0
1712,427.75,56.6345,58.4088,154.986,99.0643,98.2223,0.00345427,0.139758,20.8503,395.107,0.0777851,0.0,0.0
1720,429.75,56.8274,58.2664,157.015,99.0546,98.201,0.00354676,0.139558,20.8505,395.027,0.0788762,0.0,0.0
1728,431.75,56.8744,59.2129,154.045,99.0483,98.2525,0.00355113,0.139013,20.8505,394.907,0.0735111,0.0,0.0
1736,433.75,56.4612,58.6775,150.671,99.0259,98.226,0.00343698,0.138839,20.85,394.797,0.0739109,0.0,0.0
1744,435.75,56.41,58.6745,153.42,99.0107,98.1582,0.00324419,0.138789,20.8494,394.726,0.0788073,0.0,0.0
1752,437.75,56.9397,58.6069,154.698,99.0044,98.2832,0.00308491,0.138297,20.8492,394.546,0.0666331,0.0,0.0
1760,439.75,56.4389,58.188,155.305,98.9947,98.0974,0.00304532,0.137514,20.8491,394.426,0.082983,0.0,0.0
1768,441.75,55.8001,58.3469,153.982,98.9926,98.2376,0.00310857,0.136906,20.85,394.316,0.0697677,0.0,0.0
1776,443.75,56.5295,57.9493,153.37,98.9859,98.1852,0.0032629,0.136763,20.8508,394.236,0.0740176,0.0,0.0
1784,445.75,55.7156,58.219,153.711,98.9947,98.2237,0.00331815,0.136604,20.8514,394.106,0.0712542,0.0,0.0
1792,447.75,56.4515,58.2787,155.878,98.9973,98.0858,0.00329765,0.136807,20.8509,394.136,0.0842941,0.0,0.0
1800,449.75,56.111,57.9418,154.545,99.0133,98.3245,0.0032964,0.13655,20.8507,394.126,0.0636162,0.0,0.0
1808,451.75,56.3256,57.9547,153.389,99.0082,98.1076,0.00337049,0.13621,20.8506,393.996,0.0832747,0.0,0.0
1816,453.75,56.2943,58.3442,154.847,99.0057,98.1044,0.00348765,0.136194,20.8506,393.936,0.0833447,0.0,0.0
1824,455.75,56.134,58.366,151.675,99.02,98.2042,0.00364404,0.136048,20.8505,393.816,0.0753936,0.0,0.0
1832,457.75,56.1024,58.4668,150.147,99.039,98.2177,0.00386252,0.135572,20.8517,393.756,0.0758892,0.0,0.0
1840,459.75,56.2718,58.7153,153.981,99.0377,98.2279,0.00394818,0.135208,20.8523,393.635,0.0748247,0.0,0.0
1848,461.75,56.0385,58.0048,156.037,99.0563,98.2474,0.00394839,0.135635,20.8525,393.575,0.0747212,0.0,0.0
1856,463.75,56.0036,58.4357,151.238,99.0727,98.3264,0.00385262,0.13596,20.8527,393.455,0.0689127,0.0,0.0
1864,465.75,55.7784,58.3222,152.605,99.0824,98.2553,0.00374209,0.136092,20.8527,393.385,0.0763934,0.0,0.0
1872,467.75,55.9018,57.999,156.919,99.1073,98.148,0.00365986,0.135663,20.8527,393.315,0.0886384,0.0,0.0
1880,469.75,56.5416,59.0686,155.736,99.128,98.3988,0.00357175,0.1352,20.8527,393.235,0.0672791,0.0,0.0
1888,471.75,56.3321,58.1189,149.33,99.1486,98.3064,0.00347257,0.134753,20.8527,393.145,0.077742,0.0,0.0
1896,473.75,56.2026,57.871,150.832,99.1621,98.4067,0.00344494,0.134385,20.8527,392.965,0.0696868,0.0,0.0
1904,475.75,55.6462,57.7936,154.691,99.1697,98.2678,0.0035447,0.134445,20.8527,392.875,0.0832543,0.0,0.0
1912,477.75,55.7117,58.143,154.291,99.1832,98.318,0.00370929,0.134108,20.8527,392.775,0.0798433,0.0,0.0
1920,479.75,55.574,58.0342,154.211,99.176,98.4253,0.00379737,0.13414,20.854,392.605,0.0692448,0.0,0.0
1928,481.75,56.2095,57.986,154.981,99.2173,98.3087,0.00382886,0.134168,20.855,392.574,0.083842,0.0,0.0
1936,483.75,55.4577,57.631,155.869,99.2304,98.3422,0.00386994,0.134103,20.8554,392.444,0.0819419,0.0,0.0
1944,485.75,55.8378,57.7909,153.034,99.2582,98.3942,0.00389835,0.133763,20.8556,392.284,0.0796786,0.0,0.0
1952,487.75,56.3821,57.9299,153.918,99.2688,98.3956,0.0039473,0.133031,20.8557,392.284,0.0805174,0.0,0.0
1960,489.75,55.6274,58.0199,152.335,99.2873,98.4183,0.00401529,0.133,20.8558,392.284,0.0801125,0.0,0.0
1968,491.75,55.786,57.8474,157.178,99.3088,98.4183,0.00405896,0.133281,20.8558,392.194,0.0820862,0.0,0.0
1976,493.75,56.1207,58.1544,156.778,99.3274,98.3779,0.00400632,0.133203,20.8558,392.084,0.0875302,0.0,0.0
1984,495.75,55.4761,57.3787,156.291,99.3438,98.3891,0.00387238,0.133003,20.8555,391.994,0.0880069,0.0,0.0
1992,497.75,55.9309,57.9891,155.75,99.3607,98.5734,0.00372571,0.132615,20.854,391.924,0.0724905,0.0,0.0
2000,499.75,55.7099,57.8031,151.196,99.3784,98.6111,0.00363138,0.132169,20.8532,391.844,0.0706366,0.0,0.0
2008,501.75,56.3631,57.7967,152.07,99.3957,98.5182,0.00363077,0.131667,20.8535,391.724,0.0808103,0.0,0.0
2016,503.75,55.7775,58.1425,153.954,99.413,98.5126,0.00372321,0.131072,20.8567,391.644,0.0829109,0.0,0.0
2024,505.75,56.0666,58.0854,150.575,99.4214,98.7253,0.00385985,0.130954,20.8588,391.544,0.0640272,0.0,0.0
2032,507.75,55.9537,57.8329,156.076,99.4543,98.4662,0.00402613,0.131089,20.8606,391.494,0.0909942,0.0,0.0
2040,509.75,55.5109,58.1531,153.897,99.4678,98.7787,0.00417411,0.130946,20.8614,391.383,0.0633475,0.0,0.0
2048,511.75,55.5294,58.1745,154.848,99.4766,98.6194,0.00425097,0.130801,20.8606,391.293,0.0788687,0.0,0.0
2056,513.75,55.1396,57.3948,152.343,99.4813,98.5855,0.00426102,0.130525,20.8603,391.133,0.0824264,0.0,0.0
2064,515.75,55.8293,57.4682,152.209,99.5019,98.8294,0.00426972,0.130119,20.8601,391.063,0.0618068,0.0,0.0
2072,517.75,55.2953,57.4149,152.916,99.515,98.632,0.004276,0.129684,20.8597,390.963,0.0812238,0.0,0.0
2080,519.75,55.5584,57.7827,155.324,99.5538,98.6989,0.00419474,0.129598,20.8594,390.873,0.0785973,0.0,0.0
2088,521.75,55.6063,57.5749,153.039,99.5816,98.8535,0.0040517,0.129745,20.8599,390.823,0.0668747,0.0,0.0
2096,523.75,55.3437,57.5519,153.28,99.5917,98.6357,0.00395577,0.129566,20.8608,390.753,0.0879036,0.0,0.0
2104,525.75,55.4804,57.6327,151.292,99.6166,98.7908,0.00391679,0.129694,20.8607,390.563,0.075859,0.0,0.0
2112,527.75,55.3601,57.3321,153.977,99.6377,98.8136,0.00388816,0.129942,20.8604,390.513,0.0756877,0.0,0.0
2120,529.75,55.2797,57.2609,151.126,99.6545,98.8224,0.00383907,0.129886,20.8605,390.403,0.0764171,0.0,0.0
2128,531.75,55.5551,57.1328,153.916,99.6786,98.7778,0.00381694,0.12938,20.8606,390.372,0.0827268,0.0,0.0
2136,533.75,55.3657,57.3016,156.158,99.7022,98.7476,0.0038565,0.128699,20.8607,390.312,0.0876712,0.0,0.0
2144,535.75,55.6151,56.9971,154.14,99.7355,98.8526,0.0039899,0.128027,20.8607,390.232,0.0810321,0.0,0.0
2152,537.75,55.4358,57.3431,156.636,99.7578,98.8642,0.00406845,0.127556,20.8607,390.112,0.0820033,0.0,0.0
2160,539.75,55.6035,57.0246,156.161,99.7827,98.9859,0.00407873,0.126786,20.8607,390.032,0.0730649,0.0,0.0
2168,541.75,54.9108,56.6489,151.313,99.832,98.8424,0.00408793,0.126569,20.8607,389.932,0.090792,0.0,0.0
2176,543.75,55.1763,56.7981,158.484,99.8354,98.9069,0.00410022,0.127276,20.8619,389.842,0.0851498,0.0,0.0
2184,545.75,55.056,56.7954,157.309,99.8489,99.0546,0.00402219,0.127908,20.8613,389.802,0.0727826,0.0,0.0
2192,547.75,54.9823,56.8647,154.047,99.8805,98.9218,0.00398683,0.127661,20.861,389.712,0.0878971,0.0,0.0
2200,549.75,54.8722,56.7849,152.079,99.9197,99.0059,0.00414909,0.126644,20.8621,389.502,0.0837322,0.0,0.0
2208,551.75,55.1157,56.8971,153.49,99.9379,98.9627,0.00431226,0.126099,20.8629,389.462,0.0893624,0.0,0.0
2216,553.75,54.393,57.0244,152.91,99.9703,99.095,0.0044518,0.126038,20.8632,389.362,0.0801416,0.0,0.0
2224,555.75,54.7944,57.1091,152.763,99.9796,99.1085,0.00447412,0.126171,20.8633,389.312,0.0797475,0.0,0.0
2232,557.75,55.0035,56.6557,155.802,100.009,99.2372,0.00447407,0.126093,20.8634,389.272,0.0706161,0.0,0.0
2240,559.75,54.9292,57.1277,151.229,100.021,99.0546,0.004587,0.126164,20.8639,389.181,0.0884695,0.0,0.0
2248,561.75,55.2231,56.6252,154.906,100.027,99.2116,0.00458297,0.126233,20.8641,389.091,0.0746145,0.0,0.0
2256,563.75,55.147,56.9314,153.242,100.051,99.3249,0.00442579,0.12575,20.8642,389.011,0.0663991,0.0,0.0
2264,565.75,54.5265,56.631,153.696,100.069,98.9882,0.00437743,0.125068,20.8643,388.891,0.0989984,0.0,0.0
2272,567.75,55.0063,56.967,156.897,100.104,99.1289,0.00457406,0.124644,20.8643,388.841,0.0892376,0.0,0.0
2280,569.75,55.0088,57.0778,156.716,100.1,99.1224,0.00490936,0.12433,20.8643,388.791,0.089413,0.0,0.0
2288,571.75,54.8528,56.6452,153.723,100.122,99.1243,0.00514291,0.124171,20.8648,388.691,0.091276,0.0,0.0
2296,573.75,54.652,57.0693,155.093,100.134,99.2265,0.00514327,0.123965,20.8656,388.621,0.0829615,0.0,0.0
2304,575.75,55.2531,56.6175,153.32,100.139,99.2316,0.00493136,0.123655,20.8659,388.571,0.0829905,0.0,0.0
2312,577.75,55.0953,57.6063,155.146,100.15,99.1252,0.00471784,0.123945,20.866,388.421,0.0937613,0.0,0.0
2320,579.75,54.7464,56.9378,151.232,100.164,98.9998,0.00456821,0.124559,20.8658,388.321,0.106564,0.0,0.0
2328,581.75,54.3896,56.511,153.317,100.172,99.0551,0.00452579,0.124858,20.8655,388.221,0.102168,0.0,0.0
2336,583.75,54.8023,56.1477,157.448,100.178,99.0583,0.00447808,0.124655,20.8654,388.191,0.102405,0.0,0.0
2344,585.75,54.5904,55.9014,154.211,100.183,99.043,0.00449159,0.123936,20.8643,388.03,0.104277,0.0,0.0
2352,587.75,54.3643,56.4406,153.402,100.19,99.3222,0.00461962,0.123055,20.8635,388,0.0792801,0.0,0.0
2360,589.75,54.1977,56.0967,154.892,100.201,99.2116,0.00492833,0.121807,20.8631,387.87,0.0903876,0.0,0.0
2368,591.75,54.8222,56.3859,153.68,100.212,99.2655,0.00526328,0.118917,20.863,387.84,0.0864746,0.0,0.0
2376,593.75,54.3893,56.7155,157.836,100.225,99.2822,0.00553618,0.11653,20.8636,387.78,0.0861281,0.0,0.0
2384,595.75,54.386,56.3282,151.369,100.23,99.1368,0.00577557,0.115208,20.8687,387.69,0.0999419,0.0,0.0
2392,597.75,54.3211,56.1115,155.199,100.246,99.1071,0.00586219,0.115539,20.8731,387.65,0.104132,0.0,0.0
2400,599.75,54.7299,55.8586,154.807,100.245,99.0435,0.00574314,0.116618,20.8755,387.52,0.109907,0.0,0.0
2408,601.75,54.2905,55.8173,158.251,100.262,98.9534,0.00538102,0.117506,20.875,387.46,0.119697,0.0,0.0
2416,603.75,53.9402,55.6137,156.181,100.277,99.0737,0.00506894,0.117393,20.8736,387.37,0.110042,0.0,0.0
2424,605.75,53.6956,55.5638,154.399,100.28,99.03,0.00498508,0.116297,20.8729,387.27,0.11429,0.0,0.0
2432,607.75,54.1927,55.474,155.147,100.261,98.8224,0.00506323,0.114641,20.8718,387.22,0.131729,0.0,0.0
2440,609.75,53.9324,55.315,157.961,100.273,98.7917,0.00526681,0.113078,20.8721,387.14,0.135629,0.0,0.0
2448,611.75,54.0008,55.0321,158.629,100.268,99.0816,0.00558336,0.111522,20.8728,387.029,0.108512,0.0,0.0
2456,613.75,53.0015,55.1539,156.25,100.267,99.0806,0.00594,0.110612,20.8731,386.919,0.108483,0.0,0.0
2464,615.75,53.7077,54.5041,158.053,100.26,98.9436,0.00629836,0.10928,20.8732,386.799,0.120404,0.0,0.0
2472,617.75,53.6199,54.751,158.675,100.233,98.939,0.00644037,0.1078,20.8744,386.719,0.118417,0.0,0.0
2480,619.75,53.2328,54.693,155.906,100.245,99.0142,0.00652746,0.105835,20.8812,386.649,0.112562,0.0,0.0
2488,621.75,53.0415,54.0979,156.089,100.227,98.9464,0.00661325,0.105062,20.8844,386.559,0.117233,0.0,0.0
2496,623.75,52.8875,54.7371,156.546,100.222,98.8763,0.00665435,0.105621,20.8859,386.479,0.123236,0.0,0.0
2504,625.75,52.4865,54.4258,154.463,100.185,99.0309,0.00665017,0.105809,20.8853,386.429,0.105579,0.0,0.0
2512,627.75,53.1629,54.2508,153.737,100.172,99.0175,0.00668236,0.10601,20.8849,386.359,0.105667,0.0,0.0
2520,629.75,53.2718,54.5073,158.552,100.148,97.8391,0.00675767,0.106361,20.8847,386.259,0.21258,0.0,0.0
2528,631.75,52.6609,54.2697,155.155,100.132,97.6483,0.00672001,0.10677,20.8846,386.009,0.228882,0.0,0.0
2536,633.75,52.3424,53.4869,155.729,100.125,97.7323,0.00655267,0.107138,20.883,386.009,0.220425,0.0,0.0
2544,635.75,52.2737,53.1708,154.944,100.068,97.7514,0.00638244,0.107334,20.8812,386.029,0.213468,0.0,0.0
2552,637.75,52.4514,53.1838,154.064,100.07,97.6083,0.00628277,0.105805,20.8796,385.989,0.227006,0.0,0.0
2560,639.75,51.9825,53.2437,157.242,100.041,97.7732,0.00638098,0.102561,20.8783,385.888,0.208938,0.0,0.0
2568,641.75,51.7129,53.1435,158.722,100.008,97.5298,0.0067999,0.0974747,20.8834,385.748,0.228691,0.0,0.0
2576,643.75,51.9157,52.6183,159.831,99.9965,97.9697,0.00749146,0.0932842,20.8912,385.718,0.18661,0.0,0.0
2584,645.75,51.4797,53.0102,155.023,99.9792,97.5266,0.00795927,0.090819,20.898,385.688,0.226344,0.0,0.0
2592,647.75,51.7572,52.4961,159.096,99.9488,98.1986,0.00824489,0.089531,20.9022,385.608,0.160993,0.0,0.0
2600,649.75,52.1674,52.5391,153.787,99.948,97.6738,0.0083979,0.0888519,20.9043,385.538,0.209753,0.0,0.0
2608,651.75,51.6298,52.7707,153.757,99.9252,97.8443,0.00854349,0.0882829,20.9063,385.448,0.191787,0.0,0.0
2616,653.75,51.8012,52.3256,159.224,99.9176,97.6571,0.00860224,0.0876065,20.9072,385.398,0.208545,0.0,0.0
2624,655.75,50.9795,52.4261,160.015,99.8852,97.7876,0.00852929,0.0871598,20.9069,385.318,0.193412,0.0,0.0
2632,657.75,50.8073,51.899,158.954,99.8822,97.6836,0.00829846,0.0872032,20.9061,385.218,0.202844,0.0,0.0
2640,659.75,51.3511,51.8817,154.527,99.8493,97.4987,0.00801258,0.0871944,20.9058,385.148,0.217105,0.0,0.0
2648,661.75,51.0063,51.9588,160.319,99.8303,97.685,0.00784786,0.0867916,20.9056,385.028,0.197981,0.0,0.0
2656,663.75,50.8239,51.9323,157.094,99.7857,97.7435,0.00781362,0.0864605,20.9067,384.998,0.188443,0.0,0.0
2664,665.75,50.9345,51.816,155.872,99.7705,97.6608,0.00795541,0.0862737,20.9104,384.878,0.194768,0.0,0.0
2672,667.75,50.7584,51.9288,159.148,99.7262,97.8387,0.00811656,0.085981,20.912,384.767,0.174138,0.0,0.0
2680,669.75,50.8321,51.8588,159.992,99.684,97.587,0.00829797,0.0859786,20.9127,384.707,0.193763,0.0,0.0
2688,671.75,50.9513,51.7875,155.116,99.6423,97.6,0.00842654,0.0860746,20.913,384.627,0.188732,0.0,0.0
2696,673.75,50.8881,51.1876,158.983,99.612,97.8206,0.00849075,0.0860821,20.9129,384.647,0.165379,0.0,0.0
2704,675.75,50.6782,51.1426,157.061,99.5757,97.6037,0.00848065,0.0862107,20.9126,384.547,0.182291,0.0,0.0
2712,677.75,50.0922,51.6776,160.063,99.5605,97.645,0.00841342,0.0862503,20.9111,384.457,0.177043,0.0,0.0
2720,679.75,50.3905,51.6278,163.284,99.5335,97.6297,0.00825208,0.0860104,20.9105,384.407,0.176003,0.0,0.0
2728,681.75,50.0848,51.6898,158.009,99.5479,97.482,0.00809438,0.0857394,20.9102,384.337,0.191112,0.0,0.0
2736,683.75,50.3556,51.5203,158.108,99.633,97.7012,0.00805247,0.0856834,20.9101,384.277,0.178436,0.0,0.0
2744,685.75,50.6689,51.6369,156.301,99.7114,97.8378,0.00795132,0.0859019,20.9105,384.197,0.172877,0.0,0.0
2752,687.75,50.3681,51.4195,159.096,99.7684,97.5647,0.00776159,0.0860754,20.9114,384.127,0.203551,0.0,0.0
2760,689.75,50.0104,51.286,161.361,99.8223,97.8517,0.00769279,0.0860717,20.9122,384.047,0.181708,0.0,0.0
2768,691.75,50.4904,51.6248,154.411,99.8746,97.9957,0.00772108,0.085867,20.9126,383.887,0.17308,0.0,0.0
2776,693.75,50.2861,51.2377,156.049,99.9113,97.9529,0.00776346,0.0859832,20.9139,383.797,0.180401,0.0,0.0
2784,695.75,49.9023,51.2749,158.314,99.98,98.1833,0.0077963,0.0859882,20.9147,383.827,0.165259,0.0,0.0
2792,697.75,50.3583,51.3507,160.194,100.034,98.4267,0.00772084,0.0857547,20.915,383.777,0.147615,0.0,0.0
2800,699.75,50.5993,50.97,158.205,100.098,98.1694,0.00758483,0.0856317,20.9152,383.626,0.177306,0.0,0.0
2808,701.75,50.3865,51.1687,158.127,100.14,98.396,0.00767714,0.0855733,20.9152,383.566,0.160128,0.0,0.0
2816,703.75,50.3849,51.2503,156.546,100.184,98.3175,0.00789666,0.0852904,20.9152,383.486,0.17139,0.0,0.0
2824,705.75,49.9576,51.2453,158.598,100.219,98.4411,0.00804112,0.0856483,20.9153,383.416,0.163128,0.0,0.0
2832,707.75,49.7187,51.1519,158.67,100.243,98.2976,0.00812354,0.0862127,20.914,383.346,0.178571,0.0,0.0
2840,709.75,50.0627,51.5288,155.237,100.26,98.4833,0.00817623,0.0863483,20.9131,383.276,0.162935,0.0,0.0
2848,711.75,50.0805,51.3197,156.561,100.294,98.4699,0.00818603,0.0863139,20.9112,383.166,0.167285,0.0,0.0
2856,713.75,50.1618,50.8352,153.328,100.279,98.2474,0.00818599,0.08632,20.9104,383.096,0.186556,0.0,0.0
2864,715.75,49.8742,51.0426,158.151,100.282,98.6515,0.00822225,0.0860271,20.9101,383.066,0.149419,0.0,0.0
2872,717.75,49.9686,50.9946,156.997,100.292,98.481,0.008224,0.0858043,20.9099,383.046,0.166023,0.0,0.0
2880,719.75,50.3683,51.5059,157.493,100.287,98.5312,0.00819167,0.0857875,20.9099,382.986,0.160961,0.0,0.0
2888,721.75,49.93,51.1664,154.275,100.287,98.409,0.00816607,0.0858103,20.9099,382.886,0.172265,0.0,0.0
2896,723.75,50.1243,51.749,153.23,100.292,98.3352,0.00810819,0.0859274,20.9098,382.816,0.179567,0.0,0.0
2904,725.75,49.7651,51.106,160.534,100.304,98.4165,0.00796746,0.0859208,20.9098,382.736,0.173148,0.0,0.0
2912,727.75,49.4039,50.9374,157.059,100.298,98.7657,0.00783705,0.0859919,20.9098,382.676,0.140289,0.0,0.0
2920,729.75,49.8794,51.3125,159.89,100.305,98.7225,0.00783677,0.0860241,20.9112,382.605,0.144926,0.0,0.0
2928,731.75,49.7481,50.853,161.091,100.266,98.4898,0.00790254,0.0858797,20.9104,382.505,0.162869,0.0,0.0
2936,733.75,49.7836,51.4058,156.442,100.252,98.2971,0.00790542,0.0859353,20.9107,382.385,0.179457,0.0,0.0
2944,735.75,50.0415,50.9132,154.759,100.232,98.5428,0.00789635,0.0859011,20.911,382.325,0.154867,0.0,0.0
2952,737.75,49.9045,51.5402,160.057,100.21,98.1164,0.00789264,0.085976,20.9113,382.295,0.19239,0.0,0.0
2960,739.75,50.15,51.1049,162.285,100.176,98.5604,0.00790194,0.0860341,20.9123,382.185,0.148135,0.0,0.0
2968,741.75,49.0713,51.0667,158.205,100.168,98.2962,0.00785825,0.0861227,20.9119,382.065,0.171874,0.0,0.0
2976,743.75,50.423,51.2446,162.69,100.125,98.3672,0.0077077,0.0860646,20.9126,381.945,0.161451,0.0,0.0
2984,745.75,49.8266,50.4352,154.725,100.086,98.2186,0.00751356,0.0856828,20.9128,381.895,0.171663,0.0,0.0
2992,747.75,50.164,51.2171,160.671,100.047,98.3737,0.00744459,0.0857061,20.913,381.825,0.153748,0.0,0.0
3000,749.75,50.1911,51.3713,162.292,99.9851,98.3914,0.00752746,0.08603,20.9122,381.645,0.146428,0.0,0.0
3008,751.75,49.5726,50.9652,154.558,99.9374,98.0398,0.00762856,0.0861375,20.9113,381.725,0.174707,0.0,0.0
3016,753.75,49.9829,51.2162,161.929,99.8936,98.2358,0.00776133,0.0862961,20.9109,381.605,0.152507,0.0,0.0
3024,755.75,49.4401,51.3441,153.727,99.9189,98.0825,0.00788733,0.0863313,20.9111,381.565,0.169045,0.0,0.0
3032,757.75,49.1057,50.8302,163.108,99.9269,98.2785,0.00789601,0.0863439,20.9121,381.515,0.151583,0.0,0.0
3040,759.75,49.1003,49.6816,159.071,99.9606,98.3621,0.0078432,0.0863756,20.9127,381.495,0.146909,0.0,0.0
3048,761.75,48.9878,50.3804,154.707,100.007,98.3254,0.00782645,0.0865911,20.9129,381.394,0.154536,0.0,0.0
3056,763.75,48.8006,50.0572,157.313,100.023,98.2497,0.00781514,0.0865412,20.913,381.344,0.163016,0.0,0.0
3064,765.75,49.0413,50.641,165.024,100.065,98.324,0.00785317,0.0864854,20.9131,381.224,0.159927,0.0,0.0
3072,767.75,49.1074,50.0717,157.16,100.112,98.3886,0.0080169,0.0864614,20.9131,381.214,0.158207,0.0,0.0
3080,769.75,49.1403,50.2937,158.406,100.146,98.5493,0.00825179,0.0867596,20.9131,381.144,0.14648,0.0,0.0
3088,771.75,48.7373,49.8972,155.968,100.194,98.1647,0.00831217,0.0870218,20.9137,381.044,0.186485,0.0,0.0
3096,773.75,49.1512,50.5223,158.996,100.246,98.1912,0.00815396,0.0869273,20.9138,380.964,0.188781,0.0,0.0
3104,775.75,49.3116,50.4042,153.084,100.284,98.4912,0.00790145,0.0865175,20.9136,380.884,0.164387,0.0,0.0
3112,777.75,49.0878,50.0779,159.296,100.325,98.7067,0.00784247,0.0863425,20.9138,380.714,0.148223,0.0,0.0
3120,779.75,48.7824,50.0891,154.84,100.357,98.3528,0.00801985,0.0865784,20.9123,380.634,0.183867,0.0,0.0
3128,781.75,49.1491,50.5248,159.837,100.389,98.4731,0.00816533,0.0868364,20.9111,380.614,0.175598,0.0,0.0
3136,783.75,49.2133,50.4348,157.29,100.423,98.678,0.00819127,0.0867563,20.9106,380.514,0.159762,0.0,0.0
3144,785.75,48.774,49.6432,159.229,100.472,98.8572,0.00816698,0.0865504,20.9104,380.514,0.147619,0.0,0.0
3152,787.75,48.8001,49.8479,157.361,100.485,98.7513,0.0081787,0.0864009,20.9103,380.484,0.158571,0.0,0.0
3160,789.75,48.6334,50.3123,154.658,100.526,98.8944,0.00825014,0.0864803,20.9098,380.434,0.149165,0.0,0.0
3168,791.75,49.3919,50.2258,158.248,100.547,98.7973,0.00835322,0.0865825,20.9087,380.373,0.160025,0.0,0.0
3176,793.75,49.1238,50.3937,160.781,100.582,98.8503,0.00842655,0.0866488,20.9082,380.293,0.158237,0.0,0.0
3184,795.75,49.152,50.5005,156.76,100.615,98.6872,0.00842489,0.0867598,20.908,380.213,0.176296,0.0,0.0
3192,797.75,48.9574,50.2109,156.316,100.62,98.7518,0.00847366,0.0868449,20.9079,380.153,0.170832,0.0,0.0
3200,799.75,49.089,49.9807,161.943,100.642,98.8554,0.00851037,0.0869876,20.9078,380.063,0.163189,0.0,0.0
3208,801.75,49.1297,50.209,158.438,100.655,98.9501,0.0085032,0.0871329,20.9087,379.983,0.155718,0.0,0.0
3216,803.75,48.7887,50.1391,154.866,100.679,98.8712,0.00845818,0.0871023,20.9099,379.913,0.165131,0.0,0.0
3224,805.75,49.3622,50.8193,156.835,100.7,98.9097,0.00844538,0.0870787,20.9105,379.813,0.163487,0.0,0.0
3232,807.75,48.3157,50.1858,155.205,100.724,99.0091,0.00841254,0.0870274,20.9107,379.793,0.156507,0.0,0.0
3240,809.75,48.7267,50.6098,159.032,100.725,98.9594,0.00837001,0.0868173,20.9112,379.633,0.161196,0.0,0.0
3248,811.75,49.1348,50.1596,162.604,100.741,98.7574,0.00831054,0.0866853,20.9123,379.483,0.181271,0.0,0.0
3256,813.75,48.9249,50.0603,154.879,100.795,98.808,0.00832158,0.0867686,20.9128,379.473,0.181482,0.0,0.0
3264,815.75,49.302,50.6095,157.436,100.79,98.9887,0.00834679,0.0867203,20.9131,379.413,0.164337,0.0,0.0
3272,817.75,49.3631,50.0927,155.907,100.806,98.7002,0.00820138,0.0861021,20.9132,379.353,0.192377,0.0,0.0
3280,819.75,48.7767,50.1257,159.744,100.828,98.7727,0.00808765,0.0860333,20.9132,379.272,0.187671,0.0,0.0
3288,821.75,48.5837,50.2764,157.162,100.835,99.0217,0.00830315,0.0865391,20.912,379.202,0.165418,0.0,0.0
3296,823.75,49.053,50.3472,157.011,100.85,98.9079,0.00851789,0.0868019,20.9114,379.172,0.17723,0.0,0.0
3304,825.75,49.0036,50.4249,160.615,100.873,99.0463,0.00849859,0.0869834,20.91,379.092,0.166505,0.0,0.0
3312,827.75,49.1988,50.2296,156.877,100.838,99.1313,0.00843102,0.0871799,20.9091,378.982,0.155602,0.0,0.0
3320,829.75,48.5943,49.9283,160.401,100.84,99.0848,0.00843638,0.0871879,20.9088,378.932,0.159987,0.0,0.0
3328,831.75,49.4001,50.1811,159.335,100.832,99.0662,0.00845638,0.0870098,20.9086,378.872,0.160972,0.0,0.0
3336,833.75,48.9154,50.0948,160.453,100.833,99.0867,0.00837246,0.0868198,20.9085,378.792,0.159245,0.0,0.0
3344,835.75,49.2059,50.3471,156.723,100.794,98.9004,0.00834244,0.0866846,20.9085,378.722,0.172846,0.0,0.0
3352,837.75,48.9262,50.2417,153.74,100.771,98.9701,0.0083544,0.0864588,20.9085,378.622,0.164333,0.0,0.0
3360,839.75,49.1679,50.7433,161.793,100.738,99.089,0.00837686,0.0865089,20.9085,378.532,0.150454,0.0,0.0
3368,841.75,48.7321,50.3959,161.985,100.698,99.1071,0.00842757,0.0867152,20.9085,378.522,0.145165,0.0,0.0
3376,843.75,48.9559,49.5298,157.761,100.666,98.7072,0.00839848,0.0867806,20.9097,378.462,0.179072,0.0,0.0
3384,845.75,48.8692,50.1213,156.007,100.618,98.9027,0.00829396,0.0864539,20.9104,378.332,0.156723,0.0,0.0
3392,847.75,49.0747,50.0406,155.569,100.578,98.9069,0.00817861,0.0861181,20.9107,378.242,0.152709,0.0,0.0
3400,849.75,48.5854,49.8,154.231,100.522,98.7495,0.00807513,0.0862695,20.911,378.232,0.162107,0.0,0.0
3408,851.75,48.7559,50.3561,158.4,100.474,98.7592,0.00807335,0.0866502,20.9106,378.081,0.156888,0.0,0.0
3416,853.75,48.5651,50.0158,156.038,100.448,98.7439,0.00815002,0.0867747,20.9105,378.021,0.155969,0.0,0.0
3424,855.75,48.639,50.0744,155.886,100.417,98.7467,0.00820458,0.0866968,20.9104,377.981,0.152881,0.0,0.0
3432,857.75,48.9808,50.1495,160.94,100.374,98.52,0.00826156,0.086725,20.9104,377.931,0.169881,0.0,0.0
3440,859.75,49.0691,50.0668,156.352,100.336,98.6668,0.00830359,0.0865617,20.9104,377.881,0.152868,0.0,0.0
3448,861.75,48.6965,50.0425,157.668,100.314,98.5498,0.00827458,0.0863888,20.9119,377.821,0.161732,0.0,0.0
3456,863.75,48.2754,50.0125,155.001,100.275,98.5539,0.00833532,0.0864031,20.9129,377.741,0.157784,0.0,0.0
3464,865.75,47.9845,49.7598,157.007,100.25,98.5251,0.0084288,0.0865697,20.9133,377.681,0.158147,0.0,0.0
3472,867.75,48.6407,49.5464,159.306,100.23,98.5637,0.00835655,0.0867552,20.9135,377.591,0.152781,0.0,0.0
3480,869.75,48.8753,50.0396,156.598,100.188,98.4768,0.00817965,0.0869508,20.9147,377.491,0.156981,0.0,0.0
3488,871.75,48.9051,50.5081,158.815,100.152,98.6301,0.0080712,0.0872783,20.9134,377.431,0.139548,0.0,0.0
3496,873.75,48.7445,50.0027,160.524,100.123,98.4801,0.00804407,0.0875402,20.9106,377.331,0.150811,0.0,0.0
3504,875.75,48.7023,49.9894,161.953,100.074,98.2367,0.008089,0.087369,20.9094,377.251,0.168907,0.0,0.0
3512,877.75,48.7029,50.0823,161.074,100.031,98.2785,0.00814962,0.0871901,20.9089,377.201,0.161113,0.0,0.0
3514,878.25,49.0651,49.8841,155.62,100.009,98.3301,0.00816877,0.0870816,20.9089,377.161,0.154259,0.0,0.0