File: 01_Data/Engineered_Wood_Table/Cone/Engineered_Wood_Table_HRRPUA_25.csv
Time after Ignition,Engineered_Wood_Table_R1,Engineered_Wood_Table_R2,Engineered_Wood_Table_R3,Engineered_Wood_Table_R4,Engineered_Wood_Table_R5,Mean,Std. Dev.
0.0,0.1,-0.0,-2.3,1.4,1.5,0.1,1.5
3.0,0.4,-0.0,1.9,1.9,1.9,1.2,0.9
6.0,0.7,-0.0,3.2,2.9,2.4,1.9,1.4
9.0,1.7,1.0,3.5,5.2,7.1,3.7,2.5
12.0,31.9,32.3,15.1,4.7,34.8,23.8,13.2
15.0,213.7,126.2,81.1,86.3,99.9,121.4,54.4
18.0,296.1,207.1,183.9,162.0,155.9,201.0,56.8
21.0,304.0,259.6,241.9,194.9,203.5,240.8,44.3
24.0,295.5,268.2,262.6,197.3,230.1,250.7,37.8
27.0,280.6,258.3,258.5,210.9,240.0,249.7,26.0
30.0,272.6,234.4,247.8,226.6,238.2,243.9,17.8
33.0,258.2,224.8,231.6,224.2,238.3,235.4,14.0
36.0,254.8,214.0,227.4,206.7,235.4,227.7,18.9
39.0,246.8,206.2,215.6,203.8,231.0,220.7,18.1
42.0,232.9,199.1,217.9,202.8,205.9,211.7,13.8
45.0,225.9,200.3,216.6,199.6,197.0,207.9,12.7
48.0,224.8,193.3,202.1,201.6,187.5,201.9,14.2
51.0,220.8,194.7,198.1,203.1,186.0,200.5,12.9
54.0,216.5,186.2,193.3,192.8,184.1,194.6,12.9
57.0,217.9,180.9,181.3,183.4,182.5,189.2,16.1
60.0,211.0,181.6,175.4,175.6,182.6,185.3,14.8
63.0,205.1,174.8,172.0,171.8,180.8,180.9,14.0
66.0,199.2,170.4,167.9,169.3,173.3,176.0,13.1
69.0,189.0,164.4,163.2,168.5,173.0,171.6,10.5
72.0,186.0,157.7,160.4,168.3,168.6,168.2,11.1
75.0,174.2,150.1,155.9,163.2,163.8,161.4,9.1
78.0,166.5,146.8,152.5,164.7,160.2,158.1,8.3
81.0,159.8,143.7,150.8,158.9,155.7,153.8,6.6
84.0,154.2,137.3,149.7,157.9,149.7,149.7,7.8
87.0,149.0,133.7,146.9,153.0,149.8,146.5,7.5
90.0,141.2,128.6,145.2,147.2,148.6,142.2,8.1
93.0,133.3,126.9,143.4,144.1,144.3,138.4,7.9
96.0,130.2,122.8,140.4,139.9,139.2,134.5,7.8
99.0,130.2,120.6,134.8,134.6,136.2,131.3,6.4
102.0,128.3,118.4,131.0,134.8,131.0,128.7,6.2
105.0,125.3,114.9,129.0,133.6,128.6,126.3,7.0
108.0,123.2,110.3,124.6,131.1,126.4,123.1,7.8
111.0,120.2,106.9,123.7,128.0,126.0,121.0,8.4
114.0,119.0,103.4,120.6,127.7,122.3,118.6,9.1
117.0,117.5,100.9,119.6,126.0,117.3,116.3,9.3
120.0,115.4,97.4,118.3,120.3,115.7,113.4,9.2
123.0,116.3,95.3,113.2,120.5,113.0,111.7,9.6
126.0,116.6,93.9,113.2,120.9,107.3,110.4,10.5
129.0,114.9,91.6,110.2,119.7,105.5,108.4,10.8
132.0,112.9,89.0,107.5,114.3,104.0,105.5,10.1
135.0,113.6,89.7,106.1,112.4,108.7,106.1,9.6
138.0,115.3,85.4,106.1,110.0,107.0,104.8,11.4
141.0,110.9,82.9,104.6,106.3,104.1,101.8,10.9
144.0,112.3,81.3,103.4,102.7,100.6,100.1,11.4
147.0,109.9,79.0,103.3,99.5,97.8,97.9,11.6
150.0,109.0,76.0,100.0,99.9,92.9,95.6,12.4
153.0,103.9,74.2,100.0,99.0,90.6,93.6,11.8
156.0,103.4,72.7,99.0,98.1,91.4,92.9,12.1
159.0,103.8,73.5,98.3,94.7,92.0,92.5,11.5
162.0,101.5,71.0,99.4,91.0,90.4,90.7,12.0
165.0,101.0,70.4,97.1,90.6,88.8,89.6,11.8
168.0,99.4,69.1,94.0,87.7,85.9,87.2,11.5
171.0,100.6,67.9,94.9,87.5,84.8,87.1,12.4
174.0,97.6,67.4,92.7,88.2,82.8,85.7,11.6
177.0,98.1,66.3,91.5,86.4,81.8,84.8,12.0
180.0,96.4,66.4,90.5,86.4,83.9,84.7,11.3
183.0,96.8,66.5,88.1,85.2,84.1,84.1,11.0
186.0,97.9,64.3,87.7,84.0,80.6,82.9,12.2
189.0,100.7,63.5,87.6,81.6,79.5,82.6,13.5
192.0,97.8,62.9,87.5,80.5,77.1,81.1,12.9
195.0,99.5,62.3,84.2,81.3,76.6,80.8,13.4
198.0,99.1,61.5,82.5,80.9,73.0,79.4,13.8
201.0,98.7,60.7,82.6,78.0,72.2,78.4,14.0
204.0,98.4,60.3,81.3,75.9,73.7,77.9,13.8
207.0,99.6,59.7,80.9,74.7,74.2,77.8,14.4
210.0,96.7,59.6,80.4,72.7,72.3,76.3,13.6
213.0,97.2,58.8,81.0,72.9,70.6,76.1,14.2
216.0,94.3,59.2,79.9,70.8,69.1,74.7,13.2
219.0,92.9,58.1,79.9,71.1,68.6,74.1,13.1
222.0,92.8,58.0,77.6,71.0,66.9,73.3,13.0
225.0,91.2,58.1,77.2,71.4,67.5,73.1,12.3
228.0,92.3,57.2,75.3,69.7,68.3,72.5,12.9
231.0,90.3,56.3,74.6,67.4,68.8,71.5,12.4
234.0,90.9,56.1,74.3,66.3,68.5,71.2,12.8
237.0,92.6,56.6,72.5,67.0,68.2,71.4,13.2
240.0,89.6,55.8,73.3,65.9,66.6,70.2,12.5
243.0,90.1,54.6,72.1,66.9,65.3,69.8,13.0
246.0,89.4,54.5,70.1,66.0,64.6,68.9,12.8
249.0,89.7,54.3,69.7,66.2,64.9,69.0,12.9
252.0,89.2,54.5,69.9,66.3,63.7,68.7,12.8
255.0,87.8,54.3,69.1,65.4,63.9,68.1,12.3
258.0,87.9,52.8,68.2,64.4,64.2,67.5,12.8
261.0,86.6,52.2,67.7,63.9,64.3,67.0,12.4
264.0,87.6,51.5,66.8,62.9,62.6,66.3,13.2
267.0,87.2,51.9,66.7,64.0,62.3,66.4,12.9
270.0,87.1,50.8,66.6,62.5,61.7,65.7,13.3
273.0,87.6,50.7,65.6,62.4,61.7,65.6,13.5
276.0,86.4,49.8,63.7,61.9,61.8,64.7,13.3
279.0,86.1,50.5,64.6,61.5,62.1,65.0,13.0
282.0,86.6,49.8,64.0,59.9,61.1,64.3,13.6
285.0,87.1,49.6,63.3,60.2,59.6,64.0,13.9
288.0,85.6,51.0,64.2,61.0,60.1,64.4,12.8
291.0,85.9,50.1,64.7,61.1,59.9,64.3,13.2
294.0,86.1,49.3,65.4,60.0,60.1,64.2,13.6
297.0,87.3,49.8,62.3,60.9,58.9,63.8,14.0
300.0,86.2,48.4,62.1,60.1,59.2,63.2,13.9
303.0,86.5,49.0,63.1,60.2,59.8,63.7,13.8
306.0,86.8,48.5,63.1,59.3,58.6,63.3,14.2
309.0,85.8,47.9,63.0,59.2,57.9,62.8,14.0
312.0,83.9,47.5,62.8,58.8,57.8,62.2,13.4
315.0,85.0,47.8,61.8,58.4,58.5,62.3,13.7
318.0,86.1,47.3,61.3,58.5,58.3,62.3,14.3
321.0,85.8,47.2,61.0,58.4,58.4,62.2,14.2
324.0,86.5,47.8,61.1,58.3,58.9,62.5,14.4
327.0,84.7,47.0,60.2,58.2,57.4,61.5,14.0
330.0,85.4,47.1,61.3,57.9,57.4,61.8,14.2
333.0,85.6,47.9,59.9,57.5,58.3,61.8,14.1
336.0,84.3,47.2,60.6,57.9,58.3,61.6,13.7
339.0,84.5,47.3,60.7,57.8,57.2,61.5,13.8
342.0,84.5,46.9,60.5,57.7,57.1,61.3,14.0
345.0,85.7,47.1,60.6,56.4,56.3,61.2,14.5
348.0,82.7,45.7,59.1,56.9,56.6,60.2,13.6
351.0,82.5,45.0,60.1,56.0,56.7,60.1,13.7
354.0,83.8,45.8,59.3,56.1,56.5,60.3,14.1
357.0,84.6,44.7,60.0,56.8,56.3,60.5,14.7
360.0,81.9,44.5,60.1,57.1,56.8,60.1,13.6
363.0,82.9,45.4,58.6,56.8,55.7,59.9,13.9
366.0,82.7,45.3,58.9,57.1,55.7,59.9,13.8
369.0,82.8,45.5,57.9,57.6,54.7,59.7,13.9
372.0,82.3,44.7,58.7,56.2,55.6,59.5,13.8
375.0,82.7,44.4,58.1,56.3,55.7,59.4,14.1
378.0,82.5,44.7,57.4,56.3,55.2,59.2,14.0
381.0,80.0,43.5,56.9,55.6,56.2,58.4,13.3
384.0,82.1,44.1,56.4,54.8,56.4,58.8,14.0
387.0,80.8,43.6,56.8,55.5,54.7,58.3,13.6
390.0,80.7,43.5,57.3,54.8,53.8,58.0,13.7
393.0,80.7,42.9,57.6,54.9,52.3,57.7,14.0
396.0,81.5,43.3,58.3,55.6,52.7,58.3,14.2
399.0,79.3,42.7,57.3,55.4,53.0,57.5,13.4
402.0,81.4,43.5,57.2,55.2,53.3,58.1,14.1
405.0,78.1,42.1,57.7,53.9,53.1,57.0,13.2
408.0,79.7,42.0,57.2,53.0,52.4,56.9,13.9
411.0,79.1,41.2,56.0,53.5,53.5,56.7,13.8
414.0,77.4,40.6,56.6,53.4,54.1,56.4,13.3
417.0,76.5,40.7,55.5,53.9,52.7,55.9,13.0
420.0,76.4,40.2,54.6,53.2,52.6,55.4,13.1
423.0,76.1,39.9,54.3,53.8,52.7,55.4,13.0
426.0,78.1,38.5,54.3,52.8,53.0,55.3,14.3
429.0,78.0,37.6,54.7,52.8,52.1,55.0,14.5
432.0,77.2,37.8,54.2,52.9,52.1,54.9,14.2
435.0,76.9,36.1,54.1,52.2,51.3,54.1,14.6
438.0,76.4,36.2,52.6,51.2,51.4,53.5,14.5
441.0,76.9,35.3,54.2,51.3,51.8,53.9,14.9
444.0,76.8,34.0,55.7,51.7,51.4,53.9,15.3
447.0,75.4,33.7,54.9,51.1,51.2,53.2,14.9
450.0,73.6,33.8,54.1,51.1,51.2,52.8,14.1
453.0,74.8,33.3,53.8,50.3,51.2,52.7,14.8
456.0,76.5,33.7,54.0,50.2,50.6,53.0,15.3
459.0,76.8,33.7,52.9,48.6,49.8,52.4,15.5
462.0,73.1,33.3,52.3,48.7,50.5,51.6,14.2
465.0,72.8,33.2,52.2,48.1,50.6,51.4,14.1
468.0,73.5,30.5,51.2,48.8,50.2,50.8,15.3
471.0,72.0,29.5,52.4,49.4,51.4,50.9,15.1
474.0,73.9,30.6,51.7,47.5,51.5,51.0,15.4
477.0,74.9,31.9,52.3,46.6,51.0,51.3,15.4
480.0,74.7,31.4,52.0,45.7,47.4,50.2,15.7
483.0,72.2,31.2,52.4,44.9,45.3,49.2,14.9
486.0,70.8,30.1,50.0,44.2,46.2,48.2,14.7
489.0,72.4,28.8,47.6,45.6,46.7,48.2,15.6
492.0,70.9,28.4,45.1,46.7,47.3,47.7,15.1
495.0,70.4,28.7,42.7,45.4,45.9,46.6,15.0
498.0,69.7,28.4,42.5,42.7,46.5,46.0,15.0
501.0,70.0,28.9,44.5,41.7,46.4,46.3,14.9
504.0,68.4,28.3,43.6,41.3,40.6,44.4,14.7
507.0,69.0,28.7,38.6,39.4,40.1,43.1,15.2
510.0,71.0,28.4,35.9,37.2,40.4,42.6,16.5
513.0,71.4,28.0,36.4,36.0,40.9,42.5,16.8
516.0,70.3,25.6,36.9,36.4,40.7,42.0,16.8
519.0,68.5,23.0,37.6,30.9,42.0,40.4,17.3
522.0,68.4,22.2,37.2,28.5,44.1,40.1,17.9
525.0,69.7,21.9,37.5,28.1,42.2,39.9,18.4
528.0,68.9,21.3,38.7,28.3,35.8,38.6,18.2
531.0,68.6,20.6,38.3,28.7,31.4,37.5,18.5
534.0,68.9,20.4,36.4,28.4,30.2,36.8,18.8
537.0,68.4,20.9,35.6,28.8,28.7,36.5,18.6
540.0,69.1,20.4,34.8,29.1,29.8,36.7,18.8
543.0,67.6,21.3,34.1,28.1,29.9,36.2,18.2
546.0,68.3,21.8,33.5,27.9,29.9,36.3,18.4
549.0,66.9,21.8,34.2,27.8,27.7,35.7,18.0
552.0,68.4,21.8,35.9,28.1,26.1,36.1,18.8
555.0,66.5,22.2,36.1,28.2,26.1,35.8,17.9
558.0,67.0,22.6,37.1,30.0,26.3,36.6,17.8
561.0,67.9,23.1,38.1,30.4,26.9,37.3,18.0
564.0,67.0,22.9,38.4,31.0,27.2,37.3,17.5
567.0,65.7,22.9,39.4,30.1,27.8,37.2,17.0
570.0,62.8,23.4,39.7,30.4,27.3,36.7,15.8
573.0,63.6,23.9,39.3,29.9,26.5,36.6,16.2
576.0,63.6,21.5,38.3,28.9,26.0,35.7,16.8
579.0,63.2,20.8,36.0,28.9,25.2,34.8,16.8
582.0,61.4,21.5,34.8,28.3,25.1,34.2,15.9
585.0,58.3,22.5,33.9,29.3,24.8,33.8,14.4
588.0,55.9,24.1,33.9,29.2,25.0,33.6,13.1
591.0,55.3,24.2,33.2,29.4,25.3,33.5,12.7
594.0,55.8,25.7,33.8,29.5,26.4,34.2,12.5
597.0,55.2,24.8,33.4,29.9,27.6,34.2,12.2
600.0,55.8,22.3,33.5,30.5,27.7,34.0,12.9
603.0,54.4,22.2,30.8,30.5,27.6,33.1,12.4
606.0,54.0,23.7,30.1,30.3,27.7,33.2,12.0
609.0,53.6,25.4,30.0,30.2,27.8,33.4,11.5
612.0,51.9,27.0,30.7,30.6,27.4,33.5,10.4
615.0,51.1,29.1,31.0,30.0,27.2,33.7,9.9
618.0,50.9,31.2,30.8,29.8,27.6,34.0,9.5
621.0,48.3,27.8,31.8,29.4,27.3,32.9,8.8
624.0,49.1,24.1,32.0,29.4,25.9,32.1,10.0
627.0,49.4,24.7,31.6,28.7,26.3,32.1,10.0
630.0,49.8,27.2,31.6,29.3,26.3,32.8,9.7
633.0,48.8,29.0,31.7,29.4,26.1,33.0,9.0
636.0,48.5,30.2,31.8,29.4,27.4,33.5,8.6
639.0,47.0,31.1,31.8,29.1,26.9,33.2,7.9
642.0,46.4,32.4,31.7,29.0,26.2,33.1,7.8
645.0,46.0,27.4,31.8,28.8,,33.5,8.5
648.0,46.0,25.2,31.2,,,34.2,10.7
651.0,47.0,25.0,31.5,,,34.5,11.3
654.0,47.2,24.1,31.5,,,34.3,11.8
657.0,46.8,23.5,31.9,,,34.1,11.8
660.0,46.1,24.4,32.2,,,34.2,11.0
663.0,44.0,24.4,32.2,,,33.5,9.9
666.0,44.0,24.7,32.1,,,33.6,9.8
669.0,44.9,23.6,32.1,,,33.5,10.7
672.0,45.4,23.7,30.2,,,33.1,11.2
675.0,45.1,23.6,30.4,,,33.1,11.0
678.0,46.4,23.6,31.2,,,33.7,11.6
681.0,46.3,23.9,31.5,,,33.9,11.4
684.0,44.6,24.0,31.3,,,33.3,10.4
687.0,43.1,23.7,31.7,,,32.8,9.8
690.0,42.4,24.6,31.9,,,32.9,9.0
693.0,42.6,24.9,31.1,,,32.9,9.0
696.0,44.4,25.1,30.3,,,33.3,10.0
699.0,46.0,25.5,29.9,,,33.8,10.8
702.0,45.6,25.8,29.7,,,33.7,10.5
705.0,45.2,25.2,29.5,,,33.3,10.5
708.0,43.8,25.3,29.9,,,33.0,9.6
711.0,44.9,25.2,29.4,,,33.2,10.4
714.0,44.4,24.8,29.6,,,32.9,10.2
717.0,44.7,24.5,29.6,,,32.9,10.5
720.0,44.0,24.5,29.5,,,32.6,10.2
723.0,43.4,24.3,28.6,,,32.1,10.0
726.0,43.7,24.2,28.5,,,32.1,10.3
729.0,43.2,23.2,28.3,,,31.6,10.4
732.0,43.1,23.1,28.3,,,31.5,10.4
735.0,42.2,23.2,27.9,,,31.1,9.9
738.0,41.8,22.8,27.9,,,30.8,9.8
741.0,41.3,23.2,28.1,,,30.9,9.4
744.0,39.9,23.0,27.8,,,30.2,8.7
747.0,38.4,22.7,27.8,,,29.6,8.0
750.0,35.6,23.0,28.0,,,28.9,6.4
753.0,34.2,23.0,28.5,,,28.6,5.6
756.0,33.3,,29.4,,,31.4,2.7
759.0,31.8,,28.8,,,30.3,2.1
762.0,32.5,,28.2,,,30.4,3.0
765.0,32.6,,27.9,,,30.3,3.3
768.0,33.3,,27.6,,,30.4,4.0
771.0,32.1,,27.7,,,29.9,3.2
774.0,32.0,,27.5,,,29.8,3.2
777.0,33.0,,27.8,,,30.4,3.6
780.0,32.2,,27.4,,,29.8,3.4
783.0,31.8,,27.2,,,29.5,3.2
786.0,31.9,,28.0,,,29.9,2.8
789.0,31.7,,27.9,,,29.8,2.7
792.0,31.5,,27.7,,,29.6,2.7
795.0,31.6,,28.0,,,29.8,2.6
798.0,31.8,,28.0,,,29.9,2.7
801.0,31.4,,28.0,,,29.7,2.3
804.0,31.6,,28.1,,,29.9,2.5
807.0,32.0,,28.2,,,30.1,2.7
810.0,31.1,,28.8,,,29.9,1.6
813.0,30.3,,29.0,,,29.7,0.9
816.0,30.5,,28.3,,,29.4,1.6
819.0,31.3,,28.1,,,29.7,2.3
822.0,31.1,,27.8,,,29.5,2.3
825.0,31.0,,28.2,,,29.6,1.9
828.0,31.9,,28.1,,,30.0,2.7
831.0,32.5,,28.5,,,30.5,2.8
834.0,33.2,,28.7,,,31.0,3.2
837.0,33.5,,29.2,,,31.3,3.0
840.0,33.3,,29.2,,,31.3,2.9
843.0,32.9,,28.4,,,30.6,3.2
846.0,32.8,,27.9,,,30.4,3.4
849.0,33.4,,27.7,,,30.5,4.1
852.0,33.2,,27.8,,,30.5,3.8
855.0,33.0,,27.7,,,30.4,3.8
858.0,32.6,,28.2,,,30.4,3.2
861.0,33.4,,27.4,,,30.4,4.2
864.0,33.9,,26.9,,,30.4,5.0
867.0,33.6,,27.2,,,30.4,4.6
870.0,34.2,,27.0,,,30.6,5.1
873.0,33.9,,26.9,,,30.4,5.0
876.0,34.0,,27.2,,,30.6,4.8
879.0,34.2,,28.5,,,31.4,4.1
882.0,33.6,,29.4,,,31.5,2.9
885.0,32.9,,29.8,,,31.3,2.2
888.0,34.0,,29.1,,,31.5,3.5
891.0,33.9,,28.3,,,31.1,4.0
894.0,34.1,,28.3,,,31.2,4.1
897.0,33.5,,29.3,,,31.4,3.0
900.0,33.4,,29.3,,,31.4,2.9
903.0,33.2,,29.7,,,31.5,2.5
906.0,32.9,,30.5,,,31.7,1.7
909.0,32.9,,29.5,,,31.2,2.4
912.0,32.9,,29.4,,,31.1,2.5
915.0,32.8,,29.0,,,30.9,2.7
918.0,32.8,,29.5,,,31.1,2.3
921.0,32.8,,29.0,,,30.9,2.8
924.0,32.8,,28.1,,,30.4,3.3
927.0,32.9,,27.9,,,30.4,3.5
930.0,32.3,,27.8,,,30.0,3.2
933.0,32.4,,27.8,,,30.1,3.3
936.0,31.7,,29.0,,,30.4,1.9
939.0,32.5,,28.2,,,30.3,3.1
942.0,32.1,,28.8,,,30.4,2.3
945.0,31.8,,29.3,,,30.5,1.7
948.0,32.2,,29.2,,,30.7,2.2
951.0,32.9,,29.5,,,31.2,2.4
954.0,32.7,,,,,32.7,
957.0,33.0,,,,,33.0,
960.0,33.3,,,,,33.3,
963.0,34.3,,,,,34.3,
966.0,33.9,,,,,33.9,
969.0,34.0,,,,,34.0,
972.0,33.9,,,,,33.9,
975.0,33.5,,,,,33.5,
978.0,33.9,,,,,33.9,
981.0,34.1,,,,,34.1,
984.0,34.0,,,,,34.0,
987.0,34.2,,,,,34.2,
990.0,34.8,,,,,34.8,
993.0,34.9,,,,,34.9,
996.0,34.0,,,,,34.0,
999.0,34.2,,,,,34.2,
1002.0,35.1,,,,,35.1,
1005.0,34.9,,,,,34.9,
1008.0,35.5,,,,,35.5,
1011.0,34.9,,,,,34.9,
1014.0,34.6,,,,,34.6,
1017.0,33.9,,,,,33.9,
1020.0,34.2,,,,,34.2,
1023.0,33.4,,,,,33.4,
1026.0,33.8,,,,,33.8,
1029.0,33.1,,,,,33.1,
1032.0,33.2,,,,,33.2,
1035.0,33.0,,,,,33.0,
1038.0,33.1,,,,,33.1,
1041.0,33.0,,,,,33.0,
1044.0,33.2,,,,,33.2,
1047.0,35.3,,,,,35.3,
1050.0,37.4,,,,,37.4,
1053.0,36.4,,,,,36.4,
1056.0,34.9,,,,,34.9,
1059.0,34.0,,,,,34.0,
1062.0,33.5,,,,,33.5,
1065.0,32.8,,,,,32.8,
1068.0,32.6,,,,,32.6,
1071.0,33.0,,,,,33.0,
1074.0,33.0,,,,,33.0,
1077.0,32.7,,,,,32.7,
1080.0,34.0,,,,,34.0,
1083.0,33.3,,,,,33.3,
1086.0,33.6,,,,,33.6,
1089.0,34.4,,,,,34.4,
1092.0,36.3,,,,,36.3,
1095.0,37.5,,,,,37.5,
1098.0,37.6,,,,,37.6,
1101.0,37.5,,,,,37.5,
1104.0,37.9,,,,,37.9,
1107.0,37.2,,,,,37.2,
1110.0,36.1,,,,,36.1,
1113.0,33.1,,,,,33.1,
1116.0,31.8,,,,,31.8,
1119.0,31.8,,,,,31.8,
1122.0,33.5,,,,,33.5,
1125.0,35.8,,,,,35.8,
1128.0,37.9,,,,,37.9,
1131.0,35.9,,,,,35.9,
1134.0,34.4,,,,,34.4,
1137.0,34.5,,,,,34.5,
1140.0,33.6,,,,,33.6,
1143.0,32.1,,,,,32.1,
1146.0,32.9,,,,,32.9,
1149.0,33.3,,,,,33.3,
1152.0,34.2,,,,,34.2,
1155.0,33.9,,,,,33.9,
1158.0,35.0,,,,,35.0,
1161.0,36.8,,,,,36.8,
1164.0,36.4,,,,,36.4,
1167.0,35.5,,,,,35.5,
1170.0,34.8,,,,,34.8,
1173.0,34.4,,,,,34.4,
1176.0,33.9,,,,,33.9,
1179.0,36.2,,,,,36.2,
1182.0,38.6,,,,,38.6,
1185.0,40.0,,,,,40.0,
1188.0,40.0,,,,,40.0,
1191.0,40.0,,,,,40.0,
1194.0,38.8,,,,,38.8,
1197.0,38.2,,,,,38.2,
1200.0,37.5,,,,,37.5,
1203.0,36.8,,,,,36.8,
1206.0,38.3,,,,,38.3,
1209.0,38.9,,,,,38.9,
1212.0,38.1,,,,,38.1,
1215.0,38.8,,,,,38.8,
1218.0,38.9,,,,,38.9,
1221.0,37.6,,,,,37.6,
1224.0,35.4,,,,,35.4,
1227.0,34.4,,,,,34.4,
1230.0,36.0,,,,,36.0,
1233.0,35.6,,,,,35.6,
1236.0,35.6,,,,,35.6,
1239.0,35.7,,,,,35.7,
1242.0,38.0,,,,,38.0,
1245.0,37.8,,,,,37.8,
1248.0,39.3,,,,,39.3,
1251.0,40.4,,,,,40.4,
1254.0,41.7,,,,,41.7,
1257.0,42.1,,,,,42.1,
1260.0,41.7,,,,,41.7,
1263.0,41.2,,,,,41.2,
1266.0,40.0,,,,,40.0,
1269.0,39.9,,,,,39.9,
1272.0,41.6,,,,,41.6,
1275.0,42.0,,,,,42.0,
1278.0,38.2,,,,,38.2,
1281.0,37.8,,,,,37.8,
1284.0,40.3,,,,,40.3,
1287.0,42.5,,,,,42.5,
1290.0,42.7,,,,,42.7,
1293.0,41.1,,,,,41.1,
1296.0,41.0,,,,,41.0,
1299.0,41.2,,,,,41.2,
1302.0,40.6,,,,,40.6,
1305.0,39.4,,,,,39.4,
1308.0,39.6,,,,,39.6,
1311.0,40.0,,,,,40.0,
1314.0,40.1,,,,,40.1,
1317.0,40.7,,,,,40.7,
1320.0,40.7,,,,,40.7,
1323.0,40.7,,,,,40.7,
1326.0,42.2,,,,,42.2,
1329.0,42.8,,,,,42.8,
1332.0,43.3,,,,,43.3,
1335.0,43.9,,,,,43.9,
1338.0,44.6,,,,,44.6,
1341.0,43.4,,,,,43.4,
1344.0,43.9,,,,,43.9,
1347.0,43.8,,,,,43.8,
1350.0,44.9,,,,,44.9,
1353.0,45.6,,,,,45.6,
1356.0,45.0,,,,,45.0,
1359.0,44.4,,,,,44.4,
1362.0,42.8,,,,,42.8,
1365.0,41.4,,,,,41.4,
1368.0,41.4,,,,,41.4,
1371.0,43.1,,,,,43.1,
1374.0,43.5,,,,,43.5,
1377.0,43.5,,,,,43.5,
1380.0,43.8,,,,,43.8,
1383.0,45.2,,,,,45.2,
1386.0,47.9,,,,,47.9,
1389.0,47.4,,,,,47.4,
1392.0,46.0,,,,,46.0,
1395.0,46.6,,,,,46.6,
1398.0,47.3,,,,,47.3,
1401.0,47.7,,,,,47.7,
1404.0,47.5,,,,,47.5,
1407.0,47.5,,,,,47.5,
1410.0,48.6,,,,,48.6,
1413.0,49.8,,,,,49.8,
1416.0,49.5,,,,,49.5,
1419.0,49.2,,,,,49.2,
1422.0,49.7,,,,,49.7,
1425.0,49.9,,,,,49.9,
1428.0,50.3,,,,,50.3,
1431.0,52.1,,,,,52.1,
1434.0,52.9,,,,,52.9,
1437.0,53.7,,,,,53.7,
1440.0,53.5,,,,,53.5,
1443.0,54.7,,,,,54.7,
1446.0,54.6,,,,,54.6,
1449.0,56.0,,,,,56.0,
1452.0,54.8,,,,,54.8,
1455.0,54.8,,,,,54.8,
1458.0,54.9,,,,,54.9,
1461.0,53.5,,,,,53.5,
1464.0,53.6,,,,,53.6,
1467.0,55.7,,,,,55.7,
1470.0,55.7,,,,,55.7,
1473.0,56.4,,,,,56.4,
1476.0,56.9,,,,,56.9,
1479.0,59.2,,,,,59.2,
1482.0,60.4,,,,,60.4,
1485.0,61.5,,,,,61.5,
1488.0,61.2,,,,,61.2,
1491.0,60.6,,,,,60.6,
1494.0,58.1,,,,,58.1,
1497.0,57.9,,,,,57.9,
1500.0,60.2,,,,,60.2,
1503.0,60.8,,,,,60.8,
1506.0,61.8,,,,,61.8,
1509.0,63.8,,,,,63.8,
1512.0,64.3,,,,,64.3,
1515.0,64.5,,,,,64.5,
1518.0,63.1,,,,,63.1,
1521.0,65.0,,,,,65.0,
1524.0,64.7,,,,,64.7,
1527.0,65.1,,,,,65.1,
1530.0,65.9,,,,,65.9,
1533.0,66.4,,,,,66.4,
1536.0,68.6,,,,,68.6,
1539.0,70.0,,,,,70.0,
1542.0,71.1,,,,,71.1,
1545.0,71.6,,,,,71.6,
1548.0,71.8,,,,,71.8,
1551.0,71.3,,,,,71.3,
1554.0,71.6,,,,,71.6,
1557.0,71.8,,,,,71.8,
1560.0,73.5,,,,,73.5,
1563.0,73.7,,,,,73.7,
1566.0,73.9,,,,,73.9,
1569.0,73.0,,,,,73.0,
1572.0,73.8,,,,,73.8,
1575.0,74.6,,,,,74.6,
1578.0,75.0,,,,,75.0,
1581.0,76.3,,,,,76.3,
1584.0,77.3,,,,,77.3,
1587.0,81.2,,,,,81.2,
1590.0,79.8,,,,,79.8,
1593.0,78.8,,,,,78.8,
1596.0,79.5,,,,,79.5,
1599.0,80.5,,,,,80.5,
1602.0,79.3,,,,,79.3,
1605.0,79.2,,,,,79.2,
1608.0,80.2,,,,,80.2,
1611.0,79.2,,,,,79.2,
1614.0,80.4,,,,,80.4,
1617.0,80.3,,,,,80.3,
1620.0,80.9,,,,,80.9,
1623.0,80.1,,,,,80.1,
1626.0,82.7,,,,,82.7,
1629.0,80.2,,,,,80.2,
1632.0,81.1,,,,,81.1,
1635.0,79.0,,,,,79.0,
1638.0,80.0,,,,,80.0,
1641.0,78.8,,,,,78.8,
1644.0,80.5,,,,,80.5,
1647.0,81.2,,,,,81.2,
1650.0,81.9,,,,,81.9,
1653.0,83.6,,,,,83.6,
1656.0,83.9,,,,,83.9,
1659.0,85.1,,,,,85.1,
1662.0,85.1,,,,,85.1,
1665.0,85.5,,,,,85.5,
1668.0,87.8,,,,,87.8,
1671.0,86.9,,,,,86.9,
1674.0,88.0,,,,,88.0,
1677.0,87.4,,,,,87.4,
1680.0,87.2,,,,,87.2,
1683.0,85.9,,,,,85.9,
1686.0,86.0,,,,,86.0,
1689.0,86.4,,,,,86.4,
1692.0,84.8,,,,,84.8,
1695.0,84.8,,,,,84.8,
1698.0,82.8,,,,,82.8,
1701.0,84.7,,,,,84.7,
1704.0,80.5,,,,,80.5,
1707.0,81.0,,,,,81.0,
1710.0,78.7,,,,,78.7,
1713.0,77.3,,,,,77.3,
1716.0,76.5,,,,,76.5,
1719.0,75.7,,,,,75.7,
1722.0,75.4,,,,,75.4,
1725.0,75.8,,,,,75.8,
1728.0,73.5,,,,,73.5,
1731.0,71.1,,,,,71.1,
1734.0,69.7,,,,,69.7,
1737.0,67.9,,,,,67.9,
1740.0,69.6,,,,,69.6,
1743.0,70.6,,,,,70.6,
1746.0,70.3,,,,,70.3,
1749.0,71.5,,,,,71.5,
1752.0,72.2,,,,,72.2,
1755.0,72.0,,,,,72.0,
1758.0,72.4,,,,,72.4,
1761.0,72.4,,,,,72.4,
1764.0,72.7,,,,,72.7,
1767.0,71.0,,,,,71.0,
1770.0,71.6,,,,,71.6,
1773.0,72.4,,,,,72.4,
1776.0,74.5,,,,,74.5,
1779.0,73.6,,,,,73.6,
1782.0,75.2,,,,,75.2,
1785.0,74.3,,,,,74.3,
1788.0,73.2,,,,,73.2,
1791.0,73.2,,,,,73.2,
1794.0,73.3,,,,,73.3,
1797.0,73.4,,,,,73.4,
1800.0,72.1,,,,,72.1,
1803.0,74.1,,,,,74.1,
1806.0,75.8,,,,,75.8,
1809.0,77.1,,,,,77.1,
1812.0,77.2,,,,,77.2,
1815.0,75.9,,,,,75.9,
1818.0,75.5,,,,,75.5,
1821.0,75.5,,,,,75.5,
1824.0,77.7,,,,,77.7,
1827.0,79.3,,,,,79.3,
1830.0,77.6,,,,,77.6,
1833.0,78.3,,,,,78.3,
1836.0,79.2,,,,,79.2,
1839.0,77.3,,,,,77.3,
1842.0,75.9,,,,,75.9,
1845.0,77.3,,,,,77.3,
1848.0,78.0,,,,,78.0,
1851.0,77.6,,,,,77.6,
1854.0,77.7,,,,,77.7,
1857.0,77.7,,,,,77.7,
1860.0,80.2,,,,,80.2,
1863.0,80.0,,,,,80.0,
1866.0,80.6,,,,,80.6,
1869.0,79.0,,,,,79.0,
1872.0,77.7,,,,,77.7,
1875.0,78.1,,,,,78.1,
1878.0,78.4,,,,,78.4,
1881.0,77.9,,,,,77.9,
1884.0,78.8,,,,,78.8,
1887.0,78.7,,,,,78.7,
1890.0,78.7,,,,,78.7,
1893.0,77.2,,,,,77.2,
1896.0,78.4,,,,,78.4,
1899.0,77.6,,,,,77.6,
1902.0,76.4,,,,,76.4,
1905.0,76.6,,,,,76.6,
1908.0,77.3,,,,,77.3,
1911.0,78.3,,,,,78.3,
1914.0,78.5,,,,,78.5,
1917.0,77.4,,,,,77.4,
1920.0,78.1,,,,,78.1,
1923.0,76.3,,,,,76.3,
1926.0,75.6,,,,,75.6,
1929.0,76.1,,,,,76.1,
1932.0,75.1,,,,,75.1,
1935.0,73.2,,,,,73.2,
1938.0,72.9,,,,,72.9,
1941.0,72.3,,,,,72.3,
1944.0,74.1,,,,,74.1,
1947.0,75.2,,,,,75.2,
1950.0,74.3,,,,,74.3,
1953.0,75.6,,,,,75.6,
1956.0,76.2,,,,,76.2,
1959.0,76.6,,,,,76.6,
1962.0,74.9,,,,,74.9,
1965.0,75.2,,,,,75.2,
1968.0,73.4,,,,,73.4,
1971.0,74.0,,,,,74.0,
1974.0,73.2,,,,,73.2,
1977.0,74.5,,,,,74.5,
1980.0,73.7,,,,,73.7,
1983.0,71.3,,,,,71.3,
1986.0,71.4,,,,,71.4,
1989.0,72.4,,,,,72.4,
1992.0,72.5,,,,,72.5,
1995.0,74.0,,,,,74.0,
1998.0,75.8,,,,,75.8,
2001.0,77.8,,,,,77.8,
2004.0,79.0,,,,,79.0,
2007.0,77.9,,,,,77.9,
2010.0,76.0,,,,,76.0,
2013.0,76.0,,,,,76.0,
2016.0,74.3,,,,,74.3,
2019.0,74.1,,,,,74.1,
2022.0,75.5,,,,,75.5,
2025.0,72.9,,,,,72.9,
2028.0,70.3,,,,,70.3,
2031.0,69.3,,,,,69.3,
2034.0,68.6,,,,,68.6,
2037.0,72.1,,,,,72.1,
2040.0,72.7,,,,,72.7,
2043.0,72.0,,,,,72.0,
2046.0,71.6,,,,,71.6,
2049.0,71.0,,,,,71.0,
2052.0,69.2,,,,,69.2,
2055.0,69.0,,,,,69.0,
2058.0,71.9,,,,,71.9,
2061.0,69.6,,,,,69.6,
2064.0,71.2,,,,,71.2,
2067.0,72.1,,,,,72.1,
2070.0,68.6,,,,,68.6,
2073.0,67.8,,,,,67.8,
2076.0,66.9,,,,,66.9,
2079.0,67.7,,,,,67.7,
2082.0,67.4,,,,,67.4,
2085.0,69.8,,,,,69.8,
2088.0,69.0,,,,,69.0,
2091.0,68.0,,,,,68.0,
2094.0,66.8,,,,,66.8,
2097.0,68.4,,,,,68.4,
2100.0,68.9,,,,,68.9,
2103.0,68.7,,,,,68.7,
2106.0,69.6,,,,,69.6,
2109.0,68.0,,,,,68.0,
2112.0,69.7,,,,,69.7,
2115.0,69.0,,,,,69.0,
2118.0,70.4,,,,,70.4,
2121.0,71.7,,,,,71.7,
2124.0,73.3,,,,,73.3,
2127.0,73.2,,,,,73.2,
2130.0,73.6,,,,,73.6,
2133.0,71.9,,,,,71.9,
2136.0,71.2,,,,,71.2,
2139.0,70.0,,,,,70.0,
2142.0,71.8,,,,,71.8,
2145.0,72.6,,,,,72.6,
2148.0,73.5,,,,,73.5,
2151.0,71.9,,,,,71.9,
2154.0,71.3,,,,,71.3,
2157.0,73.3,,,,,73.3,
2160.0,75.8,,,,,75.8,
2163.0,76.2,,,,,76.2,
2166.0,75.5,,,,,75.5,
2169.0,73.0,,,,,73.0,
2172.0,74.3,,,,,74.3,
2175.0,72.8,,,,,72.8,
2178.0,72.5,,,,,72.5,
2181.0,74.2,,,,,74.2,
2184.0,74.6,,,,,74.6,
2187.0,74.5,,,,,74.5,
2190.0,74.7,,,,,74.7,
2193.0,73.8,,,,,73.8,
2196.0,74.1,,,,,74.1,
2199.0,74.4,,,,,74.4,
2202.0,73.3,,,,,73.3,
2205.0,73.8,,,,,73.8,
2208.0,73.7,,,,,73.7,
2211.0,72.6,,,,,72.6,
2214.0,75.3,,,,,75.3,
2217.0,76.6,,,,,76.6,
2220.0,75.4,,,,,75.4,
2223.0,77.0,,,,,77.0,
2226.0,76.9,,,,,76.9,
2229.0,78.4,,,,,78.4,
2232.0,80.5,,,,,80.5,
2235.0,79.5,,,,,79.5,
2238.0,81.7,,,,,81.7,
2241.0,82.0,,,,,82.0,
2244.0,80.5,,,,,80.5,
2247.0,82.0,,,,,82.0,
2250.0,80.5,,,,,80.5,
2253.0,79.5,,,,,79.5,
2256.0,79.3,,,,,79.3,
2259.0,79.9,,,,,79.9,
2262.0,81.1,,,,,81.1,
2265.0,80.4,,,,,80.4,
2268.0,80.7,,,,,80.7,
2271.0,82.9,,,,,82.9,
2274.0,84.2,,,,,84.2,
2277.0,83.9,,,,,83.9,
2280.0,83.5,,,,,83.5,
2283.0,84.9,,,,,84.9,
2286.0,85.8,,,,,85.8,
2289.0,81.6,,,,,81.6,
2292.0,81.2,,,,,81.2,
2295.0,83.5,,,,,83.5,
2298.0,84.8,,,,,84.8,
2301.0,85.2,,,,,85.2,
2304.0,84.9,,,,,84.9,
2307.0,85.7,,,,,85.7,
2310.0,84.2,,,,,84.2,
2313.0,84.9,,,,,84.9,
2316.0,87.3,,,,,87.3,
2319.0,86.5,,,,,86.5,
2322.0,87.0,,,,,87.0,
2325.0,86.4,,,,,86.4,
2328.0,85.2,,,,,85.2,
2331.0,84.1,,,,,84.1,
2334.0,83.7,,,,,83.7,
2337.0,86.9,,,,,86.9,
2340.0,86.0,,,,,86.0,
2343.0,88.2,,,,,88.2,
2346.0,85.8,,,,,85.8,
2349.0,84.1,,,,,84.1,
2352.0,85.4,,,,,85.4,
2355.0,87.9,,,,,87.9,
2358.0,87.4,,,,,87.4,
2361.0,85.7,,,,,85.7,
2364.0,85.0,,,,,85.0,
2367.0,84.4,,,,,84.4,
2370.0,85.5,,,,,85.5,
2373.0,83.6,,,,,83.6,
2376.0,83.3,,,,,83.3,
2379.0,83.4,,,,,83.4,
2382.0,86.6,,,,,86.6,
2385.0,89.4,,,,,89.4,
2388.0,87.1,,,,,87.1,
2391.0,87.4,,,,,87.4,
2394.0,88.1,,,,,88.1,
2397.0,90.1,,,,,90.1,
2400.0,88.8,,,,,88.8,
2403.0,88.3,,,,,88.3,
2406.0,86.1,,,,,86.1,
2409.0,88.6,,,,,88.6,
2412.0,88.5,,,,,88.5,
2415.0,88.5,,,,,88.5,
2418.0,90.0,,,,,90.0,
2421.0,87.0,,,,,87.0,
2424.0,87.3,,,,,87.3,
2427.0,85.0,,,,,85.0,
2430.0,84.2,,,,,84.2,
2433.0,82.9,,,,,82.9,
2436.0,85.3,,,,,85.3,
2439.0,84.2,,,,,84.2,
2442.0,84.5,,,,,84.5,
2445.0,83.5,,,,,83.5,
2448.0,82.8,,,,,82.8,
2451.0,81.6,,,,,81.6,
2454.0,82.5,,,,,82.5,
2457.0,82.0,,,,,82.0,
2460.0,78.8,,,,,78.8,
2463.0,79.3,,,,,79.3,
2466.0,79.5,,,,,79.5,
2469.0,79.7,,,,,79.7,
2472.0,79.9,,,,,79.9,
2475.0,80.0,,,,,80.0,
2478.0,79.6,,,,,79.6,
2481.0,78.7,,,,,78.7,
2484.0,78.0,,,,,78.0,
2487.0,77.0,,,,,77.0,
2490.0,77.4,,,,,77.4,
2493.0,77.5,,,,,77.5,
2496.0,77.4,,,,,77.4,
2499.0,78.6,,,,,78.6,
2502.0,79.0,,,,,79.0,
2505.0,76.4,,,,,76.4,
2508.0,77.0,,,,,77.0,
2511.0,78.0,,,,,78.0,
2514.0,77.9,,,,,77.9,
2517.0,78.5,,,,,78.5,
2520.0,78.0,,,,,78.0,
2523.0,77.3,,,,,77.3,
2526.0,77.8,,,,,77.8,
2529.0,79.1,,,,,79.1,
2532.0,78.6,,,,,78.6,
2535.0,78.4,,,,,78.4,
2538.0,78.0,,,,,78.0,
2541.0,77.6,,,,,77.6,
2544.0,77.0,,,,,77.0,
2547.0,76.8,,,,,76.8,
2550.0,75.3,,,,,75.3,
2553.0,75.5,,,,,75.5,
2556.0,74.6,,,,,74.6,
2559.0,75.7,,,,,75.7,
2562.0,76.5,,,,,76.5,
2565.0,76.1,,,,,76.1,
2568.0,76.6,,,,,76.6,
2571.0,74.7,,,,,74.7,
2574.0,73.8,,,,,73.8,
2577.0,74.7,,,,,74.7,
2580.0,75.2,,,,,75.2,
2583.0,74.0,,,,,74.0,
2586.0,72.2,,,,,72.2,
2589.0,74.6,,,,,74.6,
2592.0,75.7,,,,,75.7,
2595.0,77.1,,,,,77.1,
2598.0,76.6,,,,,76.6,
2601.0,76.0,,,,,76.0,
2604.0,74.6,,,,,74.6,
2607.0,74.5,,,,,74.5,
2610.0,77.2,,,,,77.2,
2613.0,77.3,,,,,77.3,
2616.0,77.4,,,,,77.4,
2619.0,78.6,,,,,78.6,
2622.0,78.0,,,,,78.0,
2625.0,77.1,,,,,77.1,
2628.0,78.4,,,,,78.4,
2631.0,79.0,,,,,79.0,
2634.0,81.1,,,,,81.1,
2637.0,80.0,,,,,80.0,
2640.0,80.2,,,,,80.2,
2643.0,79.2,,,,,79.2,
2646.0,81.3,,,,,81.3,
2649.0,82.7,,,,,82.7,
2652.0,80.4,,,,,80.4,
2655.0,82.1,,,,,82.1,
2658.0,81.8,,,,,81.8,
2661.0,82.2,,,,,82.2,
2664.0,81.6,,,,,81.6,
2667.0,81.6,,,,,81.6,
2670.0,81.6,,,,,81.6,
2673.0,78.9,,,,,78.9,
2676.0,77.9,,,,,77.9,
2679.0,83.5,,,,,83.5,
2682.0,82.0,,,,,82.0,
2685.0,82.9,,,,,82.9,
2688.0,83.7,,,,,83.7,
2691.0,82.2,,,,,82.2,
2694.0,83.5,,,,,83.5,
2697.0,82.9,,,,,82.9,
2700.0,84.6,,,,,84.6,
2703.0,85.0,,,,,85.0,
2706.0,83.6,,,,,83.6,
2709.0,84.8,,,,,84.8,
2712.0,87.4,,,,,87.4,
2715.0,90.8,,,,,90.8,
2718.0,88.8,,,,,88.8,
2721.0,90.6,,,,,90.6,
2724.0,90.4,,,,,90.4,
2727.0,89.3,,,,,89.3,
2730.0,90.6,,,,,90.6,
2733.0,89.8,,,,,89.8,
2736.0,93.5,,,,,93.5,
2739.0,93.3,,,,,93.3,
2742.0,93.1,,,,,93.1,
2745.0,94.6,,,,,94.6,
2748.0,95.0,,,,,95.0,
2751.0,95.0,,,,,95.0,
2754.0,92.5,,,,,92.5,
2757.0,92.4,,,,,92.4,
2760.0,89.7,,,,,89.7,
2763.0,89.7,,,,,89.7,
2766.0,91.1,,,,,91.1,
2769.0,89.6,,,,,89.6,
2772.0,90.6,,,,,90.6,
2775.0,92.6,,,,,92.6,
2778.0,91.4,,,,,91.4,
2781.0,93.6,,,,,93.6,
2784.0,92.3,,,,,92.3,
2787.0,91.6,,,,,91.6,
2790.0,92.9,,,,,92.9,
2793.0,91.3,,,,,91.3,
2796.0,90.9,,,,,90.9,
2799.0,91.9,,,,,91.9,
2802.0,92.9,,,,,92.9,
2805.0,92.2,,,,,92.2,
2808.0,91.9,,,,,91.9,
2811.0,92.5,,,,,92.5,
2814.0,92.4,,,,,92.4,
2817.0,92.6,,,,,92.6,
2820.0,91.1,,,,,91.1,
2823.0,92.6,,,,,92.6,
2826.0,93.5,,,,,93.5,
2829.0,92.8,,,,,92.8,
2832.0,93.4,,,,,93.4,
2835.0,95.3,,,,,95.3,
2838.0,95.3,,,,,95.3,
2841.0,92.9,,,,,92.9,
2844.0,94.1,,,,,94.1,
2847.0,93.0,,,,,93.0,
2850.0,94.7,,,,,94.7,
2853.0,93.5,,,,,93.5,
2856.0,93.5,,,,,93.5,
2859.0,92.5,,,,,92.5,
2862.0,90.2,,,,,90.2,
2865.0,91.7,,,,,91.7,
2868.0,91.3,,,,,91.3,
2871.0,91.9,,,,,91.9,
2874.0,90.4,,,,,90.4,
2877.0,91.9,,,,,91.9,
2880.0,90.8,,,,,90.8,
2883.0,91.2,,,,,91.2,
2886.0,93.2,,,,,93.2,
2889.0,88.7,,,,,88.7,
2892.0,89.9,,,,,89.9,
2895.0,91.0,,,,,91.0,
2898.0,91.7,,,,,91.7,
2901.0,91.1,,,,,91.1,
2904.0,89.8,,,,,89.8,
2907.0,89.5,,,,,89.5,
2910.0,89.5,,,,,89.5,
2913.0,88.3,,,,,88.3,
2916.0,88.8,,,,,88.8,
2919.0,88.6,,,,,88.6,
2922.0,89.2,,,,,89.2,
2925.0,88.3,,,,,88.3,
2928.0,86.9,,,,,86.9,
2931.0,84.9,,,,,84.9,
2934.0,85.1,,,,,85.1,
2937.0,87.1,,,,,87.1,
2940.0,88.1,,,,,88.1,
2943.0,85.9,,,,,85.9,
2946.0,87.4,,,,,87.4,
2949.0,87.1,,,,,87.1,
2952.0,86.2,,,,,86.2,
2955.0,86.4,,,,,86.4,
2958.0,85.4,,,,,85.4,
2961.0,85.2,,,,,85.2,
2964.0,84.7,,,,,84.7,
2967.0,84.9,,,,,84.9,
2970.0,83.5,,,,,83.5,
2973.0,83.6,,,,,83.6,
2976.0,82.5,,,,,82.5,
2979.0,83.5,,,,,83.5,
2982.0,83.0,,,,,83.0,
2985.0,82.4,,,,,82.4,
2988.0,82.3,,,,,82.3,
2991.0,83.8,,,,,83.8,
2994.0,81.7,,,,,81.7,
2997.0,80.3,,,,,80.3,
3000.0,79.5,,,,,79.5,
3003.0,81.4,,,,,81.4,
3006.0,79.9,,,,,79.9,
3009.0,80.7,,,,,80.7,
3012.0,77.4,,,,,77.4,
3015.0,76.9,,,,,76.9,
3018.0,78.4,,,,,78.4,
3021.0,80.1,,,,,80.1,
3024.0,81.6,,,,,81.6,
3027.0,82.7,,,,,82.7,
3030.0,81.3,,,,,81.3,
3033.0,80.2,,,,,80.2,
3036.0,80.1,,,,,80.1,
3039.0,83.0,,,,,83.0,
3042.0,81.9,,,,,81.9,
3045.0,79.4,,,,,79.4,
3048.0,77.9,,,,,77.9,
3051.0,77.9,,,,,77.9,
3054.0,77.7,,,,,77.7,
3057.0,78.5,,,,,78.5,
3060.0,78.1,,,,,78.1,
3063.0,79.0,,,,,79.0,
3066.0,78.7,,,,,78.7,
3069.0,77.6,,,,,77.6,
3072.0,78.5,,,,,78.5,
3075.0,78.2,,,,,78.2,
3078.0,75.4,,,,,75.4,
3081.0,75.1,,,,,75.1,
3084.0,74.9,,,,,74.9,
3087.0,77.6,,,,,77.6,
3090.0,77.6,,,,,77.6,
3093.0,77.2,,,,,77.2,
3096.0,77.5,,,,,77.5,
3099.0,73.7,,,,,73.7,
3102.0,74.2,,,,,74.2,
3105.0,73.4,,,,,73.4,
3108.0,75.4,,,,,75.4,
3111.0,75.2,,,,,75.2,
3114.0,75.2,,,,,75.2,
3117.0,76.6,,,,,76.6,
3120.0,75.8,,,,,75.8,
3123.0,77.0,,,,,77.0,
3126.0,76.1,,,,,76.1,
3129.0,76.7,,,,,76.7,
3132.0,77.5,,,,,77.5,
3135.0,74.3,,,,,74.3,
3138.0,72.1,,,,,72.1,
3141.0,76.4,,,,,76.4,
3144.0,72.2,,,,,72.2,
3147.0,71.9,,,,,71.9,
3150.0,71.5,,,,,71.5,
3153.0,69.9,,,,,69.9,
3156.0,68.6,,,,,68.6,
3159.0,67.9,,,,,67.9,
3162.0,68.0,,,,,68.0,
3165.0,67.7,,,,,67.7,
3168.0,69.1,,,,,69.1,
3171.0,68.4,,,,,68.4,
3174.0,69.7,,,,,69.7,
3177.0,69.9,,,,,69.9,
3180.0,71.9,,,,,71.9,
3183.0,73.7,,,,,73.7,
3186.0,73.9,,,,,73.9,
3189.0,72.1,,,,,72.1,
3192.0,71.7,,,,,71.7,
3195.0,74.1,,,,,74.1,
3198.0,75.0,,,,,75.0,
3201.0,75.8,,,,,75.8,
3204.0,74.9,,,,,74.9,
3207.0,72.7,,,,,72.7,
3210.0,72.9,,,,,72.9,
3213.0,73.1,,,,,73.1,
3216.0,72.4,,,,,72.4,
3219.0,72.8,,,,,72.8,
3222.0,73.9,,,,,73.9,
3225.0,75.4,,,,,75.4,
3228.0,75.3,,,,,75.3,
3231.0,76.0,,,,,76.0,
3234.0,75.3,,,,,75.3,
3237.0,76.6,,,,,76.6,
3240.0,77.9,,,,,77.9,
3243.0,74.4,,,,,74.4,
3246.0,74.3,,,,,74.3,
3249.0,74.5,,,,,74.5,
3252.0,74.3,,,,,74.3,
3255.0,76.6,,,,,76.6,
3258.0,77.0,,,,,77.0,
3261.0,77.5,,,,,77.5,
3264.0,75.9,,,,,75.9,
3267.0,76.3,,,,,76.3,
3270.0,76.8,,,,,76.8,
3273.0,77.7,,,,,77.7,
3276.0,79.8,,,,,79.8,
3279.0,80.9,,,,,80.9,
3282.0,83.0,,,,,83.0,
3285.0,79.3,,,,,79.3,
3288.0,79.2,,,,,79.2,
3291.0,78.7,,,,,78.7,
3294.0,79.7,,,,,79.7,
3297.0,79.0,,,,,79.0,
3300.0,79.1,,,,,79.1,
3303.0,81.6,,,,,81.6,
3306.0,80.6,,,,,80.6,
3309.0,80.4,,,,,80.4,
3312.0,80.2,,,,,80.2,
3315.0,77.5,,,,,77.5,
3318.0,78.3,,,,,78.3,
3321.0,79.2,,,,,79.2,
3324.0,79.6,,,,,79.6,
3327.0,81.1,,,,,81.1,
3330.0,79.9,,,,,79.9,
3333.0,81.1,,,,,81.1,
3336.0,81.9,,,,,81.9,
3339.0,81.5,,,,,81.5,
3342.0,81.1,,,,,81.1,
3345.0,82.2,,,,,82.2,
3348.0,81.0,,,,,81.0,
3351.0,82.0,,,,,82.0,
3354.0,81.4,,,,,81.4,
3357.0,81.8,,,,,81.8,
3360.0,82.3,,,,,82.3,
3363.0,81.7,,,,,81.7,
3366.0,80.9,,,,,80.9,
3369.0,82.3,,,,,82.3,
3372.0,83.5,,,,,83.5,
3375.0,83.8,,,,,83.8,
3378.0,84.8,,,,,84.8,
3381.0,83.5,,,,,83.5,
3384.0,83.9,,,,,83.9,
3387.0,83.5,,,,,83.5,
3390.0,85.3,,,,,85.3,
3393.0,83.7,,,,,83.7,
3396.0,85.0,,,,,85.0,
3399.0,86.6,,,,,86.6,
3402.0,88.3,,,,,88.3,
3405.0,88.2,,,,,88.2,
3408.0,87.6,,,,,87.6,
3411.0,87.6,,,,,87.6,
3414.0,87.9,,,,,87.9,
3417.0,90.6,,,,,90.6,
3420.0,88.7,,,,,88.7,
3423.0,88.8,,,,,88.8,
3426.0,88.1,,,,,88.1,
3429.0,88.8,,,,,88.8,
3432.0,88.9,,,,,88.9,
3435.0,87.2,,,,,87.2,
3438.0,89.1,,,,,89.1,
3441.0,89.3,,,,,89.3,
3444.0,88.6,,,,,88.6,
3447.0,89.1,,,,,89.1,
3450.0,88.6,,,,,88.6,
3453.0,87.3,,,,,87.3,
3456.0,88.9,,,,,88.9,
3459.0,90.8,,,,,90.8,
3462.0,92.9,,,,,92.9,
3465.0,94.0,,,,,94.0,
3468.0,91.2,,,,,91.2,
3471.0,89.5,,,,,89.5,
3474.0,88.9,,,,,88.9,
3477.0,90.7,,,,,90.7,
3480.0,90.4,,,,,90.4,
3483.0,90.9,,,,,90.9,
3486.0,90.5,,,,,90.5,
3489.0,89.2,,,,,89.2,
3492.0,89.3,,,,,89.3,
3495.0,88.8,,,,,88.8,
3498.0,91.6,,,,,91.6,
3501.0,94.1,,,,,94.1,
3504.0,95.4,,,,,95.4,
3507.0,93.4,,,,,93.4,
3510.0,92.0,,,,,92.0,
3513.0,93.0,,,,,93.0,
3516.0,93.0,,,,,93.0,
3519.0,93.1,,,,,93.1,
3522.0,90.3,,,,,90.3,
3525.0,91.7,,,,,91.7,
3528.0,91.9,,,,,91.9,
3531.0,92.6,,,,,92.6,
3534.0,92.5,,,,,92.5,
3537.0,88.5,,,,,88.5,
3540.0,88.4,,,,,88.4,
3543.0,89.4,,,,,89.4,
3546.0,91.2,,,,,91.2,
3549.0,94.8,,,,,94.8,
3552.0,94.5,,,,,94.5,
3555.0,94.3,,,,,94.3,
3558.0,94.7,,,,,94.7,
3561.0,92.8,,,,,92.8,
3564.0,95.1,,,,,95.1,
3567.0,95.3,,,,,95.3,
3570.0,95.5,,,,,95.5,
3573.0,96.2,,,,,96.2,
3576.0,95.4,,,,,95.4,
3579.0,92.8,,,,,92.8,
3582.0,89.9,,,,,89.9,
3585.0,90.0,,,,,90.0,
3588.0,88.3,,,,,88.3,
3591.0,91.3,,,,,91.3,
3594.0,91.1,,,,,91.1,
3597.0,89.1,,,,,89.1,
3600.0,88.9,,,,,88.9,
3603.0,86.0,,,,,86.0,
3606.0,87.1,,,,,87.1,
3609.0,86.6,,,,,86.6,
3612.0,87.3,,,,,87.3,
3615.0,86.5,,,,,86.5,
3618.0,85.4,,,,,85.4,
3621.0,83.8,,,,,83.8,
3624.0,85.3,,,,,85.3,
3627.0,84.1,,,,,84.1,
3630.0,83.6,,,,,83.6,
3633.0,83.7,,,,,83.7,
3636.0,84.3,,,,,84.3,
3639.0,82.2,,,,,82.2,
3642.0,82.0,,,,,82.0,
3645.0,82.0,,,,,82.0,
3648.0,82.9,,,,,82.9,
3651.0,81.7,,,,,81.7,
3654.0,81.7,,,,,81.7,
3657.0,80.1,,,,,80.1,
3660.0,82.8,,,,,82.8,
3663.0,81.8,,,,,81.8,
3666.0,79.4,,,,,79.4,
3669.0,79.5,,,,,79.5,
3672.0,79.7,,,,,79.7,
3675.0,80.0,,,,,80.0,
3678.0,79.8,,,,,79.8,
3681.0,79.8,,,,,79.8,
3684.0,79.7,,,,,79.7,
3687.0,79.7,,,,,79.7,
3690.0,78.2,,,,,78.2,
3693.0,79.2,,,,,79.2,
3696.0,79.3,,,,,79.3,
3699.0,78.1,,,,,78.1,
3702.0,78.3,,,,,78.3,
3705.0,78.3,,,,,78.3,
3708.0,76.8,,,,,76.8,
3711.0,75.7,,,,,75.7,
3714.0,75.3,,,,,75.3,
3717.0,76.6,,,,,76.6,
3720.0,76.4,,,,,76.4,
3723.0,76.3,,,,,76.3,
3726.0,77.0,,,,,77.0,
3729.0,76.6,,,,,76.6,
3732.0,75.9,,,,,75.9,
3735.0,75.4,,,,,75.4,
3738.0,73.7,,,,,73.7,
3741.0,75.3,,,,,75.3,
3744.0,77.1,,,,,77.1,
3747.0,76.5,,,,,76.5,
3750.0,74.7,,,,,74.7,
3753.0,75.8,,,,,75.8,
3756.0,75.8,,,,,75.8,
3759.0,76.5,,,,,76.5,
3762.0,75.0,,,,,75.0,
3765.0,74.4,,,,,74.4,
3768.0,74.3,,,,,74.3,
3771.0,75.0,,,,,75.0,
3774.0,73.9,,,,,73.9,
3777.0,74.5,,,,,74.5,
3780.0,75.2,,,,,75.2,
3783.0,75.6,,,,,75.6,
3786.0,75.7,,,,,75.7,
3789.0,77.2,,,,,77.2,
3792.0,76.5,,,,,76.5,
3795.0,74.8,,,,,74.8,
3798.0,74.8,,,,,74.8,
3801.0,75.6,,,,,75.6,
3804.0,75.5,,,,,75.5,
3807.0,74.7,,,,,74.7,
3810.0,74.8,,,,,74.8,
3813.0,76.1,,,,,76.1,
3816.0,75.3,,,,,75.3,
3819.0,75.8,,,,,75.8,
3822.0,76.7,,,,,76.7,
3825.0,74.6,,,,,74.6,
3828.0,75.0,,,,,75.0,
3831.0,75.2,,,,,75.2,
3834.0,73.9,,,,,73.9,
3837.0,74.0,,,,,74.0,
3840.0,76.5,,,,,76.5,
3843.0,77.6,,,,,77.6,
3846.0,78.3,,,,,78.3,
3849.0,76.9,,,,,76.9,
3852.0,77.3,,,,,77.3,
3855.0,76.0,,,,,76.0,
3858.0,76.2,,,,,76.2,
3861.0,76.4,,,,,76.4,
3864.0,77.5,,,,,77.5,
3867.0,79.3,,,,,79.3,
3870.0,81.1,,,,,81.1,
3873.0,81.7,,,,,81.7,
3876.0,79.6,,,,,79.6,
3879.0,79.2,,,,,79.2,
3882.0,78.8,,,,,78.8,
3885.0,77.6,,,,,77.6,
3888.0,75.7,,,,,75.7,
3891.0,77.2,,,,,77.2,
3894.0,77.6,,,,,77.6,
3897.0,78.5,,,,,78.5,
3900.0,78.6,,,,,78.6,
3903.0,79.1,,,,,79.1,
3906.0,78.7,,,,,78.7,
3909.0,78.4,,,,,78.4,
3912.0,76.1,,,,,76.1,
3915.0,76.2,,,,,76.2,
3918.0,76.2,,,,,76.2,
3921.0,76.7,,,,,76.7,
3924.0,77.0,,,,,77.0,
3927.0,75.3,,,,,75.3,
3930.0,77.7,,,,,77.7,
3933.0,77.6,,,,,77.6,
3936.0,78.1,,,,,78.1,
3939.0,79.6,,,,,79.6,
3942.0,78.1,,,,,78.1,
3945.0,78.0,,,,,78.0,
3948.0,78.6,,,,,78.6,
3951.0,79.4,,,,,79.4,
3954.0,79.2,,,,,79.2,
3957.0,79.8,,,,,79.8,
3960.0,80.8,,,,,80.8,
3963.0,79.0,,,,,79.0,
3966.0,79.0,,,,,79.0,
3969.0,80.1,,,,,80.1,
3972.0,80.0,,,,,80.0,
3975.0,78.4,,,,,78.4,
3978.0,81.2,,,,,81.2,
3981.0,82.4,,,,,82.4,
3984.0,81.6,,,,,81.6,
3987.0,80.9,,,,,80.9,
3990.0,80.9,,,,,80.9,
3993.0,80.1,,,,,80.1,
3996.0,80.5,,,,,80.5,
3999.0,80.6,,,,,80.6,
4002.0,83.0,,,,,83.0,
4005.0,83.0,,,,,83.0,
4008.0,82.5,,,,,82.5,
4011.0,81.5,,,,,81.5,
4014.0,83.4,,,,,83.4,
4017.0,84.5,,,,,84.5,
4020.0,83.7,,,,,83.7,
4023.0,84.8,,,,,84.8,
4026.0,84.4,,,,,84.4,
4029.0,82.8,,,,,82.8,
4032.0,83.6,,,,,83.6,
4035.0,82.0,,,,,82.0,
4038.0,82.5,,,,,82.5,
4041.0,85.0,,,,,85.0,
4044.0,87.8,,,,,87.8,
4047.0,87.4,,,,,87.4,
4050.0,87.1,,,,,87.1,
4053.0,87.0,,,,,87.0,
4056.0,87.6,,,,,87.6,
4059.0,88.1,,,,,88.1,
4062.0,88.9,,,,,88.9,
4065.0,88.2,,,,,88.2,
4068.0,86.4,,,,,86.4,
4071.0,86.9,,,,,86.9,
4074.0,89.4,,,,,89.4,
4077.0,88.9,,,,,88.9,
4080.0,86.0,,,,,86.0,
4083.0,85.4,,,,,85.4,
4086.0,87.5,,,,,87.5,
4089.0,89.7,,,,,89.7,
4092.0,88.7,,,,,88.7,
4095.0,88.6,,,,,88.6,
4098.0,91.5,,,,,91.5,
4101.0,91.4,,,,,91.4,
4104.0,91.9,,,,,91.9,
4107.0,92.0,,,,,92.0,
4110.0,91.6,,,,,91.6,
4113.0,91.9,,,,,91.9,
4116.0,93.8,,,,,93.8,
4119.0,92.4,,,,,92.4,
4122.0,90.9,,,,,90.9,
4125.0,92.0,,,,,92.0,
4128.0,91.9,,,,,91.9,
4131.0,94.4,,,,,94.4,
4134.0,93.0,,,,,93.0,
4137.0,92.6,,,,,92.6,
4140.0,91.9,,,,,91.9,
4143.0,91.2,,,,,91.2,
4146.0,91.5,,,,,91.5,
4149.0,90.0,,,,,90.0,
4152.0,90.9,,,,,90.9,
4154.5,94.0,,,,,94.0,