File: 01_Data/Engineered_Wood_Table/Cone/Engineered_Wood_Table_Cone_HF25Scan_230626_R3.csv
Names,Time,Stack TC,Smoke TC,Exh Press,Smoke Comp,Smoke Meas,CO Meter,CO2 Meter,O2 Meter,Sample Mass,Ext Coeff,Start Test,Flame Verif
Chan Gain,,500,500,1,1,1,1,1,1,1,1,1.0,1.0
Offset,,0,0,0.21304,0,0,0,0,0,0,0,0.0,0.0
Gain,,1,1,25.011,13.9822,15.1223,1,1,1,1.0009,1.0389,1.0,1.0
Units,sec,C,C,Pa,%,%,%,%,%,g,/m,,
Baseline,,44.0408,45.2007,160.983,100.34,100.353,0.000307259,0.04632,20.9739,-444.831,-0.00114584,,
10,2.25,42.717,43.5767,157.078,100.621,100.433,0.000195877,0.047132,20.9752,416.326,0.0170076,0.0,0.0
20,4.75,42.9389,43.5535,160.605,100.614,100.589,0.00026153,0.0490448,20.9717,416.336,0.00228436,0.0,0.0
30,7.25,42.5504,43.8589,162.885,100.64,100.469,0.000335018,0.0514337,20.9688,416.366,0.0154807,0.0,0.0
40,9.75,42.3732,44.4845,161.39,100.638,100.385,0.000329591,0.0550803,20.9666,416.316,0.0229068,0.0,0.0
50,12.25,43.1884,44.4217,156.502,100.663,100.518,0.000162569,0.0589377,20.9644,416.376,0.0131281,0.0,0.0
60,14.75,43.2847,44.0664,163.27,100.671,100.734,6.78605e-05,0.0610142,20.9597,416.366,-0.00569819,0.0,0.0
70,17.25,43.0144,44.6278,161.386,100.69,100.495,0.00033017,0.0614569,20.9576,416.356,0.0176918,0.0,0.0
80,19.75,43.2085,44.8536,159.518,100.713,100.393,0.000635626,0.0605983,20.9568,416.336,0.0290338,0.0,0.0
90,22.25,43.5788,44.9302,163.958,100.736,100.34,0.000700448,0.0601652,20.9572,416.266,0.0358959,0.0,0.0
100,24.75,43.5013,45.1871,159.024,100.744,100.054,0.000659711,0.0599855,20.9583,416.296,0.062657,0.0,0.0
110,27.25,43.3612,44.8041,158.983,100.758,100.246,0.000765029,0.059683,20.9586,416.226,0.0464187,0.0,0.0
120,29.75,43.504,44.6154,158.622,100.78,100.156,0.000734096,0.0597219,20.9588,416.226,0.0565299,0.0,0.0
130,32.25,43.3567,45.0912,156.264,100.804,98.514,0.000476847,0.0585988,20.9582,416.216,0.209376,0.0,0.0
140,34.75,43.3438,45.0389,161.016,100.793,99.3876,0.000324208,0.0567474,20.9578,416.216,0.127991,0.0,0.0
150,37.25,43.4947,45.3976,159.355,100.788,99.9128,0.000252802,0.0543459,20.9593,416.166,0.079461,0.0,0.0
160,39.75,43.6841,45.8313,156.371,100.784,99.9783,0.000424234,0.0528922,20.9599,416.076,0.0731382,0.0,0.0
170,42.25,43.7585,45.4879,162.748,100.803,99.5334,0.00109973,0.0526202,20.9601,416.116,0.115517,0.0,0.0
180,44.75,43.8557,44.9577,160.956,100.798,100.094,0.00167266,0.0528106,20.9592,416.046,0.0638977,0.0,0.0
190,47.25,43.9641,45.2103,159.993,100.812,99.8108,0.00182087,0.0527625,20.957,416.096,0.0909286,0.0,0.0
200,49.75,43.9701,45.1571,158.79,100.8,99.5321,0.00173121,0.0524714,20.9545,416.046,0.115373,0.0,0.0
210,52.25,44.0298,45.3154,160.212,100.807,99.7831,0.00172085,0.0517276,20.9523,416.036,0.0929946,0.0,0.0
220,54.75,44.2634,45.4637,157.813,100.81,99.3964,0.00174236,0.0509988,20.9512,415.996,0.128654,0.0,0.0
230,57.25,44.0372,45.7875,161.959,100.798,99.629,0.00165972,0.0505186,20.9509,415.916,0.106273,0.0,0.0
240,59.75,44.1295,45.5289,160.921,100.804,99.3276,0.00135932,0.0499633,20.9618,415.966,0.134459,0.0,0.0
250,62.25,44.451,45.5281,162.381,100.795,100.043,0.0011266,0.0496168,20.9663,415.896,0.068173,0.0,0.0
260,64.75,44.0193,45.3687,160.878,100.817,99.6294,0.00102757,0.0491066,20.9679,415.926,0.107967,0.0,0.0
270,67.25,43.996,44.7971,160.312,100.804,99.6774,0.000879412,0.0487433,20.9678,415.906,0.102459,0.0,0.0
280,69.75,44.0209,45.6938,161.601,100.808,99.4019,0.000601071,0.0487097,20.9669,415.866,0.12803,0.0,0.0
290,72.25,44.4882,45.3117,160.239,100.81,99.5436,0.00042232,0.0488575,20.9666,415.846,0.115243,0.0,0.0
300,74.75,44.0601,45.6312,160.126,100.798,99.8837,0.000473877,0.0490575,20.9665,415.745,0.083039,0.0,0.0
310,77.25,44.1233,45.1826,160.696,100.816,99.2238,0.000529133,0.0492084,20.9664,415.765,0.145109,0.0,0.0
320,79.75,44.3858,45.7743,163.823,100.801,99.4864,0.000414561,0.049326,20.9664,415.695,0.119595,0.0,0.0
330,82.25,44.6134,45.6069,159.26,100.807,99.2658,0.000451136,0.0495007,20.9681,415.705,0.140404,0.0,0.0
340,84.75,43.978,45.4293,162.528,100.798,99.5644,0.000557934,0.0498925,20.9692,415.705,0.112224,0.0,0.0
350,87.25,43.6294,45.6248,157.793,100.793,98.921,0.00062054,0.0506364,20.9695,415.645,0.170874,0.0,0.0
360,89.75,44.3579,45.9226,161.768,100.795,98.7798,0.000774374,0.051396,20.9706,415.595,0.184047,0.0,0.0
370,92.25,44.3661,45.9793,160.083,100.784,98.7747,0.000983227,0.0522581,20.9716,415.475,0.183513,0.0,0.0
380,94.75,44.1247,45.9858,166.505,100.79,98.7134,0.00119299,0.0532764,20.9707,415.515,0.189756,0.0,0.0
390,97.25,44.4469,46.4835,155.218,100.758,98.5855,0.00120464,0.0542171,20.9701,415.385,0.198671,0.0,0.0
400,99.75,44.6433,46.0923,157.308,100.773,98.8103,0.00112135,0.0552321,20.9713,415.385,0.179231,0.0,0.0
410,102.25,44.5469,46.383,155.536,100.749,97.6907,0.00118108,0.0561544,20.9718,415.325,0.280919,0.0,0.0
420,104.75,44.2015,46.2491,156.339,100.756,98.3239,0.00126122,0.0571159,20.9699,415.255,0.22266,0.0,0.0
430,107.25,44.5006,45.8845,158.165,100.752,97.6902,0.00143198,0.0580252,20.9682,415.195,0.281193,0.0,0.0
440,109.75,44.0485,46.0463,157.129,100.738,97.4964,0.001715,0.0589918,20.9684,415.025,0.298057,0.0,0.0
450,112.25,44.5551,46.1438,162.882,100.728,98.011,0.00192809,0.0600914,20.9684,415.005,0.249159,0.0,0.0
460,114.75,44.6714,45.8349,160.183,100.691,97.6445,0.00202709,0.0609173,20.9698,414.885,0.280012,0.0,0.0
470,117.25,44.4712,46.1481,158.061,100.694,97.3626,0.0021575,0.0614564,20.972,414.875,0.306637,0.0,0.0
480,119.75,44.6754,46.3581,165.39,100.655,97.4138,0.00244121,0.0621536,20.9733,414.734,0.298252,0.0,0.0
490,122.25,44.8211,46.5886,161.118,100.629,96.357,0.00273316,0.0627384,20.975,414.725,0.39538,0.0,0.0
500,124.75,45.1537,46.6825,160.653,100.589,95.8973,0.00315578,0.0637359,20.9773,414.654,0.435245,0.0,0.0
510,127.25,45.109,46.1598,161.63,100.558,97.9321,0.00341577,0.0644677,20.9782,414.544,0.241161,0.0,1.0
520,129.75,46.0755,49.2407,142.849,100.532,98.4383,0.00343485,0.0659582,20.9706,414.234,0.191773,0.0,1.0
530,132.25,47.8018,53.8161,138.643,100.478,96.351,0.00348478,0.0666365,20.9679,413.684,0.382257,0.0,1.0
540,134.75,50.1381,59.0676,140.25,100.462,96.6703,0.00364566,0.0712705,20.967,413.393,0.350631,0.0,0.0
550,137.25,52.2577,63.0013,141.22,100.437,95.4852,0.00406821,0.13335,20.9638,412.703,0.460798,0.0,0.0
560,139.75,54.7916,66.2223,146.064,100.406,94.9508,0.00468879,0.267461,20.9331,412.292,0.509118,0.0,0.0
570,142.25,55.9449,68.0377,136.906,100.386,95.5586,0.00546565,0.392798,20.7927,411.862,0.44915,0.0,0.0
580,144.75,57.7829,69.523,139.352,100.367,95.3588,0.00620467,0.465026,20.6148,411.341,0.466484,0.0,0.0
590,147.25,58.4872,71.3333,142.037,100.37,95.4058,0.00690486,0.49966,20.5055,410.961,0.462296,0.0,0.0
600,149.75,60.0141,71.8336,146.653,100.341,95.7275,0.0074643,0.508874,20.4457,410.471,0.42891,0.0,0.0
610,152.25,60.6732,72.1289,146.785,100.34,95.4529,0.00768785,0.496083,20.4425,410.13,0.45501,0.0,0.0
620,154.75,61.3213,72.7842,142.33,100.312,96.3616,0.00781747,0.472853,20.449,409.62,0.366147,0.0,0.0
630,157.25,62.0102,73.2073,143.4,100.294,96.6306,0.00793332,0.452716,20.47,409.3,0.339109,0.0,0.0
640,159.75,63.0948,74.2374,139.854,100.264,95.9965,0.00787994,0.434803,20.4941,408.899,0.396354,0.0,0.0
650,162.25,63.0703,74.9786,146.231,100.261,96.1544,0.00737534,0.424637,20.5136,408.529,0.381112,0.0,0.0
660,164.75,63.8139,74.472,143.024,100.228,96.5374,0.00692108,0.420556,20.5262,408.169,0.341855,0.0,0.0
670,167.25,64.1667,74.7257,141.147,100.188,96.585,0.00660036,0.418011,20.5318,407.768,0.33376,0.0,0.0
680,169.75,64.9015,74.7131,145.235,100.193,97.0266,0.00622262,0.412209,20.5346,407.508,0.292649,0.0,0.0
690,172.25,64.8465,74.4456,147.23,100.182,96.6053,0.00583753,0.401774,20.5372,407.138,0.33134,0.0,0.0
700,174.75,64.9608,74.0007,150.069,100.179,97.2541,0.00546763,0.388842,20.5543,406.837,0.270023,0.0,0.0
710,177.25,65.1595,74.0945,144.67,100.18,96.9417,0.00513421,0.376905,20.5717,406.497,0.299463,0.0,0.0
720,179.75,64.7962,74.1572,148.119,100.171,97.0815,0.00491632,0.364834,20.5847,406.177,0.285473,0.0,0.0
730,182.25,65.6729,73.7946,140.879,100.187,97.4798,0.00474914,0.35382,20.597,405.877,0.2496,0.0,0.0
740,184.75,65.3536,73.3736,150.373,100.214,97.7239,0.00446153,0.345091,20.6087,405.496,0.229328,0.0,0.0
750,187.25,65.9303,73.711,146.976,100.23,97.7775,0.00423771,0.337909,20.6192,405.316,0.225734,0.0,0.0
760,189.75,65.4056,73.4771,145.998,100.263,97.9482,0.00399137,0.330914,20.6264,404.986,0.212898,0.0,0.0
770,192.25,65.8105,73.2099,148.852,100.283,97.9888,0.00366221,0.325843,20.6344,404.715,0.210904,0.0,0.0
780,194.75,65.9457,72.6212,149.998,100.298,98.244,0.00341302,0.322005,20.6403,404.395,0.188595,0.0,0.0
790,197.25,65.5139,72.5414,143.829,100.312,98.8444,0.00339225,0.316679,20.6463,404.075,0.134273,0.0,0.0
800,199.75,65.7089,72.2316,145.18,100.364,98.4088,0.00342737,0.311746,20.6529,403.855,0.179256,0.0,0.0
810,202.25,65.4825,71.8742,143.046,100.391,98.0991,0.0033863,0.307361,20.6593,403.514,0.210457,0.0,0.0
820,204.75,65.6623,72.034,154.096,100.423,98.2925,0.00320701,0.302204,20.6644,403.364,0.195416,0.0,0.0
830,207.25,65.2499,71.5584,146.608,100.486,98.3552,0.00307819,0.29745,20.6682,403.054,0.195327,0.0,0.0
840,209.75,65.59,71.9472,150.813,100.51,98.3285,0.00289152,0.293587,20.6726,402.834,0.200013,0.0,0.0
850,212.25,65.5886,71.5023,151.745,100.556,98.0064,0.00262853,0.290453,20.6767,402.604,0.234056,0.0,0.0
860,214.75,65.4131,70.6406,151.748,100.58,98.8024,0.00249014,0.287078,20.6806,402.283,0.162457,0.0,0.0
870,217.25,65.4411,71.3021,147.147,100.65,98.8754,0.00233197,0.28322,20.6842,402.113,0.162111,0.0,0.0
880,219.75,65.0888,70.9071,143.878,100.69,98.9658,0.00213198,0.277131,20.6886,401.813,0.157371,0.0,0.0
890,222.25,64.896,69.9728,148.565,100.726,98.9815,0.00205572,0.271667,20.6927,401.683,0.159209,0.0,0.0
900,224.75,64.9098,69.5438,151.924,100.753,98.8837,0.00203728,0.265748,20.6996,401.453,0.170691,0.0,0.0
910,227.25,64.4871,69.4557,153.222,100.787,98.921,0.00208744,0.261156,20.7079,401.252,0.170333,0.0,0.0
920,229.75,64.5742,69.2735,151.501,100.819,98.988,0.00204608,0.257752,20.7136,401.012,0.167064,0.0,0.0
930,232.25,64.0073,68.8457,152.373,100.839,99.1384,0.0019386,0.253077,20.7188,400.742,0.154959,0.0,0.0
940,234.75,64.4014,69.036,149.515,100.876,99.0766,0.00193045,0.248915,20.7238,400.602,0.164039,0.0,0.0
950,237.25,64.1687,68.7567,149.178,100.884,99.1716,0.00183727,0.245038,20.7274,400.322,0.155992,0.0,0.0
960,239.75,63.9747,68.3196,152.949,100.903,99.011,0.00163681,0.241395,20.7327,400.211,0.172497,0.0,0.0
970,242.25,63.4385,68.141,148.646,100.901,99.4218,0.00152211,0.238652,20.7367,399.961,0.134616,0.0,0.0
980,244.75,63.3039,67.9236,153.602,100.921,99.3659,0.00158196,0.23637,20.7397,399.821,0.141547,0.0,0.0
990,247.25,63.2985,68.0105,151.657,100.929,99.0313,0.00174414,0.233394,20.7423,399.621,0.172978,0.0,0.0
1000,249.75,63.3146,67.4833,147.418,100.942,99.2344,0.00180862,0.229886,20.7471,399.351,0.155507,0.0,0.0
1010,252.25,62.9715,66.8259,154.085,100.956,99.0793,0.00180605,0.227033,20.7515,399.23,0.170989,0.0,0.0
1020,254.75,63.0323,67.0487,151.19,100.955,99.7863,0.00178752,0.225352,20.7558,398.98,0.106114,0.0,0.0
1030,257.25,62.2784,66.6104,149.65,100.984,99.4185,0.00170886,0.223321,20.7589,398.87,0.142347,0.0,0.0
1040,259.75,62.6567,66.6046,155.79,101.021,99.1679,0.00170261,0.221619,20.7611,398.67,0.168735,0.0,0.0
1050,262.25,62.1597,65.9573,151.424,101.021,99.0138,0.00167439,0.219769,20.7645,398.49,0.182872,0.0,0.0
1060,264.75,62.661,66.141,151.946,101.021,99.3885,0.00158417,0.217692,20.7649,398.27,0.148485,0.0,0.0
1070,267.25,61.7324,65.6954,152.366,101.022,99.3562,0.00140934,0.216775,20.7649,398.099,0.151486,0.0,0.0
1080,269.75,62.2384,65.4574,152.045,101.034,99.3235,0.00143731,0.213958,20.7674,397.949,0.15557,0.0,0.0
1090,272.25,61.7529,65.6324,155.71,101.038,99.2861,0.00144594,0.211834,20.7696,397.729,0.159386,0.0,0.0
1100,274.75,61.698,65.606,151.815,101.04,99.0507,0.00149779,0.210268,20.7727,397.619,0.181245,0.0,0.0
1110,277.25,61.9463,65.3213,149.554,101.034,99.2561,0.00155719,0.208796,20.7757,397.369,0.161831,0.0,0.0
1120,279.75,61.2703,65.2469,151.403,101.028,99.4504,0.00156972,0.208883,20.7782,397.249,0.143471,0.0,0.0
1130,282.25,61.3816,65.2714,148.614,101.031,99.5976,0.00151113,0.207959,20.7789,397.089,0.130184,0.0,0.0
1140,284.75,61.5328,64.9195,152.302,101.011,99.4804,0.0015054,0.206457,20.7794,396.928,0.139144,0.0,0.0
1150,287.25,61.2485,64.6435,153.22,101.012,99.0886,0.00160652,0.205352,20.7799,396.768,0.175185,0.0,0.0
1160,289.75,60.8543,64.6743,149.539,100.984,99.1116,0.00169193,0.204018,20.7817,396.498,0.170562,0.0,0.0
1170,292.25,61.0516,64.5099,151.57,100.983,98.8703,0.00160896,0.202781,20.7825,396.398,0.192704,0.0,0.0
1180,294.75,60.9171,63.8727,147.264,100.953,98.9907,0.00155585,0.201172,20.7853,396.188,0.178913,0.0,0.0
1190,297.25,60.9083,64.2267,152.12,100.94,99.4845,0.00158899,0.1989,20.7875,396.088,0.132333,0.0,0.0
1200,299.75,60.6702,63.519,148.933,100.913,98.8283,0.0015636,0.196999,20.7906,395.908,0.190258,0.0,0.0
1210,302.25,60.5955,63.5924,151.751,100.885,99.1366,0.00153515,0.195622,20.7918,395.677,0.15937,0.0,0.0
1220,304.75,60.2669,63.5948,150.684,100.846,99.1264,0.00153371,0.193873,20.7939,395.607,0.156757,0.0,0.0
1230,307.25,60.386,63.4356,152.947,100.758,99.2939,0.00162887,0.191243,20.7966,395.377,0.133421,0.0,0.0
1240,309.75,60.1732,63.0232,153.808,100.699,99.1592,0.00177415,0.1901,20.7995,395.297,0.140431,0.0,0.0
1250,312.25,60.0366,62.9619,150.195,100.636,98.8366,0.00190169,0.189242,20.8009,395.117,0.164411,0.0,0.0
1260,314.75,60.3587,62.5598,154.98,100.588,98.7023,0.00196526,0.187566,20.8014,395.007,0.172472,0.0,0.0
1270,317.25,59.8636,62.6652,154.914,100.598,98.8703,0.00198515,0.185555,20.8022,394.847,0.157865,0.0,0.0
1280,319.75,59.8886,62.5003,150.358,100.644,98.9778,0.00188395,0.183611,20.8048,394.666,0.152132,0.0,0.0
1290,322.25,59.8494,63.0008,151.464,100.665,98.9183,0.00165471,0.182924,20.8082,394.556,0.159509,0.0,0.0
1300,324.75,59.6568,62.0792,154.014,100.6875,99.1513,0.00163324,0.18147,20.8106,394.296,0.14011,0.0,0.0
1310,327.25,59.6576,62.8573,150.742,100.718,99.3221,0.00181602,0.180019,20.8114,394.236,0.127172,0.0,0.0
1320,329.75,59.1543,61.9997,152.892,100.76,98.9686,0.00176403,0.17866,20.8137,394.086,0.163447,0.0,0.0
1330,332.25,58.9776,62.1017,152.502,100.799,99.2829,0.00161208,0.177507,20.8163,393.956,0.138142,0.0,0.0
1340,334.75,59.3781,62.2318,154.163,100.83,99.0927,0.00165791,0.176491,20.8155,393.816,0.158389,0.0,0.0
1350,337.25,58.7841,61.5961,153.16,100.866,99.4111,0.00178596,0.175269,20.8151,393.655,0.13239,0.0,0.0
1360,339.75,59.0904,61.7624,150.946,100.931,98.9792,0.00177896,0.174058,20.8164,393.565,0.177971,0.0,0.0
1370,342.25,59.1133,61.5864,158.678,100.943,99.2376,0.00171935,0.172813,20.8179,393.325,0.155247,0.0,0.0
1380,344.75,58.7996,62.0334,152.296,100.976,99.4938,0.00178779,0.171786,20.8189,393.275,0.134723,0.0,0.0
1390,347.25,58.455,61.612,152.129,100.989,98.8772,0.00189993,0.170899,20.8211,393.075,0.192605,0.0,0.0
1400,349.75,58.3888,61.2691,152.654,101.016,99.4518,0.00203463,0.16992,20.8227,392.975,0.142227,0.0,0.0
1410,352.25,58.6375,61.1745,151.832,101.039,99.0655,0.00217754,0.169607,20.8241,392.885,0.179771,0.0,0.0
1420,354.75,58.747,61.2104,159.001,101.065,99.2939,0.00224575,0.168561,20.8252,392.685,0.16109,0.0,0.0
1430,357.25,58.6168,60.8845,153.715,101.104,99.2219,0.00223301,0.167062,20.8264,392.605,0.1712,0.0,0.0
1440,359.75,58.338,60.967,154.478,101.142,99.4813,0.00210742,0.165672,20.8287,392.374,0.150909,0.0,0.0
1450,362.25,58.1066,61.1075,153.632,101.216,99.5925,0.00188698,0.165148,20.8307,392.324,0.147376,0.0,0.0
1460,364.75,58.2596,60.6433,154.532,101.267,99.7956,0.00196249,0.164182,20.8319,392.154,0.133423,0.0,0.0
1470,367.25,58.4237,60.5989,156.485,101.321,99.7291,0.00229319,0.163054,20.8329,392.064,0.14433,0.0,0.0
1480,369.75,58.3397,60.1151,156.247,101.367,100.116,0.00237855,0.161831,20.8342,391.924,0.113123,0.0,0.0
1490,372.25,58.0975,60.2943,153.855,101.389,99.5874,0.00248183,0.160517,20.8359,391.774,0.163386,0.0,0.0
1500,374.75,57.5064,60.2214,155.552,101.439,99.833,0.00272942,0.1598,20.8382,391.674,0.145471,0.0,0.0
1510,377.25,57.9016,59.6178,153.886,101.475,99.641,0.00283868,0.158502,20.8385,391.453,0.166233,0.0,0.0
1520,379.75,57.9319,59.9297,153.434,101.489,99.6119,0.00274486,0.157032,20.8386,391.403,0.170156,0.0,0.0
1530,382.25,57.4284,59.8244,159.159,101.508,99.6137,0.00272293,0.156238,20.8394,391.233,0.171674,0.0,0.0
1540,384.75,57.6487,59.5362,156.145,101.511,99.617,0.00278322,0.155624,20.8407,391.173,0.171684,0.0,0.0
1550,387.25,57.4964,59.3032,159.33,101.514,99.904,0.0027769,0.154884,20.8422,391.043,0.14573,0.0,0.0
1560,389.75,57.0205,59.2496,152.36,101.516,99.5745,0.00273636,0.154191,20.8436,390.893,0.175991,0.0,0.0
1570,392.25,57.3389,59.17,152.394,101.526,100.039,0.00277993,0.153427,20.8448,390.773,0.134519,0.0,0.0
1580,394.75,57.0169,59.2265,152.573,101.513,99.8048,0.00291539,0.152947,20.8453,390.583,0.154671,0.0,0.0
1590,397.25,57.5498,59.1211,153.982,101.498,100.04,0.00299115,0.152039,20.8452,390.533,0.131865,0.0,0.0
1600,399.75,57.3406,59.2286,156.374,101.479,99.5081,0.00299456,0.150747,20.8464,390.363,0.178703,0.0,0.0
1610,402.25,57.3811,59.3216,153.646,101.461,99.7134,0.00294418,0.150011,20.8481,390.302,0.158344,0.0,0.0
1620,404.75,57.3128,59.2474,152.574,101.431,99.5556,0.00295822,0.14995,20.8491,390.172,0.170058,0.0,0.0
1630,407.25,56.6944,59.5374,152.675,101.384,99.4748,0.00312227,0.149917,20.8497,390.042,0.173275,0.0,0.0
1640,409.75,57.6062,59.8221,152.952,101.359,99.6959,0.00308386,0.149949,20.8503,389.962,0.150782,0.0,0.0
1650,412.25,57.0448,59.3473,150.652,101.301,99.203,0.00313218,0.149517,20.8505,389.772,0.19069,0.0,0.0
1660,414.75,56.8406,58.9021,154.808,101.279,99.3599,0.00340614,0.149144,20.8506,389.712,0.174367,0.0,0.0
1670,417.25,56.8141,59.2056,155.204,101.24,99.6594,0.00363868,0.148994,20.8506,389.582,0.143406,0.0,0.0
1680,419.75,56.6999,59.2657,156.017,101.203,99.2639,0.00362313,0.149389,20.8506,389.452,0.176262,0.0,0.0
1690,422.25,56.2287,58.794,154.089,101.167,99.5362,0.00337061,0.148704,20.8506,389.352,0.148072,0.0,0.0
1700,424.75,56.2771,59.0343,153.636,101.113,99.0835,0.00324149,0.147988,20.8531,389.171,0.184771,0.0,0.0
1710,427.25,56.5143,58.7399,159.914,101.096,99.0406,0.00329501,0.147165,20.8535,389.071,0.18722,0.0,0.0
1720,429.75,56.6381,58.5709,156.52,101.034,99.1066,0.00328184,0.146255,20.8517,388.871,0.175493,0.0,0.0
1730,432.25,56.0429,57.9363,159.174,101.016,99.4388,0.00329657,0.145465,20.8525,388.861,0.143451,0.0,0.0
1740,434.75,56.1565,58.3469,154.485,100.999,99.6165,0.00339573,0.144793,20.8528,388.761,0.125643,0.0,0.0
1750,437.25,56.3657,58.3606,154.737,100.987,99.1439,0.00323776,0.144745,20.8529,388.621,0.167861,0.0,0.0
1760,439.75,56.1739,58.3958,156.935,100.948,99.0378,0.00318342,0.144653,20.8532,388.541,0.174118,0.0,0.0
1770,442.25,56.3264,58.4384,155.045,100.927,99.2902,0.00320757,0.144784,20.8536,388.301,0.14903,0.0,0.0
1780,444.75,55.6506,58.2819,153.493,100.92,99.0826,0.00320024,0.145637,20.8544,388.261,0.167418,0.0,0.0
1790,447.25,55.9173,57.9911,155.78,100.874,98.909,0.00321429,0.145518,20.855,388.08,0.179268,0.0,0.0
1800,449.75,55.9069,58.1639,153.089,100.855,99.2829,0.00322398,0.144959,20.8557,388.03,0.143156,0.0,0.0
1810,452.25,55.8067,57.4753,156.178,100.819,98.9289,0.00327211,0.144572,20.8556,387.87,0.172465,0.0,0.0
1820,454.75,55.9213,57.8165,153.805,100.762,98.9644,0.00343609,0.143927,20.8568,387.79,0.164062,0.0,0.0
1830,457.25,55.8456,58.1388,154.806,100.71,98.6894,0.00357141,0.143064,20.8575,387.66,0.184676,0.0,0.0
1840,459.75,55.5523,57.771,153.895,100.65,99.1952,0.0036427,0.142606,20.8578,387.55,0.13272,0.0,0.0
1850,462.25,55.6515,58.0787,157.371,100.593,99.0004,0.00382186,0.142525,20.8579,387.45,0.145413,0.0,0.0
1860,464.75,56.0643,57.2082,153.633,100.527,98.8292,0.00393804,0.142488,20.8579,387.24,0.155194,0.0,0.0
1870,467.25,55.6799,57.7722,157.112,100.475,98.7715,0.00389571,0.142863,20.8579,387.23,0.155794,0.0,0.0
1880,469.75,55.8706,57.4729,151.372,100.386,98.6298,0.00393217,0.141551,20.8576,387.08,0.160822,0.0,0.0
1890,472.25,55.6346,57.4026,156.032,100.317,98.5034,0.00394267,0.14084,20.8572,386.989,0.166274,0.0,0.0
1900,474.75,55.117,57.7287,155.268,100.273,98.3663,0.00391984,0.140653,20.8586,386.899,0.174932,0.0,0.0
1910,477.25,55.3796,57.459,155.755,100.231,98.2029,0.0040083,0.141432,20.8592,386.729,0.186278,0.0,0.0
1920,479.75,55.4876,57.4977,155.502,100.209,98.1365,0.00401839,0.141972,20.8596,386.629,0.190469,0.0,0.0
1930,482.25,55.0547,57.2399,151.322,100.193,98.394,0.00393171,0.142502,20.8599,386.459,0.165073,0.0,0.0
1940,484.75,55.2666,57.22,154.526,100.186,98.9949,0.00385336,0.142055,20.8587,386.429,0.108969,0.0,0.0
1950,487.25,54.3916,57.2635,155.89,100.179,98.3714,0.00378515,0.140258,20.8583,386.299,0.165926,0.0,0.0
1960,489.75,55.265,57.4873,157.906,100.161,98.7775,0.00373623,0.139331,20.8589,386.179,0.12675,0.0,0.0
1970,492.25,55.109,57.1814,155.753,100.142,98.4494,0.00366926,0.139196,20.8606,386.049,0.155325,0.0,0.0
1980,494.75,55.1993,57.3962,153.684,100.097,98.5255,0.00373991,0.139302,20.8615,385.858,0.144201,0.0,0.0
1990,497.25,55.2896,57.6306,157.305,100.101,98.502,0.00405023,0.139489,20.8621,385.848,0.146728,0.0,0.0
2000,499.75,54.7763,57.4429,153.907,100.02,98.376,0.00409947,0.139406,20.8624,385.668,0.151047,0.0,0.0
2010,502.25,55.2679,57.0952,155.055,99.9992,97.9791,0.00394654,0.139232,20.863,385.558,0.185982,0.0,0.0
2020,504.75,54.8715,57.1007,150.891,99.9416,98.4845,0.00385481,0.13876,20.8633,385.398,0.13385,0.0,0.0
2030,507.25,55.0253,57.5411,153.186,99.8951,98.4111,0.0038719,0.138241,20.8634,385.388,0.136401,0.0,0.0
2040,509.75,55.0801,57.7069,151.177,99.8563,97.9118,0.00403515,0.137671,20.8649,385.258,0.179214,0.0,0.0
2050,512.25,54.9069,57.5521,158.669,99.8089,98.1222,0.0041806,0.13711,20.8651,385.128,0.155325,0.0,0.0
2060,514.75,55.3809,57.7217,155.523,99.7718,98.3783,0.00435008,0.137776,20.8646,385.028,0.128178,0.0,0.0
2070,517.25,55.0652,56.989,157.82,99.756,97.7881,0.00427246,0.137865,20.8633,384.868,0.181578,0.0,0.0
2080,519.75,54.8601,57.5475,154.544,99.7244,98.0207,0.00411508,0.137024,20.8625,384.838,0.157042,0.0,0.0
2090,522.25,54.9299,57.171,152.028,99.7146,97.9104,0.00405697,0.136625,20.8626,384.697,0.166407,0.0,0.0
2100,524.75,54.7443,56.9377,157.276,99.7163,97.9173,0.004077,0.1367,20.8629,384.597,0.165918,0.0,0.0
2110,527.25,54.9044,57.0839,156.98,99.7078,97.9279,0.00410679,0.136823,20.863,384.507,0.164149,0.0,0.0
2120,529.75,54.834,57.206,154.925,99.692,98.3303,0.00411183,0.136657,20.863,384.327,0.125334,0.0,0.0
2130,532.25,54.9147,56.8433,154.926,99.7108,97.795,0.00417334,0.13644,20.863,384.237,0.176799,0.0,0.0
2140,534.75,54.7876,56.6728,151.786,99.7104,97.9722,0.00431349,0.135576,20.863,384.017,0.160262,0.0,0.0
2150,537.25,54.4555,56.7261,157.145,99.7253,97.897,0.00432007,0.134856,20.8645,384.007,0.168626,0.0,0.0
2160,539.75,54.2858,56.9011,155.433,99.7483,97.879,0.00435584,0.135083,20.8651,383.847,0.172407,0.0,0.0
2170,542.25,54.59,56.868,159.422,99.7616,97.9067,0.00440863,0.134836,20.8654,383.787,0.171038,0.0,0.0
2180,544.75,54.3939,56.4211,154.379,99.7722,97.5689,0.00444115,0.134178,20.8678,383.697,0.20351,0.0,0.0
2190,547.25,54.2795,56.74,154.816,99.7978,97.9021,0.00438228,0.134765,20.8692,383.576,0.174781,0.0,0.0
2200,549.75,54.6061,56.5278,154.551,99.8298,98.0442,0.00416249,0.134633,20.8683,383.466,0.164481,0.0,0.0
2210,552.25,54.2343,56.7491,156.691,99.8456,97.8762,0.00420302,0.134541,20.8678,383.266,0.18155,0.0,0.0
2220,554.75,54.9491,56.6988,153.388,99.8661,98.3419,0.00436006,0.134647,20.8691,383.216,0.140165,0.0,0.0
2230,557.25,54.749,56.511,155.371,99.8844,97.9745,0.00448949,0.134429,20.8696,383.066,0.175945,0.0,0.0
2240,559.75,54.5647,56.5766,153.147,99.9045,98.2777,0.00461997,0.134489,20.8698,383.016,0.149615,0.0,0.0
2250,562.25,54.2188,56.6494,154.955,99.9297,98.2426,0.00468555,0.13385,20.8707,382.896,0.155165,0.0,0.0
2260,564.75,54.5431,56.3806,154.298,99.9715,98.0179,0.00463703,0.133592,20.8716,382.766,0.179849,0.0,0.0
2270,567.25,54.5137,56.2897,157.868,100.004,98.2029,0.0046657,0.133583,20.8701,382.686,0.165615,0.0,0.0
2280,569.75,54.2547,55.9574,152.428,100.035,98.2546,0.00457561,0.133327,20.8686,382.495,0.163697,0.0,0.0
2290,572.25,54.2058,56.5102,152.505,100.118,98.3852,0.00428477,0.132506,20.868,382.485,0.159129,0.0,0.0
2300,574.75,54.4231,56.1421,154.675,100.155,98.5657,0.00439124,0.132214,20.8694,382.275,0.145809,0.0,0.0
2310,577.25,53.9843,55.9462,157.081,100.234,98.454,0.00454935,0.131494,20.8704,382.255,0.163321,0.0,0.0
2320,579.75,53.9045,56.029,154.274,100.27,98.3959,0.00463635,0.13176,20.8708,382.125,0.171963,0.0,0.0
2330,582.25,53.8963,56.0991,156.872,100.312,98.2842,0.0046599,0.131882,20.8709,381.955,0.186074,0.0,0.0
2340,584.75,54.2524,55.5354,157.603,100.373,98.6072,0.00463768,0.130345,20.8709,381.905,0.161711,0.0,0.0
2350,587.25,54.4521,55.6912,153.157,100.392,98.6958,0.00470803,0.129921,20.8719,381.715,0.155307,0.0,0.0
2360,589.75,53.4515,55.6251,157.215,100.448,99.0313,0.00476917,0.129998,20.8733,381.635,0.129453,0.0,0.0
2370,592.25,53.7481,56.1799,154.415,100.451,98.6035,0.00483526,0.129021,20.8741,381.535,0.169139,0.0,0.0
2380,594.75,53.792,55.5542,149.716,100.467,98.4748,0.00480793,0.12905,20.8743,381.474,0.182518,0.0,0.0
2390,597.25,54.1024,55.7588,158.171,100.481,98.5606,0.00475927,0.129746,20.8744,381.374,0.175893,0.0,0.0
2400,599.75,53.7023,56.1747,153.879,100.479,98.6063,0.00487455,0.129829,20.8745,381.194,0.171437,0.0,0.0
2410,602.25,54.0078,56.0163,152.847,100.498,98.2865,0.00527851,0.129154,20.8738,381.184,0.202785,0.0,0.0
2420,604.75,53.6541,55.8815,157.456,100.486,98.4849,0.00545516,0.128617,20.8734,380.994,0.183281,0.0,0.0
2430,607.25,54.0711,55.0608,156.96,100.52,98.5643,0.00526219,0.128099,20.8732,380.954,0.179034,0.0,0.0
2440,609.75,53.3368,55.2488,153.334,100.509,98.3396,0.00519437,0.125619,20.874,380.834,0.198871,0.0,0.0
2450,612.25,53.3469,55.2528,156.422,100.5,98.2588,0.00544619,0.121148,20.8761,380.694,0.205545,0.0,0.0
2460,614.75,53.4453,54.3889,156.053,100.523,98.7351,0.00612785,0.116846,20.8797,380.654,0.163531,0.0,0.0
2470,617.25,52.7889,54.6868,155.872,100.511,99.1213,0.00691723,0.114438,20.8855,380.494,0.126904,0.0,0.0
2480,619.75,52.932,53.98,157.522,100.552,96.8738,0.0073389,0.112786,20.8896,380.434,0.339628,0.0,0.0
2490,622.25,52.4414,53.8637,155.652,100.55,97.0497,0.00727696,0.113666,20.8926,380.333,0.322909,0.0,0.0
2500,624.75,52.6881,53.0758,156.339,100.605,98.2533,0.00689269,0.113989,20.8924,380.203,0.215534,0.0,0.0
2510,627.25,52.3165,53.5173,156.541,100.647,98.5657,0.00682837,0.110542,20.8895,380.103,0.190427,0.0,0.0
2520,629.75,52.5146,53.1452,157.174,100.697,98.209,0.00755538,0.104225,20.8887,380.003,0.228027,0.0,0.0
2530,632.25,52.5384,53.4525,157.689,100.745,98.041,0.00873012,0.101135,20.8961,379.883,0.247915,0.0,0.0
2540,634.75,51.9945,53.0388,157.623,100.786,98.9307,0.00912951,0.103235,20.9014,379.743,0.169364,0.0,0.0
2550,637.25,51.8773,53.0967,156.481,100.822,98.2773,0.00853896,0.105717,20.9059,379.633,0.232962,0.0,0.0
2560,639.75,51.7622,52.6831,157.394,100.838,97.7775,0.00791222,0.105372,20.904,379.493,0.280891,0.0,0.0
2570,642.25,51.424,52.6334,158.122,100.876,98.5869,0.00764838,0.104687,20.9032,379.473,0.209189,0.0,0.0
2580,644.75,51.6248,52.7993,156.002,100.899,98.5195,0.00776909,0.104617,20.9029,379.283,0.217501,0.0,0.0
2590,647.25,51.545,52.4555,157.584,100.934,98.3737,0.00791475,0.103606,20.9028,379.272,0.234122,0.0,0.0
2600,649.75,51.9854,52.3538,158.403,100.939,97.9685,0.0079703,0.102424,20.9028,379.152,0.272236,0.0,0.0
2610,652.25,51.5584,52.4069,157.527,100.944,98.3696,0.00797265,0.103674,20.9028,379.082,0.235392,0.0,0.0
2620,654.75,51.2333,52.4595,161.174,100.938,98.4102,0.00782161,0.104083,20.9018,378.982,0.231168,0.0,0.0
2630,657.25,50.8494,52.4851,161.546,100.93,98.4835,0.00765103,0.102446,20.9009,378.832,0.223644,0.0,0.0
2640,659.75,51.5494,52.2592,160.22,100.948,98.5514,0.00782598,0.100538,20.9042,378.772,0.218987,0.0,0.0
2650,662.25,51.3475,52.0815,158.335,100.959,98.5745,0.00800053,0.0991134,20.9056,378.622,0.217816,0.0,0.0
2660,664.75,50.7666,52.3376,158.84,100.975,98.3419,0.00805968,0.0983578,20.9076,378.642,0.24077,0.0,0.0
2670,667.25,50.7356,51.7237,157.569,100.971,98.6021,0.0081056,0.0975923,20.9093,378.522,0.216373,0.0,0.0
2680,669.75,50.7612,51.7131,158.577,100.97,98.9723,0.00801515,0.0973993,20.9099,378.392,0.182153,0.0,0.0
2690,672.25,50.6967,51.5791,161.782,100.99,97.8679,0.0078957,0.0978813,20.9101,378.322,0.286144,0.0,0.0
2700,674.75,50.4558,51.337,156.569,100.995,98.6188,0.00788584,0.099352,20.91,378.131,0.216956,0.0,0.0
2710,677.25,50.5412,51.8513,157.493,100.98,98.5158,0.0078809,0.10118,20.9074,378.111,0.225162,0.0,0.0
2720,679.75,50.5606,51.5037,155.834,100.984,98.112,0.00794347,0.103415,20.9052,377.971,0.2629,0.0,0.0
2730,682.25,50.3802,51.8671,156.7,100.99,98.3289,0.00807074,0.104661,20.9052,377.901,0.243315,0.0,0.0
2740,684.75,50.3689,51.8181,159.844,100.998,98.6668,0.00819519,0.104419,20.9032,377.761,0.212791,0.0,0.0
2750,687.25,50.5228,51.0171,156.61,100.993,98.8223,0.00833832,0.103975,20.9021,377.731,0.198014,0.0,0.0
2760,689.75,50.8162,51.2544,156.44,100.994,98.7378,0.008479,0.103954,20.9012,377.631,0.205922,0.0,0.0
2770,692.25,50.8075,50.84375,158.38,100.985,98.8657,0.0084706,0.104561,20.8998,377.501,0.193282,0.0,0.0
2780,694.75,49.9769,51.1365,163.49,100.983,98.6584,0.00830516,0.104595,20.8989,377.461,0.21225,0.0,0.0
2790,697.25,49.8455,51.0204,159.4,100.978,98.8214,0.00803611,0.103388,20.8985,377.271,0.196752,0.0,0.0
2800,699.75,50.1537,51.4657,156.887,100.984,98.6848,0.00786585,0.101004,20.899,377.221,0.209935,0.0,0.0
2810,702.25,49.9326,51.1437,159.344,100.974,98.652,0.00800578,0.0992896,20.9007,377.081,0.212037,0.0,0.0
2820,704.75,50.2756,51.4319,158.517,100.978,98.4997,0.00806337,0.0978635,20.9036,377.06,0.226463,0.0,0.0
2830,707.25,50.2347,51.3261,156.05,100.966,98.2583,0.00809808,0.0974052,20.9076,376.96,0.247744,0.0,0.0
2840,709.75,50.1554,51.3451,155.904,100.943,98.4503,0.00819427,0.0967354,20.9084,376.88,0.227874,0.0,0.0
2850,712.25,49.7803,51.5204,156.245,100.938,98.856,0.00809142,0.0965708,20.909,376.79,0.189978,0.0,0.0
2860,714.75,50.1596,51.4158,154.83,100.915,98.514,0.00798239,0.0962774,20.9099,376.62,0.219477,0.0,0.0
2870,717.25,50.0384,51.4035,160.992,100.907,98.5888,0.00808715,0.095219,20.9104,376.6,0.211831,0.0,0.0
2880,719.75,49.8184,51.1445,158.534,100.879,98.436,0.00795891,0.0943257,20.9102,376.46,0.223419,0.0,0.0
2890,722.25,50.2502,50.7114,156.21,100.88,98.4452,0.00775185,0.0937392,20.9106,376.43,0.222603,0.0,0.0
2900,724.75,49.6326,50.5569,154.924,100.872,98.3077,0.00771975,0.0937643,20.9107,376.32,0.234688,0.0,0.0
2910,727.25,49.7147,51.0742,158.38,100.832,98.3885,0.00796617,0.0935978,20.9114,376.22,0.223541,0.0,0.0
2920,729.75,49.9885,51.2238,160.443,100.819,98.6178,0.00814299,0.0930404,20.9151,376.1,0.201163,0.0,0.0
2930,732.25,49.4006,50.7771,159.482,100.774,98.5297,0.0081202,0.0932922,20.9167,375.97,0.205224,0.0,0.0
2940,734.75,49.8496,50.5076,160.638,100.767,98.4743,0.00801981,0.0936112,20.917,375.919,0.209769,0.0,0.0
2950,737.25,49.4049,50.7678,163.871,100.705,98.4845,0.00791132,0.0933197,20.9158,375.769,0.203231,0.0,0.0
2960,739.75,49.5293,50.3992,154.24,100.676,98.2879,0.0079037,0.0928688,20.9154,375.739,0.218739,0.0,0.0
2970,742.25,49.6493,51.0935,159.842,100.648,98.3216,0.00803625,0.0926359,20.9152,375.659,0.213104,0.0,0.0
2980,744.75,49.9503,50.9151,156.92,100.596,97.6436,0.0082761,0.0925979,20.9152,375.529,0.271482,0.0,0.0
2990,747.25,49.5366,50.9372,156.759,100.554,98.4143,0.00830069,0.09332,20.9141,375.459,0.196007,0.0,0.0
3000,749.75,49.4297,51.1221,156.568,100.508,97.9842,0.00814649,0.0935131,20.9132,375.289,0.231783,0.0,0.0
3010,752.25,49.7034,50.9209,156.784,100.489,97.9856,0.00811162,0.0932567,20.9139,375.279,0.229875,0.0,0.0
3020,754.75,49.3374,50.5204,160.781,100.484,98.2528,0.00827418,0.0933371,20.9141,375.119,0.204671,0.0,0.0
3030,757.25,49.2304,50.5876,158.794,100.463,97.8951,0.00837907,0.0933193,20.9142,375.109,0.236008,0.0,0.0
3040,759.75,49.6654,50.5805,157.454,100.443,98.3049,0.00837371,0.0940399,20.9142,375.009,0.19612,0.0,0.0
3050,762.25,48.7982,50.5521,162.156,100.428,98.1983,0.00838905,0.0940591,20.9136,374.909,0.204614,0.0,0.0
3060,764.75,49.271,50.3846,156.442,100.406,97.8919,0.00847496,0.0937916,20.9131,374.828,0.23112,0.0,0.0
3070,767.25,49.1954,50.2335,158.05,100.378,97.855,0.00854506,0.0934069,20.9128,374.678,0.232001,0.0,0.0
3080,769.75,49.3419,50.965,156.803,100.377,97.9228,0.0085474,0.0928306,20.9138,374.628,0.225609,0.0,0.0
3090,772.25,49.5295,50.7472,163.136,100.354,97.9247,0.00845325,0.0925617,20.9141,374.478,0.223345,0.0,0.0
3100,774.75,49.1609,50.751,158.788,100.355,97.8088,0.00837255,0.0929966,20.9147,374.438,0.23417,0.0,0.0
3110,777.25,49.5058,50.6645,159.07,100.332,97.7788,0.0082532,0.0930484,20.9146,374.338,0.234873,0.0,0.0
3120,779.75,49.6416,50.2211,157.2,100.298,98.1766,0.00806487,0.0926062,20.9137,374.228,0.194809,0.0,0.0
3130,782.25,49.2902,50.6911,154.012,100.318,97.6316,0.00810951,0.0925833,20.9134,374.168,0.247325,0.0,0.0
3140,784.75,49.2156,50.3716,156.987,100.355,98.0354,0.00819341,0.0921645,20.9133,374.008,0.213082,0.0,0.0
3150,787.25,48.3997,50.7863,155.069,100.382,97.8347,0.00822963,0.0916598,20.9132,373.988,0.23428,0.0,0.0
3160,789.75,48.7877,50.3073,155.576,100.396,98.2237,0.00825584,0.0915662,20.9132,373.798,0.199315,0.0,0.0
3170,792.25,49.2496,51.1041,156.886,100.437,97.9399,0.00833278,0.091374,20.9132,373.798,0.229402,0.0,0.0
3180,794.75,48.99,50.296,159.905,100.442,97.9339,0.00844423,0.090627,20.9132,373.728,0.230425,0.0,0.0
3190,797.25,49.3803,50.3305,159.693,100.46,98.2929,0.00840487,0.0906944,20.9157,373.567,0.198741,0.0,0.0
3200,799.75,49.5134,50.8007,162.228,100.479,98.0862,0.00831745,0.0916119,20.9163,373.527,0.219633,0.0,0.0
3210,802.25,48.8683,50.7084,156.201,100.511,97.9814,0.00831218,0.0920738,20.9165,373.347,0.232312,0.0,0.0
3220,804.75,49.6638,50.3915,158.913,100.549,98.5218,0.00832548,0.0921213,20.9153,373.377,0.185591,0.0,0.0
3230,807.25,48.7863,50.894,157.689,100.585,98.4014,0.00834853,0.0918635,20.9146,373.187,0.200025,0.0,0.0
3240,809.75,49.3352,50.5062,160.447,100.658,99.0443,0.00848251,0.0915428,20.9143,373.157,0.147252,0.0,0.0
3250,812.25,48.9222,50.6457,159.196,100.708,98.5809,0.00866078,0.0919709,20.9141,373.037,0.194543,0.0,0.0
3260,814.75,49.3598,50.6593,155.665,100.789,98.3696,0.0086799,0.0920379,20.9136,372.987,0.221436,0.0,0.0
3270,817.25,48.9297,50.5761,157.249,100.811,98.7392,0.00870983,0.091553,20.9134,372.887,0.18926,0.0,0.0
3280,819.75,48.8025,50.511,155.93,100.869,98.8107,0.00869375,0.0915264,20.9144,372.707,0.187906,0.0,0.0
3290,822.25,49.2879,50.586,162.262,100.941,98.5052,0.00877141,0.091653,20.9163,372.707,0.2226,0.0,0.0
3300,824.75,48.9576,50.2773,155.508,101.013,98.8758,0.00878637,0.0915622,20.9174,372.586,0.194888,0.0,0.0
3310,827.25,49.4556,50.5433,159.07,101.068,98.5592,0.00853444,0.0911552,20.9179,372.506,0.229078,0.0,0.0
3320,829.75,49.1747,50.5364,160.535,101.096,98.7604,0.00815665,0.0908919,20.918,372.336,0.213032,0.0,0.0
3330,832.25,48.9185,50.3744,161.124,101.137,98.7664,0.00807132,0.0910645,20.9181,372.286,0.21617,0.0,0.0
3340,834.75,48.4309,50.1507,154.356,101.151,98.5112,0.00822828,0.0903948,20.9181,372.246,0.241017,0.0,0.0
3350,837.25,49.1657,49.9557,153.453,101.15,98.5938,0.00842235,0.0894041,20.9181,372.086,0.233225,0.0,0.0
3360,839.75,49.031,50.907,158.827,101.143,98.7231,0.00861057,0.0892062,20.9181,372.046,0.220673,0.0,0.0
3370,842.25,49.0096,50.1764,153.95,101.15,98.6778,0.00872358,0.0892397,20.9181,371.956,0.225465,0.0,0.0
3380,844.75,49.2823,50.3384,157.487,101.158,98.7434,0.00861622,0.0889254,20.9182,371.916,0.220145,0.0,0.0
3390,847.25,48.8223,50.2707,156.952,101.132,98.7535,0.00852078,0.0887614,20.9185,371.796,0.216902,0.0,0.0
3400,849.75,48.7802,50.6128,158.324,101.116,98.4955,0.00858924,0.0887326,20.9197,371.626,0.239278,0.0,0.0
3410,852.25,48.782,50.176,160.161,101.096,98.5085,0.00861305,0.088077,20.9201,371.616,0.236313,0.0,0.0
3420,854.75,48.6358,50.0602,160.066,101.095,98.5062,0.00855642,0.0876158,20.9203,371.445,0.236372,0.0,0.0
3430,857.25,48.5716,50.0914,161.808,101.112,98.8274,0.00851548,0.0879845,20.9209,371.415,0.208244,0.0,0.0
3440,859.75,48.5558,50.23,157.116,101.076,99.101,0.00850361,0.0881545,20.9211,371.345,0.17985,0.0,0.0
3450,862.25,48.6323,50.2686,160.925,101.066,98.7558,0.00860472,0.0879423,20.9212,371.275,0.210765,0.0,0.0
3460,864.75,49.0683,49.8509,160.49,101.057,98.4965,0.00850553,0.0873944,20.9212,371.175,0.233845,0.0,0.0
3470,867.25,49.0391,49.9064,157.258,101.046,98.7941,0.00827354,0.0874497,20.9212,371.005,0.205345,0.0,0.0
3480,869.75,48.6182,50.2197,156.423,101.043,98.7097,0.00817839,0.087208,20.9212,371.015,0.212909,0.0,0.0
3490,872.25,48.7104,50.0334,164.202,101.017,98.3068,0.00814708,0.0876015,20.9212,370.875,0.247871,0.0,0.0
3500,874.75,48.1901,50.0721,157.529,101.013,98.4443,0.00821298,0.0883775,20.9212,370.825,0.234707,0.0,0.0
3510,877.25,48.4487,49.9627,154.833,100.994,98.1559,0.00841213,0.0883708,20.9212,370.715,0.259753,0.0,0.0
3520,879.75,48.7052,50.0645,157.253,100.987,98.664,0.00844137,0.0884135,20.9198,370.645,0.212084,0.0,0.0
3530,882.25,48.7993,50.0798,159.151,100.963,98.64,0.00850962,0.0886324,20.9192,370.565,0.212105,0.0,0.0
3540,884.75,48.8441,50.232,153.208,100.934,98.5703,0.00866516,0.08847,20.919,370.445,0.215927,0.0,0.0
3550,887.25,48.3859,49.9181,156.198,100.917,99.1273,0.00866506,0.0885267,20.9203,370.364,0.16307,0.0,0.0
3560,889.75,48.2036,49.954,156.065,100.87,98.3179,0.00855052,0.0881644,20.9211,370.194,0.233515,0.0,0.0
3570,892.25,48.1396,49.9249,159.269,100.849,98.6063,0.00846227,0.0871589,20.9214,370.174,0.20493,0.0,0.0
3580,894.75,48.5986,49.2603,161.556,100.784,98.4425,0.00827932,0.0873947,20.9215,370.054,0.214182,0.0,0.0
3590,897.25,48.0354,49.8102,155.425,100.762,98.5523,0.00821616,0.0875005,20.9216,370.044,0.202052,0.0,0.0
3600,899.75,48.8687,49.6423,157.084,100.719,98.5029,0.00815558,0.0872673,20.9216,369.944,0.202759,0.0,0.0
3610,902.25,48.4772,49.5266,154.911,100.709,98.5122,0.00819449,0.0875099,20.9216,369.834,0.201017,0.0,0.0
3620,904.75,48.4674,50.3157,160.354,100.726,98.1993,0.0085045,0.0884131,20.9216,369.754,0.231554,0.0,0.0
3630,907.25,48.7204,49.8755,155.675,100.756,98.3229,0.00867366,0.0885253,20.9216,369.614,0.222746,0.0,0.0
3640,909.75,48.74,49.7362,156.289,100.775,98.4678,0.00840313,0.088127,20.9226,369.654,0.211099,0.0,0.0
3650,912.25,48.3092,49.8703,161.895,100.787,98.5265,0.00806853,0.0882662,20.9216,369.514,0.206719,0.0,0.0
3660,914.75,48.7358,50.0028,154.444,100.827,98.4997,0.00816423,0.0886103,20.9211,369.464,0.212859,0.0,0.0
3670,917.25,48.5724,50.1786,157.829,100.83,98.5791,0.00843385,0.0888769,20.921,369.354,0.205788,0.0,0.0
3680,919.75,48.539,49.6247,153.144,100.839,98.3806,0.00853133,0.088397,20.921,369.273,0.224884,0.0,0.0
3690,922.25,48.7563,50.2805,154.759,100.858,98.9672,0.00846264,0.0881251,20.9209,369.203,0.172486,0.0,0.0
3700,924.75,48.5662,49.7835,159.866,100.877,98.5292,0.00843855,0.0883439,20.9209,369.033,0.214639,0.0,0.0
3710,927.25,48.6874,50.192,160.283,100.898,98.6824,0.00837055,0.0886252,20.9209,369.033,0.202328,0.0,0.0
3720,929.75,48.6515,50.1259,157.337,100.914,99.1721,0.00834824,0.0884864,20.9209,368.953,0.158647,0.0,0.0
3730,932.25,48.2738,50.1209,158.902,100.938,98.5565,0.00836148,0.0878461,20.9209,368.873,0.217554,0.0,0.0
3740,934.75,48.0823,49.8511,158.487,100.928,98.5108,0.00829097,0.0874526,20.9209,368.733,0.220932,0.0,0.0
3750,937.25,48.2623,49.996,158.118,100.933,98.9575,0.00820339,0.0877992,20.9196,368.633,0.180123,0.0,0.0
3760,939.75,48.6083,50.0918,159.785,100.947,99.1186,0.00809131,0.0879981,20.9192,368.633,0.166535,0.0,0.0
3770,942.25,48.1348,49.8354,158.678,100.94,98.508,0.00805808,0.0883057,20.9201,368.403,0.222267,0.0,0.0
3780,944.75,48.3627,49.715,157.164,100.967,99.3281,0.00826497,0.0887306,20.9209,368.433,0.149179,0.0,0.0
3790,947.25,48.2756,50.0214,159.639,101.01,98.6949,0.00838532,0.0886774,20.9212,368.243,0.211307,0.0,0.0
3800,949.75,48.4313,49.7381,156.381,101.046,98.7951,0.00836192,0.0892208,20.9207,368.283,0.205337,0.0,0.0
3810,952.25,48.1731,49.6708,158.59,101.055,98.7747,0.00840319,0.0893389,20.9205,368.172,0.207981,0.0,0.0
3820,954.75,48.4639,50.1126,160.547,101.098,99.2745,0.00857865,0.0893783,20.9205,368.132,0.165832,0.0,0.0
3830,957.25,48.5311,49.9936,159.351,101.131,99.2782,0.00867957,0.0891147,20.9204,368.012,0.16853,0.0,0.0
3840,959.75,48.562,50.032,159.153,101.182,99.1573,0.0086905,0.0888722,20.9194,367.842,0.18421,0.0,0.0
3850,962.25,48.4938,50.0925,155.066,101.22,98.9681,0.00871006,0.0890694,20.9189,367.872,0.205037,0.0,0.0
3860,964.75,48.7884,49.6423,158.745,101.246,98.9792,0.00866252,0.0887194,20.9187,367.712,0.206399,0.0,0.0
3870,967.25,48.6096,49.9556,156.257,101.274,99.1942,0.00855275,0.0887147,20.9187,367.712,0.189115,0.0,0.0
3880,969.75,48.4805,49.9839,159.188,101.299,99.4591,0.00855468,0.0890558,20.9199,367.632,0.167038,0.0,0.0
3890,972.25,48.8368,50.0402,156.383,101.351,98.8606,0.00851422,0.0894242,20.9212,367.562,0.226692,0.0,0.0
3900,974.75,48.9929,49.8179,158.042,101.356,98.9677,0.00847273,0.0896419,20.9216,367.472,0.217326,0.0,0.0
3910,977.25,48.4498,49.6476,159.907,101.385,99.0249,0.00848114,0.089382,20.9218,367.322,0.214629,0.0,0.0
3920,979.75,48.4205,49.93,158.222,101.405,99.143,0.00843548,0.0893839,20.9218,367.332,0.205603,0.0,0.0
3930,982.25,48.5691,49.8168,155.26,101.44,98.8698,0.0084474,0.0892622,20.9214,367.182,0.233895,0.0,0.0
3940,984.75,48.2241,50.135,159.09,101.472,98.7175,0.00856825,0.0888322,20.9209,367.172,0.250818,0.0,0.0
3950,987.25,48.5786,49.6537,158.914,101.48,99.5602,0.00869404,0.0885373,20.9221,367.041,0.174044,0.0,0.0
3960,989.75,48.515,50.1395,156.713,101.519,99.3064,0.00860394,0.0884541,20.9227,367.021,0.200794,0.0,0.0
3970,992.25,48.8415,49.8589,161.069,101.514,99.5542,0.00836239,0.0885022,20.9229,366.941,0.177658,0.0,0.0
3980,994.75,47.8806,49.8163,159.675,101.525,99.012,0.00828391,0.0891081,20.923,366.851,0.228428,0.0,0.0
3990,997.25,48.3599,49.6698,156.075,101.555,99.3299,0.00836013,0.0895473,20.923,366.771,0.201851,0.0,0.0
4000,999.75,48.1527,49.7172,158.513,101.565,99.5547,0.00844744,0.0893752,20.923,366.611,0.182173,0.0,0.0
4010,1002.25,48.038,49.6586,159.844,101.552,99.353,0.00850268,0.0891976,20.9224,366.581,0.199543,0.0,0.0
4020,1004.75,48.5307,49.6286,157.569,101.565,99.6308,0.00854135,0.0890046,20.9215,366.411,0.175243,0.0,0.0
4030,1007.25,48.3384,49.9556,165.19,101.58,99.2958,0.0085855,0.0887682,20.9192,366.501,0.207243,0.0,0.0
4040,1009.75,48.138,50.1155,162.276,101.593,99.347,0.00851757,0.0888985,20.9184,366.381,0.203729,0.0,0.0
4050,1012.25,48.2311,49.6214,158.077,101.593,99.6345,0.00843213,0.0890141,20.9182,366.301,0.177394,0.0,0.0
4060,1014.75,47.9974,49.662,160.654,101.605,99.4231,0.00853904,0.0890262,20.9194,366.251,0.197857,0.0,0.0
4070,1017.25,48.5001,49.654,156.089,101.594,99.4744,0.00866265,0.0888216,20.92,366.081,0.192168,0.0,0.0
4080,1019.75,48.3767,49.8546,159.906,101.625,99.4605,0.0085688,0.0888411,20.9203,366.081,0.19623,0.0,0.0
4090,1022.25,48.6801,49.6113,157.288,101.622,99.3267,0.00845091,0.089035,20.9199,365.95,0.208195,0.0,0.0
4100,1024.75,48.6304,49.6888,157.484,101.636,99.6202,0.00853216,0.0892905,20.9187,365.93,0.182606,0.0,0.0
4110,1027.25,48.0472,50.3578,159.002,101.662,99.7416,0.00851245,0.0893857,20.9179,365.82,0.173766,0.0,0.0
4120,1029.75,48.1237,50.1997,157.415,101.642,99.6673,0.00852771,0.0893989,20.9171,365.76,0.178836,0.0,0.0
4130,1032.25,48.0353,49.7907,158.807,101.642,99.5708,0.00865032,0.089463,20.9168,365.7,0.187621,0.0,0.0
4140,1034.75,48.4897,49.854,160.362,101.637,99.4587,0.00881457,0.0894316,20.9178,365.54,0.197433,0.0,0.0
4150,1037.25,48.5306,50.5983,155.891,101.648,99.5141,0.00886861,0.0898526,20.9186,365.52,0.193316,0.0,0.0
4160,1039.75,48.3468,49.8036,157.496,101.631,99.4056,0.00869698,0.0894546,20.9189,365.39,0.201761,0.0,0.0
4170,1042.25,48.0384,49.6303,156.951,101.621,99.694,0.00846465,0.0891126,20.919,365.36,0.174476,0.0,0.0
4180,1044.75,48.3171,49.6045,158.106,101.602,99.5676,0.00841772,0.0890672,20.919,365.27,0.184359,0.0,0.0
4190,1047.25,48.1341,49.9862,155.552,101.589,99.3548,0.00852559,0.0885393,20.919,365.18,0.202666,0.0,0.0
4200,1049.75,47.7418,49.6945,160.998,101.571,99.5136,0.00867185,0.0883222,20.9203,365.12,0.18647,0.0,0.0
4210,1052.25,48.2023,50.0921,155.275,101.535,98.9986,0.00867978,0.0884791,20.9208,364.98,0.23054,0.0,0.0
4220,1054.75,47.7758,49.188,160.426,101.52,99.2888,0.00854135,0.088994,20.921,364.98,0.202518,0.0,0.0
4230,1057.25,48.3226,49.7749,159.733,101.497,99.4808,0.00848781,0.0892256,20.9211,364.829,0.182883,0.0,0.0
4240,1059.75,48.075,49.9227,155.558,101.481,99.1213,0.00856432,0.0895518,20.9211,364.849,0.21442,0.0,0.0
4250,1062.25,48.2572,49.9715,159.908,101.46,99.2145,0.00856627,0.0899886,20.9205,364.719,0.203976,0.0,0.0
4260,1064.75,48.0229,49.848,157.23,101.427,99.6036,0.00855699,0.0899693,20.9206,364.669,0.165283,0.0,0.0
4270,1067.25,48.3389,49.7322,154.535,101.41,99.3188,0.00870447,0.0900724,20.9199,364.589,0.189916,0.0,0.0
4280,1069.75,47.9937,49.6644,158.619,101.381,99.2856,0.00884929,0.0897609,20.9192,364.449,0.190357,0.0,0.0
4290,1072.25,47.3822,49.7806,157.486,101.373,99.3853,0.00899851,0.0898298,20.9189,364.429,0.180483,0.0,0.0
4300,1074.75,48.4763,49.6954,155.626,101.354,99.1107,0.00917129,0.0901909,20.9188,364.289,0.203932,0.0,0.0
4310,1077.25,48.4419,50.1181,157.139,101.352,99.0415,0.00922542,0.0906376,20.9187,364.289,0.210184,0.0,0.0
4320,1079.75,48.1576,49.4341,156.655,101.349,99.1139,0.0091575,0.0904977,20.9187,364.169,0.203213,0.0,0.0
4330,1082.25,48.0031,49.7081,158.794,101.325,99.2718,0.00904553,0.0901521,20.9187,364.139,0.186602,0.0,0.0
4340,1084.75,48.0202,49.5678,154.671,101.297,99.2312,0.00890335,0.0900042,20.9198,363.999,0.187759,0.0,0.0
4350,1087.25,47.8487,49.2603,157.491,101.287,99.3032,0.00876954,0.090282,20.9201,363.909,0.180267,0.0,0.0
4360,1089.75,47.5796,49.538,159.988,101.281,98.8989,0.00881193,0.090207,20.9207,363.919,0.216944,0.0,0.0
4370,1092.25,47.3561,49.2664,157.516,101.272,98.9072,0.00885835,0.0898618,20.921,363.768,0.215294,0.0,0.0
4380,1094.75,47.9228,49.4811,161.222,101.288,99.1859,0.00888011,0.0900159,20.9211,363.779,0.191107,0.0,0.0
4390,1097.25,47.971,50.0103,160.811,101.277,98.7674,0.00897159,0.0901806,20.9205,363.618,0.228687,0.0,0.0
4400,1099.75,47.8114,49.6151,157.026,101.267,99.3027,0.00895573,0.0903751,20.9203,363.588,0.178543,0.0,0.0
4410,1102.25,47.8859,50.1705,158.79,101.266,99.0244,0.00887873,0.0903469,20.9197,363.498,0.204001,0.0,0.0
4420,1104.75,47.7316,49.2751,157.231,101.25,99.0853,0.00887315,0.0898632,20.9189,363.478,0.196977,0.0,0.0
4430,1107.25,47.4059,49.2647,157.369,101.251,99.03,0.00889543,0.0897733,20.9197,363.388,0.202148,0.0,0.0
4440,1109.75,48.1672,48.9836,157.719,101.254,99.0959,0.00890293,0.0896142,20.92,363.228,0.196307,0.0,0.0
4450,1112.25,48.0948,49.665,158.271,101.268,99.0009,0.00888657,0.0901586,20.9201,363.208,0.20636,0.0,0.0
4460,1114.75,48.469,49.724,160.869,101.269,99.4758,0.00882699,0.0905607,20.9201,363.088,0.16279,0.0,0.0
4470,1117.25,47.6576,49.7339,159.258,101.303,99.0761,0.00870435,0.090313,20.9189,363.068,0.202548,0.0,0.0
4480,1119.75,48.1767,49.3715,158.084,101.307,98.8555,0.00883143,0.0905689,20.9178,362.968,0.223245,0.0,0.0
4490,1122.25,48.0338,49.7222,159.696,101.327,99.0775,0.0089876,0.0905409,20.9173,362.888,0.204571,0.0,0.0
4500,1124.75,48.3271,49.5248,158.451,101.357,99.3696,0.00896876,0.0902912,20.9172,362.828,0.180425,0.0,0.0
4510,1127.25,48.2448,49.6937,157.414,101.356,98.9815,0.00887008,0.0902447,20.9181,362.718,0.216014,0.0,0.0
4520,1129.75,47.626,49.6585,159.721,101.384,99.0955,0.00897655,0.0902371,20.9189,362.657,0.208095,0.0,0.0
4530,1132.25,48.4283,49.7954,158.886,101.399,99.5417,0.00907562,0.0900856,20.9193,362.527,0.168489,0.0,0.0
4540,1134.75,47.5835,49.377,157.586,101.446,99.2441,0.00912785,0.0898133,20.9194,362.517,0.199998,0.0,0.0
4550,1137.25,47.957,49.3836,156.736,101.45,99.5191,0.00915869,0.0894445,20.9188,362.447,0.175083,0.0,0.0
4560,1139.75,47.7419,49.0795,159.612,101.472,99.047,0.00909996,0.0894094,20.9192,362.367,0.220449,0.0,0.0
4570,1142.25,47.9297,49.78,155.133,101.487,99.3599,0.00913388,0.0896382,20.9194,362.297,0.193046,0.0,0.0
4580,1144.75,47.4716,49.6768,159.533,101.473,99.3165,0.00926936,0.0901691,20.9194,362.177,0.195724,0.0,0.0
4590,1147.25,47.6989,49.9854,153.919,101.477,99.4776,0.00924119,0.0903175,20.9194,362.117,0.181379,0.0,0.0
4600,1149.75,48.2008,49.3018,157.035,101.482,99.4762,0.00902336,0.0899311,20.9195,361.967,0.181888,0.0,0.0
4610,1152.25,47.5166,49.1603,158.732,101.488,99.527,0.00894441,0.0898936,20.9195,361.957,0.177775,0.0,0.0
4620,1154.75,47.85,49.0664,157.807,101.478,99.0429,0.00897998,0.0899986,20.9201,361.877,0.221329,0.0,0.0
4630,1157.25,47.8503,49.5222,159.194,101.479,99.3327,0.00902742,0.0894049,20.9199,361.827,0.194778,0.0,0.0
4640,1159.75,47.8839,49.2651,156.872,101.461,98.7683,0.00898197,0.089385,20.9199,361.747,0.245136,0.0,0.0
4650,1162.25,48.2366,48.9181,158.821,101.449,99.2524,0.00893766,0.08949,20.9196,361.627,0.199465,0.0,0.0
4660,1164.75,48.0298,49.3262,159.631,101.447,99.1499,0.00902137,0.0897243,20.9194,361.566,0.208762,0.0,0.0
4670,1167.25,47.3722,49.4369,155.622,101.408,99.1947,0.0090491,0.090072,20.919,361.416,0.201084,0.0,0.0
4680,1169.75,47.8405,48.8934,158.859,101.399,99.2187,0.00897618,0.0897504,20.9189,361.426,0.198074,0.0,0.0
4690,1172.25,47.5647,49.4202,160.366,101.369,98.9469,0.00900195,0.0895807,20.9188,361.336,0.220351,0.0,0.0
4700,1174.75,47.3492,49.6393,157.021,101.36,99.0978,0.00907368,0.0894089,20.9188,361.216,0.205657,0.0,0.0
4710,1177.25,48.0669,48.9303,157.534,101.311,98.9557,0.00923388,0.089132,20.9199,361.146,0.214402,0.0,0.0
4720,1179.75,47.8823,48.982,162.124,101.28,98.8657,0.00931056,0.0893332,20.9207,361.016,0.219852,0.0,0.0
4730,1182.25,47.4195,48.7544,158.796,101.277,99.1786,0.00938948,0.089917,20.921,360.966,0.190788,0.0,0.0
4740,1184.75,47.8893,49.204,159.641,101.256,98.9293,0.00939356,0.0901597,20.9211,360.856,0.211834,0.0,0.0
4750,1187.25,47.8639,49.3421,162.064,101.255,99.1379,0.0093409,0.0901656,20.9211,360.866,0.192561,0.0,0.0
4760,1189.75,48.2294,49.4575,157.88,101.228,99.1301,0.00923367,0.0905664,20.9217,360.726,0.190864,0.0,0.0
4770,1192.25,47.9348,49.9758,162.241,101.217,98.5971,0.0092081,0.0909645,20.9218,360.716,0.23896,0.0,0.0
4780,1194.75,47.7133,49.7154,154.107,101.175,99.0526,0.00938598,0.0912938,20.9205,360.626,0.193229,0.0,0.0
4790,1197.25,47.8613,49.7617,160.769,101.159,99.1915,0.00943458,0.0909203,20.9202,360.526,0.178997,0.0,0.0
4795,1198.5,47.9706,49.7982,157.199,101.145,98.7789,0.00938252,0.0909449,20.9204,360.476,0.215752,0.0,0.0