File: 01_Data/Engineered_Wood_Table/Cone/Engineered_Wood_Table_HRRPUA_50.csv
Time after Ignition,Engineered_Wood_Table_R1,Engineered_Wood_Table_R2,Engineered_Wood_Table_R3,Mean,Std. Dev.
0.0,2.5,16.8,9.8,9.7,7.1
2.5,2.8,9.7,4.7,5.7,3.6
5.0,4.9,5.4,1.7,4.0,2.0
7.5,17.4,2.9,0.7,7.0,9.1
10.0,15.2,6.8,2.7,8.2,6.4
12.5,15.1,70.4,47.5,44.3,27.8
15.0,29.0,156.8,140.1,108.7,69.5
17.5,58.1,199.3,222.2,159.9,88.9
20.0,90.2,219.2,254.9,188.1,86.7
22.5,142.2,221.7,257.5,207.1,59.0
25.0,177.7,235.2,260.8,224.6,42.6
27.5,194.5,246.0,270.9,237.1,38.9
30.0,201.1,261.4,285.6,249.3,43.5
32.5,217.5,270.3,292.7,260.2,38.6
35.0,224.6,275.6,290.7,263.6,34.6
37.5,234.6,273.2,294.2,267.4,30.2
40.0,250.8,286.9,293.7,277.1,23.0
42.5,258.2,287.0,284.0,276.4,15.8
45.0,269.2,282.5,273.9,275.2,6.7
47.5,267.9,278.7,268.0,271.5,6.2
50.0,269.2,280.8,261.0,270.3,10.0
52.5,264.2,270.9,253.8,263.0,8.6
55.0,263.4,268.2,254.5,262.1,6.9
57.5,257.5,256.0,248.1,253.8,5.1
60.0,248.6,249.4,240.1,246.1,5.1
62.5,247.9,245.4,232.0,241.8,8.6
65.0,244.8,239.0,227.1,237.0,9.0
67.5,239.9,227.5,221.5,229.6,9.4
70.0,241.0,225.9,206.3,224.4,17.4
72.5,227.3,214.8,208.0,216.7,9.8
75.0,227.8,213.8,198.1,213.2,14.9
77.5,223.4,206.9,197.7,209.3,13.0
80.0,215.5,200.7,192.4,202.9,11.7
82.5,211.5,199.7,181.5,197.6,15.1
85.0,198.6,193.2,180.4,190.7,9.3
87.5,195.3,183.9,178.8,186.0,8.5
90.0,183.8,181.8,172.2,179.3,6.2
92.5,181.4,176.3,167.8,175.2,6.9
95.0,176.6,170.9,163.9,170.5,6.4
97.5,171.0,170.6,163.1,168.2,4.4
100.0,166.4,167.2,159.5,164.4,4.3
102.5,165.1,164.2,155.3,161.6,5.5
105.0,161.4,158.6,151.2,157.1,5.3
107.5,161.5,153.9,149.6,155.0,6.0
110.0,157.6,153.0,150.4,153.7,3.7
112.5,152.1,151.7,145.5,149.8,3.7
115.0,149.7,150.5,142.3,147.5,4.5
117.5,148.3,145.6,142.3,145.4,3.0
120.0,146.7,144.8,141.9,144.5,2.4
122.5,146.6,142.9,141.3,143.6,2.7
125.0,143.7,141.1,137.2,140.6,3.3
127.5,138.5,138.5,138.7,138.6,0.1
130.0,137.9,140.3,137.2,138.5,1.7
132.5,138.0,136.9,135.9,137.0,1.0
135.0,136.3,138.2,132.8,135.8,2.8
137.5,133.3,136.2,134.6,134.7,1.4
140.0,131.6,133.8,134.5,133.3,1.5
142.5,132.8,133.9,131.1,132.6,1.4
145.0,129.6,131.0,129.8,130.1,0.8
147.5,129.9,130.9,128.7,129.8,1.1
150.0,127.2,129.3,128.5,128.3,1.0
152.5,128.3,129.2,123.9,127.1,2.8
155.0,128.8,127.7,122.6,126.4,3.3
157.5,127.6,126.9,121.7,125.4,3.2
160.0,124.0,125.2,123.2,124.1,1.0
162.5,122.4,123.5,122.5,122.8,0.6
165.0,122.2,123.8,119.6,121.9,2.1
167.5,119.7,123.8,119.5,121.0,2.4
170.0,121.1,122.6,118.2,120.7,2.2
172.5,119.7,121.8,118.0,119.9,1.9
175.0,117.8,121.1,118.3,119.1,1.8
177.5,117.2,120.1,118.2,118.5,1.5
180.0,118.6,117.6,117.1,117.8,0.8
182.5,115.0,117.7,116.9,116.5,1.4
185.0,114.3,117.7,119.4,117.2,2.6
187.5,113.6,117.0,116.8,115.8,1.9
190.0,112.2,115.1,115.5,114.2,1.8
192.5,111.8,115.5,114.2,113.8,1.9
195.0,112.0,112.5,115.1,113.2,1.7
197.5,108.8,112.5,114.2,111.8,2.8
200.0,109.6,111.8,113.2,111.6,1.8
202.5,111.0,110.6,111.5,111.0,0.5
205.0,107.9,111.0,111.2,110.1,1.9
207.5,109.9,110.9,109.2,110.0,0.9
210.0,108.3,111.4,111.1,110.3,1.7
212.5,107.4,110.3,113.5,110.4,3.1
215.0,107.0,108.8,111.1,108.9,2.0
217.5,107.5,106.1,111.0,108.2,2.6
220.0,106.6,108.2,110.5,108.4,2.0
222.5,106.2,107.2,111.0,108.1,2.5
225.0,105.9,107.4,110.9,108.0,2.6
227.5,105.2,108.0,107.9,107.0,1.6
230.0,104.4,107.4,107.0,106.3,1.6
232.5,104.2,106.4,108.0,106.2,1.9
235.0,102.6,105.2,105.1,104.3,1.5
237.5,102.9,104.4,106.0,104.4,1.6
240.0,103.8,105.3,104.7,104.6,0.8
242.5,101.6,105.0,105.1,103.9,2.0
245.0,100.5,103.6,104.6,102.9,2.1
247.5,100.8,102.1,103.6,102.2,1.4
250.0,101.8,101.8,104.1,102.5,1.3
252.5,100.9,103.1,102.3,102.1,1.1
255.0,101.1,102.1,104.3,102.5,1.6
257.5,99.3,103.5,103.5,102.1,2.4
260.0,99.9,99.2,103.5,100.9,2.3
262.5,97.7,98.5,100.8,99.0,1.6
265.0,98.5,97.8,102.0,99.4,2.3
267.5,97.4,98.6,100.8,98.9,1.8
270.0,98.0,97.9,99.5,98.5,0.9
272.5,97.9,97.9,98.9,98.2,0.6
275.0,98.6,101.0,98.8,99.5,1.3
277.5,98.5,97.4,99.9,98.6,1.3
280.0,95.1,96.4,98.1,96.5,1.5
282.5,95.7,96.6,97.3,96.5,0.8
285.0,95.0,94.3,99.2,96.2,2.7
287.5,94.9,97.0,97.2,96.3,1.3
290.0,95.0,95.3,98.0,96.1,1.7
292.5,94.1,95.7,98.3,96.0,2.1
295.0,94.2,96.8,96.4,95.8,1.4
297.5,95.3,95.4,96.4,95.7,0.6
300.0,94.8,96.3,95.9,95.6,0.8
302.5,93.2,91.9,96.1,93.7,2.2
305.0,92.0,94.1,95.7,93.9,1.8
307.5,92.1,93.4,95.4,93.6,1.6
310.0,94.0,92.1,93.1,93.1,0.9
312.5,94.6,92.4,94.6,93.9,1.3
315.0,93.8,93.3,92.9,93.3,0.5
317.5,92.3,92.7,93.8,93.0,0.8
320.0,93.2,92.9,92.8,93.0,0.2
322.5,92.7,91.9,95.2,93.3,1.8
325.0,90.7,92.4,94.3,92.5,1.8
327.5,89.2,92.8,92.4,91.5,2.0
330.0,90.0,90.7,92.2,90.9,1.1
332.5,90.1,90.1,91.8,90.7,1.0
335.0,88.9,89.5,92.1,90.1,1.7
337.5,89.6,89.4,92.4,90.5,1.7
340.0,89.3,88.8,91.4,89.8,1.3
342.5,89.5,88.6,91.2,89.8,1.3
345.0,88.4,87.4,90.9,88.9,1.8
347.5,88.6,86.2,90.0,88.3,1.9
350.0,88.0,86.3,88.6,87.6,1.2
352.5,88.3,87.2,89.0,88.2,0.9
355.0,89.1,85.9,89.3,88.1,2.0
357.5,88.3,84.8,88.7,87.3,2.2
360.0,86.9,84.3,89.7,87.0,2.7
362.5,86.7,84.4,86.4,85.8,1.3
365.0,85.2,86.0,88.0,86.4,1.4
367.5,84.6,85.5,87.8,86.0,1.7
370.0,83.5,84.8,85.7,84.7,1.1
372.5,84.0,86.7,87.1,85.9,1.7
375.0,85.5,84.3,86.5,85.4,1.1
377.5,86.3,82.9,86.6,85.3,2.0
380.0,87.0,83.5,85.9,85.5,1.8
382.5,85.9,83.5,86.6,85.3,1.6
385.0,84.9,81.9,85.6,84.2,2.0
387.5,85.8,82.6,84.6,84.3,1.6
390.0,85.1,82.0,83.5,83.5,1.6
392.5,85.8,81.0,84.3,83.7,2.5
395.0,85.1,81.8,83.8,83.5,1.7
397.5,85.0,81.7,83.9,83.5,1.7
400.0,84.4,81.0,82.6,82.7,1.7
402.5,84.1,80.5,81.7,82.1,1.9
405.0,84.6,80.8,83.0,82.8,1.9
407.5,86.1,79.6,84.2,83.3,3.3
410.0,86.0,79.9,81.9,82.6,3.1
412.5,86.1,80.7,82.0,82.9,2.8
415.0,84.4,79.1,80.5,81.4,2.7
417.5,85.9,79.4,79.8,81.7,3.6
420.0,83.9,79.9,80.0,81.3,2.3
422.5,82.6,79.3,78.6,80.2,2.1
425.0,83.5,77.9,79.4,80.3,2.9
427.5,83.7,80.0,79.3,81.0,2.3
430.0,80.6,79.0,79.3,79.7,0.8
432.5,79.3,78.0,79.2,78.8,0.7
435.0,79.6,77.7,78.2,78.5,1.0
437.5,80.1,78.4,78.3,79.0,1.0
440.0,81.7,77.7,78.4,79.2,2.2
442.5,80.2,76.9,78.3,78.5,1.7
445.0,78.9,76.7,79.8,78.4,1.6
447.5,79.4,76.4,78.8,78.2,1.6
450.0,78.2,76.9,78.7,77.9,0.9
452.5,77.7,77.2,79.1,78.0,1.0
455.0,79.6,75.8,76.2,77.2,2.1
457.5,80.1,75.4,76.6,77.4,2.5
460.0,78.8,77.1,77.0,77.6,1.0
462.5,78.3,74.8,75.8,76.3,1.8
465.0,77.3,76.5,75.8,76.5,0.8
467.5,77.8,75.8,74.8,76.1,1.5
470.0,77.9,77.1,74.4,76.4,1.8
472.5,78.0,75.8,74.2,76.0,1.9
475.0,77.8,73.9,73.9,75.2,2.3
477.5,77.6,74.2,73.0,74.9,2.3
480.0,78.5,75.2,73.7,75.8,2.5
482.5,76.2,75.1,73.7,75.0,1.2
485.0,76.6,74.1,73.7,74.8,1.5
487.5,77.3,74.4,75.1,75.6,1.5
490.0,75.5,75.4,73.2,74.7,1.3
492.5,75.3,74.3,73.9,74.5,0.8
495.0,72.8,73.8,72.3,72.9,0.8
497.5,74.3,72.8,73.7,73.6,0.7
500.0,74.2,73.5,73.4,73.7,0.4
502.5,74.0,73.4,71.5,73.0,1.3
505.0,72.7,72.6,72.2,72.5,0.3
507.5,71.3,71.9,71.2,71.5,0.4
510.0,71.3,73.0,72.2,72.2,0.9
512.5,71.0,70.9,70.7,70.9,0.2
515.0,71.8,72.6,72.3,72.2,0.4
517.5,71.3,73.5,69.5,71.4,2.0
520.0,71.9,72.4,70.4,71.6,1.1
522.5,70.2,71.8,71.5,71.2,0.8
525.0,71.0,71.5,70.2,70.9,0.6
527.5,71.6,72.5,69.9,71.3,1.3
530.0,71.6,71.5,70.0,71.1,0.9
532.5,70.9,71.4,69.3,70.5,1.1
535.0,70.4,71.6,69.1,70.4,1.3
537.5,69.5,70.6,69.7,69.9,0.6
540.0,68.2,70.5,70.3,69.7,1.3
542.5,69.0,70.7,69.9,69.9,0.9
545.0,68.5,71.3,69.3,69.7,1.4
547.5,69.0,69.5,67.6,68.7,1.0
550.0,69.3,71.1,67.7,69.4,1.7
552.5,68.0,70.2,68.3,68.9,1.2
555.0,68.7,69.7,67.4,68.6,1.2
557.5,67.7,69.8,68.0,68.5,1.1
560.0,67.7,69.5,67.3,68.1,1.2
562.5,68.3,68.0,67.3,67.9,0.5
565.0,68.8,68.0,66.7,67.8,1.0
567.5,68.9,68.4,66.2,67.8,1.4
570.0,68.3,69.2,65.1,67.5,2.1
572.5,68.8,67.9,66.3,67.7,1.3
575.0,67.4,68.4,66.3,67.4,1.1
577.5,67.7,67.8,66.2,67.2,0.9
580.0,68.0,67.4,65.7,67.0,1.2
582.5,66.5,67.5,64.6,66.2,1.5
585.0,67.5,67.4,65.7,66.9,1.0
587.5,68.0,65.8,65.7,66.5,1.3
590.0,65.9,66.5,66.1,66.1,0.3
592.5,66.7,67.1,65.8,66.6,0.7
595.0,66.6,68.4,65.3,66.8,1.6
597.5,65.9,66.5,65.8,66.0,0.4
600.0,64.6,65.8,65.6,65.3,0.6
602.5,67.0,65.8,65.9,66.2,0.7
605.0,66.3,65.5,66.2,66.0,0.5
607.5,66.3,64.6,64.5,65.1,1.0
610.0,65.5,65.9,64.8,65.4,0.5
612.5,65.6,66.7,65.2,65.8,0.8
615.0,65.3,65.4,65.2,65.3,0.1
617.5,64.5,65.6,63.3,64.5,1.1
620.0,64.7,65.6,64.5,64.9,0.6
622.5,64.9,64.6,64.9,64.8,0.2
625.0,65.2,66.3,64.5,65.3,0.9
627.5,62.9,65.7,64.3,64.3,1.4
630.0,63.8,65.5,63.3,64.2,1.2
632.5,64.2,66.0,63.0,64.4,1.5
635.0,63.5,64.6,62.1,63.4,1.2
637.5,63.1,64.0,61.7,62.9,1.2
640.0,63.5,64.7,61.4,63.2,1.7
642.5,63.2,63.4,61.8,62.8,0.9
645.0,62.1,63.4,63.8,63.1,0.9
647.5,61.9,64.1,62.9,62.9,1.1
650.0,62.6,63.7,63.1,63.1,0.6
652.5,62.5,62.6,63.0,62.7,0.3
655.0,61.4,62.1,62.9,62.1,0.8
657.5,62.7,63.1,63.1,63.0,0.3
660.0,62.6,64.8,63.0,63.5,1.2
662.5,62.4,64.1,60.9,62.5,1.6
665.0,63.0,62.7,62.3,62.7,0.3
667.5,62.2,62.7,61.8,62.2,0.4
670.0,61.7,62.3,62.6,62.2,0.5
672.5,62.3,61.5,63.1,62.3,0.8
675.0,61.6,60.7,62.6,61.6,0.9
677.5,60.9,61.5,62.4,61.6,0.7
680.0,61.9,61.6,63.6,62.4,1.0
682.5,60.9,61.0,63.2,61.7,1.3
685.0,60.5,60.6,63.0,61.4,1.4
687.5,61.4,60.7,62.6,61.5,0.9
690.0,60.4,60.9,61.9,61.0,0.7
692.5,61.2,60.4,61.7,61.1,0.7
695.0,60.5,60.0,61.6,60.7,0.8
697.5,60.8,60.8,60.7,60.8,0.1
700.0,59.6,61.3,60.6,60.5,0.8
702.5,60.0,60.7,60.1,60.3,0.4
705.0,59.8,61.4,59.4,60.2,1.1
707.5,59.0,61.4,59.8,60.1,1.2
710.0,60.7,60.8,59.7,60.4,0.6
712.5,58.8,61.9,60.5,60.4,1.5
715.0,59.6,61.6,60.3,60.5,1.0
717.5,58.5,61.4,61.1,60.3,1.6
720.0,58.0,61.8,61.7,60.5,2.2
722.5,57.4,60.2,59.8,59.1,1.5
725.0,58.0,60.1,60.2,59.4,1.2
727.5,57.3,58.8,62.0,59.4,2.4
730.0,56.8,60.0,59.3,58.7,1.7
732.5,57.3,59.0,60.4,58.9,1.6
735.0,57.4,59.5,59.7,58.9,1.3
737.5,57.9,59.8,61.4,59.7,1.8
740.0,58.0,60.3,60.3,59.6,1.3
742.5,57.9,60.1,59.8,59.3,1.2
745.0,58.3,58.9,60.5,59.2,1.1
747.5,58.6,59.5,59.8,59.3,0.6
750.0,56.9,60.2,59.6,58.9,1.8
752.5,58.3,59.4,58.6,58.8,0.6
755.0,58.3,59.9,59.8,59.3,0.9
757.5,57.3,60.5,61.3,59.7,2.1
760.0,58.2,60.9,61.7,60.3,1.8
762.5,57.1,61.5,60.3,59.6,2.3
765.0,55.9,61.2,60.5,59.2,2.9
767.5,56.6,60.9,60.4,59.3,2.4
770.0,57.1,61.1,60.3,59.5,2.1
772.5,57.9,60.7,58.9,59.2,1.4
775.0,57.6,60.3,59.3,59.0,1.4
777.5,57.6,59.5,60.3,59.1,1.4
780.0,57.9,59.2,60.8,59.3,1.4
782.5,56.8,59.3,60.8,59.0,2.0
785.0,58.2,60.1,61.6,60.0,1.7
787.5,58.1,61.3,61.4,60.3,1.9
790.0,58.7,60.2,61.4,60.1,1.3
792.5,58.8,60.7,60.7,60.1,1.1
795.0,57.5,60.2,60.1,59.3,1.5
797.5,58.7,60.7,59.9,59.8,1.0
800.0,58.3,61.3,59.3,59.6,1.6
802.5,59.2,60.9,59.6,59.9,0.9
805.0,59.1,61.8,58.5,59.8,1.8
807.5,58.5,60.5,58.3,59.1,1.2
810.0,58.6,60.3,59.6,59.5,0.8
812.5,58.2,60.6,59.2,59.3,1.2
815.0,58.5,62.1,58.8,59.8,2.0
817.5,58.9,59.8,59.2,59.3,0.5
820.0,58.4,61.4,57.5,59.1,2.0
822.5,59.1,62.5,57.3,59.6,2.6
825.0,59.6,61.5,57.3,59.5,2.1
827.5,59.8,61.1,58.4,59.8,1.3
830.0,59.6,62.8,58.2,60.2,2.4
832.5,59.5,62.6,58.5,60.2,2.1
835.0,59.6,62.8,57.8,60.1,2.5
837.5,57.3,62.8,58.1,59.4,2.9
840.0,57.8,61.9,60.3,60.0,2.1
842.5,59.3,61.6,60.9,60.6,1.2
845.0,59.0,62.5,60.3,60.6,1.8
847.5,59.8,61.8,60.3,60.7,1.0
850.0,59.8,60.8,60.5,60.4,0.5
852.5,59.7,61.4,61.1,60.7,0.9
855.0,59.4,59.6,60.0,59.6,0.3
857.5,59.8,61.1,59.8,60.2,0.7
860.0,59.5,60.9,60.1,60.2,0.7
862.5,59.8,63.0,60.5,61.1,1.7
865.0,59.2,62.8,59.5,60.5,2.0
867.5,58.4,62.5,58.8,59.9,2.2
870.0,58.3,62.0,60.5,60.3,1.8
872.5,59.6,62.2,60.7,60.8,1.3
875.0,61.0,61.6,61.3,61.3,0.3
877.5,59.8,61.3,60.9,60.6,0.8
880.0,59.8,60.5,60.7,60.3,0.5
882.5,60.0,60.6,60.1,60.2,0.3
885.0,60.3,62.3,59.4,60.7,1.5
887.5,60.1,62.2,58.9,60.4,1.7
890.0,59.2,61.7,59.6,60.2,1.4
892.5,59.0,61.6,58.9,59.8,1.5
895.0,59.1,61.8,59.0,59.9,1.6
897.5,59.1,61.0,59.9,60.0,1.0
900.0,59.3,61.7,61.1,60.7,1.2
902.5,59.2,62.0,60.7,60.7,1.4
905.0,60.0,62.6,60.6,61.0,1.4
907.5,60.3,62.6,60.1,61.0,1.4
910.0,60.6,62.1,60.8,61.2,0.8
912.5,61.3,62.8,59.9,61.3,1.4
915.0,60.3,62.3,59.8,60.8,1.3
917.5,60.1,63.6,61.8,61.8,1.8
920.0,61.0,63.0,62.1,62.0,1.0
922.5,59.6,63.6,61.4,61.6,2.0
925.0,61.3,62.4,61.6,61.8,0.6
927.5,60.4,62.1,60.8,61.1,0.9
930.0,60.4,61.8,61.6,61.3,0.8
932.5,60.5,61.8,61.1,61.1,0.6
935.0,60.6,61.3,60.9,60.9,0.3
937.5,60.7,61.7,61.7,61.4,0.6
940.0,60.7,61.4,61.6,61.2,0.4
942.5,60.7,61.2,61.5,61.1,0.4
945.0,60.9,61.7,61.3,61.3,0.4
947.5,60.7,61.5,60.6,60.9,0.5
950.0,61.0,61.2,61.6,61.2,0.3
952.5,60.3,62.6,60.2,61.0,1.4
955.0,61.9,62.7,60.7,61.8,1.0
957.5,61.8,64.2,62.0,62.7,1.4
960.0,61.9,62.5,62.3,62.2,0.3
962.5,60.2,62.7,62.8,61.9,1.5
965.0,60.0,63.6,62.4,62.0,1.8
967.5,61.3,62.8,62.9,62.3,0.9
970.0,61.0,62.9,62.8,62.3,1.1
972.5,59.9,61.2,61.8,61.0,1.0
975.0,61.0,61.8,61.2,61.3,0.4
977.5,61.3,61.2,61.5,61.3,0.1
980.0,59.6,62.9,62.0,61.5,1.7
982.5,60.4,61.5,62.3,61.4,0.9
985.0,60.0,63.0,63.2,62.1,1.8
987.5,60.2,63.6,64.5,62.8,2.3
990.0,60.5,64.8,63.2,62.8,2.2
992.5,61.3,63.8,63.5,62.9,1.4
995.0,60.0,63.8,63.0,62.3,2.0
997.5,59.9,63.1,63.1,62.0,1.8
1000.0,61.4,62.6,62.7,62.2,0.8
1002.5,61.5,61.6,63.3,62.2,1.0
1005.0,62.0,61.6,62.5,62.0,0.5
1007.5,63.0,62.5,62.8,62.7,0.3
1010.0,62.2,63.7,62.4,62.8,0.8
1012.5,61.8,64.2,62.6,62.8,1.2
1015.0,61.9,64.9,61.7,62.8,1.8
1017.5,60.9,63.3,62.4,62.2,1.2
1020.0,60.8,62.2,63.0,62.0,1.1
1022.5,60.5,61.9,61.2,61.2,0.7
1025.0,61.1,62.7,62.2,62.0,0.8
1027.5,61.1,63.0,61.9,62.0,0.9
1030.0,61.2,63.4,62.7,62.5,1.1
1032.5,62.3,63.5,63.7,63.2,0.7
1035.0,61.0,63.8,62.8,62.5,1.5
1037.5,60.7,65.2,63.8,63.2,2.3
1040.0,61.3,64.4,63.5,63.1,1.6
1042.5,61.7,64.5,63.4,63.2,1.4
1045.0,61.2,63.4,64.7,63.1,1.8
1047.5,61.3,63.8,64.0,63.0,1.5
1050.0,60.6,64.5,64.3,63.1,2.2
1052.5,61.3,64.7,64.0,63.3,1.8
1055.0,60.9,63.7,64.4,63.0,1.9
1057.5,60.7,63.5,65.6,63.3,2.5
1060.0,60.0,64.6,64.7,63.1,2.7
1062.5,61.1,64.9,65.1,63.7,2.2
1065.0,61.3,64.7,64.8,63.6,2.0
1067.5,61.4,65.1,64.3,63.6,2.0
1070.0,62.9,65.2,63.7,64.0,1.2
1072.5,62.9,64.9,64.6,64.1,1.0
1075.0,61.8,65.2,66.3,64.4,2.3
1077.5,61.3,66.3,65.3,64.3,2.6
1080.0,59.8,67.8,64.7,64.1,4.0
1082.5,62.4,67.3,64.3,64.6,2.5
1085.0,62.6,65.8,63.0,63.8,1.8
1087.5,62.3,67.1,65.2,64.9,2.4
1090.0,63.2,65.6,65.8,64.9,1.5
1092.5,63.9,66.2,64.5,64.9,1.2
1095.0,63.6,66.0,64.9,64.8,1.2
1097.5,64.5,66.5,64.5,65.2,1.2
1100.0,65.9,67.9,64.7,66.2,1.6
1102.5,65.2,69.2,65.8,66.7,2.1
1105.0,63.5,67.6,64.9,65.3,2.1
1107.5,64.1,67.8,65.0,65.6,1.9
1110.0,62.6,66.2,64.1,64.3,1.8
1112.5,63.5,66.8,64.6,64.9,1.7
1115.0,64.1,67.5,64.7,65.4,1.8
1117.5,62.5,68.7,65.5,65.6,3.1
1120.0,61.7,68.5,65.2,65.2,3.4
1122.5,63.5,68.2,65.4,65.7,2.3
1125.0,62.6,67.9,64.9,65.2,2.7
1127.5,64.2,68.1,66.3,66.2,2.0
1130.0,63.3,68.7,67.0,66.3,2.8
1132.5,63.5,68.5,66.5,66.2,2.5
1135.0,64.2,68.9,66.2,66.4,2.4
1137.5,63.1,69.9,66.6,66.6,3.4
1140.0,64.5,70.3,66.7,67.1,2.9
1142.5,63.6,70.9,67.0,67.2,3.6
1145.0,63.7,71.2,67.2,67.3,3.8
1147.5,63.7,70.6,66.9,67.1,3.5
1150.0,64.1,71.2,67.5,67.6,3.5
1152.5,65.0,71.5,69.3,68.6,3.3
1155.0,64.5,70.3,69.7,68.2,3.2
1157.5,64.3,70.2,69.2,67.9,3.1
1160.0,63.9,69.4,69.1,67.4,3.1
1162.5,64.7,69.6,67.4,67.2,2.4
1165.0,65.0,69.2,66.9,67.0,2.1
1167.5,64.8,69.2,68.2,67.4,2.3
1170.0,65.1,69.7,67.8,67.5,2.3
1172.5,65.7,71.3,68.0,68.3,2.8
1175.0,64.8,71.1,67.9,68.0,3.2
1177.5,65.1,70.3,68.1,67.9,2.6
1180.0,64.7,71.6,68.3,68.2,3.5
1182.5,65.0,70.7,69.0,68.3,2.9
1185.0,66.3,72.1,68.0,68.8,3.0
1187.5,66.1,72.0,67.7,68.6,3.1
1190.0,66.4,70.1,68.7,68.4,1.9
1192.5,68.0,69.7,68.5,68.7,0.8
1195.0,67.6,70.0,68.9,68.9,1.2
1197.5,67.0,72.7,69.4,69.7,2.9
1200.0,66.9,74.6,70.5,70.6,3.8
1202.5,67.4,74.3,69.8,70.5,3.5
1205.0,67.1,74.7,70.1,70.6,3.8
1207.5,67.7,74.2,70.2,70.7,3.3
1210.0,69.1,76.4,69.1,71.5,4.2
1212.5,68.6,76.3,70.9,71.9,4.0
1215.0,70.1,76.5,71.0,72.5,3.4
1217.5,70.6,74.7,69.5,71.6,2.7
1220.0,70.9,76.9,70.6,72.8,3.5
1222.5,71.7,76.9,71.2,73.3,3.1
1225.0,73.3,77.6,71.8,74.2,3.0
1227.5,71.3,79.3,71.9,74.2,4.4
1230.0,71.2,78.3,72.5,74.0,3.8
1232.5,70.7,78.4,73.4,74.2,3.9
1235.0,72.6,79.2,73.0,74.9,3.7
1237.5,74.3,77.8,73.4,75.2,2.3
1240.0,76.2,78.6,75.5,76.8,1.7
1242.5,77.1,79.8,74.6,77.2,2.6
1245.0,76.8,80.3,75.5,77.5,2.5
1247.5,77.4,82.2,74.9,78.1,3.7
1250.0,76.9,80.3,76.1,77.8,2.2
1252.5,78.3,80.6,76.0,78.3,2.3
1255.0,79.4,80.7,75.1,78.4,2.9
1257.5,78.8,83.1,76.2,79.4,3.5
1260.0,79.8,80.4,77.1,79.1,1.8
1262.5,77.8,81.8,77.3,79.0,2.5
1265.0,78.8,82.4,75.3,78.9,3.5
1267.5,77.6,81.8,76.6,78.6,2.8
1270.0,79.1,83.4,76.9,79.8,3.3
1272.5,78.7,83.3,75.9,79.3,3.8
1275.0,78.8,83.0,76.8,79.5,3.2
1277.5,79.4,84.2,78.2,80.6,3.2
1280.0,78.6,82.7,79.8,80.4,2.1
1282.5,78.0,83.0,78.7,79.9,2.7
1285.0,78.1,82.5,78.1,79.6,2.6
1287.5,77.5,82.5,79.5,79.8,2.6
1290.0,75.4,83.1,78.7,79.1,3.9
1292.5,75.8,83.4,79.9,79.7,3.8
1295.0,75.9,83.1,80.0,79.7,3.6
1297.5,76.4,85.1,78.6,80.0,4.5
1300.0,75.1,81.3,80.1,78.8,3.3
1302.5,75.6,81.9,79.2,78.9,3.2
1305.0,74.9,81.2,79.7,78.6,3.3
1307.5,75.7,82.6,80.4,79.6,3.6
1310.0,75.6,81.4,80.8,79.3,3.2
1312.5,75.6,82.2,81.1,79.6,3.6
1315.0,73.2,82.3,82.2,79.3,5.2
1317.5,74.3,82.6,81.4,79.4,4.5
1320.0,73.1,83.1,80.9,79.1,5.3
1322.5,75.8,81.4,81.1,79.4,3.2
1325.0,76.6,80.7,81.0,79.4,2.5
1327.5,76.4,82.6,81.3,80.1,3.3
1330.0,74.3,82.1,82.2,79.5,4.5
1332.5,74.4,85.2,81.2,80.2,5.5
1335.0,76.5,83.1,81.5,80.4,3.5
1337.5,76.7,84.5,82.3,81.2,4.0
1340.0,76.9,85.9,82.8,81.9,4.6
1342.5,75.2,86.9,82.5,81.5,5.9
1345.0,75.8,86.9,83.3,82.0,5.6
1347.5,75.2,85.5,83.5,81.4,5.5
1350.0,76.8,87.1,83.0,82.3,5.2
1352.5,77.1,86.8,82.7,82.2,4.9
1355.0,78.3,84.7,81.6,81.6,3.2
1357.5,78.9,87.1,84.7,83.6,4.2
1360.0,80.2,88.9,84.7,84.6,4.3
1362.5,79.1,90.2,86.8,85.4,5.7
1365.0,79.2,91.4,87.5,86.0,6.2
1367.5,79.6,90.2,87.5,85.8,5.5
1370.0,78.2,89.5,85.9,84.5,5.8
1372.5,79.1,91.4,88.2,86.2,6.4
1375.0,78.6,90.5,86.5,85.2,6.1
1377.5,77.5,90.0,87.1,84.9,6.6
1380.0,77.8,91.6,86.9,85.4,7.0
1382.5,78.2,89.7,88.0,85.3,6.2
1385.0,78.7,88.5,87.0,84.8,5.3
1387.5,78.1,89.8,87.1,85.0,6.1
1390.0,78.0,89.4,85.4,84.3,5.8
1392.5,78.7,89.3,87.9,85.3,5.7
1395.0,78.4,89.8,87.1,85.1,6.0
1397.5,79.7,88.7,86.8,85.1,4.7
1400.0,80.9,88.8,87.7,85.8,4.3
1402.5,80.5,89.2,87.6,85.8,4.6
1405.0,78.6,88.0,87.0,84.5,5.2
1407.5,80.0,87.0,87.6,84.9,4.2
1410.0,78.2,88.8,86.3,84.4,5.5
1412.5,78.1,90.9,85.2,84.7,6.4
1415.0,77.1,87.1,85.2,83.1,5.3
1417.5,78.0,87.2,87.1,84.1,5.3
1420.0,77.5,86.7,86.8,83.6,5.3
1422.5,77.9,88.7,85.6,84.1,5.5
1425.0,77.6,87.1,86.2,83.7,5.3
1427.5,78.4,87.7,86.7,84.2,5.1
1430.0,77.7,86.3,86.9,83.6,5.2
1432.5,77.3,87.0,87.4,83.9,5.7
1435.0,77.1,86.4,87.9,83.8,5.9
1437.5,78.9,86.4,88.4,84.6,5.0
1440.0,77.7,84.7,90.3,84.2,6.3
1442.5,76.2,84.0,91.8,84.0,7.8
1445.0,76.2,84.0,89.9,83.4,6.8
1447.5,75.8,83.8,91.1,83.6,7.7
1450.0,75.2,83.3,91.1,83.2,7.9
1452.5,73.8,82.9,91.5,82.8,8.8
1455.0,75.3,84.1,93.6,84.4,9.2
1457.5,75.5,83.9,93.8,84.4,9.2
1460.0,77.1,82.8,93.6,84.5,8.4
1462.5,74.6,82.3,95.2,84.0,10.4
1465.0,75.2,80.7,94.0,83.3,9.7
1467.5,74.7,80.8,95.7,83.7,10.8
1470.0,73.5,78.9,97.8,83.4,12.8
1472.5,73.2,77.3,95.9,82.1,12.1
1475.0,74.0,76.6,97.1,82.6,12.6
1477.5,73.9,76.2,96.9,82.4,12.7
1480.0,73.1,78.4,95.7,82.4,11.8
1482.5,74.7,77.9,99.4,84.0,13.4
1485.0,73.7,78.5,98.9,83.7,13.4
1487.5,74.7,77.1,100.1,84.0,14.0
1490.0,75.5,76.5,101.0,84.3,14.5
1492.5,74.7,77.8,101.6,84.7,14.7
1495.0,75.3,76.0,98.7,83.3,13.3
1497.5,74.8,76.0,100.9,83.9,14.7
1500.0,75.7,76.8,101.1,84.5,14.3
1502.5,74.7,77.8,100.7,84.4,14.2
1505.0,76.2,77.2,100.4,84.6,13.7
1507.5,74.9,76.0,101.1,84.0,14.8
1510.0,76.0,76.1,102.1,84.7,15.0
1512.5,77.1,76.4,101.2,84.9,14.1
1515.0,76.3,74.8,101.0,84.0,14.7
1517.5,76.3,73.1,103.5,84.3,16.7
1520.0,75.7,75.0,100.9,83.9,14.8
1522.5,75.2,75.6,100.5,83.8,14.5
1525.0,73.8,77.6,99.7,83.7,14.0
1527.5,73.0,76.4,99.4,82.9,14.4
1530.0,72.9,76.7,97.6,82.4,13.3
1532.5,72.9,77.0,99.4,83.1,14.2
1535.0,72.0,75.5,100.0,82.5,15.3
1537.5,71.6,75.9,100.1,82.6,15.3
1540.0,72.6,73.4,97.0,81.0,13.9
1542.5,72.2,75.2,98.5,82.0,14.4
1545.0,71.6,73.9,100.1,81.9,15.8
1547.5,72.4,74.4,100.3,82.4,15.6
1550.0,72.2,75.4,99.4,82.3,14.9
1552.5,71.5,73.2,97.1,80.6,14.3
1555.0,71.9,73.5,98.5,81.3,14.9
1557.5,72.3,74.5,97.9,81.6,14.2
1560.0,70.2,73.1,96.6,80.0,14.5
1562.5,69.5,71.6,97.4,79.5,15.5
1565.0,70.3,73.8,96.8,80.3,14.4
1567.5,70.3,73.6,95.2,79.7,13.6
1570.0,69.4,74.1,95.8,79.8,14.1
1572.5,69.5,74.0,95.3,79.6,13.8
1575.0,68.5,74.0,94.5,79.0,13.7
1577.5,68.2,73.6,94.7,78.8,14.0
1580.0,67.7,73.0,95.6,78.8,14.8
1582.5,67.9,73.8,95.5,79.1,14.5
1585.0,68.2,72.3,95.4,78.6,14.7
1587.5,65.9,72.0,93.7,77.2,14.6
1590.0,66.6,73.0,90.9,76.8,12.6
1592.5,68.3,72.4,93.0,77.9,13.3
1595.0,67.6,72.5,90.7,76.9,12.2
1597.5,67.2,72.0,91.3,76.8,12.8
1600.0,67.0,73.6,93.6,78.1,13.9
1602.5,65.3,73.8,94.6,77.9,15.1
1605.0,66.9,73.9,92.9,77.9,13.5
1607.5,67.2,73.6,95.1,78.6,14.6
1610.0,66.2,72.8,94.3,77.8,14.7
1612.5,66.2,72.0,92.5,76.9,13.8
1615.0,65.6,71.6,92.9,76.7,14.4
1617.5,65.5,70.3,91.8,75.9,14.0
1620.0,65.9,69.4,90.9,75.4,13.5
1622.5,66.6,69.7,91.9,76.1,13.8
1625.0,65.4,68.5,93.4,75.8,15.4
1627.5,64.5,69.3,92.6,75.5,15.0
1630.0,63.9,67.8,93.0,74.9,15.8
1632.5,64.4,67.7,91.4,74.5,14.7
1635.0,63.8,68.3,93.4,75.2,16.0
1637.5,64.8,69.7,92.2,75.6,14.6
1640.0,64.9,69.8,90.5,75.1,13.6
1642.5,64.9,68.8,88.4,74.1,12.6
1645.0,63.7,69.4,88.5,73.8,13.0
1647.5,64.0,68.7,88.9,73.9,13.2
1650.0,64.7,70.8,87.3,74.3,11.7
1652.5,63.7,69.9,88.5,74.0,12.9
1655.0,63.8,70.5,87.8,74.0,12.4
1657.5,63.5,69.7,90.4,74.6,14.1
1660.0,62.7,67.6,89.1,73.1,14.1
1662.5,61.6,68.1,90.5,73.4,15.1
1665.0,62.2,68.1,89.4,73.2,14.3
1667.5,61.4,68.6,89.9,73.3,14.8
1670.0,61.0,67.2,89.6,72.6,15.0
1672.5,61.1,67.3,89.6,72.7,15.0
1675.0,60.8,67.3,88.5,72.2,14.5
1677.5,59.8,67.7,88.1,71.9,14.6
1680.0,60.7,67.9,88.5,72.4,14.5
1682.5,60.8,66.8,87.2,71.6,13.8
1685.0,60.2,66.7,86.9,71.2,13.9
1687.5,61.8,66.5,86.2,71.5,13.0
1690.0,61.0,66.5,86.3,71.3,13.3
1692.5,61.1,66.4,88.3,71.9,14.4
1695.0,59.8,65.4,88.0,71.1,14.9
1697.5,58.9,66.8,87.5,71.0,14.8
1700.0,60.2,65.2,87.4,70.9,14.5
1702.5,60.8,64.3,87.5,70.9,14.5
1705.0,61.1,64.0,87.9,71.0,14.7
1707.5,61.2,64.9,88.4,71.5,14.8
1710.0,61.3,65.8,89.4,72.2,15.1
1712.5,60.8,65.1,88.6,71.5,15.0
1715.0,60.4,65.1,87.3,70.9,14.4
1717.5,60.7,64.4,87.9,71.0,14.7
1720.0,62.5,63.9,87.4,71.2,14.0
1722.5,60.8,65.7,88.6,71.7,14.8
1725.0,61.1,64.8,87.1,71.0,14.1
1727.5,61.5,65.0,88.4,71.7,14.6
1730.0,61.3,64.4,87.6,71.1,14.4
1732.5,61.2,63.0,87.8,70.7,14.9
1735.0,61.3,63.5,85.5,70.1,13.4
1737.5,61.7,63.4,85.8,70.3,13.4
1740.0,61.4,63.1,85.9,70.1,13.7
1742.5,62.2,63.7,85.7,70.5,13.2
1745.0,61.9,63.7,84.3,70.0,12.5
1747.5,61.3,64.8,85.4,70.5,13.0
1750.0,61.4,63.8,85.5,70.2,13.3
1752.5,60.6,63.3,85.7,69.9,13.8
1755.0,60.4,63.7,86.9,70.4,14.5
1757.5,58.5,62.4,85.9,68.9,14.8
1760.0,59.0,63.0,85.9,69.3,14.5
1762.5,58.1,62.3,87.5,69.3,15.9
1765.0,57.8,61.6,87.4,68.9,16.1
1767.5,57.2,60.5,86.7,68.1,16.2
1770.0,58.0,61.3,86.4,68.6,15.6
1772.5,58.7,61.0,87.9,69.2,16.2
1775.0,59.3,62.2,87.2,69.6,15.4
1777.5,59.5,60.2,86.7,68.8,15.5
1780.0,60.4,61.5,87.6,69.8,15.4
1782.5,60.4,61.4,85.6,69.1,14.2
1785.0,60.2,61.1,87.1,69.5,15.3
1787.5,58.9,60.6,86.8,68.8,15.6
1790.0,58.6,60.4,86.9,68.6,15.8
1792.5,58.2,60.9,88.2,69.1,16.6
1795.0,58.5,60.7,86.6,68.6,15.6
1797.5,57.7,61.0,85.9,68.2,15.4
1800.0,58.0,61.0,87.2,68.7,16.1
1802.5,59.6,60.0,86.2,68.6,15.2
1805.0,60.1,61.2,87.4,69.6,15.5
1807.5,58.7,63.1,87.3,69.7,15.4
1810.0,57.7,63.5,86.8,69.3,15.4
1812.5,57.5,62.4,86.3,68.8,15.4
1815.0,57.9,61.6,86.4,68.6,15.5
1817.5,57.3,60.6,87.8,68.5,16.7
1820.0,56.7,60.2,88.1,68.3,17.2
1822.5,57.8,59.8,87.9,68.5,16.8
1825.0,56.6,59.9,86.3,67.6,16.3
1827.5,56.8,59.5,87.6,68.0,17.0
1830.0,55.9,59.1,85.7,66.9,16.4
1832.5,55.6,58.4,85.7,66.6,16.7
1835.0,55.9,57.3,84.5,65.9,16.1
1837.5,55.4,57.8,85.9,66.3,16.9
1840.0,54.9,59.2,85.4,66.5,16.5
1842.5,55.7,58.2,87.3,67.0,17.6
1845.0,55.3,58.5,85.9,66.5,16.8
1847.5,54.9,56.8,85.5,65.7,17.1
1850.0,55.0,57.2,86.1,66.1,17.4
1852.5,54.1,57.0,87.4,66.2,18.4
1855.0,54.6,56.9,86.1,65.9,17.5
1857.5,54.2,55.5,86.2,65.3,18.1
1860.0,55.6,55.9,85.1,65.5,16.9
1862.5,54.9,55.5,84.7,65.1,17.0
1865.0,53.1,56.2,85.8,65.0,18.0
1867.5,53.4,55.9,85.8,65.0,18.0
1870.0,53.9,55.6,85.2,64.9,17.6
1872.5,52.7,55.5,84.7,64.3,17.7
1875.0,54.3,55.8,83.7,64.6,16.6
1877.5,54.7,56.2,84.5,65.1,16.8
1880.0,54.6,56.4,83.4,64.8,16.1
1882.5,54.8,56.8,85.6,65.7,17.2
1885.0,55.2,57.5,85.9,66.2,17.1
1887.5,55.0,56.4,88.1,66.5,18.7
1890.0,53.6,55.7,88.5,65.9,19.6
1892.5,52.0,55.4,86.9,64.8,19.2
1895.0,51.4,55.7,85.4,64.2,18.5
1897.5,50.8,55.9,85.4,64.0,18.6
1900.0,50.0,55.0,86.2,63.7,19.6
1902.5,49.9,55.1,84.9,63.3,18.9
1905.0,49.3,55.1,83.7,62.7,18.4
1907.5,49.9,55.3,86.4,63.8,19.7
1910.0,48.6,54.4,85.6,62.9,19.9
1912.5,47.4,54.8,84.5,62.3,19.6
1915.0,47.8,54.9,84.6,62.4,19.5
1917.5,49.4,54.8,83.8,62.7,18.5
1920.0,51.9,55.2,83.9,63.7,17.6
1922.5,52.0,55.2,81.5,62.9,16.2
1925.0,51.1,54.3,81.9,62.4,17.0
1927.5,51.2,55.0,81.8,62.7,16.6
1930.0,51.2,54.0,81.5,62.2,16.7
1932.5,51.1,54.3,80.8,62.1,16.3
1935.0,51.1,54.9,81.7,62.6,16.7
1937.5,50.9,54.7,83.2,62.9,17.7
1940.0,49.7,54.5,80.8,61.7,16.7
1942.5,49.2,53.4,78.9,60.5,16.1
1945.0,48.2,52.6,79.5,60.1,16.9
1947.5,47.9,53.0,79.5,60.1,17.0
1950.0,48.9,53.1,81.5,61.1,17.7
1952.5,48.5,52.9,78.1,59.8,16.0
1955.0,48.4,52.7,78.8,60.0,16.4
1957.5,48.9,52.5,79.2,60.2,16.6
1960.0,48.5,53.2,78.3,60.0,16.0
1962.5,49.2,52.7,78.2,60.0,15.8
1965.0,49.0,52.7,76.9,59.6,15.2
1967.5,49.4,51.3,76.6,59.1,15.2
1970.0,49.0,52.3,76.0,59.1,14.7
1972.5,49.2,53.2,76.8,59.7,14.9
1975.0,49.9,52.0,75.7,59.2,14.3
1977.5,48.9,52.2,74.5,58.5,13.9
1980.0,48.0,51.6,73.1,57.6,13.6
1982.5,47.7,52.6,74.3,58.2,14.1
1985.0,47.7,51.9,75.6,58.4,15.0
1987.5,46.6,50.6,75.1,57.4,15.4
1990.0,46.1,50.1,75.2,57.1,15.8
1992.5,46.4,49.9,74.9,57.1,15.5
1995.0,46.0,50.5,75.2,57.2,15.7
1997.5,46.7,50.0,75.1,57.3,15.5
2000.0,45.4,50.3,73.9,56.5,15.2
2002.5,45.3,50.7,74.8,56.9,15.7
2005.0,45.2,50.3,73.9,56.5,15.3
2007.5,46.6,50.5,74.9,57.3,15.3
2010.0,47.7,51.6,74.1,57.8,14.2
2012.5,48.6,51.8,72.8,57.8,13.2
2015.0,47.8,52.2,71.4,57.1,12.6
2017.5,48.2,52.2,71.3,57.2,12.3
2020.0,46.6,50.8,71.5,56.3,13.3
2022.5,45.6,51.1,70.7,55.8,13.2
2025.0,45.6,50.9,71.0,55.8,13.4
2027.5,45.2,51.2,70.1,55.5,13.0
2030.0,45.5,51.5,70.0,55.7,12.8
2032.5,47.5,49.9,69.8,55.7,12.3
2035.0,46.8,49.4,70.2,55.4,12.8
2037.5,45.1,50.0,68.6,54.6,12.4
2040.0,45.0,49.0,68.6,54.2,12.7
2042.5,44.4,48.2,69.3,54.0,13.4
2045.0,44.6,48.2,67.0,53.3,12.0
2047.5,44.2,49.3,67.4,53.6,12.2
2050.0,45.0,48.3,67.9,53.7,12.4
2052.5,44.4,49.1,67.5,53.6,12.2
2055.0,44.4,48.8,67.3,53.5,12.1
2057.5,44.7,48.9,68.3,54.0,12.6
2060.0,42.8,48.4,68.0,53.1,13.2
2062.5,42.7,48.6,67.3,52.9,12.8
2065.0,42.1,48.1,67.2,52.5,13.1
2067.5,42.6,47.6,67.8,52.7,13.4
2070.0,43.6,47.7,68.3,53.2,13.2
2072.5,43.3,48.3,66.2,52.6,12.0
2075.0,43.3,48.1,66.9,52.8,12.4
2077.5,43.6,47.5,67.1,52.7,12.6
2080.0,43.5,47.5,67.0,52.7,12.5
2082.5,42.6,45.2,66.7,51.5,13.2
2085.0,42.6,43.5,65.6,50.6,13.0
2087.5,42.6,45.9,66.4,51.6,12.9
2090.0,42.2,47.5,67.0,52.2,13.0
2092.5,42.4,48.4,66.1,52.3,12.3
2095.0,41.9,48.1,66.3,52.1,12.7
2097.5,42.7,48.8,65.5,52.3,11.8
2100.0,41.6,48.2,64.3,51.4,11.7
2102.5,42.1,47.6,63.1,50.9,10.9
2105.0,41.6,47.3,63.4,50.8,11.3
2107.5,42.2,48.2,64.0,51.5,11.3
2110.0,42.1,48.4,63.8,51.4,11.1
2112.5,42.4,48.6,63.5,51.5,10.9
2115.0,41.7,48.5,62.8,51.0,10.7
2117.5,41.6,48.0,62.9,50.9,10.9
2120.0,42.8,48.3,64.2,51.8,11.1
2122.5,42.3,47.7,63.7,51.2,11.1
2125.0,42.4,46.6,64.4,51.2,11.7
2127.5,42.5,46.9,64.3,51.2,11.5
2130.0,41.6,47.4,64.3,51.1,11.8
2132.5,41.5,46.3,63.0,50.3,11.3
2135.0,41.1,46.0,62.3,49.8,11.1
2137.5,41.0,45.2,62.6,49.6,11.5
2140.0,39.9,44.5,63.6,49.3,12.6
2142.5,40.3,45.6,62.6,49.5,11.6
2145.0,40.8,46.9,61.4,49.7,10.6
2147.5,41.2,45.9,61.0,49.4,10.4
2150.0,40.8,45.5,60.9,49.1,10.5
2152.5,41.1,46.4,62.2,49.9,11.0
2155.0,41.2,46.9,63.6,50.6,11.6
2157.5,39.7,46.1,61.5,49.1,11.2
2160.0,40.0,46.7,61.8,49.5,11.2
2162.5,39.9,48.3,63.4,50.5,11.9
2165.0,41.3,46.8,62.2,50.1,10.8
2167.5,40.5,45.8,61.4,49.3,10.9
2170.0,41.1,46.8,61.2,49.7,10.4
2172.5,41.4,47.3,61.5,50.1,10.3
2175.0,41.5,46.2,61.1,49.6,10.2
2177.5,41.4,45.8,61.4,49.5,10.5
2180.0,41.8,44.3,60.3,48.8,10.1
2182.5,41.7,44.7,60.6,49.0,10.2
2185.0,42.9,45.8,61.4,50.1,10.0
2187.5,40.7,47.0,60.8,49.5,10.3
2190.0,41.1,47.8,61.8,50.2,10.6
2192.5,39.9,48.0,60.9,49.6,10.6
2195.0,39.4,47.3,60.5,49.1,10.7
2197.5,39.5,47.6,60.9,49.3,10.8
2200.0,39.3,46.8,60.2,48.8,10.6
2202.5,40.6,48.0,61.5,50.0,10.6
2205.0,41.4,47.3,60.5,49.7,9.8
2207.5,41.8,47.4,59.5,49.6,9.1
2210.0,42.1,47.7,58.5,49.4,8.3
2212.5,41.3,47.1,57.7,48.7,8.3
2215.0,41.9,47.3,58.8,49.3,8.6
2217.5,42.1,47.4,59.2,49.5,8.8
2220.0,41.7,46.7,58.6,49.0,8.7
2222.5,41.7,46.1,58.8,48.9,8.9
2225.0,41.5,46.8,58.3,48.9,8.6
2227.5,41.9,47.1,58.6,49.2,8.6
2230.0,42.7,48.6,57.5,49.6,7.5
2232.5,42.9,46.4,58.6,49.3,8.2
2235.0,42.8,46.1,59.0,49.3,8.6
2237.5,42.0,46.0,60.0,49.3,9.4
2240.0,40.9,46.2,60.2,49.1,10.0
2242.5,39.8,47.6,60.4,49.3,10.4
2245.0,40.4,47.3,59.9,49.2,9.9
2247.5,41.4,46.8,59.9,49.4,9.5
2250.0,40.9,46.0,59.4,48.8,9.6
2252.5,40.1,45.2,58.6,47.9,9.5
2255.0,39.6,42.8,58.3,46.9,10.0
2257.5,38.8,41.6,58.1,46.2,10.4
2260.0,39.3,42.6,59.1,47.0,10.6
2262.5,39.2,43.0,58.3,46.8,10.1
2265.0,39.0,44.5,58.3,47.3,9.9
2267.5,39.2,45.3,58.0,47.5,9.6
2270.0,39.1,45.6,58.4,47.7,9.8
2272.5,38.8,45.1,58.9,47.6,10.3
2275.0,38.7,45.2,59.0,47.6,10.3
2277.5,38.4,45.3,57.8,47.2,9.9
2280.0,39.0,46.5,57.4,47.6,9.3
2282.5,39.4,45.7,58.0,47.7,9.5
2285.0,39.0,45.5,56.9,47.1,9.1
2287.5,39.3,46.5,56.9,47.6,8.9
2290.0,39.3,46.7,56.7,47.5,8.7
2292.5,39.9,47.2,56.1,47.7,8.1
2295.0,40.4,47.8,56.9,48.3,8.3
2297.5,39.4,48.1,57.4,48.3,9.0
2300.0,38.0,47.4,57.4,47.6,9.7
2302.5,38.3,47.8,57.5,47.9,9.6
2305.0,39.0,47.4,55.6,47.4,8.3
2307.5,40.6,48.4,55.6,48.2,7.5
2310.0,40.7,47.4,54.7,47.6,7.0
2312.5,38.3,47.1,55.5,47.0,8.6
2315.0,35.9,47.0,56.3,46.4,10.2
2317.5,35.6,47.4,56.9,46.6,10.7
2320.0,35.9,47.1,55.5,46.2,9.8
2322.5,36.9,47.0,55.9,46.6,9.5
2325.0,38.0,46.2,55.9,46.7,9.0
2327.5,39.1,47.3,57.1,47.8,9.0
2330.0,38.8,48.3,56.6,47.9,8.9
2332.5,38.4,49.3,56.6,48.1,9.2
2335.0,37.7,48.6,55.4,47.2,8.9
2337.5,38.6,47.9,55.3,47.3,8.4
2340.0,39.3,48.5,55.7,47.8,8.2
2342.5,39.7,48.7,57.6,48.7,9.0
2345.0,40.5,46.2,58.4,48.4,9.1
2347.5,41.1,45.2,57.6,48.0,8.6
2350.0,40.4,43.0,58.4,47.2,9.7
2352.5,39.8,43.4,56.5,46.6,8.8
2355.0,39.7,44.7,56.8,47.1,8.8
2357.5,39.4,44.9,57.2,47.2,9.1
2360.0,39.4,44.5,57.6,47.2,9.4
2362.5,40.0,44.6,56.6,47.1,8.5
2365.0,40.0,44.5,56.8,47.1,8.7
2367.5,40.7,43.5,56.8,47.0,8.6
2370.0,40.2,41.8,56.7,46.2,9.1
2372.5,40.2,42.2,55.5,46.0,8.3
2375.0,39.6,43.2,55.5,46.1,8.4
2377.5,40.3,45.9,57.1,47.8,8.5
2380.0,40.4,46.9,56.6,48.0,8.2
2382.5,40.3,47.2,56.0,47.8,7.9
2385.0,39.9,46.6,55.9,47.5,8.0
2387.5,39.1,46.1,56.1,47.1,8.5
2390.0,40.3,45.2,55.9,47.1,7.9
2392.5,40.4,45.4,56.5,47.4,8.2
2395.0,40.3,44.3,56.8,47.1,8.6
2397.5,40.6,44.6,57.0,47.4,8.6
2400.0,41.2,45.3,57.8,48.1,8.6
2402.5,41.9,46.4,57.0,48.4,7.8
2405.0,41.7,45.9,56.3,48.0,7.5
2407.5,40.9,45.7,56.5,47.7,8.0
2410.0,40.5,46.2,57.3,48.0,8.6
2412.5,40.5,48.2,57.4,48.7,8.5
2415.0,40.8,48.6,56.9,48.7,8.1
2417.5,40.9,48.8,56.8,48.8,7.9
2420.0,40.8,48.5,56.6,48.6,7.9
2422.5,40.6,49.1,56.8,48.8,8.1
2425.0,39.2,46.8,56.6,47.6,8.7
2427.5,38.7,46.7,56.0,47.1,8.7
2430.0,39.1,47.0,57.1,47.8,9.0
2432.5,39.4,46.7,59.1,48.4,10.0
2435.0,39.6,46.5,58.9,48.3,9.7
2437.5,40.8,45.1,57.9,47.9,8.9
2440.0,40.6,45.9,57.9,48.1,8.8
2442.5,40.3,45.7,57.5,47.8,8.8
2445.0,40.5,44.0,57.6,47.4,9.0
2447.5,40.1,45.0,58.2,47.8,9.3
2450.0,40.4,44.4,57.3,47.4,8.8
2452.5,41.4,45.1,57.9,48.1,8.6
2455.0,41.0,43.8,57.8,47.5,9.0
2457.5,41.4,43.2,58.9,47.8,9.6
2460.0,41.0,42.6,58.6,47.4,9.7
2462.5,40.3,43.7,58.0,47.3,9.4
2465.0,39.6,44.5,57.4,47.2,9.2
2467.5,40.0,44.2,58.4,47.5,9.6
2470.0,39.7,46.1,57.8,47.8,9.2
2472.5,41.3,46.6,59.3,49.1,9.2
2475.0,41.3,47.4,58.1,49.0,8.5
2477.5,41.1,46.4,58.6,48.7,9.0
2480.0,41.8,48.2,57.8,49.3,8.0
2482.5,41.3,48.8,58.5,49.6,8.6
2485.0,41.1,48.0,58.4,49.2,8.7
2487.5,40.4,47.9,59.3,49.2,9.5
2490.0,41.4,47.3,58.4,49.1,8.6
2492.5,41.7,46.5,58.5,48.9,8.6
2495.0,42.6,46.5,58.1,49.0,8.0
2497.5,42.0,47.1,57.2,48.8,7.8
2500.0,42.1,47.4,58.3,49.3,8.3
2502.5,42.1,47.7,59.4,49.8,8.8
2505.0,42.3,46.9,59.9,49.7,9.1
2507.5,41.6,47.1,59.7,49.5,9.3
2510.0,42.0,47.1,59.2,49.4,8.9
2512.5,41.1,46.5,58.9,48.8,9.1
2515.0,42.2,46.7,57.5,48.8,7.9
2517.5,43.0,46.4,57.9,49.1,7.8
2520.0,42.3,46.3,58.1,48.9,8.2
2522.5,41.5,46.9,58.7,49.1,8.8
2525.0,41.8,46.6,58.2,48.9,8.4
2527.5,42.4,46.0,57.9,48.8,8.1
2530.0,43.7,45.4,57.3,48.8,7.4
2532.5,43.6,47.2,56.1,49.0,6.4
2535.0,43.2,47.4,56.9,49.2,7.1
2537.5,42.9,46.8,57.9,49.2,7.8
2540.0,42.6,46.3,57.8,48.9,7.9
2542.5,42.5,45.9,59.5,49.3,9.0
2545.0,42.7,46.0,60.4,49.7,9.4
2547.5,42.5,45.5,59.6,49.2,9.2
2550.0,42.7,46.2,59.7,49.6,9.0
2552.5,42.7,45.9,59.6,49.4,9.0
2555.0,43.4,46.0,59.0,49.5,8.4
2557.5,43.3,45.6,59.8,49.6,8.9
2560.0,42.4,46.1,60.0,49.5,9.3
2562.5,42.8,45.9,60.3,49.7,9.3
2565.0,42.6,45.1,59.4,49.0,9.0
2567.5,43.3,44.9,58.4,48.9,8.3
2570.0,44.2,44.1,59.8,49.4,9.0
2572.5,43.4,44.8,59.9,49.4,9.1
2575.0,44.4,44.4,59.4,49.4,8.7
2577.5,43.2,43.9,60.5,49.2,9.8
2580.0,44.0,44.6,60.3,49.6,9.3
2582.5,44.2,44.3,61.2,49.9,9.8
2585.0,43.6,44.1,60.9,49.6,9.9
2587.5,43.5,43.9,60.3,49.2,9.6
2590.0,43.9,44.5,59.8,49.4,9.0
2592.5,43.9,45.7,59.9,49.8,8.8
2595.0,43.7,44.6,59.7,49.3,9.0
2597.5,43.7,45.2,61.0,50.0,9.6
2600.0,44.3,45.1,60.0,49.8,8.8
2602.5,43.8,45.2,59.5,49.5,8.7
2605.0,43.8,46.2,59.7,49.9,8.6
2607.5,43.1,46.3,59.0,49.5,8.4
2610.0,43.9,46.3,59.4,49.9,8.4
2612.5,43.4,47.4,59.7,50.2,8.5
2615.0,43.6,46.8,59.5,50.0,8.4
2617.5,43.2,46.5,58.8,49.5,8.2
2620.0,42.9,46.0,58.1,49.0,8.1
2622.5,44.5,46.5,60.1,50.3,8.5
2625.0,43.9,47.7,61.0,50.9,9.0
2627.5,43.8,47.7,61.1,50.9,9.0
2630.0,44.5,47.1,60.2,50.6,8.4
2632.5,45.2,46.4,60.3,50.6,8.4
2635.0,45.6,47.3,60.3,51.1,8.1
2637.5,44.9,47.6,61.5,51.4,8.9
2640.0,45.3,46.7,60.4,50.8,8.3
2642.5,45.5,45.7,61.5,50.9,9.2
2645.0,45.5,45.7,62.0,51.1,9.5
2647.5,46.0,45.7,60.0,50.6,8.2
2650.0,45.5,46.5,60.6,50.9,8.4
2652.5,47.3,45.8,60.2,51.1,7.9
2655.0,47.4,46.7,59.4,51.2,7.1
2657.5,47.6,46.5,60.3,51.5,7.7
2660.0,47.8,47.5,60.9,52.1,7.7
2662.5,48.4,48.3,61.2,52.6,7.4
2665.0,47.8,48.3,60.7,52.3,7.3
2667.5,48.3,48.7,60.4,52.5,6.9
2670.0,50.1,47.5,62.1,53.2,7.8
2672.5,49.6,48.9,63.4,53.9,8.2
2675.0,49.9,48.1,64.5,54.2,9.0
2677.5,49.7,47.7,64.3,53.9,9.0
2680.0,49.2,47.2,63.5,53.3,8.9
2682.5,48.9,46.5,62.9,52.8,8.9
2685.0,48.9,46.7,62.7,52.8,8.6
2687.5,48.9,46.0,63.8,52.9,9.6
2690.0,49.5,45.7,62.5,52.6,8.8
2692.5,50.2,46.2,62.1,52.8,8.3
2695.0,48.9,46.5,62.7,52.7,8.7
2697.5,48.9,46.3,61.8,52.3,8.3
2700.0,48.5,47.0,61.9,52.5,8.2
2702.5,49.1,46.0,64.2,53.1,9.7
2705.0,49.3,47.2,64.0,53.5,9.1
2707.5,48.8,47.0,63.9,53.2,9.3
2710.0,49.5,47.0,64.5,53.7,9.4
2712.5,47.9,47.0,64.2,53.0,9.7
2715.0,48.1,47.4,64.8,53.4,9.8
2717.5,48.0,46.6,64.6,53.1,10.0
2720.0,47.9,46.8,65.9,53.5,10.7
2722.5,48.7,47.1,64.3,53.3,9.5
2725.0,49.3,47.1,63.5,53.3,8.9
2727.5,50.1,47.5,64.5,54.0,9.1
2730.0,51.7,48.0,64.7,54.8,8.8
2732.5,51.0,48.3,64.5,54.6,8.7
2735.0,51.1,48.0,64.6,54.6,8.8
2737.5,51.0,47.2,66.2,54.8,10.0
2740.0,50.2,46.5,67.0,54.6,10.9
2742.5,50.7,47.4,67.4,55.2,10.7
2745.0,50.8,48.5,67.3,55.6,10.3
2747.5,52.3,49.4,66.0,55.9,8.9
2750.0,53.5,50.3,67.7,57.2,9.3
2752.5,53.3,48.7,66.9,56.3,9.5
2755.0,53.6,49.6,65.5,56.2,8.2
2757.5,53.4,49.4,65.0,55.9,8.1
2760.0,53.7,48.8,65.8,56.1,8.8
2762.5,54.4,48.8,65.6,56.3,8.5
2765.0,53.8,50.0,65.0,56.3,7.8
2767.5,53.9,49.5,65.2,56.2,8.1
2770.0,54.5,49.0,68.1,57.2,9.8
2772.5,53.5,49.0,68.7,57.1,10.3
2775.0,53.1,49.5,69.6,57.4,10.7
2777.5,52.3,49.0,69.2,56.8,10.9
2780.0,54.2,49.7,67.2,57.0,9.1
2782.5,56.0,49.2,67.4,57.6,9.2
2785.0,57.9,48.5,66.5,57.6,9.0
2787.5,56.6,47.5,69.2,57.7,10.9
2790.0,55.8,47.8,69.1,57.6,10.8
2792.5,55.6,49.4,67.6,57.5,9.2
2795.0,57.3,49.3,67.1,57.9,8.9
2797.5,56.6,50.3,66.9,57.9,8.4
2800.0,55.2,51.3,68.5,58.3,9.1
2802.5,56.2,51.2,68.4,58.6,8.8
2805.0,55.5,50.1,67.5,57.7,8.9
2807.5,55.9,50.2,67.8,58.0,9.0
2810.0,55.1,50.7,67.8,57.8,8.9
2812.5,53.8,50.2,68.2,57.4,9.5
2815.0,54.1,50.5,69.1,57.9,9.8
2817.5,55.2,50.6,69.1,58.3,9.7
2820.0,55.5,50.7,68.6,58.3,9.3
2822.5,56.1,51.0,68.6,58.6,9.0
2825.0,56.1,51.3,67.9,58.4,8.6
2827.5,55.9,52.0,68.0,58.6,8.3
2830.0,55.6,51.1,69.1,58.6,9.4
2832.5,55.1,51.5,69.3,58.6,9.4
2835.0,56.5,51.9,70.9,59.8,9.9
2837.5,57.1,51.8,70.4,59.8,9.6
2840.0,57.2,50.5,71.4,59.7,10.7
2842.5,58.2,51.9,71.0,60.3,9.7
2845.0,57.3,52.1,70.8,60.1,9.7
2847.5,58.2,51.5,71.2,60.3,10.0
2850.0,58.9,51.4,72.1,60.8,10.5
2852.5,57.8,50.2,71.2,59.7,10.6
2855.0,59.0,50.3,71.5,60.3,10.6
2857.5,58.8,49.8,72.2,60.3,11.3
2860.0,56.4,51.1,72.1,59.9,10.9
2862.5,56.1,51.6,71.9,59.8,10.7
2865.0,55.8,52.6,73.4,60.6,11.2
2867.5,57.3,53.7,72.8,61.3,10.1
2870.0,57.6,53.4,72.1,61.0,9.8
2872.5,57.2,54.2,73.4,61.6,10.3
2875.0,56.7,54.5,74.9,62.1,11.2
2877.5,57.5,53.5,74.1,61.7,10.9
2880.0,57.7,52.6,74.5,61.6,11.5
2882.5,59.0,53.4,75.2,62.5,11.3
2885.0,60.8,53.3,74.0,62.7,10.5
2887.5,61.7,53.4,74.6,63.2,10.7
2890.0,60.7,54.8,73.4,63.0,9.5
2892.5,60.9,54.8,73.7,63.1,9.7
2895.0,60.8,55.2,73.8,63.3,9.5
2897.5,61.3,55.3,74.1,63.6,9.6
2900.0,60.9,55.4,75.1,63.8,10.2
2902.5,62.5,55.0,77.1,64.9,11.3
2905.0,61.8,54.9,76.2,64.3,10.9
2907.5,61.3,54.7,76.3,64.1,11.1
2910.0,61.1,55.0,76.2,64.1,10.9
2912.5,61.0,55.7,77.0,64.6,11.1
2915.0,60.6,55.3,77.2,64.4,11.5
2917.5,61.2,54.0,76.2,63.8,11.3
2920.0,62.8,54.6,77.6,65.0,11.7
2922.5,63.4,55.4,76.4,65.1,10.6
2925.0,62.1,54.3,77.2,64.5,11.6
2927.5,62.3,53.9,77.5,64.6,12.0
2930.0,61.9,54.4,77.4,64.6,11.8
2932.5,60.8,55.6,76.7,64.4,11.0
2935.0,59.8,54.9,79.0,64.6,12.8
2937.5,61.2,56.1,78.0,65.1,11.5
2940.0,63.0,55.9,77.3,65.4,10.9
2942.5,62.4,56.7,78.4,65.8,11.3
2945.0,63.1,55.8,77.8,65.6,11.2
2947.5,63.1,55.9,78.4,65.8,11.5
2950.0,64.3,56.3,77.0,65.9,10.4
2952.5,64.3,57.7,77.0,66.4,9.8
2955.0,64.0,57.4,76.6,66.0,9.7
2957.5,62.2,57.2,80.1,66.5,12.1
2960.0,62.2,56.6,80.4,66.4,12.4
2962.5,63.3,56.6,81.4,67.1,12.8
2965.0,66.0,57.7,80.3,68.0,11.5
2967.5,65.0,56.9,80.7,67.6,12.1
2970.0,65.7,58.5,80.0,68.0,10.9
2972.5,66.1,57.9,79.5,67.8,10.9
2975.0,66.6,56.9,80.4,68.0,11.8
2977.5,67.0,57.5,80.3,68.3,11.4
2980.0,66.3,56.5,80.9,67.9,12.3
2982.5,65.9,57.2,81.3,68.1,12.2
2985.0,64.8,56.8,82.0,67.9,12.9
2987.5,66.3,57.2,81.6,68.4,12.3
2990.0,66.6,57.7,81.4,68.6,12.0
2992.5,66.1,58.5,81.0,68.5,11.4
2995.0,66.7,58.8,81.8,69.1,11.7
2997.5,67.1,59.1,81.3,69.2,11.3
3000.0,67.8,58.7,81.1,69.2,11.3
3002.5,66.0,58.7,81.5,68.7,11.7
3005.0,67.2,58.0,80.0,68.4,11.1
3007.5,67.3,59.1,82.4,69.6,11.8
3010.0,67.1,60.0,83.8,70.3,12.2
3012.5,67.7,59.5,84.5,70.6,12.8
3015.0,66.4,59.9,84.4,70.3,12.7
3017.5,67.5,61.0,84.2,70.9,12.0
3020.0,66.9,60.5,85.0,70.8,12.7
3022.5,66.8,60.7,84.3,70.6,12.3
3025.0,66.5,60.7,84.2,70.5,12.2
3027.5,66.5,61.5,83.5,70.5,11.6
3030.0,67.5,61.9,83.9,71.1,11.5
3032.5,67.9,61.7,84.4,71.4,11.7
3035.0,67.6,61.9,86.4,72.0,12.8
3037.5,66.7,61.7,85.7,71.4,12.7
3040.0,66.6,61.5,86.5,71.6,13.2
3042.5,67.3,61.3,86.0,71.5,12.9
3045.0,69.3,61.1,87.6,72.7,13.6
3047.5,69.6,62.1,87.5,73.0,13.0
3050.0,68.3,61.1,88.8,72.7,14.3
3052.5,67.3,63.0,87.7,72.6,13.2
3055.0,68.0,62.5,87.0,72.5,12.8
3057.5,69.6,63.8,86.7,73.4,11.9
3060.0,69.3,63.9,86.7,73.3,11.9
3062.5,68.4,63.3,88.8,73.5,13.5
3065.0,69.7,62.4,89.2,73.7,13.8
3067.5,69.7,63.1,88.7,73.9,13.3
3070.0,68.4,63.6,89.4,73.8,13.7
3072.5,68.7,63.4,88.3,73.5,13.1
3075.0,69.1,64.7,88.4,74.1,12.6
3077.5,70.3,65.6,88.8,74.9,12.2
3080.0,70.7,65.5,89.5,75.2,12.7
3082.5,71.4,63.6,91.4,75.5,14.3
3085.0,71.8,63.2,90.6,75.2,14.0
3087.5,71.3,63.0,91.9,75.4,14.9
3090.0,71.1,62.2,91.0,74.8,14.7
3092.5,72.7,63.6,90.6,75.6,13.7
3095.0,72.7,64.0,89.4,75.4,12.9
3097.5,72.0,65.1,88.0,75.1,11.8
3100.0,72.1,66.4,88.8,75.8,11.6
3102.5,71.4,66.7,88.8,75.6,11.7
3105.0,71.2,66.1,91.3,76.2,13.3
3107.5,72.8,67.5,91.6,77.3,12.7
3110.0,71.3,66.8,91.1,76.4,12.9
3112.5,72.2,66.8,92.3,77.1,13.4
3115.0,70.9,66.9,93.7,77.2,14.5
3117.5,71.0,66.6,91.5,76.4,13.3
3120.0,70.8,66.2,90.6,75.9,13.0
3122.5,70.8,66.2,91.0,76.0,13.2
3125.0,72.0,66.2,90.7,76.3,12.8
3127.5,73.4,66.2,90.5,76.7,12.5
3130.0,72.0,67.4,93.2,77.5,13.8
3132.5,71.5,66.9,91.1,76.5,12.8
3135.0,70.0,68.3,92.3,76.9,13.4
3137.5,70.8,66.8,91.8,76.5,13.4
3140.0,70.8,67.5,92.0,76.7,13.3
3142.5,71.8,68.9,93.9,78.2,13.7
3145.0,72.3,70.1,93.1,78.5,12.7
3147.5,71.5,68.9,91.5,77.3,12.4
3150.0,72.5,70.9,92.2,78.5,11.9
3152.5,70.4,70.3,92.2,77.6,12.6
3155.0,71.9,70.1,92.6,78.2,12.5
3157.5,72.9,68.9,91.9,77.9,12.3
3160.0,71.3,68.7,93.3,77.8,13.5
3162.5,71.0,68.4,95.2,78.2,14.8
3165.0,71.4,68.8,95.9,78.7,15.0
3167.5,73.6,70.7,93.8,79.4,12.6
3170.0,72.0,69.4,93.9,78.4,13.5
3172.5,72.7,70.5,94.0,79.1,13.0
3175.0,74.9,70.5,94.9,80.1,13.0
3177.5,73.7,71.6,93.2,79.5,11.9
3180.0,74.4,70.8,94.2,79.8,12.6
3182.5,73.4,71.6,93.5,79.5,12.1
3185.0,73.5,73.0,94.7,80.4,12.4
3187.5,73.6,72.8,97.1,81.2,13.8
3190.0,73.6,72.1,97.8,81.2,14.4
3192.5,74.6,71.2,95.3,80.3,13.1
3195.0,74.1,71.7,93.2,79.7,11.8
3197.5,73.9,71.1,95.0,80.0,13.1
3200.0,73.5,72.6,94.0,80.0,12.1
3202.5,72.6,72.6,93.0,79.4,11.8
3205.0,73.8,73.6,93.7,80.4,11.5
3207.5,73.8,71.4,93.2,79.5,11.9
3210.0,72.2,72.8,94.2,79.7,12.6
3212.5,73.4,73.0,92.9,79.8,11.4
3215.0,74.2,73.2,92.5,80.0,10.8
3217.5,74.0,74.8,92.7,80.5,10.6
3220.0,73.3,73.3,93.0,79.9,11.4
3222.5,73.1,75.3,93.7,80.7,11.3
3225.0,74.5,73.9,92.3,80.3,10.4
3227.5,74.5,73.5,92.9,80.3,10.9
3230.0,73.8,72.1,94.3,80.1,12.4
3232.5,73.8,72.0,93.1,79.6,11.7
3235.0,72.9,73.0,93.7,79.9,12.0
3237.5,74.3,72.2,93.7,80.1,11.9
3240.0,74.0,72.6,94.0,80.2,11.9
3242.5,73.5,73.6,91.8,79.7,10.5
3245.0,73.2,73.7,92.4,79.8,11.0
3247.5,72.6,73.1,93.1,79.6,11.7
3250.0,72.3,73.5,93.9,79.9,12.1
3252.5,72.7,73.4,94.9,80.3,12.6
3255.0,73.0,74.0,92.7,79.9,11.1
3257.5,74.4,73.2,93.0,80.2,11.1
3260.0,73.7,74.7,91.9,80.1,10.2
3262.5,72.0,73.8,94.8,80.2,12.7
3265.0,72.1,73.2,91.9,79.1,11.1
3267.5,71.8,72.8,90.5,78.4,10.5
3270.0,71.7,72.6,91.0,78.4,10.9
3272.5,72.3,73.4,91.7,79.1,10.9
3275.0,72.2,72.8,91.7,78.9,11.1
3277.5,72.4,73.3,90.7,78.8,10.3
3280.0,74.9,75.6,92.2,80.9,9.8
3282.5,74.1,75.9,91.0,80.3,9.3
3285.0,73.1,75.6,90.5,79.7,9.4
3287.5,72.3,75.3,89.8,79.1,9.3
3290.0,73.8,75.9,89.5,79.7,8.5
3292.5,74.4,75.4,88.8,79.5,8.0
3295.0,75.5,75.5,88.8,79.9,7.7
3297.5,76.2,76.9,88.5,80.5,6.9
3300.0,77.9,76.5,87.9,80.8,6.3
3302.5,76.8,75.7,89.2,80.6,7.5
3305.0,76.2,76.1,90.7,81.0,8.5
3307.5,75.5,75.8,89.3,80.2,7.9
3310.0,75.7,75.7,91.7,81.0,9.2
3312.5,74.1,76.2,90.2,80.2,8.7
3315.0,75.6,76.2,89.1,80.3,7.6
3317.5,75.1,75.6,88.9,79.9,7.8
3320.0,75.1,75.9,90.2,80.4,8.5
3322.5,77.0,76.7,89.5,81.1,7.3
3325.0,76.2,76.5,88.8,80.5,7.2
3327.5,76.1,77.4,88.5,80.7,6.8
3330.0,74.8,77.0,87.5,79.7,6.8
3332.5,75.0,77.1,88.3,80.1,7.2
3335.0,75.3,76.6,87.6,79.8,6.8
3337.5,74.9,78.0,87.2,80.0,6.4
3340.0,73.8,77.9,87.1,79.6,6.8
3342.5,74.9,77.8,87.9,80.2,6.8
3345.0,76.3,77.6,87.3,80.4,6.0
3347.5,75.9,76.7,87.5,80.0,6.5
3350.0,76.3,75.4,87.6,79.8,6.8
3352.5,75.9,76.6,86.1,79.5,5.7
3355.0,76.3,76.3,86.5,79.7,5.9
3357.5,76.3,76.3,83.0,78.5,3.9
3360.0,77.6,79.6,82.9,80.0,2.6
3362.5,76.6,79.6,83.1,79.8,3.2
3365.0,76.5,77.9,83.3,79.2,3.6
3367.5,76.4,77.4,87.0,80.3,5.8
3370.0,77.8,76.8,90.0,81.5,7.4
3372.5,77.6,76.3,91.1,81.7,8.2
3375.0,78.8,75.5,88.5,80.9,6.7
3377.5,77.1,74.7,87.8,79.9,7.0
3380.0,76.7,75.8,89.0,80.5,7.3
3382.5,77.2,75.8,85.9,79.6,5.4
3385.0,76.9,77.2,87.9,80.7,6.3
3387.5,76.5,76.0,85.1,79.2,5.2
3390.0,77.5,74.9,85.5,79.3,5.5
3392.5,77.7,75.5,84.6,79.3,4.8
3395.0,77.9,76.2,85.8,79.9,5.1
3397.5,76.7,75.9,85.3,79.3,5.2
3400.0,76.1,77.1,83.1,78.8,3.8
3402.5,74.4,77.6,83.4,78.4,4.6
3405.0,75.7,76.4,83.4,78.5,4.3
3407.5,75.4,76.4,83.2,78.3,4.2
3410.0,75.7,77.4,83.3,78.8,4.0
3412.5,78.2,75.3,83.1,78.9,4.0
3415.0,77.7,76.0,82.7,78.8,3.5
3417.5,76.6,77.2,83.7,79.2,3.9
3420.0,77.4,77.2,82.5,79.1,3.0
3422.5,77.9,77.3,81.6,78.9,2.3
3425.0,78.6,77.7,82.4,79.6,2.5
3427.5,78.1,77.9,81.2,79.1,1.8
3430.0,79.4,77.8,82.7,80.0,2.5
3432.5,77.9,78.1,82.7,79.6,2.7
3435.0,80.1,78.2,82.4,80.2,2.1
3437.5,78.9,79.2,81.3,79.8,1.3
3440.0,79.2,79.2,82.6,80.3,1.9
3442.5,80.0,79.7,83.5,81.1,2.1
3445.0,77.6,78.4,82.7,79.6,2.8
3447.5,76.7,78.3,81.4,78.8,2.4
3450.0,78.1,78.8,81.1,79.3,1.6
3452.5,79.3,77.7,79.5,78.8,1.0
3455.0,78.1,77.8,78.7,78.2,0.4
3457.5,78.1,76.6,77.8,77.5,0.8
3460.0,77.0,76.2,77.6,76.9,0.7
3462.5,76.4,77.6,79.4,77.8,1.5
3465.0,76.7,76.0,79.2,77.3,1.7
3467.5,77.7,76.3,79.9,78.0,1.8
3470.0,77.6,76.5,80.6,78.2,2.1
3472.5,78.6,77.3,83.0,79.6,3.0
3475.0,77.9,76.7,83.0,79.2,3.4
3477.5,78.0,75.9,82.8,78.9,3.5
3480.0,78.1,75.9,82.6,78.9,3.5
3482.5,76.2,76.5,80.4,77.7,2.3
3485.0,76.8,74.4,79.8,77.0,2.7
3487.5,76.6,76.2,80.7,77.8,2.5
3490.0,76.2,74.8,82.2,77.7,3.9
3492.5,76.5,76.2,80.5,77.7,2.4
3495.0,77.1,75.8,81.8,78.2,3.1
3497.5,77.2,74.4,80.7,77.4,3.2
3500.0,76.3,74.2,81.8,77.4,4.0
3502.5,74.9,73.2,80.1,76.1,3.6
3505.0,74.0,74.7,80.1,76.3,3.3
3507.5,74.5,73.7,81.9,76.7,4.5
3510.0,74.9,74.4,82.0,77.1,4.3
3512.5,75.9,74.4,80.8,77.0,3.3
3515.0,77.8,75.3,80.3,77.8,2.5
3517.5,76.9,75.0,82.4,78.1,3.8
3520.0,77.2,75.5,81.1,77.9,2.9
3522.5,76.8,75.2,81.0,77.7,3.0
3525.0,77.0,75.8,81.0,77.9,2.7
3527.5,76.0,74.1,82.7,77.6,4.5
3530.0,74.4,75.1,81.4,77.0,3.9
3532.5,75.6,76.0,81.9,77.8,3.6
3535.0,76.2,75.6,82.5,78.1,3.9
3537.5,75.2,74.8,83.9,78.0,5.1
3540.0,77.7,73.7,84.0,78.5,5.2
3542.5,77.9,74.5,83.8,78.8,4.7
3545.0,77.1,73.2,84.8,78.4,5.9
3547.5,77.7,72.2,85.5,78.5,6.7
3550.0,78.4,73.3,85.0,78.9,5.9
3552.5,78.2,72.2,86.9,79.1,7.4
3555.0,77.9,72.1,87.1,79.0,7.5
3557.5,78.3,71.3,89.0,79.6,8.9
3560.0,78.3,,88.7,83.5,7.4
3562.5,78.1,,89.9,84.0,8.4
3565.0,77.6,,89.4,83.5,8.4
3567.5,77.4,,87.8,82.6,7.4
3570.0,78.5,,88.2,83.4,6.9
3572.5,78.0,,87.6,82.8,6.7
3575.0,78.9,,87.5,83.2,6.1
3577.5,77.8,,89.1,83.5,8.0
3580.0,78.8,,88.6,83.7,6.9
3582.5,78.1,,90.0,84.1,8.4
3585.0,76.5,,90.4,83.4,9.8
3587.5,76.9,,91.2,84.1,10.1
3590.0,77.8,,93.6,85.7,11.2
3592.5,77.6,,93.4,85.5,11.1
3595.0,79.2,,95.4,87.3,11.4
3597.5,79.2,,92.3,85.7,9.3
3600.0,80.5,,92.6,86.5,8.5
3602.5,79.8,,93.1,86.4,9.4
3605.0,80.4,,96.4,88.4,11.3
3607.5,81.0,,96.7,88.9,11.1
3610.0,80.9,,94.6,87.8,9.7
3612.5,80.5,,97.2,88.9,11.8
3615.0,81.3,,96.5,88.9,10.8
3617.5,81.4,,97.5,89.5,11.3
3620.0,80.4,,96.3,88.4,11.2
3622.5,79.9,,97.2,88.5,12.2
3625.0,80.2,,96.9,88.6,11.9
3627.5,80.1,,97.4,88.7,12.2
3630.0,81.7,,96.2,88.9,10.3
3632.5,80.8,,97.0,88.9,11.5
3635.0,81.4,,100.7,91.1,13.6
3637.5,81.8,,101.7,91.8,14.1
3640.0,82.4,,102.5,92.5,14.2
3642.5,83.1,,100.5,91.8,12.3
3645.0,82.8,,100.8,91.8,12.7
3647.5,80.4,,102.0,91.2,15.3
3650.0,78.9,,100.9,89.9,15.6
3652.5,78.7,,103.3,91.0,17.4
3655.0,81.6,,102.4,92.0,14.7
3657.5,85.0,,102.1,93.6,12.1
3660.0,86.6,,103.8,95.2,12.2
3662.5,86.1,,103.1,94.6,12.1
3665.0,83.9,,104.7,94.3,14.8
3667.5,83.6,,105.7,94.6,15.7
3670.0,81.6,,106.0,93.8,17.3
3672.5,81.4,,105.0,93.2,16.7
3675.0,84.0,,105.4,94.7,15.1
3677.5,83.6,,108.6,96.1,17.7
3680.0,83.5,,107.6,95.6,17.1
3682.5,82.7,,109.6,96.1,19.0
3685.0,82.9,,112.3,97.6,20.8
3687.5,83.8,,110.7,97.2,19.0
3690.0,85.1,,108.9,97.0,16.9
3692.5,87.6,,112.0,99.8,17.3
3695.0,88.7,,109.0,98.9,14.4
3697.5,88.2,,110.6,99.4,15.8
3700.0,87.5,,111.9,99.7,17.2
3702.5,87.1,,112.7,99.9,18.1
3705.0,85.7,,114.9,100.3,20.6
3707.5,86.3,,114.2,100.3,19.7
3710.0,86.4,,115.5,100.9,20.5
3712.5,87.1,,114.8,100.9,19.6
3715.0,87.1,,117.0,102.0,21.1
3717.5,89.3,,117.5,103.4,19.9
3720.0,86.3,,117.5,101.9,22.1
3722.5,85.4,,118.0,101.7,23.1
3725.0,86.8,,117.6,102.2,21.8
3727.5,88.3,,118.1,103.2,21.1
3730.0,87.7,,118.6,103.1,21.9