File: 01_Data/Engineered_Wood_Table/Cone/Engineered_Wood_Table_Cone_HF50Scan_230626_R3.csv
Names,Time,Stack TC,Smoke TC,Exh Press,Smoke Comp,Smoke Meas,CO Meter,CO2 Meter,O2 Meter,Sample Mass,Ext Coeff,Start Test,Flame Verif
Chan Gain,,500,500,1,1,1,1,1,1,1,1,1.0,1.0
Offset,,0,0,0.208865,0,0,0,0,0,0,0,0.0,0.0
Gain,,1,1,25.011,13.0519,31.1647,1,1,1,1.00091,1.03162,1.0,1.0
Units,sec,C,C,Pa,%,%,%,%,%,g,/m,,
Baseline,,49.3083,51.8765,161.962,100.145,100.315,0.00069168,0.0486972,20.9377,-443.468,-0.0152892,,
33,8,48.1584,50.1976,164.264,99.7796,97.5884,0.000413524,0.0571996,20.934,432.802,0.200944,0.0,0.0
66,16.25,49.1544,52.0602,160.363,99.8481,98.3492,0.000750998,0.0579765,20.9354,432.522,0.136874,0.0,0.0
99,24.5,49.7815,52.6149,165.952,99.9676,97.1043,0.00225385,0.0677131,20.9108,432.372,0.26298,0.0,0.0
132,32.75,53.6642,63.2989,139.643,100.246,96.1656,0.00190851,0.054851,20.9355,431.1,0.376054,0.0,0.0
165,41,60.571,74.8964,143.334,100.622,95.5968,0.00480315,0.46514,20.6769,429.439,0.463611,0.0,0.0
198,49.25,67.554,84.6388,130.867,101.071,95.9792,0.00604912,0.536552,20.3789,427.847,0.467808,0.0,0.0
231,57.5,72.7289,90.0231,138.765,101.461,96.3177,0.00703991,0.590053,20.3154,426.066,0.470789,0.0,0.0
264,65.75,75.8536,92.3468,141.723,101.684,97.6844,0.00740011,0.569576,20.312,424.434,0.363124,0.0,0.0
297,74,77.8029,93.0996,141.492,101.662,99.3612,0.00617732,0.522217,20.3577,422.953,0.207197,0.0,0.0
330,82.25,78.9455,92.2426,143.81,101.411,98.1771,0.00540232,0.482524,20.4038,421.542,0.293285,0.0,0.0
363,90.5,79.187,91.0781,143.085,101.08,98.549,0.00441315,0.436987,20.4502,420.331,0.229489,0.0,0.0
396,98.75,79.0145,89.9576,146.873,100.803,98.5699,0.00382022,0.399035,20.5009,419.12,0.202751,0.0,0.0
429,107,78.8419,87.9847,150.744,101.237,98.8124,0.00381853,0.369345,20.5336,418.159,0.219405,0.0,0.0
462,115.25,78.4474,86.9762,148.057,101.281,100.109,0.0033852,0.345095,20.5662,417.058,0.105341,0.0,0.0
495,123.5,77.6315,85.2638,148.841,100.974,99.9622,0.00305751,0.324396,20.5963,416.197,0.0911085,0.0,0.0
528,131.75,77.6167,84.6809,147.414,100.423,98.3606,0.0027723,0.308302,20.6181,415.156,0.187803,0.0,0.0
561,140,76.5683,83.5379,151.605,100.554,99.694,0.00274999,0.297693,20.632,414.385,0.0777534,0.0,0.0
594,148.25,76.1258,83.302,147.052,100.692,99.7074,0.00284858,0.288569,20.6422,413.394,0.0889392,0.0,0.0
627,156.5,76.107,82.575,147.88,100.777,99.6769,0.00259615,0.286497,20.6496,412.604,0.0992875,0.0,0.0
660,164.75,75.5693,81.8168,150.754,100.777,99.9385,0.00218532,0.277954,20.6585,411.753,0.0756098,0.0,0.0
693,173,74.7618,80.3313,148.071,100.753,100.104,0.00233723,0.271449,20.6685,410.972,0.0584556,0.0,0.0
726,181.25,74.9706,80.6217,148.668,100.665,99.7131,0.00204622,0.260074,20.6803,410.081,0.0859862,0.0,0.0
759,189.5,74.1635,79.4104,148.212,100.547,99.2756,0.00186649,0.260043,20.6846,409.311,0.115174,0.0,0.0
792,197.75,73.5237,78.9469,151.363,100.464,99.6389,0.00205749,0.255212,20.6936,408.63,0.0745849,0.0,0.0
825,206,73.7193,79.5138,150.944,100.797,99.8843,0.00177589,0.254596,20.6937,407.779,0.0823427,0.0,0.0
858,214.25,73.3904,78.8113,150.955,101.129,100.726,0.00215822,0.251154,20.6949,407.119,0.0361816,0.0,0.0
891,222.5,72.8228,78.6637,151.963,101.286,100.431,0.00185421,0.249431,20.7002,406.268,0.0767042,0.0,0.0
924,230.75,72.9315,78.4057,148.113,101.356,100.29,0.00203612,0.243366,20.706,405.717,0.0956227,0.0,0.0
957,239,72.9253,78.2386,151.377,101.348,100.629,0.00181542,0.245041,20.7033,404.817,0.0644119,0.0,0.0
990,247.25,73.0026,77.8755,154.182,101.329,101.239,0.00178385,0.240215,20.7085,404.256,0.0080828,0.0,0.0
1023,255.5,73.0621,78.1949,150.468,101.278,100.702,0.00182663,0.236888,20.7139,403.465,0.0515676,0.0,0.0
1056,263.75,73.113,77.5396,147.38,101.19,100.82,0.00157918,0.233568,20.7194,402.795,0.0331425,0.0,0.0
1089,272,72.6915,77.9363,150.638,101.073,100.949,0.00153835,0.231627,20.722,402.024,0.0110969,0.0,0.0
1122,280.25,72.539,77.5362,146.5,100.866,100.884,0.00199355,0.229784,20.7212,401.393,-0.00161721,0.0,0.0
1155,288.5,71.8642,77.1194,152.081,100.934,100.453,0.00182709,0.225982,20.7267,400.783,0.0432563,0.0,0.0
1188,296.75,72.1672,77.1052,150.417,101.019,100.916,0.00193357,0.222642,20.7324,400.032,0.00919394,0.0,0.0
1221,305,71.9111,76.8545,151.009,101.161,100.746,0.00142008,0.22176,20.7346,399.462,0.0372377,0.0,0.0
1254,313.25,71.693,76.6917,151.067,101.267,101.032,0.00169537,0.219915,20.735,398.701,0.0210341,0.0,0.0
1287,321.5,71.7257,76.6386,149.016,101.41,100.9,0.0017183,0.217914,20.7377,398.161,0.0456512,0.0,0.0
1320,329.75,71.0468,76.1899,154.173,101.516,101.655,0.00189993,0.216881,20.7401,397.46,-0.0124089,0.0,0.0
1353,338,71.8184,76.3275,152.121,101.628,101.24,0.00176458,0.213837,20.7437,396.909,0.0345525,0.0,0.0
1386,346.25,71.6306,76.1934,148.019,101.691,101.411,0.00176114,0.215024,20.7421,396.229,0.0249508,0.0,0.0
1419,354.5,71.7224,76.2657,155.408,101.751,101.322,0.00169646,0.210054,20.7464,395.668,0.038197,0.0,0.0
1452,362.75,71.7713,75.7955,148.196,101.742,101.377,0.00158652,0.20907,20.7487,394.988,0.0324567,0.0,0.0
1485,371,71.4321,75.873,152.762,101.692,101.736,0.00168451,0.206083,20.7502,394.427,-0.00392215,0.0,0.0
1518,379.25,71.5424,75.2818,149.909,101.492,101.826,0.00184287,0.204499,20.7528,393.837,-0.029731,0.0,0.0
1551,387.5,71.2116,75.554,150.645,101.154,100.979,0.00152547,0.202894,20.7557,393.196,0.0156555,0.0,0.0
1584,395.75,70.9929,75.2088,149.669,100.689,100.73,0.00157,0.200362,20.7591,392.736,-0.00370253,0.0,0.0
1617,404,70.7419,75.2841,153.474,100.234,100.169,0.00148514,0.198702,20.7609,392.015,0.00594742,0.0,0.0
1650,412.25,70.8703,75.1014,153.188,99.9035,99.8205,0.00142043,0.194156,20.763,391.575,0.00751586,0.0,0.0
1683,420.5,70.5352,74.6119,153.385,99.7967,100.009,0.00140907,0.194408,20.7648,390.974,-0.0192132,0.0,0.0
1716,428.75,70.3914,74.6595,154.238,99.9031,99.8205,0.00138016,0.192203,20.7689,390.504,0.00748029,0.0,0.0
1749,437,70.0671,74.1318,149.844,100.112,99.7502,0.00135857,0.190651,20.7706,389.853,0.0327491,0.0,0.0
1782,445.25,70.3257,74.249,153.827,100.332,100.665,0.00174309,0.189228,20.7749,389.363,-0.0299512,0.0,0.0
1815,453.5,70.1074,74.1026,153.599,100.539,100.027,0.00166836,0.187378,20.7771,388.752,0.04619,0.0,0.0
1848,461.75,69.766,73.0363,153.417,100.738,100.836,0.00154467,0.18452,20.7774,388.322,-0.00882859,0.0,0.0
1881,470,69.2654,72.5653,149.503,100.823,100.737,0.00152672,0.185459,20.7774,387.671,0.00770556,0.0,0.0
1914,478.25,69.2713,72.7919,153.236,100.931,100.312,0.00199001,0.181886,20.7797,387.301,0.0556599,0.0,0.0
1947,486.5,69.2727,72.7327,153.225,100.981,101.199,0.00172546,0.180518,20.7808,386.7,-0.01949,0.0,0.0
1980,494.75,69.2384,72.6494,153.803,101.023,100.519,0.00144425,0.178412,20.7845,386.32,0.0452701,0.0,0.0
2013,503,68.8343,73.139,155.902,101.024,100.916,0.00144195,0.177985,20.7879,385.639,0.0096584,0.0,0.0
2046,511.25,69.0518,72.7318,153.475,101.01,100.937,0.00166226,0.176695,20.7883,385.289,0.00656944,0.0,0.0
2079,519.5,68.924,72.5882,154.985,101.018,100.719,0.0014961,0.175534,20.7881,384.738,0.02683,0.0,0.0
2112,527.75,68.6752,72.5565,152.615,101.006,100.631,0.00139316,0.173001,20.7903,384.198,0.03371,0.0,0.0
2145,536,68.5077,72.5438,151.909,100.997,100.646,0.00136863,0.172826,20.7921,383.798,0.0315204,0.0,0.0
2178,544.25,68.6793,72.2997,155,100.951,100.922,0.00139407,0.170284,20.7943,383.257,0.00265013,0.0,0.0
2211,552.5,68.3525,72.4379,152.033,100.897,100.722,0.00155488,0.170125,20.7949,382.747,0.0157201,0.0,0.0
2244,560.75,68.1301,72.2118,151.807,100.797,100.952,0.00132039,0.169508,20.7961,382.196,-0.0139068,0.0,0.0
2277,569,67.8785,71.7372,155.925,100.671,100.659,0.00163334,0.169251,20.7968,381.846,0.00108301,0.0,0.0
2310,577.25,67.79,71.4314,153.398,100.527,99.9442,0.00166024,0.167714,20.7989,381.285,0.0526037,0.0,0.0
2343,585.5,67.6527,71.4692,148.412,100.398,99.8966,0.00148944,0.16698,20.8012,380.925,0.0452852,0.0,0.0
2376,593.75,68.1327,71.0841,154.449,100.203,99.3108,0.00168803,0.164937,20.8021,380.394,0.0809037,0.0,0.0
2409,602,67.3801,71.0325,157.124,100.055,99.3726,0.00141472,0.164485,20.8029,380.014,0.0619523,0.0,0.0
2442,610.25,67.4622,70.73,150.022,99.8796,99.4049,0.00158567,0.165165,20.8047,379.424,0.0431081,0.0,0.0
2475,618.5,67.4363,70.4088,152.403,99.7796,99.4753,0.00170254,0.162452,20.8045,379.143,0.027641,0.0,0.0
2508,626.75,67.1762,70.9095,155.165,99.7665,99.286,0.00170446,0.16305,20.8044,378.553,0.0436825,0.0,0.0
2541,635,67.2048,70.898,156.738,99.7963,99.4125,0.00195138,0.161002,20.8052,378.172,0.0348696,0.0,0.0
2574,643.25,66.8155,70.6302,153.323,99.9198,99.3707,0.00182672,0.161401,20.8065,377.662,0.0498695,0.0,0.0
2607,651.5,67.2028,70.7519,154.358,100.135,99.4905,0.00173154,0.161358,20.8072,377.242,0.0584577,0.0,0.0
2640,659.75,67.2385,70.4848,153.55,100.417,99.9175,0.0017366,0.160093,20.8107,376.841,0.045078,0.0,0.0
2673,668,67.1076,70.3853,152.941,100.72,100.341,0.00191453,0.16046,20.8125,376.361,0.0341743,0.0,0.0
2706,676.25,66.8594,70.6681,153.319,101.07,100.443,0.00194149,0.159178,20.81,376.01,0.0562463,0.0,0.0
2739,684.5,66.9184,70.5812,153.553,101.327,101.208,0.00188893,0.157933,20.8107,375.51,0.010625,0.0,0.0
2772,692.75,66.4298,70.2146,157.573,101.542,100.802,0.00214893,0.158203,20.8108,375.12,0.066163,0.0,0.0
2805,701,66.8623,70.1288,156.015,101.634,101.284,0.00167431,0.157122,20.8111,374.579,0.0312098,0.0,0.0
2838,709.25,66.5948,70.3063,156.396,101.683,100.757,0.00207966,0.158032,20.8091,374.269,0.082734,0.0,0.0
2871,717.5,66.32,70.2387,157.452,101.57,101.047,0.00187863,0.15678,20.813,373.778,0.0467169,0.0,0.0
2904,725.75,66.7973,70.0984,155.594,101.397,101.001,0.00166816,0.155817,20.8136,373.398,0.0354412,0.0,0.0
2937,734,66.0773,69.7503,153.495,101.14,100.754,0.00159349,0.154827,20.8165,372.858,0.0346654,0.0,0.0
2970,742.25,66.4913,69.6549,157.311,100.89,100.552,0.00196397,0.155775,20.8147,372.547,0.0303497,0.0,0.0
3003,750.5,66.2601,69.8657,151.286,100.892,100.621,0.00193597,0.155106,20.8163,372.167,0.0242827,0.0,0.0
3036,758.75,66.2695,69.2271,151.341,101.177,100.958,0.00193586,0.154772,20.8158,371.677,0.0195961,0.0,0.0
3069,767,65.7327,69.5764,160.753,101.242,100.463,0.00222267,0.154722,20.8142,371.216,0.0698408,0.0,0.0
3102,775.25,65.9012,69.1528,157.196,101.051,100.923,0.00212962,0.153057,20.8161,370.856,0.0115236,0.0,0.0
3135,783.5,65.9481,69.2872,154.72,100.604,100.533,0.00186099,0.157806,20.8153,370.526,0.00637325,0.0,0.0
3168,791.75,65.8027,69.7324,153.308,100.437,100.303,0.00187873,0.154146,20.8159,370.005,0.0120892,0.0,0.0
3201,800,65.4723,69.6392,149.274,100.654,100.203,0.00180469,0.155435,20.8175,369.725,0.0406771,0.0,0.0
3234,808.25,65.7519,69.5004,153.079,100.889,100.653,0.00184525,0.156936,20.8142,369.204,0.021245,0.0,0.0
3267,816.5,65.6428,69.5922,156.78,100.998,100.884,0.00195976,0.155906,20.8147,368.914,0.0102037,0.0,0.0
3300,824.75,65.8609,69.4261,154.225,100.946,100.767,0.00174544,0.154099,20.8171,368.424,0.0160981,0.0,0.0
3333,833,65.4329,69.4843,152.447,100.723,100.914,0.00178381,0.155196,20.8188,368.093,-0.0171486,0.0,0.0
3366,841.25,65.833,69.6274,157.143,100.44,99.9442,0.00173879,0.155086,20.8178,367.623,0.0448193,0.0,0.0
3399,849.5,65.5382,69.6991,159.924,100.168,99.8843,0.001883,0.154422,20.8216,367.233,0.0256662,0.0,0.0
3432,857.75,65.6283,68.9028,149.585,99.9421,99.7473,0.00187331,0.155166,20.8197,366.772,0.0176561,0.0,0.0
3465,866,65.9187,69.301,152.85,99.8115,99.5514,0.00169231,0.155911,20.8184,366.412,0.0236113,0.0,0.0
3498,874.25,65.4711,69.3141,153.362,99.7187,99.4411,0.00187628,0.155484,20.815,365.931,0.0252273,0.0,0.0
3531,882.5,65.1511,69.3624,155.162,99.7131,99.4791,0.0018384,0.155622,20.8171,365.511,0.0212601,0.0,0.0
3564,890.75,65.6598,69.6821,155.085,99.7298,99.6703,0.00202381,0.154893,20.8174,365.151,0.00540515,0.0,0.0
3597,899,65.1377,69.2437,154.501,99.7203,99.0159,0.00200481,0.157818,20.8154,364.65,0.0641419,0.0,0.0
3630,907.25,65.6092,69.1099,158.422,99.7748,99.8044,0.00190099,0.155196,20.8143,364.32,-0.0026795,0.0,0.0
3663,915.5,65.6552,69.1394,151.641,99.8421,99.8909,0.00207211,0.158479,20.8181,363.829,-0.00442023,0.0,0.0
3696,923.75,65.6039,69.063,150.769,99.9995,99.5885,0.00190387,0.158292,20.8165,363.519,0.0372689,0.0,0.0
3729,932,65.296,69.0742,148.929,100.253,99.7036,0.001827,0.158184,20.815,362.999,0.0497504,0.0,0.0
3762,940.25,65.6199,69.4804,157.019,100.567,99.8852,0.00167421,0.159108,20.8159,362.678,0.0616008,0.0,0.0
3795,948.5,65.7453,69.418,147.798,100.828,101.01,0.00212865,0.159143,20.8129,362.178,-0.0163164,0.0,0.0
3828,956.75,65.5019,69.7313,153.473,101.011,100.438,0.00170393,0.158346,20.813,361.788,0.0514807,0.0,0.0
3861,965,65.6346,69.2214,155.2,101.036,100.937,0.00147987,0.159854,20.8137,361.357,0.00885232,0.0,0.0
3894,973.25,65.4207,68.7063,154.221,100.924,100.633,0.00170708,0.158103,20.813,360.837,0.0261492,0.0,0.0
3927,981.5,65.5426,69.4507,153.231,100.753,100.56,0.0016639,0.159932,20.8147,360.516,0.0172804,0.0,0.0
3960,989.75,65.6417,69.6448,152.147,100.614,100.14,0.00149775,0.159139,20.8107,359.966,0.0427302,0.0,0.0
3993,998,66.072,69.4018,153.099,100.513,100.238,0.0018589,0.159034,20.811,359.646,0.0247787,0.0,0.0
4026,1006.25,65.3996,69.7555,151.817,100.404,99.8776,0.00145117,0.15964,20.8115,359.075,0.047583,0.0,0.0
4059,1014.5,65.6878,69.8289,152.318,100.598,100.961,0.00174876,0.161458,20.8092,358.715,-0.0326071,0.0,0.0
4092,1022.75,66.0186,70.1927,152.002,100.856,100.743,0.00143606,0.161522,20.8089,358.204,0.0101239,0.0,0.0
4125,1031,66.0329,70.2914,153.595,101.113,100.523,0.00153876,0.160713,20.8104,357.844,0.0529019,0.0,0.0
4158,1039.25,66.1813,69.8541,149.528,101.246,101.09,0.00189726,0.161441,20.8112,357.294,0.0139161,0.0,0.0
4191,1047.5,66.6057,70.0855,151.259,101.314,101.104,0.00165969,0.162923,20.8113,356.933,0.0188102,0.0,0.0
4224,1055.75,66.2535,70.6389,153.311,101.221,101.303,0.00198533,0.162917,20.8096,356.243,-0.0073418,0.0,0.0
4257,1064,66.0706,70.5146,154.838,100.984,101.189,0.0016699,0.163027,20.809,355.992,-0.0183181,0.0,0.0
4290,1072.25,66.4892,70.8129,155.233,100.892,100.74,0.00142513,0.163939,20.8054,355.472,0.0135962,0.0,0.0
4323,1080.5,67.1008,70.9282,154.198,101.131,101.075,0.00190575,0.165058,20.8069,355.052,0.00502025,0.0,0.0
4356,1088.75,66.7789,70.5805,154.14,101.401,101.46,0.00160159,0.165046,20.8054,354.611,-0.00530314,0.0,0.0
4389,1097,66.9159,70.5923,151.202,101.589,100.781,0.00161873,0.165893,20.8072,354.101,0.0722651,0.0,0.0
4422,1105.25,66.9235,71.1657,154.997,101.697,101.466,0.00191122,0.164947,20.8061,353.7,0.0206315,0.0,0.0
4455,1113.5,67.2345,71.2011,150.227,101.647,101.283,0.00199226,0.166618,20.8053,353.13,0.0324653,0.0,0.0
4488,1121.75,67.0223,71.5403,150.899,101.56,101.259,0.0019214,0.167105,20.8061,352.749,0.0268569,0.0,0.0
4521,1130,67.3762,72.0573,153.254,101.402,100.826,0.00237697,0.166927,20.8044,352.139,0.0515601,0.0,0.0
4554,1138.25,66.9185,71.1103,155.792,101.22,101.032,0.00191594,0.166976,20.8061,351.769,0.0167614,0.0,0.0
4587,1146.5,67.3485,71.5239,152.063,101.059,100.91,0.00156182,0.168066,20.8047,351.158,0.0132731,0.0,0.0
4620,1154.75,67.1565,71.7319,152.773,100.956,100.389,0.00194761,0.171248,20.8029,350.748,0.0509616,0.0,0.0
4653,1163,67.1085,71.5488,154.189,100.787,100.523,0.00203209,0.171201,20.802,350.117,0.0237308,0.0,0.0
4686,1171.25,67.4375,71.0946,150.451,100.702,99.8338,0.00152163,0.171028,20.8007,349.687,0.0783962,0.0,0.0
4719,1179.5,67.4867,71.4539,150.209,100.661,100.488,0.00164485,0.173327,20.797,349.086,0.0155919,0.0,0.0
4752,1187.75,67.7855,72.0055,154.86,100.656,100.495,0.00147953,0.173611,20.7979,348.546,0.0144902,0.0,0.0
4785,1196,67.5021,71.8299,154.036,100.587,100.279,0.00211687,0.174352,20.7981,348.045,0.0277905,0.0,0.0
4818,1204.25,68.1404,72.3192,154.148,100.603,100.621,0.00176515,0.175014,20.7975,347.465,-0.0016922,0.0,0.0
4851,1212.5,68.1989,72.5852,155.217,100.659,100.525,0.00199265,0.175611,20.799,346.934,0.0120364,0.0,0.0
4884,1220.75,68.5585,72.9657,150.639,100.736,100.406,0.00179665,0.177569,20.7959,346.374,0.0296895,0.0,0.0
4917,1229,68.0615,71.9588,149.916,100.885,100.381,0.00188281,0.179265,20.7942,345.933,0.0453753,0.0,0.0
4950,1237.25,68.4009,72.8502,153.443,101.024,100.818,0.0015521,0.180272,20.7944,345.313,0.0184108,0.0,0.0
4983,1245.5,68.6159,72.909,154.502,101.173,100.838,0.00163428,0.181633,20.7945,344.862,0.0300239,0.0,0.0
5016,1253.75,68.6631,72.9783,152.954,101.326,100.987,0.0015223,0.180405,20.7906,344.192,0.0303895,0.0,0.0
5049,1262,68.728,72.9777,148.122,101.446,100.205,0.00138384,0.184734,20.7873,343.741,0.111418,0.0,0.0
5082,1270.25,68.9636,73.2925,150.314,101.52,100.987,0.00149,0.186904,20.7844,343.081,0.0475765,0.0,0.0
5115,1278.5,69.1467,73.8426,152.079,101.593,101.373,0.00161934,0.187461,20.7821,342.57,0.0196208,0.0,0.0
5148,1286.75,68.9899,73.87,150.873,101.647,101.247,0.00175366,0.188683,20.7807,341.87,0.0356594,0.0,0.0
5181,1295,68.971,73.8645,150.36,101.646,101.113,0.00197112,0.188952,20.7806,341.329,0.0476173,0.0,0.0
5214,1303.25,69.4581,74.2847,148.5,101.611,101.278,0.00160444,0.192044,20.7773,340.769,0.0297831,0.0,0.0
5247,1311.5,69.8523,74.5664,148.246,101.553,101.059,0.00163188,0.192469,20.7758,340.158,0.0441344,0.0,0.0
5280,1319.75,70.1496,74.4835,151.364,101.418,100.761,0.00136895,0.193919,20.7738,339.598,0.0587889,0.0,0.0
5313,1328,69.3749,74.6992,149.437,101.249,100.743,0.00152697,0.194029,20.7747,338.917,0.0453646,0.0,0.0
5346,1336.25,69.7255,74.8606,150.553,101.116,100.423,0.00140086,0.19482,20.7719,338.406,0.0622672,0.0,0.0
5379,1344.5,70.1704,74.864,160.717,100.994,100.677,0.00173232,0.198713,20.7681,337.636,0.0283787,0.0,0.0
5412,1352.75,70.3132,74.8893,156.859,100.976,100.263,0.00169401,0.199297,20.7695,337.115,0.0641216,0.0,0.0
5445,1361,70.2591,75.9455,150.499,100.989,100.416,0.00171927,0.200859,20.7701,336.475,0.0514893,0.0,0.0
5478,1369.25,70.2521,75.7077,154.354,101.12,100.166,0.00168015,0.200767,20.7666,335.974,0.0857586,0.0,0.0
5511,1377.5,69.9972,75.7216,147.325,101.257,100.986,0.00180271,0.1999,20.7659,335.244,0.0243182,0.0,0.0
5544,1385.75,70.5862,75.4132,148.79,101.435,100.655,0.00158626,0.204811,20.7625,334.743,0.0699243,0.0,0.0
5577,1394,70.6003,75.6418,150.898,101.565,100.863,0.00168247,0.204191,20.7575,334.042,0.062759,0.0,0.0
5610,1402.25,70.9198,75.8313,153.23,101.658,100.89,0.00181215,0.203844,20.76,333.452,0.0685497,0.0,0.0
5643,1410.5,70.8632,75.8651,151.889,101.658,100.381,0.00173681,0.203608,20.7574,332.911,0.114425,0.0,0.0
5676,1418.75,70.9656,75.92,150.306,101.547,101.297,0.00188032,0.205045,20.758,332.221,0.0222997,0.0,0.0
5709,1427,71.3772,76.0032,152.138,101.345,100.6,0.00164122,0.203486,20.7577,331.71,0.0667648,0.0,0.0
5742,1435.25,71.3584,75.9711,148.922,101.054,100.628,0.0017822,0.202357,20.7578,331.01,0.0382121,0.0,0.0
5775,1443.5,71.1642,75.7507,150.556,100.724,100.446,0.00196637,0.203156,20.7593,330.499,0.0250164,0.0,0.0
5808,1451.75,71.6962,76.4245,151.665,100.336,99.4677,0.00200454,0.204979,20.7584,329.799,0.0786229,0.0,0.0
5841,1460,71.7352,76.8789,149.871,100.007,99.3754,0.00223755,0.20777,20.7555,329.238,0.0573323,0.0,0.0
5874,1468.25,71.9592,77.1804,151.034,99.8019,99.0121,0.00198521,0.212687,20.7494,328.527,0.0718969,0.0,0.0
5907,1476.5,71.5519,77.1366,144.966,99.7545,99.4572,0.0021641,0.216222,20.7461,327.947,0.0270086,0.0,0.0
5940,1484.75,72.454,77.4028,149.536,99.8525,99.7901,0.00217399,0.219653,20.7428,327.196,0.00565634,0.0,0.0
5973,1493,72.7423,78.1867,150.292,100.029,99.423,0.0020646,0.221886,20.7389,326.446,0.0549865,0.0,0.0
6006,1501.25,72.625,77.8569,147.624,100.252,99.9271,0.00187336,0.223467,20.7386,325.855,0.0294142,0.0,0.0
6039,1509.5,73.0468,79.1028,148.294,100.475,99.6655,0.00178492,0.229118,20.7331,325.215,0.0732078,0.0,0.0
6072,1517.75,73.0373,79.0564,145.362,100.712,99.3355,0.00208382,0.229468,20.73,324.544,0.124507,0.0,0.0
6105,1526,73.7312,79.2589,144.896,100.903,100.445,0.00185431,0.228972,20.7281,323.773,0.0411195,0.0,0.0
6138,1534.25,74.1589,79.2808,143.08,101.039,100.645,0.00212291,0.231316,20.7256,323.173,0.0353166,0.0,0.0
6171,1542.5,73.7848,79.0525,146.495,101.02,100.603,0.00189849,0.230816,20.7255,322.402,0.0374397,0.0,0.0
6204,1550.75,74.0192,79.3349,147.266,100.918,100.628,0.0018217,0.226655,20.7283,321.811,0.0260405,0.0,0.0
6237,1559,73.5899,78.7935,148.078,100.645,99.6531,0.00198366,0.225683,20.7302,321.081,0.0896356,0.0,0.0
6270,1567.25,73.6982,78.8866,146.107,100.454,99.9737,0.00213523,0.22258,20.7347,320.53,0.0434066,0.0,0.0
6303,1575.5,73.6576,78.9758,148.951,100.824,99.9908,0.00190519,0.224329,20.7338,319.79,0.0750578,0.0,0.0
6336,1583.75,73.6415,78.6012,147.416,101.247,100.976,0.00168259,0.221271,20.7329,319.189,0.0242451,0.0,0.0
6369,1592,73.666,78.4174,150.104,101.206,101.025,0.00179688,0.220624,20.7357,318.498,0.0162671,0.0,0.0
6402,1600.25,73.5183,78.9774,146.333,100.796,100.121,0.00209654,0.217821,20.7403,317.958,0.0608069,0.0,0.0
6435,1608.5,73.8018,78.699,147.151,101.075,100.661,0.00204776,0.218104,20.7401,317.107,0.0371088,0.0,0.0
6468,1616.75,74.0258,78.1409,149.732,101.416,100.901,0.00179322,0.21226,20.7437,316.697,0.0460988,0.0,0.0
6501,1625,73.5295,78.6476,148.25,101.628,100.725,0.00194897,0.215748,20.7446,316.046,0.0807455,0.0,0.0
6534,1633.25,73.7511,78.8183,153.564,101.682,101.378,0.00229129,0.21547,20.7417,315.506,0.0270559,0.0,0.0
6567,1641.5,73.5323,78.3299,151.78,101.584,101.044,0.00218847,0.210158,20.7461,314.925,0.048229,0.0,0.0
6600,1649.75,73.7125,78.4418,145.44,101.392,101.276,0.0022013,0.211753,20.7453,314.275,0.0103858,0.0,0.0
6633,1658,73.4356,78.1686,151.976,101.19,100.898,0.00210214,0.210932,20.7449,313.794,0.0261094,0.0,0.0
6666,1666.25,73.4646,77.6583,152.286,100.948,100.344,0.00210661,0.20454,20.7492,313.134,0.0543635,0.0,0.0
6699,1674.5,73.4645,77.71,151.125,100.764,100.146,0.00152939,0.205587,20.7536,312.623,0.0557103,0.0,0.0
6732,1682.75,73.3377,77.7297,149.6,100.567,100.06,0.0018681,0.205487,20.7535,311.973,0.0456888,0.0,0.0
6765,1691,73.4594,77.78,150.063,100.373,99.7406,0.00213171,0.205994,20.7512,311.462,0.057164,0.0,0.0
6798,1699.25,73.0537,77.7067,149.106,100.262,100.126,0.0021336,0.204547,20.7521,310.821,0.0122594,0.0,0.0
6831,1707.5,72.8484,77.8965,150.682,100.146,99.7302,0.0022768,0.201478,20.7556,310.301,0.0376932,0.0,0.0
6864,1715.75,73.3263,78.104,149.268,100.082,100.076,0.00202216,0.202063,20.7575,309.71,0.000501611,0.0,0.0
6897,1724,73.2085,77.8523,147.674,100.092,99.733,0.00212528,0.204015,20.755,309.23,0.0325008,0.0,0.0
6930,1732.25,73.233,77.782,146.685,100.104,99.1167,0.00182464,0.202586,20.7553,308.649,0.0897115,0.0,0.0
6963,1740.5,73.3553,77.6382,147.699,100.136,99.5771,0.00184924,0.201813,20.7551,308.139,0.0506623,0.0,0.0
6996,1748.75,72.9074,77.8419,150.402,100.146,99.5466,0.00211321,0.2006,20.7577,307.579,0.0542917,0.0,0.0
7029,1757,73.3254,77.6172,151.636,100.209,100.039,0.00207598,0.201545,20.7555,306.928,0.0153744,0.0,0.0
7062,1765.25,73.1431,77.5049,149.962,100.348,100.284,0.00210848,0.19937,20.7592,306.528,0.00576307,0.0,0.0
7095,1773.5,73.0368,77.2807,151.06,100.481,100.221,0.00233782,0.201525,20.7599,305.847,0.0234908,0.0,0.0
7128,1781.75,72.4131,77.3849,151.612,100.664,100.194,0.00223654,0.197743,20.7589,305.316,0.0423458,0.0,0.0
7161,1790,72.8905,77.225,153.575,100.803,100.561,0.00234898,0.199835,20.7563,304.726,0.0217013,0.0,0.0
7194,1798.25,72.5558,76.7613,149.863,101.023,100.141,0.00216269,0.20119,20.757,304.356,0.0793255,0.0,0.0
7227,1806.5,72.6966,76.9725,150.868,101.202,100.751,0.00264194,0.200865,20.7568,303.685,0.0404451,0.0,0.0
7260,1814.75,72.8747,77.4341,153.885,101.376,100.864,0.00234531,0.202058,20.7579,303.285,0.0458723,0.0,0.0
7293,1823,72.8115,77.1108,150.789,101.496,101.083,0.00248834,0.200155,20.7578,302.654,0.0368918,0.0,0.0
7326,1831.25,73.0054,76.8548,146.987,101.606,101.337,0.00228928,0.198071,20.757,302.244,0.0240191,0.0,0.0
7359,1839.5,72.4685,77.4458,152.359,101.644,101.354,0.00231079,0.19939,20.7575,301.663,0.0258598,0.0,0.0
7392,1847.75,72.9934,77.2405,149.255,101.596,101.201,0.00250466,0.198585,20.757,301.153,0.0352854,0.0,0.0
7425,1856,72.7484,77.4086,149.738,101.458,101.11,0.00245233,0.199153,20.7581,300.612,0.0310485,0.0,0.0
7458,1864.25,72.921,77.4019,153.867,101.322,101.391,0.00201456,0.198362,20.76,300.062,-0.00611434,0.0,0.0
7491,1872.5,72.8242,77.051,151.1,101.186,100.829,0.00179451,0.198298,20.76,299.551,0.0320536,0.0,0.0
7524,1880.75,72.525,76.985,144.65,101.128,100.768,0.00246129,0.19804,20.7573,298.901,0.0322804,0.0,0.0
7557,1889,72.3031,76.9603,145.85,101.168,100.726,0.0025954,0.197672,20.7599,298.55,0.039602,0.0,0.0
7590,1897.25,72.5472,76.9569,146.943,101.218,101.192,0.00245478,0.197329,20.7603,297.92,0.00228345,0.0,0.0
7623,1905.5,72.9516,77.0556,152.643,101.333,101.12,0.0023907,0.196713,20.7632,297.519,0.0191063,0.0,0.0
7656,1913.75,72.4531,76.5096,149.546,101.411,101.211,0.00267074,0.201317,20.7573,296.869,0.017837,0.0,0.0
7689,1922,72.5129,76.4819,150.714,101.525,100.985,0.00272978,0.195317,20.7605,296.488,0.0482934,0.0,0.0
7722,1930.25,72.7392,76.4,158.02,101.585,101.239,0.00291311,0.195606,20.7622,295.828,0.0309259,0.0,0.0
7755,1938.5,72.4355,76.5956,148.027,101.656,101.687,0.00275915,0.194783,20.7611,295.478,-0.00279767,0.0,0.0
7788,1946.75,72.0443,76.1908,150.363,101.663,101.283,0.00310938,0.192275,20.7664,294.897,0.0338475,0.0,0.0
7821,1955,72.1309,75.8066,148.128,101.674,101.095,0.00272744,0.191106,20.7676,294.537,0.0516813,0.0,0.0
7854,1963.25,71.7554,76.3021,151.507,101.672,100.745,0.00241513,0.188862,20.7692,293.956,0.0829232,0.0,0.0
7887,1971.5,72.1855,75.9706,149.02,101.661,102.018,0.00263186,0.188352,20.7728,293.526,-0.0317778,0.0,0.0
7920,1979.75,72.0941,75.6384,145.982,101.651,101.614,0.00295195,0.185589,20.7739,293.105,0.00329718,0.0,0.0
7953,1988,71.371,75.9457,147.633,101.66,101.555,0.0031311,0.183424,20.7773,292.545,0.00929416,0.0,0.0
7986,1996.25,71.392,75.2725,153.886,101.669,101.479,0.00325974,0.181605,20.7805,292.165,0.0168917,0.0,0.0
8019,2004.5,71.1594,75.606,147.301,101.609,101.649,0.00308757,0.179354,20.7834,291.614,-0.00359569,0.0,0.0
8052,2012.75,71.6054,75.2915,151.307,101.572,101.561,0.00336713,0.178929,20.7817,291.294,0.0009827,0.0,0.0
8085,2021,71.2065,75.2312,151.221,101.429,100.887,0.00288248,0.175554,20.7832,290.723,0.0485165,0.0,0.0
8118,2029.25,71.2656,75.3361,150.529,101.276,100.909,0.00340599,0.174109,20.7849,290.393,0.0329329,0.0,0.0
8151,2037.5,70.8304,74.9807,153.549,101.038,101.138,0.003495,0.173181,20.7873,289.872,-0.00894251,0.0,0.0
8184,2045.75,70.7015,74.7632,152.538,100.779,100.661,0.0034751,0.172057,20.7909,289.582,0.0105388,0.0,0.0
8217,2054,71.0874,74.4758,150.938,100.51,99.5913,0.00366872,0.170471,20.7933,289.032,0.0830653,0.0,0.0
8250,2062.25,70.6328,74.3141,146.161,100.237,100.317,0.00344313,0.168815,20.7946,288.761,-0.00723114,0.0,0.0
8283,2070.5,70.7725,73.8609,152.896,100.003,99.6503,0.00338135,0.166839,20.7978,288.211,0.0319418,0.0,0.0
8316,2078.75,70.0856,73.915,155.639,99.8322,99.6351,0.00365899,0.165059,20.7994,287.941,0.0178844,0.0,0.0
8349,2087,70.2023,74.707,153.364,99.7856,99.8976,0.00382003,0.165001,20.7988,287.45,-0.0101504,0.0,0.0
8382,2095.25,70.1731,73.9284,152.177,99.8549,99.8757,0.00395819,0.164418,20.7996,287.14,-0.00188587,0.0,0.0
8415,2103.5,70.0864,73.7411,154.22,100.007,100.014,0.00435126,0.162283,20.7996,286.8,-0.00063002,0.0,0.0
8448,2111.75,70.3356,73.6828,155.753,100.174,100.463,0.00370735,0.162311,20.8023,286.269,-0.026153,0.0,0.0
8481,2120,69.997,73.9203,151.838,100.323,99.7939,0.00411669,0.160038,20.8026,286.049,0.0478792,0.0,0.0
8514,2128.25,69.2403,73.1703,151.517,100.365,100.299,0.00370382,0.159057,20.8075,285.569,0.00597114,0.0,0.0
8547,2136.5,69.2655,72.7164,152.051,100.377,100.734,0.00414195,0.158619,20.8073,285.368,-0.032082,0.0,0.0
8580,2144.75,69.3403,72.926,154.826,100.383,100.727,0.00445108,0.15735,20.8077,284.788,-0.0309091,0.0,0.0
8613,2153,69.2245,72.612,152.293,100.373,100.539,0.00439607,0.157533,20.805,284.498,-0.0149446,0.0,0.0
8646,2161.25,68.7424,72.5346,153.293,100.345,100.263,0.00437447,0.15672,20.8102,284.047,0.00740053,0.0,0.0
8679,2169.5,68.7283,72.8111,147.916,100.289,100.472,0.00408826,0.154886,20.8097,283.817,-0.0164585,0.0,0.0
8712,2177.75,68.4884,72.3823,148.72,100.21,100.572,0.00457844,0.154973,20.8116,283.367,-0.0326401,0.0,0.0
8745,2186,68.6268,72.1553,154.217,100.156,99.9251,0.00449017,0.154514,20.8108,283.076,0.0208468,0.0,0.0
8778,2194.25,68.9559,72.4391,153.071,100.07,99.8671,0.00446283,0.154596,20.8119,282.626,0.0183613,0.0,0.0
8811,2202.5,68.6617,72.3474,152.901,100.04,100.057,0.00444708,0.152533,20.8127,282.386,-0.0015611,0.0,0.0
8844,2210.75,68.422,72.4481,153.792,99.9353,99.7749,0.00464718,0.151932,20.8129,281.935,0.0145419,0.0,0.0
8877,2219,68.1749,72.0817,153.324,99.8867,99.5866,0.00477902,0.151395,20.814,281.705,0.0272355,0.0,0.0
8910,2227.25,68.1935,71.2885,158.579,99.8358,99.9023,0.0047012,0.150223,20.814,281.325,-0.00603122,0.0,0.0
8943,2235.5,68.4977,71.9377,153.619,99.7629,99.7454,0.00495893,0.148509,20.8162,280.944,0.00158456,0.0,0.0
8976,2243.75,68.6542,71.7717,158.06,99.7465,99.4201,0.0050016,0.149856,20.8173,280.654,0.0296605,0.0,0.0
9009,2252,68.0142,71.7865,149.929,99.7374,99.6959,0.00446719,0.148466,20.8185,280.184,0.00375979,0.0,0.0
9042,2260.25,68.0247,71.1528,156.187,99.8019,99.7083,0.0044336,0.149235,20.817,279.933,0.0084902,0.0,0.0
9075,2268.5,67.7385,71.6082,152.235,99.8927,100.132,0.00498894,0.14775,20.8152,279.503,-0.021694,0.0,0.0
9108,2276.75,68.0297,71.6907,152.045,100.088,100.056,0.00465759,0.147375,20.8157,279.253,0.00284749,0.0,0.0
9141,2285,67.9878,71.1116,151.773,100.292,99.4896,0.00492187,0.1468,20.8186,278.903,0.0727156,0.0,0.0
9174,2293.25,67.8959,71.2233,153.877,100.51,100.318,0.00492147,0.146841,20.8187,278.642,0.0172815,0.0,0.0
9207,2301.5,67.7885,71.4859,153.99,100.773,100.67,0.00495853,0.14588,20.8182,278.172,0.00923274,0.0,0.0
9240,2309.75,67.7826,71.2306,149.7,101.072,101.428,0.00483689,0.146662,20.8216,277.892,-0.0317925,0.0,0.0
9273,2318,67.364,71.1014,149.182,101.302,101.178,0.00478073,0.14609,20.8225,277.491,0.0111055,0.0,0.0
9306,2326.25,66.9706,70.3228,157.122,101.488,101.445,0.00510363,0.146074,20.8219,277.331,0.00387085,0.0,0.0
9339,2334.5,67.1034,70.1046,151.355,101.591,101.571,0.00482165,0.142296,20.8257,276.871,0.0017539,0.0,0.0
9372,2342.75,67.208,70.5521,150.618,101.603,100.735,0.00497379,0.144515,20.8233,276.53,0.0775716,0.0,0.0
9405,2351,67.1044,70.4756,156.003,101.483,101.92,0.0050903,0.146113,20.8236,276.15,-0.0388627,0.0,0.0
9438,2359.25,66.8852,70.5365,156.839,101.236,101.346,0.00503124,0.145157,20.8234,275.84,-0.00981127,0.0,0.0
9471,2367.5,67.1214,70.8892,151.016,100.956,100.559,0.00493422,0.146515,20.8238,275.66,0.0356787,0.0,0.0
9504,2375.75,66.847,70.5207,152.142,100.708,100.459,0.00473225,0.144876,20.8204,275.189,0.0224708,0.0,0.0
9537,2384,66.9799,70.6533,153.488,101.1,100.717,0.00466438,0.14471,20.8217,274.919,0.0343484,0.0,0.0
9570,2392.25,66.9837,70.067,153.421,101.171,100.804,0.00518089,0.14509,20.8217,274.519,0.03292,0.0,0.0
9603,2400.5,67.1335,70.4349,151.515,100.908,101.004,0.00464825,0.145261,20.8243,274.218,-0.00853758,0.0,0.0
9636,2408.75,66.6854,70.4279,148.849,100.315,100.308,0.00499267,0.14466,20.8227,273.848,0.000622425,0.0,0.0
9669,2417,66.8494,70.0803,156.435,100.46,100.346,0.00461571,0.146002,20.8228,273.658,0.0102241,0.0,0.0
9702,2425.25,66.6234,70.5949,151.725,100.718,100.302,0.00514563,0.145869,20.8212,273.338,0.0374418,0.0,0.0
9735,2433.5,66.2441,69.9019,156.577,100.924,100.707,0.00500787,0.145794,20.8228,272.877,0.0194809,0.0,0.0
9768,2441.75,66.659,70.0584,154.51,100.962,100.821,0.00472372,0.14567,20.8218,272.667,0.0126224,0.0,0.0
9801,2450,66.7683,70.2001,152.26,100.777,100.523,0.00491754,0.145453,20.8229,272.206,0.0228366,0.0,0.0
9834,2458.25,67.0837,70.0048,153.473,100.512,100.326,0.00480277,0.146851,20.8201,271.976,0.0167614,0.0,0.0
9867,2466.5,66.7589,70.0301,152.833,100.169,99.8015,0.00467701,0.146999,20.8202,271.516,0.0332381,0.0,0.0
9900,2474.75,66.7261,70.534,151.989,99.8967,99.8443,0.00515835,0.146391,20.8204,271.276,0.00474747,0.0,0.0
9933,2483,66.7404,70.2346,155.29,99.7035,99.2423,0.00474195,0.147701,20.8185,270.865,0.0419603,0.0,0.0
9966,2491.25,66.7534,70.53125,150.212,99.7067,99.19,0.00502726,0.146905,20.8209,270.655,0.0470207,0.0,0.0
9999,2499.5,66.901,70.879,148.639,99.8509,99.8472,0.0049996,0.148277,20.8189,270.185,0.000338725,0.0,0.0
10032,2507.75,67.0548,70.9091,155.749,100.127,100.457,0.00525007,0.148114,20.8207,269.874,-0.0297634,0.0,0.0
10065,2516,66.6198,70.3642,150.612,100.479,100.06,0.0051099,0.148305,20.8187,269.454,0.0378361,0.0,0.0
10098,2524.25,67.0562,70.56,154.254,100.857,101.447,0.00484929,0.147456,20.8205,269.194,-0.0528033,0.0,0.0
10131,2532.5,66.4926,70.1393,150.17,101.159,100.877,0.00518731,0.151392,20.8158,268.813,0.0252778,0.0,0.0
10164,2540.75,66.569,70.2821,149.945,101.347,101.302,0.00505235,0.147803,20.8194,268.403,0.00402397,0.0,0.0
10197,2549,66.5987,70.8065,153.301,101.429,101.233,0.00523194,0.149336,20.8186,268.153,0.0174817,0.0,0.0
10230,2557.25,66.643,70.6844,151.216,101.446,101.354,0.00485234,0.14828,20.8207,267.692,0.00825309,0.0,0.0
10263,2565.5,66.7653,70.7839,157.632,101.413,101.458,0.00495793,0.151629,20.8211,267.442,-0.00406731,0.0,0.0
10296,2573.75,66.6596,70.9327,153.279,101.289,101.281,0.00527153,0.153272,20.8173,266.972,0.000699011,0.0,0.0
10329,2582,67.05,70.0367,149.883,101.114,101.247,0.00531479,0.152125,20.8172,266.762,-0.0119482,0.0,0.0
10362,2590.25,66.9756,70.6072,153.269,100.827,100.473,0.00492432,0.151392,20.817,266.221,0.0318096,0.0,0.0
10395,2598.5,66.8553,70.7235,157.183,100.518,100.037,0.00540539,0.153638,20.8165,266.011,0.0433443,0.0,0.0
10428,2606.75,66.6578,70.4419,152.278,100.24,99.6693,0.00493319,0.154863,20.8138,265.5,0.0516717,0.0,0.0
10461,2615,67.2435,71.0497,151.702,100.013,100.294,0.0052005,0.153523,20.8153,265.25,-0.0253676,0.0,0.0
10494,2623.25,67.2318,70.998,155.474,99.8354,99.4525,0.00458383,0.155309,20.8127,264.77,0.0347739,0.0,0.0
10527,2631.5,66.848,71.1277,153.972,99.7414,99.4144,0.00459338,0.154224,20.8168,264.51,0.029711,0.0,0.0
10560,2639.75,67.2859,70.7875,151.423,99.7298,99.5352,0.00438312,0.154366,20.817,264.039,0.0176755,0.0,0.0
10593,2648,67.3638,71.5394,153.962,99.7939,99.8424,0.00482562,0.154124,20.8158,263.799,-0.00439433,0.0,0.0
10626,2656.25,66.9614,71.4902,150.025,99.8541,99.9632,0.00457089,0.155927,20.8135,263.258,-0.00988309,0.0,0.0
10659,2664.5,67.2684,71.419,157.538,99.9501,99.8928,0.00437282,0.156719,20.8134,262.988,0.00518629,0.0,0.0
10692,2672.75,67.5552,71.5965,150.044,100.036,99.3612,0.00417887,0.155596,20.8142,262.498,0.0612622,0.0,0.0
10725,2681,67.8308,71.9454,155.168,100.192,99.9004,0.00455956,0.156425,20.815,262.137,0.0263611,0.0,0.0
10758,2689.25,67.7387,72.0198,152.027,100.35,100.398,0.00426036,0.157224,20.813,261.807,-0.00427831,0.0,0.0
10791,2697.5,67.6887,72.1242,153.69,100.544,100.19,0.00423089,0.160539,20.8109,261.277,0.0319547,0.0,0.0
10824,2705.75,68.0383,72.2189,152.828,100.767,100.109,0.0042386,0.159473,20.8086,261.006,0.0592776,0.0,0.0
10857,2714,67.7265,71.9719,156.099,100.937,100.635,0.00427434,0.160332,20.8091,260.526,0.0271559,0.0,0.0
10890,2722.25,68.2244,72.8182,151.362,101.042,100.763,0.00438248,0.16094,20.8097,260.226,0.0250401,0.0,0.0
10923,2730.5,68.0457,72.6668,153.213,100.965,100.905,0.00407247,0.164047,20.8076,259.715,0.00539976,0.0,0.0
10956,2738.75,68.5079,72.8308,152.724,100.781,100.716,0.00435686,0.164845,20.807,259.405,0.00583099,0.0,0.0
10989,2747,68.4881,72.6583,153.792,100.559,100.735,0.00448247,0.163832,20.8056,258.874,-0.0157718,0.0,0.0
11022,2755.25,68.0751,72.9555,148.945,100.431,100.091,0.00408493,0.163388,20.8058,258.574,0.0307055,0.0,0.0
11055,2763.5,68.4673,72.9342,151.539,100.405,100.595,0.00405592,0.168424,20.8041,258.034,-0.0170859,0.0,0.0
11088,2771.75,68.7542,72.6536,149.564,100.802,100.475,0.00449122,0.166985,20.8015,257.813,0.0294573,0.0,0.0
11121,2780,68.768,72.8423,154.792,101.043,100.894,0.00394499,0.165693,20.8026,257.283,0.0133689,0.0,0.0
11154,2788.25,68.4947,72.9984,157.763,101.174,101.385,0.00357158,0.166073,20.8046,257.003,-0.0188478,0.0,0.0
11187,2796.5,68.8403,73.1428,152.015,101.202,101.513,0.00378894,0.172852,20.7986,256.512,-0.0278431,0.0,0.0
11220,2804.75,69.2253,73.4715,147.027,101.204,101.298,0.00382356,0.169099,20.7968,256.082,-0.00841233,0.0,0.0
11253,2813,68.7807,73.2377,155.712,101.21,101.518,0.00396989,0.172091,20.7987,255.571,-0.027519,0.0,0.0
11286,2821.25,69.1594,73.3542,154.401,101.196,101.425,0.00371599,0.169883,20.7995,255.111,-0.0204895,0.0,0.0
11319,2829.5,69.1833,73.9767,149.903,101.189,101.451,0.00337438,0.171918,20.799,254.781,-0.0233503,0.0,0.0
11352,2837.75,69.5064,73.6881,153.817,101.181,101.161,0.00343436,0.172688,20.7981,254.19,0.0018143,0.0,0.0
11385,2846,69.0677,73.7206,148.379,101.205,101.318,0.00318805,0.173329,20.7958,253.86,-0.0101612,0.0,0.0
11418,2854.25,69.3974,73.4801,152.648,101.188,101.177,0.00327684,0.17574,20.7976,253.329,0.000972992,0.0,0.0
11451,2862.5,69.3977,73.639,154.559,101.199,101.324,0.00326007,0.177254,20.7924,252.949,-0.0111694,0.0,0.0
11484,2870.75,69.3939,74.5701,152.998,101.194,101.396,0.00375437,0.177632,20.7919,252.339,-0.0181214,0.0,0.0
11517,2879,69.4746,74.0653,147.99,101.206,100.832,0.00369628,0.179703,20.7901,251.968,0.0335068,0.0,0.0
11550,2887.25,69.9253,74.3574,151.924,101.188,101.236,0.0030817,0.180422,20.7911,251.458,-0.00429935,0.0,0.0
11583,2895.5,69.6666,74.5072,150.954,101.183,101.214,0.00312503,0.179681,20.7873,251.067,-0.00277123,0.0,0.0
11616,2903.75,70.1101,74.9622,151.622,101.148,100.885,0.00338295,0.183802,20.7853,250.477,0.0235984,0.0,0.0
11649,2912,70.5035,75.119,152.392,101.062,100.038,0.00327133,0.182323,20.7843,250.056,0.092108,0.0,0.0
11682,2920.25,70.163,74.8862,155.318,100.9,100.632,0.0031076,0.185094,20.7857,249.566,0.0240557,0.0,0.0
11715,2928.5,70.4253,74.6899,148.457,100.588,100.639,0.00300575,0.186448,20.7816,248.975,-0.00460803,0.0,0.0
11748,2936.75,71.1097,75.1235,151.362,100.321,100.223,0.00316046,0.188709,20.7798,248.545,0.00881567,0.0,0.0
11781,2945,71.1201,75.8665,151.895,100.419,100.336,0.00295655,0.187752,20.7794,247.965,0.00747166,0.0,0.0
11814,2953.25,70.9032,75.7911,146.487,100.59,100.613,0.00278888,0.189457,20.778,247.584,-0.0020337,0.0,0.0
11847,2961.5,71.0192,76.0117,156.775,100.794,101.143,0.00265842,0.190066,20.778,246.924,-0.031262,0.0,0.0
11880,2969.75,71.2574,75.5254,151.683,100.93,101.085,0.00275935,0.190485,20.7755,246.553,-0.0139338,0.0,0.0
11913,2978,71.3916,76.1091,148.03,100.945,101.027,0.00265716,0.190631,20.778,245.933,-0.00734612,0.0,0.0
11946,2986.25,71.0992,75.9139,150.616,100.845,100.999,0.00277107,0.196262,20.7727,245.502,-0.0138284,0.0,0.0
11979,2994.5,71.0178,75.6508,152.592,100.658,100.298,0.00251087,0.194406,20.7718,244.992,0.0324148,0.0,0.0
12012,3002.75,71.3112,76.4566,150.619,100.434,100.589,0.00217727,0.194279,20.7725,244.291,-0.0139521,0.0,0.0
12045,3011,71.4538,76.3308,148.526,100.302,100.171,0.00268162,0.198423,20.7699,243.851,0.0117638,0.0,0.0
12078,3019.25,71.7453,76.5977,151.961,100.234,100.111,0.00250285,0.197594,20.7696,243.13,0.011154,0.0,0.0
12111,3027.5,71.6313,76.6987,147.916,100.157,100.012,0.0026057,0.19817,20.7696,242.79,0.0131567,0.0,0.0
12144,3035.75,71.6326,76.5281,150.634,100.058,100.034,0.00223575,0.201806,20.7662,242.129,0.00224786,0.0,0.0
12177,3044,71.9372,76.9872,150.138,99.976,99.9451,0.00234243,0.203111,20.7635,241.709,0.00279249,0.0,0.0
12210,3052.25,72.0009,77.2546,150.58,99.8915,99.7853,0.00214512,0.200414,20.7658,241.018,0.009625,0.0,0.0
12243,3060.5,72.3993,76.8916,154.412,99.8569,98.7344,0.00220748,0.204804,20.7621,240.558,0.102297,0.0,0.0
12276,3068.75,72.1554,77.3034,147.414,99.7967,99.4401,0.00224347,0.205957,20.7596,239.897,0.0323965,0.0,0.0
12309,3077,72.1599,77.2267,148.751,99.7613,99.9261,0.00242023,0.207488,20.7569,239.417,-0.0149392,0.0,0.0
12342,3085.25,72.4051,77.6217,146.995,99.7302,99.6284,0.00193446,0.207785,20.756,238.776,0.00924136,0.0,0.0
12375,3093.5,72.0923,77.5584,150.25,99.7266,99.6608,0.0022234,0.207635,20.754,238.256,0.00597977,0.0,0.0
12408,3101.75,72.6107,77.5294,147.172,99.7015,99.4591,0.00219963,0.2104,20.7535,237.565,0.0220285,0.0,0.0
12441,3110,73.1598,78.1269,152.361,99.7023,99.7834,0.00203557,0.213238,20.7501,237.095,-0.00735908,0.0,0.0
12474,3118.25,72.7388,77.7635,151.667,99.6991,99.3241,0.00216207,0.212922,20.7498,236.434,0.0341076,0.0,0.0
12507,3126.5,73.086,78.1081,146.953,99.6972,99.48,0.00201869,0.21188,20.7519,235.934,0.0197274,0.0,0.0
12540,3134.75,73.0424,78.3986,148.029,99.7051,99.6218,0.0022725,0.214602,20.748,235.353,0.00756867,0.0,0.0
12573,3143,72.8221,78.1835,147.688,99.7131,99.3773,0.00187726,0.213662,20.7459,234.652,0.0305217,0.0,0.0
12606,3151.25,73.1973,78.219,147.866,99.7577,99.3669,0.00192088,0.216682,20.75,234.132,0.0355218,0.0,0.0
12639,3159.5,73.0585,78.4855,152.752,99.7939,99.2109,0.00184231,0.215824,20.7474,233.441,0.0530252,0.0,0.0
12672,3167.75,73.8427,79.1738,150.104,99.9075,99.8148,0.00221721,0.218006,20.7456,232.971,0.00839428,0.0,0.0
12705,3176,73.528,78.5413,148.526,99.9879,99.3174,0.00165635,0.217331,20.7459,232.23,0.0608872,0.0,0.0
12738,3184.25,73.5762,78.3528,148.828,100.108,99.6008,0.00164907,0.217474,20.7455,231.68,0.0459807,0.0,0.0
12771,3192.5,73.5522,78.9035,150.142,100.176,100.456,0.00217093,0.21748,20.7416,231.039,-0.0252156,0.0,0.0
12804,3200.75,74.1041,78.6841,151.421,100.25,99.9584,0.00219486,0.218583,20.7402,230.499,0.0263223,0.0,0.0
12837,3209,73.7938,79.1531,149.056,100.273,99.8785,0.00189647,0.219821,20.7431,229.828,0.0356776,0.0,0.0
12870,3217.25,73.9144,78.9777,153.132,100.298,99.7882,0.00214274,0.220251,20.7384,229.348,0.0461331,0.0,0.0
12903,3225.5,74.0928,79.2133,149.354,100.324,100.26,0.00215408,0.219038,20.741,228.657,0.00575337,0.0,0.0
12936,3233.75,74.1142,79.3646,150.453,100.377,100.112,0.00195483,0.220244,20.7434,228.087,0.0240041,0.0,0.0
12969,3242,74.3082,79.3172,147.926,100.424,100.393,0.00219738,0.216646,20.7444,227.426,0.00279357,0.0,0.0
13002,3250.25,73.9328,79.3699,149.974,100.445,100.078,0.00219987,0.214618,20.7464,226.895,0.0330812,0.0,0.0
13035,3258.5,73.8484,78.6744,154.793,100.5,100.152,0.00201083,0.219326,20.7424,226.275,0.0313613,0.0,0.0
13068,3266.75,74.0462,79.0074,152.489,100.554,100.471,0.00208706,0.214536,20.7443,225.664,0.00749646,0.0,0.0
13101,3275,73.8422,78.4037,144.144,100.589,100.715,0.00234518,0.21969,20.7445,225.234,-0.0113746,0.0,0.0
13134,3283.25,73.4847,78.3888,150.972,100.624,100.869,0.00197828,0.214378,20.7461,224.533,-0.0220055,0.0,0.0
13167,3291.5,73.4578,78.3428,151.396,100.745,100.292,0.0018674,0.210909,20.748,224.013,0.0407318,0.0,0.0
13200,3299.75,73.6622,78.5049,151.767,100.795,100.625,0.00183827,0.212586,20.7473,223.412,0.0152183,0.0,0.0
13233,3308,73.4865,78.5588,147.054,100.906,100.708,0.00207389,0.211201,20.7506,222.922,0.0177875,0.0,0.0
13266,3316.25,73.9596,78.1913,147.22,101.005,101.02,0.00188387,0.209017,20.7513,222.401,-0.00134532,0.0,0.0
13299,3324.5,73.7416,78.4764,152.009,101.181,101.213,0.00174525,0.206528,20.7554,221.841,-0.00282842,0.0,0.0
13332,3332.75,73.6057,78.2465,151.677,101.323,101.396,0.00193838,0.209287,20.7506,221.2,-0.00655208,0.0,0.0
13365,3341,73.6751,78.3819,150.119,101.493,101.318,0.00198501,0.206459,20.7515,220.72,0.0155521,0.0,0.0
13398,3349.25,73.6595,78.2276,156.838,101.566,101.249,0.00212651,0.202986,20.7524,220.159,0.0282873,0.0,0.0
13431,3357.5,73.658,77.9513,151.782,101.605,101.699,0.00198378,0.203544,20.7549,219.779,-0.0083524,0.0,0.0
13464,3365.75,73.4123,78.6003,147.749,101.57,101.056,0.00231185,0.204891,20.7553,219.128,0.0458798,0.0,0.0
13497,3374,73.7568,78.2757,150.905,101.492,100.855,0.00179745,0.202639,20.7567,218.628,0.0569099,0.0,0.0
13530,3382.25,73.1249,78.1039,149.651,101.447,100.473,0.00167996,0.197618,20.7621,218.198,0.0873004,0.0,0.0
13563,3390.5,73.6771,78.5982,150.525,101.475,101.11,0.00134573,0.202193,20.7665,217.607,0.0326115,0.0,0.0
13596,3398.75,73.5178,78.0686,153.451,101.521,101.331,0.00236932,0.206916,20.7484,217.097,0.0169337,0.0,0.0
13629,3407,73.2575,77.3953,151.466,101.575,100.939,0.00279447,0.204913,20.7559,216.526,0.0568574,0.0,0.0
13662,3415.25,73.1739,77.0974,152.998,101.648,101.241,0.00208175,0.199278,20.7613,216.076,0.0362396,0.0,0.0
13695,3423.5,72.6825,77.5199,149.548,101.607,101.802,0.00246825,0.197022,20.7609,215.515,-0.0172751,0.0,0.0
13728,3431.75,72.8733,77.4026,149.335,101.553,101.375,0.00216808,0.19867,20.7643,215.175,0.0159032,0.0,0.0
13761,3440,73.0327,77.2924,147.554,101.364,100.996,0.0024005,0.196744,20.7662,214.574,0.0329512,0.0,0.0
13794,3448.25,72.5494,76.8239,152.947,101.152,101.21,0.00237256,0.19337,20.7665,214.214,-0.00517415,0.0,0.0
13827,3456.5,72.4684,76.672,151.012,100.898,99.9109,0.00195286,0.194376,20.767,213.653,0.0889381,0.0,0.0
13860,3464.75,72.455,76.6114,152.791,100.635,100.118,0.00249145,0.193202,20.7694,213.253,0.0466064,0.0,0.0
13893,3473,72.6222,76.5102,150.167,100.321,100.268,0.00218967,0.192765,20.7672,212.663,0.00473022,0.0,0.0
13926,3481.25,72.4102,76.7398,151.405,100.089,100.183,0.00220752,0.189387,20.7737,212.302,-0.00844094,0.0,0.0
13959,3489.5,72.1295,76.9096,148.33,99.8696,99.7444,0.00221578,0.191987,20.7736,211.792,0.011349,0.0,0.0
13992,3497.75,72.3471,76.8795,146.168,99.77,99.4867,0.0023414,0.194711,20.7679,211.381,0.025735,0.0,0.0
14025,3506,72.4625,76.5373,149.964,99.7334,99.5371,0.0023038,0.193078,20.7667,210.871,0.0178263,0.0,0.0
14058,3514.25,72.7774,77.1989,150.025,99.7645,100.024,0.00188172,0.192554,20.7692,210.32,-0.0235168,0.0,0.0
14091,3522.5,72.9234,77.0708,152.144,99.8967,99.8833,0.00194421,0.19237,20.7698,209.97,0.00121461,0.0,0.0
14124,3530.75,72.7553,77.6071,148.391,100.068,99.7131,0.0019937,0.195134,20.7722,209.33,0.0321525,0.0,0.0
14157,3539,72.5437,77.5292,145.447,100.305,100.193,0.00225307,0.195707,20.7678,209.019,0.0100765,0.0,0.0
14190,3547.25,72.5678,77.6183,152.201,100.586,99.8272,0.00199557,0.195813,20.7677,208.409,0.0685069,0.0,0.0
14223,3555.5,72.4103,77.4922,151.108,100.853,100.335,0.00193683,0.196619,20.7682,208.048,0.0465624,0.0,0.0
14256,3563.75,72.9612,77.6673,150.451,101.002,100.608,0.00241355,0.202337,20.7641,207.498,0.0354058,0.0,0.0
14289,3572,73.2427,77.7145,149.161,101.002,100.863,0.00216343,0.200668,20.7629,206.967,0.0124371,0.0,0.0
14322,3580.25,73.3688,78.3055,147.885,100.841,100.767,0.00247592,0.206464,20.7576,206.477,0.00666646,0.0,0.0
14355,3588.5,73.3864,78.1309,149.016,100.604,100.34,0.00208069,0.20749,20.7513,205.896,0.0237684,0.0,0.0
14388,3596.75,73.2539,77.9724,152.193,100.414,100.657,0.00229851,0.207655,20.7554,205.456,-0.0218562,0.0,0.0
14421,3605,73.635,78.4941,154.911,100.89,101.078,0.00226768,0.212267,20.7536,204.805,-0.0168249,0.0,0.0
14454,3613.25,74.0067,78.6797,147.396,101.23,101.131,0.0021379,0.214175,20.7468,204.345,0.0088674,0.0,0.0
14487,3621.5,73.827,78.7386,152.322,101.088,101.178,0.00210023,0.21455,20.7414,203.744,-0.00798637,0.0,0.0
14520,3629.75,74.3456,79.0205,145.847,100.87,100.691,0.00213296,0.21994,20.7432,203.284,0.0160744,0.0,0.0
14553,3638,74.2546,79.3921,147.973,101.253,100.93,0.00184519,0.222802,20.7383,202.583,0.0288368,0.0,0.0
14586,3646.25,74.2356,79.7526,148.82,101.615,101.529,0.00207172,0.222955,20.7338,202.083,0.00769478,0.0,0.0
14619,3654.5,74.7958,80.3193,148.242,101.632,101.883,0.00188957,0.22308,20.7345,201.422,-0.0223429,0.0,0.0
14652,3662.75,74.9751,80.2443,146.781,101.293,100.339,0.00158575,0.232334,20.7268,200.922,0.0856613,0.0,0.0
14685,3671,75.4085,80.244,144.08,100.694,100.365,0.00183092,0.231401,20.7268,200.211,0.0296314,0.0,0.0
14718,3679.25,75.1191,81.1418,149.635,100.039,100.178,0.00168788,0.236224,20.7221,199.651,-0.0125855,0.0,0.0
14751,3687.5,76.2386,81.632,149.6,99.7684,99.4401,0.00163343,0.236196,20.7231,199.05,0.0298314,0.0,0.0
14784,3695.75,75.9213,82.1177,147.373,100.022,99.8281,0.00181664,0.239528,20.716,198.35,0.0175722,0.0,0.0
14817,3704,76.179,82.3982,150.345,100.567,100.226,0.00178174,0.246913,20.7117,197.739,0.0307346,0.0,0.0
14850,3712.25,76.9503,82.3928,145.505,100.97,100.139,0.00189924,0.247913,20.7052,197.008,0.0747882,0.0,0.0
14883,3720.5,76.7691,83.2322,151.59,101.023,100.494,0.0016333,0.249087,20.7067,196.388,0.0474971,0.0,0.0
14916,3728.75,77.3561,82.9579,146.051,100.699,100.112,0.00191735,0.257339,20.6971,195.597,0.0529008,0.0,0.0
14949,3737,77.3636,83.4561,145.631,100.412,99.7159,0.00181924,0.260536,20.6939,195.017,0.0629261,0.0,0.0
14982,3745.25,77.9363,83.7486,144.706,100.862,100.226,0.00188004,0.263107,20.6905,194.246,0.0572905,0.0,0.0
15015,3753.5,78.3018,84.101,145.234,101.216,100.082,0.00187207,0.265789,20.6872,193.575,0.101945,0.0,0.0
15048,3761.75,78.6166,83.8626,150.29,101.012,99.9109,0.00178462,0.269857,20.6814,192.795,0.099185,0.0,0.0
15081,3770,78.2709,84.5544,145.955,100.856,100.075,0.00166108,0.271868,20.683,192.064,0.0702968,0.0,0.0
15114,3778.25,78.417,84.2804,145.994,101.151,100.294,0.00159421,0.281308,20.6686,191.333,0.0769812,0.0,0.0
15147,3786.5,78.8649,85.1698,143.977,101.44,100.34,0.00194601,0.282814,20.669,190.653,0.0986622,0.0,0.0
15180,3794.75,79.0286,85.511,144.202,101.608,100.565,0.00175162,0.282142,20.6629,189.892,0.0933744,0.0,0.0
15213,3803,79.3832,85.6689,144.032,101.644,100.019,0.00176624,0.286476,20.6616,188.991,0.145789,0.0,0.0
15246,3811.25,79.0317,85.0876,148.255,101.643,100.017,0.00196197,0.28785,20.6574,188.29,0.145925,0.0,0.0
15279,3819.5,79.2639,85.3145,147.227,101.475,99.3754,0.00191878,0.288635,20.6545,187.39,0.189183,0.0,0.0
15312,3827.75,79.3048,85.6056,147.762,101.327,100.419,0.00212722,0.292453,20.6494,186.749,0.0814479,0.0,0.0
15345,3836,79.7079,86.1059,146.463,101.171,99.6512,0.00207446,0.291465,20.6491,185.838,0.136923,0.0,0.0
15378,3844.25,79.9724,86.3062,148.261,100.994,99.1205,0.0024179,0.294594,20.649,185.178,0.169448,0.0,0.0
15411,3852.5,80.5443,86.7867,145.742,100.85,99.4477,0.00221504,0.297359,20.6455,184.287,0.126699,0.0,0.0
15444,3860.75,80.5594,87.0813,147.893,100.735,98.8181,0.00222423,0.29362,20.6429,183.516,0.173838,0.0,0.0
15477,3869,80.1088,86.3543,144.738,100.643,98.3625,0.00195059,0.294939,20.6441,182.695,0.20742,0.0,0.0
15510,3877.25,80.476,86.8848,148.776,100.619,98.7002,0.002036,0.293992,20.6459,181.915,0.174225,0.0,0.0
15525,3881,80.4841,86.7578,146.556,100.638,98.451,0.00239452,0.293617,20.6457,181.584,0.19882,0.0,0.0