File: 01_Data/Engineered_Wood_Table/Cone/Engineered_Wood_Table_Cone_HF25Scan_230626_R2.csv
Names,Time,Stack TC,Smoke TC,Exh Press,Smoke Comp,Smoke Meas,CO Meter,CO2 Meter,O2 Meter,Sample Mass,Ext Coeff,Start Test,Flame Verif
Chan Gain,,500,500,1,1,1,1,1,1,1,1,1.0,1.0
Offset,,0,0,0.21304,0,0,0,0,0,0,0,0.0,0.0
Gain,,1,1,25.011,13.9504,14.5362,1,1,1,1.0009,1.0389,1.0,1.0
Units,sec,C,C,Pa,%,%,%,%,%,g,/m,,
Baseline,,40.9167,42.3553,162.15,101.062,97.7051,0.000700803,0.0465114,20.9708,-444.538,0.307889,,
8,1.75,39.4475,40.7629,161.459,101.077,98.0304,0.000544433,0.0469941,20.9712,424.203,0.278923,0.0,0.0
16,3.75,40.0076,40.6812,164.271,101.064,98.1493,0.000633024,0.0472357,20.971,424.193,0.266726,0.0,0.0
24,5.75,40.0505,41.047,161.809,101.063,97.9133,0.00070867,0.0474824,20.9709,424.253,0.288512,0.0,0.0
32,7.75,39.8067,41.1842,163.068,101.065,97.5744,0.000673748,0.047887,20.9709,424.213,0.320341,0.0,0.0
40,9.75,40.2016,41.1401,160.961,101.063,97.6769,0.000583403,0.048104,20.9705,424.163,0.310582,0.0,0.0
48,11.75,40.5623,41.365,163.715,101.068,97.7691,0.000467899,0.0482485,20.9714,424.183,0.302439,0.0,0.0
56,13.75,40.2601,41.4956,164.978,101.056,97.7873,0.000374328,0.0481979,20.9718,424.163,0.299631,0.0,0.0
64,15.75,39.9212,41.3717,164.722,101.065,97.7913,0.000314542,0.0481574,20.9706,424.133,0.300065,0.0,0.0
72,17.75,40.7961,42.0844,161.836,101.055,97.8117,0.000305122,0.0480481,20.9709,424.123,0.297281,0.0,0.0
80,19.75,40.6369,41.7609,161.393,101.056,98.0801,0.000359715,0.0479126,20.9716,424.083,0.272386,0.0,0.0
88,21.75,40.5607,42.0257,161.942,101.061,97.8494,0.000511413,0.0478401,20.9719,424.093,0.294344,0.0,0.0
96,23.75,40.6083,41.9789,160.689,101.049,97.668,0.00065923,0.0477552,20.9725,424.103,0.310106,0.0,0.0
104,25.75,40.2329,41.8262,160.774,101.061,98.0122,0.000681838,0.0475413,20.9728,424.123,0.279155,0.0,0.0
112,27.75,40.792,42.1791,162.954,101.052,97.8055,0.000653394,0.0472712,20.9729,424.123,0.297629,0.0,0.0
120,29.75,40.8107,42.1187,161.585,101.056,97.8428,0.000521899,0.0473581,20.9729,424.103,0.294503,0.0,0.0
128,31.75,40.8601,41.9322,163.254,101.044,97.3868,0.000385666,0.0474405,20.9729,424.063,0.335964,0.0,0.0
136,33.75,40.5837,41.968,158.193,101.055,97.1184,0.000403454,0.0475553,20.9741,424.023,0.36215,0.0,0.0
144,35.75,40.9966,42.7745,160.297,101.046,96.8194,0.000576881,0.0475772,20.9746,424.023,0.389405,0.0,0.0
152,37.75,41.28,42.1478,165.183,101.027,96.925,0.0007358,0.0478173,20.9747,423.973,0.377706,0.0,0.0
160,39.75,41.0429,42.0691,162.749,101.032,96.952,0.000808819,0.0483009,20.9736,423.923,0.3757,0.0,1.0
168,41.75,40.8266,42.7752,163.388,101.018,97.0611,0.000932309,0.0488896,20.9731,423.913,0.36418,0.0,0.0
176,43.75,41.4562,42.94,161.813,101.005,97.4382,0.00138059,0.0502191,20.9733,423.893,0.327655,0.0,0.0
184,45.75,41.2234,43.001,164.961,101.018,96.9857,0.00183972,0.0547401,20.9728,423.883,0.371264,0.0,0.0
192,47.75,41.1536,42.6134,160.424,100.999,97.2559,0.0020277,0.0639406,20.9715,423.873,0.344186,0.0,0.0
200,49.75,41.2842,42.9782,165.07,100.993,97.0558,0.00202486,0.0658425,20.9648,423.843,0.362414,0.0,0.0
208,51.75,41.032,42.7917,161.439,100.976,97.2634,0.00194899,0.0611573,20.9604,423.823,0.341365,0.0,0.0
216,53.75,41.556,42.6595,162.354,100.955,97.2124,0.00176013,0.0565942,20.9599,423.783,0.344303,0.0,0.0
224,55.75,41.333,41.977,163.052,100.961,97.1743,0.00146185,0.0530038,20.9648,423.763,0.34834,0.0,0.0
232,57.75,41.2917,42.7742,162.215,100.948,97.0611,0.00107984,0.0507719,20.9702,423.743,0.357802,0.0,0.0
240,59.75,40.9681,42.8708,159.793,100.94,97.1224,0.00100939,0.0498872,20.972,423.713,0.351364,0.0,0.0
248,61.75,41.241,42.8361,160.32,100.929,96.9117,0.00107633,0.0493297,20.974,423.723,0.370197,0.0,0.0
256,63.75,41.2034,42.6662,157.21,100.917,96.8167,0.00115674,0.0490168,20.9738,423.703,0.378014,0.0,0.0
264,65.75,41.3993,42.9076,162.038,100.909,97.0669,0.00114905,0.0488265,20.9738,423.723,0.353762,0.0,0.0
272,67.75,41.7094,42.7945,158.951,100.894,96.6388,0.00099548,0.0486659,20.9737,423.723,0.392658,0.0,0.0
280,69.75,40.941,42.8195,159.015,100.886,97.0682,0.00089338,0.0486873,20.9737,423.683,0.351523,0.0,0.0
288,71.75,41.6041,42.8155,165.195,100.861,96.5239,0.000917731,0.0487836,20.9747,423.683,0.400539,0.0,0.0
296,73.75,41.6529,42.9586,161.697,100.845,96.9751,0.000978616,0.0488641,20.9755,423.683,0.356619,0.0,0.0
304,75.75,41.5443,43.0432,158.983,100.828,96.4308,0.000979168,0.0488759,20.9758,423.643,0.406376,0.0,0.0
312,77.75,41.6554,42.9382,159.385,100.798,96.3496,0.00101554,0.0490856,20.9759,423.633,0.411318,0.0,0.0
320,79.75,41.2332,43.2664,159.718,100.803,95.9991,0.00107501,0.0493124,20.9749,423.583,0.44495,0.0,0.0
328,81.75,41.5011,42.8328,158.589,100.783,96.3283,0.00101349,0.0494622,20.9736,423.562,0.412024,0.0,0.0
336,83.75,41.5346,43.1416,166.428,100.762,96.7661,0.000869015,0.049697,20.9731,423.573,0.368771,0.0,0.0
344,85.75,41.6267,43.1895,164.27,100.748,96.4636,0.000803529,0.0500684,20.9729,423.522,0.395999,0.0,0.0
352,87.75,41.827,43.3757,158.973,100.736,96.2853,0.000821157,0.0503392,20.9728,423.492,0.411782,0.0,0.0
360,89.75,41.6964,43.2439,160.905,100.711,96.4654,0.000841065,0.0507466,20.9727,423.452,0.392557,0.0,0.0
368,91.75,41.8189,43.351,163.887,100.697,96.5679,0.000907517,0.0513453,20.9727,423.412,0.381571,0.0,0.0
376,93.75,41.6024,42.9857,156.597,100.691,95.9078,0.000966847,0.0520572,20.9727,423.412,0.4435,0.0,0.0
384,95.75,41.756,43.6181,158.198,100.669,95.894,0.000940365,0.0526505,20.9727,423.352,0.442841,0.0,0.0
392,97.75,41.422,43.1735,163.932,100.66,95.8785,0.000889978,0.0532873,20.9727,423.262,0.443507,0.0,0.0
400,99.75,41.7973,43.2564,163.57,100.633,95.7991,0.000950905,0.0539495,20.9727,423.222,0.448592,0.0,0.0
408,101.75,41.4218,43.6676,164.284,100.614,95.3963,0.00107032,0.0547279,20.9725,423.202,0.485254,0.0,0.0
416,103.75,41.8547,43.7136,159.602,100.614,95.1443,0.00120985,0.0554229,20.9722,423.132,0.509395,0.0,0.0
424,105.75,42.0838,43.3176,161.321,100.599,95.7645,0.00134084,0.0561432,20.9721,423.102,0.448799,0.0,0.0
432,107.75,41.7284,43.6605,160.598,100.584,95.0374,0.00150282,0.0568622,20.9721,423.062,0.516941,0.0,0.0
440,109.75,41.9795,44.0282,161.747,100.579,95.0849,0.00159403,0.057537,20.972,423.032,0.511929,0.0,0.0
448,111.75,41.9086,43.4679,161.014,100.562,94.8994,0.00164067,0.0582168,20.972,422.992,0.528213,0.0,0.0
456,113.75,42.1182,43.6135,160.389,100.529,94.8431,0.00176476,0.0587611,20.9731,422.972,0.530577,0.0,0.0
464,115.75,41.8487,43.8627,155.564,100.539,94.4851,0.00195447,0.0595542,20.9735,422.872,0.565928,0.0,0.0
472,117.75,42.013,43.4583,160.46,100.521,94.7207,0.00214422,0.0602882,20.9729,422.832,0.541615,0.0,0.0
480,119.75,42.4498,43.5586,163.272,100.505,94.812,0.00231709,0.0610962,20.9719,422.772,0.531438,0.0,0.0
488,121.75,42.4045,43.8386,160.812,100.478,93.8082,0.00244246,0.0618051,20.9715,422.722,0.625973,0.0,0.0
496,123.75,42.0984,44.1865,158.346,100.447,92.9995,0.00254171,0.0623963,20.9713,422.662,0.702019,0.0,0.0
504,125.75,42.2075,43.9003,156.2,100.434,93.7696,0.00270544,0.0627936,20.9707,422.592,0.625707,0.0,0.0
512,127.75,41.5437,44.1024,160.207,100.403,93.7021,0.00290107,0.0636722,20.9708,422.542,0.629442,0.0,0.0
520,129.75,41.8498,44.1176,160.063,100.379,94.9722,0.00313204,0.0647191,20.9708,422.441,0.504586,0.0,1.0
528,131.75,42.5958,45.0233,151.704,100.347,94.5317,0.00326043,0.0652979,20.9708,422.281,0.544015,0.0,1.0
536,133.75,44.0363,48.6488,144.147,100.342,93.6121,0.00334196,0.0655571,20.9708,421.851,0.632716,0.0,1.0
544,135.75,45.2567,52.5738,135.356,100.317,93.4573,0.00351752,0.0659458,20.9708,421.451,0.645479,0.0,1.0
552,137.75,47.5239,56.4708,136.978,100.283,92.7368,0.00372273,0.0762536,20.9702,420.97,0.712946,0.0,0.0
560,139.75,49.3355,60.7297,140.726,100.261,92.8517,0.00391499,0.147345,20.9675,420.52,0.699649,0.0,0.0
568,141.75,51.6434,63.2836,141.09,100.235,93.4981,0.00420891,0.260822,20.9175,420.129,0.634072,0.0,0.0
576,143.75,53.1655,65.3644,145.308,100.196,93.3965,0.00469605,0.378395,20.7989,419.799,0.640379,0.0,0.0
584,145.75,53.3475,67.1271,141.682,100.151,93.4196,0.00538869,0.469272,20.6709,419.459,0.634062,0.0,0.0
592,147.75,54.8958,67.54,147.551,100.134,92.8619,0.00615531,0.526559,20.572,419.148,0.68711,0.0,0.0
600,149.75,56.3118,68.6947,146.589,100.104,92.3864,0.0067214,0.543471,20.4816,418.788,0.731109,0.0,0.0
608,151.75,56.7267,69.4418,144.751,100.067,92.0417,0.00684449,0.534158,20.4349,418.488,0.761799,0.0,0.0
616,153.75,57.2911,69.7054,146.717,100.015,92.2351,0.00663716,0.51429,20.4251,418.178,0.738015,0.0,0.0
624,155.75,58.4298,69.5471,147.728,99.969,92.012,0.00640981,0.491918,20.4407,417.877,0.75586,0.0,0.0
632,157.75,58.9828,70.1899,148.411,99.9354,91.5932,0.00621274,0.472968,20.4688,417.517,0.794364,0.0,0.0
640,159.75,59.216,70.5477,144.69,99.8928,92.185,0.00608355,0.456689,20.4916,417.227,0.731791,0.0,0.0
648,161.75,59.532,70.9242,144.148,99.843,92.2622,0.00605571,0.442226,20.5118,416.906,0.719618,0.0,0.0
656,163.75,60.1734,70.7468,146.4,99.7974,93.3792,0.0060554,0.433611,20.528,416.606,0.60579,0.0,0.0
664,165.75,60.6578,70.5784,145.914,99.7638,93.5824,0.0060035,0.426084,20.5406,416.336,0.582911,0.0,0.0
672,167.75,60.8336,70.9561,147.62,99.7166,92.5235,0.00593688,0.419152,20.5484,416.026,0.682298,0.0,0.0
680,169.75,61.1149,71.2739,144.477,99.6591,93.3663,0.00578411,0.412647,20.5548,415.745,0.594401,0.0,0.0
688,171.75,61.444,71.8238,144.038,99.6195,93.2288,0.00558547,0.40541,20.5607,415.465,0.604213,0.0,0.0
696,173.75,62.057,71.9323,149.213,99.5739,93.1481,0.00545212,0.400996,20.5694,415.185,0.607941,0.0,0.0
704,175.75,62.0479,71.6739,145.929,99.5229,92.8415,0.00527947,0.399584,20.5744,414.885,0.633304,0.0,0.0
712,177.75,62.2114,71.9694,144.274,99.4884,92.83,0.00506921,0.395132,20.5786,414.644,0.631277,0.0,0.0
720,179.75,62.5412,71.4462,143.062,99.4432,92.991,0.00491721,0.388511,20.5817,414.294,0.611348,0.0,0.0
728,181.75,62.5564,72.1477,142.581,99.4139,93.3734,0.00463467,0.381532,20.5862,414.044,0.571258,0.0,0.0
736,183.75,63.0168,71.7746,143.877,99.3628,92.5705,0.0041963,0.3756,20.5944,413.794,0.645277,0.0,0.0
744,185.75,62.9724,71.8624,149.33,99.3492,92.8198,0.00396739,0.369492,20.6025,413.553,0.619518,0.0,0.0
752,187.75,63.1447,71.9075,150.829,99.3211,93.3393,0.00390331,0.364411,20.6071,413.373,0.56608,0.0,0.0
760,189.75,63.2556,71.534,145.082,99.3006,93.6312,0.00386813,0.358324,20.6116,413.113,0.53575,0.0,0.0
768,191.75,62.7769,70.762,150.321,99.2746,93.8299,0.00380996,0.351964,20.6178,412.913,0.514043,0.0,0.0
776,193.75,63.3913,71.0062,149.291,99.2695,93.6028,0.00372869,0.346989,20.6229,412.683,0.535661,0.0,0.0
784,195.75,63.2544,70.8835,152.326,99.2542,94.3112,0.00359738,0.338989,20.6301,412.472,0.46554,0.0,0.0
792,197.75,63.3102,70.2281,146.392,99.2376,93.7736,0.00359279,0.330961,20.6368,412.262,0.516117,0.0,0.0
800,199.75,63.0048,70.045,152.394,99.2163,93.9612,0.00367312,0.324358,20.6471,412.072,0.495943,0.0,0.0
808,201.75,62.9807,69.5201,146.47,99.2108,94.3223,0.00354846,0.318371,20.6556,411.842,0.460481,0.0,0.0
816,203.75,62.6522,69.3724,147.123,99.1976,94.4141,0.00322773,0.311156,20.6631,411.652,0.450401,0.0,0.0
824,205.75,63.0107,68.9524,148.255,99.1806,94.0828,0.00292704,0.305124,20.6723,411.462,0.480877,0.0,0.0
832,207.75,63.2321,68.8936,147.626,99.1699,94.038,0.00274776,0.300068,20.6792,411.281,0.48424,0.0,0.0
840,209.75,62.7548,68.9015,149.186,99.1627,93.9479,0.00261474,0.293844,20.6845,411.061,0.492307,0.0,0.0
848,211.75,62.8572,68.683,150.425,99.1623,93.8525,0.00250025,0.288147,20.6909,410.861,0.501524,0.0,0.0
856,213.75,62.5207,67.8087,147.889,99.1652,94.1644,0.00239642,0.28273,20.6974,410.701,0.471566,0.0,0.0
864,215.75,62.4791,67.5368,154.689,99.1606,94.2686,0.00234605,0.277421,20.7025,410.501,0.461053,0.0,0.0
872,217.75,62.0749,67.1833,148.889,99.1648,94.4257,0.00243709,0.273871,20.7079,410.28,0.446275,0.0,0.0
880,219.75,62.006,66.9869,149.816,99.181,94.1959,0.00253567,0.27091,20.7128,410.12,0.469965,0.0,0.0
888,221.75,62.1007,66.9843,155.381,99.178,94.1666,0.00258351,0.267615,20.7175,409.92,0.472525,0.0,0.0
896,223.75,62.0185,66.9917,152.243,99.1997,94.3312,0.0025303,0.262705,20.721,409.74,0.458606,0.0,0.0
904,225.75,61.9784,66.702,153.457,99.2167,94.6062,0.00244658,0.258066,20.7266,409.6,0.433638,0.0,0.0
912,227.75,61.6887,65.9668,148.658,99.2257,94.5876,0.0023719,0.254531,20.7312,409.45,0.436254,0.0,0.0
920,229.75,61.8173,65.9921,150.206,99.2495,95.0423,0.00225984,0.250994,20.7352,409.31,0.39474,0.0,0.0
928,231.75,61.259,65.7071,150.02,99.2947,94.3724,0.00208553,0.246566,20.739,409.18,0.463339,0.0,0.0
936,233.75,61.1841,65.2107,152.261,99.3096,94.2447,0.00202154,0.241408,20.7439,409.019,0.477052,0.0,0.0
944,235.75,61.0623,65.3816,152.464,99.3492,94.8702,0.00207807,0.236882,20.749,408.879,0.420402,0.0,0.0
952,237.75,60.689,64.7143,152.825,99.3802,94.4292,0.00211997,0.232808,20.7538,408.749,0.465708,0.0,0.0
960,239.75,60.802,64.9181,149.648,99.4096,94.6821,0.00208122,0.229561,20.7591,408.569,0.444031,0.0,0.0
968,241.75,60.7005,64.738,149.71,99.4394,94.5636,0.00199012,0.226304,20.7637,408.439,0.458171,0.0,0.0
976,243.75,60.7325,64.5788,149.908,99.4705,95.2787,0.00193856,0.222273,20.7664,408.329,0.392362,0.0,0.0
984,245.75,60.524,64.1027,148.195,99.5152,94.7429,0.00194293,0.218658,20.771,408.159,0.447857,0.0,0.0
992,247.75,59.9358,63.5476,151.914,99.5437,94.647,0.00193329,0.216106,20.7768,408.059,0.45969,0.0,0.0
1000,249.75,59.8841,64.0379,154.627,99.5646,94.6679,0.00187043,0.213873,20.7803,407.908,0.459592,0.0,0.0
1008,251.75,59.8481,63.5231,151.586,99.5816,94.7131,0.00181967,0.211779,20.783,407.728,0.456796,0.0,0.0
1016,253.75,60.0084,63.0646,150.427,99.5905,94.6936,0.00185218,0.209747,20.7855,407.598,0.459492,0.0,0.0
1024,255.75,59.5732,63.0984,155.878,99.6071,94.9119,0.00191388,0.207447,20.7874,407.488,0.440031,0.0,0.0
1032,257.75,59.4654,63.3149,155.211,99.6148,95.21,0.00193505,0.205127,20.7905,407.358,0.412154,0.0,0.0
1040,259.75,59.2574,62.546,151.961,99.6182,95.367,0.00191015,0.203594,20.7929,407.228,0.397447,0.0,0.0
1048,261.75,59.3023,62.6207,155.556,99.622,94.671,0.00184951,0.201965,20.7951,407.088,0.464552,0.0,0.0
1056,263.75,58.7076,62.2191,151.476,99.6267,94.9252,0.00183959,0.198459,20.7965,406.947,0.440545,0.0,0.0
1064,265.75,58.7705,61.8499,156.42,99.6182,95.127,0.00195218,0.195833,20.799,406.767,0.420409,0.0,0.0
1072,267.75,58.7099,61.7311,154.611,99.6144,95.1124,0.0021037,0.193738,20.8038,406.647,0.421462,0.0,0.0
1080,269.75,58.545,61.6609,149.903,99.6382,95.3577,0.00219744,0.191528,20.8064,406.547,0.400168,0.0,0.0
1088,271.75,58.4603,61.7138,151.441,99.645,94.7664,0.00216832,0.189282,20.8096,406.407,0.45748,0.0,0.0
1096,273.75,58.218,61.1971,151.488,99.6535,94.9416,0.00212983,0.187388,20.8129,406.297,0.441423,0.0,0.0
1104,275.75,58.2026,61.0308,154.566,99.6544,95.1323,0.00221787,0.185552,20.8157,406.207,0.423209,0.0,0.0
1112,277.75,57.971,60.906,154.8,99.6689,95.3337,0.00233962,0.183172,20.8181,406.097,0.405261,0.0,0.0
1120,279.75,57.5048,60.929,153.17,99.6727,95.2694,0.00239311,0.180711,20.8214,405.977,0.411762,0.0,0.0
1128,281.75,57.53,60.788,155.521,99.6936,95.4265,0.00230927,0.178927,20.8243,405.877,0.398659,0.0,0.0
1136,283.75,57.5798,60.6507,152.155,99.7076,95.4797,0.00217523,0.177678,20.8259,405.766,0.394862,0.0,0.0
1144,285.75,57.0401,60.1303,154.035,99.7374,95.4406,0.00214462,0.176416,20.8266,405.646,0.401311,0.0,0.0
1152,287.75,57.4891,60.0662,159.584,99.7557,95.678,0.00215483,0.174602,20.8276,405.526,0.38035,0.0,0.0
1160,289.75,56.7438,59.522,156.878,99.7617,95.3155,0.00213109,0.173561,20.8294,405.386,0.415481,0.0,0.0
1168,291.75,57.1555,59.7454,155.231,99.806,95.6744,0.00216011,0.172836,20.8318,405.306,0.385277,0.0,0.0
1176,293.75,56.9386,59.6234,156.184,99.8319,95.7995,0.00231276,0.171539,20.8331,405.196,0.37574,0.0,0.0
1184,295.75,56.5562,59.1236,152.178,99.8609,95.0658,0.00246241,0.170411,20.8336,405.056,0.448448,0.0,0.0
1192,297.75,56.1269,58.8362,156.428,99.883,95.3466,0.00255479,0.168716,20.8345,404.966,0.42359,0.0,0.0
1200,299.75,56.6502,59.1769,157.136,99.9017,95.1598,0.00256343,0.167333,20.8368,404.866,0.443166,0.0,0.0
1208,301.75,56.2135,58.9061,155.9,99.9247,95.4783,0.00249986,0.166082,20.8393,404.746,0.414812,0.0,0.0
1216,303.75,56.5022,58.5855,154.056,99.9613,95.536,0.00243369,0.164759,20.8403,404.645,0.412647,0.0,0.0
1224,305.75,56.244,58.0728,154.856,100.015,95.5307,0.00242897,0.163657,20.8416,404.475,0.418005,0.0,0.0
1232,307.75,56.2156,58.436,150.351,100.025,95.1922,0.00237031,0.163014,20.8421,404.385,0.451321,0.0,0.0
1240,309.75,56.0837,58.5232,156.269,100.073,95.788,0.00226312,0.162171,20.8428,404.255,0.398846,0.0,0.0
1248,311.75,55.7593,58.1501,154.726,100.108,95.7942,0.00225387,0.161402,20.8443,404.155,0.401394,0.0,0.0
1256,313.75,55.89,58.084,153.423,100.137,95.6527,0.00234613,0.161026,20.8452,404.065,0.417502,0.0,0.0
1264,315.75,55.7818,57.5258,150.912,100.177,95.8851,0.0023911,0.160414,20.8469,403.995,0.399024,0.0,0.0
1272,317.75,55.5355,58.0469,155.395,100.207,95.2437,0.00257889,0.159941,20.8479,403.895,0.462944,0.0,0.0
1280,319.75,55.8534,57.8494,157.533,100.253,95.6962,0.00274316,0.159342,20.8483,403.795,0.423971,0.0,0.0
1288,321.75,55.2737,57.3939,154.362,100.285,95.9526,0.00278718,0.158518,20.8498,403.695,0.402488,0.0,0.0
1296,323.75,55.5165,57.6618,151.184,100.326,96.1154,0.00276756,0.157584,20.8505,403.594,0.390713,0.0,0.0
1304,325.75,55.3531,57.4206,154.271,100.353,95.8093,0.00269295,0.156793,20.8508,403.484,0.422256,0.0,0.0
1312,327.75,55.3429,57.3699,153.444,100.375,95.5187,0.00256702,0.156023,20.8522,403.424,0.451907,0.0,0.0
1320,329.75,54.9921,57.254,156.009,100.405,96.1056,0.00241023,0.155162,20.8537,403.324,0.39879,0.0,0.0
1328,331.75,54.4998,57.521,153.94,100.415,95.7365,0.00232874,0.154434,20.8548,403.184,0.434822,0.0,0.0
1336,333.75,54.4376,57.2474,153.547,100.429,95.4415,0.00241363,0.15435,20.8554,403.104,0.464221,0.0,0.0
1344,335.75,55.0049,57.39,154.551,100.44,96.0546,0.00247351,0.154267,20.8557,402.984,0.406874,0.0,0.0
1352,337.75,54.9072,57.1708,157.331,100.431,95.7578,0.00250969,0.153382,20.8558,402.894,0.434262,0.0,0.0
1360,339.75,54.2272,56.8379,155.236,100.439,95.7339,0.00257508,0.152713,20.8558,402.784,0.437199,0.0,0.0
1368,341.75,54.5434,56.8303,156.774,100.433,96.1047,0.00255501,0.152599,20.8559,402.684,0.401462,0.0,0.0
1376,343.75,54.8012,57.2077,154.877,100.42,95.4806,0.00244009,0.152437,20.8572,402.604,0.459683,0.0,0.0
1384,345.75,54.5483,56.6069,157.69,100.413,95.4766,0.00240023,0.152002,20.8578,402.453,0.459407,0.0,0.0
1392,347.75,54.4823,56.3714,154.128,100.399,95.7614,0.00241942,0.151104,20.858,402.363,0.431027,0.0,0.0
1400,349.75,54.0007,56.6209,155.772,100.391,95.6514,0.00237205,0.150443,20.8581,402.283,0.44073,0.0,0.0
1408,351.75,54.5498,56.7077,157.563,100.399,96.1571,0.00238406,0.149999,20.8582,402.153,0.393371,0.0,0.0
1416,353.75,54.3893,56.6586,153.818,100.406,95.7938,0.00253178,0.149899,20.8594,402.013,0.428526,0.0,0.0
1424,355.75,54.2128,56.4975,154.926,100.413,95.7419,0.00264178,0.149134,20.8606,401.873,0.434083,0.0,0.0
1432,357.75,54.0226,56.171,150.258,100.413,95.7543,0.0026054,0.148574,20.8613,401.823,0.432901,0.0,0.0
1440,359.75,54.199,56.1291,154.346,100.398,96.0608,0.00255203,0.148561,20.8615,401.763,0.402421,0.0,0.0
1448,361.75,53.9336,56.4609,158.303,100.394,95.7148,0.0026364,0.147976,20.8616,401.633,0.434958,0.0,0.0
1456,363.75,54.4564,56.2553,157.573,100.376,95.8905,0.00278949,0.147259,20.8617,401.603,0.416663,0.0,0.0
1464,365.75,54.2096,56.5049,154.939,100.374,95.8616,0.00295353,0.147058,20.8619,401.533,0.419172,0.0,0.0
1472,367.75,54.2205,56.5053,154.682,100.362,95.6611,0.00309891,0.146994,20.8623,401.443,0.437133,0.0,0.0
1480,369.75,54.2487,55.7849,155.304,100.346,96.1003,0.00313046,0.146434,20.8638,401.342,0.393999,0.0,0.0
1488,371.75,53.7207,56.3507,157.452,100.335,95.8128,0.00310042,0.145406,20.8644,401.262,0.420294,0.0,0.0
1496,373.75,53.766,55.8292,155.077,100.317,95.6678,0.00309479,0.14467,20.866,401.142,0.432439,0.0,0.0
1504,375.75,53.8378,55.9475,152.64,100.296,95.9614,0.00309936,0.1445,20.8667,401.062,0.402651,0.0,0.0
1512,377.75,53.7288,55.7034,157.508,100.282,95.8705,0.00308449,0.144227,20.867,400.982,0.410016,0.0,0.0
1520,379.75,53.4066,55.863,157.924,100.261,96.0617,0.00300979,0.143979,20.8672,400.872,0.389885,0.0,0.0
1528,381.75,53.406,55.7091,156.435,100.233,95.6097,0.00295181,0.143454,20.8672,400.762,0.430394,0.0,0.0
1536,383.75,53.7988,55.5236,157.574,100.204,96.437,0.00295643,0.143304,20.8673,400.672,0.349203,0.0,0.0
1544,385.75,53.62,55.5842,150.186,100.184,95.9073,0.00303997,0.142881,20.8679,400.612,0.397613,0.0,0.0
1552,387.75,53.5098,55.2562,157.849,100.17,95.6545,0.00314264,0.141879,20.8693,400.462,0.420354,0.0,0.0
1560,389.75,53.6497,55.271,157.531,100.237,95.8199,0.00314451,0.140775,20.87,400.201,0.410682,0.0,0.0
1568,391.75,53.3281,55.2057,158.848,100.308,96.425,0.00313537,0.14046,20.8711,400.231,0.359816,0.0,0.0
1576,393.75,52.7007,55.2806,156.27,100.319,96.2254,0.00319141,0.140439,20.8721,400.151,0.379631,0.0,0.0
1584,395.75,53.1876,54.9992,159.38,100.326,95.5848,0.00331323,0.140013,20.8725,400.061,0.441157,0.0,0.0
1592,397.75,53.0306,55.3195,156.77,100.319,95.8022,0.00350302,0.139144,20.8726,400.011,0.419799,0.0,0.0
1600,399.75,52.9623,54.9414,156.789,100.297,95.7742,0.00374256,0.138587,20.8736,399.931,0.420524,0.0,0.0
1608,401.75,52.9319,55.3143,158.244,100.304,95.9823,0.0039291,0.138268,20.874,399.881,0.401367,0.0,0.0
1616,403.75,52.8984,55.2643,154.878,100.292,96.0786,0.00393607,0.13832,20.874,399.821,0.39111,0.0,0.0
1624,405.75,53.1513,55.2415,153.268,100.288,95.8829,0.00377972,0.138611,20.874,399.671,0.409337,0.0,0.0
1632,407.75,52.9743,55.1866,157.671,100.29,96.063,0.00362434,0.138513,20.874,399.601,0.392429,0.0,0.0
1640,409.75,52.5536,54.8435,156.133,100.277,95.9335,0.00353735,0.137589,20.874,399.491,0.403525,0.0,0.0
1648,411.75,52.7074,54.5288,157.189,100.285,96.2232,0.00356628,0.13692,20.874,399.401,0.376823,0.0,0.0
1656,413.75,52.6681,54.7547,157.829,100.288,96.3687,0.0036474,0.137003,20.874,399.311,0.363324,0.0,0.0
1664,415.75,52.7928,54.6459,157.37,100.286,95.7432,0.00363153,0.136998,20.874,399.22,0.422435,0.0,0.0
1672,417.75,52.3763,54.8262,160.956,100.291,95.9703,0.00358225,0.136341,20.874,399.15,0.401343,0.0,0.0
1680,419.75,52.8032,54.2512,159.132,100.268,95.7685,0.00362892,0.135593,20.874,399.05,0.418404,0.0,0.0
1688,421.75,52.6195,54.8161,157.71,100.257,95.9042,0.00372631,0.135236,20.8752,398.98,0.404489,0.0,0.0
1696,423.75,52.373,54.9297,154.114,100.264,95.8439,0.00373208,0.135065,20.8758,398.86,0.41092,0.0,0.0
1704,425.75,52.0714,54.3278,164.798,100.266,96.028,0.00367252,0.13525,20.8763,398.78,0.393548,0.0,0.0
1712,427.75,52.4404,54.2187,161.334,100.262,95.6052,0.0035499,0.135364,20.8772,398.71,0.433409,0.0,0.0
1720,429.75,52.6855,54.2902,159.106,100.253,95.6012,0.00343548,0.135284,20.8772,398.6,0.433015,0.0,0.0
1728,431.75,52.5834,54.7664,153.68,100.247,95.6057,0.00336274,0.134681,20.8772,398.46,0.432012,0.0,0.0
1736,433.75,52.1268,54.8301,154.399,100.225,95.9224,0.00333173,0.133806,20.8772,398.36,0.399858,0.0,0.0
1744,435.75,52.1572,54.0775,153.055,100.215,95.9255,0.00335414,0.133488,20.8778,398.29,0.398672,0.0,0.0
1752,437.75,52.5222,54.6496,158.323,100.211,95.5795,0.00344108,0.133709,20.8788,398.17,0.431217,0.0,0.0
1760,439.75,52.5305,54.4593,156.474,100.19,95.8137,0.00359019,0.133749,20.8797,398.099,0.407015,0.0,0.0
1768,441.75,52.4005,54.4063,150.542,100.173,95.9912,0.00379261,0.133359,20.8801,398.009,0.388566,0.0,0.0
1776,443.75,51.8516,53.8735,159.066,100.17,95.2561,0.0039256,0.132672,20.8802,397.949,0.458425,0.0,0.0
1784,445.75,51.9521,53.7147,153.149,100.16,95.6917,0.00388961,0.13251,20.8803,397.829,0.415876,0.0,0.0
1792,447.75,52.0869,53.6083,156.752,100.13,95.7095,0.00378987,0.132675,20.8803,397.739,0.411435,0.0,0.0
1800,449.75,51.8898,53.6239,152.582,100.117,95.9419,0.00363289,0.131901,20.8802,397.679,0.388166,0.0,0.0
1808,451.75,52.4055,53.723,154.861,100.104,95.9255,0.00355886,0.131494,20.8801,397.609,0.388563,0.0,0.0
1816,453.75,51.892,53.3714,154.588,100.084,95.9335,0.00365715,0.131176,20.88,397.489,0.386021,0.0,0.0
1824,455.75,51.4564,53.8285,158.872,100.067,96.1021,0.00382526,0.130875,20.8805,397.409,0.368393,0.0,0.0
1832,457.75,52.0323,53.739,156.446,100.055,95.729,0.00407083,0.130913,20.8807,397.349,0.402794,0.0,0.0
1840,459.75,51.9759,53.5396,159.364,100.039,95.7432,0.00436638,0.131709,20.8805,397.279,0.399968,0.0,0.0
1848,461.75,51.803,53.8415,154.769,100.027,95.5737,0.00447266,0.131801,20.8802,397.169,0.415065,0.0,0.0
1856,463.75,51.8717,53.8318,154.035,100.021,96.0133,0.00448959,0.130872,20.8801,397.069,0.372623,0.0,0.0
1864,465.75,52.0504,53.8565,155.651,99.972,95.7343,0.00448994,0.130248,20.88,397.029,0.394722,0.0,0.0
1872,467.75,51.6904,53.7367,156.695,99.9626,95.9295,0.00437772,0.130296,20.8811,396.948,0.375307,0.0,0.0
1880,469.75,51.8221,53.6271,155.707,99.943,95.3839,0.00422895,0.130766,20.8818,396.778,0.425504,0.0,0.0
1888,471.75,51.7507,53.8105,157.397,99.9192,95.6385,0.00411249,0.131273,20.8811,396.688,0.399034,0.0,0.0
1896,473.75,51.5184,53.6644,156.54,99.9137,95.8865,0.0039018,0.131069,20.8818,396.578,0.37493,0.0,0.0
1904,475.75,51.2684,53.457,157.937,99.9039,95.6939,0.00372754,0.130364,20.8821,396.458,0.392354,0.0,0.0
1912,477.75,51.8414,53.6072,150.474,99.8894,95.3697,0.00377894,0.129738,20.8831,396.408,0.421968,0.0,0.0
1920,479.75,51.6804,53.4781,155.646,99.883,95.2486,0.00410705,0.12955,20.884,396.328,0.432965,0.0,0.0
1928,481.75,52.013,54.0119,160.16,99.8809,95.8377,0.00437561,0.129793,20.8844,396.288,0.37658,0.0,0.0
1936,483.75,51.5537,53.6771,159.603,99.863,95.4562,0.00444039,0.129517,20.8836,396.218,0.411297,0.0,0.0
1944,485.75,51.6736,53.1804,158.213,99.86,95.5622,0.00433068,0.12878,20.8837,396.118,0.400909,0.0,0.0
1952,487.75,51.5414,53.573,158.774,99.8536,95.5618,0.00421775,0.128434,20.8843,396.048,0.400368,0.0,0.0
1960,489.75,51.6913,53.7752,157.393,99.8634,95.7623,0.00426687,0.128658,20.8845,395.948,0.382161,0.0,0.0
1968,491.75,51.5094,53.749,156.172,99.8524,95.3466,0.00436688,0.128805,20.8846,395.837,0.420793,0.0,0.0
1976,493.75,51.6439,53.7294,158.869,99.8404,95.8789,0.00441485,0.128926,20.8847,395.777,0.368967,0.0,0.0
1984,495.75,51.527,53.5706,158.067,99.8507,95.7232,0.00442752,0.128721,20.885,395.697,0.384711,0.0,0.0
1992,497.75,51.5106,53.4563,156.404,99.843,95.5236,0.00448216,0.128516,20.8841,395.587,0.403036,0.0,0.0
2000,499.75,51.5331,53.2421,157.39,99.8426,95.1372,0.00456977,0.128518,20.8839,395.527,0.439934,0.0,0.0
2008,501.75,51.7496,53.4056,155.705,99.8379,95.7809,0.00463911,0.127806,20.8848,395.447,0.378057,0.0,0.0
2016,503.75,51.687,53.1848,155.594,99.8396,95.9366,0.00471602,0.126958,20.8851,395.347,0.363409,0.0,0.0
2024,505.75,51.7181,53.463,156.091,99.8251,95.2122,0.00482067,0.126448,20.8864,395.267,0.431162,0.0,0.0
2032,507.75,51.7275,52.9388,156.568,99.8485,95.5369,0.00486064,0.126826,20.8871,395.177,0.402272,0.0,0.0
2040,509.75,51.2407,53.0391,158.247,99.8553,95.3954,0.00483265,0.127472,20.8875,395.027,0.416403,0.0,0.0
2048,511.75,51.7072,53.4809,155.269,99.8617,95.7112,0.00487191,0.126583,20.8863,394.917,0.386862,0.0,0.0
2056,513.75,51.6214,53.1118,156.776,99.8754,95.4695,0.00499174,0.125519,20.8869,394.847,0.411153,0.0,0.0
2064,515.75,51.5086,53.4589,153.923,99.9056,96.0058,0.00519891,0.124393,20.8874,394.766,0.362859,0.0,0.0
2072,517.75,51.746,53.298,161.326,99.9294,95.5644,0.00541227,0.123051,20.8873,394.696,0.407028,0.0,0.0
2080,519.75,51.435,53.0689,154.092,99.9984,96.0138,0.00550172,0.122106,20.8879,394.616,0.370563,0.0,0.0
2088,521.75,51.4192,52.9838,153.27,100.064,95.572,0.00546069,0.122998,20.8884,394.556,0.418608,0.0,0.0
2096,523.75,51.4264,53.1055,158.8,100.102,95.9446,0.00535806,0.124001,20.8886,394.506,0.386556,0.0,0.0
2104,525.75,51.1014,53.5211,159.164,100.142,96.008,0.00521223,0.12442,20.8887,394.396,0.384175,0.0,0.0
2112,527.75,50.9694,52.9705,163.971,100.18,96.1921,0.0051386,0.124122,20.8887,394.306,0.370165,0.0,0.0
2120,529.75,51.2459,53.0218,163.59,100.225,95.9135,0.00516365,0.123418,20.8887,394.226,0.400701,0.0,0.0
2128,531.75,51.5462,52.9689,159.894,100.26,95.583,0.00520122,0.122756,20.8887,394.146,0.435368,0.0,0.0
2136,533.75,51.0621,52.6981,157.063,100.302,95.9832,0.00533938,0.121244,20.89,394.056,0.401128,0.0,0.0
2144,535.75,51.2567,52.5395,156.647,100.329,96.1047,0.00561434,0.120328,20.8906,393.956,0.391993,0.0,0.0
2152,537.75,50.9286,53.0487,161.24,100.383,95.8701,0.00587126,0.120351,20.8909,393.896,0.419222,0.0,0.0
2160,539.75,51.0944,52.4513,154.836,100.409,96.4822,0.00600192,0.120064,20.8919,393.786,0.363572,0.0,0.0
2168,541.75,51.1522,52.5603,158.17,100.439,95.9362,0.00595336,0.121158,20.8924,393.716,0.418003,0.0,0.0
2176,543.75,50.5562,52.7781,154.366,100.475,95.9943,0.00567791,0.122049,20.8932,393.635,0.415728,0.0,0.0
2184,545.75,50.518,52.5244,153.765,100.527,96.5026,0.00533898,0.121311,20.8935,393.515,0.37234,0.0,0.0
2192,547.75,50.6379,52.5461,156.781,100.538,96.1154,0.00518768,0.120738,20.8937,393.425,0.40999,0.0,0.0
2200,549.75,50.7739,52.5687,153.922,100.579,96.213,0.00522804,0.120173,20.8937,393.325,0.404407,0.0,0.0
2208,551.75,50.9284,52.1769,156.198,100.603,96.1557,0.00548246,0.118904,20.8937,393.215,0.411989,0.0,0.0
2216,553.75,50.636,52.0433,156.868,100.623,96.4428,0.00586329,0.118069,20.8951,393.125,0.386716,0.0,0.0
2224,555.75,50.4742,52.1442,158.483,100.642,96.4818,0.00610744,0.117319,20.8968,393.055,0.384686,0.0,0.0
2232,557.75,50.9103,52.3006,157.186,100.644,96.4751,0.00622934,0.116135,20.8977,392.955,0.385507,0.0,0.0
2240,559.75,50.3327,52.3771,158.027,100.667,96.5545,0.00636084,0.114877,20.8991,392.885,0.380092,0.0,0.0
2248,561.75,50.6652,52.2656,155.261,100.681,95.8838,0.0064886,0.114259,20.9001,392.825,0.444929,0.0,0.0
2256,563.75,50.5829,52.0762,156.257,100.679,96.1557,0.00662708,0.114217,20.9016,392.795,0.418928,0.0,0.0
2264,565.75,50.0446,51.7138,158.08,100.697,96.2658,0.0066957,0.114164,20.9023,392.695,0.410125,0.0,0.0
2272,567.75,49.9834,52.2217,155.16,100.7,95.5742,0.00671444,0.112982,20.9022,392.635,0.476139,0.0,0.0
2280,569.75,50.6272,51.9847,154.999,100.706,96.1482,0.0068765,0.111236,20.9028,392.534,0.42207,0.0,0.0
2288,571.75,50.2032,51.1852,155.201,100.7,96.63,0.00696931,0.110818,20.9049,392.444,0.376021,0.0,0.0
2296,573.75,50.1325,51.4394,157.855,100.701,96.4964,0.00688094,0.110761,20.906,392.384,0.38866,0.0,0.0
2304,575.75,50.369,51.582,154.044,100.71,96.2183,0.0067182,0.1106,20.9065,392.274,0.415814,0.0,0.0
2312,577.75,49.9503,51.357,159.114,100.721,96.1038,0.00668297,0.110409,20.9067,392.184,0.427623,0.0,0.0
2320,579.75,50.1836,50.9225,164.211,100.71,96.5106,0.00685083,0.110407,20.9068,392.104,0.388129,0.0,0.0
2328,581.75,49.9037,51.4343,158.417,100.69,96.4135,0.00697122,0.110584,20.9068,392.014,0.395535,0.0,0.0
2336,583.75,50.0429,51.4344,159.573,100.677,96.5266,0.00693764,0.110759,20.9069,391.964,0.383693,0.0,0.0
2344,585.75,49.8494,51.8977,157.966,100.665,95.9495,0.00686292,0.110505,20.9069,391.884,0.437188,0.0,0.0
2352,587.75,50.2911,51.3712,160.85,100.648,96.0728,0.00687408,0.109685,20.9064,391.804,0.423941,0.0,0.0
2360,589.75,49.6212,51.11,156.811,100.63,95.6208,0.00702324,0.109272,20.9061,391.684,0.465302,0.0,0.0
2368,591.75,49.7515,51.3154,157.931,100.608,95.6451,0.0072514,0.109126,20.9071,391.564,0.46101,0.0,0.0
2376,593.75,49.4634,51.0973,157.587,100.589,96.1735,0.00741881,0.107874,20.9077,391.484,0.409111,0.0,0.0
2384,595.75,49.5512,51.049,156.974,100.582,96.5581,0.0074555,0.105368,20.9083,391.413,0.372122,0.0,0.0
2392,597.75,49.6201,51.4137,158.877,100.543,96.0817,0.00754224,0.103587,20.9119,391.333,0.41365,0.0,0.0
2400,599.75,49.9202,51.1985,158.035,100.516,95.7995,0.00763673,0.104453,20.9143,391.223,0.43798,0.0,0.0
2408,601.75,49.3887,50.7675,157.439,100.495,95.7769,0.00748516,0.105282,20.9144,391.183,0.438202,0.0,0.0
2416,603.75,49.5113,50.8642,156.932,100.451,96.1739,0.00728534,0.105439,20.9129,391.143,0.396525,0.0,0.0
2424,605.75,49.5661,50.7527,160.968,100.439,96.1362,0.00713216,0.105995,20.9118,391.073,0.398979,0.0,0.0
2432,607.75,49.6025,50.8072,163.881,100.402,95.2273,0.00715833,0.106115,20.9111,391.003,0.482191,0.0,0.0
2440,609.75,48.8476,50.4281,156.768,100.368,95.8452,0.00729179,0.105706,20.9108,390.933,0.420192,0.0,0.0
2448,611.75,49.5401,50.3777,162.984,100.338,96.1677,0.00743694,0.10549,20.9113,390.833,0.386873,0.0,0.0
2456,613.75,48.8716,50.3673,156.968,100.3,95.8168,0.00759928,0.104133,20.9119,390.763,0.416743,0.0,0.0
2464,615.75,49.027,50.1809,156.641,100.268,95.8723,0.00776329,0.102057,20.9134,390.653,0.40853,0.0,0.0
2472,617.75,49.3167,50.2029,157.552,100.247,95.8124,0.00798059,0.101097,20.9154,390.603,0.412368,0.0,0.0
2480,619.75,48.9452,50.5694,158.901,100.262,95.7414,0.00826695,0.100492,20.9163,390.513,0.420475,0.0,0.0
2488,621.75,49.1834,50.4551,160.575,100.266,95.9783,0.00846424,0.100848,20.9173,390.453,0.398303,0.0,0.0
2496,623.75,48.9816,50.1901,159.122,100.282,96.1695,0.00846,0.101504,20.9171,390.342,0.381638,0.0,0.0
2504,625.75,48.7949,50.2726,163.01,100.303,95.7339,0.00834279,0.101953,20.917,390.242,0.424869,0.0,0.0
2512,627.75,48.3728,50.1958,156.507,100.308,95.686,0.00820754,0.102187,20.917,390.172,0.429895,0.0,0.0
2520,629.75,48.6172,50.1526,161.233,100.33,95.7006,0.00808543,0.102386,20.917,390.072,0.43055,0.0,0.0
2528,631.75,48.4954,49.7665,156.72,100.339,95.7019,0.00809968,0.102391,20.917,389.982,0.431236,0.0,0.0
2536,633.75,49.0391,50.4607,161.975,100.351,95.3812,0.00823878,0.101351,20.917,389.862,0.462872,0.0,0.0
2544,635.75,48.7679,50.1822,160.173,100.372,95.0547,0.00835756,0.100692,20.9174,389.752,0.496015,0.0,0.0
2552,637.75,48.4521,49.7474,158.044,100.39,95.3679,0.00833613,0.101124,20.9175,389.692,0.4677,0.0,0.0
2560,639.75,48.4588,49.7798,161.238,100.413,94.7925,0.00814854,0.100474,20.9176,389.622,0.524895,0.0,0.0
2568,641.75,48.6003,49.6807,160.012,100.448,95.0915,0.00799715,0.098762,20.9178,389.572,0.499402,0.0,0.0
2576,643.75,48.0207,48.8474,162.015,100.463,95.2437,0.0080257,0.0958531,20.9193,389.482,0.486183,0.0,0.0
2584,645.75,48.0887,49.1741,157.806,100.479,95.5555,0.00820339,0.0935449,20.9223,389.462,0.45786,0.0,0.0
2592,647.75,48.251,49.0821,155.965,100.499,95.7401,0.00851013,0.0919788,20.9254,389.392,0.44213,0.0,0.0
2600,649.75,48.153,49.3018,156.858,100.519,95.2787,0.00873376,0.0912027,20.9277,389.292,0.487965,0.0,0.0
2608,651.75,48.2001,48.9207,153.574,100.547,95.4739,0.00883209,0.0908547,20.9286,389.221,0.471823,0.0,0.0
2616,653.75,47.9394,48.9129,162.505,100.55,95.7663,0.00886844,0.0908602,20.9291,389.151,0.444233,0.0,0.0
2624,655.75,47.9519,49.0919,161.077,100.563,95.5267,0.00898082,0.0909242,20.9305,389.091,0.468214,0.0,0.0
2632,657.75,47.8134,48.946,159.133,100.576,95.7148,0.00908423,0.0907717,20.9306,388.991,0.451445,0.0,0.0
2640,659.75,47.8701,48.7227,160.726,100.613,95.3053,0.00916385,0.0903599,20.9323,388.921,0.493869,0.0,0.0
2648,661.75,47.812,49.1095,159.489,100.613,95.8111,0.00921792,0.0901439,20.9322,388.841,0.44564,0.0,0.0
2656,663.75,47.0168,48.5454,158.736,100.62,95.0853,0.00927363,0.0902514,20.9321,388.741,0.515627,0.0,0.0
2664,665.75,47.5689,48.6412,157.688,100.645,95.7529,0.00940704,0.0905321,20.9321,388.671,0.454099,0.0,0.0
2672,667.75,47.3818,48.6087,163.845,100.679,95.3417,0.00952801,0.0904715,20.932,388.581,0.496366,0.0,0.0
2680,669.75,47.2954,48.7313,158.538,100.722,95.4233,0.00951383,0.0904094,20.932,388.541,0.492459,0.0,0.0
2688,671.75,47.6855,48.5503,159.721,100.752,95.2477,0.00948572,0.090509,20.9311,388.421,0.512024,0.0,0.0
2696,673.75,47.3611,48.7046,162.492,100.772,96.0342,0.00951884,0.0903088,20.9303,388.331,0.438813,0.0,0.0
2704,675.75,48.0342,48.708,163.455,100.788,95.8634,0.00958952,0.0906679,20.9299,388.241,0.456536,0.0,0.0
2712,677.75,47.4966,48.2495,157.497,100.823,95.5866,0.00950475,0.0908089,20.9298,388.151,0.486083,0.0,0.0
2720,679.75,47.7171,48.3047,154.029,100.857,95.6451,0.0094165,0.090682,20.9297,388.06,0.483504,0.0,0.0
2728,681.75,47.3649,48.6206,158.686,100.889,95.7188,0.0093231,0.090148,20.9299,387.98,0.479413,0.0,0.0
2736,683.75,47.8126,48.8544,159.756,100.909,95.815,0.00917439,0.0901237,20.9299,387.89,0.472021,0.0,0.0
2744,685.75,47.5703,48.4428,158.132,100.928,96.2538,0.00900837,0.090405,20.9289,387.83,0.432119,0.0,0.0
2752,687.75,47.3909,48.2741,158.561,100.96,95.8217,0.008885,0.0905261,20.9282,387.77,0.476001,0.0,0.0
2760,689.75,47.33,48.4585,155.429,100.981,95.4495,0.00881405,0.0907536,20.9279,387.72,0.513427,0.0,0.0
2768,691.75,47.5983,48.3981,159.675,101.009,96.1185,0.00879386,0.0906922,20.9277,387.65,0.452238,0.0,0.0
2776,693.75,47.3738,48.6008,161.081,101.025,96.5408,0.00881207,0.0904992,20.9277,387.57,0.413744,0.0,0.0
2784,695.75,46.8352,48.4852,161.664,101.039,95.9517,0.00889667,0.0902698,20.9277,387.51,0.470793,0.0,0.0
2792,697.75,47.3005,48.3957,159.566,101.056,95.8643,0.0090076,0.0901541,20.9268,387.45,0.480671,0.0,0.0
2800,699.75,46.8647,48.3738,166.872,101.071,96.2977,0.00898438,0.0902406,20.9266,387.34,0.440907,0.0,0.0
2808,701.75,47.2328,47.9511,162.822,101.081,95.9872,0.00887844,0.0903575,20.9261,387.3,0.471224,0.0,0.0
2816,703.75,47.2659,48.3445,163.312,101.101,96.3239,0.0088535,0.0901855,20.927,387.17,0.441155,0.0,0.0
2824,705.75,47.3106,48.0576,164.924,101.118,96.3549,0.00892926,0.0898825,20.93,387.13,0.439714,0.0,0.0
2832,707.75,47.5718,48.2232,160.076,101.111,95.9259,0.00888249,0.0897169,20.9313,387.05,0.479762,0.0,0.0
2840,709.75,46.8595,48.0779,157.038,101.119,96.0129,0.00884946,0.0901484,20.9319,386.969,0.472196,0.0,0.0
2848,711.75,47.3427,48.391,157.163,101.134,96.5288,0.00890815,0.0904816,20.9303,386.909,0.424702,0.0,0.0
2856,713.75,47.0431,48.2991,155.87,101.112,95.9384,0.00896675,0.0906671,20.9287,386.799,0.478659,0.0,0.0
2864,715.75,47.2864,48.3772,159.199,101.114,96.272,0.00902749,0.0909491,20.9281,386.759,0.447218,0.0,0.0
2872,717.75,47.1054,48.6581,162.772,101.125,96.3758,0.00906902,0.0908449,20.9265,386.659,0.438394,0.0,0.0
2880,719.75,47.1479,48.416,158.68,101.113,95.7379,0.00903761,0.0906786,20.9258,386.569,0.49784,0.0,0.0
2888,721.75,47.6414,48.5819,162.14,101.102,96.244,0.00892242,0.0906563,20.925,386.469,0.44875,0.0,0.0
2896,723.75,46.9827,47.9844,159.279,101.107,96.0852,0.00889621,0.09059,20.9228,386.369,0.4643,0.0,0.0
2904,725.75,47.0084,48.2343,157.325,101.117,96.2152,0.00895196,0.0904319,20.9215,386.259,0.452824,0.0,0.0
2912,727.75,47.177,48.3148,158.224,101.104,96.1704,0.00907867,0.0903798,20.9264,386.199,0.45588,0.0,0.0
2920,729.75,46.7672,48.116,156.73,101.104,96.3678,0.00915705,0.0901747,20.9289,386.149,0.437269,0.0,0.0
2928,731.75,46.961,48.2005,159.397,101.11,96.3314,0.00911091,0.0899498,20.9294,386.059,0.441246,0.0,0.0
2936,733.75,46.8001,48.376,160.827,101.103,96.3154,0.0090329,0.0901502,20.9282,386.019,0.442106,0.0,0.0
2944,735.75,47.1455,47.9577,157.929,101.114,96.4884,0.00897781,0.0901322,20.9268,385.969,0.426748,0.0,0.0
2952,737.75,46.2769,48.1398,157.566,101.129,96.2068,0.00895774,0.0897476,20.9242,385.898,0.454697,0.0,0.0
2960,739.75,46.9373,48.0012,160.172,101.147,96.6322,0.00891258,0.0896133,20.9226,385.828,0.416175,0.0,0.0
2968,741.75,47.1466,47.6543,156.756,101.133,96.3855,0.00891426,0.0898008,20.9204,385.768,0.438162,0.0,0.0
2976,743.75,46.8846,47.7969,157.222,101.143,96.0338,0.00892232,0.0900023,20.9183,385.688,0.472404,0.0,0.0
2984,745.75,46.841,48.0897,160.252,101.141,96.4019,0.00882029,0.0898508,20.9152,385.608,0.437339,0.0,0.0
2992,747.75,46.5762,47.8464,161.921,101.139,96.5745,0.00870478,0.0895937,20.9125,385.538,0.420887,0.0,0.0
3000,749.75,47.1902,48.0917,165.431,101.152,96.5501,0.0086384,0.0897253,20.9098,385.458,0.424303,0.0,0.0
3008,751.75,46.5672,47.9238,159.307,101.153,96.5355,0.00863674,0.0899344,20.9227,385.368,0.425761,0.0,0.0
3016,753.75,46.7568,47.7087,155.919,101.177,96.6672,0.00872079,0.0898642,20.9262,385.288,0.415556,0.0,0.0
3024,755.75,46.6035,47.9979,157.443,101.167,96.665,0.00881593,0.0900818,20.9255,385.218,0.414883,0.0,0.0
3032,757.75,46.5747,47.8585,158.027,101.156,96.3403,0.0088733,0.0901801,20.9242,385.138,0.444474,0.0,0.0
3040,759.75,46.1852,47.6908,157.39,101.159,96.8078,0.00888354,0.0897972,20.9209,385.058,0.400621,0.0,0.0
3048,761.75,46.8185,48.2944,157.903,101.166,96.3651,0.00891726,0.0898117,20.9181,384.978,0.443083,0.0,0.0
3056,763.75,46.392,47.7064,156.062,101.159,96.4037,0.0089267,0.0894456,20.9157,384.908,0.438744,0.0,0.0
3064,765.75,46.4177,47.4335,159.779,101.167,96.1766,0.00882996,0.0891045,20.9145,384.797,0.460969,0.0,0.0
3072,767.75,46.4616,48.1137,163.436,101.171,96.586,0.00877474,0.0894787,20.9127,384.697,0.422637,0.0,0.0
3080,769.75,46.1687,47.7304,159.704,101.155,96.5399,0.00887058,0.0899551,20.9111,384.607,0.425573,0.0,0.0
3088,771.75,46.6121,48.214,161.62,101.154,96.4547,0.00895038,0.0901368,20.9099,384.557,0.433539,0.0,0.0
3096,773.75,46.6634,47.929,155.032,101.15,96.3656,0.00893707,0.0902124,20.9149,384.487,0.441584,0.0,0.0
3104,775.75,46.6302,48.067,161.601,101.163,96.3567,0.00886234,0.0904555,20.9218,384.437,0.443574,0.0,0.0
3112,777.75,46.5828,48.1544,153.633,101.16,96.492,0.00876868,0.0904571,20.9236,384.347,0.430518,0.0,0.0
3120,779.75,46.7399,48.1099,155.49,101.152,96.4889,0.0087498,0.0903123,20.9241,384.287,0.430083,0.0,0.0
3128,781.75,46.7288,48.476,157.643,101.158,96.37,0.0087604,0.0902785,20.9244,384.207,0.441893,0.0,0.0
3136,783.75,46.7782,47.9497,156.972,101.163,96.457,0.00882121,0.0902658,20.9257,384.167,0.434135,0.0,0.0
3144,785.75,46.8983,47.9773,162.879,101.167,96.1522,0.00886494,0.0902179,20.9264,384.087,0.463319,0.0,0.0
3152,787.75,46.9886,48.0206,157.303,101.162,96.9782,0.00880714,0.089813,20.9264,384.017,0.384944,0.0,0.0
3160,789.75,46.5188,48.5116,156.359,101.17,96.6615,0.00874148,0.0895414,20.9254,383.927,0.415409,0.0,0.0
3168,791.75,46.5777,48.0025,159.244,101.167,96.3123,0.00874552,0.0896279,20.9249,383.887,0.448154,0.0,0.0
3176,793.75,46.8249,48.3386,158.863,101.159,96.7675,0.00888297,0.0897494,20.9247,383.827,0.404499,0.0,0.0
3184,795.75,46.4702,47.6254,160.063,101.168,96.4525,0.00898093,0.0896556,20.925,383.727,0.435014,0.0,0.0
3192,797.75,46.3823,47.5133,160.012,101.166,96.3904,0.00904877,0.0896017,20.9259,383.646,0.440654,0.0,0.0
3200,799.75,46.9143,47.9888,163.455,101.167,96.8895,0.00897944,0.0898977,20.9262,383.566,0.393708,0.0,0.0
3208,801.75,46.7661,47.8938,158.291,101.142,96.5758,0.00877971,0.0896765,20.9264,383.466,0.420992,0.0,0.0
3216,803.75,46.4643,47.9816,157.014,101.146,96.2116,0.00870404,0.0893504,20.9265,383.366,0.455808,0.0,0.0
3224,805.75,46.6085,47.9741,158.425,101.137,96.346,0.00879676,0.0895847,20.9263,383.336,0.44228,0.0,0.0
3232,807.75,46.5148,47.8988,159.246,101.128,96.3172,0.0089175,0.0899234,20.9259,383.256,0.444202,0.0,0.0
3240,809.75,46.7829,48.1892,158.157,101.118,96.48,0.00885332,0.0897631,20.9258,383.126,0.427851,0.0,0.0
3248,811.75,46.759,47.9427,157.31,101.111,96.7191,0.00881674,0.0894913,20.9257,383.036,0.40468,0.0,0.0
3256,813.75,46.2593,47.9254,160.022,101.11,95.8155,0.00883821,0.0898751,20.9257,382.986,0.490185,0.0,0.0
3264,815.75,46.7302,47.8594,159.97,101.098,95.9224,0.00887518,0.0901355,20.9257,382.906,0.478949,0.0,0.0
3272,817.75,46.5067,47.9179,159.502,101.091,96.5053,0.00888365,0.0901728,20.9257,382.906,0.423084,0.0,0.0
3280,819.75,46.7584,48.0648,158.774,101.071,96.767,0.00886292,0.089874,20.9251,382.836,0.396559,0.0,0.0
3288,821.75,46.1647,48.0762,160.579,101.062,96.7963,0.00886985,0.0893751,20.9242,382.756,0.393036,0.0,0.0
3296,823.75,46.996,47.5113,159.302,101.045,96.2281,0.00892004,0.0894603,20.9238,382.686,0.445119,0.0,0.0
3304,825.75,46.7417,48.0467,160.392,101.027,96.3341,0.00900044,0.0899062,20.9236,382.626,0.433471,0.0,0.0
3312,827.75,46.931,47.9495,160.249,101.013,96.8562,0.00906882,0.0896213,20.9236,382.545,0.382983,0.0,0.0
3320,829.75,46.3788,48.2294,156.262,101.005,95.7915,0.00901925,0.0894712,20.9222,382.455,0.482943,0.0,0.0
3328,831.75,46.4882,47.7994,160.787,101.002,96.885,0.00898428,0.0894883,20.9224,382.385,0.379233,0.0,0.0
3336,833.75,46.5115,47.697,160.058,101.003,96.5794,0.00893362,0.0895392,20.923,382.335,0.408143,0.0,0.0
3344,835.75,46.5119,47.8004,160.454,100.992,96.7888,0.0088317,0.0892483,20.9233,382.245,0.387446,0.0,0.0
3352,837.75,46.7624,47.7629,162.933,100.985,96.8766,0.00873966,0.0892034,20.9234,382.185,0.378489,0.0,0.0
3360,839.75,46.3255,48.1233,155.362,100.99,96.5967,0.00869032,0.0892977,20.9235,382.115,0.40532,0.0,0.0
3368,841.75,46.8379,47.9716,156.462,100.988,96.4139,0.00860011,0.0890371,20.9237,382.045,0.422387,0.0,0.0
3376,843.75,46.2964,47.7897,160.557,100.987,96.3469,0.00847926,0.0888068,20.9245,381.945,0.428605,0.0,0.0
3384,845.75,46.4313,47.7032,157.821,100.983,96.3904,0.0084293,0.0890814,20.9249,381.855,0.424148,0.0,0.0
3392,847.75,46.483,47.7897,160.599,100.983,96.3123,0.00847675,0.0896407,20.9251,381.755,0.431534,0.0,0.0
3400,849.75,46.3198,47.86,156.766,100.978,96.1651,0.0085776,0.0896028,20.9251,381.645,0.445096,0.0,0.0
3408,851.75,46.8978,47.4784,159.325,100.972,96.4414,0.00868423,0.0895358,20.9252,381.585,0.418405,0.0,0.0
3416,853.75,46.6022,48.0936,160.489,100.962,96.1003,0.0087576,0.0895108,20.9252,381.495,0.449737,0.0,0.0
3424,855.75,46.8125,47.7508,159.878,100.966,96.6521,0.00880357,0.0895777,20.9254,381.444,0.397939,0.0,0.0
3432,857.75,46.3183,47.9979,161.421,100.993,96.6504,0.00885598,0.0897081,20.9257,381.404,0.400526,0.0,0.0
3440,859.75,46.2637,48.0555,160.65,100.953,96.8708,0.00894753,0.0896797,20.9268,381.324,0.376149,0.0,0.0
3448,861.75,46.521,47.7081,160.291,100.933,96.1309,0.00899892,0.0896302,20.9272,381.264,0.44422,0.0,0.0
3456,863.75,46.6453,48.0488,158.35,100.906,96.5745,0.00904477,0.0895406,20.9274,381.184,0.399841,0.0,0.0
3464,865.75,46.7573,47.9031,162.516,100.894,96.3789,0.00910046,0.0896056,20.9275,381.124,0.417205,0.0,0.0
3472,867.75,46.6908,47.6033,155.973,100.866,96.5244,0.00912589,0.0894082,20.9275,381.094,0.400958,0.0,0.0
3480,869.75,46.8454,48.2244,161.807,100.846,96.6322,0.00915259,0.0892638,20.9276,381.004,0.389017,0.0,0.0
3488,871.75,46.2169,47.28,166.098,100.828,96.5097,0.00913042,0.0888798,20.9276,381.014,0.398916,0.0,0.0
3496,873.75,46.8311,47.8451,159.317,100.788,96.4587,0.00899223,0.0888023,20.9276,380.464,0.400118,0.0,0.0
3504,875.75,46.1198,47.2512,158.954,100.769,96.5816,0.00867619,0.0889346,20.9276,380.804,0.386821,0.0,0.0
3512,877.75,46.4852,47.7692,160.986,100.737,96.1526,0.0083518,0.0886889,20.9276,380.734,0.4245,0.0,0.0
3520,879.75,46.5371,47.8589,161.456,100.724,96.2511,0.0082383,0.0886485,20.9276,380.654,0.413939,0.0,0.0
3528,881.75,46.3435,47.8686,159.354,100.704,96.4201,0.0082544,0.0895078,20.9276,380.554,0.396177,0.0,0.0
3536,883.75,46.17,47.5483,156.44,100.686,96.272,0.00837054,0.0918435,20.9268,380.484,0.408536,0.0,0.0
3544,885.75,46.3269,46.8287,163.889,100.677,96.7244,0.00860559,0.0952598,20.9237,380.393,0.364956,0.0,0.0
3552,887.75,46.0278,47.724,158.964,100.643,95.9317,0.0087559,0.0983736,20.9219,380.333,0.436947,0.0,0.0
3560,889.75,45.493,47.5096,161.26,100.631,96.6983,0.00860676,0.10124,20.9193,380.243,0.363298,0.0,0.0
3568,891.75,46.0574,47.4506,161.983,100.587,96.0258,0.00841487,0.103913,20.9141,380.143,0.422926,0.0,0.0
3576,893.75,46.2461,47.6784,160.073,100.58,96.0417,0.00843152,0.107068,20.9107,380.063,0.420795,0.0,0.0
3584,895.75,46.355,47.5372,161.943,100.574,96.6712,0.00861791,0.109229,20.9081,380.013,0.360642,0.0,0.0
3592,897.75,45.9352,47.1133,160.522,100.555,95.7831,0.00875466,0.109549,20.9048,379.943,0.443091,0.0,0.0
3600,899.75,45.6783,47.3718,161.109,100.552,96.024,0.00884437,0.10854,20.9033,379.893,0.419893,0.0,0.0
3608,901.75,45.8221,47.7579,159.374,100.551,96.1886,0.00894965,0.106972,20.903,379.873,0.40421,0.0,0.0
3614,903.25,46.4002,47.7838,162.158,100.554,96.1464,0.00898274,0.105153,20.9037,379.813,0.408513,0.0,0.0