File: 01_Data/Engineered_Wood_Table/Cone/Engineered_Wood_Table_Cone_HF75Scan_230626_R2.csv
Names,Time,Stack TC,Smoke TC,Exh Press,Smoke Comp,Smoke Meas,CO Meter,CO2 Meter,O2 Meter,Sample Mass,Ext Coeff,Start Test,Flame Verif
Chan Gain,,500,500,1,1,1,1,1,1,1,1,1.0,1.0
Offset,,0,0,0.135513,0,0,0,0,0,0,0,0.0,0.0
Gain,,1,1,25.011,12.9674,38.5317,1,1,1,1.00084,0.895081,1.0,1.0
Units,sec,C,C,Pa,%,%,%,%,%,g,/m,,
Baseline,,67.774,71.3756,156.206,100.573,100.613,0.00056513,0.0455317,20.9366,-448.642,-0.00308473,,
30,7.25,66.1974,70.43,149.829,100.69,100.642,0.000778832,0.0482023,20.9359,407.691,0.00373929,0.0,1.0
60,14.75,70.9422,81.6931,131.41,100.622,92.6287,0.00234901,0.141078,20.908,406.39,0.649913,0.0,0.0
90,22.25,79.8359,97.8091,131.459,100.601,89.4903,0.0042705,0.418383,20.6489,404.608,0.918917,0.0,0.0
120,29.75,88.606,112.007,127.422,100.57,89.7466,0.0065403,0.683384,20.2729,402.497,0.894018,0.0,0.0
150,37.25,96.3439,119.477,130.278,100.549,89.1434,0.00759887,0.841529,20.0572,400.435,0.945302,0.0,0.0
180,44.75,100.763,124.302,130.122,100.588,92.0008,0.00808969,0.826134,19.9936,398.563,0.700664,0.0,0.0
210,52.25,103.274,124.533,126.298,100.622,93.5095,0.00705253,0.743034,20.0638,396.812,0.575579,0.0,0.0
240,59.75,104.742,123.334,134.65,100.68,93.2037,0.00640585,0.657535,20.1709,395.311,0.605862,0.0,0.0
270,67.25,104.718,121.486,140.25,100.768,94.3785,0.00575463,0.587203,20.2463,393.98,0.514368,0.0,0.0
300,74.75,104.778,119.288,143.604,100.822,95.9342,0.00569365,0.549765,20.3038,392.688,0.390193,0.0,0.0
330,82.25,104.454,117.528,141.738,100.869,96.0471,0.00520411,0.4925,20.3651,391.538,0.384595,0.0,0.0
360,89.75,103.318,115.138,139.406,100.946,96.782,0.00491873,0.450444,20.4166,390.377,0.330749,0.0,0.0
390,97.25,102.602,114.1,140.332,100.934,96.5739,0.00453171,0.428111,20.4597,389.266,0.34673,0.0,0.0
420,104.75,101.933,112.851,138.864,100.937,97.1665,0.00428554,0.410528,20.4785,388.165,0.298878,0.0,0.0
450,112.25,101.324,111.575,139.339,100.921,96.8008,0.0039594,0.396167,20.5005,387.224,0.327284,0.0,0.0
480,119.75,100.676,110.54,135.914,100.906,96.2975,0.00355268,0.38573,20.5144,386.293,0.367011,0.0,0.0
510,127.25,100.353,109.315,138.926,100.817,97.6427,0.0035758,0.375495,20.524,385.182,0.251218,0.0,0.0
540,134.75,100.048,108.989,136.968,100.675,96.9302,0.00343076,0.364423,20.5439,384.311,0.297656,0.0,0.0
570,142.25,99.5069,107.985,142.196,100.498,98.1002,0.00323789,0.362155,20.5504,383.301,0.18958,0.0,0.0
600,149.75,98.3722,107.538,142.992,100.225,97.5299,0.00320286,0.35223,20.5594,382.38,0.214028,0.0,0.0
630,157.25,98.6978,106.72,140.879,99.9919,97.1112,0.0030307,0.346819,20.5706,381.509,0.22952,0.0,0.0
660,164.75,98.377,106.92,148.796,99.836,96.9984,0.0027416,0.339737,20.5784,380.638,0.2264,0.0,0.0
690,172.25,97.9462,106.669,141.396,99.7434,97.6263,0.00246025,0.335584,20.5844,379.698,0.168449,0.0,0.0
720,179.75,97.4617,105.714,143.885,99.7149,98.1331,0.00237885,0.330414,20.59,378.767,0.125551,0.0,0.0
750,187.25,96.6415,104.455,143.425,99.7268,96.8478,0.00258535,0.322075,20.5981,377.866,0.229998,0.0,0.0
780,194.75,96.5475,104.047,138.739,99.7529,97.7744,0.00235841,0.318461,20.6069,376.995,0.15729,0.0,0.0
810,202.25,96.0414,103.553,151.204,99.7256,97.5028,0.00242031,0.314274,20.6091,376.165,0.176984,0.0,0.0
840,209.75,95.4138,103.702,141.976,99.7462,97.1101,0.00207144,0.308562,20.6206,375.334,0.210295,0.0,0.0
870,217.25,95.4351,103.379,148.971,99.76,98.179,0.00225927,0.308119,20.6223,374.543,0.125434,0.0,0.0
900,224.75,95.5017,103.153,143.875,99.7256,97.1783,0.00238561,0.308445,20.6201,373.723,0.203162,0.0,0.0
930,232.25,95.2772,102.47,141.721,99.7339,97.0666,0.00224234,0.302152,20.6243,372.932,0.212847,0.0,0.0
960,239.75,94.7166,102.071,143.391,99.7652,97.5804,0.00209803,0.296191,20.6309,372.141,0.173851,0.0,0.0
990,247.25,94.5008,101.559,143.753,99.7944,98.5658,0.00208598,0.292032,20.6395,371.301,0.097266,0.0,0.0
1020,254.75,94.0141,100.84,145.39,99.8285,98.3271,0.00202333,0.287861,20.6454,370.47,0.118981,0.0,0.0
1050,262.25,94.2068,101.383,140.332,99.9428,98.7528,0.00223193,0.290246,20.6435,369.799,0.0940537,0.0,0.0
1080,269.75,93.883,101.287,144.878,100.005,98.313,0.00194311,0.287557,20.6468,369.009,0.134008,0.0,0.0
1110,277.25,93.8853,101.144,141.391,100.129,98.7986,0.00183101,0.283368,20.6512,368.228,0.105038,0.0,0.0
1140,284.75,94.2293,101.107,141.612,100.322,99.6182,0.00176779,0.279685,20.6538,367.517,0.0552378,0.0,0.0
1170,292.25,93.4706,100.805,145.615,100.563,99.2537,0.00179764,0.276911,20.6604,366.787,0.102923,0.0,0.0
1200,299.75,93.4508,100.244,146.065,100.772,99.8828,0.00180519,0.272251,20.6655,366.046,0.0696111,0.0,0.0
1230,307.25,93.3529,99.822,142.264,100.94,99.8393,0.00193751,0.265574,20.67,365.356,0.0861248,0.0,0.0
1260,314.75,92.5723,99.9211,143.87,100.986,99.7946,0.0018896,0.262396,20.6768,364.705,0.0932093,0.0,0.0
1290,322.25,93.0424,99.2318,141.393,100.86,99.543,0.00153726,0.259663,20.6774,363.974,0.103212,0.0,0.0
1320,329.75,92.5653,99.4873,145.807,100.601,99.5383,0.00149017,0.256429,20.6839,363.324,0.0833489,0.0,0.0
1350,337.25,92.3285,98.9222,149.355,100.305,99.7276,0.00162676,0.252366,20.688,362.693,0.0452923,0.0,0.0
1380,344.75,92.4073,98.8674,147.306,100.283,99.1667,0.00196792,0.2518,20.6897,361.983,0.0878725,0.0,0.0
1410,352.25,92.3231,98.6807,139.253,100.57,99.7405,0.00174143,0.248191,20.6927,361.362,0.0650009,0.0,0.0
1440,359.75,91.961,98.1563,144.036,100.832,100.393,0.00155946,0.245542,20.6952,360.752,0.0342206,0.0,0.0
1470,367.25,91.8792,98.2595,146.113,100.839,99.2243,0.00157355,0.243134,20.6996,360.121,0.126755,0.0,0.0
1500,374.75,91.5792,97.8367,144.086,100.605,98.9597,0.0015713,0.240208,20.7034,359.511,0.129425,0.0,0.0
1530,382.25,91.2103,97.1104,143.379,100.561,100.036,0.0012826,0.237494,20.7071,358.83,0.0411519,0.0,0.0
1560,389.75,91.2925,97.4183,145.243,100.832,99.7182,0.00146294,0.236728,20.7105,358.26,0.0872162,0.0,0.0
1590,397.25,91.4236,97.3174,145.509,101.054,100.535,0.00173266,0.234567,20.7138,357.629,0.0404303,0.0,0.0
1620,404.75,91.1512,97.1482,142.88,101.271,100.715,0.00166177,0.231961,20.7148,357.019,0.0431926,0.0,0.0
1650,412.25,90.8384,96.8549,145.913,101.378,100.697,0.00182217,0.22893,20.7185,356.478,0.052939,0.0,0.0
1680,419.75,90.386,96.7732,147.767,101.408,99.8652,0.00178466,0.227255,20.7203,355.898,0.120391,0.0,0.0
1710,427.25,90.6075,96.5378,142.85,101.303,100.932,0.00149896,0.225371,20.7248,355.217,0.0288594,0.0,0.0
1740,434.75,90.2401,95.8454,150.79,101.16,100.865,0.00145283,0.221384,20.7289,354.677,0.0229635,0.0,0.0
1770,442.25,90.1036,95.4785,147.942,100.96,100.026,0.00160548,0.218944,20.7326,354.106,0.0729743,0.0,0.0
1800,449.75,90.0519,95.584,144.288,100.623,99.7546,0.00150256,0.216324,20.7351,353.506,0.0680292,0.0,0.0
1830,457.25,89.5297,94.9114,143.675,100.313,99.677,0.00087002,0.21713,20.7351,352.985,0.049956,0.0,0.0
1860,464.75,89.7859,95.0836,150.125,100.071,98.928,0.00118653,0.215386,20.7355,352.415,0.0902332,0.0,0.0
1890,472.25,89.7886,94.9219,143.412,99.8605,98.8116,0.00104219,0.213117,20.7391,351.884,0.0829108,0.0,0.0
1920,479.75,88.959,94.2493,148.127,99.7972,99.1538,0.00136388,0.210885,20.7422,351.344,0.0507874,0.0,0.0
1950,487.25,88.8899,93.8367,146.856,99.8724,98.6093,0.0011157,0.210338,20.7455,350.853,0.0999317,0.0,0.0
1980,494.75,88.6591,93.9293,141.57,100.045,99.8628,0.0013952,0.208423,20.7443,350.243,0.0142748,0.0,0.0
2010,502.25,88.5816,94.2573,146.943,100.284,100.346,0.00143013,0.209265,20.7466,349.713,-0.00483349,0.0,0.0
2040,509.75,87.923,93.5648,143.883,100.6,99.9075,0.00111612,0.205918,20.7484,349.182,0.0542461,0.0,0.0
2070,517.25,88.3606,93.965,144.475,100.851,100.385,0.00108943,0.206608,20.7476,348.602,0.0363432,0.0,0.0
2100,524.75,88.1276,93.6339,144.532,101.001,100.976,0.00108154,0.204744,20.7472,347.931,0.00188484,0.0,0.0
2130,532.25,87.662,92.7184,146.483,101.014,101.213,0.0014573,0.201057,20.7497,347.501,-0.0154266,0.0,0.0
2160,539.75,87.8376,92.8863,144.593,100.93,100.962,0.00122909,0.204631,20.7489,346.98,-0.00252662,0.0,0.0
2190,547.25,87.8513,92.7472,144.088,100.816,100.606,0.00126686,0.203502,20.75,346.45,0.0163906,0.0,0.0
2220,554.75,87.3622,92.8906,146.268,100.76,100.104,0.00124213,0.202068,20.7528,346.049,0.0513277,0.0,0.0
2250,562.25,87.5893,93.0747,146.653,100.654,100.258,0.00138354,0.20216,20.7519,345.469,0.0309555,0.0,0.0
2280,569.75,87.8815,92.836,150.849,100.612,100.779,0.00133646,0.200431,20.7535,344.919,-0.0130383,0.0,0.0
2310,577.25,87.2304,92.9134,151.911,100.555,100.237,0.00139194,0.200745,20.7542,344.458,0.0248922,0.0,0.0
2340,584.75,87.4031,92.6451,144.785,100.451,100.394,0.00165899,0.200886,20.753,343.878,0.00439788,0.0,0.0
2370,592.25,86.4314,91.8916,147.776,100.433,100.426,0.00113743,0.199838,20.7546,343.347,0.00052226,0.0,0.0
2400,599.75,86.3639,92.2178,148.376,100.443,99.2208,0.00124337,0.200181,20.7573,342.957,0.0961297,0.0,0.0
2430,607.25,86.2769,91.8402,143.895,100.424,99.8405,0.0013475,0.199983,20.7561,342.316,0.0457595,0.0,0.0
2460,614.75,86.8816,91.8308,147.3,100.427,100.455,0.00137644,0.201522,20.7578,341.836,-0.00220829,0.0,0.0
2490,622.25,86.5223,91.6075,146.348,100.418,99.8722,0.00154851,0.200656,20.7555,341.346,0.0427681,0.0,0.0
2520,629.75,86.3653,91.414,147.616,100.382,100.296,0.0011534,0.200788,20.7568,340.815,0.00674179,0.0,0.0
2550,637.25,86.1161,91.3639,146.681,100.339,99.804,0.00125578,0.200199,20.753,340.365,0.0419405,0.0,0.0
2580,644.75,85.8264,91.3115,150.563,100.362,99.5959,0.00106539,0.202665,20.7519,339.914,0.0601891,0.0,0.0
2610,652.25,86.2719,91.2857,149.544,100.369,100.364,0.00131698,0.202307,20.7504,339.214,0.000445515,0.0,0.0
2640,659.75,86.3004,91.7138,144.132,100.451,98.6752,0.00135387,0.201564,20.7532,338.813,0.140013,0.0,0.0
2670,667.25,85.9283,91.4176,147.005,100.608,99.7723,0.00117012,0.204134,20.7518,338.323,0.0654678,0.0,0.0
2700,674.75,85.9827,91.4983,148.733,100.722,99.7899,0.00136557,0.203921,20.7517,337.733,0.0730309,0.0,0.0
2730,682.25,86.1387,91.526,143.255,100.874,100.464,0.00145724,0.202989,20.7517,337.242,0.0319707,0.0,0.0
2760,689.75,86.041,91.7136,145.152,100.982,100.632,0.00154972,0.204235,20.7528,336.672,0.0273056,0.0,0.0
2790,697.25,86.2722,91.4168,146.248,100.948,101.595,0.00126239,0.205571,20.7506,336.171,-0.0501242,0.0,0.0
2820,704.75,86.5434,91.6624,142.657,100.799,100.079,0.00113493,0.204571,20.7559,335.641,0.0562861,0.0,0.0
2850,712.25,85.9837,91.8432,148.308,100.491,99.6829,0.0011045,0.206416,20.7534,335.17,0.063419,0.0,0.0
2880,719.75,86.1148,92.0738,148.026,100.172,100.158,0.0013008,0.207388,20.7523,334.65,0.00109783,0.0,0.0
2910,727.25,86.7944,91.6498,146.822,99.8594,99.4207,0.00153407,0.206811,20.7498,334.059,0.0345664,0.0,0.0
2940,734.75,86.1943,91.3464,146.686,99.7576,99.7829,0.00129675,0.207243,20.7507,333.539,-0.00198547,0.0,0.0
2970,742.25,85.7372,91.5605,143.634,99.944,99.69,0.0012509,0.208217,20.7483,332.979,0.0199849,0.0,0.0
3000,749.75,86.1908,91.9807,148.951,100.35,100.641,0.00153026,0.208543,20.7474,332.478,-0.022752,0.0,0.0
3030,757.25,86.059,92.2547,144.189,100.862,100.01,0.00148547,0.208672,20.747,331.918,0.0665992,0.0,0.0
3060,764.75,86.2672,91.4647,144.733,101.26,101.337,0.00129277,0.209517,20.7476,331.377,-0.00601084,0.0,0.0
3090,772.25,85.8527,91.5127,148.254,101.394,100.619,0.00146933,0.20745,20.7469,330.837,0.0602495,0.0,0.0
3120,779.75,86.0756,91.5969,147.881,101.189,100.839,0.00173383,0.210725,20.7461,330.276,0.027189,0.0,0.0
3150,787.25,86.1632,91.2979,148.462,100.792,100.912,0.00136698,0.209848,20.7454,329.716,-0.00931386,0.0,0.0
3180,794.75,86.2386,91.5082,144.243,100.443,99.6488,0.00104861,0.21207,20.7463,329.185,0.0623317,0.0,0.0
3210,802.25,86.2305,91.7411,145.704,100.781,99.9851,0.00132891,0.210034,20.7463,328.535,0.0622825,0.0,0.0
3240,809.75,86.305,91.4628,147.731,100.677,100.816,0.000968991,0.212868,20.7455,328.074,-0.0109066,0.0,0.0
3270,817.25,86.2857,91.8712,147.924,100.235,99.8029,0.00114565,0.213341,20.7411,327.434,0.0339159,0.0,0.0
3300,824.75,86.1467,92.0587,148.245,100.503,101.052,0.00128085,0.213747,20.7407,326.863,-0.0427605,0.0,0.0
3330,832.25,86.4326,92.0177,144.457,100.856,100.798,0.0011383,0.213838,20.7427,326.313,0.00455784,0.0,0.0
3360,839.75,86.0859,92.0715,145.21,100.97,100.58,0.00147463,0.213997,20.7422,325.762,0.0303588,0.0,0.0
3390,847.25,86.255,92.5311,145.655,100.813,100.626,0.00126465,0.2149,20.7422,325.172,0.0146148,0.0,0.0
3420,854.75,86.2644,92.3877,146.456,100.536,99.6559,0.00131852,0.216798,20.7414,324.531,0.0690424,0.0,0.0
3450,862.25,86.116,92.247,147.13,100.299,100.218,0.00145772,0.217187,20.7406,323.991,0.00637893,0.0,0.0
3480,869.75,86.0114,92.5761,148.115,100.156,99.7958,0.00139787,0.214951,20.7385,323.361,0.0282998,0.0,0.0
3510,877.25,86.5204,92.3757,144.72,100.047,99.3313,0.00157839,0.22295,20.7372,322.75,0.0563298,0.0,0.0
3540,884.75,87.0692,93.4769,143.698,99.9812,99.3713,0.00177181,0.223338,20.7338,322.16,0.0480455,0.0,0.0
3570,892.25,86.8058,93.1026,143.877,100.002,99.8746,0.00161921,0.224168,20.7327,321.599,0.0100264,0.0,0.0
3600,899.75,87.0035,93.0559,146.655,100.058,99.4865,0.00144358,0.225372,20.7321,321.019,0.0449712,0.0,0.0
3630,907.25,86.9472,93.1231,147.266,100.057,99.3149,0.00146523,0.226577,20.7327,320.288,0.0584706,0.0,0.0
3660,914.75,86.6744,92.6967,150.203,100.098,99.8628,0.00117532,0.227835,20.731,319.657,0.018435,0.0,0.0
3690,922.25,86.9229,93.2281,147.818,100.132,99.5712,0.00117009,0.228868,20.7298,319.037,0.0440657,0.0,0.0
3720,929.75,87.1215,93.2265,145.787,100.146,99.1467,0.00139191,0.230466,20.7269,318.336,0.0787281,0.0,0.0
3750,937.25,87.1033,93.079,143.404,100.168,99.2937,0.00183887,0.231654,20.7238,317.636,0.0688031,0.0,0.0
3780,944.75,86.6237,93.3174,146.181,100.184,99.1197,0.00164058,0.234482,20.7223,316.955,0.0838795,0.0,0.0
3810,952.25,87.5497,93.9077,141.151,100.2,98.8469,0.00137113,0.241956,20.7179,316.325,0.10679,0.0,0.0
3840,959.75,87.7975,94.0374,144.892,100.175,98.5823,0.00188156,0.243914,20.7101,315.584,0.125819,0.0,0.0
3870,967.25,87.3055,94.9664,148.174,100.217,98.9962,0.00152749,0.246277,20.7075,314.913,0.0962703,0.0,0.0
3900,974.75,88.4446,95.2806,144.943,100.233,99.7006,0.0016279,0.250833,20.705,314.233,0.0417822,0.0,0.0
3930,982.25,88.9207,96.0198,144.554,100.274,98.8186,0.0016859,0.255601,20.6972,313.472,0.114829,0.0,0.0
3960,989.75,89.0206,96.4217,144.394,100.352,99.0374,0.00149181,0.260553,20.6894,312.722,0.103572,0.0,0.0
3990,997.25,89.5547,96.6259,136.821,100.459,98.4306,0.00158466,0.261696,20.6876,312.011,0.160148,0.0,0.0
4020,1004.75,89.6559,97.0807,140.66,100.558,99.71,0.00153489,0.262485,20.6853,311.32,0.066512,0.0,0.0
4050,1012.25,89.7183,96.9477,145.953,100.667,99.8417,0.00169243,0.257533,20.688,310.63,0.0646714,0.0,0.0
4080,1019.75,89.3026,96.571,146.868,100.783,99.5724,0.00176921,0.249258,20.6956,309.979,0.0949147,0.0,0.0
4110,1027.25,89.203,95.9331,145.813,100.906,100.11,0.00146077,0.240378,20.7061,309.359,0.0621757,0.0,0.0
4140,1034.75,89.3185,95.0601,149.579,100.964,100.223,0.0013147,0.230161,20.7155,308.628,0.0578825,0.0,0.0
4170,1042.25,88.9544,95.3825,145.568,101.034,100.017,0.00140642,0.228661,20.7233,308.018,0.0794351,0.0,0.0
4200,1049.75,89.5894,95.3191,144.606,101.041,100.136,0.00148486,0.230553,20.7228,307.327,0.0706705,0.0,0.0
4230,1057.25,89.2962,95.7912,144.133,100.993,99.6371,0.00160853,0.237055,20.7145,306.647,0.106139,0.0,0.0
4260,1064.75,89.3493,95.4963,145.259,100.92,100.145,0.0013017,0.240797,20.711,305.956,0.0605477,0.0,0.0
4290,1072.25,89.5289,95.4818,146.612,100.827,99.7441,0.0011874,0.246901,20.7041,305.225,0.0847805,0.0,0.0
4320,1079.75,89.7203,96.3905,147.585,100.722,99.8499,0.00156903,0.248936,20.7006,304.445,0.0682825,0.0,0.0
4350,1087.25,89.7944,96.8415,146.933,100.611,100.052,0.00152359,0.251809,20.6987,303.744,0.043752,0.0,0.0
4380,1094.75,90.7885,97.263,141.493,100.485,99.7617,0.00168634,0.255801,20.6954,303.084,0.0566904,0.0,0.0
4410,1102.25,90.1926,97.0275,146.456,100.339,98.8081,0.00169751,0.257169,20.6918,302.403,0.12072,0.0,0.0
4440,1109.75,90.8835,97.8258,142.656,100.272,99.182,0.00148805,0.25818,20.6911,301.672,0.0858258,0.0,0.0
4470,1117.25,90.6638,97.6081,145.932,100.607,99.9675,0.00160221,0.252616,20.6946,300.942,0.0500909,0.0,0.0
4500,1124.75,90.8007,97.3191,143.297,100.807,100.133,0.00152071,0.253307,20.6961,300.251,0.0526294,0.0,0.0
4530,1132.25,90.5695,97.1749,143.358,100.915,99.5971,0.0018465,0.250382,20.6937,299.651,0.103197,0.0,0.0
4560,1139.75,90.3244,97.0696,146.917,100.861,100.152,0.0016482,0.246797,20.697,298.94,0.0553763,0.0,0.0
4590,1147.25,90.8575,96.6935,145.43,100.677,97.4911,0.00167227,0.247181,20.696,298.239,0.252477,0.0,0.0
4620,1154.75,90.7782,96.8257,142.229,100.572,99.7206,0.00183036,0.245189,20.6983,297.719,0.0667291,0.0,0.0
4650,1162.25,90.3873,97.3804,143.243,100.751,100.336,0.00158963,0.244139,20.703,297.089,0.0324703,0.0,0.0
4680,1169.75,90.7828,97.7635,144.816,100.994,99.5277,0.00185199,0.242547,20.7008,296.398,0.114854,0.0,0.0
4710,1177.25,91.0877,97.4603,145.478,101.225,101.165,0.00151002,0.240972,20.7004,295.797,0.00469255,0.0,0.0
4740,1184.75,90.9465,97.5336,145.121,101.378,101.03,0.00152188,0.236861,20.7048,295.247,0.0269428,0.0,0.0
4770,1192.25,90.8487,96.6876,144.689,101.449,100.766,0.00158266,0.235236,20.7104,294.636,0.0530153,0.0,0.0
4800,1199.75,90.6942,96.4791,145.221,101.382,100.628,0.00140155,0.23047,20.7137,294.126,0.058596,0.0,0.0
4830,1207.25,90.3989,96.0405,144.002,101.204,100.51,0.00123868,0.230626,20.7157,293.516,0.0540648,0.0,0.0
4860,1214.75,89.8654,96.2872,143.065,100.821,99.0385,0.00132688,0.228938,20.7161,292.915,0.140022,0.0,0.0
4890,1222.25,89.8891,95.8809,143.159,100.43,99.2349,0.00138364,0.22655,20.7187,292.325,0.0939622,0.0,0.0
4920,1229.75,90.2795,95.5528,146.307,100.074,98.9045,0.00166364,0.225824,20.7185,291.844,0.0923167,0.0,0.0
4950,1237.25,89.8628,95.9676,144.61,99.8898,99.5971,0.00148891,0.226319,20.7202,291.154,0.0230447,0.0,0.0
4980,1244.75,89.6875,95.6033,142.989,99.7913,97.7027,0.00151571,0.223515,20.721,290.643,0.166072,0.0,0.0
5010,1252.25,89.3667,94.9074,145.364,99.7984,98.6975,0.00156801,0.225545,20.723,290.173,0.0870931,0.0,0.0
5040,1259.75,89.6454,94.7495,144.422,99.8487,98.6434,0.00186633,0.220733,20.7223,289.712,0.0953493,0.0,0.0
5070,1267.25,89.4433,95.3904,144.315,99.8637,99.837,0.00189869,0.223376,20.7252,289.152,0.00210287,0.0,0.0
5100,1274.75,89.0322,94.732,143.205,99.8882,99.3172,0.00151315,0.220036,20.7292,288.651,0.0450131,0.0,0.0
5130,1282.25,88.9099,94.5307,147.471,99.9053,99.7923,0.00183847,0.217839,20.7299,288.071,0.00888399,0.0,0.0
5160,1289.75,88.9231,94.0432,141.515,99.8871,99.1738,0.00140852,0.215733,20.7334,287.541,0.0562694,0.0,0.0
5190,1297.25,88.8777,94.1241,143.68,99.9128,99.7805,0.00140919,0.215068,20.732,286.97,0.0104003,0.0,0.0
5220,1304.75,87.706,93.3424,145.723,99.933,99.3302,0.00171452,0.210996,20.7358,286.53,0.047505,0.0,0.0
5250,1312.25,87.9596,93.7247,141.967,99.9405,99.4372,0.00180151,0.209181,20.7366,286.019,0.0396415,0.0,0.0
5280,1319.75,88.0496,92.9979,141.897,99.8878,99.8734,0.00179269,0.208511,20.7388,285.499,0.00113433,0.0,0.0
5310,1327.25,88.1064,93.1355,143.546,99.872,99.757,0.00158404,0.206268,20.7416,285.068,0.0090476,0.0,0.0
5340,1334.75,87.6274,93.5108,143.08,99.7976,98.6963,0.00191465,0.205955,20.7391,284.598,0.0871246,0.0,0.0
5370,1342.25,87.7385,92.8844,142.399,99.7398,98.4529,0.00171296,0.202984,20.7451,284.088,0.101965,0.0,0.0
5400,1349.75,87.5761,92.69,143.156,99.7652,98.9656,0.0016487,0.201892,20.7471,283.647,0.0631785,0.0,0.0
5430,1357.25,87.0161,91.8122,144.494,99.8067,98.4894,0.00181291,0.199932,20.7492,283.257,0.104322,0.0,0.0
5460,1364.75,86.7345,91.7531,147.3,99.9013,98.6246,0.00162811,0.195283,20.7562,282.646,0.100985,0.0,0.0
5490,1372.25,86.7042,91.3466,151.195,100.124,99.6441,0.00164377,0.195795,20.7574,282.256,0.0376987,0.0,0.0
5520,1379.75,86.1159,91.1211,150.336,100.362,99.5971,0.00156221,0.194143,20.7583,281.826,0.0600656,0.0,0.0
5550,1387.25,86.2666,90.9041,148.331,100.632,99.9722,0.00151731,0.19026,20.7617,281.345,0.0516662,0.0,0.0
5580,1394.75,86.134,91.0745,143.52,100.933,100.263,0.00155145,0.191282,20.7621,280.865,0.0522891,0.0,0.0
5610,1402.25,85.7944,90.8738,151.288,101.187,101.705,0.00162596,0.190824,20.7605,280.475,-0.0400934,0.0,0.0
5640,1409.75,86.1765,91.1433,145.53,101.372,100.457,0.00172593,0.191773,20.7607,280.064,0.0712363,0.0,0.0
5670,1417.25,85.9221,90.841,146.242,101.386,100.213,0.00146592,0.189049,20.7626,279.554,0.0913574,0.0,0.0
5700,1424.75,85.4977,90.4397,147.624,101.294,100.568,0.00144386,0.188345,20.765,279.174,0.0564395,0.0,0.0
5730,1432.25,84.6743,90.8589,144.333,101.167,100.86,0.00137647,0.186217,20.7668,278.703,0.0238519,0.0,0.0
5760,1439.75,84.8895,90.3592,150.958,101.073,101.536,0.00153281,0.183485,20.7666,278.303,-0.0359208,0.0,0.0
5790,1447.25,85.2665,90.0133,145.923,100.986,100.137,0.00134075,0.181723,20.7744,277.912,0.0663022,0.0,0.0
5820,1454.75,84.7966,90.2076,146.458,100.933,99.7017,0.00143799,0.183212,20.7744,277.432,0.0963979,0.0,0.0
5850,1462.25,84.3968,89.4323,145.707,100.9,99.6912,0.00172753,0.180782,20.7746,277.092,0.0946142,0.0,0.0
5880,1469.75,84.4325,89.618,146.953,100.867,100.769,0.0017832,0.177944,20.7786,276.701,0.00758902,0.0,0.0
5910,1477.25,84.4702,88.8643,148.975,100.84,101.026,0.00133474,0.177223,20.7781,276.211,-0.0144241,0.0,0.0
5940,1484.75,84.3208,89.5124,150.948,100.828,100.154,0.001277,0.175439,20.7817,275.821,0.0526034,0.0,0.0
5970,1492.25,83.8788,89.2377,148.74,100.864,100.405,0.00162622,0.174863,20.7823,275.46,0.0358271,0.0,0.0
6000,1499.75,83.802,88.5727,146.758,100.912,100.935,0.00139378,0.175479,20.782,275,-0.00177763,0.0,0.0
6030,1507.25,83.8025,88.6188,148.013,100.967,100.437,0.00151611,0.176117,20.7833,274.58,0.041381,0.0,0.0
6060,1514.75,83.2446,88.1534,150.312,101.047,100.691,0.00172329,0.177025,20.7799,274.169,0.0277636,0.0,0.0
6090,1522.25,83.3603,87.7685,148.065,101.164,100.655,0.00159046,0.175998,20.7791,273.829,0.0395503,0.0,0.0
6120,1529.75,83.1073,88.2813,151.208,101.21,100.59,0.00162759,0.177864,20.7775,273.409,0.0482808,0.0,0.0
6150,1537.25,83.2484,88.5384,149.137,101.283,100.4,0.00200221,0.17641,20.7789,272.948,0.0687502,0.0,0.0
6180,1544.75,83.6769,88.6038,143.252,101.332,101.032,0.00155897,0.175975,20.7802,272.618,0.0233265,0.0,0.0
6210,1552.25,83.0352,88.5714,147.077,101.359,101.114,0.00148452,0.176048,20.7823,272.198,0.0189859,0.0,0.0
6240,1559.75,83.3721,88.3144,145.994,101.403,101.27,0.00160495,0.173229,20.7838,271.787,0.0102535,0.0,0.0
6270,1567.25,83.4761,88.04,148.303,101.425,100.72,0.00181818,0.174205,20.7835,271.377,0.0547824,0.0,0.0
6300,1574.75,83.4049,88.247,147.566,101.432,101.313,0.00174476,0.173702,20.7834,271.027,0.00926917,0.0,0.0
6330,1582.25,83.474,88.4749,150.912,101.368,100.866,0.00170724,0.175187,20.7831,270.566,0.0390111,0.0,0.0
6360,1589.75,83.3724,88.3014,146.155,101.229,100.999,0.00166062,0.174093,20.782,270.206,0.0179083,0.0,0.0
6390,1597.25,83.5739,88.1552,149.315,101.073,100.499,0.00165386,0.174003,20.7812,269.826,0.0447228,0.0,0.0
6420,1604.75,83.314,88.1343,151.109,100.844,100.23,0.00159674,0.174255,20.7835,269.435,0.0479999,0.0,0.0
6450,1612.25,83.0701,87.4729,144.975,100.587,99.7605,0.00175672,0.173312,20.7848,269.005,0.0647558,0.0,0.0
6480,1619.75,83.3256,88.0531,147.262,100.338,100.243,0.00180365,0.169773,20.7893,268.635,0.00744875,0.0,0.0
6510,1627.25,83.3735,87.9361,143.612,100.111,99.4325,0.00188752,0.171342,20.7913,268.234,0.0534011,0.0,0.0
6540,1634.75,83.0394,88.2943,150.108,99.9369,98.8504,0.00191992,0.171229,20.7878,267.864,0.0858304,0.0,0.0
6570,1642.25,82.9293,87.9551,145.626,99.8368,98.701,0.00167049,0.169553,20.7908,267.454,0.0898317,0.0,0.0
6600,1649.75,82.7203,88.3307,149.079,99.8075,98.9092,0.00150738,0.168732,20.7929,267.053,0.0709896,0.0,0.0
6630,1657.25,83.19,87.2908,149.737,99.8922,99.5477,0.00175536,0.169286,20.7939,266.763,0.0271256,0.0,0.0
6660,1664.75,82.9545,87.73,150.541,100.015,99.7417,0.0016582,0.169846,20.7949,266.293,0.0214739,0.0,0.0
6690,1672.25,83.2976,87.7028,147.907,100.252,98.8986,0.00146575,0.170309,20.7937,265.882,0.106681,0.0,0.0
6720,1679.75,82.7845,87.9504,148.86,100.532,100.063,0.00178749,0.168672,20.7923,265.542,0.0367122,0.0,0.0
6750,1687.25,82.4673,87.5045,148.406,100.81,99.0374,0.0019165,0.169494,20.7903,265.142,0.139284,0.0,0.0
6780,1694.75,82.9244,87.4261,146.458,101.015,100.952,0.00133813,0.168592,20.7902,264.751,0.00494324,0.0,0.0
6810,1702.25,82.2977,87.6752,144.955,101.037,100.638,0.00191331,0.170104,20.794,264.341,0.0310916,0.0,0.0
6840,1709.75,82.7915,87.0359,147.774,100.912,100.401,0.00200281,0.167562,20.7952,264.011,0.0398297,0.0,0.0
6870,1717.25,82.4497,87.2116,150.888,100.658,100.353,0.00209173,0.168532,20.7956,263.56,0.0238388,0.0,0.0
6900,1724.75,82.8939,87.8902,148.754,100.373,99.8687,0.00141088,0.169806,20.7942,263.17,0.0395782,0.0,0.0
6930,1732.25,82.7081,87.5489,150.199,100.236,99.2831,0.00143381,0.168528,20.794,262.73,0.0749734,0.0,0.0
6960,1739.75,82.5607,87.4077,148.916,100.568,100.475,0.00172545,0.168626,20.7953,262.44,0.00720469,0.0,0.0
6990,1747.25,82.4374,87.4467,147.53,100.762,99.0103,0.001884,0.170305,20.7935,262.029,0.137697,0.0,0.0
7020,1754.75,82.6243,87.4668,150.031,100.83,100.554,0.00165608,0.169358,20.7947,261.619,0.0215383,0.0,0.0
7050,1762.25,82.6528,87.2184,147.412,100.633,100,0.00177605,0.169032,20.7934,261.239,0.0495124,0.0,0.0
7080,1769.75,82.3665,87.7571,144.617,100.559,99.6759,0.00153624,0.168742,20.795,260.728,0.0692289,0.0,0.0
7110,1777.25,82.7977,87.0981,148.16,100.791,100.094,0.00171648,0.172188,20.7934,260.448,0.0544087,0.0,0.0
7140,1784.75,82.7322,87.8262,145.375,100.968,100.023,0.0017637,0.172218,20.7903,260.017,0.0738664,0.0,0.0
7170,1792.25,82.6545,87.9429,148.811,101.071,100.28,0.00205706,0.174391,20.7895,259.707,0.0617058,0.0,0.0
7200,1799.75,82.5272,87.997,148.989,101.197,100.571,0.00173444,0.172404,20.7921,259.287,0.0487366,0.0,0.0
7230,1807.25,82.9687,88.3063,147.824,101.293,100.879,0.00189246,0.171319,20.7916,258.927,0.0321785,0.0,0.0
7260,1814.75,82.8845,87.6646,147.522,101.366,100.105,0.00216762,0.172518,20.7923,258.496,0.098305,0.0,0.0
7290,1822.25,82.6794,88.1016,148.57,101.405,101.082,0.00196544,0.17223,20.793,258.156,0.0250677,0.0,0.0
7320,1829.75,83.0561,88.0594,149.581,101.375,101.241,0.00144158,0.172378,20.7911,257.686,0.010418,0.0,0.0
7350,1837.25,82.9181,87.6525,148.148,101.385,100.867,0.00156286,0.174745,20.7896,257.315,0.0402077,0.0,0.0
7380,1844.75,83.1063,87.6975,149.189,101.377,101.606,0.00187029,0.173335,20.7878,256.915,-0.0177091,0.0,0.0
7410,1852.25,82.5197,87.1682,146.882,101.362,101.203,0.00174998,0.173211,20.7867,256.455,0.0122639,0.0,0.0
7440,1859.75,83.0584,87.2995,147.025,101.312,100.965,0.00159201,0.171225,20.7915,256.074,0.0270034,0.0,0.0
7470,1867.25,82.8411,88.2483,149.062,101.25,101.018,0.00178522,0.174683,20.7893,255.754,0.0180726,0.0,0.0
7500,1874.75,82.3993,87.5679,150.469,101.154,100.628,0.00169689,0.174179,20.787,255.314,0.0409229,0.0,0.0
7530,1882.25,82.7655,87.6416,152.329,100.982,100.872,0.00142898,0.173867,20.7902,254.823,0.00861192,0.0,0.0
7560,1889.75,82.573,87.4334,147.648,100.818,100.724,0.00187257,0.175889,20.784,254.533,0.00734215,0.0,0.0
7590,1897.25,82.6817,88.0025,144.984,100.669,100.547,0.00166176,0.176702,20.7876,254.043,0.00950663,0.0,0.0
7620,1904.75,82.2794,87.887,149.499,100.589,100.834,0.00153486,0.175732,20.7851,253.692,-0.0190727,0.0,0.0
7650,1912.25,82.7159,87.8012,146.471,100.435,99.9193,0.00155532,0.172217,20.7891,253.202,0.0404014,0.0,0.0
7680,1919.75,82.8804,87.2927,146.534,100.563,100.344,0.00143628,0.177214,20.785,252.842,0.0171322,0.0,0.0
7710,1927.25,82.919,88.0715,146.316,100.764,100.801,0.00189723,0.174669,20.7868,252.431,-0.0029283,0.0,0.0
7740,1934.75,83.0217,88.1254,147.508,100.796,101.174,0.00211103,0.178359,20.7847,252.081,-0.0293825,0.0,0.0
7770,1942.25,83.1371,88.7804,145.704,100.578,100.679,0.00199513,0.178396,20.784,251.651,-0.00790366,0.0,0.0
7800,1949.75,83.072,88.5964,148.736,100.373,100.455,0.00174048,0.178669,20.7834,251.22,-0.00641784,0.0,0.0
7830,1957.25,82.8597,88.2273,149.688,100.207,99.4736,0.0018272,0.176709,20.7848,250.83,0.0576595,0.0,0.0
7860,1964.75,82.8254,88.5036,148.563,100.46,100.505,0.0016828,0.177902,20.784,250.399,-0.00346905,0.0,0.0
7890,1972.25,83.4977,88.2604,150.918,100.732,100.13,0.00169904,0.178122,20.7842,249.959,0.0470472,0.0,0.0
7920,1979.75,82.896,88.1841,144.314,100.929,100.702,0.00183441,0.178689,20.7842,249.539,0.017616,0.0,0.0
7950,1987.25,83.0971,88.3831,148.105,101.005,100.707,0.00200118,0.178885,20.7819,249.188,0.0231893,0.0,0.0
7980,1994.75,83.9833,88.4933,149.89,100.947,100.05,0.0015742,0.175712,20.7868,248.748,0.0700824,0.0,0.0
8010,2002.25,83.1365,88.0148,152.726,100.776,100.454,0.00138504,0.179552,20.7832,248.388,0.0250938,0.0,0.0
8040,2009.75,82.974,88.5664,149.336,100.461,100.472,0.00176117,0.178608,20.7824,247.917,-0.000835408,0.0,0.0
8070,2017.25,83.194,88.9212,147.319,100.134,99.5606,0.00205319,0.181566,20.7789,247.537,0.045055,0.0,0.0
8100,2024.75,82.5417,88.1824,149.109,99.859,100.126,0.00148091,0.180234,20.7842,247.067,-0.0209875,0.0,0.0
8130,2032.25,83.0033,88.0262,144.204,99.7822,97.872,0.00179191,0.180893,20.7821,246.696,0.151761,0.0,0.0
8160,2039.75,83.151,88.1397,148.86,99.9262,100.082,0.0017142,0.18112,20.7813,246.296,-0.0121945,0.0,0.0
8190,2047.25,82.8437,87.6257,145.709,100.24,99.3772,0.00163003,0.181773,20.7817,245.906,0.0679095,0.0,0.0
8220,2054.75,83.2311,88.1799,144.059,100.73,100.523,0.00191284,0.180789,20.7856,245.395,0.0162188,0.0,0.0
8250,2062.25,82.8861,88.0756,147.101,101.163,99.8217,0.00197324,0.181116,20.7819,244.925,0.104792,0.0,0.0
8280,2069.75,82.8334,87.8112,153.693,101.382,101.503,0.00160346,0.1824,20.7782,244.575,-0.00937102,0.0,0.0
8310,2077.25,82.2751,88.1962,149.108,101.371,100.417,0.00158007,0.183178,20.7789,244.124,0.0742706,0.0,0.0
8340,2084.75,83.3111,88.4347,148.77,101.194,100.862,0.00169796,0.184703,20.779,243.734,0.0257879,0.0,0.0
8370,2092.25,83.1136,88.2289,148.322,100.836,100.428,0.00157865,0.184447,20.7767,243.304,0.0317702,0.0,0.0
8400,2099.75,83.2849,88.1247,145.999,100.466,100.954,0.00162235,0.183368,20.78,242.963,-0.0380188,0.0,0.0
8430,2107.25,82.9176,88.4307,149.547,100.798,100.399,0.00173234,0.183907,20.7803,242.493,0.0311718,0.0,0.0
8460,2114.75,83.022,88.6716,147.959,100.798,100.164,0.001608,0.184192,20.7783,241.972,0.0495533,0.0,0.0
8490,2122.25,83.2317,88.304,153.098,100.582,100.099,0.00144275,0.185402,20.7757,241.582,0.0378077,0.0,0.0
8520,2129.75,82.9939,88.748,147.075,100.307,99.6241,0.00137912,0.182697,20.7768,241.132,0.0536298,0.0,0.0
8550,2137.25,83.2107,88.7892,147.654,100.271,99.5759,0.00156084,0.186665,20.7777,240.711,0.054642,0.0,0.0
8580,2144.75,83.4962,88.9386,151.384,100.578,99.6994,0.00173436,0.184077,20.7777,240.261,0.0688597,0.0,0.0
8610,2152.25,83.6689,88.846,150.569,100.867,100.305,0.00166015,0.185959,20.7785,239.801,0.0438628,0.0,0.0
8640,2159.75,83.0214,88.8609,145.664,100.974,100.7,0.00156215,0.18761,20.7767,239.46,0.0213096,0.0,0.0
8670,2167.25,83.0768,88.7909,152.618,100.813,100.566,0.00137533,0.188142,20.7761,238.95,0.0192949,0.0,0.0
8700,2174.75,83.1768,88.7833,151.789,100.413,100.376,0.00180634,0.189811,20.7753,238.5,0.00296089,0.0,0.0
8730,2182.25,83.1415,88.929,148.518,99.9808,99.9581,0.00169287,0.189612,20.7732,238.069,0.00178846,0.0,0.0
8760,2189.75,83.4585,89.6541,148.393,99.7303,99.9193,0.00199482,0.190863,20.7743,237.579,-0.0148606,0.0,0.0
8790,2197.25,83.661,89.1734,149.019,100.016,99.5371,0.00174216,0.191896,20.7703,237.118,0.0376586,0.0,0.0
8820,2204.75,83.2148,88.6845,151.006,100.59,99.7864,0.00124251,0.19005,20.7703,236.668,0.0629984,0.0,0.0
8850,2212.25,83.792,89.56,149.581,101.15,99.9381,0.00157143,0.192314,20.7712,236.328,0.0946281,0.0,0.0
8880,2219.75,83.521,89.203,147.387,101.397,100.562,0.00158865,0.195469,20.7671,235.727,0.0648691,0.0,0.0
8910,2227.25,83.1753,87.8784,149.085,101.279,101.46,0.00170948,0.19246,20.7694,235.357,-0.0140078,0.0,0.0
8940,2234.75,83.1279,89.3494,151.794,100.851,101.242,0.00152083,0.190587,20.7716,234.927,-0.0303892,0.0,0.0
8970,2242.25,83.8524,89.3821,146.277,100.468,100.52,0.00139625,0.195263,20.7694,234.386,-0.00410723,0.0,0.0
9000,2249.75,83.9268,89.1915,147.929,100.87,100.835,0.00185882,0.195803,20.7687,233.966,0.00270639,0.0,0.0
9030,2257.25,83.8037,89.1953,150.998,100.684,99.5112,0.00156763,0.194685,20.7692,233.525,0.0919966,0.0,0.0
9060,2264.75,83.8431,89.1551,143.493,100.182,100.693,0.00161472,0.196713,20.7673,233.045,-0.0399274,0.0,0.0
9090,2272.25,84.0767,89.6823,145.003,100.49,100.077,0.00168292,0.19835,20.7648,232.525,0.0323594,0.0,0.0
9120,2279.75,84.113,89.1434,153.538,100.846,100.607,0.00152727,0.197838,20.7648,232.044,0.0185797,0.0,0.0
9150,2287.25,83.7257,89.7116,149.834,100.984,100.491,0.00183471,0.200001,20.7638,231.594,0.038415,0.0,0.0
9180,2294.75,84.0738,90.0043,149.769,100.855,100.144,0.00148867,0.199596,20.762,231.123,0.0555901,0.0,0.0
9210,2302.25,84.2252,90.1287,151.331,100.622,100.478,0.00147313,0.202132,20.7617,230.613,0.0112836,0.0,0.0
9240,2309.75,84.0125,90.2415,146.387,100.4,100.011,0.00149419,0.201212,20.7583,230.082,0.0305061,0.0,0.0
9270,2317.25,84.4343,89.9874,146.923,100.236,98.3953,0.00145291,0.200009,20.76,229.722,0.145561,0.0,0.0
9300,2324.75,84.3767,90.0593,147.316,100.109,99.2173,0.00173382,0.200886,20.7624,229.152,0.0702578,0.0,0.0
9330,2332.25,84.0121,89.8544,150.183,100.042,99.4548,0.00155375,0.197847,20.7584,228.661,0.0462359,0.0,0.0
9360,2339.75,84.1113,89.8593,147.587,99.9939,99.4619,0.00136546,0.201435,20.7612,228.191,0.0418884,0.0,0.0
9390,2347.25,84.0182,90.0355,145.223,99.9911,99.2937,0.00144299,0.200975,20.7599,227.761,0.0549553,0.0,0.0
9420,2354.75,84.2545,89.727,147.383,99.9706,99.7135,0.00144639,0.20221,20.7585,227.24,0.0202146,0.0,0.0
9450,2362.25,84.2976,89.698,147.297,99.9911,98.7293,0.00141893,0.202206,20.7578,226.73,0.0997154,0.0,0.0
9480,2369.75,84.1764,89.5373,150.185,100.045,99.6229,0.00121086,0.204499,20.7577,226.279,0.0331889,0.0,0.0
9510,2377.25,83.9382,89.6615,146.032,100.1,100.043,0.00149666,0.205629,20.7537,225.749,0.00448862,0.0,0.0
9540,2384.75,84.2189,90.1208,144.591,100.131,98.5952,0.00168483,0.209818,20.7506,225.198,0.121376,0.0,0.0
9570,2392.25,84.0827,89.9821,149.776,100.146,98.7716,0.00147631,0.209535,20.7509,224.728,0.10849,0.0,0.0
9600,2399.75,84.5374,90.581,146.306,100.159,99.3901,0.00185834,0.208484,20.7493,224.228,0.0604994,0.0,0.0
9630,2407.25,84.9455,90.5853,146.786,100.144,99.3913,0.0015871,0.21399,20.7476,223.677,0.0592277,0.0,0.0
9660,2414.75,85.0677,90.9952,142.481,100.18,100.058,0.00150729,0.213652,20.7452,223.247,0.00955711,0.0,0.0
9690,2422.25,85.1718,91.0756,145.435,100.206,99.1514,0.00137627,0.213429,20.7467,222.666,0.083071,0.0,0.0
9720,2429.75,84.8473,90.5857,148.451,100.286,99.6912,0.00128248,0.216612,20.7427,222.216,0.0467067,0.0,0.0
9750,2437.25,85.2425,91.3224,150.278,100.352,99.3772,0.00153638,0.215341,20.7436,221.615,0.0766457,0.0,0.0
9780,2444.75,85.7869,92.2753,153.09,100.487,100.181,0.00163571,0.218625,20.7399,221.095,0.023906,0.0,0.0
9810,2452.25,85.9461,92.6296,146.965,100.604,99.2655,0.00160838,0.219009,20.7385,220.605,0.105174,0.0,0.0
9840,2459.75,85.9539,92.3081,148.628,100.758,99.7746,0.00149612,0.216816,20.7402,220.104,0.0770099,0.0,0.0
9870,2467.25,85.4006,92.3998,145.313,100.854,100.726,0.00175607,0.215336,20.7414,219.524,0.00996282,0.0,0.0
9900,2474.75,86.1694,91.8473,144.987,100.958,100.54,0.00159236,0.217919,20.7393,218.993,0.0325262,0.0,0.0
9930,2482.25,85.7814,92.1698,146.836,101.024,100.198,0.0013544,0.216656,20.742,218.543,0.0644634,0.0,0.0
9960,2489.75,86.0376,92.0052,148.135,101.043,99.7546,0.00171531,0.220612,20.7376,217.952,0.100755,0.0,0.0
9990,2497.25,86.3581,92.8815,150.869,100.986,99.7182,0.00162455,0.222153,20.7337,217.422,0.0991942,0.0,0.0
10020,2504.75,85.8866,92.7623,145.014,100.859,99.4454,0.001186,0.22487,20.7308,216.861,0.110822,0.0,0.0
10050,2512.25,86.4146,91.9668,147.185,100.706,100.439,0.00152658,0.224705,20.7323,216.371,0.0208606,0.0,0.0
10080,2519.75,86.0993,92.4016,149.947,100.478,98.6034,0.00180404,0.225839,20.7316,215.791,0.147888,0.0,0.0
10110,2527.25,86.6838,93.1197,141.773,100.284,99.1232,0.00149026,0.223975,20.7326,215.26,0.0914425,0.0,0.0
10140,2534.75,86.7429,92.7234,149.896,100.362,100.072,0.00154398,0.225971,20.7292,214.74,0.022704,0.0,0.0
10170,2542.25,87.0862,92.7721,149.503,100.625,99.7793,0.00125164,0.224334,20.73,214.189,0.066241,0.0,0.0
10200,2549.75,86.9689,93.0311,151.534,100.876,100.126,0.00141971,0.225241,20.7304,213.639,0.0585747,0.0,0.0
10230,2557.25,87.1819,93.1525,148.69,100.951,99.6994,0.00157052,0.227729,20.7277,213.098,0.097938,0.0,0.0
10260,2564.75,87.0669,92.8967,143.873,100.844,99.3572,0.00164833,0.229214,20.7233,212.588,0.116617,0.0,0.0
10290,2572.25,87.1054,93.7502,147.235,100.574,99.6206,0.00177618,0.232353,20.7214,212.017,0.074788,0.0,0.0
10320,2579.75,87.3675,93.9413,144.365,100.796,99.5277,0.00161,0.233364,20.72,211.467,0.0994261,0.0,0.0
10350,2587.25,87.136,93.6956,142.211,101.062,99.8887,0.00137164,0.232329,20.7193,210.906,0.0917173,0.0,0.0
10380,2594.75,87.3953,93.3243,142.034,101.345,100.32,0.00159112,0.229832,20.7241,210.406,0.0797594,0.0,0.0
10410,2602.25,88.1181,94.6651,149.469,101.46,99.3278,0.00159865,0.231325,20.7234,209.866,0.166799,0.0,0.0
10440,2609.75,88.1966,94.4616,148.848,101.406,99.8993,0.00136721,0.231861,20.7225,209.235,0.117557,0.0,0.0
10470,2617.25,88.0505,94.8781,146.01,101.178,100.892,0.00124726,0.23375,20.7198,208.725,0.0222402,0.0,0.0
10500,2624.75,88.1729,95.0105,147.553,100.853,99.8793,0.00124901,0.234911,20.7175,208.144,0.0761757,0.0,0.0
10530,2632.25,88.5393,94.836,144.342,100.472,100.091,0.00146625,0.2365,20.7153,207.604,0.0297984,0.0,0.0
10560,2639.75,88.8875,94.8091,144.789,100.161,98.5811,0.00135169,0.236541,20.7151,206.993,0.124857,0.0,0.0
10590,2647.25,88.3953,94.8448,146.921,99.9448,97.3347,0.00148262,0.234918,20.7147,206.483,0.207778,0.0,0.0
10620,2654.75,88.3192,95.2974,142.444,99.819,98.2848,0.00173072,0.236176,20.7146,205.922,0.121614,0.0,0.0
10650,2662.25,88.7907,94.827,142.133,99.7877,99.2796,0.00152954,0.237431,20.7125,205.322,0.0400839,0.0,0.0
10680,2669.75,88.3304,95.3453,143.356,99.7944,98.7869,0.00147396,0.237507,20.7121,204.861,0.0796751,0.0,0.0
10710,2677.25,89.0291,95.0824,148.913,99.8047,98.6834,0.00163973,0.238362,20.7123,204.211,0.0887138,0.0,0.0
10740,2684.75,88.5649,94.8512,144.576,99.8047,99.2619,0.00163126,0.235701,20.7125,203.68,0.0428175,0.0,0.0
10770,2692.25,88.6278,94.7495,151.119,99.8119,99.3713,0.00158966,0.239605,20.7121,203.09,0.0347322,0.0,0.0
10800,2699.75,88.8733,94.7495,146.43,99.817,98.5129,0.00154062,0.23507,20.713,202.559,0.103256,0.0,0.0
10830,2707.25,88.5144,94.2708,153.019,99.8004,98.5399,0.00144444,0.23409,20.718,201.969,0.099794,0.0,0.0
10860,2714.75,88.4401,94.8573,148.327,99.7881,98.6258,0.00145441,0.236321,20.718,201.418,0.0919911,0.0,0.0
10890,2722.25,88.2811,94.3522,142.126,99.7877,97.6192,0.00151402,0.23593,20.7158,200.918,0.172505,0.0,0.0
10920,2729.75,88.5775,94.2987,149.455,99.7853,98.6117,0.00162151,0.235083,20.7172,200.358,0.0928976,0.0,0.0
10950,2737.25,88.6953,94.5219,146.742,99.7667,99.0526,0.00180993,0.234746,20.7176,199.797,0.0564014,0.0,0.0
10980,2744.75,88.4634,94.5914,141.472,99.762,99.0773,0.00159649,0.234679,20.7163,199.237,0.0540713,0.0,0.0
11010,2752.25,87.6423,93.6987,147.259,99.7723,98.3224,0.00143011,0.231541,20.7179,198.656,0.114936,0.0,0.0
11040,2759.75,88.1026,93.3371,151.107,99.8229,98.1166,0.00182589,0.2309,20.7191,198.146,0.135371,0.0,0.0
11070,2767.25,87.9271,93.9976,142.918,99.9049,98.0308,0.0018173,0.227621,20.7188,197.595,0.148683,0.0,0.0
11100,2774.75,88.0429,94.4068,144.094,100.056,98.0414,0.00156574,0.237184,20.7157,197.035,0.159676,0.0,0.0
11130,2782.25,88.0978,94.507,141.607,100.285,99.2514,0.00176455,0.235707,20.7152,196.564,0.0813584,0.0,0.0
11160,2789.75,88.0223,94.4538,151.47,100.565,99.7206,0.00168946,0.233103,20.7168,195.884,0.0662038,0.0,0.0
11190,2797.25,88.2143,94.5234,147.902,100.897,98.206,0.00162693,0.230602,20.7184,195.413,0.212218,0.0,0.0
11220,2804.75,88.5706,94.4782,143.503,101.182,99.7311,0.00160056,0.231171,20.7226,194.853,0.113392,0.0,0.0
11250,2812.25,88.4106,95.0043,144.386,101.382,100.641,0.00159628,0.235181,20.7175,194.363,0.057587,0.0,0.0
11280,2819.75,88.7368,94.7777,146.385,101.421,100.737,0.00157797,0.235448,20.7153,193.762,0.0531928,0.0,0.0
11310,2827.25,88.6996,94.6569,147.542,101.319,100.147,0.00150074,0.233258,20.7189,193.242,0.091337,0.0,0.0
11340,2834.75,88.3627,94.8771,147.811,101.131,98.9292,0.00163358,0.234631,20.7179,192.771,0.172853,0.0,0.0
11370,2842.25,88.7085,94.7509,145.852,100.853,99.8405,0.00159018,0.235712,20.7131,192.161,0.0792572,0.0,0.0
11400,2849.75,88.4793,94.4914,146.658,100.564,100.2,0.00160449,0.235724,20.7106,191.58,0.0284276,0.0,0.0
11430,2857.25,88.1349,94.6425,144.269,100.637,99.3313,0.00171134,0.235738,20.7113,191.03,0.102561,0.0,0.0
11460,2864.75,88.2692,94.9364,145.232,100.852,99.4289,0.00148617,0.236762,20.7114,190.539,0.111599,0.0,0.0
11490,2872.25,88.4071,94.6821,148.834,100.817,99.7546,0.00167604,0.240428,20.7071,189.889,0.0831766,0.0,0.0
11520,2879.75,88.9654,95.7531,145.495,100.55,98.9856,0.00157875,0.240598,20.7069,189.358,0.12314,0.0,0.0
11550,2887.25,88.6192,95.1141,145.096,100.248,98.9586,0.00181929,0.240238,20.7063,188.708,0.101612,0.0,0.0
11580,2894.75,88.9359,95.1687,144.436,100.319,99.2643,0.00166003,0.241301,20.7077,188.187,0.0829988,0.0,0.0
11610,2902.25,89.2875,95.2715,151.281,100.572,99.0432,0.0016076,0.243152,20.705,187.617,0.120272,0.0,0.0
11640,2909.75,88.7883,95.773,144.907,100.776,99.2631,0.00165607,0.243825,20.7042,187.086,0.118785,0.0,0.0
11670,2917.25,89.3763,95.5365,144.167,100.903,99.5536,0.00194402,0.244861,20.7045,186.466,0.105673,0.0,0.0
11700,2924.75,88.8039,95.1516,144.196,100.972,98.9362,0.00145799,0.246408,20.7027,185.885,0.159931,0.0,0.0
11730,2932.25,89.1176,95.5732,148.604,100.98,98.9703,0.00146732,0.242458,20.7077,185.275,0.157841,0.0,0.0
11760,2939.75,89.2842,95.4136,144.917,100.99,99.1056,0.00141667,0.24419,20.7022,184.745,0.147889,0.0,0.0
11790,2947.25,88.9933,95.3038,148.7,100.995,99.4619,0.00151308,0.245948,20.7017,184.214,0.120082,0.0,0.0
11820,2954.75,88.8922,95.2454,143.265,100.99,98.2824,0.00156236,0.243376,20.7022,183.554,0.213404,0.0,0.0
11850,2962.25,88.7099,95.1474,146.577,100.995,99.2549,0.00177075,0.244819,20.7004,182.963,0.136497,0.0,0.0
11880,2969.75,89.0366,95.0814,146.387,100.999,97.9461,0.00173479,0.245148,20.7007,182.403,0.241024,0.0,0.0
11910,2977.25,88.8982,94.9931,150.048,101.019,98.7587,0.00175362,0.247017,20.7012,181.782,0.177665,0.0,0.0
11940,2984.75,89.1369,95.2623,147.538,100.968,97.7697,0.00182413,0.251927,20.6965,181.162,0.252746,0.0,0.0
11970,2992.25,88.8436,95.2704,145.291,100.948,99.3419,0.00184386,0.253286,20.6937,180.531,0.125894,0.0,0.0
12000,2999.75,88.9886,95.1773,142.84,100.918,97.8497,0.00170735,0.25236,20.6932,179.971,0.242419,0.0,0.0
12030,3007.25,88.958,95.0322,142.705,100.826,98.2695,0.00151365,0.257259,20.6881,179.35,0.201628,0.0,0.0
12060,3014.75,89.4389,96.1814,147.837,100.691,98.6575,0.00177596,0.257087,20.686,178.709,0.160201,0.0,0.0
12090,3022.25,89.5238,96.3747,144.44,100.51,97.6357,0.00183961,0.257572,20.685,178.129,0.227802,0.0,0.0
12120,3029.75,89.8004,95.8187,141.528,100.291,98.2107,0.00188202,0.257891,20.6843,177.539,0.164552,0.0,0.0
12150,3037.25,89.9911,96.5403,143.301,100.392,98.0637,0.00196398,0.256665,20.6863,176.888,0.18427,0.0,0.0
12180,3044.75,89.8553,96.1654,145.116,100.638,97.5851,0.0021027,0.254182,20.6888,176.317,0.241848,0.0,0.0
12210,3052.25,89.9277,96.6355,145.013,100.921,97.5122,0.00186842,0.254376,20.6909,175.837,0.26976,0.0,0.0
12240,3059.75,90.1449,96.5616,144.493,100.925,97.6663,0.0019646,0.252167,20.6909,175.167,0.257675,0.0,0.0
12270,3067.25,89.9178,96.7561,142.511,100.639,97.9743,0.00169275,0.253124,20.6914,174.556,0.210687,0.0,0.0
12300,3074.75,90.0742,96.6628,144.114,100.67,97.7827,0.00171927,0.249906,20.6919,174.006,0.228501,0.0,0.0
12330,3082.25,89.8035,96.4982,147.616,100.914,98.0884,0.0020392,0.247287,20.6974,173.465,0.222948,0.0,0.0
12360,3089.75,89.6679,96.6652,145.231,101.169,97.5828,0.00179475,0.245591,20.6967,172.905,0.283392,0.0,0.0
12390,3097.25,89.6204,95.9397,144.176,101.385,98.8598,0.00167579,0.243084,20.7015,172.374,0.197999,0.0,0.0
12420,3104.75,89.7158,95.9939,142.671,101.5,98.8139,0.00166419,0.241762,20.7025,171.804,0.210555,0.0,0.0
12450,3112.25,89.719,95.3982,145.333,101.397,98.9539,0.00172988,0.237513,20.7068,171.333,0.191481,0.0,0.0
12480,3119.75,89.376,95.5006,146.953,101.032,99.3807,0.00162301,0.235277,20.7091,170.753,0.12935,0.0,0.0
12510,3127.25,89.5916,95.3664,141.576,100.576,98.4235,0.00160957,0.234172,20.7092,170.242,0.169891,0.0,0.0
12540,3134.75,89.4324,95.5187,143.658,100.144,96.5092,0.00172263,0.230355,20.7151,169.762,0.290272,0.0,0.0
12570,3142.25,89.1121,94.8497,143.96,99.8649,97.8191,0.00170675,0.229857,20.7164,169.242,0.162512,0.0,0.0
12600,3149.75,89.1736,94.9036,145.733,99.8696,97.2629,0.00157818,0.227853,20.7169,168.701,0.207657,0.0,0.0
12630,3157.25,89.4786,95.1391,146.864,100.125,97.0677,0.00151322,0.226701,20.7203,168.231,0.243503,0.0,0.0
12660,3164.75,89.1209,94.8438,144.447,100.481,98.9468,0.00199838,0.226767,20.7182,167.75,0.120779,0.0,0.0
12690,3172.25,88.7555,94.9209,143.637,100.798,99.2667,0.00165783,0.227083,20.7179,167.24,0.120201,0.0,0.0
12720,3179.75,88.6509,94.9883,142.801,101.02,98.2036,0.0016679,0.228338,20.7154,166.699,0.222008,0.0,0.0
12750,3187.25,89.0909,94.5216,147.935,101.014,98.106,0.00165116,0.227638,20.7137,166.219,0.229384,0.0,0.0
12780,3194.75,88.6135,94.3094,148.183,100.895,96.6562,0.00172522,0.227391,20.7154,165.779,0.336961,0.0,0.0
12810,3202.25,88.4634,94.396,145.684,100.586,98.5164,0.00149662,0.22293,20.7174,165.288,0.163257,0.0,0.0
12840,3209.75,88.5903,92.9573,147.458,100.259,98.4224,0.00150697,0.214812,20.7275,164.898,0.145139,0.0,0.0
12870,3217.25,87.5151,92.517,145.166,100.504,99.3443,0.00146837,0.203764,20.7377,164.608,0.0911279,0.0,0.0
12900,3224.75,87.2039,91.3483,146.472,100.766,98.4506,0.00150412,0.188221,20.7518,164.428,0.182518,0.0,0.0
12930,3232.25,86.2665,90.1744,147.118,100.897,99.4666,0.00166983,0.166454,20.77,164.167,0.112108,0.0,0.0
12960,3239.75,85.5195,89.5861,150.914,100.804,99.944,0.00234342,0.151723,20.7936,163.967,0.0673026,0.0,0.0
12990,3247.25,84.6722,88.0886,145.167,100.548,100.377,0.00223882,0.142531,20.8025,163.877,0.0133507,0.0,0.0
13020,3254.75,84.0598,87.0857,152.939,100.572,100.481,0.00207932,0.135319,20.8159,163.587,0.00705413,0.0,0.0
13050,3262.25,83.0805,86.5424,152.326,100.76,100.693,0.00246673,0.13036,20.8193,163.367,0.00519392,0.0,0.0
13080,3269.75,82.3653,85.9949,150.2,100.913,100.2,0.00290328,0.126262,20.825,163.267,0.0556319,0.0,0.0
13110,3277.25,82.4414,86.0709,152.138,101.022,100.379,0.00253191,0.123941,20.8302,163.197,0.0501318,0.0,0.0
13140,3284.75,82.0845,85.2138,147.271,101.091,100.932,0.00321181,0.124761,20.83,163.036,0.0123714,0.0,0.0
13170,3292.25,81.2488,84.5359,153.077,101.14,100.886,0.00308107,0.122305,20.8313,162.946,0.0197188,0.0,0.0
13200,3299.75,80.9073,83.9104,150.668,101.189,101.58,0.00332608,0.118919,20.8393,162.796,-0.0302206,0.0,0.0
13230,3307.25,80.5124,83.4381,152.958,101.239,101.17,0.00324637,0.11906,20.84,162.626,0.00531084,0.0,0.0
13260,3314.75,79.4232,83.4145,160.368,101.252,101.486,0.00326797,0.117989,20.8454,162.506,-0.0180956,0.0,0.0
13290,3322.25,79.4606,82.5019,156.017,101.303,101.593,0.00392852,0.116582,20.8424,162.276,-0.0224127,0.0,0.0
13320,3329.75,79.1051,82.5323,155.44,101.324,101.75,0.00368537,0.114704,20.8441,162.226,-0.0329252,0.0,0.0
13350,3337.25,79.0479,82.6138,148.976,101.26,101.421,0.00374602,0.115845,20.8427,162.126,-0.0124772,0.0,0.0
13380,3344.75,78.9042,82.5723,151.292,101.212,101.415,0.00416214,0.117935,20.8412,162.036,-0.015736,0.0,0.0
13410,3352.25,78.8139,82.4321,153.477,101.096,101.542,0.00421423,0.112475,20.8448,161.895,-0.0345617,0.0,0.0
13440,3359.75,78.9736,82.3701,152.553,101.025,100.874,0.00411125,0.112458,20.8479,161.825,0.01172,0.0,0.0
13470,3367.25,78.7565,82.5371,151.056,100.931,101.202,0.0039366,0.112499,20.8502,161.655,-0.0210982,0.0,0.0
13500,3374.75,78.1661,82.0839,154.499,100.844,101.209,0.00441487,0.111095,20.8497,161.525,-0.02839,0.0,0.0
13530,3382.25,78.713,82.0583,150.638,100.726,100.31,0.00476882,0.112556,20.8491,161.465,0.0324899,0.0,0.0
13560,3389.75,78.26,82.1023,149.818,100.583,100.645,0.00446494,0.11198,20.8487,161.285,-0.00481102,0.0,0.0
13590,3397.25,78.162,82.1818,149.598,100.453,100.071,0.00512275,0.112205,20.8483,161.225,0.0299439,0.0,0.0
13620,3404.75,78.4282,82.1874,148.955,100.703,100.13,0.00527915,0.110592,20.8483,161.175,0.0447954,0.0,0.0
13650,3412.25,77.5473,81.8978,149.181,100.838,100.488,0.00484769,0.11041,20.851,161.135,0.0272981,0.0,0.0
13680,3419.75,77.1305,80.5328,157.092,100.784,100.519,0.0047507,0.109957,20.8513,160.955,0.0206561,0.0,0.0
13710,3427.25,76.6367,80.1376,153.212,100.567,100.261,0.00469721,0.107266,20.8538,160.855,0.0239153,0.0,0.0
13740,3434.75,76.7921,80.3371,151.171,100.289,100.326,0.00424373,0.107099,20.8571,160.805,-0.0028974,0.0,0.0
13770,3442.25,76.8375,79.991,158.207,100.276,98.8516,0.00482869,0.108439,20.8578,160.674,0.112368,0.0,0.0
13800,3449.75,76.2122,79.9492,154.423,100.521,100.468,0.00485887,0.109208,20.8523,160.524,0.00410976,0.0,0.0
13830,3457.25,76.0502,79.7936,150.73,100.783,100.26,0.00472389,0.107665,20.8528,160.454,0.0408279,0.0,0.0
13860,3464.75,76.4003,80.1353,150.638,100.947,100.641,0.00531246,0.107601,20.8526,160.394,0.0238015,0.0,0.0
13890,3472.25,75.942,79.4743,156.441,100.943,101.026,0.00488057,0.106041,20.8534,160.284,-0.00644735,0.0,0.0
13920,3479.75,76.0306,79.7519,156.236,100.794,101.372,0.00478013,0.105873,20.8559,160.184,-0.0448208,0.0,0.0
13950,3487.25,76.1927,80.0864,152.217,100.507,100.805,0.0049602,0.106817,20.8549,160.094,-0.0232111,0.0,0.0
13980,3494.75,75.9708,79.4941,154.309,100.125,99.6053,0.00521346,0.104913,20.8582,160.014,0.0408502,0.0,0.0
14010,3502.25,75.8218,79.4358,151.039,99.8332,99.483,0.00472753,0.10498,20.8577,159.894,0.0275919,0.0,0.0
14040,3509.75,75.6735,78.9995,152.162,99.7458,100.033,0.00487636,0.106235,20.8573,159.814,-0.0226037,0.0,0.0
14070,3517.25,75.2417,79.4543,152.855,99.8597,99.2137,0.00540907,0.10541,20.8572,159.794,0.0509585,0.0,0.0
14100,3524.75,75.3649,79.459,150.02,100.162,99.2937,0.00529027,0.105937,20.856,159.594,0.0683688,0.0,0.0
14130,3532.25,75.576,79.4167,154.709,100.568,100.788,0.00513765,0.105729,20.858,159.473,-0.0171692,0.0,0.0
14136,3533.75,75.0215,79.0442,157.576,100.689,101.003,0.00503543,0.105702,20.8572,159.533,-0.0244973,0.0,0.0