File: 01_Data/Engineered_Wood_Table/Cone/Engineered_Wood_Table_Cone_HF75Scan_230626_R3.csv
Names,Time,Stack TC,Smoke TC,Exh Press,Smoke Comp,Smoke Meas,CO Meter,CO2 Meter,O2 Meter,Sample Mass,Ext Coeff,Start Test,Flame Verif
Chan Gain,,500,500,1,1,1,1,1,1,1,1,1.0,1.0
Offset,,0,0,0.135513,0,0,0,0,0,0,0,0.0,0.0
Gain,,1,1,25.011,13.0019,38.5709,1,1,1,1.00084,0.895081,1.0,1.0
Units,sec,C,C,Pa,%,%,%,%,%,g,/m,,
Baseline,,63.8218,67.2683,158.159,100.46,100.189,0.000443975,0.0445865,20.9419,-449.178,0.021232,,
35,8.5,63.3378,66.681,148.754,100.984,98.234,0.000562554,0.0603282,20.9259,419.601,0.216785,0.0,1.0
70,17.25,73.8851,87.8324,141.241,100.995,91.4798,0.00245706,0.177358,20.8778,417.519,0.776914,0.0,0.0
105,26,83.2044,103.27,132.307,100.999,90.3216,0.00576872,0.6451,20.2829,415.247,0.877299,0.0,0.0
140,34.75,93.2223,116.006,132.052,101.002,92.4486,0.00727214,0.81366,20.0875,412.695,0.694791,0.0,0.0
175,43.5,98.2853,120.432,129.239,100.977,92.7817,0.00807343,0.826402,19.9896,410.573,0.664576,0.0,0.0
210,52.25,101.378,121.631,131.939,100.996,94.1247,0.00747806,0.721254,20.0915,408.622,0.553247,0.0,0.0
245,61,102.698,120.685,136.147,100.974,95.6326,0.00610174,0.627613,20.1984,406.93,0.426705,0.0,0.0
280,69.75,101.752,116.947,144.97,100.986,95.4949,0.00558985,0.549272,20.2887,405.309,0.438946,0.0,0.0
315,78.5,100.764,113.817,131.051,100.979,94.9334,0.00473776,0.477347,20.383,403.968,0.484752,0.0,0.0
350,87.25,99.6635,111.959,139.648,100.983,96.2011,0.00437135,0.442467,20.4416,402.667,0.380875,0.0,0.0
385,96,100.138,110.849,140.592,100.982,96.878,0.00410529,0.416507,20.4727,401.346,0.325798,0.0,0.0
420,104.75,98.797,109.647,146.974,100.928,96.5813,0.00373812,0.392155,20.5047,400.135,0.345616,0.0,0.0
455,113.5,98.6713,108.661,148.941,100.805,97.7396,0.00363207,0.380918,20.5243,398.934,0.242472,0.0,0.0
490,122.25,98.2323,107.637,139.047,100.614,96.28,0.00321106,0.375296,20.5384,397.703,0.345728,0.0,0.0
525,131,97.526,107.214,140.355,100.409,96.6425,0.00345965,0.368278,20.5473,396.632,0.300164,0.0,0.0
560,139.75,97.2351,106.917,138.876,100.179,96.1011,0.00327009,0.361966,20.5527,395.351,0.326292,0.0,0.0
595,148.5,96.7297,106.538,143.4,100.261,97.2946,0.0030554,0.35707,20.562,394.25,0.235843,0.0,0.0
630,157.25,96.8637,106.376,146.117,100.336,96.9156,0.0030492,0.350082,20.5677,393.159,0.272328,0.0,0.0
665,166,96.6346,105.293,138.271,100.381,97.5901,0.00277767,0.343939,20.5793,392.038,0.221414,0.0,0.0
700,174.75,96.1487,104.978,141.627,100.461,97.3264,0.00271855,0.335207,20.589,390.977,0.248923,0.0,0.0
735,183.5,96.0927,104.549,141.599,100.567,97.8337,0.00229967,0.331609,20.5953,389.896,0.216347,0.0,0.0
770,192.25,95.7368,103.795,141.723,100.713,98.5565,0.00247262,0.325183,20.5967,388.915,0.169918,0.0,0.0
805,201,95.4785,103.576,143.688,100.816,98.8307,0.00265664,0.320856,20.6031,387.884,0.156138,0.0,0.0
840,209.75,94.8673,103.136,143.895,100.876,97.463,0.0025564,0.315822,20.61,386.874,0.270255,0.0,0.0
875,218.5,94.7917,103.062,141.045,100.912,98.7413,0.00252163,0.313832,20.6143,385.783,0.170754,0.0,0.0
910,227.25,94.9659,102.425,139.429,100.922,98.7636,0.00221237,0.311017,20.618,384.812,0.169716,0.0,0.0
945,236,94.632,102.09,137.162,100.881,98.4046,0.00208361,0.306619,20.6213,383.821,0.19513,0.0,0.0
980,244.75,94.3638,101.857,145.86,100.822,98.4823,0.00209529,0.301702,20.6268,382.88,0.18433,0.0,0.0
1015,253.5,93.8437,101.87,142.127,100.722,99.0026,0.00213199,0.298502,20.6333,381.889,0.13517,0.0,0.0
1050,262.25,93.6911,101.088,143.679,100.66,98.507,0.00210646,0.294004,20.6379,381.029,0.169773,0.0,0.0
1085,271,93.3839,99.872,145.088,100.509,98.9437,0.00200464,0.288744,20.6456,380.048,0.123242,0.0,0.0
1120,279.75,92.6633,100.063,146.248,100.35,98.6189,0.00200791,0.285468,20.6466,379.037,0.136594,0.0,0.0
1155,288.5,92.7963,100.177,141.7,100.226,98.6671,0.00149375,0.284882,20.6495,378.256,0.12306,0.0,0.0
1190,297.25,92.7288,99.6166,144.604,100.059,99.0638,0.00182146,0.283718,20.6528,377.376,0.0784603,0.0,0.0
1225,306,92.679,99.8338,143.101,99.8837,98.9025,0.00197823,0.279561,20.6556,376.485,0.0775095,0.0,0.0
1260,314.75,92.3376,99.1497,147.783,99.7532,98.5894,0.00179021,0.274618,20.6622,375.664,0.0921363,0.0,0.0
1295,323.5,92.0157,99.2126,143.344,99.6873,98.128,0.00194046,0.271015,20.6651,374.764,0.123785,0.0,0.0
1330,332.25,92.4304,98.3286,144.491,99.656,98.7613,0.0019531,0.271552,20.6655,373.883,0.0708069,0.0,0.0
1365,341,91.7849,98.944,148.166,99.7373,98.2128,0.00176759,0.266286,20.6699,373.032,0.120943,0.0,0.0
1400,349.75,91.8839,98.214,148.281,99.9075,98.1904,0.00161939,0.265477,20.6748,372.241,0.13612,0.0,0.0
1435,358.5,90.8937,98.063,140.809,100.086,98.8649,0.00149939,0.263272,20.6808,371.371,0.0964219,0.0,0.0
1470,367.25,91.2582,98.0352,142.836,100.125,98.4541,0.00170244,0.257637,20.6844,370.52,0.132134,0.0,0.0
1505,376,90.6858,97.1923,146.603,100.164,98.7177,0.00180685,0.257376,20.6851,369.889,0.114183,0.0,0.0
1540,384.75,90.7457,96.7284,149.228,100.23,98.733,0.00193401,0.254552,20.6872,368.949,0.118128,0.0,0.0
1575,393.5,90.2046,97.1153,145.066,100.305,99.1015,0.00179323,0.251038,20.692,368.218,0.0947566,0.0,0.0
1610,402.25,90.5236,96.7997,142.4,100.396,99.2427,0.00186469,0.249176,20.6928,367.497,0.090744,0.0,0.0
1645,411,89.8938,96.4192,148.725,100.488,99.7159,0.0014424,0.248626,20.6948,366.657,0.0605616,0.0,0.0
1680,419.75,90.6107,96.6963,147.048,100.641,99.6629,0.00167111,0.244561,20.6992,365.856,0.076692,0.0,0.0
1715,428.5,90.067,96.513,142.247,100.768,99.7807,0.00127401,0.243949,20.7004,365.105,0.0772926,0.0,0.0
1750,437.25,90.1375,97.0396,148.257,100.889,99.683,0.00176511,0.245027,20.7033,364.325,0.094408,0.0,0.0
1785,446,90.0477,96.7548,153.232,100.974,99.2898,0.00157917,0.241575,20.7036,363.554,0.132072,0.0,0.0
1820,454.75,89.8819,96.1652,145.001,101.014,100.796,0.00135227,0.239844,20.7077,362.834,0.0169081,0.0,0.0
1855,463.5,89.4539,96.1239,149.95,101.043,100.235,0.00133581,0.238549,20.7084,362.043,0.0630179,0.0,0.0
1890,472.25,89.893,95.3634,143.811,101.028,99.6771,0.00152444,0.235745,20.7122,361.292,0.105671,0.0,0.0
1925,481,89.6885,96.0603,147.503,100.965,99.4899,0.00151762,0.233271,20.7153,360.592,0.115523,0.0,0.0
1960,489.75,89.5315,95.5044,144.259,100.877,100.02,0.00159225,0.233676,20.7188,359.881,0.067041,0.0,0.0
1995,498.5,89.1294,95.5168,143.249,100.848,99.8442,0.00147259,0.230439,20.722,359.08,0.0785048,0.0,0.0
2030,507.25,88.4633,94.8785,146.246,100.762,100.122,0.00138136,0.230429,20.7217,358.35,0.0500137,0.0,0.0
2065,516,88.9601,94.7182,149.511,100.7,99.4675,0.00163454,0.228472,20.7242,357.659,0.0966808,0.0,0.0
2100,524.75,88.8312,95.2515,149.763,100.622,100.154,0.00146098,0.226113,20.7261,356.979,0.0366004,0.0,0.0
2135,533.5,88.961,94.386,149.658,100.533,100.024,0.00154265,0.225252,20.7286,356.238,0.0398194,0.0,0.0
2170,542.25,88.4478,94.5827,146.346,100.485,100.237,0.00161639,0.223127,20.73,355.587,0.0193622,0.0,0.0
2205,551,88.8279,94.5306,146.043,100.446,99.2769,0.00175501,0.222797,20.732,354.847,0.0919532,0.0,0.0
2240,559.75,88.4173,94.4642,147.748,100.376,100.086,0.00131043,0.222309,20.7357,354.146,0.0227348,0.0,0.0
2275,568.5,88.3282,94.3399,149.581,100.3,99.7559,0.0016682,0.221015,20.7357,353.436,0.0426704,0.0,0.0
2310,577.25,88.324,93.9071,145.932,100.203,99.7995,0.00143815,0.219552,20.7364,352.765,0.0316621,0.0,0.0
2345,586,87.6842,93.9145,145.404,100.076,99.6877,0.00156297,0.216783,20.7366,352.024,0.0305089,0.0,0.0
2380,594.75,88.0388,93.7825,143.093,99.9734,100.022,0.00126224,0.218792,20.7362,351.314,-0.00381271,0.0,0.0
2415,603.5,88.0236,93.8524,147.689,99.8373,98.6554,0.001213,0.217779,20.7375,350.683,0.0935071,0.0,0.0
2450,612.25,87.7255,94.5238,148.909,99.729,99.2816,0.00130914,0.217374,20.7374,350.033,0.0353044,0.0,0.0
2485,621,87.7024,93.5847,147.952,99.6782,98.952,0.00107985,0.216659,20.7388,349.362,0.0574124,0.0,0.0
2520,629.75,87.6264,93.5706,143.133,99.6587,98.6848,0.00149738,0.215396,20.7418,348.672,0.077111,0.0,0.0
2555,638.5,87.6831,93.6155,148.233,99.7449,98.8272,0.00118377,0.214546,20.7421,348.011,0.0725682,0.0,0.0
2590,647.25,87.7181,93.6827,151.543,99.877,98.7283,0.00153819,0.213515,20.7413,347.351,0.0908208,0.0,0.0
2625,656,86.8118,92.8238,147.741,100.049,99.703,0.00103273,0.209754,20.7425,346.66,0.0272179,0.0,0.0
2660,664.75,87.5207,93.4284,149.683,100.243,99.5558,0.0012476,0.21659,20.7442,346.029,0.0539932,0.0,0.0
2695,673.5,87.3855,93.4578,147.105,100.436,99.8525,0.00169027,0.216009,20.7392,345.369,0.045725,0.0,0.0
2730,682.25,87.5135,92.8882,146.06,100.586,100.058,0.00151332,0.212907,20.7431,344.768,0.0412599,0.0,0.0
2765,691,86.7535,92.8816,145.035,100.746,100.111,0.00136828,0.216755,20.7422,344.028,0.0496082,0.0,0.0
2800,699.75,87.4286,93.3467,149.875,100.857,100.234,0.00130673,0.217184,20.7423,343.337,0.0486659,0.0,0.0
2835,708.5,87.215,93.4699,145.103,100.896,99.9372,0.00130193,0.216935,20.7413,342.727,0.0749326,0.0,0.0
2870,717.25,87.3953,93.3796,148.338,100.876,99.9902,0.00160078,0.217856,20.7383,342.016,0.0692892,0.0,0.0
2905,726,87.3832,93.0607,144.986,100.819,99.9184,0.00147839,0.217081,20.7396,341.326,0.0704498,0.0,0.0
2940,734.75,87.197,93.1009,144.346,100.734,100.213,0.00154595,0.216994,20.7402,340.655,0.0407143,0.0,0.0
2975,743.5,87.5025,93.3237,151.182,100.639,100.384,0.001404,0.216796,20.7425,339.964,0.0198971,0.0,0.0
3010,752.25,87.5238,93.2994,146.765,100.542,99.8995,0.00115658,0.22014,20.7394,339.274,0.0503634,0.0,0.0
3045,761,87.3862,93.5805,146.051,100.389,99.5935,0.00115752,0.218621,20.7397,338.603,0.0624524,0.0,0.0
3080,769.75,87.2519,93.2805,145.362,100.244,100.113,0.00127808,0.216942,20.7396,337.983,0.0103302,0.0,0.0
3115,778.5,87.393,93.4507,145.378,100.161,100.08,0.00152901,0.217027,20.7416,337.232,0.00641821,0.0,0.0
3150,787.25,87.6514,93.252,149.419,100.345,99.6276,0.00143006,0.218674,20.7355,336.542,0.0563159,0.0,0.0
3185,796,87.8227,93.5169,148.338,100.613,99.7489,0.00119072,0.218822,20.7361,335.891,0.0677573,0.0,0.0
3220,804.75,87.5263,93.6851,148.393,100.825,100.128,0.00157861,0.219656,20.7373,335.22,0.0544664,0.0,0.0
3255,813.5,87.7374,93.5111,148.708,100.943,99.7795,0.00136701,0.218721,20.7391,334.51,0.0910391,0.0,0.0
3290,822.25,87.6341,93.7603,149.293,100.935,99.8654,0.00100143,0.219062,20.7401,333.879,0.0836628,0.0,0.0
3325,831,87.5348,94.0341,146.365,100.786,100.033,0.00100902,0.221411,20.7383,333.109,0.0589491,0.0,0.0
3360,839.75,87.8982,93.5293,150.624,100.549,100.021,0.00128199,0.221239,20.7374,332.408,0.0413353,0.0,0.0
3395,848.5,87.8057,93.2269,143.539,100.591,100.589,0.0011882,0.222198,20.7368,331.728,0.000146948,0.0,0.0
3430,857.25,87.5223,93.5445,145.05,100.697,99.2368,0.00131554,0.222644,20.7336,331.027,0.114697,0.0,0.0
3465,866,87.7047,93.8015,144.284,100.85,99.7312,0.00146208,0.223594,20.7322,330.276,0.0876115,0.0,0.0
3500,874.75,87.9729,94.6387,146.174,101.028,99.9702,0.00155177,0.224025,20.7353,329.566,0.0826191,0.0,0.0
3535,883.5,87.9491,93.9001,145.365,101.191,99.9655,0.00121424,0.223247,20.7305,328.845,0.0956526,0.0,0.0
3570,892.25,87.7267,94.2698,147.447,101.334,100.027,0.00138905,0.224419,20.732,328.124,0.101922,0.0,0.0
3605,901,88.0395,94.14,143.899,101.413,100.822,0.0013225,0.229479,20.7235,327.434,0.0458255,0.0,0.0
3640,909.75,88.3394,94.7211,144.233,101.44,100.53,0.00138968,0.228847,20.7238,326.673,0.0707113,0.0,0.0
3675,918.5,88.277,95.1168,146.734,101.423,99.7512,0.00156419,0.229642,20.7273,325.983,0.130518,0.0,0.0
3710,927.25,88.4475,94.9244,143.949,101.379,100.518,0.00134307,0.232683,20.7232,325.182,0.0669918,0.0,0.0
3745,936,88.4607,94.8731,142.383,101.373,100.392,0.00139709,0.233981,20.7223,324.461,0.0764056,0.0,0.0
3780,944.75,88.4906,95.0555,147.326,101.351,101.01,0.00125688,0.236966,20.7214,323.671,0.0265006,0.0,0.0
3815,953.5,88.6175,95.0442,143.315,101.335,100.45,0.00117861,0.23887,20.7166,322.93,0.0688522,0.0,0.0
3850,962.25,89.0699,96.1164,150.35,101.311,100.753,0.00131544,0.242475,20.7102,322.129,0.0433676,0.0,0.0
3885,971,89.7426,96.5692,144.204,101.318,99.9996,0.0013946,0.248678,20.7021,321.279,0.102818,0.0,0.0
3920,979.75,90.1524,96.5763,142.112,101.282,98.4211,0.00163217,0.252878,20.6968,320.418,0.225005,0.0,0.0
3955,988.5,90.2685,97.2395,143.063,101.275,98.9167,0.00162551,0.265773,20.6848,319.607,0.185017,0.0,0.0
3990,997.25,90.7607,97.4388,141.749,101.236,100.001,0.00154634,0.270473,20.672,318.837,0.0964182,0.0,0.0
4025,1006,90.2029,97.5026,146.372,101.205,100.53,0.00198859,0.2591,20.6792,318.036,0.0525086,0.0,0.0
4060,1014.75,89.7041,95.803,142.351,101.191,100.236,0.0015603,0.237999,20.6995,317.375,0.0744477,0.0,0.0
4095,1023.5,89.2508,94.9778,142.004,101.163,100.648,0.00157463,0.221521,20.7204,316.735,0.0400262,0.0,0.0
4130,1032.25,89.0326,94.597,146.108,101.153,100.407,0.00134858,0.210988,20.737,316.064,0.058165,0.0,0.0
4165,1041,88.4434,93.7108,147.925,101.15,100.649,0.001241,0.209244,20.743,315.454,0.0389794,0.0,0.0
4200,1049.75,87.64,93.5079,147.014,101.16,99.8748,0.00129754,0.209553,20.7413,314.833,0.100372,0.0,0.0
4235,1058.5,88.2591,94.0892,148.148,101.144,100.834,0.00128914,0.212291,20.7427,314.153,0.0240842,0.0,0.0
4270,1067.25,87.6945,93.9969,145.227,101.105,100.381,0.00143609,0.218239,20.7344,313.482,0.0564627,0.0,0.0
4305,1076,87.7343,93.9648,146.303,101.069,101.14,0.00143768,0.221096,20.7339,312.812,-0.00550363,0.0,0.0
4340,1084.75,88.0849,94.1473,151.27,101.031,100.709,0.00114632,0.223142,20.7298,312.041,0.0250527,0.0,0.0
4375,1093.5,87.7416,94.1335,146.842,100.97,100.339,0.00120994,0.227578,20.7258,311.25,0.0492324,0.0,0.0
4410,1102.25,87.9969,94.7186,139.401,100.937,99.1886,0.00147695,0.232193,20.7208,310.64,0.13718,0.0,0.0
4445,1111,87.817,94.5934,147.469,100.868,99.218,0.00151216,0.233091,20.7174,309.759,0.129509,0.0,0.0
4480,1119.75,88.1154,94.6269,144.169,100.815,97.556,0.00165259,0.237841,20.7103,309.069,0.25801,0.0,0.0
4515,1128.5,88.8027,95.0501,144.802,100.864,98.4129,0.00176301,0.240968,20.709,308.338,0.193144,0.0,0.0
4550,1137.25,89.0701,95.6531,147.108,100.95,100.454,0.00154819,0.242478,20.706,307.587,0.0386683,0.0,0.0
4585,1146,89.0428,95.6229,146.542,101.034,99.8372,0.00159424,0.242732,20.7067,306.847,0.0935654,0.0,0.0
4620,1154.75,89.1976,95.0333,141.493,101.144,100.433,0.00150414,0.243,20.7033,306.086,0.0554005,0.0,0.0
4655,1163.5,89.2052,95.5076,146.601,101.225,99.8725,0.00129211,0.241267,20.7058,305.405,0.105637,0.0,0.0
4690,1172.25,89.1183,95.3783,144.196,101.296,100.323,0.00178808,0.239594,20.7068,304.625,0.0757512,0.0,0.0
4725,1181,89.0136,94.8967,143.878,101.338,99.9678,0.00143921,0.237428,20.7091,303.894,0.106911,0.0,0.0
4760,1189.75,88.7795,95.3748,145.858,101.356,100.503,0.00114136,0.235655,20.7139,303.194,0.0663124,0.0,0.0
4795,1198.5,88.951,94.7064,145.185,101.386,100.028,0.00120167,0.232295,20.7168,302.553,0.105856,0.0,0.0
4830,1207.25,88.9494,94.95,147.585,101.409,100.044,0.00130846,0.232983,20.7165,301.732,0.106406,0.0,0.0
4865,1216,88.4847,95.1348,143.813,101.424,100.877,0.00111,0.228697,20.7181,301.072,0.0424702,0.0,0.0
4900,1224.75,88.5902,95.0347,147.346,101.403,100.646,0.00134796,0.228461,20.7208,300.471,0.058819,0.0,0.0
4935,1233.5,88.5609,94.4917,150.703,101.367,100.671,0.00130686,0.227826,20.7207,299.731,0.0541568,0.0,0.0
4970,1242.25,88.5843,94.4857,150.032,101.326,100.805,0.00148866,0.225843,20.7216,299.11,0.0405318,0.0,0.0
5005,1251,88.1963,93.8694,143.862,101.254,100.913,0.00123372,0.224668,20.7243,298.47,0.0264726,0.0,0.0
5040,1259.75,88.1514,94.1169,144.428,101.169,100.18,0.00155712,0.221478,20.7271,297.729,0.0771814,0.0,0.0
5075,1268.5,88.4802,94.2146,146.687,101.065,99.9301,0.00121417,0.2211,20.7262,297.109,0.0886296,0.0,0.0
5110,1277.25,88.2828,94.132,144.733,101.023,100.486,0.00143555,0.218724,20.7301,296.448,0.0418604,0.0,0.0
5145,1286,88.0668,94.0807,145.35,100.92,100.147,0.00185877,0.219262,20.7297,295.777,0.0604018,0.0,0.0
5180,1294.75,87.8161,93.8174,153.016,100.843,100.383,0.00123535,0.219116,20.7307,295.137,0.0358839,0.0,0.0
5215,1303.5,88.0758,94.1015,149.764,100.752,99.3145,0.00121211,0.219271,20.7283,294.536,0.112821,0.0,0.0
5250,1312.25,87.4308,93.3536,145.017,100.648,99.9031,0.001347,0.218167,20.7315,293.816,0.0582922,0.0,0.0
5285,1321,87.6549,93.2028,142.624,100.61,99.5888,0.00157308,0.216878,20.7334,293.185,0.0801217,0.0,0.0
5320,1329.75,87.1535,93.1562,144.949,100.553,99.9219,0.0013835,0.215465,20.7347,292.535,0.0494417,0.0,0.0
5355,1338.5,87.7219,93.0935,147.991,100.521,99.7359,0.00116908,0.213798,20.7342,291.924,0.0615591,0.0,0.0
5390,1347.25,87.4932,93.5127,145.183,100.511,99.6806,0.00150484,0.212063,20.7372,291.284,0.0651717,0.0,0.0
5425,1356,87.6496,93.4677,145.889,100.555,99.63,0.00125424,0.214613,20.7363,290.603,0.0725376,0.0,0.0
5460,1364.75,87.1007,93.1211,146.868,100.505,99.8136,0.00139099,0.209597,20.7381,290.073,0.0541745,0.0,0.0
5495,1373.5,87.1649,93.354,148.369,100.517,99.8477,0.00134179,0.210172,20.7412,289.372,0.0524509,0.0,0.0
5530,1382.25,87.2463,92.7422,149.356,100.565,99.8171,0.00118867,0.209702,20.7419,288.862,0.0586081,0.0,0.0
5565,1391,87.5242,93.372,150.574,100.607,100.7,0.0016094,0.208712,20.7441,288.211,-0.00727735,0.0,0.0
5600,1399.75,86.5039,92.9867,145.562,100.643,100.194,0.00121047,0.207262,20.7429,287.641,0.035104,0.0,0.0
5635,1408.5,87.0537,92.7731,149.962,100.717,100.159,0.00145381,0.20592,20.7459,287.06,0.0436887,0.0,0.0
5670,1417.25,86.7527,92.3978,145.587,100.784,99.7383,0.00166932,0.20467,20.748,286.4,0.0819262,0.0,0.0
5705,1426,87.039,92.8363,147.912,100.815,100.193,0.00138236,0.203469,20.7481,285.849,0.0485878,0.0,0.0
5740,1434.75,86.9367,92.7402,146.107,100.894,100.961,0.00142907,0.205127,20.7466,285.259,-0.00523763,0.0,0.0
5775,1443.5,86.953,92.6359,144.307,101.007,100.084,0.00130846,0.201739,20.7501,284.618,0.0720219,0.0,0.0
5810,1452.25,86.8638,92.3003,151.352,101.096,100.309,0.00143422,0.200394,20.7509,284.098,0.0613408,0.0,0.0
5845,1461,86.9127,92.0287,146.98,101.188,101.014,0.00133819,0.199683,20.7536,283.517,0.0134909,0.0,0.0
5880,1469.75,86.3817,91.6648,141.882,101.255,100.335,0.00148238,0.199684,20.7525,282.927,0.0716927,0.0,0.0
5915,1478.5,85.8618,91.2342,143.033,101.326,100.853,0.00162673,0.198632,20.7576,282.366,0.0367122,0.0,0.0
5950,1487.25,86.4735,90.9425,144.717,101.367,101.239,0.00167159,0.197253,20.7582,281.796,0.00987775,0.0,0.0
5985,1496,86.417,91.5134,142.579,101.407,100.785,0.00148148,0.196393,20.7608,281.275,0.0483608,0.0,0.0
6020,1504.75,86.3303,92.1394,148.38,101.442,100.72,0.00180322,0.195874,20.7593,280.695,0.0561077,0.0,0.0
6055,1513.5,85.5772,91.6158,150.322,101.414,101.569,0.00141876,0.194422,20.7596,280.174,-0.0119846,0.0,0.0
6090,1522.25,86.0602,91.1162,147.419,101.335,100.893,0.00138511,0.195345,20.7615,279.574,0.0343045,0.0,0.0
6125,1531,85.4868,90.9687,148.579,101.223,100.527,0.00118039,0.193423,20.7625,279.023,0.0542005,0.0,0.0
6160,1539.75,85.4756,90.9693,152.316,101.045,100.387,0.00127525,0.192453,20.7655,278.483,0.0512859,0.0,0.0
6195,1548.5,85.8936,91.1954,149.179,100.812,99.7477,0.00128711,0.190881,20.7613,277.922,0.0833174,0.0,0.0
6230,1557.25,85.3817,91.1665,140.422,100.557,99.8595,0.00130723,0.194315,20.7579,277.412,0.0546857,0.0,0.0
6265,1566,85.3619,91.2321,150.023,100.348,100.068,0.00164247,0.194245,20.7588,276.842,0.0219462,0.0,0.0
6300,1574.75,85.5504,91.0219,145.42,100.185,99.1662,0.00118369,0.194001,20.764,276.311,0.080243,0.0,0.0
6335,1583.5,85.4505,90.5975,150.926,100.043,99.3793,0.0016326,0.190713,20.7655,275.711,0.052252,0.0,0.0
6370,1592.25,85.2423,90.7322,148.696,99.9032,99.4534,0.00147672,0.190334,20.7668,275.13,0.0354264,0.0,0.0
6405,1601,85.4364,90.9259,146.467,99.7611,98.2175,0.00133976,0.191786,20.7641,274.62,0.12244,0.0,0.0
6440,1609.75,85.5774,90.6741,146.169,99.6845,99.4499,0.00159479,0.19269,20.7656,274.099,0.0185041,0.0,0.0
6475,1618.5,85.565,90.7309,142.499,99.6453,99.0344,0.00140962,0.191444,20.7649,273.559,0.0482827,0.0,0.0
6510,1627.25,85.2323,90.5267,148.473,99.6504,99.0768,0.00143501,0.190933,20.7677,272.958,0.0453305,0.0,0.0
6545,1636,84.8944,90.4232,149.1,99.7218,99.517,0.00152365,0.190307,20.7688,272.418,0.0161459,0.0,0.0
6580,1644.75,84.9249,90.3582,143.983,99.7905,99.0167,0.00114206,0.190198,20.7696,271.897,0.061117,0.0,0.0
6615,1653.5,84.7656,90.4402,149.177,99.9067,98.5341,0.00154869,0.193449,20.7656,271.317,0.108621,0.0,0.0
6650,1662.25,85.2331,90.7641,145.988,99.9631,99.185,0.00145902,0.191025,20.7674,270.746,0.0613501,0.0,0.0
6685,1671,85.0672,91.0673,150.583,100.053,99.2015,0.00147948,0.194216,20.7649,270.216,0.0670855,0.0,0.0
6720,1679.75,84.78,91.1041,147.844,100.164,99.6488,0.00160694,0.193883,20.7641,269.686,0.0405076,0.0,0.0
6755,1688.5,85.7708,91.0067,148.249,100.251,99.3569,0.00146685,0.194729,20.7625,269.095,0.0703199,0.0,0.0
6790,1697.25,84.9507,90.7615,143.416,100.369,99.3957,0.00172016,0.193328,20.7633,268.515,0.0765372,0.0,0.0
6825,1706,85.3638,91.1516,143.773,100.45,99.803,0.00136909,0.194311,20.7628,267.984,0.0507605,0.0,0.0
6860,1714.75,84.9295,90.7609,149.015,100.527,100.514,0.00154263,0.194555,20.7657,267.404,0.000979912,0.0,0.0
6895,1723.5,85.1075,91.3514,150.853,100.563,100.326,0.00143906,0.196202,20.7658,266.863,0.0185862,0.0,0.0
6930,1732.25,85.533,90.452,146.114,100.626,100.567,0.00144766,0.197087,20.7619,266.263,0.00458684,0.0,0.0
6965,1741,85.0073,90.7563,149.399,100.736,100.372,0.00144195,0.193681,20.7651,265.732,0.0284285,0.0,0.0
7000,1749.75,85.2341,90.6872,147.212,100.784,99.8654,0.00148499,0.197022,20.7631,265.132,0.0719255,0.0,0.0
7035,1758.5,85.2794,90.6604,148.447,100.851,100.569,0.00166029,0.196521,20.7628,264.581,0.0219994,0.0,0.0
7070,1767.25,85.1666,90.8035,150.2,100.888,100.636,0.00160741,0.196017,20.7616,263.971,0.0196049,0.0,0.0
7105,1776,85.2826,90.9281,145.72,100.902,100.234,0.00155059,0.198091,20.7637,263.46,0.0521562,0.0,0.0
7140,1784.75,85.5296,90.4883,143.792,100.884,99.5229,0.00162243,0.197894,20.7595,262.85,0.106688,0.0,0.0
7175,1793.5,85.4053,90.6788,145.729,100.85,99.936,0.00147613,0.19756,20.7609,262.259,0.0714729,0.0,0.0
7210,1802.25,85.3688,91.2359,147.39,100.783,99.8289,0.001401,0.197692,20.7635,261.719,0.0746712,0.0,0.0
7245,1811,85.4482,91.0052,150.169,100.746,99.8042,0.00146371,0.198973,20.7599,261.118,0.0737709,0.0,0.0
7280,1819.75,85.5096,90.6359,146.171,100.673,100.094,0.00115343,0.199373,20.7595,260.568,0.0453323,0.0,0.0
7315,1828.5,85.6128,91.4618,148.643,100.553,100.176,0.00144822,0.197994,20.7601,259.987,0.0294888,0.0,0.0
7350,1837.25,85.5457,91.2523,148.565,100.405,99.7312,0.00143634,0.199844,20.7565,259.417,0.0529056,0.0,0.0
7385,1846,85.4602,90.7468,148.273,100.256,99.4746,0.00111918,0.198704,20.7602,258.867,0.0614281,0.0,0.0
7420,1854.75,84.7739,90.4839,145.629,100.182,99.6665,0.00130173,0.200545,20.7591,258.336,0.0404852,0.0,0.0
7455,1863.5,85.5703,90.8992,149.555,100.25,99.2839,0.00159543,0.198485,20.7597,257.706,0.076058,0.0,0.0
7490,1872.25,85.3888,90.3875,146.977,100.439,98.7884,0.00139027,0.201672,20.758,257.095,0.130093,0.0,0.0
7525,1881,84.664,90.8474,144.723,100.545,99.823,0.00147059,0.204091,20.7578,256.535,0.056564,0.0,0.0
7560,1889.75,85.6413,91.117,146.68,100.602,99.7924,0.00151902,0.203495,20.754,255.934,0.0634635,0.0,0.0
7595,1898.5,85.0815,91.117,148.547,100.58,100.346,0.00133265,0.201818,20.7567,255.364,0.018322,0.0,0.0
7630,1907.25,85.6466,91.375,143.433,100.609,100.314,0.00121632,0.205098,20.7538,254.783,0.0231006,0.0,0.0
7665,1916,85.6844,91.3746,146.174,100.647,100.123,0.00164559,0.204529,20.7531,254.163,0.0409499,0.0,0.0
7700,1924.75,85.3851,91.2097,145.172,100.728,99.9772,0.00163214,0.202986,20.7562,253.512,0.0587475,0.0,0.0
7735,1933.5,84.8277,91.2326,142.998,100.743,100.255,0.00131307,0.204843,20.7601,252.992,0.0381057,0.0,0.0
7770,1942.25,85.9099,91.6789,146.4,100.694,99.956,0.00150468,0.206963,20.7476,252.381,0.0577822,0.0,0.0
7805,1951,85.479,91.65,147.935,100.596,100.183,0.00127028,0.206766,20.7532,251.781,0.0322801,0.0,0.0
7840,1959.75,85.906,91.7572,147.098,100.563,100.481,0.0016661,0.20802,20.7515,251.2,0.00637426,0.0,0.0
7875,1968.5,85.6708,91.6549,145.534,100.502,100.341,0.00171732,0.206903,20.7513,250.61,0.0126163,0.0,0.0
7910,1977.25,85.7128,91.7011,147.512,100.459,100.12,0.00147217,0.209119,20.7496,250.059,0.0266042,0.0,0.0
7945,1986,86.034,91.4531,142.718,100.413,99.8607,0.00120494,0.207973,20.7508,249.449,0.0433397,0.0,0.0
7980,1994.75,86.0074,92.042,150.446,100.319,99.816,0.00141825,0.208354,20.7497,248.818,0.0394385,0.0,0.0
8015,2003.5,85.7536,91.4261,149.001,100.251,99.8713,0.00133374,0.209264,20.7498,248.208,0.0298077,0.0,0.0
8050,2012.25,86.2524,91.9899,146.019,100.155,98.992,0.00139636,0.210006,20.7486,247.597,0.0916849,0.0,0.0
8085,2021,85.9054,91.7406,148.331,100.2,99.5511,0.00130808,0.209118,20.7475,246.947,0.0509771,0.0,0.0
8120,2029.75,85.4898,91.2583,149.567,100.254,100.149,0.00117324,0.211721,20.7478,246.326,0.00821549,0.0,0.0
8155,2038.5,85.6771,91.8537,150.129,100.391,99.3616,0.00157815,0.213688,20.7448,245.786,0.0809101,0.0,0.0
8190,2047.25,86.5386,91.9698,152.702,100.506,100.29,0.00124802,0.214,20.7441,245.185,0.0168885,0.0,0.0
8225,2056,86.4274,92.605,145.301,100.657,99.8513,0.00136727,0.214226,20.7435,244.535,0.0631376,0.0,0.0
8260,2064.75,86.2571,92.2839,150.232,100.734,99.4652,0.00115796,0.213792,20.7442,243.894,0.0995269,0.0,0.0
8295,2073.5,86.6508,92.0936,156.514,100.801,100.317,0.00163795,0.21563,20.7431,243.344,0.0377657,0.0,0.0
8330,2082.25,86.6305,92.3936,152.502,100.841,100.003,0.00154591,0.217079,20.741,242.663,0.0654928,0.0,0.0
8365,2091,86.6142,92.2848,146.81,100.873,100.614,0.00161764,0.215641,20.7409,242.022,0.0201455,0.0,0.0
8400,2099.75,86.7362,92.7591,146.434,100.894,99.1309,0.00143862,0.217615,20.7391,241.432,0.138414,0.0,0.0
8435,2108.5,86.8136,92.422,144.855,100.863,99.9972,0.00164484,0.216861,20.7394,240.781,0.0676534,0.0,0.0
8470,2117.25,86.2236,92.5692,147.554,100.826,100.339,0.00164841,0.218423,20.741,240.101,0.0380852,0.0,0.0
8505,2126,86.3408,92.6185,146.948,100.745,100.546,0.00145196,0.217759,20.7426,239.52,0.0155238,0.0,0.0
8540,2134.75,86.7573,92.9284,148.319,100.618,99.8654,0.00164695,0.220881,20.7382,238.86,0.0589314,0.0,0.0
8575,2143.5,86.4678,92.7629,146.39,100.44,99.9137,0.00159497,0.220931,20.7342,238.239,0.0412227,0.0,0.0
8610,2152.25,86.5865,92.9738,142.054,100.269,99.6041,0.00180231,0.220041,20.737,237.649,0.0522092,0.0,0.0
8645,2161,87.1005,93.2165,147.677,100.111,99.5605,0.00123823,0.222885,20.7363,236.888,0.0432661,0.0,0.0
8680,2169.75,86.7835,92.8297,151.409,99.9274,99.6653,0.00160521,0.22125,20.7326,236.298,0.0206188,0.0,0.0
8715,2178.5,86.2647,93.1638,149.452,99.7512,99.2804,0.00147916,0.222368,20.7345,235.597,0.0371463,0.0,0.0
8750,2187.25,86.8601,93.1749,146.803,99.6548,98.2328,0.00150839,0.223006,20.731,235.027,0.112843,0.0,0.0
8785,2196,86.982,93.1422,147.249,99.6377,99.1898,0.00146729,0.226269,20.7277,234.296,0.0353798,0.0,0.0
8820,2204.75,86.685,93.68,148.285,99.7345,99.6276,0.00143162,0.226436,20.7285,233.726,0.00842026,0.0,0.0
8855,2213.5,86.8681,93.5338,144.552,99.9151,98.8978,0.00160602,0.226289,20.7267,233.075,0.0803468,0.0,0.0
8890,2222.25,87.6061,93.3804,146.432,100.181,99.61,0.00169651,0.227355,20.7289,232.404,0.0449061,0.0,0.0
8925,2231,87.818,93.7534,148.082,100.484,100.327,0.00148233,0.226309,20.7267,231.694,0.0123275,0.0,0.0
8960,2239.75,86.9764,93.4275,147.292,100.749,99.8183,0.001532,0.227826,20.7276,231.043,0.0728761,0.0,0.0
8995,2248.5,87.5134,93.5243,143.709,101.007,100.643,0.00165517,0.229749,20.7268,230.443,0.0282821,0.0,0.0
9030,2257.25,87.3988,93.8004,148.505,101.199,100.126,0.00163466,0.230814,20.7245,229.702,0.0837665,0.0,0.0
9065,2266,87.4829,93.921,139.157,101.321,101.09,0.00145234,0.232393,20.7235,229.062,0.0179755,0.0,0.0
9100,2274.75,88.0904,94.379,147.583,101.389,99.6135,0.00158207,0.234733,20.7209,228.411,0.138692,0.0,0.0
9135,2283.5,87.9732,94.582,146.732,101.422,101.187,0.00170547,0.233128,20.7205,227.69,0.0182286,0.0,0.0
9170,2292.25,88.5314,94.8368,144.73,101.434,100.619,0.0015691,0.235135,20.7193,227.04,0.0633893,0.0,0.0
9205,2301,88.6491,94.5535,145.806,101.419,100.47,0.00125162,0.236215,20.716,226.349,0.0737727,0.0,0.0
9240,2309.75,88.9018,94.9143,143.821,101.435,100.682,0.00161811,0.235895,20.7157,225.669,0.058492,0.0,0.0
9275,2318.5,89.0951,95.2995,144.095,101.425,100.485,0.00177238,0.239765,20.7123,224.958,0.0731607,0.0,0.0
9310,2327.25,88.4062,95.1756,143.603,101.403,100.821,0.00167472,0.239729,20.7125,224.288,0.0451797,0.0,0.0
9345,2336,88.4819,95.3656,140.913,101.418,100.913,0.00147469,0.241331,20.7146,223.627,0.0392318,0.0,0.0
9380,2344.75,89.0266,94.9537,145.01,101.427,100.687,0.00136719,0.241273,20.7107,222.876,0.0574802,0.0,0.0
9415,2353.5,89.3946,95.2858,152.61,101.454,100.374,0.00114362,0.243024,20.7097,222.156,0.0840536,0.0,0.0
9450,2362.25,89.3009,96.026,145.137,101.425,100.773,0.00156942,0.248451,20.7093,221.465,0.0506284,0.0,0.0
9485,2371,89.6683,96.7051,141.224,101.401,101.341,0.00141925,0.250364,20.7014,220.775,0.00461303,0.0,0.0
9520,2379.75,89.4792,97.2309,142.525,101.393,100.634,0.00144225,0.256314,20.6952,219.974,0.0590308,0.0,0.0
9555,2388.5,90.0668,96.8344,143.031,101.363,100.825,0.00177115,0.256888,20.6901,219.293,0.0417701,0.0,0.0
9590,2397.25,90.5214,97.2926,142.71,101.316,100.2,0.00139961,0.260344,20.6914,218.513,0.0869987,0.0,0.0
9625,2406,90.6277,97.9841,143.162,101.254,99.876,0.00149976,0.263162,20.6883,217.752,0.107575,0.0,0.0
9660,2414.75,90.8496,97.6774,140.407,101.209,99.1792,0.00179229,0.264602,20.683,216.982,0.15904,0.0,0.0
9695,2423.5,91.2574,98.0611,145.294,101.152,100.157,0.00178721,0.266769,20.6819,216.251,0.0776105,0.0,0.0
9730,2432.25,91.1189,97.9316,148.731,101.109,99.3981,0.00209843,0.26716,20.6781,215.53,0.133965,0.0,0.0
9765,2441,90.4056,97.4631,142.592,101.011,99.823,0.00177213,0.264551,20.6825,214.74,0.0929189,0.0,0.0
9800,2449.75,90.9521,97.5157,142.524,100.94,100.581,0.00159587,0.262586,20.6848,213.989,0.0279669,0.0,0.0
9835,2458.5,91.2527,97.5225,148.96,100.843,99.8336,0.00146437,0.261171,20.6852,213.248,0.0789672,0.0,0.0
9870,2467.25,91.3934,97.8244,145.672,100.726,99.6159,0.00156789,0.256143,20.6873,212.538,0.0869931,0.0,0.0
9905,2476,90.976,97.4354,144.062,100.589,99.351,0.00157057,0.253961,20.6928,211.877,0.0972484,0.0,0.0
9940,2484.75,90.834,97.3713,141.103,100.374,99.6112,0.00138623,0.24725,20.6985,211.207,0.0598817,0.0,0.0
9975,2493.5,91.0761,96.8047,146.189,100.178,98.6871,0.00180821,0.242784,20.7052,210.586,0.117737,0.0,0.0
10010,2502.25,90.7453,97.2402,142.202,100.033,99.0203,0.00179647,0.239221,20.7082,209.886,0.0798576,0.0,0.0
10045,2511,90.5495,96.0867,148.449,99.8861,99.1085,0.0015809,0.23805,20.7113,209.215,0.0613603,0.0,0.0
10080,2519.75,90.06,95.9384,144.226,99.7833,98.8119,0.00149115,0.235057,20.7131,208.625,0.0768135,0.0,0.0
10115,2528.5,90.5242,96.2125,145.791,99.7171,98.5282,0.00169749,0.238585,20.7124,207.964,0.0941703,0.0,0.0
10150,2537.25,90.0432,96.5041,140.908,99.6726,97.995,0.00146814,0.236545,20.7139,207.303,0.133278,0.0,0.0
10185,2546,89.5852,95.9031,146.807,99.6663,98.9838,0.00135566,0.239059,20.714,206.673,0.0539533,0.0,0.0
10220,2554.75,89.7671,96.2315,143.459,99.7218,98.1339,0.0016055,0.237904,20.7128,206.052,0.126032,0.0,0.0
10255,2563.5,89.6604,96.1822,146.427,99.7837,98.9896,0.00168145,0.23767,20.7138,205.252,0.0627337,0.0,0.0
10290,2572.25,89.0882,96.0821,144.946,99.8762,99.1191,0.00135429,0.241934,20.7138,204.651,0.0597414,0.0,0.0
10325,2581,89.6619,95.6803,146.222,99.9786,98.221,0.00156231,0.243906,20.7072,203.911,0.139252,0.0,0.0
10360,2589.75,89.8024,95.9777,150.711,100.153,98.9037,0.00168247,0.245374,20.7073,203.23,0.0985657,0.0,0.0
10395,2598.5,89.3618,95.9267,147.123,100.318,99.3675,0.00123201,0.24303,20.7059,202.559,0.0747639,0.0,0.0
10430,2607.25,90.085,97.0154,143.008,100.511,99.1662,0.00142874,0.246092,20.708,201.819,0.105763,0.0,0.0
10465,2616,90.0741,96.1901,153.457,100.656,99.6653,0.00144749,0.247145,20.698,201.208,0.0776513,0.0,0.0
10500,2624.75,89.5072,96.2156,145.368,100.77,99.6712,0.00148101,0.245036,20.7048,200.528,0.086097,0.0,0.0
10535,2633.5,89.6661,96.4359,143.27,100.843,99.9501,0.00156365,0.244956,20.7067,199.807,0.0698384,0.0,0.0
10570,2642.25,90.1236,95.9519,146.453,100.866,99.5205,0.00186267,0.242509,20.7079,199.137,0.105452,0.0,0.0
10605,2651,89.9992,96.0963,145.43,100.887,99.3628,0.00178572,0.242271,20.709,198.446,0.119543,0.0,0.0
10640,2659.75,90.0296,96.7092,144.614,100.903,100.323,0.0016653,0.241282,20.7091,197.795,0.0452141,0.0,0.0
10675,2668.5,90.0293,96.0823,144.62,100.887,99.8089,0.00165411,0.241374,20.7111,197.115,0.0843397,0.0,0.0
10710,2677.25,90.0066,96.2064,145.195,100.876,99.1368,0.00162187,0.239728,20.7121,196.454,0.136526,0.0,0.0
10745,2686,89.6236,96.0985,144.996,100.828,99.9066,0.00211469,0.236952,20.7132,195.844,0.0721174,0.0,0.0
10780,2694.75,89.6461,96.1885,141.604,100.774,99.8831,0.0017911,0.238485,20.7155,195.193,0.0697021,0.0,0.0
10815,2703.5,89.5476,95.9214,153.448,100.684,99.783,0.00167317,0.237082,20.717,194.553,0.0705815,0.0,0.0
10850,2712.25,89.5232,96.0907,142.316,100.556,99.6147,0.00150876,0.237709,20.7167,193.832,0.0738358,0.0,0.0
10885,2721,89.2718,96.035,149.624,100.43,99.0979,0.00169715,0.23566,20.718,193.262,0.104876,0.0,0.0
10920,2729.75,89.2397,95.9369,149.02,100.302,99.3922,0.00185121,0.237478,20.7148,192.651,0.0715072,0.0,0.0
10955,2738.5,89.3401,95.0802,145.904,100.194,99.3522,0.00183873,0.236314,20.718,191.891,0.0662771,0.0,0.0
10990,2747.25,89.098,95.2084,151.533,100.213,98.2057,0.00175247,0.229982,20.724,191.32,0.158902,0.0,0.0
11025,2756,89.4462,95.5164,146.973,100.392,99.1992,0.00197499,0.235343,20.7189,190.639,0.0938494,0.0,0.0
11060,2764.75,89.2556,95.7927,144.794,100.591,99.5476,0.00158418,0.236049,20.714,189.979,0.0818836,0.0,0.0
11095,2773.5,89.5863,95.4053,147.609,100.709,99.0591,0.0019302,0.233984,20.7158,189.338,0.1297,0.0,0.0
11130,2782.25,89.6086,95.5641,150.404,100.82,99.5346,0.00172654,0.237211,20.7159,188.748,0.100724,0.0,0.0
11165,2791,89.6171,95.687,143.206,100.897,99.4817,0.00154418,0.234328,20.7178,188.027,0.110895,0.0,0.0
11200,2799.75,89.7385,95.8184,141.357,100.9,99.3616,0.00140914,0.237167,20.7176,187.447,0.120655,0.0,0.0
11235,2808.5,89.2233,95.8486,147.128,100.907,99.4746,0.00172708,0.237861,20.7145,186.766,0.112225,0.0,0.0
11270,2817.25,89.4889,95.8496,144.423,100.869,100.141,0.00180236,0.238668,20.7123,186.146,0.0568502,0.0,0.0
11305,2826,89.7404,96.1989,146.146,100.786,100.015,0.00160426,0.240356,20.7108,185.515,0.060335,0.0,0.0
11340,2834.75,89.4928,96.4155,140.488,100.658,98.7825,0.00175135,0.239695,20.7125,184.805,0.147695,0.0,0.0
11375,2843.5,89.7364,95.6521,144.863,100.475,98.5271,0.00169783,0.238014,20.7121,184.154,0.153743,0.0,0.0
11410,2852.25,89.7437,95.9543,146.306,100.57,99.0626,0.00183052,0.240103,20.7137,183.534,0.118554,0.0,0.0
11445,2861,89.0795,95.6347,145.948,100.668,99.0426,0.00168853,0.240038,20.7121,182.873,0.127788,0.0,0.0
11480,2869.75,89.4741,96.0535,140.467,100.764,100.332,0.00159332,0.24001,20.7126,182.202,0.0337547,0.0,0.0
11515,2878.5,89.9429,95.7349,141.513,100.887,100.176,0.00167114,0.243636,20.7069,181.532,0.0555027,0.0,0.0
11550,2887.25,89.8898,96.1294,148.541,100.929,99.1933,0.00156452,0.243086,20.7077,180.871,0.13619,0.0,0.0
11585,2896,89.832,96.3491,145.342,100.983,99.3086,0.00200898,0.244853,20.7077,180.231,0.131261,0.0,0.0
11620,2904.75,89.932,95.9588,149.141,101.007,99.7618,0.00164059,0.246201,20.7041,179.53,0.0973649,0.0,0.0
11655,2913.5,89.9286,96.6788,141.64,101.023,99.4181,0.00155327,0.246008,20.706,178.85,0.125758,0.0,0.0
11690,2922.25,90.0599,96.4342,144.389,101.064,98.9355,0.00158173,0.249067,20.7002,178.189,0.16714,0.0,0.0
11725,2931,90.1407,96.6235,143.246,101.066,99.497,0.00181459,0.248546,20.6976,177.518,0.122831,0.0,0.0
11760,2939.75,89.9392,96.5163,146.228,101.065,99.391,0.00159801,0.250172,20.6995,176.798,0.131164,0.0,0.0
11795,2948.5,90.2029,96.442,143.683,101.105,98.4859,0.00168249,0.250127,20.6947,176.007,0.20605,0.0,0.0
11830,2957.25,90.2362,96.3784,141.463,101.082,98.9343,0.00166568,0.252323,20.6949,175.377,0.168589,0.0,0.0
11865,2966,90.6549,97.0238,140.006,101.08,98.7225,0.0015293,0.255628,20.6918,174.696,0.1853,0.0,0.0
11900,2974.75,90.1483,97.1696,147.085,101.128,98.8613,0.00181789,0.25727,20.6895,173.956,0.177989,0.0,0.0
11935,2983.5,90.4095,96.7745,146.51,101.088,98.912,0.0014914,0.25591,20.6904,173.235,0.170888,0.0,0.0
11970,2992.25,90.5067,97.4349,143.699,101.102,98.6742,0.00159885,0.25896,20.6891,172.524,0.190834,0.0,0.0
12005,3001,90.3033,97.3976,145.327,101.077,98.6247,0.00185086,0.259127,20.6875,171.824,0.192858,0.0,0.0
12040,3009.75,90.4817,96.8759,144.429,100.994,98.8366,0.00198413,0.259577,20.6816,171.113,0.169564,0.0,0.0
12075,3018.5,90.6279,97.0571,143.018,100.894,98.2551,0.00196228,0.262614,20.6803,170.373,0.208085,0.0,0.0
12110,3027.25,91.0912,97.2967,145.072,100.73,97.5206,0.00166471,0.261025,20.6758,169.742,0.254206,0.0,0.0
12145,3036,90.683,97.4657,144.514,100.604,97.922,0.00185867,0.261805,20.6792,168.961,0.212145,0.0,0.0
12180,3044.75,91.3382,97.2763,142.824,100.508,97.7054,0.00194624,0.26103,20.68,168.341,0.222033,0.0,0.0
12215,3053.5,90.776,97.0421,140.31,100.579,97.9879,0.00188537,0.257098,20.68,167.68,0.204911,0.0,0.0
12250,3062.25,90.4435,96.5723,147.183,100.74,98.6212,0.0018019,0.249622,20.6859,167.13,0.166927,0.0,0.0
12285,3071,89.3613,95.4861,146.69,100.857,99.0214,0.00152947,0.231587,20.6971,166.649,0.144247,0.0,0.0
12320,3079.75,88.6071,93.0229,150.611,100.915,99.9396,0.00162354,0.201654,20.7286,166.339,0.0762295,0.0,0.0
12355,3088.5,87.1567,91.6101,145.728,100.838,100.319,0.00220816,0.17231,20.7632,166.079,0.0405476,0.0,0.0
12390,3097.25,86.115,90.1572,148.983,100.686,100.077,0.00234305,0.157264,20.7878,165.799,0.0476147,0.0,0.0
12425,3106,85.2275,88.7757,151.446,100.394,99.5429,0.0021295,0.147337,20.7972,165.568,0.0668164,0.0,0.0
12460,3114.75,84.7009,88.2706,151.011,100.145,98.1539,0.00248787,0.145662,20.8034,165.298,0.157695,0.0,0.0
12495,3123.5,83.8661,87.2561,151.965,100.202,99.5135,0.00332776,0.140027,20.8099,165.058,0.0541355,0.0,0.0
12530,3132.25,83.2504,87.0404,147.535,100.306,99.876,0.00318785,0.138295,20.8168,164.968,0.0337547,0.0,0.0
12565,3141,82.895,86.1322,149.632,100.471,99.4828,0.00349974,0.134375,20.8179,164.718,0.0776328,0.0,0.0
12600,3149.75,82.1452,85.9903,146.096,100.634,100.475,0.00391731,0.132097,20.8214,164.548,0.012377,0.0,0.0
12635,3158.5,81.574,85.2362,149.541,100.739,100.108,0.00359209,0.131154,20.8202,164.327,0.0493282,0.0,0.0
12670,3167.25,81.2946,84.4343,150.868,100.807,101.281,0.00422469,0.130506,20.8212,164.187,-0.0368625,0.0,0.0
12705,3176,81.1143,84.8188,149.287,100.872,100.572,0.00398192,0.128338,20.8253,164.007,0.0234217,0.0,0.0
12740,3184.75,81.1745,84.7904,149.602,100.884,100.765,0.00412174,0.127774,20.8248,163.837,0.00929254,0.0,0.0
12775,3193.5,80.4066,84.0505,153.669,100.859,100.791,0.00406662,0.126874,20.8296,163.687,0.00529774,0.0,0.0
12810,3202.25,80.2601,84.2228,150.08,100.776,101.26,0.00411797,0.127062,20.8319,163.497,-0.0376614,0.0,0.0
12845,3211,79.6987,83.5447,152.967,100.664,100.087,0.00395732,0.123184,20.8346,163.317,0.0451741,0.0,0.0
12880,3219.75,79.9383,83.2589,149.273,100.527,99.7442,0.00390866,0.121928,20.8348,163.166,0.0613445,0.0,0.0
12915,3228.5,79.3835,83.0135,150.05,100.366,100.706,0.00450982,0.122194,20.8349,162.936,-0.0265237,0.0,0.0
12950,3237.25,79.5885,83.5012,148.526,100.248,100.036,0.00440817,0.122241,20.8376,162.826,0.0166139,0.0,0.0
12985,3246,79.4153,83.228,150.846,100.154,99.4958,0.00456367,0.12184,20.8364,162.666,0.0517657,0.0,0.0
13020,3254.75,79.2593,82.8998,148.993,100.056,100.054,0.00433027,0.121081,20.8385,162.476,0.000141332,0.0,0.0
13055,3263.5,78.9959,83.1046,152.237,99.9555,99.7383,0.00470715,0.120393,20.8371,162.306,0.0170855,0.0,0.0
13090,3272.25,78.8985,82.8067,154.71,99.8659,99.0332,0.00485128,0.119635,20.838,162.216,0.0657398,0.0,0.0
13125,3281,79.2251,82.6799,152.225,99.8131,99.7018,0.00472241,0.11931,20.8382,162.056,0.00876058,0.0,0.0
13160,3289.75,78.7766,82.6144,156.563,99.7635,99.59,0.00445975,0.119072,20.8409,161.915,0.0136693,0.0,0.0
13195,3298.5,78.4526,82.2661,153.614,99.7528,98.9555,0.00456889,0.118066,20.8439,161.725,0.0630058,0.0,0.0
13230,3307.25,78.1561,82.1975,148.886,99.7504,99.0991,0.00440448,0.116369,20.8424,161.635,0.0514319,0.0,0.0
13265,3316,78.2513,82.2319,151.127,99.721,99.3239,0.00462344,0.117399,20.844,161.445,0.0313284,0.0,0.0
13300,3324.75,78.1246,81.9005,148.634,99.7123,99.4016,0.00496462,0.116029,20.8444,161.265,0.0245022,0.0,0.0
13335,3333.5,77.999,81.759,150.704,99.6893,99.5135,0.00495814,0.117009,20.8442,161.145,0.0138618,0.0,0.0
13370,3342.25,77.6407,82.2101,152.266,99.6639,99.5123,0.00489513,0.115113,20.8446,160.995,0.0119546,0.0,0.0
13405,3351,77.8597,82.0361,150.624,99.6655,99.4982,0.00480225,0.113553,20.8447,160.825,0.0131937,0.0,0.0
13440,3359.75,77.8574,81.7727,151.13,99.6572,99.504,0.00478114,0.114384,20.8469,160.714,0.0120733,0.0,0.0
13475,3368.5,77.4264,81.7958,150.494,99.6778,99.0709,0.00507005,0.114429,20.8454,160.574,0.0479534,0.0,0.0
13510,3377.25,77.8385,81.3539,151.49,99.6675,99.2168,0.00482348,0.112221,20.8472,160.434,0.0355811,0.0,0.0
13545,3386,77.0254,80.9752,148.086,99.6639,99.5146,0.00489665,0.113064,20.8476,160.304,0.0117686,0.0,0.0
13580,3394.75,77.1897,81.0609,152.705,99.6711,99.3287,0.00498956,0.112812,20.8479,160.174,0.0270192,0.0,0.0
13615,3403.5,77.0307,80.8299,152.989,99.6822,99.012,0.00484847,0.111897,20.8505,160.044,0.0529632,0.0,0.0
13650,3412.25,76.8896,81.0627,147.747,99.6937,98.806,0.00475062,0.112673,20.8517,159.954,0.0702216,0.0,0.0
13685,3421,76.8738,81.007,154.143,99.6853,99.8642,0.00522638,0.111982,20.8515,159.834,-0.0140776,0.0,0.0
13720,3429.75,77.0993,81.1389,155.557,99.698,98.7801,0.00517819,0.111233,20.8495,159.674,0.0726229,0.0,0.0
13755,3438.5,76.9411,81.1008,150.864,99.7278,99.6076,0.0050468,0.112124,20.848,159.543,0.00946643,0.0,0.0
13790,3447.25,76.8424,80.8104,149.89,99.7714,98.8555,0.00521745,0.111167,20.8499,159.353,0.0724161,0.0,0.0
13825,3456,77.0347,81.3477,152.076,99.7976,99.5629,0.00499527,0.111063,20.8522,159.303,0.0184891,0.0,0.0
13860,3464.75,76.0954,81.0961,155.285,99.8694,99.2851,0.00514828,0.109501,20.8523,159.163,0.0460749,0.0,0.0
13895,3473.5,76.5498,81.1342,150.929,99.9841,99.5817,0.00543292,0.110665,20.8525,158.993,0.031663,0.0,0.0
13930,3482.25,76.3579,80.779,155.151,100.134,99.6676,0.00569785,0.110465,20.8526,158.903,0.0366283,0.0,0.0
13965,3491,76.1477,80.4439,155.957,100.293,100.199,0.00580728,0.110726,20.8535,158.743,0.00738517,0.0,0.0
14000,3499.75,76.6562,80.6244,155.8,100.462,100.075,0.00553544,0.108599,20.8531,158.603,0.0302982,0.0,0.0
14035,3508.5,76.3423,80.6025,151.285,100.545,99.9031,0.00606541,0.109828,20.8521,158.543,0.050302,0.0,0.0
14070,3517.25,76.5258,80.3691,149.549,100.641,100.096,0.00600943,0.109829,20.8547,158.453,0.0426397,0.0,0.0
14105,3526,76.2036,80.3431,157.403,100.707,100.562,0.00573146,0.109141,20.8535,158.252,0.0113294,0.0,0.0
14140,3534.75,75.7585,80.4,146.197,100.789,99.9678,0.00566242,0.107639,20.8563,158.142,0.064249,0.0,0.0
14175,3543.5,76.6444,80.6409,151.769,100.838,100.295,0.00554894,0.109502,20.8562,158.052,0.0423594,0.0,0.0
14210,3552.25,76.1255,80.8722,154.125,100.888,101.03,0.00565984,0.108122,20.8543,157.932,-0.0109774,0.0,0.0
14245,3561,76.0726,80.4873,151.385,100.892,100.113,0.00588397,0.108179,20.8575,157.842,0.0608867,0.0,0.0
14280,3569.75,76.1517,80.1791,149.359,100.882,100.207,0.00596002,0.107058,20.8597,157.712,0.0527642,0.0,0.0
14315,3578.5,76.2313,81.0795,157.579,100.84,100.961,0.00593732,0.10789,20.8575,157.632,-0.0094385,0.0,0.0
14350,3587.25,75.8144,80.3035,153.705,100.799,100.885,0.00609039,0.106966,20.8563,157.492,-0.00666843,0.0,0.0
14385,3596,75.7915,80.3103,153.637,100.761,100.486,0.00593651,0.105991,20.8577,157.382,0.0214804,0.0,0.0
14420,3604.75,76.172,80.1787,154.307,100.69,100.361,0.00625583,0.106579,20.8578,157.252,0.025731,0.0,0.0
14455,3613.5,75.6663,80.4115,155.201,100.617,101.013,0.00629794,0.107053,20.8588,157.171,-0.0308158,0.0,0.0
14490,3622.25,76.2238,80.3647,150.912,100.542,100.008,0.00664934,0.10754,20.8553,157.021,0.0417943,0.0,0.0
14525,3631,76.035,80.3227,152.152,100.515,99.5664,0.00627594,0.105149,20.8557,156.921,0.0744811,0.0,0.0
14560,3639.75,75.6393,79.8055,158.027,100.453,99.9243,0.00601424,0.106023,20.8564,156.801,0.0414452,0.0,0.0
14595,3648.5,75.478,79.9195,151.687,100.431,100.055,0.00668709,0.105865,20.8571,156.721,0.0294795,0.0,0.0
14630,3657.25,75.857,79.9029,150.059,100.41,99.8266,0.00644896,0.10585,20.8576,156.591,0.0457446,0.0,0.0
14665,3666,75.5594,79.5737,152.494,100.361,99.9219,0.00614238,0.105239,20.8591,156.461,0.0344322,0.0,0.0
14700,3674.75,75.7618,79.7667,150.46,100.329,99.8901,0.00615092,0.104054,20.8598,156.381,0.0344461,0.0,0.0
14735,3683.5,75.4071,80.3421,150.997,100.296,99.5158,0.00635701,0.105464,20.8591,156.211,0.0613455,0.0,0.0
14770,3692.25,75.8906,79.9941,151.233,100.26,99.61,0.00661569,0.105551,20.8561,156.121,0.0510924,0.0,0.0
14805,3701,75.3062,79.4497,152.671,100.191,99.8536,0.00653642,0.104455,20.8593,156.011,0.0264698,0.0,0.0
14840,3709.75,75.8333,79.708,149.959,100.139,99.5476,0.00671866,0.104477,20.8593,155.95,0.0464964,0.0,0.0
14875,3718.5,75.4451,79.3488,153.063,100.236,99.949,0.00684601,0.104018,20.8618,155.83,0.0224894,0.0,0.0
14910,3727.25,75.4177,79.2062,152.77,100.29,100.283,0.00636378,0.103076,20.864,155.73,0.000528812,0.0,0.0
14945,3736,75.2206,79.3659,149.11,100.367,99.763,0.00650229,0.103259,20.8653,155.59,0.0474259,0.0,0.0
14980,3744.75,75.1039,78.9805,151.843,100.42,99.7006,0.00687253,0.104378,20.8637,155.52,0.056433,0.0,0.0
15015,3753.5,75.3393,79.5773,156.001,100.548,100.42,0.00674359,0.103491,20.8626,155.42,0.00998058,0.0,0.0
15050,3762.25,74.7269,79.7751,150.276,100.644,100.376,0.00666778,0.104325,20.861,155.22,0.0209437,0.0,0.0
15085,3771,74.9949,79.5886,149.014,100.777,100.818,0.00674897,0.10322,20.8626,155.2,-0.00317596,0.0,0.0
15120,3779.75,75.4573,79.3195,155.663,100.84,100.309,0.00662428,0.104169,20.8615,155.08,0.0414703,0.0,0.0
15155,3788.5,74.8249,79.5137,149.428,100.901,100.489,0.00605436,0.102617,20.8624,154.98,0.0321114,0.0,0.0
15190,3797.25,75.1132,79.0533,148.603,100.907,100.454,0.00658937,0.102916,20.8624,154.86,0.0353649,0.0,0.0
15225,3806,75.4734,79.0815,151.553,100.923,100.758,0.00691666,0.103061,20.8626,154.769,0.0128676,0.0,0.0
15260,3814.75,75.1302,79.187,154.546,100.901,100.261,0.0068393,0.103563,20.8613,154.659,0.049943,0.0,0.0
15295,3823.5,75.3292,79.3189,154.123,100.873,100.319,0.00662278,0.102822,20.8599,154.579,0.0432969,0.0,0.0
15330,3832.25,75.6737,79.4999,152.069,100.809,100.731,0.00662475,0.102235,20.8606,154.459,0.0060834,0.0,0.0
15365,3841,74.6989,79.2979,154.377,100.693,100.11,0.0066458,0.10045,20.8623,154.429,0.0455557,0.0,0.0
15400,3849.75,74.9352,79.0251,151.596,100.564,100.37,0.00657078,0.102006,20.8609,154.349,0.0151175,0.0,0.0
15435,3858.5,74.3388,79.4179,153.099,100.52,100.053,0.00660343,0.101225,20.8605,154.269,0.0365789,0.0,0.0
15470,3867.25,74.9544,78.7397,158.604,100.6,100.193,0.00706848,0.102907,20.8606,154.169,0.0318523,0.0,0.0
15505,3876,74.5826,79.1066,151.106,100.703,99.9231,0.0066246,0.101706,20.8635,154.049,0.0610213,0.0,0.0
15540,3884.75,74.6214,79.0035,160.082,100.792,100.47,0.00688209,0.100616,20.8661,153.929,0.0250565,0.0,0.0
15575,3893.5,74.594,79.4594,152.62,100.877,100.825,0.00662099,0.101682,20.8651,153.869,0.00409105,0.0,0.0
15610,3902.25,75.1039,79.1504,156.866,100.911,100.086,0.00639663,0.100656,20.8626,153.809,0.0645237,0.0,0.0
15645,3911,74.249,78.7328,152.129,100.976,100.477,0.0063259,0.100093,20.8627,153.729,0.0388956,0.0,0.0
15680,3919.75,74.7856,79.4746,152.261,100.98,100.636,0.0064762,0.101518,20.8629,153.588,0.0267655,0.0,0.0
15715,3928.5,74.6504,79.0796,153.668,101.01,100.573,0.0069977,0.102028,20.8635,153.488,0.0340398,0.0,0.0
15750,3937.25,74.7663,79.1627,149.528,101.043,100.515,0.00678328,0.100683,20.8658,153.348,0.0411035,0.0,0.0
15785,3946,74.7581,79.0866,147.706,101.086,101.113,0.00693812,0.10133,20.8659,153.288,-0.00207628,0.0,0.0
15820,3954.75,74.6671,79.2293,154.64,101.055,100.625,0.00661394,0.100546,20.8666,153.168,0.033544,0.0,0.0
15855,3963.5,74.8235,79.1577,152.116,101.021,100.366,0.00685198,0.100906,20.866,153.038,0.0510618,0.0,0.0
15890,3972.25,74.827,78.867,147.445,100.961,101.173,0.00683433,0.0996509,20.8659,152.958,-0.0164812,0.0,0.0
15925,3981,74.7678,79.2737,151.997,100.902,100.559,0.00656419,0.100453,20.8642,152.848,0.0267487,0.0,0.0
15960,3989.75,74.5666,78.4403,150.981,100.812,100.902,0.00693476,0.101603,20.8645,152.758,-0.00702347,0.0,0.0
15995,3998.5,73.8842,78.477,149.819,100.7,100.381,0.00667956,0.0997015,20.866,152.668,0.0249081,0.0,0.0
16030,4007.25,73.9321,77.9614,155.697,100.579,100.618,0.00746676,0.101218,20.8651,152.598,-0.00298682,0.0,0.0
16065,4016,73.9133,77.7637,152.758,100.504,100.292,0.00709243,0.100597,20.8644,152.538,0.0165784,0.0,0.0
16100,4024.75,73.9376,77.8589,149.288,100.553,100.457,0.00704501,0.0991489,20.8665,152.417,0.00750112,0.0,0.0
16135,4033.5,73.6175,77.7262,154.056,100.685,100.206,0.00699487,0.100885,20.8666,152.297,0.0374621,0.0,0.0
16170,4042.25,73.40625,77.8808,150.052,100.784,100.649,0.00692954,0.100084,20.8664,152.237,0.0105003,0.0,0.0
16205,4051,73.125,77.0901,150.614,100.874,100.733,0.0072787,0.100772,20.8644,152.117,0.0109966,0.0,0.0
16240,4059.75,73.2708,78.0903,150.371,100.89,100.268,0.00740499,0.100136,20.8642,152.037,0.0485562,0.0,0.0
16275,4068.5,73.7954,78.6014,153.522,100.865,100.732,0.00692013,0.100437,20.866,151.797,0.010347,0.0,0.0
16310,4077.25,73.4029,78.6064,153.642,100.8,99.2298,0.00702608,0.0990587,20.8672,151.807,0.123264,0.0,0.0
16345,4086,73.1575,77.7231,148.699,100.638,99.703,0.00699374,0.100157,20.8635,151.657,0.0732915,0.0,0.0
16380,4094.75,73.3348,77.9456,151.792,100.412,100.384,0.00654124,0.100036,20.867,151.447,0.00213936,0.0,0.0
16415,4103.5,73.3994,78.1506,149.563,100.211,99.7795,0.00760136,0.101476,20.8653,151.467,0.0338581,0.0,0.0
16444,4110.75,73.3623,78.007,151.984,100.122,100.679,0.0074354,0.098607,20.8633,151.357,-0.0435572,0.0,0.0